File: remote_trans/data/nanoindenter/0828-1/data/Data_2025-08-06,11h17m57s/2025-07-22_16-23-58_1_725.txt
2025-07-22, 16:23:58, 1
Index	Phase	Displacement	Time	Pos X	Pos Y	Pos Z	Rot A	Rot B	Piezo Z	Force A	Force B	Gripper	Voltage A	Voltage B	Temperature	Amplitude force	Amplitude pos	Stiffness	Phase shift	Phase excitation	Force A raw	Displacement raw	HMax	HMax raw	Real Force	Real Stiffness	Contact Depth	Area	Hardness	Reduced Mod.
[#]	[#]	[um]	[s]	[um]	[um]	[um]	[m°]	[m°]	[um]	[uN]	[uN]	[V]	[V]	[V]	[°C]	[uN]	[um]	[N/m]	[°]	[°]	[uN]	[um]	[um]	[um]	[uN]	[N/m]	[um]	[um^2]	[MPa]	[MPa]
725	1.000000	0.002517	7.37215e+06	-40839.1	1005.82	-29788.4	0.000000	0.000000	6.002823	0.042100	NaN	0.000000	0.001656	0.001617	28.083	0.078726	0.000974	80.805	-139.757	-169.213	0.087415	0.001296	-1.086727	-1.087949	0.042100	80.805	-1.087118	-3.365987E+14	-1.250759E-16	NaN
725	1.000000	0.010473	7.37215e+06	-40839.1	1005.82	-29788.4	0.000000	0.000000	6.010777	0.005007	NaN	0.000000	0.001689	0.001692	28.0832	0.071858	0.001048	68.538	77.6691	-164.252	0.105899	0.009189	-1.078772	-1.080056	0.005007	68.538	-1.078827	-2.604702E+14	-1.922291E-17	NaN
725	1.000000	0.018442	7.37215e+06	-40839.1	1005.82	-29788.4	0.000000	0.000000	6.018748	0.048188	NaN	0.000000	0.001667	0.001659	28.083	0.084663	0.001852	45.7169	-106.697	-164.008	0.080023	0.017155	-1.070802	-1.072089	0.048188	45.7169	-1.071593	-2.082511E+14	-2.313948E-16	NaN
725	1.000000	0.026470	7.37215e+06	-40839.1	1005.82	-29788.4	0.000000	0.000000	6.026776	0.058825	NaN	0.000000	0.001667	0.001670	28.0833	0.051812	0.001798	28.8228	-94.0405	-168.063	0.070940	0.025161	-1.062775	-1.064084	0.058825	28.8228	-1.064306	-1.662182E+14	-3.539014E-16	NaN
725	1.000000	0.034478	7.37215e+06	-40839.1	1005.82	-29788.4	0.000000	0.000000	6.034784	0.059085	NaN	0.000000	0.001713	0.001642	28.0834	0.099293	0.001883	52.733	-116.774	-169.021	0.060296	0.033090	-1.054767	-1.056155	0.059085	52.733	-1.055607	-1.269932E+14	-4.652645E-16	NaN
725	1.000000	0.042414	7.37215e+06	-40839.1	1005.82	-29788.4	0.000000	0.000000	6.042719	0.043419	NaN	0.000000	0.001706	0.001652	28.0829	0.075001	0.001942	38.6164	-50.8324	-165.658	0.087807	0.041128	-1.046831	-1.048117	0.043419	38.6164	-1.047674	-9.934442E+13	-4.370560E-16	NaN
725	1.000000	0.050446	7.37215e+06	-40839.1	1005.82	-29788.4	0.000000	0.000000	6.050753	0.078382	NaN	0.000000	0.001692	0.001635	28.0832	0.048958	0.001871	26.1654	94.6616	-164.269	0.075348	0.049118	-1.038799	-1.040127	0.078382	26.1654	-1.041046	-8.091449E+13	-9.687013E-16	NaN
725	1.000000	0.058412	7.37215e+06	-40839.1	1005.82	-29788.4	0.000000	0.000000	6.058717	0.046021	NaN	0.000000	0.001705	0.001653	28.083	0.074401	0.001963	37.9047	-130.668	-166.056	-0.014043	0.057129	-1.030833	-1.032115	0.046021	37.9047	-1.031743	-6.066386E+13	-7.586165E-16	NaN
725	1.000000	0.066441	7.37215e+06	-40839.1	1005.82	-29788.4	0.000000	0.000000	6.066744	-0.017211	NaN	0.000000	0.001655	0.001659	28.0829	0.066998	0.001995	33.5748	-73.9375	-163.979	0.063455	0.065113	-1.022803	-1.024131	-0.017211	33.5748	-1.022419	-4.544612E+13	3.787058E-16	NaN
725	1.000000	0.074467	7.37215e+06	-40839.1	1005.82	-29788.4	0.000000	0.000000	6.074773	0.069536	NaN	0.000000	0.001688	0.001665	28.0828	0.041976	0.002043	20.5432	124.357	-168.194	0.017269	0.073129	-1.014778	-1.016116	0.069536	20.5432	-1.017317	-3.880127E+13	-1.792104E-15	NaN
725	1.000000	0.082452	7.37215e+06	-40839.1	1005.82	-29788.4	0.000000	0.000000	6.082754	-0.021367	NaN	0.000000	0.001670	0.001659	28.084	0.071728	0.002054	34.9246	1.233369	-163.466	0.020878	0.081143	-1.006793	-1.008102	-0.021367	34.9246	-1.006334	-2.760832E+13	7.739360E-16	NaN
725	1.000000	0.090459	7.37215e+06	-40839.1	1005.82	-29788.4	0.000000	0.000000	6.090763	0.003265	NaN	0.000000	0.001660	0.001660	28.0843	0.065925	0.002066	31.9164	165.152	-166.263	0.029583	0.089193	-0.998786	-1.000052	0.003265	31.9164	-0.998862	-2.190045E+13	-1.491065E-16	NaN
725	1.000000	0.098460	7.37215e+06	-40839.1	1005.82	-29788.4	0.000000	0.000000	6.098765	0.026920	NaN	0.000000	0.001664	0.001651	28.0844	0.112083	0.001929	58.1168	133.522	-169.206	0.009897	0.097160	-0.990785	-0.992084	0.026920	58.1168	-0.991132	-1.723295E+13	-1.562105E-15	NaN
725	1.000000	0.106484	7.37215e+06	-40839.1	1005.82	-29788.4	0.000000	0.000000	6.106792	0.094537	NaN	0.000000	0.001657	0.001632	28.0846	0.077500	0.002081	37.2449	54.2541	-164.114	0.097831	0.105198	-0.982760	-0.984047	0.094537	37.2449	-0.984664	-1.410069E+13	-6.704439E-15	NaN
725	1.000000	0.114465	7.37215e+06	-40839.1	1005.82	-29788.4	0.000000	0.000000	6.114772	0.089350	NaN	0.000000	0.001665	0.001652	28.0845	0.030842	0.002003	15.3975	50.7586	-165.936	0.111035	0.113148	-0.974780	-0.976097	0.089350	15.3975	-0.979132	-1.187716E+13	-7.522856E-15	NaN
725	1.000000	0.122476	7.37215e+06	-40839.1	1005.82	-29788.4	0.000000	0.000000	6.122780	0.032017	NaN	0.000000	0.001656	0.001658	28.0842	0.058220	0.001898	30.6706	6.095383	-166.643	0.050786	0.121158	-0.966769	-0.968086	0.032017	30.6706	-0.967552	-8.292200E+12	-3.861090E-15	NaN
725	1.000000	0.130478	7.37215e+06	-40839.1	1005.82	-29788.4	0.000000	0.000000	6.130784	0.080807	NaN	0.000000	0.001681	0.001644	28.0844	0.041878	0.001864	22.4678	-108.84	-164.886	0.087748	0.129110	-0.958767	-0.960135	0.080807	22.4678	-0.961464	-6.864558E+12	-1.177163E-14	NaN
725	1.000000	0.138443	7.37215e+06	-40839.1	1005.82	-29788.4	0.000000	0.000000	6.138750	0.085282	NaN	0.000000	0.001686	0.001646	28.0843	0.072545	0.001959	37.0277	42.9326	-161.73	0.061633	0.137218	-0.950801	-0.952027	0.085282	37.0277	-0.952529	-5.201503E+12	-1.639557E-14	NaN
725	1.000000	0.146458	7.37215e+06	-40839.1	1005.82	-29788.4	0.000000	0.000000	6.146763	0.030583	NaN	0.000000	0.001687	0.001688	28.0845	0.066181	0.001953	33.8802	26.594	-168.043	0.141780	0.145179	-0.942786	-0.944066	0.030583	33.8802	-0.943463	-3.925193E+12	-7.791440E-15	NaN
725	1.000000	0.154479	7.37215e+06	-40839.1	1005.82	-29788.4	0.000000	0.000000	6.154783	0.005391	NaN	0.000000	0.001704	0.001637	28.0842	0.101954	0.001924	52.9894	160.277	-164.792	0.102075	0.153139	-0.934766	-0.936105	0.005391	52.9894	-0.934842	-3.002897E+12	-1.795364E-15	NaN
725	1.000000	0.162509	7.37215e+06	-40839.1	1005.82	-29788.4	0.000000	0.000000	6.162818	0.137053	NaN	0.000000	0.001700	0.001632	28.0842	0.154580	0.002004	77.1532	83.2305	-166.666	0.096114	0.161154	-0.926736	-0.928091	0.137053	77.1532	-0.928068	-2.432879E+12	-5.633366E-14	NaN
725	1.000000	0.170471	7.37215e+06	-40839.1	1005.82	-29788.4	0.000000	0.000000	6.170777	0.058846	NaN	0.000000	0.001673	0.001621	28.0844	0.072510	0.002047	35.4289	35.2441	-164.36	0.002057	0.169213	-0.918773	-0.920032	0.058846	35.4289	-0.920019	-1.894365E+12	-3.106349E-14	NaN
725	1.000000	0.178518	7.37215e+06	-40839.1	1005.82	-29788.4	0.000000	0.000000	6.178821	0.005563	NaN	0.000000	0.001687	0.001668	28.0842	0.022817	0.002001	11.4011	-99.6184	-165.893	-0.012820	0.177142	-0.910727	-0.912102	0.005563	11.4011	-0.911093	-1.435242E+12	-3.875895E-15	NaN
725	1.000000	0.186474	7.37215e+06	-40839.1	1005.82	-29788.4	0.000000	0.000000	6.186780	0.057661	NaN	0.000000	0.001671	0.001649	28.0843	0.048609	0.002042	23.8096	-98.3817	-165.045	0.062801	0.185208	-0.902770	-0.904037	0.057661	23.8096	-0.904587	-1.172293E+12	-4.918636E-14	NaN
725	1.000000	0.194503	7.37215e+06	-40839.1	1005.82	-29788.4	0.000000	0.000000	6.194808	0.048079	NaN	0.000000	0.001614	0.001614	28.0842	0.016272	0.002074	7.846630	-41.547	-163.238	0.074941	0.193237	-0.894742	-0.896008	0.048079	7.846630	-0.899337	-9.956595E+11	-4.828871E-14	NaN
725	1.000000	0.202492	7.37215e+06	-40839.1	1005.82	-29788.4	0.000000	0.000000	6.202797	0.054822	NaN	0.000000	0.001603	0.001614	28.0844	0.076637	0.002042	37.5336	-22.7212	-168.185	0.103350	0.201187	-0.886753	-0.888058	0.054822	37.5336	-0.887849	-6.963546E+11	-7.872660E-14	NaN
725	1.000000	0.210492	7.37215e+06	-40839.1	1005.82	-29788.4	0.000000	0.000000	6.210798	0.065485	NaN	0.000000	0.001610	0.001693	28.0843	0.094868	0.001737	54.605	138.224	-164.686	0.016202	0.209180	-0.878753	-0.880065	0.065485	54.605	-0.879652	-5.395178E+11	-1.213771E-13	NaN
725	1.000000	0.218486	7.37215e+06	-40839.1	1005.82	-29788.4	0.000000	0.000000	6.218787	-0.061415	NaN	0.000000	0.001646	0.001660	28.0832	0.082967	0.002088	39.7306	-22.0845	-167.681	-0.067100	0.217237	-0.870758	-0.872007	-0.061415	39.7306	-0.869599	-3.944739E+11	1.556882E-13	NaN
725	1.000000	0.226523	7.37215e+06	-40839.1	1005.82	-29788.4	0.000000	0.000000	6.226827	0.019100	NaN	0.000000	0.001679	0.001611	28.0833	0.025548	0.001934	13.2128	-15.1598	-165.489	0.038828	0.225221	-0.862722	-0.864024	0.019100	13.2128	-0.863806	-3.293318E+11	-5.799616E-14	NaN
725	1.000000	0.234520	7.37215e+06	-40839.1	1005.82	-29788.4	0.000000	0.000000	6.234823	-0.012542	NaN	0.000000	0.001667	0.001623	28.0831	0.071723	0.001831	39.1716	-76.4667	-166.472	0.092367	0.233191	-0.854724	-0.856054	-0.012542	39.1716	-0.854484	-2.462937E+11	5.092093E-14	NaN
725	1.000000	0.242524	7.37215e+06	-40839.1	1005.82	-29788.4	0.000000	0.000000	6.242829	0.039599	NaN	0.000000	0.001633	0.001640	28.0833	0.057895	0.001988	29.1232	-48.4937	-159.7	0.081280	0.241224	-0.846721	-0.848020	0.039599	29.1232	-0.847741	-1.995932E+11	-1.984009E-13	NaN
725	1.000000	0.250535	7.37215e+06	-40839.1	1005.82	-29788.4	0.000000	0.000000	6.250838	-0.025028	NaN	0.000000	0.001624	0.001632	28.0831	0.036140	0.002066	17.4899	-95.0613	-165.499	-0.088373	0.249204	-0.838710	-0.840040	-0.025028	17.4899	-0.837636	-1.456358E+11	1.718533E-13	NaN
725	1.000000	0.258500	7.37215e+06	-40839.1	1005.82	-29788.4	0.000000	0.000000	6.258805	0.046781	NaN	0.000000	0.001634	0.001655	28.083	0.046782	0.001923	24.3268	-20.8754	-164.24	0.033404	0.257175	-0.830745	-0.832069	0.046781	24.3268	-0.832187	-1.228644E+11	-3.807542E-13	NaN
725	1.000000	0.266524	7.37215e+06	-40839.1	1005.82	-29788.4	0.000000	0.000000	6.266829	0.018111	NaN	0.000000	0.001673	0.001642	28.0832	0.103004	0.002037	50.5768	-12.7197	-165.939	-0.035790	0.265223	-0.822720	-0.824022	0.018111	50.5768	-0.822989	-9.220189E+10	-1.964262E-13	NaN
725	1.000000	0.274504	7.37215e+06	-40839.1	1005.82	-29788.4	0.000000	0.000000	6.274810	0.060673	NaN	0.000000	0.001709	0.001650	28.083	0.057776	0.002080	27.7732	-63.9499	-163.95	-0.001562	0.273176	-0.814741	-0.816069	0.060673	27.7732	-0.816379	-7.500809E+10	-8.088901E-13	NaN
725	1.000000	0.282550	7.37215e+06	-40839.1	1005.82	-29788.4	0.000000	0.000000	6.282854	0.019949	NaN	0.000000	0.001665	0.001668	28.0831	0.029366	0.001978	14.843	64.9498	-167.366	-0.012690	0.281248	-0.806695	-0.807997	0.019949	14.843	-0.807703	-5.720085E+10	-3.487533E-13	NaN
725	1.000000	0.290541	7.37215e+06	-40839.1	1005.82	-29788.4	0.000000	0.000000	6.290846	0.035632	NaN	0.000000	0.001667	0.001624	28.0829	0.043273	0.001962	22.0514	148.514	-164.493	0.103632	0.289283	-0.798704	-0.799962	0.035632	22.0514	-0.799916	-4.484586E+10	-7.945512E-13	NaN
725	1.000000	0.298519	7.37215e+06	-40839.1	1005.82	-29788.4	0.000000	0.000000	6.298823	0.019170	NaN	0.000000	0.001660	0.001643	28.0831	0.128546	0.002021	63.6017	112.521	-164.496	-0.001858	0.297255	-0.790726	-0.791990	0.019170	63.6017	-0.790952	-3.388565E+10	-5.657213E-13	NaN
725	1.000000	0.306567	7.37215e+06	-40839.1	1005.82	-29788.4	0.000000	0.000000	6.306872	0.033490	NaN	0.000000	0.001646	0.001628	28.083	0.108260	0.002029	53.3669	-4.545213	-166.765	-0.022061	0.305234	-0.782678	-0.784011	0.033490	53.3669	-0.783149	-2.654689E+10	-1.261550E-12	NaN
725	1.000000	0.314567	7.37215e+06	-40839.1	1005.82	-29788.4	0.000000	0.000000	6.314875	0.099850	NaN	0.000000	0.001664	0.001630	28.0829	0.021090	0.002024	10.4195	-64.1681	-164.175	0.045022	0.313224	-0.774678	-0.776021	0.099850	10.4195	-0.781865	-2.550186E+10	-3.915411E-12	NaN
725	1.000000	0.322548	7.37215e+06	-40839.1	1005.82	-29788.4	0.000000	0.000000	6.322855	0.069508	NaN	0.000000	0.001678	0.001608	28.083	0.011364	0.002071	5.486816	-106.388	-167.723	0.040284	0.321247	-0.766696	-0.767998	0.069508	5.486816	-0.776197	-2.135766E+10	-3.254496E-12	NaN
725	1.000000	0.330558	7.37215e+06	-40839.1	1005.82	-29788.4	0.000000	0.000000	6.330862	0.008279	NaN	0.000000	0.001665	0.001618	28.0829	0.153523	0.002012	76.3022	-82.9932	-166.85	-0.031818	0.329267	-0.758687	-0.759978	0.008279	76.3022	-0.758768	-1.237499E+10	-6.690477E-13	NaN
725	1.000000	0.338564	7.37215e+06	-40839.1	1005.82	-29788.4	0.000000	0.000000	6.338873	0.145447	NaN	0.000000	0.001589	0.001639	28.0833	0.110423	0.001849	59.7124	7.371492	-165.491	0.123023	0.337252	-0.750681	-0.751993	0.145447	59.7124	-0.752508	-1.017075E+10	-1.430053E-11	NaN
725	1.000000	0.346588	7.37215e+06	-40839.1	1005.82	-29788.4	0.000000	0.000000	6.346895	0.078632	NaN	0.000000	0.001587	0.001602	28.0831	0.116598	0.001982	58.819	-76.603	-166.183	0.006007	0.345282	-0.742657	-0.743963	0.078632	58.819	-0.743660	-7.707172E+9	-1.020248E-11	NaN
725	1.000000	0.354567	7.37215e+06	-40839.1	1005.82	-29788.4	0.000000	0.000000	6.354874	0.074757	NaN	0.000000	0.001588	0.001620	28.0843	0.039954	0.001892	21.1163	-17.8524	-164.797	0.064467	0.353193	-0.734677	-0.736052	0.074757	21.1163	-0.737333	-6.320059E+9	-1.182852E-11	NaN
725	1.000000	0.362569	7.37215e+06	-40839.1	1005.82	-29788.4	0.000000	0.000000	6.362873	0.020174	NaN	0.000000	0.001568	0.001610	28.0844	0.029394	0.002127	13.8225	-105.192	-169.238	0.029560	0.361265	-0.726676	-0.727980	0.020174	13.8225	-0.727771	-4.681882E+9	-4.309007E-12	NaN
725	1.000000	0.370609	7.37215e+06	-40839.1	1005.82	-29788.4	0.000000	0.000000	6.370914	0.034062	NaN	0.000000	0.001604	0.001625	28.0843	0.039124	0.002123	18.4253	97.1945	-166.534	0.029089	0.369260	-0.718636	-0.719985	0.034062	18.4253	-0.720022	-3.670906E+9	-9.278775E-12	NaN
725	1.000000	0.378574	7.37215e+06	-40839.1	1005.82	-29788.4	0.000000	0.000000	6.378881	0.087715	NaN	0.000000	0.001597	0.001631	28.0845	0.083149	0.001988	41.8355	-83.9482	-165.289	0.057909	0.377297	-0.710671	-0.711948	0.087715	41.8355	-0.712244	-2.875183E+9	-3.050763E-11	NaN
725	1.000000	0.386562	7.37215e+06	-40839.1	1005.82	-29788.4	0.000000	0.000000	6.386865	0.006068	NaN	0.000000	0.001616	0.001641	28.0844	0.077841	0.002006	38.8082	-118.953	-162.52	-0.008090	0.385276	-0.702683	-0.703968	0.006068	38.8082	-0.702800	-2.136837E+9	-2.839671E-12	NaN
725	1.000000	0.394587	7.37215e+06	-40839.1	1005.82	-29788.4	0.000000	0.000000	6.394893	0.065055	NaN	0.000000	0.001606	0.001611	28.0845	0.068004	0.002072	32.8131	-123.087	-165.062	0.071241	0.393299	-0.694658	-0.695946	0.065055	32.8131	-0.696145	-1.733316E+9	-3.753217E-11	NaN
725	1.000000	0.402563	7.37215e+06	-40839.1	1005.82	-29788.4	0.000000	0.000000	6.402871	0.098327	NaN	0.000000	0.001598	0.001621	28.0844	0.083092	0.002005	41.4424	172.054	-169.249	0.105771	0.401291	-0.686681	-0.687954	0.098327	41.4424	-0.688461	-1.361075E+9	-7.224188E-11	NaN
725	1.000000	0.410624	7.37215e+06	-40839.1	1005.82	-29788.4	0.000000	0.000000	6.410927	-0.014685	NaN	0.000000	0.001575	0.001655	28.0843	0.073449	0.002032	36.1488	-88.2264	-165.607	0.048452	0.409240	-0.678621	-0.680005	-0.014685	36.1488	-0.678316	-9.889474E+8	1.484910E-11	NaN
725	1.000000	0.418585	7.37215e+06	-40839.1	1005.82	-29788.4	0.000000	0.000000	6.418891	0.059208	NaN	0.000000	0.001581	0.001609	28.0845	0.118824	0.001989	59.7297	-167.962	-160.494	-0.004848	0.417307	-0.670659	-0.671938	0.059208	59.7297	-0.671403	-7.954048E+8	-7.443743E-11	NaN
725	1.000000	0.426613	7.37215e+06	-40839.1	1005.82	-29788.4	0.000000	0.000000	6.426917	0.009429	NaN	0.000000	0.001585	0.001632	28.0844	0.052449	0.002061	25.4461	-2.814756	-163.442	-0.032440	0.425315	-0.662632	-0.663929	0.009429	25.4461	-0.662910	-6.085846E+8	-1.549364E-11	NaN
725	1.000000	0.434586	7.37215e+06	-40839.1	1005.82	-29788.4	0.000000	0.000000	6.434891	0.027184	NaN	0.000000	0.001617	0.001629	28.0847	0.061351	0.001977	31.0267	153.055	-165.015	-0.005733	0.433295	-0.654659	-0.655950	0.027184	31.0267	-0.655316	-4.789519E+8	-5.675635E-11	NaN
725	1.000000	0.442584	7.37215e+06	-40839.1	1005.82	-29788.4	0.000000	0.000000	6.442892	0.100032	NaN	0.000000	0.001631	0.001607	28.0845	0.064081	0.001980	32.3587	54.7561	-163.853	0.042081	0.441280	-0.646660	-0.647964	0.100032	32.3587	-0.648979	-3.921359E+8	-2.550957E-10	NaN
725	1.000000	0.450591	7.37215e+06	-40839.1	1005.82	-29788.4	0.000000	0.000000	6.450898	0.084414	NaN	0.000000	0.001609	0.001625	28.0845	0.020444	0.001944	10.5161	59.1956	-166.129	0.034017	0.449284	-0.638653	-0.639961	0.084414	10.5161	-0.644674	-3.422968E+8	-2.466092E-10	NaN
725	1.000000	0.458646	7.37215e+06	-40839.1	1005.82	-29788.4	0.000000	0.000000	6.458953	0.079201	NaN	0.000000	0.001559	0.001638	28.0846	0.045358	0.001864	24.3401	174.374	-162.505	0.093260	0.457305	-0.630598	-0.631939	0.079201	24.3401	-0.633039	-2.370008E+8	-3.341798E-10	NaN
725	1.000000	0.466600	7.37215e+06	-40839.1	1005.82	-29788.4	0.000000	0.000000	6.466907	0.073692	NaN	0.000000	0.001604	0.001567	28.0844	0.049426	0.002107	23.462	-9.633283	-164.857	0.160622	0.465258	-0.622645	-0.623987	0.073692	23.462	-0.625000	-1.838011E+8	-4.009348E-10	NaN
725	1.000000	0.474625	7.37215e+06	-40839.1	1005.82	-29788.4	0.000000	0.000000	6.474927	-0.025554	NaN	0.000000	0.001585	0.001647	28.0845	0.066125	0.002081	31.772	-66.2632	-164.799	0.090512	0.473301	-0.614620	-0.615943	-0.025554	31.772	-0.614017	-1.298278E+8	1.968284E-10	NaN
725	1.000000	0.482626	7.37215e+06	-40839.1	1005.82	-29788.4	0.000000	0.000000	6.482929	-0.006743	NaN	0.000000	0.001531	0.001640	28.0844	0.111158	0.002001	55.5515	160.498	-163.802	0.000711	0.481316	-0.606619	-0.607929	-0.006743	55.5515	-0.606528	-1.024073E+8	6.584962E-11	NaN
725	1.000000	0.490622	7.37215e+06	-40839.1	1005.82	-29788.4	0.000000	0.000000	6.490924	-0.029720	NaN	0.000000	0.001531	0.001635	28.0838	0.072657	0.002055	35.3602	96.8092	-165.942	0.035168	0.489291	-0.598623	-0.599953	-0.029720	35.3602	-0.597992	-7.812851E+7	3.803988E-10	NaN
725	1.000000	0.498624	7.37215e+06	-40839.1	1005.82	-29788.4	0.000000	0.000000	6.498929	0.046280	NaN	0.000000	0.001563	0.001634	28.0832	0.077983	0.002010	38.7921	145.404	-163.14	0.001804	0.497346	-0.590621	-0.591898	0.046280	38.7921	-0.591515	-6.361467E+7	-7.275019E-10	NaN
725	1.000000	0.506616	7.37215e+06	-40839.1	1005.82	-29788.4	0.000000	0.000000	6.506922	0.056444	NaN	0.000000	0.001568	0.001639	28.083	0.050460	0.002090	24.1425	1.557481	-166.739	0.030260	0.505348	-0.582628	-0.583897	0.056444	24.1425	-0.584382	-5.072112E+7	-1.112836E-9	NaN
725	1.000000	0.514657	7.37215e+06	-40839.1	1005.82	-29788.4	0.000000	0.000000	6.514964	0.083653	NaN	0.000000	0.001568	0.001609	28.083	0.088634	0.001995	44.4374	171.304	-165.574	-0.011807	0.513368	-0.574587	-0.575876	0.083653	44.4374	-0.575999	-3.885938E+7	-2.152705E-9	NaN
725	1.000000	0.522632	7.37215e+06	-40839.1	1005.82	-29788.4	0.000000	0.000000	6.522941	0.128974	NaN	0.000000	0.001641	0.001582	28.083	0.097067	0.001992	48.7243	-84.5862	-161.051	0.010142	0.521334	-0.566613	-0.567911	0.128974	48.7243	-0.568598	-3.070876E+7	-4.199904E-9	NaN
725	1.000000	0.530641	7.37215e+06	-40839.1	1005.82	-29788.4	0.000000	0.000000	6.530946	0.049983	NaN	0.000000	0.001617	0.001625	28.0833	0.003384	0.002138	1.582685	147.127	-163.743	0.010790	0.529293	-0.558604	-0.559952	0.049983	1.582685	-0.582290	-4.745968E+7	-1.053160E-9	NaN
725	1.000000	0.538645	7.37215e+06	-40839.1	1005.82	-29788.4	0.000000	0.000000	6.538951	0.056971	NaN	0.000000	0.001579	0.001678	28.0827	0.036002	0.001948	18.4808	5.270348	-163.67	0.100416	0.537355	-0.550600	-0.551890	0.056971	18.4808	-0.552912	-1.863298E+7	-3.057539E-9	NaN
725	1.000000	0.546635	7.37215e+06	-40839.1	1005.82	-29788.4	0.000000	0.000000	6.546940	0.019456	NaN	0.000000	0.001620	0.001645	28.0826	0.064167	0.001927	33.3065	-11.4314	-162.823	0.108957	0.545332	-0.542609	-0.543913	0.019456	33.3065	-0.543047	-1.360236E+7	-1.430349E-9	NaN
725	1.000000	0.554639	7.37215e+06	-40839.1	1005.82	-29788.4	0.000000	0.000000	6.554947	0.119091	NaN	0.000000	0.001607	0.001651	28.0826	0.063938	0.001965	32.5305	85.1178	-166.139	0.086380	0.553362	-0.534606	-0.535883	0.119091	32.5305	-0.537352	-1.134026E+7	-1.050161E-8	NaN
725	1.000000	0.562674	7.37215e+06	-40839.1	1005.82	-29788.4	0.000000	0.000000	6.562980	0.069214	NaN	0.000000	0.001640	0.001624	28.0825	0.100427	0.002005	50.096	-34.7811	-162.519	0.008796	0.561278	-0.526571	-0.527967	0.069214	50.096	-0.527607	-8.30497e+06	-8.334014E-9	NaN
725	1.000000	0.570670	7.37215e+06	-40839.1	1005.82	-29788.4	0.000000	0.000000	6.570976	0.045670	NaN	0.000000	0.001668	0.001640	28.0828	0.048454	0.002001	24.2164	88.5559	-166.372	0.043965	0.569364	-0.518574	-0.519880	0.045670	24.2164	-0.519989	-6.50792e+06	-7.017561E-9	NaN
725	1.000000	0.578660	7.37215e+06	-40839.1	1005.82	-29788.4	0.000000	0.000000	6.578968	0.110136	NaN	0.000000	0.001601	0.001654	28.0828	0.052994	0.001994	26.5778	139.573	-163.004	0.064408	0.577411	-0.510585	-0.511833	0.110136	26.5778	-0.513693	-5.31906e+06	-2.070588E-8	NaN
725	1.000000	0.586657	7.37215e+06	-40839.1	1005.82	-29788.4	0.000000	0.000000	6.586963	0.044127	NaN	0.000000	0.001597	0.001665	28.0829	0.015329	0.001929	7.944425	111.679	-164.451	0.085047	0.585384	-0.502587	-0.503861	0.044127	7.944425	-0.506753	-4.25775e+06	-1.036382E-8	NaN
725	1.000000	0.594646	7.37215e+06	-40839.1	1005.82	-29788.4	0.000000	0.000000	6.594953	0.077691	NaN	0.000000	0.001614	0.001653	28.0827	0.014552	0.001906	7.634785	-171.28	-168.297	0.083511	0.593353	-0.494599	-0.495892	0.077691	7.634785	-0.502231	-3.68243e+06	-2.109774E-8	NaN
725	1.000000	0.602666	7.37215e+06	-40839.1	1005.82	-29788.4	0.000000	0.000000	6.602972	0.043790	NaN	0.000000	0.001609	0.001593	28.0827	0.081731	0.002031	40.2437	111.207	-165.304	0.013407	0.601368	-0.486578	-0.487876	0.043790	40.2437	-0.487395	-2.28547e+06	-1.916032E-8	NaN
725	1.000000	0.610680	7.37215e+06	-40839.1	1005.82	-29788.4	0.000000	0.000000	6.610987	0.094567	NaN	0.000000	0.001557	0.001585	28.083	0.012570	0.001967	6.391370	-105.936	-165.812	0.138807	0.609366	-0.478565	-0.479879	0.094567	6.391370	-0.489662	-2.4585e+06	-3.846511E-8	NaN
725	1.000000	0.618695	7.37215e+06	-40839.1	1005.82	-29788.4	0.000000	0.000000	6.619000	0.045825	NaN	0.000000	0.001602	0.001620	28.0829	0.099143	0.001929	51.3828	-114.773	-171.947	0.101423	0.617355	-0.470550	-0.471889	0.045825	51.3828	-0.471219	-1.35674e+06	-3.377566E-8	NaN
725	1.000000	0.626717	7.37215e+06	-40839.1	1005.82	-29788.4	0.000000	0.000000	6.627021	0.024315	NaN	0.000000	0.001591	0.001608	28.0836	0.130615	0.002215	58.964	166.879	-167.979	0.010321	0.625421	-0.462528	-0.463823	0.024315	58.964	-0.462837	-1.03486e+06	-2.349619E-8	NaN
725	1.000000	0.634712	7.37215e+06	-40839.1	1005.82	-29788.4	0.000000	0.000000	6.635017	0.042494	NaN	0.000000	0.001621	0.001700	28.0841	0.123413	0.001976	62.4531	147.718	-163.989	0.092895	0.633346	-0.454533	-0.455899	0.042494	62.4531	-0.455043	-804133	-5.284456E-8	NaN
725	1.000000	0.642676	7.37215e+06	-40839.1	1005.82	-29788.4	0.000000	0.000000	6.642981	0.023438	NaN	0.000000	0.001596	0.001662	28.0842	0.123967	0.002094	59.191	-38.354	-162.483	0.029587	0.641378	-0.446568	-0.447867	0.023438	59.191	-0.446865	-616855	-3.799632E-8	NaN
725	1.000000	0.650705	7.37215e+06	-40839.1	1005.82	-29788.4	0.000000	0.000000	6.651009	0.023136	NaN	0.000000	0.001618	0.001706	28.0843	0.053075	0.002097	25.3131	-19.2634	-167.366	0.047560	0.649393	-0.438540	-0.439852	0.023136	25.3131	-0.439225	-481314	-4.806786E-8	NaN
725	1.000000	0.658720	7.37215e+06	-40839.1	1005.82	-29788.4	0.000000	0.000000	6.659028	0.105635	NaN	0.000000	0.001602	0.001736	28.0844	0.030788	0.001978	15.5692	-29.3306	-163.348	0.113925	0.657357	-0.430524	-0.431887	0.105635	15.5692	-0.435613	-427972	-2.468278E-7	NaN
725	1.000000	0.666667	7.37215e+06	-40839.1	1005.82	-29788.4	0.000000	0.000000	6.666972	0.023653	NaN	0.000000	0.001587	0.001741	28.0843	0.115795	0.002087	55.4957	53.042	-161.501	-0.011793	0.665365	-0.422577	-0.423880	0.023653	55.4957	-0.422897	-282805	-8.363700E-8	NaN
725	1.000000	0.674713	7.37215e+06	-40839.1	1005.82	-29788.4	0.000000	0.000000	6.675021	0.101012	NaN	0.000000	0.001582	0.001719	28.0844	0.105561	0.002019	52.2878	159.011	-163.211	0.064001	0.673392	-0.414531	-0.415852	0.101012	52.2878	-0.415980	-225617	-4.477117E-7	NaN
725	1.000000	0.682693	7.37215e+06	-40839.1	1005.82	-29788.4	0.000000	0.000000	6.682997	0.032097	NaN	0.000000	0.001645	0.001723	28.0842	0.049849	0.001802	27.6672	138.57	-163.621	0.001620	0.681455	-0.406552	-0.407790	0.032097	27.6672	-0.407422	-170502	-1.882500E-7	NaN
725	1.000000	0.690705	7.37215e+06	-40839.1	1005.82	-29788.4	0.000000	0.000000	6.691009	0.019420	NaN	0.000000	0.001614	0.001739	28.0844	0.109911	0.001936	56.7594	-123.794	-164.554	-0.066278	0.689446	-0.398540	-0.399798	0.019420	56.7594	-0.398797	-128478	-1.511512E-7	NaN
725	1.000000	0.698717	7.37215e+06	-40839.1	1005.82	-29788.4	0.000000	0.000000	6.699020	-0.015646	NaN	0.000000	0.001638	0.001727	28.0844	0.052676	0.001960	26.875	-0.679597	-165.224	0.013901	0.697389	-0.390528	-0.391855	-0.015646	26.875	-0.390091	-96487	1.621516E-7	NaN
725	1.000000	0.706707	7.37215e+06	-40839.1	1005.82	-29788.4	0.000000	0.000000	6.707013	0.065514	NaN	0.000000	0.001623	0.001697	28.0843	0.123825	0.001988	62.2901	-163.93	-165.775	0.092065	0.705413	-0.382538	-0.383831	0.065514	62.2901	-0.383327	-77197.7	-8.486499E-7	NaN
725	1.000000	0.714706	7.37215e+06	-40839.1	1005.82	-29788.4	0.000000	0.000000	6.715014	0.122591	NaN	0.000000	0.001603	0.001737	28.0843	0.040122	0.002139	18.7596	-150.065	-163.254	0.093914	0.713434	-0.374539	-0.375811	0.122591	18.7596	-0.379440	-67897.5	-1.805526E-6	NaN
725	1.000000	0.722699	7.37215e+06	-40839.1	1005.82	-29788.4	0.000000	0.000000	6.723002	-0.017260	NaN	0.000000	0.001634	0.001679	28.0849	0.063510	0.001896	33.4959	-165.068	-163.407	-0.000669	0.721398	-0.366545	-0.367847	-0.017260	33.4959	-0.366159	-43728.9	3.947073E-7	NaN
725	1.000000	0.730741	7.37215e+06	-40839.1	1005.82	-29788.4	0.000000	0.000000	6.731045	0.020190	NaN	0.000000	0.001568	0.001712	28.0844	0.031113	0.002051	15.1717	146.879	-167.889	-0.010799	0.729412	-0.358504	-0.359833	0.020190	15.1717	-0.359502	-35046.5	-5.761010E-7	NaN
725	1.000000	0.738735	7.37215e+06	-40839.1	1005.82	-29788.4	0.000000	0.000000	6.739039	0.021429	NaN	0.000000	0.001603	0.001719	28.0845	0.019354	0.001972	9.813902	178.346	-164.895	0.023093	0.737407	-0.350510	-0.351838	0.021429	9.813902	-0.352148	-27425.7	-7.813490E-7	NaN
725	1.000000	0.746736	7.37215e+06	-40839.1	1005.82	-29788.4	0.000000	0.000000	6.747041	0.039923	NaN	0.000000	0.001589	0.001716	28.0846	0.067255	0.002128	31.5978	-143.633	-166.645	0.023099	0.745357	-0.342509	-0.343888	0.039923	31.5978	-0.343457	-20507	-1.946792E-6	NaN
725	1.000000	0.754760	7.37215e+06	-40839.1	1005.82	-29788.4	0.000000	0.000000	6.755065	0.037706	NaN	0.000000	0.001635	0.001692	28.0844	0.082881	0.001843	44.9706	111.871	-164.484	-0.043578	0.753464	-0.334485	-0.335781	0.037706	44.9706	-0.335113	-15496.9	-2.433125E-6	NaN
725	1.000000	0.762717	7.37215e+06	-40839.1	1005.82	-29788.4	0.000000	0.000000	6.763022	0.033709	NaN	0.000000	0.001646	0.001699	28.0842	0.028678	0.001991	14.4036	115.349	-164.767	0.074860	0.761364	-0.326528	-0.327881	0.033709	14.4036	-0.328283	-12311.1	-2.738087E-6	NaN
725	1.000000	0.770722	7.37215e+06	-40839.1	1005.82	-29788.4	0.000000	0.000000	6.771028	0.066245	NaN	0.000000	0.001599	0.001702	28.0829	0.034489	0.002111	16.336	-121.288	-165.684	0.014825	0.769445	-0.318523	-0.319800	0.066245	16.336	-0.321564	-9809.68	-6.752971E-6	NaN
725	1.000000	0.778739	7.37215e+06	-40839.1	1005.82	-29788.4	0.000000	0.000000	6.779046	0.072960	NaN	0.000000	0.001619	0.001737	28.0832	0.050052	0.001915	26.1434	158.235	-163.987	-0.038566	0.777379	-0.310506	-0.311866	0.072960	26.1434	-0.312599	-7235.79	-1.008322E-5	NaN
725	1.000000	0.786740	7.37215e+06	-40839.1	1005.82	-29788.4	0.000000	0.000000	6.787045	0.057544	NaN	0.000000	0.001578	0.001708	28.0832	0.084746	0.002072	40.8936	-164.584	-166.007	0.098107	0.785420	-0.302505	-0.303825	0.057544	40.8936	-0.303561	-5315.96	-1.082477E-5	NaN
725	1.000000	0.794780	7.37215e+06	-40839.1	1005.82	-29788.4	0.000000	0.000000	6.795086	0.066834	NaN	0.000000	0.001556	0.001693	28.083	0.072784	0.002065	35.2382	161.604	-162.698	0.075290	0.793414	-0.294465	-0.295831	0.066834	35.2382	-0.295887	-4086.35	-1.635543E-5	NaN
725	1.000000	0.802728	7.37215e+06	-40839.1	1005.82	-29788.4	0.000000	0.000000	6.803032	0.007647	NaN	0.000000	0.001587	0.001723	28.0831	0.165198	0.002083	79.3031	128.589	-162.41	0.063239	0.801439	-0.286516	-0.287805	0.007647	79.3031	-0.286589	-2965.77	-2.578460E-6	NaN
725	1.000000	0.810753	7.37215e+06	-40839.1	1005.82	-29788.4	0.000000	0.000000	6.811060	0.106112	NaN	0.000000	0.001529	0.001714	28.0829	0.083038	0.001937	42.8698	-158.948	-165.268	0.132110	0.809443	-0.278492	-0.279802	0.106112	42.8698	-0.280349	-2389.06	-4.441556E-5	NaN
725	1.000000	0.818770	7.37215e+06	-40839.1	1005.82	-29788.4	0.000000	0.000000	6.819074	0.024069	NaN	0.000000	0.001597	0.001798	28.0831	0.046885	0.002050	22.8665	140.241	-166.12	0.013411	0.817403	-0.270475	-0.271842	0.024069	22.8665	-0.271264	-1740.83	-1.382631E-5	NaN
725	1.000000	0.826763	7.37215e+06	-40839.1	1005.82	-29788.4	0.000000	0.000000	6.827068	0.046950	NaN	0.000000	0.001571	0.001796	28.083	0.096652	0.002059	46.9425	-61.6207	-164.511	0.006936	0.825433	-0.262482	-0.263812	0.046950	46.9425	-0.263232	-1313.37	-3.574770E-5	NaN
725	1.000000	0.834777	7.37215e+06	-40839.1	1005.82	-29788.4	0.000000	0.000000	6.835083	0.060550	NaN	0.000000	0.001576	0.001761	28.083	0.108059	0.001946	55.5381	40.7216	-165.339	0.035335	0.833513	-0.254468	-0.255731	0.060550	55.5381	-0.255285	-991.991	-6.103880E-5	NaN
725	1.000000	0.842753	7.37215e+06	-40839.1	1005.82	-29788.4	0.000000	0.000000	6.843060	0.091620	NaN	0.000000	0.001571	0.001780	28.0831	0.112199	0.001919	58.4539	13.9957	-161.419	0.003254	0.841486	-0.246492	-0.247759	0.091620	58.4539	-0.247667	-756.569	-0.000121	NaN
725	1.000000	0.850778	7.37215e+06	-40839.1	1005.82	-29788.4	0.000000	0.000000	6.851083	0.051943	NaN	0.000000	0.001611	0.001760	28.0829	0.078149	0.002031	38.4876	-67.3439	-165.724	0.052378	0.849451	-0.238467	-0.239794	0.051943	38.4876	-0.239479	-564.181	-9.206882E-5	NaN
725	1.000000	0.858804	7.37215e+06	-40839.1	1005.82	-29788.4	0.000000	0.000000	6.859111	0.076052	NaN	0.000000	0.001587	0.001777	28.0828	0.125865	0.002047	61.4924	23.0759	-165.31	0.084122	0.857507	-0.230440	-0.231737	0.076052	61.4924	-0.231368	-420.823	-0.000181	NaN
725	1.000000	0.866758	7.37215e+06	-40839.1	1005.82	-29788.4	0.000000	0.000000	6.867063	0.034058	NaN	0.000000	0.001592	0.001826	28.0829	0.128027	0.002018	63.4521	159.174	-164.034	0.079450	0.865452	-0.222487	-0.223793	0.034058	63.4521	-0.222889	-308.864	-0.000110	NaN
725	1.000000	0.874781	7.37215e+06	-40839.1	1005.82	-29788.4	0.000000	0.000000	6.875085	0.018445	NaN	0.000000	0.001567	0.001778	28.0834	0.068186	0.001905	35.7993	129.46	-167.31	-0.026170	0.873465	-0.214464	-0.215780	0.018445	35.7993	-0.214850	-229.671	-8.031272E-5	NaN
725	1.000000	0.882795	7.37215e+06	-40839.1	1005.82	-29788.4	0.000000	0.000000	6.883101	0.056914	NaN	0.000000	0.001580	0.001800	28.083	0.058420	0.001927	30.3148	-40.2608	-166.886	-0.055156	0.881475	-0.206450	-0.207769	0.056914	30.3148	-0.207858	-177.04	-0.000321	NaN
725	1.000000	0.890802	7.37215e+06	-40839.1	1005.82	-29788.4	0.000000	0.000000	6.891107	0.051559	NaN	0.000000	0.001593	0.001788	28.0829	0.014166	0.002010	7.048542	-75.3986	-167.028	0.039218	0.889484	-0.198443	-0.199761	0.051559	7.048542	-0.203929	-152.784	-0.000337	NaN
725	1.000000	0.898804	7.37215e+06	-40839.1	1005.82	-29788.4	0.000000	0.000000	6.899112	0.097966	NaN	0.000000	0.001580	0.001768	28.083	0.105235	0.002077	50.6619	-114.852	-163.814	0.058289	0.897511	-0.190440	-0.191733	0.097966	50.6619	-0.191891	-96.7297	-0.001013	NaN
725	1.000000	0.906814	7.37215e+06	-40839.1	1005.82	-29788.4	0.000000	0.000000	6.907120	0.071374	NaN	0.000000	0.001599	0.001767	28.0842	0.081681	0.001962	41.6296	141.043	-163.869	0.034931	0.905475	-0.182431	-0.183769	0.071374	41.6296	-0.183717	-70.5476	-0.001012	NaN
725	1.000000	0.914792	7.37215e+06	-40839.1	1005.82	-29788.4	0.000000	0.000000	6.915097	0.022513	NaN	0.000000	0.001638	0.001738	28.0844	0.080363	0.001867	43.0511	31.5232	-164.765	0.055350	0.913483	-0.174453	-0.175762	0.022513	43.0511	-0.174845	-49.8097	-0.000452	NaN
725	1.000000	0.922797	7.37215e+06	-40839.1	1005.82	-29788.4	0.000000	0.000000	6.923102	0.032155	NaN	0.000000	0.001602	0.001772	28.0843	0.030899	0.002017	15.3157	-111.493	-165.89	0.004342	0.921514	-0.166448	-0.167731	0.032155	15.3157	-0.168023	-37.9491	-0.000847	NaN
725	1.000000	0.930808	7.37215e+06	-40839.1	1005.82	-29788.4	0.000000	0.000000	6.931117	0.128208	NaN	0.000000	0.001590	0.001760	28.0843	0.061686	0.002085	29.5801	-143.29	-163.623	0.198771	0.929492	-0.158437	-0.159752	0.128208	29.5801	-0.161687	-29.3703	-0.004365	NaN
725	1.000000	0.938837	7.37215e+06	-40839.1	1005.82	-29788.4	0.000000	0.000000	6.939143	0.037985	NaN	0.000000	0.001601	0.001764	28.0844	0.074647	0.002121	35.1981	13.915	-164.611	0.105980	0.937490	-0.150407	-0.151755	0.037985	35.1981	-0.151217	-19.0615	-0.001993	NaN
725	1.000000	0.946806	7.37215e+06	-40839.1	1005.82	-29788.4	0.000000	0.000000	6.947113	0.077285	NaN	0.000000	0.001587	0.001765	28.0843	0.009396	0.002050	4.582840	129.812	-167.08	0.036862	0.945493	-0.142439	-0.143752	0.077285	4.582840	-0.155087	-22.3944	-0.003451	NaN
725	1.000000	0.954804	7.37215e+06	-40839.1	1005.82	-29788.4	0.000000	0.000000	6.955110	0.061774	NaN	0.000000	0.001548	0.001765	28.0845	0.072850	0.001873	38.8948	-116.61	-165.867	0.077825	0.953500	-0.134441	-0.135745	0.061774	38.8948	-0.135632	-9.780101	-0.006316	NaN
725	1.000000	0.962811	7.37215e+06	-40839.1	1005.82	-29788.4	0.000000	0.000000	6.963116	0.037187	NaN	0.000000	0.001571	0.001762	28.0844	0.033501	0.002124	15.7725	157.948	-163.416	0.032142	0.961531	-0.126434	-0.127713	0.037187	15.7725	-0.128202	-7.030402	-0.005289	NaN
725	1.000000	0.970858	7.37215e+06	-40839.1	1005.82	-29788.4	0.000000	0.000000	6.971164	0.064584	NaN	0.000000	0.001586	0.001744	28.0845	0.032506	0.001971	16.488	35.0937	-163.579	0.059105	0.969475	-0.118386	-0.119770	0.064584	16.488	-0.121324	-5.137317	-0.012571	NaN
725	1.000000	0.978816	7.37215e+06	-40839.1	1005.82	-29788.4	0.000000	0.000000	6.979121	0.037282	NaN	0.000000	0.001606	0.001753	28.0845	0.084321	0.001962	42.981	44.9782	-166.204	0.078840	0.977485	-0.110429	-0.111759	0.037282	42.981	-0.111079	-3.166479	-0.011774	NaN
725	1.000000	0.986816	7.37215e+06	-40839.1	1005.82	-29788.4	0.000000	0.000000	6.987124	0.091447	NaN	0.000000	0.001625	0.001774	28.0844	0.055134	0.001894	29.1165	17.5758	-163.098	0.075890	0.985554	-0.102428	-0.103691	0.091447	29.1165	-0.104784	-2.325436	-0.039325	NaN
725	1.000000	0.994847	7.37215e+06	-40839.1	1005.82	-29788.4	0.000000	0.000000	6.995151	0.020213	NaN	0.000000	0.001609	0.001765	28.0842	0.103826	0.002021	51.3822	77.7636	-162.599	0.012544	0.993512	-0.094398	-0.095732	0.020213	51.3822	-0.094693	-1.388073	-0.014562	NaN
725	1.000000	1.002814	7.37215e+06	-40839.1	1005.82	-29788.4	0.000000	0.000000	7.003123	0.124837	NaN	0.000000	0.001622	0.001785	28.0842	0.051815	0.001931	26.8348	1.390135	-166.395	0.103899	1.001534	-0.086431	-0.087711	0.124837	26.8348	-0.089920	-1.076299	-0.115987	NaN
725	1.000000	1.010806	7.37215e+06	-40839.1	1005.82	-29788.4	0.000000	0.000000	7.011112	0.062476	NaN	0.000000	0.001610	0.001748	28.0842	0.021471	0.001977	10.8577	176.937	-167.503	0.011156	1.009509	-0.078439	-0.079736	0.062476	10.8577	-0.082754	-0.724330	-0.086254	NaN
725	1.000000	1.018831	7.37215e+06	-40839.1	1005.82	-29788.4	0.000000	0.000000	7.019138	0.074517	NaN	0.000000	0.001650	0.001722	28.0843	0.046291	0.001992	23.2344	-34.5124	-166.819	0.097381	1.017496	-0.070414	-0.071748	0.074517	23.2344	-0.072819	-0.405201	-0.183901	NaN
725	1.000000	1.026843	7.37215e+06	-40839.1	1005.82	-29788.4	0.000000	0.000000	7.027149	0.061264	NaN	0.000000	0.001616	0.001761	28.0847	0.113362	0.001970	57.5516	160.625	-163.304	0.058409	1.025507	-0.062401	-0.063738	0.061264	57.5516	-0.063200	-0.221986	-0.275983	NaN
725	1.000000	1.034871	7.37215e+06	-40839.1	1005.82	-29788.4	0.000000	0.000000	7.035176	0.048840	NaN	0.000000	0.001634	0.001759	28.0845	0.036264	0.001943	18.6661	-147.904	-161.566	0.030816	1.033549	-0.054374	-0.055696	0.048840	18.6661	-0.056336	-0.140990	-0.346404	NaN
725	1.000000	1.042870	7.37215e+06	-40839.1	1005.82	-29788.4	0.000000	0.000000	7.043178	0.110561	NaN	0.000000	0.001631	0.001776	28.083	0.055194	0.001864	29.6067	-91.8264	-164.848	0.069728	1.041533	-0.046375	-0.047711	0.110561	29.6067	-0.049176	-0.086155	-1.283290	NaN
725	1.000000	1.050834	7.37215e+06	-40839.1	1005.82	-29788.4	0.000000	0.000000	7.051140	0.074921	NaN	0.000000	0.001590	0.001773	28.0828	0.049711	0.001915	25.9586	-69.5987	-165.284	0.019771	1.049563	-0.038411	-0.039681	0.074921	25.9586	-0.040575	-0.047081	-1.591335	NaN
725	1.000000	1.058873	7.37215e+06	-40839.1	1005.82	-29788.4	0.000000	0.000000	7.059181	0.124694	NaN	0.000000	0.001576	0.001766	28.0829	0.071727	0.002002	35.8225	-160.454	-162.566	0.156177	1.057499	-0.030372	-0.031745	0.124694	35.8225	-0.032983	-0.027966	-4.458816	NaN
725	1.000000	1.066850	7.37215e+06	-40839.1	1005.82	-29788.4	0.000000	0.000000	7.067153	-0.011781	NaN	0.000000	0.001607	0.001743	28.083	0.126173	0.002057	61.3275	66.6252	-164.496	0.075440	1.065598	-0.022394	-0.023646	-0.011781	61.3275	-0.022250	-0.014330	0.822129	NaN
725	1.000000	1.074864	7.37215e+06	-40839.1	1005.82	-29788.4	0.000000	0.000000	7.075172	0.090009	NaN	0.000000	0.001647	0.001721	28.083	0.156132	0.002077	75.1891	134.091	-168.53	0.082207	1.073545	-0.014380	-0.015699	0.090009	75.1891	-0.015278	-0.009443	-9.532206	NaN
725	1.000000	1.082872	7.37215e+06	-40839.1	1005.82	-29788.4	0.000000	0.000000	7.083189	0.320914	NaN	0.000000	0.001608	0.001744	28.0831	0.479985	0.001999	240.144	8.844431	-163.252	0.085810	1.081550	-0.006372	-0.007694	0.320914	240.144	-0.007375	-0.004863	-65.9871	NaN
725	1.000000	1.090855	7.37215e+06	-40839.1	1005.82	-29788.4	0.000000	0.000000	7.091390	5.648493	NaN	0.000000	0.001606	0.001746	28.0828	5.984029	0.001883	3178.19	10.9608	-165.936	4.745976	1.089508	0.001610	0.000263	5.648493	3178.19	0.000277	0.000208	27135.4	201259
725	2.000000	1.095445	7.37215e+06	-40839.1	1005.82	-29788.4	0.000000	0.000000	7.096135	9.423287	NaN	0.000000	0.001650	0.001749	28.0829	9.877124	0.001618	6103.5	9.568568	-174.551	9.493405	1.095149	0.006200	0.005904	9.423287	6103.5	0.005042	0.004172	2258.84	86336.5
725	2.000000	1.097437	7.37215e+06	-40839.1	1005.82	-29788.4	0.000000	0.000000	7.098294	13.4749	NaN	0.000000	0.001613	0.001758	28.0827	12.0176	0.001662	7229.6	11.1421	-175.455	12.8275	1.097057	0.008192	0.007813	13.4749	7229.6	0.006794	0.005831	2310.94	86500.4
725	2.000000	1.099396	7.37215e+06	-40839.1	1005.82	-29788.4	0.000000	0.000000	7.100293	14.4481	NaN	0.000000	0.001636	0.001711	28.0834	13.9175	0.001742	7990.79	6.570906	-172.861	14.3463	1.099029	0.010151	0.009784	14.4481	7990.79	0.008795	0.007873	1835.09	82278.7
725	2.000000	1.101352	7.37215e+06	-40839.1	1005.82	-29788.4	0.000000	0.000000	7.102370	17.3829	NaN	0.000000	0.001624	0.001748	28.0829	16.8452	0.001867	9023.37	8.614829	-175.889	16.6623	1.101054	0.012107	0.011810	17.3829	9023.37	0.010662	0.009927	1751.09	82743.9
725	2.000000	1.103336	7.37215e+06	-40839.1	1005.82	-29788.4	0.000000	0.000000	7.104583	22.9627	NaN	0.000000	0.001601	0.001772	28.0827	18.1078	0.001725	10496	3.088249	-171.869	22.4766	1.103008	0.014091	0.013763	22.9627	10496	0.012450	0.012034	1908.16	87416.6
725	2.000000	1.105328	7.37215e+06	-40839.1	1005.82	-29788.4	0.000000	0.000000	7.106680	25.4962	NaN	0.000000	0.001593	0.001744	28.0832	21.0603	0.001911	11021.5	8.666577	-177.234	25.7293	1.105072	0.016084	0.015827	25.4962	11021.5	0.014349	0.014427	1767.31	83836
725	2.000000	1.107371	7.37215e+06	-40839.1	1005.82	-29788.4	0.000000	0.000000	7.108972	31.5628	NaN	0.000000	0.001610	0.001741	28.083	23.5206	0.001922	12235.7	8.030454	-177.668	32.0676	1.107014	0.018127	0.017770	31.5628	12235.7	0.016192	0.016908	1866.73	85971.6
725	2.000000	1.109293	7.37215e+06	-40839.1	1005.82	-29788.4	0.000000	0.000000	7.110997	34.0808	NaN	0.000000	0.001628	0.001729	28.0834	24.4925	0.001723	14216.4	5.101194	-177.663	32.6519	1.109028	0.020048	0.019783	34.0808	14216.4	0.018250	0.019867	1715.48	92151.3
725	2.000000	1.111356	7.37215e+06	-40839.1	1005.82	-29788.4	0.000000	0.000000	7.113280	39.4304	NaN	0.000000	0.001601	0.001723	28.0832	26.8925	0.001768	15209.1	3.722587	-176.089	38.9811	1.111025	0.022111	0.021781	39.4304	15209.1	0.020167	0.022805	1729.04	92015.9
725	2.000000	1.113307	7.37215e+06	-40839.1	1005.82	-29788.4	0.000000	0.000000	7.115543	47.0313	NaN	0.000000	0.001628	0.001728	28.083	28.1691	0.001722	16358.3	1.300815	-174.645	47.2675	1.112977	0.024062	0.023733	47.0313	16358.3	0.021906	0.025626	1835.33	93362.8
725	2.000000	1.115317	7.37215e+06	-40839.1	1005.82	-29788.4	0.000000	0.000000	7.117642	49.189	NaN	0.000000	0.001600	0.001752	28.0842	31.4195	0.001927	16302	7.645361	-179.373	48.3514	1.114984	0.026072	0.025740	49.189	16302	0.023809	0.028885	1702.92	87634.7
725	2.000000	1.117333	7.37215e+06	-40839.1	1005.82	-29788.4	0.000000	0.000000	7.119788	52.3604	NaN	0.000000	0.001620	0.001762	28.0841	32.5524	0.001749	18615.7	6.345024	-179.859	53.4457	1.116977	0.028088	0.027732	52.3604	18615.7	0.025979	0.032821	1595.35	93881.5
725	2.000000	1.119304	7.37215e+06	-40839.1	1005.82	-29788.4	0.000000	0.000000	7.122169	62.3185	NaN	0.000000	0.001638	0.001731	28.0852	34.5497	0.001750	19743.4	7.136797	178.194	61.6191	1.118935	0.030059	0.029690	62.3185	19743.4	0.027692	0.036096	1726.48	94944.1
725	2.000000	1.121378	7.37215e+06	-40839.1	1005.82	-29788.4	0.000000	0.000000	7.124392	65.9542	NaN	0.000000	0.001604	0.001750	28.0842	37.615	0.001865	20164.2	7.124221	177.65	68.154	1.121013	0.032133	0.031768	65.9542	20164.2	0.029680	0.040083	1645.43	92018
725	2.000000	1.123290	7.37215e+06	-40839.1	1005.82	-29788.4	0.000000	0.000000	7.126746	76.7001	NaN	0.000000	0.001601	0.001724	28.0841	38.6056	0.001762	21904.8	5.216250	179.182	77.1204	1.122979	0.034045	0.033735	76.7001	21904.8	0.031419	0.043737	1753.67	95695.1
725	2.000000	1.125269	7.37215e+06	-40839.1	1005.82	-29788.4	0.000000	0.000000	7.129033	84.1955	NaN	0.000000	0.001582	0.001758	28.0844	40.745	0.001806	22555.2	1.812925	-177.402	81.8472	1.124917	0.036024	0.035672	84.1955	22555.2	0.033225	0.047693	1765.37	94361.2
725	2.000000	1.127275	7.37215e+06	-40839.1	1005.82	-29788.4	0.000000	0.000000	7.131474	94.7782	NaN	0.000000	0.001623	0.001739	28.0842	42.8624	0.001861	23035.1	5.774824	178.685	92.4413	1.126959	0.038031	0.037714	94.7782	23035.1	0.034945	0.051617	1836.16	92632.6
725	2.000000	1.129305	7.37215e+06	-40839.1	1005.82	-29788.4	0.000000	0.000000	7.133644	98.175	NaN	0.000000	0.001618	0.001723	28.0847	43.9049	0.001741	25224.4	2.686560	-179.423	97.0805	1.129038	0.040061	0.039793	98.175	25224.4	0.037142	0.056850	1726.9	96655.8
725	2.000000	1.131285	7.37215e+06	-40839.1	1005.82	-29788.4	0.000000	0.000000	7.136211	112.476	NaN	0.000000	0.001605	0.001740	28.0841	47.2512	0.001748	27037.9	7.576545	175.575	111.426	1.130929	0.042041	0.041685	112.476	27037.9	0.038921	0.061269	1835.77	99799
725	2.000000	1.133201	7.37215e+06	-40839.1	1005.82	-29788.4	0.000000	0.000000	7.138270	115.951	NaN	0.000000	0.001615	0.001726	28.0842	48.4047	0.001784	27129.1	3.316388	178.407	111.355	1.132930	0.043957	0.043685	115.951	27129.1	0.040751	0.065984	1757.25	96491.5
725	2.000000	1.135234	7.37215e+06	-40839.1	1005.82	-29788.4	0.000000	0.000000	7.140850	129.263	NaN	0.000000	0.001620	0.001741	28.0843	51.4722	0.001783	28862.9	8.212946	174.168	128.067	1.134901	0.045989	0.045656	129.263	28862.9	0.042630	0.071002	1820.55	98964.1
725	2.000000	1.137297	7.37215e+06	-40839.1	1005.82	-29788.4	0.000000	0.000000	7.143327	139.342	NaN	0.000000	0.001615	0.001760	28.0841	52.5135	0.001743	30122	3.542788	178.491	137.526	1.136955	0.048052	0.047710	139.342	30122	0.044583	0.076407	1823.68	99561.4
725	2.000000	1.139358	7.37215e+06	-40839.1	1005.82	-29788.4	0.000000	0.000000	7.145435	140.473	NaN	0.000000	0.001630	0.001737	28.0845	56.4003	0.001813	31102.2	10.3501	171.294	144.686	1.138908	0.050114	0.049663	140.473	31102.2	0.046726	0.082563	1701.4	98894.1
725	2.000000	1.141220	7.37215e+06	-40839.1	1005.82	-29788.4	0.000000	0.000000	7.147706	150.432	NaN	0.000000	0.001666	0.001733	28.084	57.0867	0.001705	33474.3	1.741759	178.398	146.65	1.140983	0.051975	0.051738	150.432	33474.3	0.048605	0.088149	1706.56	103009
725	2.000000	1.143270	7.37215e+06	-40839.1	1005.82	-29788.4	0.000000	0.000000	7.150335	164.534	NaN	0.000000	0.001631	0.001728	28.0842	57.3633	0.001700	33750.5	0.688460	-179.591	163.191	1.142897	0.054025	0.053653	164.534	33750.5	0.050369	0.093556	1758.67	100813
725	2.000000	1.145199	7.37215e+06	-40839.1	1005.82	-29788.4	0.000000	0.000000	7.152539	171.223	NaN	0.000000	0.001630	0.001768	28.0842	60.9781	0.001572	38780.5	6.550551	172.1	170.061	1.144899	0.055954	0.055654	171.223	38780.5	0.052643	0.100757	1699.38	111622
725	2.000000	1.147271	7.37215e+06	-40839.1	1005.82	-29788.4	0.000000	0.000000	7.155355	189.32	NaN	0.000000	0.001643	0.001746	28.0838	63.5031	0.001753	36233	5.747562	174.793	186.887	1.146920	0.058026	0.057675	189.32	36233	0.054108	0.105531	1793.97	101903
725	2.000000	1.149341	7.37215e+06	-40839.1	1005.82	-29788.4	0.000000	0.000000	7.157466	190.326	NaN	0.000000	0.001645	0.001790	28.0832	66.4211	0.001814	36620.4	3.467586	176.598	194.975	1.148852	0.060096	0.059607	190.326	36620.4	0.056198	0.112529	1691.35	99738.9
725	2.000000	1.151262	7.37215e+06	-40839.1	1005.82	-29788.4	0.000000	0.000000	7.159900	202.821	NaN	0.000000	0.001608	0.001752	28.0827	69.3248	0.001862	37228.2	3.345200	176.22	200.553	1.150990	0.062017	0.061745	202.821	37228.2	0.057931	0.118494	1711.66	98809.1
725	2.000000	1.153218	7.37215e+06	-40839.1	1005.82	-29788.4	0.000000	0.000000	7.162710	223.588	NaN	0.000000	0.001600	0.001744	28.0836	69.773	0.001683	41451	4.378743	174.41	220.353	1.152854	0.063973	0.063609	223.588	41451	0.059927	0.125548	1780.9	106882
725	2.000000	1.155212	7.37215e+06	-40839.1	1005.82	-29788.4	0.000000	0.000000	7.164997	230.712	NaN	0.000000	0.001600	0.001777	28.0829	72.4163	0.001750	41376.2	2.940630	175.813	227.526	1.154948	0.065968	0.065703	230.712	41376.2	0.061786	0.132289	1743.99	103935
725	2.000000	1.157224	7.37215e+06	-40839.1	1005.82	-29788.4	0.000000	0.000000	7.167723	248.098	NaN	0.000000	0.001595	0.001747	28.0828	74.9318	0.001880	39847.3	5.029316	174.057	243.314	1.156959	0.067979	0.067715	248.098	39847.3	0.063309	0.137941	1798.57	98022.3
725	2.000000	1.159187	7.37215e+06	-40839.1	1005.82	-29788.4	0.000000	0.000000	7.170320	263.512	NaN	0.000000	0.001596	0.001776	28.0831	76.0287	0.001805	42110.7	5.927904	172.622	262.539	1.158942	0.069943	0.069698	263.512	42110.7	0.065250	0.145303	1813.54	100932
725	2.000000	1.161204	7.37215e+06	-40839.1	1005.82	-29788.4	0.000000	0.000000	7.172837	275.676	NaN	0.000000	0.001595	0.001760	28.0829	78.3705	0.001770	44284	0.894975	177.564	272.968	1.160967	0.071959	0.071722	275.676	44284	0.067290	0.153241	1798.97	103355
725	2.000000	1.163362	7.37215e+06	-40839.1	1005.82	-29788.4	0.000000	0.000000	7.175534	288.794	NaN	0.000000	0.001587	0.001734	28.0835	80.5392	0.001827	44085.1	8.237653	170.621	295.168	1.162864	0.074117	0.073620	288.794	44085.1	0.069204	0.160866	1795.25	100423
725	2.000000	1.165292	7.37215e+06	-40839.1	1005.82	-29788.4	0.000000	0.000000	7.178058	303.252	NaN	0.000000	0.001554	0.001809	28.0829	84.462	0.001927	43837.9	11.3292	168.493	304.334	1.164815	0.076047	0.075570	303.252	43837.9	0.070859	0.167598	1809.4	97833.6
725	2.000000	1.167197	7.37215e+06	-40839.1	1005.82	-29788.4	0.000000	0.000000	7.180305	311.573	NaN	0.000000	0.001600	0.001764	28.0829	84.5799	0.001837	46045.4	5.353279	173.644	308.469	1.166821	0.077953	0.077576	311.573	46045.4	0.072878	0.175991	1770.4	100280
725	2.000000	1.169203	7.37215e+06	-40839.1	1005.82	-29788.4	0.000000	0.000000	7.183173	332.549	NaN	0.000000	0.001581	0.001739	28.0826	86.2831	0.001826	47260.8	5.367606	172.714	330.942	1.168971	0.079959	0.079727	332.549	47260.8	0.074681	0.183651	1810.77	100758
725	2.000000	1.171218	7.37215e+06	-40839.1	1005.82	-29788.4	0.000000	0.000000	7.185914	350.213	NaN	0.000000	0.001610	0.001755	28.0829	87.9509	0.001722	51070.6	3.179023	173.858	348.579	1.170969	0.081974	0.081724	350.213	51070.6	0.076831	0.192978	1814.78	106216
725	2.000000	1.173185	7.37215e+06	-40839.1	1005.82	-29788.4	0.000000	0.000000	7.188654	369.031	NaN	0.000000	0.001584	0.001741	28.0835	89.2724	0.001815	49180.8	6.756351	170.891	366.274	1.172805	0.083940	0.083560	369.031	49180.8	0.078312	0.199535	1849.45	100591
725	2.000000	1.175153	7.37215e+06	-40839.1	1005.82	-29788.4	0.000000	0.000000	7.191314	385.865	NaN	0.000000	0.001586	0.001749	28.0829	91.1658	0.001810	50364.6	1.059158	176.409	381.818	1.174906	0.085908	0.085662	385.865	50364.6	0.080162	0.207866	1856.31	100927
725	2.000000	1.177165	7.37215e+06	-40839.1	1005.82	-29788.4	0.000000	0.000000	7.193983	401.852	NaN	0.000000	0.001654	0.001722	28.0831	92.5894	0.001736	53326.4	1.668751	175.528	393.181	1.176765	0.087920	0.087520	401.852	53326.4	0.082268	0.217543	1847.23	104458
725	2.000000	1.179250	7.37215e+06	-40839.1	1005.82	-29788.4	0.000000	0.000000	7.196823	420.219	NaN	0.000000	0.001642	0.001756	28.0831	94.8015	0.001772	53488.4	5.103017	172.218	419.391	1.178759	0.090006	0.089514	420.219	53488.4	0.084113	0.226191	1857.81	102753
725	2.000000	1.181210	7.37215e+06	-40839.1	1005.82	-29788.4	0.000000	0.000000	7.199281	432.329	NaN	0.000000	0.001663	0.001751	28.0831	96.9671	0.001789	54202.7	3.351590	173.329	430.153	1.180982	0.091966	0.091737	432.329	54202.7	0.085984	0.235116	1838.79	102130
725	2.000000	1.183282	7.37215e+06	-40839.1	1005.82	-29788.4	0.000000	0.000000	7.202449	459.022	NaN	0.000000	0.001650	0.001768	28.0846	97.7884	0.001884	51917.5	3.892916	173.842	462.26	1.182869	0.094037	0.093624	459.022	51917.5	0.087406	0.242012	1896.69	96420.4
725	2.000000	1.185198	7.37215e+06	-40839.1	1005.82	-29788.4	0.000000	0.000000	7.205086	476.558	NaN	0.000000	0.001631	0.001776	28.0843	101.368	0.001912	53013.5	7.392896	170.104	473.634	1.184792	0.095954	0.095548	476.558	53013.5	0.089211	0.250901	1899.39	96696
725	2.000000	1.187154	7.37215e+06	-40839.1	1005.82	-29788.4	0.000000	0.000000	7.207977	499.296	NaN	0.000000	0.001664	0.001779	28.0845	101.959	0.001738	58653	5.985775	170.753	495.088	1.186825	0.097909	0.097580	499.296	58653	0.091525	0.262508	1902.02	104590
725	2.000000	1.189214	7.37215e+06	-40839.1	1005.82	-29788.4	0.000000	0.000000	7.210737	516.352	NaN	0.000000	0.001625	0.001774	28.0843	103.259	0.001764	58530.3	6.483034	170.143	516.389	1.188891	0.099969	0.099646	516.352	58530.3	0.093352	0.271851	1899.4	102563
725	2.000000	1.191105	7.37215e+06	-40839.1	1005.82	-29788.4	0.000000	0.000000	7.213321	533.183	NaN	0.000000	0.001647	0.001780	28.0844	105.413	0.001742	60521.2	1.560005	174.474	526.719	1.190988	0.101861	0.101743	533.183	60521.2	0.095253	0.281730	1892.53	104175
725	2.000000	1.192748	7.37215e+06	-40839.1	1005.82	-29788.4	0.000000	0.000000	7.215622	549.212	NaN	0.000000	0.001648	0.001799	28.0849	107.699	0.001920	56093.5	7.360603	-10.7489	546.506	1.192372	0.103504	0.103127	549.212	56093.5	0.096160	0.286503	1916.95	95746.2