File: remote_trans/data/nanoindenter/0828-1/data/Data_2025-08-06,11h17m57s/2025-07-22_16-23-58_1_1099.txt
2025-07-22, 16:23:58, 1
Index	Phase	Displacement	Time	Pos X	Pos Y	Pos Z	Rot A	Rot B	Piezo Z	Force A	Force B	Gripper	Voltage A	Voltage B	Temperature	Amplitude force	Amplitude pos	Stiffness	Phase shift	Phase excitation	Force A raw	Displacement raw	HMax	HMax raw	Real Force	Real Stiffness	Contact Depth	Area	Hardness	Reduced Mod.
[#]	[#]	[um]	[s]	[um]	[um]	[um]	[m°]	[m°]	[um]	[uN]	[uN]	[V]	[V]	[V]	[°C]	[uN]	[um]	[N/m]	[°]	[°]	[uN]	[um]	[um]	[um]	[uN]	[N/m]	[um]	[um^2]	[MPa]	[MPa]
1099	1.000000	0.002979	7.37581e+06	-55089.1	1055.82	-29742.3	0.000000	0.000000	6.004320	4.091090	NaN	0.000000	0.001677	0.001749	28.0827	2.876422	0.000873	3295.42	13.3326	-176.616	2.024286	0.001706	-0.008508	-0.009780	4.091090	3295.42	-0.009439	-0.006066	-674.457	NaN
1099	1.000000	0.006815	7.37581e+06	-55089.1	1055.82	-29742.3	0.000000	0.000000	6.008374	9.372046	NaN	0.000000	0.001654	0.001718	28.0816	2.566651	0.000897	2861.83	7.827478	-169.685	8.562517	0.005539	-0.004672	-0.005948	9.372046	2861.83	-0.007128	-0.004717	-1986.95	NaN
1099	2.000000	0.008588	7.37581e+06	-55089.1	1055.82	-29742.3	0.000000	0.000000	6.010150	9.444887	NaN	0.000000	0.001656	0.001702	28.0815	2.206965	0.000980	2251.96	8.373942	-167.294	9.617521	0.008247	-0.002898	-0.003240	9.444887	2251.96	-0.006044	-0.004063	-2324.54	NaN
1099	2.000000	0.009628	7.37581e+06	-55089.1	1055.82	-29742.3	0.000000	0.000000	6.011158	8.667160	NaN	0.000000	0.001676	0.001724	28.0817	4.078920	0.001595	2557.99	18.3964	-168.932	9.495217	0.009473	-0.001859	-0.002014	8.667160	2557.99	-0.004400	-0.003036	-2854.4	NaN
1099	2.000000	0.010528	7.37581e+06	-55089.1	1055.82	-29742.3	0.000000	0.000000	6.012084	9.304434	NaN	0.000000	0.001681	0.001740	28.0816	3.738979	0.001603	2332.19	6.062437	-167.757	9.106880	0.010230	-0.000959	-0.001257	9.304434	2332.19	-0.003951	-0.002747	-3387.13	NaN
1099	2.000000	0.011515	7.37581e+06	-55089.1	1055.82	-29742.3	0.000000	0.000000	6.013057	8.956972	NaN	0.000000	0.001672	0.001745	28.0815	3.834186	0.001690	2268.1	-1.260913	-166.163	9.157759	0.011168	2.823089E-5	-0.000319	8.956972	2268.1	-0.002934	-0.002076	-4314.51	NaN
1099	2.000000	0.012547	7.37581e+06	-55089.1	1055.82	-29742.3	0.000000	0.000000	6.014078	8.680080	NaN	0.000000	0.001681	0.001721	28.0816	4.365600	0.001777	2456.93	-5.169469	-166.281	8.706316	0.012240	0.001061	0.000754	8.680080	2456.93	-0.001589	-0.001152	-7533.22	NaN
1099	2.000000	0.013559	7.37581e+06	-55089.1	1055.82	-29742.3	0.000000	0.000000	6.015111	9.185908	NaN	0.000000	0.001656	0.001703	28.0816	5.204356	0.001874	2777.42	7.341543	-170.915	9.495016	0.013176	0.002073	0.001689	9.185908	2777.42	-0.000408	-0.000302	-30378.8	NaN
1099	2.000000	0.014468	7.37581e+06	-55089.1	1055.82	-29742.3	0.000000	0.000000	6.016023	9.262091	NaN	0.000000	0.001667	0.001702	28.0815	5.611895	0.001930	2907.86	6.202086	-167.611	9.307676	0.014127	0.002982	0.002641	9.262091	2907.86	0.000593	0.000448	20665.7	125493
1099	2.000000	0.015483	7.37581e+06	-55089.1	1055.82	-29742.3	0.000000	0.000000	6.017046	9.479918	NaN	0.000000	0.001709	0.001696	28.0815	5.514977	0.001858	2968.11	2.922018	-169.598	9.337502	0.015160	0.003996	0.003674	9.479918	2968.11	0.001601	0.001235	7678.59	77177.7
1099	2.000000	0.016471	7.37581e+06	-55089.1	1055.82	-29742.3	0.000000	0.000000	6.018041	9.640316	NaN	0.000000	0.001670	0.001685	28.0817	6.068603	0.001893	3206.37	7.041013	-170.33	9.643964	0.016177	0.004985	0.004690	9.640316	3206.37	0.002730	0.002154	4476.15	63123.9
1099	2.000000	0.017469	7.37581e+06	-55089.1	1055.82	-29742.3	0.000000	0.000000	6.019083	10.6907	NaN	0.000000	0.001694	0.001704	28.0814	5.901437	0.001882	3135.4	15.3513	-168.104	10.6221	0.017175	0.005983	0.005689	10.6907	3135.4	0.003426	0.002741	3899.81	54712.2
1099	2.000000	0.018462	7.37581e+06	-55089.1	1055.82	-29742.3	0.000000	0.000000	6.020042	9.864724	NaN	0.000000	0.001686	0.001715	28.0814	5.781266	0.002053	2816.37	23.0891	-170.343	9.713093	0.018200	0.006976	0.006713	9.864724	2816.37	0.004349	0.003547	2781.16	43204.9
1099	2.000000	0.019497	7.37581e+06	-55089.1	1055.82	-29742.3	0.000000	0.000000	6.021081	10.0046	NaN	0.000000	0.001696	0.001686	28.0816	4.478330	0.002085	2148.14	11.8315	-165.416	10.5795	0.019160	0.008010	0.007673	10.0046	2148.14	0.004517	0.003697	2706.28	32279.1
1099	2.000000	0.020455	7.37581e+06	-55089.1	1055.82	-29742.3	0.000000	0.000000	6.022027	9.703399	NaN	0.000000	0.001712	0.001692	28.0814	4.663683	0.002063	2260.35	12.8714	-171.573	10.0456	0.020143	0.008968	0.008657	9.703399	2260.35	0.005749	0.004827	2010.28	29724.5
1099	2.000000	0.021452	7.37581e+06	-55089.1	1055.82	-29742.3	0.000000	0.000000	6.023057	10.5048	NaN	0.000000	0.001703	0.001725	28.0814	4.911373	0.001948	2521.64	8.352742	-171.477	10.1527	0.021138	0.009965	0.009652	10.5048	2521.64	0.006841	0.005877	1787.5	30052.8
1099	2.000000	0.022453	7.37581e+06	-55089.1	1055.82	-29742.3	0.000000	0.000000	6.024076	10.9412	NaN	0.000000	0.001704	0.001676	28.0814	5.504573	0.001932	2849.27	-2.448935	-166.486	10.5481	0.022098	0.010966	0.010612	10.9412	2849.27	0.008086	0.007131	1534.3	30827
1099	2.000000	0.023423	7.37581e+06	-55089.1	1055.82	-29742.3	0.000000	0.000000	6.024997	9.751557	NaN	0.000000	0.001679	0.001730	28.0815	5.841059	0.001901	3072.07	-0.565845	-167.924	9.853973	0.023165	0.011936	0.011679	9.751557	3072.07	0.009556	0.008692	1121.94	30105.9
1099	2.000000	0.024439	7.37581e+06	-55089.1	1055.82	-29742.3	0.000000	0.000000	6.026032	10.183	NaN	0.000000	0.001693	0.001720	28.0814	5.830831	0.001971	2958.21	8.915239	-169.776	10.2093	0.024172	0.012953	0.012686	10.183	2958.21	0.010371	0.009597	1061.09	27589.3
1099	2.000000	0.025471	7.37581e+06	-55089.1	1055.82	-29742.3	0.000000	0.000000	6.027082	10.6178	NaN	0.000000	0.001690	0.001691	28.0812	5.814283	0.001846	3150.23	6.421572	-169.051	10.7534	0.025127	0.013985	0.013640	10.6178	3150.23	0.011457	0.010846	978.943	27636.1
1099	2.000000	0.026425	7.37581e+06	-55089.1	1055.82	-29742.3	0.000000	0.000000	6.028092	11.9982	NaN	0.000000	0.001703	0.001730	28.0818	5.883958	0.002018	2915.75	8.898394	-166.348	11.4564	0.026099	0.014938	0.014613	11.9982	2915.75	0.011852	0.011313	1060.54	25045.4
1099	2.000000	0.027440	7.37581e+06	-55089.1	1055.82	-29742.3	0.000000	0.000000	6.029091	11.5961	NaN	0.000000	0.001690	0.001712	28.0814	5.521284	0.001983	2783.77	11.6407	-174.279	11.9978	0.027156	0.015954	0.015670	11.5961	2783.77	0.012829	0.012499	927.78	22749.6
1099	2.000000	0.028437	7.37581e+06	-55089.1	1055.82	-29742.3	0.000000	0.000000	6.030089	11.639	NaN	0.000000	0.001672	0.001701	28.0813	4.763786	0.001958	2432.91	10.7545	-169.138	11.7094	0.028121	0.016951	0.016635	11.639	2432.91	0.013363	0.013164	884.183	19373.7
1099	2.000000	0.029464	7.37581e+06	-55089.1	1055.82	-29742.3	0.000000	0.000000	6.031101	11.277	NaN	0.000000	0.001712	0.001695	28.0815	5.573871	0.001980	2815.3	8.499100	-170.974	11.3451	0.029121	0.017977	0.017634	11.277	2815.3	0.014973	0.015249	739.516	20829.3
1099	2.000000	0.030393	7.37581e+06	-55089.1	1055.82	-29742.3	0.000000	0.000000	6.032078	12.4286	NaN	0.000000	0.001686	0.001698	28.0814	5.410935	0.001993	2714.56	1.811619	-168.968	11.981	0.030057	0.018907	0.018571	12.4286	2714.56	0.015473	0.015921	780.641	19655.6
1099	2.000000	0.031467	7.37581e+06	-55089.1	1055.82	-29742.3	0.000000	0.000000	6.033147	12.3166	NaN	0.000000	0.001667	0.001722	28.0816	5.692538	0.002093	2719.34	1.848237	-168.57	12.9457	0.031082	0.019980	0.019595	12.3166	2719.34	0.016583	0.017455	705.62	18805.2
1099	2.000000	0.032407	7.37581e+06	-55089.1	1055.82	-29742.3	0.000000	0.000000	6.034054	11.5213	NaN	0.000000	0.001748	0.001677	28.0816	5.685663	0.001984	2865.85	8.250069	-169.463	11.5049	0.032143	0.020920	0.020657	11.5213	2865.85	0.017905	0.019356	595.217	18819.7
1099	2.000000	0.033406	7.37581e+06	-55089.1	1055.82	-29742.3	0.000000	0.000000	6.035078	12.1365	NaN	0.000000	0.001782	0.001702	28.0816	6.012732	0.001951	3082.23	8.618311	-169.393	11.6978	0.033130	0.021919	0.021643	12.1365	3082.23	0.018966	0.020944	579.485	19458.7
1099	2.000000	0.034404	7.37581e+06	-55089.1	1055.82	-29742.3	0.000000	0.000000	6.036064	11.8435	NaN	0.000000	0.001780	0.001736	28.0814	5.826037	0.002067	2819.22	7.360433	-168.952	11.7369	0.034077	0.022917	0.022590	11.8435	2819.22	0.019767	0.022177	534.05	17296.3
1099	2.000000	0.035403	7.37581e+06	-55089.1	1055.82	-29742.3	0.000000	0.000000	6.037108	12.9208	NaN	0.000000	0.001787	0.001725	28.0813	5.494165	0.002066	2658.76	6.609496	-168.27	12.7657	0.035113	0.023917	0.023627	12.9208	2658.76	0.020272	0.022971	562.474	16027.2
1099	2.000000	0.036435	7.37581e+06	-55089.1	1055.82	-29742.3	0.000000	0.000000	6.038106	12.0963	NaN	0.000000	0.001707	0.001725	28.0817	5.747987	0.001961	2931.89	12.1179	-169.99	12.5738	0.036122	0.024949	0.024635	12.0963	2931.89	0.021855	0.025541	473.606	16761.1
1099	2.000000	0.037386	7.37581e+06	-55089.1	1055.82	-29742.3	0.000000	0.000000	6.039042	11.7471	NaN	0.000000	0.001687	0.001706	28.0815	5.879096	0.002048	2871.19	14.4091	-166.986	11.7093	0.037121	0.025899	0.025634	11.7471	2871.19	0.022831	0.027187	432.085	15909.4
1099	2.000000	0.038463	7.37581e+06	-55089.1	1055.82	-29742.3	0.000000	0.000000	6.040125	11.8973	NaN	0.000000	0.001709	0.001759	28.0815	5.999040	0.001961	3059.1	7.874351	-168.584	12.3003	0.038105	0.026976	0.026619	11.8973	3059.1	0.024059	0.029326	405.688	16320.7
1099	2.000000	0.039383	7.37581e+06	-55089.1	1055.82	-29742.3	0.000000	0.000000	6.041075	12.6156	NaN	0.000000	0.001710	0.001751	28.0816	5.036922	0.001988	2533.17	5.897839	-166.55	12.6014	0.039062	0.027896	0.027575	12.6156	2533.17	0.024161	0.029508	427.539	13473.2
1099	2.000000	0.040416	7.37581e+06	-55089.1	1055.82	-29742.3	0.000000	0.000000	6.042137	13.3212	NaN	0.000000	0.001707	0.001734	28.0815	4.939771	0.001873	2637.66	5.846175	-168.289	13.1257	0.040073	0.028929	0.028586	13.3212	2637.66	0.025142	0.031274	425.954	13627.1
1099	2.000000	0.041425	7.37581e+06	-55089.1	1055.82	-29742.3	0.000000	0.000000	6.043122	12.741	NaN	0.000000	0.001709	0.001756	28.0821	5.577702	0.002046	2726.29	1.073949	-166.065	13.1706	0.041103	0.029938	0.029617	12.741	2726.29	0.026433	0.033674	378.361	13573.7
1099	2.000000	0.042404	7.37581e+06	-55089.1	1055.82	-29742.3	0.000000	0.000000	6.044124	13.2889	NaN	0.000000	0.001656	0.001707	28.0826	6.077973	0.002030	2994.32	-5.599207	-167.344	13.2289	0.042059	0.030917	0.030572	13.2889	2994.32	0.027589	0.035894	370.229	14439.8
1099	2.000000	0.043395	7.37581e+06	-55089.1	1055.82	-29742.3	0.000000	0.000000	6.045080	12.4301	NaN	0.000000	0.001687	0.001710	28.0831	6.171923	0.001921	3213.34	1.229955	-167.604	12.6284	0.043105	0.031908	0.031618	12.4301	3213.34	0.029007	0.038711	321.099	14921.4
1099	2.000000	0.044394	7.37581e+06	-55089.1	1055.82	-29742.3	0.000000	0.000000	6.046098	12.896	NaN	0.000000	0.001700	0.001701	28.0828	5.964498	0.002058	2898.18	6.499850	-169.152	12.4762	0.044094	0.032907	0.032607	12.896	2898.18	0.029570	0.039858	323.552	13263.1
1099	2.000000	0.045399	7.37581e+06	-55089.1	1055.82	-29742.3	0.000000	0.000000	6.047096	12.7384	NaN	0.000000	0.001713	0.001706	28.0828	6.843825	0.002083	3286.33	10.8776	-170.87	12.9634	0.045105	0.033912	0.033618	12.7384	3286.33	0.031005	0.042853	297.258	14504.2
1099	2.000000	0.046395	7.37581e+06	-55089.1	1055.82	-29742.3	0.000000	0.000000	6.048095	12.7917	NaN	0.000000	0.001671	0.001738	28.0828	5.936465	0.002037	2914.55	5.840303	-166.283	12.6774	0.046067	0.034909	0.034581	12.7917	2914.55	0.031617	0.044162	289.656	12671.3
1099	2.000000	0.047371	7.37581e+06	-55089.1	1055.82	-29742.3	0.000000	0.000000	6.049076	12.9235	NaN	0.000000	0.001697	0.001751	28.0828	5.713634	0.002104	2715.89	14.9058	-169.297	12.625	0.047100	0.035885	0.035613	12.9235	2715.89	0.032316	0.045681	282.91	11609.6
1099	2.000000	0.048391	7.37581e+06	-55089.1	1055.82	-29742.3	0.000000	0.000000	6.050099	12.9917	NaN	0.000000	0.001662	0.001712	28.0828	5.645996	0.002095	2695.45	15.5113	-167.821	13.3569	0.048122	0.036905	0.036636	12.9917	2695.45	0.033290	0.047839	271.572	11259.4
1099	2.000000	0.049388	7.37581e+06	-55089.1	1055.82	-29742.3	0.000000	0.000000	6.051116	13.5049	NaN	0.000000	0.001676	0.001713	28.0828	5.399330	0.001932	2795.23	8.646585	-170.64	13.1559	0.049110	0.037901	0.037624	13.5049	2795.23	0.034277	0.050077	269.684	11412.3
1099	2.000000	0.050402	7.37581e+06	-55089.1	1055.82	-29742.3	0.000000	0.000000	6.052136	13.6291	NaN	0.000000	0.001709	0.001697	28.0833	5.158694	0.002174	2373.42	6.499530	-167.807	13.6427	0.050097	0.038916	0.038611	13.6291	2373.42	0.034609	0.050839	268.085	9617.21
1099	2.000000	0.051407	7.37581e+06	-55089.1	1055.82	-29742.3	0.000000	0.000000	6.053109	12.8495	NaN	0.000000	0.001704	0.001710	28.0829	5.095677	0.002014	2529.92	0.057657	-168.661	13.5804	0.051096	0.039920	0.039610	12.8495	2529.92	0.036111	0.054364	236.358	9913.39
1099	2.000000	0.052384	7.37581e+06	-55089.1	1055.82	-29742.3	0.000000	0.000000	6.054086	12.8489	NaN	0.000000	0.001690	0.001740	28.0825	5.875165	0.001947	3017.73	3.258099	-172.651	13.0749	0.052137	0.040898	0.040651	12.8489	3017.73	0.037705	0.058231	220.656	11425.6
1099	2.000000	0.053363	7.37581e+06	-55089.1	1055.82	-29742.3	0.000000	0.000000	6.055082	13.2462	NaN	0.000000	0.001707	0.001750	28.0828	6.264530	0.001863	3362.3	6.310200	-170.299	13.029	0.053084	0.041877	0.041598	13.2462	3362.3	0.038922	0.061272	216.187	12410.2
1099	2.000000	0.054390	7.37581e+06	-55089.1	1055.82	-29742.3	0.000000	0.000000	6.056140	14.0168	NaN	0.000000	0.001697	0.001775	28.0827	6.101963	0.001946	3135.95	3.188849	-166.881	14.2137	0.054103	0.042903	0.042617	14.0168	3135.95	0.039551	0.062873	222.94	11426.4
1099	2.000000	0.055430	7.37581e+06	-55089.1	1055.82	-29742.3	0.000000	0.000000	6.057200	14.5106	NaN	0.000000	0.001679	0.001770	28.0829	5.895037	0.001953	3018.92	8.436562	-167.721	15.0643	0.055019	0.043943	0.043532	14.5106	3018.92	0.040338	0.064905	223.565	10826.4
1099	2.000000	0.056389	7.37581e+06	-55089.1	1055.82	-29742.3	0.000000	0.000000	6.058106	13.2193	NaN	0.000000	0.001670	0.001745	28.0827	6.096029	0.001930	3158.58	11.5002	-169.792	13.4684	0.056028	0.044902	0.044541	13.2193	3158.58	0.041763	0.068665	192.519	11012.8
1099	2.000000	0.057395	7.37581e+06	-55089.1	1055.82	-29742.3	0.000000	0.000000	6.059122	13.4688	NaN	0.000000	0.001662	0.001734	28.0826	6.338549	0.001941	3265.35	13.2431	-172.092	13.3738	0.057098	0.045908	0.045612	13.4688	3265.35	0.042815	0.071504	188.364	11156.7
1099	2.000000	0.058365	7.37581e+06	-55089.1	1055.82	-29742.3	0.000000	0.000000	6.060115	14.0082	NaN	0.000000	0.001643	0.001751	28.0827	5.503353	0.002061	2669.59	9.977244	-166.729	13.9136	0.058057	0.046878	0.046571	14.0082	2669.59	0.042943	0.071855	194.95	9098.91
1099	2.000000	0.059404	7.37581e+06	-55089.1	1055.82	-29742.3	0.000000	0.000000	6.061132	13.4813	NaN	0.000000	0.001650	0.001758	28.0827	5.580927	0.002105	2651.85	10.2423	-167.992	13.8132	0.059146	0.047918	0.047660	13.4813	2651.85	0.044105	0.075067	179.589	8842.95
1099	2.000000	0.060389	7.37581e+06	-55089.1	1055.82	-29742.3	0.000000	0.000000	6.062093	12.8877	NaN	0.000000	0.001652	0.001763	28.0834	5.771055	0.002162	2669.39	13.4043	-170.295	13.0294	0.060102	0.048902	0.048615	12.8877	2669.39	0.045281	0.078388	164.408	8710.82
1099	2.000000	0.061360	7.37581e+06	-55089.1	1055.82	-29742.3	0.000000	0.000000	6.063080	13.2971	NaN	0.000000	0.001653	0.001763	28.0826	5.851618	0.002073	2823.1	7.385746	-169.402	12.9932	0.061038	0.049873	0.049551	13.2971	2823.1	0.046341	0.081439	163.276	9038.2
1099	2.000000	0.062328	7.37581e+06	-55089.1	1055.82	-29742.3	0.000000	0.000000	6.064063	13.6326	NaN	0.000000	0.001688	0.001742	28.0826	6.161977	0.001925	3200.56	1.674615	-170.244	13.6754	0.062071	0.050842	0.050585	13.6326	3200.56	0.047647	0.085280	159.857	10013.3
1099	2.000000	0.063375	7.37581e+06	-55089.1	1055.82	-29742.3	0.000000	0.000000	6.065109	13.6232	NaN	0.000000	0.001664	0.001729	28.0827	5.805386	0.001878	3091.88	1.056801	-166.525	13.4825	0.063105	0.051889	0.051619	13.6232	3091.88	0.048584	0.088088	154.655	9517.84
1099	2.000000	0.064392	7.37581e+06	-55089.1	1055.82	-29742.3	0.000000	0.000000	6.066121	13.5172	NaN	0.000000	0.001660	0.001713	28.0826	5.836932	0.001899	3073.76	7.507557	-168.494	13.693	0.064030	0.052905	0.052543	13.5172	3073.76	0.049607	0.091203	148.21	9299.05
1099	2.000000	0.065406	7.37581e+06	-55089.1	1055.82	-29742.3	0.000000	0.000000	6.067117	13.0645	NaN	0.000000	0.001651	0.001746	28.083	6.312124	0.001844	3423.03	1.158855	-168.243	13.6178	0.065066	0.053919	0.053579	13.0645	3423.03	0.051057	0.095707	136.505	10109.1
1099	2.000000	0.066364	7.37581e+06	-55089.1	1055.82	-29742.3	0.000000	0.000000	6.068074	13.0399	NaN	0.000000	0.001664	0.001770	28.0825	6.579349	0.002078	3166.59	5.026090	-169.057	13.3331	0.066064	0.054877	0.054578	13.0399	3166.59	0.051789	0.098022	133.03	9240.66
1099	2.000000	0.067379	7.37581e+06	-55089.1	1055.82	-29742.3	0.000000	0.000000	6.069099	13.2873	NaN	0.000000	0.001693	0.001742	28.0826	6.404558	0.002116	3026.37	15.0536	-172.373	13.1251	0.067034	0.055892	0.055548	13.2873	3026.37	0.052600	0.100617	132.058	8716.86
1099	2.000000	0.068381	7.37581e+06	-55089.1	1055.82	-29742.3	0.000000	0.000000	6.070099	13.2594	NaN	0.000000	0.001693	0.001753	28.0825	6.537096	0.002124	3077.33	10.1987	-168.085	13.3105	0.068049	0.056894	0.056563	13.2594	3077.33	0.053662	0.104069	127.41	8715.4
1099	2.000000	0.069355	7.37581e+06	-55089.1	1055.82	-29742.3	0.000000	0.000000	6.071112	14.1786	NaN	0.000000	0.001675	0.001743	28.0826	6.000684	0.001969	3047.29	8.183709	-168.87	14.1465	0.069079	0.057869	0.057593	14.1786	3047.29	0.054379	0.106428	133.223	8534.13
1099	2.000000	0.070377	7.37581e+06	-55089.1	1055.82	-29742.3	0.000000	0.000000	6.072115	13.7223	NaN	0.000000	0.001702	0.001744	28.083	5.754890	0.001987	2896.82	8.550574	-168.548	13.9941	0.070077	0.058890	0.058591	13.7223	2896.82	0.055337	0.109622	125.178	7993.66
1099	2.000000	0.071386	7.37581e+06	-55089.1	1055.82	-29742.3	0.000000	0.000000	6.073145	14.2394	NaN	0.000000	0.001707	0.001725	28.0826	5.632646	0.001958	2877.05	5.491187	-167.897	14.3579	0.071044	0.059899	0.059557	14.2394	2877.05	0.056187	0.112492	126.581	7837.16
1099	2.000000	0.072374	7.37581e+06	-55089.1	1055.82	-29742.3	0.000000	0.000000	6.074124	14.016	NaN	0.000000	0.001710	0.001718	28.0825	6.493664	0.002031	3197.94	7.417826	-171.005	14.0653	0.072050	0.060888	0.060564	14.016	3197.94	0.057601	0.117345	119.443	8529.26
1099	2.000000	0.073345	7.37581e+06	-55089.1	1055.82	-29742.3	0.000000	0.000000	6.075091	13.9311	NaN	0.000000	0.001673	0.001738	28.0825	6.824873	0.001894	3604.15	4.287782	-167.778	13.6917	0.073076	0.061858	0.061590	13.9311	3604.15	0.058959	0.122103	114.093	9423.54
1099	2.000000	0.074394	7.37581e+06	-55089.1	1055.82	-29742.3	0.000000	0.000000	6.076139	13.9004	NaN	0.000000	0.001697	0.001743	28.0826	5.952354	0.001988	2994.53	6.079387	-169.616	14.2318	0.074074	0.062907	0.062588	13.9004	2994.53	0.059426	0.123758	112.319	7777.06
1099	2.000000	0.075341	7.37581e+06	-55089.1	1055.82	-29742.3	0.000000	0.000000	6.077072	13.5428	NaN	0.000000	0.001687	0.001774	28.0824	6.213208	0.002071	3000.19	11.1329	-168.422	13.8215	0.075058	0.063855	0.063572	13.5428	3000.19	0.060469	0.127496	106.222	7676.68
1099	2.000000	0.076378	7.37581e+06	-55089.1	1055.82	-29742.3	0.000000	0.000000	6.078133	14.1303	NaN	0.000000	0.001703	0.001729	28.0814	6.485086	0.001993	3254.28	12.3176	-172.808	13.6671	0.076042	0.064892	0.064555	14.1303	3254.28	0.061635	0.131737	107.261	8191.69
1099	2.000000	0.077372	7.37581e+06	-55089.1	1055.82	-29742.3	0.000000	0.000000	6.079108	13.6586	NaN	0.000000	0.001702	0.001723	28.0817	6.374108	0.002003	3182.44	8.661241	-169.636	13.983	0.077073	0.065886	0.065586	13.6586	3182.44	0.062667	0.135545	100.768	7897.53
1099	2.000000	0.078369	7.37581e+06	-55089.1	1055.82	-29742.3	0.000000	0.000000	6.080075	12.952	NaN	0.000000	0.001687	0.001703	28.0814	5.761598	0.001933	2980.95	8.586247	-171.135	13.1635	0.078082	0.066882	0.066595	12.952	2980.95	0.063623	0.139121	93.099	7301.83
1099	2.000000	0.079334	7.37581e+06	-55089.1	1055.82	-29742.3	0.000000	0.000000	6.081079	13.8956	NaN	0.000000	0.001652	0.001743	28.0815	5.541500	0.002044	2710.9	8.190387	-166.561	14.0336	0.079010	0.067848	0.067523	13.8956	2710.9	0.064004	0.140555	98.8625	6606.38
1099	2.000000	0.080350	7.37581e+06	-55089.1	1055.82	-29742.3	0.000000	0.000000	6.082116	14.4227	NaN	0.000000	0.001658	0.001722	28.0816	5.736731	0.001964	2920.77	9.322020	-171.658	13.9301	0.080036	0.068863	0.068550	14.4227	2920.77	0.065160	0.144958	99.4956	7008.91
1099	2.000000	0.081355	7.37581e+06	-55089.1	1055.82	-29742.3	0.000000	0.000000	6.083109	14.1231	NaN	0.000000	0.001653	0.001717	28.0814	6.120556	0.002034	3009.65	4.962648	-170.066	13.8284	0.081056	0.069868	0.069569	14.1231	3009.65	0.066349	0.149553	94.4358	7110.37
1099	2.000000	0.082362	7.37581e+06	-55089.1	1055.82	-29742.3	0.000000	0.000000	6.084123	14.2857	NaN	0.000000	0.001691	0.001732	28.0814	6.280116	0.002095	2997.55	4.308150	-167.303	14.5902	0.082019	0.070875	0.070532	14.2857	2997.55	0.067301	0.153283	93.1986	6995.09
1099	2.000000	0.083356	7.37581e+06	-55089.1	1055.82	-29742.3	0.000000	0.000000	6.085087	13.566	NaN	0.000000	0.001697	0.001722	28.0814	6.225050	0.002039	3053.59	11.6769	-171.787	13.8297	0.083073	0.071869	0.071586	13.566	3053.59	0.068537	0.158187	85.7587	7014.52
1099	2.000000	0.084360	7.37581e+06	-55089.1	1055.82	-29742.3	0.000000	0.000000	6.086132	14.5378	NaN	0.000000	0.001708	0.001696	28.0815	6.447776	0.002026	3181.89	9.232598	-173.471	14.784	0.084040	0.072874	0.072553	14.5378	3181.89	0.069447	0.161845	89.8251	7226.17
1099	2.000000	0.085331	7.37581e+06	-55089.1	1055.82	-29742.3	0.000000	0.000000	6.087071	13.7808	NaN	0.000000	0.001658	0.001732	28.0814	6.349739	0.002020	3144.14	7.228081	-168.494	13.4848	0.085048	0.073844	0.073562	13.7808	3144.14	0.070557	0.166361	82.8364	7042.85
1099	2.000000	0.086340	7.37581e+06	-55089.1	1055.82	-29742.3	0.000000	0.000000	6.088109	14.4819	NaN	0.000000	0.001670	0.001749	28.0816	5.812368	0.002051	2833.61	10.7176	-168.002	14.6564	0.086072	0.074854	0.074585	14.4819	2833.61	0.071021	0.168265	86.0658	6311.28
1099	2.000000	0.087369	7.37581e+06	-55089.1	1055.82	-29742.3	0.000000	0.000000	6.089113	13.861	NaN	0.000000	0.001672	0.001741	28.0817	6.013187	0.002032	2959.72	11.2044	-170.795	14.09	0.087090	0.075882	0.075603	13.861	2959.72	0.072370	0.173862	79.7239	6485.16
1099	2.000000	0.088339	7.37581e+06	-55089.1	1055.82	-29742.3	0.000000	0.000000	6.090084	13.8858	NaN	0.000000	0.001650	0.001728	28.0813	6.664947	0.002121	3142.48	14.5168	-171.295	14.0102	0.088035	0.076852	0.076548	13.8858	3142.48	0.073538	0.178779	77.6704	6790.29
1099	2.000000	0.089364	7.37581e+06	-55089.1	1055.82	-29742.3	0.000000	0.000000	6.091095	13.5777	NaN	0.000000	0.001665	0.001761	28.0814	6.202311	0.001880	3299.5	10.2168	-171.415	13.3813	0.089056	0.077877	0.077570	13.5777	3299.5	0.074791	0.184120	73.7438	7025.4
1099	2.000000	0.090328	7.37581e+06	-55089.1	1055.82	-29742.3	0.000000	0.000000	6.092093	14.389	NaN	0.000000	0.001644	0.001792	28.0816	6.371491	0.001907	3340.7	3.546834	-168.028	14.5657	0.089994	0.078841	0.078508	14.389	3340.7	0.075611	0.187658	76.6768	7045.75
1099	2.000000	0.091352	7.37581e+06	-55089.1	1055.82	-29742.3	0.000000	0.000000	6.093093	13.7939	NaN	0.000000	0.001661	0.001814	28.0817	6.467751	0.001955	3308.98	7.388472	-167.442	13.9423	0.091064	0.079866	0.079578	13.7939	3308.98	0.076739	0.192578	71.6275	6889.12
1099	2.000000	0.092380	7.37581e+06	-55089.1	1055.82	-29742.3	0.000000	0.000000	6.094123	13.8437	NaN	0.000000	0.001663	0.001798	28.0814	6.608998	0.002064	3201.61	9.470548	-168.727	13.9678	0.092025	0.080893	0.080539	13.8437	3201.61	0.077650	0.196593	70.4183	6597.17
1099	2.000000	0.093350	7.37581e+06	-55089.1	1055.82	-29742.3	0.000000	0.000000	6.095136	14.8814	NaN	0.000000	0.001660	0.001805	28.0818	6.041731	0.002013	3000.83	10.4432	-171.295	14.7113	0.093053	0.081864	0.081566	14.8814	3000.83	0.078144	0.198787	74.8608	6149.22
1099	2.000000	0.094353	7.37581e+06	-55089.1	1055.82	-29742.3	0.000000	0.000000	6.096130	14.685	NaN	0.000000	0.001679	0.001750	28.0817	5.933461	0.001955	3034.67	8.159601	-167.292	14.8656	0.094031	0.082866	0.082544	14.685	3034.67	0.079237	0.203679	72.0989	6143.44
1099	2.000000	0.095367	7.37581e+06	-55089.1	1055.82	-29742.3	0.000000	0.000000	6.097134	14.4348	NaN	0.000000	0.001642	0.001782	28.0814	6.109982	0.002015	3032.59	10.7806	-168.073	14.3842	0.095073	0.083880	0.083586	14.4348	3032.59	0.080311	0.208540	69.2185	6067.26
1099	2.000000	0.096355	7.37581e+06	-55089.1	1055.82	-29742.3	0.000000	0.000000	6.098122	14.4255	NaN	0.000000	0.001714	0.001748	28.0816	6.353004	0.002031	3128.79	10.9726	-169.523	14.6543	0.096024	0.084868	0.084537	14.4255	3128.79	0.081410	0.213576	67.5428	6185.48
1099	2.000000	0.097347	7.37581e+06	-55089.1	1055.82	-29742.3	0.000000	0.000000	6.099154	15.4112	NaN	0.000000	0.001667	0.001772	28.0816	6.164096	0.001917	3216.01	4.831374	-168.881	15.3532	0.096993	0.085860	0.085506	15.4112	3216.01	0.082266	0.217533	70.8451	6299.81
1099	2.000000	0.098357	7.37581e+06	-55089.1	1055.82	-29742.3	0.000000	0.000000	6.100155	15.1773	NaN	0.000000	0.001686	0.001761	28.0816	6.070813	0.002087	2908.18	8.993783	-170.343	15.4365	0.098024	0.086871	0.086538	15.1773	2908.18	0.082957	0.220750	68.7532	5655.15
1099	2.000000	0.099342	7.37581e+06	-55089.1	1055.82	-29742.3	0.000000	0.000000	6.101139	15.1456	NaN	0.000000	0.001648	0.001766	28.0813	6.394085	0.002074	3082.96	1.890447	-165.95	15.1149	0.099019	0.087856	0.087532	15.1456	3082.96	0.084171	0.226463	66.8786	5918.91
1099	2.000000	0.100345	7.37581e+06	-55089.1	1055.82	-29742.3	0.000000	0.000000	6.102135	14.967	NaN	0.000000	0.001658	0.001751	28.0814	7.074583	0.002030	3485.35	2.550512	-166.972	15.2448	0.100065	0.088859	0.088579	14.967	3485.35	0.085638	0.233456	64.1109	6590.49
1099	2.000000	0.101358	7.37581e+06	-55089.1	1055.82	-29742.3	0.000000	0.000000	6.103119	14.2909	NaN	0.000000	0.001665	0.001738	28.0816	6.797790	0.002041	3331.34	8.303677	-166.401	15.1099	0.101058	0.089872	0.089571	14.2909	3331.34	0.086654	0.238356	59.9563	6234.17
1099	2.000000	0.102312	7.37581e+06	-55089.1	1055.82	-29742.3	0.000000	0.000000	6.104104	15.0275	NaN	0.000000	0.001678	0.001759	28.0814	6.048199	0.001955	3093.44	12.1319	-166.777	14.3183	0.101991	0.090826	0.090504	15.0275	3093.44	0.087182	0.240922	62.3748	5758.06
1099	2.000000	0.103344	7.37581e+06	-55089.1	1055.82	-29742.3	0.000000	0.000000	6.105160	15.623	NaN	0.000000	0.001697	0.001718	28.0815	5.926005	0.001981	2991.94	14.4898	-170.555	15.2816	0.103009	0.091858	0.091523	15.623	2991.94	0.087941	0.244633	63.863	5526.73
1099	2.000000	0.104324	7.37581e+06	-55089.1	1055.82	-29742.3	0.000000	0.000000	6.106101	14.6661	NaN	0.000000	0.001720	0.001754	28.0816	6.216135	0.002048	3034.58	2.967645	-167.365	14.915	0.104110	0.092837	0.092623	14.6661	3034.58	0.089213	0.250907	58.4525	5534.97
1099	2.000000	0.105355	7.37581e+06	-55089.1	1055.82	-29742.3	0.000000	0.000000	6.107116	14.2947	NaN	0.000000	0.001696	0.001738	28.0815	6.388792	0.001961	3257.51	3.775085	-171.047	14.7265	0.105011	0.093868	0.093525	14.2947	3257.51	0.090577	0.257723	55.4652	5862.48