File: remote_trans/data/nanoindenter/0828-1/data/Data_2025-08-06,11h17m57s/2025-07-22_16-23-58_1_565.txt
2025-07-22, 16:23:58, 1
Index	Phase	Displacement	Time	Pos X	Pos Y	Pos Z	Rot A	Rot B	Piezo Z	Force A	Force B	Gripper	Voltage A	Voltage B	Temperature	Amplitude force	Amplitude pos	Stiffness	Phase shift	Phase excitation	Force A raw	Displacement raw	HMax	HMax raw	Real Force	Real Stiffness	Contact Depth	Area	Hardness	Reduced Mod.
[#]	[#]	[um]	[s]	[um]	[um]	[um]	[m°]	[m°]	[um]	[uN]	[uN]	[V]	[V]	[V]	[°C]	[uN]	[um]	[N/m]	[°]	[°]	[uN]	[um]	[um]	[um]	[uN]	[N/m]	[um]	[um^2]	[MPa]	[MPa]
565	1.000000	0.003006	7.37057e+06	-48839.1	1005.82	-29761	0.000000	0.000000	6.002806	-0.040609	NaN	0.000000	0.001570	0.001707	28.0826	0.039856	0.001069	37.2963	91.1518	-167.835	-0.047755	0.001754	-1.106167	-1.107420	-0.040609	37.2963	-1.105351	-5.914124E+14	6.866524E-17	NaN
565	1.000000	0.013045	7.37057e+06	-48839.1	1005.82	-29761	0.000000	0.000000	6.012844	-0.042587	NaN	0.000000	0.001555	0.001727	28.0828	0.042337	0.001191	35.5446	142.282	15.8258	-0.047385	0.011636	-1.096129	-1.097538	-0.042587	35.5446	-1.095230	-4.325512E+14	9.845477E-17	NaN
565	1.000000	0.022960	7.37057e+06	-48839.1	1005.82	-29761	0.000000	0.000000	6.022760	-0.040502	NaN	0.000000	0.001565	0.001702	28.0825	0.077840	0.001701	45.7652	-108.48	-168.09	0.011615	0.021629	-1.086213	-1.087544	-0.040502	45.7652	-1.085549	-3.206624E+14	1.263080E-16	NaN
565	1.000000	0.032912	7.37057e+06	-48839.1	1005.82	-29761	0.000000	0.000000	6.032715	0.028472	NaN	0.000000	0.001555	0.001716	28.0826	0.043696	0.001960	22.2945	154.911	13.3103	0.028056	0.031598	-1.076261	-1.077575	0.028472	22.2945	-1.077219	-2.478358E+14	-1.148822E-16	NaN
565	1.000000	0.042952	7.37057e+06	-48839.1	1005.82	-29761	0.000000	0.000000	6.042754	0.004830	NaN	0.000000	0.001586	0.001723	28.0828	0.081310	0.002004	40.574	-41.8472	-165.615	-0.031151	0.041671	-1.066221	-1.067502	0.004830	40.574	-1.066311	-1.768567E+14	-2.730984E-17	NaN
565	1.000000	0.052974	7.37057e+06	-48839.1	1005.82	-29761	0.000000	0.000000	6.052773	-0.066273	NaN	0.000000	0.001612	0.001695	28.0826	0.094162	0.002020	46.618	144.67	13.3082	-0.059888	0.051599	-1.056199	-1.057575	-0.066273	46.618	-1.055133	-1.251436E+14	5.295756E-16	NaN
565	1.000000	0.062927	7.37057e+06	-48839.1	1005.82	-29761	0.000000	0.000000	6.062727	-0.025231	NaN	0.000000	0.001655	0.001681	28.0827	0.091442	0.001870	48.9041	128.322	-169.197	-0.110574	0.061646	-1.046247	-1.047527	-0.025231	48.9041	-1.045860	-9.391958E+13	2.686472E-16	NaN
565	1.000000	0.072942	7.37057e+06	-48839.1	1005.82	-29761	0.000000	0.000000	6.072743	-0.002295	NaN	0.000000	0.001646	0.001673	28.0827	0.103699	0.002121	48.8839	90.2163	17.5505	-0.049085	0.071601	-1.036232	-1.037573	-0.002295	48.8839	-1.036196	-6.963360E+13	3.296319E-17	NaN
565	1.000000	0.082977	7.37057e+06	-48839.1	1005.82	-29761	0.000000	0.000000	6.082777	-0.047913	NaN	0.000000	0.001632	0.001675	28.0819	0.036665	0.001936	18.943	169.885	-169.237	-0.067719	0.081617	-1.026196	-1.027556	-0.047913	18.943	-1.024299	-4.817213E+13	9.946192E-16	NaN
565	1.000000	0.092993	7.37057e+06	-48839.1	1005.82	-29761	0.000000	0.000000	6.092793	-0.021747	NaN	0.000000	0.001613	0.001719	28.0816	0.102188	0.001944	52.5675	117.817	13.6809	0.037136	0.091624	-1.016181	-1.017550	-0.021747	52.5675	-1.015871	-3.710132E+13	5.861421E-16	NaN
565	1.000000	0.102975	7.37057e+06	-48839.1	1005.82	-29761	0.000000	0.000000	6.102776	-0.000285	NaN	0.000000	0.001618	0.001729	28.0813	0.055519	0.002009	27.6327	23.3489	-166.826	0.031153	0.101614	-1.006199	-1.007560	-0.000285	27.6327	-1.006191	-2.748616E+13	1.037218E-17	NaN
565	1.000000	0.113000	7.37057e+06	-48839.1	1005.82	-29761	0.000000	0.000000	6.112804	0.061201	NaN	0.000000	0.001590	0.001737	28.0815	0.123274	0.002046	60.2624	87.9768	12.0634	0.055659	0.111610	-0.996174	-0.997563	0.061201	60.2624	-0.996935	-2.063025E+13	-2.966586E-15	NaN
565	1.000000	0.122972	7.37057e+06	-48839.1	1005.82	-29761	0.000000	0.000000	6.122772	-0.037720	NaN	0.000000	0.001600	0.001706	28.0812	0.124483	0.002059	60.4585	-37.2665	-166.343	-0.031376	0.121730	-0.986201	-0.987444	-0.037720	60.4585	-0.985733	-1.457617E+13	2.587809E-15	NaN
565	1.000000	0.132968	7.37057e+06	-48839.1	1005.82	-29761	0.000000	0.000000	6.132771	0.028600	NaN	0.000000	0.001599	0.001719	28.0813	0.075710	0.001955	38.7171	124.289	12.7085	0.032598	0.131591	-0.976205	-0.977583	0.028600	38.7171	-0.976759	-1.103428E+13	-2.591877E-15	NaN
565	1.000000	0.142991	7.37057e+06	-48839.1	1005.82	-29761	0.000000	0.000000	6.142787	-0.126684	NaN	0.000000	0.001588	0.001718	28.0811	0.136198	0.002076	65.5927	33.8744	-166.529	-0.074963	0.141672	-0.966183	-0.967502	-0.126684	65.5927	-0.964734	-7.597825E+12	1.667371E-14	NaN
565	1.000000	0.152988	7.37057e+06	-48839.1	1005.82	-29761	0.000000	0.000000	6.152791	0.012059	NaN	0.000000	0.001598	0.001687	28.0813	0.171100	0.002017	84.8429	-115.269	16.0937	0.022173	0.151639	-0.956185	-0.957535	0.012059	84.8429	-0.956292	-5.846180E+12	-2.062770E-15	NaN
565	1.000000	0.162973	7.37057e+06	-48839.1	1005.82	-29761	0.000000	0.000000	6.162776	0.025262	NaN	0.000000	0.001561	0.001691	28.081	0.022972	0.002007	11.4431	-147.06	-164.706	0.030091	0.161703	-0.946200	-0.947471	0.025262	11.4431	-0.947856	-4.498977E+12	-5.615144E-15	NaN
565	1.000000	0.173011	7.37057e+06	-48839.1	1005.82	-29761	0.000000	0.000000	6.172818	0.131485	NaN	0.000000	0.001590	0.001715	28.0812	0.028480	0.001953	14.5837	46.0684	15.4965	0.093093	0.171617	-0.936163	-0.937557	0.131485	14.5837	-0.942925	-3.860072E+12	-3.406280E-14	NaN
565	1.000000	0.183017	7.37058e+06	-48839.1	1005.82	-29761	0.000000	0.000000	6.182817	-0.026055	NaN	0.000000	0.001582	0.001705	28.0812	0.092351	0.001932	47.8026	173.424	-165.287	0.041213	0.181715	-0.926157	-0.927458	-0.026055	47.8026	-0.925748	-2.263619E+12	1.151044E-14	NaN
565	1.000000	0.193027	7.37058e+06	-48839.1	1005.82	-29761	0.000000	0.000000	6.192829	0.012895	NaN	0.000000	0.001608	0.001649	28.0813	0.101163	0.001893	53.4399	-131.534	13.3664	0.014519	0.191694	-0.916146	-0.917480	0.012895	53.4399	-0.916327	-1.688951E+12	-7.635155E-15	NaN
565	1.000000	0.203013	7.37058e+06	-48839.1	1005.82	-29761	0.000000	0.000000	6.202815	-0.007456	NaN	0.000000	0.001606	0.001659	28.0814	0.111443	0.002129	52.3548	-50.7188	-167.302	0.008296	0.201712	-0.906160	-0.907461	-0.007456	52.3548	-0.906054	-1.227028E+12	6.076463E-15	NaN
565	1.000000	0.213011	7.37058e+06	-48839.1	1005.82	-29761	0.000000	0.000000	6.212809	-0.084962	NaN	0.000000	0.001609	0.001723	28.0813	0.124901	0.002119	58.931	120.064	10.9797	-0.086238	0.211626	-0.896163	-0.897547	-0.084962	58.931	-0.895081	-8.721595E+11	9.741583E-14	NaN
565	1.000000	0.223040	7.37058e+06	-48839.1	1005.82	-29761	0.000000	0.000000	6.222842	0.013818	NaN	0.000000	0.001610	0.001682	28.0825	0.045739	0.002171	21.0674	-155.816	-168.602	-0.001213	0.221697	-0.886134	-0.887476	0.013818	21.0674	-0.886626	-6.703466E+11	-2.061249E-14	NaN
565	1.000000	0.233027	7.37058e+06	-48839.1	1005.82	-29761	0.000000	0.000000	6.232825	-0.087249	NaN	0.000000	0.001606	0.001654	28.0829	0.034539	0.001919	17.9968	-36.2791	14.1261	0.030865	0.231666	-0.876146	-0.877507	-0.087249	17.9968	-0.872510	-4.319194E+11	2.020034E-13	NaN
565	1.000000	0.243006	7.37058e+06	-48839.1	1005.82	-29761	0.000000	0.000000	6.242810	0.059871	NaN	0.000000	0.001612	0.001713	28.0826	0.069957	0.001979	35.3574	-161.424	-166.811	-0.035375	0.241717	-0.866168	-0.867457	0.059871	35.3574	-0.867438	-3.687864E+11	-1.623457E-13	NaN
565	1.000000	0.253037	7.37058e+06	-48839.1	1005.82	-29761	0.000000	0.000000	6.252834	-0.113144	NaN	0.000000	0.001597	0.001703	28.0827	0.053268	0.002162	24.6352	-21.9107	12.4619	-0.073172	0.251639	-0.856136	-0.857535	-0.113144	24.6352	-0.852692	-2.329093E+11	4.857843E-13	NaN
565	1.000000	0.263023	7.37058e+06	-48839.1	1005.82	-29761	0.000000	0.000000	6.262826	0.037022	NaN	0.000000	0.001601	0.001694	28.083	0.087814	0.002007	43.762	3.567047	-166.076	-0.051780	0.261744	-0.846150	-0.847430	0.037022	43.762	-0.846785	-1.937301E+11	-1.911010E-13	NaN
565	1.000000	0.273040	7.37058e+06	-48839.1	1005.82	-29761	0.000000	0.000000	6.272843	0.024102	NaN	0.000000	0.001639	0.001673	28.0829	0.017312	0.001895	9.135504	71.9983	13.4846	-0.073833	0.271635	-0.836133	-0.837538	0.024102	9.135504	-0.838112	-1.478133E+11	-1.630599E-13	NaN
565	1.000000	0.283030	7.37058e+06	-48839.1	1005.82	-29761	0.000000	0.000000	6.282830	-0.045233	NaN	0.000000	0.001604	0.001706	28.0826	0.054652	0.002081	26.2624	117.069	-165.496	-0.061470	0.281737	-0.826143	-0.827437	-0.045233	26.2624	-0.824851	-9.772163E+10	4.628724E-13	NaN
565	1.000000	0.293027	7.37058e+06	-48839.1	1005.82	-29761	0.000000	0.000000	6.292830	0.024109	NaN	0.000000	0.001551	0.001726	28.0826	0.036629	0.002008	18.2452	149.628	11.8032	-0.010630	0.291671	-0.816146	-0.817502	0.024109	18.2452	-0.817137	-7.680525E+10	-3.138957E-13	NaN
565	1.000000	0.303035	7.37058e+06	-48839.1	1005.82	-29761	0.000000	0.000000	6.302837	0.014947	NaN	0.000000	0.001527	0.001658	28.0828	0.147234	0.002018	72.9652	-132.968	-166.152	-0.025664	0.301697	-0.806138	-0.807477	0.014947	72.9652	-0.806292	-5.473416E+10	-2.730925E-13	NaN
565	1.000000	0.313073	7.37058e+06	-48839.1	1005.82	-29761	0.000000	0.000000	6.312873	-0.045060	NaN	0.000000	0.001557	0.001680	28.0827	0.024069	0.001970	12.2177	10.0595	12.4217	0.022727	0.311714	-0.796100	-0.797459	-0.045060	12.2177	-0.793334	-3.650611E+10	1.234310E-12	NaN
565	1.000000	0.323080	7.37058e+06	-48839.1	1005.82	-29761	0.000000	0.000000	6.322881	-0.004744	NaN	0.000000	0.001559	0.001661	28.0827	0.022321	0.002165	10.3109	179.972	-168.809	-0.026938	0.321758	-0.786094	-0.787415	-0.004744	10.3109	-0.785749	-2.879643E+10	1.647582E-13	NaN
565	1.000000	0.333046	7.37058e+06	-48839.1	1005.82	-29761	0.000000	0.000000	6.332847	-0.017030	NaN	0.000000	0.001577	0.001663	28.0826	0.171048	0.002088	81.9037	-91.9474	15.5345	-0.067866	0.331743	-0.776128	-0.777430	-0.017030	81.9037	-0.775972	-2.120745E+10	8.030121E-13	NaN
565	1.000000	0.343080	7.37058e+06	-48839.1	1005.82	-29761	0.000000	0.000000	6.342884	0.045992	NaN	0.000000	0.001574	0.001679	28.0829	0.041238	0.001964	20.992	-94.4275	-164.42	0.040544	0.341763	-0.766093	-0.767410	0.045992	20.992	-0.767736	-1.638803E+10	-2.806461E-12	NaN
565	1.000000	0.353072	7.37058e+06	-48839.1	1005.82	-29761	0.000000	0.000000	6.352874	-0.009920	NaN	0.000000	0.001571	0.001642	28.0825	0.025304	0.001980	12.781	-135.091	12.9936	0.035411	0.351733	-0.756101	-0.757441	-0.009920	12.781	-0.755519	-1.117721E+10	8.874853E-13	NaN
565	1.000000	0.363058	7.37058e+06	-48839.1	1005.82	-29761	0.000000	0.000000	6.362859	0.003942	NaN	0.000000	0.001558	0.001642	28.0816	0.019064	0.002232	8.540249	-140.342	-164.606	-0.013000	0.361770	-0.746116	-0.747404	0.003942	8.540249	-0.746462	-8.415041E+9	-4.683966E-13	NaN
565	1.000000	0.373053	7.37058e+06	-48839.1	1005.82	-29761	0.000000	0.000000	6.372853	-0.019911	NaN	0.000000	0.001557	0.001647	28.0813	0.083317	0.002008	41.4868	154.552	15.4147	-0.117917	0.371734	-0.736121	-0.737440	-0.019911	41.4868	-0.735761	-6.016044E+9	3.309643E-12	NaN
565	1.000000	0.383094	7.37058e+06	-48839.1	1005.82	-29761	0.000000	0.000000	6.382895	-0.021205	NaN	0.000000	0.001539	0.001723	28.0817	0.049997	0.001932	25.8768	-64.8082	-165.26	-0.009008	0.381771	-0.726079	-0.727403	-0.021205	25.8768	-0.725465	-4.354970E+9	4.869212E-12	NaN
565	1.000000	0.393081	7.37058e+06	-48839.1	1005.82	-29761	0.000000	0.000000	6.392881	-0.032022	NaN	0.000000	0.001540	0.001725	28.0813	0.076406	0.002134	35.7965	119.768	13.0544	0.008819	0.391722	-0.716092	-0.717451	-0.032022	35.7965	-0.715422	-3.177039E+9	1.007917E-11	NaN
565	1.000000	0.403103	7.37058e+06	-48839.1	1005.82	-29761	0.000000	0.000000	6.402906	0.052896	NaN	0.000000	0.001569	0.001680	28.0814	0.025939	0.002017	12.8594	97.2446	-166.107	0.023249	0.401841	-0.706071	-0.707332	0.052896	12.8594	-0.709156	-2.609331E+9	-2.027175E-11	NaN
565	1.000000	0.413085	7.37058e+06	-48839.1	1005.82	-29761	0.000000	0.000000	6.412890	0.074432	NaN	0.000000	0.001555	0.001694	28.0813	0.069097	0.002033	33.9795	-11.7271	10.1549	-0.029450	0.411768	-0.696088	-0.697405	0.074432	33.9795	-0.697731	-1.821991E+9	-4.085183E-11	NaN
565	1.000000	0.423113	7.37058e+06	-48839.1	1005.82	-29761	0.000000	0.000000	6.422918	0.074864	NaN	0.000000	0.001556	0.001685	28.0816	0.007905	0.002018	3.917014	47.4162	-167.682	-0.000912	0.421775	-0.686061	-0.687398	0.074864	3.917014	-0.700395	-1.981192E+9	-3.778740E-11	NaN
565	1.000000	0.433100	7.37058e+06	-48839.1	1005.82	-29761	0.000000	0.000000	6.432903	0.015725	NaN	0.000000	0.001581	0.001678	28.0814	0.060730	0.002057	29.5177	95.8282	11.8014	-0.043351	0.431728	-0.676073	-0.677446	0.015725	29.5177	-0.676473	-9.331672E+8	-1.685082E-11	NaN
565	1.000000	0.443106	7.37058e+06	-48839.1	1005.82	-29761	0.000000	0.000000	6.442908	0.000388	NaN	0.000000	0.001558	0.001645	28.0815	0.072032	0.002039	35.3192	-6.455462	-165.758	-0.024304	0.441805	-0.666067	-0.667369	0.000388	35.3192	-0.666076	-6.724658E+8	-5.765289E-13	NaN
565	1.000000	0.453132	7.37058e+06	-48839.1	1005.82	-29761	0.000000	0.000000	6.452934	0.009701	NaN	0.000000	0.001563	0.001666	28.0814	0.048884	0.001966	24.8636	-36.5653	13.0221	0.022289	0.451783	-0.656042	-0.657391	0.009701	24.8636	-0.656334	-4.945952E+8	-1.961474E-11	NaN
565	1.000000	0.463146	7.37058e+06	-48839.1	1005.82	-29761	0.000000	0.000000	6.462948	-0.002267	NaN	0.000000	0.001580	0.001662	28.0821	0.103716	0.002020	51.3533	162.432	-165.053	0.078536	0.461893	-0.646027	-0.647281	-0.002267	51.3533	-0.645994	-3.568685E+8	6.353776E-12	NaN
565	1.000000	0.473106	7.37058e+06	-48839.1	1005.82	-29761	0.000000	0.000000	6.472908	0.009251	NaN	0.000000	0.001550	0.001691	28.0811	0.055260	0.001911	28.924	-55.9434	14.4312	-0.026440	0.471828	-0.636068	-0.637345	0.009251	28.924	-0.636307	-2.627952E+8	-3.520251E-11	NaN
565	1.000000	0.483153	7.37058e+06	-48839.1	1005.82	-29761	0.000000	0.000000	6.482952	-0.068487	NaN	0.000000	0.001570	0.001671	28.0814	0.154827	0.002020	76.6535	151.729	-167.157	-0.053390	0.481766	-0.626021	-0.627408	-0.068487	76.6535	-0.625350	-1.858486E+8	3.685080E-10	NaN
565	1.000000	0.493135	7.37058e+06	-48839.1	1005.82	-29761	0.000000	0.000000	6.492937	0.004954	NaN	0.000000	0.001578	0.001667	28.0823	0.035356	0.001971	17.9336	-51.2597	11.5421	0.091650	0.491786	-0.616039	-0.617387	0.004954	17.9336	-0.616246	-1.393227E+8	-3.556083E-11	NaN
565	1.000000	0.503129	7.37058e+06	-48839.1	1005.82	-29761	0.000000	0.000000	6.502930	-0.019670	NaN	0.000000	0.001579	0.001667	28.0828	0.030109	0.002033	14.8129	-32.9139	-168.724	-0.123281	0.501865	-0.606045	-0.607309	-0.019670	14.8129	-0.605049	-9.771813E+7	2.012979E-10	NaN
565	1.000000	0.513114	7.37058e+06	-48839.1	1005.82	-29761	0.000000	0.000000	6.512919	0.088912	NaN	0.000000	0.001547	0.001659	28.0826	0.094719	0.002095	45.2024	-109.085	12.1927	0.078057	0.511786	-0.596059	-0.597388	0.088912	45.2024	-0.597535	-7.700204E+7	-1.154666E-9	NaN
565	1.000000	0.523153	7.37058e+06	-48839.1	1005.82	-29761	0.000000	0.000000	6.522956	0.019322	NaN	0.000000	0.001565	0.001681	28.0828	0.032885	0.001985	16.5679	49.7376	-166.053	0.089310	0.521836	-0.586020	-0.587337	0.019322	16.5679	-0.586895	-5.493539E+7	-3.517270E-10	NaN
565	1.000000	0.533119	7.37058e+06	-48839.1	1005.82	-29761	0.000000	0.000000	6.532923	0.053674	NaN	0.000000	0.001592	0.001681	28.083	0.043696	0.001860	23.4924	-47.0761	13.1489	0.035214	0.531771	-0.576054	-0.577402	0.053674	23.4924	-0.577768	-4.110681E+7	-1.305722E-9	NaN
565	1.000000	0.543147	7.37058e+06	-48839.1	1005.82	-29761	0.000000	0.000000	6.542951	0.057494	NaN	0.000000	0.001542	0.001677	28.0827	0.065614	0.002017	32.5233	-73.3766	-165.137	0.068715	0.541787	-0.566027	-0.567387	0.057494	32.5233	-0.567353	-2.951535E+7	-1.947944E-9	NaN
565	1.000000	0.553188	7.37058e+06	-48839.1	1005.82	-29761	0.000000	0.000000	6.552993	0.083152	NaN	0.000000	0.001530	0.001662	28.0828	0.100832	0.002014	50.0702	101.107	10.3787	0.043033	0.551784	-0.555986	-0.557389	0.083152	50.0702	-0.557231	-2.138298E+7	-3.888697E-9	NaN
565	1.000000	0.563166	7.37058e+06	-48839.1	1005.82	-29761	0.000000	0.000000	6.562966	-0.032950	NaN	0.000000	0.001572	0.001655	28.0828	0.014747	0.001882	7.835936	164.394	-167.391	-0.052714	0.561827	-0.546008	-0.547346	-0.032950	7.835936	-0.542854	-1.351855E+7	2.437390E-9	NaN
565	1.000000	0.573202	7.37058e+06	-48839.1	1005.82	-29761	0.000000	0.000000	6.573003	-0.011612	NaN	0.000000	0.001522	0.001710	28.083	0.030971	0.001981	15.6309	-25.6677	12.0682	0.011795	0.571845	-0.535971	-0.537328	-0.011612	15.6309	-0.535414	-1.065955E+7	1.089360E-9	NaN
565	1.000000	0.583161	7.37058e+06	-48839.1	1005.82	-29761	0.000000	0.000000	6.582960	-0.056311	NaN	0.000000	0.001541	0.001704	28.0827	0.049348	0.002106	23.4367	-81.1439	-165.075	0.010733	0.581894	-0.526012	-0.527280	-0.056311	23.4367	-0.524210	-7.44967e+06	7.558865E-9	NaN
565	1.000000	0.593195	7.37058e+06	-48839.1	1005.82	-29761	0.000000	0.000000	6.592997	0.030254	NaN	0.000000	0.001563	0.001675	28.0827	0.084256	0.001971	42.7387	51.0133	11.3188	0.009940	0.591802	-0.515979	-0.517372	0.030254	42.7387	-0.516510	-5.82163e+06	-5.196796E-9	NaN
565	1.000000	0.603137	7.37058e+06	-48839.1	1005.82	-29761	0.000000	0.000000	6.602938	-0.015965	NaN	0.000000	0.001567	0.001678	28.0829	0.078969	0.001831	43.1399	114.339	-164.185	0.024806	0.601868	-0.506037	-0.507306	-0.015965	43.1399	-0.505759	-4.12408e+06	3.871251E-9	NaN
565	1.000000	0.613172	7.37058e+06	-48839.1	1005.82	-29761	0.000000	0.000000	6.612973	-0.032018	NaN	0.000000	0.001570	0.001713	28.0829	0.127675	0.001993	64.0753	-147.947	15.8316	-0.005998	0.611808	-0.496001	-0.497365	-0.032018	64.0753	-0.495626	-2.97838e+06	1.075001E-8	NaN
565	1.000000	0.623159	7.37058e+06	-48839.1	1005.82	-29761	0.000000	0.000000	6.622962	0.026582	NaN	0.000000	0.001565	0.001670	28.0827	0.074701	0.002123	35.1873	-31.0431	-165.686	-0.024019	0.621895	-0.486014	-0.487279	0.026582	35.1873	-0.486581	-2.22636e+06	-1.193944E-8	NaN
565	1.000000	0.633199	7.37058e+06	-48839.1	1005.82	-29761	0.000000	0.000000	6.633002	0.029163	NaN	0.000000	0.001574	0.001696	28.0814	0.084193	0.002148	39.1906	15.6896	14.2005	0.023382	0.631856	-0.475975	-0.477318	0.029163	39.1906	-0.476533	-1.61056e+06	-1.810739E-8	NaN
565	1.000000	0.643192	7.37058e+06	-48839.1	1005.82	-29761	0.000000	0.000000	6.642992	-0.038393	NaN	0.000000	0.001553	0.001721	28.0816	0.071468	0.001934	36.9598	-33.8279	-167.186	-0.051100	0.641863	-0.465982	-0.467310	-0.038393	36.9598	-0.465203	-1.1171e+06	3.436796E-8	NaN
565	1.000000	0.653203	7.37058e+06	-48839.1	1005.82	-29761	0.000000	0.000000	6.653002	-0.045813	NaN	0.000000	0.001556	0.001677	28.0813	0.036895	0.002033	18.1484	154.061	16.6039	-0.021317	0.651863	-0.455971	-0.457311	-0.045813	18.1484	-0.454078	-779365	5.878311E-8	NaN
565	1.000000	0.663165	7.37058e+06	-48839.1	1005.82	-29761	0.000000	0.000000	6.662969	0.058161	NaN	0.000000	0.001539	0.001680	28.0814	0.051784	0.002105	24.6023	156.549	-168.85	0.083262	0.661879	-0.446009	-0.447294	0.058161	24.6023	-0.447782	-635474	-9.152369E-8	NaN
565	1.000000	0.673215	7.37058e+06	-48839.1	1005.82	-29761	0.000000	0.000000	6.673019	0.057373	NaN	0.000000	0.001528	0.001709	28.0815	0.097701	0.001963	49.7736	160.106	15.4801	0.015895	0.671863	-0.435958	-0.437310	0.057373	49.7736	-0.436823	-445152	-1.288847E-7	NaN
565	1.000000	0.683222	7.37058e+06	-48839.1	1005.82	-29761	0.000000	0.000000	6.683025	0.031584	NaN	0.000000	0.001550	0.001718	28.0816	0.014148	0.001880	7.527370	17.7797	-167.386	-0.027873	0.681876	-0.425951	-0.427298	0.031584	7.527370	-0.429098	-346183	-9.123619E-8	NaN
565	1.000000	0.693193	7.37058e+06	-48839.1	1005.82	-29761	0.000000	0.000000	6.692994	-0.011886	NaN	0.000000	0.001543	0.001698	28.0815	0.045072	0.001968	22.9044	122.906	16.1232	0.064191	0.691809	-0.415981	-0.417365	-0.011886	22.9044	-0.415591	-222769	5.335474E-8	NaN
565	1.000000	0.703206	7.37058e+06	-48839.1	1005.82	-29761	0.000000	0.000000	6.703008	0.008011	NaN	0.000000	0.001567	0.001749	28.0815	0.068271	0.001890	36.1274	58.2343	-167.77	0.024517	0.701902	-0.405968	-0.407271	0.008011	36.1274	-0.406134	-163454	-4.901136E-8	NaN
565	1.000000	0.713222	7.37058e+06	-48839.1	1005.82	-29761	0.000000	0.000000	6.713021	-0.067751	NaN	0.000000	0.001552	0.001675	28.0816	0.059244	0.002000	29.6188	-81.8908	13.0243	-0.031615	0.711864	-0.395951	-0.397310	-0.067751	29.6188	-0.394236	-110590	6.126281E-7	NaN
565	1.000000	0.723233	7.37058e+06	-48839.1	1005.82	-29761	0.000000	0.000000	6.723032	-0.051794	NaN	0.000000	0.001562	0.001683	28.0816	0.094730	0.002034	46.5842	93.4105	-167.833	-0.000824	0.721900	-0.385941	-0.387273	-0.051794	46.5842	-0.385107	-81868.2	6.326497E-7	NaN
565	1.000000	0.733215	7.37058e+06	-48839.1	1005.82	-29761	0.000000	0.000000	6.733017	0.010640	NaN	0.000000	0.001552	0.001672	28.0815	0.033400	0.001943	17.1922	-21.1464	15.1261	-0.022335	0.731877	-0.375958	-0.377296	0.010640	17.1922	-0.376423	-61449.4	-1.731492E-7	NaN
565	1.000000	0.743230	7.37058e+06	-48839.1	1005.82	-29761	0.000000	0.000000	6.743034	0.063837	NaN	0.000000	0.001555	0.001723	28.0817	0.036540	0.001997	18.2992	-72.7268	-165.287	-0.009509	0.741893	-0.365944	-0.367280	0.063837	18.2992	-0.368560	-47357.1	-1.347997E-6	NaN
565	1.000000	0.753277	7.37058e+06	-48839.1	1005.82	-29761	0.000000	0.000000	6.753080	0.016975	NaN	0.000000	0.001574	0.001688	28.0817	0.064105	0.002068	30.9923	170.306	12.7459	-0.037955	0.751844	-0.355896	-0.357329	0.016975	30.9923	-0.356307	-31508.1	-5.387526E-7	NaN
565	1.000000	0.763268	7.37058e+06	-48839.1	1005.82	-29761	0.000000	0.000000	6.763069	0.003596	NaN	0.000000	0.001583	0.001709	28.0816	0.034958	0.001973	17.7165	-36.3142	-164.542	-0.033456	0.761932	-0.345906	-0.347241	0.003596	17.7165	-0.346058	-22373.9	-1.607058E-7	NaN
565	1.000000	0.773249	7.37058e+06	-48839.1	1005.82	-29761	0.000000	0.000000	6.773051	0.020774	NaN	0.000000	0.001548	0.001684	28.0828	0.094211	0.002039	46.2083	-127.875	15.2994	0.048690	0.771889	-0.335925	-0.337284	0.020774	46.2083	-0.336262	-16107.1	-1.289737E-6	NaN
565	1.000000	0.783251	7.37058e+06	-48839.1	1005.82	-29761	0.000000	0.000000	6.783057	0.096251	NaN	0.000000	0.001565	0.001649	28.083	0.068421	0.002027	33.7526	-72.5752	-166.577	0.018012	0.781968	-0.325922	-0.327205	0.096251	33.7526	-0.328061	-12219.2	-7.876996E-6	NaN
565	1.000000	0.793240	7.37058e+06	-48839.1	1005.82	-29761	0.000000	0.000000	6.793042	0.017944	NaN	0.000000	0.001569	0.001651	28.083	0.083946	0.002206	38.0528	-165.075	11.4677	0.019117	0.791884	-0.315934	-0.317289	0.017944	38.0528	-0.316288	-8202.44	-2.187607E-6	NaN
565	1.000000	0.803276	7.37058e+06	-48839.1	1005.82	-29761	0.000000	0.000000	6.803080	0.040489	NaN	0.000000	0.001583	0.001658	28.083	0.086402	0.001968	43.8974	136.477	-164.555	-0.129789	0.801927	-0.305897	-0.307247	0.040489	43.8974	-0.306589	-5895.55	-6.867649E-6	NaN
565	1.000000	0.813266	7.37058e+06	-48839.1	1005.82	-29761	0.000000	0.000000	6.813067	-0.017106	NaN	0.000000	0.001576	0.001646	28.0829	0.033836	0.001966	17.2096	-9.328709	15.9506	-0.046476	0.811905	-0.295908	-0.297269	-0.017106	17.2096	-0.295162	-3985.74	4.291695E-6	NaN
565	1.000000	0.823251	7.37058e+06	-48839.1	1005.82	-29761	0.000000	0.000000	6.823057	0.099165	NaN	0.000000	0.001566	0.001674	28.0829	0.015750	0.001945	8.099806	-28.8553	-164.846	0.060833	0.821961	-0.285923	-0.287213	0.099165	8.099806	-0.295105	-3977.9	-2.492898E-5	NaN
565	1.000000	0.833253	7.37058e+06	-48839.1	1005.82	-29761	0.000000	0.000000	6.833054	-0.013058	NaN	0.000000	0.001588	0.001674	28.083	0.085965	0.002075	41.4316	-46.7855	14.5405	-0.047365	0.831876	-0.275921	-0.277298	-0.013058	41.4316	-0.275685	-2031.25	6.428566E-6	NaN
565	1.000000	0.843294	7.37058e+06	-48839.1	1005.82	-29761	0.000000	0.000000	6.843094	-0.056231	NaN	0.000000	0.001560	0.001658	28.0827	0.025823	0.001978	13.0537	131.572	-164.864	-0.027134	0.841991	-0.265879	-0.267182	-0.056231	13.0537	-0.262648	-1286.65	4.370294E-5	NaN
565	1.000000	0.853297	7.37058e+06	-48839.1	1005.82	-29761	0.000000	0.000000	6.853101	0.054144	NaN	0.000000	0.001579	0.001665	28.0829	0.103255	0.001924	53.6609	72.3323	14.1189	0.028367	0.851950	-0.255877	-0.257224	0.054144	53.6609	-0.256633	-1040.5	-5.203584E-5	NaN
565	1.000000	0.863280	7.37058e+06	-48839.1	1005.82	-29761	0.000000	0.000000	6.863082	-0.005924	NaN	0.000000	0.001566	0.001677	28.0829	0.074160	0.001980	37.4468	-106.917	-162.368	0.046102	0.861941	-0.245893	-0.247232	-0.005924	37.4468	-0.245775	-707.107	8.378352E-6	NaN
565	1.000000	0.873272	7.37058e+06	-48839.1	1005.82	-29761	0.000000	0.000000	6.873073	-0.016845	NaN	0.000000	0.001584	0.001685	28.0828	0.045973	0.002044	22.4933	-0.807306	11.317	0.045059	0.871967	-0.235901	-0.237206	-0.016845	22.4933	-0.235340	-485.94	3.466556E-5	NaN
565	1.000000	0.883276	7.37058e+06	-48839.1	1005.82	-29761	0.000000	0.000000	6.883078	0.016060	NaN	0.000000	0.001604	0.001654	28.0828	0.088219	0.001920	45.9471	-56.2111	-163.552	0.001153	0.882006	-0.225898	-0.227167	0.016060	45.9471	-0.226160	-348.13	-4.613241E-5	NaN
565	1.000000	0.893305	7.37058e+06	-48839.1	1005.82	-29761	0.000000	0.000000	6.893105	-0.029993	NaN	0.000000	0.001591	0.001612	28.0827	0.061769	0.001923	32.1226	109.193	10.4844	0.017673	0.891919	-0.215869	-0.217255	-0.029993	32.1226	-0.215169	-232.394	0.000129	NaN
565	1.000000	0.903288	7.37058e+06	-48839.1	1005.82	-29761	0.000000	0.000000	6.903089	-0.010629	NaN	0.000000	0.001570	0.001673	28.0817	0.040020	0.002062	19.4109	-95.6582	-164.535	-0.013963	0.901973	-0.205886	-0.207201	-0.010629	19.4109	-0.205475	-161.92	6.564330E-5	NaN
565	1.000000	0.913273	7.37058e+06	-48839.1	1005.82	-29761	0.000000	0.000000	6.913072	-0.043455	NaN	0.000000	0.001548	0.001674	28.0816	0.075170	0.002032	37.0009	168.536	15.3765	-0.104780	0.911968	-0.195901	-0.197205	-0.043455	37.0009	-0.195020	-109.027	0.000399	NaN
565	1.000000	0.923295	7.37058e+06	-48839.1	1005.82	-29761	0.000000	0.000000	6.923097	-0.014253	NaN	0.000000	0.001549	0.001697	28.0815	0.005899	0.002022	2.917364	-170.705	-165.49	-0.037848	0.922024	-0.185878	-0.187149	-0.014253	2.917364	-0.182214	-66.5354	0.000214	NaN
565	1.000000	0.933330	7.37058e+06	-48839.1	1005.82	-29761	0.000000	0.000000	6.933130	-0.036017	NaN	0.000000	0.001593	0.001673	28.0816	0.135874	0.002044	66.4622	-156.706	14.5029	0.020150	0.931936	-0.175844	-0.177237	-0.036017	66.4622	-0.175437	-50.9908	0.000706	NaN
565	1.000000	0.943324	7.37058e+06	-48839.1	1005.82	-29761	0.000000	0.000000	6.943126	0.027003	NaN	0.000000	0.001582	0.001687	28.0818	0.010446	0.001999	5.226828	59.3919	-165.067	0.066500	0.942007	-0.165850	-0.167167	0.027003	5.226828	-0.169725	-40.6284	-0.000665	NaN
565	1.000000	0.953329	7.37058e+06	-48839.1	1005.82	-29761	0.000000	0.000000	6.953128	-0.056656	NaN	0.000000	0.001619	0.001668	28.0814	0.159496	0.002006	79.5256	28.8098	13.9029	-0.029952	0.951998	-0.155845	-0.157175	-0.056656	79.5256	-0.155310	-22.6028	0.002507	NaN
565	1.000000	0.963332	7.37058e+06	-48839.1	1005.82	-29761	0.000000	0.000000	6.963132	-0.042037	NaN	0.000000	0.001659	0.001674	28.0814	0.015946	0.002061	7.736956	-31.7154	-165.29	-0.029376	0.962026	-0.145842	-0.147147	-0.042037	7.736956	-0.141767	-12.7663	0.003293	NaN
565	1.000000	0.973344	7.37058e+06	-48839.1	1005.82	-29761	0.000000	0.000000	6.973144	-0.046791	NaN	0.000000	0.001655	0.001669	28.0814	0.114344	0.001854	61.6791	-55.123	14.4355	0.002063	0.971983	-0.135829	-0.137191	-0.046791	61.6791	-0.135260	-9.621735	0.004863	NaN
565	1.000000	0.983322	7.37058e+06	-48839.1	1005.82	-29761	0.000000	0.000000	6.983125	0.038380	NaN	0.000000	0.001624	0.001715	28.0819	0.062525	0.001973	31.6927	-59.1542	-164.23	0.014783	0.982042	-0.125852	-0.127131	0.038380	31.6927	-0.126760	-6.587214	-0.005826	NaN
565	1.000000	0.993329	7.37058e+06	-48839.1	1005.82	-29761	0.000000	0.000000	6.993132	0.016193	NaN	0.000000	0.001614	0.001730	28.0815	0.102998	0.001995	51.6185	-84.8886	12.2886	0.060051	0.991977	-0.115844	-0.117197	0.016193	51.6185	-0.116080	-4.020757	-0.004027	NaN
565	1.000000	1.003338	7.37058e+06	-48839.1	1005.82	-29761	0.000000	0.000000	7.003142	0.059255	NaN	0.000000	0.001575	0.001694	28.0816	0.101516	0.001888	53.7646	-116.293	-167.587	-0.031227	1.002037	-0.105836	-0.107136	0.059255	53.7646	-0.106662	-2.552339	-0.023216	NaN
565	1.000000	1.013333	7.37058e+06	-48839.1	1005.82	-29761	0.000000	0.000000	7.013136	0.027755	NaN	0.000000	0.001615	0.001651	28.0815	0.082689	0.002003	41.2834	120.485	14.2317	-0.012635	1.011986	-0.095840	-0.097187	0.027755	41.2834	-0.096344	-1.513332	-0.018340	NaN
565	1.000000	1.023340	7.37058e+06	-48839.1	1005.82	-29761	0.000000	0.000000	7.023145	0.079638	NaN	0.000000	0.001581	0.001688	28.0819	0.055722	0.002010	27.718	-117.44	-164.643	0.084646	1.022057	-0.085834	-0.087117	0.079638	27.718	-0.087988	-0.969010	-0.082185	NaN
565	1.000000	1.033370	7.37058e+06	-48839.1	1005.82	-29761	0.000000	0.000000	7.033171	-0.022254	NaN	0.000000	0.001585	0.001653	28.0817	0.091757	0.002072	44.2929	-154.45	11.7261	-0.013711	1.032007	-0.075803	-0.077166	-0.022254	44.2929	-0.075427	-0.473740	0.046975	NaN
565	1.000000	1.043349	7.37058e+06	-48839.1	1005.82	-29761	0.000000	0.000000	7.043151	0.001509	NaN	0.000000	0.001615	0.001682	28.0828	0.082862	0.002004	41.342	31.2975	-165.474	0.041000	1.042077	-0.065825	-0.067097	0.001509	41.342	-0.065852	-0.263111	-0.005735	NaN
565	1.000000	1.053359	7.37058e+06	-48839.1	1005.82	-29761	0.000000	0.000000	7.053161	0.003024	NaN	0.000000	0.001617	0.001690	28.083	0.125828	0.001919	65.5722	157.415	14.0515	-0.027075	1.051983	-0.055815	-0.057190	0.003024	65.5722	-0.055849	-0.136420	-0.022163	NaN
565	1.000000	1.063373	7.37058e+06	-48839.1	1005.82	-29761	0.000000	0.000000	7.063175	0.002778	NaN	0.000000	0.001652	0.001696	28.0832	0.077543	0.001911	40.588	-152.023	-167.07	-0.039665	1.062100	-0.045800	-0.047074	0.002778	40.588	-0.045852	-0.068239	-0.040704	NaN
565	1.000000	1.073368	7.37058e+06	-48839.1	1005.82	-29761	0.000000	0.000000	7.073169	-0.006145	NaN	0.000000	0.001622	0.001723	28.0831	0.045770	0.001975	23.1694	-81.0297	12.9505	-0.085193	1.072031	-0.035806	-0.037142	-0.006145	23.1694	-0.035607	-0.033373	0.184133	NaN
565	1.000000	1.083374	7.37058e+06	-48839.1	1005.82	-29761	0.000000	0.000000	7.083174	-0.035721	NaN	0.000000	0.001592	0.001701	28.0827	0.015116	0.002060	7.338283	158.174	-166.302	-0.077602	1.082057	-0.025800	-0.027116	-0.035721	7.338283	-0.022149	-0.014245	2.507674	NaN
565	1.000000	1.093358	7.37058e+06	-48839.1	1005.82	-29761	0.000000	0.000000	7.093158	-0.051619	NaN	0.000000	0.001642	0.001727	28.0828	0.081867	0.002027	40.3909	156.599	13.9787	0.000136	1.092038	-0.015815	-0.017136	-0.051619	40.3909	-0.014857	-0.009190	5.617018	NaN
565	1.000000	1.103388	7.37058e+06	-48839.1	1005.82	-29761	0.000000	0.000000	7.103191	0.032268	NaN	0.000000	0.001631	0.001738	28.0828	0.063959	0.001994	32.0822	84.9089	-167.432	-0.029730	1.102089	-0.005785	-0.007085	0.032268	32.0822	-0.006540	-0.004364	-7.393829	NaN
565	1.000000	1.113326	7.37058e+06	-48839.1	1005.82	-29761	0.000000	0.000000	7.113387	6.318386	NaN	0.000000	0.001612	0.001695	28.0828	6.854482	0.001797	3814.62	13.6728	9.449534	4.754280	1.111985	0.004152	0.002812	6.318386	3814.62	0.002910	0.002304	2741.83	72600.9
565	2.000000	1.117073	7.37058e+06	-48839.1	1005.82	-29761	0.000000	0.000000	7.117278	9.820271	NaN	0.000000	0.001645	0.001710	28.0827	10.4907	0.001788	5866.72	5.458123	-170.603	9.700287	1.116779	0.007899	0.007606	9.820271	5866.72	0.006644	0.005684	1727.72	71095.8
565	2.000000	1.119569	7.37058e+06	-48839.1	1005.82	-29761	0.000000	0.000000	7.119951	14.1055	NaN	0.000000	0.001629	0.001701	28.083	13.0003	0.001715	7581.11	5.350872	6.892025	13.6223	1.119181	0.010396	0.010008	14.1055	7581.11	0.009000	0.008091	1743.28	77000.8
565	2.000000	1.121981	7.37058e+06	-48839.1	1005.82	-29761	0.000000	0.000000	7.122563	18.9924	NaN	0.000000	0.001662	0.001696	28.0828	15.7226	0.001729	9095.55	8.814356	-177.044	18.2348	1.121659	0.012807	0.012486	18.9924	9095.55	0.011241	0.010594	1792.82	80738.4
565	2.000000	1.124504	7.37058e+06	-48839.1	1005.82	-29761	0.000000	0.000000	7.125287	23.8555	NaN	0.000000	0.001606	0.001704	28.0828	18.5642	0.001628	11404	4.801096	3.671139	22.088	1.124158	0.015331	0.014984	23.8555	11404	0.013762	0.013669	1745.18	89116.2
565	2.000000	1.126955	7.37058e+06	-48839.1	1005.82	-29761	0.000000	0.000000	7.127903	27.8701	NaN	0.000000	0.001633	0.001736	28.0829	22.0435	0.001952	11293.7	9.245886	-179.333	26.2877	1.126728	0.017782	0.017554	27.8701	11293.7	0.015931	0.016547	1684.3	80213.9
565	2.000000	1.129509	7.37058e+06	-48839.1	1005.82	-29761	0.000000	0.000000	7.130682	33.3656	NaN	0.000000	0.001646	0.001675	28.0831	24.2803	0.001904	12754.7	9.312393	0.072752	33.9916	1.129175	0.020335	0.020002	33.3656	12754.7	0.018373	0.020050	1664.08	82296.3
565	2.000000	1.131962	7.37058e+06	-48839.1	1005.82	-29761	0.000000	0.000000	7.133492	42.0366	NaN	0.000000	0.001663	0.001697	28.0819	26.772	0.001774	15090.2	7.256394	177.987	41.1312	1.131640	0.022789	0.022467	42.0366	15090.2	0.020700	0.023653	1777.19	89644.1
565	2.000000	1.134470	7.37058e+06	-48839.1	1005.82	-29761	0.000000	0.000000	7.136248	48.0818	NaN	0.000000	0.001622	0.001695	28.0818	29.4082	0.001791	16419.8	3.047789	1.483240	46.123	1.134182	0.025296	0.025009	48.0818	16419.8	0.023100	0.027650	1738.96	90218.7
565	2.000000	1.136979	7.37058e+06	-48839.1	1005.82	-29761	0.000000	0.000000	7.139090	56.1474	NaN	0.000000	0.001620	0.001630	28.0816	32.5655	0.001770	18401.2	5.233421	179.601	55.2775	1.136633	0.027806	0.027460	56.1474	18401.2	0.025517	0.031964	1756.6	94035.2
565	2.000000	1.139524	7.37058e+06	-48839.1	1005.82	-29761	0.000000	0.000000	7.141948	63.7902	NaN	0.000000	0.001622	0.001689	28.082	34.9981	0.001797	19471.4	6.799246	-2.093966	63.5114	1.139165	0.030350	0.029991	63.7902	19471.4	0.027893	0.036490	1748.18	93129.4
565	2.000000	1.141930	7.37058e+06	-48839.1	1005.82	-29761	0.000000	0.000000	7.144733	73.012	NaN	0.000000	0.001640	0.001679	28.0817	36.2497	0.001724	21022	2.296317	-179.604	71.9292	1.141644	0.032756	0.032470	73.012	21022	0.030151	0.041058	1778.28	94787.4
565	2.000000	1.144431	7.37058e+06	-48839.1	1005.82	-29761	0.000000	0.000000	7.147627	82.5683	NaN	0.000000	0.001626	0.001617	28.0816	40.4056	0.001791	22555	3.212371	-0.903550	79.4302	1.144106	0.035257	0.034933	82.5683	22555	0.032512	0.046111	1790.66	95965.6
565	2.000000	1.146950	7.37058e+06	-48839.1	1005.82	-29761	0.000000	0.000000	7.150511	91.4533	NaN	0.000000	0.001605	0.001686	28.0815	42.7954	0.001889	22659.4	3.710453	179.714	90.6862	1.146603	0.037776	0.037430	91.4533	22659.4	0.034749	0.051163	1787.48	91525.8
565	2.000000	1.149424	7.37058e+06	-48839.1	1005.82	-29761	0.000000	0.000000	7.153436	102.395	NaN	0.000000	0.001587	0.001690	28.0819	43.991	0.001775	24779.4	4.361922	-2.366305	99.1672	1.149045	0.040250	0.039871	102.395	24779.4	0.037151	0.056873	1800.41	94931.3
565	2.000000	1.151952	7.37058e+06	-48839.1	1005.82	-29761	0.000000	0.000000	7.156336	111.442	NaN	0.000000	0.001662	0.001670	28.0817	45.0758	0.001677	26876.1	2.877598	177.121	112.661	1.151613	0.042778	0.042440	111.442	26876.1	0.039668	0.063174	1764.04	97694.5
565	2.000000	1.154410	7.37058e+06	-48839.1	1005.82	-29761	0.000000	0.000000	7.159282	123.305	NaN	0.000000	0.001610	0.001675	28.0816	48.9138	0.001821	26859.6	6.640769	-5.505511	119.746	1.154011	0.045236	0.044838	123.305	26859.6	0.041793	0.068745	1793.65	93594.7
565	2.000000	1.156953	7.37058e+06	-48839.1	1005.82	-29761	0.000000	0.000000	7.162159	131.438	NaN	0.000000	0.001571	0.001676	28.0813	51.6937	0.001855	27873	4.130367	176.507	131.45	1.156604	0.047779	0.047430	131.438	27873	0.044243	0.075452	1742	92708.8
565	2.000000	1.159486	7.37058e+06	-48839.1	1005.82	-29761	0.000000	0.000000	7.165116	141.751	NaN	0.000000	0.001579	0.001707	28.0818	55.4519	0.001852	29949.2	9.257593	-9.669816	141.641	1.159083	0.050312	0.049910	141.751	29949.2	0.046762	0.082669	1714.68	95167.2
565	2.000000	1.161914	7.37058e+06	-48839.1	1005.82	-29761	0.000000	0.000000	7.168110	155.517	NaN	0.000000	0.001554	0.001660	28.0818	55.846	0.001775	31456.9	2.169740	176.914	152.831	1.161669	0.052740	0.052495	155.517	31456.9	0.049033	0.089446	1738.67	96096.7
565	2.000000	1.164450	7.37058e+06	-48839.1	1005.82	-29761	0.000000	0.000000	7.171360	172.881	NaN	0.000000	0.001574	0.001699	28.083	57.8227	0.001808	31981.2	4.538624	-4.612298	172.557	1.164003	0.055276	0.054830	172.881	31981.2	0.051222	0.096228	1796.58	94192.9
565	2.000000	1.166879	7.37058e+06	-48839.1	1005.82	-29761	0.000000	0.000000	7.174433	188.531	NaN	0.000000	0.001573	0.001676	28.083	60.3526	0.001818	33201.5	2.848766	176.02	184.837	1.166552	0.057706	0.057378	188.531	33201.5	0.053447	0.103365	1823.94	94350.4
565	2.000000	1.169381	7.37058e+06	-48839.1	1005.82	-29761	0.000000	0.000000	7.177377	199.304	NaN	0.000000	0.001533	0.001684	28.083	61.6535	0.001800	34253	3.417274	-4.940498	192.783	1.169066	0.060207	0.059892	199.304	34253	0.055843	0.111326	1790.28	93793.8
565	2.000000	1.171851	7.37058e+06	-48839.1	1005.82	-29761	0.000000	0.000000	7.180631	218.372	NaN	0.000000	0.001519	0.001672	28.0827	64.2475	0.001780	36098.6	4.248180	174.065	214.397	1.171572	0.062677	0.062398	218.372	36098.6	0.058140	0.119223	1831.62	95517.6
565	2.000000	1.174385	7.37058e+06	-48839.1	1005.82	-29761	0.000000	0.000000	7.183344	222.726	NaN	0.000000	0.001551	0.001686	28.0827	67.7214	0.001700	39834.6	5.179929	-8.358556	220.714	1.174153	0.065211	0.064979	222.726	39834.6	0.061018	0.129484	1720.11	101141
565	2.000000	1.176847	7.37058e+06	-48839.1	1005.82	-29761	0.000000	0.000000	7.186461	238.649	NaN	0.000000	0.001540	0.001645	28.0827	71.6786	0.001851	38724.9	7.852105	169.741	234.801	1.176632	0.067674	0.067459	238.649	38724.9	0.063052	0.136978	1742.24	95595.5
565	2.000000	1.179414	7.37058e+06	-48839.1	1005.82	-29761	0.000000	0.000000	7.189574	251.939	NaN	0.000000	0.001522	0.001660	28.0831	73.0723	0.001814	40289	8.353304	-11.318	249.611	1.178984	0.070240	0.069810	251.939	40289	0.065550	0.146460	1720.2	96183.5
565	2.000000	1.181934	7.37058e+06	-48839.1	1005.82	-29761	0.000000	0.000000	7.192657	265.606	NaN	0.000000	0.001569	0.001649	28.0828	74.2254	0.001852	40079.3	6.085579	170.919	264.106	1.181603	0.072760	0.072430	265.606	40079.3	0.067790	0.155215	1711.21	92945.1
565	2.000000	1.184316	7.37058e+06	-48839.1	1005.82	-29761	0.000000	0.000000	7.195673	281.051	NaN	0.000000	0.001584	0.001671	28.0827	75.796	0.001814	41772.5	0.818900	-3.499671	275.084	1.184047	0.075142	0.074873	281.051	41772.5	0.070096	0.164479	1708.74	94104.1
565	2.000000	1.186907	7.37058e+06	-48839.1	1005.82	-29761	0.000000	0.000000	7.198917	296.919	NaN	0.000000	0.001552	0.001647	28.0828	80.271	0.001915	41909.6	4.841750	172.323	296.732	1.186656	0.077733	0.077483	296.919	41909.6	0.072420	0.174070	1705.74	91775.1
565	2.000000	1.189396	7.37058e+06	-48839.1	1005.82	-29761	0.000000	0.000000	7.202168	315.473	NaN	0.000000	0.001560	0.001642	28.0831	80.9463	0.001753	46165.8	6.177655	-8.785434	312.641	1.188905	0.080222	0.079731	315.473	46165.8	0.075097	0.185438	1701.23	97947.7
565	2.000000	1.191848	7.37058e+06	-48839.1	1005.82	-29761	0.000000	0.000000	7.205169	328.8	NaN	0.000000	0.001518	0.001651	28.0826	81.4051	0.001734	46935.9	-0.621136	176.835	323.306	1.191526	0.082675	0.082353	328.8	46935.9	0.077421	0.195578	1681.17	96965.7
565	2.000000	1.194369	7.37058e+06	-48839.1	1005.82	-29761	0.000000	0.000000	7.208364	345.187	NaN	0.000000	0.001558	0.001659	28.0828	85.5192	0.001760	48584	6.259899	-9.840039	341.232	1.193929	0.085196	0.084755	345.187	48584	0.079867	0.206525	1671.4	97674.1
565	2.000000	1.196936	7.37058e+06	-48839.1	1005.82	-29761	0.000000	0.000000	7.211603	361.539	NaN	0.000000	0.001536	0.001674	28.0827	88.2022	0.001816	48566.5	3.302847	173.145	362.463	1.196618	0.087762	0.087445	361.539	48566.5	0.082179	0.217129	1665.09	95225
565	2.000000	1.199341	7.37058e+06	-48839.1	1005.82	-29761	0.000000	0.000000	7.214425	371.684	NaN	0.000000	0.001554	0.001643	28.0814	89.7981	0.001781	50426.9	4.805201	-9.441389	365.203	1.199119	0.090167	0.089946	371.684	50426.9	0.084639	0.228683	1625.33	96342.7
565	2.000000	1.201814	7.37058e+06	-48839.1	1005.82	-29761	0.000000	0.000000	7.217662	390.265	NaN	0.000000	0.001587	0.001704	28.0814	91.2388	0.001794	50849.4	5.014179	170.316	384.715	1.201604	0.092641	0.092430	390.265	50849.4	0.086884	0.239473	1629.68	94935.9
565	2.000000	1.204330	7.37058e+06	-48839.1	1005.82	-29761	0.000000	0.000000	7.220999	410.227	NaN	0.000000	0.001557	0.001685	28.0811	93.2922	0.001817	51346.1	4.693689	-8.551093	405.322	1.203937	0.095157	0.094764	410.227	51346.1	0.089165	0.250669	1636.52	93697.9
565	2.000000	1.206774	7.37058e+06	-48839.1	1005.82	-29761	0.000000	0.000000	7.224232	429.42	NaN	0.000000	0.001569	0.001689	28.0816	96.5358	0.001859	51919.6	6.897021	168.854	424.398	1.206417	0.097600	0.097243	429.42	51919.6	0.091397	0.261861	1639.87	92697.6
565	2.000000	1.209273	7.37058e+06	-48839.1	1005.82	-29761	0.000000	0.000000	7.227676	452.402	NaN	0.000000	0.001558	0.001700	28.0815	97.0997	0.001819	53391.7	9.854655	-13.2589	444.778	1.209005	0.100100	0.099831	452.402	53391.7	0.093745	0.273877	1651.84	93211.4
565	2.000000	1.211910	7.37058e+06	-48839.1	1005.82	-29761	0.000000	0.000000	7.230889	466.405	NaN	0.000000	0.001539	0.001722	28.0815	99.2296	0.001785	55603.4	5.206657	170.3	467.447	1.211488	0.102737	0.102314	466.405	55603.4	0.096446	0.288010	1619.4	94660.9
565	2.000000	1.213361	7.37058e+06	-48839.1	1005.82	-29761	0.000000	0.000000	7.232832	478.366	NaN	0.000000	0.001588	0.001747	28.0819	102.136	0.001741	58669.4	3.896070	-8.905034	475.497	1.213098	0.104188	0.103925	478.366	58669.4	0.098073	0.296686	1612.37	98409.4