File: remote_trans/data/nanoindenter/0828-1/data/Data_2025-08-06,11h17m57s/2025-07-22_16-23-58_1_1025.txt
2025-07-22, 16:23:58, 1
Index	Phase	Displacement	Time	Pos X	Pos Y	Pos Z	Rot A	Rot B	Piezo Z	Force A	Force B	Gripper	Voltage A	Voltage B	Temperature	Amplitude force	Amplitude pos	Stiffness	Phase shift	Phase excitation	Force A raw	Displacement raw	HMax	HMax raw	Real Force	Real Stiffness	Contact Depth	Area	Hardness	Reduced Mod.
[#]	[#]	[um]	[s]	[um]	[um]	[um]	[m°]	[m°]	[um]	[uN]	[uN]	[V]	[V]	[V]	[°C]	[uN]	[um]	[N/m]	[°]	[°]	[uN]	[um]	[um]	[um]	[uN]	[N/m]	[um]	[um^2]	[MPa]	[MPa]
1025	1.000000	0.002820	7.37507e+06	-51389.1	1055.82	-29752.4	0.000000	0.000000	6.002835	0.032210	NaN	0.000000	0.001560	0.001761	28.0832	0.052892	0.000838	63.1107	168.914	-174.247	0.031695	0.001538	-1.103044	-1.104325	0.032210	63.1107	-1.103427	-5.572675E+14	-5.779978E-17	NaN
1025	1.000000	0.012813	7.37507e+06	-51389.1	1055.82	-29752.4	0.000000	0.000000	6.012827	0.023011	NaN	0.000000	0.001596	0.001706	28.0827	0.011976	0.001211	9.886308	134.613	17.6111	0.013970	0.011367	-1.093051	-1.094496	0.023011	9.886308	-1.094796	-4.267879E+14	-5.391758E-17	NaN
1025	1.000000	0.022752	7.37507e+06	-51389.1	1055.82	-29752.4	0.000000	0.000000	6.022765	-0.009234	NaN	0.000000	0.001585	0.001728	28.0836	0.077030	0.001726	44.6255	40.8141	-164.044	0.063920	0.021451	-1.083112	-1.084413	-0.009234	44.6255	-1.082957	-2.959566E+14	3.119987E-17	NaN
1025	1.000000	0.032736	7.37507e+06	-51389.1	1055.82	-29752.4	0.000000	0.000000	6.032747	-0.047064	NaN	0.000000	0.001593	0.001699	28.0834	0.129093	0.001912	67.5309	-70.6221	14.5011	0.009938	0.031378	-1.073128	-1.074485	-0.047064	67.5309	-1.072605	-2.148762E+14	2.190291E-16	NaN
1025	1.000000	0.042740	7.37507e+06	-51389.1	1055.82	-29752.4	0.000000	0.000000	6.042753	-0.008622	NaN	0.000000	0.001620	0.001671	28.084	0.062048	0.002104	29.485	172.802	-163.132	0.091447	0.041377	-1.063124	-1.064486	-0.008622	29.485	-1.062904	-1.591663E+14	5.416926E-17	NaN
1025	1.000000	0.052704	7.37507e+06	-51389.1	1055.82	-29752.4	0.000000	0.000000	6.052717	-0.001713	NaN	0.000000	0.001599	0.001678	28.0837	0.011390	0.001942	5.864983	117.904	15.6915	0.017496	0.051363	-1.053160	-1.054500	-0.001713	5.864983	-1.052940	-1.169339E+14	1.465056E-17	NaN
1025	1.000000	0.062761	7.37507e+06	-51389.1	1055.82	-29752.4	0.000000	0.000000	6.062774	-0.000527	NaN	0.000000	0.001589	0.001688	28.0839	0.115433	0.002081	55.4571	-13.4516	-168.304	-0.039072	0.061413	-1.043103	-1.044450	-0.000527	55.4571	-1.043095	-8.621619E+13	6.107160E-18	NaN
1025	1.000000	0.072740	7.37507e+06	-51389.1	1055.82	-29752.4	0.000000	0.000000	6.072757	0.083764	NaN	0.000000	0.001600	0.001689	28.0837	0.044426	0.002159	20.5741	-126.11	13.5705	0.077376	0.071346	-1.033124	-1.034518	0.083764	20.5741	-1.036177	-6.959203E+13	-1.203648E-15	NaN
1025	1.000000	0.082739	7.37507e+06	-51389.1	1055.82	-29752.4	0.000000	0.000000	6.082755	0.049150	NaN	0.000000	0.001602	0.001725	28.0842	0.094274	0.001924	49.0084	-15.5923	-168.407	0.083925	0.081430	-1.023124	-1.024434	0.049150	49.0084	-1.023876	-4.754508E+13	-1.033754E-15	NaN
1025	1.000000	0.092772	7.37507e+06	-51389.1	1055.82	-29752.4	0.000000	0.000000	6.092787	0.040177	NaN	0.000000	0.001619	0.001742	28.0838	0.065117	0.001928	33.7686	-29.7642	13.4897	-0.019103	0.091412	-1.013091	-1.014451	0.040177	33.7686	-1.013984	-3.499412E+13	-1.148100E-15	NaN
1025	1.000000	0.102740	7.37507e+06	-51389.1	1055.82	-29752.4	0.000000	0.000000	6.102756	0.046460	NaN	0.000000	0.001617	0.001724	28.0839	0.023136	0.001877	12.3238	-5.330092	-167.536	0.046269	0.101465	-1.003123	-1.004398	0.046460	12.3238	-1.005951	-2.728220E+13	-1.702933E-15	NaN
1025	1.000000	0.112755	7.37507e+06	-51389.1	1055.82	-29752.4	0.000000	0.000000	6.112770	0.042967	NaN	0.000000	0.001573	0.001723	28.0837	0.041361	0.001910	21.6515	155.941	12.8352	0.040206	0.111391	-0.993109	-0.994473	0.042967	21.6515	-0.994597	-1.918746E+13	-2.239318E-15	NaN
1025	1.000000	0.122740	7.37507e+06	-51389.1	1055.82	-29752.4	0.000000	0.000000	6.122755	0.034328	NaN	0.000000	0.001605	0.001695	28.0837	0.043949	0.002008	21.8833	141.615	-165.381	0.021908	0.121467	-0.983124	-0.984397	0.034328	21.8833	-0.984300	-1.394257E+13	-2.462081E-15	NaN
1025	1.000000	0.132739	7.37507e+06	-51389.1	1055.82	-29752.4	0.000000	0.000000	6.132754	0.045496	NaN	0.000000	0.001588	0.001679	28.0838	0.088917	0.001996	44.5546	39.5709	16.3866	0.002894	0.131398	-0.973125	-0.974465	0.045496	44.5546	-0.973891	-1.009473E+13	-4.506898E-15	NaN
1025	1.000000	0.142761	7.37507e+06	-51389.1	1055.82	-29752.4	0.000000	0.000000	6.142780	0.129622	NaN	0.000000	0.001622	0.001713	28.0838	0.037016	0.001922	19.2544	19.2885	-168.039	0.111935	0.141473	-0.963102	-0.964390	0.129622	19.2544	-0.968151	-8.447854E+12	-1.534374E-14	NaN
1025	1.000000	0.152771	7.37507e+06	-51389.1	1055.82	-29752.4	0.000000	0.000000	6.152785	0.024198	NaN	0.000000	0.001595	0.001742	28.084	0.144450	0.001976	73.1034	151.6	14.3651	0.006592	0.151414	-0.953093	-0.954449	0.024198	73.1034	-0.953341	-5.334340E+12	-4.536281E-15	NaN
1025	1.000000	0.162776	7.37507e+06	-51389.1	1055.82	-29752.4	0.000000	0.000000	6.162792	0.047032	NaN	0.000000	0.001624	0.001732	28.0825	0.194473	0.002187	88.9024	11.5828	-165.188	0.142619	0.161427	-0.943087	-0.944436	0.047032	88.9024	-0.943484	-3.927669E+12	-1.197462E-14	NaN
1025	1.000000	0.172781	7.37507e+06	-51389.1	1055.82	-29752.4	0.000000	0.000000	6.172795	0.002863	NaN	0.000000	0.001601	0.001714	28.0824	0.102241	0.002004	51.0239	-149.707	13.1703	0.052720	0.171462	-0.933083	-0.934401	0.002863	51.0239	-0.933125	-2.846858E+12	-1.005747E-15	NaN
1025	1.000000	0.182769	7.37507e+06	-51389.1	1055.82	-29752.4	0.000000	0.000000	6.182785	0.046782	NaN	0.000000	0.001564	0.001688	28.0829	0.059948	0.001958	30.6163	167.944	-166.095	0.005705	0.181462	-0.923094	-0.924401	0.046782	30.6163	-0.924240	-2.159995E+12	-2.165822E-14	NaN
1025	1.000000	0.192813	7.37507e+06	-51389.1	1055.82	-29752.4	0.000000	0.000000	6.192827	0.014283	NaN	0.000000	0.001550	0.001736	28.0824	0.051447	0.001970	26.1157	130.839	16.9368	0.045756	0.191460	-0.913051	-0.914404	0.014283	26.1157	-0.913461	-1.544914E+12	-9.245061E-15	NaN
1025	1.000000	0.202798	7.37507e+06	-51389.1	1055.82	-29752.4	0.000000	0.000000	6.202812	-0.002957	NaN	0.000000	0.001572	0.001698	28.0826	0.121544	0.001983	61.2914	-60.2252	-167.181	0.029655	0.201465	-0.903065	-0.904398	-0.002957	61.2914	-0.903029	-1.116841E+12	2.647987E-15	NaN
1025	1.000000	0.212807	7.37507e+06	-51389.1	1055.82	-29752.4	0.000000	0.000000	6.212823	0.048796	NaN	0.000000	0.001514	0.001695	28.0824	0.052968	0.002011	26.3411	-16.5506	13	-0.035365	0.211402	-0.893056	-0.894462	0.048796	26.3411	-0.894446	-8.550798E+11	-5.706552E-14	NaN
1025	1.000000	0.222820	7.37507e+06	-51389.1	1055.82	-29752.4	0.000000	0.000000	6.222835	0.045583	NaN	0.000000	0.001531	0.001722	28.0829	0.134607	0.002058	65.4185	73.312	-168.671	0.034401	0.221523	-0.883044	-0.884341	0.045583	65.4185	-0.883566	-6.094445E+11	-7.479458E-14	NaN
1025	1.000000	0.232801	7.37508e+06	-51389.1	1055.82	-29752.4	0.000000	0.000000	6.232815	0.019006	NaN	0.000000	0.001558	0.001712	28.0825	0.021581	0.002058	10.4853	124.18	14.0015	0.001579	0.231424	-0.873062	-0.874440	0.019006	10.4853	-0.874422	-4.584199E+11	-4.146008E-14	NaN
1025	1.000000	0.242782	7.37508e+06	-51389.1	1055.82	-29752.4	0.000000	0.000000	6.242799	0.069120	NaN	0.000000	0.001570	0.001711	28.0826	0.034878	0.001977	17.6406	-45.804	-168.417	0.009845	0.241547	-0.863081	-0.864316	0.069120	17.6406	-0.866020	-3.528512E+11	-1.958896E-13	NaN
1025	1.000000	0.252828	7.37508e+06	-51389.1	1055.82	-29752.4	0.000000	0.000000	6.252841	-0.013599	NaN	0.000000	0.001569	0.001728	28.0828	0.083334	0.002056	40.5402	-82.2433	13.308	0.008749	0.251439	-0.853036	-0.854424	-0.013599	40.5402	-0.852784	-2.335811E+11	5.821850E-14	NaN
1025	1.000000	0.262816	7.37508e+06	-51389.1	1055.82	-29752.4	0.000000	0.000000	6.262831	0.038980	NaN	0.000000	0.001605	0.001729	28.0832	0.076668	0.001900	40.3443	7.087312	-166.503	0.019361	0.261479	-0.843047	-0.844384	0.038980	40.3443	-0.843772	-1.763558E+11	-2.210280E-13	NaN
1025	1.000000	0.272788	7.37508e+06	-51389.1	1055.82	-29752.4	0.000000	0.000000	6.272800	-0.031668	NaN	0.000000	0.001564	0.001763	28.0827	0.086859	0.002031	42.7701	108.338	15.7003	-0.035234	0.271470	-0.833076	-0.834394	-0.031668	42.7701	-0.832520	-1.241485E+11	2.550789E-13	NaN
1025	1.000000	0.282807	7.37508e+06	-51389.1	1055.82	-29752.4	0.000000	0.000000	6.282822	0.018703	NaN	0.000000	0.001550	0.001751	28.0828	0.133750	0.001964	68.0935	78.7696	-166.136	0.091852	0.281533	-0.823056	-0.824331	0.018703	68.0935	-0.823262	-9.299162E+10	-2.011266E-13	NaN
1025	1.000000	0.292836	7.37508e+06	-51389.1	1055.82	-29752.4	0.000000	0.000000	6.292853	0.094041	NaN	0.000000	0.001580	0.001724	28.0826	0.046831	0.001967	23.8104	-105.146	15.551	0.130071	0.291484	-0.813028	-0.814379	0.094041	23.8104	-0.815990	-7.410142E+10	-1.269085E-12	NaN
1025	1.000000	0.302824	7.37508e+06	-51389.1	1055.82	-29752.4	0.000000	0.000000	6.302839	0.031435	NaN	0.000000	0.001588	0.001755	28.0838	0.049593	0.002046	24.2373	-19.6984	-167.148	0.061564	0.301523	-0.803040	-0.804341	0.031435	24.2373	-0.804013	-5.097114E+10	-6.167236E-13	NaN
1025	1.000000	0.312849	7.37508e+06	-51389.1	1055.82	-29752.4	0.000000	0.000000	6.312865	0.062203	NaN	0.000000	0.001602	0.001767	28.0837	0.118339	0.001942	60.9521	86.1046	12.7392	0.014264	0.311498	-0.793015	-0.794365	0.062203	60.9521	-0.793780	-3.701866E+10	-1.680311E-12	NaN
1025	1.000000	0.322828	7.37508e+06	-51389.1	1055.82	-29752.4	0.000000	0.000000	6.322846	0.097498	NaN	0.000000	0.001548	0.001764	28.084	0.005559	0.001927	2.885258	53.0931	-170.024	0.017411	0.321504	-0.783035	-0.784359	0.097498	2.885258	-0.808379	-5.842206E+10	-1.668851E-12	NaN
1025	1.000000	0.332838	7.37508e+06	-51389.1	1055.82	-29752.4	0.000000	0.000000	6.332853	0.026270	NaN	0.000000	0.001591	0.001727	28.0841	0.026213	0.001975	13.2749	-130.358	16.3467	0.020345	0.331543	-0.773025	-0.774321	0.026270	13.2749	-0.774510	-2.025879E+10	-1.296729E-12	NaN
1025	1.000000	0.342872	7.37508e+06	-51389.1	1055.82	-29752.4	0.000000	0.000000	6.342885	-0.018924	NaN	0.000000	0.001622	0.001760	28.084	0.043751	0.002044	21.4078	-163.217	-168.613	0.080296	0.341556	-0.762991	-0.764307	-0.018924	21.4078	-0.762328	-1.383478E+10	1.367867E-12	NaN
1025	1.000000	0.352866	7.37508e+06	-51389.1	1055.82	-29752.4	0.000000	0.000000	6.352879	-0.003137	NaN	0.000000	0.001614	0.001780	28.0837	0.064867	0.001939	33.452	7.066336	12.5452	-0.012721	0.351498	-0.752998	-0.754365	-0.003137	33.452	-0.752927	-1.030533E+10	3.043941E-13	NaN
1025	1.000000	0.362830	7.37508e+06	-51389.1	1055.82	-29752.4	0.000000	0.000000	6.362845	0.033769	NaN	0.000000	0.001633	0.001765	28.0836	0.113677	0.001974	57.5905	-161.45	-168.614	-0.013907	0.361624	-0.743034	-0.744240	0.033769	57.5905	-0.743473	-7.662317E+9	-4.407123E-12	NaN
1025	1.000000	0.372855	7.37508e+06	-51389.1	1055.82	-29752.4	0.000000	0.000000	6.372868	-0.010497	NaN	0.000000	0.001660	0.001774	28.0837	0.012294	0.002027	6.066273	-175.033	17.3898	0.029897	0.371508	-0.733008	-0.734355	-0.010497	6.066273	-0.731711	-5.298129E+9	1.981200E-12	NaN
1025	1.000000	0.382866	7.37508e+06	-51389.1	1055.82	-29752.4	0.000000	0.000000	6.382880	0.004963	NaN	0.000000	0.001633	0.001746	28.0831	0.044061	0.002120	20.7882	-179.863	-164.173	-0.017598	0.381572	-0.722997	-0.724291	0.004963	20.7882	-0.723176	-4.053074E+9	-1.224624E-12	NaN
1025	1.000000	0.392888	7.37508e+06	-51389.1	1055.82	-29752.4	0.000000	0.000000	6.392903	0.044564	NaN	0.000000	0.001661	0.001755	28.0835	0.042640	0.001918	22.2285	-173.962	17.5763	0.028062	0.391540	-0.712976	-0.714324	0.044564	22.2285	-0.714479	-3.084379E+9	-1.444827E-11	NaN
1025	1.000000	0.402862	7.37508e+06	-51389.1	1055.82	-29752.4	0.000000	0.000000	6.402874	-0.019567	NaN	0.000000	0.001670	0.001779	28.0835	0.047979	0.001981	24.2248	-163.437	-164.504	0.018648	0.401555	-0.703002	-0.704309	-0.019567	24.2248	-0.702396	-2.109838E+9	9.273952E-12	NaN
1025	1.000000	0.412868	7.37508e+06	-51389.1	1055.82	-29752.4	0.000000	0.000000	6.412886	0.103428	NaN	0.000000	0.001691	0.001764	28.0836	0.075537	0.002075	36.4068	-104.106	12.9939	0.078472	0.411549	-0.692995	-0.694314	0.103428	36.4068	-0.695126	-1.678630E+9	-6.161428E-11	NaN
1025	1.000000	0.422896	7.37508e+06	-51389.1	1055.82	-29752.4	0.000000	0.000000	6.422914	0.099933	NaN	0.000000	0.001668	0.001752	28.0833	0.032267	0.002151	15.003	-82.3867	-166.127	0.095198	0.421570	-0.682968	-0.684294	0.099933	15.003	-0.687963	-1.339928E+9	-7.458071E-11	NaN
1025	1.000000	0.432891	7.37508e+06	-51389.1	1055.82	-29752.4	0.000000	0.000000	6.432907	0.054998	NaN	0.000000	0.001645	0.001753	28.0823	0.060782	0.001961	30.9908	45.2246	14.4011	0.016654	0.431577	-0.672972	-0.674287	0.054998	30.9908	-0.674303	-8.715158E+8	-6.310587E-11	NaN
1025	1.000000	0.442898	7.37508e+06	-51389.1	1055.82	-29752.4	0.000000	0.000000	6.442914	0.073853	NaN	0.000000	0.001677	0.001756	28.0824	0.044633	0.002119	21.0639	18.2661	-164.495	0.058967	0.441583	-0.662966	-0.664281	0.073853	21.0639	-0.665595	-6.623632E+8	-1.114989E-10	NaN
1025	1.000000	0.452889	7.37508e+06	-51389.1	1055.82	-29752.4	0.000000	0.000000	6.452904	0.046221	NaN	0.000000	0.001658	0.001745	28.082	0.044448	0.001942	22.8894	86.0912	8.284817	0.012972	0.451521	-0.652975	-0.654343	0.046221	22.8894	-0.654489	-4.666244E+8	-9.905465E-11	NaN
1025	1.000000	0.462906	7.37508e+06	-51389.1	1055.82	-29752.4	0.000000	0.000000	6.462923	0.071814	NaN	0.000000	0.001703	0.001783	28.082	0.160711	0.001863	86.286	63.2904	-167.053	0.025893	0.461605	-0.642957	-0.644258	0.071814	86.286	-0.643581	-3.306904E+8	-2.171635E-10	NaN
1025	1.000000	0.472914	7.37508e+06	-51389.1	1055.82	-29752.4	0.000000	0.000000	6.472926	-0.032969	NaN	0.000000	0.001692	0.001757	28.0822	0.101800	0.002047	49.7191	-112.415	12.0693	0.067138	0.471520	-0.632950	-0.634343	-0.032969	49.7191	-0.632452	-2.326467E+8	1.417142E-10	NaN
1025	1.000000	0.482893	7.37508e+06	-51389.1	1055.82	-29752.4	0.000000	0.000000	6.482907	0.019770	NaN	0.000000	0.001692	0.001812	28.0824	0.029328	0.001855	15.8135	-13.3701	-163.347	0.064925	0.481608	-0.622970	-0.624255	0.019770	15.8135	-0.623908	-1.775590E+8	-1.113460E-10	NaN
1025	1.000000	0.492931	7.37508e+06	-51389.1	1055.82	-29752.4	0.000000	0.000000	6.492946	0.031627	NaN	0.000000	0.001704	0.001796	28.0824	0.044352	0.002089	21.2291	-114.622	11.9984	0.013920	0.491568	-0.612933	-0.614296	0.031627	21.2291	-0.614050	-1.299642E+8	-2.433526E-10	NaN
1025	1.000000	0.502925	7.37508e+06	-51389.1	1055.82	-29752.4	0.000000	0.000000	6.502941	0.059932	NaN	0.000000	0.001665	0.001852	28.082	0.044557	0.002069	21.5358	-84.4501	-169.274	0.038602	0.501642	-0.602939	-0.604221	0.059932	21.5358	-0.605026	-9.764757E+7	-6.137565E-10	NaN
1025	1.000000	0.512923	7.37508e+06	-51389.1	1055.82	-29752.4	0.000000	0.000000	6.512940	0.074139	NaN	0.000000	0.001721	0.001785	28.0824	0.046953	0.001973	23.7923	-135.729	13.557	0.156835	0.511578	-0.592940	-0.594285	0.074139	23.7923	-0.595278	-7.168119E+7	-1.034293E-9	NaN
1025	1.000000	0.522950	7.37508e+06	-51389.1	1055.82	-29752.4	0.000000	0.000000	6.522963	-0.000169	NaN	0.000000	0.001712	0.001776	28.0825	0.026963	0.001964	13.7302	140.487	-165.955	-0.076027	0.521679	-0.582914	-0.584184	-0.000169	13.7302	-0.582904	-4.839560E+7	3.492055E-12	NaN
1025	1.000000	0.532938	7.37508e+06	-51389.1	1055.82	-29752.4	0.000000	0.000000	6.532954	0.049117	NaN	0.000000	0.001702	0.001739	28.0822	0.158186	0.002080	76.0657	-115.924	13.0979	0.015754	0.531553	-0.572925	-0.574311	0.049117	76.0657	-0.573409	-3.578737E+7	-1.372470E-9	NaN
1025	1.000000	0.542963	7.37508e+06	-51389.1	1055.82	-29752.4	0.000000	0.000000	6.542980	0.097478	NaN	0.000000	0.001673	0.001773	28.0822	0.060762	0.002051	29.6207	27.8986	-165.534	0.051544	0.541608	-0.562901	-0.564255	0.097478	29.6207	-0.565369	-2.770915E+7	-3.517893E-9	NaN
1025	1.000000	0.552937	7.37508e+06	-51389.1	1055.82	-29752.4	0.000000	0.000000	6.552952	0.018707	NaN	0.000000	0.001669	0.001716	28.0826	0.038618	0.002036	18.9645	-9.995604	11.1769	0.047241	0.551539	-0.552926	-0.554324	0.018707	18.9645	-0.553666	-1.908626E+7	-9.801089E-10	NaN
1025	1.000000	0.562954	7.37508e+06	-51389.1	1055.82	-29752.4	0.000000	0.000000	6.562968	0.011041	NaN	0.000000	0.001624	0.001717	28.0822	0.088265	0.002008	43.9604	-98.2638	-164.845	0.016005	0.561657	-0.542909	-0.544206	0.011041	43.9604	-0.543098	-1.362414E+7	-8.104353E-10	NaN
1025	1.000000	0.572961	7.37508e+06	-51389.1	1055.82	-29752.4	0.000000	0.000000	6.572976	0.028947	NaN	0.000000	0.001651	0.001702	28.0835	0.007258	0.002006	3.618421	27.9196	12.0582	-0.008162	0.571525	-0.532902	-0.534339	0.028947	3.618421	-0.538902	-1.191590E+7	-2.429273E-9	NaN
1025	1.000000	0.582962	7.37508e+06	-51389.1	1055.82	-29752.4	0.000000	0.000000	6.582976	0.022409	NaN	0.000000	0.001628	0.001753	28.0836	0.047042	0.001889	24.8971	-176.126	-165.297	0.027334	0.581611	-0.522902	-0.524252	0.022409	24.8971	-0.523577	-7.30007e+06	-3.069649E-9	NaN
1025	1.000000	0.592974	7.37508e+06	-51389.1	1055.82	-29752.4	0.000000	0.000000	6.592988	0.004648	NaN	0.000000	0.001568	0.001754	28.0837	0.018554	0.001948	9.526010	20.3632	8.795459	0.077189	0.591608	-0.512889	-0.514256	0.004648	9.526010	-0.513255	-5.24495e+06	-8.862393E-10	NaN
1025	1.000000	0.602992	7.37508e+06	-51389.1	1055.82	-29752.4	0.000000	0.000000	6.603007	0.044196	NaN	0.000000	0.001593	0.001702	28.0834	0.008688	0.001966	4.419344	-27.062	-166.536	-0.025685	0.601641	-0.502872	-0.504222	0.044196	4.419344	-0.510372	-4.78187e+06	-9.242314E-9	NaN
1025	1.000000	0.612992	7.37508e+06	-51389.1	1055.82	-29752.4	0.000000	0.000000	6.613007	0.053981	NaN	0.000000	0.001615	0.001697	28.0835	0.107020	0.002050	52.2148	-67.6072	11.3819	-0.051173	0.611629	-0.492872	-0.494235	0.053981	52.2148	-0.493647	-2.79476e+06	-1.931515E-8	NaN
1025	1.000000	0.622980	7.37508e+06	-51389.1	1055.82	-29752.4	0.000000	0.000000	6.622996	0.061554	NaN	0.000000	0.001659	0.001700	28.0835	0.158106	0.001881	84.0707	49.3598	-167.556	0.045258	0.621645	-0.482883	-0.484218	0.061554	84.0707	-0.483432	-2.0117e+06	-3.059795E-8	NaN
1025	1.000000	0.632994	7.37508e+06	-51389.1	1055.82	-29752.4	0.000000	0.000000	6.633009	0.028829	NaN	0.000000	0.001627	0.001696	28.0837	0.125810	0.002005	62.7369	104.521	10.3978	-0.025384	0.631624	-0.472870	-0.474239	0.028829	62.7369	-0.473214	-1.44702e+06	-1.992331E-8	NaN
1025	1.000000	0.642976	7.37508e+06	-51389.1	1055.82	-29752.4	0.000000	0.000000	6.642991	0.027157	NaN	0.000000	0.001576	0.001752	28.0835	0.152016	0.002074	73.2855	4.624411	-166.914	0.022394	0.641647	-0.462887	-0.464217	0.027157	73.2855	-0.463165	-1.04589e+06	-2.596546E-8	NaN
1025	1.000000	0.652965	7.37508e+06	-51389.1	1055.82	-29752.4	0.000000	0.000000	6.652981	0.062930	NaN	0.000000	0.001614	0.001695	28.0835	0.079513	0.001966	40.4509	10.7887	16.6828	-0.000466	0.651612	-0.452899	-0.454251	0.062930	40.4509	-0.454065	-779058	-8.077719E-8	NaN
1025	1.000000	0.662965	7.37508e+06	-51389.1	1055.82	-29752.4	0.000000	0.000000	6.662982	0.064820	NaN	0.000000	0.001589	0.001731	28.0838	0.097832	0.002066	47.3495	162.642	-165.622	0.019551	0.661625	-0.442898	-0.444238	0.064820	47.3495	-0.443925	-560704	-1.156052E-7	NaN
1025	1.000000	0.673011	7.37508e+06	-51389.1	1055.82	-29752.4	0.000000	0.000000	6.673024	-0.026107	NaN	0.000000	0.001603	0.001721	28.0835	0.175432	0.002000	87.7286	18.0266	14.7857	-0.003432	0.671618	-0.432852	-0.434245	-0.026107	87.7286	-0.432629	-388370	6.722251E-8	NaN
1025	1.000000	0.682988	7.37508e+06	-51389.1	1055.82	-29752.4	0.000000	0.000000	6.683004	0.049469	NaN	0.000000	0.001595	0.001730	28.0837	0.046848	0.002031	23.0711	161.472	-165.497	0.014492	0.681640	-0.422875	-0.424223	0.049469	23.0711	-0.424483	-297825	-1.661008E-7	NaN
1025	1.000000	0.692988	7.37508e+06	-51389.1	1055.82	-29752.4	0.000000	0.000000	6.693002	0.015303	NaN	0.000000	0.001621	0.001755	28.0834	0.058434	0.001966	29.7175	-145.538	12.0754	0.010482	0.691601	-0.412876	-0.414262	0.015303	29.7175	-0.413262	-206426	-7.413168E-8	NaN
1025	1.000000	0.703012	7.37508e+06	-51389.1	1055.82	-29752.4	0.000000	0.000000	6.703026	0.002477	NaN	0.000000	0.001629	0.001710	28.0836	0.106789	0.001905	56.0484	-128.72	-167.044	0.028736	0.701741	-0.402851	-0.404122	0.002477	56.0484	-0.402884	-146929	-1.685946E-8	NaN
1025	1.000000	0.713005	7.37508e+06	-51389.1	1055.82	-29752.4	0.000000	0.000000	6.713017	-0.045697	NaN	0.000000	0.001593	0.001746	28.0819	0.074167	0.002017	36.77	156.384	11.9821	0.021363	0.711605	-0.392858	-0.394258	-0.045697	36.77	-0.391926	-102496	4.458425E-7	NaN
1025	1.000000	0.723010	7.37508e+06	-51389.1	1055.82	-29752.4	0.000000	0.000000	6.723026	0.062233	NaN	0.000000	0.001616	0.001755	28.0825	0.090045	0.001981	45.4451	-93.2192	-164.196	0.041315	0.721741	-0.382853	-0.384123	0.062233	45.4451	-0.383880	-78621.3	-7.915488E-7	NaN
1025	1.000000	0.733041	7.37508e+06	-51389.1	1055.82	-29752.4	0.000000	0.000000	6.733053	-0.053161	NaN	0.000000	0.001640	0.001743	28.0822	0.057513	0.002035	28.2635	73.1512	12.9885	-0.009038	0.731631	-0.372822	-0.374232	-0.053161	28.2635	-0.371411	-52053.4	1.021272E-6	NaN
1025	1.000000	0.743006	7.37508e+06	-51389.1	1055.82	-29752.4	0.000000	0.000000	6.743020	0.002196	NaN	0.000000	0.001600	0.001753	28.0827	0.015136	0.001989	7.609882	34.3301	-163.986	-0.008870	0.741729	-0.362857	-0.364135	0.002196	7.609882	-0.363074	-39468.3	-5.563505E-8	NaN
1025	1.000000	0.753061	7.37508e+06	-51389.1	1055.82	-29752.4	0.000000	0.000000	6.753075	0.009486	NaN	0.000000	0.001558	0.001751	28.0823	0.066433	0.001944	34.1683	50.1914	11.4512	0.076116	0.751657	-0.352802	-0.354206	0.009486	34.1683	-0.353010	-28227	-3.360514E-7	NaN
1025	1.000000	0.763054	7.37508e+06	-51389.1	1055.82	-29752.4	0.000000	0.000000	6.763071	0.095060	NaN	0.000000	0.001591	0.001762	28.0827	0.075061	0.002039	36.8048	-121.007	-166.76	0.122049	0.761730	-0.342810	-0.344134	0.095060	36.8048	-0.344747	-21412.7	-4.439409E-6	NaN
1025	1.000000	0.773005	7.37508e+06	-51389.1	1055.82	-29752.4	0.000000	0.000000	6.773021	0.053482	NaN	0.000000	0.001621	0.001748	28.0825	0.095513	0.002055	46.4832	-4.659786	13.1695	0.047648	0.771718	-0.332858	-0.334146	0.053482	46.4832	-0.333721	-14787.5	-3.616730E-6	NaN
1025	1.000000	0.783019	7.37508e+06	-51389.1	1055.82	-29752.4	0.000000	0.000000	6.783030	-0.050864	NaN	0.000000	0.001600	0.001744	28.0824	0.090896	0.002054	44.2482	-6.114548	-165.888	0.034168	0.781755	-0.322845	-0.324108	-0.050864	44.2482	-0.321982	-9949.54	5.112236E-6	NaN
1025	1.000000	0.793027	7.37508e+06	-51389.1	1055.82	-29752.4	0.000000	0.000000	6.793041	0.009367	NaN	0.000000	0.001593	0.001738	28.0822	0.142108	0.002032	69.9227	-177.001	13.322	0.079827	0.791680	-0.312836	-0.314184	0.009367	69.9227	-0.312937	-7319.45	-1.279714E-6	NaN
1025	1.000000	0.803056	7.37508e+06	-51389.1	1055.82	-29752.4	0.000000	0.000000	6.803071	0.026206	NaN	0.000000	0.001625	0.001752	28.0823	0.042068	0.001916	21.9601	62.8512	-168.553	0.010946	0.801688	-0.302808	-0.304176	0.026206	21.9601	-0.303703	-5341.84	-4.905842E-6	NaN
1025	1.000000	0.813014	7.37508e+06	-51389.1	1055.82	-29752.4	0.000000	0.000000	6.813025	-0.048725	NaN	0.000000	0.001592	0.001751	28.0825	0.028063	0.002068	13.5714	-102.308	8.733934	-0.029967	0.811674	-0.292850	-0.294190	-0.048725	13.5714	-0.290157	-3354.7	1.452434E-5	NaN
1025	1.000000	0.823055	7.37508e+06	-51389.1	1055.82	-29752.4	0.000000	0.000000	6.823071	0.057516	NaN	0.000000	0.001642	0.001720	28.0826	0.016749	0.002079	8.057531	37.4428	-165.853	-0.018170	0.821767	-0.282808	-0.284096	0.057516	8.057531	-0.288162	-3131.43	-1.836728E-5	NaN
1025	1.000000	0.833064	7.37508e+06	-51389.1	1055.82	-29752.4	0.000000	0.000000	6.833080	0.068495	NaN	0.000000	0.001623	0.001805	28.0822	0.063227	0.001926	32.822	-57.6984	14.0434	0.061555	0.831694	-0.272799	-0.274170	0.068495	32.822	-0.274364	-1939.88	-3.530875E-5	NaN
1025	1.000000	0.843045	7.37508e+06	-51389.1	1055.82	-29752.4	0.000000	0.000000	6.843059	0.013747	NaN	0.000000	0.001646	0.001735	28.0834	0.072726	0.001996	36.4423	111.16	-168.701	0.003035	0.841745	-0.262819	-0.264118	0.013747	36.4423	-0.263101	-1307.34	-1.051527E-5	NaN
1025	1.000000	0.853061	7.37508e+06	-51389.1	1055.82	-29752.4	0.000000	0.000000	6.853073	-0.040655	NaN	0.000000	0.001612	0.001719	28.0835	0.019909	0.002067	9.631038	65.1113	13.3528	-0.011204	0.851706	-0.252802	-0.254158	-0.040655	9.631038	-0.249636	-811.603	5.009194E-5	NaN
1025	1.000000	0.863045	7.37508e+06	-51389.1	1055.82	-29752.4	0.000000	0.000000	6.863057	-0.051330	NaN	0.000000	0.001640	0.001729	28.0832	0.074842	0.001939	38.6012	118.972	-164.332	-0.047451	0.861758	-0.242818	-0.244106	-0.051330	38.6012	-0.241821	-613.717	8.363829E-5	NaN
1025	1.000000	0.873069	7.37508e+06	-51389.1	1055.82	-29752.4	0.000000	0.000000	6.873084	0.040646	NaN	0.000000	0.001630	0.001739	28.0835	0.043129	0.001968	21.9168	36.2113	12.36	-0.027340	0.871732	-0.232795	-0.234131	0.040646	21.9168	-0.234186	-466.074	-8.721027E-5	NaN
1025	1.000000	0.883103	7.37508e+06	-51389.1	1055.82	-29752.4	0.000000	0.000000	6.883119	0.064330	NaN	0.000000	0.001630	0.001703	28.0839	0.043913	0.001882	23.3367	77.5159	-164.504	0.011595	0.881752	-0.222761	-0.224112	0.064330	23.3367	-0.224828	-331.591	-0.000194	NaN
1025	1.000000	0.893086	7.37508e+06	-51389.1	1055.82	-29752.4	0.000000	0.000000	6.893101	0.038347	NaN	0.000000	0.001600	0.001728	28.0836	0.079337	0.002004	39.5884	106.172	15.7489	0.095158	0.891712	-0.212777	-0.214151	0.038347	39.5884	-0.213504	-218.488	-0.000176	NaN
1025	1.000000	0.903064	7.37508e+06	-51389.1	1055.82	-29752.4	0.000000	0.000000	6.903080	0.044589	NaN	0.000000	0.001573	0.001754	28.0837	0.078088	0.002162	36.1168	164.028	-165.153	0.000961	0.901790	-0.202799	-0.204073	0.044589	36.1168	-0.203725	-151.615	-0.000294	NaN
1025	1.000000	0.913083	7.37508e+06	-51389.1	1055.82	-29752.4	0.000000	0.000000	6.913100	0.087822	NaN	0.000000	0.001630	0.001759	28.0838	0.073173	0.002061	35.4994	-105.457	12.7377	0.185034	0.911762	-0.192781	-0.194102	0.087822	35.4994	-0.194636	-107.442	-0.000817	NaN
1025	1.000000	0.923108	7.37508e+06	-51389.1	1055.82	-29752.4	0.000000	0.000000	6.923121	-0.023828	NaN	0.000000	0.001604	0.001752	28.0838	0.024763	0.002038	12.1497	18.5578	-166.575	0.142947	0.921803	-0.182756	-0.184061	-0.023828	12.1497	-0.181285	-64.1648	0.000371	NaN
1025	1.000000	0.933095	7.37508e+06	-51389.1	1055.82	-29752.4	0.000000	0.000000	6.933112	0.068480	NaN	0.000000	0.001629	0.001765	28.0837	0.042846	0.001920	22.3119	-65.2561	15.0499	0.005044	0.931701	-0.172768	-0.174162	0.068480	22.3119	-0.175070	-50.2552	-0.001363	NaN
1025	1.000000	0.943083	7.37508e+06	-51389.1	1055.82	-29752.4	0.000000	0.000000	6.943097	0.001608	NaN	0.000000	0.001619	0.001784	28.0837	0.086672	0.001901	45.5964	178.868	-165.085	0.059556	0.941801	-0.162780	-0.164062	0.001608	45.5964	-0.162806	-30.7389	-5.231185E-5	NaN
1025	1.000000	0.953139	7.37508e+06	-51389.1	1055.82	-29752.4	0.000000	0.000000	6.953153	0.024989	NaN	0.000000	0.001649	0.001812	28.0837	0.044033	0.001995	22.0699	-33.9239	14.0584	-0.086434	0.951683	-0.152725	-0.154181	0.024989	22.0699	-0.153574	-21.0316	-0.001188	NaN
1025	1.000000	0.963119	7.37508e+06	-51389.1	1055.82	-29752.4	0.000000	0.000000	6.963136	0.092773	NaN	0.000000	0.001670	0.001738	28.0835	0.013886	0.001910	7.269341	80.318	-166.499	0.085197	0.961812	-0.142745	-0.144051	0.092773	7.269341	-0.152316	-19.958	-0.004648	NaN
1025	1.000000	0.973111	7.37508e+06	-51389.1	1055.82	-29752.4	0.000000	0.000000	6.973128	0.072986	NaN	0.000000	0.001691	0.001751	28.0839	0.092529	0.002001	46.2428	29.9926	12.9631	0.052044	0.971742	-0.132752	-0.134121	0.072986	46.2428	-0.133936	-9.077040	-0.008041	NaN
1025	1.000000	0.983124	7.37508e+06	-51389.1	1055.82	-29752.4	0.000000	0.000000	6.983142	0.087719	NaN	0.000000	0.001678	0.001741	28.0824	0.049006	0.002072	23.6513	-85.0825	-164.909	0.071316	0.981786	-0.122739	-0.124077	0.087719	23.6513	-0.125521	-6.227133	-0.014087	NaN
1025	1.000000	0.993116	7.37508e+06	-51389.1	1055.82	-29752.4	0.000000	0.000000	6.993132	0.046633	NaN	0.000000	0.001681	0.001766	28.0828	0.073528	0.001985	37.0429	69.8938	11.7421	-0.052860	0.991784	-0.112747	-0.114079	0.046633	37.0429	-0.113691	-3.589624	-0.012991	NaN
1025	1.000000	1.003140	7.37508e+06	-51389.1	1055.82	-29752.4	0.000000	0.000000	7.003152	-0.034695	NaN	0.000000	0.001702	0.001757	28.0823	0.065942	0.001903	34.6586	59.0255	-171.271	0.064544	1.001810	-0.102724	-0.104053	-0.034695	34.6586	-0.101973	-2.019685	0.017179	NaN
1025	1.000000	1.013150	7.37508e+06	-51389.1	1055.82	-29752.4	0.000000	0.000000	7.013165	0.033596	NaN	0.000000	0.001686	0.001775	28.0825	0.030509	0.002011	15.1678	129.987	14.272	0.084411	1.011795	-0.092714	-0.094068	0.033596	15.1678	-0.094375	-1.365035	-0.024612	NaN
1025	1.000000	1.023138	7.37508e+06	-51389.1	1055.82	-29752.4	0.000000	0.000000	7.023148	-0.065206	NaN	0.000000	0.001694	0.001725	28.0822	0.034961	0.001961	17.8308	23.1109	-165.736	-0.024542	1.021816	-0.082726	-0.084048	-0.065206	17.8308	-0.079983	-0.618394	0.105445	NaN
1025	1.000000	1.033130	7.37508e+06	-51389.1	1055.82	-29752.4	0.000000	0.000000	7.033144	0.010929	NaN	0.000000	0.001608	0.001759	28.0822	0.044029	0.001998	22.0404	89.7106	13.1324	-0.062749	1.031723	-0.072733	-0.074141	0.010929	22.0404	-0.073105	-0.412268	-0.026510	NaN
1025	1.000000	1.043143	7.37508e+06	-51389.1	1055.82	-29752.4	0.000000	0.000000	7.043161	0.106441	NaN	0.000000	0.001614	0.001736	28.082	0.054169	0.001943	27.8721	49.8469	-166.066	-0.020110	1.041846	-0.062721	-0.064017	0.106441	27.8721	-0.065585	-0.258682	-0.411474	NaN
1025	1.000000	1.053135	7.37508e+06	-51389.1	1055.82	-29752.4	0.000000	0.000000	7.053149	0.027278	NaN	0.000000	0.001636	0.001730	28.0824	0.037923	0.002197	17.2635	41.1146	13.9722	0.036589	1.051811	-0.052729	-0.054053	0.027278	17.2635	-0.053914	-0.119576	-0.228122	NaN
1025	1.000000	1.063134	7.37508e+06	-51389.1	1055.82	-29752.4	0.000000	0.000000	7.063152	0.085640	NaN	0.000000	0.001636	0.001735	28.082	0.048681	0.002149	22.6567	156.403	-165.149	0.049527	1.061809	-0.042729	-0.044054	0.085640	22.6567	-0.045564	-0.066871	-1.280680	NaN
1025	1.000000	1.073172	7.37508e+06	-51389.1	1055.82	-29752.4	0.000000	0.000000	7.073187	0.030187	NaN	0.000000	0.001621	0.001711	28.0819	0.039664	0.001972	20.109	9.499735	15.0085	0.054535	1.071816	-0.032692	-0.034047	0.030187	20.109	-0.033817	-0.029569	-1.020903	NaN
1025	1.000000	1.083190	7.37508e+06	-51389.1	1055.82	-29752.4	0.000000	0.000000	7.083207	0.064044	NaN	0.000000	0.001610	0.001713	28.0819	0.084993	0.001986	42.7956	22.7486	-168.069	0.030796	1.081865	-0.022673	-0.023999	0.064044	42.7956	-0.023795	-0.015699	-4.079619	NaN
1025	1.000000	1.093160	7.37508e+06	-51389.1	1055.82	-29752.4	0.000000	0.000000	7.093175	0.041552	NaN	0.000000	0.001610	0.001743	28.082	0.057347	0.002082	27.5447	-47.5014	14.6952	0.057022	1.091767	-0.012703	-0.014097	0.041552	27.5447	-0.013835	-0.008587	-4.839127	NaN
1025	1.000000	1.103173	7.37508e+06	-51389.1	1055.82	-29752.4	0.000000	0.000000	7.103209	0.542677	NaN	0.000000	0.001626	0.001724	28.0822	0.783870	0.001970	397.896	20.0639	-165.198	0.113160	1.101871	-0.002691	-0.003992	0.542677	397.896	-0.003714	-0.002592	-209.33	NaN
1025	2.000000	1.112234	7.37508e+06	-51389.1	1055.82	-29752.4	0.000000	0.000000	7.112604	8.654431	NaN	0.000000	0.001624	0.001745	28.0822	8.680399	0.001673	5188.6	12.969	4.670355	9.055649	1.111573	0.006371	0.005710	8.654431	5188.6	0.005120	0.004243	2039.71	72776.1
1025	2.000000	1.114751	7.37508e+06	-51389.1	1055.82	-29752.4	0.000000	0.000000	7.115219	11.0394	NaN	0.000000	0.001595	0.001735	28.0833	11.2966	0.001761	6416.68	6.640302	-172.189	11.233	1.114501	0.008888	0.008638	11.0394	6416.68	0.007597	0.006631	1664.71	71991.4
1025	2.000000	1.117270	7.37508e+06	-51389.1	1055.82	-29752.4	0.000000	0.000000	7.117887	14.6729	NaN	0.000000	0.001615	0.001719	28.0833	13.9433	0.001709	8160.13	9.075778	2.362514	14.7304	1.116856	0.011407	0.010993	14.6729	8160.13	0.010058	0.009246	1586.94	77534
1025	2.000000	1.119731	7.37508e+06	-51389.1	1055.82	-29752.4	0.000000	0.000000	7.120533	19.1779	NaN	0.000000	0.001611	0.001710	28.0834	16.1864	0.001764	9174.45	4.320629	-173.488	19.0565	1.119350	0.013867	0.013486	19.1779	9174.45	0.012299	0.011851	1618.3	76998.7
1025	2.000000	1.122164	7.37508e+06	-51389.1	1055.82	-29752.4	0.000000	0.000000	7.123118	22.8789	NaN	0.000000	0.001567	0.001743	28.0833	18.5833	0.001651	11253.5	2.116748	6.744934	22.2778	1.121819	0.016300	0.015956	22.8789	11253.5	0.014775	0.014987	1526.58	83985.4
1025	2.000000	1.124720	7.37508e+06	-51389.1	1055.82	-29752.4	0.000000	0.000000	7.125796	25.84	NaN	0.000000	0.001569	0.001727	28.0834	21.7561	0.001716	12682	3.607101	-176.268	26.7997	1.124401	0.018857	0.018538	25.84	12682	0.017328	0.018517	1395.49	85148.4
1025	2.000000	1.127208	7.37508e+06	-51389.1	1055.82	-29752.4	0.000000	0.000000	7.128696	35.8504	NaN	0.000000	0.001586	0.001754	28.0834	23.8741	0.001763	13538.4	1.258163	5.696048	34.845	1.126887	0.021345	0.021024	35.8504	13538.4	0.019359	0.021544	1664.02	84269.9
1025	2.000000	1.129687	7.37508e+06	-51389.1	1055.82	-29752.4	0.000000	0.000000	7.131342	39.9282	NaN	0.000000	0.001603	0.001758	28.0838	26.6056	0.001744	15254.2	6.547897	178.929	39.6046	1.129349	0.023823	0.023486	39.9282	15254.2	0.021860	0.025550	1562.74	87190
1025	2.000000	1.132143	7.37508e+06	-51389.1	1055.82	-29752.4	0.000000	0.000000	7.134105	47.3844	NaN	0.000000	0.001574	0.001757	28.0833	29.2	0.001833	15927.7	8.703486	-3.200396	45.1124	1.131815	0.026280	0.025952	47.3844	15927.7	0.024048	0.029307	1616.83	85004
1025	2.000000	1.134656	7.37508e+06	-51389.1	1055.82	-29752.4	0.000000	0.000000	7.136918	54.6698	NaN	0.000000	0.001631	0.001697	28.0833	31.0721	0.001816	17106.9	5.580255	179.409	53.9911	1.134382	0.028793	0.028519	54.6698	17106.9	0.026396	0.033604	1626.88	85260.9
1025	2.000000	1.137182	7.37508e+06	-51389.1	1055.82	-29752.4	0.000000	0.000000	7.139905	65.883	NaN	0.000000	0.001635	0.001719	28.0835	32.4581	0.001864	17416.9	5.579395	0.641808	64.9681	1.136720	0.031318	0.030856	65.883	17416.9	0.028481	0.037655	1749.66	82004
1025	2.000000	1.139640	7.37508e+06	-51389.1	1055.82	-29752.4	0.000000	0.000000	7.142618	72.0632	NaN	0.000000	0.001621	0.001719	28.0832	37.3671	0.001823	20494.3	10.9396	171.69	69.9725	1.139282	0.033777	0.033419	72.0632	20494.3	0.031140	0.043139	1670.48	90150.8
1025	2.000000	1.142121	7.37508e+06	-51389.1	1055.82	-29752.4	0.000000	0.000000	7.145498	81.7706	NaN	0.000000	0.001605	0.001718	28.0834	40.4529	0.001799	22491.5	3.372337	-1.278165	79.8766	1.141847	0.036258	0.035984	81.7706	22491.5	0.033531	0.048381	1690.13	93422.9
1025	2.000000	1.144617	7.37508e+06	-51389.1	1055.82	-29752.4	0.000000	0.000000	7.148594	96.3553	NaN	0.000000	0.001606	0.001718	28.0832	43.2919	0.001903	22745.6	4.727810	177.911	94.3522	1.144287	0.038754	0.038424	96.3553	22745.6	0.035577	0.053098	1814.68	90184.9
1025	2.000000	1.147179	7.37508e+06	-51389.1	1055.82	-29752.4	0.000000	0.000000	7.151662	108.68	NaN	0.000000	0.001633	0.001695	28.0821	44.9699	0.001780	25263.2	5.180165	-3.226160	109.516	1.146787	0.041316	0.040923	108.68	25263.2	0.038089	0.059184	1836.31	94876.7
1025	2.000000	1.149649	7.37508e+06	-51389.1	1055.82	-29752.4	0.000000	0.000000	7.154693	122.314	NaN	0.000000	0.001633	0.001700	28.0823	47.4034	0.001832	25878.4	8.733882	173.326	122.551	1.149323	0.043786	0.043460	122.314	25878.4	0.040241	0.064652	1891.87	92986
1025	2.000000	1.152095	7.37508e+06	-51389.1	1055.82	-29752.4	0.000000	0.000000	7.157806	138.549	NaN	0.000000	0.001643	0.001716	28.0822	48.8989	0.001809	27032.2	3.129313	-0.981728	135.053	1.151699	0.046232	0.045836	138.549	27032.2	0.042388	0.070344	1969.58	93119.3
1025	2.000000	1.154648	7.37508e+06	-51389.1	1055.82	-29752.4	0.000000	0.000000	7.160576	143.815	NaN	0.000000	0.001647	0.001728	28.0826	52.4352	0.001793	29241.1	5.863660	174.283	144.672	1.154287	0.048784	0.048424	143.815	29241.1	0.045096	0.077859	1847.13	95744.2
1025	2.000000	1.157164	7.37508e+06	-51389.1	1055.82	-29752.4	0.000000	0.000000	7.163613	156.481	NaN	0.000000	0.001649	0.001679	28.0823	53.9656	0.001790	30155.5	2.846693	-2.566249	153.984	1.156671	0.051300	0.050808	156.481	30155.5	0.047409	0.084572	1850.26	94738.6
1025	2.000000	1.159607	7.37508e+06	-51389.1	1055.82	-29752.4	0.000000	0.000000	7.166552	168.563	NaN	0.000000	0.001653	0.001708	28.0823	56.5653	0.001723	32826.3	5.835399	173.281	169.337	1.159300	0.053743	0.053436	168.563	32826.3	0.049892	0.092080	1830.62	98835.4
1025	2.000000	1.162098	7.37508e+06	-51389.1	1055.82	-29752.4	0.000000	0.000000	7.169457	178.616	NaN	0.000000	0.001625	0.001733	28.0821	58.9727	0.001813	32521.1	5.399747	-5.734514	176.935	1.161709	0.056235	0.055846	178.616	32521.1	0.052116	0.099065	1803.02	94401.5
1025	2.000000	1.164613	7.37508e+06	-51389.1	1055.82	-29752.4	0.000000	0.000000	7.172350	187.815	NaN	0.000000	0.001600	0.001725	28.0825	61.49	0.001824	33702.7	2.712493	176.356	187.937	1.164304	0.058749	0.058441	187.815	33702.7	0.054570	0.107060	1754.31	94107.8
1025	2.000000	1.167152	7.37508e+06	-51389.1	1055.82	-29752.4	0.000000	0.000000	7.175500	202.686	NaN	0.000000	0.001638	0.001767	28.082	63.3705	0.001730	36632.2	4.678555	-6.044406	201.888	1.166739	0.061288	0.060876	202.686	36632.2	0.057138	0.115747	1751.1	98374.1
1025	2.000000	1.169588	7.37508e+06	-51389.1	1055.82	-29752.4	0.000000	0.000000	7.178455	215.28	NaN	0.000000	0.001653	0.001782	28.0822	65.031	0.001689	38506.4	1.775268	175.616	213.552	1.169355	0.063725	0.063492	215.28	38506.4	0.059532	0.124134	1734.25	99852.8
1025	2.000000	1.172038	7.37508e+06	-51389.1	1055.82	-29752.4	0.000000	0.000000	7.181619	232.646	NaN	0.000000	0.001641	0.001769	28.082	67.4707	0.001909	35352.6	1.569539	-2.905495	227.063	1.171747	0.066174	0.065884	232.646	35352.6	0.061239	0.130287	1785.64	89483.6
1025	2.000000	1.174632	7.37508e+06	-51389.1	1055.82	-29752.4	0.000000	0.000000	7.184966	250.955	NaN	0.000000	0.001637	0.001757	28.0821	69.8298	0.001869	37360.2	4.885832	174.66	251.552	1.174205	0.068768	0.068342	250.955	37360.2	0.063730	0.139524	1798.65	91381.5
1025	2.000000	1.177089	7.37508e+06	-51389.1	1055.82	-29752.4	0.000000	0.000000	7.187771	259.431	NaN	0.000000	0.001624	0.001748	28.0818	71.0205	0.001785	39796.6	2.483412	-4.201555	254.922	1.176773	0.071225	0.070910	259.431	39796.6	0.066336	0.149504	1735.28	94035.7
1025	2.000000	1.179564	7.37508e+06	-51389.1	1055.82	-29752.4	0.000000	0.000000	7.190957	276.705	NaN	0.000000	0.001622	0.001747	28.082	74.1776	0.001714	43269.9	2.882767	174.014	275.59	1.179318	0.073700	0.073455	276.705	43269.9	0.068904	0.159659	1733.1	98937.9
1025	2.000000	1.182159	7.37508e+06	-51389.1	1055.82	-29752.4	0.000000	0.000000	7.193892	284.978	NaN	0.000000	0.001617	0.001750	28.0835	77.9081	0.001731	44999	5.651772	-8.804735	287.323	1.181833	0.076296	0.075970	284.978	44999	0.071546	0.170435	1672.07	99585.7
1025	2.000000	1.184519	7.37508e+06	-51389.1	1055.82	-29752.4	0.000000	0.000000	7.196928	301.43	NaN	0.000000	0.001620	0.001782	28.0834	80.2447	0.001810	44340.1	3.271436	173.237	296.791	1.184346	0.078655	0.078482	301.43	44340.1	0.073557	0.178856	1685.32	95789.5
1025	2.000000	1.187031	7.37508e+06	-51389.1	1055.82	-29752.4	0.000000	0.000000	7.200426	325.406	NaN	0.000000	0.001659	0.001784	28.0833	83.1824	0.001831	45435.4	10.4444	-13.516	318.561	1.186629	0.081167	0.080765	325.406	45435.4	0.075796	0.188460	1726.65	95621.9
1025	2.000000	1.189520	7.37508e+06	-51389.1	1055.82	-29752.4	0.000000	0.000000	7.203430	337.899	NaN	0.000000	0.001646	0.001809	28.0834	83.8718	0.001791	46828.6	4.603475	172.069	333.666	1.189281	0.083657	0.083417	337.899	46828.6	0.078245	0.199236	1695.97	95851.8
1025	2.000000	1.192100	7.37508e+06	-51389.1	1055.82	-29752.4	0.000000	0.000000	7.206703	354.775	NaN	0.000000	0.001650	0.001846	28.0836	87.6277	0.001727	50751.1	5.519998	-9.889299	353.016	1.191760	0.086236	0.085896	354.775	50751.1	0.080993	0.211659	1676.16	100786
1025	2.000000	1.194638	7.37508e+06	-51389.1	1055.82	-29752.4	0.000000	0.000000	7.209483	360.661	NaN	0.000000	0.001605	0.001814	28.0834	90.1247	0.001799	50099.8	2.893221	172.701	362.262	1.194442	0.088774	0.088578	360.661	50099.8	0.083375	0.222712	1619.41	96992.3
1025	2.000000	1.196981	7.37508e+06	-51389.1	1055.82	-29752.4	0.000000	0.000000	7.213147	392.769	NaN	0.000000	0.001607	0.001778	28.0835	90.3436	0.001840	49099.5	-0.485726	-2.955184	385.798	1.196692	0.091117	0.090828	392.769	49099.5	0.085118	0.230963	1700.57	93342.4
1025	2.000000	1.199572	7.37508e+06	-51389.1	1055.82	-29752.4	0.000000	0.000000	7.216262	405.515	NaN	0.000000	0.001638	0.001791	28.0835	93.4249	0.001893	49361.8	2.519804	173.494	405.782	1.199428	0.093709	0.093565	405.515	49361.8	0.087547	0.242703	1670.83	91543.4
1025	2.000000	1.201950	7.37508e+06	-51389.1	1055.82	-29752.4	0.000000	0.000000	7.219666	430.471	NaN	0.000000	0.001575	0.001801	28.0837	95.2265	0.001834	51930	2.721104	-6.517421	421.749	1.201540	0.096086	0.095677	430.471	51930	0.089869	0.254177	1693.59	94107.4
1025	2.000000	1.204548	7.37508e+06	-51389.1	1055.82	-29752.4	0.000000	0.000000	7.222855	444.825	NaN	0.000000	0.001613	0.001800	28.0837	97.8116	0.001863	52503.6	4.916905	171.071	442.555	1.204237	0.098685	0.098374	444.825	52503.6	0.092331	0.266607	1668.46	92902.2
1025	2.000000	1.206970	7.37508e+06	-51389.1	1055.82	-29752.4	0.000000	0.000000	7.226045	463.497	NaN	0.000000	0.001607	0.001812	28.0835	99.028	0.001787	55413.7	4.504797	-9.032211	454.537	1.206700	0.101107	0.100837	463.497	55413.7	0.094834	0.279535	1658.1	95757.3
1025	2.000000	1.209518	7.37508e+06	-51389.1	1055.82	-29752.4	0.000000	0.000000	7.229600	487.998	NaN	0.000000	0.001621	0.001800	28.0839	101.535	0.001708	59463	7.728776	167.292	486.26	1.209200	0.103655	0.103336	487.998	59463	0.097499	0.293616	1662.03	100261
1025	2.000000	1.210617	7.37508e+06	-51389.1	1055.82	-29752.4	0.000000	0.000000	7.231099	497.721	NaN	0.000000	0.001669	0.001804	28.0834	102.734	0.001758	58431.5	7.856659	168.527	499.278	1.210117	0.104753	0.104254	497.721	58431.5	0.098365	0.298257	1668.76	97751.9