File: remote_trans/data/nanoindenter/0828-1/data/Data_2025-08-06,11h17m57s/2025-07-22_16-23-58_1_678.txt
2025-07-22, 16:23:58, 1
Index	Phase	Displacement	Time	Pos X	Pos Y	Pos Z	Rot A	Rot B	Piezo Z	Force A	Force B	Gripper	Voltage A	Voltage B	Temperature	Amplitude force	Amplitude pos	Stiffness	Phase shift	Phase excitation	Force A raw	Displacement raw	HMax	HMax raw	Real Force	Real Stiffness	Contact Depth	Area	Hardness	Reduced Mod.
[#]	[#]	[um]	[s]	[um]	[um]	[um]	[m°]	[m°]	[um]	[uN]	[uN]	[V]	[V]	[V]	[°C]	[uN]	[um]	[N/m]	[°]	[°]	[uN]	[um]	[um]	[um]	[uN]	[N/m]	[um]	[um^2]	[MPa]	[MPa]
678	1.000000	0.002974	7.37168e+06	-43189.1	1005.82	-29780	0.000000	0.000000	6.002798	0.003662	NaN	0.000000	0.001591	0.001755	28.0826	0.073042	0.000887	82.3154	-64.2262	-167.607	-0.038076	0.001662	-1.091304	-1.092616	0.003662	82.3154	-1.091337	-3.835029E+14	-9.548020E-18	NaN
678	1.000000	0.010952	7.37168e+06	-43189.1	1005.82	-29780	0.000000	0.000000	6.010774	-0.048255	NaN	0.000000	0.001566	0.001791	28.0823	0.039695	0.000921	43.0918	-99.959	-160.969	0.003093	0.009620	-1.083326	-1.084657	-0.048255	43.0918	-1.082486	-2.916800E+14	1.654388E-16	NaN
678	1.000000	0.018927	7.37168e+06	-43189.1	1005.82	-29780	0.000000	0.000000	6.018750	-0.019472	NaN	0.000000	0.001634	0.001773	28.0822	0.154559	0.001736	89.0149	-4.993479	-165.114	0.057170	0.017676	-1.075350	-1.076601	-0.019472	89.0149	-1.075186	-2.327354E+14	8.366578E-17	NaN
678	1.000000	0.026968	7.37168e+06	-43189.1	1005.82	-29780	0.000000	0.000000	6.026793	0.015583	NaN	0.000000	0.001638	0.001779	28.0812	0.025392	0.001786	14.2164	76.4462	-162.626	0.059519	0.025572	-1.067310	-1.068706	0.015583	14.2164	-1.068132	-1.871064E+14	-8.328436E-17	NaN
678	1.000000	0.034940	7.37168e+06	-43189.1	1005.82	-29780	0.000000	0.000000	6.034766	0.052298	NaN	0.000000	0.001640	0.001754	28.0812	0.061324	0.001801	34.0446	-16.7699	-164.132	0.025755	0.033602	-1.059338	-1.060676	0.052298	34.0446	-1.060490	-1.477096E+14	-3.540615E-16	NaN
678	1.000000	0.042911	7.37168e+06	-43189.1	1005.82	-29780	0.000000	0.000000	6.042737	0.032863	NaN	0.000000	0.001625	0.001773	28.0813	0.040323	0.001945	20.7348	-158.464	-164.693	0.070687	0.041639	-1.051366	-1.052639	0.032863	20.7348	-1.052555	-1.155466E+14	-2.844103E-16	NaN
678	1.000000	0.050952	7.37168e+06	-43189.1	1005.82	-29780	0.000000	0.000000	6.050776	-0.008115	NaN	0.000000	0.001674	0.001780	28.0811	0.046736	0.001989	23.499	81.2232	-165.64	-0.030767	0.049630	-1.043325	-1.044647	-0.008115	23.499	-1.043066	-8.613807E+13	9.421172E-17	NaN
678	1.000000	0.058913	7.37168e+06	-43189.1	1005.82	-29780	0.000000	0.000000	6.058738	0.025280	NaN	0.000000	0.001643	0.001794	28.0812	0.020355	0.002022	10.0679	51.6611	-164.324	0.020033	0.057640	-1.035365	-1.036637	0.025280	10.0679	-1.037248	-7.193795E+13	-3.514130E-16	NaN
678	1.000000	0.066899	7.37168e+06	-43189.1	1005.82	-29780	0.000000	0.000000	6.066725	0.036362	NaN	0.000000	0.001660	0.001768	28.0813	0.052824	0.001934	27.3161	-20.9299	-161.813	-0.043192	0.065633	-1.027378	-1.028644	0.036362	27.3161	-1.028377	-5.465706E+13	-6.652840E-16	NaN
678	1.000000	0.074951	7.37168e+06	-43189.1	1005.82	-29780	0.000000	0.000000	6.074774	-0.018791	NaN	0.000000	0.001701	0.001765	28.0813	0.085408	0.002057	41.5194	106.905	-163.955	-0.005564	0.073644	-1.019327	-1.020634	-0.018791	41.5194	-1.018987	-4.086255E+13	4.598559E-16	NaN
678	1.000000	0.082956	7.37168e+06	-43189.1	1005.82	-29780	0.000000	0.000000	6.082778	-0.035566	NaN	0.000000	0.001676	0.001736	28.0813	0.049276	0.001898	25.9686	-77.1528	-165.063	-0.040454	0.081632	-1.011322	-1.012646	-0.035566	25.9686	-1.010295	-3.121409E+13	1.139412E-15	NaN
678	1.000000	0.090932	7.37168e+06	-43189.1	1005.82	-29780	0.000000	0.000000	6.090755	-0.029502	NaN	0.000000	0.001690	0.001778	28.0813	0.128677	0.001970	65.3346	125.141	-163.646	0.009149	0.089631	-1.003345	-1.004647	-0.029502	65.3346	-1.003007	-2.490264E+13	1.184704E-15	NaN
678	1.000000	0.098959	7.37168e+06	-43189.1	1005.82	-29780	0.000000	0.000000	6.098782	-0.037479	NaN	0.000000	0.001677	0.001755	28.0811	0.020921	0.001981	10.5597	-40.8837	-162.468	-0.066943	0.097626	-0.995318	-0.996651	-0.037479	10.5597	-0.992656	-1.806707E+13	2.074426E-15	NaN
678	1.000000	0.106967	7.37168e+06	-43189.1	1005.82	-29780	0.000000	0.000000	6.106789	-0.042690	NaN	0.000000	0.001712	0.001806	28.0812	0.066634	0.002025	32.8994	-174.622	-164.114	0.013275	0.105617	-0.987310	-0.988661	-0.042690	32.8994	-0.986337	-1.485183E+13	2.874389E-15	NaN
678	1.000000	0.114957	7.37168e+06	-43189.1	1005.82	-29780	0.000000	0.000000	6.114778	-0.054526	NaN	0.000000	0.001709	0.001767	28.0811	0.048554	0.001948	24.9219	170.974	-165.238	-0.006073	0.113633	-0.979321	-0.980644	-0.054526	24.9219	-0.977680	-1.135416E+13	4.802273E-15	NaN
678	1.000000	0.122934	7.37168e+06	-43189.1	1005.82	-29780	0.000000	0.000000	6.122754	-0.093411	NaN	0.000000	0.001695	0.001754	28.0814	0.061083	0.001944	31.4194	18.1239	-166.037	-0.019313	0.121623	-0.971344	-0.972654	-0.093411	31.4194	-0.969114	-8.704086E+12	1.073181E-14	NaN
678	1.000000	0.130949	7.37168e+06	-43189.1	1005.82	-29780	0.000000	0.000000	6.130775	0.050271	NaN	0.000000	0.001615	0.001758	28.0816	0.082608	0.002054	40.219	72.9105	-163.734	-0.028196	0.129658	-0.963329	-0.964620	0.050271	40.219	-0.964266	-7.488301E+12	-6.713309E-15	NaN
678	1.000000	0.138967	7.37168e+06	-43189.1	1005.82	-29780	0.000000	0.000000	6.138792	0.014422	NaN	0.000000	0.001605	0.001780	28.0813	0.021610	0.001940	11.1379	-136.121	-166.117	0.010434	0.137670	-0.955310	-0.956608	0.014422	11.1379	-0.956282	-5.844330E+12	-2.467637E-15	NaN
678	1.000000	0.146983	7.37168e+06	-43189.1	1005.82	-29780	0.000000	0.000000	6.146807	-0.012860	NaN	0.000000	0.001602	0.001753	28.0811	0.015691	0.002019	7.769969	151.612	-164.262	-0.087485	0.145586	-0.947295	-0.948691	-0.012860	7.769969	-0.946053	-4.253974E+12	3.023115E-15	NaN
678	1.000000	0.154965	7.37168e+06	-43189.1	1005.82	-29780	0.000000	0.000000	6.154790	0.035421	NaN	0.000000	0.001689	0.001754	28.0813	0.031080	0.001928	16.123	-86.8863	-165.289	0.048482	0.153661	-0.939313	-0.940617	0.035421	16.123	-0.940960	-3.631562E+12	-9.753544E-15	NaN
678	1.000000	0.162933	7.37168e+06	-43189.1	1005.82	-29780	0.000000	0.000000	6.162754	-0.063125	NaN	0.000000	0.001669	0.001737	28.0824	0.004564	0.002035	2.242369	-114.01	-165.625	0.027482	0.161651	-0.931345	-0.932626	-0.063125	2.242369	-0.910232	-1.397312E+12	4.517591E-14	NaN
678	1.000000	0.170977	7.37168e+06	-43189.1	1005.82	-29780	0.000000	0.000000	6.170798	-0.066482	NaN	0.000000	0.001673	0.001750	28.0824	0.134335	0.001920	69.9566	167.12	-165.029	-0.080483	0.169687	-0.923301	-0.924591	-0.066482	69.9566	-0.922588	-2.051846E+12	3.240105E-14	NaN
678	1.000000	0.178978	7.37168e+06	-43189.1	1005.82	-29780	0.000000	0.000000	6.178802	0.003942	NaN	0.000000	0.001637	0.001737	28.0825	0.020744	0.002065	10.046	31.3147	-162.471	-0.022062	0.177689	-0.915300	-0.916588	0.003942	10.046	-0.915594	-1.650867E+12	-2.387636E-15	NaN
678	1.000000	0.186982	7.37168e+06	-43189.1	1005.82	-29780	0.000000	0.000000	6.186806	0.006069	NaN	0.000000	0.001645	0.001734	28.0822	0.070530	0.001958	36.0183	7.400260	-161.583	-0.026716	0.185710	-0.907296	-0.908567	0.006069	36.0183	-0.907422	-1.280381E+12	-4.740226E-15	NaN
678	1.000000	0.194988	7.37168e+06	-43189.1	1005.82	-29780	0.000000	0.000000	6.194811	-0.015678	NaN	0.000000	0.001744	0.001741	28.0826	0.010985	0.002003	5.483720	-159.925	-163.432	0.019662	0.193660	-0.899290	-0.900618	-0.015678	5.483720	-0.897145	-9.300202E+11	1.685743E-14	NaN
678	1.000000	0.202982	7.37168e+06	-43189.1	1005.82	-29780	0.000000	0.000000	6.202806	-0.006989	NaN	0.000000	0.001702	0.001721	28.0824	0.057150	0.002036	28.0751	41.0855	-165.077	-0.024064	0.201671	-0.891295	-0.892607	-0.006989	28.0751	-0.891108	-7.707239E+11	9.067839E-15	NaN
678	1.000000	0.210989	7.37168e+06	-43189.1	1005.82	-29780	0.000000	0.000000	6.210813	0.002266	NaN	0.000000	0.001706	0.001760	28.0822	0.093418	0.002143	43.5947	41.2617	-165.864	-0.069222	0.209675	-0.883289	-0.884602	0.002266	43.5947	-0.883328	-6.049374E+11	-3.745446E-15	NaN
678	1.000000	0.218962	7.37168e+06	-43189.1	1005.82	-29780	0.000000	0.000000	6.218785	-0.021691	NaN	0.000000	0.001728	0.001762	28.0823	0.063085	0.001924	32.7898	9.505273	-162.719	-0.051376	0.217687	-0.875316	-0.876591	-0.021691	32.7898	-0.874820	-4.641376E+11	4.673340E-14	NaN
678	1.000000	0.226998	7.37168e+06	-43189.1	1005.82	-29780	0.000000	0.000000	6.226822	-0.011219	NaN	0.000000	0.001703	0.001756	28.0825	0.045885	0.001920	23.8987	-101.845	-163.867	-0.071842	0.225651	-0.867279	-0.868626	-0.011219	23.8987	-0.866927	-3.629678E+11	3.090838E-14	NaN
678	1.000000	0.235000	7.37168e+06	-43189.1	1005.82	-29780	0.000000	0.000000	6.234826	0.042160	NaN	0.000000	0.001685	0.001764	28.0827	0.072226	0.002086	34.6222	66.359	-165.405	0.001308	0.233667	-0.859278	-0.860611	0.042160	34.6222	-0.860191	-2.942417E+11	-1.432836E-13	NaN
678	1.000000	0.242993	7.37168e+06	-43189.1	1005.82	-29780	0.000000	0.000000	6.242819	0.045318	NaN	0.000000	0.001688	0.001743	28.0822	0.084518	0.002121	39.8538	38.2155	-162.461	-0.034720	0.241692	-0.851285	-0.852586	0.045318	39.8538	-0.852138	-2.289186E+11	-1.979644E-13	NaN
678	1.000000	0.250993	7.37168e+06	-43189.1	1005.82	-29780	0.000000	0.000000	6.250813	-0.109516	NaN	0.000000	0.001663	0.001768	28.0822	0.103810	0.002071	50.1213	108.978	-168.055	0.006382	0.249692	-0.843285	-0.844585	-0.109516	50.1213	-0.841646	-1.650397E+11	6.635732E-13	NaN
678	1.000000	0.259002	7.37168e+06	-43189.1	1005.82	-29780	0.000000	0.000000	6.258825	-0.036692	NaN	0.000000	0.001702	0.001717	28.0819	0.064643	0.001978	32.6811	-158.899	-162.103	0.029135	0.257665	-0.835275	-0.836613	-0.036692	32.6811	-0.834433	-1.317848E+11	2.784205E-13	NaN
678	1.000000	0.267016	7.37168e+06	-43189.1	1005.82	-29780	0.000000	0.000000	6.266841	0.007391	NaN	0.000000	0.001668	0.001794	28.0823	0.068928	0.001974	34.9261	-28.7628	-163.106	0.016372	0.265669	-0.827261	-0.828608	0.007391	34.9261	-0.827420	-1.058794E+11	-6.980211E-14	NaN
678	1.000000	0.275014	7.37168e+06	-43189.1	1005.82	-29780	0.000000	0.000000	6.274837	-0.021859	NaN	0.000000	0.001710	0.001746	28.0822	0.056371	0.002033	27.7218	-25.0651	-164.861	-0.076890	0.273671	-0.819263	-0.820607	-0.021859	27.7218	-0.818672	-8.057519E+10	2.712908E-13	NaN
678	1.000000	0.283040	7.37168e+06	-43189.1	1005.82	-29780	0.000000	0.000000	6.282863	-0.022844	NaN	0.000000	0.001695	0.001736	28.0824	0.068367	0.001994	34.2918	93.7304	-167.603	-0.034778	0.281748	-0.811237	-0.812530	-0.022844	34.2918	-0.810738	-6.288950E+10	3.632343E-13	NaN
678	1.000000	0.291004	7.37168e+06	-43189.1	1005.82	-29780	0.000000	0.000000	6.290827	-0.021523	NaN	0.000000	0.001664	0.001765	28.0825	0.077874	0.001961	39.7066	136.547	-166.503	-0.013900	0.289749	-0.803274	-0.804528	-0.021523	39.7066	-0.802867	-4.917880E+10	4.376528E-13	NaN
678	1.000000	0.299005	7.37168e+06	-43189.1	1005.82	-29780	0.000000	0.000000	6.298828	-0.022895	NaN	0.000000	0.001704	0.001782	28.0812	0.101280	0.002051	49.3772	-116.813	-161.816	-0.018660	0.297671	-0.795272	-0.796607	-0.022895	49.3772	-0.794925	-3.836696E+10	5.967385E-13	NaN
678	1.000000	0.307036	7.37168e+06	-43189.1	1005.82	-29780	0.000000	0.000000	6.306860	0.006882	NaN	0.000000	0.001688	0.001732	28.0814	0.115958	0.002080	55.7563	-121.287	-166.845	-0.029925	0.305782	-0.787242	-0.788496	0.006882	55.7563	-0.787334	-3.026048E+10	-2.274115E-13	NaN
678	1.000000	0.315015	7.37168e+06	-43189.1	1005.82	-29780	0.000000	0.000000	6.314838	-0.018873	NaN	0.000000	0.001650	0.001720	28.081	0.098517	0.002007	49.0775	117.594	-164.554	0.014035	0.313713	-0.779263	-0.780564	-0.018873	49.0775	-0.778974	-2.329662E+10	8.101155E-13	NaN
678	1.000000	0.323059	7.37168e+06	-43189.1	1005.82	-29780	0.000000	0.000000	6.322882	-0.035890	NaN	0.000000	0.001606	0.001742	28.0812	0.069940	0.001947	35.9155	-95.2085	-162.836	0.029354	0.321683	-0.771218	-0.772595	-0.035890	35.9155	-0.770469	-1.785169E+10	2.010441E-12	NaN
678	1.000000	0.331028	7.37168e+06	-43189.1	1005.82	-29780	0.000000	0.000000	6.330848	-0.105552	NaN	0.000000	0.001602	0.001756	28.0812	0.058390	0.002031	28.7513	-143.194	-164.778	-0.067831	0.329782	-0.763249	-0.764496	-0.105552	28.7513	-0.760496	-1.306310E+10	8.080166E-12	NaN
678	1.000000	0.339056	7.37168e+06	-43189.1	1005.82	-29780	0.000000	0.000000	6.338880	-0.015014	NaN	0.000000	0.001585	0.001763	28.0811	0.080729	0.001968	41.0212	-114.961	-164.818	0.070208	0.337748	-0.755221	-0.756530	-0.015014	41.0212	-0.754947	-1.097859E+10	1.367599E-12	NaN
678	1.000000	0.347051	7.37168e+06	-43189.1	1005.82	-29780	0.000000	0.000000	6.346875	0.000365	NaN	0.000000	0.001605	0.001762	28.0812	0.046874	0.001984	23.6296	-136.487	-165.944	0.029397	0.345757	-0.747227	-0.748521	0.000365	23.6296	-0.747238	-8.622286E+9	-4.234139E-14	NaN
678	1.000000	0.355088	7.37168e+06	-43189.1	1005.82	-29780	0.000000	0.000000	6.354911	-0.020271	NaN	0.000000	0.001625	0.001783	28.081	0.121844	0.002020	60.3288	-30.3754	-166.553	0.037282	0.353713	-0.739189	-0.740565	-0.020271	60.3288	-0.738937	-6.646351E+9	3.050000E-12	NaN
678	1.000000	0.363067	7.37168e+06	-43189.1	1005.82	-29780	0.000000	0.000000	6.362893	0.036990	NaN	0.000000	0.001633	0.001773	28.0812	0.038557	0.002070	18.6229	-158.307	-165.182	-0.001574	0.361731	-0.731210	-0.732547	0.036990	18.6229	-0.732700	-5.465194E+9	-6.768242E-12	NaN
678	1.000000	0.371047	7.37168e+06	-43189.1	1005.82	-29780	0.000000	0.000000	6.370869	-0.069820	NaN	0.000000	0.001657	0.001773	28.0809	0.091567	0.002020	45.3225	-170.918	-164.348	-0.022300	0.369746	-0.723230	-0.724531	-0.069820	45.3225	-0.722075	-3.915322E+9	1.783242E-11	NaN
678	1.000000	0.379061	7.37168e+06	-43189.1	1005.82	-29780	0.000000	0.000000	6.378886	0.032187	NaN	0.000000	0.001590	0.001755	28.0808	0.087982	0.002046	43.0096	-121.252	-164.582	0.046851	0.377770	-0.715217	-0.716508	0.032187	43.0096	-0.715778	-3.212839E+9	-1.001839E-11	NaN
678	1.000000	0.387049	7.37168e+06	-43189.1	1005.82	-29780	0.000000	0.000000	6.386871	-0.052511	NaN	0.000000	0.001622	0.001777	28.0812	0.063397	0.002000	31.7	179.27	-167.032	-0.031071	0.385723	-0.707228	-0.708555	-0.052511	31.7	-0.705986	-2.361899E+9	2.223237E-11	NaN
678	1.000000	0.395037	7.37168e+06	-43189.1	1005.82	-29780	0.000000	0.000000	6.394860	-0.042611	NaN	0.000000	0.001629	0.001739	28.0808	0.097003	0.002052	47.2738	-138.86	-164.381	-0.020387	0.393761	-0.699240	-0.700516	-0.042611	47.2738	-0.698564	-1.870340E+9	2.278228E-11	NaN
678	1.000000	0.403067	7.37168e+06	-43189.1	1005.82	-29780	0.000000	0.000000	6.402892	0.035989	NaN	0.000000	0.001629	0.001755	28.0813	0.102907	0.001969	52.2748	-17.7431	-166.447	0.069358	0.401779	-0.691211	-0.692498	0.035989	52.2748	-0.691727	-1.508413E+9	-2.385891E-11	NaN
678	1.000000	0.411066	7.37168e+06	-43189.1	1005.82	-29780	0.000000	0.000000	6.410889	-0.008035	NaN	0.000000	0.001634	0.001783	28.081	0.050971	0.002107	24.1948	8.746633	-165.459	0.077630	0.409762	-0.683212	-0.684516	-0.008035	24.1948	-0.682963	-1.144779E+9	7.019089E-12	NaN
678	1.000000	0.419090	7.37168e+06	-43189.1	1005.82	-29780	0.000000	0.000000	6.418912	-0.037909	NaN	0.000000	0.001607	0.001745	28.0808	0.070107	0.001921	36.4909	14.9802	-161.882	-0.050026	0.417699	-0.675188	-0.676579	-0.037909	36.4909	-0.674409	-8.744186E+8	4.335371E-11	NaN
678	1.000000	0.427123	7.37168e+06	-43189.1	1005.82	-29780	0.000000	0.000000	6.426947	0.016306	NaN	0.000000	0.001645	0.001715	28.0812	0.115051	0.001975	58.2514	-14.2064	-164.153	-0.005419	0.425748	-0.667155	-0.668529	0.016306	58.2514	-0.667365	-7.003594E+8	-2.328231E-11	NaN
678	1.000000	0.435111	7.37168e+06	-43189.1	1005.82	-29780	0.000000	0.000000	6.434936	0.018271	NaN	0.000000	0.001632	0.001726	28.0822	0.032333	0.002084	15.5161	119.485	-164.511	0.046838	0.433819	-0.659166	-0.660459	0.018271	15.5161	-0.660049	-5.560884E+8	-3.285573E-11	NaN
678	1.000000	0.443077	7.37168e+06	-43189.1	1005.82	-29780	0.000000	0.000000	6.442901	0.006661	NaN	0.000000	0.001645	0.001701	28.083	0.035983	0.001990	18.0822	74.2922	-164.522	0.027856	0.441824	-0.651201	-0.652454	0.006661	18.0822	-0.651477	-4.243082E+8	-1.569842E-11	NaN
678	1.000000	0.451117	7.37168e+06	-43189.1	1005.82	-29780	0.000000	0.000000	6.450940	-0.034374	NaN	0.000000	0.001587	0.001721	28.0822	0.092433	0.002081	44.4207	11.4934	-162.585	-0.006023	0.449816	-0.643161	-0.644461	-0.034374	44.4207	-0.642580	-3.203967E+8	1.072858E-10	NaN
678	1.000000	0.459088	7.37168e+06	-43189.1	1005.82	-29780	0.000000	0.000000	6.458914	0.054693	NaN	0.000000	0.001601	0.001725	28.0825	0.075302	0.002065	36.4684	-69.6069	-163.787	0.001422	0.457722	-0.635190	-0.636555	0.054693	36.4684	-0.636315	-2.628570E+8	-2.080705E-10	NaN
678	1.000000	0.467097	7.37168e+06	-43189.1	1005.82	-29780	0.000000	0.000000	6.466923	0.045943	NaN	0.000000	0.001608	0.001729	28.0825	0.060238	0.001917	31.4192	96.8485	-167.267	0.093340	0.465776	-0.627181	-0.628501	0.045943	31.4192	-0.628277	-2.038753E+8	-2.253503E-10	NaN
678	1.000000	0.475125	7.37168e+06	-43189.1	1005.82	-29780	0.000000	0.000000	6.474949	0.016890	NaN	0.000000	0.001638	0.001725	28.0827	0.073100	0.001996	36.6267	-129.756	-164.92	0.036793	0.473778	-0.619153	-0.620499	0.016890	36.6267	-0.619499	-1.544349E+8	-1.093680E-10	NaN
678	1.000000	0.483103	7.37168e+06	-43189.1	1005.82	-29780	0.000000	0.000000	6.482927	0.019746	NaN	0.000000	0.001593	0.001746	28.0829	0.113571	0.001898	59.8233	-81.6631	-164.204	-0.040123	0.481805	-0.611175	-0.612473	0.019746	59.8233	-0.611423	-1.195874E+8	-1.651204E-10	NaN
678	1.000000	0.491132	7.37168e+06	-43189.1	1005.82	-29780	0.000000	0.000000	6.490955	-0.029939	NaN	0.000000	0.001610	0.001704	28.0826	0.010510	0.002058	5.106334	148.487	-163.526	-0.033684	0.489889	-0.603145	-0.604389	-0.029939	5.106334	-0.598748	-8.002269E+7	3.741340E-10	NaN
678	1.000000	0.499110	7.37168e+06	-43189.1	1005.82	-29780	0.000000	0.000000	6.498938	0.112582	NaN	0.000000	0.001613	0.001750	28.0829	0.024927	0.002201	11.3263	-85.9134	-166.932	0.070007	0.497814	-0.595168	-0.596464	0.112582	11.3263	-0.602623	-9.048557E+7	-1.244195E-9	NaN
678	1.000000	0.507090	7.37168e+06	-43189.1	1005.82	-29780	0.000000	0.000000	6.506914	0.010338	NaN	0.000000	0.001630	0.001730	28.0827	0.063376	0.002092	30.2959	-42.116	-164.579	0.029603	0.505779	-0.587188	-0.588499	0.010338	30.2959	-0.587444	-5.590104E+7	-1.849342E-10	NaN
678	1.000000	0.515132	7.37168e+06	-43189.1	1005.82	-29780	0.000000	0.000000	6.514956	-0.004614	NaN	0.000000	0.001595	0.001696	28.0828	0.181676	0.001965	92.4542	127.961	-164.594	-0.016685	0.513784	-0.579146	-0.580494	-0.004614	92.4542	-0.579108	-4.289606E+7	1.075726E-10	NaN
678	1.000000	0.523104	7.37168e+06	-43189.1	1005.82	-29780	0.000000	0.000000	6.522926	-0.053390	NaN	0.000000	0.001592	0.001721	28.0828	0.102342	0.002009	50.9409	45.9727	-165.453	-0.053743	0.521793	-0.571173	-0.572485	-0.053390	50.9409	-0.570387	-3.250735E+7	1.642401E-9	NaN
678	1.000000	0.531126	7.37168e+06	-43189.1	1005.82	-29780	0.000000	0.000000	6.530952	0.030415	NaN	0.000000	0.001618	0.001713	28.0825	0.106411	0.002116	50.2855	146.914	-164.777	0.032694	0.529775	-0.563151	-0.564503	0.030415	50.2855	-0.563605	-2.619608E+7	-1.161036E-9	NaN
678	1.000000	0.539117	7.37168e+06	-43189.1	1005.82	-29780	0.000000	0.000000	6.538939	-0.033420	NaN	0.000000	0.001623	0.001739	28.0829	0.116389	0.002009	57.9257	154.67	-164.037	-0.111646	0.537825	-0.555161	-0.556453	-0.033420	57.9257	-0.554728	-1.974358E+7	1.692696E-9	NaN
678	1.000000	0.547132	7.37168e+06	-43189.1	1005.82	-29780	0.000000	0.000000	6.546957	0.034266	NaN	0.000000	0.001617	0.001701	28.0827	0.013728	0.002013	6.820923	75.7033	-162.332	-0.007640	0.545831	-0.547146	-0.548446	0.034266	6.820923	-0.550914	-1.748286E+7	-1.960003E-9	NaN
678	1.000000	0.555153	7.37168e+06	-43189.1	1005.82	-29780	0.000000	0.000000	6.554975	-0.054056	NaN	0.000000	0.001590	0.001701	28.083	0.048839	0.001931	25.2894	-176.241	-163.65	-0.048978	0.553835	-0.539125	-0.540442	-0.054056	25.2894	-0.537522	-1.140195E+7	4.740960E-9	NaN
678	1.000000	0.563157	7.37168e+06	-43189.1	1005.82	-29780	0.000000	0.000000	6.562979	-0.037921	NaN	0.000000	0.001635	0.001691	28.0828	0.124176	0.002002	62.0179	-170.546	-164.446	-0.034278	0.561858	-0.531121	-0.532419	-0.037921	62.0179	-0.530662	-9.1574e+06	4.141007E-9	NaN
678	1.000000	0.571097	7.37168e+06	-43189.1	1005.82	-29780	0.000000	0.000000	6.570923	0.031463	NaN	0.000000	0.001607	0.001680	28.0815	0.020672	0.002131	9.702951	169.535	-162.263	-0.044351	0.569810	-0.523180	-0.524468	0.031463	9.702951	-0.525612	-7.79148e+06	-4.038122E-9	NaN
678	1.000000	0.579151	7.37168e+06	-43189.1	1005.82	-29780	0.000000	0.000000	6.578977	0.046377	NaN	0.000000	0.001630	0.001700	28.0815	0.067257	0.001962	34.2841	61.4801	-164.673	0.027776	0.577768	-0.515126	-0.516510	0.046377	34.2841	-0.516141	-5.75319e+06	-8.061036E-9	NaN
678	1.000000	0.587140	7.37168e+06	-43189.1	1005.82	-29780	0.000000	0.000000	6.586965	0.011588	NaN	0.000000	0.001650	0.001686	28.0815	0.081332	0.002003	40.6105	30.326	-168.061	0.013177	0.585871	-0.507137	-0.508406	0.011588	40.6105	-0.507351	-4.34028e+06	-2.669930E-9	NaN
678	1.000000	0.595153	7.37168e+06	-43189.1	1005.82	-29780	0.000000	0.000000	6.594978	0.039626	NaN	0.000000	0.001629	0.001670	28.0817	0.055789	0.001971	28.305	-105.666	-162.679	0.035018	0.593872	-0.499125	-0.500406	0.039626	28.305	-0.500175	-3.44712e+06	-1.149547E-8	NaN
678	1.000000	0.603158	7.37168e+06	-43189.1	1005.82	-29780	0.000000	0.000000	6.602981	-0.015669	NaN	0.000000	0.001625	0.001660	28.0811	0.087267	0.002067	42.2134	113.685	-161.698	-0.013781	0.601832	-0.491120	-0.492446	-0.015669	42.2134	-0.490841	-2.55357e+06	6.135955E-9	NaN
678	1.000000	0.611161	7.37168e+06	-43189.1	1005.82	-29780	0.000000	0.000000	6.610985	-0.009531	NaN	0.000000	0.001615	0.001712	28.0814	0.067436	0.001988	33.9234	12.7649	-161.776	0.017351	0.609835	-0.483116	-0.484443	-0.009531	33.9234	-0.482905	-1.97783e+06	4.818844E-9	NaN
678	1.000000	0.619188	7.37168e+06	-43189.1	1005.82	-29780	0.000000	0.000000	6.619009	-0.068849	NaN	0.000000	0.001632	0.001690	28.0813	0.077308	0.002039	37.9105	156.008	-167.701	-0.033650	0.617913	-0.475090	-0.476365	-0.068849	37.9105	-0.473728	-1.4712e+06	4.679785E-8	NaN
678	1.000000	0.627176	7.37168e+06	-43189.1	1005.82	-29780	0.000000	0.000000	6.627002	0.032621	NaN	0.000000	0.001587	0.001666	28.0813	0.059899	0.001882	31.8352	-105.245	-162.876	0.036729	0.625862	-0.467101	-0.468415	0.032621	31.8352	-0.467870	-1.21766e+06	-2.678960E-8	NaN
678	1.000000	0.635182	7.37168e+06	-43189.1	1005.82	-29780	0.000000	0.000000	6.635007	0.014304	NaN	0.000000	0.001579	0.001708	28.0814	0.090039	0.001958	45.9837	36.703	-167.795	0.021080	0.633884	-0.459095	-0.460393	0.014304	45.9837	-0.459328	-923804	-1.548340E-8	NaN
678	1.000000	0.643172	7.37168e+06	-43189.1	1005.82	-29780	0.000000	0.000000	6.642997	0.021042	NaN	0.000000	0.001628	0.001710	28.0813	0.029543	0.001889	15.6387	-141.118	-164.993	-0.035886	0.641885	-0.451106	-0.452393	0.021042	15.6387	-0.452115	-731342	-2.877216E-8	NaN
678	1.000000	0.651187	7.37168e+06	-43189.1	1005.82	-29780	0.000000	0.000000	6.651013	0.032822	NaN	0.000000	0.001620	0.001687	28.0816	0.103442	0.001909	54.198	-69.7554	-167.663	0.006290	0.649856	-0.443090	-0.444421	0.032822	54.198	-0.443545	-553823	-5.926484E-8	NaN
678	1.000000	0.659184	7.37168e+06	-43189.1	1005.82	-29780	0.000000	0.000000	6.659006	-0.059755	NaN	0.000000	0.001624	0.001704	28.0813	0.078557	0.001932	40.6512	-89.8857	-166.929	-0.023015	0.657912	-0.435093	-0.436365	-0.059755	40.6512	-0.433991	-405970	1.471901E-7	NaN
678	1.000000	0.667181	7.37169e+06	-43189.1	1005.82	-29780	0.000000	0.000000	6.667005	0.020477	NaN	0.000000	0.001590	0.001705	28.0813	0.088535	0.001947	45.4749	-102.665	-167.333	-0.068254	0.665896	-0.427097	-0.428382	0.020477	45.4749	-0.427435	-327913	-6.244491E-8	NaN
678	1.000000	0.675183	7.37169e+06	-43189.1	1005.82	-29780	0.000000	0.000000	6.675004	-0.057820	NaN	0.000000	0.001596	0.001739	28.0813	0.040435	0.002149	18.8134	12.1518	-164.288	-0.115395	0.673894	-0.419095	-0.420383	-0.057820	18.8134	-0.416790	-231668	2.495805E-7	NaN
678	1.000000	0.683203	7.37169e+06	-43189.1	1005.82	-29780	0.000000	0.000000	6.683026	-0.006450	NaN	0.000000	0.001595	0.001688	28.0812	0.082549	0.002008	41.1163	48.2571	-167.136	-0.018398	0.681920	-0.411075	-0.412358	-0.006450	41.1163	-0.410957	-191430	3.369310E-8	NaN
678	1.000000	0.691209	7.37169e+06	-43189.1	1005.82	-29780	0.000000	0.000000	6.691029	-0.084786	NaN	0.000000	0.001611	0.001646	28.0817	0.145916	0.001717	84.9878	-141.627	-167.587	-0.038551	0.689903	-0.403069	-0.404374	-0.084786	84.9878	-0.402321	-144237	5.878264E-7	NaN
678	1.000000	0.699195	7.37169e+06	-43189.1	1005.82	-29780	0.000000	0.000000	6.699021	0.042689	NaN	0.000000	0.001599	0.001684	28.0811	0.087135	0.001978	44.043	-47.8525	-158.21	0.020560	0.697863	-0.395083	-0.396414	0.042689	44.043	-0.395810	-116466	-3.665346E-7	NaN
678	1.000000	0.707181	7.37169e+06	-43189.1	1005.82	-29780	0.000000	0.000000	6.707005	0.018790	NaN	0.000000	0.001559	0.001727	28.0821	0.056671	0.002043	27.743	-115.373	-165.83	0.047819	0.705841	-0.387097	-0.388437	0.018790	27.743	-0.387605	-88897.9	-2.113618E-7	NaN
678	1.000000	0.715221	7.37169e+06	-43189.1	1005.82	-29780	0.000000	0.000000	6.715044	-0.028077	NaN	0.000000	0.001616	0.001691	28.0823	0.129389	0.002120	61.0418	58.8476	-166.523	0.069337	0.713929	-0.379056	-0.380348	-0.028077	61.0418	-0.378711	-66281.1	4.236107E-7	NaN
678	1.000000	0.723179	7.37169e+06	-43189.1	1005.82	-29780	0.000000	0.000000	6.723003	0.011030	NaN	0.000000	0.001609	0.001710	28.0823	0.045302	0.001873	24.1922	-15.0244	-165.608	0.050217	0.721918	-0.371099	-0.372360	0.011030	24.1922	-0.371441	-52103.7	-2.117025E-7	NaN
678	1.000000	0.731247	7.37169e+06	-43189.1	1005.82	-29780	0.000000	0.000000	6.731070	-0.005879	NaN	0.000000	0.001603	0.001679	28.083	0.054350	0.001968	27.6139	137.454	-165.914	0.063351	0.729901	-0.363031	-0.364376	-0.005879	27.6139	-0.362871	-39203.7	1.499510E-7	NaN
678	1.000000	0.739217	7.37169e+06	-43189.1	1005.82	-29780	0.000000	0.000000	6.739042	0.026480	NaN	0.000000	0.001607	0.001688	28.0823	0.048565	0.002030	23.9223	-151.285	-166.806	0.055304	0.737905	-0.355061	-0.356373	0.026480	23.9223	-0.355891	-31074.4	-8.521352E-7	NaN
678	1.000000	0.747220	7.37169e+06	-43189.1	1005.82	-29780	0.000000	0.000000	6.747042	-0.052246	NaN	0.000000	0.001587	0.001729	28.0824	0.023521	0.001992	11.8072	-24.0195	-163.55	-0.033929	0.745899	-0.347058	-0.348379	-0.052246	11.8072	-0.343739	-20701.9	2.523726E-6	NaN
678	1.000000	0.755241	7.37169e+06	-43189.1	1005.82	-29780	0.000000	0.000000	6.755063	-0.063062	NaN	0.000000	0.001638	0.001683	28.0824	0.068555	0.002015	34.0258	-148.448	-161.893	-0.042546	0.753924	-0.339036	-0.340354	-0.063062	34.0258	-0.337646	-16874.2	3.737168E-6	NaN
678	1.000000	0.763210	7.37169e+06	-43189.1	1005.82	-29780	0.000000	0.000000	6.763034	0.006411	NaN	0.000000	0.001614	0.001729	28.0822	0.087866	0.002209	39.7693	-88.9785	-165.676	-0.008799	0.761881	-0.331068	-0.332397	0.006411	39.7693	-0.331188	-13578.5	-4.721326E-7	NaN
678	1.000000	0.771190	7.37169e+06	-43189.1	1005.82	-29780	0.000000	0.000000	6.771013	-0.014417	NaN	0.000000	0.001638	0.001719	28.0822	0.083341	0.002048	40.6856	127.893	-163.004	-0.028533	0.769903	-0.323088	-0.324374	-0.014417	40.6856	-0.322822	-10236.3	1.408394E-6	NaN
678	1.000000	0.779230	7.37169e+06	-43189.1	1005.82	-29780	0.000000	0.000000	6.779056	0.057639	NaN	0.000000	0.001635	0.001690	28.0822	0.176368	0.002037	86.5942	-170.977	-165.296	0.059385	0.777928	-0.315048	-0.316350	0.057639	86.5942	-0.315547	-7998.62	-7.206060E-6	NaN
678	1.000000	0.787225	7.37169e+06	-43189.1	1005.82	-29780	0.000000	0.000000	6.787048	-0.021978	NaN	0.000000	0.001638	0.001704	28.0823	0.106051	0.001958	54.1717	-120.108	-164.967	-0.028042	0.785896	-0.307053	-0.308381	-0.021978	54.1717	-0.306748	-5927.73	3.707593E-6	NaN
678	1.000000	0.795247	7.37169e+06	-43189.1	1005.82	-29780	0.000000	0.000000	6.795071	-0.009211	NaN	0.000000	0.001602	0.001717	28.0824	0.118337	0.001945	60.8546	-150.963	-166.683	-0.018027	0.793897	-0.299030	-0.300380	-0.009211	60.8546	-0.298917	-4534.25	2.031470E-6	NaN
678	1.000000	0.803246	7.37169e+06	-43189.1	1005.82	-29780	0.000000	0.000000	6.803066	-0.104230	NaN	0.000000	0.001607	0.001695	28.0823	0.055316	0.001984	27.8748	157.974	-162.552	0.027942	0.801938	-0.291031	-0.292339	-0.104230	27.8748	-0.288227	-3138.51	3.321008E-5	NaN
678	1.000000	0.811256	7.37169e+06	-43189.1	1005.82	-29780	0.000000	0.000000	6.811079	-0.023389	NaN	0.000000	0.001625	0.001701	28.082	0.096941	0.002076	46.7008	110.687	-165.637	0.007640	0.809868	-0.283022	-0.284410	-0.023389	46.7008	-0.282646	-2587.32	9.039871E-6	NaN
678	1.000000	0.819260	7.37169e+06	-43189.1	1005.82	-29780	0.000000	0.000000	6.819085	0.021997	NaN	0.000000	0.001568	0.001672	28.0821	0.028081	0.001965	14.2876	-0.949387	-166.207	0.004496	0.817942	-0.275018	-0.276336	0.021997	14.2876	-0.276172	-2066.08	-1.064668E-5	NaN
678	1.000000	0.827289	7.37169e+06	-43189.1	1005.82	-29780	0.000000	0.000000	6.827110	-0.076703	NaN	0.000000	0.001605	0.001717	28.0825	0.122233	0.001984	61.6246	-8.971482	-162.747	-0.068143	0.825940	-0.266988	-0.268337	-0.076703	61.6246	-0.266055	-1450.36	5.288520E-5	NaN
678	1.000000	0.835250	7.37169e+06	-43189.1	1005.82	-29780	0.000000	0.000000	6.835074	0.018973	NaN	0.000000	0.001620	0.001761	28.0822	0.105481	0.001979	53.2922	-138.701	-163.964	0.053003	0.833899	-0.259028	-0.260378	0.018973	53.2922	-0.259295	-1143.16	-1.659707E-5	NaN
678	1.000000	0.843233	7.37169e+06	-43189.1	1005.82	-29780	0.000000	0.000000	6.843056	-0.043495	NaN	0.000000	0.001609	0.001715	28.0817	0.085486	0.002048	41.7432	149.271	-164.038	-0.038324	0.842002	-0.251044	-0.252275	-0.043495	41.7432	-0.250263	-829.904	5.240918E-5	NaN
678	1.000000	0.851257	7.37169e+06	-43189.1	1005.82	-29780	0.000000	0.000000	6.851082	0.010701	NaN	0.000000	0.001614	0.001674	28.0809	0.069171	0.001781	38.8359	18.6685	-164.569	0.015631	0.849962	-0.243020	-0.244316	0.010701	38.8359	-0.243227	-645.47	-1.657891E-5	NaN
678	1.000000	0.859270	7.37169e+06	-43189.1	1005.82	-29780	0.000000	0.000000	6.859096	0.034337	NaN	0.000000	0.001692	0.001698	28.0811	0.114072	0.002068	55.1571	-83.7776	-163.279	0.050251	0.857942	-0.235007	-0.236335	0.034337	55.1571	-0.235474	-488.309	-7.031827E-5	NaN
678	1.000000	0.867273	7.37169e+06	-43189.1	1005.82	-29780	0.000000	0.000000	6.867095	-0.037457	NaN	0.000000	0.001683	0.001693	28.0812	0.059085	0.001925	30.6994	-90.0467	-163.389	-0.026719	0.865949	-0.227005	-0.228329	-0.037457	30.6994	-0.226090	-347.241	0.000108	NaN
678	1.000000	0.875282	7.37169e+06	-43189.1	1005.82	-29780	0.000000	0.000000	6.875105	-0.027815	NaN	0.000000	0.001683	0.001685	28.0811	0.014302	0.001998	7.157372	162.708	-164.728	0.061943	0.873964	-0.218995	-0.220314	-0.027815	7.157372	-0.216081	-240.373	0.000116	NaN
678	1.000000	0.883266	7.37169e+06	-43189.1	1005.82	-29780	0.000000	0.000000	6.883093	0.059414	NaN	0.000000	0.001685	0.001723	28.0812	0.086242	0.001991	43.3063	139.867	-166.573	0.118442	0.881970	-0.211011	-0.212308	0.059414	43.3063	-0.212040	-206.927	-0.000287	NaN
678	1.000000	0.891290	7.37169e+06	-43189.1	1005.82	-29780	0.000000	0.000000	6.891111	-0.064105	NaN	0.000000	0.001667	0.001731	28.081	0.092125	0.002055	44.826	-138.245	-166.553	-0.067342	0.889927	-0.202988	-0.204351	-0.064105	44.826	-0.201915	-141.62	0.000453	NaN
678	1.000000	0.899288	7.37169e+06	-43189.1	1005.82	-29780	0.000000	0.000000	6.899110	-0.029173	NaN	0.000000	0.001653	0.001722	28.0814	0.040625	0.001917	21.1904	-102.88	-163.606	0.001350	0.897985	-0.194990	-0.196292	-0.029173	21.1904	-0.193958	-104.693	0.000279	NaN
678	1.000000	0.907305	7.37169e+06	-43189.1	1005.82	-29780	0.000000	0.000000	6.907127	-0.033336	NaN	0.000000	0.001684	0.001706	28.0811	0.115128	0.002117	54.3789	-109.501	-165.427	-0.060698	0.905984	-0.186973	-0.188293	-0.033336	54.3789	-0.186513	-78.6318	0.000424	NaN
678	1.000000	0.915306	7.37169e+06	-43189.1	1005.82	-29780	0.000000	0.000000	6.915127	-0.056265	NaN	0.000000	0.001660	0.001705	28.0813	0.014889	0.002120	7.024284	-19.7159	-163.736	-0.024929	0.913966	-0.178972	-0.180312	-0.056265	7.024284	-0.172964	-46.2306	0.001217	NaN
678	1.000000	0.923266	7.37169e+06	-43189.1	1005.82	-29780	0.000000	0.000000	6.923089	-0.031312	NaN	0.000000	0.001667	0.001686	28.0815	0.079762	0.001875	42.5379	122.327	-166.88	0.011507	0.921975	-0.171011	-0.172302	-0.031312	42.5379	-0.170459	-41.8396	0.000748	NaN
678	1.000000	0.931291	7.37169e+06	-43189.1	1005.82	-29780	0.000000	0.000000	6.931114	-0.001950	NaN	0.000000	0.001690	0.001685	28.081	0.139478	0.001996	69.8688	49.343	-165.779	-0.023579	0.929988	-0.162987	-0.164290	-0.001950	69.8688	-0.162966	-30.9389	6.301879E-5	NaN
678	1.000000	0.939286	7.37169e+06	-43189.1	1005.82	-29780	0.000000	0.000000	6.939109	-0.023881	NaN	0.000000	0.001662	0.001699	28.0815	0.030988	0.002003	15.4738	-44.9739	-164.127	0.021740	0.937957	-0.154991	-0.156321	-0.023881	15.4738	-0.153834	-21.2601	0.001123	NaN
678	1.000000	0.947322	7.37169e+06	-43189.1	1005.82	-29780	0.000000	0.000000	6.947145	-0.016616	NaN	0.000000	0.001679	0.001694	28.0811	0.088771	0.001910	46.4876	-102.83	-163.887	0.022326	0.946023	-0.146955	-0.148255	-0.016616	46.4876	-0.146687	-15.751	0.001055	NaN
678	1.000000	0.955305	7.37169e+06	-43189.1	1005.82	-29780	0.000000	0.000000	6.955128	-0.040817	NaN	0.000000	0.001710	0.001681	28.081	0.025798	0.001981	13.023	-11.3315	-164.013	-0.033629	0.954000	-0.138972	-0.140278	-0.040817	13.023	-0.136622	-10.2133	0.003997	NaN
678	1.000000	0.963294	7.37169e+06	-43189.1	1005.82	-29780	0.000000	0.000000	6.963118	-0.004976	NaN	0.000000	0.001706	0.001729	28.0811	0.043918	0.001984	22.1395	171.546	-164.829	-0.016066	0.962010	-0.130983	-0.132268	-0.004976	22.1395	-0.130815	-7.903439	0.000630	NaN
678	1.000000	0.971299	7.37169e+06	-43189.1	1005.82	-29780	0.000000	0.000000	6.971121	-0.026872	NaN	0.000000	0.001659	0.001697	28.0811	0.079488	0.001825	43.5446	109.944	-164.483	-0.028946	0.970055	-0.122979	-0.124223	-0.026872	43.5446	-0.122516	-5.427618	0.004951	NaN
678	1.000000	0.979305	7.37169e+06	-43189.1	1005.82	-29780	0.000000	0.000000	6.979126	-0.065906	NaN	0.000000	0.001602	0.001747	28.0818	0.066671	0.002166	30.7877	129.745	-162.832	0.013836	0.978045	-0.114973	-0.116232	-0.065906	30.7877	-0.113367	-3.534469	0.018647	NaN
678	1.000000	0.987303	7.37169e+06	-43189.1	1005.82	-29780	0.000000	0.000000	6.987123	-0.082033	NaN	0.000000	0.001611	0.001728	28.0822	0.100607	0.001912	52.6095	91.4327	-167.483	-0.158345	0.985982	-0.106975	-0.108296	-0.082033	52.6095	-0.105806	-2.446473	0.033531	NaN
678	1.000000	0.995307	7.37169e+06	-43189.1	1005.82	-29780	0.000000	0.000000	6.995128	-0.069173	NaN	0.000000	0.001641	0.001697	28.0823	0.100773	0.001927	52.2885	29.8012	-166.423	0.033444	0.994042	-0.098971	-0.100235	-0.069173	52.2885	-0.097979	-1.647111	0.041997	NaN
678	1.000000	1.003336	7.37169e+06	-43189.1	1005.82	-29780	0.000000	0.000000	7.003160	-0.002335	NaN	0.000000	0.001632	0.001731	28.0824	0.068274	0.001938	35.2328	-83.4053	-165.478	0.043657	1.002047	-0.090942	-0.092230	-0.002335	35.2328	-0.090892	-1.134210	0.002059	NaN
678	1.000000	1.011314	7.37169e+06	-43189.1	1005.82	-29780	0.000000	0.000000	7.011137	-0.006769	NaN	0.000000	0.001619	0.001729	28.0823	0.134913	0.001944	69.4027	-38.7403	-164.18	-0.029447	1.009998	-0.082964	-0.084279	-0.006769	69.4027	-0.082891	-0.729938	0.009273	NaN
678	1.000000	1.019313	7.37169e+06	-43189.1	1005.82	-29780	0.000000	0.000000	7.019138	0.017275	NaN	0.000000	0.001644	0.001714	28.0824	0.086482	0.002012	42.9772	23.0281	-164.746	0.038900	1.017997	-0.074964	-0.076281	0.017275	42.9772	-0.075266	-0.469237	-0.036815	NaN
678	1.000000	1.027303	7.37169e+06	-43189.1	1005.82	-29780	0.000000	0.000000	7.027127	0.002948	NaN	0.000000	0.001644	0.001753	28.082	0.077305	0.001925	40.1542	-55.105	-160.865	0.087303	1.025995	-0.066975	-0.068283	0.002948	40.1542	-0.067030	-0.283460	-0.010401	NaN
678	1.000000	1.035323	7.37169e+06	-43189.1	1005.82	-29780	0.000000	0.000000	7.035147	-0.003562	NaN	0.000000	0.001617	0.001753	28.0823	0.048944	0.001837	26.6399	-91.7868	-166.655	-0.069697	1.034032	-0.058955	-0.060246	-0.003562	26.6399	-0.058854	-0.166923	0.021340	NaN
678	1.000000	1.043331	7.37169e+06	-43189.1	1005.82	-29780	0.000000	0.000000	7.043157	0.057353	NaN	0.000000	0.001652	0.001741	28.0822	0.037000	0.002064	17.9241	-139.457	-166.562	-0.075136	1.042053	-0.050947	-0.052224	0.057353	17.9241	-0.053346	-0.115015	-0.498660	NaN
678	1.000000	1.051323	7.37169e+06	-43189.1	1005.82	-29780	0.000000	0.000000	7.051149	0.040041	NaN	0.000000	0.001617	0.001749	28.0822	0.055775	0.002081	26.8052	130.04	-163.648	0.036593	1.050074	-0.042954	-0.044204	0.040041	26.8052	-0.044075	-0.060213	-0.664986	NaN
678	1.000000	1.059325	7.37169e+06	-43189.1	1005.82	-29780	0.000000	0.000000	7.059146	-0.061392	NaN	0.000000	0.001664	0.001753	28.0819	0.086653	0.001939	44.6863	38.4938	-167.242	-0.025166	1.058056	-0.034953	-0.036221	-0.061392	44.6863	-0.033923	-0.029779	2.061621	NaN
678	1.000000	1.067359	7.37169e+06	-43189.1	1005.82	-29780	0.000000	0.000000	7.067184	0.028401	NaN	0.000000	0.001645	0.001736	28.082	0.030625	0.002055	14.906	111.34	-162.933	-0.017464	1.066032	-0.026919	-0.028246	0.028401	14.906	-0.028348	-0.020722	-1.370547	NaN
678	1.000000	1.075346	7.37169e+06	-43189.1	1005.82	-29780	0.000000	0.000000	7.075169	-0.012396	NaN	0.000000	0.001625	0.001740	28.0821	0.031119	0.002038	15.2702	144.446	-165.238	-0.019492	1.073982	-0.018932	-0.020295	-0.012396	15.2702	-0.018323	-0.011379	1.089359	NaN
678	1.000000	1.083350	7.37169e+06	-43189.1	1005.82	-29780	0.000000	0.000000	7.083172	-0.053009	NaN	0.000000	0.001614	0.001757	28.0823	0.089952	0.002015	44.6512	0.779276	-164.873	-0.078488	1.082022	-0.010927	-0.012256	-0.053009	44.6512	-0.010037	-0.006408	8.271813	NaN
678	1.000000	1.091341	7.37169e+06	-43189.1	1005.82	-29780	0.000000	0.000000	7.091211	1.119461	NaN	0.000000	0.001612	0.001694	28.0824	1.720409	0.002082	826.199	14.1333	-168.599	0.261826	1.090068	-0.002936	-0.004210	1.119461	826.199	-0.003952	-0.002748	-407.377	NaN
678	2.000000	1.098806	7.37169e+06	-43189.1	1005.82	-29780	0.000000	0.000000	7.098950	7.792906	NaN	0.000000	0.001637	0.001681	28.0823	8.547044	0.001687	5065.51	10.5572	-170.935	7.443530	1.098054	0.004529	0.003777	7.792906	5065.51	0.003375	0.002698	2888.58	89102.3
678	2.000000	1.101031	7.37169e+06	-43189.1	1005.82	-29780	0.000000	0.000000	7.101284	10.4354	NaN	0.000000	0.001588	0.001724	28.0821	10.8731	0.001637	6642.04	6.175304	-171.528	10.396	1.100661	0.006753	0.006383	10.4354	6642.04	0.005575	0.004664	2237.34	88855.7
678	2.000000	1.102955	7.37169e+06	-43189.1	1005.82	-29780	0.000000	0.000000	7.103288	12.3816	NaN	0.000000	0.001685	0.001737	28.0821	13.0427	0.001727	7553.32	11.7048	-177.216	12.3948	1.102635	0.008677	0.008357	12.3816	7553.32	0.007448	0.006481	1910.55	85723.8
678	2.000000	1.104914	7.37169e+06	-43189.1	1005.82	-29780	0.000000	0.000000	7.105429	16.8166	NaN	0.000000	0.001649	0.001722	28.0808	15.7408	0.001712	9193.89	8.998557	-178.167	16.2563	1.104641	0.010636	0.010364	16.8166	9193.89	0.009264	0.008375	2007.91	91785.7
678	2.000000	1.106935	7.37169e+06	-43189.1	1005.82	-29780	0.000000	0.000000	7.107604	20.5716	NaN	0.000000	0.001683	0.001739	28.081	17.5284	0.001741	10068.6	9.026512	-178.556	20.392	1.106628	0.012657	0.012351	20.5716	10068.6	0.011125	0.010459	1966.94	89950.7
678	2.000000	1.108880	7.37169e+06	-43189.1	1005.82	-29780	0.000000	0.000000	7.109750	25.4426	NaN	0.000000	0.001656	0.001737	28.0812	19.6347	0.001740	11283.5	5.255531	-176.223	23.7776	1.108624	0.014602	0.014346	25.4426	11283.5	0.012911	0.012600	2019.25	91839.8
678	2.000000	1.110956	7.37169e+06	-43189.1	1005.82	-29780	0.000000	0.000000	7.111994	29.5342	NaN	0.000000	0.001655	0.001751	28.081	21.7767	0.001733	12567.8	9.442284	-178.813	30.5633	1.110622	0.016679	0.016344	29.5342	12567.8	0.014916	0.015174	1946.39	93214.7
678	2.000000	1.112864	7.37169e+06	-43189.1	1005.82	-29780	0.000000	0.000000	7.114062	33.4267	NaN	0.000000	0.001677	0.001714	28.0809	23.3297	0.001685	13847.9	3.587418	-176.29	31.4625	1.112628	0.018587	0.018350	33.4267	13847.9	0.016776	0.017728	1885.55	95023.4
678	2.000000	1.114956	7.37169e+06	-43189.1	1005.82	-29780	0.000000	0.000000	7.116255	35.8882	NaN	0.000000	0.001639	0.001709	28.0808	25.7715	0.001775	14517.4	6.204289	-178.501	37.6958	1.114629	0.020679	0.020351	35.8882	14517.4	0.018825	0.020729	1731.32	92124.1
678	2.000000	1.116934	7.37169e+06	-43189.1	1005.82	-29780	0.000000	0.000000	7.118488	42.1135	NaN	0.000000	0.001651	0.001723	28.0811	26.8439	0.001857	14457.2	5.217429	-177.098	42.3548	1.116551	0.022656	0.022273	42.1135	14457.2	0.020471	0.023288	1808.37	86554.4
678	2.000000	1.118903	7.37169e+06	-43189.1	1005.82	-29780	0.000000	0.000000	7.120762	49.5056	NaN	0.000000	0.001653	0.001732	28.0817	28.9901	0.001720	16855.1	4.420375	-177.549	49.7654	1.118530	0.024625	0.024252	49.5056	16855.1	0.022423	0.026493	1868.64	94610.9
678	2.000000	1.120951	7.37169e+06	-43189.1	1005.82	-29780	0.000000	0.000000	7.123025	54.7443	NaN	0.000000	0.001626	0.001744	28.081	31.9268	0.001872	17056.2	5.887470	-179.356	55.1932	1.120571	0.026674	0.026293	54.7443	17056.2	0.024266	0.029694	1843.59	90431.2
678	2.000000	1.122888	7.37169e+06	-43189.1	1005.82	-29780	0.000000	0.000000	7.125334	63.7903	NaN	0.000000	0.001652	0.001737	28.0808	33.5283	0.001656	20249.6	5.807639	177.844	62.6957	1.122624	0.028611	0.028346	63.7903	20249.6	0.026248	0.033325	1914.19	101345
678	2.000000	1.124869	7.37169e+06	-43189.1	1005.82	-29780	0.000000	0.000000	7.127584	70.3207	NaN	0.000000	0.001715	0.001738	28.0809	36.4692	0.001807	20176.8	4.570987	179.673	69.1678	1.124579	0.030592	0.030301	70.3207	20176.8	0.027978	0.036657	1918.35	96282.4
678	2.000000	1.126886	7.37169e+06	-43189.1	1005.82	-29780	0.000000	0.000000	7.130028	80.7191	NaN	0.000000	0.001685	0.001729	28.081	37.4767	0.001751	21405.7	5.201175	179.68	81.1552	1.126514	0.032609	0.032237	80.7191	21405.7	0.029780	0.040290	2003.46	97432.6
678	2.000000	1.128902	7.37169e+06	-43189.1	1005.82	-29780	0.000000	0.000000	7.132054	80.957	NaN	0.000000	0.001663	0.001728	28.0812	40.5172	0.001787	22675.2	6.868155	176.216	81.2102	1.128635	0.034624	0.034357	80.957	22675.2	0.031947	0.044875	1804.04	97795.6
678	2.000000	1.130906	7.37169e+06	-43189.1	1005.82	-29780	0.000000	0.000000	7.134589	93.89	NaN	0.000000	0.001720	0.001737	28.0812	41.8722	0.001727	24248	2.222497	-178.748	94.0138	1.130544	0.036628	0.036267	93.89	24248	0.033724	0.048817	1923.31	100268
678	2.000000	1.132799	7.37169e+06	-43189.1	1005.82	-29780	0.000000	0.000000	7.136842	102.659	NaN	0.000000	0.001702	0.001738	28.0811	43.8121	0.001824	24025.9	5.065744	176.916	97.8785	1.132543	0.038521	0.038266	102.659	24025.9	0.035317	0.052486	1955.94	95814.7
678	2.000000	1.134884	7.37169e+06	-43189.1	1005.82	-29780	0.000000	0.000000	7.139354	113.025	NaN	0.000000	0.001692	0.001725	28.081	46.2709	0.001880	24608.6	7.255981	175.746	113.267	1.134554	0.040607	0.040277	113.025	24608.6	0.037162	0.056900	1986.39	94254.9
678	2.000000	1.136851	7.37169e+06	-43189.1	1005.82	-29780	0.000000	0.000000	7.141686	121.912	NaN	0.000000	0.001698	0.001728	28.0813	46.5814	0.001798	25911.8	4.374847	178.022	119.768	1.136444	0.042574	0.042167	121.912	25911.8	0.039045	0.061584	1979.62	95397.9
678	2.000000	1.138793	7.37169e+06	-43189.1	1005.82	-29780	0.000000	0.000000	7.144028	131.64	NaN	0.000000	0.001695	0.001732	28.0825	48.8008	0.001823	26769.6	2.915386	179.282	127.811	1.138506	0.044516	0.044229	131.64	26769.6	0.040827	0.066184	1988.99	95068.5
678	2.000000	1.140963	7.37169e+06	-43189.1	1005.82	-29780	0.000000	0.000000	7.146492	138.791	NaN	0.000000	0.001652	0.001736	28.0824	50.6862	0.001810	28004.1	7.568706	175.147	141.494	1.140485	0.046686	0.046207	138.791	28004.1	0.042969	0.071925	1929.66	95401.2
678	2.000000	1.142892	7.37169e+06	-43189.1	1005.82	-29780	0.000000	0.000000	7.148970	152.154	NaN	0.000000	0.001626	0.001735	28.0823	51.8721	0.001771	29285.2	5.252926	176.254	151.931	1.142490	0.048615	0.048213	152.154	29285.2	0.044718	0.076789	1981.46	96554.5
678	2.000000	1.144931	7.37169e+06	-43189.1	1005.82	-29780	0.000000	0.000000	7.151214	157.132	NaN	0.000000	0.001643	0.001717	28.0825	54.3353	0.001817	29896.7	5.482877	175.344	159.658	1.144576	0.050654	0.050299	157.132	29896.7	0.046712	0.082521	1904.16	95085.5
678	2.000000	1.146847	7.37169e+06	-43189.1	1005.82	-29780	0.000000	0.000000	7.153438	164.626	NaN	0.000000	0.001603	0.001731	28.0824	54.8218	0.001743	31452.5	4.343116	175.621	162.547	1.146605	0.052570	0.052328	164.626	31452.5	0.048644	0.088269	1865.05	96721.9
678	2.000000	1.148852	7.37169e+06	-43189.1	1005.82	-29780	0.000000	0.000000	7.156117	181.055	NaN	0.000000	0.001630	0.001731	28.0824	57.2067	0.001674	34171.6	6.314098	174.059	179.477	1.148456	0.054574	0.054178	181.055	34171.6	0.050600	0.094278	1920.45	101680
678	2.000000	1.150961	7.37169e+06	-43189.1	1005.82	-29780	0.000000	0.000000	7.158392	185.068	NaN	0.000000	0.001645	0.001741	28.0824	60.236	0.001691	35631.1	6.418011	173.765	189.224	1.150522	0.056684	0.056244	185.068	35631.1	0.052788	0.101225	1828.28	102320
678	2.000000	1.152843	7.37169e+06	-43189.1	1005.82	-29780	0.000000	0.000000	7.160728	196.114	NaN	0.000000	0.001631	0.001704	28.0824	61.7693	0.001883	32800.5	4.831113	176.118	193.896	1.152475	0.058566	0.058198	196.114	32800.5	0.054081	0.105445	1859.87	92286.9
678	2.000000	1.154845	7.37169e+06	-43189.1	1005.82	-29780	0.000000	0.000000	7.163048	203.853	NaN	0.000000	0.001643	0.001714	28.0826	63.568	0.001800	35323.9	4.045536	175.506	203.383	1.154447	0.060568	0.060170	203.853	35323.9	0.056240	0.112670	1809.29	96147.4
678	2.000000	1.156780	7.37169e+06	-43189.1	1005.82	-29780	0.000000	0.000000	7.165409	214.221	NaN	0.000000	0.001598	0.001710	28.0823	64.0569	0.001851	34597.5	3.042039	176.495	210.84	1.156609	0.062502	0.062331	214.221	34597.5	0.057859	0.118242	1811.72	91924.9
678	2.000000	1.158787	7.37169e+06	-43189.1	1005.82	-29780	0.000000	0.000000	7.167841	224.56	NaN	0.000000	0.001618	0.001730	28.0823	68.1961	0.001918	35549.9	7.339539	172.565	221.177	1.158380	0.064509	0.064102	224.56	35549.9	0.059772	0.124992	1796.6	91869.6
678	2.000000	1.160782	7.37169e+06	-43189.1	1005.82	-29780	0.000000	0.000000	7.170376	237.703	NaN	0.000000	0.001631	0.001696	28.0822	68.8601	0.001883	36560.7	3.789721	176.21	232.822	1.160410	0.066504	0.066132	237.703	36560.7	0.061628	0.131710	1804.74	92040.3
678	2.000000	1.162854	7.37169e+06	-43189.1	1005.82	-29780	0.000000	0.000000	7.172798	246.226	NaN	0.000000	0.001626	0.001711	28.0826	70.0149	0.001797	38960.8	3.748149	175.147	245.608	1.162539	0.068576	0.068262	246.226	38960.8	0.063836	0.139923	1759.73	95160.5
678	2.000000	1.164777	7.37169e+06	-43189.1	1005.82	-29780	0.000000	0.000000	7.175445	263.827	NaN	0.000000	0.001622	0.001683	28.0825	71.9387	0.001888	38093.5	3.310339	175.633	260.697	1.164490	0.070499	0.070212	263.827	38093.5	0.065305	0.145516	1813.04	91236.5
678	2.000000	1.166812	7.37169e+06	-43189.1	1005.82	-29780	0.000000	0.000000	7.177831	272.392	NaN	0.000000	0.001630	0.001684	28.0825	73.056	0.001712	42681.4	5.960578	171.949	270.126	1.166546	0.072534	0.072269	272.392	42681.4	0.067748	0.155046	1756.84	99033.2
678	2.000000	1.168841	7.37169e+06	-43189.1	1005.82	-29780	0.000000	0.000000	7.180436	286.398	NaN	0.000000	0.001647	0.001683	28.0819	75.5528	0.001873	40347.5	4.296711	174.979	285.682	1.168421	0.074563	0.074143	286.398	40347.5	0.069240	0.161009	1778.78	91868.2
678	2.000000	1.170789	7.37169e+06	-43189.1	1005.82	-29780	0.000000	0.000000	7.182911	299.225	NaN	0.000000	0.001618	0.001678	28.0823	77.3401	0.001844	41937.5	3.153022	175.678	295.309	1.170482	0.076511	0.076204	299.225	41937.5	0.071160	0.168838	1772.26	93248.3
678	2.000000	1.172754	7.37169e+06	-43189.1	1005.82	-29780	0.000000	0.000000	7.185621	317.337	NaN	0.000000	0.001672	0.001666	28.0812	78.2614	0.001791	43689.3	4.594584	174.056	313.281	1.172400	0.078476	0.078122	317.337	43689.3	0.073029	0.176626	1796.66	94977.5
678	2.000000	1.174830	7.37169e+06	-43189.1	1005.82	-29780	0.000000	0.000000	7.187997	324.632	NaN	0.000000	0.001644	0.001703	28.0813	82.1208	0.001816	45227.7	4.211233	173.53	325.725	1.174656	0.080552	0.080378	324.632	45227.7	0.075169	0.185748	1747.7	95877.1
678	2.000000	1.176810	7.37169e+06	-43189.1	1005.82	-29780	0.000000	0.000000	7.190854	345.962	NaN	0.000000	0.001657	0.001679	28.0811	82.7924	0.001868	44333.1	5.823565	172.701	343.801	1.176489	0.082533	0.082211	345.962	44333.1	0.076680	0.192318	1798.91	92361.7
678	2.000000	1.178900	7.37169e+06	-43189.1	1005.82	-29780	0.000000	0.000000	7.193367	356.252	NaN	0.000000	0.001642	0.001686	28.0811	84.584	0.001857	45548.2	3.755129	173.996	361.227	1.178579	0.084623	0.084301	356.252	45548.2	0.078757	0.201522	1767.81	92700.8
678	2.000000	1.180794	7.37169e+06	-43189.1	1005.82	-29780	0.000000	0.000000	7.196303	381.6	NaN	0.000000	0.001636	0.001645	28.081	85.1017	0.001723	49396.8	2.482401	175.482	379.355	1.180408	0.086517	0.086130	381.6	49396.8	0.080723	0.210421	1813.51	98384.8
678	2.000000	1.182863	7.37169e+06	-43189.1	1005.82	-29780	0.000000	0.000000	7.198865	393.611	NaN	0.000000	0.001638	0.001643	28.0811	87.1596	0.001854	47013.5	2.204724	175.376	396.472	1.182590	0.088585	0.088313	393.611	47013.5	0.082306	0.217719	1807.88	92055.1
678	2.000000	1.184774	7.37169e+06	-43189.1	1005.82	-29780	0.000000	0.000000	7.201547	412.358	NaN	0.000000	0.001637	0.001680	28.0809	89.496	0.001770	50548.8	7.723484	169.757	409.339	1.184411	0.090497	0.090134	412.358	50548.8	0.084378	0.227445	1813	96837.9
678	2.000000	1.186801	7.37169e+06	-43189.1	1005.82	-29780	0.000000	0.000000	7.204344	431.088	NaN	0.000000	0.001603	0.001698	28.0812	90.2667	0.001749	51624.3	7.027010	170.255	431.878	1.186407	0.092524	0.092129	431.088	51624.3	0.086261	0.236454	1823.14	96996.2
678	2.000000	1.188709	7.37169e+06	-43189.1	1005.82	-29780	0.000000	0.000000	7.206925	447.459	NaN	0.000000	0.001622	0.001711	28.0812	93.2298	0.001902	49029.4	6.487633	171.205	440.863	1.188420	0.094432	0.094143	447.459	49029.4	0.087587	0.242897	1842.17	90890.5
678	2.000000	1.190782	7.37169e+06	-43189.1	1005.82	-29780	0.000000	0.000000	7.209668	463.791	NaN	0.000000	0.001638	0.001698	28.081	94.5172	0.001690	55936	5.544461	171.453	459.98	1.190314	0.096504	0.096036	463.791	55936	0.090286	0.256259	1809.85	100954
678	2.000000	1.192863	7.37169e+06	-43189.1	1005.82	-29780	0.000000	0.000000	7.212145	473.422	NaN	0.000000	0.001621	0.001712	28.081	95.1524	0.001771	53722	2.737115	174.088	475.796	1.192603	0.098585	0.098326	473.422	53722	0.091976	0.264798	1787.86	95382.4
678	2.000000	1.194793	7.37169e+06	-43189.1	1005.82	-29780	0.000000	0.000000	7.214677	488.058	NaN	0.000000	0.001622	0.001716	28.0808	98.283	0.001765	55676.9	2.468211	173.594	487.486	1.194554	0.100515	0.100276	488.058	55676.9	0.093941	0.274890	1775.47	97021.7
678	2.000000	1.196861	7.37169e+06	-43189.1	1005.82	-29780	0.000000	0.000000	7.217432	504.777	NaN	0.000000	0.001603	0.001632	28.0811	98.5489	0.001664	59229.9	2.578627	173.39	506.203	1.196597	0.102584	0.102320	504.777	59229.9	0.096192	0.286668	1760.84	101070
678	2.000000	1.197236	7.37169e+06	-43189.1	1005.82	-29780	0.000000	0.000000	7.218078	511.378	NaN	0.000000	0.001621	0.001617	28.0809	99.776	0.001734	57537.6	3.138261	-6.500545	504.084	1.196977	0.102958	0.102700	511.378	57537.6	0.096293	0.287202	1780.55	98091.6