File: remote_trans/data/nanoindenter/0828-1/data/Data_2025-08-06,11h17m57s/2025-07-22_16-23-58_1_669.txt
2025-07-22, 16:23:58, 1
Index	Phase	Displacement	Time	Pos X	Pos Y	Pos Z	Rot A	Rot B	Piezo Z	Force A	Force B	Gripper	Voltage A	Voltage B	Temperature	Amplitude force	Amplitude pos	Stiffness	Phase shift	Phase excitation	Force A raw	Displacement raw	HMax	HMax raw	Real Force	Real Stiffness	Contact Depth	Area	Hardness	Reduced Mod.
[#]	[#]	[um]	[s]	[um]	[um]	[um]	[m°]	[m°]	[um]	[uN]	[uN]	[V]	[V]	[V]	[°C]	[uN]	[um]	[N/m]	[°]	[°]	[uN]	[um]	[um]	[um]	[uN]	[N/m]	[um]	[um^2]	[MPa]	[MPa]
669	1.000000	0.002529	7.37159e+06	-43639.1	1005.82	-29778.4	0.000000	0.000000	6.002823	0.051619	NaN	0.000000	0.001621	0.001737	28.0843	0.039654	0.000992	39.9582	-133.943	-171.313	0.013968	0.001206	-1.048938	-1.050261	0.051619	39.9582	-1.049907	-1.064542E+14	-4.848913E-16	NaN
669	1.000000	0.010475	7.37159e+06	-43639.1	1005.82	-29778.4	0.000000	0.000000	6.010768	0.003207	NaN	0.000000	0.001606	0.001727	28.0843	0.045810	0.000958	47.8292	49.5902	-163.441	0.117840	0.009151	-1.040991	-1.042316	0.003207	47.8292	-1.041042	-8.090509E+13	-3.963865E-17	NaN
669	1.000000	0.018491	7.37159e+06	-43639.1	1005.82	-29778.4	0.000000	0.000000	6.018788	0.094837	NaN	0.000000	0.001613	0.001729	28.084	0.120305	0.001671	72.0066	-29.113	-163.316	0.097252	0.017167	-1.032975	-1.034299	0.094837	72.0066	-1.033963	-6.498060E+13	-1.459469E-15	NaN
669	1.000000	0.026522	7.37159e+06	-43639.1	1005.82	-29778.4	0.000000	0.000000	6.026813	-0.024573	NaN	0.000000	0.001552	0.001709	28.0841	0.054208	0.001818	29.8229	-50.261	-167.133	-0.023395	0.025167	-1.024945	-1.026299	-0.024573	29.8229	-1.024327	-4.821299E+13	5.096705E-16	NaN
669	1.000000	0.034476	7.37159e+06	-43639.1	1005.82	-29778.4	0.000000	0.000000	6.034769	0.024825	NaN	0.000000	0.001578	0.001728	28.083	0.096162	0.002108	45.6104	163.517	-166.817	0.051625	0.033163	-1.016991	-1.018303	0.024825	45.6104	-1.017399	-3.890073E+13	-6.381670E-16	NaN
669	1.000000	0.042463	7.37159e+06	-43639.1	1005.82	-29778.4	0.000000	0.000000	6.042757	0.019080	NaN	0.000000	0.001572	0.001700	28.0832	0.013119	0.002045	6.414092	-145.29	-167.553	0.039815	0.041121	-1.009003	-1.010345	0.019080	6.414092	-1.011234	-3.213612E+13	-5.937223E-16	NaN
669	1.000000	0.050452	7.37159e+06	-43639.1	1005.82	-29778.4	0.000000	0.000000	6.050744	0.003954	NaN	0.000000	0.001588	0.001741	28.083	0.006698	0.001964	3.409571	-70.6116	-168.473	-0.022561	0.049103	-1.001015	-1.002364	0.003954	3.409571	-1.001885	-2.405151E+13	-1.644133E-16	NaN
669	1.000000	0.058463	7.37159e+06	-43639.1	1005.82	-29778.4	0.000000	0.000000	6.058758	0.065172	NaN	0.000000	0.001555	0.001778	28.0831	0.055954	0.001882	29.7365	-139.141	-166.124	-0.018041	0.057117	-0.993003	-0.994350	0.065172	29.7365	-0.994647	-1.921738E+13	-3.391297E-15	NaN
669	1.000000	0.066454	7.37159e+06	-43639.1	1005.82	-29778.4	0.000000	0.000000	6.066747	0.016782	NaN	0.000000	0.001586	0.001782	28.0833	0.179621	0.001960	91.663	-70.809	-166.303	-0.042626	0.065197	-0.985013	-0.986270	0.016782	91.663	-0.985150	-1.431483E+13	-1.172362E-15	NaN
669	1.000000	0.074475	7.37159e+06	-43639.1	1005.82	-29778.4	0.000000	0.000000	6.074768	0.012618	NaN	0.000000	0.001597	0.001767	28.083	0.065221	0.002001	32.6019	124.128	-164.525	-0.007124	0.073104	-0.976992	-0.978363	0.012618	32.6019	-0.977282	-1.121471E+13	-1.125112E-15	NaN
669	1.000000	0.082450	7.37159e+06	-43639.1	1005.82	-29778.4	0.000000	0.000000	6.082743	0.026427	NaN	0.000000	0.001599	0.001721	28.0831	0.099832	0.001988	50.2098	148.269	-165.972	-0.066037	0.081137	-0.969017	-0.970329	0.026427	50.2098	-0.969412	-8.784843E+12	-3.008262E-15	NaN
669	1.000000	0.090464	7.37159e+06	-43639.1	1005.82	-29778.4	0.000000	0.000000	6.090756	-0.022678	NaN	0.000000	0.001607	0.001725	28.0831	0.073891	0.001961	37.688	1.962329	-165.374	0.014737	0.089173	-0.961002	-0.962294	-0.022678	37.688	-0.960551	-6.672634E+12	3.398687E-15	NaN
669	1.000000	0.098470	7.37159e+06	-43639.1	1005.82	-29778.4	0.000000	0.000000	6.098763	0.021732	NaN	0.000000	0.001604	0.001741	28.0833	0.065417	0.001999	32.7315	-165.31	-166.086	-0.006038	0.097159	-0.952997	-0.954307	0.021732	32.7315	-0.953495	-5.359942E+12	-4.054570E-15	NaN
669	1.000000	0.106488	7.37159e+06	-43639.1	1005.82	-29778.4	0.000000	0.000000	6.106778	-0.058291	NaN	0.000000	0.001550	0.001726	28.0831	0.027908	0.002007	13.9069	108.097	-165.745	-0.014642	0.105153	-0.944978	-0.946313	-0.058291	13.9069	-0.941834	-3.731524E+12	1.562129E-14	NaN
669	1.000000	0.114479	7.37159e+06	-43639.1	1005.82	-29778.4	0.000000	0.000000	6.114771	-0.018278	NaN	0.000000	0.001591	0.001711	28.0828	0.035327	0.002171	16.2734	-60.6335	-163.453	-0.053994	0.113160	-0.936988	-0.938306	-0.018278	16.2734	-0.936145	-3.127000E+12	5.845196E-15	NaN
669	1.000000	0.122493	7.37159e+06	-43639.1	1005.82	-29778.4	0.000000	0.000000	6.122789	0.085371	NaN	0.000000	0.001656	0.001732	28.083	0.119523	0.002007	59.543	-134.043	-165.262	0.070549	0.121174	-0.928973	-0.930293	0.085371	59.543	-0.930049	-2.587352E+12	-3.299554E-14	NaN
669	1.000000	0.130471	7.37159e+06	-43639.1	1005.82	-29778.4	0.000000	0.000000	6.130767	0.078717	NaN	0.000000	0.001611	0.001733	28.083	0.018978	0.001829	10.3775	-26.9464	-162.268	0.074997	0.129245	-0.920995	-0.922222	0.078717	10.3775	-0.926684	-2.330460E+12	-3.377761E-14	NaN
669	1.000000	0.138470	7.37159e+06	-43639.1	1005.82	-29778.4	0.000000	0.000000	6.138762	-0.005119	NaN	0.000000	0.001592	0.001704	28.0831	0.100418	0.001945	51.6319	91.1817	-163.916	0.019210	0.137189	-0.912996	-0.914277	-0.005119	51.6319	-0.912922	-1.519247E+12	3.369247E-15	NaN
669	1.000000	0.146477	7.37159e+06	-43639.1	1005.82	-29778.4	0.000000	0.000000	6.146771	0.051091	NaN	0.000000	0.001594	0.001725	28.0832	0.043651	0.002046	21.3379	-177.81	-169.205	0.006953	0.145126	-0.904990	-0.906340	0.051091	21.3379	-0.906786	-1.255292E+12	-4.070034E-14	NaN
669	1.000000	0.154480	7.3716e+06	-43639.1	1005.82	-29778.4	0.000000	0.000000	6.154773	0.021895	NaN	0.000000	0.001611	0.001706	28.0831	0.032250	0.001934	16.6769	-1.976289	-169.761	-0.013237	0.153210	-0.896986	-0.898256	0.021895	16.6769	-0.897971	-9.542230E+11	-2.294558E-14	NaN
669	1.000000	0.162507	7.3716e+06	-43639.1	1005.82	-29778.4	0.000000	0.000000	6.162801	0.044786	NaN	0.000000	0.001610	0.001765	28.0828	0.048334	0.001993	24.2502	-104.211	-166.352	0.054983	0.161219	-0.888960	-0.890247	0.044786	24.2502	-0.890345	-7.526268E+11	-5.950611E-14	NaN
669	1.000000	0.170488	7.3716e+06	-43639.1	1005.82	-29778.4	0.000000	0.000000	6.170782	0.044677	NaN	0.000000	0.001599	0.001728	28.0841	0.044359	0.002086	21.268	76.8379	-168.829	0.115212	0.169186	-0.880979	-0.882280	0.044677	21.268	-0.882554	-5.905381E+11	-7.565499E-14	NaN
669	1.000000	0.178534	7.3716e+06	-43639.1	1005.82	-29778.4	0.000000	0.000000	6.178827	0.003326	NaN	0.000000	0.001576	0.001772	28.0841	0.081433	0.002077	39.2136	-107.573	-167.648	0.068632	0.177216	-0.872932	-0.874251	0.003326	39.2136	-0.872996	-4.385053E+11	-7.584324E-15	NaN
669	1.000000	0.186500	7.3716e+06	-43639.1	1005.82	-29778.4	0.000000	0.000000	6.186792	-0.003882	NaN	0.000000	0.001592	0.001713	28.0841	0.105040	0.001989	52.7988	39.069	-164.928	0.082716	0.185143	-0.864967	-0.866324	-0.003882	52.7988	-0.864912	-3.408762E+11	1.138917E-14	NaN
669	1.000000	0.194517	7.3716e+06	-43639.1	1005.82	-29778.4	0.000000	0.000000	6.194809	-0.007893	NaN	0.000000	0.001555	0.001781	28.0842	0.039191	0.002056	19.0607	-138.303	-166.527	0.036370	0.193187	-0.856950	-0.858279	-0.007893	19.0607	-0.856639	-2.634076E+11	2.996652E-14	NaN
669	1.000000	0.202516	7.3716e+06	-43639.1	1005.82	-29778.4	0.000000	0.000000	6.202808	-0.006625	NaN	0.000000	0.001572	0.001719	28.0841	0.072723	0.001934	37.5961	-152.439	-162.869	-0.113426	0.201245	-0.848951	-0.850221	-0.006625	37.5961	-0.848819	-2.064157E+11	3.209714E-14	NaN
669	1.000000	0.210536	7.3716e+06	-43639.1	1005.82	-29778.4	0.000000	0.000000	6.210830	0.025329	NaN	0.000000	0.001604	0.001803	28.0842	0.071771	0.001923	37.3285	-129.165	-168.203	-0.042218	0.209210	-0.840930	-0.842257	0.025329	37.3285	-0.841439	-1.639803E+11	-1.544613E-13	NaN
669	1.000000	0.218518	7.3716e+06	-43639.1	1005.82	-29778.4	0.000000	0.000000	6.218811	-6.848636E-6	NaN	0.000000	0.001607	0.001805	28.0841	0.059346	0.002031	29.2192	-160.647	-164.924	-0.046972	0.217247	-0.832948	-0.834219	-6.848636E-6	29.2192	-0.832948	-1.258174E+11	5.443313E-17	NaN
669	1.000000	0.226493	7.3716e+06	-43639.1	1005.82	-29778.4	0.000000	0.000000	6.226785	-0.012621	NaN	0.000000	0.001606	0.001770	28.0843	0.067318	0.002020	33.3189	-123.461	-167.704	-0.044539	0.225245	-0.824974	-0.826221	-0.012621	33.3189	-0.824690	-9.722975E+10	1.298023E-13	NaN
669	1.000000	0.234532	7.3716e+06	-43639.1	1005.82	-29778.4	0.000000	0.000000	6.234824	-0.004593	NaN	0.000000	0.001618	0.001772	28.0842	0.048003	0.002078	23.1006	90.5499	-168.366	0.103160	0.233209	-0.816935	-0.818257	-0.004593	23.1006	-0.816786	-7.596614E+10	6.045825E-14	NaN
669	1.000000	0.242537	7.3716e+06	-43639.1	1005.82	-29778.4	0.000000	0.000000	6.242828	-0.035428	NaN	0.000000	0.001638	0.001754	28.0843	0.048558	0.001918	25.3211	-119.164	-168.556	0.009797	0.241279	-0.808930	-0.810188	-0.035428	25.3211	-0.807880	-5.751864E+10	6.159456E-13	NaN
669	1.000000	0.250556	7.3716e+06	-43639.1	1005.82	-29778.4	0.000000	0.000000	6.250849	0.000339	NaN	0.000000	0.001643	0.001754	28.0844	0.115319	0.001896	60.8337	-0.739759	-165.018	-0.026697	0.249276	-0.800910	-0.802190	0.000339	60.8337	-0.800914	-4.626730E+10	-7.319576E-15	NaN
669	1.000000	0.258542	7.3716e+06	-43639.1	1005.82	-29778.4	0.000000	0.000000	6.258834	-0.006779	NaN	0.000000	0.001609	0.001745	28.0844	0.105622	0.001977	53.433	31.8939	-165.765	-0.043885	0.257207	-0.792924	-0.794260	-0.006779	53.433	-0.792829	-3.593400E+10	1.886548E-13	NaN
669	1.000000	0.266547	7.3716e+06	-43639.1	1005.82	-29778.4	0.000000	0.000000	6.266841	0.046700	NaN	0.000000	0.001621	0.001719	28.0843	0.012974	0.002025	6.407598	-33.363	-165.949	-0.015468	0.265251	-0.784920	-0.786216	0.046700	6.407598	-0.790386	-3.329097E+10	-1.402793E-12	NaN
669	1.000000	0.274556	7.3716e+06	-43639.1	1005.82	-29778.4	0.000000	0.000000	6.274849	0.006767	NaN	0.000000	0.001617	0.001725	28.0842	0.030092	0.001965	15.3107	-90.7552	-169.233	0.066337	0.273220	-0.776911	-0.778246	0.006767	15.3107	-0.777242	-2.206752E+10	-3.066291E-13	NaN
669	1.000000	0.282552	7.3716e+06	-43639.1	1005.82	-29778.4	0.000000	0.000000	6.282845	0.013840	NaN	0.000000	0.001623	0.001716	28.0844	0.037745	0.002008	18.7958	-157.922	-163.843	-0.026988	0.281264	-0.768914	-0.770203	0.013840	18.7958	-0.769467	-1.730036E+10	-7.999999E-13	NaN
669	1.000000	0.290529	7.3716e+06	-43639.1	1005.82	-29778.4	0.000000	0.000000	6.290824	0.051238	NaN	0.000000	0.001617	0.001746	28.0848	0.118421	0.002097	56.4784	-23.2103	-165.656	0.148206	0.289271	-0.760938	-0.762196	0.051238	56.4784	-0.761618	-1.353046E+10	-3.786839E-12	NaN
669	1.000000	0.298548	7.3716e+06	-43639.1	1005.82	-29778.4	0.000000	0.000000	6.298841	0.002371	NaN	0.000000	0.001656	0.001701	28.0845	0.008680	0.001885	4.604131	-77.8217	-162.806	0.036734	0.297271	-0.752918	-0.754195	0.002371	4.604131	-0.753305	-1.042798E+10	-2.274085E-13	NaN
669	1.000000	0.306564	7.3716e+06	-43639.1	1005.82	-29778.4	0.000000	0.000000	6.306858	0.027462	NaN	0.000000	0.001662	0.001785	28.0829	0.009057	0.002031	4.459210	-14.0997	-168.682	0.005354	0.305251	-0.744902	-0.746215	0.027462	4.459210	-0.749521	-9.261919E+9	-2.965053E-12	NaN
669	1.000000	0.314565	7.3716e+06	-43639.1	1005.82	-29778.4	0.000000	0.000000	6.314856	-0.037556	NaN	0.000000	0.001639	0.001740	28.0831	0.012495	0.002155	5.797521	-162.701	-165.004	0.026800	0.313285	-0.736901	-0.738181	-0.037556	5.797521	-0.732043	-5.353629E+9	7.014991E-12	NaN
669	1.000000	0.322568	7.3716e+06	-43639.1	1005.82	-29778.4	0.000000	0.000000	6.322861	0.022894	NaN	0.000000	0.001650	0.001713	28.083	0.107556	0.002061	52.1775	46.4624	-165.677	0.052220	0.321294	-0.728899	-0.730173	0.022894	52.1775	-0.729228	-4.901000E+9	-4.671329E-12	NaN
669	1.000000	0.330570	7.3716e+06	-43639.1	1005.82	-29778.4	0.000000	0.000000	6.330860	-0.060212	NaN	0.000000	0.001654	0.001736	28.0833	0.055105	0.002081	26.4841	121.069	-164.376	-0.002024	0.329290	-0.720897	-0.722177	-0.060212	26.4841	-0.719192	-3.576417E+9	1.683585E-11	NaN
669	1.000000	0.338555	7.3716e+06	-43639.1	1005.82	-29778.4	0.000000	0.000000	6.338848	0.026914	NaN	0.000000	0.001627	0.001742	28.0831	0.031590	0.001963	16.0932	31.3216	-165.589	0.001424	0.337296	-0.712912	-0.714171	0.026914	16.0932	-0.714166	-3.054187E+9	-8.812218E-12	NaN
669	1.000000	0.346600	7.3716e+06	-43639.1	1005.82	-29778.4	0.000000	0.000000	6.346892	-0.013717	NaN	0.000000	0.001628	0.001789	28.0833	0.122174	0.001957	62.4321	-11.8867	-167.671	0.010017	0.345227	-0.704866	-0.706239	-0.013717	62.4321	-0.704702	-2.268450E+9	6.046706E-12	NaN
669	1.000000	0.354590	7.3716e+06	-43639.1	1005.82	-29778.4	0.000000	0.000000	6.354883	0.022402	NaN	0.000000	0.001646	0.001757	28.0832	0.050781	0.001968	25.8075	117.283	-167.58	-0.004673	0.353258	-0.696877	-0.698209	0.022402	25.8075	-0.697528	-1.810370E+9	-1.237425E-11	NaN
669	1.000000	0.362568	7.3716e+06	-43639.1	1005.82	-29778.4	0.000000	0.000000	6.362862	0.056064	NaN	0.000000	0.001630	0.001739	28.0841	0.090549	0.001908	47.4607	-21.8472	-163.681	0.034720	0.361261	-0.688899	-0.690206	0.056064	47.4607	-0.689785	-1.418980E+9	-3.950999E-11	NaN
669	1.000000	0.370605	7.3716e+06	-43639.1	1005.82	-29778.4	0.000000	0.000000	6.370897	-0.001347	NaN	0.000000	0.001602	0.001716	28.0832	0.069357	0.002064	33.6106	155.9	-164.154	0.031502	0.369311	-0.680862	-0.682156	-0.001347	33.6106	-0.680832	-1.070483E+9	1.258759E-12	NaN
669	1.000000	0.378579	7.3716e+06	-43639.1	1005.82	-29778.4	0.000000	0.000000	6.378871	0.013033	NaN	0.000000	0.001570	0.001739	28.0832	0.047026	0.001954	24.0726	-105.191	-164.072	0.059097	0.377307	-0.672888	-0.674160	0.013033	24.0726	-0.673294	-8.442483E+8	-1.543771E-11	NaN
669	1.000000	0.386585	7.3716e+06	-43639.1	1005.82	-29778.4	0.000000	0.000000	6.386877	-0.015353	NaN	0.000000	0.001598	0.001748	28.083	0.116154	0.001942	59.8202	1.964846	-167.586	0.015086	0.385263	-0.664881	-0.666203	-0.015353	59.8202	-0.664689	-6.436944E+8	2.385175E-11	NaN
669	1.000000	0.394601	7.3716e+06	-43639.1	1005.82	-29778.4	0.000000	0.000000	6.394895	0.019983	NaN	0.000000	0.001596	0.001713	28.0831	0.086919	0.002061	42.1663	83.3045	-165.059	7.338630E-6	0.393318	-0.656865	-0.658148	0.019983	42.1663	-0.657221	-5.086204E+8	-3.928861E-11	NaN
669	1.000000	0.402600	7.3716e+06	-43639.1	1005.82	-29778.4	0.000000	0.000000	6.402893	0.006248	NaN	0.000000	0.001572	0.001740	28.0832	0.091997	0.002044	45.0158	-40.4738	-166.181	0.084410	0.401254	-0.648866	-0.650213	0.006248	45.0158	-0.648970	-3.920296E+8	-1.593679E-11	NaN
669	1.000000	0.410605	7.3716e+06	-43639.1	1005.82	-29778.4	0.000000	0.000000	6.410896	-0.033392	NaN	0.000000	0.001554	0.001714	28.0829	0.090987	0.002041	44.5741	79.7255	-166.306	0.054699	0.409296	-0.640861	-0.642171	-0.033392	44.5741	-0.640299	-2.981234E+8	1.120089E-10	NaN
669	1.000000	0.418599	7.3716e+06	-43639.1	1005.82	-29778.4	0.000000	0.000000	6.418890	-0.025800	NaN	0.000000	0.001576	0.001761	28.083	0.142359	0.001992	71.4824	-31.9452	-164.944	-0.041098	0.417310	-0.632868	-0.634156	-0.025800	71.4824	-0.632597	-2.337122E+8	1.103910E-10	NaN
669	1.000000	0.426622	7.3716e+06	-43639.1	1005.82	-29778.4	0.000000	0.000000	6.426914	-0.022022	NaN	0.000000	0.001583	0.001737	28.0828	0.044928	0.002009	22.3626	157.6	-168.065	-0.039889	0.425283	-0.624844	-0.626184	-0.022022	22.3626	-0.624106	-1.786728E+8	1.232536E-10	NaN
669	1.000000	0.434616	7.3716e+06	-43639.1	1005.82	-29778.4	0.000000	0.000000	6.434909	0.010633	NaN	0.000000	0.001571	0.001783	28.0832	0.050593	0.001971	25.672	88.0581	-166.207	0.119255	0.433313	-0.616851	-0.618153	0.010633	25.672	-0.617161	-1.434196E+8	-7.413976E-11	NaN
669	1.000000	0.442596	7.3716e+06	-43639.1	1005.82	-29778.4	0.000000	0.000000	6.442889	-0.006979	NaN	0.000000	0.001586	0.001750	28.0842	0.075019	0.002000	37.5084	-26.6562	-165.098	0.087572	0.441312	-0.608870	-0.610155	-0.006979	37.5084	-0.608731	-1.098115E+8	6.355782E-11	NaN
669	1.000000	0.450622	7.3716e+06	-43639.1	1005.82	-29778.4	0.000000	0.000000	6.450917	0.045799	NaN	0.000000	0.001583	0.001678	28.0843	0.084128	0.002106	39.9507	63.4207	-164.091	0.012472	0.449371	-0.600844	-0.602096	0.045799	39.9507	-0.601704	-8.788701E+7	-5.211072E-10	NaN
669	1.000000	0.458613	7.3716e+06	-43639.1	1005.82	-29778.4	0.000000	0.000000	6.458903	-0.052709	NaN	0.000000	0.001593	0.001706	28.0842	0.100350	0.001952	51.4012	74.0891	-169.209	-0.134728	0.457317	-0.592854	-0.594150	-0.052709	51.4012	-0.592085	-6.477471E+7	8.137241E-10	NaN
669	1.000000	0.466593	7.3716e+06	-43639.1	1005.82	-29778.4	0.000000	0.000000	6.466885	0.000409	NaN	0.000000	0.001544	0.001735	28.0842	0.028307	0.001958	14.4562	-44.7399	-168.381	0.082067	0.465349	-0.584874	-0.586118	0.000409	14.4562	-0.584895	-5.155404E+7	-7.932772E-12	NaN
669	1.000000	0.474630	7.3716e+06	-43639.1	1005.82	-29778.4	0.000000	0.000000	6.474925	0.047807	NaN	0.000000	0.001578	0.001705	28.0844	0.083681	0.001954	42.834	-83.8028	-167.742	0.020163	0.473367	-0.576836	-0.578099	0.047807	42.834	-0.577673	-4.098369E+7	-1.166495E-9	NaN
669	1.000000	0.482631	7.3716e+06	-43639.1	1005.82	-29778.4	0.000000	0.000000	6.482923	0.005104	NaN	0.000000	0.001581	0.001730	28.0841	0.050664	0.002078	24.381	-154.122	-166.279	0.018553	0.481325	-0.568836	-0.570142	0.005104	24.381	-0.568993	-3.109685E+7	-1.641254E-10	NaN
669	1.000000	0.490632	7.3716e+06	-43639.1	1005.82	-29778.4	0.000000	0.000000	6.490925	0.027018	NaN	0.000000	0.001543	0.001711	28.0845	0.129205	0.002204	58.6201	98.2222	-163.178	0.028521	0.489322	-0.560835	-0.562145	0.027018	58.6201	-0.561181	-2.424976E+7	-1.114158E-9	NaN
669	1.000000	0.498657	7.3716e+06	-43639.1	1005.82	-29778.4	0.000000	0.000000	6.498949	-0.022628	NaN	0.000000	0.001516	0.001698	28.0845	0.061234	0.002000	30.6111	68.0599	-169.358	-0.000403	0.497315	-0.552809	-0.554152	-0.022628	30.6111	-0.552255	-1.824659E+7	1.240135E-9	NaN
669	1.000000	0.506650	7.3716e+06	-43639.1	1005.82	-29778.4	0.000000	0.000000	6.506945	0.070225	NaN	0.000000	0.001524	0.001716	28.0842	0.076777	0.001937	39.6315	-164.378	-166.982	0.015670	0.505332	-0.544816	-0.546134	0.070225	39.6315	-0.546145	-1.501596E+7	-4.676672E-9	NaN
669	1.000000	0.514673	7.3716e+06	-43639.1	1005.82	-29778.4	0.000000	0.000000	6.514965	-0.002555	NaN	0.000000	0.001494	0.001765	28.0844	0.011819	0.001954	6.048526	121.037	-168.214	-0.042650	0.513354	-0.536793	-0.538112	-0.002555	6.048526	-0.536477	-1.102756E+7	2.317258E-10	NaN
669	1.000000	0.522672	7.3716e+06	-43639.1	1005.82	-29778.4	0.000000	0.000000	6.522968	0.092803	NaN	0.000000	0.001483	0.001715	28.0844	0.052755	0.002057	25.6464	-131.668	-167.802	0.041234	0.521337	-0.528794	-0.530129	0.092803	25.6464	-0.531508	-9.40847e+06	-9.863764E-9	NaN
669	1.000000	0.530668	7.3716e+06	-43639.1	1005.82	-29778.4	0.000000	0.000000	6.530960	0.005100	NaN	0.000000	0.001520	0.001700	28.0844	0.139401	0.001921	72.5533	-133.824	-164.717	0.016369	0.529324	-0.520799	-0.522143	0.005100	72.5533	-0.520852	-6.69022e+06	-7.622901E-10	NaN
669	1.000000	0.538629	7.3716e+06	-43639.1	1005.82	-29778.4	0.000000	0.000000	6.538920	-0.014947	NaN	0.000000	0.001528	0.001738	28.0845	0.025089	0.002062	12.1663	-101.86	-164.887	-0.060331	0.537387	-0.512838	-0.514080	-0.014947	12.1663	-0.511916	-5.02465e+06	2.974808E-9	NaN
669	1.000000	0.546645	7.3716e+06	-43639.1	1005.82	-29778.4	0.000000	0.000000	6.546938	0.017264	NaN	0.000000	0.001483	0.001704	28.0844	0.161701	0.001977	81.8001	-50.8269	-164.972	0.041023	0.545315	-0.504822	-0.506152	0.017264	81.8001	-0.504980	-4.02222e+06	-4.292134E-9	NaN
669	1.000000	0.554673	7.3716e+06	-43639.1	1005.82	-29778.4	0.000000	0.000000	6.554965	0.012569	NaN	0.000000	0.001564	0.001727	28.0846	0.052860	0.001999	26.4369	-68.8227	-166.309	0.028106	0.553369	-0.496794	-0.498097	0.012569	26.4369	-0.497151	-3.12793e+06	-4.018455E-9	NaN
669	1.000000	0.562690	7.3716e+06	-43639.1	1005.82	-29778.4	0.000000	0.000000	6.562981	-0.038836	NaN	0.000000	0.001577	0.001697	28.0845	0.003319	0.002154	1.540900	54.1817	-165.958	0.058721	0.561366	-0.488777	-0.490100	-0.038836	1.540900	-0.469874	-1.29911e+06	2.989402E-8	NaN
669	1.000000	0.570691	7.3716e+06	-43639.1	1005.82	-29778.4	0.000000	0.000000	6.570987	0.094130	NaN	0.000000	0.001576	0.001715	28.0843	0.107419	0.002253	47.685	115.737	-166.898	0.005435	0.569303	-0.480776	-0.482163	0.094130	47.685	-0.482256	-1.9369e+06	-4.859844E-8	NaN
669	1.000000	0.578696	7.3716e+06	-43639.1	1005.82	-29778.4	0.000000	0.000000	6.578989	0.022804	NaN	0.000000	0.001596	0.001716	28.0835	0.036242	0.002038	17.7861	-109.042	-167.022	-0.009875	0.577366	-0.472771	-0.474100	0.022804	17.7861	-0.473732	-1.47141e+06	-1.549781E-8	NaN
669	1.000000	0.586677	7.3716e+06	-43639.1	1005.82	-29778.4	0.000000	0.000000	6.586968	-0.019938	NaN	0.000000	0.001600	0.001719	28.0832	0.038231	0.001894	20.1829	11.4982	-167.14	-0.029035	0.585435	-0.464790	-0.466032	-0.019938	20.1829	-0.464049	-1.0762e+06	1.852603E-8	NaN
669	1.000000	0.594664	7.3716e+06	-43639.1	1005.82	-29778.4	0.000000	0.000000	6.594957	0.036415	NaN	0.000000	0.001598	0.001716	28.0832	0.103017	0.001802	57.18	5.636739	-167.071	0.012900	0.593364	-0.456803	-0.458103	0.036415	57.18	-0.457281	-864555	-4.212031E-8	NaN
669	1.000000	0.602674	7.3716e+06	-43639.1	1005.82	-29778.4	0.000000	0.000000	6.602966	-0.002261	NaN	0.000000	0.001619	0.001712	28.0831	0.065805	0.001993	33.024	131.777	-166.774	-0.035534	0.601373	-0.448793	-0.450093	-0.002261	33.024	-0.448741	-655563	3.448698E-9	NaN
669	1.000000	0.610695	7.3716e+06	-43639.1	1005.82	-29778.4	0.000000	0.000000	6.610987	-0.010949	NaN	0.000000	0.001626	0.001727	28.0835	0.057756	0.002007	28.7702	-7.381787	-169.611	-0.033196	0.609363	-0.440772	-0.442104	-0.010949	28.7702	-0.440486	-501448	2.183475E-8	NaN
669	1.000000	0.618713	7.3716e+06	-43639.1	1005.82	-29778.4	0.000000	0.000000	6.619006	0.006916	NaN	0.000000	0.001542	0.001760	28.0833	0.025421	0.002197	11.572	176.385	-165.638	-0.012348	0.617374	-0.432754	-0.434093	0.006916	11.572	-0.433202	-395676	-1.747790E-8	NaN
669	1.000000	0.626685	7.3716e+06	-43639.1	1005.82	-29778.4	0.000000	0.000000	6.626976	-0.034101	NaN	0.000000	0.001540	0.001775	28.0834	0.070675	0.002094	33.7449	110.727	-164.564	-0.015269	0.625409	-0.424781	-0.426058	-0.034101	33.7449	-0.424024	-293393	1.162297E-7	NaN
669	1.000000	0.634729	7.3716e+06	-43639.1	1005.82	-29778.4	0.000000	0.000000	6.635018	-0.077565	NaN	0.000000	0.001545	0.001727	28.0833	0.097286	0.001880	51.7615	-93.144	-167.974	-0.008885	0.633399	-0.416738	-0.418068	-0.077565	51.7615	-0.415614	-222931	3.479347E-7	NaN
669	1.000000	0.642720	7.3716e+06	-43639.1	1005.82	-29778.4	0.000000	0.000000	6.643014	0.041140	NaN	0.000000	0.001549	0.001793	28.0833	0.028809	0.002126	13.5511	147.893	-164.183	0.034598	0.641368	-0.408746	-0.410098	0.041140	13.5511	-0.411023	-191845	-2.144456E-7	NaN
669	1.000000	0.650701	7.3716e+06	-43639.1	1005.82	-29778.4	0.000000	0.000000	6.650997	0.094509	NaN	0.000000	0.001575	0.001738	28.0835	0.011970	0.002080	5.756075	-127.997	-164.852	-0.018336	0.649357	-0.400766	-0.402110	0.094509	5.756075	-0.413080	-205202	-4.605659E-7	NaN
669	1.000000	0.658709	7.3716e+06	-43639.1	1005.82	-29778.4	0.000000	0.000000	6.659002	0.026006	NaN	0.000000	0.001555	0.001771	28.0832	0.115280	0.001953	59.0146	-65.8356	-168.105	-0.007276	0.657419	-0.392758	-0.394048	0.026006	59.0146	-0.393088	-106493	-2.442020E-7	NaN
669	1.000000	0.666714	7.3716e+06	-43639.1	1005.82	-29778.4	0.000000	0.000000	6.667006	-0.008308	NaN	0.000000	0.001534	0.001753	28.0833	0.021532	0.001892	11.3823	112.08	-163.873	-0.018204	0.665385	-0.384753	-0.386081	-0.008308	11.3823	-0.384205	-79468.7	1.045399E-7	NaN
669	1.000000	0.674716	7.3716e+06	-43639.1	1005.82	-29778.4	0.000000	0.000000	6.675006	-0.049185	NaN	0.000000	0.001529	0.001752	28.0832	0.080369	0.002107	38.137	77.5071	-168.889	-0.001197	0.673379	-0.376751	-0.378087	-0.049185	38.137	-0.375784	-60163.8	8.175259E-7	NaN
669	1.000000	0.682712	7.3716e+06	-43639.1	1005.82	-29778.4	0.000000	0.000000	6.683004	0.006486	NaN	0.000000	0.001568	0.001795	28.0834	0.007336	0.001995	3.677985	150.324	-166.282	0.009635	0.681361	-0.368755	-0.370105	0.006486	3.677985	-0.370078	-49801.7	-1.302371E-7	NaN
669	1.000000	0.690726	7.3716e+06	-43639.1	1005.82	-29778.4	0.000000	0.000000	6.691018	-0.012626	NaN	0.000000	0.001587	0.001760	28.0834	0.095203	0.001921	49.5566	-13.6551	-163.896	-0.040686	0.689409	-0.360741	-0.362058	-0.012626	49.5566	-0.360549	-36290	3.479261E-7	NaN
669	1.000000	0.698714	7.3716e+06	-43639.1	1005.82	-29778.4	0.000000	0.000000	6.699008	0.039003	NaN	0.000000	0.001601	0.001704	28.0832	0.127274	0.002015	63.1698	-79.4082	-167.897	0.035251	0.697393	-0.352753	-0.354074	0.039003	63.1698	-0.353216	-28421.2	-1.372339E-6	NaN
669	1.000000	0.706721	7.3716e+06	-43639.1	1005.82	-29778.4	0.000000	0.000000	6.707012	-0.023146	NaN	0.000000	0.001582	0.001704	28.0834	0.079573	0.001941	40.9905	9.951799	-167.109	-0.025980	0.705416	-0.344746	-0.346051	-0.023146	40.9905	-0.344322	-21110.6	1.096433E-6	NaN
669	1.000000	0.714755	7.3716e+06	-43639.1	1005.82	-29778.4	0.000000	0.000000	6.715050	0.065171	NaN	0.000000	0.001588	0.001692	28.0844	0.067059	0.001946	34.4578	139.781	-162.558	0.056050	0.713410	-0.336712	-0.338057	0.065171	34.4578	-0.338130	-17151	-3.799863E-6	NaN
669	1.000000	0.722744	7.3716e+06	-43639.1	1005.82	-29778.4	0.000000	0.000000	6.723037	0.004951	NaN	0.000000	0.001584	0.001697	28.0848	0.050069	0.002048	24.4519	122.973	-165.861	0.022020	0.721413	-0.328723	-0.330054	0.004951	24.4519	-0.328874	-12559.2	-3.941892E-7	NaN
669	1.000000	0.730753	7.3716e+06	-43639.1	1005.82	-29778.4	0.000000	0.000000	6.731047	0.050714	NaN	0.000000	0.001619	0.001718	28.0843	0.038221	0.002137	17.8887	-28.8514	-165.217	0.082658	0.729436	-0.320714	-0.322031	0.050714	17.8887	-0.322840	-10242.5	-4.951296E-6	NaN
669	1.000000	0.738777	7.3716e+06	-43639.1	1005.82	-29778.4	0.000000	0.000000	6.739069	0.010075	NaN	0.000000	0.001570	0.001703	28.084	0.085211	0.001893	45.018	-25.3671	-166.101	0.017467	0.737409	-0.312690	-0.314057	0.010075	45.018	-0.312858	-7299.87	-1.380228E-6	NaN
669	1.000000	0.746750	7.3716e+06	-43639.1	1005.82	-29778.4	0.000000	0.000000	6.747043	0.023406	NaN	0.000000	0.001572	0.001728	28.0841	0.060083	0.002079	28.905	138.856	-165.003	0.021570	0.745466	-0.304717	-0.306000	0.023406	28.905	-0.305324	-5646.29	-4.145363E-6	NaN
669	1.000000	0.754751	7.3716e+06	-43639.1	1005.82	-29778.4	0.000000	0.000000	6.755044	0.009767	NaN	0.000000	0.001596	0.001728	28.0841	0.073836	0.002042	36.1634	-105.303	-166.906	-0.003768	0.753495	-0.296715	-0.297971	0.009767	36.1634	-0.296918	-4233.62	-2.306942E-6	NaN
669	1.000000	0.762760	7.3716e+06	-43639.1	1005.82	-29778.4	0.000000	0.000000	6.763054	0.042569	NaN	0.000000	0.001592	0.001715	28.0846	0.076947	0.001977	38.927	142.387	-166.652	0.116591	0.761526	-0.288707	-0.289941	0.042569	38.927	-0.289527	-3282.56	-1.296809E-5	NaN
669	1.000000	0.770778	7.3716e+06	-43639.1	1005.82	-29778.4	0.000000	0.000000	6.771071	0.012595	NaN	0.000000	0.001589	0.001747	28.084	0.064484	0.002046	31.5145	-23.428	-165.924	0.074231	0.769396	-0.280688	-0.282071	0.012595	31.5145	-0.280988	-2442.7	-5.156131E-6	NaN
669	1.000000	0.778757	7.3716e+06	-43639.1	1005.82	-29778.4	0.000000	0.000000	6.779047	-0.050266	NaN	0.000000	0.001594	0.001738	28.084	0.048735	0.002017	24.1675	87.1053	-167.24	-0.073825	0.777453	-0.272710	-0.274014	-0.050266	24.1675	-0.271150	-1733.87	2.899089E-5	NaN
669	1.000000	0.786776	7.3716e+06	-43639.1	1005.82	-29778.4	0.000000	0.000000	6.787070	0.030743	NaN	0.000000	0.001593	0.001725	28.084	0.065405	0.002097	31.1971	-103.824	-167.836	0.054576	0.785472	-0.264690	-0.265994	0.030743	31.1971	-0.265429	-1418.87	-2.166699E-5	NaN
669	1.000000	0.794764	7.3716e+06	-43639.1	1005.82	-29778.4	0.000000	0.000000	6.795056	-0.007605	NaN	0.000000	0.001584	0.001755	28.0841	0.020142	0.001992	10.1111	83.7711	-168.393	0.023359	0.793495	-0.256703	-0.257971	-0.007605	10.1111	-0.256139	-1022.44	7.438130E-6	NaN
669	1.000000	0.802741	7.3716e+06	-43639.1	1005.82	-29778.4	0.000000	0.000000	6.803034	0.016446	NaN	0.000000	0.001629	0.001750	28.0843	0.108455	0.001999	54.2515	-36.8764	-166.783	0.025068	0.801496	-0.248726	-0.249970	0.016446	54.2515	-0.248953	-792.075	-2.076301E-5	NaN
669	1.000000	0.810780	7.3716e+06	-43639.1	1005.82	-29778.4	0.000000	0.000000	6.811071	-0.037293	NaN	0.000000	0.001594	0.001730	28.0842	0.053616	0.001994	26.8933	139.742	-166.229	-0.060289	0.809478	-0.240687	-0.241989	-0.037293	26.8933	-0.239647	-567.585	6.570406E-5	NaN
669	1.000000	0.818759	7.3716e+06	-43639.1	1005.82	-29778.4	0.000000	0.000000	6.819052	0.006219	NaN	0.000000	0.001580	0.001711	28.0844	0.059798	0.002013	29.7035	-59.7538	-161.338	-0.058794	0.817436	-0.232708	-0.234031	0.006219	29.7035	-0.232865	-444.301	-1.399763E-5	NaN
669	1.000000	0.826775	7.3716e+06	-43639.1	1005.82	-29778.4	0.000000	0.000000	6.827066	-0.016922	NaN	0.000000	0.001587	0.001701	28.0842	0.109550	0.002128	51.4719	151.844	-164.197	0.044706	0.825492	-0.224692	-0.225975	-0.016922	51.4719	-0.224445	-326.98	5.175260E-5	NaN
669	1.000000	0.834805	7.3716e+06	-43639.1	1005.82	-29778.4	0.000000	0.000000	6.835098	0.012625	NaN	0.000000	0.001606	0.001720	28.0841	0.092861	0.002061	45.0495	156.008	-168.979	0.086573	0.833493	-0.216661	-0.217973	0.012625	45.0495	-0.216871	-247.501	-5.101009E-5	NaN
669	1.000000	0.842824	7.3716e+06	-43639.1	1005.82	-29778.4	0.000000	0.000000	6.843116	0.007236	NaN	0.000000	0.001615	0.001727	28.0843	0.002740	0.002121	1.291887	-108.534	-164.57	0.017001	0.841491	-0.208643	-0.209976	0.007236	1.291887	-0.212844	-213.196	-3.393834E-5	NaN
669	1.000000	0.850785	7.3716e+06	-43639.1	1005.82	-29778.4	0.000000	0.000000	6.851078	0.009718	NaN	0.000000	0.001643	0.001704	28.083	0.021469	0.002023	10.6099	-115.945	-166.232	0.002158	0.849478	-0.200682	-0.201989	0.009718	10.6099	-0.201369	-138.73	-7.005116E-5	NaN
669	1.000000	0.858815	7.3716e+06	-43639.1	1005.82	-29778.4	0.000000	0.000000	6.859109	0.028029	NaN	0.000000	0.001599	0.001755	28.0832	0.095717	0.002019	47.4024	146.785	-166.028	0.005086	0.857451	-0.192651	-0.194015	0.028029	47.4024	-0.193095	-101.295	-0.000277	NaN
669	1.000000	0.866782	7.3716e+06	-43639.1	1005.82	-29778.4	0.000000	0.000000	6.867078	0.075941	NaN	0.000000	0.001608	0.001750	28.0833	0.020322	0.002097	9.689174	-92.3118	-166.734	0.071291	0.865493	-0.184684	-0.185973	0.075941	9.689174	-0.190563	-91.923	-0.000826	NaN
669	1.000000	0.874804	7.3716e+06	-43639.1	1005.82	-29778.4	0.000000	0.000000	6.875095	-0.016221	NaN	0.000000	0.001586	0.001753	28.0831	0.067303	0.002033	33.0991	-130.837	-168.96	-0.061333	0.873467	-0.176663	-0.178000	-0.016221	33.0991	-0.176295	-52.7487	0.000308	NaN
669	1.000000	0.882822	7.3716e+06	-43639.1	1005.82	-29778.4	0.000000	0.000000	6.883113	-0.025885	NaN	0.000000	0.001591	0.001731	28.0829	0.096663	0.001973	48.9877	141.994	-166.471	-0.070107	0.881482	-0.168645	-0.169985	-0.025885	48.9877	-0.168248	-38.2944	0.000676	NaN
669	1.000000	0.890805	7.3716e+06	-43639.1	1005.82	-29778.4	0.000000	0.000000	6.891095	-0.070879	NaN	0.000000	0.001608	0.001776	28.0828	0.049248	0.001932	25.497	-175.632	-165.782	-0.078082	0.889496	-0.160661	-0.161970	-0.070879	25.497	-0.158577	-25.8611	0.002741	NaN
669	1.000000	0.898790	7.3716e+06	-43639.1	1005.82	-29778.4	0.000000	0.000000	6.899083	0.030653	NaN	0.000000	0.001632	0.001738	28.0829	0.045272	0.001968	23.009	-102.746	-167.817	-0.025915	0.897567	-0.152677	-0.153900	0.030653	23.009	-0.153676	-21.121	-0.001451	NaN
669	1.000000	0.906823	7.3716e+06	-43639.1	1005.82	-29778.4	0.000000	0.000000	6.907117	0.024572	NaN	0.000000	0.001606	0.001730	28.0832	0.112464	0.002108	53.3582	-153.498	-166.53	0.099701	0.905462	-0.144643	-0.146005	0.024572	53.3582	-0.144989	-14.654	-0.001677	NaN
669	1.000000	0.914823	7.3716e+06	-43639.1	1005.82	-29778.4	0.000000	0.000000	6.915113	-0.053899	NaN	0.000000	0.001628	0.001746	28.0833	0.056156	0.001969	28.5128	132.861	-163.993	-0.011722	0.913456	-0.136644	-0.138011	-0.053899	28.5128	-0.135226	-9.607341	0.005610	NaN
669	1.000000	0.922803	7.3716e+06	-43639.1	1005.82	-29778.4	0.000000	0.000000	6.923096	0.015062	NaN	0.000000	0.001620	0.001746	28.0832	0.042194	0.002009	21.0011	-110.449	-171.802	-0.043314	0.921538	-0.128664	-0.129929	0.015062	21.0011	-0.129202	-7.353320	-0.002048	NaN
669	1.000000	0.930803	7.3716e+06	-43639.1	1005.82	-29778.4	0.000000	0.000000	6.931093	-0.057114	NaN	0.000000	0.001588	0.001723	28.0837	0.046424	0.002156	21.5351	-107.875	-167.787	-0.043073	0.929543	-0.120663	-0.121924	-0.057114	21.5351	-0.118674	-4.542027	0.012575	NaN
669	1.000000	0.938824	7.3716e+06	-43639.1	1005.82	-29778.4	0.000000	0.000000	6.939119	0.054357	NaN	0.000000	0.001628	0.001706	28.0836	0.080412	0.001957	41.0845	47.8484	-164.803	0.045328	0.937520	-0.112642	-0.113946	0.054357	41.0845	-0.113635	-3.579946	-0.015184	NaN
669	1.000000	0.946846	7.3716e+06	-43639.1	1005.82	-29778.4	0.000000	0.000000	6.947139	0.023838	NaN	0.000000	0.001604	0.001753	28.0833	0.025750	0.001995	12.9048	-121.784	-163.249	0.066440	0.945462	-0.104621	-0.106004	0.023838	12.9048	-0.106006	-2.470899	-0.009648	NaN
669	1.000000	0.954816	7.3716e+06	-43639.1	1005.82	-29778.4	0.000000	0.000000	6.955110	0.037398	NaN	0.000000	0.001613	0.001766	28.0835	0.030258	0.001900	15.9242	-89.1471	-165.018	0.056114	0.953487	-0.096651	-0.097980	0.037398	15.9242	-0.098412	-1.684316	-0.022204	NaN
669	1.000000	0.962839	7.3716e+06	-43639.1	1005.82	-29778.4	0.000000	0.000000	6.963133	0.035848	NaN	0.000000	0.001611	0.001771	28.083	0.071733	0.001934	37.0843	-149.275	-168.734	0.057521	0.961509	-0.088628	-0.089957	0.035848	37.0843	-0.089353	-1.043747	-0.034345	NaN
669	1.000000	0.970841	7.3716e+06	-43639.1	1005.82	-29778.4	0.000000	0.000000	6.971133	-0.005149	NaN	0.000000	0.001603	0.001710	28.0832	0.052707	0.001930	27.3136	53.6122	-170.659	0.020573	0.969548	-0.080626	-0.081919	-0.005149	27.3136	-0.080485	-0.636479	0.008090	NaN
669	1.000000	0.978837	7.3716e+06	-43639.1	1005.82	-29778.4	0.000000	0.000000	6.979132	0.082101	NaN	0.000000	0.001617	0.001733	28.0831	0.020567	0.002003	10.2668	23.5432	-167.292	0.138099	0.977525	-0.072630	-0.073942	0.082101	10.2668	-0.078627	-0.571751	-0.143595	NaN
669	1.000000	0.986885	7.3716e+06	-43639.1	1005.82	-29778.4	0.000000	0.000000	6.987181	0.087802	NaN	0.000000	0.001601	0.001759	28.0843	0.085660	0.001930	44.3805	135.865	-167.674	0.056302	0.985546	-0.064582	-0.065921	0.087802	44.3805	-0.066065	-0.266700	-0.329216	NaN
669	1.000000	0.994854	7.3716e+06	-43639.1	1005.82	-29778.4	0.000000	0.000000	6.995146	-0.003558	NaN	0.000000	0.001605	0.001762	28.0844	0.082149	0.002025	40.5585	27.1176	-167.98	-0.045352	0.993591	-0.056613	-0.057875	-0.003558	40.5585	-0.056547	-0.143009	0.024878	NaN
669	1.000000	1.002855	7.3716e+06	-43639.1	1005.82	-29778.4	0.000000	0.000000	7.003146	-0.027318	NaN	0.000000	0.001637	0.001784	28.0842	0.162580	0.001990	81.706	112.755	-167.583	0.004936	1.001530	-0.048612	-0.049936	-0.027318	81.706	-0.048361	-0.081384	0.335669	NaN
669	1.000000	1.010857	7.3716e+06	-43639.1	1005.82	-29778.4	0.000000	0.000000	7.011148	-0.024240	NaN	0.000000	0.001663	0.001777	28.0846	0.056240	0.001965	28.6148	-11.1359	-163.245	0.048818	1.009521	-0.040610	-0.041946	-0.024240	28.6148	-0.039974	-0.045141	0.536975	NaN
669	1.000000	1.018851	7.3716e+06	-43639.1	1005.82	-29778.4	0.000000	0.000000	7.019144	0.008969	NaN	0.000000	0.001651	0.001742	28.0841	0.041067	0.002068	19.8545	0.914215	-166.719	-0.021265	1.017522	-0.032615	-0.033945	0.008969	19.8545	-0.032954	-0.027913	-0.321322	NaN
669	1.000000	1.026853	7.3716e+06	-43639.1	1005.82	-29778.4	0.000000	0.000000	7.027146	0.020100	NaN	0.000000	0.001668	0.001748	28.0845	0.064924	0.001996	32.5344	30.7645	-169.298	-0.059569	1.025500	-0.024613	-0.025966	0.020100	32.5344	-0.025077	-0.016948	-1.185954	NaN
669	1.000000	1.034845	7.3716e+06	-43639.1	1005.82	-29778.4	0.000000	0.000000	7.035138	0.016065	NaN	0.000000	0.001687	0.001753	28.0843	0.023995	0.002022	11.865	178.69	-168.535	-0.043562	1.033548	-0.016621	-0.017918	0.016065	11.865	-0.017637	-0.010923	-1.470800	NaN
669	1.000000	1.042867	7.3716e+06	-43639.1	1005.82	-29778.4	0.000000	0.000000	7.043158	-0.033181	NaN	0.000000	0.001701	0.001744	28.0842	0.039611	0.002017	19.6376	-178.055	-168.838	-0.082873	1.041566	-0.008600	-0.009901	-0.033181	19.6376	-0.007333	-0.004838	6.857911	NaN
669	1.000000	1.050849	7.3716e+06	-43639.1	1005.82	-29778.4	0.000000	0.000000	7.051142	0.015236	NaN	0.000000	0.001703	0.001748	28.0844	0.107701	0.002047	52.6125	-17.3982	-159.186	-0.028798	1.049487	-0.000617	-0.001980	0.015236	52.6125	-0.000835	-0.000614	-24.8203	NaN
669	1.000000	1.058879	7.3716e+06	-43639.1	1005.82	-29778.4	0.000000	0.000000	7.059325	3.741860	NaN	0.000000	0.001722	0.001730	28.0841	4.642546	0.001908	2433.36	14.6704	-169.672	3.064717	1.057520	0.007412	0.006054	3.741860	2433.36	0.006259	0.005312	704.421	30503.7
669	2.000000	1.064540	7.3716e+06	-43639.1	1005.82	-29778.4	0.000000	0.000000	7.065177	8.401279	NaN	0.000000	0.001739	0.001744	28.0841	9.288063	0.001799	5163.83	11.1689	-175.493	7.969061	1.064200	0.013073	0.012734	8.401279	5163.83	0.011853	0.011314	742.54	44354
669	2.000000	1.066492	7.3716e+06	-43639.1	1005.82	-29778.4	0.000000	0.000000	7.067240	11.0764	NaN	0.000000	0.001685	0.001730	28.0844	10.7843	0.001653	6524.43	2.585781	-170.198	10.5931	1.066211	0.015026	0.014745	11.0764	6524.43	0.013752	0.013658	811.007	51006.9
669	2.000000	1.068486	7.3716e+06	-43639.1	1005.82	-29778.4	0.000000	0.000000	7.069312	12.9823	NaN	0.000000	0.001629	0.001708	28.0845	13.4222	0.001823	7364.32	9.294734	-177.689	12.5871	1.068152	0.017019	0.016686	12.9823	7364.32	0.015697	0.016227	800.064	52819.3
669	2.000000	1.070461	7.3716e+06	-43639.1	1005.82	-29778.4	0.000000	0.000000	7.071408	15.9314	NaN	0.000000	0.001690	0.001748	28.0845	14.6453	0.001788	8189.3	6.766543	-174.652	15.3592	1.070153	0.018994	0.018686	15.9314	8189.3	0.017535	0.018816	846.677	54544.6
669	2.000000	1.072406	7.3716e+06	-43639.1	1005.82	-29778.4	0.000000	0.000000	7.073548	20.6619	NaN	0.000000	0.001617	0.001733	28.0843	17.2582	0.001836	9400.89	9.335177	-179.395	19.7231	1.072078	0.020939	0.020611	20.6619	9400.89	0.019291	0.021440	963.689	58657.8
669	2.000000	1.074468	7.3716e+06	-43639.1	1005.82	-29778.4	0.000000	0.000000	7.075741	23.8608	NaN	0.000000	0.001626	0.001737	28.0843	18.5118	0.001811	10224.1	5.420256	-176.183	23.6069	1.074146	0.023002	0.022679	23.8608	10224.1	0.021251	0.024547	972.059	59621.3
669	2.000000	1.076445	7.3716e+06	-43639.1	1005.82	-29778.4	0.000000	0.000000	7.077826	26.4897	NaN	0.000000	0.001643	0.001716	28.0844	19.7103	0.001714	11498.5	4.382885	-175.667	26.0435	1.076157	0.024978	0.024691	26.4897	11498.5	0.023250	0.027909	949.146	62884.6
669	2.000000	1.078428	7.3716e+06	-43639.1	1005.82	-29778.4	0.000000	0.000000	7.080044	32.1846	NaN	0.000000	0.001635	0.001710	28.0833	22.6219	0.001820	12426.3	6.195636	-178.378	31.7498	1.078159	0.026962	0.026693	32.1846	12426.3	0.025019	0.031051	1036.52	64429
669	2.000000	1.080398	7.3716e+06	-43639.1	1005.82	-29778.4	0.000000	0.000000	7.082183	36.3105	NaN	0.000000	0.001667	0.001725	28.0832	24.022	0.001593	15082.8	6.417784	177.773	34.5081	1.080153	0.028931	0.028687	36.3105	15082.8	0.027126	0.034996	1037.55	73662.2
669	2.000000	1.082368	7.3716e+06	-43639.1	1005.82	-29778.4	0.000000	0.000000	7.084409	42.5451	NaN	0.000000	0.001581	0.001761	28.0831	26.1387	0.001775	14722.7	4.212936	-178.095	39.7196	1.081983	0.030901	0.030517	42.5451	14722.7	0.028734	0.038161	1114.89	68857.9
669	2.000000	1.084451	7.3716e+06	-43639.1	1005.82	-29778.4	0.000000	0.000000	7.086801	50.0487	NaN	0.000000	0.001595	0.001724	28.0829	28.881	0.001839	15701.2	5.939406	179.935	49.7128	1.084095	0.032985	0.032628	50.0487	15701.2	0.030594	0.041984	1192.09	70010.5
669	2.000000	1.086405	7.3716e+06	-43639.1	1005.82	-29778.4	0.000000	0.000000	7.088925	54.2109	NaN	0.000000	0.001650	0.001764	28.0831	30.4862	0.001748	17441.3	6.008586	178.009	53.6015	1.086090	0.034938	0.034624	54.2109	17441.3	0.032607	0.046320	1170.35	74039.8
669	2.000000	1.088372	7.3716e+06	-43639.1	1005.82	-29778.4	0.000000	0.000000	7.091263	63.2155	NaN	0.000000	0.001635	0.001740	28.0829	32.8485	0.001864	17622.7	3.677486	-179.782	61.3834	1.088137	0.036905	0.036671	63.2155	17622.7	0.034215	0.049934	1265.99	72052.2
669	2.000000	1.090392	7.3716e+06	-43639.1	1005.82	-29778.4	0.000000	0.000000	7.093592	70.7436	NaN	0.000000	0.001592	0.001748	28.0846	34.0471	0.001759	19351.1	3.701186	-179.865	69.1988	1.090079	0.038926	0.038613	70.7436	19351.1	0.036184	0.054539	1297.13	75705.4
669	2.000000	1.092375	7.3716e+06	-43639.1	1005.82	-29778.4	0.000000	0.000000	7.095742	74.798	NaN	0.000000	0.001632	0.001753	28.0832	36.9492	0.001931	19135.4	5.631892	177.289	73.3185	1.092206	0.040908	0.040739	74.798	19135.4	0.037977	0.058904	1269.82	72034
669	2.000000	1.094411	7.3716e+06	-43639.1	1005.82	-29778.4	0.000000	0.000000	7.098265	86.6558	NaN	0.000000	0.001602	0.001728	28.0829	37.7427	0.001761	21433	6.789459	176.943	85.3187	1.093984	0.042944	0.042517	86.6558	21433	0.039912	0.063801	1358.21	77525.1
669	2.000000	1.096394	7.3716e+06	-43639.1	1005.82	-29778.4	0.000000	0.000000	7.100505	92.8878	NaN	0.000000	0.001656	0.001761	28.083	39.2511	0.001811	21669.6	4.519923	178.71	92.343	1.096060	0.044928	0.044593	92.8878	21669.6	0.041713	0.068530	1355.43	75628.2
669	2.000000	1.098400	7.3716e+06	-43639.1	1005.82	-29778.4	0.000000	0.000000	7.102763	99.0238	NaN	0.000000	0.001631	0.001749	28.0829	42.3738	0.001842	23008.2	5.294435	176.862	99.0446	1.098082	0.046934	0.046616	99.0238	23008.2	0.043706	0.073956	1338.96	77298.2
669	2.000000	1.100359	7.3716e+06	-43639.1	1005.82	-29778.4	0.000000	0.000000	7.105277	112.542	NaN	0.000000	0.001643	0.001767	28.0842	42.4161	0.001718	24682.9	4.691476	176.418	110.609	1.100026	0.048893	0.048560	112.542	24682.9	0.045473	0.078936	1425.74	80266
669	2.000000	1.102346	7.3716e+06	-43639.1	1005.82	-29778.4	0.000000	0.000000	7.107571	120.02	NaN	0.000000	0.001638	0.001768	28.0831	45.8063	0.001790	25586.8	4.484148	176.697	117.124	1.102052	0.050879	0.050585	120.02	25586.8	0.047361	0.084432	1421.5	80452
669	2.000000	1.104449	7.3716e+06	-43639.1	1005.82	-29778.4	0.000000	0.000000	7.110005	128.042	NaN	0.000000	0.001620	0.001793	28.083	48.0321	0.001880	25552.6	6.254584	175.215	128.547	1.104031	0.052983	0.052564	128.042	25552.6	0.049225	0.090031	1422.19	77805.7
669	2.000000	1.106311	7.3716e+06	-43639.1	1005.82	-29778.4	0.000000	0.000000	7.112338	139.535	NaN	0.000000	0.001632	0.001804	28.0835	48.7785	0.001699	28708.2	5.542823	175.149	136.526	1.105975	0.054844	0.054509	139.535	28708.2	0.051199	0.096155	1451.15	84585.1
669	2.000000	1.108384	7.3716e+06	-43639.1	1005.82	-29778.4	0.000000	0.000000	7.114801	149.013	NaN	0.000000	0.001621	0.001770	28.0831	51.9536	0.001788	29048.8	4.019492	175.811	150.356	1.108111	0.056917	0.056644	149.013	29048.8	0.053070	0.102138	1458.94	83043.7
669	2.000000	1.110362	7.3716e+06	-43639.1	1005.82	-29778.4	0.000000	0.000000	7.117140	157.791	NaN	0.000000	0.001615	0.001724	28.0835	53.6669	0.001810	29643.3	5.749930	173.526	156.282	1.110071	0.058895	0.058605	157.791	29643.3	0.054903	0.108168	1458.75	82347.5
669	2.000000	1.112367	7.3716e+06	-43639.1	1005.82	-29778.4	0.000000	0.000000	7.119668	170.515	NaN	0.000000	0.001666	0.001739	28.0841	55.7934	0.001885	29595.1	3.741794	176.6	168.277	1.111965	0.060900	0.060499	170.515	29595.1	0.056579	0.113827	1498.02	80143.7
669	2.000000	1.114378	7.3716e+06	-43639.1	1005.82	-29778.4	0.000000	0.000000	7.121998	178.276	NaN	0.000000	0.001652	0.001754	28.0844	58.2392	0.001803	32302.4	6.810880	172.124	176.52	1.114068	0.062912	0.062601	178.276	32302.4	0.058772	0.121443	1467.98	84688
669	2.000000	1.116428	7.3716e+06	-43639.1	1005.82	-29778.4	0.000000	0.000000	7.124430	187.571	NaN	0.000000	0.001671	0.001752	28.0846	58.6046	0.001701	34460	3.224186	175.485	192.437	1.116043	0.064962	0.064576	187.571	34460	0.060879	0.128981	1454.25	87664.9
669	2.000000	1.118359	7.3716e+06	-43639.1	1005.82	-29778.4	0.000000	0.000000	7.126960	202.153	NaN	0.000000	0.001652	0.001714	28.0844	62.9615	0.001908	32997.4	6.528806	172.525	201.41	1.118044	0.066892	0.066577	202.153	32997.4	0.062297	0.134175	1506.63	82303.2
669	2.000000	1.120323	7.3716e+06	-43639.1	1005.82	-29778.4	0.000000	0.000000	7.129309	211.5	NaN	0.000000	0.001653	0.001745	28.0847	63.3434	0.001836	34507.9	6.873813	171.762	210.397	1.120014	0.068857	0.068548	211.5	34507.9	0.064260	0.141525	1494.43	83806
669	2.000000	1.122351	7.3716e+06	-43639.1	1005.82	-29778.4	0.000000	0.000000	7.131911	225.463	NaN	0.000000	0.001667	0.001739	28.0842	65.2776	0.001716	38042.7	6.379279	171.485	223.579	1.121988	0.070884	0.070522	225.463	38042.7	0.066440	0.149907	1504.02	89770.6
669	2.000000	1.124393	7.3716e+06	-43639.1	1005.82	-29778.4	0.000000	0.000000	7.134695	243.521	NaN	0.000000	0.001627	0.001731	28.084	66.9284	0.001708	39187.5	4.214594	173.482	241.874	1.123964	0.072926	0.072497	243.521	39187.5	0.068266	0.157104	1550.06	90328.8
669	2.000000	1.126314	7.3716e+06	-43639.1	1005.82	-29778.4	0.000000	0.000000	7.136896	250.359	NaN	0.000000	0.001585	0.001699	28.0841	69.0167	0.001725	40012.9	4.721958	172.773	247.158	1.126053	0.074847	0.074587	250.359	40012.9	0.070154	0.164716	1519.94	90075.2
669	2.000000	1.128373	7.3716e+06	-43639.1	1005.82	-29778.4	0.000000	0.000000	7.139356	260.114	NaN	0.000000	0.001646	0.001719	28.084	71.5022	0.001867	38305.1	0.656682	177.004	260.152	1.128085	0.076906	0.076618	260.114	38305.1	0.071813	0.171542	1516.33	84497.7
669	2.000000	1.130362	7.3716e+06	-43639.1	1005.82	-29778.4	0.000000	0.000000	7.141966	275.198	NaN	0.000000	0.001639	0.001710	28.0843	72.4505	0.001732	41828.7	5.525316	171.438	276.04	1.130101	0.078895	0.078634	275.198	41828.7	0.073961	0.180573	1524.02	89933.3
669	2.000000	1.132306	7.3716e+06	-43639.1	1005.82	-29778.4	0.000000	0.000000	7.144370	286.388	NaN	0.000000	0.001630	0.001716	28.084	75.8643	0.001903	39875.1	6.246161	171.394	282.602	1.131937	0.080840	0.080470	286.388	39875.1	0.075453	0.186975	1531.7	84252.7
669	2.000000	1.134470	7.3716e+06	-43639.1	1005.82	-29778.4	0.000000	0.000000	7.146833	293.672	NaN	0.000000	0.001638	0.001713	28.0846	77.2955	0.001806	42805.7	3.551473	173.813	301.773	1.134083	0.083003	0.082616	293.672	42805.7	0.077857	0.197512	1486.86	87999.1
669	2.000000	1.136297	7.3716e+06	-43639.1	1005.82	-29778.4	0.000000	0.000000	7.149746	320.076	NaN	0.000000	0.001663	0.001732	28.0841	77.5016	0.001873	41375.4	8.028964	169.181	317.522	1.135936	0.084831	0.084470	320.076	41375.4	0.079029	0.202743	1578.73	83954.1
669	2.000000	1.138297	7.3716e+06	-43639.1	1005.82	-29778.4	0.000000	0.000000	7.152023	326.822	NaN	0.000000	0.001639	0.001731	28.0842	80.7282	0.001910	42260.7	4.877633	172.147	324.454	1.137975	0.086831	0.086508	326.822	42260.7	0.081031	0.211831	1542.85	83891
669	2.000000	1.140352	7.3716e+06	-43639.1	1005.82	-29778.4	0.000000	0.000000	7.154526	337.727	NaN	0.000000	0.001650	0.001733	28.0843	79.8949	0.001707	46799.8	2.638872	173.616	339.318	1.140082	0.088886	0.088615	337.727	46799.8	0.083473	0.223172	1513.3	90510.2
669	2.000000	1.142203	7.3716e+06	-43639.1	1005.82	-29778.4	0.000000	0.000000	7.157142	356.344	NaN	0.000000	0.001647	0.001698	28.0841	83.1688	0.001826	45548	0.534347	176.101	348.154	1.141958	0.090736	0.090492	356.344	45548	0.084869	0.229776	1550.83	86814
669	2.000000	1.144406	7.3716e+06	-43639.1	1005.82	-29778.4	0.000000	0.000000	7.159707	365.14	NaN	0.000000	0.001643	0.001709	28.0847	85.9889	0.001965	43766.6	6.487136	171.014	366.4	1.144003	0.092940	0.092537	365.14	43766.6	0.086683	0.238494	1531.02	81879.9
669	2.000000	1.146300	7.3716e+06	-43639.1	1005.82	-29778.4	0.000000	0.000000	7.162195	379.61	NaN	0.000000	0.001665	0.001704	28.0835	87.0022	0.001740	50005.2	2.280894	173.601	376.908	1.145952	0.094833	0.094485	379.61	50005.2	0.089140	0.250545	1515.14	91273.7
669	2.000000	1.148265	7.3716e+06	-43639.1	1005.82	-29778.4	0.000000	0.000000	7.164668	391.959	NaN	0.000000	0.001629	0.001718	28.0831	90.1321	0.001865	48321.9	2.236681	173.772	389.181	1.148048	0.096798	0.096581	391.959	48321.9	0.090715	0.258414	1516.79	86847.9
669	2.000000	1.150353	7.3716e+06	-43639.1	1005.82	-29778.4	0.000000	0.000000	7.167457	409.003	NaN	0.000000	0.001653	0.001703	28.083	91.7695	0.001853	49514.7	6.328106	169.546	411.253	1.150016	0.098887	0.098550	409.003	49514.7	0.092692	0.268455	1523.55	87311.6
669	2.000000	1.152232	7.3716e+06	-43639.1	1005.82	-29778.4	0.000000	0.000000	7.170019	425.644	NaN	0.000000	0.001634	0.001720	28.083	93.1347	0.001938	48061.1	5.251942	171.449	420.743	1.152001	0.100765	0.100534	425.644	48061.1	0.094123	0.275835	1543.11	83606.9
669	2.000000	1.154321	7.3716e+06	-43639.1	1005.82	-29778.4	0.000000	0.000000	7.172720	440.515	NaN	0.000000	0.001655	0.001721	28.0833	95.487	0.001947	49044.1	6.814735	169.512	440.272	1.153897	0.102854	0.102430	440.515	49044.1	0.096118	0.286278	1538.76	83746.4
669	2.000000	1.156303	7.3716e+06	-43639.1	1005.82	-29778.4	0.000000	0.000000	7.175197	452.553	NaN	0.000000	0.001635	0.001732	28.0828	94.6601	0.001834	51600.2	3.177604	172.366	451.406	1.156083	0.104837	0.104617	452.553	51600.2	0.098259	0.297687	1520.23	86406.1
669	2.000000	1.158257	7.3716e+06	-43639.1	1005.82	-29778.4	0.000000	0.000000	7.178064	474.784	NaN	0.000000	0.001656	0.001694	28.0831	98.2783	0.001860	52831.1	5.211212	170.124	471.817	1.158001	0.106791	0.106534	474.784	52831.1	0.100051	0.307395	1544.54	87059.2
669	2.000000	1.160317	7.3716e+06	-43639.1	1005.82	-29778.4	0.000000	0.000000	7.180880	493.171	NaN	0.000000	0.001634	0.001731	28.0829	98.5254	0.001735	56802.3	5.777104	169.116	493.727	1.160077	0.108850	0.108610	493.171	56802.3	0.102338	0.320003	1541.14	91740.6
669	2.000000	1.162258	7.3716e+06	-43639.1	1005.82	-29778.4	0.000000	0.000000	7.183689	514.298	NaN	0.000000	0.001695	0.001719	28.0829	100.758	0.001797	56066.7	4.493484	170.858	510.587	1.161968	0.110791	0.110502	514.298	56066.7	0.103911	0.328810	1564.12	89331.8