File: remote_trans/data/nanoindenter/0828-1/data/Data_2025-08-06,11h17m57s/2025-07-22_16-23-58_1_16.txt
2025-07-22, 16:23:58, 1
Index	Phase	Displacement	Time	Pos X	Pos Y	Pos Z	Rot A	Rot B	Piezo Z	Force A	Force B	Gripper	Voltage A	Voltage B	Temperature	Amplitude force	Amplitude pos	Stiffness	Phase shift	Phase excitation	Force A raw	Displacement raw	HMax	HMax raw	Real Force	Real Stiffness	Contact Depth	Area	Hardness	Reduced Mod.
[#]	[#]	[um]	[s]	[um]	[um]	[um]	[m°]	[m°]	[um]	[uN]	[uN]	[V]	[V]	[V]	[°C]	[uN]	[um]	[N/m]	[°]	[°]	[uN]	[um]	[um]	[um]	[uN]	[N/m]	[um]	[um^2]	[MPa]	[MPa]
16	1.000000	0.003176	7.3652e+06	-39439.1	955.818	-29794.5	0.000000	0.000000	6.002803	0.081949	NaN	0.000000	0.001582	0.001802	28.1231	0.074449	0.000964	77.2198	-76.4081	-164.869	0.030576	0.001910	-1.080856	-1.082122	0.081949	77.2198	-1.081651	-2.842498E+14	-2.882984E-16	NaN
16	1.000000	0.011150	7.3652e+06	-39439.1	955.819	-29794.5	0.000000	0.000000	6.010775	0.039468	NaN	0.000000	0.001553	0.001772	28.1225	0.056234	0.001002	56.1386	59.1429	-167.518	0.041686	0.009847	-1.072881	-1.074185	0.039468	56.1386	-1.073409	-2.202840E+14	-1.791697E-16	NaN
16	1.000000	0.019161	7.3652e+06	-39439.1	955.819	-29794.5	0.000000	0.000000	6.018784	-0.013328	NaN	0.000000	0.001549	0.001782	28.1221	0.027028	0.001720	15.7151	139.551	-166.378	-0.068518	0.017883	-1.064871	-1.066149	-0.013328	15.7151	-1.064235	-1.658554E+14	8.035814E-17	NaN
16	1.000000	0.027162	7.3652e+06	-39439.1	955.819	-29794.5	0.000000	0.000000	6.026784	-0.045420	NaN	0.000000	0.001567	0.001782	28.1237	0.054217	0.001765	30.7183	39.4168	-166.159	-0.084206	0.025868	-1.056870	-1.058163	-0.045420	30.7183	-1.055761	-1.275983E+14	3.559594E-16	NaN
16	1.000000	0.035136	7.3652e+06	-39439.1	955.818	-29794.5	0.000000	0.000000	6.034758	-0.032091	NaN	0.000000	0.001544	0.001765	28.1237	0.121889	0.001727	70.5867	44.3448	-166.813	-0.072094	0.033819	-1.048895	-1.050213	-0.032091	70.5867	-1.048554	-1.020896E+14	3.143392E-16	NaN
16	1.000000	0.043138	7.3652e+06	-39439.1	955.818	-29794.5	0.000000	0.000000	6.042760	-0.017138	NaN	0.000000	0.001516	0.001797	28.1239	0.089994	0.002186	41.1684	64.9338	-162.852	0.020592	0.041838	-1.040894	-1.042194	-0.017138	41.1684	-1.040582	-7.976085E+13	2.148710E-16	NaN
16	1.000000	0.051158	7.3652e+06	-39439.1	955.817	-29794.5	0.000000	0.000000	6.050782	0.010259	NaN	0.000000	0.001554	0.001788	28.1236	0.055349	0.002092	26.459	-33.6864	-166.702	0.019453	0.049839	-1.032873	-1.034193	0.010259	26.459	-1.033164	-6.339274E+13	-1.618299E-16	NaN
16	1.000000	0.059125	7.3652e+06	-39439.1	955.819	-29794.5	0.000000	0.000000	6.058747	-0.020730	NaN	0.000000	0.001519	0.001772	28.1243	0.026256	0.001925	13.6391	-164.579	-164.744	-0.043347	0.057843	-1.024907	-1.026189	-0.020730	13.6391	-1.023767	-4.738461E+13	4.374834E-16	NaN
16	1.000000	0.067141	7.3652e+06	-39439.1	955.817	-29794.5	0.000000	0.000000	6.066764	-0.016454	NaN	0.000000	0.001540	0.001779	28.1227	0.057066	0.002076	27.4931	112.894	-167.044	0.049799	0.065845	-1.016891	-1.018187	-0.016454	27.4931	-1.016442	-3.776374E+13	4.356980E-16	NaN
16	1.000000	0.075139	7.3652e+06	-39439.1	955.818	-29794.5	0.000000	0.000000	6.074760	-0.037612	NaN	0.000000	0.001531	0.001758	28.1227	0.104906	0.002036	51.5234	-128.523	-164.377	-0.028599	0.073833	-1.008893	-1.010199	-0.037612	51.5234	-1.008346	-2.938437E+13	1.280005E-15	NaN
16	1.000000	0.083114	7.3652e+06	-39439.1	955.818	-29794.5	0.000000	0.000000	6.082737	-0.010361	NaN	0.000000	0.001567	0.001773	28.1228	0.025908	0.001971	13.1436	118.956	-164.462	-0.050005	0.081870	-1.000917	-1.002162	-0.010361	13.1436	-1.000326	-2.291715E+13	4.521232E-16	NaN
16	1.000000	0.091152	7.3652e+06	-39439.1	955.818	-29794.5	0.000000	0.000000	6.090771	-0.081589	NaN	0.000000	0.001531	0.001808	28.1227	0.115070	0.002050	56.1381	-74.6226	-166.277	-0.004585	0.089846	-0.992880	-0.994186	-0.081589	56.1381	-0.991790	-1.758828E+13	4.638818E-15	NaN
16	1.000000	0.099203	7.3652e+06	-39439.1	955.819	-29794.5	0.000000	0.000000	6.098825	-0.033782	NaN	0.000000	0.001544	0.001798	28.1229	0.082499	0.002123	38.8608	-23.0764	-167.855	-0.054485	0.097831	-0.984829	-0.986200	-0.033782	38.8608	-0.984177	-1.388939E+13	2.432209E-15	NaN
16	1.000000	0.107179	7.3652e+06	-39439.1	955.819	-29794.5	0.000000	0.000000	6.106801	-0.036140	NaN	0.000000	0.001529	0.001770	28.1259	0.093445	0.001932	48.3584	167.301	-167.058	-0.062134	0.105801	-0.976853	-0.978231	-0.036140	48.3584	-0.976292	-1.087562E+13	3.323008E-15	NaN
16	1.000000	0.115147	7.3652e+06	-39439.1	955.818	-29794.5	0.000000	0.000000	6.114769	-0.017759	NaN	0.000000	0.001537	0.001768	28.1255	0.089594	0.001928	46.4579	139.514	-164.135	0.049550	0.113845	-0.968885	-0.970187	-0.017759	46.4579	-0.968599	-8.565955E+12	2.073151E-15	NaN
16	1.000000	0.123178	7.3652e+06	-39439.1	955.818	-29794.5	0.000000	0.000000	6.122800	-0.032743	NaN	0.000000	0.001551	0.001797	28.1251	0.046049	0.001887	24.4039	119.682	-167.613	0.022241	0.121843	-0.960854	-0.962189	-0.032743	24.4039	-0.959847	-6.528459E+12	5.015385E-15	NaN
16	1.000000	0.131174	7.3652e+06	-39439.1	955.819	-29794.5	0.000000	0.000000	6.130797	-0.000918	NaN	0.000000	0.001536	0.001782	28.1252	0.074807	0.001943	38.494	23.2094	-167.471	0.001952	0.129852	-0.952858	-0.954179	-0.000918	38.494	-0.952840	-5.252057E+12	1.748643E-16	NaN
16	1.000000	0.139148	7.3652e+06	-39439.1	955.817	-29794.5	0.000000	0.000000	6.138770	-0.012790	NaN	0.000000	0.001545	0.001803	28.1255	0.129707	0.002027	63.9861	-85.6121	-167.167	-0.005844	0.137817	-0.944884	-0.946215	-0.012790	63.9861	-0.944734	-4.083223E+12	3.132312E-15	NaN
16	1.000000	0.147163	7.3652e+06	-39439.1	955.819	-29794.5	0.000000	0.000000	6.146785	-0.030018	NaN	0.000000	0.001531	0.001792	28.1251	0.062719	0.002138	29.3364	-155.875	-167.703	-0.033724	0.145845	-0.936869	-0.938187	-0.030018	29.3364	-0.936102	-3.122777E+12	9.612594E-15	NaN
16	1.000000	0.155172	7.3652e+06	-39439.1	955.818	-29794.5	0.000000	0.000000	6.154795	0.002260	NaN	0.000000	0.001589	0.001784	28.1242	0.046290	0.001924	24.0547	113.58	-164.634	-0.054481	0.153833	-0.928860	-0.930199	0.002260	24.0547	-0.928930	-2.498960E+12	-9.043731E-16	NaN
16	1.000000	0.163179	7.3652e+06	-39439.1	955.818	-29794.5	0.000000	0.000000	6.162801	-0.026574	NaN	0.000000	0.001610	0.001803	28.1242	0.170462	0.002013	84.6713	-114.238	-168.853	-0.070402	0.161839	-0.920853	-0.922193	-0.026574	84.6713	-0.920618	-1.929959E+12	1.376913E-14	NaN
16	1.000000	0.171221	7.3652e+06	-39439.1	955.817	-29794.5	0.000000	0.000000	6.170842	-0.046230	NaN	0.000000	0.001602	0.001809	28.1245	0.104251	0.001969	52.9383	1.897865	-168.525	-0.014118	0.169896	-0.912811	-0.914136	-0.046230	52.9383	-0.912156	-1.483479E+12	3.116291E-14	NaN
16	1.000000	0.179161	7.3652e+06	-39439.1	955.817	-29794.5	0.000000	0.000000	6.178785	0.025251	NaN	0.000000	0.001545	0.001860	28.1241	0.060362	0.001959	30.8106	-160.5	-163.246	0.001570	0.177826	-0.904871	-0.906206	0.025251	30.8106	-0.905486	-1.205541E+12	-2.094560E-14	NaN
16	1.000000	0.187197	7.3652e+06	-39439.1	955.819	-29794.5	0.000000	0.000000	6.186819	-0.024388	NaN	0.000000	0.001555	0.001877	28.1253	0.050786	0.001958	25.9311	-161.998	-164.606	-0.074966	0.185903	-0.896835	-0.898129	-0.024388	25.9311	-0.896130	-9.010901E+11	2.706460E-14	NaN
16	1.000000	0.195157	7.3652e+06	-39439.1	955.818	-29794.5	0.000000	0.000000	6.194782	0.032062	NaN	0.000000	0.001536	0.001850	28.1252	0.090155	0.001979	45.5558	-15.3062	-171.359	-0.005514	0.193871	-0.888874	-0.890161	0.032062	45.5558	-0.889402	-7.308620E+11	-4.386837E-14	NaN
16	1.000000	0.203201	7.3652e+06	-39439.1	955.817	-29794.5	0.000000	0.000000	6.202824	0.010102	NaN	0.000000	0.001543	0.001836	28.1254	0.085771	0.002054	41.7598	161.742	-166.609	-0.049730	0.201888	-0.880831	-0.882143	0.010102	41.7598	-0.881013	-5.628624E+11	-1.794838E-14	NaN
16	1.000000	0.211206	7.3652e+06	-39439.1	955.817	-29794.5	0.000000	0.000000	6.210829	0.013291	NaN	0.000000	0.001551	0.001808	28.1257	0.013274	0.002143	6.195555	-56.6067	-166.881	-0.003268	0.209895	-0.872826	-0.874137	0.013291	6.195555	-0.874435	-4.586108E+11	-2.898071E-14	NaN
16	1.000000	0.219216	7.3652e+06	-39439.1	955.817	-29794.5	0.000000	0.000000	6.218840	0.005440	NaN	0.000000	0.001545	0.001814	28.1256	0.111012	0.001985	55.9255	-56.5802	-166.505	-0.014081	0.217900	-0.864816	-0.866131	0.005440	55.9255	-0.864889	-3.406297E+11	-1.597136E-14	NaN
16	1.000000	0.227229	7.3652e+06	-39439.1	955.819	-29794.5	0.000000	0.000000	6.226854	0.031997	NaN	0.000000	0.001523	0.001793	28.1247	0.050691	0.002067	24.5216	-88.8969	-168.683	0.056597	0.225922	-0.856803	-0.858110	0.031997	24.5216	-0.857781	-2.729535E+11	-1.172267E-13	NaN
16	1.000000	0.235217	7.3652e+06	-39439.1	955.819	-29794.5	0.000000	0.000000	6.234842	0.029324	NaN	0.000000	0.001558	0.001796	28.1239	0.062766	0.002033	30.8774	40.9574	-165.733	-0.029590	0.233887	-0.848815	-0.850145	0.029324	30.8774	-0.849527	-2.110245E+11	-1.389625E-13	NaN
16	1.000000	0.243186	7.3652e+06	-39439.1	955.819	-29794.5	0.000000	0.000000	6.242810	0.023564	NaN	0.000000	0.001546	0.001817	28.1229	0.033800	0.001896	17.8278	-152.332	-169.619	-0.000699	0.241892	-0.840846	-0.842140	0.023564	17.8278	-0.841837	-1.660280E+11	-1.419268E-13	NaN
16	1.000000	0.251241	7.3652e+06	-39439.1	955.818	-29794.5	0.000000	0.000000	6.250863	-0.018603	NaN	0.000000	0.001535	0.001791	28.1233	0.090875	0.001889	48.1168	-87.8192	-166.371	-0.065079	0.249908	-0.832791	-0.834123	-0.018603	48.1168	-0.832501	-1.240743E+11	1.499381E-13	NaN
16	1.000000	0.259231	7.3652e+06	-39439.1	955.818	-29794.5	0.000000	0.000000	6.258854	-0.001757	NaN	0.000000	0.001519	0.001782	28.1233	0.107497	0.002043	52.6221	-41.3438	-168.193	0.088417	0.257965	-0.824801	-0.826067	-0.001757	52.6221	-0.824776	-9.749108E+10	1.802564E-14	NaN
16	1.000000	0.267219	7.3652e+06	-39439.1	955.817	-29794.5	0.000000	0.000000	6.266843	0.027295	NaN	0.000000	0.001551	0.001784	28.1248	0.039593	0.001995	19.8427	31.8942	-165.256	0.021920	0.265980	-0.816813	-0.818051	0.027295	19.8427	-0.817845	-7.852084E+10	-3.476133E-13	NaN
16	1.000000	0.275216	7.3652e+06	-39439.1	955.818	-29794.5	0.000000	0.000000	6.274837	-0.051027	NaN	0.000000	0.001547	0.001783	28.1242	0.014098	0.001913	7.369588	-163.776	-166.389	-0.014839	0.273869	-0.808816	-0.810163	-0.051027	7.369588	-0.803623	-5.035481E+10	1.013351E-12	NaN
16	1.000000	0.283214	7.3652e+06	-39439.1	955.818	-29794.5	0.000000	0.000000	6.282840	0.051240	NaN	0.000000	0.001523	0.001786	28.1247	0.017877	0.002010	8.894320	71.4434	-166.23	0.074616	0.281925	-0.800818	-0.802107	0.051240	8.894320	-0.805138	-5.279601E+10	-9.705188E-13	NaN
16	1.000000	0.291250	7.3652e+06	-39439.1	955.817	-29794.5	0.000000	0.000000	6.290874	0.010673	NaN	0.000000	0.001543	0.001771	28.1251	0.085199	0.002012	42.3438	-152.57	-167.516	0.059488	0.289897	-0.792782	-0.794135	0.010673	42.3438	-0.792971	-3.609371E+10	-2.957036E-13	NaN
16	1.000000	0.299247	7.3652e+06	-39439.1	955.817	-29794.5	0.000000	0.000000	6.298866	-0.095503	NaN	0.000000	0.001558	0.001809	28.1247	0.020428	0.002025	10.0853	24.1221	-165.17	-0.061588	0.297901	-0.784785	-0.786131	-0.095503	10.0853	-0.777683	-2.237402E+10	4.268473E-12	NaN
16	1.000000	0.307218	7.3652e+06	-39439.1	955.818	-29794.5	0.000000	0.000000	6.306841	-0.024479	NaN	0.000000	0.001585	0.001792	28.1235	0.010809	0.001924	5.616939	-157.309	-167.674	0.038937	0.305908	-0.776813	-0.778124	-0.024479	5.616939	-0.773545	-1.965611E+10	1.245370E-12	NaN
16	1.000000	0.315237	7.3652e+06	-39439.1	955.818	-29794.5	0.000000	0.000000	6.314860	-0.015477	NaN	0.000000	0.001562	0.001807	28.1236	0.088664	0.002106	42.1006	56.7682	-170.597	-0.053389	0.313947	-0.768795	-0.770085	-0.015477	42.1006	-0.768519	-1.679446E+10	9.215459E-13	NaN
16	1.000000	0.323247	7.3652e+06	-39439.1	955.818	-29794.5	0.000000	0.000000	6.322870	0.001623	NaN	0.000000	0.001524	0.001811	28.1237	0.081945	0.002022	40.5291	-78.1969	-165.898	0.007561	0.321928	-0.760785	-0.762104	0.001623	40.5291	-0.760815	-1.319451E+10	-1.229732E-13	NaN
16	1.000000	0.331270	7.3652e+06	-39439.1	955.818	-29794.5	0.000000	0.000000	6.330892	-0.015931	NaN	0.000000	0.001522	0.001824	28.124	0.107019	0.002012	53.18	153.03	-166.28	-0.106352	0.329974	-0.752762	-0.754058	-0.015931	53.18	-0.752538	-1.018029E+10	1.564872E-12	NaN
16	1.000000	0.339259	7.3652e+06	-39439.1	955.82	-29794.5	0.000000	0.000000	6.338880	-0.049446	NaN	0.000000	0.001566	0.001821	28.1237	0.071488	0.001945	36.7566	-94.7028	-164.518	0.004075	0.337961	-0.744773	-0.746071	-0.049446	36.7566	-0.743764	-7.732527E+9	6.394600E-12	NaN
16	1.000000	0.347277	7.3652e+06	-39439.1	955.818	-29794.5	0.000000	0.000000	6.346900	5.576829E-5	NaN	0.000000	0.001547	0.001827	28.1253	0.061347	0.002106	29.1365	-33.3638	-165.212	-0.043691	0.345945	-0.736755	-0.738087	5.576829E-5	29.1365	-0.736756	-6.206839E+9	-8.984974E-15	NaN
16	1.000000	0.355256	7.3652e+06	-39439.1	955.818	-29794.5	0.000000	0.000000	6.354878	-0.023600	NaN	0.000000	0.001559	0.001760	28.125	0.085850	0.001937	44.3145	139.586	-165.154	-0.044095	0.353954	-0.728776	-0.730078	-0.023600	44.3145	-0.728376	-4.771769E+9	4.945778E-12	NaN
16	1.000000	0.363260	7.3652e+06	-39439.1	955.818	-29794.5	0.000000	0.000000	6.362883	0.000933	NaN	0.000000	0.001552	0.001787	28.1256	0.099297	0.002062	48.1548	27.8484	-166.783	0.054583	0.361975	-0.720772	-0.722057	0.000933	48.1548	-0.720786	-3.760085E+9	-2.480399E-13	NaN
16	1.000000	0.371266	7.3652e+06	-39439.1	955.818	-29794.5	0.000000	0.000000	6.370888	-0.020011	NaN	0.000000	0.001565	0.001823	28.1254	0.125986	0.001913	65.8543	171.388	-165.9	-0.010162	0.369962	-0.712766	-0.714070	-0.020011	65.8543	-0.712538	-2.901900E+9	6.895875E-12	NaN
16	1.000000	0.379291	7.3652e+06	-39439.1	955.817	-29794.5	0.000000	0.000000	6.378911	-0.091218	NaN	0.000000	0.001545	0.001835	28.1263	0.051927	0.002052	25.3075	160.445	-165.207	-0.020997	0.377907	-0.704741	-0.706125	-0.091218	25.3075	-0.702037	-2.086174E+9	4.372506E-11	NaN
16	1.000000	0.387264	7.3652e+06	-39439.1	955.818	-29794.5	0.000000	0.000000	6.386886	-0.021644	NaN	0.000000	0.001539	0.001793	28.1256	0.062396	0.002047	30.4752	59.9755	-165.897	-0.043238	0.385980	-0.696768	-0.698052	-0.021644	30.4752	-0.696235	-1.738245E+9	1.245142E-11	NaN
16	1.000000	0.395302	7.3652e+06	-39439.1	955.817	-29794.5	0.000000	0.000000	6.394927	0.058362	NaN	0.000000	0.001615	0.001799	28.1255	0.035992	0.001886	19.0881	83.8593	-165.377	0.101743	0.393974	-0.688730	-0.690058	0.058362	19.0881	-0.691023	-1.475368E+9	-3.955754E-11	NaN
16	1.000000	0.403271	7.3652e+06	-39439.1	955.818	-29794.5	0.000000	0.000000	6.402895	0.004168	NaN	0.000000	0.001642	0.001796	28.1254	0.072556	0.002072	35.0168	43.996	-169.387	-0.059147	0.401999	-0.680760	-0.682033	0.004168	35.0168	-0.680850	-1.071090E+9	-3.891599E-12	NaN
16	1.000000	0.411272	7.3652e+06	-39439.1	955.818	-29794.5	0.000000	0.000000	6.410894	-0.040853	NaN	0.000000	0.001631	0.001821	28.1259	0.153157	0.001916	79.9381	60.7677	-169.437	0.000195	0.409946	-0.672759	-0.674086	-0.040853	79.9381	-0.672376	-8.201808E+8	4.981026E-11	NaN
16	1.000000	0.419302	7.3652e+06	-39439.1	955.818	-29794.5	0.000000	0.000000	6.418926	0.030657	NaN	0.000000	0.001633	0.001789	28.1259	0.056736	0.002074	27.362	113.237	-166.453	-0.041305	0.417989	-0.664730	-0.666043	0.030657	27.362	-0.665571	-6.618441E+8	-4.632063E-11	NaN
16	1.000000	0.427297	7.3652e+06	-39439.1	955.819	-29794.5	0.000000	0.000000	6.426918	-0.069879	NaN	0.000000	0.001598	0.001799	28.1265	0.038115	0.002063	18.4789	-34.591	-164.339	-0.007807	0.425933	-0.656734	-0.658098	-0.069879	18.4789	-0.653898	-4.580045E+8	1.525723E-10	NaN
16	1.000000	0.435294	7.3652e+06	-39439.1	955.817	-29794.5	0.000000	0.000000	6.434918	0.005886	NaN	0.000000	0.001555	0.001804	28.127	0.037747	0.001867	20.2155	-43.531	-171.368	-0.093806	0.433972	-0.648738	-0.650060	0.005886	20.2155	-0.648956	-3.918527E+8	-1.502002E-11	NaN
16	1.000000	0.443320	7.3652e+06	-39439.1	955.817	-29794.5	0.000000	0.000000	6.442941	-0.036868	NaN	0.000000	0.001576	0.001820	28.1264	0.067285	0.002085	32.2755	-112.323	-170.289	0.023698	0.441971	-0.640712	-0.642061	-0.036868	32.2755	-0.639855	-2.939717E+8	1.254140E-10	NaN
16	1.000000	0.451320	7.3652e+06	-39439.1	955.818	-29794.5	0.000000	0.000000	6.450942	-0.040295	NaN	0.000000	0.001508	0.001808	28.1267	0.041223	0.002015	20.4604	160.313	-167.966	0.039509	0.450000	-0.632712	-0.634032	-0.040295	20.4604	-0.631235	-2.238624E+8	1.799974E-10	NaN
16	1.000000	0.459325	7.3652e+06	-39439.1	955.818	-29794.5	0.000000	0.000000	6.458946	-0.051061	NaN	0.000000	0.001515	0.001818	28.1266	0.114594	0.002126	53.9077	97.2925	-167.832	-0.003089	0.458013	-0.624707	-0.626019	-0.051061	53.9077	-0.623996	-1.780550E+8	2.867729E-10	NaN
16	1.000000	0.467292	7.3652e+06	-39439.1	955.819	-29794.5	0.000000	0.000000	6.466914	-0.029280	NaN	0.000000	0.001514	0.001867	28.1253	0.045471	0.001830	24.8427	-22.6045	-166.047	-0.087442	0.465973	-0.616740	-0.618059	-0.029280	24.8427	-0.615856	-1.376143E+8	2.127684E-10	NaN
16	1.000000	0.475313	7.3652e+06	-39439.1	955.818	-29794.5	0.000000	0.000000	6.474933	-0.076943	NaN	0.000000	0.001540	0.001799	28.126	0.146459	0.001849	79.1959	6.489561	-165.623	-0.086189	0.473975	-0.608719	-0.610057	-0.076943	79.1959	-0.607991	-1.072667E+8	7.173022E-10	NaN
16	1.000000	0.483311	7.3652e+06	-39439.1	955.817	-29794.5	0.000000	0.000000	6.482932	-0.048392	NaN	0.000000	0.001509	0.001830	28.1258	0.098404	0.001990	49.4438	-159.211	-167.526	-0.062966	0.482018	-0.600721	-0.602014	-0.048392	49.4438	-0.599987	-8.322954E+7	5.814303E-10	NaN
16	1.000000	0.491318	7.3652e+06	-39439.1	955.818	-29794.5	0.000000	0.000000	6.490938	-0.079679	NaN	0.000000	0.001517	0.001883	28.1257	0.068309	0.001918	35.6173	-64.1193	-163.926	-0.059818	0.490014	-0.592714	-0.594018	-0.079679	35.6173	-0.591036	-6.265442E+7	1.271714E-9	NaN
16	1.000000	0.499322	7.3652e+06	-39439.1	955.818	-29794.5	0.000000	0.000000	6.498946	0.002792	NaN	0.000000	0.001534	0.001833	28.1256	0.043366	0.002108	20.5769	-34.5727	-163.756	-0.010574	0.498020	-0.584709	-0.586012	0.002792	20.5769	-0.584811	-5.141734E+7	-5.430170E-11	NaN
16	1.000000	0.507295	7.3652e+06	-39439.1	955.818	-29794.5	0.000000	0.000000	6.506916	-0.051973	NaN	0.000000	0.001513	0.001847	28.1266	0.067205	0.002080	32.3064	99.0853	-167.06	-0.096620	0.505991	-0.576737	-0.578041	-0.051973	32.3064	-0.575530	-3.828435E+7	1.357560E-9	NaN
16	1.000000	0.515313	7.3652e+06	-39439.1	955.818	-29794.5	0.000000	0.000000	6.514936	0.005689	NaN	0.000000	0.001562	0.001877	28.1259	0.093085	0.001835	50.738	-48.4375	-169.468	-0.002759	0.514027	-0.568719	-0.570005	0.005689	50.738	-0.568803	-3.090957E+7	-1.840624E-10	NaN
16	1.000000	0.523323	7.3652e+06	-39439.1	955.818	-29794.5	0.000000	0.000000	6.522944	-0.066111	NaN	0.000000	0.001533	0.001870	28.1259	0.085742	0.001928	44.4819	-26.9319	-171.36	-0.032311	0.522014	-0.560708	-0.562018	-0.066111	44.4819	-0.559594	-2.305457E+7	2.867573E-9	NaN
16	1.000000	0.531356	7.3652e+06	-39439.1	955.817	-29794.5	0.000000	0.000000	6.530977	-0.047490	NaN	0.000000	0.001529	0.001834	28.126	0.055374	0.001997	27.7224	172.463	-167.693	-0.005528	0.530030	-0.552676	-0.554002	-0.047490	27.7224	-0.551391	-1.775117E+7	2.675345E-9	NaN
16	1.000000	0.539343	7.3652e+06	-39439.1	955.818	-29794.5	0.000000	0.000000	6.538964	-0.056077	NaN	0.000000	0.001472	0.001872	28.1256	0.102561	0.001988	51.5951	-152.077	-166.858	-0.023496	0.538064	-0.544689	-0.545968	-0.056077	51.5951	-0.543874	-1.396603E+7	4.015218E-9	NaN
16	1.000000	0.547338	7.3652e+06	-39439.1	955.818	-29794.5	0.000000	0.000000	6.546958	-0.061547	NaN	0.000000	0.001553	0.001866	28.1244	0.050519	0.002058	24.5488	-141	-165.792	-0.016451	0.546017	-0.536694	-0.538015	-0.061547	24.5488	-0.534814	-1.045702E+7	5.885697E-9	NaN
16	1.000000	0.555327	7.3652e+06	-39439.1	955.818	-29794.5	0.000000	0.000000	6.554949	-0.045573	NaN	0.000000	0.001516	0.001844	28.1248	0.036805	0.002114	17.4133	8.806626	-165.739	0.004188	0.554014	-0.528705	-0.530018	-0.045573	17.4133	-0.526742	-8.07819e+06	5.641425E-9	NaN
16	1.000000	0.563343	7.3652e+06	-39439.1	955.819	-29794.5	0.000000	0.000000	6.562967	0.014808	NaN	0.000000	0.001538	0.001819	28.1247	0.148763	0.001963	75.7972	156.075	-163.935	-0.020597	0.562000	-0.520689	-0.522032	0.014808	75.7972	-0.520835	-6.68669e+06	-2.214596E-9	NaN
16	1.000000	0.571336	7.3652e+06	-39439.1	955.819	-29794.5	0.000000	0.000000	6.570957	-0.045261	NaN	0.000000	0.001550	0.001824	28.1254	0.098725	0.002056	48.0292	24.2777	-163.797	-0.101578	0.570067	-0.512696	-0.513965	-0.045261	48.0292	-0.511989	-5.03642e+06	8.986743E-9	NaN
16	1.000000	0.579373	7.3652e+06	-39439.1	955.818	-29794.5	0.000000	0.000000	6.578996	-0.013749	NaN	0.000000	0.001522	0.001826	28.1247	0.025554	0.002128	12.0109	-78.502	-164.657	0.043756	0.578022	-0.504658	-0.506010	-0.013749	12.0109	-0.503800	-3.8727e+06	3.550355E-9	NaN
16	1.000000	0.587340	7.3652e+06	-39439.1	955.819	-29794.5	0.000000	0.000000	6.586960	-0.063210	NaN	0.000000	0.001555	0.001852	28.1263	0.071705	0.002067	34.6822	101.334	-166.688	0.005733	0.586005	-0.496692	-0.498027	-0.063210	34.6822	-0.495325	-2.94967e+06	2.142963E-8	NaN
16	1.000000	0.595369	7.3652e+06	-39439.1	955.817	-29794.5	0.000000	0.000000	6.594993	0.009665	NaN	0.000000	0.001518	0.001844	28.1262	0.079419	0.002017	39.3818	-157.728	-166.819	-0.039550	0.594069	-0.488663	-0.489963	0.009665	39.3818	-0.488847	-2.39483e+06	-4.035703E-9	NaN
16	1.000000	0.603364	7.3652e+06	-39439.1	955.818	-29794.5	0.000000	0.000000	6.602987	0.002951	NaN	0.000000	0.001533	0.001852	28.1259	0.003582	0.002051	1.746104	-38.5781	-164.532	-0.010677	0.602089	-0.480668	-0.481942	0.002951	1.746104	-0.481936	-1.91699e+06	-1.539533E-9	NaN
16	1.000000	0.611353	7.3652e+06	-39439.1	955.817	-29794.5	0.000000	0.000000	6.610974	-0.045908	NaN	0.000000	0.001534	0.001819	28.1259	0.104446	0.001987	52.5558	57.6494	-168.504	-0.040089	0.610029	-0.472679	-0.474003	-0.045908	52.5558	-0.472024	-1.39248e+06	3.296849E-8	NaN
16	1.000000	0.619385	7.3652e+06	-39439.1	955.818	-29794.5	0.000000	0.000000	6.619005	-0.075270	NaN	0.000000	0.001542	0.001832	28.126	0.068414	0.002051	33.359	-150.178	-166.895	-0.105652	0.617978	-0.464647	-0.466054	-0.075270	33.359	-0.462955	-1.03879e+06	7.245918E-8	NaN
16	1.000000	0.627380	7.3652e+06	-39439.1	955.818	-29794.5	0.000000	0.000000	6.627003	-0.003989	NaN	0.000000	0.001528	0.001816	28.1252	0.078622	0.001878	41.8755	8.740215	-169.768	0.058030	0.626074	-0.456652	-0.457957	-0.003989	41.8755	-0.456580	-845174	4.719865E-9	NaN
16	1.000000	0.635351	7.3652e+06	-39439.1	955.818	-29794.5	0.000000	0.000000	6.634976	0.026281	NaN	0.000000	0.001527	0.001853	28.1254	0.009640	0.001945	4.955395	90.4779	-168.639	0.066091	0.634029	-0.448681	-0.450003	0.026281	4.955395	-0.452658	-744328	-3.530778E-8	NaN
16	1.000000	0.643378	7.3652e+06	-39439.1	955.819	-29794.5	0.000000	0.000000	6.642998	-0.089834	NaN	0.000000	0.001529	0.001826	28.1251	0.051175	0.001950	26.2393	75.7824	-166.832	-0.163875	0.642078	-0.440654	-0.441954	-0.089834	26.2393	-0.438086	-463814	1.936848E-7	NaN
16	1.000000	0.651398	7.3652e+06	-39439.1	955.818	-29794.5	0.000000	0.000000	6.651023	0.021234	NaN	0.000000	0.001527	0.001804	28.126	0.030278	0.001914	15.8163	164.325	-163.17	-0.166214	0.650067	-0.432633	-0.433965	0.021234	15.8163	-0.433640	-401364	-5.290459E-8	NaN
16	1.000000	0.659365	7.3652e+06	-39439.1	955.818	-29794.5	0.000000	0.000000	6.658989	0.006925	NaN	0.000000	0.001546	0.001791	28.1263	0.054518	0.002133	25.5559	-69.4153	-165.536	0.013505	0.658069	-0.424667	-0.425963	0.006925	25.5559	-0.424870	-301606	-2.295888E-8	NaN
16	1.000000	0.667369	7.3652e+06	-39439.1	955.818	-29794.5	0.000000	0.000000	6.666989	-0.095291	NaN	0.000000	0.001540	0.001791	28.1272	0.159075	0.002010	79.1397	-38.5584	-164.18	-0.094073	0.666107	-0.416663	-0.417925	-0.095291	79.1397	-0.415760	-223997	4.254127E-7	NaN
16	1.000000	0.675405	7.3652e+06	-39439.1	955.818	-29794.5	0.000000	0.000000	6.675029	0.014462	NaN	0.000000	0.001524	0.001797	28.1276	0.010032	0.001995	5.029243	-62.1052	-165.544	0.000285	0.674107	-0.408627	-0.409924	0.014462	5.029243	-0.410784	-190348	-7.597816E-8	NaN
16	1.000000	0.683387	7.3652e+06	-39439.1	955.818	-29794.5	0.000000	0.000000	6.683009	-0.041243	NaN	0.000000	0.001529	0.001801	28.1275	0.134166	0.001971	68.0639	173.267	-165.067	-0.033720	0.682070	-0.400645	-0.401962	-0.041243	68.0639	-0.400190	-134496	3.066520E-7	NaN
16	1.000000	0.691408	7.3652e+06	-39439.1	955.819	-29794.5	0.000000	0.000000	6.691029	-0.046465	NaN	0.000000	0.001572	0.001794	28.1279	0.047953	0.001978	24.2405	-125.411	-168.586	0.032699	0.690083	-0.392624	-0.393949	-0.046465	24.2405	-0.391186	-100031	4.645064E-7	NaN
16	1.000000	0.699395	7.3652e+06	-39439.1	955.818	-29794.5	0.000000	0.000000	6.699017	-0.011446	NaN	0.000000	0.001586	0.001807	28.128	0.145319	0.001950	74.5139	-177.949	-163.191	0.020038	0.698102	-0.384637	-0.385930	-0.011446	74.5139	-0.384522	-80303.8	1.425377E-7	NaN
16	1.000000	0.707424	7.3652e+06	-39439.1	955.819	-29794.5	0.000000	0.000000	6.707048	0.018101	NaN	0.000000	0.001536	0.001792	28.1263	0.014605	0.002070	7.054567	1.816984	-164.431	0.079176	0.706066	-0.376607	-0.377966	0.018101	7.054567	-0.378532	-65889	-2.747189E-7	NaN
16	1.000000	0.715405	7.3652e+06	-39439.1	955.818	-29794.5	0.000000	0.000000	6.715027	-0.027299	NaN	0.000000	0.001549	0.001826	28.1268	0.014347	0.001958	7.328407	98.9553	-165.015	-0.059926	0.714118	-0.368627	-0.369914	-0.027299	7.328407	-0.365833	-43258.7	6.310715E-7	NaN
16	1.000000	0.723417	7.3652e+06	-39439.1	955.819	-29794.5	0.000000	0.000000	6.723038	-0.051934	NaN	0.000000	0.001519	0.001818	28.1264	0.058728	0.002000	29.357	-69.158	-168.21	-0.077283	0.722165	-0.360615	-0.361867	-0.051934	29.357	-0.359288	-34798.3	1.492426E-6	NaN
16	1.000000	0.731378	7.3652e+06	-39439.1	955.818	-29794.5	0.000000	0.000000	6.731002	0.021126	NaN	0.000000	0.001510	0.001786	28.1267	0.106614	0.002059	51.7689	35.1423	-167.941	0.085389	0.730101	-0.352654	-0.353930	0.021126	51.7689	-0.352960	-28180.1	-7.496696E-7	NaN
16	1.000000	0.739412	7.3652e+06	-39439.1	955.819	-29794.5	0.000000	0.000000	6.739035	-0.000674	NaN	0.000000	0.001524	0.001802	28.1274	0.153341	0.002069	74.1214	-140.741	-167.95	0.001416	0.738128	-0.344620	-0.345904	-0.000674	74.1214	-0.344613	-21317.4	3.159726E-8	NaN
16	1.000000	0.747424	7.3652e+06	-39439.1	955.818	-29794.5	0.000000	0.000000	6.747047	-0.000506	NaN	0.000000	0.001559	0.001811	28.1279	0.032131	0.001952	16.461	-53.121	-165.24	0.044515	0.746065	-0.336608	-0.337967	-0.000506	16.461	-0.336585	-16283	3.106265E-8	NaN
16	1.000000	0.755454	7.3652e+06	-39439.1	955.818	-29794.5	0.000000	0.000000	6.755077	-0.011949	NaN	0.000000	0.001580	0.001801	28.1278	0.042627	0.002077	20.5248	-174.068	-164.343	-0.013310	0.754108	-0.328578	-0.329924	-0.011949	20.5248	-0.328141	-12252.2	9.752810E-7	NaN
16	1.000000	0.763448	7.3652e+06	-39439.1	955.819	-29794.5	0.000000	0.000000	6.763072	0.008770	NaN	0.000000	0.001591	0.001844	28.1277	0.135380	0.001971	68.7031	122.097	-166.274	-0.013555	0.762050	-0.320584	-0.321982	0.008770	68.7031	-0.320679	-9519.98	-9.212314E-7	NaN
16	1.000000	0.771422	7.3652e+06	-39439.1	955.818	-29794.5	0.000000	0.000000	6.771046	0.019444	NaN	0.000000	0.001570	0.001831	28.1279	0.078654	0.002027	38.8027	-18.0359	-164.09	0.019083	0.770049	-0.312610	-0.313983	0.019444	38.8027	-0.312986	-7331.66	-2.652120E-6	NaN
16	1.000000	0.779451	7.3652e+06	-39439.1	955.818	-29794.5	0.000000	0.000000	6.779072	-0.047778	NaN	0.000000	0.001562	0.001774	28.1281	0.052913	0.001968	26.8848	114.632	-165.194	-0.041270	0.778150	-0.304581	-0.305881	-0.047778	26.8848	-0.303248	-5259.4	9.084329E-6	NaN
16	1.000000	0.787449	7.3652e+06	-39439.1	955.818	-29794.5	0.000000	0.000000	6.787071	-0.027906	NaN	0.000000	0.001548	0.001821	28.1256	0.042004	0.001947	21.5718	48.2791	-169.445	-0.054660	0.786099	-0.296583	-0.297932	-0.027906	21.5718	-0.295612	-4047.93	6.893785E-6	NaN
16	1.000000	0.795435	7.3652e+06	-39439.1	955.818	-29794.5	0.000000	0.000000	6.795056	-0.042938	NaN	0.000000	0.001581	0.001856	28.1258	0.025478	0.001982	12.8522	101.404	-165.407	-0.049596	0.794172	-0.288597	-0.289860	-0.042938	12.8522	-0.286091	-2915.2	1.472893E-5	NaN
16	1.000000	0.803486	7.3652e+06	-39439.1	955.819	-29794.5	0.000000	0.000000	6.803110	0.020646	NaN	0.000000	0.001563	0.001857	28.1257	0.103315	0.001985	52.0495	107.199	-170.346	-0.056162	0.802140	-0.280546	-0.281891	0.020646	52.0495	-0.280843	-2430.44	-8.494559E-6	NaN
16	1.000000	0.811445	7.3652e+06	-39439.1	955.819	-29794.5	0.000000	0.000000	6.811065	-0.068128	NaN	0.000000	0.001571	0.001828	28.1259	0.159744	0.001939	82.368	158.904	-162.969	-0.083835	0.810136	-0.272587	-0.273896	-0.068128	82.368	-0.271967	-1784.1	3.818598E-5	NaN
16	1.000000	0.819464	7.3652e+06	-39439.1	955.817	-29794.5	0.000000	0.000000	6.819083	-0.107223	NaN	0.000000	0.001552	0.001839	28.1262	0.128207	0.002027	63.237	122.692	-167.382	-0.135553	0.818145	-0.264568	-0.265887	-0.107223	63.237	-0.263296	-1316.35	8.145496E-5	NaN
16	1.000000	0.827460	7.3652e+06	-39439.1	955.818	-29794.5	0.000000	0.000000	6.827081	-0.055536	NaN	0.000000	0.001544	0.001817	28.1266	0.045673	0.001829	24.9709	110.394	-166.409	0.006513	0.826159	-0.256572	-0.257872	-0.055536	24.9709	-0.254904	-978.676	5.674582E-5	NaN
16	1.000000	0.835467	7.3652e+06	-39439.1	955.819	-29794.5	0.000000	0.000000	6.835091	0.026038	NaN	0.000000	0.001547	0.001812	28.1285	0.093765	0.001944	48.2358	-162.119	-163.21	0.015535	0.834119	-0.248565	-0.249912	0.026038	48.2358	-0.248970	-792.554	-3.285271E-5	NaN
16	1.000000	0.843480	7.3652e+06	-39439.1	955.818	-29794.5	0.000000	0.000000	6.843103	0.010570	NaN	0.000000	0.001539	0.001804	28.1274	0.065325	0.001972	33.1266	54.7102	-168.485	0.049108	0.842111	-0.240552	-0.241921	0.010570	33.1266	-0.240791	-591.439	-1.787125E-5	NaN
16	1.000000	0.851460	7.3652e+06	-39439.1	955.819	-29794.5	0.000000	0.000000	6.851084	0.007913	NaN	0.000000	0.001566	0.001816	28.1293	0.037036	0.001905	19.4378	-162.72	-165.576	-0.007524	0.850192	-0.232572	-0.233840	0.007913	19.4378	-0.232877	-444.499	-1.780281E-5	NaN
16	1.000000	0.859478	7.3652e+06	-39439.1	955.817	-29794.5	0.000000	0.000000	6.859098	-0.072544	NaN	0.000000	0.001541	0.001789	28.1272	0.016878	0.002083	8.100856	-86.3069	-167.736	-0.016734	0.858173	-0.224554	-0.225859	-0.072544	8.100856	-0.217837	-256.49	0.000283	NaN
16	1.000000	0.867463	7.3652e+06	-39439.1	955.818	-29794.5	0.000000	0.000000	6.867086	-0.012518	NaN	0.000000	0.001546	0.001818	28.1263	0.087991	0.002088	42.142	166.918	-166.041	-0.043539	0.866186	-0.216568	-0.217845	-0.012518	42.142	-0.216346	-242.739	5.157002E-5	NaN
16	1.000000	0.875448	7.3652e+06	-39439.1	955.818	-29794.5	0.000000	0.000000	6.875071	0.002302	NaN	0.000000	0.001580	0.001795	28.126	0.162778	0.002075	78.4643	23.5243	-167.109	-0.090757	0.874203	-0.208584	-0.209828	0.002302	78.4643	-0.208606	-182.063	-1.264269E-5	NaN
16	1.000000	0.883478	7.3652e+06	-39439.1	955.818	-29794.5	0.000000	0.000000	6.883097	-0.093118	NaN	0.000000	0.001573	0.001787	28.1263	0.050803	0.001910	26.6037	-67.7846	-167.792	-0.046998	0.882191	-0.200554	-0.201841	-0.093118	26.6037	-0.197929	-121.788	0.000765	NaN
16	1.000000	0.891475	7.3652e+06	-39439.1	955.819	-29794.5	0.000000	0.000000	6.891099	0.020831	NaN	0.000000	0.001574	0.001782	28.1267	0.079307	0.001912	41.486	-41.8025	-165.835	0.010718	0.890217	-0.192557	-0.193814	0.020831	41.486	-0.192934	-100.674	-0.000207	NaN
16	1.000000	0.899486	7.3652e+06	-39439.1	955.818	-29794.5	0.000000	0.000000	6.899109	-0.019727	NaN	0.000000	0.001527	0.001771	28.1257	0.093894	0.002169	43.2869	-146.542	-164.608	-0.024650	0.898161	-0.184546	-0.185871	-0.019727	43.2869	-0.184204	-71.8957	0.000274	NaN
16	1.000000	0.907495	7.3652e+06	-39439.1	955.817	-29794.5	0.000000	0.000000	6.907116	-0.048064	NaN	0.000000	0.001535	0.001803	28.1273	0.060459	0.001970	30.6841	127.279	-164.239	-0.033131	0.906160	-0.176537	-0.177872	-0.048064	30.6841	-0.175362	-50.8396	0.000945	NaN
16	1.000000	0.915487	7.3652e+06	-39439.1	955.818	-29794.5	0.000000	0.000000	6.915109	-0.032105	NaN	0.000000	0.001556	0.001787	28.1278	0.041175	0.001930	21.3298	-174.123	-167.5	0.053776	0.914161	-0.168545	-0.169871	-0.032105	21.3298	-0.167416	-37.0358	0.000867	NaN
16	1.000000	0.923485	7.3652e+06	-39439.1	955.819	-29794.5	0.000000	0.000000	6.923108	-0.005078	NaN	0.000000	0.001509	0.001810	28.1289	0.146037	0.001966	74.2792	116.957	-168.877	0.006408	0.922178	-0.160547	-0.161853	-0.005078	74.2792	-0.160496	-27.9763	0.000182	NaN
16	1.000000	0.931509	7.3652e+06	-39439.1	955.818	-29794.5	0.000000	0.000000	6.931133	0.008269	NaN	0.000000	0.001547	0.001805	28.1288	0.046631	0.001914	24.3634	-95.5135	-165.913	-0.072416	0.930205	-0.152523	-0.153827	0.008269	24.3634	-0.152777	-20.3455	-0.000406	NaN
16	1.000000	0.939516	7.3652e+06	-39439.1	955.818	-29794.5	0.000000	0.000000	6.939142	0.065688	NaN	0.000000	0.001526	0.001804	28.1287	0.138474	0.001861	74.4107	-141.937	-167.17	0.042109	0.938243	-0.144516	-0.145789	0.065688	74.4107	-0.145178	-14.7725	-0.004447	NaN
16	1.000000	0.947523	7.3652e+06	-39439.1	955.818	-29794.5	0.000000	0.000000	6.947142	-0.111255	NaN	0.000000	0.001560	0.001787	28.128	0.062360	0.002024	30.8046	122.997	-165.431	-0.074872	0.946158	-0.136509	-0.137874	-0.111255	30.8046	-0.133800	-9.022684	0.012331	NaN
16	1.000000	0.955529	7.3652e+06	-39439.1	955.818	-29794.5	0.000000	0.000000	6.955153	0.016779	NaN	0.000000	0.001557	0.001816	28.1277	0.032448	0.002080	15.6019	-109.009	-168.88	0.002746	0.954222	-0.128503	-0.129810	0.016779	15.6019	-0.129309	-7.388872	-0.002271	NaN
16	1.000000	0.963507	7.3652e+06	-39439.1	955.818	-29794.5	0.000000	0.000000	6.963125	-0.128496	NaN	0.000000	0.001535	0.001776	28.1278	0.091056	0.001928	47.2376	-153.188	-167.714	-0.068356	0.962236	-0.120525	-0.121796	-0.128496	47.2376	-0.118485	-4.502043	0.028542	NaN
16	1.000000	0.971537	7.3652e+06	-39439.1	955.818	-29794.5	0.000000	0.000000	6.971159	-0.037157	NaN	0.000000	0.001602	0.001783	28.1277	0.051692	0.002015	25.6504	118.128	-162.477	-0.003938	0.970178	-0.112495	-0.113854	-0.037157	25.6504	-0.111408	-3.217173	0.011550	NaN
16	1.000000	0.979504	7.3652e+06	-39439.1	955.819	-29794.5	0.000000	0.000000	6.979124	-0.071738	NaN	0.000000	0.001590	0.001767	28.128	0.116026	0.002084	55.6838	96.3482	-165.236	-0.040010	0.978193	-0.104528	-0.105839	-0.071738	55.6838	-0.103562	-2.187741	0.032791	NaN
16	1.000000	0.987476	7.3652e+06	-39439.1	955.819	-29794.5	0.000000	0.000000	6.987096	-0.067739	NaN	0.000000	0.001564	0.001764	28.1295	0.058308	0.001982	29.4227	-143.195	-168.206	-0.080968	0.986259	-0.096556	-0.097773	-0.067739	29.4227	-0.094830	-1.398075	0.048452	NaN
16	1.000000	0.995532	7.3652e+06	-39439.1	955.819	-29794.5	0.000000	0.000000	6.995155	-0.000195	NaN	0.000000	0.001588	0.001798	28.1293	0.087677	0.001980	44.2747	-17.8518	-167.989	0.067781	0.994267	-0.088500	-0.089765	-0.000195	44.2747	-0.088497	-0.996292	0.000195	NaN
16	1.000000	1.003518	7.3652e+06	-39439.1	955.818	-29794.5	0.000000	0.000000	7.003139	-0.053699	NaN	0.000000	0.001608	0.001803	28.1293	0.078824	0.001921	41.025	9.794642	-165.849	0.066964	1.002239	-0.080514	-0.081793	-0.053699	41.025	-0.079532	-0.602521	0.089123	NaN
16	1.000000	1.011547	7.3652e+06	-39439.1	955.818	-29794.5	0.000000	0.000000	7.011168	-0.044602	NaN	0.000000	0.001580	0.001824	28.1293	0.110533	0.001901	58.1368	-144.659	-165.166	-0.029099	1.010195	-0.072485	-0.073837	-0.044602	58.1368	-0.071909	-0.383445	0.116319	NaN
16	1.000000	1.019550	7.3652e+06	-39439.1	955.819	-29794.5	0.000000	0.000000	7.019173	-0.010013	NaN	0.000000	0.001634	0.001795	28.1293	0.076751	0.001934	39.6798	76.4236	-164.955	-0.059217	1.018207	-0.064482	-0.065825	-0.010013	39.6798	-0.064292	-0.238178	0.042042	NaN
16	1.000000	1.027553	7.3652e+06	-39439.1	955.819	-29794.5	0.000000	0.000000	7.027173	-0.082646	NaN	0.000000	0.001582	0.001762	28.1283	0.173104	0.002010	86.1395	51.656	-165.653	-0.079354	1.026269	-0.056479	-0.057763	-0.082646	86.1395	-0.055759	-0.135594	0.609511	NaN
16	1.000000	1.035547	7.3652e+06	-39439.1	955.818	-29794.5	0.000000	0.000000	7.035166	-0.085429	NaN	0.000000	0.001604	0.001760	28.1279	0.034708	0.002086	16.6373	-82.8882	-166.18	-0.050468	1.034245	-0.048485	-0.049787	-0.085429	16.6373	-0.044634	-0.062633	1.363957	NaN
16	1.000000	1.043580	7.3652e+06	-39439.1	955.817	-29794.5	0.000000	0.000000	7.043202	-0.019003	NaN	0.000000	0.001617	0.001824	28.1278	0.132429	0.002050	64.5913	-84.4016	-166.157	0.005312	1.042226	-0.040452	-0.041806	-0.019003	64.5913	-0.040232	-0.045961	0.413467	NaN
16	1.000000	1.051540	7.3652e+06	-39439.1	955.818	-29794.5	0.000000	0.000000	7.051161	-0.070762	NaN	0.000000	0.001595	0.001777	28.1278	0.012670	0.002023	6.263594	127.082	-163.049	-0.074111	1.050246	-0.032491	-0.033786	-0.070762	6.263594	-0.024019	-0.015908	4.448133	NaN
16	1.000000	1.059545	7.3652e+06	-39439.1	955.818	-29794.5	0.000000	0.000000	7.059166	-0.073141	NaN	0.000000	0.001602	0.001832	28.1267	0.068855	0.001836	37.4988	78.9833	-166.204	-0.036721	1.058226	-0.024487	-0.025806	-0.073141	37.4988	-0.023024	-0.014997	4.876940	NaN
16	1.000000	1.067583	7.3652e+06	-39439.1	955.818	-29794.5	0.000000	0.000000	7.067206	-0.014152	NaN	0.000000	0.001620	0.001814	28.128	0.063063	0.002013	31.3265	-98.4912	-164.994	-0.075751	1.066271	-0.016449	-0.017761	-0.014152	31.3265	-0.016110	-0.009951	1.422221	NaN
16	1.000000	1.075549	7.3652e+06	-39439.1	955.819	-29794.5	0.000000	0.000000	7.075170	-0.065630	NaN	0.000000	0.001594	0.001811	28.1278	0.020944	0.002164	9.680456	-131.779	-163.695	-0.076161	1.074236	-0.008483	-0.009796	-0.065630	9.680456	-0.003398	-0.002385	27.5147	NaN
16	1.000000	1.083542	7.3652e+06	-39439.1	955.818	-29794.5	0.000000	0.000000	7.083168	0.070302	NaN	0.000000	0.001590	0.001835	28.1275	0.241090	0.001973	122.22	-10.0021	-167.201	0.012481	1.082261	-0.000490	-0.001771	0.070302	122.22	-0.000921	-0.000676	-103.934	NaN
16	1.000000	1.091550	7.3652e+06	-39439.1	955.819	-29794.5	0.000000	0.000000	7.091418	5.947170	NaN	0.000000	0.001589	0.001805	28.1278	6.494305	0.001785	3637.5	13.2266	-171.479	4.736548	1.090195	0.007518	0.006163	5.947170	3637.5	0.006292	0.005344	1112.93	45462.6
16	2.000000	1.095224	7.3652e+06	-39439.1	955.819	-29794.5	0.000000	0.000000	7.095257	9.959958	NaN	0.000000	0.001581	0.001790	28.1279	10.1827	0.001559	6532.21	7.116240	-174.722	9.558054	1.094905	0.011193	0.010873	9.959958	6532.21	0.010049	0.009236	1078.38	62099.9
16	2.000000	1.097208	7.3652e+06	-39439.1	955.819	-29794.5	0.000000	0.000000	7.097372	13.1581	NaN	0.000000	0.001629	0.001777	28.1271	12.6575	0.001813	6982.03	5.071554	-171.762	12.6749	1.096912	0.013176	0.012880	13.1581	6982.03	0.011762	0.011207	1174.14	60258.4
16	2.000000	1.099149	7.3652e+06	-39439.1	955.818	-29794.5	0.000000	0.000000	7.099513	18.0279	NaN	0.000000	0.001564	0.001813	28.1268	15.0073	0.001827	8214.02	6.781928	-175.34	17.5995	1.098788	0.015117	0.014757	18.0279	8214.02	0.013471	0.013300	1355.44	65072.4
16	2.000000	1.101146	7.3652e+06	-39439.1	955.817	-29794.5	0.000000	0.000000	7.101767	24.2839	NaN	0.000000	0.001610	0.001749	28.1267	17.5303	0.001813	9668.58	7.974388	-179.6	23.9572	1.100815	0.017114	0.016783	24.2839	9668.58	0.015231	0.015594	1557.24	70738.4
16	2.000000	1.103140	7.3652e+06	-39439.1	955.818	-29794.5	0.000000	0.000000	7.103717	23.2031	NaN	0.000000	0.001607	0.001814	28.1268	18.5654	0.001764	10522.6	8.485753	-179.331	23.5278	1.102957	0.019109	0.018925	23.2031	10522.6	0.017455	0.018700	1240.84	70304
16	2.000000	1.105142	7.3652e+06	-39439.1	955.817	-29794.5	0.000000	0.000000	7.106022	30.5804	NaN	0.000000	0.001606	0.001769	28.127	20.6049	0.001769	11648.3	4.292239	-177.142	29.6463	1.104744	0.021111	0.020712	30.5804	11648.3	0.019142	0.021211	1441.71	73072.1
16	2.000000	1.107120	7.3652e+06	-39439.1	955.819	-29794.5	0.000000	0.000000	7.108104	33.098	NaN	0.000000	0.001601	0.001801	28.1284	23.4565	0.001788	13119.7	10.15	176.903	32.0982	1.106815	0.023089	0.022783	33.098	13119.7	0.021197	0.024457	1353.29	76646.1
16	2.000000	1.109051	7.3652e+06	-39439.1	955.819	-29794.5	0.000000	0.000000	7.110328	40.2502	NaN	0.000000	0.001606	0.001766	28.1289	24.5208	0.001785	13735.3	4.616180	-178.948	38.2748	1.108798	0.025019	0.024766	40.2502	13735.3	0.022821	0.027171	1481.37	76130.7
16	2.000000	1.111081	7.3652e+06	-39439.1	955.819	-29794.5	0.000000	0.000000	7.112625	46.7498	NaN	0.000000	0.001615	0.001759	28.128	27.1807	0.001746	15570.7	5.501223	178.636	44.8932	1.110789	0.027049	0.026757	46.7498	15570.7	0.024797	0.030647	1525.42	81261.8
16	2.000000	1.113077	7.3652e+06	-39439.1	955.818	-29794.5	0.000000	0.000000	7.114852	52.3707	NaN	0.000000	0.001627	0.001742	28.1281	27.6736	0.001702	16263.7	4.086548	-179.075	50.5098	1.112750	0.029045	0.028718	52.3707	16263.7	0.026630	0.034048	1538.15	80528.1
16	2.000000	1.115056	7.3652e+06	-39439.1	955.818	-29794.5	0.000000	0.000000	7.117210	61.5894	NaN	0.000000	0.001637	0.001707	28.1283	30.638	0.001708	17933.9	4.780757	179.076	59.4719	1.114743	0.031024	0.030711	61.5894	17933.9	0.028448	0.037589	1638.5	84511.8
16	2.000000	1.117141	7.3652e+06	-39439.1	955.818	-29794.5	0.000000	0.000000	7.119538	67.5143	NaN	0.000000	0.001571	0.001720	28.1272	31.9203	0.001718	18581.8	1.534444	-177.843	65.5745	1.116707	0.033109	0.032675	67.5143	18581.8	0.030384	0.041543	1625.17	83294
16	2.000000	1.119055	7.3652e+06	-39439.1	955.818	-29794.5	0.000000	0.000000	7.121647	72.2607	NaN	0.000000	0.001623	0.001723	28.1283	34.3042	0.001750	19605.6	3.749378	179.447	69.3627	1.118762	0.035023	0.034730	72.2607	19605.6	0.032258	0.045555	1586.24	83923.9
16	2.000000	1.121086	7.3652e+06	-39439.1	955.819	-29794.5	0.000000	0.000000	7.123916	78.0383	NaN	0.000000	0.001636	0.001723	28.1283	36.7095	0.001897	19353.2	3.406015	-179.988	77.0735	1.120778	0.037054	0.036746	78.0383	19353.2	0.034030	0.049512	1576.15	79464.3
16	2.000000	1.123045	7.3652e+06	-39439.1	955.819	-29794.5	0.000000	0.000000	7.126236	86.8087	NaN	0.000000	0.001592	0.001776	28.1286	37.5181	0.001760	21311.7	2.133299	179.272	84.6036	1.122751	0.039013	0.038719	86.8087	21311.7	0.035958	0.054001	1607.53	83789.5
16	2.000000	1.125057	7.3652e+06	-39439.1	955.819	-29794.5	0.000000	0.000000	7.128305	88.1995	NaN	0.000000	0.001650	0.001748	28.1289	40.3712	0.001856	21745.9	7.336202	176.036	85.8884	1.124817	0.041026	0.040785	88.1995	21745.9	0.037984	0.058921	1496.9	81849.2
16	2.000000	1.127102	7.3652e+06	-39439.1	955.819	-29794.5	0.000000	0.000000	7.130494	91.7112	NaN	0.000000	0.001609	0.001743	28.13	41.6695	0.001775	23480.9	2.593265	179.126	91.2189	1.126862	0.043070	0.042830	91.7112	23480.9	0.040141	0.064393	1424.24	84541.3
16	2.000000	1.129066	7.3652e+06	-39439.1	955.818	-29794.5	0.000000	0.000000	7.132937	103.365	NaN	0.000000	0.001604	0.001738	28.1294	42.1362	0.001854	22729.3	2.082768	179.186	102.823	1.128777	0.045035	0.044745	103.365	22729.3	0.041624	0.068292	1513.57	79464.5
16	2.000000	1.131072	7.3652e+06	-39439.1	955.819	-29794.5	0.000000	0.000000	7.134967	103.973	NaN	0.000000	0.001608	0.001711	28.1296	44.7663	0.001915	23378.4	2.810632	178.743	103.476	1.130776	0.047040	0.046744	103.973	23378.4	0.043704	0.073951	1405.97	78544.3
16	2.000000	1.133037	7.3652e+06	-39439.1	955.82	-29794.5	0.000000	0.000000	7.137550	119.001	NaN	0.000000	0.001612	0.001713	28.1299	45.6774	0.001821	25083.5	8.262273	173.299	118.729	1.132809	0.049005	0.048777	119.001	25083.5	0.045447	0.078861	1509	81607.7
16	2.000000	1.135027	7.3652e+06	-39439.1	955.82	-29794.5	0.000000	0.000000	7.139837	126.218	NaN	0.000000	0.001610	0.001707	28.1295	48.3447	0.001744	27717.3	7.034369	173.665	124.7	1.134678	0.050995	0.050646	126.218	27717.3	0.047579	0.085078	1483.55	86819.1
16	2.000000	1.137120	7.3652e+06	-39439.1	955.819	-29794.5	0.000000	0.000000	7.142353	136.513	NaN	0.000000	0.001632	0.001727	28.1287	49.9372	0.001762	28336.2	5.919570	174.874	137.315	1.136721	0.053088	0.052689	136.513	28336.2	0.049475	0.090797	1503.5	85917.1
16	2.000000	1.139114	7.3652e+06	-39439.1	955.818	-29794.5	0.000000	0.000000	7.144560	141.702	NaN	0.000000	0.001610	0.001753	28.1286	52.023	0.001933	26914.9	8.123186	173.514	142.416	1.138650	0.055082	0.054618	141.702	26914.9	0.051133	0.095948	1476.85	79386.6
16	2.000000	1.141101	7.3652e+06	-39439.1	955.819	-29794.5	0.000000	0.000000	7.146734	146.236	NaN	0.000000	0.001514	0.001696	28.1288	54.2757	0.001759	30863.1	5.299229	173.541	147.169	1.140727	0.057069	0.056695	146.236	30863.1	0.053515	0.103588	1411.7	87610.7
16	2.000000	1.143016	7.3652e+06	-39439.1	955.819	-29794.5	0.000000	0.000000	7.149306	162.23	NaN	0.000000	0.001582	0.001706	28.1286	54.7116	0.001687	32429.3	5.224002	173.295	159.275	1.142688	0.058984	0.058656	162.23	32429.3	0.055232	0.109270	1484.67	89631.5
16	2.000000	1.145032	7.3652e+06	-39439.1	955.819	-29794.5	0.000000	0.000000	7.151782	173.447	NaN	0.000000	0.001551	0.001676	28.1284	56.9768	0.001717	33187.2	5.300425	173.437	171.384	1.144662	0.061000	0.060630	173.447	33187.2	0.057080	0.115546	1501.1	89200.1
16	2.000000	1.147073	7.3652e+06	-39439.1	955.818	-29794.5	0.000000	0.000000	7.154159	181.613	NaN	0.000000	0.001502	0.001695	28.13	58.837	0.001841	31952.5	0.212114	179.32	180.725	1.146711	0.063041	0.062680	181.613	31952.5	0.058778	0.121464	1495.2	83763.7
16	2.000000	1.149025	7.3652e+06	-39439.1	955.819	-29794.5	0.000000	0.000000	7.156601	193.508	NaN	0.000000	0.001573	0.001715	28.1298	60.5006	0.001744	34696	6.666599	172.187	193.284	1.148683	0.064994	0.064652	193.508	34696	0.060811	0.128731	1503.19	88350.8
16	2.000000	1.150995	7.3652e+06	-39439.1	955.819	-29794.5	0.000000	0.000000	7.158924	202.135	NaN	0.000000	0.001589	0.001755	28.1298	63.8403	0.001825	34987.9	3.622203	174.604	198.643	1.150632	0.066963	0.066601	202.135	34987.9	0.062630	0.135408	1492.79	86870
16	2.000000	1.153044	7.3652e+06	-39439.1	955.819	-29794.5	0.000000	0.000000	7.161219	208.096	NaN	0.000000	0.001538	0.001740	28.1295	64.2999	0.001676	38354.9	4.688912	173.871	209.335	1.152700	0.069012	0.068668	208.096	38354.9	0.064943	0.144128	1443.83	92304
16	2.000000	1.154951	7.3652e+06	-39439.1	955.82	-29794.5	0.000000	0.000000	7.163435	215.614	NaN	0.000000	0.001558	0.001696	28.1282	67.6699	0.001826	37066.7	5.271860	172.569	210.936	1.154716	0.070919	0.070684	215.614	37066.7	0.066557	0.150364	1433.95	87334.5
16	2.000000	1.156978	7.3652e+06	-39439.1	955.818	-29794.5	0.000000	0.000000	7.166173	232.917	NaN	0.000000	0.001561	0.001703	28.1278	70.1929	0.001920	36559.4	8.459504	169.697	227.984	1.156707	0.072946	0.072675	232.917	36559.4	0.068168	0.156717	1486.23	84375.2
16	2.000000	1.159019	7.3652e+06	-39439.1	955.818	-29794.5	0.000000	0.000000	7.168511	240.146	NaN	0.000000	0.001578	0.001725	28.1276	70.8213	0.001855	38172.5	3.243531	173.998	239.52	1.158737	0.074987	0.074705	240.146	38172.5	0.070269	0.165183	1453.82	85810.7
16	2.000000	1.161029	7.3652e+06	-39439.1	955.818	-29794.5	0.000000	0.000000	7.171171	255.964	NaN	0.000000	0.001573	0.001710	28.1277	73.2431	0.001794	40821	4.961769	172.034	253.634	1.160720	0.076997	0.076688	255.964	40821	0.072294	0.173546	1474.9	89526.1
16	2.000000	1.163021	7.3652e+06	-39439.1	955.818	-29794.5	0.000000	0.000000	7.173738	269.959	NaN	0.000000	0.001577	0.001688	28.1278	73.0961	0.001749	41782.6	2.601303	174.683	267.498	1.162584	0.078989	0.078552	269.959	41782.6	0.074144	0.181351	1488.6	89641.5
16	2.000000	1.164935	7.3652e+06	-39439.1	955.819	-29794.5	0.000000	0.000000	7.176146	281.975	NaN	0.000000	0.001587	0.001703	28.1276	76.0464	0.001826	41645.9	4.305081	172.803	277.513	1.164662	0.080903	0.080630	281.975	41645.9	0.075825	0.188587	1495.19	87617.1
16	2.000000	1.167007	7.3652e+06	-39439.1	955.819	-29794.5	0.000000	0.000000	7.178710	293.943	NaN	0.000000	0.001555	0.001694	28.1295	78.6654	0.001884	41747.4	6.363191	170.575	290.662	1.166667	0.082976	0.082635	293.943	41747.4	0.077695	0.196791	1493.68	85980.6
16	2.000000	1.168929	7.3652e+06	-39439.1	955.819	-29794.5	0.000000	0.000000	7.181219	308.232	NaN	0.000000	0.001557	0.001707	28.1285	78.8788	0.001813	43517.7	5.914661	170.953	303.719	1.168626	0.084898	0.084594	308.232	43517.7	0.079585	0.205251	1501.73	87760.1
16	2.000000	1.170936	7.3652e+06	-39439.1	955.819	-29794.5	0.000000	0.000000	7.183903	324.716	NaN	0.000000	0.001548	0.001723	28.1288	82.0003	0.001827	44883.5	1.626835	175.22	320.919	1.170719	0.086904	0.086687	324.716	44883.5	0.081478	0.213889	1518.15	88667.6
16	2.000000	1.172957	7.3652e+06	-39439.1	955.819	-29794.5	0.000000	0.000000	7.186545	339.838	NaN	0.000000	0.001552	0.001700	28.1289	83.5951	0.001861	44923.4	6.393205	170.854	337.199	1.172621	0.088925	0.088589	339.838	44923.4	0.083251	0.222131	1529.9	87084.6
16	2.000000	1.174954	7.3652e+06	-39439.1	955.819	-29794.5	0.000000	0.000000	7.189037	351.888	NaN	0.000000	0.001564	0.001742	28.1286	85.4151	0.001817	47013.5	4.599021	171.266	348.439	1.174701	0.090922	0.090670	351.888	47013.5	0.085308	0.231875	1517.58	89200.8
16	2.000000	1.176972	7.3652e+06	-39439.1	955.818	-29794.5	0.000000	0.000000	7.191607	365.301	NaN	0.000000	0.001527	0.001728	28.128	86.4211	0.001717	50335.8	1.264823	174.847	360.936	1.176747	0.092940	0.092715	365.301	50335.8	0.087497	0.242458	1506.66	93397
16	2.000000	1.179013	7.3652e+06	-39439.1	955.818	-29794.5	0.000000	0.000000	7.194397	383.544	NaN	0.000000	0.001568	0.001756	28.1274	88.8283	0.001878	47306.4	4.665349	171.711	381.353	1.178643	0.094981	0.094611	383.544	47306.4	0.088900	0.249358	1538.13	86552.9
16	2.000000	1.181002	7.3652e+06	-39439.1	955.819	-29794.5	0.000000	0.000000	7.196878	395.507	NaN	0.000000	0.001548	0.001760	28.1278	91.0369	0.001783	51063.7	2.760840	172.95	394.568	1.180740	0.096970	0.096708	395.507	51063.7	0.091161	0.260664	1517.3	91378.6
16	2.000000	1.183034	7.3652e+06	-39439.1	955.818	-29794.5	0.000000	0.000000	7.199731	415.485	NaN	0.000000	0.001550	0.001775	28.1275	91.261	0.001690	53985.4	9.375841	166.385	414.077	1.182530	0.099002	0.098498	415.485	53985.4	0.093230	0.271219	1531.92	94708.6
16	2.000000	1.184920	7.3652e+06	-39439.1	955.82	-29794.5	0.000000	0.000000	7.202336	433.003	NaN	0.000000	0.001527	0.001705	28.1275	95.1796	0.001756	54202.6	7.395107	167.634	428.078	1.184562	0.100888	0.100530	433.003	54202.6	0.094896	0.279862	1547.2	93609.9
16	2.000000	1.187019	7.3652e+06	-39439.1	955.819	-29794.5	0.000000	0.000000	7.205124	449.745	NaN	0.000000	0.001553	0.001755	28.1298	96.947	0.001793	54064.5	5.754086	169.376	449.187	1.186774	0.102987	0.102742	449.745	54064.5	0.096748	0.289616	1552.9	91785.5
16	2.000000	1.189020	7.3652e+06	-39439.1	955.818	-29794.5	0.000000	0.000000	7.207752	465.018	NaN	0.000000	0.001561	0.001740	28.1299	98.0805	0.001712	57276	2.677794	172.461	465.847	1.188576	0.104988	0.104544	465.018	57276	0.098899	0.301139	1544.2	95359.1
16	2.000000	1.191043	7.3652e+06	-39439.1	955.819	-29794.5	0.000000	0.000000	7.210433	481.009	NaN	0.000000	0.001538	0.001763	28.1305	102.817	0.001817	56583.3	6.617543	168.016	481.018	1.190735	0.107011	0.106703	481.009	56583.3	0.100635	0.310596	1548.66	92760.6
16	2.000000	1.191912	7.3652e+06	-39439.1	955.819	-29794.5	0.000000	0.000000	7.211702	490.758	NaN	0.000000	0.001571	0.001754	28.0816	102.327	0.001828	55985.7	6.120052	169.306	485.829	1.191595	0.107880	0.107563	490.758	55985.7	0.101306	0.314283	1561.52	91241