File: remote_trans/data/nanoindenter/0828-1/data/Data_2025-08-06,11h17m57s/2025-07-22_16-23-58_1_517.txt
2025-07-22, 16:23:58, 1
Index	Phase	Displacement	Time	Pos X	Pos Y	Pos Z	Rot A	Rot B	Piezo Z	Force A	Force B	Gripper	Voltage A	Voltage B	Temperature	Amplitude force	Amplitude pos	Stiffness	Phase shift	Phase excitation	Force A raw	Displacement raw	HMax	HMax raw	Real Force	Real Stiffness	Contact Depth	Area	Hardness	Reduced Mod.
[#]	[#]	[um]	[s]	[um]	[um]	[um]	[m°]	[m°]	[um]	[uN]	[uN]	[V]	[V]	[V]	[°C]	[uN]	[um]	[N/m]	[°]	[°]	[uN]	[um]	[um]	[um]	[uN]	[N/m]	[um]	[um^2]	[MPa]	[MPa]
517	1.000000	0.003193	7.37011e+06	-51239.1	1005.82	-29753	0.000000	0.000000	6.002805	-0.017968	NaN	0.000000	0.001624	0.001702	28.0822	0.032355	0.001024	31.6083	160.926	-165.302	-0.083372	0.001954	-1.100911	-1.102151	-0.017968	31.6083	-1.100485	-5.088366E+14	3.531118E-17	NaN
517	1.000000	0.013258	7.37011e+06	-51239.1	1005.82	-29753	0.000000	0.000000	6.012870	-0.007642	NaN	0.000000	0.001611	0.001721	28.0822	0.063479	0.001307	48.5739	140.131	22.6766	-0.010862	0.011833	-1.090847	-1.092272	-0.007642	48.5739	-1.090729	-3.763529E+14	2.030612E-17	NaN
517	1.000000	0.023146	7.37011e+06	-51239.1	1005.82	-29753	0.000000	0.000000	6.022762	0.096400	NaN	0.000000	0.001625	0.001689	28.0817	0.031981	0.001609	19.8784	-42.8342	-164.534	0.011325	0.021797	-1.080959	-1.082307	0.096400	19.8784	-1.084596	-3.113495E+14	-3.096199E-16	NaN
517	1.000000	0.033116	7.37011e+06	-51239.1	1005.82	-29753	0.000000	0.000000	6.032727	-0.014945	NaN	0.000000	0.001622	0.001656	28.083	0.042149	0.001955	21.5581	116.22	19.0467	-0.008276	0.031800	-1.070989	-1.072304	-0.014945	21.5581	-1.070469	-2.011346E+14	7.430298E-17	NaN
517	1.000000	0.043125	7.37011e+06	-51239.1	1005.82	-29753	0.000000	0.000000	6.042739	0.043886	NaN	0.000000	0.001609	0.001668	28.0832	0.041398	0.002054	20.1552	68.8914	-165.036	-0.004286	0.041829	-1.060980	-1.062275	0.043886	20.1552	-1.062613	-1.577377E+14	-2.782189E-16	NaN
517	1.000000	0.053146	7.37011e+06	-51239.1	1005.82	-29753	0.000000	0.000000	6.052758	-0.013590	NaN	0.000000	0.001639	0.001674	28.083	0.116219	0.002020	57.532	161.356	16.2175	-0.065448	0.051770	-1.050958	-1.052335	-0.013590	57.532	-1.050781	-1.093741E+14	1.242570E-16	NaN
517	1.000000	0.063148	7.37011e+06	-51239.1	1005.82	-29753	0.000000	0.000000	6.062758	-0.067072	NaN	0.000000	0.001592	0.001643	28.083	0.016932	0.001921	8.816133	-155.944	-164.988	-0.000346	0.061807	-1.040956	-1.042297	-0.067072	8.816133	-1.035250	-6.762305E+13	9.918566E-16	NaN
517	1.000000	0.073142	7.37011e+06	-51239.1	1005.82	-29753	0.000000	0.000000	6.072754	-0.001140	NaN	0.000000	0.001601	0.001707	28.0831	0.068635	0.001996	34.3783	131.646	13.2894	0.017135	0.071802	-1.030963	-1.032302	-0.001140	34.3783	-1.030938	-5.916907E+13	1.926119E-17	NaN
517	1.000000	0.083136	7.37011e+06	-51239.1	1005.82	-29753	0.000000	0.000000	6.082747	-0.024801	NaN	0.000000	0.001646	0.001709	28.0828	0.083674	0.002058	40.653	-100.737	-165.425	-0.023246	0.081799	-1.020969	-1.022305	-0.024801	40.653	-1.020512	-4.283870E+13	5.789475E-16	NaN
517	1.000000	0.093147	7.37011e+06	-51239.1	1005.82	-29753	0.000000	0.000000	6.092758	-0.018476	NaN	0.000000	0.001614	0.001671	28.0832	0.093935	0.002090	44.9435	-79.1521	12.7156	0.041921	0.091756	-1.010958	-1.012349	-0.018476	44.9435	-1.010650	-3.155939E+13	5.854212E-16	NaN
517	1.000000	0.103145	7.37011e+06	-51239.1	1005.82	-29753	0.000000	0.000000	6.102756	-0.014494	NaN	0.000000	0.001589	0.001736	28.0829	0.042569	0.002064	20.622	138.019	-166.602	-0.079931	0.101846	-1.000960	-1.002258	-0.014494	20.622	-1.000433	-2.299287E+13	6.303833E-16	NaN
517	1.000000	0.113162	7.37011e+06	-51239.1	1005.82	-29753	0.000000	0.000000	6.112773	-0.007633	NaN	0.000000	0.001613	0.001718	28.0833	0.113874	0.002041	55.7936	-18.6409	13.9274	0.014230	0.111772	-0.990943	-0.992333	-0.007633	55.7936	-0.990840	-1.707778E+13	4.469304E-16	NaN
517	1.000000	0.123171	7.37011e+06	-51239.1	1005.82	-29753	0.000000	0.000000	6.122783	-0.010148	NaN	0.000000	0.001618	0.001735	28.0829	0.161147	0.001858	86.7287	-87.848	-166.945	-0.016592	0.121821	-0.980934	-0.982284	-0.010148	86.7287	-0.980846	-1.252585E+13	8.101895E-16	NaN
517	1.000000	0.133142	7.37011e+06	-51239.1	1005.82	-29753	0.000000	0.000000	6.132753	-0.044336	NaN	0.000000	0.001618	0.001756	28.0835	0.025438	0.002035	12.5015	-128.376	18.7941	-0.025557	0.131826	-0.970962	-0.972279	-0.044336	12.5015	-0.968302	-8.487566E+12	5.223671E-15	NaN
517	1.000000	0.143174	7.37011e+06	-51239.1	1005.82	-29753	0.000000	0.000000	6.142786	0.007057	NaN	0.000000	0.001588	0.001722	28.0832	0.058538	0.001974	29.6478	-23.99	-165.228	-0.063462	0.141890	-0.960931	-0.962215	0.007057	29.6478	-0.961109	-6.789288E+12	-1.039503E-15	NaN
517	1.000000	0.153162	7.37011e+06	-51239.1	1005.82	-29753	0.000000	0.000000	6.152775	0.038072	NaN	0.000000	0.001635	0.001715	28.0832	0.132867	0.002028	65.5079	157.199	13.2136	0.090583	0.151772	-0.950943	-0.952333	0.038072	65.5079	-0.951379	-5.019062E+12	-7.585421E-15	NaN
517	1.000000	0.163172	7.37011e+06	-51239.1	1005.82	-29753	0.000000	0.000000	6.162784	0.003661	NaN	0.000000	0.001678	0.001671	28.0832	0.093036	0.001890	49.2213	-128.068	-165.676	0.011433	0.161878	-0.940933	-0.942226	0.003661	49.2213	-0.940989	-3.634768E+12	-1.007089E-15	NaN
517	1.000000	0.173185	7.37011e+06	-51239.1	1005.82	-29753	0.000000	0.000000	6.172800	0.069376	NaN	0.000000	0.001616	0.001749	28.0821	0.091824	0.001953	47.0185	105.581	12.4626	0.112815	0.171831	-0.930920	-0.932274	0.069376	47.0185	-0.932026	-2.751339E+12	-2.521536E-14	NaN
517	1.000000	0.183211	7.37011e+06	-51239.1	1005.82	-29753	0.000000	0.000000	6.182823	0.002008	NaN	0.000000	0.001646	0.001706	28.0822	0.035120	0.002001	17.5533	-59.1451	-168.619	0.037164	0.181858	-0.920894	-0.922246	0.002008	17.5533	-0.920980	-1.951799E+12	-1.028657E-15	NaN
517	1.000000	0.193185	7.37011e+06	-51239.1	1005.82	-29753	0.000000	0.000000	6.192796	-0.036586	NaN	0.000000	0.001630	0.001737	28.0819	0.066159	0.002096	31.564	-7.275153	18.8257	0.008693	0.191864	-0.910920	-0.912241	-0.036586	31.564	-0.910050	-1.389447E+12	2.633148E-14	NaN
517	1.000000	0.203184	7.37011e+06	-51239.1	1005.82	-29753	0.000000	0.000000	6.202794	-0.033120	NaN	0.000000	0.001628	0.001718	28.082	0.107091	0.002020	53.0251	51.8656	-163.541	-0.047880	0.201902	-0.900921	-0.902203	-0.033120	53.0251	-0.900453	-1.030817E+12	3.212976E-14	NaN
517	1.000000	0.213196	7.37011e+06	-51239.1	1005.82	-29753	0.000000	0.000000	6.212806	-0.056264	NaN	0.000000	0.001623	0.001707	28.082	0.030260	0.002042	14.8189	151.122	13.5572	0.005569	0.211810	-0.890909	-0.892295	-0.056264	14.8189	-0.888061	-7.009828E+11	8.026444E-14	NaN
517	1.000000	0.223191	7.37011e+06	-51239.1	1005.82	-29753	0.000000	0.000000	6.222804	0.025240	NaN	0.000000	0.001646	0.001715	28.0822	0.058695	0.001983	29.5976	161.643	-161.216	0.017750	0.221852	-0.880913	-0.882252	0.025240	29.5976	-0.881553	-5.724124E+11	-4.409341E-14	NaN
517	1.000000	0.233196	7.37011e+06	-51239.1	1005.82	-29753	0.000000	0.000000	6.232807	-0.031760	NaN	0.000000	0.001623	0.001745	28.0817	0.084012	0.001923	43.6821	-164.394	14.8827	-0.055360	0.231913	-0.870909	-0.872191	-0.031760	43.6821	-0.870364	-4.039837E+11	7.861729E-14	NaN
517	1.000000	0.243227	7.37011e+06	-51239.1	1005.82	-29753	0.000000	0.000000	6.242841	0.047966	NaN	0.000000	0.001642	0.001735	28.082	0.058608	0.001913	30.6413	74.8995	-164.318	0.054244	0.241904	-0.860877	-0.862201	0.047966	30.6413	-0.862051	-3.118076E+11	-1.538334E-13	NaN
517	1.000000	0.253222	7.37011e+06	-51239.1	1005.82	-29753	0.000000	0.000000	6.252834	-0.014570	NaN	0.000000	0.001638	0.001741	28.0819	0.065588	0.002001	32.7746	-85.2943	14.0412	-0.049123	0.251914	-0.850882	-0.852190	-0.014570	32.7746	-0.850549	-2.178573E+11	6.687911E-14	NaN
517	1.000000	0.263247	7.37011e+06	-51239.1	1005.82	-29753	0.000000	0.000000	6.262858	-0.034343	NaN	0.000000	0.001623	0.001725	28.082	0.049280	0.001978	24.9121	-117.514	-165.268	-0.050928	0.261907	-0.840858	-0.842198	-0.034343	24.9121	-0.839824	-1.559208E+11	2.202623E-13	NaN
517	1.000000	0.273225	7.37011e+06	-51239.1	1005.82	-29753	0.000000	0.000000	6.272839	0.027359	NaN	0.000000	0.001622	0.001692	28.082	0.103466	0.001897	54.5555	29.2129	14.2844	0.048060	0.271903	-0.830879	-0.832201	0.027359	54.5555	-0.831255	-1.193441E+11	-2.292459E-13	NaN
517	1.000000	0.283219	7.37011e+06	-51239.1	1005.82	-29753	0.000000	0.000000	6.282832	0.024675	NaN	0.000000	0.001610	0.001767	28.0825	0.126586	0.002127	59.5255	118.481	-164.853	0.069831	0.281933	-0.820886	-0.822171	0.024675	59.5255	-0.821196	-8.718369E+10	-2.830207E-13	NaN
517	1.000000	0.293228	7.37011e+06	-51239.1	1005.82	-29753	0.000000	0.000000	6.292838	-0.050158	NaN	0.000000	0.001649	0.001726	28.0824	0.108324	0.002055	52.7056	141.201	16.0316	0.031435	0.291904	-0.810877	-0.812201	-0.050158	52.7056	-0.810163	-6.177067E+10	8.120066E-13	NaN
517	1.000000	0.303219	7.37011e+06	-51239.1	1005.82	-29753	0.000000	0.000000	6.302832	0.013272	NaN	0.000000	0.001647	0.001681	28.0819	0.084014	0.002060	40.7799	-19.8528	-166.861	0.045774	0.301935	-0.800885	-0.802170	0.013272	40.7799	-0.801130	-4.657947E+10	-2.849405E-13	NaN
517	1.000000	0.313272	7.37011e+06	-51239.1	1005.82	-29753	0.000000	0.000000	6.312884	0.000693	NaN	0.000000	0.001604	0.001729	28.0831	0.121161	0.002016	60.1027	98.6852	21.1657	-0.037157	0.311925	-0.790832	-0.792180	0.000693	60.1027	-0.790841	-3.376796E+10	-2.051450E-14	NaN
517	1.000000	0.323292	7.37011e+06	-51239.1	1005.82	-29753	0.000000	0.000000	6.322902	-0.050912	NaN	0.000000	0.001638	0.001691	28.0833	0.161161	0.002055	78.439	-62.3427	-165.341	-0.021942	0.321929	-0.780812	-0.782176	-0.050912	78.439	-0.780325	-2.430268E+10	2.094917E-12	NaN
517	1.000000	0.333293	7.37011e+06	-51239.1	1005.82	-29753	0.000000	0.000000	6.332902	-0.071038	NaN	0.000000	0.001617	0.001681	28.0833	0.033716	0.001944	17.3397	-35.9528	16.2411	-0.037155	0.331890	-0.770812	-0.772215	-0.071038	17.3397	-0.767739	-1.638957E+10	4.334342E-12	NaN
517	1.000000	0.343266	7.37011e+06	-51239.1	1005.82	-29753	0.000000	0.000000	6.342881	0.059263	NaN	0.000000	0.001605	0.001684	28.0833	0.016710	0.002032	8.224229	172.815	-163.058	0.076235	0.341979	-0.760838	-0.762125	0.059263	8.224229	-0.766243	-1.563923E+10	-3.789369E-12	NaN
517	1.000000	0.353248	7.37011e+06	-51239.1	1005.82	-29753	0.000000	0.000000	6.352861	0.044847	NaN	0.000000	0.001620	0.001689	28.0832	0.063650	0.002045	31.1285	-87.8753	18.4398	0.029558	0.351897	-0.750857	-0.752208	0.044847	31.1285	-0.751938	-9.990663E+9	-4.488854E-12	NaN
517	1.000000	0.363284	7.37011e+06	-51239.1	1005.82	-29753	0.000000	0.000000	6.362896	-0.006394	NaN	0.000000	0.001625	0.001706	28.0834	0.104533	0.001887	55.4093	155.537	-164.978	-0.065506	0.361931	-0.740821	-0.742173	-0.006394	55.4093	-0.740734	-7.031623E+9	9.093583E-13	NaN
517	1.000000	0.373250	7.37011e+06	-51239.1	1005.82	-29753	0.000000	0.000000	6.372861	-0.012938	NaN	0.000000	0.001607	0.001713	28.0833	0.023467	0.001989	11.7959	-59.3975	10.544	-0.001836	0.371928	-0.730855	-0.732177	-0.012938	11.7959	-0.730032	-5.026307E+9	2.574057E-12	NaN
517	1.000000	0.383277	7.37011e+06	-51239.1	1005.82	-29753	0.000000	0.000000	6.382887	-0.059682	NaN	0.000000	0.001609	0.001710	28.0832	0.005633	0.001900	2.965031	79.5536	-168.121	-0.097885	0.381993	-0.720827	-0.722112	-0.059682	2.965031	-0.705731	-2.343035E+9	2.547188E-11	NaN
517	1.000000	0.393296	7.37011e+06	-51239.1	1005.82	-29753	0.000000	0.000000	6.392908	-0.011027	NaN	0.000000	0.001559	0.001705	28.0833	0.087242	0.002056	42.4233	-51.8586	12.5937	0.032076	0.391940	-0.710808	-0.712164	-0.011027	42.4233	-0.710613	-2.731619E+9	4.036668E-12	NaN
517	1.000000	0.403274	7.37011e+06	-51239.1	1005.82	-29753	0.000000	0.000000	6.402888	0.063737	NaN	0.000000	0.001602	0.001674	28.0835	0.126907	0.001913	66.3479	99.8778	-163.53	0.041942	0.402046	-0.700831	-0.702059	0.063737	66.3479	-0.701552	-2.054566E+9	-3.102192E-11	NaN
517	1.000000	0.413297	7.37011e+06	-51239.1	1005.82	-29753	0.000000	0.000000	6.412911	0.041450	NaN	0.000000	0.001618	0.001718	28.0833	0.062900	0.001930	32.5993	19.1643	16.8832	0.114660	0.412024	-0.690808	-0.692081	0.041450	32.5993	-0.691761	-1.510027E+9	-2.744967E-11	NaN
517	1.000000	0.423294	7.37011e+06	-51239.1	1005.82	-29753	0.000000	0.000000	6.422908	0.063180	NaN	0.000000	0.001585	0.001750	28.0835	0.087887	0.002014	43.6285	131.227	-159.354	0.025394	0.421940	-0.680811	-0.682164	0.063180	43.6285	-0.681897	-1.107003E+9	-5.707308E-11	NaN
517	1.000000	0.433321	7.37011e+06	-51239.1	1005.82	-29753	0.000000	0.000000	6.432934	0.001067	NaN	0.000000	0.001596	0.001694	28.0836	0.126205	0.001987	63.5018	-168.214	19.0428	0.057996	0.431938	-0.670783	-0.672167	0.001067	63.5018	-0.670796	-7.803370E+8	-1.366804E-12	NaN
517	1.000000	0.443277	7.37011e+06	-51239.1	1005.82	-29753	0.000000	0.000000	6.442890	0.038094	NaN	0.000000	0.001597	0.001722	28.0821	0.061931	0.001878	32.9821	171.913	-165.801	0.097116	0.441940	-0.660828	-0.662165	0.038094	32.9821	-0.661694	-5.857020E+8	-6.503908E-11	NaN
517	1.000000	0.453317	7.37011e+06	-51239.1	1005.82	-29753	0.000000	0.000000	6.452929	-0.013805	NaN	0.000000	0.001612	0.001695	28.0822	0.063030	0.001981	31.8192	-88.4467	15.7799	-0.054362	0.451930	-0.650787	-0.652175	-0.013805	31.8192	-0.650462	-4.109319E+8	3.359517E-11	NaN
517	1.000000	0.463304	7.37011e+06	-51239.1	1005.82	-29753	0.000000	0.000000	6.462914	-0.044441	NaN	0.000000	0.001622	0.001675	28.0822	0.128934	0.001951	66.0793	152.495	-161.104	-0.044044	0.461954	-0.640801	-0.642150	-0.044441	66.0793	-0.640297	-2.980992E+8	1.490813E-10	NaN
517	1.000000	0.473309	7.37011e+06	-51239.1	1005.82	-29753	0.000000	0.000000	6.472920	-0.032830	NaN	0.000000	0.001603	0.001627	28.0822	0.084059	0.001993	42.1837	112.69	10.8178	-0.029216	0.471997	-0.630795	-0.632108	-0.032830	42.1837	-0.630212	-2.167356E+8	1.514746E-10	NaN
517	1.000000	0.483320	7.37011e+06	-51239.1	1005.82	-29753	0.000000	0.000000	6.482933	0.038940	NaN	0.000000	0.001625	0.001606	28.082	0.090419	0.001975	45.7906	136.409	-165.313	0.084125	0.482035	-0.620785	-0.622069	0.038940	45.7906	-0.621423	-1.641307E+8	-2.372513E-10	NaN
517	1.000000	0.493319	7.37011e+06	-51239.1	1005.82	-29753	0.000000	0.000000	6.492930	-0.028022	NaN	0.000000	0.001598	0.001662	28.0822	0.097093	0.002048	47.4132	92.2004	13.1321	-0.023257	0.492018	-0.610786	-0.612087	-0.028022	47.4132	-0.610342	-1.155643E+8	2.424804E-10	NaN
517	1.000000	0.503340	7.37011e+06	-51239.1	1005.82	-29753	0.000000	0.000000	6.502952	-0.018965	NaN	0.000000	0.001634	0.001580	28.0822	0.091245	0.002073	44.0085	-75.0385	-164.222	-0.011108	0.501983	-0.600764	-0.602122	-0.018965	44.0085	-0.600441	-8.443772E+7	2.246011E-10	NaN
517	1.000000	0.513349	7.37011e+06	-51239.1	1005.82	-29753	0.000000	0.000000	6.512961	0.002135	NaN	0.000000	0.001626	0.001582	28.0822	0.026425	0.002023	13.0605	63.0302	16.4151	-0.026191	0.511958	-0.590755	-0.592146	0.002135	13.0605	-0.590878	-6.234068E+7	-3.425336E-11	NaN
517	1.000000	0.523334	7.37011e+06	-51239.1	1005.82	-29753	0.000000	0.000000	6.522942	-0.098738	NaN	0.000000	0.001608	0.001607	28.0819	0.043510	0.002000	21.752	90.9449	-161.554	-0.041861	0.522005	-0.580771	-0.582100	-0.098738	21.752	-0.577366	-4.058529E+7	2.432840E-9	NaN
517	1.000000	0.533351	7.37011e+06	-51239.1	1005.82	-29753	0.000000	0.000000	6.532967	0.073478	NaN	0.000000	0.001604	0.001612	28.0822	0.095647	0.002016	47.4497	10.995	18.3002	0.123115	0.531979	-0.570753	-0.572126	0.073478	47.4497	-0.571915	-3.412589E+7	-2.153154E-9	NaN
517	1.000000	0.543339	7.37011e+06	-51239.1	1005.82	-29753	0.000000	0.000000	6.542954	0.060199	NaN	0.000000	0.001627	0.001606	28.0822	0.037847	0.001939	19.5224	-108.845	-168.519	0.055595	0.542064	-0.560765	-0.562040	0.060199	19.5224	-0.563078	-2.576029E+7	-2.336910E-9	NaN
517	1.000000	0.553343	7.37011e+06	-51239.1	1005.82	-29753	0.000000	0.000000	6.552955	-0.002659	NaN	0.000000	0.001651	0.001564	28.082	0.058427	0.001941	30.1019	120.376	12.8891	-0.012373	0.551949	-0.550761	-0.552156	-0.002659	30.1019	-0.550695	-1.736136E+7	1.531376E-10	NaN
517	1.000000	0.563364	7.37011e+06	-51239.1	1005.82	-29753	0.000000	0.000000	6.562974	-0.057810	NaN	0.000000	0.001644	0.001590	28.0818	0.037072	0.001920	19.3121	87.1121	-163.479	-0.031930	0.562031	-0.540740	-0.542074	-0.057810	19.3121	-0.538495	-1.176218E+7	4.914914E-9	NaN
517	1.000000	0.573370	7.37011e+06	-51239.1	1005.82	-29753	0.000000	0.000000	6.572984	0.039101	NaN	0.000000	0.001643	0.001633	28.082	0.108130	0.002072	52.1758	-172.276	16.351	0.009221	0.571978	-0.530734	-0.532127	0.039101	52.1758	-0.531296	-9.34492e+06	-4.184182E-9	NaN
517	1.000000	0.583376	7.37011e+06	-51239.1	1005.82	-29753	0.000000	0.000000	6.582988	-0.007358	NaN	0.000000	0.001602	0.001599	28.083	0.074141	0.002115	35.0628	-56.4382	-164.207	0.055662	0.582021	-0.520728	-0.522083	-0.007358	35.0628	-0.520571	-6.63039e+06	1.109742E-9	NaN
517	1.000000	0.593375	7.37011e+06	-51239.1	1005.82	-29753	0.000000	0.000000	6.592987	0.015543	NaN	0.000000	0.001594	0.001600	28.0831	0.050649	0.001887	26.8432	154.325	13.76	0.003448	0.591978	-0.510730	-0.512127	0.015543	26.8432	-0.511164	-4.90492e+06	-3.168761E-9	NaN
517	1.000000	0.603370	7.37011e+06	-51239.1	1005.82	-29753	0.000000	0.000000	6.602985	0.073062	NaN	0.000000	0.001622	0.001638	28.0831	0.057800	0.002077	27.8344	-10.6179	-165.598	0.086723	0.602043	-0.500735	-0.502062	0.073062	27.8344	-0.502703	-3.73872e+06	-1.954205E-8	NaN
517	1.000000	0.613366	7.37011e+06	-51239.1	1005.82	-29753	0.000000	0.000000	6.612981	0.062205	NaN	0.000000	0.001611	0.001598	28.0833	0.085581	0.002080	41.1533	133.97	15.9948	-0.048854	0.611984	-0.490739	-0.492121	0.062205	41.1533	-0.491872	-2.63968e+06	-2.356536E-8	NaN
517	1.000000	0.623363	7.37011e+06	-51239.1	1005.82	-29753	0.000000	0.000000	6.622974	-0.022604	NaN	0.000000	0.001620	0.001587	28.0832	0.101629	0.001933	52.5882	76.8038	-165.125	-0.007730	0.622012	-0.480741	-0.482093	-0.022604	52.5882	-0.480419	-1.82555e+06	1.238186E-8	NaN
517	1.000000	0.633402	7.37011e+06	-51239.1	1005.82	-29753	0.000000	0.000000	6.633013	-0.027168	NaN	0.000000	0.001645	0.001607	28.0832	0.007976	0.002065	3.862462	104.792	16.4809	0.011472	0.631975	-0.470702	-0.472130	-0.027168	3.862462	-0.465427	-1.12523e+06	2.414482E-8	NaN
517	1.000000	0.643380	7.37011e+06	-51239.1	1005.82	-29753	0.000000	0.000000	6.642990	-0.045037	NaN	0.000000	0.001649	0.001627	28.0833	0.090833	0.002006	45.274	134.526	-168.77	-0.053833	0.642107	-0.460725	-0.461997	-0.045037	45.274	-0.459979	-943450	4.773701E-8	NaN
517	1.000000	0.653384	7.37011e+06	-51239.1	1005.82	-29753	0.000000	0.000000	6.652994	-0.065297	NaN	0.000000	0.001641	0.001594	28.0832	0.022161	0.001991	11.1311	113.713	17.7643	-0.072669	0.652022	-0.450720	-0.452083	-0.065297	11.1311	-0.446321	-606048	1.077426E-7	NaN
517	1.000000	0.663405	7.37011e+06	-51239.1	1005.82	-29753	0.000000	0.000000	6.663017	-0.015939	NaN	0.000000	0.001656	0.001629	28.0833	0.013439	0.002075	6.475723	-14.1466	-162.165	-0.011205	0.662064	-0.440699	-0.442041	-0.015939	6.475723	-0.438853	-475528	3.351933E-8	NaN
517	1.000000	0.673399	7.37011e+06	-51239.1	1005.82	-29753	0.000000	0.000000	6.673011	-0.002145	NaN	0.000000	0.001636	0.001666	28.0835	0.027731	0.001970	14.0797	133.084	15.1798	0.000843	0.672032	-0.430705	-0.432073	-0.002145	14.0797	-0.430591	-363433	5.901357E-9	NaN
517	1.000000	0.683395	7.37011e+06	-51239.1	1005.82	-29753	0.000000	0.000000	6.683007	0.002506	NaN	0.000000	0.001675	0.001639	28.0836	0.054893	0.002040	26.9117	20.566	-164.295	0.023166	0.682050	-0.420710	-0.422054	0.002506	26.9117	-0.420779	-263917	-9.494328E-9	NaN
517	1.000000	0.693374	7.37011e+06	-51239.1	1005.82	-29753	0.000000	0.000000	6.692987	4.398544E-5	NaN	0.000000	0.001666	0.001646	28.0837	0.117225	0.002020	58.0278	-168.924	15.4559	-0.052280	0.692030	-0.410730	-0.412075	4.398544E-5	58.0278	-0.410731	-190017	-2.314817E-10	NaN
517	1.000000	0.703390	7.37011e+06	-51239.1	1005.82	-29753	0.000000	0.000000	6.703003	0.012772	NaN	0.000000	0.001647	0.001652	28.0835	0.041944	0.001969	21.3065	-173.334	-163.397	-0.075390	0.702065	-0.400714	-0.402040	0.012772	21.3065	-0.401164	-138864	-9.197710E-8	NaN
517	1.000000	0.713412	7.37011e+06	-51239.1	1005.82	-29753	0.000000	0.000000	6.713023	-0.023275	NaN	0.000000	0.001629	0.001683	28.0836	0.095868	0.001954	49.0742	-24.1393	15.6576	-0.101109	0.712055	-0.390693	-0.392050	-0.023275	49.0742	-0.390337	-97272.2	2.392812E-7	NaN
517	1.000000	0.723451	7.37011e+06	-51239.1	1005.82	-29753	0.000000	0.000000	6.723061	-0.042626	NaN	0.000000	0.001638	0.001665	28.082	0.143176	0.001893	75.6485	-77.9867	-162.595	-0.020222	0.722094	-0.380654	-0.382011	-0.042626	75.6485	-0.380231	-69695.8	6.116062E-7	NaN
517	1.000000	0.733402	7.37011e+06	-51239.1	1005.82	-29753	0.000000	0.000000	6.733014	-0.019430	NaN	0.000000	0.001638	0.001671	28.0819	0.070906	0.001964	36.1114	98.6549	13.2543	0.013434	0.732034	-0.370702	-0.372070	-0.019430	36.1114	-0.370299	-50168.6	3.872839E-7	NaN
517	1.000000	0.743441	7.37011e+06	-51239.1	1005.82	-29753	0.000000	0.000000	6.743052	-0.029416	NaN	0.000000	0.001629	0.001664	28.0818	0.070184	0.002024	34.6748	1.271816	-166.127	-0.090163	0.742054	-0.360663	-0.362051	-0.029416	34.6748	-0.360027	-35664.6	8.248077E-7	NaN
517	1.000000	0.753434	7.37011e+06	-51239.1	1005.82	-29753	0.000000	0.000000	6.753044	-0.059896	NaN	0.000000	0.001672	0.001665	28.0821	0.021757	0.002020	10.7732	111.955	13.5815	0.031202	0.752054	-0.350670	-0.352051	-0.059896	10.7732	-0.346501	-22707.9	2.637668E-6	NaN
517	1.000000	0.763424	7.37011e+06	-51239.1	1005.82	-29753	0.000000	0.000000	6.763038	0.052252	NaN	0.000000	0.001648	0.001658	28.0818	0.056729	0.002001	28.3469	21.7846	-165.249	0.043241	0.762120	-0.340681	-0.341984	0.052252	28.3469	-0.342063	-19571.2	-2.669848E-6	NaN
517	1.000000	0.773440	7.37011e+06	-51239.1	1005.82	-29753	0.000000	0.000000	6.773053	0.018711	NaN	0.000000	0.001646	0.001674	28.0818	0.045396	0.002050	22.1484	-32.8673	15.4957	0.025291	0.772100	-0.330665	-0.332005	0.018711	22.1484	-0.331299	-13628.9	-1.372876E-6	NaN
517	1.000000	0.783436	7.37011e+06	-51239.1	1005.82	-29753	0.000000	0.000000	6.783052	0.078888	NaN	0.000000	0.001670	0.001657	28.082	0.028261	0.001993	14.1776	129.029	-165.16	0.094292	0.782181	-0.320668	-0.321923	0.078888	14.1776	-0.324841	-10960	-7.197852E-6	NaN
517	1.000000	0.793434	7.37011e+06	-51239.1	1005.82	-29753	0.000000	0.000000	6.793045	-0.010073	NaN	0.000000	0.001651	0.001713	28.0818	0.058883	0.002011	29.2861	140.724	16.9018	-0.017629	0.792037	-0.310671	-0.312068	-0.010073	29.2861	-0.310413	-6716.88	1.499672E-6	NaN
517	1.000000	0.803470	7.37011e+06	-51239.1	1005.82	-29753	0.000000	0.000000	6.803082	-0.015285	NaN	0.000000	0.001634	0.001661	28.0819	0.032380	0.002075	15.6074	-111.503	-167.018	0.065171	0.802153	-0.300635	-0.301952	-0.015285	15.6074	-0.299900	-4689.74	3.259181E-6	NaN
517	1.000000	0.813438	7.37011e+06	-51239.1	1005.82	-29753	0.000000	0.000000	6.813050	-0.010350	NaN	0.000000	0.001738	0.001686	28.0818	0.045008	0.002064	21.8049	107.922	12.9966	-0.050246	0.812122	-0.290666	-0.291982	-0.010350	21.8049	-0.290310	-3372.49	3.069092E-6	NaN
517	1.000000	0.823445	7.37011e+06	-51239.1	1005.82	-29753	0.000000	0.000000	6.823058	0.006990	NaN	0.000000	0.001753	0.001638	28.0822	0.037009	0.002087	17.7336	178.643	-163.877	0.014383	0.822150	-0.280660	-0.281955	0.006990	17.7336	-0.280955	-2439.92	-2.864769E-6	NaN
517	1.000000	0.833480	7.37011e+06	-51239.1	1005.82	-29753	0.000000	0.000000	6.833089	-0.064238	NaN	0.000000	0.001622	0.001639	28.0818	0.157456	0.002003	78.6028	92.5924	18.3825	-0.000698	0.832069	-0.270625	-0.272036	-0.064238	78.6028	-0.270012	-1666.21	3.855365E-5	NaN
517	1.000000	0.843481	7.37011e+06	-51239.1	1005.82	-29753	0.000000	0.000000	6.843092	-0.028320	NaN	0.000000	0.001642	0.001670	28.0821	0.113960	0.001952	58.3829	-175.841	-163.941	-0.037131	0.842148	-0.260623	-0.261957	-0.028320	58.3829	-0.260260	-1182.76	2.394421E-5	NaN
517	1.000000	0.853492	7.37011e+06	-51239.1	1005.82	-29753	0.000000	0.000000	6.853105	0.034705	NaN	0.000000	0.001644	0.001669	28.0835	0.102086	0.001934	52.7777	-96.072	13.7659	-0.090996	0.852171	-0.250613	-0.251934	0.034705	52.7777	-0.251106	-855.193	-4.058155E-5	NaN
517	1.000000	0.863469	7.37011e+06	-51239.1	1005.82	-29753	0.000000	0.000000	6.863081	-0.005820	NaN	0.000000	0.001669	0.001680	28.0833	0.064557	0.002036	31.7109	164.413	-164.713	0.075074	0.862196	-0.240636	-0.241909	-0.005820	31.7109	-0.240498	-585.241	9.944388E-6	NaN
517	1.000000	0.873494	7.37011e+06	-51239.1	1005.82	-29753	0.000000	0.000000	6.873106	0.002708	NaN	0.000000	0.001656	0.001715	28.0832	0.195750	0.001973	99.2232	-111.019	13.4515	-0.023616	0.872145	-0.230611	-0.231960	0.002708	99.2232	-0.230631	-409.713	-6.609680E-6	NaN
517	1.000000	0.883472	7.37011e+06	-51239.1	1005.82	-29753	0.000000	0.000000	6.883085	0.024366	NaN	0.000000	0.001664	0.001686	28.0831	0.011204	0.002000	5.601287	-163.629	-163.657	0.062283	0.882155	-0.220633	-0.221950	0.024366	5.601287	-0.223896	-320.466	-7.603283E-5	NaN
517	1.000000	0.893470	7.37011e+06	-51239.1	1005.82	-29753	0.000000	0.000000	6.893082	-0.012142	NaN	0.000000	0.001646	0.001693	28.0834	0.026319	0.001968	13.371	-51.57	13.8793	-0.057408	0.892131	-0.210635	-0.211973	-0.012142	13.371	-0.209954	-191.455	6.342131E-5	NaN
517	1.000000	0.903486	7.37011e+06	-51239.1	1005.82	-29753	0.000000	0.000000	6.903100	0.041299	NaN	0.000000	0.001694	0.001662	28.0831	0.075867	0.002008	37.7775	-37.9668	-164.623	-2.409999E-5	0.902211	-0.200619	-0.201893	0.041299	37.7775	-0.201439	-139.096	-0.000297	NaN
517	1.000000	0.913508	7.37011e+06	-51239.1	1005.82	-29753	0.000000	0.000000	6.913122	0.051584	NaN	0.000000	0.001711	0.001692	28.0832	0.083231	0.002021	41.1842	63.2062	16.8644	0.020786	0.912165	-0.190597	-0.191940	0.051584	41.1842	-0.191536	-95.4243	-0.000541	NaN
517	1.000000	0.923489	7.37011e+06	-51239.1	1005.82	-29753	0.000000	0.000000	6.923100	-0.020510	NaN	0.000000	0.001695	0.001679	28.0835	0.074605	0.001946	38.337	-24.6677	-165.804	-0.050136	0.922197	-0.180616	-0.181908	-0.020510	38.337	-0.180215	-61.5343	0.000333	NaN
517	1.000000	0.933504	7.37011e+06	-51239.1	1005.82	-29753	0.000000	0.000000	6.933119	0.065982	NaN	0.000000	0.001700	0.001684	28.0832	0.121267	0.001953	62.1026	81.5196	10.5473	0.045982	0.932112	-0.170601	-0.171993	0.065982	62.1026	-0.171397	-43.4355	-0.001519	NaN
517	1.000000	0.943514	7.37011e+06	-51239.1	1005.82	-29753	0.000000	0.000000	6.943124	-0.029663	NaN	0.000000	0.001714	0.001689	28.0834	0.061643	0.002054	30.0057	-170.561	-165.247	0.075293	0.942232	-0.160591	-0.161873	-0.029663	30.0057	-0.159850	-27.2468	0.001089	NaN
517	1.000000	0.953517	7.37011e+06	-51239.1	1005.82	-29753	0.000000	0.000000	6.953130	0.005245	NaN	0.000000	0.001686	0.001688	28.0831	0.006839	0.002012	3.398511	-156.034	11.8171	-0.057930	0.952153	-0.150587	-0.151952	0.005245	3.398511	-0.151745	-19.4873	-0.000269	NaN
517	1.000000	0.963528	7.37011e+06	-51239.1	1005.82	-29753	0.000000	0.000000	6.963141	0.020399	NaN	0.000000	0.001701	0.001697	28.0834	0.127384	0.001957	65.0783	123.59	-167.361	-0.005061	0.962247	-0.140577	-0.141858	0.020399	65.0783	-0.140812	-12.2519	-0.001665	NaN
517	1.000000	0.973525	7.37011e+06	-51239.1	1005.82	-29753	0.000000	0.000000	6.973137	-0.004192	NaN	0.000000	0.001678	0.001705	28.0833	0.022880	0.002020	11.3274	-171.196	14.0506	-0.051400	0.972173	-0.130580	-0.131932	-0.004192	11.3274	-0.130302	-7.724637	0.000543	NaN
517	1.000000	0.983546	7.37011e+06	-51239.1	1005.82	-29753	0.000000	0.000000	6.983156	-0.044088	NaN	0.000000	0.001686	0.001692	28.0832	0.111351	0.002087	53.3497	-150.58	-162.152	-0.057013	0.982165	-0.120559	-0.121939	-0.044088	53.3497	-0.119939	-4.817780	0.009151	NaN
517	1.000000	0.993512	7.37011e+06	-51239.1	1005.82	-29753	0.000000	0.000000	6.993125	0.011504	NaN	0.000000	0.001695	0.001686	28.082	0.071910	0.001955	36.7826	57.8603	16.2362	0.020874	0.992225	-0.110592	-0.111879	0.011504	36.7826	-0.110827	-3.128048	-0.003678	NaN
517	1.000000	1.003546	7.37011e+06	-51239.1	1005.82	-29753	0.000000	0.000000	7.003155	-0.065020	NaN	0.000000	0.001688	0.001699	28.0824	0.078816	0.001953	40.3513	-141.942	-165.978	-0.046011	1.002253	-0.100559	-0.101852	-0.065020	40.3513	-0.099350	-1.767431	0.036788	NaN
517	1.000000	1.013557	7.37011e+06	-51239.1	1005.82	-29753	0.000000	0.000000	7.013171	0.055876	NaN	0.000000	0.001722	0.001706	28.082	0.090607	0.001956	46.3257	41.373	17.1301	0.027313	1.012164	-0.090548	-0.091941	0.055876	46.3257	-0.091453	-1.168831	-0.047805	NaN
517	1.000000	1.023532	7.37011e+06	-51239.1	1005.82	-29753	0.000000	0.000000	7.023143	-0.037145	NaN	0.000000	0.001706	0.001680	28.082	0.024483	0.001917	12.7732	-66.1358	-162.378	-0.037026	1.022212	-0.080573	-0.081892	-0.037145	12.7732	-0.078392	-0.563961	0.065864	NaN
517	1.000000	1.033540	7.37011e+06	-51239.1	1005.82	-29753	0.000000	0.000000	7.033154	0.029329	NaN	0.000000	0.001688	0.001677	28.082	0.090464	0.001983	45.6278	37.1064	15.4098	-0.016749	1.032197	-0.070564	-0.071907	0.029329	45.6278	-0.071046	-0.363765	-0.080625	NaN
517	1.000000	1.043563	7.37011e+06	-51239.1	1005.82	-29753	0.000000	0.000000	7.043176	0.020155	NaN	0.000000	0.001630	0.001637	28.0819	0.111013	0.001957	56.7245	-156.301	-164.308	0.027110	1.042217	-0.060542	-0.061888	0.020155	56.7245	-0.060808	-0.189942	-0.106109	NaN
517	1.000000	1.053554	7.37011e+06	-51239.1	1005.82	-29753	0.000000	0.000000	7.053166	0.002996	NaN	0.000000	0.001619	0.001648	28.0819	0.073991	0.002046	36.1655	30.1332	12.6538	0.009484	1.052231	-0.050551	-0.051874	0.002996	36.1655	-0.050613	-0.095227	-0.031466	NaN
517	1.000000	1.063579	7.37011e+06	-51239.1	1005.82	-29753	0.000000	0.000000	7.063187	-0.096752	NaN	0.000000	0.001669	0.001700	28.0819	0.133412	0.002075	64.2828	-87.6108	-165.628	-0.048052	1.062229	-0.040525	-0.041876	-0.096752	64.2828	-0.039397	-0.043355	2.231605	NaN
517	1.000000	1.073540	7.37011e+06	-51239.1	1005.82	-29753	0.000000	0.000000	7.073152	-0.013260	NaN	0.000000	0.001672	0.001662	28.0821	0.036279	0.002044	17.751	-145.15	15.3004	-0.096231	1.072199	-0.030564	-0.031906	-0.013260	17.751	-0.030004	-0.023019	0.576052	NaN
517	1.000000	1.083576	7.37011e+06	-51239.1	1005.82	-29753	0.000000	0.000000	7.083187	-0.018737	NaN	0.000000	0.001663	0.001642	28.0819	0.098002	0.002003	48.9339	-179.454	-166.839	0.039324	1.082232	-0.020529	-0.021872	-0.018737	48.9339	-0.020242	-0.012740	1.470695	NaN
517	1.000000	1.093559	7.37011e+06	-51239.1	1005.82	-29753	0.000000	0.000000	7.093171	0.001070	NaN	0.000000	0.001693	0.001678	28.082	0.036300	0.002063	17.5935	75.0042	13.5015	0.006371	1.092186	-0.010546	-0.011918	0.001070	17.5935	-0.010591	-0.006725	-0.159128	NaN
517	1.000000	1.103546	7.37011e+06	-51239.1	1005.82	-29753	0.000000	0.000000	7.103327	4.096562	NaN	0.000000	0.001670	0.001641	28.082	5.115700	0.001853	2760.45	10.704	-168.061	2.763383	1.102278	-0.000558	-0.001827	4.096562	2760.45	-0.001671	-0.001210	-3385.25	NaN
517	2.000000	1.108672	7.37011e+06	-51239.1	1005.82	-29753	0.000000	0.000000	7.108764	11.6755	NaN	0.000000	0.001650	0.001667	28.0822	10.2096	0.001554	6567.9	5.069717	9.110411	11.2761	1.108326	0.004567	0.004222	11.6755	6567.9	0.003234	0.002578	4529.24	118188
517	2.000000	1.111120	7.37011e+06	-51239.1	1005.82	-29753	0.000000	0.000000	7.111382	15.7963	NaN	0.000000	0.001589	0.001701	28.0821	13.6984	0.001579	8675.55	2.695359	-171.677	14.7853	1.110831	0.007015	0.006726	15.7963	8675.55	0.005650	0.004734	3336.75	115201
517	2.000000	1.113644	7.37011e+06	-51239.1	1005.82	-29753	0.000000	0.000000	7.114076	19.9341	NaN	0.000000	0.001667	0.001686	28.0832	16.3842	0.001709	9588.81	6.751735	5.532358	19.0735	1.113266	0.009539	0.009161	19.9341	9588.81	0.007980	0.007022	2838.97	104549
517	2.000000	1.116166	7.37011e+06	-51239.1	1005.82	-29753	0.000000	0.000000	7.116917	27.6801	NaN	0.000000	0.001595	0.001692	28.0835	19.3081	0.001806	10692.5	8.112561	-178.164	28.0192	1.115782	0.012061	0.011677	27.6801	10692.5	0.010120	0.009315	2971.57	101219
517	2.000000	1.118614	7.37011e+06	-51239.1	1005.82	-29753	0.000000	0.000000	7.119475	30.3798	NaN	0.000000	0.001650	0.001696	28.083	21.1179	0.001666	12674.9	3.656329	4.375244	29.3524	1.118150	0.014509	0.014046	30.3798	12674.9	0.012712	0.012354	2459.2	104189
517	2.000000	1.121079	7.37011e+06	-51239.1	1005.82	-29753	0.000000	0.000000	7.122063	33.3618	NaN	0.000000	0.001673	0.001706	28.0831	24.6799	0.001874	13166.9	6.541820	-178.323	33.0146	1.120753	0.016974	0.016648	33.3618	13166.9	0.015074	0.015384	2168.56	96987.7
517	2.000000	1.123571	7.37011e+06	-51239.1	1005.82	-29753	0.000000	0.000000	7.124763	38.4057	NaN	0.000000	0.001656	0.001707	28.083	25.2667	0.001737	14546.5	4.667110	3.183821	37.7338	1.123260	0.019467	0.019156	38.4057	14546.5	0.017486	0.018745	2048.8	97069.9
517	2.000000	1.126046	7.37011e+06	-51239.1	1005.82	-29753	0.000000	0.000000	7.127549	45.9726	NaN	0.000000	0.001674	0.001725	28.0831	27.094	0.001688	16050.2	2.074001	-175.531	45.2188	1.125739	0.021941	0.021635	45.9726	16050.2	0.019793	0.022218	2069.13	98377.8
517	2.000000	1.128536	7.37011e+06	-51239.1	1005.82	-29753	0.000000	0.000000	7.130265	51.4665	NaN	0.000000	0.001602	0.001691	28.0829	30.3963	0.001878	16187.1	5.594801	1.041329	50.41	1.128254	0.024431	0.024150	51.4665	16187.1	0.022047	0.025861	1990.13	91964.6
517	2.000000	1.131064	7.37011e+06	-51239.1	1005.82	-29753	0.000000	0.000000	7.133018	56.9603	NaN	0.000000	0.001652	0.001689	28.0829	32.2067	0.001680	19168.1	3.844263	-179.373	56.199	1.130740	0.026959	0.026635	56.9603	19168.1	0.024730	0.030527	1865.9	100233
517	2.000000	1.133604	7.37011e+06	-51239.1	1005.82	-29753	0.000000	0.000000	7.135903	65.3236	NaN	0.000000	0.001646	0.001645	28.083	34.9369	0.001816	19238.2	7.002489	-1.992801	64.9691	1.133179	0.029499	0.029074	65.3236	19238.2	0.026953	0.034664	1884.47	94405.4
517	2.000000	1.136039	7.37011e+06	-51239.1	1005.82	-29753	0.000000	0.000000	7.138681	73.6816	NaN	0.000000	0.001616	0.001661	28.0829	36.398	0.001752	20778.9	3.030463	-178.834	73.0081	1.135783	0.031934	0.031678	73.6816	20778.9	0.029274	0.039253	1877.09	95820.5
517	2.000000	1.138556	7.37011e+06	-51239.1	1005.82	-29753	0.000000	0.000000	7.141417	79.0027	NaN	0.000000	0.001626	0.001683	28.0829	39.1923	0.001799	21787.6	4.937951	-0.378087	79.5857	1.138172	0.034451	0.034067	79.0027	21787.6	0.031732	0.044410	1778.94	94458.6
517	2.000000	1.141018	7.37011e+06	-51239.1	1005.82	-29753	0.000000	0.000000	7.144366	90.8277	NaN	0.000000	0.001631	0.001668	28.0829	42.3233	0.001825	23196	4.462966	179.079	89.0834	1.140654	0.036914	0.036549	90.8277	23196	0.033977	0.049390	1838.98	95359.7
517	2.000000	1.143565	7.37011e+06	-51239.1	1005.82	-29753	0.000000	0.000000	7.147351	101.501	NaN	0.000000	0.001640	0.001665	28.0832	43.6176	0.001744	25015.4	8.987050	-4.964445	100.15	1.143085	0.039460	0.038981	101.501	25015.4	0.036417	0.055097	1842.21	97367.6
517	2.000000	1.146016	7.37011e+06	-51239.1	1005.82	-29753	0.000000	0.000000	7.150108	108.929	NaN	0.000000	0.001640	0.001661	28.0817	45.5009	0.001742	26115.5	3.343019	179.295	108.237	1.145659	0.041911	0.041555	108.929	26115.5	0.038783	0.060921	1788.03	96669
517	2.000000	1.148528	7.37011e+06	-51239.1	1005.82	-29753	0.000000	0.000000	7.153148	121.772	NaN	0.000000	0.001637	0.001684	28.0818	48.4978	0.001747	27761.6	3.715018	-1.318060	121.022	1.148115	0.044423	0.044010	121.772	27761.6	0.041133	0.066990	1817.75	97996.7
517	2.000000	1.150990	7.37011e+06	-51239.1	1005.82	-29753	0.000000	0.000000	7.155985	130.908	NaN	0.000000	0.001624	0.001679	28.0816	51.2673	0.001926	26616.3	3.077687	179.358	127.032	1.150680	0.046885	0.046576	130.908	26616.3	0.043196	0.072549	1804.4	90282.8
517	2.000000	1.153506	7.37011e+06	-51239.1	1005.82	-29753	0.000000	0.000000	7.158887	140.3	NaN	0.000000	0.001601	0.001664	28.082	52.7699	0.001779	29667.6	2.688896	-1.253129	137.083	1.153210	0.049401	0.049105	140.3	29667.6	0.045854	0.080031	1753.08	95813.7
517	2.000000	1.156032	7.37011e+06	-51239.1	1005.82	-29753	0.000000	0.000000	7.161857	151.066	NaN	0.000000	0.001606	0.001687	28.0817	54.6931	0.001686	32435.7	5.989839	175.246	151.024	1.155714	0.051928	0.051609	151.066	32435.7	0.048435	0.087636	1723.78	100105
517	2.000000	1.158478	7.37011e+06	-51239.1	1005.82	-29753	0.000000	0.000000	7.164891	165.379	NaN	0.000000	0.001549	0.001699	28.0817	57.0003	0.001767	32264.6	3.375892	-3.142105	162.655	1.158221	0.054373	0.054117	165.379	32264.6	0.050529	0.094055	1758.31	96118.7
517	2.000000	1.160948	7.37011e+06	-51239.1	1005.82	-29753	0.000000	0.000000	7.167751	174.855	NaN	0.000000	0.001582	0.001683	28.0818	60.5567	0.001839	32927.8	3.770236	176.488	171.292	1.160746	0.056844	0.056641	174.855	32927.8	0.052861	0.101461	1723.37	94446.7
517	2.000000	1.163509	7.37011e+06	-51239.1	1005.82	-29753	0.000000	0.000000	7.171045	192.691	NaN	0.000000	0.001565	0.001690	28.0821	62.9538	0.001865	33749.6	8.461888	-7.407725	189.955	1.163058	0.059404	0.058953	192.691	33749.6	0.055122	0.108901	1769.41	93438.5
517	2.000000	1.166022	7.37011e+06	-51239.1	1005.82	-29753	0.000000	0.000000	7.173910	201.238	NaN	0.000000	0.001543	0.001664	28.0818	64.7932	0.001871	34638.2	6.688683	173.399	200.153	1.165590	0.061917	0.061486	201.238	34638.2	0.057560	0.117204	1716.99	92439.5
517	2.000000	1.168512	7.37011e+06	-51239.1	1005.82	-29753	0.000000	0.000000	7.177301	223.157	NaN	0.000000	0.001607	0.001632	28.082	66.8366	0.001838	36359.9	1.574677	-1.220721	221.317	1.168094	0.064407	0.063989	223.157	36359.9	0.059804	0.125107	1783.73	93919.4
517	2.000000	1.170995	7.37011e+06	-51239.1	1005.82	-29753	0.000000	0.000000	7.180130	231.551	NaN	0.000000	0.001623	0.001678	28.082	69.6199	0.001847	37696.7	5.320805	174.382	230.924	1.170743	0.066890	0.066638	231.551	37696.7	0.062284	0.134124	1726.39	94042.2
517	2.000000	1.173487	7.37011e+06	-51239.1	1005.82	-29753	0.000000	0.000000	7.183306	248.189	NaN	0.000000	0.001630	0.001670	28.082	71.0717	0.001868	38041.2	1.042243	-1.226153	245.511	1.173083	0.069383	0.068978	248.189	38041.2	0.064490	0.142398	1742.93	92103.4
517	2.000000	1.176022	7.37011e+06	-51239.1	1005.82	-29753	0.000000	0.000000	7.186238	257.841	NaN	0.000000	0.001584	0.001670	28.0818	72.6625	0.001815	40031.8	-0.728117	-179.654	255.923	1.175602	0.071918	0.071497	257.841	40031.8	0.067087	0.152440	1691.42	93676.1
517	2.000000	1.178549	7.37011e+06	-51239.1	1005.82	-29753	0.000000	0.000000	7.189290	270.633	NaN	0.000000	0.001597	0.001660	28.082	76.3038	0.001744	43751.3	6.466541	-8.403038	270.846	1.178211	0.074444	0.074106	270.633	43751.3	0.069805	0.163294	1657.34	98919
517	2.000000	1.180907	7.37011e+06	-51239.1	1005.82	-29753	0.000000	0.000000	7.192190	283.797	NaN	0.000000	0.001637	0.001653	28.0831	79.6301	0.001847	43120.4	4.918245	173.098	280.452	1.180749	0.076802	0.076644	283.797	43120.4	0.071866	0.171761	1652.28	95059.1
517	2.000000	1.183487	7.37011e+06	-51239.1	1005.82	-29753	0.000000	0.000000	7.195422	299.638	NaN	0.000000	0.001566	0.001667	28.0831	81.4875	0.001795	45385.1	7.582612	-9.454138	297.42	1.183178	0.079383	0.079074	299.638	45385.1	0.074431	0.182579	1641.14	97042.2
517	2.000000	1.186023	7.37011e+06	-51239.1	1005.82	-29753	0.000000	0.000000	7.198679	317.167	NaN	0.000000	0.001587	0.001663	28.083	82.3418	0.001724	47762.4	1.122215	176.879	320.312	1.185703	0.081919	0.081599	317.167	47762.4	0.076938	0.193451	1639.52	99214.2
517	2.000000	1.188368	7.37011e+06	-51239.1	1005.82	-29753	0.000000	0.000000	7.201848	337.229	NaN	0.000000	0.001595	0.001672	28.0834	86.4264	0.001794	48162.9	3.112350	-5.773860	327.225	1.187995	0.084263	0.083891	337.229	48162.9	0.079012	0.202667	1663.95	97744.8
517	2.000000	1.191009	7.37011e+06	-51239.1	1005.82	-29753	0.000000	0.000000	7.204981	349.189	NaN	0.000000	0.001627	0.001703	28.0832	89.5929	0.001799	49794.3	4.325641	172.705	349.837	1.190761	0.086904	0.086656	349.189	49794.3	0.081644	0.214655	1626.75	98193.5
517	2.000000	1.193359	7.37011e+06	-51239.1	1005.82	-29753	0.000000	0.000000	7.208458	376.59	NaN	0.000000	0.001594	0.001698	28.0832	90.1404	0.001812	49734.4	3.889003	-6.405365	367.194	1.193082	0.089255	0.088978	376.59	49734.4	0.083576	0.223654	1683.81	96081.9
517	2.000000	1.195828	7.37011e+06	-51239.1	1005.82	-29753	0.000000	0.000000	7.211408	388.29	NaN	0.000000	0.001586	0.001684	28.0831	91.1097	0.001711	53251.5	-0.313265	177.256	379.904	1.195584	0.091723	0.091479	388.29	53251.5	0.086254	0.236421	1642.37	100060
517	2.000000	1.198504	7.37011e+06	-51239.1	1005.82	-29753	0.000000	0.000000	7.215073	412.327	NaN	0.000000	0.001613	0.001687	28.0835	94.3071	0.001720	54815.3	0.900216	-3.973532	411.884	1.198233	0.094400	0.094128	412.327	54815.3	0.088758	0.248655	1658.23	100433
517	2.000000	1.200954	7.37011e+06	-51239.1	1005.82	-29753	0.000000	0.000000	7.218228	429.484	NaN	0.000000	0.001644	0.001679	28.0834	99.5364	0.001863	53436.3	4.565532	172.568	425.377	1.200620	0.096849	0.096515	429.484	53436.3	0.090821	0.258951	1658.56	95940.2
517	2.000000	1.203406	7.37011e+06	-51239.1	1005.82	-29753	0.000000	0.000000	7.221969	460.814	NaN	0.000000	0.001647	0.001675	28.0832	100.235	0.001737	57695.4	8.338715	-11.222	453.826	1.203083	0.099302	0.098979	460.814	57695.4	0.093311	0.271639	1696.42	101139
517	2.000000	1.205373	7.37011e+06	-51239.1	1005.82	-29753	0.000000	0.000000	7.224442	473.136	NaN	0.000000	0.001629	0.001705	28.0833	102.194	0.001732	59017.1	5.594834	-9.018602	468.079	1.205115	0.101268	0.101011	473.136	59017.1	0.095255	0.281740	1679.33	101584