File: remote_trans/data/nanoindenter/0828-1/data/Data_2025-08-06,11h17m57s/2025-07-22_16-23-58_1_1078.txt
2025-07-22, 16:23:58, 1
Index	Phase	Displacement	Time	Pos X	Pos Y	Pos Z	Rot A	Rot B	Piezo Z	Force A	Force B	Gripper	Voltage A	Voltage B	Temperature	Amplitude force	Amplitude pos	Stiffness	Phase shift	Phase excitation	Force A raw	Displacement raw	HMax	HMax raw	Real Force	Real Stiffness	Contact Depth	Area	Hardness	Reduced Mod.
[#]	[#]	[um]	[s]	[um]	[um]	[um]	[m°]	[m°]	[um]	[uN]	[uN]	[V]	[V]	[V]	[°C]	[uN]	[um]	[N/m]	[°]	[°]	[uN]	[um]	[um]	[um]	[uN]	[N/m]	[um]	[um^2]	[MPa]	[MPa]
1078	1.000000	0.002245	7.37559e+06	-54039.1	1055.82	-29744.6	0.000000	0.000000	6.002795	0.020493	NaN	0.000000	0.001622	0.001617	28.0829	0.153706	0.001139	134.913	-109.558	-169.042	-0.029641	0.000957	-1.008377	-1.009665	0.020493	134.913	-1.008491	-2.951711E+13	-6.942711E-16	NaN
1078	1.000000	0.010199	7.37559e+06	-54039.1	1055.82	-29744.6	0.000000	0.000000	6.010752	0.085821	NaN	0.000000	0.001578	0.001610	28.0826	0.073442	0.000961	76.4532	131.021	-163.811	0.000949	0.008889	-1.000423	-1.001733	0.085821	76.4532	-1.001265	-2.359386E+13	-3.637443E-15	NaN
1078	1.000000	0.018192	7.37559e+06	-54039.1	1055.82	-29744.6	0.000000	0.000000	6.018742	0.010428	NaN	0.000000	0.001657	0.001600	28.0825	0.106917	0.001729	61.8257	-93.4536	-165.997	0.101458	0.016896	-0.992430	-0.993726	0.010428	61.8257	-0.992556	-1.801106E+13	-5.789813E-16	NaN
1078	1.000000	0.026215	7.37559e+06	-54039.1	1055.82	-29744.6	0.000000	0.000000	6.026765	0.026961	NaN	0.000000	0.001627	0.001659	28.0826	0.119714	0.001815	65.9479	-93.3321	-161.137	0.105562	0.024827	-0.984408	-0.985796	0.026961	65.9479	-0.984714	-1.412268E+13	-1.909035E-15	NaN
1078	1.000000	0.034201	7.37559e+06	-54039.1	1055.82	-29744.6	0.000000	0.000000	6.034752	0.067117	NaN	0.000000	0.001659	0.001594	28.0824	0.037387	0.001783	20.9699	129.295	-167.096	-0.007521	0.032874	-0.976422	-0.977749	0.067117	20.9699	-0.978822	-1.176357E+13	-5.705460E-15	NaN
1078	1.000000	0.042205	7.37559e+06	-54039.1	1055.82	-29744.6	0.000000	0.000000	6.042756	0.035907	NaN	0.000000	0.001651	0.001617	28.0827	0.099968	0.002078	48.1095	56.9351	-166.483	-0.001167	0.040908	-0.968417	-0.969715	0.035907	48.1095	-0.968977	-8.667035E+12	-4.142912E-15	NaN
1078	1.000000	0.050182	7.37559e+06	-54039.1	1055.82	-29744.6	0.000000	0.000000	6.050735	0.079422	NaN	0.000000	0.001629	0.001622	28.0823	0.058679	0.002064	28.4317	68.1961	-165.152	-0.038266	0.048869	-0.960440	-0.961753	0.079422	28.4317	-0.962535	-7.096490E+12	-1.119174E-14	NaN
1078	1.000000	0.058214	7.37559e+06	-54039.1	1055.82	-29744.6	0.000000	0.000000	6.058763	0.010963	NaN	0.000000	0.001619	0.001586	28.0827	0.018092	0.002099	8.617505	-120.056	-165.267	0.006788	0.056914	-0.952408	-0.953709	0.010963	8.617505	-0.953362	-5.337903E+12	-2.053781E-15	NaN
1078	1.000000	0.066192	7.37559e+06	-54039.1	1055.82	-29744.6	0.000000	0.000000	6.066743	0.057811	NaN	0.000000	0.001626	0.001623	28.0813	0.057491	0.001926	29.8459	-123.437	-166.101	0.040240	0.064920	-0.944430	-0.945702	0.057811	29.8459	-0.945883	-4.231574E+12	-1.366176E-14	NaN
1078	1.000000	0.074216	7.37559e+06	-54039.1	1055.82	-29744.6	0.000000	0.000000	6.074765	0.018329	NaN	0.000000	0.001615	0.001604	28.0811	0.101774	0.002052	49.5911	-153.285	-165.54	-0.082426	0.072908	-0.936407	-0.937715	0.018329	49.5911	-0.936684	-3.179755E+12	-5.764169E-15	NaN
1078	1.000000	0.082226	7.37559e+06	-54039.1	1055.82	-29744.6	0.000000	0.000000	6.082774	-0.011533	NaN	0.000000	0.001655	0.001558	28.0814	0.007438	0.001925	3.864494	146.624	-169.304	-0.025251	0.080866	-0.928397	-0.929756	-0.011533	3.864494	-0.926158	-2.292683E+12	5.030288E-15	NaN
1078	1.000000	0.090208	7.37559e+06	-54039.1	1055.82	-29744.6	0.000000	0.000000	6.090761	0.102759	NaN	0.000000	0.001644	0.001569	28.0812	0.039226	0.001913	20.5094	-154.171	-166.34	-0.031402	0.088921	-0.920414	-0.921701	0.102759	20.5094	-0.924172	-2.155424E+12	-4.767448E-14	NaN
1078	1.000000	0.098245	7.3756e+06	-54039.1	1055.82	-29744.6	0.000000	0.000000	6.098796	0.070761	NaN	0.000000	0.001617	0.001616	28.0817	0.015974	0.002126	7.514596	-44.0864	-166.961	0.024325	0.096890	-0.912378	-0.913732	0.070761	7.514596	-0.919440	-1.860563E+12	-3.803186E-14	NaN
1078	1.000000	0.106214	7.3756e+06	-54039.1	1055.82	-29744.6	0.000000	0.000000	6.106763	0.002411	NaN	0.000000	0.001653	0.001620	28.0821	0.046576	0.001973	23.6059	-6.309667	-162.943	-0.018779	0.104879	-0.904409	-0.905743	0.002411	23.6059	-0.904485	-1.168608E+12	-2.062740E-15	NaN
1078	1.000000	0.114205	7.3756e+06	-54039.1	1055.82	-29744.6	0.000000	0.000000	6.114754	0.009673	NaN	0.000000	0.001654	0.001591	28.0816	0.045489	0.001937	23.4871	-108.958	-163.571	0.000514	0.112923	-0.896417	-0.897699	0.009673	23.4871	-0.896726	-9.179711E+11	-1.053769E-14	NaN
1078	1.000000	0.122239	7.3756e+06	-54039.1	1055.82	-29744.6	0.000000	0.000000	6.122789	0.026097	NaN	0.000000	0.001678	0.001591	28.0817	0.046867	0.001958	23.9308	-127.627	-165.711	0.015738	0.120878	-0.888383	-0.889744	0.026097	23.9308	-0.889201	-7.263026E+11	-3.593198E-14	NaN
1078	1.000000	0.130223	7.3756e+06	-54039.1	1055.82	-29744.6	0.000000	0.000000	6.130772	-0.007112	NaN	0.000000	0.001672	0.001580	28.0813	0.107660	0.002061	52.2248	-76.9552	-167.138	-0.008034	0.128897	-0.880399	-0.881726	-0.007112	52.2248	-0.880297	-5.504556E+11	1.291985E-14	NaN
1078	1.000000	0.138261	7.3756e+06	-54039.1	1055.82	-29744.6	0.000000	0.000000	6.138810	0.008248	NaN	0.000000	0.001670	0.001563	28.0816	0.052867	0.002041	25.9019	57.3695	-166.272	0.032027	0.136933	-0.872361	-0.873689	0.008248	25.9019	-0.872600	-4.331327E+11	-1.904254E-14	NaN
1078	1.000000	0.146229	7.3756e+06	-54039.1	1055.82	-29744.6	0.000000	0.000000	6.146779	0.035178	NaN	0.000000	0.001636	0.001592	28.0814	0.069707	0.002012	34.645	59.0156	-167.45	0.023795	0.144935	-0.864394	-0.865687	0.035178	34.645	-0.865155	-3.434721E+11	-1.024177E-13	NaN
1078	1.000000	0.154210	7.3756e+06	-54039.1	1055.82	-29744.6	0.000000	0.000000	6.154755	-0.080284	NaN	0.000000	0.001650	0.001577	28.0811	0.034072	0.002013	16.9294	122.755	-165.509	-0.090353	0.152937	-0.856413	-0.857686	-0.080284	16.9294	-0.852856	-2.341028E+11	3.429445E-13	NaN
1078	1.000000	0.162225	7.3756e+06	-54039.1	1055.82	-29744.6	0.000000	0.000000	6.162775	0.046893	NaN	0.000000	0.001658	0.001604	28.0814	0.019461	0.002010	9.682881	22.5477	-165.822	0.170473	0.160936	-0.848398	-0.849686	0.046893	9.682881	-0.852030	-2.281526E+11	-2.055352E-13	NaN
1078	1.000000	0.170222	7.3756e+06	-54039.1	1055.82	-29744.6	0.000000	0.000000	6.170772	0.014506	NaN	0.000000	0.001628	0.001591	28.0812	0.017708	0.001896	9.341073	173.548	-162.694	0.016247	0.168912	-0.840400	-0.841710	0.014506	9.341073	-0.841565	-1.646224E+11	-8.811763E-14	NaN
1078	1.000000	0.178261	7.3756e+06	-54039.1	1055.82	-29744.6	0.000000	0.000000	6.178809	-0.028500	NaN	0.000000	0.001684	0.001615	28.0813	0.021609	0.001924	11.2313	-36.5574	-165.932	0.049287	0.176965	-0.832361	-0.833657	-0.028500	11.2313	-0.830458	-1.164117E+11	2.448213E-13	NaN
1078	1.000000	0.186266	7.3756e+06	-54039.1	1055.82	-29744.6	0.000000	0.000000	6.186816	0.023118	NaN	0.000000	0.001659	0.001576	28.081	0.165329	0.002039	81.093	-42.1246	-167.676	0.101101	0.184973	-0.824357	-0.825649	0.023118	81.093	-0.824570	-9.686857E+10	-2.386573E-13	NaN
1078	1.000000	0.194276	7.3756e+06	-54039.1	1055.82	-29744.6	0.000000	0.000000	6.194827	0.057405	NaN	0.000000	0.001675	0.001598	28.0813	0.008221	0.001980	4.152039	123.985	-162.844	0.057080	0.192963	-0.816347	-0.817660	0.057405	4.152039	-0.826716	-1.035788E+11	-5.542165E-13	NaN
1078	1.000000	0.202276	7.3756e+06	-54039.1	1055.82	-29744.6	0.000000	0.000000	6.202824	-0.022427	NaN	0.000000	0.001657	0.001559	28.0823	0.165944	0.002076	79.9477	110.794	-163.683	0.063785	0.200920	-0.808346	-0.809703	-0.022427	79.9477	-0.808136	-5.798031E+10	3.868044E-13	NaN
1078	1.000000	0.210273	7.3756e+06	-54039.1	1055.82	-29744.6	0.000000	0.000000	6.210825	0.069429	NaN	0.000000	0.001657	0.001607	28.0823	0.015941	0.002024	7.876328	177.728	-164.953	-0.019761	0.208947	-0.800349	-0.801675	0.069429	7.876328	-0.806961	-5.588950E+10	-1.242258E-12	NaN
1078	1.000000	0.218262	7.3756e+06	-54039.1	1055.82	-29744.6	0.000000	0.000000	6.218814	0.071785	NaN	0.000000	0.001670	0.001626	28.0824	0.073323	0.002042	35.8995	-176.062	-166.9	0.036585	0.216948	-0.792360	-0.793674	0.071785	35.8995	-0.793860	-3.711051E+10	-1.934356E-12	NaN
1078	1.000000	0.226288	7.3756e+06	-54039.1	1055.82	-29744.6	0.000000	0.000000	6.226840	0.080345	NaN	0.000000	0.001671	0.001583	28.0823	0.030041	0.002038	14.7372	-110.901	-168.14	0.121229	0.224942	-0.784334	-0.785680	0.080345	14.7372	-0.788423	-3.130884E+10	-2.566203E-12	NaN
1078	1.000000	0.234261	7.3756e+06	-54039.1	1055.82	-29744.6	0.000000	0.000000	6.234812	0.061235	NaN	0.000000	0.001677	0.001602	28.0828	0.097688	0.002044	47.7816	126.197	-166.526	-0.040320	0.232945	-0.776361	-0.777678	0.061235	47.7816	-0.777323	-2.212315E+10	-2.767909E-12	NaN
1078	1.000000	0.242234	7.3756e+06	-54039.1	1055.82	-29744.6	0.000000	0.000000	6.242784	0.029667	NaN	0.000000	0.001626	0.001635	28.0821	0.126556	0.001963	64.4686	44.3575	-163.85	0.096482	0.240962	-0.768389	-0.769661	0.029667	64.4686	-0.768734	-1.690783E+10	-1.754634E-12	NaN
1078	1.000000	0.250259	7.3756e+06	-54039.1	1055.82	-29744.6	0.000000	0.000000	6.250809	0.034079	NaN	0.000000	0.001611	0.001647	28.0823	0.042074	0.002011	20.9202	-56.6328	-165.934	0.005674	0.249011	-0.760364	-0.761611	0.034079	20.9202	-0.761585	-1.351668E+10	-2.521261E-12	NaN
1078	1.000000	0.258279	7.3756e+06	-54039.1	1055.82	-29744.6	0.000000	0.000000	6.258828	0.017581	NaN	0.000000	0.001598	0.001661	28.0825	0.060996	0.001844	33.0833	25.7831	-166.42	0.144370	0.256985	-0.752344	-0.753637	0.017581	33.0833	-0.752742	-1.024573E+10	-1.715898E-12	NaN
1078	1.000000	0.266291	7.3756e+06	-54039.1	1055.82	-29744.6	0.000000	0.000000	6.266840	0.005003	NaN	0.000000	0.001590	0.001668	28.0827	0.133117	0.001987	66.9983	-3.645087	-164.331	0.007420	0.264952	-0.744332	-0.745670	0.005003	66.9983	-0.744388	-7.885153E+9	-6.344537E-13	NaN
1078	1.000000	0.274289	7.3756e+06	-54039.1	1055.82	-29744.6	0.000000	0.000000	6.274840	0.051455	NaN	0.000000	0.001598	0.001643	28.0826	0.047609	0.002138	22.2675	84.948	-164.439	0.015041	0.272977	-0.736333	-0.737645	0.051455	22.2675	-0.738066	-6.467224E+9	-7.956340E-12	NaN
1078	1.000000	0.282299	7.3756e+06	-54039.1	1055.82	-29744.6	0.000000	0.000000	6.282847	-0.022427	NaN	0.000000	0.001568	0.001677	28.0822	0.101287	0.002045	49.5405	-157.493	-166.647	-0.009409	0.281003	-0.728324	-0.729619	-0.022427	49.5405	-0.727984	-4.713387E+9	4.758151E-12	NaN
1078	1.000000	0.290279	7.3756e+06	-54039.1	1055.82	-29744.6	0.000000	0.000000	6.290830	0.054789	NaN	0.000000	0.001628	0.001603	28.0823	0.121951	0.001968	61.9527	95.5932	-165.516	0.016759	0.288989	-0.720343	-0.721633	0.054789	61.9527	-0.721007	-3.786180E+9	-1.447081E-11	NaN
1078	1.000000	0.298305	7.3756e+06	-54039.1	1055.82	-29744.6	0.000000	0.000000	6.298856	0.041091	NaN	0.000000	0.001614	0.001646	28.0822	0.063544	0.001994	31.8732	23.3831	-165.76	-0.005318	0.296979	-0.712317	-0.713643	0.041091	31.8732	-0.713284	-2.970724E+9	-1.383203E-11	NaN
1078	1.000000	0.306301	7.3756e+06	-54039.1	1055.82	-29744.6	0.000000	0.000000	6.306849	-0.018993	NaN	0.000000	0.001579	0.001639	28.0823	0.064800	0.002025	31.9928	42.9569	-165.167	-0.003373	0.305000	-0.704321	-0.705623	-0.018993	31.9928	-0.703876	-2.210318E+9	8.592964E-12	NaN
1078	1.000000	0.314313	7.3756e+06	-54039.1	1055.82	-29744.6	0.000000	0.000000	6.314863	0.046992	NaN	0.000000	0.001599	0.001666	28.0823	0.082106	0.002092	39.2531	171.223	-163.941	0.080945	0.312957	-0.696310	-0.697665	0.046992	39.2531	-0.697208	-1.792225E+9	-2.621986E-11	NaN
1078	1.000000	0.322313	7.3756e+06	-54039.1	1055.82	-29744.6	0.000000	0.000000	6.322862	0.008216	NaN	0.000000	0.001591	0.001657	28.0821	0.078692	0.001813	43.3941	45.6211	-164.015	0.015388	0.320952	-0.688309	-0.689670	0.008216	43.3941	-0.688451	-1.360662E+9	-6.038111E-12	NaN
1078	1.000000	0.330313	7.3756e+06	-54039.1	1055.82	-29744.6	0.000000	0.000000	6.330863	0.033177	NaN	0.000000	0.001607	0.001663	28.0825	0.037985	0.001934	19.637	-101.926	-163.071	0.015793	0.329015	-0.680310	-0.681608	0.033177	19.637	-0.681577	-1.095891E+9	-3.027436E-11	NaN
1078	1.000000	0.338319	7.3756e+06	-54039.1	1055.82	-29744.6	0.000000	0.000000	6.338868	-0.010175	NaN	0.000000	0.001605	0.001666	28.0809	0.043718	0.001950	22.4215	75.598	-166.387	0.018983	0.336955	-0.672303	-0.673667	-0.010175	22.4215	-0.671963	-8.095699E+8	1.256841E-11	NaN
1078	1.000000	0.346312	7.3756e+06	-54039.1	1055.82	-29744.6	0.000000	0.000000	6.346860	-0.023895	NaN	0.000000	0.001578	0.001672	28.0811	0.076196	0.002162	35.2473	78.4912	-165.48	-0.018118	0.345006	-0.664310	-0.665616	-0.023895	35.2473	-0.663802	-6.259437E+8	3.817455E-11	NaN
1078	1.000000	0.354345	7.3756e+06	-54039.1	1055.82	-29744.6	0.000000	0.000000	6.354895	0.013757	NaN	0.000000	0.001622	0.001719	28.0812	0.144448	0.001980	72.9608	-118.468	-163.952	0.023809	0.353048	-0.656277	-0.657575	0.013757	72.9608	-0.656419	-4.959112E+8	-2.774125E-11	NaN
1078	1.000000	0.362342	7.3756e+06	-54039.1	1055.82	-29744.6	0.000000	0.000000	6.362888	-0.065178	NaN	0.000000	0.001590	0.001720	28.0809	0.063605	0.002006	31.7027	-128.526	-168.476	-0.094364	0.361045	-0.648280	-0.649577	-0.065178	31.7027	-0.646738	-3.653567E+8	1.783965E-10	NaN
1078	1.000000	0.370327	7.3756e+06	-54039.1	1055.82	-29744.6	0.000000	0.000000	6.370876	0.006938	NaN	0.000000	0.001599	0.001673	28.0813	0.126596	0.002023	62.5904	22.2946	-163.844	-0.030888	0.369012	-0.640295	-0.641611	0.006938	62.5904	-0.640379	-2.988715E+8	-2.321476E-11	NaN
1078	1.000000	0.378359	7.3756e+06	-54039.1	1055.82	-29744.6	0.000000	0.000000	6.378909	0.034517	NaN	0.000000	0.001607	0.001685	28.0808	0.054190	0.002103	25.7722	-147.613	-167.041	0.021065	0.377038	-0.632264	-0.633584	0.034517	25.7722	-0.633268	-2.387256E+8	-1.445890E-10	NaN
1078	1.000000	0.386331	7.3756e+06	-54039.1	1055.82	-29744.6	0.000000	0.000000	6.386882	0.054255	NaN	0.000000	0.001573	0.001696	28.0811	0.010535	0.001967	5.355238	128.98	-166.871	0.051050	0.385022	-0.624291	-0.625600	0.054255	5.355238	-0.631890	-2.285444E+8	-2.373917E-10	NaN
1078	1.000000	0.394318	7.3756e+06	-54039.1	1055.82	-29744.6	0.000000	0.000000	6.394866	-0.031601	NaN	0.000000	0.001579	0.001668	28.0812	0.043932	0.001995	22.0188	-107.881	-166.016	-0.037640	0.393030	-0.616304	-0.617592	-0.031601	22.0188	-0.615228	-1.349039E+8	2.342467E-10	NaN
1078	1.000000	0.402324	7.3756e+06	-54039.1	1055.82	-29744.6	0.000000	0.000000	6.402877	0.101822	NaN	0.000000	0.001623	0.001664	28.081	0.060101	0.002069	29.0433	68.7805	-166.995	0.047281	0.401014	-0.608298	-0.609608	0.101822	29.0433	-0.610928	-1.177267E+8	-8.648997E-10	NaN
1078	1.000000	0.410368	7.3756e+06	-54039.1	1055.82	-29744.6	0.000000	0.000000	6.410916	-0.026191	NaN	0.000000	0.001612	0.001652	28.0814	0.089679	0.002023	44.3335	150.537	-165.83	0.074525	0.409051	-0.600254	-0.601571	-0.026191	44.3335	-0.599811	-8.276708E+7	3.164431E-10	NaN
1078	1.000000	0.418365	7.3756e+06	-54039.1	1055.82	-29744.6	0.000000	0.000000	6.418913	-0.022374	NaN	0.000000	0.001564	0.001653	28.0811	0.066829	0.001934	34.5598	1.133709	-162.756	-0.029728	0.417037	-0.592257	-0.593585	-0.022374	34.5598	-0.591772	-6.413432E+7	3.488686E-10	NaN
1078	1.000000	0.426340	7.3756e+06	-54039.1	1055.82	-29744.6	0.000000	0.000000	6.426891	0.046543	NaN	0.000000	0.001603	0.001666	28.0813	0.051656	0.001922	26.8733	119.069	-166.249	0.023831	0.425055	-0.584282	-0.585567	0.046543	26.8733	-0.585581	-5.269005E+7	-8.833420E-10	NaN
1078	1.000000	0.434344	7.3756e+06	-54039.1	1055.82	-29744.6	0.000000	0.000000	6.434896	0.076697	NaN	0.000000	0.001588	0.001681	28.0813	0.043479	0.002068	21.0217	157.227	-165.493	-0.018553	0.432993	-0.576278	-0.577629	0.076697	21.0217	-0.579015	-4.276893E+7	-1.793292E-9	NaN
1078	1.000000	0.442336	7.3756e+06	-54039.1	1055.82	-29744.6	0.000000	0.000000	6.442888	0.068362	NaN	0.000000	0.001583	0.001668	28.0811	0.114009	0.002003	56.9236	168.886	-163.766	0.079314	0.441088	-0.568286	-0.569534	0.068362	56.9236	-0.569187	-3.128926E+7	-2.184830E-9	NaN
1078	1.000000	0.450352	7.3756e+06	-54039.1	1055.82	-29744.6	0.000000	0.000000	6.450902	0.029984	NaN	0.000000	0.001586	0.001675	28.0815	0.093038	0.002006	46.3755	176.749	-165.436	0.072237	0.449037	-0.560270	-0.561585	0.029984	46.3755	-0.560755	-2.392326E+7	-1.253323E-9	NaN
1078	1.000000	0.458374	7.3756e+06	-54039.1	1055.82	-29744.6	0.000000	0.000000	6.458924	0.030393	NaN	0.000000	0.001577	0.001667	28.0811	0.097608	0.002004	48.7078	129.219	-165.711	-0.035194	0.457098	-0.552249	-0.553525	0.030393	48.7078	-0.552717	-1.851724E+7	-1.641353E-9	NaN
1078	1.000000	0.466354	7.3756e+06	-54039.1	1055.82	-29744.6	0.000000	0.000000	6.466906	0.093687	NaN	0.000000	0.001613	0.001653	28.0812	0.107069	0.001916	55.8876	58.5668	-165.942	0.071171	0.465090	-0.544269	-0.545532	0.093687	55.8876	-0.545526	-1.472211E+7	-6.363664E-9	NaN
1078	1.000000	0.474371	7.3756e+06	-54039.1	1055.82	-29744.6	0.000000	0.000000	6.474923	0.072643	NaN	0.000000	0.001574	0.001684	28.0825	0.075919	0.001954	38.8505	134.771	-167.559	0.011727	0.473116	-0.536252	-0.537507	0.072643	38.8505	-0.537654	-1.145027E+7	-6.344208E-9	NaN
1078	1.000000	0.482358	7.3756e+06	-54039.1	1055.82	-29744.6	0.000000	0.000000	6.482906	-0.035827	NaN	0.000000	0.001560	0.001672	28.0824	0.082855	0.001982	41.8017	0.204076	-167.097	-0.007863	0.481041	-0.528264	-0.529581	-0.035827	41.8017	-0.527621	-8.30871e+06	4.311929E-9	NaN
1078	1.000000	0.490373	7.3756e+06	-54039.1	1055.82	-29744.6	0.000000	0.000000	6.490921	-0.004790	NaN	0.000000	0.001545	0.001659	28.0825	0.065788	0.001952	33.7051	-146.546	-164.883	-0.050367	0.489089	-0.520250	-0.521534	-0.004790	33.7051	-0.520143	-6.54018e+06	7.324433E-10	NaN
1078	1.000000	0.498405	7.3756e+06	-54039.1	1055.82	-29744.6	0.000000	0.000000	6.498953	-0.024551	NaN	0.000000	0.001562	0.001666	28.0824	0.082053	0.001979	41.4575	166.302	-164.414	-0.077864	0.497080	-0.512218	-0.513542	-0.024551	41.4575	-0.511773	-5.00165e+06	4.908675E-9	NaN
1078	1.000000	0.506394	7.3756e+06	-54039.1	1055.82	-29744.6	0.000000	0.000000	6.506942	-0.031104	NaN	0.000000	0.001617	0.001635	28.0826	0.060562	0.001908	31.7454	-124.469	-165.835	0.036148	0.505034	-0.504228	-0.505589	-0.031104	31.7454	-0.503493	-3.83475e+06	8.111023E-9	NaN
1078	1.000000	0.514399	7.3756e+06	-54039.1	1055.82	-29744.6	0.000000	0.000000	6.514947	-0.006268	NaN	0.000000	0.001604	0.001660	28.0825	0.084575	0.001932	43.7832	61.4713	-169.482	-0.058350	0.513125	-0.496224	-0.497497	-0.006268	43.7832	-0.496116	-3.02564e+06	2.071593E-9	NaN
1078	1.000000	0.522380	7.3756e+06	-54039.1	1055.82	-29744.6	0.000000	0.000000	6.522929	0.014712	NaN	0.000000	0.001585	0.001661	28.0824	0.065204	0.002019	32.2928	-99.3322	-164.053	-0.051898	0.521055	-0.488243	-0.489567	0.014712	32.2928	-0.488584	-2.37469e+06	-6.195263E-9	NaN
1078	1.000000	0.530387	7.3756e+06	-54039.1	1055.82	-29744.6	0.000000	0.000000	6.530938	0.054437	NaN	0.000000	0.001598	0.001697	28.0824	0.052330	0.001975	26.4951	115.028	-164.716	0.025103	0.529162	-0.480235	-0.481460	0.054437	26.4951	-0.481776	-1.90716e+06	-2.854370E-8	NaN
1078	1.000000	0.538385	7.3756e+06	-54039.1	1055.82	-29744.6	0.000000	0.000000	6.538934	-0.002448	NaN	0.000000	0.001597	0.001665	28.0824	0.049607	0.002012	24.66	13.8441	-165.565	-0.004887	0.537085	-0.472237	-0.473538	-0.002448	24.66	-0.472163	-1.39873e+06	1.750293E-9	NaN
1078	1.000000	0.546429	7.3756e+06	-54039.1	1055.82	-29744.6	0.000000	0.000000	6.546981	0.069092	NaN	0.000000	0.001570	0.001702	28.0824	0.049158	0.002044	24.0518	-175.657	-164.714	0.099442	0.545119	-0.464193	-0.465504	0.069092	24.0518	-0.466348	-1.15922e+06	-5.960236E-8	NaN
1078	1.000000	0.554403	7.3756e+06	-54039.1	1055.82	-29744.6	0.000000	0.000000	6.554955	0.074201	NaN	0.000000	0.001618	0.001716	28.0825	0.086250	0.001914	45.0602	-106.302	-162.619	0.147268	0.553118	-0.456220	-0.457504	0.074201	45.0602	-0.457455	-869438	-8.534329E-8	NaN
1078	1.000000	0.562406	7.3756e+06	-54039.1	1055.82	-29744.6	0.000000	0.000000	6.562957	0.031091	NaN	0.000000	0.001620	0.001676	28.0826	0.157236	0.002106	74.6463	125.466	-163.834	0.043870	0.561120	-0.448216	-0.449502	0.031091	74.6463	-0.448528	-651050	-4.775454E-8	NaN
1078	1.000000	0.570412	7.3756e+06	-54039.1	1055.82	-29744.6	0.000000	0.000000	6.570959	-0.056522	NaN	0.000000	0.001619	0.001649	28.0823	0.100318	0.002054	48.8345	-157.281	-164.406	-0.032973	0.569106	-0.440210	-0.441516	-0.056522	48.8345	-0.439342	-483140	1.169885E-7	NaN
1078	1.000000	0.578424	7.3756e+06	-54039.1	1055.82	-29744.6	0.000000	0.000000	6.578974	0.021178	NaN	0.000000	0.001630	0.001711	28.0823	0.167762	0.001981	84.6775	174.249	-163.752	-0.045538	0.577114	-0.432198	-0.433508	0.021178	84.6775	-0.432386	-385307	-5.496355E-8	NaN
1078	1.000000	0.586443	7.3756e+06	-54039.1	1055.82	-29744.6	0.000000	0.000000	6.586991	-0.013386	NaN	0.000000	0.001653	0.001656	28.0824	0.046064	0.001901	24.2348	147.707	-165.961	0.027022	0.585123	-0.424180	-0.425500	-0.013386	24.2348	-0.423765	-290932	4.601126E-8	NaN
1078	1.000000	0.594442	7.3756e+06	-54039.1	1055.82	-29744.6	0.000000	0.000000	6.594989	-0.040518	NaN	0.000000	0.001672	0.001701	28.0824	0.095218	0.001991	47.8203	88.4182	-166.559	0.051638	0.593130	-0.416180	-0.417493	-0.040518	47.8203	-0.415545	-222429	1.821591E-7	NaN
1078	1.000000	0.602417	7.3756e+06	-54039.1	1055.82	-29744.6	0.000000	0.000000	6.602966	0.001711	NaN	0.000000	0.001659	0.001644	28.0829	0.111456	0.002019	55.2095	-15.5091	-165.424	0.020963	0.601126	-0.408205	-0.409496	0.001711	55.2095	-0.408229	-175067	-9.772324E-9	NaN
1078	1.000000	0.610416	7.3756e+06	-54039.1	1055.82	-29744.6	0.000000	0.000000	6.610967	0.032222	NaN	0.000000	0.001610	0.001657	28.0812	0.012861	0.001878	6.847788	118.959	-163.776	0.064381	0.609106	-0.400206	-0.401516	0.032222	6.847788	-0.403735	-151089	-2.132679E-7	NaN
1078	1.000000	0.618450	7.3756e+06	-54039.1	1055.82	-29744.6	0.000000	0.000000	6.619000	0.008293	NaN	0.000000	0.001588	0.001671	28.0816	0.039074	0.001917	20.3861	128.221	-165.358	0.002336	0.617158	-0.392172	-0.393464	0.008293	20.3861	-0.392477	-104373	-7.945334E-8	NaN
1078	1.000000	0.626456	7.3756e+06	-54039.1	1055.82	-29744.6	0.000000	0.000000	6.627006	0.026727	NaN	0.000000	0.001608	0.001670	28.0813	0.125992	0.001952	64.5401	-95.5785	-160.194	0.046380	0.625130	-0.384166	-0.385492	0.026727	64.5401	-0.384477	-80183.8	-3.333178E-7	NaN
1078	1.000000	0.634450	7.3756e+06	-54039.1	1055.82	-29744.6	0.000000	0.000000	6.635000	0.029890	NaN	0.000000	0.001589	0.001667	28.0812	0.056434	0.002098	26.9027	-29.2272	-164.438	0.018807	0.633157	-0.376172	-0.377466	0.029890	26.9027	-0.377005	-62645.3	-4.771360E-7	NaN
1078	1.000000	0.642435	7.3756e+06	-54039.1	1055.82	-29744.6	0.000000	0.000000	6.642984	-0.001712	NaN	0.000000	0.001580	0.001639	28.0815	0.101404	0.001882	53.8938	-13.1841	-162.446	-0.034601	0.641089	-0.368187	-0.369533	-0.001712	53.8938	-0.368163	-46737.6	3.662739E-8	NaN
1078	1.000000	0.650456	7.3756e+06	-54039.1	1055.82	-29744.6	0.000000	0.000000	6.651003	-0.050629	NaN	0.000000	0.001581	0.001677	28.0813	0.111358	0.001953	57.0309	-76.8807	-171.553	-0.002643	0.649117	-0.360166	-0.361505	-0.050629	57.0309	-0.359500	-35044.7	1.444702E-6	NaN
1078	1.000000	0.658458	7.3756e+06	-54039.1	1055.82	-29744.6	0.000000	0.000000	6.659003	-0.081861	NaN	0.000000	0.001607	0.001646	28.0815	0.048530	0.001894	25.6289	175.568	-165.56	-0.060969	0.657117	-0.352165	-0.353506	-0.081861	25.6289	-0.349769	-25330.9	3.231673E-6	NaN
1078	1.000000	0.666483	7.3756e+06	-54039.1	1055.82	-29744.6	0.000000	0.000000	6.667032	0.021807	NaN	0.000000	0.001616	0.001689	28.0813	0.086587	0.001996	43.3783	125.355	-162.347	0.123388	0.665168	-0.344140	-0.345455	0.021807	43.3783	-0.344517	-21248.4	-1.026273E-6	NaN
1078	1.000000	0.674467	7.3756e+06	-54039.1	1055.82	-29744.6	0.000000	0.000000	6.675016	0.002727	NaN	0.000000	0.001574	0.001686	28.0812	0.035574	0.002006	17.7361	-41.8791	-165.609	0.024144	0.673154	-0.336155	-0.337468	0.002727	17.7361	-0.336271	-16111.9	-1.692741E-7	NaN
1078	1.000000	0.682465	7.3756e+06	-54039.1	1055.82	-29744.6	0.000000	0.000000	6.683009	-0.103102	NaN	0.000000	0.001599	0.001635	28.0814	0.048440	0.002050	23.6322	130.979	-167.56	-0.100443	0.681152	-0.328158	-0.329470	-0.103102	23.6322	-0.324886	-10976.3	9.393081E-6	NaN
1078	1.000000	0.690477	7.3756e+06	-54039.1	1055.82	-29744.6	0.000000	0.000000	6.691024	-0.054811	NaN	0.000000	0.001561	0.001661	28.0813	0.032298	0.002018	16.007	98.2922	-166.549	-0.001372	0.689198	-0.320145	-0.321424	-0.054811	16.007	-0.317577	-8569.43	6.396146E-6	NaN
1078	1.000000	0.698484	7.3756e+06	-54039.1	1055.82	-29744.6	0.000000	0.000000	6.699035	0.043649	NaN	0.000000	0.001591	0.001623	28.0817	0.009514	0.001938	4.909347	-156.825	-161.2	0.086212	0.697139	-0.312138	-0.313484	0.043649	4.909347	-0.318807	-8934.43	-4.885494E-6	NaN
1078	1.000000	0.706473	7.3756e+06	-54039.1	1055.82	-29744.6	0.000000	0.000000	6.707022	0.015294	NaN	0.000000	0.001614	0.001647	28.0812	0.155191	0.002109	73.6017	-29.6878	-168.244	0.023727	0.705159	-0.304150	-0.305464	0.015294	73.6017	-0.304305	-5453.1	-2.804696E-6	NaN
1078	1.000000	0.714470	7.3756e+06	-54039.1	1055.82	-29744.6	0.000000	0.000000	6.715018	-0.020934	NaN	0.000000	0.001633	0.001636	28.0813	0.187482	0.001923	97.4717	-28.3542	-164.541	-0.008105	0.713165	-0.296152	-0.297458	-0.020934	97.4717	-0.295991	-4100.95	5.104554E-6	NaN
1078	1.000000	0.722495	7.3756e+06	-54039.1	1055.82	-29744.6	0.000000	0.000000	6.723042	-0.031559	NaN	0.000000	0.001603	0.001652	28.0813	0.047530	0.002012	23.6271	148.096	-167.094	-0.075479	0.721151	-0.288128	-0.289472	-0.031559	23.6271	-0.287126	-3021.34	1.044546E-5	NaN
1078	1.000000	0.730509	7.3756e+06	-54039.1	1055.82	-29744.6	0.000000	0.000000	6.731058	-0.013444	NaN	0.000000	0.001615	0.001642	28.0811	0.036045	0.002000	18.0233	8.724070	-168.721	0.013270	0.729166	-0.280113	-0.281456	-0.013444	18.0233	-0.279554	-2323.99	5.784772E-6	NaN
1078	1.000000	0.738479	7.3756e+06	-54039.1	1055.82	-29744.6	0.000000	0.000000	6.739031	0.081813	NaN	0.000000	0.001624	0.001675	28.0813	0.024055	0.001936	12.4226	-138.532	-166.773	-0.002539	0.737201	-0.272143	-0.273421	0.081813	12.4226	-0.277083	-2132.61	-3.836264E-5	NaN
1078	1.000000	0.746503	7.3756e+06	-54039.1	1055.82	-29744.6	0.000000	0.000000	6.747052	0.004802	NaN	0.000000	0.001674	0.001621	28.0821	0.073096	0.001934	37.7944	-119.639	-166.707	-0.052284	0.745228	-0.264119	-0.265394	0.004802	37.7944	-0.264215	-1359.56	-3.532250E-6	NaN
1078	1.000000	0.754534	7.3756e+06	-54039.1	1055.82	-29744.6	0.000000	0.000000	6.755085	0.041848	NaN	0.000000	0.001693	0.001640	28.0825	0.028969	0.001892	15.3112	170.653	-165.673	0.042281	0.753218	-0.256088	-0.257404	0.041848	15.3112	-0.258138	-1097.37	-3.813492E-5	NaN
1078	1.000000	0.762480	7.3756e+06	-54039.1	1055.82	-29744.6	0.000000	0.000000	6.763030	0.007149	NaN	0.000000	0.001673	0.001652	28.0822	0.065532	0.001992	32.8996	-73.7979	-165.52	-0.006045	0.761143	-0.248142	-0.249479	0.007149	32.8996	-0.248305	-773.976	-9.236354E-6	NaN
1078	1.000000	0.770483	7.3756e+06	-54039.1	1055.82	-29744.6	0.000000	0.000000	6.771028	-0.104927	NaN	0.000000	0.001696	0.001640	28.0822	0.049670	0.001928	25.7619	-39.1924	-164.016	-0.076275	0.769229	-0.240139	-0.241393	-0.104927	25.7619	-0.237084	-517.534	0.000203	NaN
1078	1.000000	0.778505	7.3756e+06	-54039.1	1055.82	-29744.6	0.000000	0.000000	6.779055	0.016967	NaN	0.000000	0.001685	0.001656	28.0823	0.093630	0.002020	46.3499	-44.6221	-161.876	0.125112	0.777269	-0.232117	-0.233354	0.016967	46.3499	-0.232391	-436.746	-3.884858E-5	NaN
1078	1.000000	0.786517	7.3756e+06	-54039.1	1055.82	-29744.6	0.000000	0.000000	6.787067	0.013782	NaN	0.000000	0.001670	0.001666	28.0821	0.046260	0.001912	24.1902	-52.7068	-164.707	0.043242	0.785170	-0.224105	-0.225452	0.013782	24.1902	-0.224532	-328.022	-4.201419E-5	NaN
1078	1.000000	0.794507	7.3756e+06	-54039.1	1055.82	-29744.6	0.000000	0.000000	6.795059	0.072156	NaN	0.000000	0.001692	0.001643	28.0824	0.109988	0.002073	53.0502	173.218	-163.694	0.010197	0.793219	-0.216115	-0.217404	0.072156	53.0502	-0.217135	-249.924	-0.000289	NaN
1078	1.000000	0.802527	7.3756e+06	-54039.1	1055.82	-29744.6	0.000000	0.000000	6.803071	-0.111086	NaN	0.000000	0.001701	0.001641	28.0824	0.052132	0.001980	26.3245	85.1927	-167.211	-0.008477	0.801177	-0.208095	-0.209445	-0.111086	26.3245	-0.204930	-158.643	0.000700	NaN
1078	1.000000	0.810521	7.3756e+06	-54039.1	1055.82	-29744.6	0.000000	0.000000	6.811072	0.062426	NaN	0.000000	0.001664	0.001623	28.0823	0.074929	0.001869	40.0888	-74.6312	-167.558	0.049589	0.809187	-0.200102	-0.201435	0.062426	40.0888	-0.201270	-138.212	-0.000452	NaN
1078	1.000000	0.818529	7.3756e+06	-54039.1	1055.82	-29744.6	0.000000	0.000000	6.819077	-0.008580	NaN	0.000000	0.001686	0.001644	28.0821	0.092570	0.002059	44.9623	-57.4292	-163.773	-0.071843	0.817240	-0.192094	-0.193382	-0.008580	44.9623	-0.191950	-96.9518	8.849612E-5	NaN
1078	1.000000	0.826499	7.3756e+06	-54039.1	1055.82	-29744.6	0.000000	0.000000	6.827046	-0.054405	NaN	0.000000	0.001696	0.001654	28.0821	0.051061	0.001976	25.8366	123.222	-164.924	-0.029545	0.825227	-0.184123	-0.185395	-0.054405	25.8366	-0.182544	-67.3972	0.000807	NaN
1078	1.000000	0.834502	7.3756e+06	-54039.1	1055.82	-29744.6	0.000000	0.000000	6.835049	-0.050275	NaN	0.000000	0.001677	0.001635	28.0823	0.064550	0.001965	32.845	179.301	-167.231	-0.022084	0.833228	-0.176120	-0.177394	-0.050275	32.845	-0.174972	-50.0615	0.001004	NaN
1078	1.000000	0.842506	7.3756e+06	-54039.1	1055.82	-29744.6	0.000000	0.000000	6.843053	-0.041549	NaN	0.000000	0.001603	0.001667	28.0822	0.096077	0.001900	50.5612	125.574	-162.762	-0.044572	0.841221	-0.168116	-0.169401	-0.041549	50.5612	-0.167500	-37.1605	0.001118	NaN
1078	1.000000	0.850547	7.3756e+06	-54039.1	1055.82	-29744.6	0.000000	0.000000	6.851095	-0.031642	NaN	0.000000	0.001585	0.001648	28.0824	0.022963	0.001989	11.5427	-126.688	-164.404	-0.099553	0.849257	-0.160075	-0.161365	-0.031642	11.5427	-0.158019	-25.2754	0.001252	NaN
1078	1.000000	0.858552	7.3756e+06	-54039.1	1055.82	-29744.6	0.000000	0.000000	6.859099	-0.040225	NaN	0.000000	0.001577	0.001651	28.0819	0.085632	0.002077	41.2258	88.9778	-166.278	-0.120801	0.857216	-0.152071	-0.153406	-0.040225	41.2258	-0.151339	-19.1593	0.002099	NaN
1078	1.000000	0.866542	7.3756e+06	-54039.1	1055.82	-29744.6	0.000000	0.000000	6.867090	-0.009337	NaN	0.000000	0.001588	0.001641	28.0822	0.202201	0.001895	106.73	63.0376	-163.949	0.079489	0.865257	-0.144081	-0.145365	-0.009337	106.73	-0.144015	-14.0579	0.000664	NaN
1078	1.000000	0.874523	7.3756e+06	-54039.1	1055.82	-29744.6	0.000000	0.000000	6.875075	0.069926	NaN	0.000000	0.001643	0.001703	28.0824	0.026428	0.002007	13.1674	-81.3916	-162.815	0.053477	0.873229	-0.136099	-0.137393	0.069926	13.1674	-0.140082	-11.8717	-0.005890	NaN
1078	1.000000	0.882540	7.3756e+06	-54039.1	1055.82	-29744.6	0.000000	0.000000	6.883088	-0.018923	NaN	0.000000	0.001648	0.001663	28.0812	0.104449	0.002021	51.6788	-127.648	-166.056	-0.009899	0.881232	-0.128082	-0.129390	-0.018923	51.6788	-0.127808	-6.906496	0.002740	NaN
1078	1.000000	0.890562	7.3756e+06	-54039.1	1055.82	-29744.6	0.000000	0.000000	6.891113	0.064307	NaN	0.000000	0.001616	0.001675	28.0811	0.028949	0.001911	15.1488	-102.741	-164.098	-0.023961	0.889228	-0.120061	-0.121395	0.064307	15.1488	-0.123245	-5.612284	-0.011458	NaN
1078	1.000000	0.898568	7.3756e+06	-54039.1	1055.82	-29744.6	0.000000	0.000000	6.899118	0.031708	NaN	0.000000	0.001625	0.001657	28.0809	0.109515	0.002119	51.6703	-107.825	-165.128	-0.044788	0.897234	-0.112055	-0.113388	0.031708	51.6703	-0.112515	-3.393084	-0.009345	NaN
1078	1.000000	0.906570	7.3756e+06	-54039.1	1055.82	-29744.6	0.000000	0.000000	6.907118	-0.007181	NaN	0.000000	0.001588	0.001686	28.0813	0.076584	0.002060	37.1698	145.548	-167.978	-0.035266	0.905239	-0.104053	-0.105383	-0.007181	37.1698	-0.103908	-2.225937	0.003226	NaN
1078	1.000000	0.914516	7.3756e+06	-54039.1	1055.82	-29744.6	0.000000	0.000000	6.915066	0.023621	NaN	0.000000	0.001609	0.001624	28.0809	0.132398	0.001918	69.0115	82.5214	-166.586	0.056804	0.913257	-0.096107	-0.097366	0.023621	69.0115	-0.096363	-1.514811	-0.015593	NaN
1078	1.000000	0.922568	7.3756e+06	-54039.1	1055.82	-29744.6	0.000000	0.000000	6.923119	0.049187	NaN	0.000000	0.001607	0.001626	28.081	0.086449	0.002063	41.8999	-118.081	-162.466	-0.017060	0.921252	-0.088054	-0.089371	0.049187	41.8999	-0.088935	-1.020330	-0.048207	NaN
1078	1.000000	0.930578	7.3756e+06	-54039.1	1055.82	-29744.6	0.000000	0.000000	6.931129	0.049349	NaN	0.000000	0.001586	0.001641	28.0813	0.017967	0.002062	8.713879	-122.58	-166.577	-0.039126	0.929255	-0.080044	-0.081367	0.049349	8.713879	-0.084292	-0.789775	-0.062485	NaN
1078	1.000000	0.938599	7.3756e+06	-54039.1	1055.82	-29744.6	0.000000	0.000000	6.939149	0.032569	NaN	0.000000	0.001576	0.001654	28.081	0.023015	0.002032	11.3262	99.5123	-166.009	0.028416	0.937290	-0.072024	-0.073332	0.032569	11.3262	-0.074180	-0.439797	-0.074055	NaN
1078	1.000000	0.946574	7.3756e+06	-54039.1	1055.82	-29744.6	0.000000	0.000000	6.947124	0.021791	NaN	0.000000	0.001540	0.001653	28.0815	0.052512	0.002047	25.659	152.185	-164.398	0.033674	0.945288	-0.064048	-0.065334	0.021791	25.659	-0.064685	-0.244254	-0.089217	NaN
1078	1.000000	0.954577	7.3756e+06	-54039.1	1055.82	-29744.6	0.000000	0.000000	6.955125	-0.021169	NaN	0.000000	0.001593	0.001651	28.0811	0.067865	0.001929	35.1808	-62.3418	-165.213	0.013788	0.953235	-0.056045	-0.057387	-0.021169	35.1808	-0.055594	-0.134079	0.157885	NaN
1078	1.000000	0.962606	7.3756e+06	-54039.1	1055.82	-29744.6	0.000000	0.000000	6.963153	-0.037398	NaN	0.000000	0.001570	0.001669	28.0811	0.074831	0.001919	39.0023	67.8433	-164.319	-0.022324	0.961281	-0.048017	-0.049341	-0.037398	39.0023	-0.047298	-0.075537	0.495091	NaN
1078	1.000000	0.970569	7.3756e+06	-54039.1	1055.82	-29744.6	0.000000	0.000000	6.971120	0.035280	NaN	0.000000	0.001595	0.001654	28.0813	0.056671	0.002155	26.3014	135.771	-166.179	0.029363	0.969275	-0.040053	-0.041348	0.035280	26.3014	-0.041059	-0.048704	-0.724364	NaN
1078	1.000000	0.978588	7.3756e+06	-54039.1	1055.82	-29744.6	0.000000	0.000000	6.979138	0.046201	NaN	0.000000	0.001592	0.001677	28.0812	0.037354	0.002114	17.6709	13.2504	-165.737	-0.012924	0.977267	-0.032035	-0.033356	0.046201	17.6709	-0.033996	-0.029925	-1.543887	NaN
1078	1.000000	0.986580	7.3756e+06	-54039.1	1055.82	-29744.6	0.000000	0.000000	6.987131	0.055638	NaN	0.000000	0.001548	0.001652	28.0814	0.107081	0.001957	54.7292	60.2697	-167.287	-0.018970	0.985277	-0.024042	-0.025345	0.055638	54.7292	-0.024804	-0.016673	-3.336939	NaN
1078	1.000000	0.994600	7.3756e+06	-54039.1	1055.82	-29744.6	0.000000	0.000000	6.995158	0.235872	NaN	0.000000	0.001580	0.001649	28.0812	0.194823	0.001995	97.6768	33.4755	-165.93	0.188366	0.993323	-0.016023	-0.017299	0.235872	97.6768	-0.017834	-0.011052	-21.3412	NaN
1078	1.000000	1.002578	7.3756e+06	-54039.1	1055.82	-29744.6	0.000000	0.000000	7.003136	0.227056	NaN	0.000000	0.001607	0.001661	28.081	0.104292	0.002057	50.6896	47.6125	-165.107	0.270301	1.001270	-0.008044	-0.009352	0.227056	50.6896	-0.011404	-0.007188	-31.5866	NaN
1078	1.000000	1.010597	7.3756e+06	-54039.1	1055.82	-29744.6	0.000000	0.000000	7.011165	0.457821	NaN	0.000000	0.001559	0.001677	28.081	0.470150	0.001754	268.09	19.993	-163.863	0.288942	1.009263	-2.502546E-5	-0.001360	0.457821	268.09	-0.001306	-0.000952	-480.958	NaN
1078	1.000000	1.018465	7.3756e+06	-54039.1	1055.82	-29744.6	0.000000	0.000000	7.019342	7.969831	NaN	0.000000	0.001587	0.001667	28.0819	7.803347	0.001708	4569.34	9.274140	-170.652	6.240130	1.017299	0.007843	0.006676	7.969831	4569.34	0.006534	0.005578	1428.87	55898.2
1078	2.000000	1.021233	7.3756e+06	-54039.1	1055.82	-29744.6	0.000000	0.000000	7.022183	9.750635	NaN	0.000000	0.001572	0.001673	28.0825	10.5178	0.001698	6192.53	9.822949	-175.094	9.644775	1.020907	0.010610	0.010285	9.750635	6192.53	0.009430	0.008554	1139.84	61171.3
1078	2.000000	1.023149	7.3756e+06	-54039.1	1055.82	-29744.6	0.000000	0.000000	7.024259	13.6557	NaN	0.000000	0.001580	0.001642	28.0823	12.3625	0.001650	7492.66	6.735853	-173.943	12.7705	1.022834	0.012526	0.012211	13.6557	7492.66	0.011159	0.010499	1300.69	66809.8
1078	2.000000	1.025161	7.3756e+06	-54039.1	1055.82	-29744.6	0.000000	0.000000	7.026328	15.0199	NaN	0.000000	0.001586	0.001623	28.0823	15.0539	0.001809	8320.18	8.462935	-176.067	14.6828	1.024877	0.014539	0.014255	15.0199	8320.18	0.013185	0.012941	1160.69	66823.6
1078	2.000000	1.027127	7.3756e+06	-54039.1	1055.82	-29744.6	0.000000	0.000000	7.028357	16.5577	NaN	0.000000	0.001590	0.001673	28.0826	15.7172	0.001699	9248.23	4.256400	-173.518	16.3683	1.026842	0.016504	0.016219	16.5577	9248.23	0.015162	0.015502	1068.12	67864.5
1078	2.000000	1.029111	7.3756e+06	-54039.1	1055.82	-29744.6	0.000000	0.000000	7.030539	21.3763	NaN	0.000000	0.001546	0.001642	28.0823	18.3496	0.001729	10614.7	5.901172	-177.417	20.2352	1.028808	0.018489	0.018186	21.3763	10614.7	0.016978	0.018014	1186.62	72255.6
1078	2.000000	1.031131	7.3756e+06	-54039.1	1055.82	-29744.6	0.000000	0.000000	7.032706	24.9582	NaN	0.000000	0.001543	0.001646	28.0827	21.2395	0.001842	11528.9	7.434661	-178.128	23.8944	1.030715	0.020509	0.020092	24.9582	11528.9	0.018885	0.020820	1198.74	72998.9
1078	2.000000	1.033103	7.3756e+06	-54039.1	1055.82	-29744.6	0.000000	0.000000	7.034831	28.6622	NaN	0.000000	0.001557	0.001648	28.0825	22.0462	0.001770	12452.9	6.721089	-177.422	28.3379	1.032774	0.022481	0.022152	28.6622	12452.9	0.020755	0.023742	1207.23	73838.8
1078	2.000000	1.035128	7.3756e+06	-54039.1	1055.82	-29744.6	0.000000	0.000000	7.036898	29.7004	NaN	0.000000	0.001577	0.001644	28.0826	24.8144	0.001849	13419.4	4.898186	-175.713	30.665	1.034766	0.024506	0.024144	29.7004	13419.4	0.022846	0.027213	1091.42	74322.5
1078	2.000000	1.037077	7.3756e+06	-54039.1	1055.82	-29744.6	0.000000	0.000000	7.039094	35.6824	NaN	0.000000	0.001579	0.001650	28.0824	26.8212	0.001943	13804.9	4.209197	-176.268	34.7655	1.036721	0.026455	0.026099	35.6824	13804.9	0.024516	0.030141	1183.84	72648.3
1078	2.000000	1.039027	7.3756e+06	-54039.1	1055.82	-29744.6	0.000000	0.000000	7.041463	45.8753	NaN	0.000000	0.001598	0.001638	28.0825	29.2772	0.001792	16335.1	3.605384	-177.377	42.7922	1.038761	0.028405	0.028139	45.8753	16335.1	0.026299	0.033421	1372.66	81636.9
1078	2.000000	1.041158	7.3756e+06	-54039.1	1055.82	-29744.6	0.000000	0.000000	7.043732	49.2136	NaN	0.000000	0.001597	0.001630	28.0826	31.4873	0.001787	17622	7.783624	178.675	51.1407	1.040744	0.030536	0.030122	49.2136	17622	0.028441	0.037575	1309.73	83057.2
1078	2.000000	1.043112	7.3756e+06	-54039.1	1055.82	-29744.6	0.000000	0.000000	7.045822	52.5529	NaN	0.000000	0.001575	0.001656	28.0825	32.143	0.001754	18325.2	4.038487	-178.147	53.9961	1.042795	0.032489	0.032173	52.5529	18325.2	0.030339	0.041448	1267.92	82237.2
1078	2.000000	1.045064	7.3756e+06	-54039.1	1055.82	-29744.6	0.000000	0.000000	7.048135	61.3125	NaN	0.000000	0.001566	0.001630	28.0835	35.0969	0.001818	19304.4	4.734221	179.731	60.5556	1.044787	0.034442	0.034165	61.3125	19304.4	0.032060	0.045122	1358.83	83030.2
1078	2.000000	1.047083	7.3756e+06	-54039.1	1055.82	-29744.6	0.000000	0.000000	7.050297	64.7931	NaN	0.000000	0.001600	0.001657	28.0823	36.4825	0.001731	21077.2	6.101112	177.691	64.5856	1.046740	0.036461	0.036118	64.7931	21077.2	0.034155	0.049797	1301.13	86294.6
1078	2.000000	1.049054	7.3756e+06	-54039.1	1055.82	-29744.6	0.000000	0.000000	7.052585	72.5057	NaN	0.000000	0.001603	0.001638	28.0825	38.0899	0.001812	21015.4	3.339939	-179.206	71.3998	1.048758	0.038431	0.038136	72.5057	21015.4	0.035844	0.053729	1349.48	82834.1
1078	2.000000	1.051059	7.3756e+06	-54039.1	1055.82	-29744.6	0.000000	0.000000	7.054758	76.6011	NaN	0.000000	0.001664	0.001676	28.0826	39.7044	0.001709	23231.6	0.766364	-177.962	73.1707	1.050763	0.040436	0.040141	76.6011	23231.6	0.037963	0.058871	1301.17	87478.4
1078	2.000000	1.053080	7.3756e+06	-54039.1	1055.82	-29744.6	0.000000	0.000000	7.057114	84.7155	NaN	0.000000	0.001701	0.001649	28.0821	41.7784	0.001715	24356.1	4.905982	177.485	84.6806	1.052779	0.042458	0.042157	84.7155	24356.1	0.039849	0.063639	1331.18	88210.1
1078	2.000000	1.054996	7.3756e+06	-54039.1	1055.82	-29744.6	0.000000	0.000000	7.059263	90.3865	NaN	0.000000	0.001669	0.001653	28.0825	44.3904	0.001791	24783.5	2.323795	179.599	87.08	1.054799	0.044374	0.044176	90.3865	24783.5	0.041639	0.068332	1322.75	86621.2
1078	2.000000	1.057064	7.3756e+06	-54039.1	1055.82	-29744.6	0.000000	0.000000	7.061643	97.9926	NaN	0.000000	0.001672	0.001635	28.0812	45.5174	0.001734	26243.7	7.086987	175.048	97.3205	1.056754	0.046441	0.046131	97.9926	26243.7	0.043641	0.073775	1328.26	88275.8
1078	2.000000	1.059050	7.3756e+06	-54039.1	1055.82	-29744.6	0.000000	0.000000	7.063883	104.164	NaN	0.000000	0.001689	0.001649	28.0812	47.9995	0.001725	27831.7	6.389531	174.908	102.559	1.058666	0.048427	0.048043	104.164	27831.7	0.045620	0.079358	1312.58	90264.6
1078	2.000000	1.061082	7.3756e+06	-54039.1	1055.82	-29744.6	0.000000	0.000000	7.066175	110.46	NaN	0.000000	0.001654	0.001679	28.0816	50.316	0.001827	27535.5	4.749581	176.893	109.17	1.060832	0.050460	0.050209	110.46	27535.5	0.047451	0.084698	1304.16	86442.6
1078	2.000000	1.063075	7.3756e+06	-54039.1	1055.82	-29744.6	0.000000	0.000000	7.068542	119.575	NaN	0.000000	0.001691	0.001691	28.0815	52.4813	0.001865	28138.3	5.708729	175.361	119.923	1.062683	0.052452	0.052061	119.575	28138.3	0.049265	0.090156	1326.32	85619.8
1078	2.000000	1.065041	7.3756e+06	-54039.1	1055.82	-29744.6	0.000000	0.000000	7.070964	130.648	NaN	0.000000	0.001690	0.001677	28.0822	53.8231	0.001792	30038.1	4.369504	176.118	127.464	1.064709	0.054419	0.054087	130.648	30038.1	0.051157	0.096023	1360.59	88564.4
1078	2.000000	1.066963	7.3756e+06	-54039.1	1055.82	-29744.6	0.000000	0.000000	7.073238	139.202	NaN	0.000000	0.001661	0.001677	28.0812	54.9381	0.001817	30242.2	2.813224	177.303	134.355	1.066654	0.056341	0.056031	139.202	30242.2	0.052888	0.101550	1370.78	86705.6
1078	2.000000	1.068977	7.3756e+06	-54039.1	1055.82	-29744.6	0.000000	0.000000	7.075827	153.186	NaN	0.000000	0.001644	0.001664	28.0811	57.7319	0.001836	31452.9	3.751792	177.242	150.341	1.068681	0.058355	0.058058	153.186	31452.9	0.054702	0.107498	1425.01	87646.2
1078	2.000000	1.071096	7.3756e+06	-54039.1	1055.82	-29744.6	0.000000	0.000000	7.078309	162.02	NaN	0.000000	0.001616	0.001644	28.0811	59.6461	0.001778	33550.8	3.498039	175.946	162.067	1.070744	0.060474	0.060122	162.02	33550.8	0.056852	0.114762	1411.79	90485.3
1078	2.000000	1.073080	7.3756e+06	-54039.1	1055.82	-29744.6	0.000000	0.000000	7.080902	176.805	NaN	0.000000	0.001589	0.001673	28.081	61.8575	0.001753	35280.3	8.927300	171.308	176.67	1.072572	0.062458	0.061949	176.805	35280.3	0.058699	0.121186	1458.96	92593.2
1078	2.000000	1.075020	7.3756e+06	-54039.1	1055.82	-29744.6	0.000000	0.000000	7.082861	177.285	NaN	0.000000	0.001620	0.001696	28.0814	64.8514	0.001773	36573.1	5.604840	172.811	175.203	1.074785	0.064398	0.064163	177.285	36573.1	0.060762	0.128556	1379.04	93194.1
1078	2.000000	1.076975	7.3756e+06	-54039.1	1055.82	-29744.6	0.000000	0.000000	7.085656	197.699	NaN	0.000000	0.001617	0.001669	28.0808	65.9119	0.001859	35463.5	8.958107	170.83	194.753	1.076581	0.066353	0.065958	197.699	35463.5	0.062172	0.133710	1478.57	88607.9
1078	2.000000	1.078980	7.3756e+06	-54039.1	1055.82	-29744.6	0.000000	0.000000	7.088016	206.348	NaN	0.000000	0.001646	0.001662	28.0812	68.5993	0.001816	37767	6.480084	172.278	203.441	1.078734	0.068357	0.068112	206.348	37767	0.064260	0.141524	1458.04	91721.4
1078	2.000000	1.080958	7.3756e+06	-54039.1	1055.82	-29744.6	0.000000	0.000000	7.090775	225.313	NaN	0.000000	0.001606	0.001679	28.0812	70.1213	0.001734	40432	5.900775	172.314	220.079	1.080740	0.070336	0.070117	225.313	40432	0.066156	0.148805	1514.15	95761.2
1078	2.000000	1.083058	7.3756e+06	-54039.1	1055.82	-29744.6	0.000000	0.000000	7.093078	230.271	NaN	0.000000	0.001602	0.001708	28.0811	71.4539	0.001779	40170.1	2.099952	176.273	230.692	1.082782	0.072435	0.072160	230.271	40170.1	0.068136	0.156588	1470.55	92746.1
1078	2.000000	1.085032	7.3756e+06	-54039.1	1055.82	-29744.6	0.000000	0.000000	7.095949	252.063	NaN	0.000000	0.001585	0.001683	28.0813	74.1353	0.001640	45194.8	2.243253	175.18	252.258	1.084746	0.074410	0.074124	252.063	45194.8	0.070227	0.165011	1527.55	101649
1078	2.000000	1.086882	7.3756e+06	-54039.1	1055.82	-29744.6	0.000000	0.000000	7.098447	267.802	NaN	0.000000	0.001604	0.001680	28.0811	75.4943	0.001722	43840.1	1.892085	175.515	258.978	1.086646	0.076260	0.076024	267.802	43840.1	0.071678	0.170983	1566.25	96865.3
1078	2.000000	1.089027	7.3756e+06	-54039.1	1055.82	-29744.6	0.000000	0.000000	7.101253	283.865	NaN	0.000000	0.001607	0.001682	28.0827	77.9597	0.001642	47477.5	1.689213	175.436	282.482	1.088801	0.078405	0.078179	283.865	47477.5	0.073921	0.180403	1573.5	102127
1078	2.000000	1.090936	7.3756e+06	-54039.1	1055.82	-29744.6	0.000000	0.000000	7.103784	298.996	NaN	0.000000	0.001652	0.001696	28.0821	80.3699	0.001701	47237	2.402633	174.694	292.37	1.090708	0.080314	0.080086	298.996	47237	0.075567	0.187467	1594.93	99676.5
1078	2.000000	1.093120	7.3756e+06	-54039.1	1055.82	-29744.6	0.000000	0.000000	7.106482	311.493	NaN	0.000000	0.001650	0.001713	28.0821	83.4675	0.001792	46578.5	8.044301	170.042	316.422	1.092638	0.082498	0.082016	311.493	46578.5	0.077482	0.195849	1590.48	96160.9
1078	2.000000	1.094951	7.3756e+06	-54039.1	1055.82	-29744.6	0.000000	0.000000	7.109056	329.568	NaN	0.000000	0.001653	0.001698	28.0821	84.7105	0.001675	50558.4	4.744687	171.695	325.905	1.094735	0.084328	0.084112	329.568	50558.4	0.079439	0.204591	1610.86	102123
1078	2.000000	1.096998	7.3756e+06	-54039.1	1055.82	-29744.6	0.000000	0.000000	7.111822	347.034	NaN	0.000000	0.001649	0.001691	28.082	85.6189	0.001677	51062.2	5.784007	170.575	345.181	1.096686	0.086376	0.086064	347.034	51062.2	0.081279	0.212970	1629.5	101091
1078	2.000000	1.098998	7.3756e+06	-54039.1	1055.82	-29744.6	0.000000	0.000000	7.114151	355.044	NaN	0.000000	0.001655	0.001674	28.083	89.0857	0.001892	47087.6	2.823799	174.063	353.326	1.098848	0.088376	0.088226	355.044	47087.6	0.082721	0.219648	1616.42	91794.3
1078	2.000000	1.101043	7.3756e+06	-54039.1	1055.82	-29744.6	0.000000	0.000000	7.117293	381.725	NaN	0.000000	0.001679	0.001691	28.0819	90.6784	0.001722	52645.9	6.856572	170.013	382.41	1.100627	0.090421	0.090004	381.725	52645.9	0.084983	0.230319	1657.38	100224
1078	2.000000	1.102914	7.3756e+06	-54039.1	1055.82	-29744.6	0.000000	0.000000	7.120057	403.429	NaN	0.000000	0.001667	0.001736	28.082	91.3345	0.001724	52987.2	4.527655	171.513	398.23	1.102581	0.092291	0.091959	403.429	52987.2	0.086581	0.238001	1695.07	99232.7
1078	2.000000	1.104998	7.3756e+06	-54039.1	1055.82	-29744.6	0.000000	0.000000	7.122717	417.425	NaN	0.000000	0.001638	0.001710	28.0819	95.1209	0.001692	56229	6.861758	169.225	416.34	1.104700	0.094376	0.094078	417.425	56229	0.088808	0.248901	1677.08	102972
1078	2.000000	1.106925	7.3756e+06	-54039.1	1055.82	-29744.6	0.000000	0.000000	7.125349	434.569	NaN	0.000000	0.001637	0.001673	28.0819	95.3369	0.001704	55954.9	6.031123	169.738	431.468	1.106563	0.096302	0.095941	434.569	55954.9	0.090478	0.257223	1689.46	100799
1078	2.000000	1.108839	7.3756e+06	-54039.1	1055.82	-29744.6	0.000000	0.000000	7.127934	450.894	NaN	0.000000	0.001656	0.001674	28.0826	99.2902	0.001770	56090.1	7.422745	168.395	442.739	1.108656	0.098216	0.098034	450.894	56090.1	0.092187	0.265876	1695.88	99384.7
1078	2.000000	1.110863	7.3756e+06	-54039.1	1055.82	-29744.6	0.000000	0.000000	7.130913	474.1	NaN	0.000000	0.001637	0.001681	28.0819	100.099	0.001713	58433	3.114742	172.875	466.285	1.110621	0.100241	0.099999	474.1	58433	0.094156	0.276004	1717.73	101619
1078	2.000000	1.112929	7.3756e+06	-54039.1	1055.82	-29744.6	0.000000	0.000000	7.133640	490.16	NaN	0.000000	0.001580	0.001668	28.082	102.228	0.001699	60163.2	5.164682	170.001	487.995	1.112628	0.102307	0.102005	490.16	60163.2	0.096197	0.286694	1709.7	102658
1078	2.000000	1.114984	7.3756e+06	-54039.1	1055.82	-29744.6	0.000000	0.000000	7.136583	511.762	NaN	0.000000	0.001612	0.001656	28.0819	105.437	0.001780	59235.9	3.205071	172.261	510.79	1.114651	0.104362	0.104028	511.762	59235.9	0.097882	0.295666	1730.88	99530.8
1078	2.000000	1.117022	7.3756e+06	-54039.1	1055.82	-29744.6	0.000000	0.000000	7.139349	529.446	NaN	0.000000	0.001619	0.001657	28.0818	105.778	0.001770	59746.3	2.654773	173.139	531.574	1.116612	0.106400	0.105990	529.446	59746.3	0.099754	0.305776	1731.48	98714.8
1078	2.000000	1.117927	7.3756e+06	-54039.1	1055.82	-29744.6	0.000000	0.000000	7.140674	539.658	NaN	0.000000	0.001562	0.001657	28.0819	108.718	0.001774	61301.4	7.529094	167.663	536.018	1.117595	0.107305	0.106973	539.658	61301.4	0.100702	0.310962	1735.45	100436