File: remote_trans/data/nanoindenter/0828-1/data/Data_2025-08-06,11h17m57s/2025-07-22_16-23-58_1_110.txt
2025-07-22, 16:23:58, 1
Index	Phase	Displacement	Time	Pos X	Pos Y	Pos Z	Rot A	Rot B	Piezo Z	Force A	Force B	Gripper	Voltage A	Voltage B	Temperature	Amplitude force	Amplitude pos	Stiffness	Phase shift	Phase excitation	Force A raw	Displacement raw	HMax	HMax raw	Real Force	Real Stiffness	Contact Depth	Area	Hardness	Reduced Mod.
[#]	[#]	[um]	[s]	[um]	[um]	[um]	[m°]	[m°]	[um]	[uN]	[uN]	[V]	[V]	[V]	[°C]	[uN]	[um]	[N/m]	[°]	[°]	[uN]	[um]	[um]	[um]	[uN]	[N/m]	[um]	[um^2]	[MPa]	[MPa]
110	1.000000	0.002252	7.36611e+06	-44139.1	955.819	-29777.2	0.000000	0.000000	6.002791	0.047188	NaN	0.000000	0.001562	0.001653	28.1074	0.035645	0.000911	39.1078	-164.136	-163.142	-0.020186	0.000991	-1.047797	-1.049057	0.047188	39.1078	-1.048702	-1.025557E+14	-4.601245E-16	NaN
110	1.000000	0.010250	7.36611e+06	-44139.1	955.819	-29777.2	0.000000	0.000000	6.010786	-0.038925	NaN	0.000000	0.001622	0.001654	28.1068	0.103673	0.001071	96.7675	129.263	-162.115	-0.081308	0.008909	-1.039799	-1.041139	-0.038925	96.7675	-1.039497	-7.712646E+13	5.046894E-16	NaN
110	1.000000	0.018232	7.36611e+06	-44139.1	955.819	-29777.2	0.000000	0.000000	6.018767	-0.059042	NaN	0.000000	0.001570	0.001666	28.1055	0.045858	0.001810	25.339	-165.686	-165.924	0.089357	0.016905	-1.031817	-1.033143	-0.059042	25.339	-1.030069	-5.759837E+13	1.025067E-15	NaN
110	1.000000	0.026228	7.36611e+06	-44139.1	955.818	-29777.2	0.000000	0.000000	6.026767	0.012859	NaN	0.000000	0.001604	0.001620	28.1066	0.117565	0.001854	63.4047	-171.946	-167.097	0.001055	0.024921	-1.023820	-1.025127	0.012859	63.4047	-1.023972	-4.768627E+13	-2.696523E-16	NaN
110	1.000000	0.034225	7.36611e+06	-44139.1	955.818	-29777.2	0.000000	0.000000	6.034763	0.016862	NaN	0.000000	0.001632	0.001601	28.1063	0.058490	0.002032	28.7807	-69.4077	-166.628	-0.047192	0.032904	-1.015823	-1.017144	0.016862	28.7807	-1.016263	-3.755479E+13	-4.489985E-16	NaN
110	1.000000	0.042202	7.36611e+06	-44139.1	955.819	-29777.2	0.000000	0.000000	6.042738	-0.048767	NaN	0.000000	0.001558	0.001654	28.1052	0.078708	0.001963	40.0906	-170.281	-167.217	-0.070332	0.040921	-1.007846	-1.009127	-0.048767	40.0906	-1.006934	-2.812648E+13	1.733830E-15	NaN
110	1.000000	0.050196	7.36611e+06	-44139.1	955.819	-29777.2	0.000000	0.000000	6.050731	-0.075198	NaN	0.000000	0.001623	0.001671	28.105	0.042928	0.001936	22.176	-97.9767	-164.364	-0.087301	0.048912	-0.999852	-1.001136	-0.075198	22.176	-0.997309	-2.087045E+13	3.603071E-15	NaN
110	1.000000	0.058210	7.36611e+06	-44139.1	955.818	-29777.2	0.000000	0.000000	6.058750	0.039232	NaN	0.000000	0.001598	0.001617	28.1053	0.031534	0.002079	15.166	167.68	-167.931	0.029984	0.056923	-0.991838	-0.993125	0.039232	15.166	-0.993778	-1.870649E+13	-2.097241E-15	NaN
110	1.000000	0.066212	7.36611e+06	-44139.1	955.819	-29777.2	0.000000	0.000000	6.066747	-0.053993	NaN	0.000000	0.001629	0.001604	28.1052	0.123380	0.001982	62.238	118.913	-166.794	-0.021595	0.064867	-0.983837	-0.985182	-0.053993	62.238	-0.983186	-1.346889E+13	4.008726E-15	NaN
110	1.000000	0.074221	7.36611e+06	-44139.1	955.818	-29777.2	0.000000	0.000000	6.074762	0.089441	NaN	0.000000	0.001606	0.001659	28.1052	0.038208	0.001995	19.1518	157.746	-167.316	0.073360	0.072888	-0.975827	-0.977160	0.089441	19.1518	-0.979330	-1.195037E+13	-7.484343E-15	NaN
110	1.000000	0.082234	7.36611e+06	-44139.1	955.819	-29777.2	0.000000	0.000000	6.082770	-0.034905	NaN	0.000000	0.001586	0.001618	28.1066	0.096727	0.001848	52.3547	-110.704	-161.228	-0.016164	0.080842	-0.967814	-0.969206	-0.034905	52.3547	-0.967314	-8.231241E+12	4.240591E-15	NaN
110	1.000000	0.090214	7.36611e+06	-44139.1	955.819	-29777.2	0.000000	0.000000	6.090754	0.052674	NaN	0.000000	0.001627	0.001682	28.1074	0.052607	0.001977	26.6156	-82.406	-164.172	0.060947	0.088908	-0.959834	-0.961140	0.052674	26.6156	-0.961319	-6.833526E+12	-7.708103E-15	NaN
110	1.000000	0.098263	7.36611e+06	-44139.1	955.818	-29777.2	0.000000	0.000000	6.098799	-0.040229	NaN	0.000000	0.001573	0.001665	28.1068	0.035252	0.001947	18.1084	97.2932	-168.102	0.015630	0.096909	-0.951785	-0.953140	-0.040229	18.1084	-0.950119	-4.826519E+12	8.335009E-15	NaN
110	1.000000	0.106259	7.36611e+06	-44139.1	955.819	-29777.2	0.000000	0.000000	6.106798	0.029373	NaN	0.000000	0.001567	0.001712	28.1074	0.079677	0.002128	37.443	89.3166	-165.165	-0.054592	0.104926	-0.943789	-0.945123	0.029373	37.443	-0.944377	-4.038198E+12	-7.273714E-15	NaN
110	1.000000	0.114245	7.36611e+06	-44139.1	955.819	-29777.2	0.000000	0.000000	6.114783	0.014688	NaN	0.000000	0.001634	0.001653	28.1071	0.071043	0.001942	36.5739	21.8338	-166.401	-0.019045	0.112910	-0.935803	-0.937138	0.014688	36.5739	-0.936105	-3.123043E+12	-4.703079E-15	NaN
110	1.000000	0.122263	7.36611e+06	-44139.1	955.818	-29777.2	0.000000	0.000000	6.122803	0.046378	NaN	0.000000	0.001630	0.001673	28.1054	0.014813	0.002102	7.047503	92.8394	-164.765	0.095754	0.120976	-0.927785	-0.929072	0.046378	7.047503	-0.932720	-2.811329E+12	-1.649681E-14	NaN
110	1.000000	0.130271	7.36611e+06	-44139.1	955.818	-29777.2	0.000000	0.000000	6.130808	-0.012102	NaN	0.000000	0.001656	0.001700	28.1058	0.086174	0.001946	44.272	83.6466	-165.832	-0.028906	0.128948	-0.919777	-0.921101	-0.012102	44.272	-0.919572	-1.868230E+12	6.478037E-15	NaN
110	1.000000	0.138239	7.36611e+06	-44139.1	955.818	-29777.2	0.000000	0.000000	6.138777	0.005490	NaN	0.000000	0.001680	0.001700	28.1072	0.061396	0.002143	28.6499	68.0082	-169.508	0.023279	0.136923	-0.911809	-0.913126	0.005490	28.6499	-0.911953	-1.474143E+12	-3.723876E-15	NaN
110	1.000000	0.146240	7.36611e+06	-44139.1	955.819	-29777.2	0.000000	0.000000	6.146777	-0.016439	NaN	0.000000	0.001587	0.001678	28.1075	0.021089	0.001988	10.6082	-162.275	-168.975	0.018829	0.144943	-0.903809	-0.905105	-0.016439	10.6082	-0.902646	-1.103628E+12	1.489584E-14	NaN
110	1.000000	0.154274	7.36611e+06	-44139.1	955.819	-29777.2	0.000000	0.000000	6.154811	-0.009051	NaN	0.000000	0.001607	0.001713	28.1077	0.032054	0.001966	16.3021	75.5984	-162.79	0.049476	0.152953	-0.895774	-0.897096	-0.009051	16.3021	-0.895358	-8.796960E+11	1.028899E-14	NaN
110	1.000000	0.162252	7.36611e+06	-44139.1	955.818	-29777.2	0.000000	0.000000	6.162788	-0.033462	NaN	0.000000	0.001588	0.001699	28.1086	0.025555	0.001953	13.0877	16.0868	-165.089	-0.001819	0.160943	-0.887796	-0.889105	-0.033462	13.0877	-0.885879	-6.549393E+11	5.109136E-14	NaN
110	1.000000	0.170237	7.36611e+06	-44139.1	955.819	-29777.2	0.000000	0.000000	6.170774	-0.007757	NaN	0.000000	0.001576	0.001664	28.1079	0.018291	0.002004	9.129113	-138.003	-168.754	-0.034970	0.168968	-0.879812	-0.881080	-0.007757	9.129113	-0.879174	-5.315484E+11	1.459262E-14	NaN
110	1.000000	0.178235	7.36611e+06	-44139.1	955.818	-29777.2	0.000000	0.000000	6.178772	-0.025903	NaN	0.000000	0.001606	0.001663	28.1075	0.033081	0.002098	15.7665	-118.414	-164.859	-0.058137	0.176983	-0.871813	-0.873066	-0.025903	15.7665	-0.870581	-4.067263E+11	6.368715E-14	NaN
110	1.000000	0.186231	7.36611e+06	-44139.1	955.818	-29777.2	0.000000	0.000000	6.186769	0.006014	NaN	0.000000	0.001635	0.001668	28.1078	0.053279	0.002028	26.2755	88.3334	-163.984	0.058403	0.184938	-0.863817	-0.865110	0.006014	26.2755	-0.863989	-3.312124E+11	-1.815752E-14	NaN
110	1.000000	0.194262	7.36611e+06	-44139.1	955.819	-29777.2	0.000000	0.000000	6.194800	0.011456	NaN	0.000000	0.001593	0.001668	28.1085	0.063469	0.001881	33.7446	166.31	-165.265	0.027665	0.192913	-0.855786	-0.857136	0.011456	33.7446	-0.856041	-2.585383E+11	-4.431219E-14	NaN
110	1.000000	0.202283	7.36611e+06	-44139.1	955.819	-29777.2	0.000000	0.000000	6.202818	-0.060393	NaN	0.000000	0.001582	0.001699	28.107	0.077858	0.002014	38.6625	-95.3559	-166.176	-0.035483	0.200968	-0.847766	-0.849081	-0.060393	38.6625	-0.846594	-1.925811E+11	3.135993E-13	NaN
110	1.000000	0.210292	7.36612e+06	-44139.1	955.818	-29777.2	0.000000	0.000000	6.210831	0.019321	NaN	0.000000	0.001574	0.001711	28.1074	0.022177	0.002001	11.0844	-112.905	-167.094	-0.062512	0.208997	-0.839756	-0.841051	0.019321	11.0844	-0.841063	-1.620685E+11	-1.192170E-13	NaN
110	1.000000	0.218280	7.36612e+06	-44139.1	955.819	-29777.2	0.000000	0.000000	6.218818	0.001720	NaN	0.000000	0.001594	0.001679	28.1076	0.147166	0.001907	77.1825	-81.2154	-168.145	0.017358	0.216931	-0.831768	-0.833118	0.001720	77.1825	-0.831785	-1.213314E+11	-1.418007E-14	NaN
110	1.000000	0.226313	7.36612e+06	-44139.1	955.818	-29777.2	0.000000	0.000000	6.226854	0.087567	NaN	0.000000	0.001598	0.001694	28.1072	0.091200	0.002024	45.0488	-44.0704	-165.35	0.054507	0.224971	-0.823735	-0.825078	0.087567	45.0488	-0.825193	-9.877055E+10	-8.865652E-13	NaN
110	1.000000	0.234293	7.36612e+06	-44139.1	955.818	-29777.2	0.000000	0.000000	6.234829	-0.040027	NaN	0.000000	0.001598	0.001703	28.1077	0.047945	0.002163	22.1654	-48.887	-163.761	0.055986	0.233019	-0.815755	-0.817029	-0.040027	22.1654	-0.814401	-7.051357E+10	5.676452E-13	NaN
110	1.000000	0.242292	7.36612e+06	-44139.1	955.818	-29777.2	0.000000	0.000000	6.242831	0.027143	NaN	0.000000	0.001560	0.001669	28.1083	0.134703	0.002033	66.2438	-164.356	-164.396	0.076770	0.241004	-0.807756	-0.809045	0.027143	66.2438	-0.808063	-5.784843E+10	-4.692144E-13	NaN
110	1.000000	0.250305	7.36612e+06	-44139.1	955.818	-29777.2	0.000000	0.000000	6.250844	0.041780	NaN	0.000000	0.001572	0.001699	28.1092	0.109382	0.001928	56.7188	30.0874	-164.451	0.117058	0.248965	-0.799743	-0.801083	0.041780	56.7188	-0.800296	-4.538131E+10	-9.206452E-13	NaN
110	1.000000	0.258297	7.36612e+06	-44139.1	955.819	-29777.2	0.000000	0.000000	6.258833	-0.045881	NaN	0.000000	0.001563	0.001697	28.1089	0.150324	0.001948	77.1772	59.0598	-165.669	-0.035303	0.256963	-0.791751	-0.793085	-0.045881	77.1772	-0.791305	-3.426179E+10	1.339138E-12	NaN
110	1.000000	0.266339	7.36612e+06	-44139.1	955.818	-29777.2	0.000000	0.000000	6.266875	-0.031725	NaN	0.000000	0.001585	0.001685	28.1093	0.087787	0.002022	43.4077	-16.3848	-166.117	-0.008202	0.264998	-0.783709	-0.785051	-0.031725	43.4077	-0.783161	-2.655748E+10	1.194567E-12	NaN
110	1.000000	0.274298	7.36612e+06	-44139.1	955.819	-29777.2	0.000000	0.000000	6.274835	-0.003265	NaN	0.000000	0.001603	0.001708	28.1079	0.033300	0.001937	17.195	105.67	-165.817	-0.036107	0.273012	-0.775750	-0.777036	-0.003265	17.195	-0.775608	-2.096731E+10	1.557318E-13	NaN
110	1.000000	0.282342	7.36612e+06	-44139.1	955.818	-29777.2	0.000000	0.000000	6.282883	0.077250	NaN	0.000000	0.001605	0.001689	28.1066	0.087027	0.001898	45.8629	132.795	-167.111	0.104357	0.281013	-0.767706	-0.769036	0.077250	45.8629	-0.768969	-1.703295E+10	-4.535316E-12	NaN
110	1.000000	0.290290	7.36612e+06	-44139.1	955.818	-29777.2	0.000000	0.000000	6.290827	-0.022625	NaN	0.000000	0.001598	0.001736	28.1076	0.106130	0.001984	53.4799	131.815	-167.865	-0.070591	0.288996	-0.759758	-0.761053	-0.022625	53.4799	-0.759441	-1.263861E+10	1.790182E-12	NaN
110	1.000000	0.298333	7.36612e+06	-44139.1	955.818	-29777.2	0.000000	0.000000	6.298871	-0.006395	NaN	0.000000	0.001611	0.001707	28.107	0.063975	0.001877	34.0831	79.2273	-166.264	-0.050477	0.297027	-0.751715	-0.753021	-0.006395	34.0831	-0.751574	-9.877543E+9	6.474328E-13	NaN
110	1.000000	0.306335	7.36612e+06	-44139.1	955.819	-29777.2	0.000000	0.000000	6.306873	0.014725	NaN	0.000000	0.001591	0.001691	28.1064	0.070786	0.001929	36.6933	-36.9039	-165.484	0.026924	0.305081	-0.743714	-0.744967	0.014725	36.6933	-0.744015	-7.793443E+9	-1.889395E-12	NaN
110	1.000000	0.314320	7.36612e+06	-44139.1	955.819	-29777.2	0.000000	0.000000	6.314859	0.047818	NaN	0.000000	0.001608	0.001689	28.1071	0.063339	0.002034	31.1476	-12.9878	-165.86	0.044830	0.312981	-0.735729	-0.737068	0.047818	31.1476	-0.736880	-6.230999E+9	-7.674248E-12	NaN
110	1.000000	0.322326	7.36612e+06	-44139.1	955.819	-29777.2	0.000000	0.000000	6.322863	-0.032472	NaN	0.000000	0.001586	0.001723	28.1073	0.107309	0.002064	52.0027	173.936	-167.874	-0.031439	0.321065	-0.727722	-0.728983	-0.032472	52.0027	-0.727254	-4.606519E+9	7.049175E-12	NaN
110	1.000000	0.330313	7.36612e+06	-44139.1	955.818	-29777.2	0.000000	0.000000	6.330851	0.008879	NaN	0.000000	0.001591	0.001700	28.1079	0.057040	0.002002	28.4924	-136.647	-165.642	0.023563	0.329035	-0.719735	-0.721013	0.008879	28.4924	-0.719969	-3.664785E+9	-2.422850E-12	NaN
110	1.000000	0.338333	7.36612e+06	-44139.1	955.819	-29777.2	0.000000	0.000000	6.338872	0.030976	NaN	0.000000	0.001572	0.001686	28.108	0.055620	0.001989	27.959	-64.3839	-165.078	0.036705	0.337015	-0.711715	-0.713033	0.030976	27.959	-0.712546	-2.902638E+9	-1.067153E-11	NaN
110	1.000000	0.346367	7.36612e+06	-44139.1	955.819	-29777.2	0.000000	0.000000	6.346904	-0.030243	NaN	0.000000	0.001543	0.001716	28.1081	0.078660	0.001930	40.7486	-68.2863	-167.575	-0.005757	0.345040	-0.703681	-0.705008	-0.030243	40.7486	-0.703124	-2.158703E+9	1.400965E-11	NaN
110	1.000000	0.354320	7.36612e+06	-44139.1	955.818	-29777.2	0.000000	0.000000	6.354859	0.010466	NaN	0.000000	0.001546	0.001695	28.1082	0.063477	0.002127	29.8428	-76.765	-166.058	0.025720	0.353045	-0.695728	-0.697004	0.010466	29.8428	-0.695991	-1.724942E+9	-6.067617E-12	NaN
110	1.000000	0.362383	7.36612e+06	-44139.1	955.818	-29777.2	0.000000	0.000000	6.362920	-0.013459	NaN	0.000000	0.001556	0.001672	28.107	0.181995	0.001864	97.6512	47.2194	-170.049	0.059639	0.361006	-0.687665	-0.689042	-0.013459	97.6512	-0.687562	-1.323103E+9	1.017223E-11	NaN
110	1.000000	0.370329	7.36612e+06	-44139.1	955.818	-29777.2	0.000000	0.000000	6.370865	-0.043710	NaN	0.000000	0.001555	0.001683	28.1068	0.094117	0.001962	47.9744	-178.25	-163.701	-0.022480	0.369026	-0.679719	-0.681022	-0.043710	47.9744	-0.679036	-1.011619E+9	4.320785E-11	NaN
110	1.000000	0.378361	7.36612e+06	-44139.1	955.818	-29777.2	0.000000	0.000000	6.378898	-0.021789	NaN	0.000000	0.001546	0.001674	28.1075	0.068085	0.001990	34.2213	-169.826	-166.709	0.045942	0.377092	-0.671687	-0.672956	-0.021789	34.2213	-0.671209	-7.905713E+8	2.756161E-11	NaN
110	1.000000	0.386386	7.36612e+06	-44139.1	955.818	-29777.2	0.000000	0.000000	6.386923	-0.006129	NaN	0.000000	0.001600	0.001669	28.1071	0.083155	0.001926	43.1749	7.071308	-167.165	0.066171	0.385042	-0.663662	-0.665006	-0.006129	43.1749	-0.663556	-6.211121E+8	9.867093E-12	NaN
110	1.000000	0.394354	7.36612e+06	-44139.1	955.818	-29777.2	0.000000	0.000000	6.394893	0.029108	NaN	0.000000	0.001573	0.001701	28.1079	0.094920	0.002009	47.2471	-156.376	-165.893	-0.008457	0.393023	-0.655694	-0.657025	0.029108	47.2471	-0.656156	-4.918244E+8	-5.918328E-11	NaN
110	1.000000	0.402357	7.36612e+06	-44139.1	955.818	-29777.2	0.000000	0.000000	6.402895	-0.005648	NaN	0.000000	0.001577	0.001682	28.1082	0.059041	0.002008	29.4016	126.256	-163.764	-0.035812	0.401051	-0.647691	-0.648997	-0.005648	29.4016	-0.647547	-3.748054E+8	1.506939E-11	NaN
110	1.000000	0.410379	7.36612e+06	-44139.1	955.819	-29777.2	0.000000	0.000000	6.410917	0.001929	NaN	0.000000	0.001586	0.001702	28.1093	0.050829	0.002068	24.5775	-36.986	-167.37	0.028284	0.409122	-0.639669	-0.640926	0.001929	24.5775	-0.639728	-2.927878E+8	-6.588564E-12	NaN
110	1.000000	0.418403	7.36612e+06	-44139.1	955.818	-29777.2	0.000000	0.000000	6.418941	-0.006861	NaN	0.000000	0.001569	0.001703	28.11	0.030045	0.002049	14.6599	90.5354	-170.038	-0.027933	0.417049	-0.631645	-0.632999	-0.006861	14.6599	-0.631294	-2.242804E+8	3.059125E-11	NaN
110	1.000000	0.426373	7.36612e+06	-44139.1	955.818	-29777.2	0.000000	0.000000	6.426910	-0.027322	NaN	0.000000	0.001561	0.001713	28.1091	0.085078	0.001998	42.5812	32.1592	-164.797	-0.024471	0.425087	-0.623675	-0.624961	-0.027322	42.5812	-0.623194	-1.735927E+8	1.573923E-10	NaN
110	1.000000	0.434376	7.36612e+06	-44139.1	955.819	-29777.2	0.000000	0.000000	6.434915	0.038608	NaN	0.000000	0.001569	0.001701	28.1098	0.053613	0.002087	25.6942	112.071	-166.564	0.067175	0.433110	-0.615672	-0.616939	0.038608	25.6942	-0.616799	-1.417856E+8	-2.723018E-10	NaN
110	1.000000	0.442397	7.36612e+06	-44139.1	955.818	-29777.2	0.000000	0.000000	6.442938	0.074002	NaN	0.000000	0.001556	0.001706	28.1089	0.072268	0.002066	34.9876	-110.528	-163.771	0.053698	0.441044	-0.607651	-0.609005	0.074002	34.9876	-0.609237	-1.115885E+8	-6.631665E-10	NaN
110	1.000000	0.450388	7.36612e+06	-44139.1	955.819	-29777.2	0.000000	0.000000	6.450924	-0.022681	NaN	0.000000	0.001578	0.001686	28.1082	0.095431	0.002100	45.4469	22.1619	-167.187	-0.023092	0.449115	-0.599661	-0.600933	-0.022681	45.4469	-0.599286	-8.140129E+7	2.786290E-10	NaN
110	1.000000	0.458378	7.36612e+06	-44139.1	955.818	-29777.2	0.000000	0.000000	6.458916	-0.011971	NaN	0.000000	0.001588	0.001686	28.1092	0.050194	0.001988	25.2491	-111.892	-163.008	0.092020	0.457037	-0.591670	-0.593011	-0.011971	25.2491	-0.591314	-6.321012E+7	1.893778E-10	NaN
110	1.000000	0.466408	7.36612e+06	-44139.1	955.818	-29777.2	0.000000	0.000000	6.466944	-0.045079	NaN	0.000000	0.001572	0.001726	28.1086	0.038390	0.002082	18.4382	-92.3817	-166.692	-0.071011	0.465039	-0.583640	-0.585009	-0.045079	18.4382	-0.581807	-4.673679E+7	9.645238E-10	NaN
110	1.000000	0.474400	7.36612e+06	-44139.1	955.819	-29777.2	0.000000	0.000000	6.474939	0.029282	NaN	0.000000	0.001608	0.001710	28.1086	0.144817	0.002072	69.8806	-73.7478	-167.733	0.036192	0.473051	-0.575649	-0.576997	0.029282	69.8806	-0.575963	-3.881459E+7	-7.544116E-10	NaN
110	1.000000	0.482393	7.36612e+06	-44139.1	955.818	-29777.2	0.000000	0.000000	6.482932	0.033491	NaN	0.000000	0.001592	0.001684	28.1104	0.043592	0.002006	21.7313	-47.4086	-167.592	0.040432	0.481141	-0.567655	-0.568908	0.033491	21.7313	-0.568811	-3.091752E+7	-1.083244E-9	NaN
110	1.000000	0.490396	7.36612e+06	-44139.1	955.819	-29777.2	0.000000	0.000000	6.490935	0.032248	NaN	0.000000	0.001580	0.001698	28.1095	0.051134	0.002101	24.3392	-143.677	-168.429	-0.037653	0.489140	-0.559652	-0.560908	0.032248	24.3392	-0.560646	-2.384047E+7	-1.352645E-9	NaN
110	1.000000	0.498411	7.36612e+06	-44139.1	955.819	-29777.2	0.000000	0.000000	6.498947	-0.051061	NaN	0.000000	0.001561	0.001709	28.1108	0.066407	0.002021	32.8631	-165.044	-164.701	-0.002030	0.497105	-0.551637	-0.552944	-0.051061	32.8631	-0.550472	-1.723799E+7	2.962119E-9	NaN
110	1.000000	0.506429	7.36612e+06	-44139.1	955.819	-29777.2	0.000000	0.000000	6.506967	0.015534	NaN	0.000000	0.001540	0.001730	28.1094	0.103094	0.001942	53.0956	167.341	-165.288	-0.075509	0.505104	-0.543619	-0.544944	0.015534	53.0956	-0.543839	-1.395030E+7	-1.113556E-9	NaN
110	1.000000	0.514421	7.36612e+06	-44139.1	955.818	-29777.2	0.000000	0.000000	6.514959	0.011570	NaN	0.000000	0.001559	0.001702	28.1107	0.079901	0.001932	41.3575	-16.5574	-167.504	-0.072407	0.513101	-0.535627	-0.536947	0.011570	41.3575	-0.535837	-1.080462E+7	-1.070801E-9	NaN
110	1.000000	0.522421	7.36612e+06	-44139.1	955.819	-29777.2	0.000000	0.000000	6.522960	0.041068	NaN	0.000000	0.001546	0.001697	28.1096	0.113021	0.002066	54.6946	-151.927	-164.953	-0.039805	0.521171	-0.527627	-0.528877	0.041068	54.6946	-0.528190	-8.46135e+06	-4.853574E-9	NaN
110	1.000000	0.530417	7.36612e+06	-44139.1	955.819	-29777.2	0.000000	0.000000	6.530954	-0.024530	NaN	0.000000	0.001531	0.001693	28.1091	0.036367	0.001980	18.3704	-33.6037	-164.19	-0.003782	0.529102	-0.519631	-0.520946	-0.024530	18.3704	-0.518630	-6.23078e+06	3.936828E-9	NaN
110	1.000000	0.538418	7.36612e+06	-44139.1	955.818	-29777.2	0.000000	0.000000	6.538954	-0.037488	NaN	0.000000	0.001546	0.001713	28.1093	0.031219	0.001921	16.2502	152.694	-165.893	-0.060260	0.537098	-0.511630	-0.512950	-0.037488	16.2502	-0.509900	-4.71005e+06	7.959131E-9	NaN
110	1.000000	0.546422	7.36612e+06	-44139.1	955.818	-29777.2	0.000000	0.000000	6.546959	-0.005887	NaN	0.000000	0.001525	0.001759	28.1079	0.056749	0.001912	29.6879	78.4382	-167.483	-0.044005	0.545085	-0.503626	-0.504963	-0.005887	29.6879	-0.503478	-3.83285e+06	1.535845E-9	NaN
110	1.000000	0.554452	7.36612e+06	-44139.1	955.819	-29777.2	0.000000	0.000000	6.554992	0.039145	NaN	0.000000	0.001542	0.001750	28.1081	0.084232	0.001995	42.2249	161.737	-164.396	0.017456	0.553150	-0.495596	-0.496899	0.039145	42.2249	-0.496291	-3.04273e+06	-1.286492E-8	NaN
110	1.000000	0.562432	7.36612e+06	-44139.1	955.818	-29777.2	0.000000	0.000000	6.562970	0.010917	NaN	0.000000	0.001546	0.001711	28.1097	0.039359	0.002023	19.4525	-79.3072	-166.713	-0.027117	0.561077	-0.487616	-0.488971	0.010917	19.4525	-0.488037	-2.33323e+06	-4.678954E-9	NaN
110	1.000000	0.570424	7.36612e+06	-44139.1	955.818	-29777.2	0.000000	0.000000	6.570962	-0.008940	NaN	0.000000	0.001532	0.001684	28.1092	0.056978	0.002013	28.3031	-61.4694	-168.35	-0.024056	0.569147	-0.479624	-0.480901	-0.008940	28.3031	-0.479387	-1.76582e+06	5.062573E-9	NaN
110	1.000000	0.578414	7.36612e+06	-44139.1	955.818	-29777.2	0.000000	0.000000	6.578957	0.116304	NaN	0.000000	0.001551	0.001681	28.1097	0.041652	0.001916	21.7385	163.572	-166.495	0.046079	0.577187	-0.471634	-0.472861	0.116304	21.7385	-0.475647	-1.56516e+06	-7.430829E-8	NaN
110	1.000000	0.586456	7.36612e+06	-44139.1	955.819	-29777.2	0.000000	0.000000	6.586993	-0.019895	NaN	0.000000	0.001549	0.001685	28.1094	0.074959	0.002010	37.2923	126.058	-165.66	0.027596	0.585179	-0.463592	-0.464870	-0.019895	37.2923	-0.463192	-1.04679e+06	1.900575E-8	NaN
110	1.000000	0.594434	7.36612e+06	-44139.1	955.818	-29777.2	0.000000	0.000000	6.594971	-0.006681	NaN	0.000000	0.001560	0.001702	28.1096	0.035428	0.002107	16.8158	62.4202	-168.255	0.122919	0.593145	-0.455614	-0.456903	-0.006681	16.8158	-0.455316	-811274	8.235383E-9	NaN
110	1.000000	0.602453	7.36612e+06	-44139.1	955.818	-29777.2	0.000000	0.000000	6.602991	0.018964	NaN	0.000000	0.001562	0.001734	28.1085	0.024949	0.001936	12.8887	173.237	-171.019	-0.060605	0.601163	-0.447595	-0.448885	0.018964	12.8887	-0.448699	-654663	-2.896727E-8	NaN
110	1.000000	0.610475	7.36612e+06	-44139.1	955.819	-29777.2	0.000000	0.000000	6.611012	-0.008934	NaN	0.000000	0.001580	0.001690	28.1086	0.099004	0.002108	46.9689	115.097	-165.972	-0.009564	0.609162	-0.439573	-0.440886	-0.008934	46.9689	-0.439431	-484540	1.843860E-8	NaN
110	1.000000	0.618463	7.36612e+06	-44139.1	955.818	-29777.2	0.000000	0.000000	6.619000	-0.002956	NaN	0.000000	0.001547	0.001711	28.1083	0.108962	0.001936	56.2692	-55.8836	-164.419	0.018798	0.617144	-0.431586	-0.432905	-0.002956	56.2692	-0.431546	-374915	7.883247E-9	NaN
110	1.000000	0.626487	7.36612e+06	-44139.1	955.819	-29777.2	0.000000	0.000000	6.627022	-0.087536	NaN	0.000000	0.001610	0.001723	28.1083	0.092577	0.001979	46.7773	-45.6219	-165.661	-0.034122	0.625180	-0.423561	-0.424868	-0.087536	46.7773	-0.422157	-276059	3.170909E-7	NaN
110	1.000000	0.634453	7.36612e+06	-44139.1	955.819	-29777.2	0.000000	0.000000	6.634990	-0.020961	NaN	0.000000	0.001563	0.001711	28.1089	0.042140	0.002031	20.752	6.851097	-166.143	-0.064978	0.633182	-0.415595	-0.416866	-0.020961	20.752	-0.414837	-217343	9.644307E-8	NaN
110	1.000000	0.642453	7.36612e+06	-44139.1	955.819	-29777.2	0.000000	0.000000	6.642993	0.042457	NaN	0.000000	0.001562	0.001704	28.1103	0.016088	0.001976	8.142868	129.7	-165.247	0.005941	0.641161	-0.407595	-0.408888	0.042457	8.142868	-0.411506	-194898	-2.178425E-7	NaN
110	1.000000	0.650480	7.36612e+06	-44139.1	955.818	-29777.2	0.000000	0.000000	6.651018	0.000166	NaN	0.000000	0.001590	0.001668	28.1098	0.060303	0.001901	31.7174	-43.0338	-169.385	0.030816	0.649172	-0.399568	-0.400876	0.000166	31.7174	-0.399572	-131793	-1.259918E-9	NaN
110	1.000000	0.658463	7.36612e+06	-44139.1	955.818	-29777.2	0.000000	0.000000	6.659001	0.013304	NaN	0.000000	0.001539	0.001665	28.11	0.084631	0.001971	42.9469	-56.6299	-165.795	0.094013	0.657168	-0.391586	-0.392881	0.013304	42.9469	-0.391818	-102133	-1.302602E-7	NaN
110	1.000000	0.666479	7.36612e+06	-44139.1	955.818	-29777.2	0.000000	0.000000	6.667015	-0.031236	NaN	0.000000	0.001538	0.001713	28.1096	0.048276	0.001912	25.2523	-73.1457	-164.643	-0.006315	0.665176	-0.383570	-0.384872	-0.031236	25.2523	-0.382642	-75472.3	4.138800E-7	NaN
110	1.000000	0.674486	7.36612e+06	-44139.1	955.818	-29777.2	0.000000	0.000000	6.675023	-0.016470	NaN	0.000000	0.001570	0.001702	28.1095	0.078507	0.002035	38.5759	-172.401	-167.558	-0.004137	0.673130	-0.375563	-0.376918	-0.016470	38.5759	-0.375243	-59095.9	2.786945E-7	NaN
110	1.000000	0.682481	7.36612e+06	-44139.1	955.819	-29777.2	0.000000	0.000000	6.683021	0.061525	NaN	0.000000	0.001598	0.001707	28.1104	0.056875	0.001951	29.1444	-6.548066	-168.68	0.074468	0.681147	-0.367567	-0.368901	0.061525	29.1444	-0.369150	-48293.7	-1.273967E-6	NaN
110	1.000000	0.690505	7.36612e+06	-44139.1	955.819	-29777.2	0.000000	0.000000	6.691041	-0.050232	NaN	0.000000	0.001583	0.001706	28.1097	0.045198	0.002063	21.9057	-117.369	-165.623	-0.066178	0.689163	-0.359543	-0.360885	-0.050232	21.9057	-0.357823	-33141.2	1.515687E-6	NaN
110	1.000000	0.698490	7.36612e+06	-44139.1	955.819	-29777.2	0.000000	0.000000	6.699027	-0.003404	NaN	0.000000	0.001608	0.001697	28.11	0.053223	0.001979	26.9007	31.1867	-167.753	0.015089	0.697155	-0.351559	-0.352894	-0.003404	26.9007	-0.351464	-26806.6	1.269823E-7	NaN
110	1.000000	0.706486	7.36612e+06	-44139.1	955.819	-29777.2	0.000000	0.000000	6.707026	0.043773	NaN	0.000000	0.001583	0.001691	28.1101	0.049434	0.002037	24.2718	-104.897	-164.83	0.004824	0.705209	-0.343562	-0.344839	0.043773	24.2718	-0.344915	-21533.6	-2.032788E-6	NaN
110	1.000000	0.714504	7.36612e+06	-44139.1	955.818	-29777.2	0.000000	0.000000	6.715043	0.021012	NaN	0.000000	0.001568	0.001691	28.1098	0.069580	0.001894	36.7328	-160.663	-165.402	-0.043000	0.713222	-0.335544	-0.336826	0.021012	36.7328	-0.335973	-15951.6	-1.317229E-6	NaN
110	1.000000	0.722502	7.36612e+06	-44139.1	955.818	-29777.2	0.000000	0.000000	6.723039	-0.003655	NaN	0.000000	0.001553	0.001721	28.1107	0.047141	0.002012	23.4302	127.341	-163.274	-0.058959	0.721165	-0.327547	-0.328883	-0.003655	23.4302	-0.327430	-11961.5	3.055507E-7	NaN
110	1.000000	0.730519	7.36612e+06	-44139.1	955.818	-29777.2	0.000000	0.000000	6.731058	0.014540	NaN	0.000000	0.001590	0.001716	28.1113	0.075586	0.002079	36.3496	-93.2699	-169.976	0.114634	0.729243	-0.319529	-0.320806	0.014540	36.3496	-0.319829	-9249.58	-1.572003E-6	NaN
110	1.000000	0.738511	7.36612e+06	-44139.1	955.818	-29777.2	0.000000	0.000000	6.739050	0.037348	NaN	0.000000	0.001556	0.001732	28.1115	0.074627	0.002018	36.9788	57.1724	-166.248	0.020553	0.737209	-0.311538	-0.312839	0.037348	36.9788	-0.312295	-7161.43	-5.215091E-6	NaN
110	1.000000	0.746493	7.36612e+06	-44139.1	955.819	-29777.2	0.000000	0.000000	6.747029	-0.036748	NaN	0.000000	0.001611	0.001685	28.1113	0.062304	0.002042	30.507	-89.0172	-167.046	-0.003423	0.745206	-0.303555	-0.304843	-0.036748	30.507	-0.302652	-5153.26	7.130997E-6	NaN
110	1.000000	0.754536	7.36612e+06	-44139.1	955.819	-29777.2	0.000000	0.000000	6.755074	-0.000133	NaN	0.000000	0.001562	0.001682	28.111	0.020464	0.002057	9.950336	1.724044	-171.006	0.030347	0.753225	-0.295512	-0.296824	-0.000133	9.950336	-0.295502	-4032.62	3.295527E-8	NaN
110	1.000000	0.762486	7.36612e+06	-44139.1	955.818	-29777.2	0.000000	0.000000	6.763022	-0.055206	NaN	0.000000	0.001564	0.001683	28.1101	0.069890	0.002052	34.0655	149.281	-163.788	-0.024672	0.761168	-0.287562	-0.288880	-0.055206	34.0655	-0.286347	-2941.04	1.877094E-5	NaN
110	1.000000	0.770514	7.36612e+06	-44139.1	955.818	-29777.2	0.000000	0.000000	6.771051	-0.021652	NaN	0.000000	0.001562	0.001668	28.1111	0.001952	0.001860	1.049683	-133.874	-164.618	-0.031341	0.769188	-0.279535	-0.280860	-0.021652	1.049683	-0.264065	-1352.4	1.600970E-5	NaN
110	1.000000	0.778525	7.36612e+06	-44139.1	955.819	-29777.2	0.000000	0.000000	6.779063	1.987838E-5	NaN	0.000000	0.001537	0.001713	28.1108	0.112007	0.002146	52.1885	-50.0193	-166.972	0.001929	0.777203	-0.271523	-0.272845	1.987838E-5	52.1885	-0.271524	-1756.67	-1.131596E-8	NaN
110	1.000000	0.786502	7.36612e+06	-44139.1	955.818	-29777.2	0.000000	0.000000	6.787038	-0.030440	NaN	0.000000	0.001564	0.001684	28.1101	0.079775	0.002024	39.4182	143.066	-164.857	-0.030365	0.785248	-0.263547	-0.264800	-0.030440	39.4182	-0.262967	-1301.19	2.339426E-5	NaN
110	1.000000	0.794551	7.36612e+06	-44139.1	955.819	-29777.2	0.000000	0.000000	6.795089	-0.001412	NaN	0.000000	0.001539	0.001679	28.1102	0.114148	0.001960	58.2461	-106.21	-168.434	0.059173	0.793168	-0.255497	-0.256880	-0.001412	58.2461	-0.255479	-998.823	1.413672E-6	NaN
110	1.000000	0.802526	7.36612e+06	-44139.1	955.818	-29777.2	0.000000	0.000000	6.803064	0.012307	NaN	0.000000	0.001579	0.001691	28.1116	0.105323	0.002009	52.429	176.611	-164.567	0.097808	0.801210	-0.247523	-0.248838	0.012307	52.429	-0.247699	-757.419	-1.624885E-5	NaN
110	1.000000	0.810518	7.36612e+06	-44139.1	955.818	-29777.2	0.000000	0.000000	6.811055	-0.005009	NaN	0.000000	0.001580	0.001682	28.1117	0.088072	0.001957	45.0094	-41.7984	-166.013	0.000647	0.809231	-0.239530	-0.240817	-0.005009	45.0094	-0.239447	-563.525	8.889552E-6	NaN
110	1.000000	0.818521	7.36612e+06	-44139.1	955.819	-29777.2	0.000000	0.000000	6.819059	0.003333	NaN	0.000000	0.001647	0.001659	28.1105	0.048723	0.001946	25.0325	44.7134	-166.28	0.022890	0.817214	-0.231527	-0.232834	0.003333	25.0325	-0.231627	-424.799	-7.846229E-6	NaN
110	1.000000	0.826551	7.36612e+06	-44139.1	955.818	-29777.2	0.000000	0.000000	6.827091	0.041226	NaN	0.000000	0.001657	0.001700	28.1104	0.024821	0.001988	12.4833	-162.938	-167.168	-0.016237	0.825190	-0.223497	-0.224859	0.041226	12.4833	-0.225974	-345.777	-0.000119	NaN
110	1.000000	0.834558	7.36612e+06	-44139.1	955.818	-29777.2	0.000000	0.000000	6.835097	0.044064	NaN	0.000000	0.001581	0.001702	28.1104	0.032106	0.001934	16.5987	78.8837	-168.832	0.073909	0.833295	-0.215490	-0.216753	0.044064	16.5987	-0.217481	-253.141	-0.000174	NaN
110	1.000000	0.842541	7.36612e+06	-44139.1	955.818	-29777.2	0.000000	0.000000	6.843081	0.041814	NaN	0.000000	0.001585	0.001669	28.11	0.050846	0.002001	25.4041	31.6516	-165.103	0.019994	0.841254	-0.207507	-0.208794	0.041814	25.4041	-0.208741	-182.987	-0.000229	NaN
110	1.000000	0.850537	7.36612e+06	-44139.1	955.818	-29777.2	0.000000	0.000000	6.851073	-0.044164	NaN	0.000000	0.001567	0.001707	28.1097	0.057656	0.002002	28.7972	-140.852	-162.873	-0.074681	0.849200	-0.199511	-0.200848	-0.044164	28.7972	-0.198361	-123.802	0.000357	NaN
110	1.000000	0.858572	7.36612e+06	-44139.1	955.818	-29777.2	0.000000	0.000000	6.859110	-0.002888	NaN	0.000000	0.001541	0.001682	28.1091	0.096093	0.002098	45.8119	-56.647	-170.75	-0.092653	0.857240	-0.191476	-0.192808	-0.002888	45.8119	-0.191429	-95.0322	3.038984E-5	NaN
110	1.000000	0.866542	7.36612e+06	-44139.1	955.818	-29777.2	0.000000	0.000000	6.867080	0.021041	NaN	0.000000	0.001551	0.001663	28.1099	0.127666	0.001972	64.7413	116.004	-166.178	0.079389	0.865226	-0.183507	-0.184822	0.021041	64.7413	-0.183751	-70.6397	-0.000298	NaN
110	1.000000	0.874548	7.36612e+06	-44139.1	955.818	-29777.2	0.000000	0.000000	6.875088	0.051334	NaN	0.000000	0.001580	0.001685	28.1102	0.031012	0.001896	16.353	-20.9572	-165.513	0.030202	0.873260	-0.175500	-0.176789	0.051334	16.353	-0.177854	-56.0899	-0.000915	NaN
110	1.000000	0.882555	7.36612e+06	-44139.1	955.818	-29777.2	0.000000	0.000000	6.883092	-0.008935	NaN	0.000000	0.001579	0.001704	28.1105	0.044678	0.002057	21.7232	-76.1931	-167.902	-0.067728	0.881200	-0.167494	-0.168848	-0.008935	21.7232	-0.167185	-36.6929	0.000243	NaN
110	1.000000	0.890559	7.36612e+06	-44139.1	955.818	-29777.2	0.000000	0.000000	6.891096	-0.013261	NaN	0.000000	0.001578	0.001711	28.1112	0.051789	0.001994	25.9737	-105.744	-170.802	0.000476	0.889260	-0.159490	-0.160788	-0.013261	25.9737	-0.159107	-26.43	0.000502	NaN
110	1.000000	0.898549	7.36612e+06	-44139.1	955.819	-29777.2	0.000000	0.000000	6.899085	-0.022565	NaN	0.000000	0.001577	0.001685	28.1115	0.074157	0.002077	35.7069	-131.592	-166.727	-0.004919	0.897252	-0.151500	-0.152797	-0.022565	35.7069	-0.151026	-18.9097	0.001193	NaN
110	1.000000	0.906565	7.36612e+06	-44139.1	955.818	-29777.2	0.000000	0.000000	6.907103	0.002421	NaN	0.000000	0.001579	0.001683	28.1108	0.031706	0.001990	15.9345	-129.637	-169.471	-0.006723	0.905287	-0.143483	-0.144762	0.002421	15.9345	-0.143597	-13.8091	-0.000175	NaN
110	1.000000	0.914593	7.36612e+06	-44139.1	955.818	-29777.2	0.000000	0.000000	6.915129	-0.043487	NaN	0.000000	0.001612	0.001683	28.1119	0.032575	0.001938	16.8104	-21.1964	-168.479	-0.064270	0.913312	-0.135456	-0.136736	-0.043487	16.8104	-0.133515	-8.909979	0.004881	NaN
110	1.000000	0.922571	7.36612e+06	-44139.1	955.818	-29777.2	0.000000	0.000000	6.923106	-0.059689	NaN	0.000000	0.001571	0.001723	28.1099	0.068474	0.002001	34.2246	107.385	-163.617	-0.026603	0.921292	-0.127478	-0.128756	-0.059689	34.2246	-0.126170	-6.413345	0.009307	NaN
110	1.000000	0.930581	7.36612e+06	-44139.1	955.818	-29777.2	0.000000	0.000000	6.931119	0.010827	NaN	0.000000	0.001588	0.001700	28.1098	0.079128	0.001918	41.2556	-58.55	-169.035	0.063111	0.929308	-0.119467	-0.120740	0.010827	41.2556	-0.119664	-4.756660	-0.002276	NaN
110	1.000000	0.938600	7.36612e+06	-44139.1	955.818	-29777.2	0.000000	0.000000	6.939137	-0.005686	NaN	0.000000	0.001556	0.001712	28.1099	0.050451	0.001933	26.1016	92.284	-167.123	-0.083517	0.937319	-0.111449	-0.112730	-0.005686	26.1016	-0.111285	-3.198092	0.001778	NaN
110	1.000000	0.946631	7.36612e+06	-44139.1	955.818	-29777.2	0.000000	0.000000	6.947169	0.002581	NaN	0.000000	0.001577	0.001676	28.1098	0.090801	0.002009	45.1903	-157.037	-164.846	-0.024114	0.945308	-0.103417	-0.104741	0.002581	45.1903	-0.103460	-2.176623	-0.001186	NaN
110	1.000000	0.954608	7.36612e+06	-44139.1	955.819	-29777.2	0.000000	0.000000	6.955148	0.043765	NaN	0.000000	0.001558	0.001682	28.1115	0.049845	0.001961	25.4133	18.3125	-168.674	0.079052	0.953300	-0.095440	-0.096748	0.043765	25.4133	-0.096732	-1.544122	-0.028343	NaN
110	1.000000	0.962620	7.36612e+06	-44139.1	955.819	-29777.2	0.000000	0.000000	6.963158	0.005946	NaN	0.000000	0.001551	0.001691	28.1126	0.109065	0.001994	54.6945	-125.774	-167.096	0.055206	0.961308	-0.087429	-0.088740	0.005946	54.6945	-0.087510	-0.943956	-0.006299	NaN
110	1.000000	0.970608	7.36612e+06	-44139.1	955.819	-29777.2	0.000000	0.000000	6.971143	-0.058204	NaN	0.000000	0.001565	0.001694	28.1121	0.040022	0.001841	21.7412	-90.3519	-167.387	-0.031201	0.969327	-0.079440	-0.080722	-0.058204	21.7412	-0.077433	-0.533246	0.109151	NaN
110	1.000000	0.978619	7.36612e+06	-44139.1	955.818	-29777.2	0.000000	0.000000	6.979158	0.027003	NaN	0.000000	0.001582	0.001679	28.1129	0.022533	0.002029	11.1034	44.9744	-165.808	0.095132	0.977233	-0.071429	-0.072815	0.027003	11.1034	-0.073253	-0.415952	-0.064919	NaN
110	1.000000	0.986603	7.36612e+06	-44139.1	955.819	-29777.2	0.000000	0.000000	6.987140	-0.011172	NaN	0.000000	0.001581	0.001661	28.113	0.043472	0.001946	22.3391	-92.3508	-166.558	-0.043423	0.985271	-0.063445	-0.064777	-0.011172	22.3391	-0.063070	-0.220132	0.050751	NaN
110	1.000000	0.994592	7.36612e+06	-44139.1	955.819	-29777.2	0.000000	0.000000	6.995131	0.040614	NaN	0.000000	0.001596	0.001678	28.1123	0.075720	0.002024	37.4135	38.7944	-166.162	0.039599	0.993254	-0.055457	-0.056794	0.040614	37.4135	-0.056271	-0.140369	-0.289335	NaN
110	1.000000	1.002605	7.36612e+06	-44139.1	955.819	-29777.2	0.000000	0.000000	7.003144	0.032689	NaN	0.000000	0.001559	0.001688	28.1125	0.087844	0.001918	45.7992	-54.0428	-164.923	0.043167	1.001300	-0.047444	-0.048748	0.032689	45.7992	-0.047979	-0.079235	-0.412563	NaN
110	1.000000	1.010619	7.36612e+06	-44139.1	955.819	-29777.2	0.000000	0.000000	7.011156	-0.022534	NaN	0.000000	0.001576	0.001636	28.1119	0.104889	0.002004	52.3481	-52.5493	-168.165	0.005859	1.009332	-0.039429	-0.040716	-0.022534	52.3481	-0.039106	-0.042487	0.530364	NaN
110	1.000000	1.018639	7.36612e+06	-44139.1	955.819	-29777.2	0.000000	0.000000	7.019176	-0.021253	NaN	0.000000	0.001595	0.001667	28.112	0.027248	0.002011	13.5492	-57.4632	-168.482	-0.040658	1.017339	-0.031409	-0.032709	-0.021253	13.5492	-0.030233	-0.023359	0.909829	NaN
110	1.000000	1.026616	7.36612e+06	-44139.1	955.819	-29777.2	0.000000	0.000000	7.027152	-0.045936	NaN	0.000000	0.001587	0.001641	28.1118	0.067139	0.001972	34.0399	-171.6	-164.664	-0.091506	1.025315	-0.023432	-0.024734	-0.045936	34.0399	-0.022420	-0.014474	3.173806	NaN
110	1.000000	1.034643	7.36612e+06	-44139.1	955.818	-29777.2	0.000000	0.000000	7.035179	-0.040587	NaN	0.000000	0.001546	0.001613	28.1114	0.038244	0.001999	19.135	-141.805	-167.792	-0.024003	1.033350	-0.015406	-0.016698	-0.040587	19.135	-0.013815	-0.008575	4.733102	NaN
110	1.000000	1.042605	7.36612e+06	-44139.1	955.818	-29777.2	0.000000	0.000000	7.043143	0.006950	NaN	0.000000	0.001537	0.001618	28.113	0.028679	0.001930	14.8577	155.669	-163.105	-0.036720	1.041338	-0.007443	-0.008710	0.006950	14.8577	-0.007794	-0.005111	-1.359779	NaN
110	1.000000	1.050616	7.36612e+06	-44139.1	955.819	-29777.2	0.000000	0.000000	7.051155	0.031842	NaN	0.000000	0.001571	0.001623	28.1126	0.069501	0.002060	33.7378	67.8645	-165.112	-0.036716	1.049261	0.000567	-0.000787	0.031842	33.7378	-0.000141	-0.000105	-303.841	NaN
110	1.000000	1.058614	7.36612e+06	-44139.1	955.818	-29777.2	0.000000	0.000000	7.059369	5.284906	NaN	0.000000	0.001523	0.001661	28.1131	6.228413	0.001745	3569.46	16.8469	-175.177	4.228884	1.057309	0.008566	0.007260	5.284906	3569.46	0.007455	0.006488	814.538	40486.7
110	2.000000	1.062359	7.36612e+06	-44139.1	955.818	-29777.2	0.000000	0.000000	7.063237	8.279494	NaN	0.000000	0.001530	0.001616	28.1123	9.336394	0.001723	5418.15	7.138010	-171.732	8.356713	1.062104	0.012311	0.012055	8.279494	5418.15	0.011165	0.010505	788.144	48297.6
110	2.000000	1.064270	7.36612e+06	-44139.1	955.819	-29777.2	0.000000	0.000000	7.065250	10.7533	NaN	0.000000	0.001570	0.001613	28.1128	10.9991	0.001714	6418.92	2.756793	-168.723	10.8039	1.063966	0.014222	0.013918	10.7533	6418.92	0.012965	0.012667	848.938	52107.7
110	2.000000	1.066287	7.36612e+06	-44139.1	955.819	-29777.2	0.000000	0.000000	7.067388	13.7148	NaN	0.000000	0.001564	0.001638	28.1128	14.2386	0.001958	7272.86	6.691555	-174.755	13.1985	1.065941	0.016238	0.015892	13.7148	7272.86	0.014824	0.015052	911.186	54161.1
110	2.000000	1.068191	7.36612e+06	-44139.1	955.819	-29777.2	0.000000	0.000000	7.069437	17.2375	NaN	0.000000	0.001555	0.001648	28.1111	15.4665	0.001741	8882.21	4.347798	-172.941	15.87	1.067941	0.018142	0.017893	17.2375	8882.21	0.016687	0.017601	979.352	61168.4
110	2.000000	1.070249	7.36612e+06	-44139.1	955.819	-29777.2	0.000000	0.000000	7.071676	21.6514	NaN	0.000000	0.001539	0.001668	28.1114	18.3691	0.001785	10290.4	8.189431	-178.669	21.3514	1.069969	0.020200	0.019921	21.6514	10290.4	0.018622	0.020424	1060.12	65786.8
110	2.000000	1.072264	7.36612e+06	-44139.1	955.819	-29777.2	0.000000	0.000000	7.073804	24.3674	NaN	0.000000	0.001571	0.001630	28.1107	20.6006	0.001844	11172.3	7.147244	-178.144	23.8949	1.071929	0.022216	0.021881	24.3674	11172.3	0.020580	0.023462	1038.57	66638.9
110	2.000000	1.074283	7.36612e+06	-44139.1	955.82	-29777.2	0.000000	0.000000	7.076048	29.8593	NaN	0.000000	0.001602	0.001633	28.1107	21.9856	0.001754	12532.3	4.985470	-177.288	29.7989	1.073930	0.024234	0.023881	29.8593	12532.3	0.022447	0.026535	1125.29	70290.2
110	2.000000	1.076245	7.36612e+06	-44139.1	955.82	-29777.2	0.000000	0.000000	7.078287	36.5914	NaN	0.000000	0.001573	0.001617	28.1119	24.5532	0.001841	13337.4	4.011216	-175.629	37.1743	1.075907	0.026197	0.025859	36.5914	13337.4	0.024139	0.029468	1241.72	70985.3
110	2.000000	1.078217	7.36612e+06	-44139.1	955.819	-29777.2	0.000000	0.000000	7.080433	40.8442	NaN	0.000000	0.001566	0.001646	28.1117	25.8028	0.001741	14821.1	2.512633	-176.608	40.7475	1.077917	0.028168	0.027868	40.8442	14821.1	0.026102	0.033050	1235.82	74484.7
110	2.000000	1.080217	7.36612e+06	-44139.1	955.819	-29777.2	0.000000	0.000000	7.082643	45.9329	NaN	0.000000	0.001570	0.001614	28.1125	28.4906	0.001837	15512.5	3.149152	-178.425	44.2587	1.079897	0.030169	0.029849	45.9329	15512.5	0.027948	0.036598	1255.07	74084.1
110	2.000000	1.082220	7.36612e+06	-44139.1	955.819	-29777.2	0.000000	0.000000	7.084947	53.2684	NaN	0.000000	0.001575	0.001609	28.1123	30.8292	0.001929	15984.6	10.9307	174.984	52.3097	1.081889	0.032172	0.031841	53.2684	15984.6	0.029672	0.040067	1329.48	72959.5
110	2.000000	1.084154	7.36612e+06	-44139.1	955.82	-29777.2	0.000000	0.000000	7.087087	58.2618	NaN	0.000000	0.001531	0.001591	28.1123	31.8375	0.001715	18559.1	5.646010	177.891	54.8691	1.083858	0.034106	0.033809	58.2618	18559.1	0.031752	0.044453	1310.65	80423.2
110	2.000000	1.086214	7.36612e+06	-44139.1	955.819	-29777.2	0.000000	0.000000	7.089503	66.9506	NaN	0.000000	0.001573	0.001636	28.1111	34.4032	0.001806	19053.7	2.799290	-179.735	64.539	1.085870	0.036165	0.035822	66.9506	19053.7	0.033530	0.048379	1383.88	79145.3
110	2.000000	1.088175	7.36612e+06	-44139.1	955.819	-29777.2	0.000000	0.000000	7.091802	75.1549	NaN	0.000000	0.001589	0.001631	28.1116	35.9423	0.001761	20404.6	3.352648	179.982	73.8853	1.087914	0.038127	0.037865	75.1549	20404.6	0.035365	0.052598	1428.84	81285.7
110	2.000000	1.090183	7.36612e+06	-44139.1	955.82	-29777.2	0.000000	0.000000	7.094109	82.4387	NaN	0.000000	0.001571	0.001640	28.1114	39.0793	0.001630	23975.5	6.354077	174.708	81.1938	1.089833	0.040135	0.039784	82.4387	23975.5	0.037556	0.057864	1424.7	91062
110	2.000000	1.092174	7.36612e+06	-44139.1	955.819	-29777.2	0.000000	0.000000	7.096453	91.0155	NaN	0.000000	0.001563	0.001633	28.1113	41.646	0.001832	22735.9	4.647463	177.013	88.5039	1.091824	0.042126	0.041776	91.0155	22735.9	0.039123	0.061783	1473.16	83570.3
110	2.000000	1.094245	7.36612e+06	-44139.1	955.821	-29777.2	0.000000	0.000000	7.098655	94.2012	NaN	0.000000	0.001512	0.001663	28.112	43.7676	0.001861	23522.6	5.867126	175.892	96.0671	1.093933	0.044197	0.043884	94.2012	23522.6	0.041193	0.067149	1402.87	82935.1
110	2.000000	1.096202	7.36612e+06	-44139.1	955.819	-29777.2	0.000000	0.000000	7.101173	107.865	NaN	0.000000	0.001507	0.001611	28.1121	45.6586	0.001824	25036.1	4.440327	177.003	106.908	1.095851	0.046154	0.045803	107.865	25036.1	0.042922	0.071799	1502.33	85365.4
110	2.000000	1.098204	7.36612e+06	-44139.1	955.82	-29777.2	0.000000	0.000000	7.103496	115.686	NaN	0.000000	0.001500	0.001637	28.1127	47.4428	0.001809	26222.1	8.761715	172.06	116.746	1.097892	0.048155	0.047843	115.686	26222.1	0.044846	0.077152	1499.45	86251.7
110	2.000000	1.100193	7.36612e+06	-44139.1	955.819	-29777.2	0.000000	0.000000	7.105930	126.495	NaN	0.000000	0.001542	0.001633	28.1128	48.9425	0.001742	28089	1.953065	177.845	125.908	1.099932	0.050145	0.049884	126.495	28089	0.046767	0.082683	1529.89	89248.9
110	2.000000	1.102196	7.36612e+06	-44139.1	955.82	-29777.2	0.000000	0.000000	7.108422	138.381	NaN	0.000000	0.001551	0.001665	28.1134	51.1675	0.001805	28341.9	4.595830	175.862	136.51	1.101942	0.052148	0.051893	138.381	28341.9	0.048486	0.087790	1576.27	87393.6
110	2.000000	1.104213	7.36612e+06	-44139.1	955.819	-29777.2	0.000000	0.000000	7.110887	149.289	NaN	0.000000	0.001562	0.001647	28.1139	52.8258	0.001787	29563.6	6.426783	173.099	150.749	1.103843	0.054165	0.053795	149.289	29563.6	0.050377	0.093583	1595.26	88294.3
110	2.000000	1.106147	7.36612e+06	-44139.1	955.819	-29777.2	0.000000	0.000000	7.113036	154.511	NaN	0.000000	0.001503	0.001606	28.1125	55.6018	0.001771	31399.7	4.894388	173.422	151.796	1.105984	0.056099	0.055936	154.511	31399.7	0.052408	0.100002	1545.08	90718.3
110	2.000000	1.108167	7.36612e+06	-44139.1	955.819	-29777.2	0.000000	0.000000	7.115878	174.524	NaN	0.000000	0.001539	0.001632	28.1137	56.8889	0.001784	31891.5	6.222039	173.543	172.873	1.107752	0.058119	0.057704	174.524	31891.5	0.054014	0.105224	1658.6	89823.7
110	2.000000	1.110116	7.36612e+06	-44139.1	955.819	-29777.2	0.000000	0.000000	7.118167	182.787	NaN	0.000000	0.001516	0.001645	28.1132	60.1174	0.001882	31944.9	8.907221	171	180.441	1.109799	0.060068	0.059751	182.787	31944.9	0.055776	0.111099	1645.26	87562.7
110	2.000000	1.112150	7.36612e+06	-44139.1	955.819	-29777.2	0.000000	0.000000	7.120860	198.825	NaN	0.000000	0.001497	0.001613	28.1131	60.888	0.001753	34742.5	3.153357	175.547	194.377	1.111779	0.062101	0.061730	198.825	34742.5	0.057809	0.118070	1683.96	92377
110	2.000000	1.114148	7.36612e+06	-44139.1	955.819	-29777.2	0.000000	0.000000	7.123294	209.421	NaN	0.000000	0.001476	0.001635	28.1134	62.9912	0.001727	36466.4	6.252952	172.165	208.633	1.113801	0.064100	0.063752	209.421	36466.4	0.059793	0.125067	1674.47	94209.5
110	2.000000	1.116212	7.36612e+06	-44139.1	955.819	-29777.2	0.000000	0.000000	7.125715	218.111	NaN	0.000000	0.001513	0.001627	28.1141	66.3735	0.001856	35770.8	4.355345	173.489	218.132	1.115932	0.066163	0.065884	218.111	35770.8	0.061590	0.131573	1657.72	90098.7
110	2.000000	1.118242	7.36612e+06	-44139.1	955.819	-29777.2	0.000000	0.000000	7.128378	233.516	NaN	0.000000	0.001500	0.001618	28.1147	67.5285	0.001709	39507.3	9.006407	168.296	236.057	1.117941	0.068193	0.067892	233.516	39507.3	0.063760	0.139637	1672.31	96594
110	2.000000	1.120089	7.36612e+06	-44139.1	955.819	-29777.2	0.000000	0.000000	7.130988	252.084	NaN	0.000000	0.001496	0.001587	28.1145	67.5709	0.001580	42761.7	-0.182672	177.467	247.792	1.119790	0.070041	0.069741	252.084	42761.7	0.065619	0.146726	1718.05	101994
110	2.000000	1.122246	7.36612e+06	-44139.1	955.82	-29777.2	0.000000	0.000000	7.133650	264.376	NaN	0.000000	0.001518	0.001579	28.1144	71.7063	0.001661	43178.4	5.828990	172.186	266.088	1.121813	0.072198	0.071765	264.376	43178.4	0.067605	0.154483	1711.35	100369
110	2.000000	1.124176	7.36612e+06	-44139.1	955.819	-29777.2	0.000000	0.000000	7.136046	275.695	NaN	0.000000	0.001500	0.001631	28.1145	73.274	0.001744	42014.5	5.486494	171.637	274.961	1.123833	0.074128	0.073785	275.695	42014.5	0.069206	0.160874	1713.73	95703.7
110	2.000000	1.126153	7.36612e+06	-44139.1	955.82	-29777.2	0.000000	0.000000	7.138666	291.343	NaN	0.000000	0.001544	0.001638	28.1131	77.1803	0.001899	40646.1	8.314843	170.076	290.959	1.125673	0.076105	0.075625	291.343	40646.1	0.070729	0.167067	1743.87	90854.4
110	2.000000	1.128149	7.36612e+06	-44139.1	955.819	-29777.2	0.000000	0.000000	7.141107	302.154	NaN	0.000000	0.001539	0.001577	28.1132	76.5641	0.001725	44394.3	2.158964	173.914	299.112	1.127899	0.078101	0.077851	302.154	44394.3	0.072996	0.176490	1712.02	96547.4
110	2.000000	1.130057	7.36612e+06	-44139.1	955.819	-29777.2	0.000000	0.000000	7.143749	320.005	NaN	0.000000	0.001492	0.001653	28.1136	78.544	0.001701	46162.2	5.057076	171.387	314.611	1.129832	0.080009	0.079784	320.005	46162.2	0.074810	0.184203	1737.24	98267.7
110	2.000000	1.132151	7.36612e+06	-44139.1	955.819	-29777.2	0.000000	0.000000	7.146497	335.935	NaN	0.000000	0.001488	0.001621	28.113	81.9541	0.001793	45707.8	5.061191	171.475	333.23	1.131872	0.082103	0.081824	335.935	45707.8	0.076590	0.191925	1750.34	95322.9
110	2.000000	1.134079	7.36612e+06	-44139.1	955.82	-29777.2	0.000000	0.000000	7.149030	350.649	NaN	0.000000	0.001555	0.001610	28.1133	82.586	0.001745	47323.5	1.635340	174.736	346.509	1.133790	0.084031	0.083742	350.649	47323.5	0.078474	0.200256	1751	96617.7
110	2.000000	1.136166	7.36612e+06	-44139.1	955.82	-29777.2	0.000000	0.000000	7.151539	360.928	NaN	0.000000	0.001543	0.001670	28.1148	87.0041	0.001764	49334	7.710390	167.832	360.327	1.135923	0.086118	0.085875	360.928	49334	0.080631	0.210001	1718.7	98357.8
110	2.000000	1.138056	7.36612e+06	-44139.1	955.819	-29777.2	0.000000	0.000000	7.154440	385.536	NaN	0.000000	0.001562	0.001587	28.1133	86.843	0.001678	51745.6	2.143697	173.961	381.465	1.137706	0.088007	0.087658	385.536	51745.6	0.082419	0.218245	1766.53	101199
110	2.000000	1.140086	7.36612e+06	-44139.1	955.82	-29777.2	0.000000	0.000000	7.157102	400.903	NaN	0.000000	0.001549	0.001625	28.1138	90.2568	0.001808	49907.3	6.353237	169.716	397.673	1.139734	0.090037	0.089685	400.903	49907.3	0.084013	0.225715	1776.15	95974.9
110	2.000000	1.142111	7.36612e+06	-44139.1	955.819	-29777.2	0.000000	0.000000	7.159634	413.237	NaN	0.000000	0.001573	0.001617	28.1133	91.9285	0.001784	51527.9	4.323949	171.719	408.751	1.141753	0.092063	0.091705	413.237	51527.9	0.086048	0.235425	1755.28	97026.2
110	2.000000	1.144063	7.36612e+06	-44139.1	955.82	-29777.2	0.000000	0.000000	7.162439	433.982	NaN	0.000000	0.001548	0.001618	28.1135	93.5252	0.001824	51261	5.278270	170.535	431.164	1.143864	0.094015	0.093816	433.982	51261	0.087665	0.243279	1783.89	94952.9
110	2.000000	1.146104	7.36612e+06	-44139.1	955.819	-29777.2	0.000000	0.000000	7.165120	449.555	NaN	0.000000	0.001567	0.001631	28.1125	95.8247	0.001790	53521.4	3.237727	172.418	446.602	1.145794	0.096055	0.095746	449.555	53521.4	0.089756	0.253609	1772.63	97099.9
110	2.000000	1.148335	7.36612e+06	-44139.1	955.819	-29777.2	0.000000	0.000000	7.167573	454.948	NaN	0.000000	0.001560	0.001669	28.1126	96.5531	0.001746	55284.7	3.832567	171.939	468.481	1.147905	0.098286	0.097857	454.948	55284.7	0.092114	0.265505	1713.52	98026.1
110	2.000000	1.150114	7.36612e+06	-44139.1	955.819	-29777.2	0.000000	0.000000	7.170448	481.606	NaN	0.000000	0.001540	0.001616	28.1128	98.8886	0.001790	55230.1	1.715147	174.471	481.83	1.149731	0.100066	0.099683	481.606	55230.1	0.093526	0.272747	1765.76	96620.6
110	2.000000	1.152245	7.36612e+06	-44139.1	955.819	-29777.2	0.000000	0.000000	7.173161	495.789	NaN	0.000000	0.001568	0.001621	28.1124	103.009	0.001781	57822.8	8.915714	166.718	503.166	1.151828	0.102196	0.101780	495.789	57822.8	0.095766	0.284420	1743.16	99058.7
110	2.000000	1.154229	7.36612e+06	-44139.1	955.819	-29777.2	0.000000	0.000000	7.175856	513.073	NaN	0.000000	0.001530	0.001634	28.1131	103.677	0.001803	57490.4	3.952477	171.505	519.104	1.153817	0.104181	0.103769	513.073	57490.4	0.097487	0.293551	1747.82	96945.4
110	2.000000	1.156071	7.36612e+06	-44139.1	955.82	-29777.2	0.000000	0.000000	7.178647	536.15	NaN	0.000000	0.001541	0.001589	28.1139	107.494	0.001848	58181.3	7.493630	167.542	533.37	1.155819	0.106023	0.105771	536.15	58181.3	0.099112	0.302290	1773.63	96681.8
110	2.000000	1.158053	7.36612e+06	-44139.1	955.819	-29777.2	0.000000	0.000000	7.181759	563.646	NaN	0.000000	0.001520	0.001608	28.114	106.777	0.001792	59597.2	5.407059	169.413	558.829	1.157724	0.108005	0.107676	563.646	59597.2	0.100912	0.312113	1805.91	97463.9
110	2.000000	1.159166	7.36612e+06	-44139.1	955.819	-29777.2	0.000000	0.000000	7.182693	559.305	NaN	0.000000	0.001523	0.001608	28.0866	109.846	0.001701	64589.1	4.471382	169.685	560.034	1.158979	0.109118	0.108931	559.305	64589.1	0.102623	0.321589	1739.19	104059