File: remote_trans/data/nanoindenter/0828-1/data/Data_2025-08-06,11h17m57s/2025-07-22_16-23-58_1_378.txt
2025-07-22, 16:23:58, 1
Index	Phase	Displacement	Time	Pos X	Pos Y	Pos Z	Rot A	Rot B	Piezo Z	Force A	Force B	Gripper	Voltage A	Voltage B	Temperature	Amplitude force	Amplitude pos	Stiffness	Phase shift	Phase excitation	Force A raw	Displacement raw	HMax	HMax raw	Real Force	Real Stiffness	Contact Depth	Area	Hardness	Reduced Mod.
[#]	[#]	[um]	[s]	[um]	[um]	[um]	[m°]	[m°]	[um]	[uN]	[uN]	[V]	[V]	[V]	[°C]	[uN]	[um]	[N/m]	[°]	[°]	[uN]	[um]	[um]	[um]	[uN]	[N/m]	[um]	[um^2]	[MPa]	[MPa]
378	1.000000	0.002780	7.36876e+06	-57539.1	955.819	-29737.1	0.000000	0.000000	6.002806	0.035662	NaN	0.000000	0.001588	0.001636	28.0822	0.077478	0.001047	73.9737	-64.5093	-168.09	0.067292	0.001561	-1.026315	-1.027533	0.035662	73.9737	-1.026676	-5.185279E+13	-6.877536E-16	NaN
378	1.000000	0.010722	7.36876e+06	-57539.1	955.819	-29737.1	0.000000	0.000000	6.010749	0.038465	NaN	0.000000	0.001611	0.001700	28.0818	0.059805	0.001076	55.5643	177.884	-160.566	0.055474	0.009414	-1.018373	-1.019680	0.038465	55.5643	-1.018892	-4.074189E+13	-9.441069E-16	NaN
378	1.000000	0.018733	7.36876e+06	-57539.1	955.819	-29737.1	0.000000	0.000000	6.018759	0.023570	NaN	0.000000	0.001593	0.001654	28.0816	0.100975	0.001669	60.4838	135.998	-166.335	-0.019524	0.017434	-1.010362	-1.011661	0.023570	60.4838	-1.010654	-3.156354E+13	-7.467376E-16	NaN
378	1.000000	0.026757	7.36876e+06	-57539.1	955.818	-29737.1	0.000000	0.000000	6.026783	0.019964	NaN	0.000000	0.001585	0.001643	28.0819	0.057042	0.001730	32.9773	-76.096	-166.255	-0.048258	0.025405	-1.002338	-1.003690	0.019964	32.9773	-1.002792	-2.473752E+13	-8.070415E-16	NaN
378	1.000000	0.034710	7.36876e+06	-57539.1	955.82	-29737.1	0.000000	0.000000	6.034733	-0.052278	NaN	0.000000	0.001576	0.001667	28.0818	0.113236	0.001967	57.5813	-91.6229	-163.705	0.037990	0.033428	-0.994385	-0.995667	-0.052278	57.5813	-0.993704	-1.866353E+13	2.801064E-15	NaN
378	1.000000	0.042717	7.36876e+06	-57539.1	955.818	-29737.1	0.000000	0.000000	6.042742	0.014578	NaN	0.000000	0.001577	0.001658	28.0818	0.058366	0.001848	31.5833	151.015	-165.643	-0.092278	0.041442	-0.986378	-0.987653	0.014578	31.5833	-0.986724	-1.503106E+13	-9.698629E-16	NaN
378	1.000000	0.050706	7.36876e+06	-57539.1	955.82	-29737.1	0.000000	0.000000	6.050729	-0.042078	NaN	0.000000	0.001596	0.001657	28.0817	0.054885	0.001847	29.7111	56.6198	-161.8	0.056430	0.049434	-0.978389	-0.979661	-0.042078	29.7111	-0.977327	-1.123049E+13	3.746727E-15	NaN
378	1.000000	0.058738	7.36876e+06	-57539.1	955.819	-29737.1	0.000000	0.000000	6.058762	-0.022333	NaN	0.000000	0.001576	0.001714	28.0818	0.035834	0.002082	17.2102	-85.6276	-164.717	0.006745	0.057372	-0.970357	-0.971723	-0.022333	17.2102	-0.969383	-8.777116E+12	2.544501E-15	NaN
378	1.000000	0.066728	7.36876e+06	-57539.1	955.818	-29737.1	0.000000	0.000000	6.066754	0.022270	NaN	0.000000	0.001614	0.001740	28.0822	0.071445	0.002030	35.1939	-16.092	-166.386	0.050137	0.065413	-0.962367	-0.963682	0.022270	35.1939	-0.962841	-7.164299E+12	-3.108444E-15	NaN
378	1.000000	0.074743	7.36876e+06	-57539.1	955.819	-29737.1	0.000000	0.000000	6.074768	-0.003043	NaN	0.000000	0.001577	0.001679	28.0816	0.073866	0.002087	35.401	-132.867	-166.103	0.086657	0.073446	-0.954352	-0.955649	-0.003043	35.401	-0.954287	-5.493425E+12	5.539706E-16	NaN
378	1.000000	0.082730	7.36876e+06	-57539.1	955.818	-29737.1	0.000000	0.000000	6.082755	0.017814	NaN	0.000000	0.001602	0.001657	28.0804	0.043897	0.001889	23.2417	155.984	-163.784	0.045421	0.081460	-0.946365	-0.947635	0.017814	23.2417	-0.946940	-4.372761E+12	-4.073857E-15	NaN
378	1.000000	0.090749	7.36876e+06	-57539.1	955.818	-29737.1	0.000000	0.000000	6.090775	0.023114	NaN	0.000000	0.001567	0.001674	28.0805	0.028961	0.001934	14.9766	121.12	-165.411	0.056492	0.089455	-0.938346	-0.939640	0.023114	14.9766	-0.939503	-3.470823E+12	-6.659520E-15	NaN
378	1.000000	0.098761	7.36876e+06	-57539.1	955.819	-29737.1	0.000000	0.000000	6.098783	-0.054034	NaN	0.000000	0.001605	0.001674	28.0807	0.111895	0.001934	57.8652	132.972	-162.623	0.008742	0.097445	-0.930334	-0.931650	-0.054034	57.8652	-0.929634	-2.554184E+12	2.115508E-14	NaN
378	1.000000	0.106738	7.36876e+06	-57539.1	955.818	-29737.1	0.000000	0.000000	6.106765	0.048400	NaN	0.000000	0.001580	0.001668	28.0805	0.072005	0.001975	36.4663	-52.1597	-165.54	0.007124	0.105433	-0.922357	-0.923662	0.048400	36.4663	-0.923352	-2.101174E+12	-2.303472E-14	NaN
378	1.000000	0.114757	7.36876e+06	-57539.1	955.819	-29737.1	0.000000	0.000000	6.114781	-0.028830	NaN	0.000000	0.001563	0.001652	28.0805	0.030783	0.001994	15.4364	22.5125	-164.62	-0.067064	0.113490	-0.914337	-0.915605	-0.028830	15.4364	-0.912937	-1.519942E+12	1.896803E-14	NaN
378	1.000000	0.122769	7.36876e+06	-57539.1	955.819	-29737.1	0.000000	0.000000	6.122795	0.034380	NaN	0.000000	0.001595	0.001662	28.0807	0.039089	0.002022	19.3349	11.2561	-160.07	0.026662	0.121414	-0.906326	-0.907681	0.034380	19.3349	-0.907659	-1.289874E+12	-2.665363E-14	NaN
378	1.000000	0.130756	7.36876e+06	-57539.1	955.817	-29737.1	0.000000	0.000000	6.130780	-0.011976	NaN	0.000000	0.001638	0.001674	28.0806	0.029034	0.001983	14.6403	93.1557	-165.216	0.083565	0.129405	-0.898339	-0.899690	-0.011976	14.6403	-0.897725	-9.469531E+11	1.264655E-14	NaN
378	1.000000	0.138768	7.36876e+06	-57539.1	955.819	-29737.1	0.000000	0.000000	6.138796	0.067029	NaN	0.000000	0.001598	0.001678	28.0806	0.050128	0.001983	25.2766	115.211	-167.61	0.010597	0.137444	-0.890327	-0.891651	0.067029	25.2766	-0.892315	-8.002270E+11	-8.376210E-14	NaN
378	1.000000	0.146773	7.36876e+06	-57539.1	955.819	-29737.1	0.000000	0.000000	6.146798	0.007202	NaN	0.000000	0.001563	0.001744	28.0804	0.162927	0.001892	86.1318	156.96	-161.169	0.003310	0.145437	-0.882322	-0.883658	0.007202	86.1318	-0.882384	-5.874263E+11	-1.226022E-14	NaN
378	1.000000	0.154754	7.36876e+06	-57539.1	955.818	-29737.1	0.000000	0.000000	6.154779	0.006825	NaN	0.000000	0.001581	0.001723	28.0805	0.032560	0.001971	16.5186	-68.568	-166.178	-0.023693	0.153428	-0.874341	-0.875667	0.006825	16.5186	-0.874651	-4.617058E+11	-1.478280E-14	NaN
378	1.000000	0.162773	7.36876e+06	-57539.1	955.818	-29737.1	0.000000	0.000000	6.162800	0.051925	NaN	0.000000	0.001589	0.001746	28.0809	0.081456	0.002005	40.6281	17.1863	-163.032	0.069016	0.161510	-0.866322	-0.867585	0.051925	40.6281	-0.867281	-3.669860E+11	-1.414907E-13	NaN
378	1.000000	0.170795	7.36876e+06	-57539.1	955.819	-29737.1	0.000000	0.000000	6.170821	0.036302	NaN	0.000000	0.001637	0.001734	28.0808	0.096361	0.002050	46.9974	-90.7403	-165.844	-0.005275	0.169424	-0.858300	-0.859671	0.036302	46.9974	-0.858880	-2.824592E+11	-1.285216E-13	NaN
378	1.000000	0.178793	7.36876e+06	-57539.1	955.819	-29737.1	0.000000	0.000000	6.178821	0.074857	NaN	0.000000	0.001610	0.001716	28.081	0.062458	0.002048	30.4947	47.8907	-162.323	-0.001269	0.177398	-0.850302	-0.851697	0.074857	30.4947	-0.852143	-2.289553E+11	-3.269501E-13	NaN
378	1.000000	0.186770	7.36876e+06	-57539.1	955.819	-29737.1	0.000000	0.000000	6.186793	-0.030069	NaN	0.000000	0.001616	0.001700	28.0807	0.185988	0.001946	95.5756	-46.4872	-161.897	-0.003688	0.185494	-0.842325	-0.843601	-0.030069	95.5756	-0.842089	-1.673369E+11	1.796889E-13	NaN
378	1.000000	0.194796	7.36876e+06	-57539.1	955.82	-29737.1	0.000000	0.000000	6.194824	0.070899	NaN	0.000000	0.001603	0.001687	28.0807	0.050724	0.002004	25.3159	139.149	-162.3	0.012881	0.193430	-0.834299	-0.835665	0.070899	25.3159	-0.836399	-1.401211E+11	-5.059855E-13	NaN
378	1.000000	0.202781	7.36876e+06	-57539.1	955.819	-29737.1	0.000000	0.000000	6.202808	0.048914	NaN	0.000000	0.001610	0.001680	28.0806	0.061703	0.002041	30.233	-33.6627	-165.885	0.028486	0.201482	-0.826314	-0.827612	0.048914	30.233	-0.827527	-1.062348E+11	-4.604373E-13	NaN
378	1.000000	0.210811	7.36876e+06	-57539.1	955.818	-29737.1	0.000000	0.000000	6.210836	0.017794	NaN	0.000000	0.001621	0.001734	28.0807	0.053625	0.002040	26.2813	-68.3912	-165.063	0.019991	0.209471	-0.818284	-0.819624	0.017794	26.2813	-0.818792	-8.087718E+10	-2.200115E-13	NaN
378	1.000000	0.218771	7.36876e+06	-57539.1	955.818	-29737.1	0.000000	0.000000	6.218797	0.020688	NaN	0.000000	0.001625	0.001744	28.0819	0.104152	0.001926	54.0848	-134.086	-165.814	-0.048221	0.217488	-0.810323	-0.811607	0.020688	54.0848	-0.810610	-6.263994E+10	-3.302749E-13	NaN
378	1.000000	0.226794	7.36876e+06	-57539.1	955.818	-29737.1	0.000000	0.000000	6.226820	0.021835	NaN	0.000000	0.001615	0.001727	28.0822	0.084468	0.001999	42.2506	167.422	-167.94	0.009054	0.225471	-0.802301	-0.803624	0.021835	42.2506	-0.802688	-4.890508E+10	-4.464851E-13	NaN
378	1.000000	0.234770	7.36876e+06	-57539.1	955.82	-29737.1	0.000000	0.000000	6.234792	-0.062810	NaN	0.000000	0.001602	0.001741	28.0823	0.033013	0.002233	14.7828	-49.0255	-160.574	-0.017018	0.233474	-0.794325	-0.795621	-0.062810	14.7828	-0.791138	-3.408340E+10	1.842845E-12	NaN
378	1.000000	0.242810	7.36876e+06	-57539.1	955.819	-29737.1	0.000000	0.000000	6.242835	-0.002886	NaN	0.000000	0.001658	0.001716	28.0821	0.024110	0.001927	12.5128	-144.606	-164.998	0.082010	0.241511	-0.786285	-0.787584	-0.002886	12.5128	-0.786112	-2.912517E+10	9.907346E-14	NaN
378	1.000000	0.250792	7.36876e+06	-57539.1	955.82	-29737.1	0.000000	0.000000	6.250816	-0.012342	NaN	0.000000	0.001608	0.001708	28.0821	0.042993	0.001850	23.2444	-173.278	-163.407	-0.064454	0.249493	-0.778303	-0.779602	-0.012342	23.2444	-0.777905	-2.252979E+10	5.478027E-13	NaN
378	1.000000	0.258780	7.36876e+06	-57539.1	955.819	-29737.1	0.000000	0.000000	6.258807	0.049425	NaN	0.000000	0.001596	0.001746	28.0825	0.083705	0.001938	43.1945	-125.201	-162.828	-0.041505	0.257451	-0.770315	-0.771644	0.049425	43.1945	-0.771173	-1.824956E+10	-2.708286E-12	NaN
378	1.000000	0.266861	7.36876e+06	-57539.1	955.819	-29737.1	0.000000	0.000000	6.266886	0.017916	NaN	0.000000	0.001617	0.001709	28.0822	0.042353	0.001996	21.2185	-100.455	-165.123	0.045607	0.265517	-0.762234	-0.763577	0.017916	21.2185	-0.762867	-1.407041E+10	-1.273341E-12	NaN
378	1.000000	0.274815	7.36876e+06	-57539.1	955.819	-29737.1	0.000000	0.000000	6.274837	-0.064607	NaN	0.000000	0.001619	0.001745	28.0825	0.073781	0.002210	33.3816	-137.966	-167.39	0.003651	0.273578	-0.754280	-0.755517	-0.064607	33.3816	-0.752828	-1.027345E+10	6.288746E-12	NaN
378	1.000000	0.282826	7.36876e+06	-57539.1	955.818	-29737.1	0.000000	0.000000	6.282850	-0.023784	NaN	0.000000	0.001640	0.001711	28.0824	0.037292	0.002005	18.5972	-18.8442	-165.205	0.004904	0.281483	-0.746269	-0.747612	-0.023784	18.5972	-0.745309	-8.116371E+9	2.930410E-12	NaN
378	1.000000	0.290791	7.36876e+06	-57539.1	955.819	-29737.1	0.000000	0.000000	6.290817	0.044819	NaN	0.000000	0.001577	0.001737	28.0824	0.056223	0.001929	29.1472	-41.2657	-164.294	-0.002570	0.289560	-0.738304	-0.739535	0.044819	29.1472	-0.739457	-6.755639E+9	-6.634296E-12	NaN
378	1.000000	0.298807	7.36876e+06	-57539.1	955.82	-29737.1	0.000000	0.000000	6.298831	-0.011689	NaN	0.000000	0.001619	0.001729	28.0823	0.119726	0.001923	62.2518	59.2081	-164.708	-0.010408	0.297527	-0.730288	-0.731568	-0.011689	62.2518	-0.730147	-5.044489E+9	2.317146E-12	NaN
378	1.000000	0.306821	7.36876e+06	-57539.1	955.819	-29737.1	0.000000	0.000000	6.306846	-0.000215	NaN	0.000000	0.001640	0.001718	28.0823	0.083208	0.001944	42.8102	-95.7196	-164.255	-0.036740	0.305498	-0.722274	-0.723597	-0.000215	42.8102	-0.722270	-3.939413E+9	5.461919E-14	NaN
378	1.000000	0.314839	7.36876e+06	-57539.1	955.819	-29737.1	0.000000	0.000000	6.314865	0.026501	NaN	0.000000	0.001605	0.001740	28.0826	0.092731	0.001969	47.0861	154.389	-168.968	0.029970	0.313530	-0.714255	-0.715565	0.026501	47.0861	-0.714677	-3.103648E+9	-8.538668E-12	NaN
378	1.000000	0.322841	7.36876e+06	-57539.1	955.818	-29737.1	0.000000	0.000000	6.322868	0.055605	NaN	0.000000	0.001604	0.001758	28.0824	0.045470	0.002111	21.5421	88.563	-165.603	-0.057806	0.321570	-0.706254	-0.707525	0.055605	21.5421	-0.708190	-2.531333E+9	-2.196675E-11	NaN
378	1.000000	0.330820	7.36876e+06	-57539.1	955.818	-29737.1	0.000000	0.000000	6.330846	0.045466	NaN	0.000000	0.001566	0.001731	28.0825	0.053915	0.002001	26.9433	33.5628	-164.199	0.013724	0.329509	-0.698275	-0.699586	0.045466	26.9433	-0.699541	-1.928673E+9	-2.357384E-11	NaN
378	1.000000	0.338826	7.36876e+06	-57539.1	955.819	-29737.1	0.000000	0.000000	6.338850	-0.031414	NaN	0.000000	0.001589	0.001745	28.0824	0.090404	0.002062	43.8521	162.519	-166.827	0.026780	0.337516	-0.690268	-0.691579	-0.031414	43.8521	-0.689731	-1.416587E+9	2.217576E-11	NaN
378	1.000000	0.346850	7.36876e+06	-57539.1	955.818	-29737.1	0.000000	0.000000	6.346876	0.032135	NaN	0.000000	0.001590	0.001739	28.0825	0.110923	0.001887	58.7792	45.3045	-165.803	0.011502	0.345514	-0.682245	-0.683581	0.032135	58.7792	-0.682655	-1.133734E+9	-2.834477E-11	NaN
378	1.000000	0.354827	7.36876e+06	-57539.1	955.819	-29737.1	0.000000	0.000000	6.354852	0.002808	NaN	0.000000	0.001611	0.001746	28.0813	0.046019	0.001890	24.3508	-33.5734	-164.231	0.094312	0.353535	-0.674268	-0.675559	0.002808	24.3508	-0.674354	-8.729229E+8	-3.216304E-12	NaN
378	1.000000	0.362853	7.36876e+06	-57539.1	955.818	-29737.1	0.000000	0.000000	6.362882	0.102472	NaN	0.000000	0.001565	0.001748	28.0812	0.133127	0.002036	65.3752	-134.164	-164.242	0.130330	0.361578	-0.666242	-0.667516	0.102472	65.3752	-0.667417	-7.015163E+8	-1.460719E-10	NaN
378	1.000000	0.370859	7.36876e+06	-57539.1	955.818	-29737.1	0.000000	0.000000	6.370885	0.023590	NaN	0.000000	0.001589	0.001758	28.0813	0.038571	0.002056	18.7645	150.766	-164.008	0.057350	0.369569	-0.658236	-0.659526	0.023590	18.7645	-0.659179	-5.410302E+8	-4.360205E-11	NaN
378	1.000000	0.378878	7.36876e+06	-57539.1	955.819	-29737.1	0.000000	0.000000	6.378905	0.055055	NaN	0.000000	0.001600	0.001774	28.0812	0.064067	0.001937	33.0736	169.854	-164.377	0.038768	0.377609	-0.650217	-0.651486	0.055055	33.0736	-0.651466	-4.241598E+8	-1.297973E-10	NaN
378	1.000000	0.386869	7.36876e+06	-57539.1	955.819	-29737.1	0.000000	0.000000	6.386895	0.037239	NaN	0.000000	0.001593	0.001760	28.0815	0.083488	0.002073	40.2809	117.394	-165.137	0.007472	0.385588	-0.642226	-0.643506	0.037239	40.2809	-0.642920	-3.238501E+8	-1.149885E-10	NaN
378	1.000000	0.394881	7.36876e+06	-57539.1	955.819	-29737.1	0.000000	0.000000	6.394906	-0.005628	NaN	0.000000	0.001576	0.001735	28.0813	0.023595	0.002070	11.3963	-91.7175	-166.286	0.074279	0.393583	-0.634214	-0.635511	-0.005628	11.3963	-0.633843	-2.431051E+8	2.314939E-11	NaN
378	1.000000	0.402823	7.36876e+06	-57539.1	955.819	-29737.1	0.000000	0.000000	6.402848	0.005056	NaN	0.000000	0.001589	0.001733	28.0811	0.154626	0.001962	78.8141	70.4076	-166.238	-0.012748	0.401539	-0.626272	-0.627556	0.005056	78.8141	-0.626320	-1.916376E+8	-2.638454E-11	NaN
378	1.000000	0.410870	7.36876e+06	-57539.1	955.819	-29737.1	0.000000	0.000000	6.410894	-0.006567	NaN	0.000000	0.001578	0.001748	28.081	0.132085	0.001986	66.5069	-131.398	-164.068	0.039461	0.409535	-0.618225	-0.619560	-0.006567	66.5069	-0.618151	-1.479840E+8	4.437873E-11	NaN
378	1.000000	0.418890	7.36876e+06	-57539.1	955.819	-29737.1	0.000000	0.000000	6.418915	0.010556	NaN	0.000000	0.001629	0.001738	28.081	0.047964	0.002108	22.7493	120.965	-165.884	0.041109	0.417544	-0.610205	-0.611550	0.010556	22.7493	-0.610553	-1.163387E+8	-9.073118E-11	NaN
378	1.000000	0.426845	7.36876e+06	-57539.1	955.819	-29737.1	0.000000	0.000000	6.426871	0.045859	NaN	0.000000	0.001632	0.001735	28.081	0.096071	0.002017	47.6244	-2.989206	-161.737	0.022909	0.425555	-0.602250	-0.603540	0.045859	47.6244	-0.602972	-9.149335E+7	-5.012310E-10	NaN
378	1.000000	0.434873	7.36876e+06	-57539.1	955.819	-29737.1	0.000000	0.000000	6.434895	-0.060680	NaN	0.000000	0.001589	0.001760	28.0809	0.053767	0.002020	26.6172	168.711	-168.187	-0.000292	0.433601	-0.594222	-0.595494	-0.060680	26.6172	-0.592512	-6.565904E+7	9.241623E-10	NaN
378	1.000000	0.442900	7.36876e+06	-57539.1	955.818	-29737.1	0.000000	0.000000	6.442926	0.024157	NaN	0.000000	0.001643	0.001743	28.0811	0.052375	0.001905	27.4994	83.6134	-163.21	0.031108	0.441582	-0.586195	-0.587513	0.024157	27.4994	-0.586853	-5.486299E+7	-4.403115E-10	NaN
378	1.000000	0.450870	7.36876e+06	-57539.1	955.818	-29737.1	0.000000	0.000000	6.450896	0.011819	NaN	0.000000	0.001614	0.001717	28.0811	0.068142	0.001982	34.3758	2.285985	-166.137	-0.032620	0.449563	-0.578225	-0.579531	0.011819	34.3758	-0.578482	-4.205128E+7	-2.810627E-10	NaN
378	1.000000	0.458908	7.36876e+06	-57539.1	955.819	-29737.1	0.000000	0.000000	6.458931	-0.054233	NaN	0.000000	0.001561	0.001775	28.081	0.051454	0.001976	26.0344	10.1515	-165.253	0.009978	0.457580	-0.570187	-0.571515	-0.054233	26.0344	-0.568624	-3.073441E+7	1.764559E-9	NaN
378	1.000000	0.466900	7.36876e+06	-57539.1	955.819	-29737.1	0.000000	0.000000	6.466924	-0.033896	NaN	0.000000	0.001569	0.001754	28.0814	0.022472	0.002149	10.456	16.6571	-164.625	-0.024900	0.465590	-0.562195	-0.563504	-0.033896	10.456	-0.559763	-2.317938E+7	1.462328E-9	NaN
378	1.000000	0.474910	7.36876e+06	-57539.1	955.819	-29737.1	0.000000	0.000000	6.474934	-0.002144	NaN	0.000000	0.001565	0.001776	28.0807	0.055554	0.002044	27.1758	51.1258	-164.925	0.014265	0.473555	-0.554185	-0.555540	-0.002144	27.1758	-0.554126	-1.936817E+7	1.106934E-10	NaN
378	1.000000	0.482907	7.36876e+06	-57539.1	955.818	-29737.2	0.000000	0.000000	6.482930	-0.032236	NaN	0.000000	0.001557	0.001728	28.081	0.057596	0.002139	26.9237	108.857	-162.614	-0.002687	0.481558	-0.546188	-0.547537	-0.032236	26.9237	-0.545290	-1.461168E+7	2.206151E-9	NaN
378	1.000000	0.490937	7.36876e+06	-57539.1	955.82	-29737.2	0.000000	0.000000	6.490964	0.042763	NaN	0.000000	0.001531	0.001720	28.0821	0.084321	0.001923	43.8421	-28.623	-163.473	0.058800	0.489610	-0.538158	-0.539485	0.042763	43.8421	-0.538889	-1.191108E+7	-3.590153E-9	NaN
378	1.000000	0.498934	7.36876e+06	-57539.1	955.819	-29737.2	0.000000	0.000000	6.498955	-0.111139	NaN	0.000000	0.001555	0.001783	28.0821	0.098323	0.002086	47.1451	105.767	-161.203	-0.014940	0.497605	-0.530160	-0.531490	-0.111139	47.1451	-0.528392	-8.51621e+06	1.305033E-8	NaN
378	1.000000	0.506886	7.36876e+06	-57539.1	955.818	-29737.2	0.000000	0.000000	6.506910	-0.008821	NaN	0.000000	0.001570	0.001748	28.0821	0.062683	0.001958	32.0206	-70.2492	-165.408	-0.000728	0.505651	-0.522209	-0.523444	-0.008821	32.0206	-0.522002	-6.94127e+06	1.270859E-9	NaN
378	1.000000	0.514926	7.36876e+06	-57539.1	955.818	-29737.2	0.000000	0.000000	6.514955	0.085474	NaN	0.000000	0.001543	0.001736	28.082	0.060455	0.001842	32.8156	59.7365	-166.254	0.020217	0.513618	-0.514168	-0.515477	0.085474	32.8156	-0.516122	-5.74973e+06	-1.486567E-8	NaN
378	1.000000	0.522937	7.36876e+06	-57539.1	955.818	-29737.2	0.000000	0.000000	6.522963	0.042678	NaN	0.000000	0.001561	0.001725	28.0822	0.021603	0.002100	10.2856	-53.1893	-165.917	0.126921	0.521646	-0.506158	-0.507449	0.042678	10.2856	-0.509270	-4.61581e+06	-9.246155E-9	NaN
378	1.000000	0.530921	7.36876e+06	-57539.1	955.819	-29737.2	0.000000	0.000000	6.530944	-0.028595	NaN	0.000000	0.001580	0.001758	28.0827	0.043655	0.002009	21.7334	60.1354	-163.384	-0.024288	0.529639	-0.498174	-0.499456	-0.028595	21.7334	-0.497188	-3.13164e+06	9.130856E-9	NaN
378	1.000000	0.538936	7.36876e+06	-57539.1	955.819	-29737.2	0.000000	0.000000	6.538965	0.106469	NaN	0.000000	0.001570	0.001778	28.0857	0.055712	0.002051	27.1628	25.3692	-165.019	0.148892	0.537629	-0.490159	-0.491465	0.106469	27.1628	-0.493099	-2.7459e+06	-3.877381E-8	NaN
378	1.000000	0.546912	7.36876e+06	-57539.1	955.818	-29737.2	0.000000	0.000000	6.546937	-0.000560	NaN	0.000000	0.001561	0.001780	28.0836	0.053061	0.001934	27.4342	-61.6485	-164.668	-0.091651	0.545670	-0.482183	-0.483425	-0.000560	27.4342	-0.482167	-1.93136e+06	2.898238E-10	NaN
378	1.000000	0.554960	7.36876e+06	-57539.1	955.818	-29737.2	0.000000	0.000000	6.554986	0.034292	NaN	0.000000	0.001557	0.001779	28.0826	0.087580	0.001996	43.8823	-76.8397	-167.077	0.029039	0.553658	-0.474135	-0.475437	0.034292	43.8823	-0.474721	-1.51912e+06	-2.257359E-8	NaN
378	1.000000	0.562944	7.36876e+06	-57539.1	955.819	-29737.2	0.000000	0.000000	6.562968	-0.018492	NaN	0.000000	0.001621	0.001761	28.0828	0.066554	0.002098	31.7152	-23.1894	-167.668	0.057965	0.561642	-0.466150	-0.467453	-0.018492	31.7152	-0.465713	-1.13568e+06	1.628263E-8	NaN
378	1.000000	0.570956	7.36876e+06	-57539.1	955.818	-29737.2	0.000000	0.000000	6.570979	-0.024677	NaN	0.000000	0.001591	0.001743	28.0821	0.064000	0.001984	32.255	64.0056	-167.181	0.022639	0.569639	-0.458139	-0.459456	-0.024677	32.255	-0.457565	-872564	2.828157E-8	NaN
378	1.000000	0.578953	7.36876e+06	-57539.1	955.819	-29737.2	0.000000	0.000000	6.578976	-0.047332	NaN	0.000000	0.001612	0.001760	28.082	0.092062	0.002064	44.599	7.329751	-165.553	-0.072827	0.577651	-0.450142	-0.451444	-0.047332	44.599	-0.449346	-668548	7.079889E-8	NaN
378	1.000000	0.586916	7.36876e+06	-57539.1	955.818	-29737.2	0.000000	0.000000	6.586944	0.083212	NaN	0.000000	0.001602	0.001721	28.0821	0.093933	0.002118	44.354	-79.6696	-164.959	0.081995	0.585633	-0.442179	-0.443461	0.083212	44.354	-0.443586	-554563	-1.500488E-7	NaN
378	1.000000	0.594976	7.36876e+06	-57539.1	955.819	-29737.2	0.000000	0.000000	6.595004	0.073889	NaN	0.000000	0.001621	0.001725	28.0822	0.095415	0.001957	48.7662	-68.7656	-165.464	0.045534	0.593649	-0.434119	-0.435446	0.073889	48.7662	-0.435255	-423017	-1.746724E-7	NaN
378	1.000000	0.602959	7.36876e+06	-57539.1	955.818	-29737.2	0.000000	0.000000	6.602986	0.060608	NaN	0.000000	0.001568	0.001744	28.0826	0.053890	0.001901	28.3486	52.7319	-164.914	0.077076	0.601672	-0.426136	-0.427423	0.060608	28.3486	-0.427740	-331188	-1.830019E-7	NaN
378	1.000000	0.610940	7.36876e+06	-57539.1	955.819	-29737.2	0.000000	0.000000	6.610967	0.054372	NaN	0.000000	0.001607	0.001752	28.0821	0.017107	0.001892	9.043199	-21.8144	-166.418	0.036654	0.609631	-0.418155	-0.419464	0.054372	9.043199	-0.422665	-280669	-1.937243E-7	NaN
378	1.000000	0.618950	7.36876e+06	-57539.1	955.818	-29737.2	0.000000	0.000000	6.618975	0.000796	NaN	0.000000	0.001595	0.001731	28.0817	0.059350	0.002025	29.3062	-121.262	-165.686	0.044832	0.617680	-0.410144	-0.411415	0.000796	29.3062	-0.410165	-186528	-4.266925E-9	NaN
378	1.000000	0.626962	7.36876e+06	-57539.1	955.819	-29737.2	0.000000	0.000000	6.626987	0.016162	NaN	0.000000	0.001579	0.001721	28.0809	0.033286	0.001891	17.6056	-115.822	-161.998	0.035613	0.625668	-0.402133	-0.403426	0.016162	17.6056	-0.402822	-146628	-1.102260E-7	NaN
378	1.000000	0.634953	7.36876e+06	-57539.1	955.82	-29737.2	0.000000	0.000000	6.634978	0.018365	NaN	0.000000	0.001599	0.001723	28.0807	0.129149	0.002031	63.6034	89.322	-163.432	-0.037029	0.633632	-0.394142	-0.395463	0.018365	63.6034	-0.394358	-111038	-1.653947E-7	NaN
378	1.000000	0.642989	7.36876e+06	-57539.1	955.818	-29737.2	0.000000	0.000000	6.643014	0.009807	NaN	0.000000	0.001596	0.001714	28.0811	0.067837	0.001858	36.516	-8.591782	-163.047	0.025584	0.641707	-0.386106	-0.387388	0.009807	36.516	-0.386307	-85174.2	-1.151364E-7	NaN
378	1.000000	0.651001	7.36876e+06	-57539.1	955.818	-29737.2	0.000000	0.000000	6.651024	-0.048013	NaN	0.000000	0.001543	0.001694	28.0808	0.101700	0.001894	53.7081	85.5833	-164.358	0.024891	0.649671	-0.378094	-0.379424	-0.048013	53.7081	-0.377423	-63517.2	7.559127E-7	NaN
378	1.000000	0.658985	7.36876e+06	-57539.1	955.819	-29737.2	0.000000	0.000000	6.659013	0.067780	NaN	0.000000	0.001585	0.001671	28.081	0.017593	0.002022	8.701268	-77.1528	-165.393	0.125623	0.657652	-0.370109	-0.371443	0.067780	8.701268	-0.375952	-60499.3	-1.120337E-6	NaN
378	1.000000	0.666970	7.36876e+06	-57539.1	955.819	-29737.2	0.000000	0.000000	6.666993	-0.055801	NaN	0.000000	0.001557	0.001685	28.0808	0.041022	0.002015	20.3613	-152.29	-165.484	-0.005165	0.665670	-0.362125	-0.363425	-0.055801	20.3613	-0.360069	-35714.6	1.562403E-6	NaN
378	1.000000	0.674991	7.36876e+06	-57539.1	955.819	-29737.2	0.000000	0.000000	6.675017	0.043024	NaN	0.000000	0.001551	0.001708	28.081	0.095609	0.001915	49.9317	-11.0791	-165.473	0.032625	0.673659	-0.354104	-0.355436	0.043024	49.9317	-0.354750	-29914.2	-1.438260E-6	NaN
378	1.000000	0.682979	7.36876e+06	-57539.1	955.819	-29737.2	0.000000	0.000000	6.683010	0.139098	NaN	0.000000	0.001576	0.001695	28.0811	0.129124	0.002152	59.9935	123.962	-166.742	0.128526	0.681697	-0.346116	-0.347397	0.139098	59.9935	-0.347855	-23760.2	-5.854226E-6	NaN
378	1.000000	0.690990	7.36876e+06	-57539.1	955.819	-29737.2	0.000000	0.000000	6.691012	-0.049732	NaN	0.000000	0.001598	0.001665	28.0807	0.040054	0.002022	19.8077	-35.5541	-163.209	-0.058870	0.689702	-0.338105	-0.339393	-0.049732	19.8077	-0.336222	-16085.7	3.091716E-6	NaN
378	1.000000	0.698984	7.36876e+06	-57539.1	955.819	-29737.2	0.000000	0.000000	6.699011	0.054246	NaN	0.000000	0.001611	0.001673	28.0816	0.050930	0.002008	25.3621	-75.4644	-164.975	0.061200	0.697652	-0.330111	-0.331442	0.054246	25.3621	-0.331715	-13821.6	-3.924694E-6	NaN
378	1.000000	0.707006	7.36876e+06	-57539.1	955.818	-29737.2	0.000000	0.000000	6.707031	-0.001228	NaN	0.000000	0.001556	0.001690	28.0809	0.070552	0.001796	39.2882	-175.757	-165.418	-0.066505	0.705707	-0.322089	-0.323388	-0.001228	39.2882	-0.322065	-9977.39	1.231142E-7	NaN
378	1.000000	0.714984	7.36876e+06	-57539.1	955.819	-29737.2	0.000000	0.000000	6.715011	0.049162	NaN	0.000000	0.001635	0.001685	28.081	0.042490	0.002003	21.2096	-14.9714	-167.313	-0.014715	0.713721	-0.314111	-0.315374	0.049162	21.2096	-0.315849	-8081.3	-6.083427E-6	NaN
378	1.000000	0.722998	7.36876e+06	-57539.1	955.819	-29737.2	0.000000	0.000000	6.723023	-0.013156	NaN	0.000000	0.001594	0.001677	28.081	0.124376	0.002039	61.0037	-2.027657	-163.255	0.007730	0.721705	-0.306096	-0.307390	-0.013156	61.0037	-0.305935	-5765.32	2.281950E-6	NaN
378	1.000000	0.731007	7.36876e+06	-57539.1	955.819	-29737.2	0.000000	0.000000	6.731030	-0.030580	NaN	0.000000	0.001557	0.001642	28.0808	0.073603	0.001956	37.6341	50.8555	-164.297	-0.116836	0.729695	-0.298088	-0.299400	-0.030580	37.6341	-0.297479	-4315.92	7.085416E-6	NaN
378	1.000000	0.739021	7.36876e+06	-57539.1	955.819	-29737.2	0.000000	0.000000	6.739050	0.082174	NaN	0.000000	0.001582	0.001714	28.0812	0.055053	0.002093	26.3062	153.189	-164.395	0.060102	0.737719	-0.290073	-0.291375	0.082174	26.3062	-0.292416	-3626.38	-2.266010E-5	NaN
378	1.000000	0.746990	7.36876e+06	-57539.1	955.819	-29737.2	0.000000	0.000000	6.747017	0.052486	NaN	0.000000	0.001591	0.001703	28.081	0.039686	0.001911	20.77	-166.3	-167.935	0.019225	0.745722	-0.282105	-0.283373	0.052486	20.77	-0.284000	-2711.6	-1.935595E-5	NaN
378	1.000000	0.755059	7.36876e+06	-57539.1	955.819	-29737.2	0.000000	0.000000	6.755087	0.063407	NaN	0.000000	0.001569	0.001645	28.0812	0.029519	0.001917	15.395	10.7861	-166.125	0.059197	0.753760	-0.274036	-0.275335	0.063407	15.395	-0.277125	-2135.73	-2.968879E-5	NaN
378	1.000000	0.763038	7.36876e+06	-57539.1	955.818	-29737.2	0.000000	0.000000	6.763066	0.065138	NaN	0.000000	0.001567	0.001663	28.0818	0.017893	0.001988	8.998667	-141.671	-165.252	0.035010	0.761699	-0.266057	-0.267395	0.065138	8.998667	-0.271485	-1754.33	-3.712961E-5	NaN
378	1.000000	0.770986	7.36876e+06	-57539.1	955.819	-29737.2	0.000000	0.000000	6.771010	-0.014628	NaN	0.000000	0.001602	0.001692	28.0821	0.110039	0.002043	53.8629	149.028	-165.471	0.021761	0.769734	-0.258109	-0.259360	-0.014628	53.8629	-0.257905	-1088.38	1.343996E-5	NaN
378	1.000000	0.779031	7.36876e+06	-57539.1	955.818	-29737.2	0.000000	0.000000	6.779056	-0.015661	NaN	0.000000	0.001652	0.001664	28.0821	0.059452	0.002137	27.8179	-25.5585	-164.903	0.087164	0.777721	-0.250063	-0.251373	-0.015661	27.8179	-0.249641	-811.739	1.929319E-5	NaN
378	1.000000	0.786997	7.36876e+06	-57539.1	955.818	-29737.2	0.000000	0.000000	6.787020	-0.026974	NaN	0.000000	0.001631	0.001728	28.0821	0.019572	0.002074	9.434566	22.6387	-164.473	-0.056011	0.785748	-0.242098	-0.243347	-0.026974	9.434566	-0.239954	-573.895	4.700101E-5	NaN
378	1.000000	0.795035	7.36876e+06	-57539.1	955.819	-29737.2	0.000000	0.000000	6.795059	-0.021481	NaN	0.000000	0.001681	0.001703	28.0824	0.109278	0.001987	54.9856	-158.885	-165.831	-0.031877	0.793734	-0.234060	-0.235361	-0.021481	54.9856	-0.233767	-459.065	4.679398E-5	NaN
378	1.000000	0.803041	7.36876e+06	-57539.1	955.819	-29737.2	0.000000	0.000000	6.803067	0.028431	NaN	0.000000	0.001657	0.001685	28.0819	0.083179	0.001925	43.2173	154.97	-167.751	-0.021788	0.801724	-0.226054	-0.227371	0.028431	43.2173	-0.226547	-353.091	-8.051916E-5	NaN
378	1.000000	0.811019	7.36876e+06	-57539.1	955.818	-29737.2	0.000000	0.000000	6.811041	-0.061286	NaN	0.000000	0.001611	0.001700	28.0822	0.085046	0.002070	41.0774	69.4794	-165.217	-0.035146	0.809679	-0.218076	-0.219416	-0.061286	41.0774	-0.216957	-248.287	0.000247	NaN
378	1.000000	0.819048	7.36876e+06	-57539.1	955.819	-29737.2	0.000000	0.000000	6.819075	0.045253	NaN	0.000000	0.001665	0.001676	28.0821	0.003597	0.001977	1.819158	83.0769	-163.353	0.056544	0.817729	-0.210046	-0.211366	0.045253	1.819158	-0.228703	-381.968	-0.000118	NaN
378	1.000000	0.827039	7.36876e+06	-57539.1	955.819	-29737.2	0.000000	0.000000	6.827065	0.038543	NaN	0.000000	0.001663	0.001677	28.0823	0.076703	0.001989	38.5588	-157.805	-165.548	0.047627	0.825760	-0.202056	-0.203335	0.038543	38.5588	-0.202806	-146.457	-0.000263	NaN
378	1.000000	0.835040	7.36876e+06	-57539.1	955.819	-29737.2	0.000000	0.000000	6.835068	0.088349	NaN	0.000000	0.001615	0.001655	28.0825	0.065428	0.002066	31.6756	40.9587	-165.917	0.062258	0.833765	-0.194055	-0.195330	0.088349	31.6756	-0.196147	-113.811	-0.000776	NaN
378	1.000000	0.843058	7.36876e+06	-57539.1	955.82	-29737.2	0.000000	0.000000	6.843086	0.089289	NaN	0.000000	0.001657	0.001673	28.0823	0.137827	0.002016	68.3827	-3.655225	-167.857	0.128169	0.841747	-0.186037	-0.187348	0.089289	68.3827	-0.187016	-80.1772	-0.001114	NaN
378	1.000000	0.851084	7.36876e+06	-57539.1	955.819	-29737.2	0.000000	0.000000	6.851113	0.101393	NaN	0.000000	0.001659	0.001623	28.0828	0.071198	0.001959	36.3404	4.215503	-165.498	0.039496	0.849763	-0.178011	-0.179332	0.101393	36.3404	-0.180103	-61.2663	-0.001655	NaN
378	1.000000	0.859087	7.36876e+06	-57539.1	955.818	-29737.2	0.000000	0.000000	6.859111	-0.019140	NaN	0.000000	0.001688	0.001667	28.0824	0.057818	0.002054	28.1536	-100.022	-163.99	-0.087655	0.857747	-0.170008	-0.171348	-0.019140	28.1536	-0.169498	-40.2618	0.000475	NaN
378	1.000000	0.867071	7.36876e+06	-57539.1	955.819	-29737.2	0.000000	0.000000	6.867098	0.047095	NaN	0.000000	0.001694	0.001678	28.0824	0.097388	0.001915	50.8667	157.465	-164.425	0.004276	0.865724	-0.162024	-0.163371	0.047095	50.8667	-0.162718	-30.6285	-0.001538	NaN
378	1.000000	0.875077	7.36876e+06	-57539.1	955.819	-29737.2	0.000000	0.000000	6.875104	0.055907	NaN	0.000000	0.001660	0.001678	28.0826	0.128037	0.001950	65.6548	54.7849	-166.661	0.043102	0.873765	-0.154018	-0.155330	0.055907	65.6548	-0.154656	-21.9985	-0.002541	NaN
378	1.000000	0.883087	7.36876e+06	-57539.1	955.819	-29737.2	0.000000	0.000000	6.883115	0.072985	NaN	0.000000	0.001653	0.001636	28.0827	0.038434	0.002052	18.7269	-120.971	-166.179	0.073487	0.881797	-0.146008	-0.147298	0.072985	18.7269	-0.148931	-17.317	-0.004215	NaN
378	1.000000	0.891104	7.36876e+06	-57539.1	955.819	-29737.2	0.000000	0.000000	6.891133	0.097175	NaN	0.000000	0.001688	0.001701	28.0832	0.157822	0.002145	73.5704	81.4985	-164.622	0.092122	0.889791	-0.137991	-0.139304	0.097175	73.5704	-0.138982	-11.319	-0.008585	NaN
378	1.000000	0.899063	7.36876e+06	-57539.1	955.818	-29737.2	0.000000	0.000000	6.899090	0.071792	NaN	0.000000	0.001690	0.001710	28.0817	0.146814	0.002016	72.8371	139.503	-165.965	0.022393	0.897744	-0.130032	-0.131351	0.071792	72.8371	-0.130772	-7.888213	-0.009101	NaN
378	1.000000	0.907065	7.36876e+06	-57539.1	955.818	-29737.2	0.000000	0.000000	6.907092	0.060623	NaN	0.000000	0.001678	0.001717	28.081	0.102031	0.001888	54.0381	-69.8771	-162.139	0.009349	0.905746	-0.122030	-0.123349	0.060623	54.0381	-0.122872	-5.517056	-0.010988	NaN
378	1.000000	0.915070	7.36876e+06	-57539.1	955.819	-29737.2	0.000000	0.000000	6.915094	-0.001916	NaN	0.000000	0.001680	0.001705	28.0813	0.019459	0.001972	9.867361	172.396	-161.575	0.044413	0.913737	-0.114025	-0.115358	-0.001916	9.867361	-0.113880	-3.622044	0.000529	NaN
378	1.000000	0.923073	7.36876e+06	-57539.1	955.818	-29737.2	0.000000	0.000000	6.923100	0.070765	NaN	0.000000	0.001694	0.001702	28.0814	0.143586	0.001838	78.1192	173.134	-166.001	0.121486	0.921795	-0.106022	-0.107300	0.070765	78.1192	-0.106702	-2.557280	-0.027672	NaN
378	1.000000	0.931096	7.36876e+06	-57539.1	955.818	-29737.2	0.000000	0.000000	6.931123	0.063619	NaN	0.000000	0.001609	0.001743	28.0815	0.046533	0.001890	24.6218	-31.9888	-164.763	0.030861	0.929770	-0.097999	-0.099325	0.063619	24.6218	-0.099937	-1.821256	-0.034932	NaN
378	1.000000	0.939089	7.36876e+06	-57539.1	955.819	-29737.2	0.000000	0.000000	6.939115	0.042953	NaN	0.000000	0.001571	0.001706	28.0812	0.105372	0.001985	53.0812	-97.4877	-164.854	0.051027	0.937775	-0.090006	-0.091319	0.042953	53.0812	-0.090613	-1.117314	-0.038443	NaN
378	1.000000	0.947089	7.36876e+06	-57539.1	955.82	-29737.2	0.000000	0.000000	6.947116	0.052941	NaN	0.000000	0.001629	0.001701	28.0815	0.087252	0.001949	44.7627	179.5	-166.932	0.012289	0.945729	-0.082006	-0.083365	0.052941	44.7627	-0.082893	-0.730021	-0.072520	NaN
378	1.000000	0.955104	7.36876e+06	-57539.1	955.818	-29737.2	0.000000	0.000000	6.955131	0.043890	NaN	0.000000	0.001643	0.001647	28.0814	0.024862	0.002024	12.2868	-118.119	-161.951	-0.005763	0.953773	-0.073991	-0.075322	0.043890	12.2868	-0.076670	-0.509878	-0.086079	NaN
378	1.000000	0.963082	7.36876e+06	-57539.1	955.819	-29737.2	0.000000	0.000000	6.963107	0.022402	NaN	0.000000	0.001619	0.001698	28.0811	0.005516	0.002000	2.757413	-40.1881	-161.656	-0.006839	0.961803	-0.066013	-0.067292	0.022402	2.757413	-0.072106	-0.388063	-0.057727	NaN
378	1.000000	0.971115	7.36876e+06	-57539.1	955.819	-29737.2	0.000000	0.000000	6.971139	-0.006513	NaN	0.000000	0.001652	0.001728	28.0814	0.071305	0.001885	37.8299	69.0989	-168.15	0.022707	0.969799	-0.057980	-0.059296	-0.006513	37.8299	-0.057851	-0.156111	0.041718	NaN
378	1.000000	0.979100	7.36876e+06	-57539.1	955.82	-29737.2	0.000000	0.000000	6.979127	0.052573	NaN	0.000000	0.001637	0.001678	28.0812	0.097882	0.001885	51.9236	-17.485	-164.799	0.072054	0.977812	-0.049994	-0.051283	0.052573	51.9236	-0.050754	-0.096162	-0.546712	NaN
378	1.000000	0.987128	7.36876e+06	-57539.1	955.818	-29737.2	0.000000	0.000000	6.987155	0.042908	NaN	0.000000	0.001628	0.001717	28.0816	0.010563	0.002000	5.281837	179.458	-159.227	0.058196	0.985815	-0.041967	-0.043280	0.042908	5.281837	-0.048060	-0.079683	-0.538479	NaN
378	1.000000	0.995120	7.36876e+06	-57539.1	955.819	-29737.2	0.000000	0.000000	6.995146	0.024485	NaN	0.000000	0.001639	0.001723	28.081	0.054493	0.001995	27.3179	70.4	-167.413	0.025406	0.993864	-0.033975	-0.035231	0.024485	27.3179	-0.034647	-0.031268	-0.783091	NaN
378	1.000000	1.003130	7.36876e+06	-57539.1	955.819	-29737.2	0.000000	0.000000	7.003159	0.117897	NaN	0.000000	0.001619	0.001695	28.0809	0.145988	0.002044	71.4117	179.396	-168.215	0.050770	1.001857	-0.025965	-0.027238	0.117897	71.4117	-0.027203	-0.019296	-6.110007	NaN
378	1.000000	1.011128	7.36876e+06	-57539.1	955.82	-29737.2	0.000000	0.000000	7.011154	0.020297	NaN	0.000000	0.001616	0.001721	28.081	0.127610	0.001961	65.0856	38.3666	-165.609	0.021264	1.009834	-0.017967	-0.019261	0.020297	65.0856	-0.018201	-0.011297	-1.796675	NaN
378	1.000000	1.019119	7.36876e+06	-57539.1	955.819	-29737.2	0.000000	0.000000	7.019143	-0.005151	NaN	0.000000	0.001674	0.001697	28.081	0.172661	0.001997	86.4542	-35.0248	-166.037	0.050454	1.017801	-0.009976	-0.011293	-0.005151	86.4542	-0.009931	-0.006348	0.811496	NaN
378	1.000000	1.027144	7.36876e+06	-57539.1	955.819	-29737.2	0.000000	0.000000	7.027172	0.091007	NaN	0.000000	0.001642	0.001716	28.0811	0.075417	0.002068	36.4628	158.341	-164.858	0.054041	1.025839	-0.001951	-0.003255	0.091007	36.4628	-0.003823	-0.002664	-34.1647	NaN
378	1.000000	1.035118	7.36876e+06	-57539.1	955.818	-29737.2	0.000000	0.000000	7.035334	4.651640	NaN	0.000000	0.001640	0.001726	28.0816	5.381636	0.001825	2949.53	15.7066	-169.063	4.029278	1.033757	0.006023	0.004662	4.651640	2949.53	0.004840	0.003988	1166.34	42671.2
378	2.000000	1.039769	7.36876e+06	-57539.1	955.819	-29737.2	0.000000	0.000000	7.040158	8.853269	NaN	0.000000	0.001636	0.001699	28.0827	9.811828	0.001713	5726.98	6.482103	-172.88	8.432077	1.039474	0.010674	0.010379	8.853269	5726.98	0.009515	0.008647	1023.84	56268.3
378	2.000000	1.041726	7.36876e+06	-57539.1	955.819	-29737.2	0.000000	0.000000	7.042188	10.6229	NaN	0.000000	0.001731	0.001732	28.0822	11.5531	0.001600	7219.05	5.389066	-172.599	10.2373	1.041470	0.012631	0.012375	10.6229	7219.05	0.011528	0.010929	971.97	63089.6
378	2.000000	1.043755	7.36876e+06	-57539.1	955.82	-29737.2	0.000000	0.000000	7.044292	12.4622	NaN	0.000000	0.001714	0.001716	28.0822	13.4718	0.001733	7774.32	8.824903	-174.855	13.6442	1.043462	0.014660	0.014367	12.4622	7774.32	0.013458	0.013284	938.163	61627.9
378	2.000000	1.045768	7.36876e+06	-57539.1	955.82	-29737.2	0.000000	0.000000	7.046501	17.217	NaN	0.000000	0.001718	0.001738	28.0823	15.5581	0.001718	9056.66	5.188237	-171.035	17.4039	1.045318	0.016673	0.016224	17.217	9056.66	0.015247	0.015617	1102.49	66213.9
378	2.000000	1.047719	7.36876e+06	-57539.1	955.819	-29737.2	0.000000	0.000000	7.048529	19.0794	NaN	0.000000	0.001716	0.001745	28.0822	17.34	0.001717	10097.6	8.013701	-178.214	18.5949	1.047484	0.018625	0.018389	19.0794	10097.6	0.017207	0.018343	1040.17	68117.6
378	2.000000	1.049685	7.36876e+06	-57539.1	955.819	-29737.2	0.000000	0.000000	7.050646	22.7404	NaN	0.000000	0.001706	0.001728	28.0826	19.4365	0.001850	10506.5	4.044545	-172.692	22.1332	1.049388	0.020590	0.020293	22.7404	10506.5	0.018967	0.020945	1085.72	66327.1
378	2.000000	1.051698	7.36877e+06	-57539.1	955.819	-29737.2	0.000000	0.000000	7.052863	27.7199	NaN	0.000000	0.001683	0.001705	28.0823	21.0577	0.001686	12493	6.287544	-176.232	28.2865	1.051408	0.022603	0.022313	27.7199	12493	0.020939	0.024040	1153.1	73616.6
378	2.000000	1.053676	7.36877e+06	-57539.1	955.82	-29737.2	0.000000	0.000000	7.054932	29.9368	NaN	0.000000	0.001695	0.001702	28.0822	24.0836	0.001829	13171.2	7.276500	-178.101	30.3203	1.053371	0.024581	0.024276	29.9368	13171.2	0.022876	0.027265	1098	72878.2
378	2.000000	1.055705	7.36877e+06	-57539.1	955.819	-29737.2	0.000000	0.000000	7.057216	36.1394	NaN	0.000000	0.001670	0.001709	28.0822	26.2529	0.001948	13476.2	6.631873	-177.373	34.5644	1.055409	0.026610	0.026314	36.1394	13476.2	0.024599	0.030289	1193.14	70745.2
378	2.000000	1.057623	7.36877e+06	-57539.1	955.818	-29737.2	0.000000	0.000000	7.059428	43.2498	NaN	0.000000	0.001695	0.001703	28.0823	27.9496	0.001766	15823.1	2.939880	-177.037	40.6784	1.057300	0.028528	0.028205	43.2498	15823.1	0.026478	0.033760	1281.08	78679.2
378	2.000000	1.059685	7.36877e+06	-57539.1	955.819	-29737.2	0.000000	0.000000	7.061635	46.8048	NaN	0.000000	0.001702	0.001712	28.0824	31.3188	0.001810	17303.7	9.839448	176.674	46.3984	1.059366	0.030590	0.030271	46.8048	17303.7	0.028561	0.037814	1237.76	81299.1
378	2.000000	1.061670	7.36877e+06	-57539.1	955.819	-29737.2	0.000000	0.000000	7.063947	54.7218	NaN	0.000000	0.001682	0.001697	28.0824	32.3256	0.001717	18829	5.936648	179.351	53.1628	1.061356	0.032575	0.032261	54.7218	18829	0.030396	0.041568	1316.44	84376.4
378	2.000000	1.063662	7.36877e+06	-57539.1	955.819	-29737.2	0.000000	0.000000	7.066055	57.5407	NaN	0.000000	0.001703	0.001731	28.0825	34.9443	0.001826	19134.3	8.685471	176.261	56.934	1.063279	0.034568	0.034184	57.5407	19134.3	0.032312	0.045672	1259.86	81801
378	2.000000	1.065661	7.36877e+06	-57539.1	955.819	-29737.2	0.000000	0.000000	7.068293	63.3541	NaN	0.000000	0.001710	0.001735	28.0833	36.7019	0.001751	20957.6	4.673347	179.271	62.0675	1.065325	0.036567	0.036230	63.3541	20957.6	0.034299	0.050127	1263.87	85522.2
378	2.000000	1.067602	7.36877e+06	-57539.1	955.819	-29737.2	0.000000	0.000000	7.070506	69.9742	NaN	0.000000	0.001702	0.001719	28.0824	37.4809	0.001758	21316.8	1.653808	-177.896	67.8302	1.067400	0.038507	0.038305	69.9742	21316.8	0.036045	0.054207	1290.87	83650.3
378	2.000000	1.069618	7.36877e+06	-57539.1	955.819	-29737.2	0.000000	0.000000	7.072852	77.9976	NaN	0.000000	0.001676	0.001735	28.0824	39.8468	0.001713	23256.9	2.274096	-179.522	76.0185	1.069417	0.040524	0.040322	77.9976	23256.9	0.038008	0.058982	1322.39	87491.1
378	2.000000	1.071637	7.36877e+06	-57539.1	955.819	-29737.2	0.000000	0.000000	7.075185	85.6481	NaN	0.000000	0.001641	0.001696	28.0819	40.6063	0.001664	24408.9	4.823003	177.933	84.3489	1.071312	0.042542	0.042217	85.6481	24408.9	0.039910	0.063796	1342.52	88292.2
378	2.000000	1.073615	7.36877e+06	-57539.1	955.82	-29737.2	0.000000	0.000000	7.077420	91.8598	NaN	0.000000	0.001676	0.001738	28.081	44.5729	0.001827	24392.3	3.876852	178.945	88.1877	1.073199	0.044520	0.044104	91.8598	24392.3	0.041696	0.068485	1341.31	85158.8
378	2.000000	1.075667	7.36877e+06	-57539.1	955.819	-29737.2	0.000000	0.000000	7.079749	98.6147	NaN	0.000000	0.001610	0.001731	28.082	47.0678	0.001830	25726.5	5.658421	178.044	97.5164	1.075280	0.046572	0.046185	98.6147	25726.5	0.043697	0.073932	1333.85	86444.4
378	2.000000	1.077665	7.36877e+06	-57539.1	955.82	-29737.2	0.000000	0.000000	7.082127	107.841	NaN	0.000000	0.001624	0.001735	28.0808	48.8713	0.001732	28216.2	4.602637	176.701	109.593	1.077376	0.048570	0.048281	107.841	28216.2	0.045704	0.079597	1354.84	91374.1
378	2.000000	1.079674	7.36877e+06	-57539.1	955.819	-29737.2	0.000000	0.000000	7.084534	117.508	NaN	0.000000	0.001635	0.001746	28.0807	52.6664	0.001946	27070.4	11.0565	172.193	117.06	1.079223	0.050580	0.050128	117.508	27070.4	0.047324	0.084321	1393.57	85172.5
378	2.000000	1.081619	7.36877e+06	-57539.1	955.82	-29737.2	0.000000	0.000000	7.086900	127.738	NaN	0.000000	0.001625	0.001732	28.0809	51.967	0.001723	30164.4	2.036329	178.94	126.235	1.081236	0.052524	0.052141	127.738	30164.4	0.049348	0.090409	1412.88	91656.3
378	2.000000	1.083667	7.36877e+06	-57539.1	955.82	-29737.2	0.000000	0.000000	7.089268	135.519	NaN	0.000000	0.001599	0.001707	28.0812	56.3038	0.001716	32819	9.693250	171.82	135.655	1.083181	0.054573	0.054086	135.519	32819	0.051476	0.097029	1396.69	96260.8
378	2.000000	1.085636	7.36877e+06	-57539.1	955.82	-29737.2	0.000000	0.000000	7.091595	144.223	NaN	0.000000	0.001644	0.001691	28.0815	57.2547	0.001740	32914.1	6.088848	174.727	142.322	1.085294	0.056541	0.056199	144.223	32914.1	0.053255	0.102738	1403.78	93818.4
378	2.000000	1.087570	7.36877e+06	-57539.1	955.819	-29737.2	0.000000	0.000000	7.094042	156.698	NaN	0.000000	0.001606	0.001716	28.0811	59.9141	0.001790	33464	6.802424	173.361	152.611	1.087291	0.058475	0.058196	156.698	33464	0.054963	0.108369	1445.97	92874.9
378	2.000000	1.089571	7.36877e+06	-57539.1	955.819	-29737.2	0.000000	0.000000	7.096330	163.665	NaN	0.000000	0.001638	0.001693	28.0808	62.591	0.001909	32786.1	3.514252	176.817	159.502	1.089263	0.060476	0.060168	163.665	32786.1	0.056732	0.114352	1431.24	88581
378	2.000000	1.091530	7.36877e+06	-57539.1	955.82	-29737.2	0.000000	0.000000	7.098813	176.398	NaN	0.000000	0.001631	0.001745	28.081	64.1229	0.001785	35920.6	6.554061	173.698	172.412	1.091189	0.062435	0.062094	176.398	35920.6	0.058752	0.121372	1453.37	94201.6
378	2.000000	1.093605	7.36877e+06	-57539.1	955.82	-29737.2	0.000000	0.000000	7.101113	181.885	NaN	0.000000	0.001674	0.001700	28.0809	65.1535	0.001812	35958.3	4.389359	175.203	180.753	1.093288	0.064510	0.064193	181.885	35958.3	0.060716	0.128389	1416.68	91687.2
378	2.000000	1.095708	7.36877e+06	-57539.1	955.821	-29737.2	0.000000	0.000000	7.103831	196.819	NaN	0.000000	0.001689	0.001699	28.0806	68.2305	0.001833	37230.5	13.6084	167.203	200.671	1.095289	0.066613	0.066194	196.819	37230.5	0.062648	0.135475	1452.81	92415.1
378	2.000000	1.097621	7.36877e+06	-57539.1	955.82	-29737.2	0.000000	0.000000	7.106412	213.052	NaN	0.000000	0.001760	0.001668	28.0815	68.913	0.001791	38470.8	7.939045	172.166	213.106	1.097263	0.068527	0.068168	213.052	38470.8	0.064373	0.141955	1500.85	93288.7
378	2.000000	1.099595	7.36877e+06	-57539.1	955.82	-29737.2	0.000000	0.000000	7.108501	215.844	NaN	0.000000	0.001693	0.001715	28.081	71.0588	0.001622	43801.2	5.236602	172.476	214.254	1.099529	0.070501	0.070434	215.844	43801.2	0.066805	0.151333	1426.28	102871
378	2.000000	1.101526	7.36877e+06	-57539.1	955.82	-29737.2	0.000000	0.000000	7.111178	233.982	NaN	0.000000	0.001679	0.001684	28.0807	72.1379	0.001777	40588.8	4.708821	173.819	227.687	1.101110	0.072432	0.072015	233.982	40588.8	0.068108	0.156477	1495.31	93746.3
378	2.000000	1.103523	7.36877e+06	-57539.1	955.821	-29737.2	0.000000	0.000000	7.113481	241.423	NaN	0.000000	0.001689	0.001696	28.081	75.5575	0.001713	44111.5	5.306440	172.504	236.182	1.103254	0.074428	0.074159	241.423	44111.5	0.070323	0.165404	1459.59	99095.1
378	2.000000	1.105681	7.36877e+06	-57539.1	955.82	-29737.2	0.000000	0.000000	7.116217	255.487	NaN	0.000000	0.001705	0.001692	28.081	78.2706	0.001762	44418.2	8.061729	170.316	255.81	1.105336	0.076586	0.076241	255.487	44418.2	0.072272	0.173453	1472.95	97441.5
378	2.000000	1.107651	7.36877e+06	-57539.1	955.821	-29737.2	0.000000	0.000000	7.118600	265.515	NaN	0.000000	0.001674	0.001703	28.0822	80.4927	0.001930	41706.3	7.409608	171.925	267.81	1.107307	0.078556	0.078212	265.515	41706.3	0.073781	0.179809	1476.65	89860.5
378	2.000000	1.109581	7.36877e+06	-57539.1	955.82	-29737.2	0.000000	0.000000	7.120964	276.059	NaN	0.000000	0.001662	0.001709	28.0825	80.3616	0.001759	45694.4	0.206990	177.642	274.124	1.109370	0.080486	0.080275	276.059	45694.4	0.075955	0.189151	1459.47	95991.4
378	2.000000	1.111636	7.36877e+06	-57539.1	955.82	-29737.2	0.000000	0.000000	7.123946	298.588	NaN	0.000000	0.001714	0.001698	28.082	82.6385	0.001781	46409.8	6.743726	171.911	300.784	1.111236	0.082541	0.082141	298.588	46409.8	0.077715	0.196882	1516.59	95560.8
378	2.000000	1.113592	7.36877e+06	-57539.1	955.82	-29737.2	0.000000	0.000000	7.126572	314.851	NaN	0.000000	0.001698	0.001701	28.0818	83.78	0.001806	46398	3.656414	174.627	315.246	1.113309	0.084497	0.084214	314.851	46398	0.079408	0.204450	1539.99	93751.5
378	2.000000	1.115744	7.36877e+06	-57539.1	955.82	-29737.2	0.000000	0.000000	7.129024	322.17	NaN	0.000000	0.001686	0.001689	28.0819	87.154	0.001800	48427	7.360577	171.071	329.381	1.115261	0.086649	0.086166	322.17	48427	0.081660	0.214725	1500.38	95481.6
378	2.000000	1.117571	7.36877e+06	-57539.1	955.82	-29737.2	0.000000	0.000000	7.131607	340.532	NaN	0.000000	0.001687	0.001697	28.0821	87.1604	0.001663	52414.1	7.445316	169.744	338.964	1.117245	0.088476	0.088150	340.532	52414.1	0.083603	0.223784	1521.69	101229
378	2.000000	1.119561	7.36877e+06	-57539.1	955.819	-29737.2	0.000000	0.000000	7.133766	344.621	NaN	0.000000	0.001718	0.001708	28.0823	91.9272	0.001749	52566	7.776749	169.667	343.749	1.119238	0.090467	0.090143	344.621	52566	0.085550	0.233030	1478.87	99488.3
378	2.000000	1.121687	7.36877e+06	-57539.1	955.819	-29737.2	0.000000	0.000000	7.136426	357.637	NaN	0.000000	0.001691	0.001697	28.0819	92.3957	0.001809	51068.5	5.164387	172.35	365.176	1.121252	0.092592	0.092157	357.637	51068.5	0.087339	0.241688	1479.75	94907.2
378	2.000000	1.123490	7.36877e+06	-57539.1	955.82	-29737.2	0.000000	0.000000	7.139217	381.617	NaN	0.000000	0.001685	0.001727	28.0818	95.1207	0.001735	54819.7	7.042171	169.565	376.454	1.123202	0.094396	0.094107	381.617	54819.7	0.089175	0.250718	1522.1	100027
378	2.000000	1.125569	7.36877e+06	-57539.1	955.82	-29737.2	0.000000	0.000000	7.141603	389.071	NaN	0.000000	0.001684	0.001672	28.0818	97.1431	0.001781	54537.3	6.802993	170.064	385.978	1.125308	0.096475	0.096213	389.071	54537.3	0.091124	0.260479	1493.67	97629.2
378	2.000000	1.127623	7.36877e+06	-57539.1	955.82	-29737.2	0.000000	0.000000	7.144163	401.384	NaN	0.000000	0.001698	0.001714	28.082	98.5032	0.001895	51989.5	3.275452	173.543	401.531	1.127417	0.098528	0.098322	401.384	51989.5	0.092738	0.268693	1493.84	91634.8
378	2.000000	1.129513	7.36877e+06	-57539.1	955.819	-29737.2	0.000000	0.000000	7.146907	422.145	NaN	0.000000	0.001715	0.001713	28.0821	99.8915	0.001830	54589	4.223942	172.806	418.301	1.129207	0.100418	0.100113	422.145	54589	0.094618	0.278410	1516.27	94522.7
378	2.000000	1.131490	7.36877e+06	-57539.1	955.82	-29737.2	0.000000	0.000000	7.149522	437.656	NaN	0.000000	0.001741	0.001728	28.082	100.761	0.001694	59488.4	5.332268	170.709	432.37	1.131194	0.102395	0.102100	437.656	59488.4	0.096877	0.290301	1507.59	100874
378	2.000000	1.133614	7.36877e+06	-57539.1	955.819	-29737.2	0.000000	0.000000	7.152221	451.624	NaN	0.000000	0.001727	0.001727	28.0821	102.73	0.001723	59632	5.847399	171.234	454.296	1.133181	0.104519	0.104086	451.624	59632	0.098839	0.300815	1501.34	99335.2
378	2.000000	1.135687	7.36877e+06	-57539.1	955.819	-29737.2	0.000000	0.000000	7.154803	463.987	NaN	0.000000	0.001704	0.001688	28.0821	106.223	0.001718	61822	8.277347	167.797	467.594	1.135252	0.106592	0.106157	463.987	61822	0.100964	0.312398	1485.24	101056
378	2.000000	1.137133	7.36877e+06	-57539.1	955.82	-29737.2	0.000000	0.000000	7.156751	476.184	NaN	0.000000	0.001644	0.001751	28.0819	106.822	0.001890	56522.4	4.942947	-7.580991	478.372	1.136602	0.108039	0.107507	476.184	56522.4	0.101720	0.316572	1504.19	91782