File: remote_trans/data/nanoindenter/0828-1/data/Data_2025-08-06,11h17m57s/2025-07-22_16-23-58_1_138.txt
2025-07-22, 16:23:58, 1
Index	Phase	Displacement	Time	Pos X	Pos Y	Pos Z	Rot A	Rot B	Piezo Z	Force A	Force B	Gripper	Voltage A	Voltage B	Temperature	Amplitude force	Amplitude pos	Stiffness	Phase shift	Phase excitation	Force A raw	Displacement raw	HMax	HMax raw	Real Force	Real Stiffness	Contact Depth	Area	Hardness	Reduced Mod.
[#]	[#]	[um]	[s]	[um]	[um]	[um]	[m°]	[m°]	[um]	[uN]	[uN]	[V]	[V]	[V]	[°C]	[uN]	[um]	[N/m]	[°]	[°]	[uN]	[um]	[um]	[um]	[uN]	[N/m]	[um]	[um^2]	[MPa]	[MPa]
138	1.000000	0.002557	7.36639e+06	-45539.1	955.818	-29772.6	0.000000	0.000000	6.002738	-0.001594	NaN	0.000000	0.001638	0.001683	28.0885	0.072776	0.001044	69.7327	-99.7516	171.548	0.020494	0.001283	-1.049128	-1.050403	-0.001594	69.7327	-1.049111	-1.038627E+14	1.535079E-17	NaN
138	1.000000	0.010495	7.36639e+06	-45539.1	955.819	-29772.6	0.000000	0.000000	6.010675	-0.028885	NaN	0.000000	0.001663	0.001710	28.0886	0.083443	0.001007	82.8898	-100.491	176.39	-0.056283	0.009210	-1.041190	-1.042475	-0.028885	82.8898	-1.040929	-8.062262E+13	3.582792E-16	NaN
138	1.000000	0.018516	7.36639e+06	-45539.1	955.819	-29772.6	0.000000	0.000000	6.018695	-0.049214	NaN	0.000000	0.001685	0.001702	28.0862	0.065864	0.001650	39.9179	-54.2666	177.449	-0.020952	0.017201	-1.033169	-1.034485	-0.049214	39.9179	-1.032245	-6.161305E+13	7.987572E-16	NaN
138	1.000000	0.026518	7.36639e+06	-45539.1	955.817	-29772.6	0.000000	0.000000	6.026701	0.058876	NaN	0.000000	0.001646	0.001680	28.0867	0.048955	0.001878	26.0682	27.2922	175.812	-0.041219	0.025135	-1.025167	-1.026551	0.058876	26.0682	-1.026861	-5.215056E+13	-1.128958E-15	NaN
138	1.000000	0.034510	7.36639e+06	-45539.1	955.818	-29772.6	0.000000	0.000000	6.034690	-0.016965	NaN	0.000000	0.001665	0.001672	28.0854	0.104692	0.001923	54.4424	-77.8221	178.551	0.045763	0.033205	-1.017175	-1.018481	-0.016965	54.4424	-1.016941	-3.835255E+13	4.423420E-16	NaN
138	1.000000	0.042491	7.36639e+06	-45539.1	955.818	-29772.6	0.000000	0.000000	6.042674	0.069510	NaN	0.000000	0.001671	0.001679	28.0847	0.024033	0.002111	11.3845	145.759	175.54	0.050488	0.041167	-1.009195	-1.010518	0.069510	11.3845	-1.013774	-3.476734E+13	-1.999276E-15	NaN
138	1.000000	0.050500	7.36639e+06	-45539.1	955.818	-29772.6	0.000000	0.000000	6.050681	0.005099	NaN	0.000000	0.001634	0.001704	28.0838	0.050204	0.001972	25.4582	131.998	175.685	-0.011069	0.049201	-1.001185	-1.002485	0.005099	25.4582	-1.001335	-2.364520E+13	-2.156252E-16	NaN
138	1.000000	0.058480	7.36639e+06	-45539.1	955.818	-29772.6	0.000000	0.000000	6.058661	0.015651	NaN	0.000000	0.001595	0.001698	28.0858	0.118006	0.002002	58.9302	127.102	173.685	0.097873	0.057159	-0.993205	-0.994526	0.015651	58.9302	-0.993405	-1.849103E+13	-8.463980E-16	NaN
138	1.000000	0.066522	7.36639e+06	-45539.1	955.818	-29772.6	0.000000	0.000000	6.066704	0.023881	NaN	0.000000	0.001687	0.001696	28.0865	0.044828	0.001933	23.1881	104.289	174.204	-0.001011	0.065181	-0.985163	-0.986504	0.023881	23.1881	-0.985935	-1.466773E+13	-1.628108E-15	NaN
138	1.000000	0.074504	7.36639e+06	-45539.1	955.819	-29772.6	0.000000	0.000000	6.074685	-0.004379	NaN	0.000000	0.001704	0.001686	28.0865	0.128906	0.001769	72.8662	-14.916	177.231	-0.028577	0.073207	-0.977181	-0.978478	-0.004379	72.8662	-0.977136	-1.116416E+13	3.922646E-16	NaN
138	1.000000	0.082507	7.36639e+06	-45539.1	955.818	-29772.6	0.000000	0.000000	6.082687	-0.032265	NaN	0.000000	0.001684	0.001676	28.0861	0.136938	0.002113	64.814	-2.181964	177.936	0.051606	0.081188	-0.969178	-0.970497	-0.032265	64.814	-0.968805	-8.620946E+12	3.742615E-15	NaN
138	1.000000	0.090495	7.36639e+06	-45539.1	955.819	-29772.6	0.000000	0.000000	6.090675	-0.008088	NaN	0.000000	0.001672	0.001711	28.0842	0.057760	0.002077	27.8044	-146.592	173.083	0.067452	0.089213	-0.961190	-0.962472	-0.008088	27.8044	-0.960972	-6.760465E+12	1.196410E-15	NaN
138	1.000000	0.098538	7.36639e+06	-45539.1	955.818	-29772.6	0.000000	0.000000	6.098718	-0.014688	NaN	0.000000	0.001734	0.001692	28.0863	0.026498	0.001949	13.5962	-86.4185	177.396	-0.055706	0.097227	-0.953147	-0.954458	-0.014688	13.5962	-0.952337	-5.170634E+12	2.840676E-15	NaN
138	1.000000	0.106502	7.36639e+06	-45539.1	955.819	-29772.6	0.000000	0.000000	6.106680	-0.061211	NaN	0.000000	0.001706	0.001667	28.0857	0.105116	0.001922	54.6986	-159.437	176.53	-0.064403	0.105180	-0.945183	-0.946505	-0.061211	54.6986	-0.944344	-4.034040E+12	1.517355E-14	NaN
138	1.000000	0.114533	7.36639e+06	-45539.1	955.818	-29772.6	0.000000	0.000000	6.114715	0.031216	NaN	0.000000	0.001694	0.001690	28.085	0.048796	0.002159	22.6028	163.367	176.503	0.039684	0.113194	-0.937152	-0.938491	0.031216	22.6028	-0.938188	-3.331865E+12	-9.368908E-15	NaN
138	1.000000	0.122543	7.36639e+06	-45539.1	955.818	-29772.6	0.000000	0.000000	6.122721	-0.065698	NaN	0.000000	0.001711	0.001683	28.0844	0.097276	0.002019	48.1714	142.689	172.119	0.019701	0.121243	-0.929143	-0.930442	-0.065698	48.1714	-0.928120	-2.436794E+12	2.696081E-14	NaN
138	1.000000	0.130531	7.36639e+06	-45539.1	955.818	-29772.6	0.000000	0.000000	6.130711	-0.014387	NaN	0.000000	0.001737	0.001676	28.0852	0.122945	0.002035	60.427	76.1811	177.301	0.032844	0.129215	-0.921154	-0.922470	-0.014387	60.427	-0.920976	-1.951559E+12	7.372052E-15	NaN
138	1.000000	0.138564	7.36639e+06	-45539.1	955.818	-29772.6	0.000000	0.000000	6.138745	0.007164	NaN	0.000000	0.001703	0.001695	28.0859	0.125465	0.002037	61.6066	-134.826	175.08	0.063335	0.137218	-0.913121	-0.914467	0.007164	61.6066	-0.913208	-1.532838E+12	-4.673389E-15	NaN
138	1.000000	0.146536	7.36639e+06	-45539.1	955.818	-29772.6	0.000000	0.000000	6.146718	0.036853	NaN	0.000000	0.001730	0.001693	28.0859	0.044665	0.001957	22.8289	-67.0422	176.792	-0.005532	0.145240	-0.905149	-0.906445	0.036853	22.8289	-0.906360	-1.238772E+12	-2.974990E-14	NaN
138	1.000000	0.154564	7.36639e+06	-45539.1	955.818	-29772.6	0.000000	0.000000	6.154745	0.009533	NaN	0.000000	0.001660	0.001689	28.0862	0.109718	0.002060	53.2708	-15.3367	175.7	-0.022097	0.153293	-0.897121	-0.898392	0.009533	53.2708	-0.897256	-9.332142E+11	-1.021524E-14	NaN
138	1.000000	0.162534	7.36639e+06	-45539.1	955.817	-29772.6	0.000000	0.000000	6.162713	-0.031505	NaN	0.000000	0.001724	0.001659	28.0863	0.031822	0.002009	15.8415	-35.6544	173.62	-0.090485	0.161231	-0.889151	-0.890454	-0.031505	15.8415	-0.887660	-6.922777E+11	4.550968E-14	NaN
138	1.000000	0.170546	7.36639e+06	-45539.1	955.818	-29772.6	0.000000	0.000000	6.170729	0.061408	NaN	0.000000	0.001723	0.001641	28.0879	0.094416	0.002049	46.0818	129.434	178.06	0.018605	0.169191	-0.881140	-0.882494	0.061408	46.0818	-0.882139	-5.829533E+11	-1.053387E-13	NaN
138	1.000000	0.178550	7.36639e+06	-45539.1	955.818	-29772.6	0.000000	0.000000	6.178732	0.039144	NaN	0.000000	0.001717	0.001660	28.0872	0.081997	0.002002	40.9576	135.653	174.176	-0.008101	0.177263	-0.873136	-0.874422	0.039144	40.9576	-0.873852	-4.503599E+11	-8.691631E-14	NaN
138	1.000000	0.186553	7.36639e+06	-45539.1	955.818	-29772.6	0.000000	0.000000	6.186733	-0.005170	NaN	0.000000	0.001724	0.001666	28.0863	0.060825	0.002029	29.9752	-174.194	175.053	0.010069	0.185209	-0.865133	-0.866476	-0.005170	29.9752	-0.865003	-3.418479E+11	1.512506E-14	NaN
138	1.000000	0.194558	7.36639e+06	-45539.1	955.818	-29772.6	0.000000	0.000000	6.194739	-0.005745	NaN	0.000000	0.001708	0.001700	28.0859	0.017656	0.001881	9.387636	-3.763865	176.31	0.010453	0.193256	-0.857127	-0.858429	-0.005745	9.387636	-0.856668	-2.636430E+11	2.179083E-14	NaN
138	1.000000	0.202566	7.36639e+06	-45539.1	955.818	-29772.6	0.000000	0.000000	6.202746	-0.029265	NaN	0.000000	0.001686	0.001615	28.0861	0.060167	0.001953	30.8057	121.703	174.548	-0.065317	0.201288	-0.849119	-0.850397	-0.029265	30.8057	-0.848406	-2.037774E+11	1.436141E-13	NaN
138	1.000000	0.210560	7.36639e+06	-45539.1	955.818	-29772.6	0.000000	0.000000	6.210741	0.015104	NaN	0.000000	0.001715	0.001622	28.0864	0.012279	0.002029	6.052473	-27.4671	176.809	-0.003579	0.209224	-0.841125	-0.842461	0.015104	6.052473	-0.842997	-1.721435E+11	-8.773947E-14	NaN
138	1.000000	0.218564	7.36639e+06	-45539.1	955.819	-29772.6	0.000000	0.000000	6.218747	0.053091	NaN	0.000000	0.001691	0.001669	28.0873	0.050448	0.002071	24.3554	54.33	174.389	0.083585	0.217201	-0.833121	-0.834485	0.053091	24.3554	-0.834756	-1.331196E+11	-3.988201E-13	NaN
138	1.000000	0.226602	7.36639e+06	-45539.1	955.818	-29772.6	0.000000	0.000000	6.226783	0.026104	NaN	0.000000	0.001672	0.001653	28.087	0.055884	0.002029	27.5489	126.215	176.249	0.052158	0.225267	-0.825084	-0.826419	0.026104	27.5489	-0.825794	-1.006408E+11	-2.593791E-13	NaN
138	1.000000	0.234570	7.36639e+06	-45539.1	955.818	-29772.6	0.000000	0.000000	6.234749	-0.043536	NaN	0.000000	0.001719	0.001653	28.0868	0.035169	0.001961	17.934	-32.0063	177.582	0.008216	0.233335	-0.817115	-0.818350	-0.043536	17.934	-0.815294	-7.250924E+10	6.004190E-13	NaN
138	1.000000	0.242592	7.36639e+06	-45539.1	955.818	-29772.6	0.000000	0.000000	6.242774	0.016624	NaN	0.000000	0.001662	0.001719	28.0874	0.108339	0.002044	52.9937	60.7697	178.536	0.004313	0.241276	-0.809093	-0.810409	0.016624	52.9937	-0.809328	-6.018044E+10	-2.762313E-13	NaN
138	1.000000	0.250572	7.36639e+06	-45539.1	955.818	-29772.6	0.000000	0.000000	6.250751	-0.040311	NaN	0.000000	0.001710	0.001679	28.0872	0.055875	0.002007	27.8434	42.7469	173.075	-0.010927	0.249301	-0.801113	-0.802384	-0.040311	27.8434	-0.800027	-4.500172E+10	8.957754E-13	NaN
138	1.000000	0.258623	7.36639e+06	-45539.1	955.818	-29772.6	0.000000	0.000000	6.258806	0.060899	NaN	0.000000	0.001726	0.001650	28.0863	0.012366	0.002035	6.076797	63.258	176.281	-0.057382	0.257287	-0.793062	-0.794398	0.060899	6.076797	-0.800578	-4.578406E+10	-1.330127E-12	NaN
138	1.000000	0.266587	7.36639e+06	-45539.1	955.818	-29772.6	0.000000	0.000000	6.266771	0.078378	NaN	0.000000	0.001733	0.001650	28.0863	0.073011	0.001895	38.5324	-134.96	175.922	0.098285	0.265237	-0.785098	-0.786448	0.078378	38.5324	-0.786623	-2.959515E+10	-2.648335E-12	NaN
138	1.000000	0.274583	7.36639e+06	-45539.1	955.818	-29772.6	0.000000	0.000000	6.274762	-0.033943	NaN	0.000000	0.001724	0.001654	28.0856	0.051593	0.001900	27.1517	93.2373	173.691	0.045728	0.273295	-0.777102	-0.778390	-0.033943	27.1517	-0.776165	-2.133590E+10	1.590899E-12	NaN
138	1.000000	0.282592	7.36639e+06	-45539.1	955.818	-29772.6	0.000000	0.000000	6.282775	0.044889	NaN	0.000000	0.001694	0.001625	28.0863	0.134578	0.002037	66.0713	-111.094	176.125	0.016326	0.281288	-0.769093	-0.770397	0.044889	66.0713	-0.769602	-1.737387E+10	-2.583708E-12	NaN
138	1.000000	0.290630	7.36639e+06	-45539.1	955.818	-29772.6	0.000000	0.000000	6.290811	0.002676	NaN	0.000000	0.001697	0.001641	28.0864	0.033499	0.002032	16.4848	149.472	176.455	0.006448	0.289231	-0.761055	-0.762454	0.002676	16.4848	-0.761177	-1.334479E+10	-2.005250E-13	NaN
138	1.000000	0.298626	7.36639e+06	-45539.1	955.818	-29772.6	0.000000	0.000000	6.298808	0.023192	NaN	0.000000	0.001696	0.001611	28.0886	0.119482	0.001867	63.9948	37.2999	173.996	0.109946	0.297360	-0.753059	-0.754325	0.023192	63.9948	-0.753330	-1.043640E+10	-2.222224E-12	NaN
138	1.000000	0.306608	7.36639e+06	-45539.1	955.818	-29772.6	0.000000	0.000000	6.306790	0.030978	NaN	0.000000	0.001678	0.001608	28.0874	0.075037	0.001925	38.9896	-19.4743	176.062	0.002469	0.305296	-0.745078	-0.746390	0.030978	38.9896	-0.745673	-8.209515E+9	-3.773443E-12	NaN
138	1.000000	0.314631	7.36639e+06	-45539.1	955.818	-29772.6	0.000000	0.000000	6.314812	-0.009635	NaN	0.000000	0.001712	0.001660	28.0869	0.060663	0.001968	30.8172	-91.5439	-179.019	-0.029349	0.313324	-0.737054	-0.738361	-0.009635	30.8172	-0.736819	-6.219138E+9	1.549205E-12	NaN
138	1.000000	0.322628	7.36639e+06	-45539.1	955.818	-29772.6	0.000000	0.000000	6.322809	-0.007191	NaN	0.000000	0.001721	0.001666	28.087	0.080818	0.001951	41.4169	145.245	176.251	-0.021669	0.321281	-0.729057	-0.730404	-0.007191	41.4169	-0.728927	-4.854861E+9	1.481157E-12	NaN
138	1.000000	0.330646	7.36639e+06	-45539.1	955.818	-29772.6	0.000000	0.000000	6.330828	0.031153	NaN	0.000000	0.001638	0.001656	28.0883	0.048211	0.002077	23.2079	-104.923	175.652	0.008086	0.329291	-0.721040	-0.722394	0.031153	23.2079	-0.722046	-3.911816E+9	-7.963863E-12	NaN
138	1.000000	0.338615	7.36639e+06	-45539.1	955.818	-29772.6	0.000000	0.000000	6.338797	0.025531	NaN	0.000000	0.001704	0.001664	28.0861	0.056728	0.001986	28.5632	123.884	175.586	0.036643	0.337302	-0.713070	-0.714383	0.025531	28.5632	-0.713740	-3.013587E+9	-8.471878E-12	NaN
138	1.000000	0.346627	7.36639e+06	-45539.1	955.819	-29772.6	0.000000	0.000000	6.346810	0.038101	NaN	0.000000	0.001697	0.001651	28.0854	0.062485	0.001981	31.5356	-124.446	-179.487	0.089777	0.345349	-0.705058	-0.706336	0.038101	31.5356	-0.705964	-2.360271E+9	-1.614283E-11	NaN
138	1.000000	0.354626	7.36639e+06	-45539.1	955.817	-29772.6	0.000000	0.000000	6.354803	-0.075641	NaN	0.000000	0.001718	0.001624	28.0854	0.049918	0.001874	26.6431	-153.605	175.737	-0.119891	0.353343	-0.697060	-0.698343	-0.075641	26.6431	-0.694930	-1.668342E+9	4.533883E-11	NaN
138	1.000000	0.362669	7.36639e+06	-45539.1	955.818	-29772.6	0.000000	0.000000	6.362851	0.014396	NaN	0.000000	0.001737	0.001669	28.0862	0.010518	0.001959	5.368047	-52.1271	175.647	0.039531	0.361327	-0.689016	-0.690358	0.014396	5.368047	-0.691027	-1.475557E+9	-9.756196E-12	NaN
138	1.000000	0.370656	7.36639e+06	-45539.1	955.818	-29772.6	0.000000	0.000000	6.370835	-0.050333	NaN	0.000000	0.001707	0.001638	28.0853	0.109677	0.002087	52.5421	-176.307	176.309	0.008113	0.369305	-0.681029	-0.682380	-0.050333	52.5421	-0.680311	-1.053060E+9	4.779726E-11	NaN
138	1.000000	0.378668	7.36639e+06	-45539.1	955.818	-29772.6	0.000000	0.000000	6.378850	0.024655	NaN	0.000000	0.001736	0.001636	28.0862	0.033620	0.002074	16.2109	175.953	174.027	0.041063	0.377323	-0.673017	-0.674362	0.024655	16.2109	-0.674158	-8.675307E+8	-2.841945E-11	NaN
138	1.000000	0.386633	7.36639e+06	-45539.1	955.818	-29772.6	0.000000	0.000000	6.386814	0.009192	NaN	0.000000	0.001741	0.001693	28.0858	0.017202	0.001957	8.788884	-147.203	177.754	-0.012476	0.385317	-0.665052	-0.666368	0.009192	8.788884	-0.665837	-6.674200E+8	-1.377274E-11	NaN
138	1.000000	0.394649	7.36639e+06	-45539.1	955.818	-29772.6	0.000000	0.000000	6.394833	0.064278	NaN	0.000000	0.001708	0.001636	28.0862	0.058734	0.001858	31.611	-58.9032	174.435	0.073542	0.393311	-0.657036	-0.658374	0.064278	31.611	-0.658561	-5.305877E+8	-1.211443E-10	NaN
138	1.000000	0.402670	7.36639e+06	-45539.1	955.818	-29772.6	0.000000	0.000000	6.402853	0.047838	NaN	0.000000	0.001730	0.001653	28.087	0.230463	0.001985	116.096	-30.8875	175.969	0.006548	0.401345	-0.649015	-0.650340	0.047838	116.096	-0.649324	-3.964356E+8	-1.206698E-10	NaN
138	1.000000	0.410640	7.36639e+06	-45539.1	955.818	-29772.6	0.000000	0.000000	6.410820	-0.016836	NaN	0.000000	0.001715	0.001641	28.0867	0.078241	0.002073	37.7358	-68.3664	175.228	0.009621	0.409344	-0.641045	-0.642341	-0.016836	37.7358	-0.640710	-3.020200E+8	5.574569E-11	NaN
138	1.000000	0.418659	7.36639e+06	-45539.1	955.817	-29772.6	0.000000	0.000000	6.418837	-0.067862	NaN	0.000000	0.001675	0.001665	28.0851	0.168667	0.001846	91.3532	-39.5975	172.45	-0.040683	0.417365	-0.633026	-0.634320	-0.067862	91.3532	-0.632469	-2.327668E+8	2.915434E-10	NaN
138	1.000000	0.426683	7.36639e+06	-45539.1	955.819	-29772.6	0.000000	0.000000	6.426865	0.010720	NaN	0.000000	0.001706	0.001640	28.0853	0.130099	0.001946	66.8476	171.143	176.031	-0.007695	0.425348	-0.625002	-0.626337	0.010720	66.8476	-0.625122	-1.845099E+8	-5.810088E-11	NaN
138	1.000000	0.434617	7.36639e+06	-45539.1	955.818	-29772.6	0.000000	0.000000	6.434799	0.027411	NaN	0.000000	0.001679	0.001613	28.0864	0.111698	0.001947	57.3545	-111.072	173.751	0.038323	0.433368	-0.617068	-0.618317	0.027411	57.3545	-0.617426	-1.446280E+8	-1.895271E-10	NaN
138	1.000000	0.442632	7.36639e+06	-45539.1	955.818	-29772.6	0.000000	0.000000	6.442814	0.019909	NaN	0.000000	0.001663	0.001653	28.0868	0.084692	0.002173	38.9798	144.945	176.71	-0.052453	0.441392	-0.609053	-0.610293	0.019909	38.9798	-0.609436	-1.122927E+8	-1.772956E-10	NaN
138	1.000000	0.450679	7.36639e+06	-45539.1	955.818	-29772.6	0.000000	0.000000	6.450861	0.035250	NaN	0.000000	0.001664	0.001647	28.0868	0.108550	0.002091	51.9203	175.962	176.626	-0.055180	0.449369	-0.601006	-0.602316	0.035250	51.9203	-0.601515	-8.736364E+7	-4.034894E-10	NaN
138	1.000000	0.458683	7.36639e+06	-45539.1	955.818	-29772.6	0.000000	0.000000	6.458866	0.055993	NaN	0.000000	0.001650	0.001634	28.0883	0.127879	0.001999	63.9803	146.311	174.455	0.063802	0.457361	-0.593002	-0.594324	0.055993	63.9803	-0.593658	-6.809117E+7	-8.223286E-10	NaN
138	1.000000	0.466679	7.36639e+06	-45539.1	955.818	-29772.6	0.000000	0.000000	6.466858	-0.056780	NaN	0.000000	0.001675	0.001632	28.0877	0.081234	0.001947	41.7179	-172.943	174.803	-0.041610	0.465420	-0.585006	-0.586266	-0.056780	41.7179	-0.583985	-5.008552E+7	1.133663E-9	NaN
138	1.000000	0.474667	7.36639e+06	-45539.1	955.818	-29772.6	0.000000	0.000000	6.474848	-0.002648	NaN	0.000000	0.001621	0.001630	28.0883	0.031908	0.002038	15.6543	-54.5253	175.97	0.004397	0.473337	-0.577018	-0.578348	-0.002648	15.6543	-0.576891	-3.997714E+7	6.623620E-11	NaN
138	1.000000	0.482701	7.36639e+06	-45539.1	955.818	-29772.6	0.000000	0.000000	6.482882	-0.005845	NaN	0.000000	0.001605	0.001605	28.0875	0.011115	0.002106	5.277997	73.0474	175.191	0.029776	0.481357	-0.568984	-0.570328	-0.005845	5.277997	-0.568153	-3.027702E+7	1.930615E-10	NaN
138	1.000000	0.490675	7.36639e+06	-45539.1	955.818	-29772.6	0.000000	0.000000	6.490855	-0.019706	NaN	0.000000	0.001637	0.001625	28.0885	0.047282	0.001965	24.0642	-151.876	175.282	-0.016471	0.489394	-0.561010	-0.562291	-0.019706	24.0642	-0.560396	-2.365152E+7	8.331759E-10	NaN
138	1.000000	0.498694	7.36639e+06	-45539.1	955.818	-29772.6	0.000000	0.000000	6.498878	0.070917	NaN	0.000000	0.001616	0.001659	28.0874	0.133705	0.002062	64.8516	-78.536	175.164	0.053942	0.497387	-0.552991	-0.554299	0.070917	64.8516	-0.553811	-1.917486E+7	-3.698437E-9	NaN
138	1.000000	0.506690	7.36639e+06	-45539.1	955.818	-29772.6	0.000000	0.000000	6.506870	-0.026465	NaN	0.000000	0.001620	0.001663	28.0876	0.106858	0.001826	58.5133	95.2066	176.422	-0.043339	0.505375	-0.544995	-0.546310	-0.026465	58.5133	-0.544656	-1.431885E+7	1.848260E-9	NaN
138	1.000000	0.514681	7.36639e+06	-45539.1	955.817	-29772.6	0.000000	0.000000	6.514860	-0.059262	NaN	0.000000	0.001619	0.001626	28.0875	0.070073	0.001771	39.5633	-65.8788	178.798	-0.031997	0.513355	-0.537004	-0.538330	-0.059262	39.5633	-0.535880	-1.081954E+7	5.477328E-9	NaN
138	1.000000	0.522707	7.36639e+06	-45539.1	955.819	-29772.6	0.000000	0.000000	6.522888	-0.007623	NaN	0.000000	0.001650	0.001681	28.0876	0.009538	0.002082	4.581363	173.621	173.984	0.023854	0.521385	-0.528978	-0.530300	-0.007623	4.581363	-0.527730	-8.33766e+06	9.142971E-10	NaN
138	1.000000	0.530685	7.36639e+06	-45539.1	955.817	-29772.6	0.000000	0.000000	6.530865	-0.020026	NaN	0.000000	0.001651	0.001675	28.0885	0.118516	0.002000	59.2706	141.173	174.084	-0.032094	0.529422	-0.521000	-0.522263	-0.020026	59.2706	-0.520747	-6.66775e+06	3.003442E-9	NaN
138	1.000000	0.538717	7.36639e+06	-45539.1	955.818	-29772.6	0.000000	0.000000	6.538900	0.054942	NaN	0.000000	0.001666	0.001603	28.0886	0.075926	0.002058	36.8914	-52.7457	175.869	0.108422	0.537388	-0.512968	-0.514297	0.054942	36.8914	-0.514085	-5.38633e+06	-1.020025E-8	NaN
138	1.000000	0.546698	7.36639e+06	-45539.1	955.818	-29772.6	0.000000	0.000000	6.546881	0.055780	NaN	0.000000	0.001663	0.001593	28.0884	0.045250	0.001882	24.0458	-6.627465	173.846	0.077330	0.545406	-0.504987	-0.506279	0.055780	24.0458	-0.506727	-4.25417e+06	-1.311191E-8	NaN
138	1.000000	0.554706	7.36639e+06	-45539.1	955.818	-29772.6	0.000000	0.000000	6.554888	0.023596	NaN	0.000000	0.001658	0.001601	28.0889	0.053532	0.002014	26.576	1.718138	177.976	0.087193	0.553422	-0.496979	-0.498263	0.023596	26.576	-0.497645	-3.17801e+06	-7.424829E-9	NaN
138	1.000000	0.562727	7.36639e+06	-45539.1	955.818	-29772.6	0.000000	0.000000	6.562906	-0.033365	NaN	0.000000	0.001633	0.001551	28.0885	0.077020	0.002065	37.2899	-153.892	175.833	-0.014827	0.561455	-0.488958	-0.490231	-0.033365	37.2899	-0.488287	-2.3521e+06	1.418520E-8	NaN
138	1.000000	0.570733	7.36639e+06	-45539.1	955.818	-29772.6	0.000000	0.000000	6.570914	-0.000813	NaN	0.000000	0.001639	0.001561	28.0882	0.096947	0.002083	46.5362	172.259	176.274	-0.065132	0.569419	-0.480952	-0.482266	-0.000813	46.5362	-0.480939	-1.85639e+06	4.377600E-10	NaN
138	1.000000	0.578731	7.36639e+06	-45539.1	955.818	-29772.6	0.000000	0.000000	6.578912	0.003664	NaN	0.000000	0.001623	0.001571	28.0865	0.053233	0.002045	26.0332	63.8023	174.043	-0.003606	0.577446	-0.472954	-0.474239	0.003664	26.0332	-0.473060	-1.43982e+06	-2.544981E-9	NaN
138	1.000000	0.586707	7.36639e+06	-45539.1	955.819	-29772.6	0.000000	0.000000	6.586890	0.058072	NaN	0.000000	0.001634	0.001588	28.0851	0.080403	0.001849	43.4914	-162.556	178.853	0.041300	0.585411	-0.464978	-0.466275	0.058072	43.4914	-0.465979	-1.1455e+06	-5.069590E-8	NaN
138	1.000000	0.594733	7.36639e+06	-45539.1	955.818	-29772.6	0.000000	0.000000	6.594913	-0.022685	NaN	0.000000	0.001639	0.001597	28.0856	0.074764	0.002105	35.5125	-158.716	175.287	-0.033461	0.593430	-0.456952	-0.458255	-0.022685	35.5125	-0.456473	-842238	2.693475E-8	NaN
138	1.000000	0.602723	7.36639e+06	-45539.1	955.818	-29772.6	0.000000	0.000000	6.602905	0.039036	NaN	0.000000	0.001624	0.001630	28.0861	0.038026	0.001951	19.4861	-73.8908	177.213	-0.015320	0.601391	-0.448962	-0.450294	0.039036	19.4861	-0.450465	-693246	-5.630889E-8	NaN
138	1.000000	0.610744	7.36639e+06	-45539.1	955.819	-29772.6	0.000000	0.000000	6.610925	-0.009757	NaN	0.000000	0.001617	0.001610	28.0872	0.036661	0.001899	19.3046	70.6227	173.253	-0.043307	0.609407	-0.440941	-0.442278	-0.009757	19.3046	-0.440562	-502681	1.941003E-8	NaN
138	1.000000	0.618749	7.36639e+06	-45539.1	955.819	-29772.6	0.000000	0.000000	6.618931	0.049381	NaN	0.000000	0.001626	0.001618	28.0879	0.061801	0.002148	28.7668	-132.244	176.396	0.076704	0.617460	-0.432937	-0.434225	0.049381	28.7668	-0.434224	-409061	-1.207177E-7	NaN
138	1.000000	0.626768	7.36639e+06	-45539.1	955.818	-29772.6	0.000000	0.000000	6.626951	0.055213	NaN	0.000000	0.001641	0.001614	28.0874	0.081491	0.002115	38.5212	119.424	173.642	0.052518	0.625446	-0.424917	-0.426239	0.055213	38.5212	-0.425992	-312851	-1.764821E-7	NaN
138	1.000000	0.634764	7.36639e+06	-45539.1	955.818	-29772.6	0.000000	0.000000	6.634947	0.035403	NaN	0.000000	0.001619	0.001562	28.0868	0.043662	0.001984	22.0113	89.2749	176.053	-0.010196	0.633434	-0.416921	-0.418252	0.035403	22.0113	-0.418127	-242016	-1.462842E-7	NaN
138	1.000000	0.642725	7.36639e+06	-45539.1	955.818	-29772.6	0.000000	0.000000	6.642905	-0.008091	NaN	0.000000	0.001603	0.001585	28.0878	0.115454	0.002042	56.5362	-144.54	177.706	0.052745	0.641428	-0.408960	-0.410258	-0.008091	56.5362	-0.408853	-178684	4.528163E-8	NaN
138	1.000000	0.650748	7.36639e+06	-45539.1	955.818	-29772.6	0.000000	0.000000	6.650931	0.048089	NaN	0.000000	0.001640	0.001595	28.088	0.038337	0.002158	17.761	-89.3449	175.703	0.035522	0.649451	-0.400937	-0.402234	0.048089	17.761	-0.402967	-147331	-3.264017E-7	NaN
138	1.000000	0.658760	7.36639e+06	-45539.1	955.818	-29772.6	0.000000	0.000000	6.658940	-0.004043	NaN	0.000000	0.001608	0.001613	28.0874	0.064948	0.002028	32.0248	118.542	174.325	0.067032	0.657454	-0.392926	-0.394231	-0.004043	32.0248	-0.392831	-105595	3.828820E-8	NaN
138	1.000000	0.666745	7.36639e+06	-45539.1	955.818	-29772.6	0.000000	0.000000	6.666924	-0.044823	NaN	0.000000	0.001635	0.001604	28.0862	0.061904	0.001906	32.4837	60.052	173.734	0.012186	0.665444	-0.384940	-0.386241	-0.044823	32.4837	-0.383905	-78685.5	5.696434E-7	NaN
138	1.000000	0.674774	7.36639e+06	-45539.1	955.818	-29772.6	0.000000	0.000000	6.674958	0.086347	NaN	0.000000	0.001634	0.001603	28.0859	0.065853	0.001959	33.6234	-20.6585	175.552	0.024198	0.673425	-0.376911	-0.378260	0.086347	33.6234	-0.378837	-66558.3	-1.297316E-6	NaN
138	1.000000	0.682774	7.36639e+06	-45539.1	955.818	-29772.6	0.000000	0.000000	6.682955	0.018145	NaN	0.000000	0.001634	0.001610	28.0864	0.084362	0.002063	40.8985	-61.2707	177.58	0.046920	0.681419	-0.368912	-0.370266	0.018145	40.8985	-0.369244	-48444.3	-3.745497E-7	NaN
138	1.000000	0.690756	7.36639e+06	-45539.1	955.818	-29772.6	0.000000	0.000000	6.690939	0.054309	NaN	0.000000	0.001623	0.001570	28.0868	0.019656	0.001936	10.1516	-15.2609	176.649	0.119127	0.689478	-0.360929	-0.362208	0.054309	10.1516	-0.364941	-41996.1	-1.293196E-6	NaN
138	1.000000	0.698793	7.36639e+06	-45539.1	955.817	-29772.6	0.000000	0.000000	6.698972	-0.026446	NaN	0.000000	0.001623	0.001579	28.0866	0.040812	0.001971	20.7066	-99.9364	172.133	-0.028227	0.697507	-0.352893	-0.354178	-0.026446	20.7066	-0.351935	-27231.4	9.711706E-7	NaN
138	1.000000	0.706800	7.36639e+06	-45539.1	955.819	-29772.6	0.000000	0.000000	6.706979	-0.026189	NaN	0.000000	0.001605	0.001566	28.0873	0.052011	0.002075	25.0646	118.441	170.927	-0.040711	0.705462	-0.344886	-0.346224	-0.026189	25.0646	-0.344102	-20955.2	1.249774E-6	NaN
138	1.000000	0.714780	7.36639e+06	-45539.1	955.817	-29772.6	0.000000	0.000000	6.714961	0.011441	NaN	0.000000	0.001646	0.001601	28.0877	0.031876	0.002107	15.1253	70.1386	173.528	0.040481	0.713502	-0.336906	-0.338183	0.011441	15.1253	-0.337473	-16776.3	-6.819650E-7	NaN
138	1.000000	0.722774	7.36639e+06	-45539.1	955.817	-29772.6	0.000000	0.000000	6.722954	-0.030558	NaN	0.000000	0.001632	0.001618	28.0894	0.031946	0.002112	15.1273	107.602	178.738	0.035768	0.721458	-0.328911	-0.330228	-0.030558	15.1273	-0.327396	-11947.8	2.557667E-6	NaN
138	1.000000	0.730776	7.36639e+06	-45539.1	955.818	-29772.6	0.000000	0.000000	6.730956	-0.023681	NaN	0.000000	0.001642	0.001583	28.089	0.114310	0.001944	58.8123	98.692	173.226	0.028838	0.729489	-0.320909	-0.322196	-0.023681	58.8123	-0.320607	-9496.6	2.493602E-6	NaN
138	1.000000	0.738799	7.36639e+06	-45539.1	955.818	-29772.6	0.000000	0.000000	6.738982	0.058531	NaN	0.000000	0.001641	0.001565	28.087	0.107852	0.001959	55.0426	114.648	175.427	-0.024109	0.737527	-0.312886	-0.314158	0.058531	55.0426	-0.313684	-7507.89	-7.795919E-6	NaN
138	1.000000	0.746783	7.36639e+06	-45539.1	955.819	-29772.6	0.000000	0.000000	6.746962	-0.026625	NaN	0.000000	0.001612	0.001591	28.0881	0.162973	0.002043	79.7561	-87.3275	176.416	0.021124	0.745469	-0.304902	-0.306216	-0.026625	79.7561	-0.304652	-5518.11	4.825039E-6	NaN
138	1.000000	0.754794	7.36639e+06	-45539.1	955.818	-29772.6	0.000000	0.000000	6.754974	-0.039113	NaN	0.000000	0.001624	0.001594	28.0872	0.026400	0.002055	12.8489	-8.179029	176.827	-0.008312	0.753471	-0.296891	-0.298215	-0.039113	12.8489	-0.294608	-3910.48	1.000203E-5	NaN
138	1.000000	0.762808	7.36639e+06	-45539.1	955.819	-29772.6	0.000000	0.000000	6.762993	0.099509	NaN	0.000000	0.001647	0.001621	28.087	0.076912	0.001937	39.6974	-154.807	173.384	-0.000125	0.761497	-0.288878	-0.290188	0.099509	39.6974	-0.290758	-3424.9	-2.905449E-5	NaN
138	1.000000	0.770828	7.36639e+06	-45539.1	955.819	-29772.6	0.000000	0.000000	6.771010	0.028568	NaN	0.000000	0.001670	0.001649	28.0878	0.096868	0.001947	49.7502	-110.212	176.635	0.029433	0.769476	-0.280857	-0.282209	0.028568	49.7502	-0.281288	-2468.28	-1.157418E-5	NaN
138	1.000000	0.778804	7.36639e+06	-45539.1	955.818	-29772.6	0.000000	0.000000	6.778981	-0.081624	NaN	0.000000	0.001645	0.001657	28.0887	0.050316	0.002007	25.0732	168.816	175.815	-0.009233	0.777494	-0.272882	-0.274191	-0.081624	25.0732	-0.270440	-1691.34	4.826022E-5	NaN
138	1.000000	0.786818	7.36639e+06	-45539.1	955.818	-29772.6	0.000000	0.000000	6.786999	0.017462	NaN	0.000000	0.001647	0.001599	28.0896	0.045195	0.002058	21.9587	92.7045	175.332	0.014428	0.785544	-0.264867	-0.266141	0.017462	21.9587	-0.265464	-1420.58	-1.229254E-5	NaN
138	1.000000	0.794811	7.36639e+06	-45539.1	955.817	-29772.6	0.000000	0.000000	6.794992	0.002885	NaN	0.000000	0.001616	0.001604	28.0901	0.070024	0.002027	34.5383	111.426	175.788	-0.024196	0.793497	-0.256875	-0.258188	0.002885	34.5383	-0.256937	-1051.75	-2.743403E-6	NaN
138	1.000000	0.802790	7.36639e+06	-45539.1	955.818	-29772.6	0.000000	0.000000	6.802972	0.032311	NaN	0.000000	0.001642	0.001609	28.0887	0.036677	0.002079	17.645	-40.7747	174.67	0.049715	0.801520	-0.248895	-0.250165	0.032311	17.645	-0.250269	-830.081	-3.892537E-5	NaN
138	1.000000	0.810837	7.36639e+06	-45539.1	955.818	-29772.6	0.000000	0.000000	6.811019	0.030029	NaN	0.000000	0.001686	0.001593	28.0888	0.058270	0.002033	28.6639	110.056	177.646	0.064863	0.809525	-0.240848	-0.242160	0.030029	28.6639	-0.241634	-609.61	-4.925893E-5	NaN
138	1.000000	0.818823	7.36639e+06	-45539.1	955.818	-29772.6	0.000000	0.000000	6.819004	-0.009134	NaN	0.000000	0.001648	0.001599	28.0882	0.037438	0.001954	19.1586	72.4121	177.154	-0.046272	0.817514	-0.232862	-0.234171	-0.009134	19.1586	-0.232504	-438.533	2.082802E-5	NaN
138	1.000000	0.826828	7.36639e+06	-45539.1	955.818	-29772.6	0.000000	0.000000	6.827009	-0.011858	NaN	0.000000	0.001662	0.001564	28.0884	0.056390	0.002124	26.5504	131.669	174.662	-0.033656	0.825501	-0.224857	-0.226184	-0.011858	26.5504	-0.224522	-327.896	3.616400E-5	NaN
138	1.000000	0.834820	7.36639e+06	-45539.1	955.818	-29772.6	0.000000	0.000000	6.835002	0.048857	NaN	0.000000	0.001695	0.001597	28.089	0.066484	0.002018	32.9411	-19.5586	170.22	0.114466	0.833558	-0.216866	-0.218127	0.048857	32.9411	-0.217978	-257.822	-0.000189	NaN
138	1.000000	0.842853	7.36639e+06	-45539.1	955.818	-29772.6	0.000000	0.000000	6.843034	0.002762	NaN	0.000000	0.001676	0.001600	28.0876	0.071679	0.002004	35.7737	62.3672	175.584	-0.026538	0.841522	-0.208832	-0.210163	0.002762	35.7737	-0.208890	-184.005	-1.500832E-5	NaN
138	1.000000	0.850832	7.36639e+06	-45539.1	955.819	-29772.6	0.000000	0.000000	6.851012	-0.022652	NaN	0.000000	0.001674	0.001596	28.0863	0.075038	0.002016	37.2283	-82.3005	174.957	0.000176	0.849512	-0.200853	-0.202173	-0.022652	37.2283	-0.200397	-133.726	0.000169	NaN
138	1.000000	0.858821	7.36639e+06	-45539.1	955.819	-29772.6	0.000000	0.000000	6.859001	-0.032734	NaN	0.000000	0.001669	0.001618	28.0882	0.047997	0.002021	23.7457	-139.273	177.664	-0.087612	0.857556	-0.192864	-0.194129	-0.032734	23.7457	-0.191830	-96.5054	0.000339	NaN
138	1.000000	0.866873	7.36639e+06	-45539.1	955.819	-29772.6	0.000000	0.000000	6.867052	-0.030591	NaN	0.000000	0.001683	0.001617	28.0885	0.107304	0.001921	55.8611	-160.918	174.808	0.040810	0.865548	-0.184812	-0.186137	-0.030591	55.8611	-0.184402	-72.4503	0.000422	NaN
138	1.000000	0.874851	7.36639e+06	-45539.1	955.819	-29772.6	0.000000	0.000000	6.875034	0.058841	NaN	0.000000	0.001656	0.001597	28.0878	0.051890	0.001879	27.6188	156.297	175.88	0.105202	0.873504	-0.176834	-0.178181	0.058841	27.6188	-0.178432	-57.3784	-0.001025	NaN
138	1.000000	0.882858	7.36639e+06	-45539.1	955.818	-29772.6	0.000000	0.000000	6.883038	-0.019432	NaN	0.000000	0.001668	0.001621	28.089	0.075848	0.002027	37.426	-147.811	176.589	-0.008088	0.881532	-0.168827	-0.170153	-0.019432	37.426	-0.168438	-38.5867	0.000504	NaN
138	1.000000	0.890855	7.36639e+06	-45539.1	955.819	-29772.6	0.000000	0.000000	6.891038	0.042221	NaN	0.000000	0.001684	0.001632	28.088	0.054966	0.002047	26.8541	23.5408	177.217	0.021576	0.889523	-0.160830	-0.162162	0.042221	26.8541	-0.162009	-29.7581	-0.001419	NaN
138	1.000000	0.898883	7.36639e+06	-45539.1	955.818	-29772.6	0.000000	0.000000	6.899063	-0.007381	NaN	0.000000	0.001678	0.001627	28.0867	0.075249	0.002071	36.3281	153.7	174.908	-0.040827	0.897557	-0.152802	-0.154128	-0.007381	36.3281	-0.152650	-20.2377	0.000365	NaN
138	1.000000	0.906851	7.36639e+06	-45539.1	955.818	-29772.6	0.000000	0.000000	6.907034	0.037454	NaN	0.000000	0.001684	0.001610	28.0868	0.086412	0.002073	41.6894	33.4711	175.751	0.033046	0.905522	-0.144834	-0.146163	0.037454	41.6894	-0.145508	-14.9814	-0.002500	NaN
138	1.000000	0.914866	7.36639e+06	-45539.1	955.818	-29772.6	0.000000	0.000000	6.915044	-0.058707	NaN	0.000000	0.001682	0.001604	28.0873	0.054195	0.001918	28.2498	24.2956	173.377	0.015056	0.913597	-0.136820	-0.138088	-0.058707	28.2498	-0.135261	-9.622086	0.006101	NaN
138	1.000000	0.922861	7.36639e+06	-45539.1	955.818	-29772.6	0.000000	0.000000	6.923043	0.044792	NaN	0.000000	0.001666	0.001594	28.0875	0.033711	0.001986	16.9783	85.1579	171.543	-0.077203	0.921596	-0.128824	-0.130089	0.044792	16.9783	-0.130803	-7.899306	-0.005670	NaN
138	1.000000	0.930873	7.36639e+06	-45539.1	955.818	-29772.6	0.000000	0.000000	6.931057	0.065706	NaN	0.000000	0.001661	0.001591	28.087	0.029723	0.002038	14.5839	-21.1367	173.122	-0.020920	0.929524	-0.120812	-0.122161	0.065706	14.5839	-0.124191	-5.860848	-0.011211	NaN
138	1.000000	0.938881	7.36639e+06	-45539.1	955.818	-29772.6	0.000000	0.000000	6.939065	0.080676	NaN	0.000000	0.001650	0.001565	28.088	0.063632	0.001943	32.7446	-15.3813	175.653	-0.059526	0.937608	-0.112804	-0.114077	0.080676	32.7446	-0.114652	-3.757796	-0.021469	NaN
138	1.000000	0.946931	7.36639e+06	-45539.1	955.819	-29772.6	0.000000	0.000000	6.947114	0.036079	NaN	0.000000	0.001666	0.001588	28.0882	0.028722	0.001997	14.3826	152.509	173.848	0.067714	0.945539	-0.104754	-0.106146	0.036079	14.3826	-0.106635	-2.548912	-0.014155	NaN
138	1.000000	0.954906	7.36639e+06	-45539.1	955.819	-29772.6	0.000000	0.000000	6.955085	-0.029570	NaN	0.000000	0.001668	0.001632	28.0882	0.085647	0.001982	43.2053	-156.946	171.653	-0.071956	0.953597	-0.096780	-0.098088	-0.029570	43.2053	-0.096266	-1.507183	0.019619	NaN
138	1.000000	0.962890	7.36639e+06	-45539.1	955.818	-29772.6	0.000000	0.000000	6.963071	-0.014449	NaN	0.000000	0.001666	0.001646	28.0888	0.064611	0.001883	34.304	-16.6748	176.459	0.058467	0.961552	-0.088795	-0.090133	-0.014449	34.304	-0.088479	-0.995315	0.014517	NaN
138	1.000000	0.970906	7.36639e+06	-45539.1	955.819	-29772.6	0.000000	0.000000	6.971088	0.035423	NaN	0.000000	0.001687	0.001605	28.0882	0.044141	0.001993	22.1442	-134.069	175.45	0.031924	0.969529	-0.080779	-0.082156	0.035423	22.1442	-0.081979	-0.693188	-0.051102	NaN
138	1.000000	0.978880	7.36639e+06	-45539.1	955.818	-29772.6	0.000000	0.000000	6.979063	0.038411	NaN	0.000000	0.001693	0.001636	28.0872	0.030677	0.001985	15.4569	169.465	174.801	0.075450	0.977593	-0.072805	-0.074093	0.038411	15.4569	-0.074668	-0.452827	-0.084825	NaN
138	1.000000	0.986916	7.36639e+06	-45539.1	955.819	-29772.6	0.000000	0.000000	6.987099	0.056571	NaN	0.000000	0.001666	0.001649	28.0886	0.031824	0.001880	16.9312	84.5545	173.364	0.092142	0.985557	-0.064770	-0.066128	0.056571	16.9312	-0.067276	-0.287875	-0.196513	NaN
138	1.000000	0.994883	7.36639e+06	-45539.1	955.819	-29772.6	0.000000	0.000000	6.995064	0.013274	NaN	0.000000	0.001646	0.001552	28.0895	0.049015	0.002065	23.7339	-42.2898	173.97	0.044860	0.993610	-0.056802	-0.058075	0.013274	23.7339	-0.057222	-0.149660	-0.088695	NaN
138	1.000000	1.002918	7.36639e+06	-45539.1	955.818	-29772.6	0.000000	0.000000	7.003097	-0.032242	NaN	0.000000	0.001670	0.001534	28.0884	0.118084	0.001936	60.9794	-91.8789	171.488	-0.029305	1.001537	-0.048767	-0.050148	-0.032242	60.9794	-0.048371	-0.081439	0.395910	NaN
138	1.000000	1.010935	7.36639e+06	-45539.1	955.819	-29772.6	0.000000	0.000000	7.011118	0.050157	NaN	0.000000	0.001691	0.001575	28.0886	0.039716	0.001983	20.0311	155.602	175.286	-0.006854	1.009606	-0.040750	-0.042079	0.050157	20.0311	-0.042628	-0.054382	-0.922301	NaN
138	1.000000	1.018908	7.36639e+06	-45539.1	955.819	-29772.6	0.000000	0.000000	7.019089	0.011957	NaN	0.000000	0.001649	0.001612	28.0896	0.015004	0.002066	7.260832	-3.282421	172.939	0.048206	1.017552	-0.032778	-0.034133	0.011957	7.260832	-0.034013	-0.029959	-0.399111	NaN
138	1.000000	1.026910	7.36639e+06	-45539.1	955.819	-29772.6	0.000000	0.000000	7.027093	0.039730	NaN	0.000000	0.001621	0.001562	28.0896	0.066052	0.001958	33.7284	-72.5621	173.78	0.104846	1.025645	-0.024775	-0.026040	0.039730	33.7284	-0.025658	-0.017555	-2.263230	NaN
138	1.000000	1.034907	7.36639e+06	-45539.1	955.818	-29772.6	0.000000	0.000000	7.035089	0.021698	NaN	0.000000	0.001587	0.001597	28.0903	0.167889	0.001935	86.7555	-80.4657	177.292	-0.010314	1.033596	-0.016778	-0.018089	0.021698	86.7555	-0.016965	-0.010488	-2.068763	NaN
138	1.000000	1.042942	7.36639e+06	-45539.1	955.818	-29772.6	0.000000	0.000000	7.043122	-0.016139	NaN	0.000000	0.001631	0.001613	28.0904	0.043287	0.001935	22.369	158.403	179.712	-0.076575	1.041583	-0.008743	-0.010102	-0.016139	22.369	-0.008202	-0.005350	3.016747	NaN
138	1.000000	1.050927	7.36639e+06	-45539.1	955.819	-29772.6	0.000000	0.000000	7.051121	0.318364	NaN	0.000000	0.001619	0.001578	28.0909	0.663729	0.001997	332.377	21.9131	171.874	0.170373	1.049601	-0.000758	-0.002084	0.318364	332.377	-0.001477	-0.001073	-296.685	NaN
138	1.000000	1.058819	7.36639e+06	-45539.1	955.818	-29772.6	0.000000	0.000000	7.059340	8.274864	NaN	0.000000	0.001617	0.001548	28.0893	7.493294	0.001730	4331.87	9.476697	167.981	6.214535	1.057585	0.007133	0.005900	8.274864	4331.87	0.005701	0.004782	1730.42	57232.7
138	2.000000	1.061592	7.36639e+06	-45539.1	955.819	-29772.6	0.000000	0.000000	7.062257	11.7768	NaN	0.000000	0.001632	0.001547	28.0896	9.865482	0.001664	5928.48	9.141177	169.736	11.7157	1.061275	0.009907	0.009590	11.7768	5928.48	0.008417	0.007475	1575.53	62649.3
138	2.000000	1.063525	7.36639e+06	-45539.1	955.818	-29772.6	0.000000	0.000000	7.064337	15.3699	NaN	0.000000	0.001645	0.001570	28.0895	11.7293	0.001760	6664.19	5.039225	169.293	15.1226	1.063203	0.011839	0.011518	15.3699	6664.19	0.010110	0.009304	1652.03	63124
138	2.000000	1.065474	7.36639e+06	-45539.1	955.819	-29772.6	0.000000	0.000000	7.066460	19.5776	NaN	0.000000	0.001627	0.001558	28.0893	14.3683	0.001705	8426.13	3.247772	167.999	17.9734	1.065185	0.013789	0.013500	19.5776	8426.13	0.012046	0.011546	1695.69	71646.3
138	2.000000	1.067469	7.36639e+06	-45539.1	955.819	-29772.6	0.000000	0.000000	7.068626	23.7559	NaN	0.000000	0.001667	0.001544	28.0889	15.989	0.001714	9325.95	5.401639	165.706	21.9298	1.067203	0.015784	0.015518	23.7559	9325.95	0.013873	0.013812	1719.91	72499.1
138	2.000000	1.069481	7.36639e+06	-45539.1	955.819	-29772.6	0.000000	0.000000	7.070811	27.955	NaN	0.000000	0.001649	0.001566	28.0915	18.5118	0.001799	10291.2	7.114794	163.823	27.5644	1.069147	0.017796	0.017462	27.955	10291.2	0.015759	0.016311	1713.9	73620.8
138	2.000000	1.071521	7.36639e+06	-45539.1	955.819	-29772.6	0.000000	0.000000	7.073166	35.6157	NaN	0.000000	0.001674	0.001575	28.0906	20.3353	0.001731	11746.6	4.082934	165.381	34.0297	1.071127	0.019836	0.019442	35.6157	11746.6	0.017562	0.018855	1888.95	78158
138	2.000000	1.073436	7.36639e+06	-45539.1	955.819	-29772.6	0.000000	0.000000	7.075183	38.1007	NaN	0.000000	0.001645	0.001584	28.0908	21.642	0.001751	12362.6	4.546939	165.746	37.0289	1.073148	0.021751	0.021463	38.1007	12362.6	0.019439	0.021669	1758.31	76729.5
138	2.000000	1.075479	7.36639e+06	-45539.1	955.819	-29772.6	0.000000	0.000000	7.077361	41.3907	NaN	0.000000	0.001654	0.001604	28.0899	24.7268	0.001888	13094	6.897603	162.341	40.8458	1.075186	0.023793	0.023501	41.3907	13094	0.021423	0.024827	1667.14	75924.2
138	2.000000	1.077471	7.36639e+06	-45539.1	955.819	-29772.6	0.000000	0.000000	7.079694	49.6788	NaN	0.000000	0.001659	0.001572	28.09	25.9127	0.001847	14031.4	4.530036	163.358	49.4068	1.077180	0.025786	0.025495	49.6788	14031.4	0.023130	0.027702	1793.36	77023.5
138	2.000000	1.079411	7.36639e+06	-45539.1	955.819	-29772.6	0.000000	0.000000	7.082020	59.078	NaN	0.000000	0.001645	0.001566	28.0882	27.491	0.001725	15933.1	3.007497	163.658	56.5153	1.079184	0.027726	0.027499	59.078	15933.1	0.024945	0.030916	1910.95	82791.2
138	2.000000	1.081476	7.36639e+06	-45539.1	955.819	-29772.6	0.000000	0.000000	7.084435	67.5725	NaN	0.000000	0.001655	0.001557	28.089	29.5055	0.001663	17742.8	4.386661	161.746	66.2281	1.081106	0.029791	0.029421	67.5725	17742.8	0.026935	0.034630	1951.29	87110.8
138	2.000000	1.083484	7.36639e+06	-45539.1	955.818	-29772.6	0.000000	0.000000	7.086666	72.9926	NaN	0.000000	0.001640	0.001552	28.0881	32.2343	0.001793	17974.8	7.846685	158.683	74.1238	1.083162	0.031799	0.031477	72.9926	17974.8	0.028754	0.038200	1910.79	84024.3
138	2.000000	1.085460	7.36639e+06	-45539.1	955.818	-29772.6	0.000000	0.000000	7.088861	78.3397	NaN	0.000000	0.001636	0.001550	28.0885	34.3147	0.001730	19837.2	2.830941	161.483	77.4205	1.085164	0.033775	0.033479	78.3397	19837.2	0.030813	0.042445	1845.66	87970.8
138	2.000000	1.087430	7.36639e+06	-45539.1	955.818	-29772.6	0.000000	0.000000	7.091203	87.3826	NaN	0.000000	0.001610	0.001595	28.0874	35.0826	0.001721	20390.2	1.046290	163.561	85.9997	1.087159	0.035745	0.035474	87.3826	20390.2	0.032531	0.046152	1893.35	86715.9
138	2.000000	1.089357	7.36639e+06	-45539.1	955.818	-29772.6	0.000000	0.000000	7.093472	95.713	NaN	0.000000	0.001607	0.001595	28.0891	38.4258	0.001756	21879.7	3.862033	160.083	91.0564	1.089013	0.037672	0.037328	95.713	21879.7	0.034391	0.050337	1901.46	89098.8
138	2.000000	1.091472	7.36639e+06	-45539.1	955.818	-29772.6	0.000000	0.000000	7.095923	103.885	NaN	0.000000	0.001654	0.001621	28.0897	40.9392	0.001934	21165.5	9.131083	157.689	104.794	1.091072	0.039787	0.039387	103.885	21165.5	0.036106	0.054352	1911.34	82945.7
138	2.000000	1.093431	7.36639e+06	-45539.1	955.819	-29772.6	0.000000	0.000000	7.098096	109.081	NaN	0.000000	0.001676	0.001540	28.0902	42.5471	0.001848	23021.2	6.538309	157.808	107.312	1.093048	0.041746	0.041363	109.081	23021.2	0.038192	0.059440	1835.14	86270.4
138	2.000000	1.095424	7.36639e+06	-45539.1	955.819	-29772.6	0.000000	0.000000	7.100423	117.192	NaN	0.000000	0.001637	0.001542	28.0893	44.6921	0.001900	23516.7	4.615291	159.84	117.206	1.095142	0.043739	0.043456	117.192	23516.7	0.040002	0.064032	1830.19	84908.3
138	2.000000	1.097406	7.36639e+06	-45539.1	955.819	-29772.6	0.000000	0.000000	7.102830	127.562	NaN	0.000000	0.001638	0.001537	28.0887	45.1583	0.001842	24510.1	1.676443	161.29	124.529	1.097168	0.045721	0.045483	127.562	24510.1	0.041817	0.068810	1853.84	85367.8
138	2.000000	1.099382	7.36639e+06	-45539.1	955.819	-29772.6	0.000000	0.000000	7.105173	136.46	NaN	0.000000	0.001631	0.001570	28.088	47.7268	0.001852	25775.5	2.738151	159.7	132.534	1.099092	0.047697	0.047407	136.46	25775.5	0.043726	0.074013	1843.73	86561.8
138	2.000000	1.101391	7.36639e+06	-45539.1	955.819	-29772.6	0.000000	0.000000	7.107720	149.546	NaN	0.000000	0.001643	0.001566	28.0883	49.5433	0.001804	27470.3	3.214399	158.702	146.797	1.101100	0.049706	0.049415	149.546	27470.3	0.045623	0.079367	1884.24	89087.8
138	2.000000	1.103382	7.36639e+06	-45539.1	955.82	-29772.6	0.000000	0.000000	7.110114	159.36	NaN	0.000000	0.001648	0.001595	28.0891	50.8314	0.001779	28576.2	4.741451	157.778	155.961	1.103085	0.051697	0.051400	159.36	28576.2	0.047514	0.084885	1877.36	89611.2
138	2.000000	1.105416	7.36639e+06	-45539.1	955.819	-29772.6	0.000000	0.000000	7.112583	169.964	NaN	0.000000	0.001613	0.001593	28.0891	54.3645	0.001757	30934.3	2.739660	157.941	168.384	1.105183	0.053731	0.053498	169.964	30934.3	0.049610	0.091211	1863.42	93581.4
138	2.000000	1.107388	7.36639e+06	-45539.1	955.819	-29772.6	0.000000	0.000000	7.115233	186.452	NaN	0.000000	0.001638	0.001552	28.0885	55.192	0.001790	30831.5	1.654525	159.662	183.051	1.107159	0.055703	0.055474	186.452	30831.5	0.051167	0.096055	1941.09	90888.1
138	2.000000	1.109410	7.36639e+06	-45539.1	955.819	-29772.6	0.000000	0.000000	7.117557	193.79	NaN	0.000000	0.001639	0.001564	28.0907	59.2653	0.001859	31875.8	8.731157	153.052	193.319	1.109101	0.057725	0.057416	193.79	31875.8	0.053165	0.102447	1891.61	90988.3
138	2.000000	1.111435	7.36639e+06	-45539.1	955.818	-29772.6	0.000000	0.000000	7.119995	203.82	NaN	0.000000	0.001635	0.001562	28.0911	61.0859	0.001849	33045.9	5.531849	156.437	202.384	1.111181	0.059750	0.059496	203.82	33045.9	0.055124	0.108907	1871.5	91487.6
138	2.000000	1.113390	7.36639e+06	-45539.1	955.818	-29772.6	0.000000	0.000000	7.122632	220.412	NaN	0.000000	0.001656	0.001557	28.0906	62.8484	0.001947	32285.8	6.409745	155.25	219.046	1.113091	0.061705	0.061406	220.412	32285.8	0.056585	0.113848	1936.02	87422.4
138	2.000000	1.115478	7.36639e+06	-45539.1	955.819	-29772.6	0.000000	0.000000	7.125237	233.01	NaN	0.000000	0.001668	0.001542	28.0894	65.0771	0.001859	35009.6	5.191847	155.892	234.366	1.115080	0.063793	0.063395	233.01	35009.6	0.058801	0.121545	1917.07	91747
138	2.000000	1.117344	7.36639e+06	-45539.1	955.818	-29772.6	0.000000	0.000000	7.127778	249.416	NaN	0.000000	0.001660	0.001537	28.0913	65.3984	0.001786	36622.4	3.119068	157.16	245.651	1.117058	0.065659	0.065373	249.416	36622.4	0.060551	0.127793	1951.71	93597.8
138	2.000000	1.119377	7.36639e+06	-45539.1	955.819	-29772.6	0.000000	0.000000	7.130120	256.935	NaN	0.000000	0.001672	0.001527	28.0907	68.3267	0.001802	37911.6	5.195385	154.732	254.181	1.119050	0.067692	0.067365	256.935	37911.6	0.062609	0.135330	1898.58	94156.1
138	2.000000	1.121390	7.36639e+06	-45539.1	955.818	-29772.6	0.000000	0.000000	7.132894	275.454	NaN	0.000000	0.001624	0.001564	28.0898	70.1772	0.001835	38244.6	4.674525	155.226	273.684	1.121111	0.069705	0.069426	275.454	38244.6	0.064303	0.141690	1944.06	92827
138	2.000000	1.123393	7.36639e+06	-45539.1	955.818	-29772.6	0.000000	0.000000	7.135209	283.041	NaN	0.000000	0.001675	0.001589	28.0903	72.6376	0.001866	38926.6	8.375011	151.033	282.498	1.123167	0.071708	0.071481	283.041	38926.6	0.066255	0.149188	1897.21	92077.3
138	2.000000	1.125357	7.36639e+06	-45539.1	955.818	-29772.6	0.000000	0.000000	7.138055	304.514	NaN	0.000000	0.001645	0.001574	28.0908	73.2967	0.001808	40533.8	5.387278	154.557	303.655	1.124958	0.073672	0.073273	304.514	40533.8	0.068037	0.156195	1949.57	93703.7
138	2.000000	1.127324	7.36639e+06	-45539.1	955.819	-29772.6	0.000000	0.000000	7.140599	318.531	NaN	0.000000	0.001625	0.001545	28.0892	74.7109	0.001852	40330.9	4.817327	155.219	314.232	1.126983	0.075639	0.075298	318.531	40330.9	0.069716	0.162934	1954.98	91286.4
138	2.000000	1.129367	7.36639e+06	-45539.1	955.819	-29772.6	0.000000	0.000000	7.143026	327.857	NaN	0.000000	0.001627	0.001541	28.0903	77.2919	0.001801	42916.8	5.018363	153.885	325.181	1.129087	0.077682	0.077402	327.857	42916.8	0.071953	0.172122	1904.79	94510.9
138	2.000000	1.131390	7.36639e+06	-45539.1	955.82	-29772.6	0.000000	0.000000	7.145714	344.051	NaN	0.000000	0.001629	0.001585	28.0911	79.4479	0.001848	42988.1	5.026014	155.108	341.303	1.130934	0.079705	0.079249	344.051	42988.1	0.073703	0.179475	1916.99	92708.5
138	2.000000	1.133277	7.36639e+06	-45539.1	955.819	-29772.6	0.000000	0.000000	7.148266	360.253	NaN	0.000000	0.001638	0.001566	28.0908	80.9958	0.001769	45799	7.712560	151.069	355.947	1.133009	0.081591	0.081324	360.253	45799	0.075692	0.188010	1916.14	96502.7
138	2.000000	1.135321	7.36639e+06	-45539.1	955.819	-29772.6	0.000000	0.000000	7.150948	375.734	NaN	0.000000	0.001661	0.001584	28.0916	82.924	0.001741	47637.3	2.998947	155.41	372.888	1.135091	0.083636	0.083406	375.734	47637.3	0.077721	0.196904	1908.2	98082.8
138	2.000000	1.137315	7.36639e+06	-45539.1	955.819	-29772.6	0.000000	0.000000	7.153832	397.397	NaN	0.000000	0.001663	0.001536	28.0913	83.81	0.001771	47323.4	4.965045	153.572	392.402	1.136995	0.085630	0.085310	397.397	47323.4	0.079332	0.204106	1947.01	95702
138	2.000000	1.139275	7.36639e+06	-45539.1	955.819	-29772.6	0.000000	0.000000	7.156183	406.911	NaN	0.000000	0.001652	0.001580	28.0896	86.3389	0.001789	48255.5	4.050276	154.512	399.459	1.138853	0.087590	0.087167	406.911	48255.5	0.081266	0.212911	1911.18	95547.9
138	2.000000	1.141398	7.36639e+06	-45539.1	955.819	-29772.6	0.000000	0.000000	7.159044	424.868	NaN	0.000000	0.001719	0.001598	28.0901	87.7314	0.001831	47918	5.047429	153.343	424.082	1.141117	0.089712	0.089432	424.868	47918	0.083063	0.221246	1920.34	93075.3
138	2.000000	1.143302	7.36639e+06	-45539.1	955.819	-29772.6	0.000000	0.000000	7.161847	446.729	NaN	0.000000	0.001700	0.001571	28.089	88.6719	0.001772	50047.6	4.469714	153.769	443.198	1.142995	0.091617	0.091310	446.729	50047.6	0.084923	0.230033	1942.02	95337
138	2.000000	1.145397	7.36639e+06	-45539.1	955.819	-29772.6	0.000000	0.000000	7.164360	456.901	NaN	0.000000	0.001742	0.001553	28.0884	91.4357	0.001656	55204.4	4.127126	153.209	459.434	1.145124	0.093712	0.093439	456.901	55204.4	0.087505	0.242495	1884.16	102422
138	2.000000	1.147337	7.36639e+06	-45539.1	955.819	-29772.6	0.000000	0.000000	7.167021	474.442	NaN	0.000000	0.001656	0.001583	28.0888	92.9492	0.001845	50379.1	4.673174	152.981	470.491	1.147227	0.095652	0.095541	474.442	50379.1	0.088589	0.247819	1914.47	92460.4
138	2.000000	1.149325	7.36639e+06	-45539.1	955.819	-29772.6	0.000000	0.000000	7.170161	502.46	NaN	0.000000	0.001641	0.001581	28.0901	95.5321	0.001846	51760.5	4.258232	154.037	497.946	1.148937	0.097640	0.097252	502.46	51760.5	0.090360	0.256630	1957.91	93350.7
138	2.000000	1.151378	7.36639e+06	-45539.1	955.819	-29772.6	0.000000	0.000000	7.172667	513.497	NaN	0.000000	0.001673	0.001586	28.0913	98.0996	0.001815	54048.2	5.273949	152.882	512.714	1.151131	0.099693	0.099446	513.497	54048.2	0.092567	0.267817	1917.34	95419.1
138	2.000000	1.153362	7.36639e+06	-45539.1	955.819	-29772.6	0.000000	0.000000	7.175533	534.962	NaN	0.000000	0.001636	0.001569	28.0901	99.2855	0.001765	56255.7	4.913619	152.338	533.455	1.153034	0.101676	0.101349	534.962	56255.7	0.094544	0.278026	1924.14	97475.8
138	2.000000	1.155341	7.36639e+06	-45539.1	955.819	-29772.6	0.000000	0.000000	7.178223	552.244	NaN	0.000000	0.001682	0.001569	28.0897	101.492	0.001737	58426.8	3.914077	152.762	549.065	1.155045	0.103655	0.103360	552.244	58426.8	0.096567	0.288651	1913.19	99357
138	2.000000	1.157278	7.36639e+06	-45539.1	955.82	-29772.6	0.000000	0.000000	7.181081	574.647	NaN	0.000000	0.001676	0.001569	28.0916	102.129	0.001759	58052.4	4.540414	152.433	569.377	1.156998	0.105593	0.105313	574.647	58052.4	0.098169	0.297201	1933.53	97290
138	2.000000	1.158372	7.36639e+06	-45539.1	955.819	-29772.6	0.000000	0.000000	7.182677	586.837	NaN	0.000000	0.001624	0.001564	28.1063	104.748	0.001778	58927.8	4.161759	153.273	586.389	1.158044	0.106687	0.106359	586.837	58927.8	0.099218	0.302868	1937.6	97828.8