File: remote_trans/data/nanoindenter/0828-1/data/Data_2025-08-06,11h17m57s/2025-07-22_16-23-58_1_300.txt
2025-07-22, 16:23:58, 1
Index	Phase	Displacement	Time	Pos X	Pos Y	Pos Z	Rot A	Rot B	Piezo Z	Force A	Force B	Gripper	Voltage A	Voltage B	Temperature	Amplitude force	Amplitude pos	Stiffness	Phase shift	Phase excitation	Force A raw	Displacement raw	HMax	HMax raw	Real Force	Real Stiffness	Contact Depth	Area	Hardness	Reduced Mod.
[#]	[#]	[um]	[s]	[um]	[um]	[um]	[m°]	[m°]	[um]	[uN]	[uN]	[V]	[V]	[V]	[°C]	[uN]	[um]	[N/m]	[°]	[°]	[uN]	[um]	[um]	[um]	[uN]	[N/m]	[um]	[um^2]	[MPa]	[MPa]
300	1.000000	0.002199	7.368e+06	-53639.1	955.818	-29746	0.000000	0.000000	6.002814	-0.020017	NaN	0.000000	0.001686	0.001664	28.0814	0.026789	0.000990	27.046	-3.394179	-169.983	-0.043216	0.000915	-1.105333	-1.106617	-0.020017	27.046	-1.104778	-5.810349E+14	3.444995E-17	NaN
300	1.000000	0.012263	7.368e+06	-53639.1	955.817	-29746	0.000000	0.000000	6.012878	-0.024981	NaN	0.000000	0.001669	0.001665	28.08	0.050839	0.001172	43.3648	176.366	17.5507	0.046174	0.010780	-1.095269	-1.096752	-0.024981	43.3648	-1.094837	-4.273273E+14	5.845777E-17	NaN
300	1.000000	0.022137	7.368e+06	-53639.1	955.819	-29746	0.000000	0.000000	6.022753	0.010198	NaN	0.000000	0.001660	0.001652	28.0799	0.105408	0.001752	60.1694	70.5507	-165.977	-0.030631	0.020822	-1.085396	-1.086710	0.010198	60.1694	-1.085523	-3.203981E+14	-3.182927E-17	NaN
300	1.000000	0.032156	7.368e+06	-53639.1	955.817	-29746	0.000000	0.000000	6.032773	0.012925	NaN	0.000000	0.001640	0.001668	28.08	0.041215	0.001881	21.906	78.1917	17.1171	-0.023908	0.030752	-1.075376	-1.076780	0.012925	21.906	-1.075818	-2.373306E+14	-5.446032E-17	NaN
300	1.000000	0.042154	7.368e+06	-53639.1	955.818	-29746	0.000000	0.000000	6.042771	0.030388	NaN	0.000000	0.001622	0.001657	28.0801	0.061757	0.002019	30.5928	-32.1571	-166.325	0.059544	0.040802	-1.065378	-1.066731	0.030388	30.5928	-1.066123	-1.758326E+14	-1.728258E-16	NaN
300	1.000000	0.052133	7.368e+06	-53639.1	955.819	-29746	0.000000	0.000000	6.052750	0.023763	NaN	0.000000	0.001649	0.001656	28.0803	0.068896	0.002082	33.09	-115.288	13.5355	0.051185	0.050777	-1.055399	-1.056755	0.023763	33.09	-1.055938	-1.283000E+14	-1.852163E-16	NaN
300	1.000000	0.062132	7.368e+06	-53639.1	955.818	-29746	0.000000	0.000000	6.062747	-0.014848	NaN	0.000000	0.001652	0.001687	28.08	0.098898	0.001942	50.9281	-176.647	-167.268	-0.013466	0.060847	-1.045401	-1.046685	-0.014848	50.9281	-1.045182	-9.196955E+13	1.614438E-16	NaN
300	1.000000	0.072154	7.368e+06	-53639.1	955.818	-29746	0.000000	0.000000	6.072768	-0.040189	NaN	0.000000	0.001670	0.001624	28.0799	0.147071	0.001943	75.6744	10.7505	14.5618	-0.075529	0.070777	-1.035378	-1.036756	-0.040189	75.6744	-1.034980	-6.705965E+13	5.993077E-16	NaN
300	1.000000	0.082138	7.368e+06	-53639.1	955.817	-29746	0.000000	0.000000	6.082752	-0.049671	NaN	0.000000	0.001702	0.001668	28.0801	0.026496	0.002063	12.8405	63.0425	-163.567	0.007955	0.080843	-1.025394	-1.026689	-0.049671	12.8405	-1.022493	-4.555079E+13	1.090457E-15	NaN
300	1.000000	0.092137	7.368e+06	-53639.1	955.817	-29746	0.000000	0.000000	6.092752	-0.008663	NaN	0.000000	0.001669	0.001694	28.0804	0.058511	0.001882	31.0903	45.6858	10.6788	-0.038692	0.090781	-1.015396	-1.016752	-0.008663	31.0903	-1.015187	-3.632338E+13	2.385061E-16	NaN
300	1.000000	0.102160	7.368e+06	-53639.1	955.818	-29746	0.000000	0.000000	6.102776	0.001669	NaN	0.000000	0.001685	0.001654	28.0801	0.030708	0.001975	15.5506	-5.801060	-164.966	-0.033864	0.100841	-1.005372	-1.006692	0.001669	15.5506	-1.005453	-2.686431E+13	-6.214017E-17	NaN
300	1.000000	0.112189	7.368e+06	-53639.1	955.818	-29746	0.000000	0.000000	6.112803	-0.038133	NaN	0.000000	0.001676	0.001644	28.0803	0.111516	0.002057	54.2214	-156.439	14.827	-0.087504	0.110819	-0.995343	-0.996714	-0.038133	54.2214	-0.994816	-1.931819E+13	1.973964E-15	NaN
300	1.000000	0.122171	7.368e+06	-53639.1	955.818	-29746	0.000000	0.000000	6.122787	-0.006286	NaN	0.000000	0.001696	0.001672	28.0803	0.071495	0.001996	35.825	-109.626	-164.72	0.059039	0.120902	-0.985361	-0.986630	-0.006286	35.825	-0.985230	-1.435029E+13	4.380439E-16	NaN
300	1.000000	0.132220	7.368e+06	-53639.1	955.817	-29746	0.000000	0.000000	6.132837	0.019745	NaN	0.000000	0.001663	0.001634	28.0806	0.086502	0.001994	43.3889	166.242	12.7834	-0.007353	0.130816	-0.975312	-0.976716	0.019745	43.3889	-0.975653	-1.066221E+13	-1.851876E-15	NaN
300	1.000000	0.142181	7.368e+06	-53639.1	955.818	-29746	0.000000	0.000000	6.142797	-0.003371	NaN	0.000000	0.001642	0.001668	28.0816	0.025854	0.001933	13.3786	77.445	-171.223	0.005420	0.140862	-0.965351	-0.966671	-0.003371	13.3786	-0.965162	-7.699417E+12	4.378233E-16	NaN
300	1.000000	0.152178	7.368e+06	-53639.1	955.817	-29746	0.000000	0.000000	6.152795	0.022964	NaN	0.000000	0.001595	0.001687	28.0814	0.136605	0.002001	68.2584	-176.249	14.7674	0.025688	0.150856	-0.955355	-0.956677	0.022964	68.2584	-0.955607	-5.723182E+12	-4.012382E-15	NaN
300	1.000000	0.162164	7.368e+06	-53639.1	955.818	-29746	0.000000	0.000000	6.162779	-0.013645	NaN	0.000000	0.001634	0.001692	28.0813	0.081881	0.002033	40.2774	100.545	-164.726	0.026104	0.160868	-0.945368	-0.946664	-0.013645	40.2774	-0.945114	-4.131696E+12	3.302570E-15	NaN
300	1.000000	0.172161	7.368e+06	-53639.1	955.818	-29746	0.000000	0.000000	6.172778	0.019948	NaN	0.000000	0.001632	0.001683	28.0812	0.048848	0.002126	22.9803	31.7374	13.9445	0.007443	0.170802	-0.935371	-0.936730	0.019948	22.9803	-0.936022	-3.115088E+12	-6.403670E-15	NaN
300	1.000000	0.182183	7.368e+06	-53639.1	955.817	-29746	0.000000	0.000000	6.182799	0.007913	NaN	0.000000	0.001677	0.001638	28.0809	0.083199	0.002019	41.212	-75.2348	-166.639	-0.018338	0.180902	-0.925350	-0.926630	0.007913	41.212	-0.925494	-2.245805E+12	-3.523496E-15	NaN
300	1.000000	0.192229	7.368e+06	-53639.1	955.818	-29746	0.000000	0.000000	6.192846	0.032176	NaN	0.000000	0.001651	0.001722	28.081	0.100961	0.001927	52.3854	-128.64	16.3124	0.050437	0.190793	-0.915303	-0.916739	0.032176	52.3854	-0.915764	-1.659625E+12	-1.938757E-14	NaN
300	1.000000	0.202183	7.368e+06	-53639.1	955.818	-29746	0.000000	0.000000	6.202801	0.051519	NaN	0.000000	0.001626	0.001703	28.0814	0.036504	0.002147	17.0019	161.401	-164.712	0.060439	0.200890	-0.905349	-0.906642	0.051519	17.0019	-0.907622	-1.288374E+12	-3.998792E-14	NaN
300	1.000000	0.212213	7.368e+06	-53639.1	955.818	-29746	0.000000	0.000000	6.212828	-0.016839	NaN	0.000000	0.001649	0.001657	28.0808	0.043767	0.001912	22.8887	153.492	15.7319	0.034781	0.210834	-0.895320	-0.896698	-0.016839	22.8887	-0.894768	-8.636990E+11	1.949651E-14	NaN
300	1.000000	0.222204	7.368e+06	-53639.1	955.818	-29746	0.000000	0.000000	6.222817	-0.048227	NaN	0.000000	0.001658	0.001653	28.081	0.089932	0.001914	46.9908	-49.8373	-168.363	0.006564	0.220887	-0.885329	-0.886646	-0.048227	46.9908	-0.884559	-6.285743E+11	7.672513E-14	NaN
300	1.000000	0.232210	7.368e+06	-53639.1	955.819	-29746	0.000000	0.000000	6.232827	0.036649	NaN	0.000000	0.001662	0.001655	28.0812	0.031269	0.001873	16.6928	103.466	14.2715	0.008741	0.230879	-0.875322	-0.876653	0.036649	16.6928	-0.876969	-4.962656E+11	-7.384989E-14	NaN
300	1.000000	0.242228	7.368e+06	-53639.1	955.818	-29746	0.000000	0.000000	6.242844	0.011948	NaN	0.000000	0.001654	0.001655	28.081	0.081847	0.002012	40.6748	-128.056	-161.592	0.069971	0.240922	-0.865304	-0.866611	0.011948	40.6748	-0.865525	-3.474484E+11	-3.438705E-14	NaN
300	1.000000	0.252234	7.368e+06	-53639.1	955.818	-29746	0.000000	0.000000	6.252849	-0.027663	NaN	0.000000	0.001603	0.001674	28.0808	0.092894	0.002130	43.6032	-134.999	15.5174	-0.041511	0.250860	-0.855298	-0.856672	-0.027663	43.6032	-0.854823	-2.489054E+11	1.111385E-13	NaN
300	1.000000	0.262230	7.368e+06	-53639.1	955.818	-29746	0.000000	0.000000	6.262847	0.029053	NaN	0.000000	0.001643	0.001623	28.0811	0.029371	0.002041	14.3928	-142.943	-165.587	-0.025714	0.260949	-0.845302	-0.846583	0.029053	14.3928	-0.846816	-1.939187E+11	-1.498214E-13	NaN
300	1.000000	0.272252	7.368e+06	-53639.1	955.817	-29746	0.000000	0.000000	6.272865	-0.074870	NaN	0.000000	0.001666	0.001641	28.0811	0.004683	0.001971	2.375640	-18.5725	15.806	-0.060204	0.270853	-0.835280	-0.836680	-0.074870	2.375640	-0.811644	-6.469473E+10	1.157280E-12	NaN
300	1.000000	0.282221	7.368e+06	-53639.1	955.818	-29746	0.000000	0.000000	6.282835	-0.022660	NaN	0.000000	0.001650	0.001680	28.0797	0.022163	0.002031	10.912	-116.477	-165.196	-0.037607	0.280926	-0.825312	-0.826606	-0.022660	10.912	-0.823754	-9.443197E+10	2.399579E-13	NaN
300	1.000000	0.292207	7.368e+06	-53639.1	955.818	-29746	0.000000	0.000000	6.292826	0.076516	NaN	0.000000	0.001627	0.001688	28.0795	0.036061	0.002033	17.7371	111.867	16.1035	0.020143	0.290821	-0.815325	-0.816711	0.076516	17.7371	-0.818561	-8.029639E+10	-9.529237E-13	NaN
300	1.000000	0.302265	7.368e+06	-53639.1	955.818	-29746	0.000000	0.000000	6.302879	-0.055793	NaN	0.000000	0.001643	0.001614	28.0798	0.089608	0.002032	44.1056	-179.998	-168.046	-0.048991	0.300927	-0.805267	-0.806606	-0.055793	44.1056	-0.804319	-5.146091E+10	1.084191E-12	NaN
300	1.000000	0.312259	7.368e+06	-53639.1	955.817	-29746	0.000000	0.000000	6.312876	0.034964	NaN	0.000000	0.001653	0.001651	28.0799	0.010163	0.001938	5.243018	-6.762420	16.3899	0.029640	0.310875	-0.795274	-0.796658	0.034964	5.243018	-0.800275	-4.535211E+10	-7.709563E-13	NaN
300	1.000000	0.322258	7.368e+06	-53639.1	955.817	-29746	0.000000	0.000000	6.322873	-0.023188	NaN	0.000000	0.001635	0.001666	28.0797	0.054354	0.001917	28.3478	36.8397	-164.1	0.023211	0.320974	-0.785274	-0.786559	-0.023188	28.3478	-0.784661	-2.783289E+10	8.331009E-13	NaN
300	1.000000	0.332238	7.368e+06	-53639.1	955.818	-29746	0.000000	0.000000	6.332854	0.011910	NaN	0.000000	0.001648	0.001619	28.0795	0.044628	0.002001	22.2988	-39.6626	12.1522	0.022387	0.330888	-0.775295	-0.776644	0.011910	22.2988	-0.775695	-2.102452E+10	-5.664787E-13	NaN
300	1.000000	0.342243	7.368e+06	-53639.1	955.818	-29746	0.000000	0.000000	6.342859	0.017755	NaN	0.000000	0.001631	0.001626	28.0796	0.059395	0.001976	30.0558	-84.6397	-165.068	-0.027022	0.340963	-0.765290	-0.766570	0.017755	30.0558	-0.765733	-1.539143E+10	-1.153537E-12	NaN
300	1.000000	0.352229	7.368e+06	-53639.1	955.818	-29746	0.000000	0.000000	6.352844	-0.032343	NaN	0.000000	0.001645	0.001665	28.0798	0.075538	0.002053	36.7863	-38.1491	13.0518	0.023120	0.350903	-0.755303	-0.756629	-0.032343	36.7863	-0.754644	-1.087481E+10	2.974165E-12	NaN
300	1.000000	0.362252	7.368e+06	-53639.1	955.818	-29746	0.000000	0.000000	6.362871	0.073150	NaN	0.000000	0.001634	0.001671	28.0798	0.032471	0.001963	16.5452	-169.334	-166.936	0.010352	0.360964	-0.745280	-0.746568	0.073150	16.5452	-0.748596	-8.997229E+9	-8.130240E-12	NaN
300	1.000000	0.372295	7.368e+06	-53639.1	955.818	-29746	0.000000	0.000000	6.372909	-0.036889	NaN	0.000000	0.001653	0.001642	28.0797	0.053249	0.002014	26.4416	-132.428	15.9777	-0.021845	0.370907	-0.735237	-0.736625	-0.036889	26.4416	-0.734191	-5.726929E+9	6.441311E-12	NaN
300	1.000000	0.382283	7.368e+06	-53639.1	955.819	-29746	0.000000	0.000000	6.382898	-0.013905	NaN	0.000000	0.001677	0.001639	28.0797	0.032107	0.002060	15.5896	-72.096	-166.88	-0.038371	0.380980	-0.725250	-0.726553	-0.013905	15.5896	-0.724581	-4.235777E+9	3.282733E-12	NaN
300	1.000000	0.392287	7.368e+06	-53639.1	955.819	-29746	0.000000	0.000000	6.392901	-0.036389	NaN	0.000000	0.001684	0.001664	28.0799	0.050075	0.001988	25.1868	124.726	12.6837	-0.047601	0.390949	-0.715246	-0.716583	-0.036389	25.1868	-0.714162	-3.053807E+9	1.191600E-11	NaN
300	1.000000	0.402274	7.368e+06	-53639.1	955.818	-29746	0.000000	0.000000	6.402893	0.064292	NaN	0.000000	0.001695	0.001665	28.08	0.133016	0.001802	73.8052	7.113344	-165.894	0.014485	0.401031	-0.705258	-0.706501	0.064292	73.8052	-0.705911	-2.356356E+9	-2.728444E-11	NaN
300	1.000000	0.412278	7.368e+06	-53639.1	955.817	-29746	0.000000	0.000000	6.412896	0.038666	NaN	0.000000	0.001701	0.001686	28.0798	0.049059	0.001861	26.3615	178.005	13.7185	0.054122	0.410924	-0.695254	-0.696609	0.038666	26.3615	-0.696354	-1.744758E+9	-2.216123E-11	NaN
300	1.000000	0.422261	7.368e+06	-53639.1	955.818	-29746	0.000000	0.000000	6.422876	-0.025949	NaN	0.000000	0.001728	0.001676	28.0811	0.044983	0.002037	22.0875	154.139	-164.432	-0.058256	0.421023	-0.685271	-0.686510	-0.025949	22.0875	-0.684390	-1.197396E+9	2.167086E-11	NaN
300	1.000000	0.432285	7.368e+06	-53639.1	955.819	-29746	0.000000	0.000000	6.432899	-0.047409	NaN	0.000000	0.001710	0.001678	28.081	0.050507	0.001901	26.5636	154.03	13.5162	0.048736	0.430923	-0.675248	-0.676610	-0.047409	26.5636	-0.673909	-8.607681E+8	5.507728E-11	NaN
300	1.000000	0.442298	7.368e+06	-53639.1	955.817	-29746	0.000000	0.000000	6.442916	0.050589	NaN	0.000000	0.001734	0.001649	28.0809	0.130074	0.002016	64.5055	52.2041	-166.686	-0.025986	0.441001	-0.665234	-0.666531	0.050589	64.5055	-0.665822	-6.671207E+8	-7.583152E-11	NaN
300	1.000000	0.452304	7.368e+06	-53639.1	955.818	-29746	0.000000	0.000000	6.452920	0.024663	NaN	0.000000	0.001756	0.001666	28.0808	0.067309	0.002089	32.2153	-121.792	13.7984	-0.056767	0.451007	-0.655229	-0.656526	0.024663	32.2153	-0.655803	-4.863731E+8	-5.070820E-11	NaN
300	1.000000	0.462333	7.368e+06	-53639.1	955.819	-29746	0.000000	0.000000	6.462948	-0.009713	NaN	0.000000	0.001682	0.001665	28.0812	0.174523	0.002013	86.714	126.918	-165.064	-0.066482	0.461008	-0.645200	-0.646524	-0.009713	86.714	-0.645116	-3.471074E+8	2.798394E-11	NaN
300	1.000000	0.472317	7.368e+06	-53639.1	955.818	-29746	0.000000	0.000000	6.472933	-0.007423	NaN	0.000000	0.001639	0.001671	28.0808	0.066980	0.002109	31.7564	-123.42	18.8401	0.048899	0.470990	-0.635215	-0.636543	-0.007423	31.7564	-0.635040	-2.524750E+8	2.940167E-11	NaN
300	1.000000	0.482307	7.368e+06	-53639.1	955.818	-29746	0.000000	0.000000	6.482923	0.017848	NaN	0.000000	0.001659	0.001692	28.0809	0.057385	0.002008	28.5811	-105.299	-165.858	0.043297	0.481000	-0.625226	-0.626533	0.017848	28.5811	-0.625694	-1.878785E+8	-9.499731E-11	NaN
300	1.000000	0.492329	7.368e+06	-53639.1	955.818	-29746	0.000000	0.000000	6.492941	-0.086922	NaN	0.000000	0.001701	0.001651	28.081	0.119896	0.001835	65.3308	11.3553	15.6843	-0.059271	0.490970	-0.615204	-0.616562	-0.086922	65.3308	-0.614206	-1.306070E+8	6.655236E-10	NaN
300	1.000000	0.502313	7.368e+06	-53639.1	955.817	-29746	0.000000	0.000000	6.502930	0.006050	NaN	0.000000	0.001674	0.001661	28.081	0.047182	0.001963	24.0404	-128.287	-160.986	-0.065903	0.500997	-0.605219	-0.606536	0.006050	24.0404	-0.605408	-9.883624E+7	-6.121676E-11	NaN
300	1.000000	0.512337	7.368e+06	-53639.1	955.819	-29746	0.000000	0.000000	6.512954	0.031856	NaN	0.000000	0.001620	0.001665	28.0812	0.074148	0.001969	37.6485	-87.4665	14.0603	0.047628	0.510962	-0.595195	-0.596571	0.031856	37.6485	-0.595830	-7.294813E+7	-4.366996E-10	NaN
300	1.000000	0.522300	7.368e+06	-53639.1	955.817	-29746	0.000000	0.000000	6.522914	-0.038437	NaN	0.000000	0.001627	0.001668	28.0808	0.109846	0.001922	57.1439	23.9598	-168.346	-0.040800	0.521057	-0.585233	-0.586476	-0.038437	57.1439	-0.584728	-5.128219E+7	7.495290E-10	NaN
300	1.000000	0.532355	7.368e+06	-53639.1	955.818	-29746	0.000000	0.000000	6.532970	-0.004155	NaN	0.000000	0.001645	0.001620	28.081	0.049449	0.002075	23.8336	110.556	14.6883	0.004011	0.530922	-0.575178	-0.576610	-0.004155	23.8336	-0.575047	-3.770050E+7	1.102155E-10	NaN
300	1.000000	0.542342	7.368e+06	-53639.1	955.818	-29746	0.000000	0.000000	6.542960	0.060014	NaN	0.000000	0.001639	0.001655	28.081	0.123313	0.002034	60.6146	-108.197	-168.289	0.105760	0.541069	-0.565190	-0.566463	0.060014	60.6146	-0.565933	-2.821115E+7	-2.127321E-9	NaN
300	1.000000	0.552345	7.368e+06	-53639.1	955.818	-29746	0.000000	0.000000	6.552962	0.037785	NaN	0.000000	0.001666	0.001646	28.0796	0.078565	0.001965	39.9914	-113.705	14.0409	0.035553	0.550898	-0.555187	-0.556635	0.037785	39.9914	-0.555896	-2.049229E+7	-1.843849E-9	NaN
300	1.000000	0.562379	7.368e+06	-53639.1	955.819	-29746	0.000000	0.000000	6.562993	-0.044138	NaN	0.000000	0.001651	0.001641	28.0795	0.092438	0.002013	45.9197	-32.7193	-163.873	-0.011876	0.561076	-0.545153	-0.546456	-0.044138	45.9197	-0.544432	-1.421717E+7	3.104571E-9	NaN
300	1.000000	0.572348	7.368e+06	-53639.1	955.818	-29746	0.000000	0.000000	6.572964	-0.016759	NaN	0.000000	0.001645	0.001662	28.0798	0.093412	0.002022	46.1999	-19.2481	13.7553	-0.041244	0.570968	-0.535184	-0.536564	-0.016759	46.1999	-0.534912	-1.048977E+7	1.597696E-9	NaN
300	1.000000	0.582367	7.368e+06	-53639.1	955.817	-29746	0.000000	0.000000	6.582984	0.036956	NaN	0.000000	0.001656	0.001673	28.0796	0.007930	0.002058	3.853682	-24.5748	-164.674	0.027317	0.581026	-0.525166	-0.526506	0.036956	3.853682	-0.532358	-9.66753e+06	-3.822696E-9	NaN
300	1.000000	0.592382	7.368e+06	-53639.1	955.818	-29746	0.000000	0.000000	6.592998	-0.005407	NaN	0.000000	0.001740	0.001653	28.0797	0.105555	0.002001	52.7597	-20.0515	13.4535	0.047527	0.591003	-0.515150	-0.516530	-0.005407	52.7597	-0.515073	-5.5597e+06	9.725412E-10	NaN
300	1.000000	0.602392	7.368e+06	-53639.1	955.817	-29746	0.000000	0.000000	6.603005	-0.084392	NaN	0.000000	0.001663	0.001657	28.08	0.047050	0.001993	23.6046	-48.701	-161.366	-0.045342	0.601039	-0.505140	-0.506493	-0.084392	23.6046	-0.502459	-3.70947e+06	2.275035E-8	NaN
300	1.000000	0.612364	7.368e+06	-53639.1	955.818	-29746	0.000000	0.000000	6.612978	-0.047519	NaN	0.000000	0.001637	0.001648	28.0797	0.023880	0.001889	12.6421	-162.149	18.8493	-0.060222	0.611012	-0.495169	-0.496520	-0.047519	12.6421	-0.492349	-2.68052e+06	1.772757E-8	NaN
300	1.000000	0.622357	7.368e+06	-53639.1	955.818	-29746	0.000000	0.000000	6.622972	-0.020176	NaN	0.000000	0.001684	0.001643	28.0796	0.122437	0.002015	60.7569	133.841	-165.046	-0.014838	0.621046	-0.485175	-0.486487	-0.020176	60.7569	-0.484926	-2.11084e+06	9.558451E-9	NaN
300	1.000000	0.632410	7.368e+06	-53639.1	955.818	-29746	0.000000	0.000000	6.633025	-0.018666	NaN	0.000000	0.001649	0.001633	28.0797	0.037852	0.002041	18.5478	-132.045	12.4354	0.029791	0.631065	-0.475122	-0.476467	-0.018666	18.5478	-0.474367	-1.50188e+06	1.242878E-8	NaN
300	1.000000	0.642369	7.368e+06	-53639.1	955.818	-29746	0.000000	0.000000	6.642985	0.006338	NaN	0.000000	0.001661	0.001577	28.08	0.157378	0.002016	78.0674	-166.838	-165.943	-0.033174	0.641117	-0.465163	-0.466416	0.006338	78.0674	-0.465224	-1.11788e+06	-5.670032E-9	NaN
300	1.000000	0.652381	7.368e+06	-53639.1	955.818	-29746	0.000000	0.000000	6.652996	-0.023586	NaN	0.000000	0.001723	0.001578	28.0796	0.021895	0.001854	11.8111	-1.155943	14.8834	-0.042765	0.651077	-0.455151	-0.456456	-0.023586	11.8111	-0.453654	-768730	3.068217E-8	NaN
300	1.000000	0.662397	7.368e+06	-53639.1	955.818	-29746	0.000000	0.000000	6.663014	0.016098	NaN	0.000000	0.001708	0.001613	28.0798	0.087893	0.002044	42.9983	-16.4386	-162.785	0.081296	0.661098	-0.445135	-0.446434	0.016098	42.9983	-0.445416	-588513	-2.735319E-8	NaN
300	1.000000	0.672416	7.368e+06	-53639.1	955.817	-29746	0.000000	0.000000	6.673031	-0.010562	NaN	0.000000	0.001696	0.001646	28.0796	0.068856	0.001936	35.5698	-86.4608	17.2921	0.055628	0.671037	-0.435116	-0.436495	-0.010562	35.5698	-0.434894	-418074	2.526412E-8	NaN
300	1.000000	0.682408	7.368e+06	-53639.1	955.818	-29746	0.000000	0.000000	6.683025	0.031229	NaN	0.000000	0.001686	0.001670	28.0797	0.126970	0.001941	65.4114	30.2531	-164.847	0.122506	0.681107	-0.425124	-0.426426	0.031229	65.4114	-0.425482	-307688	-1.014963E-7	NaN
300	1.000000	0.692408	7.368e+06	-53639.1	955.818	-29746	0.000000	0.000000	6.693023	-0.030232	NaN	0.000000	0.001715	0.001639	28.081	0.091808	0.001957	46.9172	100.815	15.4472	0.055575	0.691084	-0.415124	-0.416448	-0.030232	46.9172	-0.414641	-215951	1.399953E-7	NaN
300	1.000000	0.702410	7.368e+06	-53639.1	955.819	-29746	0.000000	0.000000	6.703024	-0.022926	NaN	0.000000	0.001686	0.001624	28.081	0.052627	0.001943	27.0891	-179.712	-167.161	-0.007531	0.701082	-0.405123	-0.406451	-0.022926	27.0891	-0.404488	-154866	1.480355E-7	NaN
300	1.000000	0.712423	7.368e+06	-53639.1	955.817	-29746	0.000000	0.000000	6.713036	-0.065642	NaN	0.000000	0.001727	0.001644	28.081	0.097034	0.001964	49.4035	116.478	12.7821	0.039726	0.711082	-0.395109	-0.396450	-0.065642	49.4035	-0.394113	-110143	5.959725E-7	NaN
300	1.000000	0.722425	7.368e+06	-53639.1	955.817	-29746	0.000000	0.000000	6.723041	-0.012870	NaN	0.000000	0.001694	0.001631	28.0809	0.056809	0.002089	27.1992	-27.5412	-166.283	0.032883	0.721077	-0.385107	-0.386455	-0.012870	27.1992	-0.384752	-80916	1.590575E-7	NaN
300	1.000000	0.732409	7.368e+06	-53639.1	955.817	-29746	0.000000	0.000000	6.733024	-0.030892	NaN	0.000000	0.001635	0.001656	28.0808	0.057862	0.002133	27.1233	-144.412	15.3908	-0.059987	0.731038	-0.375123	-0.376494	-0.030892	27.1233	-0.374269	-57221.1	5.398757E-7	NaN
300	1.000000	0.742427	7.368e+06	-53639.1	955.818	-29746	0.000000	0.000000	6.743045	0.057133	NaN	0.000000	0.001638	0.001642	28.081	0.063257	0.001950	32.4473	149.823	-162.302	0.033545	0.741126	-0.365105	-0.366406	0.057133	32.4473	-0.366426	-44118.7	-1.294983E-6	NaN
300	1.000000	0.752429	7.368e+06	-53639.1	955.819	-29746	0.000000	0.000000	6.753044	0.001218	NaN	0.000000	0.001644	0.001693	28.081	0.091748	0.002087	43.9688	-150.666	15.079	-0.082446	0.751079	-0.355104	-0.356453	0.001218	43.9688	-0.355125	-30290	-4.020324E-8	NaN
300	1.000000	0.762417	7.368e+06	-53639.1	955.817	-29746	0.000000	0.000000	6.763031	-0.037409	NaN	0.000000	0.001630	0.001690	28.0808	0.020207	0.001967	10.2716	-109.306	-165.002	0.011303	0.761129	-0.345116	-0.346403	-0.037409	10.2716	-0.342384	-19782.9	1.890948E-6	NaN
300	1.000000	0.772474	7.368e+06	-53639.1	955.818	-29746	0.000000	0.000000	6.773091	0.014822	NaN	0.000000	0.001636	0.001665	28.0808	0.106964	0.001876	57.0207	139.6	13.0322	-0.029340	0.771079	-0.335058	-0.336454	0.014822	57.0207	-0.335253	-15569.9	-9.519526E-7	NaN
300	1.000000	0.782449	7.368e+06	-53639.1	955.817	-29746	0.000000	0.000000	6.783065	-0.009203	NaN	0.000000	0.001648	0.001634	28.081	0.050679	0.002031	24.9586	-0.679499	-168.128	0.002556	0.781114	-0.325083	-0.326418	-0.009203	24.9586	-0.324807	-10947	8.406713E-7	NaN
300	1.000000	0.792457	7.368e+06	-53639.1	955.818	-29746	0.000000	0.000000	6.793073	0.005360	NaN	0.000000	0.001597	0.001652	28.0809	0.039319	0.002043	19.2492	-71.596	20.4572	0.001664	0.791114	-0.315076	-0.316419	0.005360	19.2492	-0.315285	-7927.68	-6.761397E-7	NaN
300	1.000000	0.802478	7.368e+06	-53639.1	955.817	-29746	0.000000	0.000000	6.803095	0.019780	NaN	0.000000	0.001615	0.001646	28.081	0.091115	0.002095	43.4996	-75.313	-165.943	0.096582	0.801180	-0.305054	-0.306352	0.019780	43.4996	-0.305395	-5659.99	-3.494735E-6	NaN
300	1.000000	0.812439	7.368e+06	-53639.1	955.819	-29746	0.000000	0.000000	6.813054	-0.026459	NaN	0.000000	0.001643	0.001659	28.0807	0.018287	0.002038	8.970942	-60.5935	16.0866	-0.023412	0.811068	-0.295093	-0.296465	-0.026459	8.970942	-0.292881	-3684.89	7.180355E-6	NaN
300	1.000000	0.822440	7.368e+06	-53639.1	955.819	-29746	0.000000	0.000000	6.823055	-0.028368	NaN	0.000000	0.001702	0.001638	28.081	0.136508	0.001849	73.829	-94.8696	-162.53	-0.031311	0.821148	-0.285092	-0.286385	-0.028368	73.829	-0.284804	-2788.2	1.017446E-5	NaN
300	1.000000	0.832471	7.368e+06	-53639.1	955.817	-29746	0.000000	0.000000	6.833089	0.045510	NaN	0.000000	0.001699	0.001629	28.0797	0.052996	0.001964	26.9788	-153.832	17.55	0.039823	0.831084	-0.275061	-0.276448	0.045510	26.9788	-0.276326	-2077.18	-2.190939E-5	NaN
300	1.000000	0.842474	7.368e+06	-53639.1	955.818	-29746	0.000000	0.000000	6.843089	-0.020092	NaN	0.000000	0.001677	0.001659	28.0794	0.048817	0.001990	24.536	-9.550648	-161.021	0.128776	0.841154	-0.265058	-0.266378	-0.020092	24.536	-0.264444	-1370.56	1.465957E-5	NaN
300	1.000000	0.852446	7.368e+06	-53639.1	955.818	-29746	0.000000	0.000000	6.853061	-0.029389	NaN	0.000000	0.001664	0.001655	28.0796	0.019419	0.002007	9.673954	113.183	13.7356	-0.065204	0.851152	-0.255086	-0.256380	-0.029389	9.673954	-0.252808	-908.513	3.234890E-5	NaN
300	1.000000	0.862470	7.368e+06	-53639.1	955.818	-29746	0.000000	0.000000	6.863085	-0.007333	NaN	0.000000	0.001645	0.001615	28.0795	0.033158	0.001914	17.3253	-0.496551	-165.027	-0.008165	0.861107	-0.245063	-0.246425	-0.007333	17.3253	-0.244745	-681.538	1.075882E-5	NaN
300	1.000000	0.872464	7.368e+06	-53639.1	955.818	-29746	0.000000	0.000000	6.873079	-0.010958	NaN	0.000000	0.001597	0.001567	28.0797	0.078782	0.002080	37.868	163.368	14.364	-0.058758	0.871144	-0.235069	-0.236389	-0.010958	37.868	-0.234852	-477.443	2.295193E-5	NaN
300	1.000000	0.882508	7.368e+06	-53639.1	955.818	-29746	0.000000	0.000000	6.883122	-0.042584	NaN	0.000000	0.001505	0.001616	28.0795	0.037494	0.001920	19.5279	75.6752	-165.11	-0.004717	0.881178	-0.225025	-0.226354	-0.042584	19.5279	-0.223389	-314.578	0.000135	NaN
300	1.000000	0.892459	7.368e+06	-53639.1	955.819	-29746	0.000000	0.000000	6.893075	-0.002269	NaN	0.000000	0.001640	0.001603	28.0797	0.038730	0.001932	20.0503	49.0605	15.3201	-0.036869	0.891098	-0.215073	-0.216434	-0.002269	20.0503	-0.214988	-230.847	9.829576E-6	NaN
300	1.000000	0.902493	7.368e+06	-53639.1	955.818	-29746	0.000000	0.000000	6.903111	0.051654	NaN	0.000000	0.001637	0.001614	28.0798	0.070727	0.001972	35.866	141.369	-166.314	-0.008306	0.901143	-0.205039	-0.206389	0.051654	35.866	-0.206120	-165.884	-0.000311	NaN
300	1.000000	0.912510	7.368e+06	-53639.1	955.818	-29746	0.000000	0.000000	6.913124	-0.038875	NaN	0.000000	0.001619	0.001617	28.0797	0.016889	0.002022	8.351789	92.2709	14.9589	0.018649	0.911127	-0.195023	-0.196406	-0.038875	8.351789	-0.191532	-95.4069	0.000407	NaN
300	1.000000	0.922501	7.368e+06	-53639.1	955.818	-29746	0.000000	0.000000	6.923114	-0.065130	NaN	0.000000	0.001620	0.001577	28.0798	0.022185	0.002021	10.9756	177.447	-166.865	-0.008650	0.921146	-0.185031	-0.186386	-0.065130	10.9756	-0.180580	-62.422	0.001043	NaN
300	1.000000	0.932508	7.368e+06	-53639.1	955.818	-29746	0.000000	0.000000	6.933127	0.067483	NaN	0.000000	0.001614	0.001603	28.0797	0.106931	0.001935	55.2753	-77.7658	15.6712	0.056344	0.931155	-0.175024	-0.176378	0.067483	55.2753	-0.175940	-52.0135	-0.001297	NaN
300	1.000000	0.942525	7.368e+06	-53639.1	955.818	-29746	0.000000	0.000000	6.943141	0.005651	NaN	0.000000	0.001638	0.001623	28.0797	0.081175	0.002165	37.4932	-178.128	-164.049	-0.003689	0.941148	-0.165007	-0.166385	0.005651	37.4932	-0.165120	-33.7613	-0.000167	NaN
300	1.000000	0.952500	7.368e+06	-53639.1	955.819	-29746	0.000000	0.000000	6.953117	0.031929	NaN	0.000000	0.001614	0.001631	28.0797	0.018229	0.002118	8.604833	70.2023	18.8243	0.108541	0.951137	-0.155033	-0.156395	0.031929	8.604833	-0.157816	-25.0648	-0.001274	NaN
300	1.000000	0.962538	7.368e+06	-53639.1	955.818	-29746	0.000000	0.000000	6.963153	-0.028462	NaN	0.000000	0.001632	0.001636	28.081	0.025643	0.001907	13.4496	42.727	-162.466	0.022812	0.961190	-0.144994	-0.146342	-0.028462	13.4496	-0.143407	-13.6972	0.002078	NaN
300	1.000000	0.972517	7.368e+06	-53639.1	955.817	-29746	0.000000	0.000000	6.973132	-0.035344	NaN	0.000000	0.001650	0.001622	28.081	0.069068	0.002023	34.1415	-179.371	15.2299	-0.036033	0.971176	-0.135015	-0.136356	-0.035344	34.1415	-0.134238	-9.198832	0.003842	NaN
300	1.000000	0.982548	7.368e+06	-53639.1	955.816	-29746	0.000000	0.000000	6.983163	-0.019828	NaN	0.000000	0.001637	0.001632	28.0811	0.032036	0.002023	15.8331	-123.404	-168.801	0.010493	0.981180	-0.124985	-0.126352	-0.019828	15.8331	-0.124045	-5.821963	0.003406	NaN
300	1.000000	0.992529	7.368e+06	-53639.1	955.816	-29746	0.000000	0.000000	6.993145	-0.007875	NaN	0.000000	0.001641	0.001627	28.0809	0.092889	0.001976	47.0198	-162.624	12.7408	-0.082786	0.991177	-0.115003	-0.116355	-0.007875	47.0198	-0.114878	-3.798257	0.002073	NaN
300	1.000000	1.002551	7.368e+06	-53639.1	955.816	-29746	0.000000	0.000000	7.003169	0.048871	NaN	0.000000	0.001609	0.001635	28.0811	0.039122	0.002078	18.8268	61.9638	-167.046	0.068871	1.001201	-0.104981	-0.106332	0.048871	18.8268	-0.106928	-2.586014	-0.018898	NaN
300	1.000000	1.012534	7.368e+06	-53639.1	955.816	-29746	0.000000	0.000000	7.013154	0.104488	NaN	0.000000	0.001625	0.001628	28.081	0.048976	0.001981	24.7234	-44.4632	14.6887	0.122847	1.011192	-0.094999	-0.096340	0.104488	24.7234	-0.098168	-1.663312	-0.062819	NaN
300	1.000000	1.022535	7.368e+06	-53639.1	955.816	-29746	0.000000	0.000000	7.023150	-0.023666	NaN	0.000000	0.001618	0.001616	28.0808	0.062089	0.001993	31.156	15.5198	-165.11	0.056017	1.021237	-0.084997	-0.086295	-0.023666	31.156	-0.084428	-0.795790	0.029740	NaN
300	1.000000	1.032522	7.368e+06	-53639.1	955.817	-29746	0.000000	0.000000	7.033135	-0.068777	NaN	0.000000	0.001662	0.001633	28.0809	0.101271	0.001939	52.2172	22.0836	16.3121	-0.004237	1.031225	-0.075011	-0.076308	-0.068777	52.2172	-0.074023	-0.435668	0.157866	NaN
300	1.000000	1.042559	7.368e+06	-53639.1	955.816	-29746	0.000000	0.000000	7.043176	0.014890	NaN	0.000000	0.001661	0.001656	28.0809	0.117846	0.002117	55.6543	124.276	-164.866	0.035434	1.041257	-0.064973	-0.066275	0.014890	55.6543	-0.065174	-0.251996	-0.059088	NaN
300	1.000000	1.052545	7.368e+06	-53639.1	955.816	-29746	0.000000	0.000000	7.053162	0.033585	NaN	0.000000	0.001653	0.001642	28.0811	0.061183	0.002110	28.9898	-154.635	14.4591	-0.043800	1.051192	-0.054988	-0.056341	0.033585	28.9898	-0.055857	-0.136489	-0.246066	NaN
300	1.000000	1.062537	7.368e+06	-53639.1	955.816	-29746	0.000000	0.000000	7.063153	0.020788	NaN	0.000000	0.001640	0.001657	28.081	0.083652	0.002014	41.5257	122.093	-163.744	0.029510	1.061248	-0.044996	-0.046285	0.020788	41.5257	-0.045371	-0.065970	-0.315114	NaN
300	1.000000	1.072553	7.368e+06	-53639.1	955.815	-29746	0.000000	0.000000	7.073171	0.051068	NaN	0.000000	0.001613	0.001669	28.0811	0.047245	0.001868	25.2875	-96.8911	14.1077	0.017641	1.071185	-0.034980	-0.036347	0.051068	25.2875	-0.036494	-0.035462	-1.440077	NaN
300	1.000000	1.082576	7.368e+06	-53639.1	955.816	-29746	0.000000	0.000000	7.083191	-0.032516	NaN	0.000000	0.001642	0.001646	28.0813	0.083562	0.001983	42.1474	148.828	-166.224	0.038526	1.081272	-0.024956	-0.026261	-0.032516	42.1474	-0.024377	-0.016252	2.000690	NaN
300	1.000000	1.092558	7.368e+06	-53639.1	955.815	-29746	0.000000	0.000000	7.093175	0.027494	NaN	0.000000	0.001647	0.001616	28.081	0.096826	0.002039	47.4903	27.3005	11.5998	0.008848	1.091271	-0.014974	-0.016261	0.027494	47.4903	-0.015408	-0.009521	-2.887627	NaN
300	1.000000	1.102579	7.368e+06	-53639.1	955.816	-29746	0.000000	0.000000	7.103194	-0.021552	NaN	0.000000	0.001607	0.001645	28.08	0.125034	0.001956	63.9126	87.6248	-162.058	0.025582	1.101298	-0.004954	-0.006235	-0.021552	63.9126	-0.004701	-0.003228	6.676906	NaN
300	1.000000	1.112576	7.368e+06	-53639.1	955.816	-29746	0.000000	0.000000	7.113211	0.459618	NaN	0.000000	0.001613	0.001642	28.0798	0.830620	0.001957	424.367	9.888554	13.8006	0.082208	1.111214	0.005044	0.003682	0.459618	424.367	0.004231	0.003443	133.507	6607.96
300	2.000000	1.121999	7.368e+06	-53639.1	955.817	-29746	0.000000	0.000000	7.122986	9.036661	NaN	0.000000	0.001627	0.001655	28.0801	8.962538	0.001702	5267.07	9.469360	-173.704	7.885362	1.121260	0.014466	0.013727	9.036661	5267.07	0.013179	0.012934	698.688	42313.6
300	2.000000	1.124713	7.368e+06	-53639.1	955.816	-29746	0.000000	0.000000	7.125842	12.4722	NaN	0.000000	0.001631	0.001676	28.0801	11.507	0.001703	6756.07	8.987364	5.657866	11.5523	1.124310	0.017181	0.016778	12.4722	6756.07	0.015796	0.016362	762.264	48255.7
300	2.000000	1.127148	7.368e+06	-53639.1	955.816	-29746	0.000000	0.000000	7.128372	14.7919	NaN	0.000000	0.001641	0.001663	28.08	13.8344	0.001606	8615.07	7.246333	-174.595	16.5147	1.126865	0.019616	0.019332	14.7919	8615.07	0.018328	0.019983	740.239	55680.8
300	2.000000	1.129573	7.368e+06	-53639.1	955.817	-29746	0.000000	0.000000	7.131080	21.6583	NaN	0.000000	0.001646	0.001657	28.0804	17.0404	0.001794	9498.09	5.645532	3.946652	19.6388	1.129244	0.022040	0.021712	21.6583	9498.09	0.020330	0.023064	939.054	57140.4
300	2.000000	1.132080	7.368e+06	-53639.1	955.816	-29746	0.000000	0.000000	7.133772	26.1567	NaN	0.000000	0.001600	0.001695	28.0799	19.1774	0.001766	10859.9	6.501599	-177.816	25.2568	1.131790	0.024547	0.024258	26.1567	10859.9	0.022741	0.027034	967.554	60345.4
300	2.000000	1.134599	7.368e+06	-53639.1	955.816	-29746	0.000000	0.000000	7.136276	25.8015	NaN	0.000000	0.001675	0.001639	28.0802	20.8288	0.001837	11337.4	5.215132	3.640573	24.9846	1.134290	0.027066	0.026757	25.8015	11337.4	0.025360	0.031673	814.621	58202.4
300	2.000000	1.137064	7.368e+06	-53639.1	955.817	-29746	0.000000	0.000000	7.139110	34.769	NaN	0.000000	0.001663	0.001672	28.0799	23.004	0.001895	12139.8	5.248980	-176.117	32.7293	1.136709	0.029531	0.029176	34.769	12139.8	0.027383	0.035495	979.553	58870.9
300	2.000000	1.139604	7.368e+06	-53639.1	955.817	-29746	0.000000	0.000000	7.141807	38.5839	NaN	0.000000	0.001627	0.001678	28.0802	25.636	0.001907	13444.7	5.792135	3.555461	40.2043	1.139173	0.032072	0.031641	38.5839	13444.7	0.029920	0.040577	950.874	60979.5
300	2.000000	1.142087	7.368e+06	-53639.1	955.816	-29746	0.000000	0.000000	7.144583	45.7073	NaN	0.000000	0.001677	0.001644	28.0801	28.1914	0.001762	15995.3	6.038682	-179.971	45.4981	1.141790	0.034555	0.034258	45.7073	15995.3	0.032412	0.045891	995.993	68218.2
300	2.000000	1.144570	7.368e+06	-53639.1	955.816	-29746	0.000000	0.000000	7.147426	54.4636	NaN	0.000000	0.001705	0.001686	28.0803	31.0669	0.001831	16963.5	7.187884	-2.010305	51.5901	1.144197	0.037038	0.036664	54.4636	16963.5	0.034630	0.050887	1070.28	68704.2
300	2.000000	1.147058	7.368e+06	-53639.1	955.815	-29746	0.000000	0.000000	7.150198	61.3742	NaN	0.000000	0.001744	0.001660	28.0799	32.7429	0.001692	19356.2	4.375198	178.595	59.8638	1.146756	0.039525	0.039224	61.3742	19356.2	0.037147	0.056864	1079.32	74160.7
300	2.000000	1.149517	7.368e+06	-53639.1	955.816	-29746	0.000000	0.000000	7.152860	66.3041	NaN	0.000000	0.001746	0.001657	28.0809	36.0397	0.001962	18367.8	9.744950	-4.503174	63.2679	1.149255	0.041984	0.041723	66.3041	18367.8	0.039277	0.062173	1066.44	67301.9
300	2.000000	1.152067	7.368e+06	-53639.1	955.815	-29746	0.000000	0.000000	7.155768	74.9994	NaN	0.000000	0.001689	0.001677	28.0813	36.9325	0.001726	21392.2	3.183019	-179.661	75.5454	1.151810	0.044535	0.044278	74.9994	21392.2	0.041906	0.069046	1086.23	74380.7
300	2.000000	1.154574	7.368e+06	-53639.1	955.815	-29746	0.000000	0.000000	7.158746	86.4637	NaN	0.000000	0.001708	0.001673	28.0815	39.5176	0.001828	21618.8	6.072009	-0.622400	87.3845	1.154074	0.047041	0.046542	86.4637	21618.8	0.044042	0.074890	1154.54	72176
300	2.000000	1.156969	7.368e+06	-53639.1	955.815	-29746	0.000000	0.000000	7.161413	93.0693	NaN	0.000000	0.001710	0.001639	28.0814	42.7819	0.001735	24659.3	5.655837	175.53	88.6832	1.156729	0.049437	0.049197	93.0693	24659.3	0.046606	0.082212	1132.07	78575.6
300	2.000000	1.159530	7.368e+06	-53639.1	955.816	-29746	0.000000	0.000000	7.164740	111.684	NaN	0.000000	0.001689	0.001662	28.0815	45.8996	0.001894	24229.5	8.867087	-6.459105	110.381	1.159162	0.051998	0.051630	111.684	24229.5	0.048541	0.087956	1269.76	74642
300	2.000000	1.162042	7.368e+06	-53639.1	955.816	-29746	0.000000	0.000000	7.167648	121.308	NaN	0.000000	0.001732	0.001661	28.0814	46.884	0.001716	27318.8	3.276552	177.866	120.468	1.161797	0.054510	0.054264	121.308	27318.8	0.051180	0.096094	1262.39	80516.7
300	2.000000	1.164578	7.368e+06	-53639.1	955.816	-29746	0.000000	0.000000	7.170666	133.052	NaN	0.000000	0.001729	0.001653	28.0813	48.6166	0.001814	26793.8	4.176424	-1.170222	131.859	1.164130	0.057045	0.056597	133.052	26793.8	0.053321	0.102954	1292.34	76293.3
300	2.000000	1.167000	7.368e+06	-53639.1	955.816	-29746	0.000000	0.000000	7.173564	144.621	NaN	0.000000	0.001731	0.001675	28.0823	52.0043	0.001776	29288.7	5.957962	175.832	143.229	1.166579	0.059467	0.059047	144.621	29288.7	0.055764	0.111058	1302.21	80296.7
300	2.000000	1.169516	7.368e+06	-53639.1	955.815	-29746	0.000000	0.000000	7.176421	152.913	NaN	0.000000	0.001748	0.001637	28.0811	55.0195	0.001869	29432.1	5.788850	-5.386530	151.194	1.169209	0.061983	0.061677	152.913	29432.1	0.058087	0.119037	1284.58	77938.7
300	2.000000	1.172093	7.368e+06	-53639.1	955.816	-29746	0.000000	0.000000	7.179607	167.723	NaN	0.000000	0.001755	0.001649	28.081	57.304	0.001921	29826.7	5.263955	177.035	171.105	1.171672	0.064560	0.064140	167.723	29826.7	0.060343	0.127041	1320.22	76455.1
300	2.000000	1.174531	7.368e+06	-53639.1	955.815	-29746	0.000000	0.000000	7.182565	180.347	NaN	0.000000	0.001760	0.001669	28.0812	59.3862	0.001850	32101	7.335007	-7.268102	178.117	1.174225	0.066999	0.066693	180.347	32101	0.062785	0.135986	1326.22	79532.6
300	2.000000	1.177033	7.368e+06	-53639.1	955.815	-29746	0.000000	0.000000	7.185771	197.467	NaN	0.000000	0.001742	0.001639	28.0815	61.2047	0.001745	35076.1	7.113941	172.485	197.927	1.176679	0.069500	0.069147	197.467	35076.1	0.065278	0.145412	1357.98	84039.7
300	2.000000	1.179453	7.368e+06	-53639.1	955.815	-29746	0.000000	0.000000	7.188909	214.923	NaN	0.000000	0.001725	0.001645	28.0813	63.6503	0.001850	34410	6.327419	-6.601526	209.579	1.179085	0.071920	0.071552	214.923	34410	0.067236	0.153025	1404.49	80366.8
300	2.000000	1.182031	7.368e+06	-53639.1	955.816	-29746	0.000000	0.000000	7.191836	223.411	NaN	0.000000	0.001747	0.001637	28.0811	65.8094	0.001651	39857.9	3.708123	175.002	225.656	1.181730	0.074498	0.074198	223.411	39857.9	0.070295	0.165288	1351.65	89570.9
300	2.000000	1.184449	7.368e+06	-53639.1	955.815	-29746	0.000000	0.000000	7.194861	238.162	NaN	0.000000	0.001712	0.001677	28.0801	68.1775	0.001779	38313.2	7.085881	-7.953934	231.663	1.184103	0.076917	0.076570	238.162	38313.2	0.072255	0.173380	1373.64	84066.2
300	2.000000	1.186946	7.368e+06	-53639.1	955.815	-29746	0.000000	0.000000	7.198198	258.584	NaN	0.000000	0.001698	0.001624	28.0801	70.4217	0.001776	39662.5	7.922574	170.361	253.822	1.186627	0.079413	0.079095	258.584	39662.5	0.074524	0.182975	1413.22	84714.4
300	2.000000	1.189439	7.368e+06	-53639.1	955.815	-29746	0.000000	0.000000	7.200968	265.325	NaN	0.000000	0.001721	0.001673	28.08	73.3469	0.001820	40290.7	4.602051	-5.957501	260.805	1.189114	0.081907	0.081582	265.325	40290.7	0.076968	0.193582	1370.61	83665.4
300	2.000000	1.191947	7.368e+06	-53639.1	955.814	-29746	0.000000	0.000000	7.204278	284.821	NaN	0.000000	0.001711	0.001658	28.0802	76.8746	0.001805	42588.7	5.492104	172.292	283.11	1.191761	0.084414	0.084229	284.821	42588.7	0.079398	0.204407	1393.41	86063.7
300	2.000000	1.194413	7.368e+06	-53639.1	955.816	-29746	0.000000	0.000000	7.207664	307.189	NaN	0.000000	0.001683	0.001633	28.0803	77.7633	0.001764	44094.1	1.856755	-3.663223	300.231	1.193995	0.086881	0.086462	307.189	44094.1	0.081656	0.214706	1430.74	86942.4
300	2.000000	1.196923	7.368e+06	-53639.1	955.814	-29746	0.000000	0.000000	7.210732	320.747	NaN	0.000000	0.001624	0.001649	28.08	80.9226	0.001780	45464.9	6.789183	170.56	316.326	1.196506	0.089391	0.088974	320.747	45464.9	0.084100	0.226127	1418.44	87352.1
300	2.000000	1.199345	7.368e+06	-53639.1	955.815	-29746	0.000000	0.000000	7.213847	337.595	NaN	0.000000	0.001602	0.001656	28.0799	83.2014	0.001765	47146.5	2.865553	-5.854989	329.746	1.199135	0.091813	0.091603	337.595	47146.5	0.086442	0.237329	1422.47	88419.2
300	2.000000	1.202077	7.368e+06	-53639.1	955.815	-29746	0.000000	0.000000	7.217024	348.422	NaN	0.000000	0.001603	0.001670	28.0798	86.8859	0.001863	46643.2	3.855529	173.083	350.522	1.201744	0.094545	0.094212	348.422	46643.2	0.088942	0.249565	1396.12	85304.1
300	2.000000	1.204496	7.368e+06	-53639.1	955.816	-29746	0.000000	0.000000	7.220356	370.624	NaN	0.000000	0.001669	0.001642	28.0801	88.0316	0.001905	46215	4.875462	-7.212812	366.575	1.204079	0.096964	0.096546	370.624	46215	0.090949	0.259595	1427.7	82872
300	2.000000	1.206896	7.368e+06	-53639.1	955.816	-29746	0.000000	0.000000	7.223585	390.787	NaN	0.000000	0.001635	0.001693	28.0799	89.6515	0.001902	47133.7	5.444406	172.28	387.962	1.206614	0.099363	0.099082	390.787	47133.7	0.093145	0.270783	1443.18	82755
300	2.000000	1.209455	7.368e+06	-53639.1	955.815	-29746	0.000000	0.000000	7.227107	414.183	NaN	0.000000	0.001576	0.001735	28.08	92.2668	0.001693	54501.3	5.289198	-8.908882	408.977	1.208954	0.101923	0.101422	414.183	54501.3	0.096223	0.286833	1443.99	92974.8
300	2.000000	1.211961	7.368e+06	-53639.1	955.815	-29746	0.000000	0.000000	7.230243	429.49	NaN	0.000000	0.001643	0.001689	28.08	95.5269	0.001886	50644.3	2.502031	174.145	429.247	1.211756	0.104429	0.104223	429.49	50644.3	0.098069	0.296665	1447.73	84951.4
300	2.000000	1.214539	7.368e+06	-53639.1	955.815	-29746	0.000000	0.000000	7.233994	458.007	NaN	0.000000	0.001652	0.001713	28.0801	97.24	0.001822	53384.3	4.863212	-7.881776	457.478	1.214061	0.107007	0.106528	458.007	53384.3	0.100572	0.310249	1476.26	87565.1
300	2.000000	1.216929	7.368e+06	-53639.1	955.815	-29746	0.000000	0.000000	7.237142	476.444	NaN	0.000000	0.001641	0.001701	28.0798	99.0586	0.001781	55610.8	5.393816	170.9	474.344	1.216611	0.109397	0.109079	476.444	55610.8	0.102971	0.323534	1472.62	89324.9
300	2.000000	1.219422	7.368e+06	-53639.1	955.815	-29746	0.000000	0.000000	7.240413	495.372	NaN	0.000000	0.001613	0.001703	28.0811	100.843	0.001841	54785	2.502239	-5.981424	491.348	1.219211	0.111890	0.111678	495.372	54785	0.105108	0.335586	1476.14	86403.9
300	2.000000	1.220468	7.368e+06	-53639.1	955.815	-29746	0.000000	0.000000	7.241779	503.146	NaN	0.000000	0.001691	0.001732	28.0811	101.098	0.001777	56877.7	1.991168	-5.918044	500.563	1.220104	0.112935	0.112571	503.146	56877.7	0.106301	0.342402	1469.46	88807.1