File: remote_trans/data/nanoindenter/0828-1/data/Data_2025-08-06,11h17m57s/2025-07-22_16-23-58_1_1155.txt
2025-07-22, 16:23:58, 1
Index	Phase	Displacement	Time	Pos X	Pos Y	Pos Z	Rot A	Rot B	Piezo Z	Force A	Force B	Gripper	Voltage A	Voltage B	Temperature	Amplitude force	Amplitude pos	Stiffness	Phase shift	Phase excitation	Force A raw	Displacement raw	HMax	HMax raw	Real Force	Real Stiffness	Contact Depth	Area	Hardness	Reduced Mod.
[#]	[#]	[um]	[s]	[um]	[um]	[um]	[m°]	[m°]	[um]	[uN]	[uN]	[V]	[V]	[V]	[°C]	[uN]	[um]	[N/m]	[°]	[°]	[uN]	[um]	[um]	[um]	[uN]	[N/m]	[um]	[um^2]	[MPa]	[MPa]
1155	1.000000	0.002419	7.37635e+06	-57839.1	1105.82	-29740.2	0.000000	0.000000	6.003079	0.813501	NaN	0.000000	0.001551	0.001708	28.0804	0.328843	0.001013	324.512	11.5528	-163.687	0.329915	0.001228	6.748220	6.747029	0.813501	324.512	6.746340	1170.81	0.000695	8.664842
1155	1.000000	0.008387	7.37635e+06	-57839.1	1105.82	-29740.2	0.000000	0.000000	6.009099	2.085778	NaN	0.000000	0.001635	0.001714	28.08	0.472719	0.001041	454.064	29.3386	-0.391319	1.891795	0.007047	6.754187	6.752848	2.085778	454.064	6.750742	1172.34	0.001779	12.1161
1155	1.000000	0.014460	7.37635e+06	-57839.1	1105.82	-29740.2	0.000000	0.000000	6.015190	2.500150	NaN	0.000000	0.001616	0.001765	28.0803	0.570721	0.001571	363.264	7.947264	-168.039	2.590047	0.013281	6.760261	6.759082	2.500150	363.264	6.755099	1173.85	0.002130	9.686986
1155	1.000000	0.020369	7.37635e+06	-57839.1	1105.82	-29740.2	0.000000	0.000000	6.021104	2.616069	NaN	0.000000	0.001635	0.001726	28.08	0.843698	0.001627	518.661	13.4428	15.0656	2.476633	0.019037	6.766170	6.764838	2.616069	518.661	6.762387	1176.38	0.002224	13.816
1155	1.000000	0.026445	7.37635e+06	-57839.1	1105.82	-29740.2	0.000000	0.000000	6.027188	2.831544	NaN	0.000000	0.001624	0.001735	28.0803	0.683249	0.001752	390.017	8.281401	-162.93	2.792888	0.025030	6.772245	6.770831	2.831544	390.017	6.766800	1177.92	0.002404	10.3824
1155	1.000000	0.032362	7.37635e+06	-57839.1	1105.82	-29740.2	0.000000	0.000000	6.033120	3.175543	NaN	0.000000	0.001630	0.001684	28.0802	0.793786	0.001870	424.441	10.8745	13.4508	3.034870	0.031004	6.778163	6.776805	3.175543	424.441	6.772551	1179.92	0.002691	11.2892
1155	1.000000	0.038388	7.37635e+06	-57839.1	1105.82	-29740.2	0.000000	0.000000	6.039156	3.421455	NaN	0.000000	0.001599	0.001734	28.0802	0.844804	0.001936	436.468	8.629034	-164.363	3.344717	0.037048	6.784189	6.782849	3.421455	436.468	6.778310	1181.93	0.002895	11.5992
1155	1.000000	0.044378	7.37635e+06	-57839.1	1105.82	-29740.2	0.000000	0.000000	6.045152	3.591649	NaN	0.000000	0.001634	0.001701	28.08	0.863853	0.002016	428.591	3.912750	13.3994	3.623885	0.043024	6.790178	6.788825	3.591649	428.591	6.783893	1183.88	0.003034	11.3805
1155	1.000000	0.050352	7.37635e+06	-57839.1	1105.82	-29740.2	0.000000	0.000000	6.051134	3.774283	NaN	0.000000	0.001620	0.001680	28.0801	0.848393	0.001984	427.643	7.764737	-162.145	3.798888	0.049037	6.796152	6.794838	3.774283	427.643	6.789533	1185.85	0.003183	11.3459
1155	1.000000	0.056361	7.37635e+06	-57839.1	1105.82	-29740.2	0.000000	0.000000	6.057158	4.116575	NaN	0.000000	0.001645	0.001722	28.0806	0.794592	0.001980	401.408	6.747001	14.9685	3.998838	0.054948	6.802162	6.800749	4.116575	401.408	6.794470	1187.57	0.003466	10.6421
1155	1.000000	0.062380	7.37635e+06	-57839.1	1105.82	-29740.2	0.000000	0.000000	6.063183	4.280140	NaN	0.000000	0.001645	0.001715	28.08	0.858199	0.001939	442.522	-1.617125	-163.623	4.257918	0.061073	6.808181	6.806874	4.280140	442.522	6.800927	1189.83	0.003597	11.721
1155	1.000000	0.068380	7.37635e+06	-57839.1	1105.82	-29740.2	0.000000	0.000000	6.069193	4.505055	NaN	0.000000	0.001657	0.001706	28.0802	0.961331	0.001955	491.607	11.3373	15.2234	4.531541	0.067010	6.814181	6.812811	4.505055	491.607	6.807308	1192.07	0.003779	13.0089
1155	1.000000	0.074379	7.37635e+06	-57839.1	1105.82	-29740.2	0.000000	0.000000	6.075198	4.657906	NaN	0.000000	0.001627	0.001696	28.0801	0.885635	0.002075	426.829	4.133787	-167.47	4.618006	0.073132	6.820180	6.818932	4.657906	426.829	6.811995	1193.71	0.003902	11.287
1155	1.000000	0.080377	7.37635e+06	-57839.1	1105.82	-29740.2	0.000000	0.000000	6.081207	4.940244	NaN	0.000000	0.001611	0.001699	28.0799	0.861879	0.002063	417.873	8.937233	13.0488	4.851822	0.079003	6.826178	6.824804	4.940244	417.873	6.817311	1195.57	0.004132	11.0415
1155	1.000000	0.086388	7.37635e+06	-57839.1	1105.82	-29740.2	0.000000	0.000000	6.087214	4.832446	NaN	0.000000	0.001637	0.001710	28.0799	0.875957	0.002051	427.127	9.062923	-165.897	4.888922	0.085095	6.832188	6.830896	4.832446	427.127	6.823703	1197.81	0.004034	11.2755
1155	1.000000	0.092367	7.37635e+06	-57839.1	1105.82	-29740.2	0.000000	0.000000	6.093181	4.538971	NaN	0.000000	0.001654	0.001691	28.0799	0.980254	0.002002	489.55	8.526108	12.7378	4.562575	0.091019	6.838167	6.836820	4.538971	489.55	6.831214	1200.45	0.003781	12.9092
1155	1.000000	0.098373	7.37635e+06	-57839.1	1105.82	-29740.2	0.000000	0.000000	6.099180	4.365822	NaN	0.000000	0.001649	0.001713	28.08	0.857404	0.001919	446.9	10.8167	-164.866	4.372787	0.097054	6.844174	6.842855	4.365822	446.9	6.836847	1202.43	0.003631	11.7748
1155	1.000000	0.104383	7.37635e+06	-57839.1	1105.82	-29740.2	0.000000	0.000000	6.105180	4.121748	NaN	0.000000	0.001654	0.001736	28.08	0.899122	0.002074	433.588	3.230153	16.0657	4.172101	0.103030	6.850184	6.848831	4.121748	433.588	6.843054	1204.62	0.003422	11.4137
1155	1.000000	0.110375	7.37635e+06	-57839.1	1105.82	-29740.2	0.000000	0.000000	6.111171	4.105946	NaN	0.000000	0.001668	0.001732	28.0802	0.929703	0.002105	441.737	10.1412	-166.617	4.128554	0.109043	6.856176	6.854844	4.105946	441.737	6.849205	1206.78	0.003402	11.6178
1155	1.000000	0.116413	7.37635e+06	-57839.1	1105.82	-29740.2	0.000000	0.000000	6.117204	3.988779	NaN	0.000000	0.001656	0.001709	28.0801	0.847931	0.001995	425.114	5.720053	16.4625	4.065034	0.115065	6.862214	6.860865	3.988779	425.114	6.855176	1208.89	0.003300	11.1708
1155	1.000000	0.122411	7.37635e+06	-57839.1	1105.82	-29740.2	0.000000	0.000000	6.123206	4.098773	NaN	0.000000	0.001614	0.001721	28.0806	1.027405	0.001970	521.517	10.0503	-165.861	4.139104	0.121166	6.868211	6.866966	4.098773	521.517	6.862317	1211.41	0.003383	13.6898
1155	1.000000	0.128388	7.37635e+06	-57839.1	1105.82	-29740.2	0.000000	0.000000	6.129178	3.949076	NaN	0.000000	0.001603	0.001710	28.081	0.856794	0.001923	445.522	12.7379	12.1407	3.974614	0.127051	6.874189	6.872852	3.949076	445.522	6.867541	1213.25	0.003255	11.686
1155	1.000000	0.134409	7.37635e+06	-57839.1	1105.82	-29740.2	0.000000	0.000000	6.135195	3.876334	NaN	0.000000	0.001618	0.001707	28.0818	0.862678	0.001942	444.142	4.482485	-164.193	3.875355	0.133099	6.880209	6.878900	3.876334	444.142	6.873664	1215.42	0.003189	11.6394
1155	1.000000	0.140422	7.37635e+06	-57839.1	1105.82	-29740.2	0.000000	0.000000	6.141214	4.003462	NaN	0.000000	0.001594	0.001731	28.0814	0.766970	0.001811	423.528	-1.271467	17.6848	3.981243	0.139010	6.886222	6.884811	4.003462	423.528	6.879133	1217.35	0.003289	11.0904
1155	1.000000	0.146414	7.37635e+06	-57839.1	1105.82	-29740.2	0.000000	0.000000	6.147202	3.896486	NaN	0.000000	0.001624	0.001686	28.0812	1.006464	0.002249	447.552	10.9107	-164.193	3.947264	0.145112	6.892215	6.890913	3.896486	447.552	6.885685	1219.67	0.003195	11.7083
1155	1.000000	0.152403	7.37635e+06	-57839.1	1105.82	-29740.2	0.000000	0.000000	6.153196	4.018661	NaN	0.000000	0.001643	0.001706	28.0813	0.892434	0.002081	428.925	7.425296	13.8682	4.026852	0.151084	6.898204	6.896884	4.018661	428.925	6.891177	1221.62	0.003290	11.2121
1155	1.000000	0.158398	7.37635e+06	-57839.1	1105.82	-29740.2	0.000000	0.000000	6.159193	4.104600	NaN	0.000000	0.001640	0.001702	28.081	1.049287	0.002005	523.272	10.8272	-164.441	4.090100	0.157074	6.904198	6.902875	4.104600	523.272	6.898315	1224.15	0.003353	13.6642
1155	1.000000	0.164406	7.37635e+06	-57839.1	1105.82	-29740.2	0.000000	0.000000	6.165194	3.910845	NaN	0.000000	0.001625	0.001724	28.0812	0.982484	0.001935	507.613	12.137	13.5013	4.063630	0.163007	6.910206	6.908807	3.910845	507.613	6.904428	1226.32	0.003189	13.2435
1155	1.000000	0.170428	7.37635e+06	-57839.1	1105.82	-29740.2	0.000000	0.000000	6.171204	3.626512	NaN	0.000000	0.001631	0.001766	28.0812	0.968102	0.002027	477.603	1.415977	-164.063	3.664571	0.169162	6.916229	6.914963	3.626512	477.603	6.910534	1228.49	0.002952	12.4496
1155	1.000000	0.176414	7.37635e+06	-57839.1	1105.82	-29740.2	0.000000	0.000000	6.177192	3.677584	NaN	0.000000	0.001630	0.001756	28.0813	0.962127	0.002085	461.502	12.7479	12.2401	3.662986	0.175058	6.922215	6.920859	3.677584	461.502	6.916238	1230.52	0.002989	12.0199
1155	1.000000	0.182442	7.37635e+06	-57839.1	1105.82	-29740.2	0.000000	0.000000	6.183212	3.486185	NaN	0.000000	0.001600	0.001711	28.0811	0.992712	0.001916	518.04	2.964382	-164.547	3.543814	0.181130	6.928243	6.926930	3.486185	518.04	6.923195	1233	0.002827	13.4789
1155	1.000000	0.188433	7.37635e+06	-57839.1	1105.82	-29740.2	0.000000	0.000000	6.189204	3.484428	NaN	0.000000	0.001648	0.001708	28.081	0.992727	0.002108	470.843	12.8796	11.8751	3.535838	0.187068	6.934234	6.932869	3.484428	470.843	6.928684	1234.95	0.002822	12.2412
1155	1.000000	0.194455	7.37635e+06	-57839.1	1105.82	-29740.2	0.000000	0.000000	6.195219	3.331211	NaN	0.000000	0.001614	0.001725	28.0813	1.039074	0.001991	521.88	10.9336	-167.853	3.319792	0.193153	6.940255	6.938953	3.331211	521.88	6.935468	1237.37	0.002692	13.5548
1155	1.000000	0.200442	7.37635e+06	-57839.1	1105.82	-29740.2	0.000000	0.000000	6.201207	3.335718	NaN	0.000000	0.001615	0.001711	28.0812	0.999894	0.002029	492.681	7.492271	13.9967	3.278127	0.199074	6.946243	6.944875	3.335718	492.681	6.941165	1239.41	0.002691	12.7859
1155	1.000000	0.206441	7.37635e+06	-57839.1	1105.82	-29740.2	0.000000	0.000000	6.207200	3.204608	NaN	0.000000	0.001644	0.001721	28.0813	0.971022	0.002056	472.22	14.2477	-166.591	3.289554	0.205101	6.952242	6.950901	3.204608	472.22	6.947152	1241.55	0.002581	12.2443
1155	1.000000	0.212430	7.37635e+06	-57839.1	1105.82	-29740.2	0.000000	0.000000	6.213178	2.930771	NaN	0.000000	0.001626	0.001727	28.0812	0.929225	0.001973	471.009	11.8253	13.6684	2.915337	0.211061	6.958231	6.956862	2.930771	471.009	6.953564	1243.84	0.002356	12.2017
1155	1.000000	0.218433	7.37635e+06	-57839.1	1105.82	-29740.2	0.000000	0.000000	6.219173	2.747794	NaN	0.000000	0.001615	0.001691	28.0813	0.929447	0.001948	477.085	10.6156	-164.081	2.783177	0.217144	6.964234	6.962945	2.747794	477.085	6.959914	1246.11	0.002205	12.3478
1155	1.000000	0.224428	7.37635e+06	-57839.1	1105.82	-29740.2	0.000000	0.000000	6.225183	3.120106	NaN	0.000000	0.001583	0.001676	28.081	0.934608	0.001965	475.704	4.757933	16.3868	3.060702	0.223095	6.970229	6.968895	3.120106	475.704	6.965309	1248.04	0.002500	12.3025
1155	1.000000	0.230466	7.37635e+06	-57839.1	1105.82	-29740.2	0.000000	0.000000	6.231219	3.078777	NaN	0.000000	0.001604	0.001689	28.0811	0.921719	0.001900	485	5.879367	-165.147	3.070577	0.229129	6.976266	6.974929	3.078777	485	6.971505	1250.27	0.002462	12.5318
1155	1.000000	0.236425	7.37635e+06	-57839.1	1105.82	-29740.2	0.000000	0.000000	6.237182	3.162606	NaN	0.000000	0.001602	0.001726	28.081	1.017664	0.001822	558.585	8.621027	13.0725	3.205089	0.235001	6.982226	6.980801	3.162606	558.585	6.977980	1252.59	0.002525	14.4198
1155	1.000000	0.242451	7.37635e+06	-57839.1	1105.82	-29740.2	0.000000	0.000000	6.243216	3.366885	NaN	0.000000	0.001597	0.001731	28.0809	0.901971	0.002078	434.106	7.130911	-161.784	3.346013	0.241172	6.988251	6.986973	3.366885	434.106	6.982434	1254.19	0.002685	11.1992
1155	1.000000	0.248408	7.37635e+06	-57839.1	1105.82	-29740.2	0.000000	0.000000	6.249180	3.537233	NaN	0.000000	0.001593	0.001702	28.081	0.970431	0.002068	469.242	4.568627	16.0975	3.424343	0.247115	6.994208	6.992916	3.537233	469.242	6.988555	1256.39	0.002815	12.0951
1155	1.000000	0.254468	7.37635e+06	-57839.1	1105.82	-29740.2	0.000000	0.000000	6.255249	3.743052	NaN	0.000000	0.001601	0.001724	28.0812	0.914229	0.002015	453.609	6.585097	-165.237	3.702914	0.253125	7.000269	6.998925	3.743052	453.609	6.994080	1258.38	0.002975	11.6829
1155	1.000000	0.260424	7.37635e+06	-57839.1	1105.82	-29740.2	0.000000	0.000000	6.261202	3.686265	NaN	0.000000	0.001577	0.001727	28.0802	0.969927	0.002107	460.326	8.977184	15.5156	3.641775	0.259082	7.006224	7.004883	3.686265	460.326	7.000218	1260.59	0.002924	11.8455
1155	1.000000	0.266423	7.37635e+06	-57839.1	1105.82	-29740.2	0.000000	0.000000	6.267176	3.056874	NaN	0.000000	0.001606	0.001705	28.0798	0.818985	0.001957	418.405	20.3317	-168.728	3.166073	0.265147	7.012224	7.010948	3.056874	418.405	7.006744	1262.94	0.002420	10.7567
1155	1.000000	0.272458	7.37635e+06	-57839.1	1105.82	-29740.2	0.000000	0.000000	6.273202	2.854608	NaN	0.000000	0.001594	0.001725	28.0798	0.971990	0.001892	513.84	5.437653	16.3032	2.817399	0.271067	7.018258	7.016867	2.854608	513.84	7.014092	1265.59	0.002256	13.1964
1155	1.000000	0.278497	7.37635e+06	-57839.1	1105.82	-29740.2	0.000000	0.000000	6.279229	2.558870	NaN	0.000000	0.001581	0.001724	28.0799	0.928461	0.002015	460.684	11.0943	-163.139	2.612089	0.277182	7.024298	7.022983	2.558870	460.684	7.020132	1267.77	0.002018	11.8211
1155	1.000000	0.284448	7.37635e+06	-57839.1	1105.82	-29740.2	0.000000	0.000000	6.285182	2.614521	NaN	0.000000	0.001592	0.001687	28.08	0.998512	0.002009	496.965	12.7045	11.6401	2.692082	0.283066	7.030248	7.028866	2.614521	496.965	7.026303	1270	0.002059	12.7408
1155	1.000000	0.290469	7.37635e+06	-57839.1	1105.82	-29740.2	0.000000	0.000000	6.291218	2.947251	NaN	0.000000	0.001605	0.001684	28.08	1.056111	0.002206	478.752	10.4488	-164.725	2.870112	0.289103	7.036270	7.034904	2.947251	478.752	7.031653	1271.93	0.002317	12.2646
1155	1.000000	0.296463	7.37635e+06	-57839.1	1105.82	-29740.2	0.000000	0.000000	6.297217	3.105519	NaN	0.000000	0.001582	0.001684	28.08	0.982364	0.002013	487.91	7.207266	13.8957	2.990101	0.295117	7.042263	7.040918	3.105519	487.91	7.037489	1274.05	0.002438	12.4888
1155	1.000000	0.302449	7.37635e+06	-57839.1	1105.82	-29740.2	0.000000	0.000000	6.303214	3.375008	NaN	0.000000	0.001598	0.001711	28.0802	0.938586	0.002059	455.738	10.7697	-166.784	3.304154	0.301170	7.048249	7.046971	3.375008	455.738	7.042695	1275.93	0.002645	11.6567
1155	1.000000	0.308510	7.37635e+06	-57839.1	1105.82	-29740.2	0.000000	0.000000	6.309283	3.533007	NaN	0.000000	0.001609	0.001740	28.0801	1.074647	0.002005	535.986	8.217790	12.2586	3.527672	0.307131	7.054311	7.052932	3.533007	535.986	7.049367	1278.35	0.002764	13.6963
1155	1.000000	0.314478	7.37635e+06	-57839.1	1105.82	-29740.2	0.000000	0.000000	6.315264	3.864421	NaN	0.000000	0.001605	0.001754	28.0799	1.133255	0.002182	519.416	9.314910	-164.065	3.769864	0.313177	7.060278	7.058977	3.864421	519.416	7.054698	1280.28	0.003018	13.2628
1155	1.000000	0.320472	7.37635e+06	-57839.1	1105.82	-29740.2	0.000000	0.000000	6.321268	4.112443	NaN	0.000000	0.001610	0.001731	28.0799	0.999581	0.002050	487.607	8.506283	15.6497	4.000699	0.319105	7.066273	7.064905	4.112443	487.607	7.059947	1282.19	0.003207	12.4413
1155	1.000000	0.326476	7.37635e+06	-57839.1	1105.82	-29740.2	0.000000	0.000000	6.327287	4.472398	NaN	0.000000	0.001604	0.001678	28.0798	1.047343	0.001959	534.678	8.497899	-162.86	4.434216	0.325149	7.072276	7.070949	4.472398	534.678	7.066003	1284.39	0.003482	13.6307
1155	1.000000	0.332480	7.37635e+06	-57839.1	1105.82	-29740.2	0.000000	0.000000	6.333299	4.665579	NaN	0.000000	0.001580	0.001686	28.0801	1.026305	0.002080	493.394	13.0939	15.2569	4.571729	0.331176	7.078281	7.076976	4.665579	493.394	7.071189	1286.28	0.003627	12.569
1155	1.000000	0.338509	7.37635e+06	-57839.1	1105.82	-29740.2	0.000000	0.000000	6.339340	4.958189	NaN	0.000000	0.001579	0.001710	28.08	1.083842	0.002028	534.524	12.0671	-167.574	4.951881	0.337205	7.084310	7.083005	4.958189	534.524	7.077353	1288.52	0.003848	13.6049
1155	1.000000	0.344489	7.37635e+06	-57839.1	1105.82	-29740.2	0.000000	0.000000	6.345332	5.257721	NaN	0.000000	0.001572	0.001736	28.08	0.989379	0.002071	477.826	15.9895	13.5391	5.129649	0.343124	7.090290	7.088924	5.257721	477.826	7.082037	1290.23	0.004075	12.1538
1155	1.000000	0.350479	7.37635e+06	-57839.1	1105.82	-29740.2	0.000000	0.000000	6.351333	5.518908	NaN	0.000000	0.001590	0.001744	28.08	1.049095	0.002087	502.739	9.905677	-167.386	5.410768	0.349230	7.096280	7.095031	5.518908	502.739	7.088046	1292.42	0.004270	12.7766
1155	1.000000	0.356480	7.37635e+06	-57839.1	1105.82	-29740.2	0.000000	0.000000	6.357349	5.899211	NaN	0.000000	0.001590	0.001701	28.08	0.951617	0.002032	468.356	2.289191	16.6547	5.812879	0.355138	7.102280	7.100939	5.899211	468.356	7.092834	1294.16	0.004558	11.8947
1155	1.000000	0.362497	7.37635e+06	-57839.1	1105.82	-29740.2	0.000000	0.000000	6.363378	6.168038	NaN	0.000000	0.001556	0.001714	28.0799	1.000425	0.001925	519.641	7.828280	-167.214	6.120908	0.361162	7.108297	7.106963	6.168038	519.641	7.099395	1296.56	0.004757	13.185
1155	1.000000	0.368502	7.37635e+06	-57839.1	1105.82	-29740.2	0.000000	0.000000	6.369397	6.503004	NaN	0.000000	0.001621	0.001718	28.0801	1.166091	0.002013	579.276	9.372681	12.4274	6.515238	0.367111	7.114303	7.112912	6.503004	579.276	7.105883	1298.93	0.005006	14.6847
1155	1.000000	0.374494	7.37635e+06	-57839.1	1105.82	-29740.2	0.000000	0.000000	6.375400	6.779893	NaN	0.000000	0.001597	0.001719	28.0799	1.002940	0.002009	499.278	8.692782	-166.772	6.727544	0.373158	7.120295	7.118959	6.779893	499.278	7.110110	1300.47	0.005213	12.6492
1155	1.000000	0.380500	7.37635e+06	-57839.1	1105.82	-29740.2	0.000000	0.000000	6.381413	6.948665	NaN	0.000000	0.001665	0.001758	28.08	1.119368	0.001899	589.371	9.069639	15.8282	6.886650	0.379191	7.126301	7.124991	6.948665	589.371	7.117458	1303.16	0.005332	14.9164
1155	1.000000	0.386515	7.37635e+06	-57839.1	1105.82	-29740.2	0.000000	0.000000	6.387436	7.137777	NaN	0.000000	0.001671	0.001731	28.0805	1.095126	0.002081	526.168	4.206557	-163.802	7.088285	0.385201	7.132316	7.131001	7.137777	526.168	7.122141	1304.88	0.005470	13.308
1155	1.000000	0.392487	7.37635e+06	-57839.1	1105.82	-29740.2	0.000000	0.000000	6.393408	7.140540	NaN	0.000000	0.001686	0.001704	28.0796	1.082746	0.001941	557.957	13.1378	16.6	7.114519	0.391169	7.138287	7.136969	7.140540	557.957	7.128689	1307.28	0.005462	14.0991
1155	1.000000	0.398532	7.37635e+06	-57839.1	1105.82	-29740.2	0.000000	0.000000	6.399448	7.042276	NaN	0.000000	0.001645	0.001695	28.0813	1.238647	0.002095	591.329	11.1898	-168.148	7.043515	0.397241	7.144332	7.143042	7.042276	591.329	7.135400	1309.74	0.005377	14.9283
1155	1.000000	0.404496	7.37635e+06	-57839.1	1105.82	-29740.2	0.000000	0.000000	6.405414	7.063137	NaN	0.000000	0.001685	0.001707	28.0812	1.159150	0.002062	562.233	7.954505	12.066	7.038134	0.403160	7.150297	7.148960	7.063137	562.233	7.140875	1311.75	0.005385	14.1828
1155	1.000000	0.410524	7.37635e+06	-57839.1	1105.82	-29740.2	0.000000	0.000000	6.411452	7.309051	NaN	0.000000	0.001670	0.001714	28.0811	1.100664	0.002107	522.387	9.494979	-164.015	7.248270	0.409202	7.156325	7.155003	7.309051	522.387	7.145831	1313.57	0.005564	13.1686
1155	1.000000	0.416526	7.37635e+06	-57839.1	1105.82	-29740.2	0.000000	0.000000	6.417466	7.601439	NaN	0.000000	0.001680	0.001721	28.0808	1.093140	0.001979	552.254	7.856700	16.5023	7.607353	0.415201	7.162327	7.161002	7.601439	552.254	7.152003	1315.84	0.005777	13.9094
1155	1.000000	0.422535	7.37635e+06	-57839.1	1105.82	-29740.2	0.000000	0.000000	6.423481	7.744283	NaN	0.000000	0.001680	0.001750	28.0808	1.107132	0.001853	597.462	8.608603	-167.539	7.713388	0.421206	7.168336	7.167007	7.744283	597.462	7.158614	1318.28	0.005875	15.0342
1155	1.000000	0.428515	7.37635e+06	-57839.1	1105.82	-29740.2	0.000000	0.000000	6.429478	8.186832	NaN	0.000000	0.001698	0.001740	28.081	1.190092	0.001946	611.421	3.654034	16.9505	7.941252	0.427167	7.174315	7.172968	8.186832	611.421	7.164273	1320.36	0.006200	15.3733
1155	1.000000	0.434557	7.37635e+06	-57839.1	1105.82	-29740.2	0.000000	0.000000	6.435529	8.392962	NaN	0.000000	0.001700	0.001688	28.081	1.092802	0.002077	526.078	8.324845	-166.433	8.322892	0.433229	7.180358	7.179030	8.392962	526.078	7.168392	1321.88	0.006349	13.2199
1155	1.000000	0.440506	7.37635e+06	-57839.1	1105.82	-29740.2	0.000000	0.000000	6.441492	8.732062	NaN	0.000000	0.001692	0.001708	28.0811	1.112434	0.002037	546.074	14.0177	13.7253	8.551007	0.439164	7.186307	7.184965	8.732062	546.074	7.174314	1324.07	0.006595	13.711
1155	1.000000	0.446529	7.37635e+06	-57839.1	1105.82	-29740.2	0.000000	0.000000	6.447529	9.067344	NaN	0.000000	0.001693	0.001758	28.0811	1.043670	0.001903	548.405	5.779543	-163.356	9.080025	0.445204	7.192330	7.191004	9.067344	548.405	7.179929	1326.14	0.006837	13.7588
1155	1.000000	0.452559	7.37635e+06	-57839.1	1105.82	-29740.2	0.000000	0.000000	6.453573	9.406033	NaN	0.000000	0.001707	0.001744	28.081	1.070348	0.001956	547.084	6.475381	18.6337	9.446352	0.451212	7.198359	7.197012	9.406033	547.084	7.185464	1328.19	0.007082	13.7151
1155	2.000000	0.456248	7.37635e+06	-57839.1	1105.82	-29740.2	0.000000	0.000000	6.457238	8.828740	NaN	0.000000	0.001693	0.001731	28.081	1.128961	0.001900	594.161	3.093233	-164.286	9.117141	0.455900	7.202049	7.201701	8.828740	594.161	7.190905	1330.2	0.006637	14.884
1155	2.000000	0.457675	7.37635e+06	-57839.1	1105.82	-29740.2	0.000000	0.000000	6.458651	8.494015	NaN	0.000000	0.001733	0.001674	28.0813	1.130483	0.001938	583.195	0.734364	13.0809	8.546081	0.457344	7.203475	7.203144	8.494015	583.195	7.192552	1330.81	0.006383	14.6059
1155	2.000000	0.459166	7.37636e+06	-57839.1	1105.82	-29740.2	0.000000	0.000000	6.460145	8.562031	NaN	0.000000	0.001737	0.001694	28.081	1.208855	0.001996	605.78	6.584592	-164.564	8.559891	0.458821	7.204967	7.204622	8.562031	605.78	7.194366	1331.48	0.006430	15.1677
1155	2.000000	0.460649	7.37636e+06	-57839.1	1105.82	-29740.2	0.000000	0.000000	6.461627	8.529229	NaN	0.000000	0.001734	0.001723	28.0811	1.218301	0.001951	624.426	12.608	13.5365	8.511031	0.460284	7.206449	7.206085	8.529229	624.426	7.196205	1332.16	0.006403	15.6306
1155	2.000000	0.462123	7.37636e+06	-57839.1	1105.82	-29740.2	0.000000	0.000000	6.463096	8.402526	NaN	0.000000	0.001706	0.001689	28.0812	1.098686	0.001980	554.954	3.691228	-164.469	8.365189	0.461834	7.207924	7.207635	8.402526	554.954	7.196568	1332.29	0.006307	13.8909
1155	2.000000	0.463595	7.37636e+06	-57839.1	1105.82	-29740.2	0.000000	0.000000	6.464567	8.388952	NaN	0.000000	0.001723	0.001690	28.081	1.184463	0.002101	563.811	11.9632	10.4558	8.370871	0.463288	7.209396	7.209089	8.388952	563.811	7.198237	1332.91	0.006294	14.1093
1155	2.000000	0.465130	7.37636e+06	-57839.1	1105.82	-29740.2	0.000000	0.000000	6.466108	8.539398	NaN	0.000000	0.001710	0.001675	28.081	1.172925	0.001841	637.225	5.606862	-168.365	8.485043	0.464829	7.210931	7.210630	8.539398	637.225	7.200880	1333.89	0.006402	15.9406
1155	2.000000	0.466624	7.37636e+06	-57839.1	1105.82	-29740.2	0.000000	0.000000	6.467599	8.446696	NaN	0.000000	0.001695	0.001665	28.0809	1.123861	0.001892	594.104	0.647608	17.731	8.393360	0.466281	7.212425	7.212082	8.446696	594.104	7.201762	1334.22	0.006331	14.8601
1155	2.000000	0.468094	7.37636e+06	-57839.1	1105.82	-29740.2	0.000000	0.000000	6.469074	8.582718	NaN	0.000000	0.001670	0.001632	28.0811	1.107362	0.002099	527.651	9.540994	-163.464	8.700953	0.467811	7.213894	7.213612	8.582718	527.651	7.201695	1334.19	0.006433	13.1981
1155	2.000000	0.469603	7.37636e+06	-57839.1	1105.82	-29740.2	0.000000	0.000000	6.470583	8.584910	NaN	0.000000	0.001595	0.001623	28.081	1.080672	0.002037	530.63	12.2252	11.0553	8.489293	0.469221	7.215403	7.215021	8.584910	530.63	7.203269	1334.78	0.006432	13.2697
1155	2.000000	0.471084	7.37636e+06	-57839.1	1105.82	-29740.2	0.000000	0.000000	6.472066	8.634835	NaN	0.000000	0.001641	0.001644	28.0811	1.220713	0.002123	574.952	9.162924	-164.462	8.701285	0.470800	7.216885	7.216600	8.634835	574.952	7.205621	1335.65	0.006465	14.3734
1155	2.000000	0.472594	7.37636e+06	-57839.1	1105.82	-29740.2	0.000000	0.000000	6.473582	8.764249	NaN	0.000000	0.001654	0.001632	28.0809	1.250938	0.002084	600.258	4.568850	16.0297	8.744094	0.472216	7.218395	7.218017	8.764249	600.258	7.207444	1336.32	0.006558	15.0022
1155	2.000000	0.474079	7.37636e+06	-57839.1	1105.82	-29740.2	0.000000	0.000000	6.475079	9.068778	NaN	0.000000	0.001612	0.001628	28.081	1.128968	0.001823	619.33	-1.176968	-165.024	8.969023	0.473762	7.219879	7.219562	9.068778	619.33	7.208897	1336.86	0.006784	15.4758
1155	2.000000	0.475614	7.37636e+06	-57839.1	1105.82	-29740.2	0.000000	0.000000	6.476607	8.915998	NaN	0.000000	0.001635	0.001661	28.0798	1.183724	0.001980	597.96	7.541145	13.4099	8.966606	0.475209	7.221414	7.221010	8.915998	597.96	7.210231	1337.36	0.006667	14.939
1155	2.000000	0.477067	7.37636e+06	-57839.1	1105.82	-29740.2	0.000000	0.000000	6.478061	8.915173	NaN	0.000000	0.001605	0.001677	28.0798	1.218006	0.001871	650.827	2.381520	-161.968	8.808136	0.476703	7.222868	7.222504	8.915173	650.827	7.212594	1338.23	0.006662	16.2545
1155	2.000000	0.478590	7.37636e+06	-57839.1	1105.82	-29740.2	0.000000	0.000000	6.479585	8.951468	NaN	0.000000	0.001683	0.001675	28.08	1.165157	0.002047	569.298	3.954244	14.3406	8.897287	0.478203	7.224391	7.224004	8.951468	569.298	7.212598	1338.24	0.006689	14.2183
1155	2.000000	0.480081	7.37636e+06	-57839.1	1105.82	-29740.2	0.000000	0.000000	6.481082	9.100133	NaN	0.000000	0.001717	0.001649	28.0797	1.166632	0.002078	561.555	8.579793	-167.745	9.128953	0.479770	7.225882	7.225571	9.100133	561.555	7.213728	1338.66	0.006798	14.0227
1155	2.000000	0.481580	7.37636e+06	-57839.1	1105.82	-29740.2	0.000000	0.000000	6.482585	9.189413	NaN	0.000000	0.001713	0.001669	28.08	1.117800	0.001959	570.641	4.244966	13.3278	9.159144	0.481240	7.227381	7.227040	9.189413	570.641	7.215303	1339.24	0.006862	14.2465
1155	2.000000	0.483082	7.37636e+06	-57839.1	1105.82	-29740.2	0.000000	0.000000	6.484094	9.348446	NaN	0.000000	0.001705	0.001638	28.0799	1.192612	0.002034	586.325	11.6433	-162.687	9.348174	0.482764	7.228883	7.228565	9.348446	586.325	7.216925	1339.84	0.006977	14.6347
1155	2.000000	0.484571	7.37636e+06	-57839.1	1105.82	-29740.2	0.000000	0.000000	6.485578	9.245733	NaN	0.000000	0.001724	0.001686	28.0799	1.197403	0.001930	620.416	5.499379	13.4581	9.282611	0.484255	7.230371	7.230056	9.245733	620.416	7.219194	1340.69	0.006896	15.4808
1155	2.000000	0.486063	7.37636e+06	-57839.1	1105.82	-29740.2	0.000000	0.000000	6.487080	9.474835	NaN	0.000000	0.001685	0.001646	28.0799	1.166110	0.002016	578.331	8.375570	-164.005	9.493211	0.485750	7.231864	7.231551	9.474835	578.331	7.219577	1340.83	0.007066	14.4299
1155	2.000000	0.487604	7.37636e+06	-57839.1	1105.82	-29740.2	0.000000	0.000000	6.488617	9.389076	NaN	0.000000	0.001663	0.001632	28.0799	1.160385	0.001930	601.266	2.391800	12.9552	9.418773	0.487193	7.233404	7.232994	9.389076	601.266	7.221693	1341.61	0.006998	14.9977
1155	2.000000	0.489082	7.37636e+06	-57839.1	1105.82	-29740.2	0.000000	0.000000	6.490097	9.444350	NaN	0.000000	0.001663	0.001693	28.0798	1.165690	0.001883	619.139	2.119228	-161.128	9.544911	0.488772	7.234882	7.234573	9.444350	619.139	7.223442	1342.26	0.007036	15.4398
1155	2.000000	0.490553	7.37636e+06	-57839.1	1105.82	-29740.2	0.000000	0.000000	6.491564	9.335518	NaN	0.000000	0.001671	0.001655	28.0795	1.080789	0.001907	566.669	2.465197	16.0261	9.237549	0.490218	7.236353	7.236019	9.335518	566.669	7.223997	1342.47	0.006954	14.1303
1155	2.000000	0.492046	7.37636e+06	-57839.1	1105.82	-29740.2	0.000000	0.000000	6.493066	9.544949	NaN	0.000000	0.001710	0.001636	28.08	1.141367	0.001925	592.975	7.882915	-168.278	9.526206	0.491713	7.237847	7.237514	9.544949	592.975	7.225775	1343.13	0.007106	14.7826
1155	2.000000	0.493549	7.37636e+06	-57839.1	1105.82	-29740.2	0.000000	0.000000	6.494568	9.536821	NaN	0.000000	0.001686	0.001646	28.0798	1.017995	0.001951	521.688	5.422019	12.1983	9.436139	0.493185	7.239349	7.238986	9.536821	521.688	7.225639	1343.08	0.007101	13.0057
1155	2.000000	0.495086	7.37636e+06	-57839.1	1105.82	-29740.2	0.000000	0.000000	6.496110	9.637911	NaN	0.000000	0.001699	0.001649	28.08	1.186032	0.001959	605.436	6.385410	-167.464	9.624861	0.494748	7.240887	7.240549	9.637911	605.436	7.228947	1344.31	0.007169	15.0866
1155	2.000000	0.496570	7.37636e+06	-57839.1	1105.82	-29740.2	0.000000	0.000000	6.497595	9.672459	NaN	0.000000	0.001696	0.001635	28.0798	1.049087	0.002017	520.221	3.392621	16.5924	9.748769	0.496204	7.242371	7.242004	9.672459	520.221	7.228426	1344.12	0.007196	12.9641
1155	2.000000	0.498046	7.37636e+06	-57839.1	1105.82	-29740.2	0.000000	0.000000	6.499073	9.729497	NaN	0.000000	0.001678	0.001644	28.0798	1.151103	0.002022	569.23	5.598235	-166.099	9.713075	0.497774	7.243847	7.243575	9.729497	569.23	7.231027	1345.08	0.007233	14.1803
1155	2.000000	0.499564	7.37636e+06	-57839.1	1105.82	-29740.2	0.000000	0.000000	6.500585	9.580326	NaN	0.000000	0.001680	0.001645	28.0799	1.169283	0.001991	587.366	6.072095	13.0223	9.618953	0.499252	7.245364	7.245053	9.580326	587.366	7.233131	1345.87	0.007118	14.6279
1155	2.000000	0.501052	7.37636e+06	-57839.1	1105.82	-29740.2	0.000000	0.000000	6.502079	9.728261	NaN	0.000000	0.001675	0.001634	28.08	1.206226	0.001948	619.148	7.107310	-166.101	9.767622	0.500719	7.246852	7.246519	9.728261	619.148	7.235068	1346.59	0.007224	15.4152
1155	2.000000	0.502516	7.37636e+06	-57839.1	1105.82	-29740.2	0.000000	0.000000	6.503554	10.0068	NaN	0.000000	0.001698	0.001720	28.0797	1.239679	0.002060	601.757	10.5709	15.4304	9.893542	0.502173	7.248316	7.247973	10.0068	601.757	7.235844	1346.88	0.007430	14.9807
1155	2.000000	0.504065	7.37636e+06	-57839.1	1105.82	-29740.2	0.000000	0.000000	6.505100	9.904640	NaN	0.000000	0.001678	0.001681	28.08	1.149583	0.001892	607.449	1.398503	-164.059	9.956628	0.503738	7.249866	7.249539	9.904640	607.449	7.237637	1347.54	0.007350	15.1186
1155	2.000000	0.505535	7.37636e+06	-57839.1	1105.82	-29740.2	0.000000	0.000000	6.506577	10.0785	NaN	0.000000	0.001734	0.001707	28.0805	1.194554	0.002020	591.219	4.932999	12.9829	9.990052	0.505143	7.251336	7.250944	10.0785	591.219	7.238551	1347.88	0.007477	14.7128
1155	2.000000	0.507060	7.37636e+06	-57839.1	1105.82	-29740.2	0.000000	0.000000	6.508101	10.0497	NaN	0.000000	0.001710	0.001667	28.08	1.116437	0.001951	572.124	10.3452	-163.917	10.142	0.506732	7.252861	7.252533	10.0497	572.124	7.239687	1348.31	0.007454	14.2354
1155	2.000000	0.508565	7.37636e+06	-57839.1	1105.82	-29740.2	0.000000	0.000000	6.509613	10.2389	NaN	0.000000	0.001680	0.001651	28.0804	1.103505	0.001969	560.425	2.304058	18.7223	10.2358	0.508231	7.254365	7.254032	10.2389	560.425	7.240663	1348.67	0.007592	13.9424
1155	2.000000	0.510041	7.37636e+06	-57839.1	1105.82	-29740.2	0.000000	0.000000	6.511083	10.0806	NaN	0.000000	0.001695	0.001641	28.0814	1.201693	0.001951	615.894	8.281610	-166.772	10.1404	0.509784	7.255841	7.255585	10.0806	615.894	7.243566	1349.75	0.007468	15.3162
1155	2.000000	0.511573	7.37636e+06	-57839.1	1105.82	-29740.2	0.000000	0.000000	6.512621	10.2437	NaN	0.000000	0.001721	0.001612	28.0811	1.236874	0.002041	605.911	1.014036	15.1752	10.2244	0.511175	7.257373	7.256975	10.2437	605.911	7.244694	1350.17	0.007587	15.0656
1155	2.000000	0.513036	7.37636e+06	-57839.1	1105.82	-29740.2	0.000000	0.000000	6.514083	10.2037	NaN	0.000000	0.001716	0.001635	28.0813	1.203928	0.001848	651.382	6.414240	-164.601	10.0822	0.512714	7.258837	7.258514	10.2037	651.382	7.247088	1351.07	0.007552	16.1909
1155	2.000000	0.514563	7.37636e+06	-57839.1	1105.82	-29740.2	0.000000	0.000000	6.515613	10.2791	NaN	0.000000	0.001703	0.001640	28.0812	1.186152	0.001948	608.87	4.814279	16.3644	10.2845	0.514206	7.260363	7.260007	10.2791	608.87	7.247702	1351.29	0.007607	15.1329
1155	2.000000	0.516065	7.37636e+06	-57839.1	1105.82	-29740.2	0.000000	0.000000	6.517119	10.3853	NaN	0.000000	0.001728	0.001677	28.0812	1.234788	0.002104	586.796	6.769471	-166.051	10.4755	0.515772	7.261865	7.261573	10.3853	586.796	7.248591	1351.63	0.007684	14.5825
1155	2.000000	0.517534	7.37636e+06	-57839.1	1105.82	-29740.2	0.000000	0.000000	6.518589	10.4071	NaN	0.000000	0.001730	0.001677	28.081	1.282307	0.002159	594.05	6.132340	13.1745	10.3892	0.517135	7.263334	7.262936	10.4071	594.05	7.250195	1352.22	0.007696	14.7595
1155	2.000000	0.519030	7.37636e+06	-57839.1	1105.82	-29740.2	0.000000	0.000000	6.520084	10.377	NaN	0.000000	0.001736	0.001654	28.0812	1.256953	0.001848	680.244	4.043198	-160.339	10.2928	0.518699	7.264831	7.264500	10.377	680.244	7.253390	1353.42	0.007667	16.8936
1155	2.000000	0.520506	7.37636e+06	-57839.1	1105.82	-29740.2	0.000000	0.000000	6.521561	10.4069	NaN	0.000000	0.001686	0.001640	28.081	1.168931	0.002031	575.497	7.759748	15.3642	10.4636	0.520162	7.266306	7.265962	10.4069	575.497	7.252744	1353.17	0.007691	14.2935
1155	2.000000	0.522036	7.37636e+06	-57839.1	1105.82	-29740.2	0.000000	0.000000	6.523098	10.5542	NaN	0.000000	0.001686	0.001685	28.081	1.236609	0.002022	611.635	9.073846	-164.785	10.6416	0.521714	7.267837	7.267514	10.5542	611.635	7.254895	1353.98	0.007795	15.1866
1155	2.000000	0.523544	7.37636e+06	-57839.1	1105.82	-29740.2	0.000000	0.000000	6.524599	10.4059	NaN	0.000000	0.001700	0.001675	28.081	1.204010	0.001985	606.449	-2.646598	15.8294	10.2944	0.523187	7.269345	7.268987	10.4059	606.449	7.256476	1354.57	0.007682	15.0545
1155	2.000000	0.525022	7.37636e+06	-57839.1	1105.82	-29740.2	0.000000	0.000000	6.526089	10.689	NaN	0.000000	0.001725	0.001639	28.0811	1.247611	0.002006	621.859	11.9645	-166.109	10.6506	0.524700	7.270823	7.270501	10.689	621.859	7.257931	1355.11	0.007888	15.434
1155	2.000000	0.526537	7.37636e+06	-57839.1	1105.82	-29740.2	0.000000	0.000000	6.527604	10.695	NaN	0.000000	0.001704	0.001663	28.0811	1.195449	0.001981	603.475	5.208170	13.5742	10.7544	0.526201	7.272338	7.272002	10.695	603.475	7.259046	1355.53	0.007890	14.9754
1155	2.000000	0.528027	7.37636e+06	-57839.1	1105.82	-29740.2	0.000000	0.000000	6.529095	10.7011	NaN	0.000000	0.001716	0.001626	28.081	1.184251	0.002031	583.183	5.957278	-169.114	10.6313	0.527706	7.273828	7.273506	10.7011	583.183	7.260066	1355.91	0.007892	14.4698
1155	2.000000	0.529524	7.37636e+06	-57839.1	1105.82	-29740.2	0.000000	0.000000	6.530590	10.6821	NaN	0.000000	0.001745	0.001645	28.0813	1.154710	0.001964	587.862	5.874980	17.0163	10.6845	0.529195	7.275324	7.274996	10.6821	587.862	7.261696	1356.52	0.007875	14.5826
1155	2.000000	0.531020	7.37636e+06	-57839.1	1105.82	-29740.2	0.000000	0.000000	6.532091	10.7924	NaN	0.000000	0.001695	0.001659	28.0811	1.170325	0.002084	561.551	2.841630	-164.639	10.6522	0.530738	7.276821	7.276538	10.7924	561.551	7.262407	1356.78	0.007954	13.9286
1155	2.000000	0.532511	7.37636e+06	-57839.1	1105.82	-29740.2	0.000000	0.000000	6.533577	10.667	NaN	0.000000	0.001707	0.001648	28.0809	1.274354	0.002097	607.672	10.425	12.4056	10.6821	0.532162	7.278312	7.277962	10.667	607.672	7.265146	1357.81	0.007856	15.0669
1155	2.000000	0.534026	7.37636e+06	-57839.1	1105.82	-29740.2	0.000000	0.000000	6.535100	10.8659	NaN	0.000000	0.001714	0.001610	28.081	1.160476	0.002059	563.553	2.829214	-161.373	10.8183	0.533731	7.279827	7.279531	10.8659	563.553	7.265366	1357.89	0.008002	13.9726
1155	2.000000	0.535506	7.37636e+06	-57839.1	1105.82	-29740.2	0.000000	0.000000	6.536579	10.8324	NaN	0.000000	0.001754	0.001624	28.0809	1.101811	0.002038	540.544	4.508880	18.5374	10.7607	0.535168	7.281307	7.280969	10.8324	540.544	7.266277	1358.23	0.007975	13.4004
1155	2.000000	0.537001	7.37636e+06	-57839.1	1105.82	-29740.2	0.000000	0.000000	6.538078	10.9451	NaN	0.000000	0.001750	0.001623	28.0809	1.221941	0.001939	630.209	3.249924	-167.853	10.815	0.536702	7.282802	7.282503	10.9451	630.209	7.269776	1359.54	0.008051	15.6157
1155	2.000000	0.538513	7.37636e+06	-57839.1	1105.82	-29740.2	0.000000	0.000000	6.539589	10.9145	NaN	0.000000	0.001735	0.001624	28.081	1.221706	0.002060	592.964	8.223078	12.2887	10.8548	0.538147	7.284313	7.283947	10.9145	592.964	7.270508	1359.81	0.008026	14.6914
1155	2.000000	0.540007	7.37636e+06	-57839.1	1105.82	-29740.2	0.000000	0.000000	6.541075	10.7306	NaN	0.000000	0.001696	0.001639	28.0812	1.178068	0.001910	616.635	0.928404	-166.951	10.7302	0.539707	7.285807	7.285507	10.7306	616.635	7.272756	1360.65	0.007886	15.2731
1155	2.000000	0.541534	7.37636e+06	-57839.1	1105.82	-29740.2	0.000000	0.000000	6.542603	10.7359	NaN	0.000000	0.001709	0.001637	28.0811	1.368305	0.002067	662.049	4.456797	17.4272	10.8152	0.541178	7.287335	7.286979	10.7359	662.049	7.275173	1361.56	0.007885	16.3925
1155	2.000000	0.542998	7.37636e+06	-57839.1	1105.82	-29740.2	0.000000	0.000000	6.544073	10.9036	NaN	0.000000	0.001685	0.001613	28.0802	1.230634	0.002121	580.28	12.012	-165.347	10.8823	0.542728	7.288798	7.288529	10.9036	580.28	7.274706	1361.38	0.008009	14.3688
1155	2.000000	0.544476	7.37636e+06	-57839.1	1105.82	-29740.2	0.000000	0.000000	6.545543	10.6876	NaN	0.000000	0.001712	0.001617	28.0798	1.242645	0.001951	636.812	5.481383	14.2753	10.7054	0.544135	7.290277	7.289935	10.6876	636.812	7.277690	1362.5	0.007844	15.7622
1155	2.000000	0.546020	7.37636e+06	-57839.1	1105.82	-29740.2	0.000000	0.000000	6.547091	10.7877	NaN	0.000000	0.001678	0.001628	28.0797	1.287874	0.001994	645.986	2.186350	-165.16	10.7858	0.545737	7.291821	7.291538	10.7877	645.986	7.279296	1363.1	0.007914	15.9857
1155	2.000000	0.547495	7.37636e+06	-57839.1	1105.82	-29740.2	0.000000	0.000000	6.548571	10.9063	NaN	0.000000	0.001621	0.001641	28.0796	1.223939	0.001971	620.818	2.803446	15.7754	10.9189	0.547243	7.293296	7.293044	10.9063	620.818	7.280120	1363.41	0.007999	15.3612
1155	2.000000	0.548982	7.37636e+06	-57839.1	1105.82	-29740.2	0.000000	0.000000	6.550055	10.8604	NaN	0.000000	0.001612	0.001611	28.0798	1.189133	0.001986	598.765	5.205088	-165.086	10.8221	0.548726	7.294782	7.294527	10.8604	598.765	7.281179	1363.81	0.007963	14.8134
1155	2.000000	0.550500	7.37636e+06	-57839.1	1105.82	-29740.2	0.000000	0.000000	6.551566	10.6794	NaN	0.000000	0.001614	0.001635	28.0799	1.248808	0.001970	633.952	8.538893	9.916976	10.6797	0.550157	7.296300	7.295958	10.6794	633.952	7.283666	1364.74	0.007825	15.6785
1155	2.000000	0.551979	7.37636e+06	-57839.1	1105.82	-29740.2	0.000000	0.000000	6.553048	10.7401	NaN	0.000000	0.001603	0.001638	28.0797	1.152108	0.002057	560.196	4.594217	-164.273	10.7542	0.551713	7.297780	7.297514	10.7401	560.196	7.283401	1364.64	0.007870	13.8549
1155	2.000000	0.553481	7.37636e+06	-57839.1	1105.82	-29740.2	0.000000	0.000000	6.554555	10.8533	NaN	0.000000	0.001636	0.001663	28.08	1.167306	0.002003	582.728	5.960856	12.1001	10.945	0.553142	7.299282	7.298943	10.8533	582.728	7.285313	1365.36	0.007949	14.4084