File: remote_trans/data/nanoindenter/0828-1/data/Data_2025-08-06,11h17m57s/2025-07-22_16-23-58_1_1073.txt
2025-07-22, 16:23:58, 1
Index	Phase	Displacement	Time	Pos X	Pos Y	Pos Z	Rot A	Rot B	Piezo Z	Force A	Force B	Gripper	Voltage A	Voltage B	Temperature	Amplitude force	Amplitude pos	Stiffness	Phase shift	Phase excitation	Force A raw	Displacement raw	HMax	HMax raw	Real Force	Real Stiffness	Contact Depth	Area	Hardness	Reduced Mod.
[#]	[#]	[um]	[s]	[um]	[um]	[um]	[m°]	[m°]	[um]	[uN]	[uN]	[V]	[V]	[V]	[°C]	[uN]	[um]	[N/m]	[°]	[°]	[uN]	[um]	[um]	[um]	[uN]	[N/m]	[um]	[um^2]	[MPa]	[MPa]
1073	1.000000	0.002668	7.37555e+06	-53789.1	1055.82	-29745.3	0.000000	0.000000	6.002793	-0.019940	NaN	0.000000	0.001622	0.001730	28.0835	0.028080	0.000986	28.4845	-156.006	-166.686	-0.026759	0.001428	-1.060301	-1.061542	-0.019940	28.4845	-1.059776	-1.444830E+14	1.380098E-16	NaN
1073	1.000000	0.010656	7.37555e+06	-53789.1	1055.82	-29745.3	0.000000	0.000000	6.010780	-0.008923	NaN	0.000000	0.001636	0.001701	28.0833	0.075013	0.001058	70.8711	-63.1768	-163.445	-0.045350	0.009328	-1.052314	-1.053642	-0.008923	70.8711	-1.052220	-1.143545E+14	7.803363E-17	NaN
1073	1.000000	0.018626	7.37555e+06	-53789.1	1055.82	-29745.3	0.000000	0.000000	6.018750	-0.035988	NaN	0.000000	0.001563	0.001724	28.0836	0.075585	0.001686	44.8438	31.3407	-163.432	-0.085352	0.017302	-1.044344	-1.045668	-0.035988	44.8438	-1.043742	-8.795932E+13	4.091435E-16	NaN
1073	1.000000	0.026638	7.37555e+06	-53789.1	1055.82	-29745.3	0.000000	0.000000	6.026762	-0.006510	NaN	0.000000	0.001547	0.001758	28.0833	0.137271	0.001792	76.6117	100.028	-169.087	0.003751	0.025322	-1.036332	-1.037648	-0.006510	76.6117	-1.036269	-6.978938E+13	9.328153E-17	NaN
1073	1.000000	0.034624	7.37555e+06	-53789.1	1055.82	-29745.3	0.000000	0.000000	6.034749	-0.002725	NaN	0.000000	0.001497	0.001735	28.083	0.039388	0.001931	20.403	-59.692	-167.692	-0.033966	0.033307	-1.028346	-1.029663	-0.002725	20.403	-1.028245	-5.443506E+13	5.006830E-17	NaN
1073	1.000000	0.042622	7.37555e+06	-53789.1	1055.82	-29745.3	0.000000	0.000000	6.042749	0.055926	NaN	0.000000	0.001534	0.001747	28.0831	0.022656	0.001949	11.6231	-176.845	-163.182	0.091991	0.041288	-1.020348	-1.021682	0.055926	11.6231	-1.023957	-4.766401E+13	-1.173345E-15	NaN
1073	1.000000	0.050637	7.37555e+06	-53789.1	1055.82	-29745.3	0.000000	0.000000	6.050761	-0.030927	NaN	0.000000	0.001554	0.001743	28.0829	0.063851	0.001932	33.0448	-82.6412	-169.139	-0.032974	0.049297	-1.012332	-1.013673	-0.030927	33.0448	-1.011631	-3.253320E+13	9.506375E-16	NaN
1073	1.000000	0.058593	7.37555e+06	-53789.1	1055.82	-29745.3	0.000000	0.000000	6.058719	0.014363	NaN	0.000000	0.001538	0.001704	28.0829	0.050464	0.001910	26.4169	87.7605	-166.178	-0.006676	0.057345	-1.004377	-1.005625	0.014363	26.4169	-1.004784	-2.631357E+13	-5.458465E-16	NaN
1073	1.000000	0.066617	7.37555e+06	-53789.1	1055.82	-29745.3	0.000000	0.000000	6.066743	0.034064	NaN	0.000000	0.001519	0.001738	28.0829	0.047470	0.002052	23.1303	82.7356	-164.209	-0.061304	0.065374	-0.996353	-0.997595	0.034064	23.1303	-0.997458	-2.096718E+13	-1.624644E-15	NaN
1073	1.000000	0.074626	7.37555e+06	-53789.1	1055.82	-29745.3	0.000000	0.000000	6.074749	-0.047781	NaN	0.000000	0.001545	0.001695	28.0827	0.008340	0.002044	4.079876	-136.751	-164.266	0.005630	0.073350	-0.988344	-0.989619	-0.047781	4.079876	-0.979561	-1.203623E+13	3.969747E-15	NaN
1073	1.000000	0.082646	7.37555e+06	-53789.1	1055.82	-29745.3	0.000000	0.000000	6.082773	0.042737	NaN	0.000000	0.001484	0.001720	28.0831	0.071671	0.002082	34.4256	13.883	-168.221	0.018946	0.081378	-0.980323	-0.981592	0.042737	34.4256	-0.981254	-1.268560E+13	-3.368972E-15	NaN
1073	1.000000	0.090647	7.37555e+06	-53789.1	1055.82	-29745.3	0.000000	0.000000	6.090771	-0.025596	NaN	0.000000	0.001503	0.001759	28.083	0.072045	0.002109	34.1636	-38.5195	-166.442	-0.038303	0.089351	-0.972323	-0.973619	-0.025596	34.1636	-0.971761	-9.449226E+12	2.708791E-15	NaN
1073	1.000000	0.098652	7.37555e+06	-53789.1	1055.82	-29745.3	0.000000	0.000000	6.098778	0.040813	NaN	0.000000	0.001504	0.001738	28.0832	0.026135	0.002058	12.7007	-6.549888	-168.336	0.054261	0.097338	-0.964318	-0.965631	0.040813	12.7007	-0.966728	-8.082917E+12	-5.049345E-15	NaN
1073	1.000000	0.106616	7.37555e+06	-53789.1	1055.82	-29745.3	0.000000	0.000000	6.106743	0.031503	NaN	0.000000	0.001507	0.001769	28.0829	0.137544	0.001935	71.074	-159.926	-166.77	-0.020283	0.105271	-0.956354	-0.957699	0.031503	71.074	-0.956686	-5.918205E+12	-5.322982E-15	NaN
1073	1.000000	0.114625	7.37555e+06	-53789.1	1055.82	-29745.3	0.000000	0.000000	6.114746	-0.090767	NaN	0.000000	0.001510	0.001769	28.0823	0.028065	0.001993	14.084	-8.005795	-165.671	-0.156522	0.113292	-0.948345	-0.949678	-0.090767	14.084	-0.943512	-3.931088E+12	2.308959E-14	NaN
1073	1.000000	0.122634	7.37555e+06	-53789.1	1055.82	-29745.3	0.000000	0.000000	6.122759	-0.004736	NaN	0.000000	0.001534	0.001734	28.082	0.126754	0.002074	61.1193	-132.737	-164.216	-0.020880	0.121353	-0.940336	-0.941617	-0.004736	61.1193	-0.940277	-3.555330E+12	1.332116E-15	NaN
1073	1.000000	0.130672	7.37555e+06	-53789.1	1055.82	-29745.3	0.000000	0.000000	6.130798	0.027308	NaN	0.000000	0.001519	0.001736	28.0818	0.089183	0.002098	42.5083	-97.0263	-167.727	0.002962	0.129337	-0.932298	-0.933633	0.027308	42.5083	-0.932780	-2.816538E+12	-9.695426E-15	NaN
1073	1.000000	0.138649	7.37555e+06	-53789.1	1055.82	-29745.3	0.000000	0.000000	6.138775	0.004501	NaN	0.000000	0.001541	0.001722	28.082	0.042683	0.002076	20.5553	38.2782	-166.901	0.027905	0.137352	-0.924320	-0.925618	0.004501	20.5553	-0.924485	-2.176466E+12	-2.068228E-15	NaN
1073	1.000000	0.146654	7.37555e+06	-53789.1	1055.82	-29745.3	0.000000	0.000000	6.146778	-0.041568	NaN	0.000000	0.001536	0.001763	28.0823	0.092608	0.001972	46.9587	173.807	-166.604	-0.043321	0.145377	-0.916315	-0.917593	-0.041568	46.9587	-0.915651	-1.653822E+12	2.513462E-14	NaN
1073	1.000000	0.154650	7.37555e+06	-53789.1	1055.82	-29745.3	0.000000	0.000000	6.154775	-0.007016	NaN	0.000000	0.001533	0.001710	28.0818	0.033977	0.001922	17.6824	109.851	-162.094	-0.016834	0.153322	-0.908319	-0.909647	-0.007016	17.6824	-0.908022	-1.304495E+12	5.378132E-15	NaN
1073	1.000000	0.162678	7.37555e+06	-53789.1	1055.82	-29745.3	0.000000	0.000000	6.162801	-0.053416	NaN	0.000000	0.001565	0.001767	28.082	0.116840	0.001954	59.7905	3.979795	-165.656	-0.045956	0.161323	-0.900292	-0.901647	-0.053416	59.7905	-0.899622	-1.004523E+12	5.317517E-14	NaN
1073	1.000000	0.170650	7.37555e+06	-53789.1	1055.82	-29745.3	0.000000	0.000000	6.170775	0.007787	NaN	0.000000	0.001559	0.001706	28.0819	0.105678	0.002034	51.9576	43.4965	-165.389	0.011548	0.169317	-0.892320	-0.893652	0.007787	51.9576	-0.892432	-8.031430E+11	-9.695254E-15	NaN
1073	1.000000	0.178671	7.37555e+06	-53789.1	1055.82	-29745.3	0.000000	0.000000	6.178795	-0.016332	NaN	0.000000	0.001565	0.001703	28.0818	0.031901	0.001929	16.535	162.254	-163.576	-0.042868	0.177317	-0.884299	-0.885653	-0.016332	16.535	-0.883558	-6.092931E+11	2.680437E-14	NaN
1073	1.000000	0.186710	7.37555e+06	-53789.1	1055.82	-29745.3	0.000000	0.000000	6.186834	-0.041726	NaN	0.000000	0.001558	0.001715	28.0819	0.035215	0.002003	17.5813	102.923	-163.839	-0.077238	0.185395	-0.876260	-0.877575	-0.041726	17.5813	-0.874480	-4.592461E+11	9.085658E-14	NaN
1073	1.000000	0.194686	7.37555e+06	-53789.1	1055.82	-29745.3	0.000000	0.000000	6.194810	-0.023537	NaN	0.000000	0.001530	0.001729	28.082	0.061339	0.001847	33.2067	-135.866	-167.585	-0.143892	0.193384	-0.868284	-0.869586	-0.023537	33.2067	-0.867752	-3.724198E+11	6.319888E-14	NaN
1073	1.000000	0.202694	7.37555e+06	-53789.1	1055.82	-29745.3	0.000000	0.000000	6.202818	-0.017849	NaN	0.000000	0.001530	0.001728	28.082	0.146057	0.002064	70.7492	-35.144	-164.343	-0.028583	0.201439	-0.860276	-0.861531	-0.017849	70.7492	-0.860087	-2.932890E+11	6.085880E-14	NaN
1073	1.000000	0.210681	7.37555e+06	-53789.1	1055.82	-29745.3	0.000000	0.000000	6.210808	0.055748	NaN	0.000000	0.001530	0.001760	28.0818	0.035529	0.002199	16.1596	141.524	-166.173	0.049628	0.209420	-0.852289	-0.853550	0.055748	16.1596	-0.854876	-2.493239E+11	-2.235955E-13	NaN
1073	1.000000	0.218691	7.37555e+06	-53789.1	1055.82	-29745.3	0.000000	0.000000	6.218815	-0.015804	NaN	0.000000	0.001537	0.001753	28.0817	0.067372	0.002067	32.5881	177.381	-166.093	0.069683	0.217367	-0.844279	-0.845603	-0.015804	32.5881	-0.843915	-1.771461E+11	8.921583E-14	NaN
1073	1.000000	0.226710	7.37555e+06	-53789.1	1055.82	-29745.3	0.000000	0.000000	6.226834	-0.008053	NaN	0.000000	0.001565	0.001710	28.0818	0.163480	0.001981	82.5132	-89.7278	-166.059	-0.068003	0.225379	-0.836260	-0.837591	-0.008053	82.5132	-0.836187	-1.391975E+11	5.785018E-14	NaN
1073	1.000000	0.234680	7.37555e+06	-53789.1	1055.82	-29745.3	0.000000	0.000000	6.234806	0.019194	NaN	0.000000	0.001551	0.001723	28.0821	0.028069	0.002011	13.9612	-25.5668	-167.296	-0.018663	0.233359	-0.828290	-0.829611	0.019194	13.9612	-0.829321	-1.123530E+11	-1.708345E-13	NaN
1073	1.000000	0.242693	7.37555e+06	-53789.1	1055.82	-29745.3	0.000000	0.000000	6.242819	0.027101	NaN	0.000000	0.001585	0.001720	28.0822	0.049296	0.001939	25.4192	-50.5757	-165.227	0.001464	0.241357	-0.820277	-0.821613	0.027101	25.4192	-0.821077	-8.685825E+10	-3.120106E-13	NaN
1073	1.000000	0.250673	7.37555e+06	-53789.1	1055.82	-29745.3	0.000000	0.000000	6.250798	-0.007803	NaN	0.000000	0.001548	0.001711	28.0825	0.068018	0.001963	34.6471	2.173126	-166.964	-0.002913	0.249402	-0.812297	-0.813568	-0.007803	34.6471	-0.812128	-6.568065E+10	1.188032E-13	NaN
1073	1.000000	0.258715	7.37555e+06	-53789.1	1055.82	-29745.3	0.000000	0.000000	6.258842	0.043500	NaN	0.000000	0.001564	0.001747	28.083	0.073369	0.002053	35.7456	-4.220941	-164.064	0.034001	0.257431	-0.804255	-0.805539	0.043500	35.7456	-0.805167	-5.284431E+10	-8.231747E-13	NaN
1073	1.000000	0.266726	7.37555e+06	-53789.1	1055.82	-29745.3	0.000000	0.000000	6.266849	-0.035001	NaN	0.000000	0.001560	0.001742	28.0832	0.074712	0.001929	38.7315	115.404	-165.838	-0.052697	0.265367	-0.796244	-0.797603	-0.035001	38.7315	-0.795566	-3.914453E+10	8.941422E-13	NaN
1073	1.000000	0.274720	7.37555e+06	-53789.1	1055.82	-29745.3	0.000000	0.000000	6.274844	-0.025202	NaN	0.000000	0.001548	0.001758	28.0832	0.040593	0.001894	21.4334	79.8777	-164.157	0.077065	0.273426	-0.788250	-0.789544	-0.025202	21.4334	-0.787368	-3.029251E+10	8.319418E-13	NaN
1073	1.000000	0.282724	7.37555e+06	-53789.1	1055.82	-29745.3	0.000000	0.000000	6.282845	-0.094823	NaN	0.000000	0.001527	0.001758	28.0833	0.061713	0.002023	30.4992	-95.9127	-167.349	-0.061169	0.281430	-0.780246	-0.781540	-0.094823	30.4992	-0.777914	-2.253652E+10	4.207520E-12	NaN
1073	1.000000	0.290711	7.37555e+06	-53789.1	1055.82	-29745.3	0.000000	0.000000	6.290835	-0.015444	NaN	0.000000	0.001538	0.001783	28.0836	0.081190	0.002029	40.0177	-123.921	-167.518	-0.013649	0.289412	-0.772259	-0.773557	-0.015444	40.0177	-0.771970	-1.871057E+10	8.253973E-13	NaN
1073	1.000000	0.298728	7.37555e+06	-53789.1	1055.82	-29745.3	0.000000	0.000000	6.298853	0.009358	NaN	0.000000	0.001540	0.001770	28.0833	0.041486	0.001961	21.1561	62.6124	-163.801	0.026634	0.297436	-0.764242	-0.765533	0.009358	21.1561	-0.764574	-1.484284E+10	-6.304723E-13	NaN
1073	1.000000	0.306719	7.37555e+06	-53789.1	1055.82	-29745.3	0.000000	0.000000	6.306843	-0.029288	NaN	0.000000	0.001557	0.001792	28.0833	0.043804	0.001957	22.3858	-118.284	-164.004	-0.022211	0.305386	-0.756251	-0.757583	-0.029288	22.3858	-0.755269	-1.109017E+10	2.640924E-12	NaN
1073	1.000000	0.314710	7.37555e+06	-53789.1	1055.82	-29745.3	0.000000	0.000000	6.314837	0.063215	NaN	0.000000	0.001592	0.001751	28.0831	0.095900	0.001911	50.174	-138.684	-169.491	0.033929	0.313451	-0.748260	-0.749519	0.063215	50.174	-0.749205	-9.170683E+9	-6.893123E-12	NaN
1073	1.000000	0.322740	7.37555e+06	-53789.1	1055.82	-29745.3	0.000000	0.000000	6.322868	0.062253	NaN	0.000000	0.001588	0.001757	28.083	0.050214	0.002082	24.1127	96.4416	-164.8	0.042950	0.321464	-0.740230	-0.741506	0.062253	24.1127	-0.742166	-7.354512E+9	-8.464548E-12	NaN
1073	1.000000	0.330718	7.37555e+06	-53789.1	1055.82	-29745.3	0.000000	0.000000	6.330843	0.008229	NaN	0.000000	0.001611	0.001730	28.0832	0.065797	0.002099	31.3437	-127.436	-167.413	0.008907	0.329434	-0.732252	-0.733536	0.008229	31.3437	-0.732449	-5.422305E+9	-1.517535E-12	NaN
1073	1.000000	0.338733	7.37555e+06	-53789.1	1055.82	-29745.3	0.000000	0.000000	6.338860	0.026144	NaN	0.000000	0.001568	0.001778	28.0832	0.048917	0.002189	22.3421	95.677	-166.95	-0.003850	0.337449	-0.724237	-0.725521	0.026144	22.3421	-0.725114	-4.307326E+9	-6.069692E-12	NaN
1073	1.000000	0.346726	7.37555e+06	-53789.1	1055.82	-29745.3	0.000000	0.000000	6.346850	-0.028502	NaN	0.000000	0.001581	0.001748	28.0837	0.087676	0.001900	46.1415	64.391	-165.143	-0.050313	0.345424	-0.716244	-0.717546	-0.028502	46.1415	-0.715780	-3.213067E+9	8.870782E-12	NaN
1073	1.000000	0.354787	7.37555e+06	-53789.1	1055.82	-29745.3	0.000000	0.000000	6.354911	-0.026680	NaN	0.000000	0.001593	0.001721	28.083	0.074906	0.001816	41.2485	-110.787	-167.279	0.058403	0.353424	-0.708183	-0.709546	-0.026680	41.2485	-0.707697	-2.492429E+9	1.070453E-11	NaN
1073	1.000000	0.362728	7.37555e+06	-53789.1	1055.82	-29745.3	0.000000	0.000000	6.362852	-0.026236	NaN	0.000000	0.001586	0.001750	28.0841	0.097428	0.001899	51.3014	24.631	-164.548	-0.007760	0.361472	-0.700242	-0.701498	-0.026236	51.3014	-0.699859	-1.948054E+9	1.346799E-11	NaN
1073	1.000000	0.370775	7.37555e+06	-53789.1	1055.82	-29745.3	0.000000	0.000000	6.370896	-0.099084	NaN	0.000000	0.001591	0.001741	28.0832	0.043262	0.001824	23.7174	-95.2509	-163.105	-0.126632	0.369392	-0.692195	-0.693578	-0.099084	23.7174	-0.689062	-1.387052E+9	7.143480E-11	NaN
1073	1.000000	0.378724	7.37555e+06	-53789.1	1055.82	-29745.3	0.000000	0.000000	6.378849	0.007219	NaN	0.000000	0.001538	0.001785	28.0833	0.063526	0.001963	32.3637	65.3106	-167.22	-0.064917	0.377451	-0.684246	-0.685519	0.007219	32.3637	-0.684414	-1.198279E+9	-6.024273E-12	NaN
1073	1.000000	0.386758	7.37555e+06	-53789.1	1055.82	-29745.3	0.000000	0.000000	6.386881	-0.060116	NaN	0.000000	0.001583	0.001770	28.0833	0.045814	0.002098	21.8397	142.664	-165.669	-0.152092	0.385467	-0.676212	-0.677503	-0.060116	21.8397	-0.674147	-8.672473E+8	6.931829E-11	NaN
1073	1.000000	0.394776	7.37555e+06	-53789.1	1055.82	-29745.3	0.000000	0.000000	6.394901	-0.003523	NaN	0.000000	0.001546	0.001769	28.082	0.075489	0.002050	36.8277	-93.3402	-165.172	-0.003159	0.393472	-0.668193	-0.669497	-0.003523	36.8277	-0.668122	-7.172651E+8	4.911089E-12	NaN
1073	1.000000	0.402759	7.37555e+06	-53789.1	1055.82	-29745.3	0.000000	0.000000	6.402885	0.022622	NaN	0.000000	0.001517	0.001795	28.082	0.109798	0.002064	53.2079	38.4914	-167.171	0.130900	0.401433	-0.660211	-0.661537	0.022622	53.2079	-0.660530	-5.645785E+8	-4.006911E-11	NaN
1073	1.000000	0.410774	7.37555e+06	-53789.1	1055.82	-29745.3	0.000000	0.000000	6.410895	-0.092801	NaN	0.000000	0.001553	0.001784	28.0819	0.049390	0.002020	24.4532	-5.702512	-166.073	-0.033670	0.409484	-0.652196	-0.653485	-0.092801	24.4532	-0.649350	-3.967582E+8	2.338971E-10	NaN
1073	1.000000	0.418795	7.37555e+06	-53789.1	1055.82	-29745.3	0.000000	0.000000	6.418918	-0.055142	NaN	0.000000	0.001529	0.001762	28.082	0.040083	0.002074	19.3291	91.5619	-167.707	-0.118764	0.417493	-0.644174	-0.645477	-0.055142	19.3291	-0.642035	-3.149249E+8	1.750946E-10	NaN
1073	1.000000	0.426760	7.37555e+06	-53789.1	1055.82	-29745.3	0.000000	0.000000	6.426884	-0.028174	NaN	0.000000	0.001529	0.001733	28.082	0.094788	0.001949	48.6221	-74.547	-165.288	0.015700	0.425488	-0.636209	-0.637482	-0.028174	48.6221	-0.635775	-2.584083E+8	1.090288E-10	NaN
1073	1.000000	0.434787	7.37555e+06	-53789.1	1055.82	-29745.3	0.000000	0.000000	6.434912	0.019532	NaN	0.000000	0.001591	0.001758	28.082	0.065595	0.002048	32.027	-167.737	-166.442	0.006764	0.433456	-0.628183	-0.629514	0.019532	32.027	-0.628641	-2.062320E+8	-9.471051E-11	NaN
1073	1.000000	0.442772	7.37555e+06	-53789.1	1055.82	-29745.3	0.000000	0.000000	6.442896	-0.028767	NaN	0.000000	0.001526	0.001790	28.082	0.034186	0.001903	17.9625	-125.729	-163.638	0.004223	0.441429	-0.620198	-0.621541	-0.028767	17.9625	-0.618997	-1.520007E+8	1.892557E-10	NaN
1073	1.000000	0.450758	7.37555e+06	-53789.1	1055.82	-29745.3	0.000000	0.000000	6.450884	0.005246	NaN	0.000000	0.001508	0.001745	28.0817	0.044036	0.002025	21.7507	145.59	-167.087	-0.028281	0.449501	-0.612211	-0.613469	0.005246	21.7507	-0.612392	-1.233176E+8	-4.254459E-11	NaN
1073	1.000000	0.458779	7.37555e+06	-53789.1	1055.82	-29745.3	0.000000	0.000000	6.458906	0.035379	NaN	0.000000	0.001542	0.001797	28.0817	0.070935	0.002000	35.4645	114.821	-166.646	-0.004409	0.457549	-0.604190	-0.605420	0.035379	35.4645	-0.604939	-9.737763E+7	-3.633175E-10	NaN
1073	1.000000	0.466816	7.37555e+06	-53789.1	1055.82	-29745.3	0.000000	0.000000	6.466939	-0.054852	NaN	0.000000	0.001536	0.001760	28.0816	0.021252	0.002034	10.45	28.8771	-163.296	-0.098351	0.465501	-0.596154	-0.597468	-0.054852	10.45	-0.592217	-6.504732E+7	8.432657E-10	NaN
1073	1.000000	0.474801	7.37555e+06	-53789.1	1055.82	-29745.3	0.000000	0.000000	6.474925	-0.030711	NaN	0.000000	0.001528	0.001767	28.082	0.025045	0.001960	12.7798	-113.032	-165.668	-0.007914	0.473539	-0.588169	-0.589431	-0.030711	12.7798	-0.586366	-5.402092E+7	5.684981E-10	NaN
1073	1.000000	0.482785	7.37555e+06	-53789.1	1055.82	-29745.3	0.000000	0.000000	6.482907	-0.058709	NaN	0.000000	0.001505	0.001743	28.0819	0.122340	0.002137	57.2458	-81.2634	-165.145	0.042686	0.481487	-0.580185	-0.581483	-0.058709	57.2458	-0.579416	-4.331778E+7	1.355313E-9	NaN
1073	1.000000	0.490817	7.37555e+06	-53789.1	1055.82	-29745.3	0.000000	0.000000	6.490942	-0.004029	NaN	0.000000	0.001569	0.001756	28.0819	0.106143	0.002142	49.5577	-154.974	-165.006	-0.040067	0.489502	-0.572153	-0.573468	-0.004029	49.5577	-0.572092	-3.431885E+7	1.174071E-10	NaN
1073	1.000000	0.498799	7.37555e+06	-53789.1	1055.82	-29745.3	0.000000	0.000000	6.498924	-0.009569	NaN	0.000000	0.001570	0.001788	28.0819	0.039103	0.001967	19.8771	153.373	-165.562	0.004368	0.497487	-0.564171	-0.565483	-0.009569	19.8771	-0.563810	-2.636767E+7	3.628975E-10	NaN
1073	1.000000	0.506817	7.37555e+06	-53789.1	1055.82	-29745.3	0.000000	0.000000	6.506943	0.005493	NaN	0.000000	0.001530	0.001784	28.082	0.102776	0.001989	51.6607	-10.0767	-164.656	0.002153	0.505490	-0.556153	-0.557480	0.005493	51.6607	-0.556232	-2.071316E+7	-2.651809E-10	NaN
1073	1.000000	0.514857	7.37555e+06	-53789.1	1055.82	-29745.3	0.000000	0.000000	6.514983	0.011670	NaN	0.000000	0.001541	0.001786	28.082	0.112906	0.001963	57.5071	-76.0051	-167.441	-0.014419	0.513459	-0.548112	-0.549511	0.011670	57.5071	-0.548265	-1.606633E+7	-7.263660E-10	NaN
1073	1.000000	0.522828	7.37555e+06	-53789.1	1055.82	-29745.3	0.000000	0.000000	6.522954	0.025522	NaN	0.000000	0.001519	0.001753	28.0821	0.088164	0.001952	45.1696	127.223	-166.427	0.035658	0.521530	-0.540142	-0.541440	0.025522	45.1696	-0.540566	-1.256632E+7	-2.030994E-9	NaN
1073	1.000000	0.530806	7.37555e+06	-53789.1	1055.82	-29745.3	0.000000	0.000000	6.530930	-0.028675	NaN	0.000000	0.001548	0.001755	28.0834	0.091547	0.002052	44.6118	1.728713	-166.875	0.002949	0.529589	-0.532163	-0.533381	-0.028675	44.6118	-0.531681	-9.46069e+06	3.030998E-9	NaN
1073	1.000000	0.538808	7.37555e+06	-53789.1	1055.82	-29745.3	0.000000	0.000000	6.538936	0.065284	NaN	0.000000	0.001538	0.001723	28.0833	0.087423	0.002058	42.4693	-128.502	-165.076	0.019337	0.537488	-0.524161	-0.525482	0.065284	42.4693	-0.525314	-7.71757e+06	-8.459202E-9	NaN
1073	1.000000	0.546783	7.37555e+06	-53789.1	1055.82	-29745.3	0.000000	0.000000	6.546904	-0.111035	NaN	0.000000	0.001526	0.001742	28.0834	0.032261	0.002057	15.6827	-145.261	-165.238	-0.019108	0.545547	-0.516186	-0.517423	-0.111035	15.6827	-0.510876	-4.85983e+06	2.284755E-8	NaN
1073	1.000000	0.554817	7.37555e+06	-53789.1	1055.82	-29745.3	0.000000	0.000000	6.554939	-0.066252	NaN	0.000000	0.001568	0.001723	28.0834	0.004469	0.002017	2.215610	-2.035438	-166.212	-0.159078	0.553504	-0.508153	-0.509466	-0.066252	2.215610	-0.485726	-2.16595e+06	3.058814E-8	NaN
1073	1.000000	0.562835	7.37555e+06	-53789.1	1055.82	-29745.3	0.000000	0.000000	6.562958	-0.058853	NaN	0.000000	0.001567	0.001762	28.0833	0.061238	0.001889	32.4192	44.5595	-166.508	-0.007949	0.561505	-0.500134	-0.501465	-0.058853	32.4192	-0.498773	-3.29531e+06	1.785967E-8	NaN
1073	1.000000	0.570877	7.37555e+06	-53789.1	1055.82	-29745.3	0.000000	0.000000	6.571002	-0.006958	NaN	0.000000	0.001568	0.001733	28.0833	0.088990	0.001989	44.7515	-137.897	-167.148	0.018893	0.569502	-0.492092	-0.493468	-0.006958	44.7515	-0.491976	-2.64849e+06	2.627054E-9	NaN
1073	1.000000	0.578849	7.37555e+06	-53789.1	1055.82	-29745.3	0.000000	0.000000	6.578973	-0.043010	NaN	0.000000	0.001572	0.001764	28.0832	0.027305	0.002140	12.7576	-176.654	-161.968	-0.049470	0.577549	-0.484120	-0.485421	-0.043010	12.7576	-0.481592	-1.89588e+06	2.268597E-8	NaN
1073	1.000000	0.586827	7.37555e+06	-53789.1	1055.82	-29745.3	0.000000	0.000000	6.586951	-0.040721	NaN	0.000000	0.001498	0.001745	28.0831	0.030986	0.001938	15.9869	-83.5893	-165.959	-0.045278	0.585562	-0.476143	-0.477408	-0.040721	15.9869	-0.474232	-1.49535e+06	2.723205E-8	NaN
1073	1.000000	0.594882	7.37555e+06	-53789.1	1055.82	-29745.3	0.000000	0.000000	6.595007	-0.003228	NaN	0.000000	0.001541	0.001740	28.0836	0.037082	0.001901	19.5015	-16.4691	-167.162	-0.027166	0.593599	-0.468088	-0.469371	-0.003228	19.5015	-0.467964	-1.22137e+06	2.642641E-9	NaN
1073	1.000000	0.602860	7.37555e+06	-53789.1	1055.82	-29745.3	0.000000	0.000000	6.602984	-0.029988	NaN	0.000000	0.001580	0.001759	28.0831	0.071476	0.002057	34.7465	-23.21	-164.885	-0.059296	0.601577	-0.460110	-0.461393	-0.029988	34.7465	-0.459463	-927831	3.232065E-8	NaN
1073	1.000000	0.610874	7.37555e+06	-53789.1	1055.82	-29745.3	0.000000	0.000000	6.611000	0.031739	NaN	0.000000	0.001574	0.001724	28.0832	0.103593	0.001987	52.1469	-34.3564	-165.105	-0.009943	0.609562	-0.452096	-0.453408	0.031739	52.1469	-0.452552	-741784	-4.278739E-8	NaN
1073	1.000000	0.618867	7.37555e+06	-53789.1	1055.82	-29745.3	0.000000	0.000000	6.618989	-0.067084	NaN	0.000000	0.001560	0.001733	28.0831	0.036469	0.001932	18.8772	-63.6503	-166.056	0.028831	0.617598	-0.444103	-0.445372	-0.067084	18.8772	-0.441438	-517189	1.297085E-7	NaN
1073	1.000000	0.626879	7.37555e+06	-53789.1	1055.82	-29745.3	0.000000	0.000000	6.627004	-0.011118	NaN	0.000000	0.001614	0.001745	28.0831	0.059904	0.001967	30.4475	110.775	-167.67	-0.000205	0.625607	-0.436091	-0.437363	-0.011118	30.4475	-0.435817	-430818	2.580556E-8	NaN
1073	1.000000	0.634828	7.37555e+06	-53789.1	1055.82	-29745.3	0.000000	0.000000	6.634953	-0.011504	NaN	0.000000	0.001604	0.001747	28.0834	0.074481	0.001981	37.5964	-96.4498	-164.503	-0.062198	0.633566	-0.428142	-0.429404	-0.011504	37.5964	-0.427912	-333059	3.454024E-8	NaN
1073	1.000000	0.642874	7.37555e+06	-53789.1	1055.82	-29745.3	0.000000	0.000000	6.642998	-0.028365	NaN	0.000000	0.001573	0.001749	28.0831	0.090091	0.002006	44.912	-137.639	-164.294	0.007204	0.641546	-0.420096	-0.421424	-0.028365	44.912	-0.419622	-254131	1.116160E-7	NaN
1073	1.000000	0.650896	7.37555e+06	-53789.1	1055.82	-29745.3	0.000000	0.000000	6.651021	-0.023176	NaN	0.000000	0.001579	0.001709	28.0831	0.046852	0.002049	22.8628	-103.224	-165.291	-0.035666	0.649538	-0.412073	-0.413432	-0.023176	22.8628	-0.411313	-193674	1.196665E-7	NaN
1073	1.000000	0.658901	7.37555e+06	-53789.1	1055.82	-29745.3	0.000000	0.000000	6.659026	0.000208	NaN	0.000000	0.001601	0.001724	28.0831	0.142741	0.002169	65.8168	-57.3709	-164.089	0.050686	0.657619	-0.404069	-0.405351	0.000208	65.8168	-0.404071	-152762	-1.363278E-9	NaN
1073	1.000000	0.666850	7.37555e+06	-53789.1	1055.82	-29745.3	0.000000	0.000000	6.666974	-0.030999	NaN	0.000000	0.001612	0.001704	28.082	0.079585	0.002005	39.6993	34.0549	-168.094	-0.063010	0.665512	-0.396120	-0.397458	-0.030999	39.6993	-0.395534	-115414	2.685930E-7	NaN
1073	1.000000	0.674917	7.37555e+06	-53789.1	1055.82	-29745.3	0.000000	0.000000	6.675040	-0.053750	NaN	0.000000	0.001595	0.001724	28.0819	0.090262	0.001926	46.8714	48.3631	-162.776	0.010323	0.673600	-0.388053	-0.389370	-0.053750	46.8714	-0.387193	-87699.2	6.128871E-7	NaN
1073	1.000000	0.682898	7.37555e+06	-53789.1	1055.82	-29745.3	0.000000	0.000000	6.683021	-0.063165	NaN	0.000000	0.001609	0.001708	28.0819	0.138258	0.001897	72.8883	37.4419	-164.588	-0.033992	0.681592	-0.380072	-0.381378	-0.063165	72.8883	-0.379422	-67855.8	9.308689E-7	NaN
1073	1.000000	0.690887	7.37555e+06	-53789.1	1055.82	-29745.3	0.000000	0.000000	6.691013	0.030434	NaN	0.000000	0.001641	0.001691	28.0821	0.053169	0.002054	25.8912	72.3831	-163.218	-0.018759	0.689657	-0.372083	-0.373313	0.030434	25.8912	-0.372965	-54802.3	-5.553333E-7	NaN
1073	1.000000	0.698898	7.37555e+06	-53789.1	1055.82	-29745.3	0.000000	0.000000	6.699021	-0.041652	NaN	0.000000	0.001647	0.001714	28.082	0.071485	0.002011	35.5496	70.0672	-162.984	-0.060094	0.697600	-0.364072	-0.365370	-0.041652	35.5496	-0.363193	-39625.9	1.051127E-6	NaN
1073	1.000000	0.706913	7.37555e+06	-53789.1	1055.82	-29745.3	0.000000	0.000000	6.707037	-0.024793	NaN	0.000000	0.001647	0.001709	28.082	0.077960	0.002197	35.487	92.6471	-165.262	0.066856	0.705619	-0.356057	-0.357351	-0.024793	35.487	-0.355533	-30705.1	8.074451E-7	NaN
1073	1.000000	0.714882	7.37555e+06	-53789.1	1055.82	-29745.3	0.000000	0.000000	6.715008	0.021348	NaN	0.000000	0.001585	0.001691	28.0818	0.118585	0.002062	57.5189	115.471	-165.922	-0.023273	0.713571	-0.348088	-0.349398	0.021348	57.5189	-0.348366	-24170.3	-8.832208E-7	NaN
1073	1.000000	0.722931	7.37555e+06	-53789.1	1055.82	-29745.3	0.000000	0.000000	6.723055	-0.032159	NaN	0.000000	0.001561	0.001737	28.0817	0.066126	0.001941	34.0647	-61.8042	-164.518	-0.041637	0.721597	-0.340039	-0.341373	-0.032159	34.0647	-0.339331	-17856.5	1.800997E-6	NaN
1073	1.000000	0.730897	7.37555e+06	-53789.1	1055.82	-29745.3	0.000000	0.000000	6.731021	-0.036537	NaN	0.000000	0.001595	0.001718	28.0819	0.128142	0.002067	62.0071	-24.4397	-165.508	-0.046314	0.729669	-0.332073	-0.333301	-0.036537	62.0071	-0.331631	-13782.4	2.651005E-6	NaN
1073	1.000000	0.738918	7.37555e+06	-53789.1	1055.82	-29745.3	0.000000	0.000000	6.739042	-0.048607	NaN	0.000000	0.001579	0.001707	28.082	0.090621	0.002002	45.2607	155.026	-167.353	-0.070879	0.737629	-0.324051	-0.325341	-0.048607	45.2607	-0.323246	-10384.2	4.680829E-6	NaN
1073	1.000000	0.746921	7.37555e+06	-53789.1	1055.82	-29745.3	0.000000	0.000000	6.747043	-0.068442	NaN	0.000000	0.001553	0.001686	28.0823	0.088965	0.002003	44.421	-94.5866	-166.144	-0.102623	0.745661	-0.316049	-0.317309	-0.068442	44.421	-0.314894	-7823.08	8.748682E-6	NaN
1073	1.000000	0.754920	7.37555e+06	-53789.1	1055.82	-29745.3	0.000000	0.000000	6.755046	0.017955	NaN	0.000000	0.001577	0.001717	28.0817	0.085228	0.002048	41.6173	67.4565	-164.759	0.047403	0.753592	-0.308050	-0.309378	0.017955	41.6173	-0.308374	-6265.79	-2.865603E-6	NaN
1073	1.000000	0.762929	7.37555e+06	-53789.1	1055.82	-29745.3	0.000000	0.000000	6.763057	0.074609	NaN	0.000000	0.001516	0.001715	28.0818	0.041894	0.002044	20.4912	132.697	-164.951	0.100767	0.761608	-0.300041	-0.301362	0.074609	20.4912	-0.302772	-5174.42	-1.441886E-5	NaN
1073	1.000000	0.770937	7.37555e+06	-53789.1	1055.82	-29745.3	0.000000	0.000000	6.771065	0.074433	NaN	0.000000	0.001549	0.001725	28.0816	0.048215	0.002035	23.6926	-65.7271	-163.307	0.052943	0.769613	-0.292033	-0.293357	0.074433	23.6926	-0.294389	-3881.19	-1.917787E-5	NaN
1073	1.000000	0.778928	7.37555e+06	-53789.1	1055.82	-29745.3	0.000000	0.000000	6.779052	-0.020135	NaN	0.000000	0.001549	0.001714	28.0817	0.063688	0.002064	30.8632	-17.895	-168.153	0.052479	0.777593	-0.284042	-0.285377	-0.020135	30.8632	-0.283553	-2669.93	7.541257E-6	NaN
1073	1.000000	0.786923	7.37555e+06	-53789.1	1055.82	-29745.3	0.000000	0.000000	6.787050	0.055532	NaN	0.000000	0.001563	0.001694	28.082	0.014965	0.001931	7.750469	14.503	-169.54	-0.037228	0.785624	-0.276047	-0.277346	0.055532	7.750469	-0.281421	-2479.68	-2.239467E-5	NaN
1073	1.000000	0.794939	7.37555e+06	-53789.1	1055.82	-29745.3	0.000000	0.000000	6.795063	-0.035469	NaN	0.000000	0.001536	0.001734	28.0817	0.081341	0.002002	40.6393	128.558	-166.59	-0.029768	0.793680	-0.268031	-0.269290	-0.035469	40.6393	-0.267376	-1519.22	2.334684E-5	NaN
1073	1.000000	0.802936	7.37555e+06	-53789.1	1055.82	-29745.3	0.000000	0.000000	6.803060	-0.013858	NaN	0.000000	0.001529	0.001717	28.0835	0.035217	0.001857	18.9621	157.134	-167.003	0.002022	0.801583	-0.260034	-0.261387	-0.013858	18.9621	-0.259486	-1150.9	1.204097E-5	NaN
1073	1.000000	0.810945	7.37555e+06	-53789.1	1055.82	-29745.3	0.000000	0.000000	6.811069	-0.013874	NaN	0.000000	0.001537	0.001651	28.0831	0.072159	0.001860	38.7927	151.401	-163.91	-0.007350	0.809659	-0.252025	-0.253311	-0.013874	38.7927	-0.251757	-875.215	1.585200E-5	NaN
1073	1.000000	0.818936	7.37555e+06	-53789.1	1055.82	-29745.3	0.000000	0.000000	6.819059	-0.045252	NaN	0.000000	0.001510	0.001698	28.0829	0.099983	0.002047	48.8365	-151.866	-166.903	0.008911	0.817713	-0.244034	-0.245257	-0.045252	48.8365	-0.243339	-648.065	6.982567E-5	NaN
1073	1.000000	0.826934	7.37555e+06	-53789.1	1055.82	-29745.3	0.000000	0.000000	6.827058	-0.019369	NaN	0.000000	0.001511	0.001719	28.083	0.084914	0.002098	40.4822	91.494	-162.901	-0.080086	0.825639	-0.236036	-0.237330	-0.019369	40.4822	-0.235677	-491.899	3.937528E-5	NaN
1073	1.000000	0.834943	7.37555e+06	-53789.1	1055.82	-29745.3	0.000000	0.000000	6.835064	-0.084679	NaN	0.000000	0.001531	0.001719	28.0829	0.066770	0.002015	33.1369	-149.655	-161.587	-0.038346	0.833682	-0.228027	-0.229288	-0.084679	33.1369	-0.226110	-347.505	0.000244	NaN
1073	1.000000	0.842948	7.37555e+06	-53789.1	1055.82	-29745.3	0.000000	0.000000	6.843074	0.026476	NaN	0.000000	0.001513	0.001718	28.0836	0.085454	0.001989	42.9708	-87.8304	-166.762	-0.010344	0.841679	-0.220022	-0.221291	0.026476	42.9708	-0.220484	-282.755	-9.363725E-5	NaN
1073	1.000000	0.850967	7.37555e+06	-53789.1	1055.82	-29745.3	0.000000	0.000000	6.851091	-0.027039	NaN	0.000000	0.001520	0.001756	28.0832	0.112030	0.002097	53.4254	134.195	-163.241	-0.110162	0.849648	-0.212002	-0.213322	-0.027039	53.4254	-0.211623	-203.737	0.000133	NaN
1073	1.000000	0.858952	7.37555e+06	-53789.1	1055.82	-29745.3	0.000000	0.000000	6.859075	-0.039385	NaN	0.000000	0.001537	0.001732	28.0832	0.051486	0.001915	26.8925	-166.369	-162.043	0.009002	0.857654	-0.204018	-0.205316	-0.039385	26.8925	-0.202920	-147.086	0.000268	NaN
1073	1.000000	0.866980	7.37555e+06	-53789.1	1055.82	-29745.3	0.000000	0.000000	6.867102	-0.082003	NaN	0.000000	0.001545	0.001739	28.083	0.076943	0.001996	38.5395	-82.8405	-162.03	-0.085968	0.865598	-0.195990	-0.197372	-0.082003	38.5395	-0.194394	-106.452	0.000770	NaN
1073	1.000000	0.874971	7.37555e+06	-53789.1	1055.82	-29745.3	0.000000	0.000000	6.875096	-0.005058	NaN	0.000000	0.001563	0.001694	28.0832	0.080351	0.001955	41.1004	-175.56	-166.412	0.043821	0.873652	-0.187999	-0.189318	-0.005058	41.1004	-0.187907	-82.9839	6.095740E-5	NaN
1073	1.000000	0.882998	7.37555e+06	-53789.1	1055.82	-29745.3	0.000000	0.000000	6.883122	-0.043770	NaN	0.000000	0.001557	0.001736	28.0833	0.061382	0.001987	30.8947	102.82	-162.018	-0.010802	0.881671	-0.179971	-0.181299	-0.043770	30.8947	-0.178909	-58.4632	0.000749	NaN
1073	1.000000	0.890962	7.37555e+06	-53789.1	1055.82	-29745.3	0.000000	0.000000	6.891087	-0.007146	NaN	0.000000	0.001572	0.001712	28.083	0.149715	0.001960	76.3702	62.2214	-165.044	0.061429	0.889665	-0.172007	-0.173304	-0.007146	76.3702	-0.171937	-44.3796	0.000161	NaN
1073	1.000000	0.898989	7.37555e+06	-53789.1	1055.82	-29745.3	0.000000	0.000000	6.899114	-0.024175	NaN	0.000000	0.001551	0.001716	28.0833	0.091176	0.001978	46.1066	171.178	-164.213	0.057961	0.897673	-0.163980	-0.165297	-0.024175	46.1066	-0.163587	-31.7288	0.000762	NaN
1073	1.000000	0.906985	7.37555e+06	-53789.1	1055.82	-29745.3	0.000000	0.000000	6.907111	0.034787	NaN	0.000000	0.001550	0.001702	28.0831	0.037223	0.002008	18.5332	-44.0207	-164.551	0.033560	0.905661	-0.155985	-0.157309	0.034787	18.5332	-0.157393	-24.6323	-0.001412	NaN
1073	1.000000	0.914951	7.37555e+06	-53789.1	1055.82	-29745.3	0.000000	0.000000	6.915072	-0.085652	NaN	0.000000	0.001513	0.001715	28.083	0.042194	0.001852	22.7767	75.6074	-166.167	-0.043604	0.913661	-0.148019	-0.149309	-0.085652	22.7767	-0.145199	-14.7857	0.005793	NaN
1073	1.000000	0.922996	7.37555e+06	-53789.1	1055.82	-29745.3	0.000000	0.000000	6.923121	-0.003463	NaN	0.000000	0.001534	0.001677	28.083	0.016617	0.002014	8.248947	48.487	-160.009	-0.017522	0.921635	-0.139973	-0.141335	-0.003463	8.248947	-0.139659	-11.656	0.000297	NaN
1073	1.000000	0.930961	7.37555e+06	-53789.1	1055.82	-29745.3	0.000000	0.000000	6.931081	-0.111734	NaN	0.000000	0.001517	0.001703	28.0831	0.061157	0.002075	29.4668	116.849	-165.359	-0.080465	0.929736	-0.132009	-0.133234	-0.111734	29.4668	-0.129165	-7.341206	0.015220	NaN
1073	1.000000	0.939000	7.37555e+06	-53789.1	1055.82	-29745.3	0.000000	0.000000	6.939123	-0.060685	NaN	0.000000	0.001551	0.001723	28.0821	0.042005	0.002113	19.8786	51.9405	-163.791	-0.017884	0.937669	-0.123969	-0.125301	-0.060685	19.8786	-0.121680	-5.222398	0.011620	NaN
1073	1.000000	0.946987	7.37555e+06	-53789.1	1055.82	-29745.3	0.000000	0.000000	6.947109	-0.058946	NaN	0.000000	0.001549	0.001661	28.082	0.084277	0.002033	41.4511	10.3263	-164.032	-0.057526	0.945703	-0.115983	-0.117267	-0.058946	41.4511	-0.114917	-3.805276	0.015491	NaN
1073	1.000000	0.955017	7.37555e+06	-53789.1	1055.82	-29745.3	0.000000	0.000000	6.955142	-0.011948	NaN	0.000000	0.001550	0.001680	28.0821	0.019813	0.002013	9.840378	147.957	-167.224	0.005235	0.953640	-0.107953	-0.109330	-0.011948	9.840378	-0.107042	-2.600526	0.004595	NaN
1073	1.000000	0.963017	7.37555e+06	-53789.1	1055.82	-29745.3	0.000000	0.000000	6.963144	0.040382	NaN	0.000000	0.001551	0.001679	28.0818	0.013047	0.002036	6.406884	117.193	-162.129	0.029566	0.961685	-0.099953	-0.101285	0.040382	6.406884	-0.104680	-2.313459	-0.017455	NaN
1073	1.000000	0.970997	7.37555e+06	-53789.1	1055.82	-29745.3	0.000000	0.000000	6.971121	-0.012169	NaN	0.000000	0.001547	0.001725	28.082	0.016671	0.002090	7.977072	-157.26	-163.828	0.033235	0.969672	-0.091973	-0.093298	-0.012169	7.977072	-0.090829	-1.130369	0.010766	NaN
1073	1.000000	0.979011	7.37555e+06	-53789.1	1055.82	-29745.3	0.000000	0.000000	6.979135	-0.035081	NaN	0.000000	0.001530	0.001685	28.0819	0.088209	0.001975	44.6672	173.666	-166.606	-0.015422	0.977731	-0.083958	-0.085239	-0.035081	44.6672	-0.083369	-0.749904	0.046780	NaN
1073	1.000000	0.986996	7.37555e+06	-53789.1	1055.82	-29745.3	0.000000	0.000000	6.987116	-0.123524	NaN	0.000000	0.001553	0.001668	28.0819	0.057394	0.001931	29.7211	-82.4931	-163.075	-0.114361	0.985708	-0.075974	-0.077262	-0.123524	29.7211	-0.072857	-0.406129	0.304150	NaN
1073	1.000000	0.995023	7.37555e+06	-53789.1	1055.82	-29745.3	0.000000	0.000000	6.995146	-0.042703	NaN	0.000000	0.001552	0.001677	28.082	0.031710	0.002160	14.6792	-172.401	-167.618	-0.022211	0.993722	-0.067947	-0.069247	-0.042703	14.6792	-0.065766	-0.261671	0.163192	NaN
1073	1.000000	1.003027	7.37555e+06	-53789.1	1055.82	-29745.3	0.000000	0.000000	7.003152	-0.004683	NaN	0.000000	0.001536	0.001673	28.0818	0.202906	0.001859	109.13	-142.981	-169.207	-0.043320	1.001728	-0.059943	-0.061242	-0.004683	109.13	-0.059911	-0.179032	0.026158	NaN
1073	1.000000	1.011000	7.37555e+06	-53789.1	1055.82	-29745.3	0.000000	0.000000	7.011126	0.019019	NaN	0.000000	0.001557	0.001688	28.0821	0.102836	0.001970	52.1956	93.2383	-163.599	-0.012203	1.009714	-0.051970	-0.053256	0.019019	52.1956	-0.052243	-0.106603	-0.178407	NaN
1073	1.000000	1.019014	7.37555e+06	-53789.1	1055.82	-29745.3	0.000000	0.000000	7.019138	-0.004500	NaN	0.000000	0.001544	0.001707	28.0818	0.030320	0.002163	14.02	-38.0745	-162.523	0.091282	1.017724	-0.043956	-0.045246	-0.004500	14.02	-0.043716	-0.058710	0.076640	NaN
1073	1.000000	1.027009	7.37555e+06	-53789.1	1055.82	-29745.3	0.000000	0.000000	7.027133	-0.037571	NaN	0.000000	0.001578	0.001709	28.0817	0.021079	0.001949	10.8143	-50.1357	-165.901	-0.022168	1.025700	-0.035960	-0.037270	-0.037571	10.8143	-0.033355	-0.028668	1.310577	NaN
1073	1.000000	1.035036	7.37555e+06	-53789.1	1055.82	-29745.3	0.000000	0.000000	7.035157	-0.089811	NaN	0.000000	0.001555	0.001685	28.0819	0.083217	0.001931	43.1053	62.7337	-166.46	-0.007181	1.033722	-0.027934	-0.029248	-0.089811	43.1053	-0.026371	-0.018333	4.898742	NaN
1073	1.000000	1.043021	7.37555e+06	-53789.1	1055.82	-29745.3	0.000000	0.000000	7.043145	-0.013561	NaN	0.000000	0.001550	0.001717	28.0817	0.074140	0.001954	37.9466	-37.5917	-163.287	0.001906	1.041779	-0.019949	-0.021191	-0.013561	37.9466	-0.019681	-0.012328	1.100011	NaN
1073	1.000000	1.051068	7.37555e+06	-53789.1	1055.82	-29745.3	0.000000	0.000000	7.051193	-0.003089	NaN	0.000000	0.001541	0.001676	28.0819	0.138512	0.001950	71.0379	6.762669	-164.201	-0.046192	1.049748	-0.011902	-0.013222	-0.003089	71.0379	-0.011870	-0.007454	0.414368	NaN
1073	1.000000	1.059048	7.37555e+06	-53789.1	1055.82	-29745.3	0.000000	0.000000	7.059172	-0.034293	NaN	0.000000	0.001571	0.001678	28.0817	0.144731	0.001915	75.5901	-12.979	-161.736	-0.079783	1.057759	-0.003922	-0.005210	-0.034293	75.5901	-0.003582	-0.002506	13.6839	NaN
1073	1.000000	1.067051	7.37555e+06	-53789.1	1055.82	-29745.3	0.000000	0.000000	7.067452	6.692008	NaN	0.000000	0.001550	0.001698	28.0818	6.735397	0.001677	4016.56	10.4903	-171.497	5.116726	1.065751	0.004082	0.002781	6.692008	4016.56	0.002832	0.002239	2988.91	77554.3
1073	2.000000	1.070639	7.37555e+06	-53789.1	1055.82	-29745.3	0.000000	0.000000	7.071171	9.877060	NaN	0.000000	0.001560	0.001697	28.0837	10.1495	0.001665	6095.3	6.859593	-175.032	9.400727	1.070337	0.007669	0.007367	9.877060	6095.3	0.006454	0.005500	1795.85	75091.2
1073	2.000000	1.072616	7.37555e+06	-53789.1	1055.82	-29745.3	0.000000	0.000000	7.073244	12.2147	NaN	0.000000	0.001553	0.001672	28.083	12.0681	0.001746	6913.38	6.407273	-173.175	11.5999	1.072332	0.009646	0.009363	12.2147	6913.38	0.008321	0.007375	1656.24	73550.4
1073	2.000000	1.074561	7.37555e+06	-53789.1	1055.82	-29745.3	0.000000	0.000000	7.075396	17.2554	NaN	0.000000	0.001550	0.001693	28.0832	13.3627	0.001666	8021.81	-0.967677	-167.005	15.5502	1.074195	0.011591	0.011225	17.2554	8021.81	0.009978	0.009157	1884.43	76590
1073	2.000000	1.076598	7.37555e+06	-53789.1	1055.82	-29745.3	0.000000	0.000000	7.077500	18.8792	NaN	0.000000	0.001570	0.001666	28.083	16.6149	0.001810	9178.83	8.375865	-175.613	18.3614	1.076241	0.013629	0.013272	18.8792	9178.83	0.012086	0.011593	1628.47	77885.8
1073	2.000000	1.078620	7.37555e+06	-53789.1	1055.82	-29745.3	0.000000	0.000000	7.079538	19.2867	NaN	0.000000	0.001545	0.001669	28.0831	18.0251	0.001894	9516.58	8.889257	-176.259	18.2712	1.078241	0.015650	0.015271	19.2867	9516.58	0.014130	0.014142	1363.74	73112.5
1073	2.000000	1.080572	7.37555e+06	-53789.1	1055.82	-29745.3	0.000000	0.000000	7.081646	23.0624	NaN	0.000000	0.001507	0.001683	28.0832	19.7956	0.001705	11609.3	4.834051	-175.027	22.1035	1.080229	0.017602	0.017259	23.0624	11609.3	0.016112	0.016797	1373	81839.4
1073	2.000000	1.082513	7.37555e+06	-53789.1	1055.82	-29745.3	0.000000	0.000000	7.083719	26.2847	NaN	0.000000	0.001615	0.001703	28.0834	22.5419	0.001848	12194.9	8.574976	179.693	24.3706	1.082210	0.019543	0.019240	26.2847	12194.9	0.017927	0.019389	1355.67	80016.4
1073	2.000000	1.084558	7.37555e+06	-53789.1	1055.82	-29745.3	0.000000	0.000000	7.085922	30.1074	NaN	0.000000	0.001617	0.001692	28.0831	23.2878	0.001952	11927.4	6.885032	-175.988	30.022	1.084298	0.021589	0.021328	30.1074	11927.4	0.019695	0.022066	1364.43	73359.5
1073	2.000000	1.086585	7.37555e+06	-53789.1	1055.82	-29745.3	0.000000	0.000000	7.088090	33.5378	NaN	0.000000	0.001607	0.001691	28.0829	24.8053	0.001768	14028.5	2.225704	-174.333	33.8442	1.086197	0.023615	0.023227	33.5378	14028.5	0.021822	0.025487	1315.87	80283.3
1073	2.000000	1.088536	7.37555e+06	-53789.1	1055.82	-29745.3	0.000000	0.000000	7.090151	36.2324	NaN	0.000000	0.001683	0.001703	28.0834	27.807	0.001886	14740.3	8.778676	178.68	34.6546	1.088279	0.025566	0.025309	36.2324	14740.3	0.023722	0.028732	1261.04	79450.1
1073	2.000000	1.090559	7.37555e+06	-53789.1	1055.82	-29745.3	0.000000	0.000000	7.092571	45.8753	NaN	0.000000	0.001638	0.001726	28.0849	29.2352	0.001730	16899.2	5.513261	-179.702	46.3705	1.090170	0.027589	0.027200	45.8753	16899.2	0.025553	0.032030	1432.25	86269.7
1073	2.000000	1.092519	7.37555e+06	-53789.1	1055.82	-29745.3	0.000000	0.000000	7.094533	45.9151	NaN	0.000000	0.001623	0.001690	28.0831	31.3015	0.001782	17565.4	4.658783	-179.515	44.4392	1.092276	0.029549	0.029306	45.9151	17565.4	0.027589	0.035894	1279.19	84707.5
1073	2.000000	1.094494	7.37555e+06	-53789.1	1055.82	-29745.3	0.000000	0.000000	7.096735	51.4477	NaN	0.000000	0.001598	0.001755	28.0834	32.0791	0.001692	18959	4.067046	-179.845	49.7672	1.094204	0.031524	0.031234	51.4477	18959	0.029489	0.039692	1296.19	86943.8
1073	2.000000	1.096541	7.37555e+06	-53789.1	1055.82	-29745.3	0.000000	0.000000	7.099101	59.1838	NaN	0.000000	0.001615	0.001701	28.0831	35.1495	0.001757	20004.4	9.555570	175.589	59.3455	1.096131	0.033571	0.033162	59.1838	20004.4	0.031353	0.043594	1357.62	87536.1
1073	2.000000	1.098563	7.37555e+06	-53789.1	1055.82	-29745.3	0.000000	0.000000	7.101301	63.5233	NaN	0.000000	0.001629	0.001702	28.0832	36.0448	0.001876	19210.5	6.821550	-179.248	64.4452	1.098115	0.035593	0.035146	63.5233	19210.5	0.033113	0.047443	1338.94	80579.8
1073	2.000000	1.100546	7.37555e+06	-53789.1	1055.82	-29745.3	0.000000	0.000000	7.103445	67.4276	NaN	0.000000	0.001614	0.001723	28.0833	39.2074	0.001733	22626	10.062	172.756	68.1659	1.100257	0.037576	0.037287	67.4276	22626	0.035341	0.052543	1283.28	90182.3
1073	2.000000	1.102488	7.37555e+06	-53789.1	1055.82	-29745.3	0.000000	0.000000	7.105661	74.0931	NaN	0.000000	0.001625	0.001751	28.0832	42.1452	0.001937	21761.7	9.574611	174.844	72.6654	1.102202	0.039518	0.039232	74.0931	21761.7	0.036965	0.056419	1313.26	83705.1
1073	2.000000	1.104476	7.37555e+06	-53789.1	1055.82	-29745.3	0.000000	0.000000	7.108102	85.1032	NaN	0.000000	0.001642	0.001717	28.0818	43.5913	0.001754	24850.8	8.304159	174.953	82.769	1.104086	0.041507	0.041116	85.1032	24850.8	0.038938	0.061313	1388.01	91693.2
1073	2.000000	1.106488	7.37555e+06	-53789.1	1055.82	-29745.3	0.000000	0.000000	7.110245	88.2904	NaN	0.000000	0.001636	0.001718	28.0817	45.1901	0.001735	26047	5.672723	176.436	88.8218	1.106223	0.043518	0.043254	88.2904	26047	0.040976	0.066576	1326.17	92230.2
1073	2.000000	1.108501	7.37555e+06	-53789.1	1055.82	-29745.3	0.000000	0.000000	7.112699	99.0136	NaN	0.000000	0.001665	0.001708	28.0818	47.4765	0.001823	26046.9	5.475457	177.188	97.8928	1.108192	0.045531	0.045222	99.0136	26046.9	0.042680	0.071138	1391.86	89223.5
1073	2.000000	1.110509	7.37555e+06	-53789.1	1055.82	-29745.3	0.000000	0.000000	7.114996	106.033	NaN	0.000000	0.001642	0.001715	28.0826	48.4866	0.001827	26535.1	1.093888	-178.864	105.322	1.110289	0.047539	0.047320	106.033	26535.1	0.044542	0.076293	1389.82	87770.9
1073	2.000000	1.112490	7.37555e+06	-53789.1	1055.82	-29745.3	0.000000	0.000000	7.117262	112.997	NaN	0.000000	0.001610	0.001744	28.082	51.8018	0.001883	27514.1	3.856038	177.91	110.641	1.112204	0.049520	0.049234	112.997	27514.1	0.046440	0.081727	1382.63	87931.9
1073	2.000000	1.114500	7.37555e+06	-53789.1	1055.82	-29745.3	0.000000	0.000000	7.119672	122.708	NaN	0.000000	0.001596	0.001714	28.082	51.9549	0.001636	31759.1	5.795218	175.341	120.935	1.114157	0.051530	0.051187	122.708	31759.1	0.048632	0.088232	1390.73	97684.8
1073	2.000000	1.116414	7.37555e+06	-53789.1	1055.82	-29745.3	0.000000	0.000000	7.121734	126.291	NaN	0.000000	0.001607	0.001748	28.0819	54.4313	0.001833	29691.1	4.014559	177.04	120.898	1.116121	0.053444	0.053152	126.291	29691.1	0.050254	0.093200	1355.05	88856.8
1073	2.000000	1.118503	7.37555e+06	-53789.1	1055.82	-29745.3	0.000000	0.000000	7.124430	141.054	NaN	0.000000	0.001591	0.001691	28.0817	54.7691	0.001747	31354.2	1.127083	-178.993	141.29	1.118058	0.055533	0.055088	141.054	31354.2	0.052159	0.099204	1421.86	90950.3
1073	2.000000	1.120447	7.37555e+06	-53789.1	1055.82	-29745.3	0.000000	0.000000	7.126534	144.934	NaN	0.000000	0.001585	0.001737	28.0819	57.4678	0.001676	34278.7	4.299636	175.055	141.863	1.120177	0.057477	0.057207	144.934	34278.7	0.054306	0.106187	1364.89	96108.4
1073	2.000000	1.122535	7.37555e+06	-53789.1	1055.82	-29745.3	0.000000	0.000000	7.129042	155.161	NaN	0.000000	0.001641	0.001664	28.082	60.7342	0.001838	33049.3	2.897382	177.52	155.122	1.122209	0.059565	0.059239	155.161	33049.3	0.056044	0.112005	1385.3	90222.7
1073	2.000000	1.124488	7.37555e+06	-53789.1	1055.82	-29745.3	0.000000	0.000000	7.131421	165.528	NaN	0.000000	0.001631	0.001740	28.0819	61.4693	0.001701	36142	3.631318	175.746	165.055	1.124180	0.061518	0.061210	165.528	36142	0.058083	0.119024	1390.71	95712.2
1073	2.000000	1.126420	7.37555e+06	-53789.1	1055.82	-29745.3	0.000000	0.000000	7.133720	174.432	NaN	0.000000	0.001628	0.001700	28.0818	64.3265	0.001785	36045	4.756416	175.833	171.065	1.126000	0.063450	0.063030	174.432	36045	0.059821	0.125167	1393.6	93083.7
1073	2.000000	1.128452	7.37555e+06	-53789.1	1055.82	-29745.3	0.000000	0.000000	7.136346	188.881	NaN	0.000000	0.001634	0.001709	28.0817	66.2286	0.001778	37255.6	4.120974	175.367	185.928	1.128147	0.065482	0.065177	188.881	37255.6	0.061680	0.131900	1432	93722
1073	2.000000	1.130548	7.37555e+06	-53789.1	1055.82	-29745.3	0.000000	0.000000	7.138582	192.277	NaN	0.000000	0.001650	0.001728	28.0816	67.8168	0.001785	37999.5	6.747291	173.204	194.909	1.130123	0.067578	0.067153	192.277	37999.5	0.063783	0.139722	1376.14	92879.1
1073	2.000000	1.132401	7.37555e+06	-53789.1	1055.82	-29745.3	0.000000	0.000000	7.141044	207.076	NaN	0.000000	0.001652	0.001729	28.0818	70.5571	0.001800	39189.7	3.344657	175.19	202.647	1.132129	0.069431	0.069160	207.076	39189.7	0.065468	0.146143	1416.94	93660.2
1073	2.000000	1.134472	7.37555e+06	-53789.1	1055.82	-29745.3	0.000000	0.000000	7.143674	220.679	NaN	0.000000	0.001627	0.001716	28.082	70.4009	0.001849	38082.8	8.345081	172.102	221.148	1.134140	0.071502	0.071170	220.679	38082.8	0.067156	0.152713	1445.06	89035.8
1073	2.000000	1.136513	7.37555e+06	-53789.1	1055.82	-29745.3	0.000000	0.000000	7.145756	221.675	NaN	0.000000	0.001664	0.001735	28.082	73.5949	0.001848	39821.2	4.497432	175.136	222.231	1.136117	0.073543	0.073147	221.675	39821.2	0.069368	0.161526	1372.37	90524.4
1073	2.000000	1.138530	7.37555e+06	-53789.1	1055.82	-29745.3	0.000000	0.000000	7.148356	235.839	NaN	0.000000	0.001644	0.001724	28.0832	75.7065	0.001801	42033.6	6.329556	173.193	238.276	1.138154	0.075560	0.075184	235.839	42033.6	0.071352	0.169632	1390.3	93242.9
1073	2.000000	1.140503	7.37555e+06	-53789.1	1055.82	-29745.3	0.000000	0.000000	7.150656	243.799	NaN	0.000000	0.001590	0.001688	28.0829	76.7919	0.001749	43895.1	3.463010	175.292	246.882	1.140151	0.077533	0.077182	243.799	43895.1	0.073367	0.178055	1369.24	95041.5
1073	2.000000	1.142418	7.37555e+06	-53789.1	1055.82	-29745.3	0.000000	0.000000	7.153147	257.783	NaN	0.000000	0.001550	0.001706	28.0828	80.412	0.001824	44082.6	2.836258	175.728	256	1.142185	0.079448	0.079215	257.783	44082.6	0.075063	0.185290	1391.25	93565.3
1073	2.000000	1.144522	7.37555e+06	-53789.1	1055.82	-29745.3	0.000000	0.000000	7.155805	271.273	NaN	0.000000	0.001598	0.001729	28.0831	82.1907	0.001800	45669.2	12.1887	166.99	273.954	1.144041	0.081552	0.081071	271.273	45669.2	0.077097	0.194150	1397.23	94695.1
1073	2.000000	1.146538	7.37555e+06	-53789.1	1055.82	-29745.3	0.000000	0.000000	7.158163	279.599	NaN	0.000000	0.001583	0.001704	28.0831	85.5525	0.001787	47863.8	8.846686	169.155	282.3	1.146105	0.083568	0.083135	279.599	47863.8	0.079187	0.203453	1374.27	96950
1073	2.000000	1.148483	7.37555e+06	-53789.1	1055.82	-29745.3	0.000000	0.000000	7.160749	295.165	NaN	0.000000	0.001614	0.001682	28.0828	87.4206	0.001897	46093.9	4.782130	173.159	293.841	1.148108	0.085513	0.085139	295.165	46093.9	0.080710	0.210365	1403.11	91818.5
1073	2.000000	1.150559	7.37555e+06	-53789.1	1055.82	-29745.3	0.000000	0.000000	7.163226	304.939	NaN	0.000000	0.001594	0.001708	28.0829	88.8276	0.001812	49024.7	6.666717	170.853	309.718	1.150189	0.087589	0.087219	304.939	49024.7	0.082924	0.220596	1382.34	95365.1
1073	2.000000	1.152421	7.37555e+06	-53789.1	1055.82	-29745.3	0.000000	0.000000	7.165389	312.243	NaN	0.000000	0.001582	0.001724	28.0828	90.112	0.001764	51079.4	1.722276	174.938	309.37	1.152312	0.089451	0.089342	312.243	51079.4	0.084867	0.229766	1358.96	97359.1
1073	2.000000	1.154562	7.37555e+06	-53789.1	1055.82	-29745.3	0.000000	0.000000	7.168190	328.285	NaN	0.000000	0.001575	0.001716	28.083	90.8351	0.001813	50092.6	0.546656	177.213	334.658	1.154189	0.091592	0.091219	328.285	50092.6	0.086677	0.238467	1376.65	93719.9
1073	2.000000	1.156387	7.37555e+06	-53789.1	1055.82	-29745.3	0.000000	0.000000	7.170839	348.307	NaN	0.000000	0.001589	0.001673	28.0829	93.5911	0.001766	52996.3	3.896142	172.735	343.964	1.156124	0.093417	0.093155	348.307	52996.3	0.088488	0.247321	1408.32	97361.8
1073	2.000000	1.158476	7.37555e+06	-53789.1	1055.82	-29745.3	0.000000	0.000000	7.173646	365.785	NaN	0.000000	0.001565	0.001731	28.0827	96.2237	0.001779	54080.9	6.576066	170.695	364.167	1.158013	0.095506	0.095043	365.785	54080.9	0.090433	0.256999	1423.29	97465.6
1073	2.000000	1.160461	7.37555e+06	-53789.1	1055.82	-29745.3	0.000000	0.000000	7.176497	386.82	NaN	0.000000	0.001523	0.001731	28.0831	97.0868	0.001690	57431.5	5.297940	171.102	386.878	1.160126	0.097491	0.097156	386.82	57431.5	0.092440	0.267165	1447.87	101516
1073	2.000000	1.162478	7.37555e+06	-53789.1	1055.82	-29745.3	0.000000	0.000000	7.178793	393.604	NaN	0.000000	0.001547	0.001732	28.0828	100.99	0.001870	53994.5	5.716526	171.005	395.279	1.162272	0.099509	0.099302	393.604	53994.5	0.094041	0.275412	1429.15	94000.8
1073	2.000000	1.164584	7.37555e+06	-53789.1	1055.82	-29745.3	0.000000	0.000000	7.181277	402.8	NaN	0.000000	0.001601	0.001726	28.0829	101.803	0.001862	54687	6.755931	170.558	412.021	1.164103	0.101614	0.101133	402.8	54687	0.096090	0.286131	1407.75	93406
1073	2.000000	1.166282	7.37555e+06	-53789.1	1055.82	-29745.3	0.000000	0.000000	7.184079	429.632	NaN	0.000000	0.001604	0.001710	28.0825	102.423	0.001843	55575	2.325665	174.956	420.324	1.165988	0.103312	0.103018	429.632	55575	0.097514	0.293694	1462.85	93692.4
1073	2.000000	1.167409	7.37555e+06	-53789.1	1055.82	-29745.3	0.000000	0.000000	7.185095	426.927	NaN	0.000000	0.001584	0.001721	28.0829	104.51	0.001738	60148.6	5.802737	169.691	424.318	1.167289	0.104439	0.104319	426.927	60148.6	0.099116	0.302312	1412.21	99947.3