File: remote_trans/data/nanoindenter/0828-1/data/Data_2025-08-06,11h17m57s/2025-07-22_16-23-58_1_384.txt
2025-07-22, 16:23:58, 1
Index	Phase	Displacement	Time	Pos X	Pos Y	Pos Z	Rot A	Rot B	Piezo Z	Force A	Force B	Gripper	Voltage A	Voltage B	Temperature	Amplitude force	Amplitude pos	Stiffness	Phase shift	Phase excitation	Force A raw	Displacement raw	HMax	HMax raw	Real Force	Real Stiffness	Contact Depth	Area	Hardness	Reduced Mod.
[#]	[#]	[um]	[s]	[um]	[um]	[um]	[m°]	[m°]	[um]	[uN]	[uN]	[V]	[V]	[V]	[°C]	[uN]	[um]	[N/m]	[°]	[°]	[uN]	[um]	[um]	[um]	[uN]	[N/m]	[um]	[um^2]	[MPa]	[MPa]
384	1.000000	0.002858	7.36882e+06	-57839.1	955.818	-29739.7	0.000000	0.000000	6.002792	-0.026636	NaN	0.000000	0.001570	0.001571	28.0789	0.025176	0.000946	26.6104	-17.0762	-163.425	0.011018	0.001680	-1.322391	-1.323568	-0.026636	26.6104	-1.321640	-4.650652E+17	5.727393E-20	NaN
384	1.000000	0.012939	7.36882e+06	-57839.1	955.818	-29739.7	0.000000	0.000000	6.012877	0.052525	NaN	0.000000	0.001590	0.001509	28.0784	0.031107	0.001187	26.2119	-156.162	19.1502	0.053371	0.011509	-1.312310	-1.313740	0.052525	26.2119	-1.313812	-3.655502E+17	-1.436862E-19	NaN
384	1.000000	0.022812	7.36882e+06	-57839.1	955.819	-29739.7	0.000000	0.000000	6.022748	0.020908	NaN	0.000000	0.001574	0.001567	28.0788	0.087803	0.001594	55.0683	166.154	-162.86	0.038221	0.021530	-1.302437	-1.303719	0.020908	55.0683	-1.302721	-2.598732E+17	-8.045390E-20	NaN
384	1.000000	0.032823	7.36882e+06	-57839.1	955.818	-29739.7	0.000000	0.000000	6.032760	0.018227	NaN	0.000000	0.001559	0.001577	28.0788	0.069161	0.001857	37.2505	83.5613	14.0531	0.069828	0.031428	-1.292425	-1.293821	0.018227	37.2505	-1.292792	-1.914576E+17	-9.519989E-20	NaN
384	1.000000	0.042799	7.36882e+06	-57839.1	955.817	-29739.7	0.000000	0.000000	6.042735	-0.002354	NaN	0.000000	0.001581	0.001585	28.0788	0.025917	0.001981	13.0811	-113.757	-162.617	-0.080940	0.041499	-1.282449	-1.283750	-0.002354	13.0811	-1.282314	-1.386835E+17	1.697498E-20	NaN
384	1.000000	0.052818	7.36882e+06	-57839.1	955.819	-29739.7	0.000000	0.000000	6.052751	-0.044762	NaN	0.000000	0.001615	0.001579	28.0787	0.139410	0.002010	69.3493	106.364	10.9326	-0.159224	0.051434	-1.272431	-1.273814	-0.044762	69.3493	-1.271947	-1.007906E+17	4.441046E-19	NaN
384	1.000000	0.062820	7.36882e+06	-57839.1	955.818	-29739.7	0.000000	0.000000	6.062755	0.004608	NaN	0.000000	0.001561	0.001594	28.0788	0.143910	0.001832	78.5545	20.2241	-167.167	0.053403	0.061511	-1.262429	-1.263737	0.004608	78.5545	-1.262473	-7.529046E+16	-6.120148E-20	NaN
384	1.000000	0.072807	7.36882e+06	-57839.1	955.818	-29739.7	0.000000	0.000000	6.072744	0.047992	NaN	0.000000	0.001566	0.001579	28.0789	0.117332	0.001957	59.9676	167.806	11.8651	0.030704	0.071409	-1.252442	-1.253839	0.047992	59.9676	-1.253042	-5.631316E+16	-8.522366E-19	NaN
384	1.000000	0.082825	7.36882e+06	-57839.1	955.819	-29739.7	0.000000	0.000000	6.082761	0.011583	NaN	0.000000	0.001600	0.001596	28.0802	0.026209	0.001970	13.3053	88.6139	-168.211	-0.037580	0.081488	-1.242424	-1.243760	0.011583	13.3053	-1.243077	-4.142913E+16	-2.795946E-19	NaN
384	1.000000	0.092848	7.36882e+06	-57839.1	955.819	-29739.7	0.000000	0.000000	6.092784	-0.000161	NaN	0.000000	0.001577	0.001558	28.0798	0.070657	0.002027	34.8539	160.601	12.3642	-0.067658	0.091484	-1.232400	-1.233764	-0.000161	34.8539	-1.232397	-2.981318E+16	5.388252E-21	NaN
384	1.000000	0.102841	7.36882e+06	-57839.1	955.818	-29739.7	0.000000	0.000000	6.102776	-0.005520	NaN	0.000000	0.001619	0.001569	28.0798	0.107111	0.001956	54.7644	-11.9703	-167.413	-0.018383	0.101515	-1.222408	-1.223734	-0.005520	54.7644	-1.222332	-2.186354E+16	2.524957E-19	NaN
384	1.000000	0.112847	7.36882e+06	-57839.1	955.818	-29739.7	0.000000	0.000000	6.112780	-0.066977	NaN	0.000000	0.001605	0.001591	28.0798	0.046975	0.002043	22.9947	142.366	13.0948	-0.084678	0.111470	-1.212401	-1.213778	-0.066977	22.9947	-1.210216	-1.505009E+16	4.450247E-18	NaN
384	1.000000	0.122835	7.36882e+06	-57839.1	955.818	-29739.7	0.000000	0.000000	6.122768	-0.043863	NaN	0.000000	0.001652	0.001609	28.0799	0.062222	0.002035	30.582	-76.6134	-165.25	-0.099457	0.121528	-1.202414	-1.203720	-0.043863	30.582	-1.201338	-1.144631E+16	3.832081E-18	NaN
384	1.000000	0.132865	7.36882e+06	-57839.1	955.818	-29739.7	0.000000	0.000000	6.132802	0.025597	NaN	0.000000	0.001620	0.001612	28.0797	0.085810	0.001954	43.9167	-104.565	14.5496	0.036742	0.131459	-1.192383	-1.193790	0.025597	43.9167	-1.192820	-8.802331E+15	-2.907943E-18	NaN
384	1.000000	0.142843	7.36882e+06	-57839.1	955.819	-29739.7	0.000000	0.000000	6.142778	0.003084	NaN	0.000000	0.001631	0.001574	28.0796	0.067646	0.001938	34.8975	-91.9581	-167.148	0.041324	0.141504	-1.182406	-1.183744	0.003084	34.8975	-1.182472	-6.397170E+15	-4.821379E-19	NaN
384	1.000000	0.152865	7.36882e+06	-57839.1	955.818	-29739.7	0.000000	0.000000	6.152803	0.073589	NaN	0.000000	0.001599	0.001595	28.0801	0.051338	0.001928	26.6283	-123.879	10.2978	0.056797	0.151533	-1.172384	-1.173715	0.073589	26.6283	-1.174457	-4.995762E+15	-1.473032E-17	NaN
384	1.000000	0.162882	7.36882e+06	-57839.1	955.818	-29739.7	0.000000	0.000000	6.162818	0.015136	NaN	0.000000	0.001598	0.001583	28.0799	0.026407	0.002064	12.7935	54.4733	-165.349	0.051586	0.161604	-1.162367	-1.163644	0.015136	12.7935	-1.163254	-3.535740E+15	-4.280973E-18	NaN
384	1.000000	0.172850	7.36882e+06	-57839.1	955.818	-29739.7	0.000000	0.000000	6.172785	-0.012618	NaN	0.000000	0.001580	0.001605	28.0799	0.033230	0.002160	15.3807	77.1267	15.0885	-0.027154	0.171477	-1.152398	-1.153772	-0.012618	15.3807	-1.151783	-2.481564E+15	5.084713E-18	NaN
384	1.000000	0.182908	7.36882e+06	-57839.1	955.817	-29739.7	0.000000	0.000000	6.182842	-0.031621	NaN	0.000000	0.001588	0.001601	28.0799	0.028517	0.002053	13.8894	-58.6117	-166.525	-0.028480	0.181547	-1.142340	-1.143702	-0.031621	13.8894	-1.140633	-1.758834E+15	1.797830E-17	NaN
384	1.000000	0.192882	7.36882e+06	-57839.1	955.818	-29739.7	0.000000	0.000000	6.192817	-0.009870	NaN	0.000000	0.001612	0.001607	28.0801	0.058672	0.001848	31.7404	-19.3024	12.9172	-0.027700	0.191526	-1.132367	-1.133723	-0.009870	31.7404	-1.132133	-1.352814E+15	7.295829E-18	NaN
384	1.000000	0.202889	7.36882e+06	-57839.1	955.817	-29739.7	0.000000	0.000000	6.202825	-0.002902	NaN	0.000000	0.001577	0.001567	28.0799	0.056725	0.002133	26.5878	-168.658	-168.336	0.014877	0.201605	-1.122359	-1.123643	-0.002902	26.5878	-1.122277	-9.977583E+14	2.908107E-18	NaN
384	1.000000	0.212847	7.36882e+06	-57839.1	955.819	-29739.7	0.000000	0.000000	6.212781	-0.024272	NaN	0.000000	0.001623	0.001605	28.0787	0.064694	0.001985	32.5855	84.1605	16.3557	0.021313	0.211493	-1.112402	-1.113755	-0.024272	32.5855	-1.111843	-7.228084E+14	3.358065E-17	NaN
384	1.000000	0.222881	7.36882e+06	-57839.1	955.818	-29739.7	0.000000	0.000000	6.222816	-0.001086	NaN	0.000000	0.001595	0.001605	28.0784	0.044440	0.001974	22.5108	156.44	-164.236	-0.050190	0.221568	-1.102368	-1.103680	-0.001086	22.5108	-1.102332	-5.387231E+14	2.015756E-18	NaN
384	1.000000	0.232903	7.36882e+06	-57839.1	955.817	-29739.7	0.000000	0.000000	6.232840	0.036817	NaN	0.000000	0.001629	0.001616	28.0786	0.126278	0.002045	61.7571	-86.2719	15.9292	0.052114	0.231439	-1.092346	-1.093809	0.036817	61.7571	-1.092793	-4.011560E+14	-9.177743E-17	NaN
384	1.000000	0.242890	7.36882e+06	-57839.1	955.819	-29739.7	0.000000	0.000000	6.242823	-0.059371	NaN	0.000000	0.001563	0.001638	28.0785	0.054207	0.001938	27.9701	89.804	-166.936	-0.070739	0.241615	-1.082358	-1.083633	-0.059371	27.9701	-1.080766	-2.765755E+14	2.146662E-16	NaN
384	1.000000	0.252904	7.36882e+06	-57839.1	955.819	-29739.7	0.000000	0.000000	6.252840	0.012613	NaN	0.000000	0.001616	0.001614	28.0786	0.051067	0.001988	25.6935	146.903	9.940441	0.026485	0.251489	-1.072344	-1.073759	0.012613	25.6935	-1.072712	-2.155905E+14	-5.850647E-17	NaN
384	1.000000	0.262877	7.36882e+06	-57839.1	955.818	-29739.7	0.000000	0.000000	6.262814	0.031637	NaN	0.000000	0.001564	0.001616	28.0787	0.071405	0.001995	35.8004	-19.0847	-165.332	-0.009825	0.261622	-1.062372	-1.063627	0.031637	35.8004	-1.063034	-1.598072E+14	-1.979700E-16	NaN
384	1.000000	0.272890	7.36882e+06	-57839.1	955.818	-29739.7	0.000000	0.000000	6.272827	0.033984	NaN	0.000000	0.001562	0.001604	28.0787	0.110827	0.001864	59.4428	-63.8972	11.6359	-0.031040	0.271571	-1.052358	-1.053677	0.033984	59.4428	-1.052787	-1.163795E+14	-2.920087E-16	NaN
384	1.000000	0.282910	7.36882e+06	-57839.1	955.818	-29739.7	0.000000	0.000000	6.282845	-0.004736	NaN	0.000000	0.001571	0.001613	28.0785	0.050712	0.002014	25.1739	11.5793	-166.557	-0.009247	0.281582	-1.042339	-1.043667	-0.004736	25.1739	-1.042198	-8.385252E+13	5.647486E-17	NaN
384	1.000000	0.292915	7.36882e+06	-57839.1	955.818	-29739.7	0.000000	0.000000	6.292852	0.039168	NaN	0.000000	0.001560	0.001581	28.0786	0.044898	0.002065	21.7452	139.57	10.2	-0.039936	0.291563	-1.032333	-1.033686	0.039168	21.7452	-1.033684	-6.442190E+13	-6.079886E-16	NaN
384	1.000000	0.302896	7.36882e+06	-57839.1	955.818	-29739.7	0.000000	0.000000	6.302829	-0.058052	NaN	0.000000	0.001610	0.001599	28.0786	0.056501	0.001992	28.369	-133.686	-165.453	0.008692	0.301550	-1.022352	-1.023698	-0.058052	28.369	-1.020818	-4.324688E+13	1.342345E-15	NaN
384	1.000000	0.312924	7.36882e+06	-57839.1	955.818	-29739.7	0.000000	0.000000	6.312859	-0.010295	NaN	0.000000	0.001590	0.001565	28.0785	0.122341	0.002100	58.2514	4.800371	12.6719	-0.025585	0.311545	-1.012325	-1.013704	-0.010295	58.2514	-1.012192	-3.310454E+13	3.109955E-16	NaN
384	1.000000	0.322935	7.36882e+06	-57839.1	955.818	-29739.7	0.000000	0.000000	6.322870	-0.027985	NaN	0.000000	0.001527	0.001565	28.0783	0.040464	0.001874	21.5975	-54.9892	-162.769	0.012899	0.321643	-1.002313	-1.003605	-0.027985	21.5975	-1.001341	-2.364977E+13	1.183306E-15	NaN
384	1.000000	0.332940	7.36882e+06	-57839.1	955.818	-29739.7	0.000000	0.000000	6.332878	0.070228	NaN	0.000000	0.001551	0.001562	28.0785	0.068716	0.001941	35.4075	56.9242	11.7571	0.070085	0.331605	-0.992309	-0.993643	0.070228	35.4075	-0.993796	-1.871697E+13	-3.752090E-15	NaN
384	1.000000	0.342931	7.36882e+06	-57839.1	955.819	-29739.7	0.000000	0.000000	6.342869	0.045143	NaN	0.000000	0.001572	0.001586	28.0785	0.084334	0.002078	40.5795	-112.881	-166.25	0.055544	0.341621	-0.982317	-0.983628	0.045143	40.5795	-0.983152	-1.345452E+13	-3.355240E-15	NaN
384	1.000000	0.352925	7.36882e+06	-57839.1	955.818	-29739.7	0.000000	0.000000	6.352861	0.014324	NaN	0.000000	0.001646	0.001571	28.0801	0.068720	0.001972	34.8449	120.695	12.732	0.038675	0.351578	-0.972323	-0.973670	0.014324	34.8449	-0.972631	-9.707889E+12	-1.475516E-15	NaN
384	1.000000	0.362926	7.36882e+06	-57839.1	955.818	-29739.7	0.000000	0.000000	6.362862	0.004074	NaN	0.000000	0.001611	0.001599	28.0797	0.065879	0.002014	32.7132	-148.541	-164.805	0.010297	0.361624	-0.962323	-0.963624	0.004074	32.7132	-0.962416	-7.070329E+12	-5.762526E-16	NaN
384	1.000000	0.372972	7.36882e+06	-57839.1	955.817	-29739.7	0.000000	0.000000	6.372906	-0.049486	NaN	0.000000	0.001613	0.001598	28.08	0.091128	0.001995	45.688	179.281	14.0744	-0.083653	0.371553	-0.952276	-0.953695	-0.049486	45.688	-0.951464	-5.032309E+12	9.833742E-15	NaN
384	1.000000	0.382947	7.36882e+06	-57839.1	955.818	-29739.7	0.000000	0.000000	6.382881	-0.035175	NaN	0.000000	0.001646	0.001562	28.0797	0.018829	0.002056	9.159065	101.818	-163.426	0.036475	0.381649	-0.942302	-0.943600	-0.035175	9.159065	-0.939421	-3.462007E+12	1.016024E-14	NaN
384	1.000000	0.392956	7.36882e+06	-57839.1	955.818	-29739.7	0.000000	0.000000	6.392888	-0.079998	NaN	0.000000	0.001648	0.001563	28.0799	0.111515	0.002137	52.1863	118.959	14.3988	-0.042278	0.391603	-0.932292	-0.933645	-0.079998	52.1863	-0.931143	-2.676806E+12	2.988547E-14	NaN
384	1.000000	0.402975	7.36882e+06	-57839.1	955.818	-29739.7	0.000000	0.000000	6.402911	0.000442	NaN	0.000000	0.001544	0.001603	28.0798	0.137363	0.001907	72.0339	10.1674	-167.603	0.023567	0.401681	-0.922273	-0.923567	0.000442	72.0339	-0.922278	-2.032174E+12	-2.176367E-16	NaN
384	1.000000	0.412966	7.36882e+06	-57839.1	955.818	-29739.7	0.000000	0.000000	6.412905	0.064628	NaN	0.000000	0.001593	0.001583	28.0802	0.075479	0.002046	36.8981	124.606	12.7114	0.018721	0.411622	-0.912282	-0.913626	0.064628	36.8981	-0.913596	-1.551410E+12	-4.165730E-14	NaN
384	1.000000	0.422997	7.36882e+06	-57839.1	955.818	-29739.7	0.000000	0.000000	6.422930	-0.048534	NaN	0.000000	0.001565	0.001609	28.0799	0.021357	0.002040	10.4693	-114.238	-166.157	0.066419	0.421642	-0.902252	-0.903607	-0.048534	10.4693	-0.898775	-9.783906E+11	4.960563E-14	NaN
384	1.000000	0.432978	7.36882e+06	-57839.1	955.817	-29739.7	0.000000	0.000000	6.432913	-0.007380	NaN	0.000000	0.001568	0.001588	28.08	0.099056	0.002109	46.9612	148.002	14.1196	0.020582	0.431664	-0.892270	-0.893584	-0.007380	46.9612	-0.892152	-7.961752E+11	9.269291E-15	NaN
384	1.000000	0.442965	7.36882e+06	-57839.1	955.818	-29739.7	0.000000	0.000000	6.442901	0.000903	NaN	0.000000	0.001594	0.001578	28.0799	0.107859	0.002082	51.8018	59.579	-170.651	0.035393	0.441723	-0.882283	-0.883525	0.000903	51.8018	-0.882296	-5.858109E+11	-1.541606E-15	NaN
384	1.000000	0.452965	7.36882e+06	-57839.1	955.818	-29739.7	0.000000	0.000000	6.452900	0.000750	NaN	0.000000	0.001576	0.001599	28.0802	0.070618	0.002028	34.8242	1.052989	12.8941	-0.058984	0.451649	-0.872284	-0.873599	0.000750	34.8242	-0.872300	-4.291021E+11	-1.748652E-15	NaN
384	1.000000	0.462991	7.36882e+06	-57839.1	955.818	-29739.7	0.000000	0.000000	6.462925	-0.044691	NaN	0.000000	0.001632	0.001592	28.08	0.139909	0.001928	72.5609	176.832	-166.536	0.002836	0.461664	-0.862257	-0.863584	-0.044691	72.5609	-0.861795	-3.093274E+11	1.444775E-13	NaN
384	1.000000	0.473019	7.36882e+06	-57839.1	955.817	-29739.7	0.000000	0.000000	6.472955	0.029179	NaN	0.000000	0.001632	0.001623	28.0801	0.003979	0.002084	1.909064	-48.6738	14.3451	-0.002781	0.471653	-0.852230	-0.853596	0.029179	1.909064	-0.863693	-3.281740E+11	-8.891220E-14	NaN
384	1.000000	0.483014	7.36882e+06	-57839.1	955.818	-29739.7	0.000000	0.000000	6.482950	0.011411	NaN	0.000000	0.001633	0.001630	28.0801	0.039133	0.001983	19.7363	168.866	-164.493	-0.047633	0.481662	-0.842235	-0.843587	0.011411	19.7363	-0.842668	-1.703882E+11	-6.696824E-14	NaN
384	1.000000	0.492998	7.36882e+06	-57839.1	955.819	-29739.7	0.000000	0.000000	6.492935	0.032310	NaN	0.000000	0.001660	0.001631	28.0786	0.053846	0.002008	26.8149	59.0539	16.6211	0.044015	0.491663	-0.832250	-0.833586	0.032310	26.8149	-0.833154	-1.266285E+11	-2.551578E-13	NaN
384	1.000000	0.503019	7.36882e+06	-57839.1	955.818	-29739.7	0.000000	0.000000	6.502955	0.024900	NaN	0.000000	0.001658	0.001637	28.0786	0.089243	0.002036	43.8368	-113.619	-165.762	0.055365	0.501688	-0.822230	-0.823560	0.024900	43.8368	-0.822656	-9.124768E+10	-2.728783E-13	NaN
384	1.000000	0.513007	7.36882e+06	-57839.1	955.818	-29739.7	0.000000	0.000000	6.512942	0.003272	NaN	0.000000	0.001569	0.001624	28.0787	0.087732	0.001910	45.9335	-16.0812	15.397	-0.000226	0.511647	-0.812242	-0.813601	0.003272	45.9335	-0.812295	-6.602500E+10	-4.956013E-14	NaN
384	1.000000	0.522971	7.36882e+06	-57839.1	955.818	-29739.7	0.000000	0.000000	6.522907	0.005353	NaN	0.000000	0.001574	0.001631	28.0788	0.167625	0.002072	80.9164	149.653	-163.181	-0.021914	0.521730	-0.802278	-0.803519	0.005353	80.9164	-0.802327	-4.835619E+10	-1.107069E-13	NaN
384	1.000000	0.533039	7.36882e+06	-57839.1	955.818	-29739.7	0.000000	0.000000	6.532973	-0.035740	NaN	0.000000	0.001570	0.001646	28.0787	0.071379	0.002085	34.2342	-82.8085	13.8495	-0.034560	0.531665	-0.792209	-0.793583	-0.035740	34.2342	-0.791426	-3.439145E+10	1.039199E-12	NaN
384	1.000000	0.543024	7.36882e+06	-57839.1	955.819	-29739.7	0.000000	0.000000	6.542960	0.015122	NaN	0.000000	0.001546	0.001629	28.0788	0.060905	0.001918	31.7471	160.188	-165.491	-0.007653	0.541741	-0.782225	-0.783508	0.015122	31.7471	-0.782582	-2.608049E+10	-5.798173E-13	NaN
384	1.000000	0.553014	7.36882e+06	-57839.1	955.817	-29739.7	0.000000	0.000000	6.552949	-0.010550	NaN	0.000000	0.001590	0.001626	28.0793	0.069939	0.001937	36.11	46.5239	18.0602	0.000798	0.551719	-0.772234	-0.773529	-0.010550	36.11	-0.772015	-1.873711E+10	5.630491E-13	NaN
384	1.000000	0.563060	7.36882e+06	-57839.1	955.817	-29739.7	0.000000	0.000000	6.562994	-0.021666	NaN	0.000000	0.001564	0.001608	28.0787	0.082399	0.002037	40.4503	-48.8432	-166.777	-0.009375	0.561704	-0.762189	-0.763544	-0.021666	40.4503	-0.761787	-1.360224E+10	1.592818E-12	NaN
384	1.000000	0.573043	7.36882e+06	-57839.1	955.818	-29739.7	0.000000	0.000000	6.572977	-0.053492	NaN	0.000000	0.001574	0.001604	28.0788	0.101795	0.002102	48.4333	-124.005	13.6556	-0.064405	0.571678	-0.752205	-0.753571	-0.053492	48.4333	-0.751377	-9.816589E+9	5.449098E-12	NaN
384	1.000000	0.583023	7.36882e+06	-57839.1	955.819	-29739.7	0.000000	0.000000	6.582960	0.034871	NaN	0.000000	0.001564	0.001612	28.0786	0.067816	0.001903	35.6441	155.466	-164.687	0.062296	0.581728	-0.742225	-0.743520	0.034871	35.6441	-0.742959	-7.539780E+9	-4.624957E-12	NaN
384	1.000000	0.593049	7.36882e+06	-57839.1	955.819	-29739.7	0.000000	0.000000	6.592984	-0.012936	NaN	0.000000	0.001582	0.001620	28.0789	0.095153	0.002058	46.234	158.819	13.0842	-0.004745	0.591736	-0.732199	-0.733512	-0.012936	46.234	-0.731989	-5.344671E+9	2.420328E-12	NaN
384	1.000000	0.603088	7.36882e+06	-57839.1	955.818	-29739.7	0.000000	0.000000	6.603026	0.064275	NaN	0.000000	0.001579	0.001623	28.0786	0.037666	0.001938	19.4404	40.5519	-165.657	0.106038	0.601753	-0.722160	-0.723496	0.064275	19.4404	-0.724640	-4.243707E+9	-1.514598E-11	NaN
384	1.000000	0.613046	7.36882e+06	-57839.1	955.818	-29739.7	0.000000	0.000000	6.612982	0.005983	NaN	0.000000	0.001566	0.001628	28.0787	0.048465	0.001884	25.7274	-118.532	14.466	-0.034135	0.611726	-0.712202	-0.713522	0.005983	25.7274	-0.712377	-2.887234E+9	-2.072285E-12	NaN
384	1.000000	0.623073	7.36882e+06	-57839.1	955.817	-29739.7	0.000000	0.000000	6.623010	0.047090	NaN	0.000000	0.001586	0.001635	28.0799	0.017669	0.002046	8.636154	-137.034	-168.469	0.029617	0.621709	-0.702176	-0.703539	0.047090	8.636154	-0.706265	-2.382708E+9	-1.976340E-11	NaN
384	1.000000	0.633056	7.36882e+06	-57839.1	955.817	-29739.7	0.000000	0.000000	6.632988	-0.091429	NaN	0.000000	0.001610	0.001656	28.0801	0.039952	0.001892	21.1219	145.335	12.8828	-0.107874	0.631701	-0.692192	-0.693548	-0.091429	21.1219	-0.688946	-1.382009E+9	6.615635E-11	NaN
384	1.000000	0.643063	7.36882e+06	-57839.1	955.817	-29739.7	0.000000	0.000000	6.642996	-0.062072	NaN	0.000000	0.001558	0.001655	28.0798	0.146238	0.002037	71.7986	-128.003	-164.721	0.058531	0.641759	-0.682185	-0.683490	-0.062072	71.7986	-0.681537	-1.094508E+9	5.671228E-11	NaN
384	1.000000	0.653048	7.36882e+06	-57839.1	955.817	-29739.7	0.000000	0.000000	6.652982	-0.038362	NaN	0.000000	0.001590	0.001677	28.08	0.066220	0.002019	32.8056	160.804	10.8166	-0.012216	0.651725	-0.672200	-0.673523	-0.038362	32.8056	-0.671323	-7.934133E+8	4.835042E-11	NaN
384	1.000000	0.663062	7.36882e+06	-57839.1	955.818	-29739.7	0.000000	0.000000	6.662995	-0.053269	NaN	0.000000	0.001573	0.001676	28.08	0.051110	0.002130	23.9951	-45.0313	-164.14	-0.062030	0.661778	-0.662187	-0.663471	-0.053269	23.9951	-0.660522	-5.644337E+8	9.437678E-11	NaN
384	1.000000	0.673072	7.36882e+06	-57839.1	955.818	-29739.7	0.000000	0.000000	6.673006	-0.040734	NaN	0.000000	0.001574	0.001660	28.0804	0.055795	0.001998	27.921	-125.244	14.9876	0.007251	0.671747	-0.652176	-0.653501	-0.040734	27.921	-0.651082	-4.190522E+8	9.720461E-11	NaN
384	1.000000	0.683104	7.36882e+06	-57839.1	955.818	-29739.7	0.000000	0.000000	6.683040	-0.002979	NaN	0.000000	0.001590	0.001688	28.08	0.014277	0.001969	7.251921	-75.0217	-164.902	-0.042074	0.681750	-0.642144	-0.643498	-0.002979	7.251921	-0.641836	-3.129519E+8	9.519434E-12	NaN
384	1.000000	0.693099	7.36882e+06	-57839.1	955.818	-29739.7	0.000000	0.000000	6.693032	-0.075523	NaN	0.000000	0.001591	0.001687	28.0802	0.087319	0.001960	44.5409	11.7505	14.1194	-0.041310	0.691720	-0.632149	-0.633529	-0.075523	44.5409	-0.630878	-2.213474E+8	3.411961E-10	NaN
384	1.000000	0.703099	7.36882e+06	-57839.1	955.818	-29739.7	0.000000	0.000000	6.703034	0.006814	NaN	0.000000	0.001548	0.001691	28.0797	0.126681	0.002041	62.0827	-93.3743	-163.872	-0.065317	0.701793	-0.622150	-0.623456	0.006814	62.0827	-0.622232	-1.683889E+8	-4.046762E-11	NaN
384	1.000000	0.713104	7.36882e+06	-57839.1	955.817	-29739.7	0.000000	0.000000	6.713038	-0.027808	NaN	0.000000	0.001594	0.001694	28.0799	0.087661	0.002071	42.3186	154.751	13.6009	-0.021255	0.711785	-0.612145	-0.613464	-0.027808	42.3186	-0.611652	-1.204593E+8	2.308483E-10	NaN
384	1.000000	0.723079	7.36882e+06	-57839.1	955.818	-29739.7	0.000000	0.000000	6.723014	-0.013773	NaN	0.000000	0.001586	0.001679	28.0797	0.044872	0.001920	23.3656	20.8707	-164.436	0.002751	0.721774	-0.602169	-0.603475	-0.013773	23.3656	-0.601727	-8.795214E+7	1.565946E-10	NaN
384	1.000000	0.733100	7.36882e+06	-57839.1	955.818	-29739.7	0.000000	0.000000	6.733034	-0.055903	NaN	0.000000	0.001605	0.001721	28.0799	0.140024	0.001888	74.1728	-49.8751	11.2256	-0.095600	0.731732	-0.592148	-0.593516	-0.055903	74.1728	-0.591583	-6.375076E+7	8.769037E-10	NaN
384	1.000000	0.743128	7.36882e+06	-57839.1	955.817	-29739.7	0.000000	0.000000	6.743065	0.026155	NaN	0.000000	0.001599	0.001661	28.0797	0.032414	0.002016	16.0815	91.0412	-167.676	0.033951	0.741827	-0.582120	-0.583422	0.026155	16.0815	-0.583340	-4.906998E+7	-5.330092E-10	NaN
384	1.000000	0.753105	7.36882e+06	-57839.1	955.819	-29739.7	0.000000	0.000000	6.753040	-0.018520	NaN	0.000000	0.001626	0.001666	28.0799	0.082257	0.002054	40.0533	78.9291	13.2326	-0.086556	0.751699	-0.572143	-0.573549	-0.018520	40.0533	-0.571796	-3.399763E+7	5.447518E-10	NaN
384	1.000000	0.763129	7.36882e+06	-57839.1	955.818	-29739.7	0.000000	0.000000	6.763063	-0.051253	NaN	0.000000	0.001615	0.001698	28.0786	0.039933	0.002083	19.1698	112.205	-165.293	0.003231	0.761767	-0.562119	-0.563482	-0.051253	19.1698	-0.560114	-2.343995E+7	2.186585E-9	NaN
384	1.000000	0.773116	7.36882e+06	-57839.1	955.818	-29739.7	0.000000	0.000000	6.773050	-0.031084	NaN	0.000000	0.001583	0.001697	28.0787	0.143458	0.001812	79.1714	8.747952	16.4198	-0.047283	0.771728	-0.552132	-0.553520	-0.031084	79.1714	-0.551838	-1.800564E+7	1.726359E-9	NaN
384	1.000000	0.783127	7.36882e+06	-57839.1	955.818	-29739.7	0.000000	0.000000	6.783063	0.007051	NaN	0.000000	0.001589	0.001693	28.0788	0.027028	0.001899	14.2317	137.442	-161.584	-0.016155	0.781803	-0.542122	-0.543445	0.007051	14.2317	-0.542493	-1.336381E+7	-5.276155E-10	NaN
384	1.000000	0.793143	7.36882e+06	-57839.1	955.818	-29739.7	0.000000	0.000000	6.793077	-0.029792	NaN	0.000000	0.001570	0.001677	28.0786	0.022436	0.001904	11.7868	-88.9441	16.8078	-0.088263	0.791807	-0.532106	-0.533442	-0.029792	11.7868	-0.530210	-9.02596e+06	3.300713E-9	NaN
384	1.000000	0.803120	7.36882e+06	-57839.1	955.818	-29739.7	0.000000	0.000000	6.803053	-0.042516	NaN	0.000000	0.001610	0.001648	28.0787	0.077278	0.002078	37.1917	-14.4823	-165.759	-0.011677	0.801858	-0.522129	-0.523390	-0.042516	37.1917	-0.521271	-6.78075e+06	6.270150E-9	NaN
384	1.000000	0.813139	7.36882e+06	-57839.1	955.817	-29739.7	0.000000	0.000000	6.813077	0.045904	NaN	0.000000	0.001608	0.001658	28.0787	0.079679	0.002033	39.2017	-18.8173	12.6243	0.050308	0.811821	-0.512109	-0.513427	0.045904	39.2017	-0.512987	-5.20017e+06	-8.827417E-9	NaN
384	1.000000	0.823153	7.36882e+06	-57839.1	955.818	-29739.7	0.000000	0.000000	6.823088	-0.008947	NaN	0.000000	0.001572	0.001644	28.0787	0.023295	0.001961	11.8778	64.566	-166.236	0.088853	0.821864	-0.502096	-0.503385	-0.008947	11.8778	-0.501531	-3.60055e+06	2.485032E-9	NaN
384	1.000000	0.833138	7.36882e+06	-57839.1	955.819	-29739.7	0.000000	0.000000	6.833073	0.008737	NaN	0.000000	0.001621	0.001678	28.0788	0.086233	0.002006	42.9814	177.374	13.4206	-0.032305	0.831761	-0.492111	-0.493488	0.008737	42.9814	-0.492263	-2.6731e+06	-3.268636E-9	NaN
384	1.000000	0.843154	7.36882e+06	-57839.1	955.817	-29739.7	0.000000	0.000000	6.843091	0.041043	NaN	0.000000	0.001589	0.001673	28.0789	0.016093	0.002111	7.623798	-107.414	-166.044	0.021917	0.841879	-0.482094	-0.483369	0.041043	7.623798	-0.486132	-2.19442e+06	-1.870342E-8	NaN
384	1.000000	0.853145	7.36882e+06	-57839.1	955.818	-29739.7	0.000000	0.000000	6.853080	0.002740	NaN	0.000000	0.001620	0.001633	28.0792	0.045858	0.001975	23.2237	-44.9551	13.5272	0.000292	0.851759	-0.472104	-0.473490	0.002740	23.2237	-0.472192	-1.40006e+06	-1.956984E-9	NaN
384	1.000000	0.863159	7.36882e+06	-57839.1	955.818	-29739.7	0.000000	0.000000	6.863093	-0.035326	NaN	0.000000	0.001621	0.001671	28.0787	0.055996	0.002001	27.986	95.4429	-166.568	0.047353	0.861859	-0.462090	-0.463389	-0.035326	27.986	-0.461143	-979662	3.605949E-8	NaN
384	1.000000	0.873178	7.36882e+06	-57839.1	955.817	-29739.7	0.000000	0.000000	6.873114	0.015547	NaN	0.000000	0.001620	0.001665	28.0787	0.070045	0.002023	34.6305	-127.169	13.8486	-0.024555	0.871787	-0.452071	-0.453461	0.015547	34.6305	-0.452407	-738304	-2.105837E-8	NaN
384	1.000000	0.883179	7.36882e+06	-57839.1	955.818	-29739.7	0.000000	0.000000	6.883115	0.030403	NaN	0.000000	0.001619	0.001647	28.0786	0.034596	0.002052	16.8622	74.8474	-165.367	0.023194	0.881875	-0.442070	-0.443373	0.030403	16.8622	-0.443422	-551625	-5.511476E-8	NaN
384	1.000000	0.893204	7.36882e+06	-57839.1	955.819	-29739.7	0.000000	0.000000	6.893140	0.020371	NaN	0.000000	0.001608	0.001672	28.0789	0.043377	0.001966	22.0677	-97.0502	14.4949	0.054941	0.891806	-0.432045	-0.433443	0.020371	22.0677	-0.432737	-389735	-5.226853E-8	NaN
384	1.000000	0.903139	7.36882e+06	-57839.1	955.817	-29739.7	0.000000	0.000000	6.903076	0.023891	NaN	0.000000	0.001593	0.001633	28.08	0.050303	0.001912	26.3154	-174.06	-168.454	0.034936	0.901859	-0.422109	-0.423390	0.023891	26.3154	-0.422790	-281822	-8.477409E-8	NaN
384	1.000000	0.913178	7.36882e+06	-57839.1	955.818	-29739.7	0.000000	0.000000	6.913112	-0.035436	NaN	0.000000	0.001605	0.001676	28.08	0.030352	0.002045	14.8406	74.0661	14.5597	-0.083499	0.911779	-0.412070	-0.413469	-0.035436	14.8406	-0.410280	-187230	1.892656E-7	NaN
384	1.000000	0.923185	7.36882e+06	-57839.1	955.817	-29739.7	0.000000	0.000000	6.923119	-0.040986	NaN	0.000000	0.001657	0.001646	28.0803	0.059215	0.001984	29.8476	53.8502	-163.414	-0.012464	0.921856	-0.402063	-0.403393	-0.040986	29.8476	-0.401033	-138269	2.964241E-7	NaN
384	1.000000	0.933171	7.36882e+06	-57839.1	955.818	-29739.7	0.000000	0.000000	6.933104	-0.063178	NaN	0.000000	0.001588	0.001672	28.08	0.033713	0.001955	17.248	139.169	11.4846	-0.019703	0.931845	-0.392077	-0.393403	-0.063178	17.248	-0.389330	-94097.7	6.714081E-7	NaN
384	1.000000	0.943189	7.36882e+06	-57839.1	955.818	-29739.7	0.000000	0.000000	6.943127	0.048466	NaN	0.000000	0.001630	0.001680	28.0802	0.027746	0.001942	14.2894	113.001	-167.743	0.000110	0.941892	-0.382059	-0.383356	0.048466	14.2894	-0.384603	-80519.4	-6.019159E-7	NaN
384	1.000000	0.953192	7.36882e+06	-57839.1	955.819	-29739.7	0.000000	0.000000	6.953126	-0.034457	NaN	0.000000	0.001625	0.001715	28.08	0.073316	0.001835	39.9648	-51.7116	16.1214	0.000870	0.951815	-0.372057	-0.373434	-0.034457	39.9648	-0.371410	-52051.4	6.619797E-7	NaN
384	1.000000	0.963187	7.36882e+06	-57839.1	955.817	-29739.7	0.000000	0.000000	6.963120	-0.055737	NaN	0.000000	0.001617	0.001666	28.0805	0.138184	0.002071	66.7072	-32.7262	-168.733	-0.079038	0.961893	-0.362062	-0.363356	-0.055737	66.7072	-0.361435	-37375	1.491297E-6	NaN
384	1.000000	0.973195	7.36882e+06	-57839.1	955.818	-29739.7	0.000000	0.000000	6.973129	-0.047221	NaN	0.000000	0.001627	0.001685	28.0799	0.017620	0.002124	8.294451	115.228	12.2526	-0.073617	0.971832	-0.352053	-0.353417	-0.047221	8.294451	-0.347784	-23703.9	1.992115E-6	NaN
384	1.000000	0.983229	7.36882e+06	-57839.1	955.819	-29739.7	0.000000	0.000000	6.983167	0.060169	NaN	0.000000	0.001615	0.001625	28.0804	0.085157	0.002033	41.8947	-176.576	-166.384	0.013706	0.981911	-0.342020	-0.343338	0.060169	41.8947	-0.343097	-20261.2	-2.969659E-6	NaN
384	1.000000	0.993249	7.36882e+06	-57839.1	955.819	-29739.7	0.000000	0.000000	6.993185	0.008370	NaN	0.000000	0.001554	0.001645	28.08	0.102851	0.001935	53.1581	-22.4275	14.009	-0.022385	0.991819	-0.331999	-0.333429	0.008370	53.1581	-0.332117	-14010.1	-5.974206E-7	NaN
384	1.000000	1.003192	7.36882e+06	-57839.1	955.817	-29739.7	0.000000	0.000000	7.003128	0.025527	NaN	0.000000	0.001613	0.001678	28.0801	0.079351	0.001895	41.8696	142.139	-165.872	0.009275	1.001934	-0.322057	-0.323314	0.025527	41.8696	-0.322514	-10130.2	-2.519886E-6	NaN
384	1.000000	1.013247	7.36882e+06	-57839.1	955.818	-29739.7	0.000000	0.000000	7.013183	0.006845	NaN	0.000000	0.001591	0.001657	28.0799	0.096629	0.002056	47.005	-28.4119	14.3353	-0.050530	1.011848	-0.312001	-0.313400	0.006845	47.005	-0.312110	-7116.49	-9.617869E-7	NaN
384	1.000000	1.023204	7.36882e+06	-57839.1	955.817	-29739.7	0.000000	0.000000	7.023139	-0.007270	NaN	0.000000	0.001611	0.001675	28.0799	0.066407	0.001914	34.6983	-132.339	-163.82	0.028128	1.021914	-0.302044	-0.303335	-0.007270	34.6983	-0.301887	-5020.12	1.448257E-6	NaN
384	1.000000	1.033211	7.36882e+06	-57839.1	955.818	-29739.7	0.000000	0.000000	7.033145	-0.037823	NaN	0.000000	0.001604	0.001672	28.0788	0.135082	0.001978	68.2804	-168.801	14.7946	-0.036875	1.031827	-0.292038	-0.293421	-0.037823	68.2804	-0.291622	-3528.51	1.071917E-5	NaN
384	1.000000	1.043232	7.36882e+06	-57839.1	955.819	-29739.7	0.000000	0.000000	7.043169	0.033741	NaN	0.000000	0.001607	0.001672	28.0786	0.133391	0.002130	62.6375	-166.098	-165.836	-0.056142	1.041937	-0.282017	-0.283312	0.033741	62.6375	-0.282421	-2567.17	-1.314311E-5	NaN
384	1.000000	1.053225	7.36882e+06	-57839.1	955.818	-29739.7	0.000000	0.000000	7.053158	-0.039914	NaN	0.000000	0.001627	0.001729	28.0788	0.053267	0.002066	25.7852	-3.254404	10.5648	-0.038990	1.051851	-0.272024	-0.273398	-0.039914	25.7852	-0.270863	-1716.56	2.325262E-5	NaN
384	1.000000	1.063220	7.36882e+06	-57839.1	955.82	-29739.7	0.000000	0.000000	7.063153	-0.049546	NaN	0.000000	0.001619	0.001694	28.0785	0.092636	0.002001	46.2989	54.1434	-165.291	0.006963	1.061935	-0.262029	-0.263314	-0.049546	46.2989	-0.261226	-1223.77	4.048677E-5	NaN
384	1.000000	1.073235	7.36882e+06	-57839.1	955.82	-29739.7	0.000000	0.000000	7.073170	-0.009448	NaN	0.000000	0.001629	0.001739	28.0788	0.133576	0.001934	69.0666	60.4702	12.0079	0.030776	1.071901	-0.252014	-0.253347	-0.009448	69.0666	-0.251911	-880.036	1.073598E-5	NaN
384	1.000000	1.083248	7.36882e+06	-57839.1	955.82	-29739.7	0.000000	0.000000	7.083180	-0.082441	NaN	0.000000	0.001610	0.001707	28.0786	0.116432	0.002160	53.9115	83.0841	-165.809	-0.065563	1.081948	-0.242001	-0.243300	-0.082441	53.9115	-0.240854	-592.764	0.000139	NaN
384	1.000000	1.093254	7.36882e+06	-57839.1	955.82	-29739.7	0.000000	0.000000	7.093189	-0.026184	NaN	0.000000	0.001664	0.001703	28.0786	0.074923	0.001966	38.11	-83.7147	16.3561	0.016858	1.091883	-0.231994	-0.233366	-0.026184	38.11	-0.231479	-422.52	6.197170E-5	NaN
384	1.000000	1.103259	7.36882e+06	-57839.1	955.819	-29739.7	0.000000	0.000000	7.103191	-0.085032	NaN	0.000000	0.001601	0.001697	28.0784	0.114460	0.001979	57.8324	165.817	-168.146	-0.170593	1.101923	-0.221989	-0.223325	-0.085032	57.8324	-0.220887	-286.97	0.000296	NaN
384	1.000000	1.113238	7.36882e+06	-57839.1	955.819	-29739.7	0.000000	0.000000	7.113173	-0.010620	NaN	0.000000	0.001586	0.001689	28.0789	0.049068	0.001945	25.233	-154.711	10.9512	-0.052120	1.111864	-0.212010	-0.213384	-0.010620	25.233	-0.211694	-204.281	5.198788E-5	NaN
384	1.000000	1.123255	7.36882e+06	-57839.1	955.82	-29739.7	0.000000	0.000000	7.123189	-0.037970	NaN	0.000000	0.001569	0.001679	28.0786	0.076824	0.001973	38.9399	19.0518	-166.056	-0.033207	1.121960	-0.201993	-0.203289	-0.037970	38.9399	-0.201262	-138.17	0.000275	NaN
384	1.000000	1.133254	7.36882e+06	-57839.1	955.819	-29739.7	0.000000	0.000000	7.133188	-0.046428	NaN	0.000000	0.001546	0.001657	28.0785	0.088635	0.001932	45.8836	79.4346	16.5265	-0.041434	1.131930	-0.191994	-0.193318	-0.046428	45.8836	-0.191235	-94.3277	0.000492	NaN
384	1.000000	1.143264	7.36882e+06	-57839.1	955.819	-29739.7	0.000000	0.000000	7.143199	-0.035786	NaN	0.000000	0.001542	0.001664	28.0785	0.036455	0.002027	17.9864	-49.6656	-168.738	-0.013664	1.141926	-0.181984	-0.183323	-0.035786	17.9864	-0.180492	-62.2057	0.000575	NaN
384	1.000000	1.153259	7.36882e+06	-57839.1	955.819	-29739.7	0.000000	0.000000	7.153195	0.008356	NaN	0.000000	0.001535	0.001700	28.0789	0.049378	0.002133	23.1488	17.5308	14.294	0.043680	1.151929	-0.171989	-0.173319	0.008356	23.1488	-0.172260	-44.9539	-0.000186	NaN
384	1.000000	1.163283	7.36882e+06	-57839.1	955.819	-29739.7	0.000000	0.000000	7.163219	-0.002985	NaN	0.000000	0.001577	0.001701	28.0786	0.056185	0.001885	29.8054	77.9035	-163.311	0.025378	1.161899	-0.161965	-0.163349	-0.002985	29.8054	-0.161890	-29.6139	0.000101	NaN
384	1.000000	1.173266	7.36882e+06	-57839.1	955.819	-29739.7	0.000000	0.000000	7.173201	-0.034959	NaN	0.000000	0.001598	0.001680	28.0798	0.054040	0.001878	28.7741	102.074	13.4068	0.063498	1.171907	-0.151982	-0.153341	-0.034959	28.7741	-0.151071	-18.9455	0.001845	NaN
384	1.000000	1.183310	7.36882e+06	-57839.1	955.818	-29739.7	0.000000	0.000000	7.183243	-0.044703	NaN	0.000000	0.001621	0.001699	28.08	0.041676	0.001916	21.747	-173.636	-166.851	-0.045233	1.182011	-0.141939	-0.143238	-0.044703	21.747	-0.140397	-12.0343	0.003715	NaN
384	1.000000	1.193267	7.36882e+06	-57839.1	955.819	-29739.7	0.000000	0.000000	7.193201	-0.036570	NaN	0.000000	0.001561	0.001703	28.08	0.111777	0.001969	56.7741	-96.3093	14.2003	-0.071402	1.191887	-0.131981	-0.133361	-0.036570	56.7741	-0.131498	-8.147696	0.004488	NaN
384	1.000000	1.203282	7.36882e+06	-57839.1	955.82	-29739.7	0.000000	0.000000	7.203215	-0.052789	NaN	0.000000	0.001574	0.001685	28.0835	0.088220	0.002054	42.9605	115.276	-164.039	-0.045208	1.201931	-0.121967	-0.123318	-0.052789	42.9605	-0.121045	-5.071462	0.010409	NaN
384	1.000000	1.213294	7.36882e+06	-57839.1	955.819	-29739.7	0.000000	0.000000	7.213229	-0.001193	NaN	0.000000	0.001579	0.001678	28.0809	0.077138	0.002014	38.3077	-91.988	17.1546	0.053239	1.211973	-0.111955	-0.113276	-0.001193	38.3077	-0.111932	-3.299278	0.000362	NaN
384	1.000000	1.223319	7.36882e+06	-57839.1	955.82	-29739.7	0.000000	0.000000	7.223252	-0.063693	NaN	0.000000	0.001582	0.001666	28.0804	0.030880	0.002053	15.0386	164.096	-165.398	-0.066288	1.221999	-0.101929	-0.103250	-0.063693	15.0386	-0.098753	-1.714093	0.037158	NaN
384	1.000000	1.233297	7.36882e+06	-57839.1	955.82	-29739.7	0.000000	0.000000	7.233232	0.001080	NaN	0.000000	0.001607	0.001653	28.0807	0.010493	0.001989	5.276138	62.9613	13.5019	-0.018526	1.231916	-0.091952	-0.093332	0.001080	5.276138	-0.092105	-1.210326	-0.000893	NaN
384	1.000000	1.243316	7.36882e+06	-57839.1	955.819	-29739.7	0.000000	0.000000	7.243248	-0.095714	NaN	0.000000	0.001598	0.001678	28.0799	0.049933	0.002024	24.6709	92.4141	-167.568	-0.077239	1.241977	-0.081932	-0.083272	-0.095714	24.6709	-0.079023	-0.585013	0.163609	NaN
384	1.000000	1.253335	7.36882e+06	-57839.1	955.819	-29739.7	0.000000	0.000000	7.253271	0.006994	NaN	0.000000	0.001575	0.001658	28.0804	0.092698	0.001992	46.5234	-129.626	14.8228	-0.098641	1.251973	-0.071913	-0.073276	0.006994	46.5234	-0.072026	-0.386170	-0.018111	NaN
384	1.000000	1.263311	7.36882e+06	-57839.1	955.819	-29739.7	0.000000	0.000000	7.263243	-0.068579	NaN	0.000000	0.001590	0.001675	28.0801	0.072430	0.001978	36.6161	-71.9934	-166.606	-0.069889	1.262040	-0.061938	-0.063209	-0.068579	36.6161	-0.060533	-0.186536	0.367645	NaN
384	1.000000	1.273346	7.36882e+06	-57839.1	955.819	-29739.7	0.000000	0.000000	7.273282	0.014110	NaN	0.000000	0.001601	0.001690	28.0809	0.073838	0.001880	39.2743	103.788	14.2731	-0.020283	1.271983	-0.051903	-0.053265	0.014110	39.2743	-0.052172	-0.106084	-0.133012	NaN
384	1.000000	1.283335	7.36882e+06	-57839.1	955.819	-29739.7	0.000000	0.000000	7.283267	-0.075186	NaN	0.000000	0.001580	0.001670	28.0798	0.058761	0.001893	31.044	-102.581	-162.597	-0.063197	1.282034	-0.041914	-0.043215	-0.075186	31.044	-0.040097	-0.045531	1.651319	NaN
384	1.000000	1.293336	7.36882e+06	-57839.1	955.82	-29739.7	0.000000	0.000000	7.293269	-0.059650	NaN	0.000000	0.001575	0.001678	28.0801	0.063658	0.002067	30.8006	121.966	15.4597	-0.040725	1.291920	-0.031913	-0.033329	-0.059650	30.8006	-0.030460	-0.023704	2.516414	NaN
384	1.000000	1.303355	7.36882e+06	-57839.1	955.821	-29739.7	0.000000	0.000000	7.303290	-0.027824	NaN	0.000000	0.001584	0.001692	28.0798	0.022434	0.002042	10.988	145.838	-166.537	0.039397	1.302043	-0.021893	-0.023205	-0.027824	10.988	-0.019994	-0.012557	2.215892	NaN
384	1.000000	1.313350	7.36882e+06	-57839.1	955.818	-29739.7	0.000000	0.000000	7.313284	-0.046196	NaN	0.000000	0.001608	0.001646	28.0791	0.124648	0.002087	59.7295	148.396	15.1923	-2.617830E-5	1.311988	-0.011898	-0.013261	-0.046196	59.7295	-0.011318	-0.007140	6.470421	NaN
384	1.000000	1.323374	7.36882e+06	-57839.1	955.818	-29739.7	0.000000	0.000000	7.323309	-0.011242	NaN	0.000000	0.001613	0.001654	28.0786	0.055169	0.001948	28.3198	60.3484	-164.698	-0.010871	1.322043	-0.001874	-0.003206	-0.011242	28.3198	-0.001577	-0.001144	9.830416	NaN
384	1.000000	1.333335	7.36882e+06	-57839.1	955.819	-29739.7	0.000000	0.000000	7.333338	1.633225	NaN	0.000000	0.001605	0.001659	28.0789	1.147291	0.002001	573.314	12.8717	15.4441	1.217312	1.331990	0.008087	0.006741	1.633225	573.314	0.005950	0.005017	325.519	7394.88
384	1.000000	1.343319	7.36882e+06	-57839.1	955.818	-29739.7	0.000000	0.000000	7.343497	5.901103	NaN	0.000000	0.001573	0.001640	28.0788	2.419115	0.001882	1285.2	9.256874	-167.18	5.139722	1.342035	0.018070	0.016787	5.901103	1285.2	0.014627	0.014791	398.974	9654.92
384	2.000000	1.350443	7.36882e+06	-57839.1	955.817	-29739.7	0.000000	0.000000	7.350779	9.726882	NaN	0.000000	0.001593	0.001646	28.0798	3.475483	0.001895	1833.96	9.648249	11.4949	9.679310	1.350047	0.025195	0.024798	9.726882	1833.96	0.021217	0.024491	397.168	10706.9
384	2.000000	1.352877	7.36882e+06	-57839.1	955.818	-29739.7	0.000000	0.000000	7.353283	11.4251	NaN	0.000000	0.001577	0.001685	28.0787	3.989374	0.002098	1901.46	12.0774	-173.945	11.3304	1.352604	0.027629	0.027355	11.4251	1901.46	0.023122	0.027688	412.633	10440.3
384	2.000000	1.355376	7.36882e+06	-57839.1	955.818	-29739.7	0.000000	0.000000	7.355868	13.5201	NaN	0.000000	0.001603	0.001693	28.0789	4.139042	0.001946	2127.3	9.983082	8.893711	13.2403	1.354968	0.030128	0.029720	13.5201	2127.3	0.025361	0.031676	426.826	10920.4
384	2.000000	1.357828	7.36882e+06	-57839.1	955.818	-29739.7	0.000000	0.000000	7.358404	15.5687	NaN	0.000000	0.001616	0.001674	28.0786	4.148168	0.001913	2168.78	3.631191	-164.512	15.2942	1.357561	0.032580	0.032312	15.5687	2168.78	0.027196	0.035132	443.152	10571.5
384	2.000000	1.360351	7.36882e+06	-57839.1	955.818	-29739.7	0.000000	0.000000	7.361021	17.8665	NaN	0.000000	0.001621	0.001627	28.079	4.618797	0.001893	2439.72	7.777144	10.4048	17.4307	1.359936	0.035102	0.034688	17.8665	2439.72	0.029610	0.039939	447.343	11153.6
384	2.000000	1.362774	7.36882e+06	-57839.1	955.818	-29739.7	0.000000	0.000000	7.363537	20.1078	NaN	0.000000	0.001633	0.001643	28.0787	5.162487	0.001956	2638.95	8.038621	-172.531	19.5316	1.362517	0.037525	0.037268	20.1078	2638.95	0.031811	0.044580	451.047	11419.1
384	2.000000	1.365338	7.36882e+06	-57839.1	955.818	-29739.7	0.000000	0.000000	7.366198	22.4494	NaN	0.000000	0.001637	0.001651	28.0789	5.108113	0.001989	2567.56	4.886488	13.8105	22.0204	1.364957	0.040090	0.039709	22.4494	2567.56	0.033532	0.048384	463.986	10664.6
384	2.000000	1.367817	7.36882e+06	-57839.1	955.819	-29739.7	0.000000	0.000000	7.368786	25.1143	NaN	0.000000	0.001627	0.001680	28.0788	5.366309	0.001875	2861.29	4.243416	-169.561	24.8098	1.367539	0.042568	0.042291	25.1143	2861.29	0.035986	0.054066	464.515	11242.8
384	2.000000	1.370289	7.36882e+06	-57839.1	955.818	-29739.7	0.000000	0.000000	7.371368	27.7867	NaN	0.000000	0.001629	0.001669	28.0787	6.015460	0.002050	2934.22	9.321559	6.583726	27.2307	1.369910	0.045040	0.044662	27.7867	2934.22	0.037938	0.058808	472.5	11054.7
384	2.000000	1.372795	7.36882e+06	-57839.1	955.819	-29739.7	0.000000	0.000000	7.373989	30.5735	NaN	0.000000	0.001619	0.001639	28.0799	6.116441	0.001948	3140.23	7.646555	-171.328	30.3882	1.372526	0.047547	0.047278	30.5735	3140.23	0.040245	0.064662	472.82	11282.6
384	2.000000	1.375285	7.36882e+06	-57839.1	955.819	-29739.7	0.000000	0.000000	7.376609	33.7409	NaN	0.000000	0.001611	0.001639	28.0803	6.245941	0.002008	3110.44	3.032735	12.114	33.2388	1.374906	0.050037	0.049658	33.7409	3110.44	0.041901	0.069034	488.761	10815.9
384	2.000000	1.377805	7.36882e+06	-57839.1	955.82	-29739.7	0.000000	0.000000	7.379265	37.0567	NaN	0.000000	0.001630	0.001643	28.0801	6.487252	0.002013	3222.43	4.761415	-169.509	36.9804	1.377464	0.052557	0.052216	37.0567	3222.43	0.043932	0.074584	496.845	10780.4
384	2.000000	1.380288	7.36882e+06	-57839.1	955.82	-29739.7	0.000000	0.000000	7.381873	40.0868	NaN	0.000000	0.001609	0.001663	28.0799	6.878107	0.002086	3296.82	9.287859	6.896993	39.864	1.379906	0.055040	0.054658	40.0868	3296.82	0.045920	0.080222	499.699	10634.6
384	2.000000	1.382788	7.36882e+06	-57839.1	955.819	-29739.7	0.000000	0.000000	7.384514	43.5076	NaN	0.000000	0.001591	0.001632	28.0802	6.987848	0.001915	3648.33	6.687333	-173.125	43.3556	1.382486	0.057540	0.057238	43.5076	3648.33	0.048596	0.088122	493.722	11228.6
384	2.000000	1.385291	7.36882e+06	-57839.1	955.818	-29739.7	0.000000	0.000000	7.387144	46.6152	NaN	0.000000	0.001613	0.001648	28.0802	7.188943	0.002002	3591.01	6.541795	9.357358	46.3089	1.384954	0.060042	0.059705	46.6152	3591.01	0.050307	0.093363	499.289	10737.5
384	2.000000	1.387762	7.36882e+06	-57839.1	955.818	-29739.7	0.000000	0.000000	7.389762	50.1674	NaN	0.000000	0.001573	0.001634	28.08	7.130010	0.001958	3640.87	5.620800	-172.067	49.9584	1.387495	0.062513	0.062246	50.1674	3640.87	0.052179	0.099268	505.375	10557.8
384	2.000000	1.390274	7.36882e+06	-57839.1	955.819	-29739.7	0.000000	0.000000	7.392416	53.6131	NaN	0.000000	0.001574	0.001608	28.0799	7.364182	0.001839	4003.48	3.009506	10.1543	53.3251	1.389965	0.065026	0.064716	53.6131	4003.48	0.054982	0.108432	494.44	11107.9
384	2.000000	1.392742	7.36882e+06	-57839.1	955.82	-29739.7	0.000000	0.000000	7.395045	57.5439	NaN	0.000000	0.001583	0.001598	28.0799	7.786671	0.002076	3751.29	5.912481	-170.977	57.2689	1.392500	0.067494	0.067251	57.5439	3751.29	0.055989	0.111819	514.618	10249.4
384	2.000000	1.395265	7.36882e+06	-57839.1	955.819	-29739.7	0.000000	0.000000	7.397717	61.1777	NaN	0.000000	0.001582	0.001642	28.08	8.146605	0.002057	3960.1	6.187657	8.601167	60.7494	1.394895	0.070016	0.069646	61.1777	3960.1	0.058430	0.120238	508.805	10434.2
384	2.000000	1.397745	7.36882e+06	-57839.1	955.819	-29739.7	0.000000	0.000000	7.400361	65.1635	NaN	0.000000	0.001592	0.001620	28.08	8.256488	0.001959	4215.34	6.904152	-173.985	64.6576	1.397450	0.072496	0.072201	65.1635	4215.34	0.060902	0.129063	504.897	10720.3
384	2.000000	1.400305	7.36882e+06	-57839.1	955.819	-29739.7	0.000000	0.000000	7.403084	69.1066	NaN	0.000000	0.001562	0.001557	28.0802	8.848286	0.002104	4204.8	5.550053	8.659347	68.7073	1.399898	0.075057	0.074649	69.1066	4204.8	0.062730	0.135780	508.958	10425.6
384	2.000000	1.402728	7.36882e+06	-57839.1	955.819	-29739.7	0.000000	0.000000	7.405680	73.3057	NaN	0.000000	0.001637	0.001530	28.08	8.539135	0.001983	4307.07	2.129920	-167.969	72.6644	1.402459	0.077480	0.077211	73.3057	4307.07	0.064715	0.143256	511.711	10396.8
384	2.000000	1.405235	7.36882e+06	-57839.1	955.819	-29739.7	0.000000	0.000000	7.408359	77.5016	NaN	0.000000	0.001588	0.001572	28.0806	8.862091	0.001970	4497.69	5.313930	7.909448	76.5333	1.404896	0.079986	0.079648	77.5016	4497.69	0.067063	0.152345	508.724	10528.1
384	2.000000	1.407720	7.36882e+06	-57839.1	955.819	-29739.7	0.000000	0.000000	7.411003	81.3583	NaN	0.000000	0.001617	0.001526	28.079	8.951144	0.001894	4726.1	3.114903	-171.84	80.9183	1.407477	0.082471	0.082228	81.3583	4726.1	0.069560	0.162304	501.272	10717.9
384	2.000000	1.410236	7.36882e+06	-57839.1	955.82	-29739.7	0.000000	0.000000	7.413692	85.5644	NaN	0.000000	0.001576	0.001595	28.0789	9.247299	0.002003	4615.88	4.386545	8.394496	85.0009	1.409918	0.084987	0.084670	85.5644	4615.88	0.071085	0.168529	507.715	10272.8
384	2.000000	1.412755	7.36882e+06	-57839.1	955.82	-29739.7	0.000000	0.000000	7.416394	90.0088	NaN	0.000000	0.001611	0.001558	28.0788	9.636743	0.002004	4809.39	4.885973	-171.737	89.7593	1.412403	0.087507	0.087154	90.0088	4809.39	0.073470	0.178490	504.278	10400.5
384	2.000000	1.415271	7.36882e+06	-57839.1	955.819	-29739.7	0.000000	0.000000	7.419091	94.4037	NaN	0.000000	0.001617	0.001587	28.079	10.0163	0.002069	4840.73	7.456348	6.275664	94.1637	1.414907	0.090022	0.089658	94.4037	4840.73	0.075396	0.186728	505.567	10234.8
384	2.000000	1.417736	7.36882e+06	-57839.1	955.82	-29739.7	0.000000	0.000000	7.421739	98.8663	NaN	0.000000	0.001581	0.001589	28.0789	9.923603	0.001926	5151.36	4.071450	-171.807	98.59	1.417442	0.092487	0.092194	98.8663	5151.36	0.078093	0.198558	497.922	10562.1
384	2.000000	1.420199	7.36882e+06	-57839.1	955.818	-29739.7	0.000000	0.000000	7.424384	103.293	NaN	0.000000	0.001583	0.001554	28.079	10.4565	0.002104	4969.72	6.171590	7.873026	102.345	1.419898	0.094950	0.094650	103.293	4969.72	0.079362	0.204241	505.742	10046.9
384	2.000000	1.422731	7.36882e+06	-57839.1	955.82	-29739.7	0.000000	0.000000	7.427140	108.71	NaN	0.000000	0.001580	0.001561	28.0789	10.3469	0.001971	5249.04	5.717433	-173.216	108.025	1.422363	0.097483	0.097114	108.71	5249.04	0.081950	0.216068	503.129	10317.1
384	2.000000	1.425238	7.36882e+06	-57839.1	955.82	-29739.7	0.000000	0.000000	7.429846	113.551	NaN	0.000000	0.001627	0.001618	28.0792	10.6319	0.001949	5453.98	6.159077	5.923934	112.562	1.424854	0.099990	0.099606	113.551	5453.98	0.084375	0.227429	499.282	10448.7
384	2.000000	1.427734	7.36882e+06	-57839.1	955.821	-29739.7	0.000000	0.000000	7.432517	117.816	NaN	0.000000	0.001585	0.001591	28.079	10.7801	0.002088	5163.83	4.576302	-170.794	117.201	1.427417	0.102486	0.102169	117.816	5163.83	0.085374	0.232189	507.412	9790.94
384	2.000000	1.430222	7.36882e+06	-57839.1	955.82	-29739.7	0.000000	0.000000	7.435215	122.913	NaN	0.000000	0.001582	0.001639	28.0792	11.052	0.001979	5585.79	4.289150	8.653619	122.364	1.429876	0.104973	0.104628	122.913	5585.79	0.088470	0.247232	497.156	10263.7
384	2.000000	1.432711	7.36882e+06	-57839.1	955.821	-29739.7	0.000000	0.000000	7.437927	128.346	NaN	0.000000	0.001601	0.001581	28.0789	11.3308	0.001875	6042.94	5.723318	-174.69	127.404	1.432366	0.107462	0.107118	128.346	6042.94	0.091533	0.262550	488.844	10775
384	2.000000	1.435200	7.36882e+06	-57839.1	955.819	-29739.7	0.000000	0.000000	7.440598	132.758	NaN	0.000000	0.001596	0.001581	28.0792	11.5347	0.002005	5751.88	2.973713	10.1868	131.794	1.434885	0.109951	0.109637	132.758	5751.88	0.092641	0.268194	495.009	10147.5
384	2.000000	1.437715	7.36882e+06	-57839.1	955.821	-29739.7	0.000000	0.000000	7.443319	137.763	NaN	0.000000	0.001597	0.001605	28.0789	12.0206	0.002152	5584.92	4.347254	-171.358	137.602	1.437448	0.112467	0.112199	137.763	5584.92	0.093967	0.275024	500.913	9729.82
384	2.000000	1.440197	7.36882e+06	-57839.1	955.82	-29739.7	0.000000	0.000000	7.446003	142.694	NaN	0.000000	0.001580	0.001638	28.0791	12.2134	0.001902	6422.99	5.213343	5.020219	142.171	1.439858	0.114948	0.114610	142.694	6422.99	0.098286	0.297834	479.105	10752.9
384	2.000000	1.442688	7.36882e+06	-57839.1	955.82	-29739.7	0.000000	0.000000	7.448692	147.484	NaN	0.000000	0.001607	0.001613	28.0799	12.6371	0.002015	6271.25	5.181680	-173.815	147.144	1.442465	0.117440	0.117216	147.484	6271.25	0.099802	0.306038	481.914	10357.1
384	2.000000	1.445239	7.36882e+06	-57839.1	955.82	-29739.7	0.000000	0.000000	7.451444	152.365	NaN	0.000000	0.001597	0.001614	28.0802	12.7413	0.001977	6443.25	4.345088	6.810564	152.085	1.444905	0.119991	0.119657	152.365	6443.25	0.102255	0.319540	476.825	10413.9
384	2.000000	1.447736	7.36882e+06	-57839.1	955.82	-29739.7	0.000000	0.000000	7.454147	157.359	NaN	0.000000	0.001616	0.001600	28.08	13.0845	0.002032	6438.88	5.749399	-174.088	157.362	1.447432	0.122488	0.122183	157.359	6438.88	0.104159	0.330206	476.549	10237.4
384	2.000000	1.448198	7.36882e+06	-57839.1	955.819	-29739.7	0.000000	0.000000	7.454647	158.307	NaN	0.000000	0.001598	0.001594	28.08	12.8645	0.001932	6657.64	3.104313	7.376736	157.317	1.447884	0.122949	0.122635	158.307	6657.64	0.105116	0.335629	471.674	10499.4