File: remote_trans/data/nanoindenter/0828-1/data/Data_2025-08-06,11h17m57s/2025-07-22_16-23-58_1_1048.txt
2025-07-22, 16:23:58, 1
Index	Phase	Displacement	Time	Pos X	Pos Y	Pos Z	Rot A	Rot B	Piezo Z	Force A	Force B	Gripper	Voltage A	Voltage B	Temperature	Amplitude force	Amplitude pos	Stiffness	Phase shift	Phase excitation	Force A raw	Displacement raw	HMax	HMax raw	Real Force	Real Stiffness	Contact Depth	Area	Hardness	Reduced Mod.
[#]	[#]	[um]	[s]	[um]	[um]	[um]	[m°]	[m°]	[um]	[uN]	[uN]	[V]	[V]	[V]	[°C]	[uN]	[um]	[N/m]	[°]	[°]	[uN]	[um]	[um]	[um]	[uN]	[N/m]	[um]	[um^2]	[MPa]	[MPa]
1048	1.000000	0.002490	7.37529e+06	-52539.1	1055.82	-29748.7	0.000000	0.000000	6.002794	0.023704	NaN	0.000000	0.001626	0.001746	28.0848	0.079125	0.000918	86.2259	167.266	-168.48	0.003395	0.001203	-1.248857	-1.250144	0.023704	86.2259	-1.249063	-4.981823E+16	-4.758112E-19	NaN
1048	1.000000	0.012536	7.37529e+06	-52539.1	1055.82	-29748.7	0.000000	0.000000	6.012836	-0.074768	NaN	0.000000	0.001694	0.001753	28.0849	0.080790	0.001264	63.9327	132.72	18.3212	-0.101802	0.011161	-1.238811	-1.240185	-0.074768	63.9327	-1.237934	-3.535903E+16	2.114543E-18	NaN
1048	1.000000	0.022459	7.37529e+06	-52539.1	1055.82	-29748.7	0.000000	0.000000	6.022763	0.017091	NaN	0.000000	0.001670	0.001785	28.0849	0.054172	0.001729	31.3372	-14.8018	-167.209	0.040542	0.021174	-1.228888	-1.230173	0.017091	31.3372	-1.229297	-2.709742E+16	-6.307064E-19	NaN
1048	1.000000	0.032424	7.37529e+06	-52539.1	1055.82	-29748.7	0.000000	0.000000	6.032728	-0.008180	NaN	0.000000	0.001663	0.001748	28.0847	0.055353	0.001804	30.6884	99.6076	15.3402	0.036189	0.031050	-1.218922	-1.220296	-0.008180	30.6884	-1.218722	-1.956156E+16	4.181505E-19	NaN
1048	1.000000	0.042441	7.37529e+06	-52539.1	1055.82	-29748.7	0.000000	0.000000	6.042745	0.004231	NaN	0.000000	0.001649	0.001783	28.0849	0.065144	0.001987	32.7869	44.9956	-166.384	-0.058218	0.041198	-1.208906	-1.210149	0.004231	32.7869	-1.209002	-1.449721E+16	-2.918293E-19	NaN
1048	1.000000	0.052460	7.37529e+06	-52539.1	1055.82	-29748.7	0.000000	0.000000	6.052766	0.053855	NaN	0.000000	0.001656	0.001742	28.0835	0.108455	0.002030	53.435	56.3423	10.8774	-0.017621	0.051061	-1.198887	-1.200286	0.053855	53.435	-1.199643	-1.086335E+16	-4.957474E-18	NaN
1048	1.000000	0.062426	7.37529e+06	-52539.1	1055.82	-29748.7	0.000000	0.000000	6.062730	0.019506	NaN	0.000000	0.001666	0.001783	28.0833	0.125203	0.001921	65.1734	-88.1773	-165.172	0.063045	0.061129	-1.188921	-1.190218	0.019506	65.1734	-1.189145	-7.859205E+15	-2.481873E-18	NaN
1048	1.000000	0.072445	7.37529e+06	-52539.1	1055.82	-29748.7	0.000000	0.000000	6.072752	0.093712	NaN	0.000000	0.001631	0.001703	28.0833	0.061111	0.002075	29.4515	-27.0701	19.7349	0.018884	0.071061	-1.178902	-1.180286	0.093712	29.4515	-1.181288	-6.167835E+15	-1.519360E-17	NaN
1048	1.000000	0.082464	7.37529e+06	-52539.1	1055.82	-29748.7	0.000000	0.000000	6.082768	0.019285	NaN	0.000000	0.001655	0.001758	28.0836	0.130940	0.001876	69.7914	-85.5748	-164.025	0.065520	0.081114	-1.168883	-1.170233	0.019285	69.7914	-1.169090	-4.233448E+15	-4.555401E-18	NaN
1048	1.000000	0.092457	7.37529e+06	-52539.1	1055.82	-29748.7	0.000000	0.000000	6.092761	0.005740	NaN	0.000000	0.001722	0.001742	28.0835	0.084049	0.001995	42.1204	-96.2347	15.2354	-0.021917	0.091078	-1.158890	-1.160269	0.005740	42.1204	-1.158992	-3.099960E+15	-1.851536E-18	NaN
1048	1.000000	0.102453	7.37529e+06	-52539.1	1055.82	-29748.7	0.000000	0.000000	6.102757	0.005560	NaN	0.000000	0.001688	0.001752	28.0833	0.054359	0.002065	26.3215	117.969	-163.635	-0.077813	0.101181	-1.148893	-1.150165	0.005560	26.3215	-1.149052	-2.280902E+15	-2.437781E-18	NaN
1048	1.000000	0.112457	7.37529e+06	-52539.1	1055.82	-29748.7	0.000000	0.000000	6.112762	0.023741	NaN	0.000000	0.001700	0.001776	28.0836	0.033862	0.002065	16.4012	-26.253	12.2749	0.030591	0.111084	-1.138890	-1.140262	0.023741	16.4012	-1.139975	-1.723481E+15	-1.377486E-17	NaN
1048	1.000000	0.122467	7.37529e+06	-52539.1	1055.82	-29748.7	0.000000	0.000000	6.122771	0.030398	NaN	0.000000	0.001705	0.001754	28.0833	0.077985	0.001909	40.8504	72.0938	-166.827	0.083796	0.121159	-1.128880	-1.130188	0.030398	40.8504	-1.129438	-1.244759E+15	-2.442064E-17	NaN
1048	1.000000	0.132505	7.37529e+06	-52539.1	1055.82	-29748.7	0.000000	0.000000	6.132809	0.004334	NaN	0.000000	0.001756	0.001767	28.0835	0.016162	0.002118	7.631169	-48.4487	13.1169	0.079242	0.131139	-1.118841	-1.120208	0.004334	7.631169	-1.119267	-9.091612E+14	-4.767322E-18	NaN
1048	1.000000	0.142450	7.37529e+06	-52539.1	1055.82	-29748.7	0.000000	0.000000	6.142754	-0.008699	NaN	0.000000	0.001715	0.001767	28.0835	0.061681	0.002032	30.3558	-135.312	-166.594	0.053353	0.141234	-1.108896	-1.110112	-0.008699	30.3558	-1.108681	-6.555261E+14	1.326995E-17	NaN
1048	1.000000	0.152480	7.37529e+06	-52539.1	1055.82	-29748.7	0.000000	0.000000	6.152783	-0.007829	NaN	0.000000	0.001744	0.001782	28.0838	0.045590	0.002017	22.6071	4.249530	14.4886	0.029017	0.151102	-1.098867	-1.100244	-0.007829	22.6071	-1.098607	-4.801373E+14	1.630583E-17	NaN
1048	1.000000	0.162498	7.3753e+06	-52539.1	1055.82	-29748.7	0.000000	0.000000	6.162801	-0.010405	NaN	0.000000	0.001685	0.001760	28.0838	0.009502	0.002025	4.692205	-90.886	-163.318	-0.038522	0.161202	-1.088849	-1.090145	-0.010405	4.692205	-1.087186	-3.373066E+14	3.084828E-17	NaN
1048	1.000000	0.172491	7.3753e+06	-52539.1	1055.82	-29748.7	0.000000	0.000000	6.172793	-0.028302	NaN	0.000000	0.001668	0.001804	28.0837	0.029137	0.001990	14.6393	-91.3684	15.252	-0.046220	0.171129	-1.078856	-1.080217	-0.028302	14.6393	-1.077406	-2.492743E+14	1.135358E-16	NaN
1048	1.000000	0.182495	7.3753e+06	-52539.1	1055.82	-29748.7	0.000000	0.000000	6.182797	-0.055274	NaN	0.000000	0.001642	0.001792	28.0838	0.077598	0.001977	39.2526	103.325	-165.358	-0.035578	0.181242	-1.068851	-1.070105	-0.055274	39.2526	-1.067795	-1.851680E+14	2.985068E-16	NaN
1048	1.000000	0.192487	7.3753e+06	-52539.1	1055.82	-29748.7	0.000000	0.000000	6.192790	-0.012974	NaN	0.000000	0.001669	0.001764	28.0851	0.037152	0.002035	18.2606	-140.204	11.1205	0.045449	0.191127	-1.058860	-1.060220	-0.012974	18.2606	-1.058327	-1.381452E+14	9.391701E-17	NaN
1048	1.000000	0.202492	7.3753e+06	-52539.1	1055.82	-29748.7	0.000000	0.000000	6.202797	0.033692	NaN	0.000000	0.001696	0.001763	28.0846	0.013525	0.001992	6.790524	131.543	-166.602	0.047498	0.201183	-1.048854	-1.050163	0.033692	6.790524	-1.052576	-1.156213E+14	-2.914038E-16	NaN
1048	1.000000	0.212528	7.3753e+06	-52539.1	1055.82	-29748.7	0.000000	0.000000	6.212831	0.003308	NaN	0.000000	0.001663	0.001755	28.0849	0.022005	0.001983	11.0973	-41.922	15.5453	0.053547	0.211102	-1.038819	-1.040245	0.003308	11.0973	-1.039043	-7.604918E+13	-4.349166E-17	NaN
1048	1.000000	0.222520	7.3753e+06	-52539.1	1055.82	-29748.7	0.000000	0.000000	6.222827	0.082656	NaN	0.000000	0.001676	0.001789	28.0851	0.119745	0.002125	56.3617	23.797	-163.665	0.079246	0.221204	-1.028827	-1.030143	0.082656	56.3617	-1.029927	-5.734484E+13	-1.441378E-15	NaN
1048	1.000000	0.232515	7.3753e+06	-52539.1	1055.82	-29748.7	0.000000	0.000000	6.232818	0.004660	NaN	0.000000	0.001639	0.001762	28.0853	0.041660	0.002055	20.2752	-166.774	15.5015	0.043407	0.231130	-1.018832	-1.020217	0.004660	20.2752	-1.019004	-4.088430E+13	-1.139865E-16	NaN
1048	1.000000	0.242519	7.3753e+06	-52539.1	1055.82	-29748.7	0.000000	0.000000	6.242824	0.035672	NaN	0.000000	0.001626	0.001766	28.085	0.034612	0.002064	16.7698	107.95	-166.006	-0.011367	0.241196	-1.008827	-1.010151	0.035672	16.7698	-1.010423	-3.133805E+13	-1.138310E-15	NaN
1048	1.000000	0.252527	7.3753e+06	-52539.1	1055.82	-29748.7	0.000000	0.000000	6.252828	-0.068090	NaN	0.000000	0.001691	0.001795	28.0849	0.068376	0.001917	35.6693	64.3304	14.9881	-0.058508	0.251206	-0.998820	-1.000140	-0.068090	35.6693	-0.997388	-2.092202E+13	3.254453E-15	NaN
1048	1.000000	0.262563	7.3753e+06	-52539.1	1055.82	-29748.7	0.000000	0.000000	6.262870	0.091485	NaN	0.000000	0.001663	0.001798	28.0852	0.096588	0.001931	50.0215	-138.609	-164.509	0.036120	0.261250	-0.988784	-0.990097	0.091485	50.0215	-0.990156	-1.671894E+13	-5.471924E-15	NaN
1048	1.000000	0.272570	7.3753e+06	-52539.1	1055.82	-29748.7	0.000000	0.000000	6.272874	0.011177	NaN	0.000000	0.001681	0.001754	28.0849	0.073466	0.002109	34.8312	0.294158	16.4913	0.028069	0.271117	-0.978777	-0.980229	0.011177	34.8312	-0.979018	-1.183514E+13	-9.443800E-16	NaN
1048	1.000000	0.282531	7.3753e+06	-52539.1	1055.82	-29748.7	0.000000	0.000000	6.282834	-0.008786	NaN	0.000000	0.001641	0.001794	28.0847	0.110041	0.002048	53.721	118.914	-164.888	0.011696	0.281199	-0.968815	-0.970148	-0.008786	53.721	-0.968693	-8.591026E+12	1.022741E-15	NaN
1048	1.000000	0.292562	7.3753e+06	-52539.1	1055.82	-29748.7	0.000000	0.000000	6.292865	-0.005461	NaN	0.000000	0.001629	0.001765	28.0847	0.033488	0.001928	17.3659	33.1115	15.1755	-0.050822	0.291241	-0.958785	-0.960106	-0.005461	17.3659	-0.958549	-6.270553E+12	8.709122E-16	NaN
1048	1.000000	0.302532	7.3753e+06	-52539.1	1055.82	-29748.7	0.000000	0.000000	6.302837	0.032254	NaN	0.000000	0.001688	0.001748	28.0852	0.082969	0.001917	43.2907	-55.6283	-163.136	0.088550	0.301232	-0.948814	-0.950115	0.032254	43.2907	-0.949373	-4.716010E+12	-6.839192E-15	NaN
1048	1.000000	0.312536	7.3753e+06	-52539.1	1055.82	-29748.7	0.000000	0.000000	6.312836	-0.072665	NaN	0.000000	0.001651	0.001748	28.0847	0.070528	0.001907	36.9852	19.4485	16.1458	-0.050978	0.311198	-0.938811	-0.940149	-0.072665	36.9852	-0.937337	-3.244994E+12	2.239301E-14	NaN
1048	1.000000	0.322551	7.3753e+06	-52539.1	1055.82	-29748.7	0.000000	0.000000	6.322853	-0.045687	NaN	0.000000	0.001707	0.001725	28.0836	0.040086	0.001970	20.3444	-70.7377	-163.926	-0.028890	0.321233	-0.928795	-0.930113	-0.045687	20.3444	-0.927111	-2.361590E+12	1.934571E-14	NaN
1048	1.000000	0.332524	7.3753e+06	-52539.1	1055.82	-29748.7	0.000000	0.000000	6.332828	0.010269	NaN	0.000000	0.001734	0.001729	28.0836	0.091875	0.001984	46.314	137.604	17.4845	-0.079116	0.331192	-0.918823	-0.920155	0.010269	46.314	-0.918989	-1.834682E+12	-5.597340E-15	NaN
1048	1.000000	0.342564	7.3753e+06	-52539.1	1055.82	-29748.7	0.000000	0.000000	6.342869	0.035220	NaN	0.000000	0.001706	0.001755	28.0838	0.027226	0.001933	14.0837	0.915951	-162.825	0.011207	0.341231	-0.908782	-0.910115	0.035220	14.0837	-0.910658	-1.415948E+12	-2.487398E-14	NaN
1048	1.000000	0.352576	7.3753e+06	-52539.1	1055.82	-29748.7	0.000000	0.000000	6.352878	-0.035760	NaN	0.000000	0.001672	0.001761	28.0835	0.032457	0.001979	16.3966	38.6588	14.3368	-0.033746	0.351195	-0.898770	-0.900152	-0.035760	16.3966	-0.897135	-9.297111E+11	3.846405E-14	NaN
1048	1.000000	0.362554	7.3753e+06	-52539.1	1055.82	-29748.7	0.000000	0.000000	6.362861	0.087085	NaN	0.000000	0.001723	0.001739	28.0839	0.127888	0.002011	63.597	-148.715	-167.087	0.070132	0.361286	-0.888792	-0.890061	0.087085	63.597	-0.889819	-7.404107E+11	-1.176171E-13	NaN
1048	1.000000	0.372575	7.3753e+06	-52539.1	1055.82	-29748.7	0.000000	0.000000	6.372877	-0.036474	NaN	0.000000	0.001698	0.001756	28.0839	0.087824	0.002010	43.6917	173.719	16.2023	-0.082541	0.371248	-0.878772	-0.880098	-0.036474	43.6917	-0.878146	-5.147875E+11	7.085302E-14	NaN
1048	1.000000	0.382615	7.3753e+06	-52539.1	1055.82	-29748.7	0.000000	0.000000	6.382919	0.011034	NaN	0.000000	0.001671	0.001748	28.0838	0.141718	0.002084	68.0024	99.9391	-164.186	0.047430	0.381307	-0.868731	-0.870040	0.011034	68.0024	-0.868853	-3.854115E+11	-2.862798E-14	NaN
1048	1.000000	0.392582	7.3753e+06	-52539.1	1055.82	-29748.7	0.000000	0.000000	6.392883	-0.055754	NaN	0.000000	0.001684	0.001776	28.0835	0.079249	0.002121	37.3552	7.894154	15.1018	0.008271	0.391199	-0.858765	-0.860147	-0.055754	37.3552	-0.857645	-2.718003E+11	2.051300E-13	NaN
1048	1.000000	0.402631	7.3753e+06	-52539.1	1055.82	-29748.7	0.000000	0.000000	6.402933	-0.029630	NaN	0.000000	0.001703	0.001777	28.0838	0.025813	0.001929	13.3829	-54.7476	-163.782	-0.039635	0.401332	-0.848716	-0.850015	-0.029630	13.3829	-0.847055	-1.953693E+11	1.516640E-13	NaN
1048	1.000000	0.412587	7.3753e+06	-52539.1	1055.82	-29748.7	0.000000	0.000000	6.412893	0.056527	NaN	0.000000	0.001696	0.001754	28.0837	0.092106	0.001987	46.355	143.164	14.0576	-0.038672	0.411198	-0.838760	-0.840149	0.056527	46.355	-0.839675	-1.551973E+11	-3.642269E-13	NaN
1048	1.000000	0.422591	7.3753e+06	-52539.1	1055.82	-29748.7	0.000000	0.000000	6.422895	0.017239	NaN	0.000000	0.001683	0.001737	28.0837	0.090533	0.002053	44.0873	-20.537	-166.888	0.046170	0.421304	-0.828756	-0.830042	0.017239	44.0873	-0.829049	-1.114038E+11	-1.547465E-13	NaN
1048	1.000000	0.432612	7.3753e+06	-52539.1	1055.82	-29748.7	0.000000	0.000000	6.432913	-0.073526	NaN	0.000000	0.001719	0.001745	28.084	0.015439	0.001935	7.978230	141.267	16.5815	-0.029604	0.431242	-0.818734	-0.820105	-0.073526	7.978230	-0.811823	-6.505743E+10	1.130173E-12	NaN
1048	1.000000	0.442615	7.3753e+06	-52539.1	1055.82	-29748.7	0.000000	0.000000	6.442922	0.077356	NaN	0.000000	0.001716	0.001737	28.0841	0.090376	0.002113	42.7689	123.567	-164.373	0.050173	0.441280	-0.808732	-0.810067	0.077356	42.7689	-0.810088	-6.162673E+10	-1.255229E-12	NaN
1048	1.000000	0.452654	7.3753e+06	-52539.1	1055.82	-29748.7	0.000000	0.000000	6.452957	0.000573	NaN	0.000000	0.001706	0.001750	28.0839	0.077687	0.002079	37.3692	-15.8439	16.2408	0.045659	0.451237	-0.798693	-0.800110	0.000573	37.3692	-0.798704	-4.317911E+10	-1.326355E-14	NaN
1048	1.000000	0.462627	7.3753e+06	-52539.1	1055.82	-29748.7	0.000000	0.000000	6.462932	0.029507	NaN	0.000000	0.001617	0.001746	28.0849	0.005407	0.002057	2.628117	-67.1287	-168.795	0.033188	0.461286	-0.788719	-0.790061	0.029507	2.628117	-0.797140	-4.111833E+10	-7.176208E-13	NaN
1048	1.000000	0.472624	7.3753e+06	-52539.1	1055.82	-29748.7	0.000000	0.000000	6.472926	-0.026192	NaN	0.000000	0.001653	0.001721	28.0849	0.007957	0.001971	4.037827	-171.516	12.9375	-0.050811	0.471309	-0.778723	-0.780038	-0.026192	4.037827	-0.773858	-1.984979E+10	1.319523E-12	NaN
1048	1.000000	0.482614	7.3753e+06	-52539.1	1055.82	-29748.7	0.000000	0.000000	6.482917	-0.012797	NaN	0.000000	0.001630	0.001762	28.0852	0.014535	0.002044	7.111529	-89.2597	-165.616	0.034809	0.481345	-0.768732	-0.770001	-0.012797	7.111529	-0.767383	-1.620759E+10	7.895640E-13	NaN
1048	1.000000	0.492655	7.3753e+06	-52539.1	1055.82	-29748.7	0.000000	0.000000	6.492959	0.023064	NaN	0.000000	0.001652	0.001708	28.0849	0.019598	0.002139	9.162168	151.192	13.6474	0.012946	0.491267	-0.758692	-0.760080	0.023064	9.162168	-0.760580	-1.309748E+10	-1.760913E-12	NaN
1048	1.000000	0.502640	7.3753e+06	-52539.1	1055.82	-29748.7	0.000000	0.000000	6.502944	0.016514	NaN	0.000000	0.001641	0.001702	28.0849	0.030636	0.002115	14.4829	-51.3902	-160.559	-0.060238	0.501311	-0.748706	-0.750036	0.016514	14.4829	-0.749562	-9.273692E+9	-1.780729E-12	NaN
1048	1.000000	0.512630	7.3753e+06	-52539.1	1055.82	-29748.7	0.000000	0.000000	6.512934	0.013473	NaN	0.000000	0.001641	0.001743	28.0848	0.060045	0.001932	31.0828	114.626	20.0445	0.019374	0.511270	-0.738717	-0.740076	0.013473	31.0828	-0.739042	-6.668233E+9	-2.020472E-12	NaN
1048	1.000000	0.522648	7.3753e+06	-52539.1	1055.82	-29748.7	0.000000	0.000000	6.522952	0.021710	NaN	0.000000	0.001697	0.001688	28.085	0.046540	0.002070	22.4836	-71.888	-164.605	-0.047361	0.521327	-0.728699	-0.730019	0.021710	22.4836	-0.729423	-4.931145E+9	-4.402586E-12	NaN
1048	1.000000	0.532634	7.3753e+06	-52539.1	1055.82	-29748.7	0.000000	0.000000	6.532937	-0.020883	NaN	0.000000	0.001717	0.001743	28.0846	0.014203	0.002077	6.838266	-81.9077	13.4047	0.027051	0.531243	-0.718712	-0.720104	-0.020883	6.838266	-0.716422	-3.278479E+9	6.369623E-12	NaN
1048	1.000000	0.542665	7.3753e+06	-52539.1	1055.82	-29748.7	0.000000	0.000000	6.542971	0.046379	NaN	0.000000	0.001738	0.001724	28.0848	0.084358	0.002019	41.7855	158.995	-163.133	0.050145	0.541339	-0.708681	-0.710008	0.046379	41.7855	-0.709514	-2.638829E+9	-1.757579E-11	NaN
1048	1.000000	0.552638	7.3753e+06	-52539.1	1055.82	-29748.7	0.000000	0.000000	6.552944	0.053010	NaN	0.000000	0.001716	0.001725	28.085	0.106173	0.002022	52.4977	-162.92	16.3178	0.040999	0.551326	-0.698708	-0.700020	0.053010	52.4977	-0.699466	-1.924135E+9	-2.754980E-11	NaN
1048	1.000000	0.562676	7.3753e+06	-52539.1	1055.82	-29748.7	0.000000	0.000000	6.562979	-0.019622	NaN	0.000000	0.001718	0.001758	28.0848	0.062235	0.002114	29.4423	123.46	-165.521	0.067256	0.561302	-0.688670	-0.690045	-0.019622	29.4423	-0.688170	-1.348695E+9	1.454851E-11	NaN
1048	1.000000	0.572679	7.3753e+06	-52539.1	1055.82	-29748.7	0.000000	0.000000	6.572983	0.000483	NaN	0.000000	0.001729	0.001731	28.0844	0.033690	0.001976	17.0464	106.863	13.653	-0.082704	0.571293	-0.678667	-0.680054	0.000483	17.0464	-0.678689	-1.000624E+9	-4.823897E-13	NaN
1048	1.000000	0.582684	7.3753e+06	-52539.1	1055.82	-29748.7	0.000000	0.000000	6.582987	-0.024866	NaN	0.000000	0.001716	0.001760	28.0848	0.050951	0.001890	26.9518	14.5971	-164.962	0.041378	0.581361	-0.668663	-0.669985	-0.024866	26.9518	-0.667971	-7.138593E+8	3.483360E-11	NaN
1048	1.000000	0.592677	7.3753e+06	-52539.1	1055.82	-29748.7	0.000000	0.000000	6.592981	0.025241	NaN	0.000000	0.001658	0.001761	28.085	0.091914	0.002181	42.1352	-53.2301	15.8813	0.038663	0.591271	-0.658670	-0.660076	0.025241	42.1352	-0.659119	-5.400116E+8	-4.674090E-11	NaN
1048	1.000000	0.602709	7.3753e+06	-52539.1	1055.82	-29748.7	0.000000	0.000000	6.603012	-0.002511	NaN	0.000000	0.001706	0.001740	28.0836	0.153851	0.002027	75.8828	17.8866	-162.921	-0.054952	0.601374	-0.648638	-0.649972	-0.002511	75.8828	-0.648613	-3.876323E+8	6.477570E-12	NaN
1048	1.000000	0.612660	7.3753e+06	-52539.1	1055.82	-29748.7	0.000000	0.000000	6.612965	0.039020	NaN	0.000000	0.001681	0.001707	28.0837	0.017899	0.001834	9.757474	113.779	15.1956	0.074017	0.611319	-0.638686	-0.640028	0.039020	9.757474	-0.641686	-3.114702E+8	-1.252762E-10	NaN
1048	1.000000	0.622714	7.3753e+06	-52539.1	1055.82	-29748.7	0.000000	0.000000	6.623019	0.054282	NaN	0.000000	0.001699	0.001714	28.084	0.080687	0.001973	40.8865	157.348	-163.857	0.031014	0.621397	-0.628633	-0.629949	0.054282	40.8865	-0.629629	-2.127775E+8	-2.551101E-10	NaN
1048	1.000000	0.632688	7.3753e+06	-52539.1	1055.82	-29748.7	0.000000	0.000000	6.632993	0.040476	NaN	0.000000	0.001667	0.001734	28.0837	0.020719	0.001944	10.6591	-4.612681	15.4922	0.020461	0.631330	-0.618658	-0.620017	0.040476	10.6591	-0.621506	-1.645655E+8	-2.459554E-10	NaN
1048	1.000000	0.642676	7.3753e+06	-52539.1	1055.82	-29748.7	0.000000	0.000000	6.642979	-0.003206	NaN	0.000000	0.001704	0.001759	28.0839	0.057905	0.002041	28.3764	142.543	-166.312	-0.044194	0.641388	-0.608671	-0.609959	-0.003206	28.3764	-0.608586	-1.093093E+8	2.933092E-11	NaN
1048	1.000000	0.652681	7.3753e+06	-52539.1	1055.82	-29748.7	0.000000	0.000000	6.652982	-0.049676	NaN	0.000000	0.001700	0.001736	28.0841	0.076827	0.001993	38.5467	-147.561	17.4018	0.022115	0.651383	-0.598666	-0.599964	-0.049676	38.5467	-0.597699	-7.740502E+7	6.417648E-10	NaN
1048	1.000000	0.662710	7.3753e+06	-52539.1	1055.82	-29748.7	0.000000	0.000000	6.663014	0.010346	NaN	0.000000	0.001677	0.001761	28.0837	0.058864	0.001951	30.167	143.261	-166.493	0.030627	0.661406	-0.588637	-0.589941	0.010346	30.167	-0.588894	-5.853570E+7	-1.767440E-10	NaN
1048	1.000000	0.672715	7.3753e+06	-52539.1	1055.82	-29748.7	0.000000	0.000000	6.673018	0.001087	NaN	0.000000	0.001633	0.001781	28.0837	0.027645	0.001995	13.8583	-20.4824	14.5104	0.005829	0.671295	-0.578632	-0.580051	0.001087	13.8583	-0.578691	-4.233082E+7	-2.568721E-11	NaN
1048	1.000000	0.682700	7.3753e+06	-52539.1	1055.82	-29748.7	0.000000	0.000000	6.683003	-0.028677	NaN	0.000000	0.001599	0.001741	28.0835	0.100574	0.002097	47.9538	92.518	-162.367	-0.069660	0.681381	-0.568646	-0.569965	-0.028677	47.9538	-0.568198	-3.031998E+7	9.458000E-10	NaN
1048	1.000000	0.692701	7.3753e+06	-52539.1	1055.82	-29748.7	0.000000	0.000000	6.693002	-0.064555	NaN	0.000000	0.001612	0.001785	28.0835	0.071787	0.002057	34.8987	-53.7596	12.8651	-0.135772	0.691352	-0.558646	-0.559995	-0.064555	34.8987	-0.557259	-2.140174E+7	3.016330E-9	NaN
1048	1.000000	0.702728	7.3753e+06	-52539.1	1055.82	-29748.7	0.000000	0.000000	6.703029	-0.071359	NaN	0.000000	0.001576	0.001763	28.0834	0.124966	0.002089	59.8159	98.9203	-164.833	-0.105957	0.701364	-0.548618	-0.549983	-0.071359	59.8159	-0.547724	-1.579140E+7	4.518837E-9	NaN
1048	1.000000	0.712712	7.3753e+06	-52539.1	1055.82	-29748.7	0.000000	0.000000	6.713015	-0.018196	NaN	0.000000	0.001590	0.001717	28.0834	0.057556	0.002007	28.6743	-2.015282	16.2972	-0.057243	0.711402	-0.538634	-0.539945	-0.018196	28.6743	-0.538159	-1.163633E+7	1.563743E-9	NaN
1048	1.000000	0.722743	7.3753e+06	-52539.1	1055.82	-29748.7	0.000000	0.000000	6.723045	-0.032701	NaN	0.000000	0.001593	0.001706	28.0836	0.070582	0.002047	34.479	143.988	-162.729	0.040996	0.721435	-0.528603	-0.529912	-0.032701	34.479	-0.527892	-8.38102e+06	3.901792E-9	NaN
1048	1.000000	0.732721	7.3753e+06	-52539.1	1055.82	-29748.7	0.000000	0.000000	6.733020	-0.099863	NaN	0.000000	0.001567	0.001746	28.0852	0.063731	0.002057	30.9841	149.315	11.4631	-0.086087	0.731373	-0.518626	-0.519974	-0.099863	30.9841	-0.516208	-5.76568e+06	1.732024E-8	NaN
1048	1.000000	0.742753	7.3753e+06	-52539.1	1055.82	-29748.7	0.000000	0.000000	6.743054	-0.064374	NaN	0.000000	0.001552	0.001726	28.0848	0.192768	0.002058	93.6662	-170.257	-168.47	-0.004599	0.741414	-0.508594	-0.509933	-0.064374	93.6662	-0.508078	-4.44268e+06	1.448985E-8	NaN
1048	1.000000	0.752749	7.3753e+06	-52539.1	1055.82	-29748.7	0.000000	0.000000	6.753053	0.011895	NaN	0.000000	0.001543	0.001729	28.0847	0.014229	0.001988	7.157097	59.6121	11.5434	0.021909	0.751309	-0.498598	-0.500038	0.011895	7.157097	-0.499844	-3.41071e+06	-3.487485E-9	NaN
1048	1.000000	0.762725	7.3753e+06	-52539.1	1055.82	-29748.7	0.000000	0.000000	6.763025	-0.081992	NaN	0.000000	0.001547	0.001782	28.0845	0.052172	0.001878	27.7778	44.0232	-161.036	-0.073840	0.761397	-0.488622	-0.489950	-0.081992	27.7778	-0.486408	-2.21402e+06	3.703283E-8	NaN
1048	1.000000	0.772766	7.3753e+06	-52539.1	1055.82	-29748.7	0.000000	0.000000	6.773069	-0.025945	NaN	0.000000	0.001599	0.001774	28.0847	0.035133	0.002009	17.4861	32.8074	14.5002	0.050084	0.771412	-0.478581	-0.479935	-0.025945	17.4861	-0.477468	-1.65986e+06	1.563110E-8	NaN
1048	1.000000	0.782766	7.3753e+06	-52539.1	1055.82	-29748.7	0.000000	0.000000	6.783068	-0.029733	NaN	0.000000	0.001626	0.001795	28.0846	0.121606	0.002068	58.7943	-137.197	-166.359	-0.026616	0.781449	-0.468581	-0.469898	-0.029733	58.7943	-0.468202	-1.23079e+06	2.415773E-8	NaN
1048	1.000000	0.792764	7.3753e+06	-52539.1	1055.82	-29748.7	0.000000	0.000000	6.793066	-0.035307	NaN	0.000000	0.001621	0.001787	28.0846	0.107197	0.002094	51.1958	28.164	15.7356	-0.082317	0.791348	-0.458583	-0.459998	-0.035307	51.1958	-0.458065	-886799	3.981399E-8	NaN
1048	1.000000	0.802765	7.3753e+06	-52539.1	1055.82	-29748.7	0.000000	0.000000	6.803070	0.049000	NaN	0.000000	0.001651	0.001788	28.0847	0.055723	0.001957	28.4797	60.634	-163.848	0.060460	0.801439	-0.448582	-0.449908	0.049000	28.4797	-0.449872	-680056	-7.205257E-8	NaN
1048	1.000000	0.812766	7.3753e+06	-52539.1	1055.82	-29748.7	0.000000	0.000000	6.813068	-0.027080	NaN	0.000000	0.001621	0.001773	28.0848	0.068901	0.001887	36.5109	-89.6271	14.5888	-0.073789	0.811427	-0.438581	-0.439920	-0.027080	36.5109	-0.438024	-462887	5.850318E-8	NaN
1048	1.000000	0.822752	7.3753e+06	-52539.1	1055.82	-29748.7	0.000000	0.000000	6.823056	0.009446	NaN	0.000000	0.001581	0.001769	28.0845	0.122686	0.001942	63.1868	-28.9657	-164.892	-0.026642	0.821419	-0.428595	-0.429928	0.009446	63.1868	-0.428707	-341793	-2.763728E-8	NaN
1048	1.000000	0.832802	7.3753e+06	-52539.1	1055.82	-29748.7	0.000000	0.000000	6.833106	0.018455	NaN	0.000000	0.001584	0.001795	28.0843	0.041599	0.001968	21.1411	-141.562	13.0967	-0.052240	0.831380	-0.418545	-0.419967	0.018455	21.1411	-0.419200	-250646	-7.363011E-8	NaN
1048	1.000000	0.842795	7.3753e+06	-52539.1	1055.82	-29748.7	0.000000	0.000000	6.843098	0.001642	NaN	0.000000	0.001618	0.001763	28.0847	0.062265	0.001913	32.5497	78.4235	-163.497	-0.005533	0.841451	-0.408552	-0.409895	0.001642	32.5497	-0.408590	-177152	-9.270909E-9	NaN
1048	1.000000	0.852760	7.3753e+06	-52539.1	1055.82	-29748.7	0.000000	0.000000	6.853062	-0.032945	NaN	0.000000	0.001604	0.001799	28.0845	0.096736	0.002079	46.5288	-175.481	15.1302	-0.009020	0.851417	-0.398587	-0.399929	-0.032945	46.5288	-0.398056	-125390	2.627364E-7	NaN
1048	1.000000	0.862786	7.3753e+06	-52539.1	1055.82	-29748.7	0.000000	0.000000	6.863087	-0.050408	NaN	0.000000	0.001604	0.001774	28.0846	0.034526	0.002068	16.6978	-113.677	-165.883	-0.039363	0.861480	-0.388561	-0.389867	-0.050408	16.6978	-0.386297	-85145.2	5.920253E-7	NaN
1048	1.000000	0.872761	7.3753e+06	-52539.1	1055.82	-29748.7	0.000000	0.000000	6.873064	-0.025706	NaN	0.000000	0.001628	0.001800	28.0833	0.127280	0.002141	59.4395	74.4303	16.2936	-0.010590	0.871407	-0.378585	-0.379940	-0.025706	59.4395	-0.378261	-65301.6	3.936486E-7	NaN
1048	1.000000	0.882786	7.3753e+06	-52539.1	1055.82	-29748.7	0.000000	0.000000	6.883088	-0.037307	NaN	0.000000	0.001618	0.001787	28.0837	0.100230	0.001959	51.1635	-135.758	-162.837	-0.098412	0.881475	-0.368561	-0.369872	-0.037307	51.1635	-0.368014	-46506.5	8.021900E-7	NaN
1048	1.000000	0.892786	7.3753e+06	-52539.1	1055.82	-29748.7	0.000000	0.000000	6.893090	0.021188	NaN	0.000000	0.001652	0.001790	28.0834	0.108011	0.002098	51.4764	126.973	13.9957	-0.075218	0.891488	-0.358561	-0.359859	0.021188	51.4764	-0.358869	-34316.2	-6.174322E-7	NaN
1048	1.000000	0.902818	7.3753e+06	-52539.1	1055.82	-29748.7	0.000000	0.000000	6.903122	0.018032	NaN	0.000000	0.001655	0.001809	28.0833	0.021329	0.002106	10.1266	25.2699	-162.573	-0.023055	0.901549	-0.348529	-0.349797	0.018032	10.1266	-0.349864	-25411.7	-7.095944E-7	NaN
1048	1.000000	0.912752	7.3753e+06	-52539.1	1055.82	-29748.7	0.000000	0.000000	6.913055	-0.006123	NaN	0.000000	0.001640	0.001722	28.0834	0.063604	0.001980	32.1218	-65.9531	15.8288	-0.005505	0.911431	-0.338595	-0.339916	-0.006123	32.1218	-0.338452	-17337.1	3.531629E-7	NaN
1048	1.000000	0.922779	7.3753e+06	-52539.1	1055.82	-29748.7	0.000000	0.000000	6.923085	0.069323	NaN	0.000000	0.001641	0.001750	28.0835	0.105333	0.002004	52.5669	-51.259	-167.703	0.088538	0.921534	-0.328568	-0.329812	0.069323	52.5669	-0.329557	-12851.7	-5.394063E-6	NaN
1048	1.000000	0.932802	7.3753e+06	-52539.1	1055.82	-29748.7	0.000000	0.000000	6.933109	0.073881	NaN	0.000000	0.001656	0.001770	28.0833	0.059489	0.001890	31.4743	-154.573	16.4596	0.057285	0.931409	-0.318544	-0.319937	0.073881	31.4743	-0.320305	-9399.9	-7.859803E-6	NaN
1048	1.000000	0.942807	7.3753e+06	-52539.1	1055.82	-29748.7	0.000000	0.000000	6.943111	0.026835	NaN	0.000000	0.001623	0.001746	28.0833	0.080266	0.001938	41.425	-9.522715	-163.688	0.064535	0.941497	-0.308540	-0.309850	0.026835	41.425	-0.309026	-6406.69	-4.188641E-6	NaN
1048	1.000000	0.952808	7.3753e+06	-52539.1	1055.82	-29748.7	0.000000	0.000000	6.953108	-0.079596	NaN	0.000000	0.001656	0.001764	28.0834	0.048470	0.001971	24.5881	-9.516889	16.1793	-0.067831	0.951493	-0.298539	-0.299854	-0.079596	24.5881	-0.296111	-4117.9	1.932919E-5	NaN
1048	1.000000	0.962815	7.3753e+06	-52539.1	1055.82	-29748.7	0.000000	0.000000	6.963117	-0.045157	NaN	0.000000	0.001612	0.001770	28.0833	0.028756	0.002021	14.229	-133.569	-167.603	-0.098380	0.961529	-0.288532	-0.289818	-0.045157	14.229	-0.286152	-2921.27	1.545812E-5	NaN
1048	1.000000	0.972824	7.3753e+06	-52539.1	1055.82	-29748.7	0.000000	0.000000	6.973126	-0.040886	NaN	0.000000	0.001620	0.001783	28.0832	0.069638	0.001966	35.4141	31.9334	13.2289	-0.040818	0.971450	-0.278522	-0.279897	-0.040886	35.4141	-0.277656	-2175.62	1.879275E-5	NaN
1048	1.000000	0.982857	7.3753e+06	-52539.1	1055.82	-29748.7	0.000000	0.000000	6.983160	-0.028311	NaN	0.000000	0.001650	0.001744	28.0834	0.068931	0.002070	33.3002	-37.0283	-166.077	0.035362	0.981511	-0.268490	-0.269835	-0.028311	33.3002	-0.267852	-1544.77	1.832684E-5	NaN
1048	1.000000	0.992843	7.3753e+06	-52539.1	1055.82	-29748.7	0.000000	0.000000	6.993147	0.018522	NaN	0.000000	0.001610	0.001756	28.0834	0.056223	0.001938	29.0121	-139.763	15.1464	-0.069023	0.991468	-0.258504	-0.259879	0.018522	29.0121	-0.258983	-1130.63	-1.638177E-5	NaN
1048	1.000000	1.002853	7.3753e+06	-52539.1	1055.82	-29748.7	0.000000	0.000000	7.003158	0.034380	NaN	0.000000	0.001589	0.001760	28.0835	0.135191	0.002043	66.1843	93.8133	-162.992	-0.046281	1.001509	-0.248494	-0.249838	0.034380	66.1843	-0.248883	-790.103	-4.351275E-5	NaN
1048	1.000000	1.012815	7.3753e+06	-52539.1	1055.82	-29748.7	0.000000	0.000000	7.013118	-0.005750	NaN	0.000000	0.001647	0.001795	28.0848	0.050180	0.001989	25.2296	-165.474	14.6439	-0.037577	1.011462	-0.238532	-0.239884	-0.005750	25.2296	-0.238361	-541.913	1.060996E-5	NaN
1048	1.000000	1.022867	7.3753e+06	-52539.1	1055.82	-29748.7	0.000000	0.000000	7.023170	-0.010954	NaN	0.000000	0.001612	0.001777	28.0848	0.068588	0.001997	34.3498	-144.921	-164.818	0.025808	1.021529	-0.228479	-0.229818	-0.010954	34.3498	-0.228240	-375.58	2.916610E-5	NaN
1048	1.000000	1.032873	7.3753e+06	-52539.1	1055.82	-29748.7	0.000000	0.000000	7.033178	0.036572	NaN	0.000000	0.001632	0.001754	28.0847	0.095605	0.001922	49.7376	114.139	18.0711	0.083149	1.031507	-0.218474	-0.219840	0.036572	49.7376	-0.219026	-267.975	-0.000136	NaN
1048	1.000000	1.042838	7.3753e+06	-52539.1	1055.82	-29748.7	0.000000	0.000000	7.043140	-0.038100	NaN	0.000000	0.001627	0.001768	28.0845	0.096069	0.002155	44.5719	172.57	-169.744	-0.010234	1.041518	-0.208508	-0.209829	-0.038100	44.5719	-0.207867	-177.105	0.000215	NaN
1048	1.000000	1.052857	7.3753e+06	-52539.1	1055.82	-29748.7	0.000000	0.000000	7.053161	0.010195	NaN	0.000000	0.001658	0.001710	28.0846	0.085007	0.002106	40.3648	-99.5252	12.7528	0.111857	1.051466	-0.198490	-0.199881	0.010195	40.3648	-0.198679	-125.305	-8.136452E-5	NaN
1048	1.000000	1.062884	7.3753e+06	-52539.1	1055.82	-29748.7	0.000000	0.000000	7.063186	-0.037642	NaN	0.000000	0.001631	0.001765	28.0847	0.061911	0.001941	31.8988	-40.6574	-166.714	0.066481	1.061558	-0.188463	-0.189788	-0.037642	31.8988	-0.187578	-81.9374	0.000459	NaN
1048	1.000000	1.072854	7.3753e+06	-52539.1	1055.82	-29748.7	0.000000	0.000000	7.073158	0.008708	NaN	0.000000	0.001647	0.001793	28.0847	0.086933	0.002029	42.8453	-174.965	12.8286	0.088194	1.071558	-0.178492	-0.179789	0.008708	42.8453	-0.178645	-57.8602	-0.000150	NaN
1048	1.000000	1.082907	7.3753e+06	-52539.1	1055.82	-29748.7	0.000000	0.000000	7.083210	-0.009852	NaN	0.000000	0.001599	0.001810	28.0846	0.072511	0.002121	34.1925	4.910406	-165.313	0.023652	1.081618	-0.168440	-0.169729	-0.009852	34.1925	-0.168224	-38.257	0.000258	NaN
1048	1.000000	1.092850	7.3753e+06	-52539.1	1055.82	-29748.7	0.000000	0.000000	7.093154	0.010526	NaN	0.000000	0.001644	0.001794	28.0847	0.049547	0.001922	25.7722	-108.711	19.0471	0.003081	1.091512	-0.158497	-0.159835	0.010526	25.7722	-0.158803	-26.1029	-0.000403	NaN
1048	1.000000	1.102859	7.3753e+06	-52539.1	1055.82	-29748.7	0.000000	0.000000	7.103162	-0.023076	NaN	0.000000	0.001625	0.001799	28.0847	0.109161	0.001988	54.9055	14.4814	-165.762	0.046120	1.101555	-0.148488	-0.149792	-0.023076	54.9055	-0.148172	-16.7722	0.001376	NaN
1048	1.000000	1.112890	7.3753e+06	-52539.1	1055.82	-29748.7	0.000000	0.000000	7.113192	-0.026130	NaN	0.000000	0.001631	0.001762	28.0847	0.081553	0.001942	41.9911	33.838	15.4285	0.052911	1.111520	-0.138457	-0.139827	-0.026130	41.9911	-0.137990	-10.8415	0.002410	NaN
1048	1.000000	1.122893	7.3753e+06	-52539.1	1055.82	-29748.7	0.000000	0.000000	7.123197	-0.004557	NaN	0.000000	0.001645	0.001777	28.0847	0.109438	0.002057	53.2067	-144.902	-167.784	0.015180	1.121619	-0.128453	-0.129727	-0.004557	53.2067	-0.128389	-7.089716	0.000643	NaN
1048	1.000000	1.132898	7.3753e+06	-52539.1	1055.82	-29748.7	0.000000	0.000000	7.133204	0.043922	NaN	0.000000	0.001636	0.001774	28.0846	0.039430	0.001892	20.8351	44.2627	14.5272	0.031605	1.131545	-0.118448	-0.119802	0.043922	20.8351	-0.120030	-4.838138	-0.009078	NaN
1048	1.000000	1.142912	7.3753e+06	-52539.1	1055.82	-29748.7	0.000000	0.000000	7.143217	0.036011	NaN	0.000000	0.001560	0.001813	28.0837	0.091521	0.002000	45.7542	-111.018	-168.586	0.042388	1.141547	-0.108435	-0.109799	0.036011	45.7542	-0.109025	-2.865971	-0.012565	NaN
1048	1.000000	1.152882	7.3753e+06	-52539.1	1055.82	-29748.7	0.000000	0.000000	7.153185	0.004533	NaN	0.000000	0.001637	0.001819	28.0835	0.064248	0.002149	29.8949	-143.166	12.3557	-0.021838	1.151590	-0.098465	-0.099757	0.004533	29.8949	-0.098579	-1.698819	-0.002668	NaN
1048	1.000000	1.162884	7.3753e+06	-52539.1	1055.82	-29748.7	0.000000	0.000000	7.163187	-0.013289	NaN	0.000000	0.001632	0.001738	28.0834	0.083669	0.001940	43.1344	-112.3	-166.075	-0.073594	1.161572	-0.088462	-0.089775	-0.013289	43.1344	-0.088231	-0.981951	0.013533	NaN
1048	1.000000	1.172901	7.3753e+06	-52539.1	1055.82	-29748.7	0.000000	0.000000	7.173203	-0.028537	NaN	0.000000	0.001657	0.001781	28.0836	0.067085	0.001937	34.6417	50.823	14.777	-0.079697	1.171568	-0.078446	-0.079779	-0.028537	34.6417	-0.077828	-0.545722	0.052292	NaN
1048	1.000000	1.182897	7.3753e+06	-52539.1	1055.82	-29748.7	0.000000	0.000000	7.183200	-0.019283	NaN	0.000000	0.001673	0.001787	28.0837	0.060081	0.002080	28.8848	-153.98	-168.139	-0.049649	1.181645	-0.068450	-0.069702	-0.019283	28.8848	-0.067949	-0.300301	0.064212	NaN
1048	1.000000	1.192906	7.3753e+06	-52539.1	1055.82	-29748.7	0.000000	0.000000	7.193211	0.016056	NaN	0.000000	0.001661	0.001801	28.0837	0.035262	0.002086	16.9052	-93.0627	14.7463	-0.016797	1.191549	-0.058440	-0.059798	0.016056	16.9052	-0.059153	-0.170265	-0.094299	NaN
1048	1.000000	1.202904	7.3753e+06	-52539.1	1055.82	-29748.7	0.000000	0.000000	7.203208	0.006983	NaN	0.000000	0.001657	0.001794	28.0834	0.027445	0.002060	13.3228	-84.4369	-165.943	-0.049045	1.201586	-0.048442	-0.049760	0.006983	13.3228	-0.048836	-0.084130	-0.083004	NaN
1048	1.000000	1.212949	7.3753e+06	-52539.1	1055.82	-29748.7	0.000000	0.000000	7.213253	0.022307	NaN	0.000000	0.001643	0.001810	28.0838	0.035520	0.002032	17.4817	113.865	14.7447	0.077720	1.211567	-0.038398	-0.039779	0.022307	17.4817	-0.039355	-0.043229	-0.516027	NaN
1048	1.000000	1.222917	7.3753e+06	-52539.1	1055.82	-29748.7	0.000000	0.000000	7.223220	-0.022841	NaN	0.000000	0.001645	0.001803	28.0835	0.034288	0.001989	17.2427	22.1331	-161.832	-0.043443	1.221580	-0.028430	-0.029766	-0.022841	17.2427	-0.027436	-0.019576	1.166811	NaN
1048	1.000000	1.232935	7.3753e+06	-52539.1	1055.82	-29748.7	0.000000	0.000000	7.233240	0.021178	NaN	0.000000	0.001660	0.001749	28.0835	0.045782	0.002027	22.5841	150.186	10.8334	0.009004	1.231566	-0.018411	-0.019780	0.021178	22.5841	-0.019115	-0.011925	-1.775940	NaN
1048	1.000000	1.242898	7.3753e+06	-52539.1	1055.82	-29748.7	0.000000	0.000000	7.243201	-0.009765	NaN	0.000000	0.001698	0.001768	28.0834	0.054610	0.001873	29.1576	-26.7876	-166.969	-0.029727	1.241646	-0.008448	-0.009701	-0.009765	29.1576	-0.008197	-0.005347	1.826201	NaN
1048	1.000000	1.252892	7.3753e+06	-52539.1	1055.82	-29748.7	0.000000	0.000000	7.253455	6.295016	NaN	0.000000	0.001718	0.001766	28.0837	6.767529	0.001722	3931.02	13.5492	5.983081	4.628251	1.251523	0.001546	0.000176	6.295016	3931.02	0.000345	0.000259	24275.7	223032
1048	2.000000	1.256562	7.3753e+06	-52539.1	1055.82	-29748.7	0.000000	0.000000	7.257297	10.5017	NaN	0.000000	0.001670	0.001795	28.0836	10.2192	0.001611	6343.48	4.979130	-173.235	10.6334	1.256280	0.005215	0.004933	10.5017	6343.48	0.003973	0.003215	3265.96	102206
1048	2.000000	1.259067	7.3753e+06	-52539.1	1055.82	-29748.7	0.000000	0.000000	7.259949	14.0439	NaN	0.000000	0.001663	0.001801	28.0836	13.6884	0.001637	8361.23	8.509001	1.820904	13.8339	1.258726	0.007721	0.007379	14.0439	8361.23	0.006461	0.005507	2550.33	102943
1048	2.000000	1.261540	7.3753e+06	-52539.1	1055.82	-29748.7	0.000000	0.000000	7.262598	18.3404	NaN	0.000000	0.001705	0.001820	28.0849	17.1156	0.001860	9202.55	5.827690	-176.098	18.3168	1.261236	0.010194	0.009889	18.3404	9202.55	0.008699	0.007771	2360.07	95376.1
1048	2.000000	1.263992	7.3753e+06	-52539.1	1055.82	-29748.7	0.000000	0.000000	7.265300	24.4228	NaN	0.000000	0.001656	0.001823	28.0853	19.4703	0.001798	10831.2	7.920214	0.654587	23.3544	1.263619	0.012645	0.012273	24.4228	10831.2	0.010954	0.010261	2380.21	97692.3
1048	2.000000	1.266500	7.3753e+06	-52539.1	1055.82	-29748.7	0.000000	0.000000	7.267973	28.4296	NaN	0.000000	0.001674	0.001805	28.0849	21.2886	0.001740	12237.1	7.110987	-179.239	29.2697	1.266253	0.015153	0.014907	28.4296	12237.1	0.013411	0.013224	2149.82	97223
1048	2.000000	1.269008	7.3753e+06	-52539.1	1055.82	-29748.7	0.000000	0.000000	7.270798	36.1355	NaN	0.000000	0.001602	0.001806	28.0847	24.0446	0.001684	14279.5	7.898830	-2.572588	34.7327	1.268656	0.017662	0.017309	36.1355	14279.5	0.015764	0.016317	2214.52	102131
1048	2.000000	1.271488	7.3753e+06	-52539.1	1055.82	-29748.7	0.000000	0.000000	7.273535	42.3844	NaN	0.000000	0.001631	0.001798	28.0849	27.0014	0.001890	14287.9	4.922203	-179.629	41.1256	1.271258	0.020141	0.019912	42.3844	14287.9	0.017916	0.019373	2187.79	93786.7
1048	2.000000	1.273975	7.3753e+06	-52539.1	1055.82	-29748.7	0.000000	0.000000	7.276240	47.6998	NaN	0.000000	0.001633	0.001763	28.0854	28.7409	0.001798	15981.5	5.582442	-0.037099	45.9485	1.273655	0.022628	0.022308	47.6998	15981.5	0.020390	0.023158	2059.75	95948.6
1048	2.000000	1.276455	7.3753e+06	-52539.1	1055.82	-29748.7	0.000000	0.000000	7.279165	58.5187	NaN	0.000000	0.001602	0.001775	28.0849	30.4641	0.001657	18390	2.247884	-178.79	56.8684	1.276170	0.025108	0.024823	58.5187	18390	0.022722	0.027001	2167.28	102250
1048	2.000000	1.278960	7.3753e+06	-52539.1	1055.82	-29748.7	0.000000	0.000000	7.281984	66.1438	NaN	0.000000	0.001663	0.001773	28.0853	33.4971	0.001788	18734.8	1.785379	1.859292	63.9356	1.278594	0.027613	0.027247	66.1438	18734.8	0.024965	0.030952	2136.98	97292.2
1048	2.000000	1.281399	7.3753e+06	-52539.1	1055.82	-29748.7	0.000000	0.000000	7.284792	75.0969	NaN	0.000000	0.001620	0.001732	28.0851	37.7518	0.001890	19977.7	9.116238	174.286	72.1309	1.281160	0.030053	0.029813	75.0969	19977.7	0.027233	0.035205	2133.16	97279
1048	2.000000	1.283951	7.3753e+06	-52539.1	1055.82	-29748.7	0.000000	0.000000	7.287861	87.6806	NaN	0.000000	0.001649	0.001760	28.0849	38.8375	0.001813	21422.9	6.080294	-2.986938	84.8976	1.283646	0.032605	0.032299	87.6806	21422.9	0.029535	0.039786	2203.82	98127
1048	2.000000	1.286461	7.3753e+06	-52539.1	1055.82	-29748.7	0.000000	0.000000	7.290738	96.6024	NaN	0.000000	0.001617	0.001722	28.0849	41.536	0.001723	24112.4	3.964450	177.089	95.5527	1.286184	0.035115	0.034838	96.6024	24112.4	0.032110	0.045231	2135.78	103585
1048	2.000000	1.289024	7.3753e+06	-52539.1	1055.82	-29748.7	0.000000	0.000000	7.293885	110.821	NaN	0.000000	0.001633	0.001735	28.0848	44.8546	0.001833	24475.4	6.695267	-5.745760	110.658	1.288627	0.037677	0.037280	110.821	24475.4	0.034281	0.050086	2212.63	99918.3
1048	2.000000	1.291388	7.3753e+06	-52539.1	1055.82	-29748.7	0.000000	0.000000	7.296695	121.645	NaN	0.000000	0.001616	0.001757	28.0849	46.7573	0.001778	26301.4	4.789521	175.341	118.469	1.291153	0.040041	0.039807	121.645	26301.4	0.036573	0.055471	2192.93	102028
1048	2.000000	1.293983	7.3753e+06	-52539.1	1055.82	-29748.7	0.000000	0.000000	7.299951	137.726	NaN	0.000000	0.001665	0.001726	28.0843	48.5856	0.001789	27164.7	3.530633	-3.504378	135.229	1.293543	0.042636	0.042197	137.726	27164.7	0.038833	0.061048	2256.02	100448
1048	2.000000	1.296469	7.3753e+06	-52539.1	1055.82	-29748.7	0.000000	0.000000	7.302811	146.816	NaN	0.000000	0.001706	0.001738	28.0834	50.7093	0.001764	28751.3	4.474319	175.76	148.186	1.296146	0.045122	0.044799	146.816	28751.3	0.041292	0.067411	2177.93	101173
1048	2.000000	1.298860	7.3753e+06	-52539.1	1055.82	-29748.7	0.000000	0.000000	7.305621	157.019	NaN	0.000000	0.001720	0.001775	28.0837	53.0349	0.001683	31506	1.795127	-3.617654	153.114	1.298670	0.047513	0.047323	157.019	31506	0.043775	0.074148	2117.63	105710
1048	2.000000	1.301488	7.3753e+06	-52539.1	1055.82	-29748.7	0.000000	0.000000	7.308669	167.218	NaN	0.000000	0.001692	0.001736	28.0836	57.6782	0.001939	29747.4	5.317889	173.904	168.244	1.301184	0.050141	0.049838	167.218	29747.4	0.045925	0.080236	2084.07	95948.3
1048	2.000000	1.303958	7.3753e+06	-52539.1	1055.82	-29748.7	0.000000	0.000000	7.312063	189.698	NaN	0.000000	0.001679	0.001781	28.0836	58.7904	0.001814	32408.1	7.614342	-8.797567	187.598	1.303535	0.052611	0.052188	189.698	32408.1	0.048221	0.086994	2180.6	100388
1048	2.000000	1.306373	7.3753e+06	-52539.1	1055.82	-29748.7	0.000000	0.000000	7.315013	202.689	NaN	0.000000	0.001630	0.001775	28.0835	61.2632	0.001739	35235.6	5.302615	172.105	199.764	1.306012	0.055027	0.054665	202.689	35235.6	0.050712	0.094627	2141.97	104652
1048	2.000000	1.308939	7.3753e+06	-52539.1	1055.82	-29748.7	0.000000	0.000000	7.318052	214.19	NaN	0.000000	0.001611	0.001765	28.0835	63.4151	0.001731	36635.3	1.919908	-4.381523	212.148	1.308599	0.057592	0.057252	214.19	36635.3	0.053207	0.102584	2087.95	104504
1048	2.000000	1.311503	7.3753e+06	-52539.1	1055.82	-29748.7	0.000000	0.000000	7.321320	231.312	NaN	0.000000	0.001616	0.001800	28.0833	66.7226	0.001746	38217	4.384698	172.878	235.071	1.311093	0.060157	0.059746	231.312	38217	0.055617	0.110564	2092.12	105008
1048	2.000000	1.313880	7.3753e+06	-52539.1	1055.82	-29748.7	0.000000	0.000000	7.324377	247.847	NaN	0.000000	0.001599	0.001778	28.0831	68.4723	0.001806	37907.9	3.980210	-6.615344	241.676	1.313503	0.062533	0.062156	247.847	37907.9	0.057629	0.117445	2110.33	101062
1048	2.000000	1.316411	7.3753e+06	-52539.1	1055.82	-29748.7	0.000000	0.000000	7.327631	265.44	NaN	0.000000	0.001605	0.001740	28.0834	70.0089	0.001729	40480.8	5.738223	171.453	264.95	1.316132	0.065064	0.064786	265.44	40480.8	0.060146	0.126332	2101.12	104056
1048	2.000000	1.318849	7.3753e+06	-52539.1	1055.82	-29748.7	0.000000	0.000000	7.330873	284.967	NaN	0.000000	0.001600	0.001743	28.0835	73.178	0.001816	40290.2	8.782083	-11.2149	280.787	1.318488	0.067502	0.067141	284.967	40290.2	0.062198	0.133807	2129.69	100631
1048	2.000000	1.321427	7.3753e+06	-52539.1	1055.82	-29748.7	0.000000	0.000000	7.334222	303.72	NaN	0.000000	0.001593	0.001779	28.0834	75.2996	0.001739	43292.8	3.246257	173.18	303.919	1.321113	0.070080	0.069766	303.72	43292.8	0.064819	0.143652	2114.28	104360
1048	2.000000	1.323859	7.3753e+06	-52539.1	1055.82	-29748.7	0.000000	0.000000	7.337400	321.878	NaN	0.000000	0.001593	0.001777	28.0832	76.8754	0.001751	43906.3	4.707631	-8.085893	315.626	1.323485	0.072512	0.072138	321.878	43906.3	0.067014	0.152153	2115.5	102840
1048	2.000000	1.326315	7.3753e+06	-52539.1	1055.82	-29748.7	0.000000	0.000000	7.340849	346.004	NaN	0.000000	0.001605	0.001792	28.0833	78.364	0.001701	46070.8	2.854787	173.245	339.897	1.326017	0.074968	0.074670	346.004	46070.8	0.069335	0.161394	2143.84	104774
1048	2.000000	1.329002	7.3753e+06	-52539.1	1055.82	-29748.7	0.000000	0.000000	7.343656	348.92	NaN	0.000000	0.001622	0.001722	28.0847	81.877	0.001697	48246.5	3.627384	-8.197259	352.725	1.328840	0.077655	0.077494	348.92	48246.5	0.072231	0.173283	2013.58	105891
1048	2.000000	1.331445	7.3753e+06	-52539.1	1055.82	-29748.7	0.000000	0.000000	7.347212	375.971	NaN	0.000000	0.001639	0.001758	28.0845	85.9072	0.001765	48673.6	4.029055	171.62	376.714	1.331206	0.080098	0.079859	375.971	48673.6	0.074305	0.182040	2065.31	104228
1048	2.000000	1.333878	7.3753e+06	-52539.1	1055.82	-29748.7	0.000000	0.000000	7.350732	402.414	NaN	0.000000	0.001631	0.001771	28.0843	87.2134	0.001811	48165.7	4.218083	-7.936300	396.893	1.333522	0.082531	0.082175	402.414	48165.7	0.076265	0.190503	2112.37	100823
1048	2.000000	1.336353	7.3753e+06	-52539.1	1055.82	-29748.7	0.000000	0.000000	7.354112	424.416	NaN	0.000000	0.001653	0.001766	28.0845	88.2948	0.001768	49949.3	1.981711	174.259	421.994	1.335982	0.085006	0.084636	424.416	49949.3	0.078633	0.200970	2111.84	101797
1048	2.000000	1.338835	7.3753e+06	-52539.1	1055.82	-29748.7	0.000000	0.000000	7.357307	441.741	NaN	0.000000	0.001645	0.001790	28.0848	91.2082	0.001778	51311.5	5.763519	-10.6967	435.561	1.338546	0.087489	0.087200	441.741	51311.5	0.081032	0.211836	2085.3	101856
1048	2.000000	1.341421	7.3753e+06	-52539.1	1055.82	-29748.7	0.000000	0.000000	7.360762	462.883	NaN	0.000000	0.001604	0.001776	28.0844	92.7052	0.001644	56385.7	0.734622	173.942	462.601	1.341087	0.090074	0.089740	462.883	56385.7	0.083918	0.225265	2054.84	108541
1048	2.000000	1.343895	7.3753e+06	-52539.1	1055.82	-29748.7	0.000000	0.000000	7.364335	489.605	NaN	0.000000	0.001634	0.001774	28.0849	96.3987	0.001887	51095.2	8.711733	-12.3852	484.461	1.343396	0.092548	0.092049	489.605	51095.2	0.085361	0.232128	2109.2	96892.4
1048	2.000000	1.346492	7.3753e+06	-52539.1	1055.82	-29748.7	0.000000	0.000000	7.367477	502.841	NaN	0.000000	0.001623	0.001758	28.087	98.4348	0.001759	55958.1	4.033052	171.16	510.053	1.346157	0.095145	0.094810	502.841	55958.1	0.088406	0.246917	2036.48	102887
1048	2.000000	1.348840	7.3753e+06	-52539.1	1055.82	-29748.7	0.000000	0.000000	7.370801	526.599	NaN	0.000000	0.001612	0.001770	28.0856	101.922	0.001755	58088	2.795624	-7.848348	522.178	1.348611	0.097493	0.097264	526.599	58088	0.090694	0.258311	2038.62	104421
1048	2.000000	1.351371	7.3753e+06	-52539.1	1055.82	-29748.7	0.000000	0.000000	7.374418	552.991	NaN	0.000000	0.001645	0.001777	28.0847	105.358	0.001806	58325.9	6.369554	168.857	551.06	1.350954	0.100024	0.099608	552.991	58325.9	0.092913	0.269590	2051.23	102632
1048	2.000000	1.352821	7.3753e+06	-52539.1	1055.82	-29748.7	0.000000	0.000000	7.376373	565.263	NaN	0.000000	0.001631	0.001765	28.0846	104.253	0.001688	61752.5	-0.316922	-5.378457	560.389	1.352529	0.101474	0.101182	565.263	61752.5	0.094609	0.278363	2030.67	106936