File: remote_trans/data/nanoindenter/0828-1/data/Data_2025-08-06,11h17m57s/2025-07-22_16-23-58_1_352.txt
2025-07-22, 16:23:58, 1
Index	Phase	Displacement	Time	Pos X	Pos Y	Pos Z	Rot A	Rot B	Piezo Z	Force A	Force B	Gripper	Voltage A	Voltage B	Temperature	Amplitude force	Amplitude pos	Stiffness	Phase shift	Phase excitation	Force A raw	Displacement raw	HMax	HMax raw	Real Force	Real Stiffness	Contact Depth	Area	Hardness	Reduced Mod.
[#]	[#]	[um]	[s]	[um]	[um]	[um]	[m°]	[m°]	[um]	[uN]	[uN]	[V]	[V]	[V]	[°C]	[uN]	[um]	[N/m]	[°]	[°]	[uN]	[um]	[um]	[um]	[uN]	[N/m]	[um]	[um^2]	[MPa]	[MPa]
352	1.000000	0.002522	7.3685e+06	-56239.1	955.818	-29739.8	0.000000	0.000000	6.002824	-0.030515	NaN	0.000000	0.001542	0.001784	28.0798	0.051937	0.001087	47.7836	134.354	-167.523	-0.042253	0.001286	-1.052666	-1.053901	-0.030515	47.7836	-1.052187	-1.142370E+14	2.671239E-16	NaN
352	1.000000	0.010469	7.3685e+06	-56239.1	955.82	-29739.8	0.000000	0.000000	6.010771	-0.039575	NaN	0.000000	0.001531	0.001809	28.0795	0.043163	0.000846	51.0382	-142.317	-168.135	0.044041	0.009106	-1.044718	-1.046082	-0.039575	51.0382	-1.044136	-8.903950E+13	4.444659E-16	NaN
352	1.000000	0.018436	7.3685e+06	-56239.1	955.819	-29739.8	0.000000	0.000000	6.018743	0.084055	NaN	0.000000	0.001529	0.001795	28.0794	0.111499	0.001797	62.0307	177.607	-170.321	0.010481	0.017168	-1.036752	-1.038020	0.084055	62.0307	-1.037768	-7.310572E+13	-1.149771E-15	NaN
352	1.000000	0.026468	7.3685e+06	-56239.1	955.819	-29739.8	0.000000	0.000000	6.026773	0.026348	NaN	0.000000	0.001537	0.001802	28.0797	0.070073	0.001822	38.4576	144.653	-164.311	0.083139	0.025111	-1.028719	-1.030076	0.026348	38.4576	-1.029233	-5.612589E+13	-4.694495E-16	NaN
352	1.000000	0.034433	7.3685e+06	-56239.1	955.819	-29739.8	0.000000	0.000000	6.034735	-0.036756	NaN	0.000000	0.001515	0.001759	28.0794	0.117046	0.001882	62.1945	-118.994	-166.376	-0.024861	0.033186	-1.020754	-1.022001	-0.036756	62.1945	-1.020311	-4.257275E+13	8.633652E-16	NaN
352	1.000000	0.042471	7.3685e+06	-56239.1	955.818	-29739.8	0.000000	0.000000	6.042775	0.026059	NaN	0.000000	0.001520	0.001746	28.0797	0.045457	0.001982	22.9344	-63.1484	-168.269	0.063853	0.041141	-1.012717	-1.014046	0.026059	22.9344	-1.013569	-3.454706E+13	-7.542987E-16	NaN
352	1.000000	0.050429	7.3685e+06	-56239.1	955.818	-29739.8	0.000000	0.000000	6.050732	0.001575	NaN	0.000000	0.001525	0.001777	28.0784	0.028617	0.001867	15.3263	100.9	-166.819	0.059621	0.049166	-1.004758	-1.006021	0.001575	15.3263	-1.004835	-2.635518E+13	-5.977647E-17	NaN
352	1.000000	0.058408	7.3685e+06	-56239.1	955.818	-29739.8	0.000000	0.000000	6.058711	-0.009956	NaN	0.000000	0.001513	0.001791	28.0785	0.118495	0.002138	55.413	159.251	-166.082	0.031891	0.057147	-0.996780	-0.998041	-0.009956	55.413	-0.996645	-2.044534E+13	4.869546E-16	NaN
352	1.000000	0.066442	7.3685e+06	-56239.1	955.817	-29739.8	0.000000	0.000000	6.066747	0.024713	NaN	0.000000	0.001506	0.001827	28.0785	0.076559	0.001966	38.9416	-67.963	-166.166	-0.053704	0.065106	-0.988745	-0.990081	0.024713	38.9416	-0.989221	-1.624119E+13	-1.521636E-15	NaN
352	1.000000	0.074437	7.3685e+06	-56239.1	955.819	-29739.8	0.000000	0.000000	6.074739	-0.054027	NaN	0.000000	0.001518	0.001787	28.0786	0.103317	0.001963	52.6328	62.5423	-161.301	-0.019709	0.073085	-0.980750	-0.982103	-0.054027	52.6328	-0.979980	-1.219385E+13	4.430644E-15	NaN
352	1.000000	0.082432	7.3685e+06	-56239.1	955.819	-29739.8	0.000000	0.000000	6.082732	-0.080788	NaN	0.000000	0.001592	0.001764	28.0789	0.028155	0.002076	13.5633	-117.529	-166.794	-0.148666	0.081211	-0.972755	-0.973976	-0.080788	13.5633	-0.968288	-8.483738E+12	9.522747E-15	NaN
352	1.000000	0.090474	7.3685e+06	-56239.1	955.817	-29739.8	0.000000	0.000000	6.090778	0.015655	NaN	0.000000	0.001573	0.001779	28.0787	0.153359	0.002015	76.1183	76.4912	-166.761	0.009280	0.089158	-0.964713	-0.966030	0.015655	76.1183	-0.964868	-7.629346E+12	-2.051950E-15	NaN
352	1.000000	0.098463	7.3685e+06	-56239.1	955.818	-29739.8	0.000000	0.000000	6.098763	-0.081507	NaN	0.000000	0.001581	0.001740	28.0785	0.021753	0.001993	10.9146	59.5133	-163.138	0.004632	0.097160	-0.956724	-0.958027	-0.081507	10.9146	-0.951123	-4.979383E+12	1.636891E-14	NaN
352	1.000000	0.106497	7.3685e+06	-56239.1	955.818	-29739.8	0.000000	0.000000	6.106802	0.043071	NaN	0.000000	0.001597	0.001753	28.0785	0.093885	0.002000	46.9489	-12.1885	-167.795	0.008086	0.105172	-0.948691	-0.950015	0.043071	46.9489	-0.949379	-4.716794E+12	-9.131463E-15	NaN
352	1.000000	0.114487	7.3685e+06	-56239.1	955.818	-29739.8	0.000000	0.000000	6.114792	0.044367	NaN	0.000000	0.001585	0.001754	28.0786	0.059828	0.001949	30.7043	148.507	-164.104	-0.004550	0.113141	-0.940700	-0.942046	0.044367	30.7043	-0.941784	-3.725690E+12	-1.190840E-14	NaN
352	1.000000	0.122474	7.3685e+06	-56239.1	955.818	-29739.8	0.000000	0.000000	6.122777	-0.025801	NaN	0.000000	0.001589	0.001785	28.0788	0.039103	0.002118	18.4619	162.387	-168.715	-0.010612	0.121159	-0.932713	-0.934028	-0.025801	18.4619	-0.931665	-2.720604E+12	9.483705E-15	NaN
352	1.000000	0.130476	7.3685e+06	-56239.1	955.818	-29739.8	0.000000	0.000000	6.130780	0.009339	NaN	0.000000	0.001522	0.001782	28.0788	0.138925	0.002018	68.8302	23.4735	-168.118	0.009199	0.129165	-0.924711	-0.926022	0.009339	68.8302	-0.924813	-2.198768E+12	-4.247229E-15	NaN
352	1.000000	0.138465	7.3685e+06	-56239.1	955.818	-29739.8	0.000000	0.000000	6.138765	-0.076958	NaN	0.000000	0.001528	0.001770	28.0788	0.057541	0.001972	29.1733	-104.56	-165.842	-0.056582	0.137099	-0.916722	-0.918089	-0.076958	29.1733	-0.914744	-1.607791E+12	4.786597E-14	NaN
352	1.000000	0.146487	7.3685e+06	-56239.1	955.818	-29739.8	0.000000	0.000000	6.146791	0.024615	NaN	0.000000	0.001546	0.001787	28.0787	0.050960	0.002049	24.8758	128.381	-164.898	-0.083185	0.145173	-0.908701	-0.910014	0.024615	24.8758	-0.909443	-1.363436E+12	-1.805386E-14	NaN
352	1.000000	0.154477	7.3685e+06	-56239.1	955.818	-29739.8	0.000000	0.000000	6.154782	0.040041	NaN	0.000000	0.001573	0.001741	28.0788	0.055522	0.001954	28.408	92.1395	-166.316	0.053090	0.153183	-0.900710	-0.902004	0.040041	28.408	-0.901767	-1.073856E+12	-3.728753E-14	NaN
352	1.000000	0.162488	7.3685e+06	-56239.1	955.819	-29739.8	0.000000	0.000000	6.162793	0.017638	NaN	0.000000	0.001566	0.001751	28.0787	0.013246	0.001990	6.656771	-37.2932	-165.861	-0.025695	0.161216	-0.892699	-0.893971	0.017638	6.656771	-0.894686	-8.614993E+11	-2.047339E-14	NaN
352	1.000000	0.170483	7.3685e+06	-56239.1	955.817	-29739.8	0.000000	0.000000	6.170784	-0.074762	NaN	0.000000	0.001555	0.001780	28.0785	0.062260	0.002051	30.351	113.328	-171.015	0.010900	0.169184	-0.884704	-0.886003	-0.074762	30.351	-0.882856	-5.961191E+11	1.254148E-13	NaN
352	1.000000	0.178484	7.3685e+06	-56239.1	955.818	-29739.8	0.000000	0.000000	6.178785	-0.042504	NaN	0.000000	0.001572	0.001801	28.0784	0.071453	0.002016	35.45	-115.583	-167.179	0.035162	0.177198	-0.876704	-0.877989	-0.042504	35.45	-0.875804	-4.785894E+11	8.881155E-14	NaN
352	1.000000	0.186488	7.3685e+06	-56239.1	955.818	-29739.8	0.000000	0.000000	6.186794	0.057541	NaN	0.000000	0.001612	0.001707	28.0798	0.054706	0.002104	26.0048	136.729	-163.385	-0.007039	0.185173	-0.868699	-0.870014	0.057541	26.0048	-0.870359	-4.039195E+11	-1.424555E-13	NaN
352	1.000000	0.194526	7.3685e+06	-56239.1	955.818	-29739.8	0.000000	0.000000	6.194830	-0.008550	NaN	0.000000	0.001554	0.001698	28.0796	0.034599	0.001946	17.7752	-169.319	-167.475	-0.032541	0.193173	-0.860661	-0.862014	-0.008550	17.7752	-0.860300	-2.952446E+11	2.896029E-14	NaN
352	1.000000	0.202490	7.3685e+06	-56239.1	955.818	-29739.8	0.000000	0.000000	6.202795	0.041721	NaN	0.000000	0.001548	0.001688	28.0794	0.114712	0.002053	55.867	-141.481	-164.533	0.003358	0.201196	-0.852698	-0.853991	0.041721	55.867	-0.853258	-2.370543E+11	-1.759993E-13	NaN
352	1.000000	0.210523	7.3685e+06	-56239.1	955.818	-29739.8	0.000000	0.000000	6.210829	0.052229	NaN	0.000000	0.001552	0.001745	28.0794	0.092524	0.001904	48.607	-115.161	-167.075	0.034046	0.209186	-0.844664	-0.846001	0.052229	48.607	-0.845470	-1.859452E+11	-2.808846E-13	NaN
352	1.000000	0.218537	7.3685e+06	-56239.1	955.819	-29739.8	0.000000	0.000000	6.218840	-0.010554	NaN	0.000000	0.001579	0.001731	28.0793	0.096251	0.002060	46.7172	157.374	-166.686	-0.020989	0.217206	-0.836650	-0.837982	-0.010554	46.7172	-0.836481	-1.404794E+11	7.513117E-14	NaN
352	1.000000	0.226495	7.3685e+06	-56239.1	955.817	-29739.8	0.000000	0.000000	6.226800	0.026444	NaN	0.000000	0.001530	0.001764	28.0799	0.126147	0.001949	64.7083	-91.0019	-165.679	0.131017	0.225191	-0.828692	-0.829996	0.026444	64.7083	-0.828998	-1.112266E+11	-2.377524E-13	NaN
352	1.000000	0.234528	7.3685e+06	-56239.1	955.818	-29739.8	0.000000	0.000000	6.234833	0.034172	NaN	0.000000	0.001589	0.001698	28.0798	0.149877	0.002119	70.722	-97.311	-165.78	0.009887	0.233195	-0.820659	-0.821993	0.034172	70.722	-0.821021	-8.670784E+10	-3.941029E-13	NaN
352	1.000000	0.242541	7.3685e+06	-56239.1	955.817	-29739.8	0.000000	0.000000	6.242845	0.007313	NaN	0.000000	0.001573	0.001732	28.0794	0.077830	0.002119	36.7299	57.4264	-165.118	0.029913	0.241182	-0.812646	-0.814005	0.007313	36.7299	-0.812796	-6.706509E+10	-1.090367E-13	NaN
352	1.000000	0.250525	7.3685e+06	-56239.1	955.819	-29739.8	0.000000	0.000000	6.250829	0.009212	NaN	0.000000	0.001590	0.001705	28.0798	0.038443	0.002063	18.6339	-146.241	-165.912	0.037738	0.249186	-0.804662	-0.806001	0.009212	18.6339	-0.805033	-5.262217E+10	-1.750539E-13	NaN
352	1.000000	0.258545	7.3685e+06	-56239.1	955.818	-29739.8	0.000000	0.000000	6.258845	-0.081552	NaN	0.000000	0.001513	0.001683	28.0796	0.127896	0.002136	59.8878	127.953	-164.055	0.004466	0.257220	-0.796642	-0.797967	-0.081552	59.8878	-0.795621	-3.921173E+10	2.079779E-12	NaN
352	1.000000	0.266526	7.3685e+06	-56239.1	955.818	-29739.8	0.000000	0.000000	6.266830	0.006110	NaN	0.000000	0.001539	0.001675	28.0799	0.098747	0.002135	46.245	-79.2105	-167.213	-0.013848	0.265276	-0.788661	-0.789911	0.006110	46.245	-0.788760	-3.164040E+10	-1.931117E-13	NaN
352	1.000000	0.274532	7.3685e+06	-56239.1	955.818	-29739.8	0.000000	0.000000	6.274835	0.006459	NaN	0.000000	0.001565	0.001710	28.0798	0.046103	0.001967	23.4421	27.9799	-165.432	0.027106	0.273239	-0.780656	-0.781948	0.006459	23.4421	-0.780862	-2.471436E+10	-2.613266E-13	NaN
352	1.000000	0.282531	7.3685e+06	-56239.1	955.818	-29739.8	0.000000	0.000000	6.282833	-0.032025	NaN	0.000000	0.001579	0.001680	28.0796	0.109939	0.002039	53.9302	59.4788	-164.885	-0.041963	0.281235	-0.772656	-0.773953	-0.032025	53.9302	-0.772211	-1.885225E+10	1.698757E-12	NaN
352	1.000000	0.290529	7.3685e+06	-56239.1	955.818	-29739.8	0.000000	0.000000	6.290834	0.020893	NaN	0.000000	0.001550	0.001689	28.0801	0.027763	0.002042	13.5926	-35.9388	-170.462	0.038941	0.289259	-0.764658	-0.765928	0.020893	13.5926	-0.765811	-1.542902E+10	-1.354132E-12	NaN
352	1.000000	0.298557	7.3685e+06	-56239.1	955.818	-29739.8	0.000000	0.000000	6.298864	0.064774	NaN	0.000000	0.001539	0.001695	28.0797	0.105578	0.001910	55.281	175.927	-165.951	0.033654	0.297250	-0.756630	-0.757937	0.064774	55.281	-0.757509	-1.189614E+10	-5.444934E-12	NaN
352	1.000000	0.306528	7.3685e+06	-56239.1	955.819	-29739.8	0.000000	0.000000	6.306829	-0.058275	NaN	0.000000	0.001486	0.001716	28.08	0.024469	0.002061	11.8698	-148.128	-165.365	-0.044247	0.305241	-0.748659	-0.749947	-0.058275	11.8698	-0.744977	-8.032294E+9	7.255104E-12	NaN
352	1.000000	0.314550	7.3685e+06	-56239.1	955.819	-29739.8	0.000000	0.000000	6.314854	-0.001893	NaN	0.000000	0.001534	0.001677	28.0799	0.118380	0.002204	53.7155	-74.651	-166.81	-0.007331	0.313255	-0.740637	-0.741932	-0.001893	53.7155	-0.740611	-7.004434E+9	2.702939E-13	NaN
352	1.000000	0.322559	7.3685e+06	-56239.1	955.818	-29739.8	0.000000	0.000000	6.322862	-0.020869	NaN	0.000000	0.001551	0.001755	28.0787	0.028307	0.002100	13.4762	-1.419443	-163.462	-0.100339	0.321256	-0.732628	-0.733932	-0.020869	13.4762	-0.731467	-5.257710E+9	3.969271E-12	NaN
352	1.000000	0.330569	7.3685e+06	-56239.1	955.818	-29739.8	0.000000	0.000000	6.330872	-0.008215	NaN	0.000000	0.001572	0.001730	28.079	0.146086	0.001971	74.1006	103.294	-167.27	0.068893	0.329264	-0.724619	-0.725923	-0.008215	74.1006	-0.724535	-4.229787E+9	1.942212E-12	NaN
352	1.000000	0.338567	7.3685e+06	-56239.1	955.818	-29739.8	0.000000	0.000000	6.338874	0.072387	NaN	0.000000	0.001528	0.001722	28.0787	0.036011	0.001973	18.2506	169.564	-166.956	0.162993	0.337249	-0.716620	-0.717938	0.072387	18.2506	-0.719595	-3.621960E+9	-1.998561E-11	NaN
352	1.000000	0.346564	7.3685e+06	-56239.1	955.818	-29739.8	0.000000	0.000000	6.346867	-0.022646	NaN	0.000000	0.001504	0.001711	28.0788	0.035184	0.001892	18.5976	-53.6022	-166.09	-0.060760	0.345295	-0.708623	-0.709893	-0.022646	18.5976	-0.707710	-2.493399E+9	9.082331E-12	NaN
352	1.000000	0.354581	7.3685e+06	-56239.1	955.818	-29739.8	0.000000	0.000000	6.354887	0.047081	NaN	0.000000	0.001545	0.001735	28.0788	0.172506	0.002094	82.3624	178.78	-163.605	0.015634	0.353243	-0.700606	-0.701944	0.047081	82.3624	-0.701035	-2.021443E+9	-2.329098E-11	NaN
352	1.000000	0.362573	7.3685e+06	-56239.1	955.818	-29739.8	0.000000	0.000000	6.362875	-0.036530	NaN	0.000000	0.001555	0.001754	28.0788	0.039666	0.001945	20.3937	3.873645	-167.529	-0.068839	0.361268	-0.692614	-0.693919	-0.036530	20.3937	-0.691271	-1.486920E+9	2.456769E-11	NaN
352	1.000000	0.370619	7.3685e+06	-56239.1	955.818	-29739.8	0.000000	0.000000	6.370921	-0.034853	NaN	0.000000	0.001522	0.001731	28.0788	0.027752	0.001962	14.1419	-161.561	-168.422	-0.081859	0.369247	-0.684569	-0.685940	-0.034853	14.1419	-0.682720	-1.136069E+9	3.067889E-11	NaN
352	1.000000	0.378592	7.3685e+06	-56239.1	955.818	-29739.8	0.000000	0.000000	6.378896	0.002832	NaN	0.000000	0.001517	0.001719	28.0787	0.076316	0.001954	39.0582	-48.8203	-167.788	-0.004328	0.377290	-0.676595	-0.677897	0.002832	39.0582	-0.676649	-9.383756E+8	-3.017464E-12	NaN
352	1.000000	0.386590	7.36851e+06	-56239.1	955.818	-29739.8	0.000000	0.000000	6.386893	-0.016263	NaN	0.000000	0.001474	0.001723	28.0789	0.064252	0.002038	31.5263	127.211	-165.277	0.006914	0.385319	-0.668597	-0.669868	-0.016263	31.5263	-0.668210	-7.192759E+8	2.261051E-11	NaN
352	1.000000	0.394587	7.36851e+06	-56239.1	955.818	-29739.8	0.000000	0.000000	6.394889	-0.041645	NaN	0.000000	0.001545	0.001694	28.0788	0.065138	0.002078	31.3402	-158.151	-168.1	0.060545	0.393258	-0.660600	-0.661930	-0.041645	31.3402	-0.659603	-5.483224E+8	7.594975E-11	NaN
352	1.000000	0.402570	7.36851e+06	-56239.1	955.818	-29739.8	0.000000	0.000000	6.402872	-0.031475	NaN	0.000000	0.001525	0.001751	28.0786	0.058339	0.002063	28.2829	-0.933194	-167.77	-0.130147	0.401251	-0.652617	-0.653936	-0.031475	28.2829	-0.651782	-4.284201E+8	7.346688E-11	NaN
352	1.000000	0.410599	7.36851e+06	-56239.1	955.817	-29739.8	0.000000	0.000000	6.410903	0.011721	NaN	0.000000	0.001558	0.001760	28.0785	0.048782	0.002021	24.1413	-107.654	-165.853	0.016973	0.409295	-0.644588	-0.645892	0.011721	24.1413	-0.644952	-3.453236E+8	-3.394298E-11	NaN
352	1.000000	0.418629	7.36851e+06	-56239.1	955.818	-29739.8	0.000000	0.000000	6.418933	0.012465	NaN	0.000000	0.001563	0.001714	28.0786	0.024611	0.001946	12.6447	150.389	-165.158	-0.017084	0.417309	-0.636558	-0.637879	0.012465	12.6447	-0.637298	-2.711479E+8	-4.596948E-11	NaN
352	1.000000	0.426633	7.36851e+06	-56239.1	955.818	-29739.8	0.000000	0.000000	6.426936	-0.000794	NaN	0.000000	0.001539	0.001736	28.0789	0.087616	0.002171	40.3586	126.656	-163.646	0.009994	0.425281	-0.628554	-0.629906	-0.000794	40.3586	-0.628540	-2.055729E+8	3.863286E-12	NaN
352	1.000000	0.434637	7.36851e+06	-56239.1	955.817	-29739.8	0.000000	0.000000	6.434942	0.014337	NaN	0.000000	0.001577	0.001712	28.0787	0.108743	0.002056	52.8805	46.3337	-165.354	-0.018413	0.433344	-0.620550	-0.621844	0.014337	52.8805	-0.620753	-1.606887E+8	-8.922162E-11	NaN
352	1.000000	0.442605	7.36851e+06	-56239.1	955.818	-29739.8	0.000000	0.000000	6.442908	-0.016594	NaN	0.000000	0.001514	0.001723	28.0788	0.006991	0.002006	3.484685	-88.5788	-167.915	-0.091519	0.441247	-0.612582	-0.613940	-0.016594	3.484685	-0.609010	-1.107894E+8	1.497777E-10	NaN
352	1.000000	0.450607	7.36851e+06	-56239.1	955.819	-29739.8	0.000000	0.000000	6.450909	-0.045007	NaN	0.000000	0.001522	0.001758	28.0787	0.010249	0.002054	4.989898	91.0828	-164.904	0.003213	0.449340	-0.604580	-0.605847	-0.045007	4.989898	-0.597815	-7.769051E+7	5.793065E-10	NaN
352	1.000000	0.458611	7.36851e+06	-56239.1	955.819	-29739.8	0.000000	0.000000	6.458913	-0.050544	NaN	0.000000	0.001514	0.001744	28.0801	0.099153	0.002004	49.4675	64.8935	-164.839	-0.045020	0.457282	-0.596576	-0.597905	-0.050544	49.4675	-0.595809	-7.290127E+7	6.933252E-10	NaN
352	1.000000	0.466605	7.36851e+06	-56239.1	955.818	-29739.8	0.000000	0.000000	6.466910	0.035702	NaN	0.000000	0.001510	0.001738	28.0799	0.096620	0.002006	48.157	153.321	-164.67	0.011786	0.465315	-0.588582	-0.589872	0.035702	48.157	-0.589138	-5.899109E+7	-6.052075E-10	NaN
352	1.000000	0.474637	7.36851e+06	-56239.1	955.818	-29739.8	0.000000	0.000000	6.474945	0.121540	NaN	0.000000	0.001528	0.001699	28.0798	0.105706	0.001958	53.9921	179.293	-167.282	0.008129	0.473316	-0.580551	-0.581871	0.121540	53.9921	-0.582239	-4.738302E+7	-2.565061E-9	NaN
352	1.000000	0.482604	7.36851e+06	-56239.1	955.818	-29739.8	0.000000	0.000000	6.482905	-0.043676	NaN	0.000000	0.001541	0.001737	28.0801	0.105557	0.001867	56.544	47.1356	-163.968	-0.070831	0.481302	-0.572584	-0.573886	-0.043676	56.544	-0.572004	-3.422328E+7	1.276195E-9	NaN
352	1.000000	0.490618	7.36851e+06	-56239.1	955.818	-29739.8	0.000000	0.000000	6.490921	-0.016435	NaN	0.000000	0.001533	0.001733	28.0798	0.026321	0.002037	12.9209	99.0293	-163.557	-0.042499	0.489350	-0.564569	-0.565837	-0.016435	12.9209	-0.563615	-2.620442E+7	6.271882E-10	NaN
352	1.000000	0.498636	7.36851e+06	-56239.1	955.818	-29739.8	0.000000	0.000000	6.498940	0.020253	NaN	0.000000	0.001554	0.001700	28.0802	0.039350	0.002041	19.2764	116.084	-168.745	0.005067	0.497347	-0.556551	-0.557840	0.020253	19.2764	-0.557339	-2.145687E+7	-9.438758E-10	NaN
352	1.000000	0.506643	7.36851e+06	-56239.1	955.818	-29739.8	0.000000	0.000000	6.506944	-0.061416	NaN	0.000000	0.001544	0.001740	28.0798	0.093298	0.001961	47.5651	82.1755	-165.484	-0.061392	0.505347	-0.548544	-0.549840	-0.061416	47.5651	-0.547576	-1.571707E+7	3.907577E-9	NaN
352	1.000000	0.514626	7.36851e+06	-56239.1	955.818	-29739.8	0.000000	0.000000	6.514931	0.031685	NaN	0.000000	0.001538	0.001721	28.0799	0.096724	0.001907	50.7124	-154.101	-165.775	-0.053883	0.513295	-0.540561	-0.541892	0.031685	50.7124	-0.541030	-1.275375E+7	-2.484380E-9	NaN
352	1.000000	0.522660	7.36851e+06	-56239.1	955.819	-29739.8	0.000000	0.000000	6.522961	-0.052987	NaN	0.000000	0.001546	0.001756	28.0802	0.057932	0.001899	30.5036	-163.356	-165.451	-0.147079	0.521358	-0.532527	-0.533829	-0.052987	30.5036	-0.531225	-9.32352e+06	5.683169E-9	NaN
352	1.000000	0.530624	7.36851e+06	-56239.1	955.819	-29739.8	0.000000	0.000000	6.530925	-0.063450	NaN	0.000000	0.001586	0.001724	28.0796	0.062991	0.002054	30.662	128.023	-163.722	-0.080238	0.529314	-0.524563	-0.525873	-0.063450	30.662	-0.523011	-7.16917e+06	8.850402E-9	NaN
352	1.000000	0.538642	7.36851e+06	-56239.1	955.819	-29739.8	0.000000	0.000000	6.538945	-0.015355	NaN	0.000000	0.001611	0.001728	28.0802	0.016723	0.002074	8.062559	17.5264	-170.017	0.028530	0.537335	-0.516545	-0.517852	-0.015355	8.062559	-0.515116	-5.5674e+06	2.758047E-9	NaN
352	1.000000	0.546666	7.36851e+06	-56239.1	955.817	-29739.8	0.000000	0.000000	6.546972	0.051776	NaN	0.000000	0.001575	0.001751	28.0796	0.086971	0.001886	46.1159	39.6425	-167.674	0.103977	0.545348	-0.508521	-0.509839	0.051776	46.1159	-0.509363	-4.62964e+06	-1.118368E-8	NaN
352	1.000000	0.554673	7.36851e+06	-56239.1	955.818	-29739.8	0.000000	0.000000	6.554977	0.016448	NaN	0.000000	0.001564	0.001727	28.0798	0.047794	0.001937	24.6711	108.877	-166.888	-0.080250	0.553357	-0.500514	-0.501830	0.016448	24.6711	-0.501014	-3.54133e+06	-4.644501E-9	NaN
352	1.000000	0.562666	7.36851e+06	-56239.1	955.818	-29739.8	0.000000	0.000000	6.562973	0.075727	NaN	0.000000	0.001612	0.001783	28.0797	0.106854	0.002019	52.9332	-54.4475	-167.052	0.065484	0.561360	-0.492521	-0.493827	0.075727	52.9332	-0.493594	-2.79001e+06	-2.714220E-8	NaN
352	1.000000	0.570665	7.36851e+06	-56239.1	955.818	-29739.8	0.000000	0.000000	6.570967	-0.043773	NaN	0.000000	0.001597	0.001752	28.0796	0.130861	0.002054	63.7003	104.501	-164.911	-0.090464	0.569351	-0.484522	-0.485836	-0.043773	63.7003	-0.484007	-2.04925e+06	2.136051E-8	NaN
352	1.000000	0.578664	7.36851e+06	-56239.1	955.818	-29739.8	0.000000	0.000000	6.578966	-0.025925	NaN	0.000000	0.001604	0.001779	28.0799	0.121290	0.001982	61.1944	-12.8959	-165.457	0.026165	0.577373	-0.476524	-0.477814	-0.025925	61.1944	-0.476206	-1.59366e+06	1.626756E-8	NaN
352	1.000000	0.586642	7.36851e+06	-56239.1	955.818	-29739.8	0.000000	0.000000	6.586944	-0.018502	NaN	0.000000	0.001582	0.001736	28.0797	0.029751	0.002016	14.755	55.1876	-169.249	-0.002572	0.585419	-0.468546	-0.469768	-0.018502	14.755	-0.467605	-1.20729e+06	1.532557E-8	NaN
352	1.000000	0.594654	7.36851e+06	-56239.1	955.818	-29739.8	0.000000	0.000000	6.594957	-0.008152	NaN	0.000000	0.001569	0.001684	28.0787	0.076372	0.002065	36.9762	140.765	-169.94	0.028075	0.593381	-0.460533	-0.461806	-0.008152	36.9762	-0.460368	-955404	8.532759E-9	NaN
352	1.000000	0.602681	7.36851e+06	-56239.1	955.819	-29739.8	0.000000	0.000000	6.602984	-0.016078	NaN	0.000000	0.001580	0.001715	28.0783	0.042506	0.001925	22.0796	95.8949	-166.45	-0.071430	0.601344	-0.452506	-0.453843	-0.016078	22.0796	-0.451960	-727675	2.209439E-8	NaN
352	1.000000	0.610676	7.36851e+06	-56239.1	955.818	-29739.8	0.000000	0.000000	6.610981	0.044684	NaN	0.000000	0.001570	0.001750	28.0784	0.091040	0.001943	46.8466	-46.0557	-165.086	0.068112	0.609439	-0.444511	-0.445748	0.044684	46.8466	-0.445227	-584906	-7.639464E-8	NaN
352	1.000000	0.618706	7.36851e+06	-56239.1	955.817	-29739.8	0.000000	0.000000	6.619009	-0.006390	NaN	0.000000	0.001546	0.001712	28.0785	0.029808	0.001818	16.396	-152.096	-165.228	-0.081209	0.617365	-0.436482	-0.437822	-0.006390	16.396	-0.436189	-436072	1.465391E-8	NaN
352	1.000000	0.626689	7.36851e+06	-56239.1	955.818	-29739.8	0.000000	0.000000	6.626993	-0.006103	NaN	0.000000	0.001574	0.001729	28.0786	0.117252	0.002061	56.8907	94.7209	-167.481	-0.061813	0.625339	-0.428498	-0.429848	-0.006103	56.8907	-0.428417	-338585	1.802567E-8	NaN
352	1.000000	0.634689	7.36851e+06	-56239.1	955.818	-29739.8	0.000000	0.000000	6.634993	0.015585	NaN	0.000000	0.001537	0.001703	28.0786	0.046646	0.002107	22.1384	-96.7366	-163.564	0.036357	0.633351	-0.420499	-0.421837	0.015585	22.1384	-0.421027	-266056	-5.857933E-8	NaN
352	1.000000	0.642726	7.36851e+06	-56239.1	955.818	-29739.8	0.000000	0.000000	6.643027	-0.056899	NaN	0.000000	0.001539	0.001723	28.0785	0.103858	0.001995	52.0567	127.636	-166.79	-0.052145	0.641420	-0.412462	-0.413767	-0.056899	52.0567	-0.411642	-195769	2.906420E-7	NaN
352	1.000000	0.650707	7.36851e+06	-56239.1	955.819	-29739.8	0.000000	0.000000	6.651009	-0.055472	NaN	0.000000	0.001521	0.001706	28.0786	0.059633	0.002048	29.1132	107.386	-165.733	-0.028261	0.649394	-0.404480	-0.405793	-0.055472	29.1132	-0.403051	-147735	3.754814E-7	NaN
352	1.000000	0.658704	7.36851e+06	-56239.1	955.817	-29739.8	0.000000	0.000000	6.659009	0.038316	NaN	0.000000	0.001520	0.001688	28.0785	0.148026	0.002028	72.987	109.444	-165.493	-0.041391	0.657399	-0.396484	-0.397788	0.038316	72.987	-0.396877	-120626	-3.176456E-7	NaN
352	1.000000	0.666706	7.36851e+06	-56239.1	955.817	-29739.8	0.000000	0.000000	6.667008	-0.030877	NaN	0.000000	0.001551	0.001743	28.0784	0.049134	0.001919	25.6045	-112.693	-165.072	-0.055740	0.665433	-0.388481	-0.389754	-0.030877	25.6045	-0.387577	-88815.5	3.476577E-7	NaN
352	1.000000	0.674719	7.36851e+06	-56239.1	955.819	-29739.8	0.000000	0.000000	6.675024	0.058427	NaN	0.000000	0.001530	0.001714	28.0787	0.042008	0.001926	21.813	43.8091	-165.446	0.100284	0.673401	-0.380469	-0.381786	0.058427	21.813	-0.382478	-75064	-7.783576E-7	NaN
352	1.000000	0.682730	7.36851e+06	-56239.1	955.819	-29739.8	0.000000	0.000000	6.683035	0.043668	NaN	0.000000	0.001532	0.001703	28.0785	0.082543	0.002124	38.8684	99.7068	-167.965	0.030586	0.681446	-0.372457	-0.373741	0.043668	38.8684	-0.373300	-55414.6	-7.880231E-7	NaN
352	1.000000	0.690681	7.36851e+06	-56239.1	955.818	-29739.8	0.000000	0.000000	6.690984	-0.005143	NaN	0.000000	0.001521	0.001700	28.0787	0.060192	0.002013	29.9062	-76.3253	-166.782	-0.050571	0.689399	-0.364507	-0.365789	-0.005143	29.9062	-0.364378	-41216.6	1.247895E-7	NaN
352	1.000000	0.698716	7.36851e+06	-56239.1	955.818	-29739.8	0.000000	0.000000	6.699017	-0.068364	NaN	0.000000	0.001517	0.001713	28.0786	0.034030	0.001946	17.4834	115.1	-167.479	-0.095041	0.697403	-0.356471	-0.357784	-0.068364	17.4834	-0.353538	-28729	2.379632E-6	NaN
352	1.000000	0.706733	7.36851e+06	-56239.1	955.817	-29739.8	0.000000	0.000000	6.707036	-0.004044	NaN	0.000000	0.001595	0.001683	28.0782	0.077202	0.001941	39.7737	31.3637	-166.215	-0.025245	0.705470	-0.348454	-0.349717	-0.004044	39.7737	-0.348378	-24179.9	1.672399E-7	NaN
352	1.000000	0.714700	7.36851e+06	-56239.1	955.819	-29739.8	0.000000	0.000000	6.715004	0.003335	NaN	0.000000	0.001560	0.001725	28.0785	0.085800	0.002156	39.802	-143.404	-168.136	-0.034507	0.713393	-0.340487	-0.341794	0.003335	39.802	-0.340550	-18602.5	-1.793030E-7	NaN
352	1.000000	0.722729	7.36851e+06	-56239.1	955.818	-29739.8	0.000000	0.000000	6.723034	0.052527	NaN	0.000000	0.001557	0.001715	28.0784	0.099957	0.001938	51.5709	168.017	-162.571	-0.010761	0.721366	-0.332459	-0.333821	0.052527	51.5709	-0.333223	-14541.4	-3.612200E-6	NaN
352	1.000000	0.730709	7.36851e+06	-56239.1	955.818	-29739.8	0.000000	0.000000	6.731014	0.038966	NaN	0.000000	0.001560	0.001713	28.0801	0.078092	0.001906	40.9761	69.1368	-168.091	0.048912	0.729418	-0.324478	-0.325769	0.038966	40.9761	-0.325191	-11090.4	-3.513512E-6	NaN
352	1.000000	0.738728	7.36851e+06	-56239.1	955.817	-29739.8	0.000000	0.000000	6.739031	-0.005421	NaN	0.000000	0.001554	0.001729	28.0796	0.024454	0.002045	11.9561	-85.1376	-168.981	0.039520	0.737408	-0.316459	-0.317779	-0.005421	11.9561	-0.316119	-8155.7	6.647076E-7	NaN
352	1.000000	0.746748	7.36851e+06	-56239.1	955.819	-29739.8	0.000000	0.000000	6.747050	-0.036198	NaN	0.000000	0.001545	0.001745	28.0799	0.064489	0.002045	31.5284	-176.547	-163.102	-0.006748	0.745450	-0.308439	-0.309738	-0.036198	31.5284	-0.307578	-6098.06	5.935925E-6	NaN
352	1.000000	0.754731	7.36851e+06	-56239.1	955.819	-29739.8	0.000000	0.000000	6.755034	-0.012933	NaN	0.000000	0.001520	0.001692	28.0796	0.059070	0.002011	29.3681	-65.0108	-167.303	-0.015684	0.753418	-0.300457	-0.301769	-0.012933	29.3681	-0.300126	-4726.24	2.736340E-6	NaN
352	1.000000	0.762763	7.36851e+06	-56239.1	955.819	-29739.8	0.000000	0.000000	6.763065	-0.043746	NaN	0.000000	0.001570	0.001649	28.0796	0.046363	0.001985	23.3594	-102.142	-167.182	-0.034125	0.761413	-0.292424	-0.293774	-0.043746	23.3594	-0.291020	-3455.99	1.265816E-5	NaN
352	1.000000	0.770754	7.36851e+06	-56239.1	955.819	-29739.8	0.000000	0.000000	6.771054	-0.100539	NaN	0.000000	0.001572	0.001689	28.0798	0.045478	0.002019	22.5236	174.819	-164.003	-0.116022	0.769409	-0.284433	-0.285778	-0.100539	22.5236	-0.281085	-2450.94	4.102056E-5	NaN
352	1.000000	0.778746	7.36851e+06	-56239.1	955.819	-29739.8	0.000000	0.000000	6.779047	-0.066211	NaN	0.000000	0.001558	0.001659	28.0796	0.122184	0.001990	61.41	65.3574	-165.774	-0.127964	0.777449	-0.276441	-0.277738	-0.066211	61.41	-0.275632	-2027.56	3.265553E-5	NaN
352	1.000000	0.786758	7.36851e+06	-56239.1	955.818	-29739.8	0.000000	0.000000	6.787061	-0.014225	NaN	0.000000	0.001584	0.001683	28.0799	0.056741	0.002131	26.6274	17.1052	-167.407	-0.045821	0.785443	-0.268429	-0.269744	-0.014225	26.6274	-0.268028	-1554.35	9.151656E-6	NaN
352	1.000000	0.794772	7.36851e+06	-56239.1	955.818	-29739.8	0.000000	0.000000	6.795077	0.036639	NaN	0.000000	0.001573	0.001690	28.0796	0.045044	0.002053	21.9454	0.610947	-165.591	0.069152	0.793417	-0.260416	-0.261770	0.036639	21.9454	-0.261668	-1242.97	-2.947735E-5	NaN
352	1.000000	0.802782	7.36851e+06	-56239.1	955.818	-29739.8	0.000000	0.000000	6.803088	0.053198	NaN	0.000000	0.001615	0.001675	28.0796	0.060263	0.002021	29.8155	-4.637382	-166.881	0.002811	0.801464	-0.252405	-0.253723	0.053198	29.8155	-0.253744	-939.209	-5.664109E-5	NaN
352	1.000000	0.810769	7.36851e+06	-56239.1	955.818	-29739.8	0.000000	0.000000	6.811071	-0.030754	NaN	0.000000	0.001584	0.001682	28.0796	0.116702	0.002112	55.2684	-110.57	-164.201	0.036567	0.809481	-0.244418	-0.245706	-0.030754	55.2684	-0.244001	-663.617	4.634299E-5	NaN
352	1.000000	0.818760	7.36851e+06	-56239.1	955.819	-29739.8	0.000000	0.000000	6.819064	0.002214	NaN	0.000000	0.001585	0.001703	28.0796	0.055825	0.001787	31.234	-108.309	-167.237	0.017397	0.817478	-0.236427	-0.237709	0.002214	31.234	-0.236480	-506.371	-4.372892E-6	NaN
352	1.000000	0.826767	7.36851e+06	-56239.1	955.818	-29739.8	0.000000	0.000000	6.827070	-0.016819	NaN	0.000000	0.001569	0.001698	28.0797	0.082625	0.001914	43.1742	100.235	-166.165	-0.067730	0.825445	-0.228420	-0.229742	-0.016819	43.1742	-0.228128	-374.049	4.496454E-5	NaN
352	1.000000	0.834810	7.36851e+06	-56239.1	955.818	-29739.8	0.000000	0.000000	6.835114	-0.005201	NaN	0.000000	0.001577	0.001684	28.0796	0.092684	0.001949	47.5489	34.5784	-168.968	-0.026283	0.833474	-0.220377	-0.221713	-0.005201	47.5489	-0.220295	-280.795	1.852408E-5	NaN
352	1.000000	0.842794	7.36851e+06	-56239.1	955.817	-29739.8	0.000000	0.000000	6.843098	0.017830	NaN	0.000000	0.001548	0.001714	28.0795	0.014265	0.001981	7.200836	150.415	-165.705	-0.028569	0.841462	-0.212393	-0.213726	0.017830	7.200836	-0.214250	-224.62	-7.937686E-5	NaN
352	1.000000	0.850762	7.36851e+06	-56239.1	955.818	-29739.8	0.000000	0.000000	6.851064	-0.024153	NaN	0.000000	0.001581	0.001690	28.0795	0.065199	0.002033	32.0686	-128.088	-167.158	-0.091383	0.849476	-0.204425	-0.205711	-0.024153	32.0686	-0.203861	-152.391	0.000158	NaN
352	1.000000	0.858792	7.36851e+06	-56239.1	955.818	-29739.8	0.000000	0.000000	6.859096	0.025613	NaN	0.000000	0.001580	0.001707	28.0796	0.061543	0.002005	30.6923	141.452	-164.19	-0.065072	0.857496	-0.196396	-0.197692	0.025613	30.6923	-0.197022	-117.662	-0.000218	NaN
352	1.000000	0.866772	7.36851e+06	-56239.1	955.818	-29739.8	0.000000	0.000000	6.867074	-0.019284	NaN	0.000000	0.001633	0.001659	28.0786	0.062809	0.002076	30.2547	-127.27	-166.027	0.043544	0.865452	-0.188416	-0.189735	-0.019284	30.2547	-0.187938	-83.0831	0.000232	NaN
352	1.000000	0.874801	7.36851e+06	-56239.1	955.818	-29739.8	0.000000	0.000000	6.875105	-0.002584	NaN	0.000000	0.001648	0.001722	28.0784	0.107408	0.002072	51.8444	-52.1547	-168.17	0.027893	0.873495	-0.180386	-0.181692	-0.002584	51.8444	-0.180349	-61.8579	4.177823E-5	NaN
352	1.000000	0.882794	7.36851e+06	-56239.1	955.818	-29739.8	0.000000	0.000000	6.883096	-0.040142	NaN	0.000000	0.001637	0.001690	28.0787	0.103328	0.001984	52.0877	-23.6317	-167.388	0.023242	0.881473	-0.172393	-0.173714	-0.040142	52.0877	-0.171815	-44.1639	0.000909	NaN
352	1.000000	0.890786	7.36851e+06	-56239.1	955.819	-29739.8	0.000000	0.000000	6.891089	-0.020290	NaN	0.000000	0.001635	0.001703	28.0786	0.034966	0.001963	17.8126	56.6115	-165.493	0.028717	0.889459	-0.164401	-0.165728	-0.020290	17.8126	-0.163547	-31.6771	0.000641	NaN
352	1.000000	0.898826	7.36851e+06	-56239.1	955.819	-29739.8	0.000000	0.000000	6.899128	-0.038071	NaN	0.000000	0.001532	0.001673	28.0784	0.114414	0.001957	58.4546	-132.12	-167.387	-0.074380	0.897509	-0.156362	-0.157679	-0.038071	58.4546	-0.155873	-23.1353	0.001646	NaN
352	1.000000	0.906797	7.36851e+06	-56239.1	955.819	-29739.8	0.000000	0.000000	6.907103	0.062439	NaN	0.000000	0.001537	0.001685	28.0784	0.069109	0.002062	33.5158	-137.284	-161.82	0.052940	0.905438	-0.148390	-0.149749	0.062439	33.5158	-0.149787	-17.9524	-0.003478	NaN
352	1.000000	0.914809	7.36851e+06	-56239.1	955.818	-29739.8	0.000000	0.000000	6.915111	-0.047193	NaN	0.000000	0.001556	0.001696	28.0785	0.147271	0.002029	72.5964	10.1899	-166.154	-0.017805	0.913464	-0.140378	-0.141723	-0.047193	72.5964	-0.139890	-11.7735	0.004008	NaN
352	1.000000	0.922766	7.36851e+06	-56239.1	955.818	-29739.8	0.000000	0.000000	6.923072	0.058964	NaN	0.000000	0.001570	0.001698	28.0786	0.051498	0.002067	24.9167	-15.0692	-165.822	-0.050263	0.921469	-0.132422	-0.133719	0.058964	24.9167	-0.134196	-9.181786	-0.006422	NaN
352	1.000000	0.930795	7.36851e+06	-56239.1	955.817	-29739.8	0.000000	0.000000	6.931097	-0.025459	NaN	0.000000	0.001542	0.001679	28.0785	0.088428	0.001908	46.3457	-72.9295	-166.144	-0.000968	0.929525	-0.124392	-0.125662	-0.025459	46.3457	-0.123980	-5.804682	0.004386	NaN
352	1.000000	0.938811	7.36851e+06	-56239.1	955.819	-29739.8	0.000000	0.000000	6.939115	-0.009265	NaN	0.000000	0.001528	0.001638	28.0786	0.012934	0.001974	6.551577	99.0196	-165.009	0.014201	0.937509	-0.116376	-0.117679	-0.009265	6.551577	-0.115315	-3.877916	0.002389	NaN
352	1.000000	0.946798	7.36851e+06	-56239.1	955.818	-29739.8	0.000000	0.000000	6.947105	0.073005	NaN	0.000000	0.001512	0.001674	28.0784	0.005582	0.001993	2.800989	-104.246	-168.298	-0.000652	0.945512	-0.108389	-0.109675	0.073005	2.800989	-0.127937	-6.946931	-0.010509	NaN
352	1.000000	0.954797	7.36851e+06	-56239.1	955.818	-29739.8	0.000000	0.000000	6.955101	0.011903	NaN	0.000000	0.001528	0.001700	28.0786	0.169049	0.002004	84.3705	171.437	-166.851	0.009027	0.953498	-0.100390	-0.101689	0.011903	84.3705	-0.100496	-1.873903	-0.006352	NaN
352	1.000000	0.962840	7.36851e+06	-56239.1	955.818	-29739.8	0.000000	0.000000	6.963146	0.078647	NaN	0.000000	0.001495	0.001695	28.0786	0.022447	0.001928	11.6427	123.649	-167.051	0.048322	0.961495	-0.092348	-0.093692	0.078647	11.6427	-0.097414	-1.599732	-0.049163	NaN
352	1.000000	0.970866	7.36851e+06	-56239.1	955.819	-29739.8	0.000000	0.000000	6.971167	-0.067909	NaN	0.000000	0.001506	0.001654	28.0786	0.012991	0.001974	6.580171	107.205	-167.034	-0.050915	0.969476	-0.084321	-0.085712	-0.067909	6.580171	-0.076581	-0.507215	0.133886	NaN
352	1.000000	0.978864	7.36851e+06	-56239.1	955.819	-29739.8	0.000000	0.000000	6.979167	0.004499	NaN	0.000000	0.001519	0.001657	28.0788	0.107026	0.002005	53.3723	-38.4538	-166.755	-0.068619	0.977536	-0.076323	-0.077651	0.004499	53.3723	-0.076387	-0.501446	-0.008973	NaN
352	1.000000	0.986837	7.36851e+06	-56239.1	955.819	-29739.8	0.000000	0.000000	6.987140	-0.021661	NaN	0.000000	0.001503	0.001699	28.0786	0.076250	0.002003	38.0725	125.382	-168.521	-0.015262	0.985536	-0.068350	-0.069652	-0.021661	38.0725	-0.067923	-0.299814	0.072248	NaN
352	1.000000	0.994847	7.36851e+06	-56239.1	955.819	-29739.8	0.000000	0.000000	6.995150	-0.024046	NaN	0.000000	0.001501	0.001651	28.0787	0.002881	0.002048	1.406500	-5.253800	-164.216	-0.031511	0.993498	-0.060340	-0.061689	-0.024046	1.406500	-0.047518	-0.076716	0.313437	NaN
352	1.000000	1.002824	7.36851e+06	-56239.1	955.821	-29739.8	0.000000	0.000000	7.003126	-0.051578	NaN	0.000000	0.001541	0.001656	28.0799	0.032306	0.001927	16.7684	-175.918	-170.385	-0.048524	1.001536	-0.052363	-0.053651	-0.051578	16.7684	-0.050056	-0.091607	0.563036	NaN
352	1.000000	1.010819	7.36851e+06	-56239.1	955.82	-29739.8	0.000000	0.000000	7.011121	-0.031927	NaN	0.000000	0.001508	0.001668	28.0798	0.063414	0.001873	33.8577	-73.1357	-166.271	0.009275	1.009552	-0.044368	-0.045635	-0.031927	33.8577	-0.043661	-0.058484	0.545907	NaN
352	1.000000	1.018838	7.36851e+06	-56239.1	955.82	-29739.8	0.000000	0.000000	7.019142	0.016093	NaN	0.000000	0.001515	0.001675	28.0802	0.051989	0.001948	26.6887	76.8991	-165.116	-0.009366	1.017551	-0.036349	-0.037637	0.016093	26.6887	-0.036802	-0.036219	-0.444329	NaN
352	1.000000	1.026866	7.36851e+06	-56239.1	955.82	-29739.8	0.000000	0.000000	7.027171	0.041217	NaN	0.000000	0.001514	0.001694	28.0798	0.043124	0.002082	20.7128	144.92	-166.482	-0.034588	1.025545	-0.028321	-0.029642	0.041217	20.7128	-0.029814	-0.022740	-1.812579	NaN
352	1.000000	1.034868	7.36851e+06	-56239.1	955.819	-29739.8	0.000000	0.000000	7.035170	-0.045887	NaN	0.000000	0.001534	0.001661	28.0799	0.118466	0.002062	57.4636	-144.294	-163.844	-0.007614	1.033551	-0.020319	-0.021636	-0.045887	57.4636	-0.019720	-0.012357	3.713543	NaN
352	1.000000	1.042859	7.36851e+06	-56239.1	955.819	-29739.8	0.000000	0.000000	7.043161	-0.023621	NaN	0.000000	0.001516	0.001644	28.08	0.060137	0.002050	29.3294	155.413	-161.902	0.008502	1.041533	-0.012328	-0.013654	-0.023621	29.3294	-0.011724	-0.007371	3.204543	NaN
352	1.000000	1.050865	7.36851e+06	-56239.1	955.819	-29739.8	0.000000	0.000000	7.051170	0.029413	NaN	0.000000	0.001516	0.001666	28.08	0.064557	0.002008	32.1463	93.6773	-169.86	-0.017299	1.049581	-0.004322	-0.005606	0.029413	32.1463	-0.005008	-0.003422	-8.595770	NaN
352	1.000000	1.058844	7.36851e+06	-56239.1	955.818	-29739.8	0.000000	0.000000	7.059295	3.589432	NaN	0.000000	0.001487	0.001672	28.0802	4.489143	0.001777	2526.34	8.321062	-168.847	1.967993	1.057557	0.003657	0.002370	3.589432	2526.34	0.002591	0.002039	1760.64	51119.6
352	2.000000	1.064448	7.36851e+06	-56239.1	955.819	-29739.8	0.000000	0.000000	7.065144	9.540614	NaN	0.000000	0.001555	0.001646	28.0798	10.4755	0.001717	6101.8	9.755072	-174.987	9.513757	1.064155	0.009261	0.008968	9.540614	6101.8	0.008088	0.007133	1337.51	66007.1
352	2.000000	1.066355	7.36851e+06	-56239.1	955.818	-29739.8	0.000000	0.000000	7.067230	13.9083	NaN	0.000000	0.001519	0.001634	28.0803	12.4893	0.001597	7821.4	7.242512	-175.785	13.1215	1.066004	0.011167	0.010816	13.9083	7821.4	0.009834	0.008997	1545.85	75336.4
352	2.000000	1.068355	7.36851e+06	-56239.1	955.819	-29739.8	0.000000	0.000000	7.069334	16.4281	NaN	0.000000	0.001522	0.001657	28.08	14.5922	0.001592	9165.25	3.550380	-174.164	15.7871	1.068091	0.013168	0.012904	16.4281	9165.25	0.011823	0.011279	1456.53	78846.6
352	2.000000	1.070362	7.36851e+06	-56239.1	955.819	-29739.8	0.000000	0.000000	7.071442	18.8721	NaN	0.000000	0.001554	0.001617	28.0796	16.3491	0.001677	9749.79	9.702533	-179.271	18.6926	1.070007	0.015175	0.014820	18.8721	9749.79	0.013723	0.013620	1385.59	76326.6
352	2.000000	1.072355	7.36851e+06	-56239.1	955.819	-29739.8	0.000000	0.000000	7.073633	23.705	NaN	0.000000	0.001531	0.001625	28.0806	19.1345	0.001775	10778.8	6.783457	-178.171	23.1728	1.071983	0.017167	0.016796	23.705	10778.8	0.015518	0.015982	1483.21	77897.9
352	2.000000	1.074345	7.36851e+06	-56239.1	955.82	-29739.8	0.000000	0.000000	7.075770	27.2408	NaN	0.000000	0.001504	0.001653	28.08	20.9107	0.001783	11729.4	4.144878	-175.779	26.6517	1.074008	0.019158	0.018821	27.2408	11729.4	0.017416	0.018644	1461.11	78483.9
352	2.000000	1.076313	7.36851e+06	-56239.1	955.819	-29739.8	0.000000	0.000000	7.077883	30.7825	NaN	0.000000	0.001556	0.001632	28.08	22.9968	0.001795	12810.7	4.129450	-176.082	30.2166	1.075951	0.021126	0.020764	30.7825	12810.7	0.019324	0.021490	1432.38	79840.5
352	2.000000	1.078345	7.36851e+06	-56239.1	955.819	-29739.8	0.000000	0.000000	7.080085	34.9172	NaN	0.000000	0.001520	0.001638	28.08	25.8695	0.001850	13984.1	5.196262	-179.317	34.3756	1.078042	0.023158	0.022855	34.9172	13984.1	0.021285	0.024603	1419.25	81455.1
352	2.000000	1.080325	7.36851e+06	-56239.1	955.819	-29739.8	0.000000	0.000000	7.082345	41.7186	NaN	0.000000	0.001567	0.001606	28.0798	26.5934	0.001749	15202.1	7.572397	179.549	42.0945	1.079947	0.025138	0.024759	41.7186	15202.1	0.023080	0.027615	1510.72	83580.5
352	2.000000	1.082231	7.36851e+06	-56239.1	955.819	-29739.8	0.000000	0.000000	7.084427	46.0166	NaN	0.000000	0.001601	0.001652	28.0798	28.2273	0.001831	15416.3	3.104789	-176.718	43.8379	1.082015	0.027043	0.026828	46.0166	15416.3	0.024805	0.030661	1500.81	80437.7
352	2.000000	1.084312	7.36851e+06	-56239.1	955.819	-29739.8	0.000000	0.000000	7.086751	51.901	NaN	0.000000	0.001599	0.001664	28.0786	30.7773	0.001741	17674.1	4.525975	-179.151	51.4259	1.083981	0.029125	0.028794	51.901	17674.1	0.026923	0.034606	1499.76	86802.4
352	2.000000	1.086307	7.36851e+06	-56239.1	955.819	-29739.8	0.000000	0.000000	7.088949	56.8455	NaN	0.000000	0.001618	0.001674	28.0786	31.9973	0.001792	17851.9	5.331443	178.596	55.7151	1.085929	0.031120	0.030741	56.8455	17851.9	0.028731	0.038155	1489.85	83498.7
352	2.000000	1.088253	7.36851e+06	-56239.1	955.819	-29739.8	0.000000	0.000000	7.090980	58.9068	NaN	0.000000	0.001600	0.001649	28.0788	33.6217	0.001815	18521.1	2.654325	-178.148	57.5748	1.088107	0.033066	0.032920	58.9068	18521.1	0.030680	0.042166	1397.03	82406.1
352	2.000000	1.090346	7.36851e+06	-56239.1	955.819	-29739.8	0.000000	0.000000	7.093397	66.7932	NaN	0.000000	0.001591	0.001654	28.0786	35.1005	0.001736	20220.8	7.162031	175.878	68.7023	1.090012	0.035159	0.034825	66.7932	20220.8	0.032681	0.046485	1436.88	85687.1
352	2.000000	1.092282	7.36851e+06	-56239.1	955.819	-29739.8	0.000000	0.000000	7.095594	73.1264	NaN	0.000000	0.001568	0.001655	28.0791	37.9998	0.001759	21602.2	7.873513	175.399	72.7785	1.091952	0.037094	0.036764	73.1264	21602.2	0.034556	0.050716	1441.87	87639.2
352	2.000000	1.094331	7.36851e+06	-56239.1	955.82	-29739.8	0.000000	0.000000	7.097916	79.7455	NaN	0.000000	0.001611	0.001666	28.0786	39.7573	0.001879	21157.2	6.941919	176.167	79.8155	1.093980	0.039144	0.038792	79.7455	21157.2	0.036317	0.054858	1453.68	82530.2
352	2.000000	1.096219	7.36851e+06	-56239.1	955.82	-29739.8	0.000000	0.000000	7.100132	87.7455	NaN	0.000000	0.001574	0.001673	28.0786	41.0479	0.001811	22660.3	0.869540	-179.109	84.607	1.096006	0.041031	0.040819	87.7455	22660.3	0.038127	0.059278	1480.24	85034
352	2.000000	1.098274	7.36851e+06	-56239.1	955.819	-29739.8	0.000000	0.000000	7.102460	94.3884	NaN	0.000000	0.001565	0.001663	28.0785	43.756	0.001808	24201.4	7.718713	173.856	93.3614	1.097949	0.043086	0.042762	94.3884	24201.4	0.040161	0.064446	1464.62	87099.8
352	2.000000	1.100222	7.36851e+06	-56239.1	955.82	-29739.8	0.000000	0.000000	7.104790	103.657	NaN	0.000000	0.001529	0.001665	28.0786	44.5386	0.001843	24165.3	7.244220	174.204	101.398	1.099943	0.045035	0.044756	103.657	24165.3	0.041818	0.068810	1506.42	84166.4
352	2.000000	1.102180	7.36851e+06	-56239.1	955.819	-29739.8	0.000000	0.000000	7.106961	108.825	NaN	0.000000	0.001543	0.001695	28.079	45.5153	0.001764	25803.9	0.288612	-179.448	104.021	1.101886	0.046993	0.046699	108.825	25803.9	0.043830	0.074300	1464.67	86489.4
352	2.000000	1.104281	7.36851e+06	-56239.1	955.819	-29739.8	0.000000	0.000000	7.109363	116.14	NaN	0.000000	0.001572	0.001627	28.0786	48.8068	0.001757	27772.1	7.783415	172.775	115.278	1.103916	0.049094	0.048728	116.14	27772.1	0.045958	0.080330	1445.79	89524.9
352	2.000000	1.106247	7.36851e+06	-56239.1	955.82	-29739.8	0.000000	0.000000	7.111768	126.815	NaN	0.000000	0.001541	0.001686	28.0786	49.6732	0.001861	26696.3	5.947336	175.52	124.414	1.105876	0.051060	0.050688	126.815	26696.3	0.047497	0.084835	1494.85	83741.1
352	2.000000	1.108198	7.36851e+06	-56239.1	955.819	-29739.8	0.000000	0.000000	7.113940	132.191	NaN	0.000000	0.001587	0.001672	28.0785	51.9646	0.001946	26699.1	4.231586	176.817	128.088	1.107964	0.053010	0.052777	132.191	26699.1	0.049297	0.090253	1464.67	81196.8
352	2.000000	1.110233	7.36851e+06	-56239.1	955.82	-29739.8	0.000000	0.000000	7.116205	137.787	NaN	0.000000	0.001607	0.001662	28.0784	52.9865	0.001875	28253.5	5.110780	174.85	134.688	1.110005	0.055046	0.054818	137.787	28253.5	0.051388	0.096752	1424.12	82987.9
352	2.000000	1.112232	7.36851e+06	-56239.1	955.82	-29739.8	0.000000	0.000000	7.118633	148.195	NaN	0.000000	0.001588	0.001701	28.0792	54.8591	0.001877	29229	4.977337	174.62	146.181	1.111939	0.057045	0.056752	148.195	29229	0.053242	0.102698	1443.02	83330.8
352	2.000000	1.114282	7.36851e+06	-56239.1	955.821	-29739.8	0.000000	0.000000	7.121216	161.164	NaN	0.000000	0.001511	0.001683	28.0786	56.223	0.001764	31877.6	7.469984	171.85	161.224	1.113956	0.059094	0.058768	161.164	31877.6	0.055303	0.109505	1471.74	88011.9
352	2.000000	1.116224	7.36851e+06	-56239.1	955.821	-29739.8	0.000000	0.000000	7.123523	170.025	NaN	0.000000	0.001508	0.001686	28.0793	57.2847	0.001708	33545.1	7.542517	171.382	169.169	1.115930	0.061037	0.060743	170.025	33545.1	0.057236	0.116082	1464.69	89953.7
352	2.000000	1.118205	7.36851e+06	-56239.1	955.82	-29739.8	0.000000	0.000000	7.125984	181.71	NaN	0.000000	0.001513	0.001686	28.0797	59.2683	0.001816	32631.2	1.532711	177.58	177.696	1.117879	0.063018	0.062691	181.71	32631.2	0.058841	0.121686	1493.27	85464.7
352	2.000000	1.120337	7.36851e+06	-56239.1	955.821	-29739.8	0.000000	0.000000	7.128200	183.737	NaN	0.000000	0.001541	0.001701	28.0797	61.5898	0.001835	33555	6.416007	172.315	188.665	1.119930	0.065150	0.064743	183.737	33555	0.061043	0.129576	1417.99	85166.6
352	2.000000	1.122368	7.36851e+06	-56239.1	955.822	-29739.8	0.000000	0.000000	7.130601	192.752	NaN	0.000000	0.001570	0.001695	28.08	63.562	0.001888	33658.9	4.504700	175.053	199.543	1.121969	0.067181	0.066782	192.752	33658.9	0.062886	0.136359	1413.56	83278.2
352	2.000000	1.124322	7.36851e+06	-56239.1	955.821	-29739.8	0.000000	0.000000	7.133229	209.122	NaN	0.000000	0.001585	0.001661	28.0798	64.8162	0.001789	36227.1	4.582333	175.037	212.734	1.123890	0.069135	0.068703	209.122	36227.1	0.064805	0.143602	1456.26	87342.8
352	2.000000	1.126287	7.36851e+06	-56239.1	955.821	-29739.8	0.000000	0.000000	7.135583	218.568	NaN	0.000000	0.001551	0.001707	28.0799	66.4329	0.001767	37600.6	9.413924	170.357	219.087	1.125780	0.071100	0.070593	218.568	37600.6	0.066740	0.151082	1446.69	88381.7
352	2.000000	1.128255	7.36851e+06	-56239.1	955.822	-29739.8	0.000000	0.000000	7.137915	227.43	NaN	0.000000	0.001544	0.001729	28.0799	69.3376	0.001916	36198.1	8.133766	171.043	227.46	1.127907	0.073068	0.072720	227.43	36198.1	0.068355	0.157463	1444.34	83343.2
352	2.000000	1.130267	7.36851e+06	-56239.1	955.822	-29739.8	0.000000	0.000000	7.140234	234.874	NaN	0.000000	0.001555	0.001707	28.0798	69.3792	0.001820	38127.4	3.236943	174.39	235.51	1.129910	0.075080	0.074723	234.874	38127.4	0.070460	0.165965	1415.21	85507.2
352	2.000000	1.132175	7.36851e+06	-56239.1	955.821	-29739.8	0.000000	0.000000	7.142734	249.268	NaN	0.000000	0.001472	0.001734	28.0801	70.7066	0.001807	39126.2	-1.723021	179.468	245.191	1.131841	0.076988	0.076654	249.268	39126.2	0.072210	0.173194	1439.24	85896.4
352	2.000000	1.134304	7.36851e+06	-56239.1	955.822	-29739.8	0.000000	0.000000	7.145539	265.695	NaN	0.000000	0.001472	0.001709	28.0799	73.3815	0.001774	41357.7	3.850208	174.172	267.75	1.133868	0.079117	0.078680	265.695	41357.7	0.074299	0.182014	1459.75	88568.1
352	2.000000	1.136239	7.36851e+06	-56239.1	955.82	-29739.8	0.000000	0.000000	7.147829	274.33	NaN	0.000000	0.001514	0.001706	28.0809	75.4225	0.001679	44932.4	9.127575	167.56	274.879	1.135868	0.081052	0.080680	274.33	44932.4	0.076473	0.191412	1433.2	93831.5
352	2.000000	1.138172	7.36851e+06	-56239.1	955.821	-29739.8	0.000000	0.000000	7.150124	283.154	NaN	0.000000	0.001530	0.001696	28.0801	77.6298	0.001857	41815	5.386966	171.981	280.135	1.137855	0.082984	0.082667	283.154	41815	0.077906	0.197725	1432.06	85916.1
352	2.000000	1.140181	7.36851e+06	-56239.1	955.821	-29739.8	0.000000	0.000000	7.152363	288.74	NaN	0.000000	0.001524	0.001662	28.08	78.0573	0.001902	41042.6	2.939769	174.782	285.569	1.139936	0.084994	0.084748	288.74	41042.6	0.079717	0.205848	1402.68	82648.5
352	2.000000	1.142186	7.36851e+06	-56239.1	955.821	-29739.8	0.000000	0.000000	7.155074	305.909	NaN	0.000000	0.001510	0.001664	28.0801	79.4715	0.001732	45874	6.219591	170.374	304.44	1.141914	0.086998	0.086727	305.909	45874	0.081997	0.216285	1414.38	90121.3
352	2.000000	1.144252	7.36851e+06	-56239.1	955.821	-29739.8	0.000000	0.000000	7.157752	320.772	NaN	0.000000	0.001515	0.001684	28.0798	80.8717	0.001757	46020.7	2.723038	174.454	319.356	1.143935	0.089065	0.088748	320.772	46020.7	0.083837	0.224886	1426.38	88663.6
352	2.000000	1.146295	7.36851e+06	-56239.1	955.82	-29739.8	0.000000	0.000000	7.160071	327.476	NaN	0.000000	0.001487	0.001688	28.0803	82.8747	0.001719	48208.1	3.674258	173.251	333.019	1.145874	0.091108	0.090687	327.476	48208.1	0.086013	0.235260	1391.98	90807.1
352	2.000000	1.148270	7.36851e+06	-56239.1	955.821	-29739.8	0.000000	0.000000	7.162397	336.013	NaN	0.000000	0.001502	0.001671	28.08	85.7309	0.001847	46420.7	3.012380	173.43	336.064	1.147920	0.093082	0.092733	336.013	46420.7	0.087654	0.243223	1381.5	85996.9
352	2.000000	1.150211	7.36851e+06	-56239.1	955.822	-29739.8	0.000000	0.000000	7.164912	349.962	NaN	0.000000	0.001530	0.001698	28.0788	85.5253	0.001676	51034.7	1.211015	174.726	351.417	1.149877	0.095024	0.094690	349.962	51034.7	0.089881	0.254233	1376.54	92474.6
352	2.000000	1.152182	7.36851e+06	-56239.1	955.821	-29739.8	0.000000	0.000000	7.167612	367.674	NaN	0.000000	0.001515	0.001629	28.0785	88.7632	0.001751	50692.2	5.868768	169.668	365.079	1.151863	0.096995	0.096676	367.674	50692.2	0.091555	0.262660	1399.81	90368.6
352	2.000000	1.154258	7.36851e+06	-56239.1	955.821	-29739.8	0.000000	0.000000	7.170385	384.605	NaN	0.000000	0.001491	0.001693	28.079	90.7354	0.001840	49302.1	4.490917	171.53	385.986	1.153943	0.099071	0.098756	384.605	49302.1	0.093220	0.271170	1418.32	86500.3
352	2.000000	1.156275	7.36851e+06	-56239.1	955.821	-29739.8	0.000000	0.000000	7.172997	399.081	NaN	0.000000	0.001522	0.001722	28.079	91.7533	0.001738	52789.1	6.629300	169.513	401.457	1.155799	0.101087	0.100612	399.081	52789.1	0.095417	0.282591	1412.22	90727.3
352	2.000000	1.158189	7.36851e+06	-56239.1	955.821	-29739.8	0.000000	0.000000	7.175395	410.863	NaN	0.000000	0.001519	0.001676	28.0788	94.8191	0.001714	55334.7	8.287559	166.677	409.445	1.158000	0.103001	0.102812	410.863	55334.7	0.097433	0.293260	1401.02	93356.5
352	2.000000	1.160226	7.36851e+06	-56239.1	955.822	-29739.8	0.000000	0.000000	7.178293	431.761	NaN	0.000000	0.001550	0.001697	28.079	94.7338	0.001760	53814.6	3.503824	172.298	433.608	1.159817	0.105039	0.104630	431.761	53814.6	0.099022	0.301804	1430.6	89497.5
352	2.000000	1.162287	7.36851e+06	-56239.1	955.822	-29739.8	0.000000	0.000000	7.180767	441.822	NaN	0.000000	0.001511	0.001668	28.0786	98.9895	0.001894	52262.1	4.575328	171.063	445.227	1.161950	0.107100	0.106763	441.822	52262.1	0.100759	0.311274	1419.4	85583.2