File: remote_trans/data/nanoindenter/0828-1/data/Data_2025-08-06,11h17m57s/2025-07-22_16-23-58_1_1198.txt
2025-07-22, 16:23:58, 1
Index	Phase	Displacement	Time	Pos X	Pos Y	Pos Z	Rot A	Rot B	Piezo Z	Force A	Force B	Gripper	Voltage A	Voltage B	Temperature	Amplitude force	Amplitude pos	Stiffness	Phase shift	Phase excitation	Force A raw	Displacement raw	HMax	HMax raw	Real Force	Real Stiffness	Contact Depth	Area	Hardness	Reduced Mod.
[#]	[#]	[um]	[s]	[um]	[um]	[um]	[m°]	[m°]	[um]	[uN]	[uN]	[V]	[V]	[V]	[°C]	[uN]	[um]	[N/m]	[°]	[°]	[uN]	[um]	[um]	[um]	[uN]	[N/m]	[um]	[um^2]	[MPa]	[MPa]
1198	1.000000	0.002284	7.37676e+06	-55689.1	1105.82	-29740.9	0.000000	0.000000	6.002788	-0.017375	NaN	0.000000	0.001595	0.001766	28.0827	0.065672	0.001024	64.142	117.703	-167.068	-0.055405	0.000995	-0.996600	-0.997890	-0.017375	64.142	-0.996397	-2.028896E+13	8.563597E-16	NaN
1198	1.000000	0.010254	7.37676e+06	-55689.1	1105.82	-29740.9	0.000000	0.000000	6.010760	0.035552	NaN	0.000000	0.001573	0.001723	28.0822	0.030813	0.000995	30.9704	127.294	-166.083	-0.060572	0.008947	-0.988631	-0.989937	0.035552	30.9704	-0.989492	-1.637822E+13	-2.170661E-15	NaN
1198	1.000000	0.018279	7.37676e+06	-55689.1	1105.82	-29740.9	0.000000	0.000000	6.018780	-0.068236	NaN	0.000000	0.001582	0.001715	28.0825	0.086944	0.001589	54.7036	165.632	-167.449	-0.017590	0.016928	-0.980606	-0.981956	-0.068236	54.7036	-0.979671	-1.207736E+13	5.649949E-15	NaN
1198	1.000000	0.026298	7.37676e+06	-55689.1	1105.82	-29740.9	0.000000	0.000000	6.026802	-0.011476	NaN	0.000000	0.001601	0.001723	28.0824	0.081518	0.001867	43.6534	-47.1213	-165.556	0.003944	0.024926	-0.972587	-0.973959	-0.011476	43.6534	-0.972390	-9.635331E+12	1.191044E-15	NaN
1198	1.000000	0.034236	7.37676e+06	-55689.1	1105.82	-29740.9	0.000000	0.000000	6.034739	-0.016081	NaN	0.000000	0.001583	0.001700	28.0824	0.113600	0.002002	56.7538	-86.6104	-168.245	0.030511	0.032930	-0.964649	-0.965955	-0.016081	56.7538	-0.964437	-7.527947E+12	2.136190E-15	NaN
1198	1.000000	0.042268	7.37676e+06	-55689.1	1105.82	-29740.9	0.000000	0.000000	6.042774	0.044251	NaN	0.000000	0.001595	0.001743	28.0828	0.032489	0.001871	17.3609	-65.0853	-164.772	0.045550	0.040985	-0.956617	-0.957900	0.044251	17.3609	-0.958529	-6.266659E+12	-7.061414E-15	NaN
1198	1.000000	0.050254	7.37676e+06	-55689.1	1105.82	-29740.9	0.000000	0.000000	6.050758	0.000468	NaN	0.000000	0.001606	0.001713	28.0826	0.074060	0.001828	40.5207	-100.839	-165.295	0.027621	0.048986	-0.948631	-0.949898	0.000468	40.5207	-0.948640	-4.609824E+12	-1.015965E-16	NaN
1198	1.000000	0.058236	7.37676e+06	-55689.1	1105.82	-29740.9	0.000000	0.000000	6.058739	-0.026108	NaN	0.000000	0.001584	0.001688	28.0831	0.116463	0.002017	57.7361	-153.943	-163.977	-0.029037	0.056917	-0.940649	-0.941968	-0.026108	57.7361	-0.940309	-3.558873E+12	7.335930E-15	NaN
1198	1.000000	0.066267	7.37676e+06	-55689.1	1105.82	-29740.9	0.000000	0.000000	6.066771	-0.017094	NaN	0.000000	0.001691	0.001632	28.0824	0.033832	0.002078	16.282	-152.134	-164.219	0.035342	0.064954	-0.932618	-0.933931	-0.017094	16.282	-0.931830	-2.734638E+12	6.251067E-15	NaN
1198	1.000000	0.074267	7.37676e+06	-55689.1	1105.82	-29740.9	0.000000	0.000000	6.074774	0.065100	NaN	0.000000	0.001649	0.001676	28.0823	0.029342	0.001887	15.5472	-157.651	-165.708	0.038019	0.072915	-0.924618	-0.925970	0.065100	15.5472	-0.927758	-2.409575E+12	-2.701705E-14	NaN
1198	1.000000	0.082265	7.37676e+06	-55689.1	1105.82	-29740.9	0.000000	0.000000	6.082769	0.009381	NaN	0.000000	0.001672	0.001700	28.0811	0.076985	0.002034	37.8558	-144.77	-162.929	0.068604	0.080976	-0.916620	-0.917908	0.009381	37.8558	-0.916806	-1.714271E+12	-5.472516E-15	NaN
1198	1.000000	0.090238	7.37676e+06	-55689.1	1105.82	-29740.9	0.000000	0.000000	6.090744	0.057270	NaN	0.000000	0.001629	0.001680	28.081	0.061336	0.001970	31.1356	-22.6413	-165.347	0.045302	0.088945	-0.908647	-0.909940	0.057270	31.1356	-0.910027	-1.388421E+12	-4.124807E-14	NaN
1198	1.000000	0.098273	7.37676e+06	-55689.1	1105.82	-29740.9	0.000000	0.000000	6.098777	-0.002645	NaN	0.000000	0.001671	0.001639	28.0819	0.142211	0.001927	73.782	72.8664	-167.037	-0.071743	0.096944	-0.900612	-0.901941	-0.002645	73.782	-0.900585	-1.035063E+12	2.555642E-15	NaN
1198	1.000000	0.106272	7.37676e+06	-55689.1	1105.82	-29740.9	0.000000	0.000000	6.106776	0.008513	NaN	0.000000	0.001693	0.001690	28.0811	0.082149	0.002162	38.0038	134.857	-161.305	0.072889	0.104977	-0.892613	-0.893908	0.008513	38.0038	-0.892781	-8.119106E+11	-1.048527E-14	NaN
1198	1.000000	0.114280	7.37676e+06	-55689.1	1105.82	-29740.9	0.000000	0.000000	6.114785	0.010189	NaN	0.000000	0.001632	0.001645	28.0811	0.048935	0.002026	24.1536	-18.8414	-162.574	0.067491	0.112967	-0.884605	-0.885918	0.010189	24.1536	-0.884921	-6.357025E+11	-1.602777E-14	NaN
1198	1.000000	0.122269	7.37676e+06	-55689.1	1105.82	-29740.9	0.000000	0.000000	6.122773	-0.003636	NaN	0.000000	0.001612	0.001660	28.081	0.041101	0.002061	19.9437	145.953	-165.895	0.032757	0.120947	-0.876616	-0.877938	-0.003636	19.9437	-0.876479	-4.887579E+11	7.439784E-15	NaN
1198	1.000000	0.130296	7.37676e+06	-55689.1	1105.82	-29740.9	0.000000	0.000000	6.130801	0.040107	NaN	0.000000	0.001599	0.001655	28.0809	0.070912	0.002096	33.8284	130.127	-167.317	-0.052303	0.128947	-0.868589	-0.869938	0.040107	33.8284	-0.869478	-3.929956E+11	-1.020539E-13	NaN
1198	1.000000	0.138255	7.37676e+06	-55689.1	1105.82	-29740.9	0.000000	0.000000	6.138759	0.009363	NaN	0.000000	0.001616	0.001654	28.0818	0.058093	0.001985	29.2612	-3.780683	-165.359	-0.007220	0.136994	-0.860630	-0.861891	0.009363	29.2612	-0.860870	-3.005374E+11	-3.115389E-14	NaN
1198	1.000000	0.146295	7.37676e+06	-55689.1	1105.82	-29740.9	0.000000	0.000000	6.146799	0.001916	NaN	0.000000	0.001639	0.001676	28.0809	0.022865	0.002079	10.9985	-85.1573	-161.706	0.017206	0.144987	-0.852590	-0.853898	0.001916	10.9985	-0.852720	-2.331168E+11	-8.217994E-15	NaN
1198	1.000000	0.154294	7.37676e+06	-55689.1	1105.82	-29740.9	0.000000	0.000000	6.154799	0.015419	NaN	0.000000	0.001588	0.001667	28.0812	0.102918	0.001990	51.7063	138.744	-165.688	-0.054318	0.152974	-0.844591	-0.845911	0.015419	51.7063	-0.844815	-1.821848E+11	-8.463169E-14	NaN
1198	1.000000	0.162291	7.37676e+06	-55689.1	1105.82	-29740.9	0.000000	0.000000	6.162794	-0.027630	NaN	0.000000	0.001567	0.001695	28.0811	0.048777	0.001968	24.7811	-122.174	-165.615	-0.067821	0.160988	-0.836594	-0.837896	-0.027630	24.7811	-0.835757	-1.373442E+11	2.011707E-13	NaN
1198	1.000000	0.170270	7.37676e+06	-55689.1	1105.82	-29740.9	0.000000	0.000000	6.170775	0.020330	NaN	0.000000	0.001575	0.001665	28.0811	0.040790	0.002036	20.0335	139.889	-163.404	0.049189	0.168958	-0.828615	-0.829927	0.020330	20.0335	-0.829376	-1.125464E+11	-1.806345E-13	NaN
1198	1.000000	0.178289	7.37676e+06	-55689.1	1105.82	-29740.9	0.000000	0.000000	6.178792	-0.030831	NaN	0.000000	0.001600	0.001685	28.0812	0.024017	0.001996	12.0338	-165.647	-166.208	-0.089089	0.176979	-0.820596	-0.821906	-0.030831	12.0338	-0.818674	-8.058064E+10	3.826113E-13	NaN
1198	1.000000	0.186293	7.37676e+06	-55689.1	1105.82	-29740.9	0.000000	0.000000	6.186796	-0.025025	NaN	0.000000	0.001562	0.001646	28.0811	0.092580	0.002039	45.4104	-163.133	-164.573	-0.010794	0.184966	-0.812592	-0.813919	-0.025025	45.4104	-0.812178	-6.578454E+10	3.804076E-13	NaN
1198	1.000000	0.194307	7.37676e+06	-55689.1	1105.82	-29740.9	0.000000	0.000000	6.194813	0.035388	NaN	0.000000	0.001543	0.001676	28.0814	0.031882	0.002050	15.5552	-55.1437	-162.84	0.016397	0.192981	-0.804578	-0.805904	0.035388	15.5552	-0.806284	-5.472057E+10	-6.466973E-13	NaN
1198	1.000000	0.202281	7.37676e+06	-55689.1	1105.82	-29740.9	0.000000	0.000000	6.202785	-0.018410	NaN	0.000000	0.001626	0.001626	28.0814	0.099100	0.001886	52.5592	-107.714	-168.831	-0.034516	0.201016	-0.796604	-0.797869	-0.018410	52.5592	-0.796341	-4.010409E+10	4.590442E-13	NaN
1198	1.000000	0.210315	7.37676e+06	-55689.1	1105.82	-29740.9	0.000000	0.000000	6.210818	-0.037458	NaN	0.000000	0.001608	0.001638	28.0812	0.066257	0.002044	32.4173	179.271	-165.268	-0.008576	0.209016	-0.788570	-0.789868	-0.037458	32.4173	-0.787703	-3.061147E+10	1.223652E-12	NaN
1198	1.000000	0.218323	7.37676e+06	-55689.1	1105.82	-29740.9	0.000000	0.000000	6.218828	0.022396	NaN	0.000000	0.001566	0.001635	28.0826	0.015382	0.001884	8.163080	-46.3263	-165.582	-0.045132	0.217065	-0.780562	-0.781820	0.022396	8.163080	-0.782619	-2.611100E+10	-8.577229E-13	NaN
1198	1.000000	0.226316	7.37676e+06	-55689.1	1105.82	-29740.9	0.000000	0.000000	6.226820	0.002596	NaN	0.000000	0.001565	0.001653	28.0824	0.035431	0.001997	17.7378	-54.9212	-164.523	-0.021665	0.224976	-0.772569	-0.773909	0.002596	17.7378	-0.772679	-1.913053E+10	-1.356914E-13	NaN
1198	1.000000	0.234313	7.37676e+06	-55689.1	1105.82	-29740.9	0.000000	0.000000	6.234821	0.093106	NaN	0.000000	0.001555	0.001665	28.0825	0.052913	0.002080	25.4376	149.115	-164.358	0.049283	0.233040	-0.764572	-0.765845	0.093106	25.4376	-0.767317	-1.617430E+10	-5.756388E-12	NaN
1198	1.000000	0.242320	7.37676e+06	-55689.1	1105.82	-29740.9	0.000000	0.000000	6.242825	0.016750	NaN	0.000000	0.001567	0.001680	28.0826	0.052591	0.001942	27.0788	-119.181	-159.559	0.049747	0.241024	-0.756564	-0.757861	0.016750	27.0788	-0.757028	-1.171852E+10	-1.429383E-12	NaN
1198	1.000000	0.250327	7.37676e+06	-55689.1	1105.82	-29740.9	0.000000	0.000000	6.250831	-0.007313	NaN	0.000000	0.001595	0.001616	28.0829	0.097327	0.002044	47.6104	-155.833	-162.372	0.009633	0.248972	-0.748557	-0.749912	-0.007313	47.6104	-0.748442	-8.953933E+9	8.167212E-13	NaN
1198	1.000000	0.258342	7.37676e+06	-55689.1	1105.82	-29740.9	0.000000	0.000000	6.258845	-0.034858	NaN	0.000000	0.001611	0.001658	28.0824	0.030146	0.002066	14.5912	-64.2586	-166.958	-0.074265	0.257016	-0.740542	-0.741869	-0.034858	14.5912	-0.738751	-6.607546E+9	5.275498E-12	NaN
1198	1.000000	0.266335	7.37676e+06	-55689.1	1105.82	-29740.9	0.000000	0.000000	6.266838	-0.033877	NaN	0.000000	0.001569	0.001674	28.0827	0.025217	0.001930	13.0647	-166.97	-162.229	-0.027024	0.264978	-0.732550	-0.733907	-0.033877	13.0647	-0.730605	-5.117468E+9	6.619784E-12	NaN
1198	1.000000	0.274341	7.37676e+06	-55689.1	1105.82	-29740.9	0.000000	0.000000	6.274841	-0.107561	NaN	0.000000	0.001638	0.001680	28.0826	0.048738	0.002029	24.0261	119.21	-165.597	-0.085520	0.273014	-0.724544	-0.725871	-0.107561	24.0261	-0.721186	-3.807557E+9	2.824939E-11	NaN
1198	1.000000	0.282319	7.37676e+06	-55689.1	1105.82	-29740.9	0.000000	0.000000	6.282820	-0.074020	NaN	0.000000	0.001595	0.001666	28.0827	0.082575	0.002000	41.2858	-13.6987	-161.769	0.001157	0.280999	-0.716566	-0.717886	-0.074020	41.2858	-0.715221	-3.157116E+9	2.344546E-11	NaN
1198	1.000000	0.290368	7.37676e+06	-55689.1	1105.82	-29740.9	0.000000	0.000000	6.290871	-0.027389	NaN	0.000000	0.001586	0.001648	28.0828	0.112869	0.002022	55.8243	-152.095	-165.384	-0.027450	0.289018	-0.708517	-0.709867	-0.027389	55.8243	-0.708149	-2.528042E+9	1.083401E-11	NaN
1198	1.000000	0.298350	7.37676e+06	-55689.1	1105.82	-29740.9	0.000000	0.000000	6.298853	-0.040521	NaN	0.000000	0.001602	0.001643	28.0826	0.105216	0.001984	53.0204	169.514	-165.977	0.004454	0.297048	-0.700534	-0.701837	-0.040521	53.0204	-0.699961	-1.954341E+9	2.073374E-11	NaN
1198	1.000000	0.306348	7.37676e+06	-55689.1	1105.82	-29740.9	0.000000	0.000000	6.306850	-0.044539	NaN	0.000000	0.001615	0.001672	28.083	0.038510	0.002016	19.0974	3.296378	-167.376	-0.037217	0.305042	-0.692537	-0.693842	-0.044539	19.0974	-0.690788	-1.464497E+9	3.041238E-11	NaN
1198	1.000000	0.314365	7.37676e+06	-55689.1	1105.82	-29740.9	0.000000	0.000000	6.314866	-0.067820	NaN	0.000000	0.001606	0.001661	28.0826	0.049263	0.001978	24.9079	-118.595	-166.188	-0.100922	0.313023	-0.684520	-0.685862	-0.067820	24.9079	-0.682478	-1.127433E+9	6.015390E-11	NaN
1198	1.000000	0.322364	7.37676e+06	-55689.1	1105.82	-29740.9	0.000000	0.000000	6.322867	-0.020946	NaN	0.000000	0.001596	0.001699	28.0824	0.069356	0.002104	32.9686	-15.0453	-163.411	0.033136	0.321058	-0.676521	-0.677827	-0.020946	32.9686	-0.676045	-9.206675E+8	2.275132E-11	NaN
1198	1.000000	0.330377	7.37676e+06	-55689.1	1105.82	-29740.9	0.000000	0.000000	6.330882	0.009922	NaN	0.000000	0.001589	0.001688	28.0825	0.061600	0.001943	31.7088	-34.8319	-165.226	0.017388	0.328986	-0.668507	-0.669899	0.009922	31.7088	-0.668742	-7.314311E+8	-1.356526E-11	NaN
1198	1.000000	0.338376	7.37676e+06	-55689.1	1105.82	-29740.9	0.000000	0.000000	6.338882	0.040912	NaN	0.000000	0.001617	0.001749	28.0825	0.101950	0.002070	49.2485	-108.061	-165.843	0.102626	0.337103	-0.660508	-0.661782	0.040912	49.2485	-0.661132	-5.753964E+8	-7.110181E-11	NaN
1198	1.000000	0.346369	7.37676e+06	-55689.1	1105.82	-29740.9	0.000000	0.000000	6.346872	-0.018302	NaN	0.000000	0.001632	0.001684	28.0831	0.058946	0.001906	30.9273	-153.194	-163.63	-0.029217	0.344998	-0.652516	-0.653887	-0.018302	30.9273	-0.652072	-4.323559E+8	4.233134E-11	NaN
1198	1.000000	0.354356	7.37676e+06	-55689.1	1105.82	-29740.9	0.000000	0.000000	6.354863	0.050295	NaN	0.000000	0.001613	0.001690	28.0808	0.159005	0.002014	78.9403	46.0233	-165.934	0.130872	0.352998	-0.644529	-0.645887	0.050295	78.9403	-0.645006	-3.459121E+8	-1.453985E-10	NaN
1198	1.000000	0.362370	7.37676e+06	-55689.1	1105.82	-29740.9	0.000000	0.000000	6.362872	-0.047894	NaN	0.000000	0.001601	0.001665	28.0811	0.083910	0.001994	42.0763	51.8352	-167.91	-0.115940	0.361039	-0.636515	-0.637846	-0.047894	42.0763	-0.635661	-2.574812E+8	1.860108E-10	NaN
1198	1.000000	0.370398	7.37676e+06	-55689.1	1105.82	-29740.9	0.000000	0.000000	6.370899	-0.074728	NaN	0.000000	0.001632	0.001671	28.0812	0.075393	0.002058	36.6368	17.0344	-165.515	-0.056748	0.369050	-0.628487	-0.629835	-0.074728	36.6368	-0.626957	-1.955375E+8	3.821659E-10	NaN
1198	1.000000	0.378385	7.37676e+06	-55689.1	1105.82	-29740.9	0.000000	0.000000	6.378887	-0.052528	NaN	0.000000	0.001618	0.001649	28.0811	0.089519	0.001931	46.3483	-177.332	-164.87	-0.009906	0.377056	-0.620500	-0.621829	-0.052528	46.3483	-0.619650	-1.551737E+8	3.385087E-10	NaN
1198	1.000000	0.386382	7.37676e+06	-55689.1	1105.82	-29740.9	0.000000	0.000000	6.386886	-0.012583	NaN	0.000000	0.001575	0.001654	28.0811	0.066028	0.002070	31.8951	-10.5084	-165.279	-0.005114	0.385074	-0.612502	-0.613810	-0.012583	31.8951	-0.612206	-1.225937E+8	1.026433E-10	NaN
1198	1.000000	0.394371	7.37676e+06	-55689.1	1105.82	-29740.9	0.000000	0.000000	6.394876	0.023627	NaN	0.000000	0.001622	0.001644	28.081	0.096866	0.002130	45.4833	-135.946	-161.731	0.022675	0.393059	-0.604514	-0.605825	0.023627	45.4833	-0.604904	-9.726959E+7	-2.429025E-10	NaN
1198	1.000000	0.402385	7.37676e+06	-55689.1	1105.82	-29740.9	0.000000	0.000000	6.402888	-0.029658	NaN	0.000000	0.001598	0.001690	28.0812	0.026528	0.002080	12.7567	-54.1528	-163.976	-0.079461	0.401021	-0.596500	-0.597864	-0.029658	12.7567	-0.594756	-7.050508E+7	4.206444E-10	NaN
1198	1.000000	0.410386	7.37676e+06	-55689.1	1105.82	-29740.9	0.000000	0.000000	6.410886	-0.087522	NaN	0.000000	0.001592	0.001702	28.0811	0.108337	0.002055	52.7244	-136.457	-165.172	-0.039310	0.409081	-0.588499	-0.589804	-0.087522	52.7244	-0.587254	-5.556531E+7	1.575127E-9	NaN
1198	1.000000	0.418403	7.37676e+06	-55689.1	1105.82	-29740.9	0.000000	0.000000	6.418906	-0.033207	NaN	0.000000	0.001550	0.001675	28.0813	0.097031	0.001977	49.0852	-44.1563	-168.585	-0.077658	0.417115	-0.580482	-0.581770	-0.033207	49.0852	-0.579974	-4.409288E+7	7.531248E-10	NaN
1198	1.000000	0.426433	7.37676e+06	-55689.1	1105.82	-29740.9	0.000000	0.000000	6.426940	0.080245	NaN	0.000000	0.001611	0.001692	28.0812	0.021381	0.001954	10.9428	-99.7222	-167.101	-0.020923	0.425059	-0.572452	-0.573826	0.080245	10.9428	-0.577952	-4.134811E+7	-1.940728E-9	NaN
1198	1.000000	0.434374	7.37676e+06	-55689.1	1105.82	-29740.9	0.000000	0.000000	6.434876	-0.057177	NaN	0.000000	0.001567	0.001734	28.0813	0.056911	0.001974	28.8361	56.1978	-168.255	0.043077	0.433082	-0.564510	-0.565803	-0.057177	28.8361	-0.563023	-2.571546E+7	2.223460E-9	NaN
1198	1.000000	0.442415	7.37676e+06	-55689.1	1105.82	-29740.9	0.000000	0.000000	6.442918	-0.034753	NaN	0.000000	0.001566	0.001697	28.0816	0.088818	0.001924	46.1637	170.246	-161.815	-0.032419	0.441123	-0.556470	-0.557762	-0.034753	46.1637	-0.555905	-2.049828E+7	1.695427E-9	NaN
1198	1.000000	0.450414	7.37676e+06	-55689.1	1105.82	-29740.9	0.000000	0.000000	6.450917	-0.020623	NaN	0.000000	0.001546	0.001666	28.0815	0.023516	0.001941	12.1161	-17.9151	-167.488	0.035302	0.449100	-0.548471	-0.549784	-0.020623	12.1161	-0.547195	-1.552719E+7	1.328191E-9	NaN
1198	1.000000	0.458395	7.37676e+06	-55689.1	1105.82	-29740.9	0.000000	0.000000	6.458899	0.008629	NaN	0.000000	0.001549	0.001667	28.0813	0.041653	0.001926	21.6289	-37.8104	-164.42	-0.037231	0.457091	-0.540490	-0.541794	0.008629	21.6289	-0.540789	-1.265621E+7	-6.817883E-10	NaN
1198	1.000000	0.466422	7.37676e+06	-55689.1	1105.82	-29740.9	0.000000	0.000000	6.466927	0.029108	NaN	0.000000	0.001599	0.001652	28.0812	0.072013	0.001845	39.0361	-70.0657	-164.701	-0.017176	0.465092	-0.532463	-0.533793	0.029108	39.0361	-0.533022	-9.87506e+06	-2.947663E-9	NaN
1198	1.000000	0.474418	7.37676e+06	-55689.1	1105.82	-29740.9	0.000000	0.000000	6.474921	-0.039407	NaN	0.000000	0.001590	0.001660	28.0812	0.020725	0.002013	10.2963	-117.007	-165.226	-0.012005	0.473072	-0.524467	-0.525813	-0.039407	10.2963	-0.521596	-6.85161e+06	5.751484E-9	NaN
1198	1.000000	0.482426	7.37676e+06	-55689.1	1105.82	-29740.9	0.000000	0.000000	6.482928	-0.051635	NaN	0.000000	0.001541	0.001664	28.0813	0.039922	0.001950	20.4709	-86.9443	-166.741	-0.062779	0.481114	-0.516459	-0.517771	-0.051635	20.4709	-0.514567	-5.47025e+06	9.439237E-9	NaN
1198	1.000000	0.490466	7.37676e+06	-55689.1	1105.82	-29740.9	0.000000	0.000000	6.490969	-0.023996	NaN	0.000000	0.001545	0.001696	28.0827	0.096072	0.001950	49.2564	78.8043	-165.465	0.033789	0.489105	-0.508419	-0.509780	-0.023996	49.2564	-0.508053	-4.43914e+06	5.405669E-9	NaN
1198	1.000000	0.498452	7.37676e+06	-55689.1	1105.82	-29740.9	0.000000	0.000000	6.498954	-0.049156	NaN	0.000000	0.001515	0.001678	28.0828	0.023111	0.002075	11.1372	-154.132	-166.221	0.074388	0.497125	-0.500433	-0.501760	-0.049156	11.1372	-0.497123	-3.12511e+06	1.572950E-8	NaN
1198	1.000000	0.506428	7.37676e+06	-55689.1	1105.82	-29740.9	0.000000	0.000000	6.506931	-0.030659	NaN	0.000000	0.001535	0.001679	28.0827	0.062464	0.002017	30.9692	-113.119	-166.421	-0.008261	0.505082	-0.492457	-0.493803	-0.030659	30.9692	-0.491715	-2.62633e+06	1.167363E-8	NaN
1198	1.000000	0.514453	7.37676e+06	-55689.1	1105.82	-29740.9	0.000000	0.000000	6.514956	-0.030964	NaN	0.000000	0.001553	0.001689	28.083	0.065831	0.001950	33.7571	-140.469	-166.693	-0.033361	0.513101	-0.484432	-0.485784	-0.030964	33.7571	-0.483744	-2.03198e+06	1.523827E-8	NaN
1198	1.000000	0.522454	7.37676e+06	-55689.1	1105.82	-29740.9	0.000000	0.000000	6.522959	0.027039	NaN	0.000000	0.001589	0.001655	28.0825	0.070507	0.001880	37.5016	59.909	-165.016	0.063104	0.521162	-0.476431	-0.477722	0.027039	37.5016	-0.476971	-1.6335e+06	-1.655294E-8	NaN
1198	1.000000	0.530439	7.37676e+06	-55689.1	1105.82	-29740.9	0.000000	0.000000	6.530944	0.017272	NaN	0.000000	0.001574	0.001673	28.0824	0.008379	0.001974	4.245105	158.677	-164.594	0.034096	0.529088	-0.468446	-0.469797	0.017272	4.245105	-0.471497	-1.36899e+06	-1.261632E-8	NaN
1198	1.000000	0.538464	7.37676e+06	-55689.1	1105.82	-29740.9	0.000000	0.000000	6.538966	-0.057536	NaN	0.000000	0.001566	0.001668	28.0829	0.061209	0.002081	29.4097	160.189	-160.391	-0.045535	0.537134	-0.460421	-0.461751	-0.057536	29.4097	-0.458954	-912663	6.304180E-8	NaN
1198	1.000000	0.546433	7.37676e+06	-55689.1	1105.82	-29740.9	0.000000	0.000000	6.546938	0.022431	NaN	0.000000	0.001582	0.001663	28.0823	0.087170	0.002033	42.8737	105.02	-163.26	0.016471	0.545128	-0.452452	-0.453756	0.022431	42.8737	-0.452845	-748842	-2.995365E-8	NaN
1198	1.000000	0.554475	7.37676e+06	-55689.1	1105.82	-29740.9	0.000000	0.000000	6.554974	-0.122706	NaN	0.000000	0.001600	0.001655	28.0827	0.041794	0.001819	22.9793	55.1996	-162.86	-0.092040	0.553099	-0.444410	-0.445786	-0.122706	22.9793	-0.440405	-500122	2.453517E-7	NaN
1198	1.000000	0.562472	7.37676e+06	-55689.1	1105.82	-29740.9	0.000000	0.000000	6.562980	0.081628	NaN	0.000000	0.001562	0.001648	28.0825	0.006340	0.002037	3.112360	134.679	-163.517	0.074194	0.561214	-0.436413	-0.437671	0.081628	3.112360	-0.456083	-831664	-9.814997E-8	NaN
1198	1.000000	0.570469	7.37676e+06	-55689.1	1105.82	-29740.9	0.000000	0.000000	6.570972	-0.032312	NaN	0.000000	0.001555	0.001668	28.0822	0.136120	0.002009	67.7524	-67.9444	-164.57	0.029684	0.569158	-0.428416	-0.429727	-0.032312	67.7524	-0.428058	-334646	9.655444E-8	NaN
1198	1.000000	0.578451	7.37676e+06	-55689.1	1105.82	-29740.9	0.000000	0.000000	6.578956	0.009835	NaN	0.000000	0.001545	0.001681	28.0824	0.095146	0.002072	45.9108	154.65	-162.709	0.065247	0.577157	-0.420434	-0.421728	0.009835	45.9108	-0.420594	-262327	-3.749150E-8	NaN
1198	1.000000	0.586461	7.37676e+06	-55689.1	1105.82	-29740.9	0.000000	0.000000	6.586964	-0.049268	NaN	0.000000	0.001586	0.001662	28.0823	0.114472	0.002010	56.9466	-164.927	-164.048	0.010124	0.585134	-0.412423	-0.413751	-0.049268	56.9466	-0.411775	-196621	2.505714E-7	NaN
1198	1.000000	0.594483	7.37676e+06	-55689.1	1105.82	-29740.9	0.000000	0.000000	6.594987	-0.005470	NaN	0.000000	0.001572	0.001643	28.0828	0.143096	0.002017	70.9543	-75.1792	-164.847	0.009449	0.593133	-0.404402	-0.405752	-0.005470	70.9543	-0.404344	-154137	3.549028E-8	NaN
1198	1.000000	0.602477	7.37676e+06	-55689.1	1105.82	-29740.9	0.000000	0.000000	6.602979	-0.039964	NaN	0.000000	0.001543	0.001658	28.0822	0.108687	0.002030	53.5446	47.14	-168.92	0.008716	0.601175	-0.396408	-0.397710	-0.039964	53.5446	-0.395848	-116613	3.427060E-7	NaN
1198	1.000000	0.610473	7.37676e+06	-55689.1	1105.82	-29740.9	0.000000	0.000000	6.610976	-0.049258	NaN	0.000000	0.001558	0.001647	28.0822	0.011128	0.002006	5.546627	-145.776	-166.481	-0.027967	0.609172	-0.388411	-0.389713	-0.049258	5.546627	-0.381751	-73284.2	6.721458E-7	NaN
1198	1.000000	0.618474	7.37676e+06	-55689.1	1105.82	-29740.9	0.000000	0.000000	6.618980	0.026971	NaN	0.000000	0.001579	0.001669	28.0822	0.068514	0.001937	35.3681	-162.45	-163.743	0.000220	0.617136	-0.380410	-0.381749	0.026971	35.3681	-0.380982	-71446.9	-3.774961E-7	NaN
1198	1.000000	0.626494	7.37676e+06	-55689.1	1105.82	-29740.9	0.000000	0.000000	6.626997	-0.012344	NaN	0.000000	0.001557	0.001700	28.081	0.036728	0.001973	18.6129	-41.2667	-164.955	-0.082305	0.625134	-0.372391	-0.373751	-0.012344	18.6129	-0.371894	-52892.1	2.333735E-7	NaN
1198	1.000000	0.634509	7.37676e+06	-55689.1	1105.82	-29740.9	0.000000	0.000000	6.635012	-0.025558	NaN	0.000000	0.001557	0.001689	28.0816	0.075090	0.001979	37.9514	-159.804	-163.09	-0.011448	0.633148	-0.364376	-0.365736	-0.025558	37.9514	-0.363870	-40527.8	6.306407E-7	NaN
1198	1.000000	0.642466	7.37676e+06	-55689.1	1105.82	-29740.9	0.000000	0.000000	6.642968	-0.047061	NaN	0.000000	0.001567	0.001685	28.0806	0.097402	0.001831	53.2001	-54.2316	-166.211	-0.031757	0.641187	-0.356419	-0.357698	-0.047061	53.2001	-0.355755	-30933.8	1.521350E-6	NaN
1198	1.000000	0.650510	7.37676e+06	-55689.1	1105.82	-29740.9	0.000000	0.000000	6.651014	-0.001877	NaN	0.000000	0.001556	0.001675	28.081	0.082118	0.001903	43.1574	129.731	-162.011	-0.009080	0.649126	-0.348375	-0.349759	-0.001877	43.1574	-0.348342	-24151	7.771756E-8	NaN
1198	1.000000	0.658515	7.37676e+06	-55689.1	1105.82	-29740.9	0.000000	0.000000	6.659021	0.034909	NaN	0.000000	0.001579	0.001674	28.0811	0.053322	0.002070	25.7571	-29.1574	-168.396	0.089274	0.657186	-0.340370	-0.341699	0.034909	25.7571	-0.341386	-19131.6	-1.824668E-6	NaN
1198	1.000000	0.666467	7.37676e+06	-55689.1	1105.82	-29740.9	0.000000	0.000000	6.666968	-0.065522	NaN	0.000000	0.001575	0.001669	28.081	0.047103	0.001941	24.2706	137.11	-164.589	-0.130714	0.665179	-0.332418	-0.333706	-0.065522	24.2706	-0.330393	-13219.3	4.956503E-6	NaN
1198	1.000000	0.674514	7.37676e+06	-55689.1	1105.82	-29740.9	0.000000	0.000000	6.675018	-0.012653	NaN	0.000000	0.001534	0.001677	28.0812	0.163836	0.001931	84.8415	86.4416	-161.735	-0.005945	0.673213	-0.324370	-0.325672	-0.012653	84.8415	-0.324259	-10746.1	1.177500E-6	NaN
1198	1.000000	0.682485	7.37676e+06	-55689.1	1105.82	-29740.9	0.000000	0.000000	6.682989	-0.010084	NaN	0.000000	0.001561	0.001680	28.081	0.037071	0.002078	17.839	163.67	-166.093	-0.018518	0.681180	-0.316400	-0.317705	-0.010084	17.839	-0.315976	-8116.06	1.242510E-6	NaN
1198	1.000000	0.690518	7.37676e+06	-55689.1	1105.82	-29740.9	0.000000	0.000000	6.691023	0.018383	NaN	0.000000	0.001541	0.001684	28.0813	0.079002	0.001992	39.6523	-153.854	-164.28	0.061625	0.689200	-0.308367	-0.309684	0.018383	39.6523	-0.308714	-6339.06	-2.900006E-6	NaN
1198	1.000000	0.698503	7.37676e+06	-55689.1	1105.82	-29740.9	0.000000	0.000000	6.699008	0.004452	NaN	0.000000	0.001538	0.001653	28.0813	0.046967	0.001987	23.6358	148.268	-165.651	0.058342	0.697217	-0.300382	-0.301668	0.004452	23.6358	-0.300523	-4790.93	-9.293597E-7	NaN
1198	1.000000	0.706546	7.37676e+06	-55689.1	1105.82	-29740.9	0.000000	0.000000	6.707050	-0.004457	NaN	0.000000	0.001531	0.001710	28.0812	0.016398	0.001977	8.292567	135.11	-163.732	-0.019059	0.705192	-0.292339	-0.293693	-0.004457	8.292567	-0.291936	-3566.82	1.249499E-6	NaN
1198	1.000000	0.714516	7.37676e+06	-55689.1	1105.82	-29740.9	0.000000	0.000000	6.715022	0.043950	NaN	0.000000	0.001556	0.001651	28.081	0.041906	0.002036	20.5863	-119.98	-165.43	-0.013619	0.713224	-0.284369	-0.285661	0.043950	20.5863	-0.285970	-2902.99	-1.513969E-5	NaN
1198	1.000000	0.722521	7.37676e+06	-55689.1	1105.82	-29740.9	0.000000	0.000000	6.723024	-0.013719	NaN	0.000000	0.001602	0.001625	28.0813	0.098888	0.002011	49.1688	-101.681	-164.303	0.014677	0.721274	-0.276364	-0.277611	-0.013719	49.1688	-0.276155	-2064.81	6.644001E-6	NaN
1198	1.000000	0.730529	7.37676e+06	-55689.1	1105.82	-29740.9	0.000000	0.000000	6.731036	0.065600	NaN	0.000000	0.001571	0.001657	28.0817	0.015574	0.001991	7.821880	-108.588	-162.554	0.028607	0.729207	-0.268356	-0.269677	0.065600	7.821880	-0.274646	-1959.03	-3.348616E-5	NaN
1198	1.000000	0.738544	7.37676e+06	-55689.1	1105.82	-29740.9	0.000000	0.000000	6.739050	0.025479	NaN	0.000000	0.001545	0.001659	28.0814	0.044792	0.001956	22.9012	105.768	-167.224	-0.044047	0.737266	-0.260340	-0.261619	0.025479	22.9012	-0.261175	-1221.56	-2.085791E-5	NaN
1198	1.000000	0.746532	7.37676e+06	-55689.1	1105.82	-29740.9	0.000000	0.000000	6.747034	-0.039421	NaN	0.000000	0.001558	0.001679	28.0814	0.112583	0.001914	58.8289	19.8424	-166.346	-0.075781	0.745224	-0.252353	-0.253660	-0.039421	58.8289	-0.251851	-878.138	4.489150E-5	NaN
1198	1.000000	0.754538	7.37676e+06	-55689.1	1105.82	-29740.9	0.000000	0.000000	6.755042	-0.008435	NaN	0.000000	0.001526	0.001672	28.081	0.014409	0.001956	7.364979	-71.0052	-166.401	0.002792	0.753237	-0.244347	-0.245648	-0.008435	7.364979	-0.243488	-651.532	1.294714E-5	NaN
1198	1.000000	0.762548	7.37676e+06	-55689.1	1105.82	-29740.9	0.000000	0.000000	6.763053	0.034602	NaN	0.000000	0.001552	0.001716	28.0822	0.052160	0.002080	25.0745	-103.902	-163.813	0.031566	0.761209	-0.236337	-0.237675	0.034602	25.0745	-0.237372	-522.938	-6.616871E-5	NaN
1198	1.000000	0.770572	7.37676e+06	-55689.1	1105.82	-29740.9	0.000000	0.000000	6.771076	0.002353	NaN	0.000000	0.001506	0.001678	28.0827	0.130010	0.002038	63.7912	76.7814	-164.646	-0.005055	0.769221	-0.228313	-0.229664	0.002353	63.7912	-0.228340	-376.951	-6.242361E-6	NaN
1198	1.000000	0.778566	7.37676e+06	-55689.1	1105.82	-29740.9	0.000000	0.000000	6.779071	0.006246	NaN	0.000000	0.001523	0.001712	28.0826	0.093438	0.002064	45.2748	-65.0764	-164.904	0.017133	0.777167	-0.220319	-0.221717	0.006246	45.2748	-0.220422	-282.112	-2.214191E-5	NaN
1198	1.000000	0.786554	7.37676e+06	-55689.1	1105.82	-29740.9	0.000000	0.000000	6.787056	-0.060216	NaN	0.000000	0.001513	0.001692	28.0827	0.053629	0.002196	24.421	-70.0067	-168.634	-0.148195	0.785259	-0.212330	-0.213626	-0.060216	24.421	-0.210481	-195.257	0.000308	NaN
1198	1.000000	0.794564	7.37676e+06	-55689.1	1105.82	-29740.9	0.000000	0.000000	6.795071	0.054599	NaN	0.000000	0.001547	0.001661	28.0823	0.029849	0.002019	14.7855	-12.4975	-164.618	0.026540	0.793267	-0.204320	-0.205618	0.054599	14.7855	-0.207090	-172.026	-0.000317	NaN
1198	1.000000	0.802521	7.37676e+06	-55689.1	1105.82	-29740.9	0.000000	0.000000	6.803024	-0.023469	NaN	0.000000	0.001543	0.001690	28.0825	0.068478	0.001962	34.9082	-29.3688	-163.822	-0.074004	0.801247	-0.196364	-0.197638	-0.023469	34.9082	-0.195860	-112.573	0.000208	NaN
1198	1.000000	0.810584	7.37676e+06	-55689.1	1105.82	-29740.9	0.000000	0.000000	6.811090	0.034458	NaN	0.000000	0.001547	0.001661	28.0824	0.113893	0.001906	59.7497	-50.3323	-166.094	0.015533	0.809304	-0.188301	-0.189581	0.034458	59.7497	-0.188733	-85.6728	-0.000402	NaN
1198	1.000000	0.818569	7.37676e+06	-55689.1	1105.82	-29740.9	0.000000	0.000000	6.819072	-0.029089	NaN	0.000000	0.001533	0.001710	28.0826	0.074815	0.002098	35.6528	-175.859	-168.437	-0.086048	0.817325	-0.180316	-0.181560	-0.029089	35.6528	-0.179704	-60.3148	0.000482	NaN
1198	1.000000	0.826558	7.37676e+06	-55689.1	1105.82	-29740.9	0.000000	0.000000	6.827063	0.024067	NaN	0.000000	0.001534	0.001662	28.0826	0.042810	0.001955	21.9026	-75.3883	-167.798	0.044180	0.825266	-0.172327	-0.173619	0.024067	21.9026	-0.173151	-46.5739	-0.000517	NaN
1198	1.000000	0.834564	7.37676e+06	-55689.1	1105.82	-29740.9	0.000000	0.000000	6.835069	0.025501	NaN	0.000000	0.001558	0.001645	28.0823	0.070253	0.001938	36.2502	172.949	-162.129	-0.027018	0.833242	-0.164321	-0.165643	0.025501	36.2502	-0.164848	-33.3918	-0.000764	NaN
1198	1.000000	0.842570	7.37676e+06	-55689.1	1105.82	-29740.9	0.000000	0.000000	6.843077	0.065087	NaN	0.000000	0.001525	0.001688	28.0826	0.064491	0.001906	33.8442	-105.556	-160.886	-0.027936	0.841280	-0.156315	-0.157604	0.065087	33.8442	-0.157758	-25.0051	-0.002603	NaN
1198	1.000000	0.850581	7.37676e+06	-55689.1	1105.82	-29740.9	0.000000	0.000000	6.851085	-0.023636	NaN	0.000000	0.001564	0.001674	28.0822	0.084063	0.001889	44.5065	126.346	-165.798	-0.053968	0.849307	-0.148304	-0.149578	-0.023636	44.5065	-0.147905	-16.584	0.001425	NaN
1198	1.000000	0.858609	7.37676e+06	-55689.1	1105.82	-29740.9	0.000000	0.000000	6.859115	0.028801	NaN	0.000000	0.001577	0.001696	28.0824	0.080576	0.002053	39.2568	-119.685	-168.459	0.037197	0.857295	-0.140276	-0.141590	0.028801	39.2568	-0.140826	-12.2591	-0.002349	NaN
1198	1.000000	0.866582	7.37676e+06	-55689.1	1105.82	-29740.9	0.000000	0.000000	6.867086	-0.010324	NaN	0.000000	0.001614	0.001683	28.0825	0.052694	0.001951	27.0104	163.603	-170.171	0.043946	0.865227	-0.132303	-0.133658	-0.010324	27.0104	-0.132016	-8.337437	0.001238	NaN
1198	1.000000	0.874583	7.37676e+06	-55689.1	1105.82	-29740.9	0.000000	0.000000	6.875086	-0.033484	NaN	0.000000	0.001594	0.001646	28.0822	0.101226	0.001975	51.2559	167.198	-162.913	-0.091021	0.873271	-0.124302	-0.125614	-0.033484	51.2559	-0.123812	-5.760025	0.005813	NaN
1198	1.000000	0.882596	7.37676e+06	-55689.1	1105.82	-29740.9	0.000000	0.000000	6.883098	-0.046922	NaN	0.000000	0.001556	0.001689	28.0824	0.089781	0.002047	43.8527	-95.6434	-164.549	-0.001319	0.881268	-0.116289	-0.117617	-0.046922	43.8527	-0.115486	-3.909467	0.012002	NaN
1198	1.000000	0.890566	7.37676e+06	-55689.1	1105.82	-29740.9	0.000000	0.000000	6.891073	0.048795	NaN	0.000000	0.001584	0.001669	28.0824	0.026181	0.001821	14.3803	128.368	-165.518	-0.010616	0.889286	-0.108319	-0.109599	0.048795	14.3803	-0.110863	-3.133598	-0.015572	NaN
1198	1.000000	0.898587	7.37676e+06	-55689.1	1105.82	-29740.9	0.000000	0.000000	6.899093	0.031417	NaN	0.000000	0.001609	0.001658	28.0816	0.101254	0.001915	52.8816	78.8579	-164.692	0.038799	0.897308	-0.100297	-0.101577	0.031417	52.8816	-0.100743	-1.897632	-0.016556	NaN
1198	1.000000	0.906612	7.37676e+06	-55689.1	1105.82	-29740.9	0.000000	0.000000	6.907117	0.008820	NaN	0.000000	0.001526	0.001658	28.0812	0.058290	0.002197	26.535	88.5523	-165.144	0.113088	0.905332	-0.092273	-0.093553	0.008820	26.535	-0.092522	-1.237497	-0.007127	NaN
1198	1.000000	0.914616	7.37676e+06	-55689.1	1105.82	-29740.9	0.000000	0.000000	6.915122	0.039866	NaN	0.000000	0.001555	0.001648	28.081	0.073672	0.001894	38.9014	158.667	-165.675	0.033707	0.913307	-0.084269	-0.085578	0.039866	38.9014	-0.085038	-0.823359	-0.048419	NaN
1198	1.000000	0.922609	7.37676e+06	-55689.1	1105.82	-29740.9	0.000000	0.000000	6.923110	-0.074722	NaN	0.000000	0.001553	0.001674	28.0811	0.068311	0.002097	32.5777	56.5184	-164.852	-0.049335	0.921280	-0.076276	-0.077605	-0.074722	32.5777	-0.074556	-0.449792	0.166125	NaN
1198	1.000000	0.930603	7.37676e+06	-55689.1	1105.82	-29740.9	0.000000	0.000000	6.931108	0.011949	NaN	0.000000	0.001613	0.001645	28.081	0.032533	0.002039	15.9543	-57.2651	-167.107	0.097536	0.929356	-0.068282	-0.069529	0.011949	15.9543	-0.068844	-0.317532	-0.037631	NaN
1198	1.000000	0.938623	7.37676e+06	-55689.1	1105.82	-29740.9	0.000000	0.000000	6.939128	0.014958	NaN	0.000000	0.001595	0.001625	28.0811	0.072720	0.001996	36.4353	-146.452	-164.998	0.124959	0.937231	-0.060262	-0.061654	0.014958	36.4353	-0.060570	-0.186989	-0.079995	NaN
1198	1.000000	0.946630	7.37676e+06	-55689.1	1105.82	-29740.9	0.000000	0.000000	6.947135	0.017258	NaN	0.000000	0.001549	0.001652	28.081	0.066216	0.002063	32.0899	101.525	-164.521	0.019333	0.945283	-0.052255	-0.053602	0.017258	32.0899	-0.052658	-0.109700	-0.157319	NaN
1198	1.000000	0.954653	7.37676e+06	-55689.1	1105.82	-29740.9	0.000000	0.000000	6.955159	0.036522	NaN	0.000000	0.001534	0.001642	28.081	0.187417	0.002061	90.9162	-54.3473	-164.102	-0.046475	0.953314	-0.044232	-0.045571	0.036522	90.9162	-0.044533	-0.062190	-0.587263	NaN
1198	1.000000	0.962602	7.37676e+06	-55689.1	1105.82	-29740.9	0.000000	0.000000	6.963106	0.011580	NaN	0.000000	0.001562	0.001652	28.0813	0.087172	0.001909	45.6709	35.325	-165.077	-0.047527	0.961330	-0.036283	-0.037555	0.011580	45.6709	-0.036473	-0.035411	-0.327001	NaN
1198	1.000000	0.970623	7.37676e+06	-55689.1	1105.82	-29740.9	0.000000	0.000000	6.971126	-0.026928	NaN	0.000000	0.001550	0.001638	28.0809	0.043125	0.001814	23.7674	141.11	-164.111	0.004168	0.969313	-0.028262	-0.029572	-0.026928	23.7674	-0.027412	-0.019547	1.377639	NaN
1198	1.000000	0.978637	7.37676e+06	-55689.1	1105.82	-29740.9	0.000000	0.000000	6.979141	-0.020254	NaN	0.000000	0.001514	0.001683	28.0813	0.043679	0.001929	22.6374	2.336668	-167.386	-0.048581	0.977335	-0.020247	-0.021550	-0.020254	22.6374	-0.019576	-0.012253	1.653002	NaN
1198	1.000000	0.986661	7.37676e+06	-55689.1	1105.82	-29740.9	0.000000	0.000000	6.987167	0.029805	NaN	0.000000	0.001529	0.001670	28.0811	0.077949	0.002102	37.0844	92.206	-162.272	0.039847	0.985338	-0.012223	-0.013547	0.029805	37.0844	-0.012826	-0.008002	-3.724610	NaN
1198	1.000000	0.994632	7.37676e+06	-55689.1	1105.82	-29740.9	0.000000	0.000000	6.995139	0.051515	NaN	0.000000	0.001555	0.001669	28.0809	0.082910	0.002064	40.1608	-52.0405	-165.43	-0.020915	0.993358	-0.004253	-0.005527	0.051515	40.1608	-0.005215	-0.003551	-14.5067	NaN
1198	1.000000	1.002608	7.37676e+06	-55689.1	1105.82	-29740.9	0.000000	0.000000	7.003324	5.134537	NaN	0.000000	0.001518	0.001669	28.0811	5.680819	0.001822	3118.36	8.785509	-167.889	3.640717	1.001327	0.003724	0.002442	5.134537	3118.36	0.002489	0.001954	2627.89	64454.3
1198	2.000000	1.007170	7.37676e+06	-55689.1	1105.82	-29740.9	0.000000	0.000000	7.008124	10.9103	NaN	0.000000	0.001513	0.001650	28.0809	10.0916	0.001623	6217.1	8.150374	-173.949	10.8945	1.006806	0.008286	0.007921	10.9103	6217.1	0.006969	0.006004	1817.28	73308.1
1198	2.000000	1.009108	7.37676e+06	-55689.1	1105.82	-29740.9	0.000000	0.000000	7.010197	14.2011	NaN	0.000000	0.001507	0.001681	28.0814	12.4984	0.001714	7292.9	6.151877	-172.329	14.3402	1.008852	0.010224	0.009967	14.2011	7292.9	0.008763	0.007839	1811.55	75255.3
1198	2.000000	1.011129	7.37676e+06	-55689.1	1105.82	-29740.9	0.000000	0.000000	7.012378	18.1178	NaN	0.000000	0.001572	0.001658	28.0813	14.5921	0.001702	8572.72	5.416594	-172.62	17.621	1.010724	0.012244	0.011839	18.1178	8572.72	0.010659	0.009923	1825.9	78628
1198	2.000000	1.013111	7.37676e+06	-55689.1	1105.82	-29740.9	0.000000	0.000000	7.014577	23.3717	NaN	0.000000	0.001599	0.001694	28.0815	16.5717	0.001629	10172.1	7.705910	-176.742	24.0273	1.012736	0.014226	0.013851	23.3717	10172.1	0.012503	0.012098	1931.85	84493.8
1198	2.000000	1.015070	7.37676e+06	-55689.1	1105.82	-29740.9	0.000000	0.000000	7.016703	27.4484	NaN	0.000000	0.001580	0.001686	28.0826	19.3222	0.001878	10290.7	4.204969	-175.016	26.1268	1.014802	0.016185	0.015917	27.4484	10290.7	0.014185	0.014213	1931.18	78862.4
1198	2.000000	1.017113	7.37676e+06	-55689.1	1105.82	-29740.9	0.000000	0.000000	7.018766	27.9369	NaN	0.000000	0.001588	0.001695	28.0824	20.0372	0.001812	11061	6.368625	-176.271	30.7989	1.016841	0.018228	0.017957	27.9369	11061	0.016334	0.017105	1633.26	77269
1198	2.000000	1.019012	7.37676e+06	-55689.1	1105.82	-29740.9	0.000000	0.000000	7.021000	36.0609	NaN	0.000000	0.001602	0.001666	28.0826	22.4514	0.001833	12246.3	1.850451	-173.059	34.5902	1.018749	0.020128	0.019864	36.0609	12246.3	0.017919	0.019377	1860.97	80376.5
1198	2.000000	1.021070	7.37676e+06	-55689.1	1105.82	-29740.9	0.000000	0.000000	7.023143	38.1286	NaN	0.000000	0.001623	0.001710	28.0822	24.2758	0.001902	12760.5	6.689395	-177.03	37.2267	1.020658	0.022185	0.021773	38.1286	12760.5	0.019944	0.022454	1698.05	77802.1
1198	2.000000	1.023092	7.37676e+06	-55689.1	1105.82	-29740.9	0.000000	0.000000	7.025403	43.9236	NaN	0.000000	0.001584	0.001691	28.082	25.7431	0.001909	13488.2	4.173683	-175.8	45.8994	1.022748	0.024207	0.023863	43.9236	13488.2	0.021765	0.025391	1729.87	77336.3
1198	2.000000	1.025061	7.37676e+06	-55689.1	1105.82	-29740.9	0.000000	0.000000	7.027488	46.7332	NaN	0.000000	0.001595	0.001698	28.0821	28.0951	0.001879	14951.5	2.290512	-175.905	46.3164	1.024755	0.026176	0.025871	46.7332	14951.5	0.023832	0.028924	1615.7	80320.3
1198	2.000000	1.026992	7.37676e+06	-55689.1	1105.82	-29740.9	0.000000	0.000000	7.029763	55.0793	NaN	0.000000	0.001593	0.001694	28.082	29.5765	0.001785	16565.6	6.273103	-179.927	54.1079	1.026672	0.028108	0.027787	55.0793	16565.6	0.025614	0.032142	1713.61	84419.6
1198	2.000000	1.029040	7.37676e+06	-55689.1	1105.82	-29740.9	0.000000	0.000000	7.031920	57.7688	NaN	0.000000	0.001596	0.001730	28.0822	31.0878	0.001889	16459.2	5.403124	-178.64	59.1732	1.028720	0.030155	0.029835	57.7688	16459.2	0.027522	0.035765	1615.24	79515.8
1198	2.000000	1.031080	7.37676e+06	-55689.1	1105.82	-29740.9	0.000000	0.000000	7.034286	65.6741	NaN	0.000000	0.001626	0.001724	28.0823	32.4556	0.001749	18561.2	10.5929	175.949	66.0211	1.030645	0.032195	0.031761	65.6741	18561.2	0.029542	0.039799	1650.13	85004.4
1198	2.000000	1.032983	7.37676e+06	-55689.1	1105.82	-29740.9	0.000000	0.000000	7.036488	72.929	NaN	0.000000	0.001610	0.001677	28.0824	33.6923	0.001732	19458.4	5.165681	178.162	69.8156	1.032687	0.034099	0.033802	72.929	19458.4	0.031288	0.043455	1678.27	85282.8
1198	2.000000	1.035096	7.37676e+06	-55689.1	1105.82	-29740.9	0.000000	0.000000	7.038551	71.7085	NaN	0.000000	0.001605	0.001703	28.0822	35.4697	0.001820	19490.2	1.306075	-177.094	74.0633	1.034781	0.036212	0.035896	71.7085	19490.2	0.033452	0.048203	1487.63	81105.8
1198	2.000000	1.037024	7.37676e+06	-55689.1	1105.82	-29740.9	0.000000	0.000000	7.040979	83.8667	NaN	0.000000	0.001582	0.001681	28.0824	37.4503	0.001787	20955.3	3.995105	-179.962	82.3831	1.036683	0.038140	0.037798	83.8667	20955.3	0.035138	0.052068	1610.73	83904.2
1198	2.000000	1.039019	7.37676e+06	-55689.1	1105.82	-29740.9	0.000000	0.000000	7.043015	84.8883	NaN	0.000000	0.001659	0.001742	28.0826	40.2133	0.001780	22597.1	2.160124	-179.576	83.9877	1.038863	0.040134	0.039978	84.8883	22597.1	0.037317	0.057278	1482.05	86264.7
1198	2.000000	1.041031	7.37676e+06	-55689.1	1105.82	-29740.9	0.000000	0.000000	7.045556	97.7436	NaN	0.000000	0.001615	0.001726	28.0821	42.8805	0.001773	24184.9	4.629627	179.214	97.7237	1.040756	0.042146	0.041871	97.7436	24184.9	0.039115	0.061761	1582.6	88911.8
1198	2.000000	1.043025	7.37676e+06	-55689.1	1105.82	-29740.9	0.000000	0.000000	7.047763	102.915	NaN	0.000000	0.001606	0.001677	28.0822	44.6412	0.001719	25965.8	4.649059	177.199	102.617	1.042661	0.044140	0.043776	102.915	25965.8	0.041168	0.067080	1534.21	91595.9
1198	2.000000	1.044995	7.37676e+06	-55689.1	1105.82	-29740.9	0.000000	0.000000	7.050095	111.698	NaN	0.000000	0.001625	0.001689	28.0821	47.4816	0.001928	24623.9	2.044447	-179.144	110.46	1.044661	0.046110	0.045776	111.698	24623.9	0.042708	0.071215	1568.48	84303.4
1198	2.000000	1.046924	7.37676e+06	-55689.1	1105.82	-29740.9	0.000000	0.000000	7.052499	123.26	NaN	0.000000	0.001620	0.001715	28.0822	48.6658	0.001828	26626.1	4.148740	177.712	119.708	1.046695	0.048039	0.047810	123.26	26626.1	0.044567	0.076364	1614.12	88031.5
1198	2.000000	1.049014	7.37676e+06	-55689.1	1105.82	-29740.9	0.000000	0.000000	7.054921	131.329	NaN	0.000000	0.001657	0.001682	28.0811	50.2158	0.001859	27008.9	2.836867	179.249	130.365	1.048624	0.050129	0.049739	131.329	27008.9	0.046482	0.081851	1604.49	86252
1198	2.000000	1.050917	7.37676e+06	-55689.1	1105.82	-29740.9	0.000000	0.000000	7.057073	137.375	NaN	0.000000	0.001639	0.001690	28.0807	51.6209	0.001668	30949.4	6.307424	174.283	132.366	1.050643	0.052032	0.051758	137.375	30949.4	0.048703	0.088447	1553.19	95079
1198	2.000000	1.052897	7.37676e+06	-55689.1	1105.82	-29740.9	0.000000	0.000000	7.059418	146.271	NaN	0.000000	0.001620	0.001700	28.081	53.0982	0.001763	30117	4.639686	176.17	140.99	1.052622	0.054012	0.053737	146.271	30117	0.050369	0.093558	1563.43	89958.9
1198	2.000000	1.055038	7.37676e+06	-55689.1	1105.82	-29740.9	0.000000	0.000000	7.061678	149.134	NaN	0.000000	0.001589	0.001697	28.0809	56.529	0.001833	30836.6	7.752891	172.705	151.955	1.054735	0.056154	0.055850	149.134	30836.6	0.052526	0.100382	1485.66	88922.6
1198	2.000000	1.056971	7.37676e+06	-55689.1	1105.82	-29740.9	0.000000	0.000000	7.064171	162.779	NaN	0.000000	0.001612	0.001693	28.0811	56.1791	0.001789	31403.7	1.866312	178.286	160.8	1.056769	0.058086	0.057884	162.779	31403.7	0.054198	0.105830	1538.12	88196.3
1198	2.000000	1.058943	7.37676e+06	-55689.1	1105.82	-29740.9	0.000000	0.000000	7.066838	179.659	NaN	0.000000	0.001584	0.001675	28.0811	59.685	0.001819	32811.7	7.916347	172.264	177.167	1.058588	0.060058	0.059703	179.659	32811.7	0.055952	0.111693	1608.51	89699.6
1198	2.000000	1.061054	7.37676e+06	-55689.1	1105.82	-29740.9	0.000000	0.000000	7.069056	182.247	NaN	0.000000	0.001596	0.001671	28.0807	61.213	0.001938	31580.4	7.580881	174.742	185.819	1.060692	0.062170	0.061808	182.247	31580.4	0.057842	0.118182	1542.08	83929.4
1198	2.000000	1.062902	7.37676e+06	-55689.1	1105.82	-29740.9	0.000000	0.000000	7.071315	192.242	NaN	0.000000	0.001574	0.001651	28.0807	62.4263	0.001851	33734.2	4.081833	176.801	188.496	1.062532	0.064018	0.063647	192.242	33734.2	0.059744	0.124890	1539.29	87212.7
1198	2.000000	1.065084	7.37676e+06	-55689.1	1105.82	-29740.9	0.000000	0.000000	7.073725	197.801	NaN	0.000000	0.001579	0.001679	28.0809	65.0244	0.001820	35733.7	5.825942	174.152	203.135	1.064707	0.066199	0.065823	197.801	35733.7	0.062047	0.133251	1484.42	89436.5
1198	2.000000	1.066947	7.37676e+06	-55689.1	1105.82	-29740.9	0.000000	0.000000	7.076054	209.115	NaN	0.000000	0.001665	0.001676	28.0811	65.8353	0.001904	34583.3	5.295741	174.638	208.336	1.066663	0.068062	0.067779	209.115	34583.3	0.063527	0.138758	1507.05	84822.3
1198	2.000000	1.068980	7.37676e+06	-55689.1	1105.82	-29740.9	0.000000	0.000000	7.078518	219.586	NaN	0.000000	0.001630	0.001646	28.0812	67.0126	0.001727	38794	2.259712	176.877	220.463	1.068717	0.070095	0.069833	219.586	38794	0.065850	0.147617	1487.54	92250.7
1198	2.000000	1.071002	7.37676e+06	-55689.1	1105.82	-29740.9	0.000000	0.000000	7.081212	235.936	NaN	0.000000	0.001657	0.001699	28.081	70.5491	0.001751	40285.8	7.661804	172.051	235.252	1.070606	0.072117	0.071721	235.936	40285.8	0.067725	0.154956	1522.6	93502
1198	2.000000	1.073003	7.37676e+06	-55689.1	1105.82	-29740.9	0.000000	0.000000	7.083737	248.672	NaN	0.000000	0.001637	0.001691	28.0811	71.0206	0.001905	37285.5	6.602958	174.581	249.786	1.072511	0.074118	0.073627	248.672	37285.5	0.069116	0.160511	1549.26	85027.8
1198	2.000000	1.074936	7.37676e+06	-55689.1	1105.82	-29740.9	0.000000	0.000000	7.086037	257.6	NaN	0.000000	0.001665	0.001629	28.081	73.0613	0.001791	40798.5	3.568201	175.121	256.388	1.074691	0.076051	0.075807	257.6	40798.5	0.071315	0.169480	1519.94	90543.6
1198	2.000000	1.076939	7.37676e+06	-55689.1	1105.82	-29740.9	0.000000	0.000000	7.088399	266.312	NaN	0.000000	0.001620	0.001708	28.0811	74.0938	0.001805	41040.1	4.614422	174.213	266.751	1.076628	0.078054	0.077743	266.312	41040.1	0.073188	0.177296	1502.08	89049.6
1198	2.000000	1.079025	7.37676e+06	-55689.1	1105.82	-29740.9	0.000000	0.000000	7.090983	278.426	NaN	0.000000	0.001569	0.001680	28.0809	76.8236	0.001853	41456.4	4.839975	173.881	281.754	1.078620	0.080140	0.079735	278.426	41456.4	0.075103	0.185462	1501.25	87950.2
1198	2.000000	1.080981	7.37676e+06	-55689.1	1105.82	-29740.9	0.000000	0.000000	7.093400	289.624	NaN	0.000000	0.001562	0.001685	28.0811	79.402	0.001990	39891.3	8.268046	171.307	289.669	1.080672	0.082096	0.081787	289.624	39891.3	0.076651	0.192190	1506.97	83135.4
1198	2.000000	1.082994	7.37676e+06	-55689.1	1105.82	-29740.9	0.000000	0.000000	7.096015	304.275	NaN	0.000000	0.001599	0.001684	28.0826	79.1366	0.001778	44511.4	3.741700	174.72	305.415	1.082562	0.084109	0.083677	304.275	44511.4	0.078982	0.202532	1502.36	90364.5
1198	2.000000	1.084881	7.37676e+06	-55689.1	1105.82	-29740.9	0.000000	0.000000	7.098437	317.262	NaN	0.000000	0.001587	0.001671	28.082	82.6442	0.001865	44302	5.472312	172.777	313.378	1.084637	0.085996	0.085752	317.262	44302	0.080625	0.209974	1510.96	88331
1198	2.000000	1.086921	7.37676e+06	-55689.1	1105.82	-29740.9	0.000000	0.000000	7.100935	328.401	NaN	0.000000	0.001571	0.001750	28.0823	83.1084	0.001794	46335.5	5.962548	172.085	326.991	1.086488	0.088036	0.087603	328.401	46335.5	0.082721	0.219649	1495.12	90328.1
1198	2.000000	1.088856	7.37676e+06	-55689.1	1105.82	-29740.9	0.000000	0.000000	7.103376	340.682	NaN	0.000000	0.001556	0.001699	28.0823	85.2132	0.001796	47454.7	4.533205	173.705	336.656	1.088481	0.089971	0.089596	340.682	47454.7	0.084587	0.228436	1491.37	90713
1198	2.000000	1.090943	7.37676e+06	-55689.1	1105.82	-29740.9	0.000000	0.000000	7.106050	354.982	NaN	0.000000	0.001547	0.001719	28.0822	86.5717	0.001757	49284.9	1.392922	176.489	353.407	1.090571	0.092058	0.091686	354.982	49284.9	0.086656	0.238364	1489.24	92228.7
1198	2.000000	1.092908	7.37676e+06	-55689.1	1105.82	-29740.9	0.000000	0.000000	7.108893	376.319	NaN	0.000000	0.001540	0.001700	28.0825	89.255	0.001756	50827.6	7.893679	169.752	374.065	1.092581	0.094023	0.093696	376.319	50827.6	0.088470	0.247232	1522.13	93394.3
1198	2.000000	1.094878	7.37676e+06	-55689.1	1105.82	-29740.9	0.000000	0.000000	7.111092	381.873	NaN	0.000000	0.001548	0.001670	28.0822	92.324	0.001841	50156.3	4.857571	172.266	377.098	1.094689	0.095993	0.095804	381.873	50156.3	0.090283	0.256246	1490.26	90525.3
1198	2.000000	1.097008	7.37676e+06	-55689.1	1105.82	-29740.9	0.000000	0.000000	7.113791	395.696	NaN	0.000000	0.001571	0.001696	28.082	92.5965	0.001681	55078.3	4.295793	172.478	398.873	1.096600	0.098123	0.097715	395.696	55078.3	0.092735	0.268677	1472.76	97082
1198	2.000000	1.098886	7.37676e+06	-55689.1	1105.82	-29740.9	0.000000	0.000000	7.116416	413.863	NaN	0.000000	0.001562	0.001693	28.0823	95.268	0.001846	51604.3	5.545647	171.855	411.77	1.098615	0.100001	0.099730	413.863	51604.3	0.093986	0.275126	1504.27	89886.3
1198	2.000000	1.100927	7.37676e+06	-55689.1	1105.82	-29740.9	0.000000	0.000000	7.119152	430.764	NaN	0.000000	0.001577	0.001725	28.0825	95.9149	0.001776	54011.2	3.826040	173.641	428.299	1.100565	0.102042	0.101680	430.764	54011.2	0.096060	0.285973	1506.31	92277.1
1198	2.000000	1.102877	7.37676e+06	-55689.1	1105.82	-29740.9	0.000000	0.000000	7.121753	446.587	NaN	0.000000	0.001582	0.001695	28.0827	97.261	0.001816	53571.9	2.153252	175.499	443.667	1.102489	0.103992	0.103604	446.587	53571.9	0.097740	0.294901	1514.36	90130.6
1198	2.000000	1.104435	7.37676e+06	-55689.1	1105.82	-29740.9	0.000000	0.000000	7.123926	461.553	NaN	0.000000	0.001565	0.001689	28.0826	99.1944	0.001712	57952	6.266974	-9.551514	459.821	1.103959	0.105550	0.105075	461.553	57952	0.099576	0.304812	1514.22	95901.6