File: remote_trans/data/nanoindenter/0828-1/data/Data_2025-08-06,11h17m57s/2025-07-22_16-23-58_1_388.txt
2025-07-22, 16:23:58, 1
Index	Phase	Displacement	Time	Pos X	Pos Y	Pos Z	Rot A	Rot B	Piezo Z	Force A	Force B	Gripper	Voltage A	Voltage B	Temperature	Amplitude force	Amplitude pos	Stiffness	Phase shift	Phase excitation	Force A raw	Displacement raw	HMax	HMax raw	Real Force	Real Stiffness	Contact Depth	Area	Hardness	Reduced Mod.
[#]	[#]	[um]	[s]	[um]	[um]	[um]	[m°]	[m°]	[um]	[uN]	[uN]	[V]	[V]	[V]	[°C]	[uN]	[um]	[N/m]	[°]	[°]	[uN]	[um]	[um]	[um]	[uN]	[N/m]	[um]	[um^2]	[MPa]	[MPa]
388	1.000000	0.003083	7.36886e+06	-57689.1	1005.82	-29736.7	0.000000	0.000000	6.002804	-0.067950	NaN	0.000000	0.001576	0.001675	28.0791	0.138516	0.000999	138.632	108.364	-166.467	-0.111932	0.001885	-1.113462	-1.114660	-0.067950	138.632	-1.113094	-7.512905E+14	9.044486E-17	NaN
388	1.000000	0.013123	7.36886e+06	-57689.1	1005.82	-29736.7	0.000000	0.000000	6.012847	0.008785	NaN	0.000000	0.001622	0.001668	28.0792	0.019157	0.001249	15.3376	-14.5341	21.0198	-0.060057	0.011740	-1.103422	-1.104805	0.008785	15.3376	-1.103852	-5.646393E+14	-1.555799E-17	NaN
388	1.000000	0.023028	7.36886e+06	-57689.1	1005.82	-29736.7	0.000000	0.000000	6.022755	0.060823	NaN	0.000000	0.001592	0.001656	28.0791	0.076632	0.001661	46.143	90.3326	-166.023	0.044913	0.021751	-1.093516	-1.094794	0.060823	46.143	-1.094505	-4.229592E+14	-1.438041E-16	NaN
388	1.000000	0.033041	7.36886e+06	-57689.1	1005.82	-29736.7	0.000000	0.000000	6.032766	0.026372	NaN	0.000000	0.001646	0.001704	28.0792	0.039104	0.001972	19.8277	61.4827	17.5102	-0.001338	0.031650	-1.083504	-1.084895	0.026372	19.8277	-1.084501	-3.104378E+14	-8.495138E-17	NaN
388	1.000000	0.043027	7.36886e+06	-57689.1	1005.82	-29736.7	0.000000	0.000000	6.042752	0.033287	NaN	0.000000	0.001685	0.001675	28.0793	0.063344	0.001886	33.5794	-63.3993	-162.696	-0.006538	0.041721	-1.073518	-1.074824	0.033287	33.5794	-1.074261	-2.261707E+14	-1.471768E-16	NaN
388	1.000000	0.053002	7.36886e+06	-57689.1	1005.82	-29736.7	0.000000	0.000000	6.052728	0.050650	NaN	0.000000	0.001605	0.001676	28.0791	0.067019	0.001994	33.6161	-109.63	16.4093	-0.017206	0.051646	-1.063543	-1.064899	0.050650	33.6161	-1.064673	-1.681163E+14	-3.012775E-16	NaN
388	1.000000	0.063044	7.36886e+06	-57689.1	1005.82	-29736.7	0.000000	0.000000	6.062765	-0.048655	NaN	0.000000	0.001625	0.001679	28.0791	0.069295	0.001981	34.9779	-16.912	-166.48	-0.117458	0.061756	-1.053501	-1.054789	-0.048655	34.9779	-1.052458	-1.152009E+14	4.223457E-16	NaN
388	1.000000	0.073024	7.36886e+06	-57689.1	1005.82	-29736.7	0.000000	0.000000	6.072749	0.012084	NaN	0.000000	0.001615	0.001698	28.0791	0.166545	0.001838	90.6194	111.729	13.6683	-0.016847	0.071660	-1.043520	-1.044885	0.012084	90.6194	-1.043620	-8.762891E+13	-1.379012E-16	NaN
388	1.000000	0.083042	7.36886e+06	-57689.1	1005.82	-29736.7	0.000000	0.000000	6.082768	0.048822	NaN	0.000000	0.001660	0.001697	28.0793	0.022362	0.001991	11.2336	26.8486	-165.36	0.020563	0.081702	-1.033503	-1.034843	0.048822	11.2336	-1.036762	-7.086412E+13	-6.889571E-16	NaN
388	1.000000	0.093054	7.36886e+06	-57689.1	1005.82	-29736.7	0.000000	0.000000	6.092778	0.019404	NaN	0.000000	0.001619	0.001688	28.0791	0.023829	0.002020	11.7942	-93.8758	13.5224	0.003563	0.091650	-1.023491	-1.024895	0.019404	11.7942	-1.024725	-4.881134E+13	-3.975328E-16	NaN
388	1.000000	0.103047	7.36886e+06	-57689.1	1005.82	-29736.7	0.000000	0.000000	6.102768	-0.065840	NaN	0.000000	0.001656	0.001633	28.0806	0.069594	0.002042	34.0809	128.594	-165.242	-0.041194	0.101685	-1.013498	-1.014860	-0.065840	34.0809	-1.012049	-3.295754E+13	1.997711E-15	NaN
388	1.000000	0.113047	7.36886e+06	-57689.1	1005.82	-29736.7	0.000000	0.000000	6.112771	0.002748	NaN	0.000000	0.001627	0.001670	28.0804	0.031699	0.001879	16.8678	-30.5645	16.5565	-0.084109	0.111636	-1.003498	-1.004908	0.002748	16.8678	-1.003620	-2.538052E+13	-1.082694E-16	NaN
388	1.000000	0.123039	7.36886e+06	-57689.1	1005.82	-29736.7	0.000000	0.000000	6.122760	-0.048259	NaN	0.000000	0.001635	0.001669	28.0805	0.064793	0.002188	29.6106	113.579	-165.175	0.042063	0.121840	-0.993506	-0.994705	-0.048259	29.6106	-0.992284	-1.785955E+13	2.702118E-15	NaN
388	1.000000	0.133051	7.36886e+06	-57689.1	1005.82	-29736.7	0.000000	0.000000	6.132775	0.011184	NaN	0.000000	0.001647	0.001632	28.0803	0.053445	0.002000	26.721	36.7162	16.1147	-0.004126	0.131714	-0.983494	-0.984831	0.011184	26.721	-0.983808	-1.373110E+13	-8.145103E-16	NaN
388	1.000000	0.143062	7.36886e+06	-57689.1	1005.82	-29736.7	0.000000	0.000000	6.142785	-0.035623	NaN	0.000000	0.001635	0.001615	28.0805	0.135079	0.001871	72.2012	110.62	-167.166	-0.059553	0.141770	-0.973482	-0.974774	-0.035623	72.2012	-0.973112	-9.853845E+12	3.615122E-15	NaN
388	1.000000	0.153063	7.36886e+06	-57689.1	1005.82	-29736.7	0.000000	0.000000	6.152785	-0.022880	NaN	0.000000	0.001626	0.001677	28.0807	0.083030	0.002051	40.4832	151.752	16.1264	-0.005723	0.151670	-0.963482	-0.964875	-0.022880	40.4832	-0.963058	-7.212683E+12	3.172187E-15	NaN
388	1.000000	0.163043	7.36886e+06	-57689.1	1005.82	-29736.7	0.000000	0.000000	6.162765	-0.018847	NaN	0.000000	0.001613	0.001676	28.0805	0.039921	0.001950	20.4691	69.8785	-164.981	-0.056976	0.161724	-0.953502	-0.954821	-0.018847	20.4691	-0.952812	-5.247430E+12	3.591655E-15	NaN
388	1.000000	0.173074	7.36886e+06	-57689.1	1005.82	-29736.7	0.000000	0.000000	6.172797	-0.000538	NaN	0.000000	0.001644	0.001634	28.0803	0.147797	0.002011	73.4936	-41.9676	13.5972	-0.051691	0.171697	-0.943471	-0.944848	-0.000538	73.4936	-0.943466	-3.925457E+12	1.369685E-16	NaN
388	1.000000	0.183074	7.36886e+06	-57689.1	1005.82	-29736.7	0.000000	0.000000	6.182797	-0.018738	NaN	0.000000	0.001631	0.001660	28.0803	0.070964	0.001884	37.6583	28.2432	-162.399	-0.003469	0.181778	-0.933471	-0.934767	-0.018738	37.6583	-0.933098	-2.844481E+12	6.587584E-15	NaN
388	1.000000	0.193077	7.36886e+06	-57689.1	1005.82	-29736.7	0.000000	0.000000	6.192799	-0.033565	NaN	0.000000	0.001625	0.001665	28.0803	0.107433	0.001890	56.83	-32.524	15.4972	-0.022505	0.191732	-0.923468	-0.924812	-0.033565	56.83	-0.923025	-2.079906E+12	1.613788E-14	NaN
388	1.000000	0.203089	7.36886e+06	-57689.1	1005.82	-29736.7	0.000000	0.000000	6.202812	-0.005605	NaN	0.000000	0.001602	0.001672	28.0803	0.046702	0.001970	23.7029	-68.0882	-158.983	-0.052765	0.201754	-0.913456	-0.914791	-0.005605	23.7029	-0.913279	-1.536204E+12	3.648901E-15	NaN
388	1.000000	0.213080	7.36886e+06	-57689.1	1005.82	-29736.7	0.000000	0.000000	6.212803	0.002505	NaN	0.000000	0.001617	0.001654	28.0802	0.027774	0.002051	13.5436	-52.4906	15.2996	-0.087596	0.211727	-0.903465	-0.904818	0.002505	13.5436	-0.903604	-1.136999E+12	-2.203412E-15	NaN
388	1.000000	0.223101	7.36886e+06	-57689.1	1005.82	-29736.7	0.000000	0.000000	6.222826	0.039622	NaN	0.000000	0.001607	0.001647	28.0805	0.068281	0.001942	35.1672	154.938	-163.449	-0.009694	0.221824	-0.893444	-0.894720	0.039622	35.1672	-0.894289	-8.509233E+11	-4.656364E-14	NaN
388	1.000000	0.233093	7.36886e+06	-57689.1	1005.82	-29736.7	0.000000	0.000000	6.232816	-0.013815	NaN	0.000000	0.001679	0.001650	28.0795	0.071594	0.002071	34.5754	103.536	14.1341	-0.067877	0.231717	-0.883452	-0.884828	-0.013815	34.5754	-0.883152	-6.016342E+11	2.296241E-14	NaN
388	1.000000	0.243078	7.36886e+06	-57689.1	1005.82	-29736.7	0.000000	0.000000	6.242802	-0.000513	NaN	0.000000	0.001634	0.001626	28.079	0.100459	0.001944	51.6654	102.17	-163.84	0.030302	0.241838	-0.873466	-0.874707	-0.000513	51.6654	-0.873459	-4.448741E+11	1.154204E-15	NaN
388	1.000000	0.253139	7.36886e+06	-57689.1	1005.82	-29736.7	0.000000	0.000000	6.252864	0.018395	NaN	0.000000	0.001648	0.001640	28.0791	0.062092	0.001977	31.4058	67.017	14.455	0.033839	0.251753	-0.863406	-0.864792	0.018395	31.4058	-0.863845	-3.297308E+11	-5.578820E-14	NaN
388	1.000000	0.263126	7.36886e+06	-57689.1	1005.82	-29736.7	0.000000	0.000000	6.262847	-0.060610	NaN	0.000000	0.001600	0.001655	28.0794	0.015427	0.001924	8.020112	-149.452	-164.019	0.017509	0.261841	-0.853419	-0.854704	-0.060610	8.020112	-0.847751	-1.996582E+11	3.035671E-13	NaN
388	1.000000	0.273124	7.36886e+06	-57689.1	1005.82	-29736.7	0.000000	0.000000	6.272847	-0.003981	NaN	0.000000	0.001616	0.001657	28.0792	0.093628	0.002122	44.132	-35.9503	13.0213	-0.004425	0.271753	-0.843421	-0.844792	-0.003981	44.132	-0.843353	-1.740671E+11	2.286967E-14	NaN
388	1.000000	0.283130	7.36886e+06	-57689.1	1005.82	-29736.7	0.000000	0.000000	6.282851	-0.068259	NaN	0.000000	0.001607	0.001658	28.0793	0.009432	0.001918	4.917680	-0.389474	-165.841	-0.027435	0.281822	-0.833415	-0.834723	-0.068259	4.917680	-0.823004	-9.224648E+10	7.399668E-13	NaN
388	1.000000	0.293156	7.36886e+06	-57689.1	1005.82	-29736.7	0.000000	0.000000	6.292880	0.015858	NaN	0.000000	0.001619	0.001663	28.0792	0.038525	0.001825	21.1112	-13.5105	16.0035	-0.051492	0.291838	-0.823389	-0.824707	0.015858	21.1112	-0.823952	-9.501681E+10	-1.669009E-13	NaN
388	1.000000	0.303141	7.36886e+06	-57689.1	1005.82	-29736.7	0.000000	0.000000	6.302867	0.060805	NaN	0.000000	0.001615	0.001659	28.0794	0.037669	0.001971	19.1156	171.982	-165.893	0.011180	0.301870	-0.813404	-0.814675	0.060805	19.1156	-0.815790	-7.363978E+10	-8.257106E-13	NaN
388	1.000000	0.313117	7.36886e+06	-57689.1	1005.82	-29736.7	0.000000	0.000000	6.312843	0.056643	NaN	0.000000	0.001577	0.001656	28.0787	0.026713	0.002094	12.7572	157.112	16.7709	0.020937	0.311771	-0.803428	-0.804774	0.056643	12.7572	-0.806758	-5.553633E+10	-1.019918E-12	NaN
388	1.000000	0.323089	7.36886e+06	-57689.1	1005.82	-29736.7	0.000000	0.000000	6.322811	-0.030253	NaN	0.000000	0.001594	0.001674	28.079	0.116907	0.001890	61.8454	83.9378	-163.416	-0.019335	0.321872	-0.793456	-0.794673	-0.030253	61.8454	-0.793089	-3.622702E+10	8.350882E-13	NaN
388	1.000000	0.333151	7.36886e+06	-57689.1	1005.82	-29736.7	0.000000	0.000000	6.332875	0.013100	NaN	0.000000	0.001575	0.001680	28.079	0.102694	0.002070	49.6074	141.159	15.9664	0.080990	0.331775	-0.783394	-0.784770	0.013100	49.6074	-0.783592	-2.691792E+10	-4.866527E-13	NaN
388	1.000000	0.343145	7.36886e+06	-57689.1	1005.82	-29736.7	0.000000	0.000000	6.342869	0.004478	NaN	0.000000	0.001613	0.001662	28.079	0.091466	0.001883	48.5869	101.211	-163.698	0.004008	0.341865	-0.773399	-0.774680	0.004478	48.5869	-0.773469	-1.960928E+10	-2.283410E-13	NaN
388	1.000000	0.353126	7.36886e+06	-57689.1	1005.82	-29736.7	0.000000	0.000000	6.352850	0.022401	NaN	0.000000	0.001615	0.001641	28.0792	0.049494	0.002037	24.299	-45.3387	13.7797	-0.063981	0.351789	-0.763419	-0.764756	0.022401	24.299	-0.764110	-1.462897E+10	-1.531278E-12	NaN
388	1.000000	0.363160	7.36886e+06	-57689.1	1005.82	-29736.7	0.000000	0.000000	6.362884	0.013939	NaN	0.000000	0.001587	0.001641	28.0791	0.095850	0.001924	49.8116	145.159	-163.81	-0.017395	0.361861	-0.753385	-0.754684	0.013939	49.8116	-0.753595	-1.052311E+10	-1.324623E-12	NaN
388	1.000000	0.373207	7.36886e+06	-57689.1	1005.82	-29736.7	0.000000	0.000000	6.372931	0.008163	NaN	0.000000	0.001698	0.001639	28.0803	0.091554	0.002075	44.1126	-34.6535	18.8414	-0.029602	0.371772	-0.743338	-0.744773	0.008163	44.1126	-0.743477	-7.663106E+9	-1.065182E-12	NaN
388	1.000000	0.383169	7.36886e+06	-57689.1	1005.82	-29736.7	0.000000	0.000000	6.382891	-0.047064	NaN	0.000000	0.001648	0.001608	28.0804	0.048461	0.002069	23.4258	21.5225	-169.385	0.009343	0.381839	-0.733375	-0.734706	-0.047064	23.4258	-0.731869	-5.324445E+9	8.839150E-12	NaN
388	1.000000	0.393184	7.36886e+06	-57689.1	1005.82	-29736.7	0.000000	0.000000	6.392908	0.014401	NaN	0.000000	0.001639	0.001667	28.0805	0.062575	0.001940	32.2473	-95.8935	12.0645	0.039986	0.391771	-0.723361	-0.724774	0.014401	32.2473	-0.723696	-4.119739E+9	-3.495604E-12	NaN
388	1.000000	0.403178	7.36886e+06	-57689.1	1005.82	-29736.7	0.000000	0.000000	6.402902	-0.007312	NaN	0.000000	0.001665	0.001659	28.0803	0.038242	0.002020	18.9332	-122.752	-164.068	-0.035364	0.401880	-0.713366	-0.714665	-0.007312	18.9332	-0.713077	-2.951425E+9	2.477543E-12	NaN
388	1.000000	0.413170	7.36886e+06	-57689.1	1005.82	-29736.7	0.000000	0.000000	6.412896	0.058660	NaN	0.000000	0.001637	0.001639	28.0806	0.043735	0.002001	21.8603	-76.2414	16.0165	0.045697	0.411799	-0.703375	-0.704746	0.058660	21.8603	-0.705387	-2.317870E+9	-2.530768E-11	NaN
388	1.000000	0.423201	7.36886e+06	-57689.1	1005.82	-29736.7	0.000000	0.000000	6.422928	0.065948	NaN	0.000000	0.001632	0.001653	28.0803	0.067869	0.001994	34.0443	-150.381	-162.54	0.035768	0.421879	-0.693343	-0.694666	0.065948	34.0443	-0.694796	-1.661318E+9	-3.969648E-11	NaN
388	1.000000	0.433173	7.36886e+06	-57689.1	1005.82	-29736.7	0.000000	0.000000	6.432899	0.054636	NaN	0.000000	0.001620	0.001678	28.0804	0.050514	0.001935	26.1008	13.4338	15.4686	0.034533	0.431860	-0.683372	-0.684685	0.054636	26.1008	-0.684942	-1.218380E+9	-4.484276E-11	NaN
388	1.000000	0.443193	7.36886e+06	-57689.1	1005.82	-29736.7	0.000000	0.000000	6.442916	-0.014952	NaN	0.000000	0.001670	0.001678	28.0804	0.025016	0.001920	13.0292	86.3763	-164.402	0.040905	0.441894	-0.673352	-0.674651	-0.014952	13.0292	-0.672491	-8.231606E+8	1.816446E-11	NaN
388	1.000000	0.453175	7.36886e+06	-57689.1	1005.82	-29736.7	0.000000	0.000000	6.452898	-0.026420	NaN	0.000000	0.001720	0.001623	28.0808	0.035224	0.001913	18.4153	-134.197	15.6361	-0.059810	0.451816	-0.663369	-0.664728	-0.026420	18.4153	-0.662293	-5.968718E+8	4.426333E-11	NaN
388	1.000000	0.463226	7.36886e+06	-57689.1	1005.82	-29736.7	0.000000	0.000000	6.462952	0.060232	NaN	0.000000	0.001694	0.001652	28.0803	0.042706	0.002069	20.6364	-112.279	-163.692	-0.014911	0.461916	-0.653319	-0.654629	0.060232	20.6364	-0.655508	-4.818733E+8	-1.249947E-10	NaN
388	1.000000	0.473215	7.36886e+06	-57689.1	1005.82	-29736.7	0.000000	0.000000	6.472939	0.007596	NaN	0.000000	0.001732	0.001639	28.0803	0.037695	0.002040	18.4757	27.4	12.9869	0.094374	0.471848	-0.643330	-0.644697	0.007596	18.4757	-0.643638	-3.312807E+8	-2.292816E-11	NaN
388	1.000000	0.483209	7.36886e+06	-57689.1	1005.82	-29736.7	0.000000	0.000000	6.482933	0.002523	NaN	0.000000	0.001618	0.001633	28.0805	0.043520	0.001925	22.6083	174.724	-163.357	0.040970	0.481890	-0.633336	-0.634655	0.002523	22.6083	-0.633419	-2.398689E+8	-1.051688E-11	NaN
388	1.000000	0.493208	7.36886e+06	-57689.1	1005.82	-29736.7	0.000000	0.000000	6.492929	-0.056309	NaN	0.000000	0.001636	0.001646	28.0803	0.074683	0.002004	37.2624	-64.1609	16.4873	-0.038892	0.491804	-0.623337	-0.624741	-0.056309	37.2624	-0.622204	-1.682380E+8	3.346995E-10	NaN
388	1.000000	0.503220	7.36886e+06	-57689.1	1005.82	-29736.7	0.000000	0.000000	6.502944	0.004306	NaN	0.000000	0.001662	0.001659	28.0804	0.060095	0.002028	29.6331	-74.571	-166.527	-0.035904	0.501917	-0.613324	-0.614628	0.004306	29.6331	-0.613433	-1.274517E+8	-3.378230E-11	NaN
388	1.000000	0.513222	7.36886e+06	-57689.1	1005.82	-29736.7	0.000000	0.000000	6.512943	-0.063442	NaN	0.000000	0.001659	0.001664	28.0792	0.069990	0.001897	36.8941	-13.4758	14.9836	-0.016840	0.511886	-0.603323	-0.604659	-0.063442	36.8941	-0.602033	-8.880864E+7	7.143686E-10	NaN
388	1.000000	0.523216	7.36886e+06	-57689.1	1005.82	-29736.7	0.000000	0.000000	6.522942	0.052436	NaN	0.000000	0.001618	0.001656	28.0795	0.074493	0.001905	39.1104	45.9095	-163.044	-0.038741	0.521924	-0.593328	-0.594621	0.052436	39.1104	-0.594334	-6.956688E+7	-7.537527E-10	NaN
388	1.000000	0.533243	7.36886e+06	-57689.1	1005.82	-29736.7	0.000000	0.000000	6.532965	-0.058038	NaN	0.000000	0.001620	0.001656	28.0795	0.110393	0.001966	56.1426	-85.7884	18.6314	-0.000367	0.531865	-0.583302	-0.584679	-0.058038	56.1426	-0.582526	-4.781753E+7	1.213743E-9	NaN
388	1.000000	0.543256	7.36886e+06	-57689.1	1005.82	-29736.7	0.000000	0.000000	6.542979	-0.013037	NaN	0.000000	0.001637	0.001659	28.079	0.027378	0.001941	14.1061	-40.9068	-162.399	0.017618	0.541927	-0.573289	-0.574618	-0.013037	14.1061	-0.572596	-3.487303E+7	3.738401E-10	NaN
388	1.000000	0.553217	7.36886e+06	-57689.1	1005.82	-29736.7	0.000000	0.000000	6.552941	0.023473	NaN	0.000000	0.001648	0.001680	28.0792	0.018965	0.002070	9.164072	170.561	13.7206	-0.065312	0.551817	-0.563328	-0.564728	0.023473	9.164072	-0.565249	-2.760397E+7	-8.503386E-10	NaN
388	1.000000	0.563276	7.36886e+06	-57689.1	1005.82	-29736.7	0.000000	0.000000	6.563001	0.042566	NaN	0.000000	0.001665	0.001622	28.0793	0.116707	0.001970	59.2323	-62.8125	-168.048	-0.041499	0.561924	-0.553269	-0.554621	0.042566	59.2323	-0.553808	-1.917297E+7	-2.220108E-9	NaN
388	1.000000	0.573228	7.36886e+06	-57689.1	1005.82	-29736.7	0.000000	0.000000	6.572951	-0.006016	NaN	0.000000	0.001643	0.001669	28.0792	0.025631	0.002083	12.3028	-88.4952	16.9572	-0.034489	0.571887	-0.543317	-0.544658	-0.006016	12.3028	-0.542950	-1.356013E+7	4.436365E-10	NaN
388	1.000000	0.583251	7.36886e+06	-57689.1	1005.82	-29736.7	0.000000	0.000000	6.582971	-0.073358	NaN	0.000000	0.001638	0.001630	28.0794	0.047654	0.002054	23.1987	-169.004	-165.148	0.012981	0.581932	-0.533294	-0.534613	-0.073358	23.1987	-0.530922	-9.23391e+06	7.944364E-9	NaN
388	1.000000	0.593245	7.36886e+06	-57689.1	1005.82	-29736.7	0.000000	0.000000	6.592966	-0.075327	NaN	0.000000	0.001644	0.001633	28.0795	0.044431	0.001989	22.3395	-136.025	14.6236	0.031679	0.591933	-0.523300	-0.524611	-0.075327	22.3395	-0.520771	-6.67289e+06	1.128855E-8	NaN
388	1.000000	0.603244	7.36886e+06	-57689.1	1005.82	-29736.7	0.000000	0.000000	6.602968	0.015255	NaN	0.000000	0.001635	0.001642	28.0796	0.028099	0.002106	13.3424	20.0287	-162.313	-0.023672	0.601965	-0.513301	-0.514580	0.015255	13.3424	-0.514159	-5.3991e+06	-2.825437E-9	NaN
388	1.000000	0.613278	7.36886e+06	-57689.1	1005.82	-29736.7	0.000000	0.000000	6.613001	-0.016434	NaN	0.000000	0.001646	0.001627	28.0793	0.080208	0.001992	40.2651	135.723	19.5935	0.090231	0.611897	-0.503266	-0.504647	-0.016434	40.2651	-0.502960	-3.76971e+06	4.359579E-9	NaN
388	1.000000	0.623260	7.36886e+06	-57689.1	1005.82	-29736.7	0.000000	0.000000	6.622984	0.003306	NaN	0.000000	0.001631	0.001595	28.0795	0.047887	0.001945	24.6196	-112.917	-165.043	-0.015410	0.621925	-0.493285	-0.494620	0.003306	24.6196	-0.493386	-2.77135e+06	-1.193009E-9	NaN
388	1.000000	0.633283	7.36886e+06	-57689.1	1005.82	-29736.7	0.000000	0.000000	6.633008	0.045143	NaN	0.000000	0.001641	0.001628	28.0797	0.116237	0.002008	57.8868	54.989	13.1266	-0.000932	0.631943	-0.483262	-0.484602	0.045143	57.8868	-0.483847	-2.03874e+06	-2.214275E-8	NaN
388	1.000000	0.643268	7.36886e+06	-57689.1	1005.82	-29736.7	0.000000	0.000000	6.642989	-0.080397	NaN	0.000000	0.001617	0.001665	28.0806	0.058937	0.001924	30.6388	126.258	-170.975	-0.154903	0.641981	-0.473276	-0.474564	-0.080397	30.6388	-0.471308	-1.36068e+06	5.908635E-8	NaN
388	1.000000	0.653271	7.36886e+06	-57689.1	1005.82	-29736.7	0.000000	0.000000	6.652992	-0.064004	NaN	0.000000	0.001608	0.001635	28.0805	0.052565	0.001971	26.6651	21.5655	18.6051	-0.097068	0.651967	-0.463274	-0.464578	-0.064004	26.6651	-0.461474	-990214	6.463622E-8	NaN
388	1.000000	0.663254	7.36886e+06	-57689.1	1005.82	-29736.7	0.000000	0.000000	6.662979	0.032396	NaN	0.000000	0.001647	0.001625	28.0806	0.043792	0.001983	22.0891	144.865	-165.419	-0.023601	0.661891	-0.453290	-0.454653	0.032396	22.0891	-0.454390	-787302	-4.114802E-8	NaN
388	1.000000	0.673283	7.36886e+06	-57689.1	1005.82	-29736.7	0.000000	0.000000	6.673010	0.078189	NaN	0.000000	0.001633	0.001596	28.0807	0.059036	0.002185	27.0151	53.364	16.1489	0.099253	0.671899	-0.443261	-0.444646	0.078189	27.0151	-0.445432	-588822	-1.327895E-7	NaN
388	1.000000	0.683293	7.36886e+06	-57689.1	1005.82	-29736.7	0.000000	0.000000	6.683018	0.027392	NaN	0.000000	0.001628	0.001623	28.0805	0.066323	0.002019	32.8531	107.218	-162.498	0.043210	0.681934	-0.433252	-0.434611	0.027392	32.8531	-0.433877	-404472	-6.772208E-8	NaN
388	1.000000	0.693296	7.36886e+06	-57689.1	1005.82	-29736.7	0.000000	0.000000	6.693019	-0.014079	NaN	0.000000	0.001623	0.001639	28.0805	0.107693	0.002020	53.3163	-45.0953	19.4593	-0.059456	0.691988	-0.423249	-0.424557	-0.014079	53.3163	-0.423051	-284229	4.953320E-8	NaN
388	1.000000	0.703322	7.36886e+06	-57689.1	1005.82	-29736.7	0.000000	0.000000	6.703046	0.000338	NaN	0.000000	0.001608	0.001649	28.0807	0.057426	0.001948	29.4734	-65.7835	-162.882	-0.009120	0.701944	-0.413223	-0.414601	0.000338	29.4734	-0.413232	-206222	-1.637125E-9	NaN
388	1.000000	0.713305	7.36886e+06	-57689.1	1005.82	-29736.7	0.000000	0.000000	6.713025	-0.089640	NaN	0.000000	0.001606	0.001599	28.0808	0.115059	0.001804	63.7785	31.9248	18.0606	-0.128357	0.711930	-0.403240	-0.404615	-0.089640	63.7785	-0.402186	-143600	6.242334E-7	NaN
388	1.000000	0.723331	7.36886e+06	-57689.1	1005.82	-29736.7	0.000000	0.000000	6.723056	0.025851	NaN	0.000000	0.001559	0.001611	28.0803	0.156087	0.002023	77.1637	142.682	-167.866	-0.035644	0.722059	-0.393214	-0.394486	0.025851	77.1637	-0.393465	-107821	-2.397613E-7	NaN
388	1.000000	0.733320	7.36886e+06	-57689.1	1005.82	-29736.7	0.000000	0.000000	6.733045	0.042918	NaN	0.000000	0.001582	0.001622	28.0805	0.076276	0.002026	37.6403	-100.141	13.1704	0.064202	0.731948	-0.383225	-0.384597	0.042918	37.6403	-0.384080	-79142	-5.422892E-7	NaN
388	1.000000	0.743308	7.36886e+06	-57689.1	1005.82	-29736.7	0.000000	0.000000	6.743033	0.020734	NaN	0.000000	0.001594	0.001634	28.0804	0.061590	0.002125	28.9801	-20.3984	-166.396	-0.017457	0.742013	-0.373237	-0.374532	0.020734	28.9801	-0.373773	-56290.3	-3.683413E-7	NaN
388	1.000000	0.753380	7.36886e+06	-57689.1	1005.82	-29736.7	0.000000	0.000000	6.753101	-0.051628	NaN	0.000000	0.001572	0.001613	28.0807	0.075237	0.002051	36.6905	26.1949	15.7506	-0.011343	0.751972	-0.363165	-0.364573	-0.051628	36.6905	-0.362110	-38223.5	1.350678E-6	NaN
388	1.000000	0.763330	7.36886e+06	-57689.1	1005.82	-29736.7	0.000000	0.000000	6.763055	0.022588	NaN	0.000000	0.001542	0.001664	28.0805	0.054439	0.002047	26.5999	-179.878	-165.754	0.038284	0.761986	-0.353215	-0.354559	0.022588	26.5999	-0.353851	-29030.7	-7.780696E-7	NaN
388	1.000000	0.773319	7.36886e+06	-57689.1	1005.82	-29736.7	0.000000	0.000000	6.773046	0.097444	NaN	0.000000	0.001573	0.001627	28.0805	0.048979	0.001829	26.7858	-50.9344	17.4555	0.017495	0.772014	-0.343226	-0.344531	0.097444	26.7858	-0.345955	-22296.5	-4.370373E-6	NaN
388	1.000000	0.783333	7.36886e+06	-57689.1	1005.82	-29736.7	0.000000	0.000000	6.783058	0.048424	NaN	0.000000	0.001593	0.001647	28.0793	0.076965	0.002012	38.2554	78.1335	-163.424	0.058941	0.782052	-0.333212	-0.334493	0.048424	38.2554	-0.334162	-15008.4	-3.226470E-6	NaN
388	1.000000	0.793356	7.36886e+06	-57689.1	1005.82	-29736.7	0.000000	0.000000	6.793081	0.019890	NaN	0.000000	0.001595	0.001653	28.0794	0.115687	0.001949	59.3616	94.7	13.4402	-0.058599	0.791945	-0.323189	-0.324600	0.019890	59.3616	-0.323440	-10452.6	-1.902857E-6	NaN
388	1.000000	0.803344	7.36886e+06	-57689.1	1005.82	-29736.7	0.000000	0.000000	6.803068	0.015648	NaN	0.000000	0.001580	0.001662	28.0793	0.064272	0.001884	34.1214	-7.941351	-162.526	-0.009798	0.802006	-0.313201	-0.314539	0.015648	34.1214	-0.313545	-7472.46	-2.094084E-6	NaN
388	1.000000	0.813357	7.36886e+06	-57689.1	1005.82	-29736.7	0.000000	0.000000	6.813084	0.076396	NaN	0.000000	0.001586	0.001672	28.0795	0.107864	0.001897	56.8735	102.283	15.5276	0.001214	0.811914	-0.303188	-0.304631	0.076396	56.8735	-0.304195	-5432.62	-1.406243E-5	NaN
388	1.000000	0.823355	7.36886e+06	-57689.1	1005.82	-29736.7	0.000000	0.000000	6.823076	-0.058693	NaN	0.000000	0.001609	0.001692	28.0796	0.148026	0.001802	82.1394	-7.183748	-166.174	-0.028702	0.822046	-0.293190	-0.294499	-0.058693	82.1394	-0.292654	-3656.17	1.605313E-5	NaN
388	1.000000	0.833358	7.36886e+06	-57689.1	1005.82	-29736.7	0.000000	0.000000	6.833082	-0.005215	NaN	0.000000	0.001578	0.001661	28.0796	0.100274	0.002049	48.9291	-158.194	14.9585	0.021213	0.832036	-0.283187	-0.284509	-0.005215	48.9291	-0.283107	-2628.97	1.983599E-6	NaN
388	1.000000	0.843348	7.36886e+06	-57689.1	1005.82	-29736.7	0.000000	0.000000	6.843075	0.070010	NaN	0.000000	0.001558	0.001634	28.0793	0.070243	0.002011	34.9323	151.674	-162.957	0.092953	0.842063	-0.273197	-0.274482	0.070010	34.9323	-0.274700	-1962.7	-3.567043E-5	NaN
388	1.000000	0.853361	7.36886e+06	-57689.1	1005.82	-29736.7	0.000000	0.000000	6.853085	-0.008955	NaN	0.000000	0.001569	0.001654	28.0795	0.093509	0.001885	49.5992	166.186	15.0379	-0.011403	0.851991	-0.263184	-0.264554	-0.008955	49.5992	-0.263048	-1304.89	6.862693E-6	NaN
388	1.000000	0.863372	7.36886e+06	-57689.1	1005.82	-29736.7	0.000000	0.000000	6.863096	0.018492	NaN	0.000000	0.001646	0.001613	28.0794	0.067690	0.002017	33.566	165.504	-164.324	0.036350	0.862045	-0.253173	-0.254500	0.018492	33.566	-0.253586	-933.986	-1.979888E-5	NaN
388	1.000000	0.873356	7.36886e+06	-57689.1	1005.82	-29736.7	0.000000	0.000000	6.873080	0.018842	NaN	0.000000	0.001655	0.001669	28.0794	0.178660	0.002024	88.2764	-32.2787	14.8826	0.045863	0.872050	-0.243189	-0.244495	0.018842	88.2764	-0.243349	-648.305	-2.906291E-5	NaN
388	1.000000	0.883372	7.36886e+06	-57689.1	1005.82	-29736.7	0.000000	0.000000	6.883096	-0.005501	NaN	0.000000	0.001635	0.001638	28.0793	0.061296	0.002078	29.4988	-46.0035	-167.295	0.015832	0.882035	-0.233172	-0.234510	-0.005501	29.4988	-0.233033	-447.013	1.230569E-5	NaN
388	1.000000	0.893381	7.36886e+06	-57689.1	1005.82	-29736.7	0.000000	0.000000	6.893104	-0.005197	NaN	0.000000	0.001602	0.001685	28.0794	0.026146	0.002039	12.8225	-52.5083	16.2816	-0.024115	0.892031	-0.223164	-0.224514	-0.005197	12.8225	-0.222860	-308.536	1.684381E-5	NaN
388	1.000000	0.903377	7.36886e+06	-57689.1	1005.82	-29736.7	0.000000	0.000000	6.903100	-0.004715	NaN	0.000000	0.001613	0.001667	28.0795	0.119566	0.001984	60.258	-65.2439	-164.102	-0.019066	0.902100	-0.213168	-0.214445	-0.004715	60.258	-0.213109	-215.31	2.189904E-5	NaN
388	1.000000	0.913393	7.36886e+06	-57689.1	1005.82	-29736.7	0.000000	0.000000	6.913118	0.037517	NaN	0.000000	0.001638	0.001659	28.0794	0.081553	0.001955	41.7071	111.918	13.2634	0.038175	0.912018	-0.203152	-0.204527	0.037517	41.7071	-0.203826	-152.195	-0.000247	NaN
388	1.000000	0.923385	7.36886e+06	-57689.1	1005.82	-29736.7	0.000000	0.000000	6.923110	0.010448	NaN	0.000000	0.001608	0.001635	28.0807	0.079487	0.002098	37.8786	-140.199	-164.85	0.038305	0.922094	-0.193159	-0.194451	0.010448	37.8786	-0.193366	-102.353	-0.000102	NaN
388	1.000000	0.933377	7.36886e+06	-57689.1	1005.82	-29736.7	0.000000	0.000000	6.933102	0.045393	NaN	0.000000	0.001635	0.001711	28.0809	0.063686	0.001967	32.3847	-136.058	14.2744	0.042830	0.932044	-0.183168	-0.184501	0.045393	32.3847	-0.184220	-71.9398	-0.000631	NaN
388	1.000000	0.943364	7.36886e+06	-57689.1	1005.82	-29736.7	0.000000	0.000000	6.943087	-0.003265	NaN	0.000000	0.001631	0.001713	28.0807	0.069045	0.001940	35.5873	-134.161	-165.434	0.012321	0.942072	-0.173181	-0.174473	-0.003265	35.5873	-0.173112	-46.5026	7.022050E-5	NaN
388	1.000000	0.953374	7.36886e+06	-57689.1	1005.82	-29736.7	0.000000	0.000000	6.953097	-0.010434	NaN	0.000000	0.001683	0.001699	28.0807	0.003245	0.001888	1.718495	-178.213	14.0744	0.065226	0.952044	-0.163171	-0.164501	-0.010434	1.718495	-0.158618	-25.9047	0.000403	NaN
388	1.000000	0.963407	7.36886e+06	-57689.1	1005.82	-29736.7	0.000000	0.000000	6.963134	0.080361	NaN	0.000000	0.001554	0.001667	28.0807	0.131887	0.001946	67.7832	47.9802	-168.711	0.110078	0.962107	-0.153138	-0.154438	0.080361	67.7832	-0.154027	-21.4317	-0.003750	NaN
388	1.000000	0.973402	7.36886e+06	-57689.1	1005.82	-29736.7	0.000000	0.000000	6.973127	0.029186	NaN	0.000000	0.001645	0.001671	28.0808	0.126977	0.002084	60.9247	-145.081	16.0186	-0.064281	0.972081	-0.143143	-0.144464	0.029186	60.9247	-0.143502	-13.7529	-0.002122	NaN
388	1.000000	0.983378	7.36886e+06	-57689.1	1005.82	-29736.7	0.000000	0.000000	6.983099	-0.062785	NaN	0.000000	0.001640	0.001701	28.0807	0.073094	0.002078	35.1735	-89.6918	-168.36	-0.013521	0.982090	-0.133167	-0.134455	-0.062785	35.1735	-0.131828	-8.268086	0.007594	NaN
388	1.000000	0.993426	7.36886e+06	-57689.1	1005.82	-29736.7	0.000000	0.000000	6.993152	0.065271	NaN	0.000000	0.001632	0.001697	28.0806	0.066434	0.002098	31.6623	-13.5209	15.4968	0.042624	0.992026	-0.123119	-0.124519	0.065271	31.6623	-0.124665	-5.989162	-0.010898	NaN
388	1.000000	1.003388	7.36886e+06	-57689.1	1005.82	-29736.7	0.000000	0.000000	7.003112	-0.004206	NaN	0.000000	0.001605	0.001676	28.0807	0.054398	0.002002	27.1725	-4.883912	-165.114	-0.001763	1.002159	-0.113157	-0.114386	-0.004206	27.1725	-0.113040	-3.479655	0.001209	NaN
388	1.000000	1.013429	7.36886e+06	-57689.1	1005.82	-29736.7	0.000000	0.000000	7.013151	-0.031040	NaN	0.000000	0.001645	0.001679	28.0805	0.093160	0.001976	47.1499	-162.254	14.0102	-0.014399	1.011994	-0.103116	-0.104551	-0.031040	47.1499	-0.102622	-2.086898	0.014874	NaN
388	1.000000	1.023426	7.36886e+06	-57689.1	1005.82	-29736.7	0.000000	0.000000	7.023152	0.045019	NaN	0.000000	0.001617	0.001698	28.0805	0.040942	0.001982	20.6592	-25.0108	-162.894	0.016509	1.022092	-0.093119	-0.094453	0.045019	20.6592	-0.094753	-1.392461	-0.032331	NaN
388	1.000000	1.033445	7.36886e+06	-57689.1	1005.82	-29736.7	0.000000	0.000000	7.033167	-0.041491	NaN	0.000000	0.001617	0.001662	28.0804	0.102273	0.001985	51.5223	-131.806	14.5502	-0.031029	1.032071	-0.083100	-0.084473	-0.041491	51.5223	-0.082496	-0.713821	0.058125	NaN
388	1.000000	1.043451	7.36886e+06	-57689.1	1005.82	-29736.7	0.000000	0.000000	7.043175	-0.005377	NaN	0.000000	0.001641	0.001694	28.0805	0.053045	0.002035	26.0616	-156.464	-166.55	-0.025090	1.042078	-0.073093	-0.074467	-0.005377	26.0616	-0.072939	-0.408141	0.013174	NaN
388	1.000000	1.053453	7.36886e+06	-57689.1	1005.82	-29736.7	0.000000	0.000000	7.053176	-0.003100	NaN	0.000000	0.001656	0.001642	28.0791	0.013493	0.002064	6.536596	58.2612	14.4958	0.070445	1.052062	-0.063092	-0.064482	-0.003100	6.536596	-0.062737	-0.215427	0.014392	NaN
388	1.000000	1.063440	7.36886e+06	-57689.1	1005.82	-29736.7	0.000000	0.000000	7.063166	0.045118	NaN	0.000000	0.001629	0.001646	28.0791	0.118355	0.001988	59.5253	176.508	-165.15	0.011330	1.062137	-0.053105	-0.054408	0.045118	59.5253	-0.053673	-0.117621	-0.383589	NaN
388	1.000000	1.073437	7.36886e+06	-57689.1	1005.82	-29736.7	0.000000	0.000000	7.073160	-0.025928	NaN	0.000000	0.001604	0.001644	28.0791	0.029627	0.002002	14.7972	-3.958040	15.3865	-0.030144	1.072054	-0.043108	-0.044491	-0.025928	14.7972	-0.041793	-0.051282	0.505600	NaN
388	1.000000	1.083433	7.36886e+06	-57689.1	1005.82	-29736.7	0.000000	0.000000	7.083158	0.031329	NaN	0.000000	0.001583	0.001657	28.0793	0.065266	0.002032	32.1176	109.275	-164.738	-0.035973	1.082168	-0.033112	-0.034377	0.031329	32.1176	-0.033844	-0.029622	-1.057649	NaN
388	1.000000	1.093446	7.36886e+06	-57689.1	1005.82	-29736.7	0.000000	0.000000	7.093168	-0.024652	NaN	0.000000	0.001601	0.001659	28.0791	0.058286	0.002066	28.2101	146.499	16.1528	0.023756	1.092046	-0.023099	-0.024499	-0.024652	28.2101	-0.022444	-0.014494	1.700842	NaN
388	1.000000	1.103426	7.36886e+06	-57689.1	1005.82	-29736.7	0.000000	0.000000	7.103150	0.015502	NaN	0.000000	0.001602	0.001653	28.0794	0.050662	0.001925	26.3199	146.34	-162.742	-0.017574	1.102088	-0.013119	-0.014456	0.015502	26.3199	-0.013561	-0.008427	-1.839526	NaN
388	1.000000	1.113464	7.36886e+06	-57689.1	1005.82	-29736.7	0.000000	0.000000	7.113190	0.042876	NaN	0.000000	0.001645	0.001595	28.0791	0.036994	0.002029	18.2336	160.722	14.5411	0.046032	1.112133	-0.003081	-0.004412	0.042876	18.2336	-0.004844	-0.003319	-12.9202	NaN
388	1.000000	1.123443	7.36886e+06	-57689.1	1005.82	-29736.7	0.000000	0.000000	7.123301	3.267887	NaN	0.000000	0.001639	0.001653	28.0799	3.781125	0.001771	2135.09	10.3849	-167.206	1.913592	1.122185	0.006898	0.005640	3.267887	2135.09	0.005750	0.004829	676.765	28072.1
388	2.000000	1.130519	7.36886e+06	-57689.1	1005.82	-29736.7	0.000000	0.000000	7.130621	9.197001	NaN	0.000000	0.001611	0.001648	28.0791	9.375820	0.001574	5957.88	7.372261	10.1023	8.831158	1.130172	0.013974	0.013627	9.197001	5957.88	0.012817	0.012483	736.763	48719.8
388	2.000000	1.133004	7.36886e+06	-57689.1	1005.82	-29736.7	0.000000	0.000000	7.133177	10.9303	NaN	0.000000	0.001603	0.001672	28.0796	11.7034	0.001745	6705.14	15.0242	-179.488	10.8507	1.132674	0.016459	0.016129	10.9303	6705.14	0.015236	0.015602	700.583	49045.1
388	2.000000	1.135462	7.36886e+06	-57689.1	1005.82	-29736.7	0.000000	0.000000	7.135739	13.4631	NaN	0.000000	0.001627	0.001653	28.0792	14.0152	0.001726	8120.9	13.2529	-0.319106	12.5587	1.135078	0.018917	0.018533	13.4631	8120.9	0.017674	0.019018	707.922	53801.9
388	2.000000	1.137929	7.36886e+06	-57689.1	1005.82	-29736.7	0.000000	0.000000	7.138380	17.6826	NaN	0.000000	0.001610	0.001653	28.0802	17.292	0.001782	9702.93	8.308379	-176.753	17.2405	1.137697	0.021384	0.021153	17.6826	9702.93	0.020017	0.022569	783.482	59008.9
388	2.000000	1.140459	7.36886e+06	-57689.1	1005.82	-29736.7	0.000000	0.000000	7.141082	21.8483	NaN	0.000000	0.001623	0.001662	28.0793	19.6206	0.001760	11147.7	7.910761	2.886273	21.1948	1.140038	0.023915	0.023493	21.8483	11147.7	0.022445	0.026530	823.524	62529.7
388	2.000000	1.142906	7.36886e+06	-57689.1	1005.82	-29736.7	0.000000	0.000000	7.143758	27.4207	NaN	0.000000	0.001598	0.001648	28.0797	21.3479	0.001688	12647.9	3.417062	-174.69	25.735	1.142586	0.026362	0.026042	27.4207	12647.9	0.024736	0.030536	897.965	66127.6
388	2.000000	1.145393	7.36886e+06	-57689.1	1005.82	-29736.7	0.000000	0.000000	7.146452	32.4705	NaN	0.000000	0.001651	0.001658	28.0806	24.0262	0.001768	13589.1	2.963462	4.482155	30.4155	1.145044	0.028848	0.028500	32.4705	13589.1	0.027056	0.034862	931.403	66494.7
388	2.000000	1.147908	7.36886e+06	-57689.1	1005.82	-29736.7	0.000000	0.000000	7.149086	35.3421	NaN	0.000000	0.001663	0.001656	28.0808	27.3067	0.001901	14362.2	7.698165	-179.454	33.221	1.147663	0.031363	0.031118	35.3421	14362.2	0.029517	0.039749	889.128	65815.7
388	2.000000	1.150417	7.36886e+06	-57689.1	1005.82	-29736.7	0.000000	0.000000	7.151956	44.1354	NaN	0.000000	0.001625	0.001648	28.0805	28.3515	0.001736	16331.2	4.659824	3.575698	42.9151	1.150060	0.033872	0.033515	44.1354	16331.2	0.031845	0.044654	988.376	70608.8
388	2.000000	1.152863	7.36886e+06	-57689.1	1005.82	-29736.7	0.000000	0.000000	7.154681	50.9006	NaN	0.000000	0.001595	0.001649	28.0807	30.4787	0.001628	18724.4	0.366397	-175.78	48.1086	1.152593	0.036318	0.036048	50.9006	18724.4	0.034279	0.050081	1016.37	76444.3
388	2.000000	1.155409	7.36886e+06	-57689.1	1005.82	-29736.7	0.000000	0.000000	7.157421	55.6156	NaN	0.000000	0.001626	0.001638	28.0809	33.2168	0.001759	18883.9	3.939743	1.307458	54.6468	1.155111	0.038864	0.038566	55.6156	18883.9	0.036655	0.055671	999.013	73122.7
388	2.000000	1.157863	7.36886e+06	-57689.1	1005.82	-29736.7	0.000000	0.000000	7.160090	60.8349	NaN	0.000000	0.001594	0.001658	28.0808	36.016	0.001853	19435.2	5.888192	-179.679	60.4894	1.157573	0.041318	0.041028	60.8349	19435.2	0.038971	0.061396	990.866	71662.7
388	2.000000	1.160373	7.36886e+06	-57689.1	1005.82	-29736.7	0.000000	0.000000	7.162943	69.196	NaN	0.000000	0.001606	0.001622	28.0805	37.9652	0.001822	20836.9	4.430891	0.284273	66.4262	1.159971	0.043828	0.043426	69.196	20836.9	0.041337	0.067530	1024.68	73258.7
388	2.000000	1.162885	7.36886e+06	-57689.1	1005.82	-29736.7	0.000000	0.000000	7.165728	75.8139	NaN	0.000000	0.001579	0.001643	28.0807	40.2144	0.001885	21338.2	8.598109	176.72	75.3315	1.162512	0.046340	0.045967	75.8139	21338.2	0.043675	0.073871	1026.29	71728.8
388	2.000000	1.165350	7.36886e+06	-57689.1	1005.82	-29736.7	0.000000	0.000000	7.168557	84.6819	NaN	0.000000	0.001636	0.001673	28.0807	42.8757	0.001835	23362.7	4.929230	-1.744680	81.8158	1.165100	0.048805	0.048555	84.6819	23362.7	0.046086	0.080701	1049.33	75137.6
388	2.000000	1.167870	7.36886e+06	-57689.1	1005.82	-29736.7	0.000000	0.000000	7.171576	96.7808	NaN	0.000000	0.001643	0.001623	28.0813	45.4382	0.001753	25925.6	7.007128	175.326	95.4251	1.167548	0.051325	0.051003	96.7808	25925.6	0.048526	0.087910	1100.9	79888.2
388	2.000000	1.170407	7.36886e+06	-57689.1	1005.82	-29736.7	0.000000	0.000000	7.174560	107.662	NaN	0.000000	0.001652	0.001663	28.0807	47.3469	0.001785	26531.8	7.485745	-4.776101	105.579	1.170051	0.053862	0.053506	107.662	26531.8	0.050819	0.094960	1133.76	78662.6
388	2.000000	1.172832	7.36886e+06	-57689.1	1005.82	-29736.7	0.000000	0.000000	7.177455	119.074	NaN	0.000000	0.001583	0.001636	28.0807	48.5408	0.001676	28970.3	3.359826	178.282	118.41	1.172514	0.056287	0.055969	119.074	28970.3	0.053204	0.102573	1160.87	82643.6
388	2.000000	1.175366	7.36886e+06	-57689.1	1005.82	-29736.7	0.000000	0.000000	7.180217	124.629	NaN	0.000000	0.001615	0.001683	28.0806	52.5687	0.001780	29527.3	6.150757	-4.734866	122.108	1.174979	0.058821	0.058434	124.629	29527.3	0.055655	0.110691	1125.92	81085.3
388	2.000000	1.177871	7.36886e+06	-57689.1	1005.82	-29736.7	0.000000	0.000000	7.183199	136.231	NaN	0.000000	0.001623	0.001650	28.0815	54.2657	0.001808	30019.4	4.258842	177.15	135.446	1.177582	0.061326	0.061037	136.231	30019.4	0.057922	0.118463	1149.99	79686.5
388	2.000000	1.180415	7.36886e+06	-57689.1	1005.82	-29736.7	0.000000	0.000000	7.186136	145.775	NaN	0.000000	0.001623	0.001639	28.0792	55.5458	0.001739	31941.3	2.762764	-2.049966	145.044	1.180074	0.063870	0.063529	145.775	31941.3	0.060447	0.127416	1144.09	81754.9
388	2.000000	1.182833	7.36886e+06	-57689.1	1005.82	-29736.7	0.000000	0.000000	7.189052	157.867	NaN	0.000000	0.001640	0.001648	28.0794	58.3477	0.001876	31104.4	4.509792	176.775	157.041	1.182518	0.066288	0.065973	157.867	31104.4	0.062481	0.134856	1170.64	77385.8
388	2.000000	1.185331	7.36886e+06	-57689.1	1005.82	-29736.7	0.000000	0.000000	7.192070	170.515	NaN	0.000000	0.001622	0.001638	28.0793	60.9596	0.001913	31864.2	4.855437	-3.096089	167.445	1.184935	0.068786	0.068390	170.515	31864.2	0.064772	0.143475	1188.46	76857.7
388	2.000000	1.187800	7.36886e+06	-57689.1	1005.82	-29736.7	0.000000	0.000000	7.195067	183.331	NaN	0.000000	0.001607	0.001674	28.0792	63.7329	0.001825	34927.1	4.306612	175.968	180.537	1.187540	0.071255	0.070995	183.331	34927.1	0.067319	0.153351	1195.5	81487.6
388	2.000000	1.190376	7.36886e+06	-57689.1	1005.82	-29736.7	0.000000	0.000000	7.198260	198.34	NaN	0.000000	0.001637	0.001635	28.079	65.3841	0.001905	34328.3	4.394323	-3.446780	195.988	1.189940	0.073831	0.073395	198.34	34328.3	0.069498	0.162051	1223.94	77911.3
388	2.000000	1.192786	7.36886e+06	-57689.1	1005.82	-29736.7	0.000000	0.000000	7.201162	210.28	NaN	0.000000	0.001649	0.001666	28.0794	67.7249	0.001863	36359.5	7.118589	172.711	206.03	1.192473	0.076242	0.075928	210.28	36359.5	0.071904	0.171919	1223.13	80117.8
388	2.000000	1.195302	7.36886e+06	-57689.1	1005.82	-29736.7	0.000000	0.000000	7.204552	231.546	NaN	0.000000	0.001638	0.001655	28.0791	70.0646	0.001892	37031.6	3.301040	-2.797416	227.104	1.194969	0.078757	0.078424	231.546	37031.6	0.074067	0.181026	1279.08	79519.8
388	2.000000	1.197888	7.36886e+06	-57689.1	1005.82	-29736.7	0.000000	0.000000	7.207605	242.875	NaN	0.000000	0.001659	0.001626	28.079	72.165	0.001782	40505.7	2.617473	176.306	244.954	1.197607	0.081343	0.081062	242.875	40505.7	0.076846	0.193047	1258.12	84228.3
388	2.000000	1.200442	7.36886e+06	-57689.1	1005.82	-29736.7	0.000000	0.000000	7.211035	264.179	NaN	0.000000	0.001675	0.001587	28.079	73.3662	0.001704	43045	3.260072	-4.445121	266.614	1.199914	0.083897	0.083369	264.179	43045	0.079294	0.203935	1295.41	87086.3
388	2.000000	1.202783	7.36886e+06	-57689.1	1005.82	-29736.7	0.000000	0.000000	7.214130	282.487	NaN	0.000000	0.001650	0.001607	28.0793	75.6384	0.001741	43438.7	3.177019	175.413	279.484	1.202520	0.086239	0.085975	282.487	43438.7	0.081361	0.213350	1324.06	85921.9
388	2.000000	1.205354	7.36886e+06	-57689.1	1005.82	-29736.7	0.000000	0.000000	7.217427	300.133	NaN	0.000000	0.001640	0.001611	28.0791	77.8816	0.001739	44786.2	3.221895	-4.715958	299.154	1.204983	0.088809	0.088438	300.133	44786.2	0.083783	0.224632	1336.11	86333.9
388	2.000000	1.207884	7.36886e+06	-57689.1	1005.82	-29736.7	0.000000	0.000000	7.220567	314.95	NaN	0.000000	0.001606	0.001630	28.0791	81.2	0.001792	45323.2	4.489106	172.97	316.48	1.207577	0.091339	0.091033	314.95	45323.2	0.086128	0.235810	1335.61	85273.2
388	2.000000	1.210339	7.36886e+06	-57689.1	1005.82	-29736.7	0.000000	0.000000	7.223711	331.704	NaN	0.000000	0.001624	0.001647	28.0789	82.3659	0.001664	49493.9	5.644340	-8.666035	329.435	1.210009	0.093795	0.093464	331.704	49493.9	0.088768	0.248704	1333.73	90674
388	2.000000	1.212881	7.36886e+06	-57689.1	1005.82	-29736.7	0.000000	0.000000	7.227196	354.619	NaN	0.000000	0.001615	0.001650	28.0805	84.8961	0.001810	46914.8	4.934022	172.667	357.272	1.212524	0.096336	0.095979	354.619	46914.8	0.090667	0.258177	1373.55	84357.6
388	2.000000	1.215312	7.36886e+06	-57689.1	1005.82	-29736.7	0.000000	0.000000	7.230499	375.82	NaN	0.000000	0.001680	0.001634	28.0801	87.4587	0.001784	49026.9	6.777771	-9.105044	374.125	1.214893	0.098767	0.098348	375.82	49026.9	0.093018	0.270129	1391.26	86183
388	2.000000	1.217871	7.36886e+06	-57689.1	1005.82	-29736.7	0.000000	0.000000	7.233812	394.143	NaN	0.000000	0.001679	0.001624	28.0805	90.5534	0.001855	48810.3	8.209166	169.065	393.909	1.217579	0.101327	0.101035	394.143	48810.3	0.095270	0.281819	1398.57	84003.9
388	2.000000	1.220324	7.36886e+06	-57689.1	1005.82	-29736.7	0.000000	0.000000	7.237088	414.163	NaN	0.000000	0.001676	0.001662	28.0803	91.415	0.001933	47292.6	4.331771	-6.692234	413.318	1.220040	0.103779	0.103495	414.163	47292.6	0.097211	0.292076	1418	79950
388	2.000000	1.222833	7.36886e+06	-57689.1	1005.82	-29736.7	0.000000	0.000000	7.240558	437.489	NaN	0.000000	0.001684	0.001615	28.0804	92.186	0.001828	50417.2	2.566954	174.577	437.555	1.222482	0.106289	0.105937	437.489	50417.2	0.099781	0.305923	1430.06	83281
388	2.000000	1.225346	7.36886e+06	-57689.1	1005.82	-29736.7	0.000000	0.000000	7.243915	458.009	NaN	0.000000	0.001691	0.001636	28.0802	94.097	0.001747	53847.6	3.379730	-6.119943	455.7	1.224901	0.108802	0.108356	458.009	53847.6	0.102422	0.320471	1429.17	86905.1
388	2.000000	1.227780	7.36886e+06	-57689.1	1005.82	-29736.7	0.000000	0.000000	7.247238	479.631	NaN	0.000000	0.001678	0.001606	28.0803	97.5448	0.001827	53379	4.374680	172.472	477.645	1.227555	0.111235	0.111010	479.631	53379	0.104496	0.332112	1444.19	84625.6