File: remote_trans/data/nanoindenter/0828-1/data/Data_2025-08-06,11h17m57s/2025-07-22_16-23-58_1_125.txt
2025-07-22, 16:23:58, 1
Index	Phase	Displacement	Time	Pos X	Pos Y	Pos Z	Rot A	Rot B	Piezo Z	Force A	Force B	Gripper	Voltage A	Voltage B	Temperature	Amplitude force	Amplitude pos	Stiffness	Phase shift	Phase excitation	Force A raw	Displacement raw	HMax	HMax raw	Real Force	Real Stiffness	Contact Depth	Area	Hardness	Reduced Mod.
[#]	[#]	[um]	[s]	[um]	[um]	[um]	[m°]	[m°]	[um]	[uN]	[uN]	[V]	[V]	[V]	[°C]	[uN]	[um]	[N/m]	[°]	[°]	[uN]	[um]	[um]	[um]	[uN]	[N/m]	[um]	[um^2]	[MPa]	[MPa]
125	1.000000	0.002667	7.36626e+06	-44889.1	955.819	-29775	0.000000	0.000000	6.002824	-0.022554	NaN	0.000000	0.001538	0.001810	28.1243	0.053791	0.001022	52.6484	155.758	-161.401	-0.010066	0.001399	-0.967425	-0.968693	-0.022554	52.6484	-0.967104	-8.177752E+12	2.757979E-15	NaN
125	1.000000	0.010640	7.36626e+06	-44889.1	955.818	-29775	0.000000	0.000000	6.010799	0.013785	NaN	0.000000	0.001544	0.001758	28.124	0.034764	0.001021	34.0578	-12.1269	-165.521	0.025326	0.009257	-0.959452	-0.960835	0.013785	34.0578	-0.959756	-6.509899E+12	-2.117613E-15	NaN
125	1.000000	0.018605	7.36626e+06	-44889.1	955.818	-29775	0.000000	0.000000	6.018763	-0.012255	NaN	0.000000	0.001514	0.001768	28.1259	0.092063	0.001746	52.7335	174.288	-163.466	0.020055	0.017294	-0.951487	-0.952798	-0.012255	52.7335	-0.951312	-5.008721E+12	2.446700E-15	NaN
125	1.000000	0.026642	7.36626e+06	-44889.1	955.819	-29775	0.000000	0.000000	6.026800	0.002355	NaN	0.000000	0.001585	0.001814	28.1251	0.075344	0.001826	41.2686	-154.94	-164.064	0.059877	0.025318	-0.943450	-0.944774	0.002355	41.2686	-0.943493	-3.928816E+12	-5.993759E-16	NaN
125	1.000000	0.034584	7.36626e+06	-44889.1	955.816	-29775	0.000000	0.000000	6.034742	-0.007410	NaN	0.000000	0.001557	0.001807	28.1255	0.004584	0.001933	2.370851	146.389	-163.166	-0.078743	0.033297	-0.935508	-0.936795	-0.007410	2.370851	-0.933164	-2.850342E+12	2.599675E-15	NaN
125	1.000000	0.042588	7.36626e+06	-44889.1	955.818	-29775	0.000000	0.000000	6.042745	-0.037000	NaN	0.000000	0.001553	0.001778	28.1255	0.087450	0.001946	44.9469	-38.4237	-164.731	-0.037436	0.041311	-0.927504	-0.928781	-0.037000	44.9469	-0.926886	-2.345155E+12	1.577706E-14	NaN
125	1.000000	0.050597	7.36626e+06	-44889.1	955.818	-29775	0.000000	0.000000	6.050756	0.014717	NaN	0.000000	0.001556	0.001771	28.126	0.165434	0.001850	89.4463	-164.487	-164.904	0.017349	0.049290	-0.919495	-0.920802	0.014717	89.4463	-0.919618	-1.870917E+12	-7.866250E-15	NaN
125	1.000000	0.058594	7.36626e+06	-44889.1	955.818	-29775	0.000000	0.000000	6.058753	5.369701E-5	NaN	0.000000	0.001527	0.001779	28.1247	0.106586	0.001905	55.961	50.7304	-163.787	-0.016399	0.057272	-0.911498	-0.912820	5.369701E-5	55.961	-0.911499	-1.453475E+12	-3.694389E-17	NaN
125	1.000000	0.066593	7.36626e+06	-44889.1	955.818	-29775	0.000000	0.000000	6.066752	-0.002634	NaN	0.000000	0.001545	0.001741	28.1246	0.024785	0.001950	12.7096	-109.614	-160.708	8.662220E-5	0.065244	-0.903499	-0.904848	-0.002634	12.7096	-0.903344	-1.127828E+12	2.335241E-15	NaN
125	1.000000	0.074620	7.36626e+06	-44889.1	955.817	-29775	0.000000	0.000000	6.074780	0.040625	NaN	0.000000	0.001559	0.001771	28.1248	0.059901	0.001944	30.8066	-121.031	-166.711	0.021070	0.073230	-0.895472	-0.896862	0.040625	30.8066	-0.896461	-9.104238E+11	-4.462250E-14	NaN
125	1.000000	0.082625	7.36626e+06	-44889.1	955.818	-29775	0.000000	0.000000	6.082784	1.168097E-5	NaN	0.000000	0.001553	0.001785	28.1249	0.044705	0.002229	20.0537	-23.1554	-163.402	0.084498	0.081279	-0.887467	-0.888813	1.168097E-5	20.0537	-0.887467	-6.881399E+11	-1.697471E-17	NaN
125	1.000000	0.090623	7.36626e+06	-44889.1	955.818	-29775	0.000000	0.000000	6.090781	-0.029302	NaN	0.000000	0.001560	0.001793	28.1253	0.043184	0.002088	20.6796	-120.86	-166.339	-0.036619	0.089318	-0.879469	-0.880774	-0.029302	20.6796	-0.878406	-5.189826E+11	5.646056E-14	NaN
125	1.000000	0.098597	7.36626e+06	-44889.1	955.818	-29775	0.000000	0.000000	6.098758	0.049316	NaN	0.000000	0.001545	0.001784	28.1258	0.023691	0.002074	11.4209	56.3957	-163.424	0.026786	0.097308	-0.871495	-0.872784	0.049316	11.4209	-0.874733	-4.628907E+11	-1.065395E-13	NaN
125	1.000000	0.106610	7.36626e+06	-44889.1	955.819	-29775	0.000000	0.000000	6.106769	0.005428	NaN	0.000000	0.001542	0.001757	28.1266	0.056940	0.001988	28.6458	48.0587	-165.193	-0.027911	0.105317	-0.863482	-0.864775	0.005428	28.6458	-0.863624	-3.274663E+11	-1.657554E-14	NaN
125	1.000000	0.114597	7.36626e+06	-44889.1	955.819	-29775	0.000000	0.000000	6.114758	0.043438	NaN	0.000000	0.001551	0.001755	28.1247	0.035798	0.001952	18.3401	96.8856	-162.452	0.013171	0.113298	-0.855495	-0.856794	0.043438	18.3401	-0.857271	-2.686477E+11	-1.616912E-13	NaN
125	1.000000	0.122605	7.36626e+06	-44889.1	955.818	-29775	0.000000	0.000000	6.122763	-0.015052	NaN	0.000000	0.001534	0.001805	28.1251	0.094994	0.002071	45.8713	-168.761	-168.069	0.002027	0.121355	-0.847487	-0.848737	-0.015052	45.8713	-0.847241	-1.965046E+11	7.659691E-14	NaN
125	1.000000	0.130597	7.36626e+06	-44889.1	955.818	-29775	0.000000	0.000000	6.130758	0.077239	NaN	0.000000	0.001540	0.001807	28.125	0.057689	0.001903	30.3179	25.9513	-164.024	0.019915	0.129340	-0.839496	-0.840752	0.077239	30.3179	-0.841406	-1.638112E+11	-4.715116E-13	NaN
125	1.000000	0.138612	7.36626e+06	-44889.1	955.818	-29775	0.000000	0.000000	6.138770	-0.011478	NaN	0.000000	0.001546	0.001776	28.1233	0.035956	0.001966	18.291	140.176	-162.713	-0.056753	0.137304	-0.831480	-0.832788	-0.011478	18.291	-0.831009	-1.184303E+11	9.691453E-14	NaN
125	1.000000	0.146661	7.36626e+06	-44889.1	955.818	-29775	0.000000	0.000000	6.146820	0.019465	NaN	0.000000	0.001523	0.001775	28.1236	0.124380	0.001887	65.9046	11.3771	-164.574	0.015170	0.145307	-0.823432	-0.824785	0.019465	65.9046	-0.823653	-9.413377E+10	-2.067801E-13	NaN
125	1.000000	0.154639	7.36626e+06	-44889.1	955.818	-29775	0.000000	0.000000	6.154798	0.010563	NaN	0.000000	0.001535	0.001768	28.124	0.014036	0.001989	7.055957	-91.3128	-165.581	0.022009	0.153370	-0.815453	-0.816722	0.010563	7.055957	-0.816576	-7.547034E+10	-1.399635E-13	NaN
125	1.000000	0.162625	7.36626e+06	-44889.1	955.819	-29775	0.000000	0.000000	6.162786	0.058990	NaN	0.000000	0.001555	0.001788	28.1241	0.115757	0.002036	56.8542	-42.1108	-163.222	0.088412	0.161360	-0.807467	-0.808732	0.058990	56.8542	-0.808246	-5.817917E+10	-1.013929E-12	NaN
125	1.000000	0.170626	7.36626e+06	-44889.1	955.819	-29775	0.000000	0.000000	6.170785	0.030180	NaN	0.000000	0.001521	0.001795	28.124	0.062032	0.001956	31.7079	130.311	-165.289	-0.004826	0.169334	-0.799466	-0.800758	0.030180	31.7079	-0.800180	-4.521796E+10	-6.674401E-13	NaN
125	1.000000	0.178647	7.36626e+06	-44889.1	955.818	-29775	0.000000	0.000000	6.178805	0.005730	NaN	0.000000	0.001547	0.001790	28.1252	0.055011	0.001905	28.8842	-38.9217	-166.047	0.023908	0.177319	-0.791445	-0.792774	0.005730	28.8842	-0.791594	-3.457280E+10	-1.657371E-13	NaN
125	1.000000	0.186637	7.36626e+06	-44889.1	955.818	-29775	0.000000	0.000000	6.186796	0.009107	NaN	0.000000	0.001551	0.001780	28.1249	0.071090	0.001996	35.6165	123.089	-165.618	-0.019585	0.185314	-0.783455	-0.784779	0.009107	35.6165	-0.783647	-2.696380E+10	-3.377466E-13	NaN
125	1.000000	0.194672	7.36626e+06	-44889.1	955.818	-29775	0.000000	0.000000	6.194832	0.014040	NaN	0.000000	0.001544	0.001811	28.1251	0.056480	0.001858	30.4032	108.982	-169.754	0.116507	0.193329	-0.775420	-0.776763	0.014040	30.4032	-0.775766	-2.107127E+10	-6.663238E-13	NaN
125	1.000000	0.202650	7.36626e+06	-44889.1	955.818	-29775	0.000000	0.000000	6.202808	-0.010245	NaN	0.000000	0.001545	0.001809	28.1245	0.080852	0.002081	38.8612	-71.4561	-164.155	-0.006194	0.201379	-0.767442	-0.768713	-0.010245	38.8612	-0.767244	-1.613751E+10	6.348407E-13	NaN
125	1.000000	0.210664	7.36626e+06	-44889.1	955.818	-29775	0.000000	0.000000	6.210822	-0.002043	NaN	0.000000	0.001543	0.001792	28.1252	0.115841	0.002015	57.4972	-33.0412	-161.228	0.020031	0.209374	-0.759428	-0.760718	-0.002043	57.4972	-0.759402	-1.262301E+10	1.618825E-13	NaN
125	1.000000	0.218632	7.36626e+06	-44889.1	955.818	-29775	0.000000	0.000000	6.218792	0.050218	NaN	0.000000	0.001519	0.001757	28.1246	0.047145	0.002066	22.8226	-0.872571	-164.383	-0.001946	0.217324	-0.751461	-0.752768	0.050218	22.8226	-0.753111	-1.036482E+10	-4.845012E-12	NaN
125	1.000000	0.226650	7.36626e+06	-44889.1	955.819	-29775	0.000000	0.000000	6.226808	-0.013904	NaN	0.000000	0.001539	0.001822	28.1243	0.018436	0.001868	9.871653	7.900208	-165.608	-0.026658	0.225369	-0.743442	-0.744723	-0.013904	9.871653	-0.742386	-7.405366E+9	1.877577E-12	NaN
125	1.000000	0.234672	7.36626e+06	-44889.1	955.818	-29775	0.000000	0.000000	6.234831	0.001305	NaN	0.000000	0.001558	0.001764	28.1248	0.032375	0.001873	17.2807	49.2643	-161.882	0.006292	0.233345	-0.735420	-0.736748	0.001305	17.2807	-0.735477	-5.962653E+9	-2.188098E-13	NaN
125	1.000000	0.242673	7.36626e+06	-44889.1	955.819	-29775	0.000000	0.000000	6.242832	-0.001766	NaN	0.000000	0.001574	0.001829	28.1239	0.210675	0.002033	103.651	39.1626	-164.008	-0.036690	0.241389	-0.727419	-0.728703	-0.001766	103.651	-0.727406	-4.628612E+9	3.815701E-13	NaN
125	1.000000	0.250668	7.36626e+06	-44889.1	955.819	-29775	0.000000	0.000000	6.250825	-0.042920	NaN	0.000000	0.001526	0.001788	28.1252	0.076102	0.002119	35.9211	156.374	-166.316	-0.004828	0.249328	-0.719424	-0.720764	-0.042920	35.9211	-0.718528	-3.502682E+9	1.225356E-11	NaN
125	1.000000	0.258675	7.36626e+06	-44889.1	955.818	-29775	0.000000	0.000000	6.258835	0.030902	NaN	0.000000	0.001536	0.001796	28.1262	0.068906	0.002053	33.5575	131.993	-165.528	0.005771	0.257345	-0.711417	-0.712747	0.030902	33.5575	-0.712108	-2.862932E+9	-1.079386E-11	NaN
125	1.000000	0.266723	7.36626e+06	-44889.1	955.818	-29775	0.000000	0.000000	6.266882	0.007144	NaN	0.000000	0.001514	0.001767	28.1264	0.006355	0.001962	3.238796	131.89	-163.623	0.063534	0.265423	-0.703369	-0.704669	0.007144	3.238796	-0.705023	-2.291505E+9	-3.117490E-12	NaN
125	1.000000	0.274667	7.36626e+06	-44889.1	955.818	-29775	0.000000	0.000000	6.274822	-0.097719	NaN	0.000000	0.001530	0.001796	28.1267	0.110325	0.002021	54.5936	-35.2175	-164.514	-0.025322	0.273375	-0.695425	-0.696717	-0.097719	54.5936	-0.694083	-1.624434E+9	6.015554E-11	NaN
125	1.000000	0.282716	7.36626e+06	-44889.1	955.818	-29775	0.000000	0.000000	6.282876	0.028030	NaN	0.000000	0.001564	0.001793	28.1266	0.060529	0.002095	28.8928	106.311	-162.657	0.043183	0.281377	-0.687376	-0.688715	0.028030	28.8928	-0.688103	-1.345844E+9	-2.082736E-11	NaN
125	1.000000	0.290715	7.36626e+06	-44889.1	955.818	-29775	0.000000	0.000000	6.290874	0.008478	NaN	0.000000	0.001565	0.001778	28.1269	0.034506	0.002125	16.2403	160.33	-164.512	0.027828	0.289402	-0.679377	-0.680690	0.008478	16.2403	-0.679768	-1.035225E+9	-8.189544E-12	NaN
125	1.000000	0.298702	7.36626e+06	-44889.1	955.818	-29775	0.000000	0.000000	6.298863	0.039135	NaN	0.000000	0.001565	0.001777	28.125	0.025804	0.002129	12.1212	-124.01	-167.098	0.039276	0.297337	-0.671390	-0.672756	0.039135	12.1212	-0.673811	-8.581137E+8	-4.560569E-11	NaN
125	1.000000	0.306728	7.36626e+06	-44889.1	955.817	-29775	0.000000	0.000000	6.306887	-8.831902E-5	NaN	0.000000	0.001614	0.001776	28.1263	0.035285	0.001882	18.7489	55.9199	-165.292	-0.046373	0.305402	-0.663364	-0.664690	-8.831902E-5	18.7489	-0.663360	-6.172940E+8	1.430745E-13	NaN
125	1.000000	0.314725	7.36626e+06	-44889.1	955.818	-29775	0.000000	0.000000	6.314883	-0.011947	NaN	0.000000	0.001603	0.001765	28.1253	0.043941	0.002015	21.8051	-17.5419	-160.506	-0.052769	0.313393	-0.655368	-0.656699	-0.011947	21.8051	-0.654957	-4.735565E+8	2.522817E-11	NaN
125	1.000000	0.322673	7.36626e+06	-44889.1	955.818	-29775	0.000000	0.000000	6.322830	-0.032159	NaN	0.000000	0.001620	0.001780	28.1252	0.025340	0.001978	12.8139	-5.353374	-165.686	0.010594	0.321403	-0.647419	-0.648690	-0.032159	12.8139	-0.645537	-3.517585E+8	9.142487E-11	NaN
125	1.000000	0.330717	7.36626e+06	-44889.1	955.818	-29775	0.000000	0.000000	6.330876	0.014094	NaN	0.000000	0.001610	0.001783	28.1261	0.032011	0.002062	15.5216	154.518	-164.023	0.084431	0.329396	-0.639375	-0.640696	0.014094	15.5216	-0.640056	-2.958395E+8	-4.764049E-11	NaN
125	1.000000	0.338695	7.36626e+06	-44889.1	955.818	-29775	0.000000	0.000000	6.338856	0.054866	NaN	0.000000	0.001591	0.001807	28.126	0.066250	0.002047	32.3586	86.5692	-162.688	-0.007146	0.337381	-0.631397	-0.632711	0.054866	32.3586	-0.632669	-2.342436E+8	-2.342271E-10	NaN
125	1.000000	0.346737	7.36626e+06	-44889.1	955.818	-29775	0.000000	0.000000	6.346896	0.011003	NaN	0.000000	0.001604	0.001786	28.1268	0.063117	0.002077	30.3852	-62.4039	-162.358	0.008387	0.345345	-0.623355	-0.624747	0.011003	30.3852	-0.623627	-1.759843E+8	-6.252390E-11	NaN
125	1.000000	0.354708	7.36626e+06	-44889.1	955.818	-29775	0.000000	0.000000	6.354865	-0.029385	NaN	0.000000	0.001607	0.001796	28.1264	0.073254	0.001950	37.5726	-42.8913	-164.052	-0.105064	0.353429	-0.615385	-0.616663	-0.029385	37.5726	-0.614798	-1.330797E+8	2.208058E-10	NaN
125	1.000000	0.362712	7.36626e+06	-44889.1	955.818	-29775	0.000000	0.000000	6.362869	-0.055623	NaN	0.000000	0.001618	0.001800	28.1269	0.063640	0.001933	32.9239	-7.195269	-163.133	-0.070286	0.361394	-0.607380	-0.608698	-0.055623	32.9239	-0.606113	-1.010695E+8	5.503460E-10	NaN
125	1.000000	0.370748	7.36626e+06	-44889.1	955.818	-29775	0.000000	0.000000	6.370905	-0.056597	NaN	0.000000	0.001545	0.001770	28.1267	0.080747	0.001998	40.4141	21.0844	-164.857	0.076518	0.369433	-0.599344	-0.600659	-0.056597	40.4141	-0.598293	-7.887789E+7	7.175231E-10	NaN
125	1.000000	0.378717	7.36626e+06	-44889.1	955.818	-29775	0.000000	0.000000	6.378874	-0.029614	NaN	0.000000	0.001540	0.001787	28.1247	0.026799	0.002022	13.2566	158.716	-170.047	0.038450	0.377385	-0.591376	-0.592707	-0.029614	13.2566	-0.589700	-6.005262E+7	4.931282E-10	NaN
125	1.000000	0.386715	7.36626e+06	-44889.1	955.819	-29775	0.000000	0.000000	6.386874	0.019245	NaN	0.000000	0.001536	0.001774	28.1257	0.017274	0.002023	8.539410	128.438	-163.889	0.022828	0.385402	-0.583378	-0.584690	0.019245	8.539410	-0.585068	-5.183819E+7	-3.712515E-10	NaN
125	1.000000	0.394771	7.36626e+06	-44889.1	955.818	-29775	0.000000	0.000000	6.394930	0.011237	NaN	0.000000	0.001565	0.001777	28.1243	0.149385	0.001963	76.1122	-128.48	-162.08	0.044711	0.393435	-0.575321	-0.576657	0.011237	76.1122	-0.575432	-3.816431E+7	-2.944315E-10	NaN
125	1.000000	0.402772	7.36626e+06	-44889.1	955.818	-29775	0.000000	0.000000	6.402930	-0.016981	NaN	0.000000	0.001505	0.001796	28.1237	0.036958	0.002084	17.7318	26.646	-168.189	-0.018154	0.401396	-0.567320	-0.568696	-0.016981	17.7318	-0.566602	-2.881857E+7	5.892473E-10	NaN
125	1.000000	0.410765	7.36626e+06	-44889.1	955.818	-29775	0.000000	0.000000	6.410924	0.013966	NaN	0.000000	0.001519	0.001741	28.1243	0.100080	0.001828	54.7378	63.95	-166.024	0.030234	0.409457	-0.559327	-0.560635	0.013966	54.7378	-0.559519	-2.299961E+7	-6.072358E-10	NaN
125	1.000000	0.418754	7.36626e+06	-44889.1	955.819	-29775	0.000000	0.000000	6.418914	0.039372	NaN	0.000000	0.001500	0.001776	28.1249	0.030294	0.001993	15.2	75.6701	-163.902	0.012576	0.417413	-0.551338	-0.552679	0.039372	15.2	-0.553281	-1.885321E+7	-2.088370E-9	NaN
125	1.000000	0.426758	7.36626e+06	-44889.1	955.818	-29775	0.000000	0.000000	6.426914	-0.051562	NaN	0.000000	0.001528	0.001784	28.1243	0.069577	0.001870	37.199	-100.283	-162.618	-0.103111	0.425435	-0.543334	-0.544657	-0.051562	37.199	-0.542295	-1.327930E+7	3.882907E-9	NaN
125	1.000000	0.434733	7.36626e+06	-44889.1	955.818	-29775	0.000000	0.000000	6.434892	0.014832	NaN	0.000000	0.001505	0.001758	28.1247	0.053211	0.001969	27.0192	-94.4063	-163.19	-0.061610	0.433433	-0.535360	-0.536659	0.014832	27.0192	-0.535771	-1.078187E+7	-1.375660E-9	NaN
125	1.000000	0.442751	7.36626e+06	-44889.1	955.818	-29775	0.000000	0.000000	6.442909	-0.014667	NaN	0.000000	0.001541	0.001768	28.1244	0.064642	0.001968	32.8487	-160.161	-164.456	-0.031294	0.441491	-0.527341	-0.528601	-0.014667	32.8487	-0.527006	-8.14686e+06	1.800278E-9	NaN
125	1.000000	0.450747	7.36626e+06	-44889.1	955.818	-29775	0.000000	0.000000	6.450910	0.100645	NaN	0.000000	0.001526	0.001749	28.1247	0.014837	0.002071	7.165364	122.091	-163.935	0.045657	0.449445	-0.519345	-0.520647	0.100645	7.165364	-0.529879	-8.931e+06	-1.126920E-8	NaN
125	1.000000	0.458773	7.36626e+06	-44889.1	955.818	-29775	0.000000	0.000000	6.458933	0.036033	NaN	0.000000	0.001536	0.001807	28.1236	0.047740	0.001997	23.9062	-96.1667	-163.754	-0.027716	0.457466	-0.511319	-0.512626	0.036033	23.9062	-0.512449	-5.11122e+06	-7.049766E-9	NaN
125	1.000000	0.466771	7.36626e+06	-44889.1	955.817	-29775	0.000000	0.000000	6.466930	0.018060	NaN	0.000000	0.001525	0.001767	28.1235	0.145541	0.001911	76.1688	37.4186	-163.655	0.068012	0.465451	-0.503321	-0.504641	0.018060	76.1688	-0.503499	-3.83547e+06	-4.708749E-9	NaN
125	1.000000	0.474771	7.36626e+06	-44889.1	955.819	-29775	0.000000	0.000000	6.474929	-0.027233	NaN	0.000000	0.001515	0.001774	28.124	0.009080	0.002051	4.427689	-64.8554	-164.185	-0.015645	0.473465	-0.495321	-0.496627	-0.027233	4.427689	-0.490708	-2.54265e+06	1.071029E-8	NaN
125	1.000000	0.482782	7.36626e+06	-44889.1	955.818	-29775	0.000000	0.000000	6.482939	-0.020951	NaN	0.000000	0.001507	0.001800	28.1238	0.032639	0.001994	16.3688	79.7648	-161.981	0.006972	0.481424	-0.487310	-0.488668	-0.020951	16.3688	-0.486350	-2.20992e+06	9.480601E-9	NaN
125	1.000000	0.490775	7.36626e+06	-44889.1	955.818	-29775	0.000000	0.000000	6.490935	0.018808	NaN	0.000000	0.001570	0.001816	28.1237	0.058737	0.001890	31.0842	93.0813	-164.488	-0.025678	0.489427	-0.479317	-0.480666	0.018808	31.0842	-0.479771	-1.78779e+06	-1.052007E-8	NaN
125	1.000000	0.498781	7.36626e+06	-44889.1	955.818	-29775	0.000000	0.000000	6.498938	-0.041430	NaN	0.000000	0.001549	0.001772	28.1251	0.007386	0.001810	4.081893	113.833	-165.114	-0.018074	0.497506	-0.471311	-0.472586	-0.041430	4.081893	-0.463699	-1.06409e+06	3.893509E-8	NaN
125	1.000000	0.506814	7.36626e+06	-44889.1	955.818	-29775	0.000000	0.000000	6.506967	-0.119300	NaN	0.000000	0.001534	0.001786	28.1245	0.081000	0.001965	41.224	82.3018	-166.563	-0.106565	0.505445	-0.463279	-0.464647	-0.119300	41.224	-0.461108	-978561	1.219135E-7	NaN
125	1.000000	0.514794	7.36626e+06	-44889.1	955.819	-29775	0.000000	0.000000	6.514954	0.023642	NaN	0.000000	0.001534	0.001783	28.1247	0.148724	0.001990	74.7332	131.633	-165.937	0.002686	0.513484	-0.455298	-0.456608	0.023642	74.7332	-0.455535	-817042	-2.893570E-8	NaN
125	1.000000	0.522787	7.36626e+06	-44889.1	955.819	-29775	0.000000	0.000000	6.522946	0.026701	NaN	0.000000	0.001487	0.001801	28.1249	0.093083	0.002188	42.535	128.743	-164.055	0.115335	0.521485	-0.447305	-0.448607	0.026701	42.535	-0.447776	-635357	-4.202554E-8	NaN
125	1.000000	0.530812	7.36626e+06	-44889.1	955.819	-29775	0.000000	0.000000	6.530977	0.143956	NaN	0.000000	0.001553	0.001818	28.1266	0.088450	0.002005	44.1089	-162.067	-163.757	0.109235	0.529502	-0.439280	-0.440591	0.143956	44.1089	-0.441727	-522083	-2.757349E-7	NaN
125	1.000000	0.538802	7.36626e+06	-44889.1	955.818	-29775	0.000000	0.000000	6.538959	-0.044623	NaN	0.000000	0.001559	0.001823	28.1251	0.037774	0.001923	19.6395	72.3775	-160.038	-0.004031	0.537473	-0.431290	-0.432619	-0.044623	19.6395	-0.429586	-351728	1.268681E-7	NaN
125	1.000000	0.546809	7.36626e+06	-44889.1	955.818	-29775	0.000000	0.000000	6.546968	0.009532	NaN	0.000000	0.001544	0.001805	28.125	0.167440	0.002229	75.1212	164.351	-164.13	0.064427	0.545471	-0.423283	-0.424621	0.009532	75.1212	-0.423378	-287283	-3.317868E-8	NaN
125	1.000000	0.554801	7.36626e+06	-44889.1	955.817	-29775	0.000000	0.000000	6.554962	0.057349	NaN	0.000000	0.001530	0.001806	28.1254	0.057272	0.001893	30.2484	89.6115	-164.791	0.083519	0.553541	-0.415291	-0.416551	0.057349	30.2484	-0.416713	-231090	-2.481660E-7	NaN
125	1.000000	0.562814	7.36626e+06	-44889.1	955.818	-29775	0.000000	0.000000	6.562973	-0.002479	NaN	0.000000	0.001529	0.001823	28.1252	0.057084	0.002118	26.9581	123.293	-166.017	-0.114940	0.561517	-0.407278	-0.408575	-0.002479	26.9581	-0.407209	-169314	1.464238E-8	NaN
125	1.000000	0.570799	7.36626e+06	-44889.1	955.819	-29775	0.000000	0.000000	6.570957	-0.036599	NaN	0.000000	0.001538	0.001800	28.1252	0.058307	0.002165	26.9367	-88.6548	-163.304	-0.063277	0.569521	-0.399293	-0.400571	-0.036599	26.9367	-0.398274	-126290	2.897997E-7	NaN
125	1.000000	0.578819	7.36626e+06	-44889.1	955.818	-29775	0.000000	0.000000	6.578976	-0.028406	NaN	0.000000	0.001553	0.001812	28.1265	0.020349	0.001999	10.1782	-93.0406	-164.288	-0.031243	0.577516	-0.391273	-0.392576	-0.028406	10.1782	-0.389180	-93634.7	3.033680E-7	NaN
125	1.000000	0.586828	7.36626e+06	-44889.1	955.818	-29775	0.000000	0.000000	6.586985	-0.038189	NaN	0.000000	0.001562	0.001822	28.1267	0.021230	0.002002	10.6048	64.5897	-167.028	-0.001648	0.585510	-0.383264	-0.384582	-0.038189	10.6048	-0.380563	-70465.3	5.419578E-7	NaN
125	1.000000	0.594815	7.36626e+06	-44889.1	955.818	-29775	0.000000	0.000000	6.594976	0.062100	NaN	0.000000	0.001564	0.001775	28.1265	0.054144	0.002010	26.9383	-103.934	-162.208	0.044175	0.593504	-0.375277	-0.376588	0.062100	26.9383	-0.377006	-62647.7	-9.912588E-7	NaN
125	1.000000	0.602827	7.36626e+06	-44889.1	955.818	-29775	0.000000	0.000000	6.602986	-0.007718	NaN	0.000000	0.001567	0.001756	28.1267	0.058314	0.001957	29.7985	113.526	-168.866	0.057579	0.601489	-0.367265	-0.368603	-0.007718	29.7985	-0.367070	-45072.8	1.712406E-7	NaN
125	1.000000	0.610853	7.36626e+06	-44889.1	955.818	-29775	0.000000	0.000000	6.611011	-0.022145	NaN	0.000000	0.001536	0.001795	28.127	0.121022	0.001842	65.6897	117.614	-161.133	-0.026485	0.609507	-0.359239	-0.360585	-0.022145	65.6897	-0.358986	-34449.4	6.428179E-7	NaN
125	1.000000	0.618809	7.36626e+06	-44889.1	955.818	-29775	0.000000	0.000000	6.618968	-0.006426	NaN	0.000000	0.001599	0.001790	28.1258	0.054022	0.001939	27.8551	136.81	-162.551	-0.048297	0.617533	-0.351283	-0.352559	-0.006426	27.8551	-0.351110	-26491.5	2.425645E-7	NaN
125	1.000000	0.626831	7.36626e+06	-44889.1	955.819	-29775	0.000000	0.000000	6.626991	0.034451	NaN	0.000000	0.001583	0.001799	28.1256	0.070847	0.001910	37.0845	83.368	-163.056	0.020560	0.625510	-0.343261	-0.344582	0.034451	37.0845	-0.343958	-20854.1	-1.652005E-6	NaN
125	1.000000	0.634805	7.36626e+06	-44889.1	955.818	-29775	0.000000	0.000000	6.634965	0.038478	NaN	0.000000	0.001592	0.001786	28.1253	0.025828	0.001891	13.6561	94.593	-162.673	-0.005671	0.633555	-0.335287	-0.336537	0.038478	13.6561	-0.337400	-16735.5	-2.299208E-6	NaN
125	1.000000	0.642864	7.36626e+06	-44889.1	955.818	-29775	0.000000	0.000000	6.643024	0.036037	NaN	0.000000	0.001586	0.001774	28.1259	0.124652	0.002076	60.0312	120.611	-163.923	0.061923	0.641558	-0.327228	-0.328534	0.036037	60.0312	-0.327678	-12062.2	-2.987593E-6	NaN
125	1.000000	0.650856	7.36626e+06	-44889.1	955.818	-29775	0.000000	0.000000	6.651015	0.002452	NaN	0.000000	0.001537	0.001839	28.1252	0.154646	0.001972	78.4232	-90.1345	-164.58	-0.007833	0.649564	-0.319236	-0.320528	0.002452	78.4232	-0.319260	-9072.77	-2.703049E-7	NaN
125	1.000000	0.658836	7.36626e+06	-44889.1	955.818	-29775	0.000000	0.000000	6.658998	0.077438	NaN	0.000000	0.001513	0.001818	28.1264	0.026166	0.001969	13.2866	-62.7591	-165.497	0.155821	0.657546	-0.311256	-0.312547	0.077438	13.2866	-0.315627	-8020.55	-9.655001E-6	NaN
125	1.000000	0.666843	7.36626e+06	-44889.1	955.818	-29775	0.000000	0.000000	6.667002	0.017669	NaN	0.000000	0.001531	0.001810	28.1252	0.035653	0.002029	17.5711	-112.649	-162.68	0.008389	0.665546	-0.303249	-0.304546	0.017669	17.5711	-0.304003	-5397.09	-3.273880E-6	NaN
125	1.000000	0.674836	7.36626e+06	-44889.1	955.819	-29775	0.000000	0.000000	6.674993	-0.039257	NaN	0.000000	0.001484	0.001788	28.1253	0.056714	0.002094	27.0806	8.992506	-164.587	-0.069283	0.673555	-0.295256	-0.296537	-0.039257	27.0806	-0.294169	-3851.92	1.019165E-5	NaN
125	1.000000	0.682862	7.36626e+06	-44889.1	955.818	-29775	0.000000	0.000000	6.683019	-0.025337	NaN	0.000000	0.001528	0.001759	28.1253	0.117458	0.002055	57.1475	74.0756	-165.67	-0.024685	0.681483	-0.287231	-0.288609	-0.025337	57.1475	-0.286898	-2997.65	8.452265E-6	NaN
125	1.000000	0.690865	7.36626e+06	-44889.1	955.819	-29775	0.000000	0.000000	6.691020	-0.094641	NaN	0.000000	0.001520	0.001804	28.1251	0.166964	0.001989	83.9234	126.288	-164.663	-0.110955	0.689509	-0.279227	-0.280583	-0.094641	83.9234	-0.278381	-2231.18	4.241752E-5	NaN
125	1.000000	0.698872	7.36626e+06	-44889.1	955.818	-29775	0.000000	0.000000	6.699030	-0.021461	NaN	0.000000	0.001540	0.001812	28.1247	0.029996	0.002084	14.3936	-40.9135	-165.782	-0.028951	0.697518	-0.271220	-0.272574	-0.021461	14.3936	-0.270102	-1671.43	1.283971E-5	NaN
125	1.000000	0.706867	7.36626e+06	-44889.1	955.819	-29775	0.000000	0.000000	6.707026	0.012275	NaN	0.000000	0.001489	0.001780	28.1243	0.042407	0.002067	20.5199	-168.129	-167.047	0.025180	0.705520	-0.263225	-0.264572	0.012275	20.5199	-0.263674	-1333.94	-9.201948E-6	NaN
125	1.000000	0.714885	7.36626e+06	-44889.1	955.818	-29775	0.000000	0.000000	6.715041	-0.054535	NaN	0.000000	0.001531	0.001790	28.1244	0.047398	0.002014	23.5319	-64.0735	-164.918	-0.024411	0.713557	-0.255207	-0.256535	-0.054535	23.5319	-0.253469	-930.099	5.863371E-5	NaN
125	1.000000	0.722833	7.36626e+06	-44889.1	955.818	-29775	0.000000	0.000000	6.722992	0.001577	NaN	0.000000	0.001497	0.001788	28.1243	0.048527	0.001965	24.6937	-32.631	-166.272	0.056191	0.721533	-0.247259	-0.248560	0.001577	24.6937	-0.247307	-746.905	-2.111984E-6	NaN
125	1.000000	0.730864	7.36626e+06	-44889.1	955.818	-29775	0.000000	0.000000	6.731019	-0.069330	NaN	0.000000	0.001531	0.001789	28.1243	0.071458	0.002061	34.6777	177.646	-165.377	-0.035533	0.729606	-0.239229	-0.240486	-0.069330	34.6777	-0.237729	-529.711	0.000131	NaN
125	1.000000	0.738857	7.36626e+06	-44889.1	955.818	-29775	0.000000	0.000000	6.739016	0.008495	NaN	0.000000	0.001516	0.001815	28.1254	0.064420	0.002000	32.2105	-67.575	-163.168	0.078819	0.737559	-0.231235	-0.232533	0.008495	32.2105	-0.231433	-421.822	-2.013913E-5	NaN
125	1.000000	0.746872	7.36626e+06	-44889.1	955.818	-29775	0.000000	0.000000	6.747032	0.014370	NaN	0.000000	0.001557	0.001768	28.1257	0.091521	0.002066	44.3088	-58.064	-165.403	-0.009741	0.745553	-0.223220	-0.224539	0.014370	44.3088	-0.223463	-315.427	-4.555827E-5	NaN
125	1.000000	0.754909	7.36626e+06	-44889.1	955.817	-29775	0.000000	0.000000	6.755064	-0.091028	NaN	0.000000	0.001578	0.001823	28.1258	0.050985	0.001919	26.5751	-44.7525	-166.405	0.008245	0.753572	-0.215183	-0.216520	-0.091028	26.5751	-0.212614	-211.386	0.000431	NaN
125	1.000000	0.762859	7.36626e+06	-44889.1	955.818	-29775	0.000000	0.000000	6.763016	-0.040793	NaN	0.000000	0.001558	0.001801	28.1256	0.075637	0.001959	38.6017	98.7384	-165.218	-0.133122	0.761577	-0.207233	-0.208516	-0.040793	38.6017	-0.206441	-167.892	0.000243	NaN
125	1.000000	0.770886	7.36626e+06	-44889.1	955.817	-29775	0.000000	0.000000	6.771044	-0.030436	NaN	0.000000	0.001579	0.001795	28.1262	0.135022	0.002123	63.6014	-150.567	-165.099	-0.036828	0.769523	-0.199206	-0.200569	-0.030436	63.6014	-0.198847	-126.104	0.000241	NaN
125	1.000000	0.778910	7.36626e+06	-44889.1	955.818	-29775	0.000000	0.000000	6.779068	-0.017496	NaN	0.000000	0.001538	0.001808	28.1254	0.050997	0.002046	24.9216	-73.5099	-167.166	-0.049696	0.777552	-0.191182	-0.192540	-0.017496	24.9216	-0.190655	-92.2498	0.000190	NaN
125	1.000000	0.786919	7.36626e+06	-44889.1	955.818	-29775	0.000000	0.000000	6.787076	-0.047452	NaN	0.000000	0.001540	0.001800	28.1247	0.044380	0.002016	22.0144	-105.286	-164.993	-0.074129	0.785608	-0.183173	-0.184484	-0.047452	22.0144	-0.181556	-64.8496	0.000732	NaN
125	1.000000	0.794926	7.36626e+06	-44889.1	955.818	-29775	0.000000	0.000000	6.795085	0.016794	NaN	0.000000	0.001578	0.001782	28.1246	0.136538	0.002100	65.033	-107.725	-162.904	0.017892	0.793614	-0.175167	-0.176478	0.016794	65.033	-0.175360	-50.8357	-0.000330	NaN
125	1.000000	0.802931	7.36626e+06	-44889.1	955.818	-29775	0.000000	0.000000	6.803086	-0.073873	NaN	0.000000	0.001564	0.001795	28.1257	0.094208	0.001991	47.3232	-3.137930	-163.507	0.029461	0.801618	-0.167161	-0.168474	-0.073873	47.3232	-0.165990	-34.9685	0.002113	NaN
125	1.000000	0.810930	7.36626e+06	-44889.1	955.818	-29775	0.000000	0.000000	6.811089	0.014765	NaN	0.000000	0.001605	0.001794	28.1262	0.163442	0.001925	84.8994	170.496	-167.405	0.008591	0.809627	-0.159162	-0.160465	0.014765	84.8994	-0.159293	-26.6321	-0.000554	NaN
125	1.000000	0.818924	7.36626e+06	-44889.1	955.818	-29775	0.000000	0.000000	6.819080	-0.062551	NaN	0.000000	0.001606	0.001783	28.1269	0.060337	0.002012	29.99	83.0069	-165.612	-0.032056	0.817651	-0.151168	-0.152441	-0.062551	29.99	-0.149604	-17.8144	0.003511	NaN
125	1.000000	0.826926	7.36626e+06	-44889.1	955.818	-29775	0.000000	0.000000	6.827085	0.013682	NaN	0.000000	0.001582	0.001802	28.1271	0.011139	0.002111	5.277035	-89.0484	-167.452	0.027701	0.825575	-0.143166	-0.144518	0.013682	5.277035	-0.145111	-14.7306	-0.000929	NaN
125	1.000000	0.834926	7.36626e+06	-44889.1	955.818	-29775	0.000000	0.000000	6.835088	0.075863	NaN	0.000000	0.001599	0.001795	28.1272	0.049618	0.002075	23.9179	-111.573	-164.587	0.025199	0.833647	-0.135166	-0.136445	0.075863	23.9179	-0.137545	-10.6334	-0.007134	NaN
125	1.000000	0.842949	7.36626e+06	-44889.1	955.818	-29775	0.000000	0.000000	6.843107	-0.003782	NaN	0.000000	0.001588	0.001818	28.127	0.015557	0.001978	7.866662	-102.547	-164.872	-0.014096	0.841593	-0.127143	-0.128499	-0.003782	7.866662	-0.126783	-6.594057	0.000574	NaN
125	1.000000	0.850937	7.36626e+06	-44889.1	955.818	-29775	0.000000	0.000000	6.851095	-0.007839	NaN	0.000000	0.001622	0.001824	28.128	0.028684	0.001983	14.4623	179.973	-163.512	-0.018418	0.849635	-0.119156	-0.120457	-0.007839	14.4623	-0.118749	-4.557940	0.001720	NaN
125	1.000000	0.858937	7.36626e+06	-44889.1	955.819	-29775	0.000000	0.000000	6.859097	0.036561	NaN	0.000000	0.001591	0.001764	28.1263	0.033401	0.001880	17.7642	-102.301	-162.582	-0.031085	0.857628	-0.111155	-0.112464	0.036561	17.7642	-0.112699	-3.423156	-0.010680	NaN
125	1.000000	0.866932	7.36626e+06	-44889.1	955.818	-29775	0.000000	0.000000	6.867090	-0.028806	NaN	0.000000	0.001564	0.001822	28.1263	0.077094	0.002082	37.0355	-86.3065	-166.154	-0.060208	0.865630	-0.103160	-0.104462	-0.028806	37.0355	-0.102576	-2.082079	0.013835	NaN
125	1.000000	0.874927	7.36626e+06	-44889.1	955.819	-29775	0.000000	0.000000	6.875084	-0.038552	NaN	0.000000	0.001562	0.001767	28.126	0.081093	0.002131	38.0599	22.2366	-163.343	-0.013694	0.873619	-0.095165	-0.096473	-0.038552	38.0599	-0.094406	-1.367255	0.028197	NaN
125	1.000000	0.882935	7.36626e+06	-44889.1	955.818	-29775	0.000000	0.000000	6.883095	0.029144	NaN	0.000000	0.001596	0.001787	28.1262	0.005960	0.001789	3.331211	-57.4314	-164.855	0.043867	0.881612	-0.087157	-0.088481	0.029144	3.331211	-0.093719	-1.318585	-0.022102	NaN
125	1.000000	0.890945	7.36626e+06	-44889.1	955.817	-29775	0.000000	0.000000	6.891102	-0.018805	NaN	0.000000	0.001592	0.001806	28.1266	0.023294	0.001861	12.5171	-114.497	-160.572	-0.021986	0.889631	-0.079147	-0.080461	-0.018805	12.5171	-0.078021	-0.551902	0.034074	NaN
125	1.000000	0.898951	7.36626e+06	-44889.1	955.818	-29775	0.000000	0.000000	6.899109	-0.005043	NaN	0.000000	0.001564	0.001807	28.1277	0.062219	0.001974	31.5183	-114.921	-166.155	0.030428	0.897659	-0.071141	-0.072433	-0.005043	31.5183	-0.071021	-0.363202	0.013884	NaN
125	1.000000	0.906944	7.36626e+06	-44889.1	955.818	-29775	0.000000	0.000000	6.907103	0.006164	NaN	0.000000	0.001546	0.001786	28.1277	0.132724	0.001989	66.7266	73.7721	-167.853	0.018043	0.905632	-0.063148	-0.064460	0.006164	66.7266	-0.063218	-0.222242	-0.027736	NaN
125	1.000000	0.914955	7.36626e+06	-44889.1	955.818	-29775	0.000000	0.000000	6.915114	0.000583	NaN	0.000000	0.001570	0.001766	28.1276	0.051744	0.001989	26.0131	-127.688	-163.433	-0.067843	0.913665	-0.055137	-0.056427	0.000583	26.0131	-0.055154	-0.130131	-0.004478	NaN
125	1.000000	0.922938	7.36626e+06	-44889.1	955.817	-29775	0.000000	0.000000	6.923096	-0.004297	NaN	0.000000	0.001543	0.001767	28.1275	0.092753	0.002165	42.8382	-108.369	-165.049	0.025941	0.921681	-0.047154	-0.048411	-0.004297	42.8382	-0.047079	-0.074388	0.057765	NaN
125	1.000000	0.930959	7.36626e+06	-44889.1	955.818	-29775	0.000000	0.000000	6.931117	-0.002132	NaN	0.000000	0.001583	0.001803	28.1279	0.127754	0.001939	65.8892	-101.975	-165.815	-0.032475	0.929636	-0.039134	-0.040457	-0.002132	65.8892	-0.039109	-0.042496	0.050174	NaN
125	1.000000	0.938952	7.36626e+06	-44889.1	955.818	-29775	0.000000	0.000000	6.939111	0.008962	NaN	0.000000	0.001544	0.001812	28.1253	0.099461	0.001954	50.9042	144.537	-162.682	-0.006482	0.937665	-0.031140	-0.032427	0.008962	50.9042	-0.031272	-0.024987	-0.358677	NaN
125	1.000000	0.946994	7.36626e+06	-44889.1	955.818	-29775	0.000000	0.000000	6.947149	-0.088008	NaN	0.000000	0.001544	0.001764	28.1254	0.129541	0.001957	66.1983	-174.663	-165.154	0.015137	0.945638	-0.023098	-0.024454	-0.088008	66.1983	-0.022101	-0.014205	6.195538	NaN
125	1.000000	0.954960	7.36626e+06	-44889.1	955.818	-29775	0.000000	0.000000	6.955119	-0.004070	NaN	0.000000	0.001532	0.001770	28.1251	0.068496	0.002011	34.0609	-146.629	-164.304	0.026642	0.953635	-0.015132	-0.016457	-0.004070	34.0609	-0.015042	-0.009301	0.437604	NaN
125	1.000000	0.962961	7.36626e+06	-44889.1	955.819	-29775	0.000000	0.000000	6.963120	0.013825	NaN	0.000000	0.001517	0.001790	28.1255	0.109034	0.001966	55.4674	104.438	-160.922	0.048557	0.961612	-0.007131	-0.008480	0.013825	55.4674	-0.007318	-0.004830	-2.862576	NaN
125	1.000000	0.970977	7.36626e+06	-44889.1	955.818	-29775	0.000000	0.000000	6.971137	0.035976	NaN	0.000000	0.001553	0.001802	28.1257	0.020231	0.002060	9.820903	98.2609	-165.702	0.034761	0.969662	0.000885	-0.000430	0.035976	9.820903	-0.001863	-0.001344	-26.7691	NaN
125	1.000000	0.978938	7.36626e+06	-44889.1	955.818	-29775	0.000000	0.000000	6.979227	3.164612	NaN	0.000000	0.001553	0.001797	28.1264	3.911279	0.001953	2002.73	13.067	-166.831	1.973918	0.977618	0.008846	0.007525	3.164612	2002.73	0.007661	0.006696	472.605	22360.6
125	2.000000	0.985581	7.36626e+06	-44889.1	955.818	-29775	0.000000	0.000000	6.986157	10.1551	NaN	0.000000	0.001571	0.001761	28.1266	9.525407	0.001687	5647.93	8.661482	-172.193	10.6249	0.985103	0.015489	0.015010	10.1551	5647.93	0.014140	0.014156	717.387	43370.8
125	2.000000	0.987488	7.36626e+06	-44889.1	955.818	-29775	0.000000	0.000000	6.988155	12.3787	NaN	0.000000	0.001587	0.001825	28.1266	10.9024	0.001533	7110.46	1.159027	-170.231	12.1554	0.987259	0.017396	0.017167	12.3787	7110.46	0.016090	0.016766	738.305	50170.8
125	2.000000	0.989464	7.36626e+06	-44889.1	955.817	-29775	0.000000	0.000000	6.990254	15.3703	NaN	0.000000	0.001594	0.001755	28.1273	14.1836	0.001685	8419.91	7.339030	-176.178	14.408	0.989152	0.019372	0.019060	15.3703	8419.91	0.018002	0.019500	788.221	55088.8
125	2.000000	0.991461	7.36626e+06	-44889.1	955.818	-29775	0.000000	0.000000	6.992394	18.8353	NaN	0.000000	0.001539	0.001787	28.127	16.0344	0.001768	9069.22	9.403819	-178.96	18.2892	0.991187	0.021369	0.021095	18.8353	9069.22	0.019811	0.022246	846.667	55553.7
125	2.000000	0.993466	7.36626e+06	-44889.1	955.817	-29775	0.000000	0.000000	6.994558	22.722	NaN	0.000000	0.001579	0.001812	28.1256	18.9702	0.001868	10155.5	4.799877	-173.586	22.8871	0.993097	0.023374	0.023004	22.722	10155.5	0.021695	0.025277	898.928	58359.5
125	2.000000	0.995455	7.36626e+06	-44889.1	955.817	-29775	0.000000	0.000000	6.996761	27.9233	NaN	0.000000	0.001596	0.001782	28.1254	21.2055	0.001820	11652	3.444722	-173.642	26.9155	0.995092	0.025363	0.025000	27.9233	11652	0.023566	0.028458	981.224	63106.4
125	2.000000	0.997443	7.36626e+06	-44889.1	955.817	-29775	0.000000	0.000000	6.998961	33.0549	NaN	0.000000	0.001595	0.001806	28.1254	23.6517	0.001795	13177.8	9.006291	179.03	33.1873	0.997094	0.027351	0.027002	33.0549	13177.8	0.025470	0.031876	1036.99	67435.1
125	2.000000	0.999389	7.36626e+06	-44889.1	955.818	-29775	0.000000	0.000000	7.001130	38.4905	NaN	0.000000	0.001608	0.001797	28.1259	26.1675	0.001869	13999.5	6.736841	-178.745	36.7419	0.999125	0.029297	0.029033	38.4905	13999.5	0.027235	0.035208	1093.23	68165.6
125	2.000000	1.001405	7.36626e+06	-44889.1	955.818	-29775	0.000000	0.000000	7.003352	43.4902	NaN	0.000000	0.001591	0.001813	28.126	27.5543	0.001848	14908.3	6.173813	-179.366	41.6194	1.001128	0.031313	0.031036	43.4902	14908.3	0.029125	0.038950	1116.56	69015.4
125	2.000000	1.003391	7.36626e+06	-44889.1	955.817	-29775	0.000000	0.000000	7.005577	49.3113	NaN	0.000000	0.001560	0.001791	28.1266	29.7313	0.001733	17160.2	8.869735	175.211	46.8782	1.003083	0.033299	0.032991	49.3113	17160.2	0.031144	0.043148	1142.84	75477.3
125	2.000000	1.005461	7.36626e+06	-44889.1	955.817	-29775	0.000000	0.000000	7.007996	57.7978	NaN	0.000000	0.001579	0.001785	28.1267	31.3094	0.001718	18226.7	2.305859	-177.875	56.7177	1.005088	0.035369	0.034996	57.7978	18226.7	0.032991	0.047172	1225.27	76672.8
125	2.000000	1.007344	7.36626e+06	-44889.1	955.817	-29775	0.000000	0.000000	7.010149	64.38	NaN	0.000000	0.001588	0.001804	28.1282	32.9202	0.001800	18285.1	2.531473	-178.221	61.0789	1.007103	0.037251	0.037011	64.38	18285.1	0.034611	0.050844	1266.24	74088.6
125	2.000000	1.009439	7.36626e+06	-44889.1	955.817	-29775	0.000000	0.000000	7.012450	69.3774	NaN	0.000000	0.001586	0.001794	28.1295	36.3485	0.001824	19924.7	6.572991	177.325	69.9265	1.009073	0.039347	0.038981	69.3774	19924.7	0.036736	0.055864	1241.89	77019
125	2.000000	1.011375	7.36626e+06	-44889.1	955.817	-29775	0.000000	0.000000	7.014724	77.6004	NaN	0.000000	0.001582	0.001785	28.128	36.8335	0.001832	20102.5	4.878027	178.456	74.6206	1.011083	0.041283	0.040991	77.6004	20102.5	0.038388	0.059929	1294.87	75024.6
125	2.000000	1.013398	7.36626e+06	-44889.1	955.817	-29775	0.000000	0.000000	7.017025	84.3712	NaN	0.000000	0.001567	0.001791	28.1265	38.4392	0.001731	22211.9	0.090295	-177.307	83.2335	1.013035	0.043306	0.042943	84.3712	22211.9	0.040457	0.065216	1293.73	79466.4
125	2.000000	1.015475	7.36627e+06	-44889.1	955.817	-29775	0.000000	0.000000	7.019359	90.6479	NaN	0.000000	0.001610	0.001742	28.1269	41.2084	0.001860	22155.2	6.724991	176.438	90.9697	1.015062	0.045383	0.044970	90.6479	22155.2	0.042314	0.070145	1292.29	76427.5
125	2.000000	1.017387	7.36627e+06	-44889.1	955.816	-29775	0.000000	0.000000	7.021538	97.1447	NaN	0.000000	0.001604	0.001774	28.1273	43.2527	0.001787	24197.5	8.232420	173.463	96.0791	1.017084	0.047294	0.046992	97.1447	24197.5	0.044283	0.075566	1285.56	80423
125	2.000000	1.019351	7.36627e+06	-44889.1	955.816	-29775	0.000000	0.000000	7.023792	104.201	NaN	0.000000	0.001593	0.001772	28.1281	44.3472	0.001731	25615.3	-0.302227	-179.121	100.364	1.019045	0.049259	0.048953	104.201	25615.3	0.046208	0.081053	1285.6	82203.2
125	2.000000	1.021352	7.36627e+06	-44889.1	955.817	-29775	0.000000	0.000000	7.026040	110.177	NaN	0.000000	0.001615	0.001800	28.1269	46.8117	0.001858	25195.4	7.636111	174.097	107.432	1.020966	0.051260	0.050874	110.177	25195.4	0.047980	0.086273	1277.08	78371.5
125	2.000000	1.023376	7.36627e+06	-44889.1	955.817	-29775	0.000000	0.000000	7.028463	119.877	NaN	0.000000	0.001591	0.001783	28.1282	48.2962	0.001853	26062.8	4.794687	176.092	118.815	1.023163	0.053284	0.053071	119.877	26062.8	0.049835	0.091903	1304.39	78547.1
125	2.000000	1.025450	7.36627e+06	-44889.1	955.817	-29775	0.000000	0.000000	7.030845	127.398	NaN	0.000000	0.001611	0.001777	28.128	50.0105	0.001779	28115.1	2.018968	178.281	126.785	1.025052	0.055358	0.054960	127.398	28115.1	0.051959	0.098566	1292.52	81818.4
125	2.000000	1.027363	7.36627e+06	-44889.1	955.818	-29775	0.000000	0.000000	7.033188	137.861	NaN	0.000000	0.001598	0.001789	28.1286	51.6671	0.001858	27805.5	4.113688	176.469	136.158	1.027009	0.057271	0.056916	137.861	27805.5	0.053552	0.103708	1329.32	78885.7
125	2.000000	1.029357	7.36627e+06	-44889.1	955.817	-29775	0.000000	0.000000	7.035518	146.038	NaN	0.000000	0.001545	0.001772	28.1286	52.9471	0.001730	30608.3	0.493787	179.681	144.682	1.029022	0.059265	0.058930	146.038	30608.3	0.055686	0.110795	1318.09	84014
125	2.000000	1.031366	7.36627e+06	-44889.1	955.817	-29775	0.000000	0.000000	7.037835	153.518	NaN	0.000000	0.001531	0.001749	28.1281	55.175	0.001808	30514.3	7.890364	172.145	152.481	1.031053	0.061273	0.060961	153.518	30514.3	0.057500	0.116997	1312.15	81506
125	2.000000	1.033278	7.36627e+06	-44889.1	955.818	-29775	0.000000	0.000000	7.040425	170.021	NaN	0.000000	0.001551	0.001786	28.1271	57.9218	0.001852	31281.9	5.163145	174.059	165.275	1.033008	0.063185	0.062915	170.021	31281.9	0.059109	0.122633	1386.42	81613.5
125	2.000000	1.035422	7.36627e+06	-44889.1	955.817	-29775	0.000000	0.000000	7.042790	175.39	NaN	0.000000	0.001560	0.001837	28.127	60.3736	0.001822	33138	5.304889	173.883	177.596	1.035036	0.065330	0.064944	175.39	33138	0.061361	0.130733	1341.59	83734.9
125	2.000000	1.037319	7.36627e+06	-44889.1	955.817	-29775	0.000000	0.000000	7.045232	188.649	NaN	0.000000	0.001571	0.001811	28.1272	61.0788	0.001751	34887.7	1.989862	176.388	187.355	1.037052	0.067227	0.066960	188.649	34887.7	0.063172	0.137426	1372.73	85982.6
125	2.000000	1.039355	7.36627e+06	-44889.1	955.816	-29775	0.000000	0.000000	7.047672	198.46	NaN	0.000000	0.001546	0.001775	28.1271	64.6162	0.001878	34405.7	4.225769	174.731	196.846	1.039047	0.069263	0.068955	198.46	34405.7	0.064937	0.144105	1377.19	82806.3
125	2.000000	1.041227	7.36627e+06	-44889.1	955.817	-29775	0.000000	0.000000	7.049844	205.782	NaN	0.000000	0.001563	0.001749	28.1259	64.6766	0.001666	38813.8	4.896785	171.83	199.596	1.041067	0.071135	0.070975	205.782	38813.8	0.067158	0.152721	1347.44	90742.2
125	2.000000	1.043357	7.36627e+06	-44889.1	955.817	-29775	0.000000	0.000000	7.052647	222.16	NaN	0.000000	0.001594	0.001747	28.1273	66.8814	0.001733	38585	4.561804	173.584	221.202	1.042975	0.073265	0.072883	222.16	38585	0.068946	0.159828	1390	88179.1
125	2.000000	1.045378	7.36627e+06	-44889.1	955.818	-29775	0.000000	0.000000	7.055184	234.71	NaN	0.000000	0.001614	0.001754	28.127	69.4538	0.001815	38263.8	1.864323	175.991	232.69	1.045026	0.075286	0.074934	234.71	38263.8	0.070685	0.166886	1406.41	85575.8
125	2.000000	1.047356	7.36627e+06	-44889.1	955.817	-29775	0.000000	0.000000	7.057605	245.462	NaN	0.000000	0.001552	0.001784	28.1273	70.4591	0.001706	41302.7	3.377541	174.773	245.113	1.046967	0.077264	0.076874	245.462	41302.7	0.072807	0.175694	1397.1	90027.1
125	2.000000	1.049356	7.36627e+06	-44889.1	955.817	-29775	0.000000	0.000000	7.060003	255.155	NaN	0.000000	0.001585	0.001788	28.1269	73.8009	0.001835	40228.3	4.256416	173.273	254.088	1.049005	0.079264	0.078913	255.155	40228.3	0.074507	0.182905	1395.01	85939.4
125	2.000000	1.051361	7.36627e+06	-44889.1	955.817	-29775	0.000000	0.000000	7.062471	266.405	NaN	0.000000	0.001582	0.001810	28.1269	74.6495	0.001849	40368.9	4.477652	173.718	266.772	1.050988	0.081269	0.080896	266.405	40368.9	0.076320	0.190742	1396.68	84449.5
125	2.000000	1.053354	7.36627e+06	-44889.1	955.817	-29775	0.000000	0.000000	7.065059	280.885	NaN	0.000000	0.001603	0.001774	28.1261	77.0858	0.001832	42078.4	8.055802	169.331	279.171	1.052865	0.083262	0.082773	280.885	42078.4	0.078256	0.199283	1409.48	86118.7
125	2.000000	1.055401	7.36627e+06	-44889.1	955.818	-29775	0.000000	0.000000	7.067573	292.259	NaN	0.000000	0.001541	0.001812	28.1259	78.8759	0.001761	44791.5	8.949061	168.266	294.149	1.054910	0.085309	0.084818	292.259	44791.5	0.080415	0.209017	1398.26	89511.4
125	2.000000	1.057350	7.36627e+06	-44889.1	955.816	-29775	0.000000	0.000000	7.070067	305.511	NaN	0.000000	0.001601	0.001810	28.1262	80.1429	0.001802	44479.5	9.942510	166.551	306.397	1.057042	0.087258	0.086950	305.511	44479.5	0.082106	0.216791	1409.24	87279.7
125	2.000000	1.059277	7.36627e+06	-44889.1	955.817	-29775	0.000000	0.000000	7.072487	317.497	NaN	0.000000	0.001581	0.001794	28.1262	82.2641	0.001798	45756.6	2.482070	173.983	313.76	1.059058	0.089185	0.088966	317.497	45756.6	0.083981	0.225564	1407.57	88022.3
125	2.000000	1.061223	7.36627e+06	-44889.1	955.817	-29775	0.000000	0.000000	7.075092	333.521	NaN	0.000000	0.001595	0.001791	28.1261	83.1743	0.001836	45297.5	5.224906	171.219	326.887	1.060903	0.091131	0.090810	333.521	45297.5	0.085609	0.233315	1429.49	85679.3
125	2.000000	1.063320	7.36627e+06	-44889.1	955.817	-29775	0.000000	0.000000	7.077861	349.873	NaN	0.000000	0.001599	0.001752	28.1273	85.8898	0.001724	49823.2	5.049650	171.607	349.432	1.062901	0.093228	0.092809	349.873	49823.2	0.087961	0.244730	1429.63	92015.4
125	2.000000	1.065363	7.36627e+06	-44889.1	955.817	-29775	0.000000	0.000000	7.080247	358.22	NaN	0.000000	0.001598	0.001739	28.1272	88.506	0.001859	47606.5	2.815074	173.731	355.412	1.065083	0.095271	0.094991	358.22	47606.5	0.089628	0.252971	1416.05	86477.7
125	2.000000	1.067264	7.36627e+06	-44889.1	955.818	-29775	0.000000	0.000000	7.082840	375.079	NaN	0.000000	0.001586	0.001760	28.1279	90.3242	0.001832	49305.4	5.524248	170.59	369.834	1.067036	0.097171	0.096944	375.079	49305.4	0.091466	0.262209	1430.46	87971.8
125	2.000000	1.069286	7.36627e+06	-44889.1	955.817	-29775	0.000000	0.000000	7.085649	394.203	NaN	0.000000	0.001550	0.001782	28.1278	92.2159	0.001794	51415.2	2.881016	172.819	389.686	1.068980	0.099194	0.098888	394.203	51415.2	0.093444	0.272322	1447.57	90016.8
125	2.000000	1.071258	7.36627e+06	-44889.1	955.817	-29775	0.000000	0.000000	7.088216	408.69	NaN	0.000000	0.001569	0.001788	28.1275	93.2597	0.001788	52171.3	4.004346	171.762	404.364	1.070963	0.101166	0.100871	408.69	52171.3	0.095291	0.281926	1449.64	89771.3
125	2.000000	1.073334	7.36627e+06	-44889.1	955.817	-29775	0.000000	0.000000	7.091065	427.508	NaN	0.000000	0.001543	0.001793	28.1264	95.8555	0.001821	52651	7.399384	168.712	427.299	1.072954	0.103241	0.102862	427.508	52651	0.097152	0.291761	1465.27	89056.7
125	2.000000	1.075365	7.36627e+06	-44889.1	955.818	-29775	0.000000	0.000000	7.093611	440.015	NaN	0.000000	0.001515	0.001764	28.1274	98.5147	0.001872	52634.4	6.269225	169.811	441.937	1.074974	0.105273	0.104882	440.015	52634.4	0.099003	0.301702	1458.44	87549.5
125	2.000000	1.077323	7.36627e+06	-44889.1	955.817	-29775	0.000000	0.000000	7.096315	458.156	NaN	0.000000	0.001582	0.001748	28.1275	99.8101	0.001830	54529	5.197490	170.207	458.781	1.076933	0.107231	0.106841	458.156	54529	0.100929	0.312210	1467.46	89161.4
125	2.000000	1.079317	7.36627e+06	-44889.1	955.817	-29775	0.000000	0.000000	7.098899	472.522	NaN	0.000000	0.001630	0.001753	28.1277	102.952	0.001760	58492.7	11.8374	162.678	473.392	1.079013	0.109225	0.108921	472.522	58492.7	0.103166	0.324625	1455.59	93795.8
125	2.000000	1.081364	7.36627e+06	-44889.1	955.817	-29775	0.000000	0.000000	7.101651	489.676	NaN	0.000000	0.001615	0.001751	28.1277	100.913	0.001793	56267.5	3.460097	171.66	489.271	1.081041	0.111271	0.110949	489.676	56267.5	0.104744	0.333520	1468.21	89016.4
125	2.000000	1.083333	7.36627e+06	-44889.1	955.818	-29775	0.000000	0.000000	7.104065	500.497	NaN	0.000000	0.001595	0.001764	28.1286	103.846	0.001700	61071.4	2.001182	172.505	499.62	1.083072	0.113241	0.112980	500.497	61071.4	0.107094	0.346973	1442.47	94724.7