File: remote_trans/data/nanoindenter/0828-1/data/Data_2025-08-06,11h17m57s/2025-07-22_16-23-58_1_556.txt
2025-07-22, 16:23:58, 1
Index	Phase	Displacement	Time	Pos X	Pos Y	Pos Z	Rot A	Rot B	Piezo Z	Force A	Force B	Gripper	Voltage A	Voltage B	Temperature	Amplitude force	Amplitude pos	Stiffness	Phase shift	Phase excitation	Force A raw	Displacement raw	HMax	HMax raw	Real Force	Real Stiffness	Contact Depth	Area	Hardness	Reduced Mod.
[#]	[#]	[um]	[s]	[um]	[um]	[um]	[m°]	[m°]	[um]	[uN]	[uN]	[V]	[V]	[V]	[°C]	[uN]	[um]	[N/m]	[°]	[°]	[uN]	[um]	[um]	[um]	[uN]	[N/m]	[um]	[um^2]	[MPa]	[MPa]
556	1.000000	0.002427	7.37049e+06	-49289.1	1005.82	-29759.6	0.000000	0.000000	6.002796	-0.034064	NaN	0.000000	0.001565	0.001721	28.0793	0.039698	0.000942	42.1351	-42.2166	-170.96	-0.017944	0.001163	-1.053590	-1.054854	-0.034064	42.1351	-1.052983	-1.170895E+14	2.909193E-16	NaN
556	1.000000	0.010389	7.37049e+06	-49289.1	1005.82	-29759.6	0.000000	0.000000	6.010760	0.000431	NaN	0.000000	0.001595	0.001739	28.0796	0.036224	0.000871	41.568	174.948	-161.528	0.033276	0.009048	-1.045627	-1.046969	0.000431	41.568	-1.045635	-9.326870E+13	-4.620792E-18	NaN
556	1.000000	0.018381	7.37049e+06	-49289.1	1005.82	-29759.6	0.000000	0.000000	6.018753	0.042749	NaN	0.000000	0.001570	0.001724	28.0795	0.063192	0.001744	36.2432	5.806819	-167.661	0.058364	0.017083	-1.037636	-1.038934	0.042749	36.2432	-1.038520	-7.482910E+13	-5.712874E-16	NaN
556	1.000000	0.026382	7.37049e+06	-49289.1	1005.82	-29759.6	0.000000	0.000000	6.026752	0.003443	NaN	0.000000	0.001613	0.001702	28.0806	0.065185	0.001763	36.9707	-95.1541	-164.214	0.009013	0.025020	-1.029635	-1.030997	0.003443	36.9707	-1.029705	-5.695212E+13	-6.045217E-17	NaN
556	1.000000	0.034389	7.37049e+06	-49289.1	1005.82	-29759.6	0.000000	0.000000	6.034762	0.039174	NaN	0.000000	0.001598	0.001721	28.0808	0.104589	0.002002	52.2436	73.0444	-163.551	0.017824	0.033024	-1.021627	-1.022993	0.039174	52.2436	-1.022190	-4.512475E+13	-8.681309E-16	NaN
556	1.000000	0.042420	7.37049e+06	-49289.1	1005.82	-29759.6	0.000000	0.000000	6.042792	0.038844	NaN	0.000000	0.001572	0.001726	28.0803	0.106659	0.002002	53.2674	-121.103	-165.217	0.032629	0.041127	-1.013597	-1.014890	0.038844	53.2674	-1.014144	-3.516843E+13	-1.104503E-15	NaN
556	1.000000	0.050354	7.37049e+06	-49289.1	1005.82	-29759.6	0.000000	0.000000	6.050728	0.079621	NaN	0.000000	0.001569	0.001681	28.0804	0.050118	0.001915	26.1745	-166.484	-164.991	0.078298	0.049104	-1.005663	-1.006913	0.079621	26.1745	-1.007944	-2.902101E+13	-2.743550E-15	NaN
556	1.000000	0.058413	7.37049e+06	-49289.1	1005.82	-29759.6	0.000000	0.000000	6.058784	0.005173	NaN	0.000000	0.001585	0.001733	28.0804	0.116205	0.002021	57.5027	-172.731	-166.331	0.034051	0.057065	-0.997604	-0.998952	0.005173	57.5027	-0.997671	-2.110630E+13	-2.450903E-16	NaN
556	1.000000	0.066379	7.37049e+06	-49289.1	1005.82	-29759.6	0.000000	0.000000	6.066751	0.047507	NaN	0.000000	0.001568	0.001708	28.0806	0.077110	0.001959	39.3621	-141.147	-166.184	0.070604	0.065079	-0.989638	-0.990937	0.047507	39.3621	-0.990543	-1.692119E+13	-2.807573E-15	NaN
556	1.000000	0.074382	7.37049e+06	-49289.1	1005.82	-29759.6	0.000000	0.000000	6.074753	0.026370	NaN	0.000000	0.001583	0.001691	28.0812	0.103422	0.001966	52.6164	98.6981	-168.123	0.001859	0.073095	-0.981635	-0.982922	0.026370	52.6164	-0.982011	-1.298687E+13	-2.030493E-15	NaN
556	1.000000	0.082398	7.37049e+06	-49289.1	1005.82	-29759.6	0.000000	0.000000	6.082770	0.033184	NaN	0.000000	0.001617	0.001755	28.0806	0.074581	0.001835	40.654	-84.3667	-168.223	-0.023685	0.081098	-0.973619	-0.974919	0.033184	40.654	-0.974231	-1.020195E+13	-3.252725E-15	NaN
556	1.000000	0.090407	7.37049e+06	-49289.1	1005.82	-29759.6	0.000000	0.000000	6.090777	-0.017136	NaN	0.000000	0.001607	0.001744	28.0806	0.027524	0.002010	13.6935	14.0864	-162.284	0.017536	0.089123	-0.965609	-0.966894	-0.017136	13.6935	-0.964671	-7.582893E+12	2.259860E-15	NaN
556	1.000000	0.098408	7.37049e+06	-49289.1	1005.82	-29759.6	0.000000	0.000000	6.098777	-0.030402	NaN	0.000000	0.001609	0.001764	28.0806	0.017471	0.001918	9.108362	15.5812	-168.629	0.013013	0.097104	-0.957609	-0.958913	-0.030402	9.108362	-0.955106	-5.634850E+12	5.395412E-15	NaN
556	1.000000	0.106410	7.37049e+06	-49289.1	1005.82	-29759.6	0.000000	0.000000	6.106783	0.065958	NaN	0.000000	0.001650	0.001734	28.0807	0.121844	0.001991	61.2034	-152.375	-168.005	-0.012754	0.105095	-0.949607	-0.950922	0.065958	61.2034	-0.950415	-4.871125E+12	-1.354065E-14	NaN
556	1.000000	0.114403	7.37049e+06	-49289.1	1005.82	-29759.6	0.000000	0.000000	6.114773	0.003882	NaN	0.000000	0.001669	0.001713	28.081	0.113203	0.002024	55.9292	164.927	-164.957	0.042940	0.113136	-0.941614	-0.942881	0.003882	55.9292	-0.941666	-3.712077E+12	-1.045837E-15	NaN
556	1.000000	0.122366	7.37049e+06	-49289.1	1005.82	-29759.6	0.000000	0.000000	6.122737	0.001884	NaN	0.000000	0.001616	0.001707	28.0807	0.042302	0.002124	19.9202	-59.0598	-162.741	0.023641	0.121103	-0.933650	-0.934914	0.001884	19.9202	-0.933721	-2.900140E+12	-6.495014E-16	NaN
556	1.000000	0.130406	7.37049e+06	-49289.1	1005.82	-29759.6	0.000000	0.000000	6.130776	0.000560	NaN	0.000000	0.001608	0.001699	28.081	0.046738	0.002067	22.6062	-69.9388	-167.471	0.036019	0.129087	-0.925611	-0.926930	0.000560	22.6062	-0.925630	-2.255325E+12	-2.484468E-16	NaN
556	1.000000	0.138419	7.37049e+06	-49289.1	1005.82	-29759.6	0.000000	0.000000	6.138790	0.015107	NaN	0.000000	0.001647	0.001701	28.0807	0.062108	0.001964	31.6155	8.225601	-162.276	-0.120843	0.137071	-0.917598	-0.918946	0.015107	31.6155	-0.917957	-1.776707E+12	-8.502699E-15	NaN
556	1.000000	0.146435	7.37049e+06	-49289.1	1005.82	-29759.6	0.000000	0.000000	6.146806	0.024755	NaN	0.000000	0.001593	0.001707	28.0807	0.063975	0.002012	31.7951	-111.254	-165.386	0.010477	0.145135	-0.909582	-0.910882	0.024755	31.7951	-0.910166	-1.394451E+12	-1.775232E-14	NaN
556	1.000000	0.154413	7.37049e+06	-49289.1	1005.82	-29759.6	0.000000	0.000000	6.154783	-0.004858	NaN	0.000000	0.001573	0.001702	28.0809	0.079950	0.001897	42.1407	82.6868	-164.92	0.064544	0.153045	-0.901604	-0.902971	-0.004858	42.1407	-0.901517	-1.065532E+12	4.559267E-15	NaN
556	1.000000	0.162400	7.37049e+06	-49289.1	1005.82	-29759.6	0.000000	0.000000	6.162770	-0.009136	NaN	0.000000	0.001613	0.001744	28.0795	0.065700	0.002088	31.466	-138.605	-165.276	0.029116	0.161130	-0.893617	-0.894887	-0.009136	31.466	-0.893399	-8.276862E+11	1.103741E-14	NaN
556	1.000000	0.170422	7.37049e+06	-49289.1	1005.82	-29759.6	0.000000	0.000000	6.170794	0.029053	NaN	0.000000	0.001609	0.001730	28.0803	0.053677	0.002011	26.6928	-157.083	-164.551	-0.015968	0.169073	-0.885595	-0.886944	0.029053	26.6928	-0.886411	-6.658771E+11	-4.363127E-14	NaN
556	1.000000	0.178440	7.37049e+06	-49289.1	1005.82	-29759.6	0.000000	0.000000	6.178812	0.044552	NaN	0.000000	0.001611	0.001728	28.0796	0.074681	0.001917	38.9519	-169.775	-169.108	0.069819	0.177096	-0.877577	-0.878921	0.044552	38.9519	-0.878435	-5.194511E+11	-8.576842E-14	NaN
556	1.000000	0.186457	7.37049e+06	-49289.1	1005.82	-29759.6	0.000000	0.000000	6.186829	0.036471	NaN	0.000000	0.001612	0.001734	28.0796	0.062744	0.001974	31.7889	98.2084	-166.609	0.061103	0.185109	-0.869560	-0.870908	0.036471	31.7889	-0.870420	-4.046964E+11	-9.011900E-14	NaN
556	1.000000	0.194439	7.37049e+06	-49289.1	1005.82	-29759.6	0.000000	0.000000	6.194809	-0.021728	NaN	0.000000	0.001605	0.001747	28.0796	0.099236	0.001988	49.9216	-147.884	-166.56	-0.044222	0.193142	-0.861577	-0.862875	-0.021728	49.9216	-0.861251	-3.041261E+11	7.144406E-14	NaN
556	1.000000	0.202428	7.37049e+06	-49289.1	1005.82	-29759.6	0.000000	0.000000	6.202798	-0.009814	NaN	0.000000	0.001605	0.001749	28.0795	0.110722	0.002085	53.1043	-82.1727	-166.954	0.038040	0.201145	-0.853589	-0.854872	-0.009814	53.1043	-0.853450	-2.384833E+11	4.115075E-14	NaN
556	1.000000	0.210447	7.37049e+06	-49289.1	1005.82	-29759.6	0.000000	0.000000	6.210817	-0.001176	NaN	0.000000	0.001616	0.001709	28.0797	0.088017	0.002115	41.6087	158.2	-165.283	0.036002	0.209118	-0.845570	-0.846898	-0.001176	41.6087	-0.845549	-1.864049E+11	6.311292E-15	NaN
556	1.000000	0.218423	7.37049e+06	-49289.1	1005.82	-29759.6	0.000000	0.000000	6.218795	0.015445	NaN	0.000000	0.001585	0.001729	28.0794	0.025132	0.001864	13.4827	-138.016	-164.448	0.025616	0.217091	-0.837593	-0.838926	0.015445	13.4827	-0.838452	-1.493919E+11	-1.033843E-13	NaN
556	1.000000	0.226456	7.37049e+06	-49289.1	1005.82	-29759.6	0.000000	0.000000	6.226825	-0.036454	NaN	0.000000	0.001561	0.001721	28.0798	0.034113	0.002000	17.0547	-151.064	-166.216	-0.015535	0.225114	-0.829561	-0.830903	-0.036454	17.0547	-0.827957	-1.076709E+11	3.385710E-13	NaN
556	1.000000	0.234487	7.37049e+06	-49289.1	1005.82	-29759.6	0.000000	0.000000	6.234861	0.085727	NaN	0.000000	0.001653	0.001749	28.0796	0.033764	0.001883	17.9272	-41.1266	-167.756	0.079004	0.233133	-0.821530	-0.822884	0.085727	17.9272	-0.825116	-9.853248E+10	-8.700394E-13	NaN
556	1.000000	0.242442	7.37049e+06	-49289.1	1005.82	-29759.6	0.000000	0.000000	6.242814	0.037550	NaN	0.000000	0.001584	0.001712	28.0795	0.097959	0.002164	45.2663	12.3511	-169.54	-0.001332	0.241124	-0.813575	-0.814893	0.037550	45.2663	-0.814197	-7.006659E+10	-5.359156E-13	NaN
556	1.000000	0.250451	7.37049e+06	-49289.1	1005.82	-29759.6	0.000000	0.000000	6.250823	0.035974	NaN	0.000000	0.001556	0.001721	28.0793	0.104289	0.002010	51.8892	-104.718	-164.562	0.050403	0.249142	-0.805566	-0.806875	0.035974	51.8892	-0.806086	-5.438276E+10	-6.614993E-13	NaN
556	1.000000	0.258460	7.37049e+06	-49289.1	1005.82	-29759.6	0.000000	0.000000	6.258830	0.010275	NaN	0.000000	0.001581	0.001748	28.0795	0.064863	0.001952	33.2371	-134.44	-163.138	0.022162	0.257136	-0.797557	-0.798881	0.010275	33.2371	-0.797789	-4.196138E+10	-2.448737E-13	NaN
556	1.000000	0.266473	7.37049e+06	-49289.1	1005.82	-29759.6	0.000000	0.000000	6.266842	-0.041072	NaN	0.000000	0.001612	0.001745	28.0796	0.048964	0.001913	25.5971	-62.4227	-164.663	-0.008668	0.265119	-0.789544	-0.790898	-0.041072	25.5971	-0.788340	-3.122772E+10	1.315236E-12	NaN
556	1.000000	0.274482	7.37049e+06	-49289.1	1005.82	-29759.6	0.000000	0.000000	6.274851	-0.041980	NaN	0.000000	0.001615	0.001744	28.0795	0.127053	0.001907	66.6361	-65.2782	-165.905	-0.043161	0.273132	-0.781535	-0.782885	-0.041980	66.6361	-0.781062	-2.486944E+10	1.688008E-12	NaN
556	1.000000	0.282458	7.37049e+06	-49289.1	1005.82	-29759.6	0.000000	0.000000	6.282831	0.066357	NaN	0.000000	0.001585	0.001725	28.0797	0.038022	0.002116	17.9711	-93.3465	-163.776	0.062677	0.281198	-0.773559	-0.774819	0.066357	17.9711	-0.776329	-2.144548E+10	-3.094221E-12	NaN
556	1.000000	0.290487	7.37049e+06	-49289.1	1005.82	-29759.6	0.000000	0.000000	6.290854	-0.087364	NaN	0.000000	0.001613	0.001756	28.0793	0.079260	0.002087	37.9848	-143.542	-165.88	-0.000676	0.289169	-0.765530	-0.766848	-0.087364	37.9848	-0.763805	-1.448971E+10	6.029372E-12	NaN
556	1.000000	0.298479	7.37049e+06	-49289.1	1005.82	-29759.6	0.000000	0.000000	6.298848	-0.026576	NaN	0.000000	0.001627	0.001735	28.0807	0.111390	0.002027	54.963	-38.3431	-165.612	-0.019385	0.297211	-0.757538	-0.758806	-0.026576	54.963	-0.757175	-1.177258E+10	2.257418E-12	NaN
556	1.000000	0.306470	7.37049e+06	-49289.1	1005.82	-29759.6	0.000000	0.000000	6.306841	0.023622	NaN	0.000000	0.001589	0.001740	28.0808	0.087060	0.001912	45.5299	149.19	-167.07	0.022203	0.305166	-0.749547	-0.750851	0.023622	45.5299	-0.749936	-9.383165E+9	-2.517493E-12	NaN
556	1.000000	0.314507	7.37049e+06	-49289.1	1005.82	-29759.6	0.000000	0.000000	6.314880	0.062661	NaN	0.000000	0.001575	0.001752	28.0809	0.044749	0.001800	24.864	-111.939	-167.5	0.120294	0.313153	-0.741509	-0.742863	0.062661	24.864	-0.743400	-7.644593E+9	-8.196770E-12	NaN
556	1.000000	0.322480	7.37049e+06	-49289.1	1005.82	-29759.6	0.000000	0.000000	6.322850	-0.003178	NaN	0.000000	0.001588	0.001739	28.0809	0.132235	0.002132	62.0372	106.879	-168.406	-0.003283	0.321158	-0.733537	-0.734859	-0.003178	62.0372	-0.733498	-5.603788E+9	5.671201E-13	NaN
556	1.000000	0.330490	7.37049e+06	-49289.1	1005.82	-29759.6	0.000000	0.000000	6.330860	-0.012748	NaN	0.000000	0.001577	0.001746	28.0804	0.079373	0.002074	38.2747	54.1847	-162.921	-0.052371	0.329211	-0.725527	-0.726806	-0.012748	38.2747	-0.725277	-4.329366E+9	2.944615E-12	NaN
556	1.000000	0.338524	7.37049e+06	-49289.1	1005.82	-29759.6	0.000000	0.000000	6.338894	-0.018361	NaN	0.000000	0.001623	0.001745	28.0808	0.106207	0.002023	52.4887	96.5719	-168.942	0.101670	0.337157	-0.717493	-0.718860	-0.018361	52.4887	-0.717230	-3.362769E+9	5.460222E-12	NaN
556	1.000000	0.346481	7.37049e+06	-49289.1	1005.82	-29759.6	0.000000	0.000000	6.346851	-0.006306	NaN	0.000000	0.001656	0.001735	28.0809	0.043673	0.002043	21.3728	131.036	-167.035	0.033205	0.345193	-0.709536	-0.710824	-0.006306	21.3728	-0.709314	-2.622364E+9	2.404687E-12	NaN
556	1.000000	0.354498	7.37049e+06	-49289.1	1005.82	-29759.6	0.000000	0.000000	6.354869	0.001789	NaN	0.000000	0.001656	0.001727	28.0808	0.024864	0.001994	12.4716	100.92	-166.93	0.003667	0.353171	-0.701518	-0.702846	0.001789	12.4716	-0.701626	-2.059377E+9	-8.687715E-13	NaN
556	1.000000	0.362484	7.37049e+06	-49289.1	1005.82	-29759.6	0.000000	0.000000	6.362856	0.036156	NaN	0.000000	0.001688	0.001702	28.0808	0.010537	0.001825	5.774922	-70.4058	-165.992	0.031910	0.361180	-0.693533	-0.694837	0.036156	5.774922	-0.698228	-1.850689E+9	-1.953664E-11	NaN
556	1.000000	0.370513	7.37049e+06	-49289.1	1005.82	-29759.6	0.000000	0.000000	6.370885	0.019167	NaN	0.000000	0.001641	0.001731	28.0807	0.015340	0.001844	8.319550	166.599	-165.564	0.105962	0.369201	-0.685503	-0.686816	0.019167	8.319550	-0.687231	-1.309413E+9	-1.463753E-11	NaN
556	1.000000	0.378529	7.37049e+06	-49289.1	1005.82	-29759.6	0.000000	0.000000	6.378899	0.001486	NaN	0.000000	0.001610	0.001785	28.0809	0.048235	0.001930	24.9868	-127.483	-168.58	0.059940	0.377254	-0.677488	-0.678763	0.001486	24.9868	-0.677533	-9.648434E+8	-1.540060E-12	NaN
556	1.000000	0.386561	7.37049e+06	-49289.1	1005.82	-29759.6	0.000000	0.000000	6.386930	-0.036078	NaN	0.000000	0.001620	0.001785	28.0807	0.054665	0.002114	25.8635	145.076	-165.193	0.006795	0.385201	-0.669456	-0.670816	-0.036078	25.8635	-0.668410	-7.238047E+8	4.984496E-11	NaN
556	1.000000	0.394540	7.37049e+06	-49289.1	1005.82	-29759.6	0.000000	0.000000	6.394911	-0.003137	NaN	0.000000	0.001628	0.001772	28.0805	0.065257	0.002107	30.9688	122.439	-167.323	-0.015724	0.393200	-0.661477	-0.662817	-0.003137	30.9688	-0.661401	-5.803013E+8	5.405844E-12	NaN
556	1.000000	0.402491	7.37049e+06	-49289.1	1005.82	-29759.6	0.000000	0.000000	6.402864	0.048434	NaN	0.000000	0.001678	0.001787	28.0807	0.154877	0.001938	79.9359	173.172	-164.852	0.030125	0.401245	-0.653525	-0.654772	0.048434	79.9359	-0.653980	-4.591843E+8	-1.054784E-10	NaN
556	1.000000	0.410520	7.37049e+06	-49289.1	1005.82	-29759.6	0.000000	0.000000	6.410889	-0.022504	NaN	0.000000	0.001637	0.001747	28.0806	0.037669	0.001877	20.0691	-62.6848	-165.286	-0.052952	0.409258	-0.645497	-0.646759	-0.022504	20.0691	-0.644656	-3.421067E+8	6.578068E-11	NaN
556	1.000000	0.418572	7.37049e+06	-49289.1	1005.82	-29759.6	0.000000	0.000000	6.418941	-0.030878	NaN	0.000000	0.001628	0.001778	28.0809	0.061112	0.002043	29.9116	-132.698	-169.789	-0.029496	0.417219	-0.637445	-0.638798	-0.030878	29.9116	-0.636671	-2.658301E+8	1.161556E-10	NaN
556	1.000000	0.426529	7.37049e+06	-49289.1	1005.82	-29759.6	0.000000	0.000000	6.426900	0.027525	NaN	0.000000	0.001618	0.001740	28.0807	0.050320	0.002007	25.0684	-79.0478	-166.37	0.078362	0.425202	-0.629488	-0.630815	0.027525	25.0684	-0.630311	-2.174207E+8	-1.265994E-10	NaN
556	1.000000	0.434509	7.37049e+06	-49289.1	1005.82	-29759.6	0.000000	0.000000	6.434882	0.040077	NaN	0.000000	0.001569	0.001745	28.0796	0.065339	0.001924	33.9615	-28.3919	-164.957	0.034387	0.433220	-0.621507	-0.622797	0.040077	33.9615	-0.622392	-1.692449E+8	-2.367997E-10	NaN
556	1.000000	0.442536	7.37049e+06	-49289.1	1005.82	-29759.6	0.000000	0.000000	6.442907	0.000503	NaN	0.000000	0.001573	0.001761	28.0797	0.061686	0.002102	29.353	8.235200	-162.596	-0.054104	0.441258	-0.613481	-0.614759	0.000503	29.353	-0.613494	-1.276944E+8	-3.939807E-12	NaN
556	1.000000	0.450547	7.37049e+06	-49289.1	1005.82	-29759.6	0.000000	0.000000	6.450916	-0.036708	NaN	0.000000	0.001589	0.001708	28.0795	0.018774	0.001995	9.411009	-10.3324	-168.375	-0.035675	0.449215	-0.605470	-0.606802	-0.036708	9.411009	-0.602545	-9.026108E+7	4.066860E-10	NaN
556	1.000000	0.458536	7.37049e+06	-49289.1	1005.82	-29759.6	0.000000	0.000000	6.458906	-0.002112	NaN	0.000000	0.001605	0.001742	28.0797	0.061038	0.002026	30.1261	-155.003	-162.837	0.095793	0.457298	-0.597481	-0.598719	-0.002112	30.1261	-0.597428	-7.674297E+7	2.752390E-11	NaN
556	1.000000	0.466552	7.37049e+06	-49289.1	1005.82	-29759.6	0.000000	0.000000	6.466923	0.022324	NaN	0.000000	0.001564	0.001735	28.0793	0.102359	0.002060	49.6838	-138.782	-164.214	0.072408	0.465240	-0.589465	-0.590777	0.022324	49.6838	-0.589802	-6.024691E+7	-3.705337E-10	NaN
556	1.000000	0.474559	7.37049e+06	-49289.1	1005.82	-29759.6	0.000000	0.000000	6.474931	0.042056	NaN	0.000000	0.001544	0.001715	28.0792	0.046315	0.002019	22.9375	-84.9041	-163.728	0.028905	0.473250	-0.581458	-0.582766	0.042056	22.9375	-0.582833	-4.828581E+7	-8.709724E-10	NaN
556	1.000000	0.482549	7.37049e+06	-49289.1	1005.82	-29759.6	0.000000	0.000000	6.482921	0.040514	NaN	0.000000	0.001585	0.001759	28.0794	0.047051	0.002001	23.5082	51.179	-162.536	0.027242	0.481226	-0.573468	-0.574791	0.040514	23.5082	-0.574760	-3.735838E+7	-1.084472E-9	NaN
556	1.000000	0.490560	7.37049e+06	-49289.1	1005.82	-29759.6	0.000000	0.000000	6.490929	-0.043019	NaN	0.000000	0.001605	0.001697	28.0795	0.058527	0.002064	28.3609	128.134	-161.974	-0.039987	0.489221	-0.565456	-0.566796	-0.043019	28.3609	-0.564319	-2.679827E+7	1.605273E-9	NaN
556	1.000000	0.498572	7.37049e+06	-49289.1	1005.82	-29759.6	0.000000	0.000000	6.498944	0.034197	NaN	0.000000	0.001589	0.001729	28.0796	0.100072	0.002051	48.7973	-9.502294	-170.88	0.047110	0.497320	-0.557445	-0.558696	0.034197	48.7973	-0.557970	-2.189249E+7	-1.562032E-9	NaN
556	1.000000	0.506579	7.37049e+06	-49289.1	1005.82	-29759.6	0.000000	0.000000	6.506951	0.030374	NaN	0.000000	0.001610	0.001718	28.0794	0.069494	0.002042	34.0371	94.4141	-165.746	-0.013197	0.505245	-0.549438	-0.550771	0.030374	34.0371	-0.550107	-1.703894E+7	-1.782646E-9	NaN
556	1.000000	0.514573	7.37049e+06	-49289.1	1005.82	-29759.6	0.000000	0.000000	6.514942	-0.036631	NaN	0.000000	0.001595	0.001721	28.0793	0.047773	0.002013	23.7321	161.73	-162.483	0.004761	0.513227	-0.541444	-0.542790	-0.036631	23.7321	-0.540286	-1.245455E+7	2.941200E-9	NaN
556	1.000000	0.522575	7.37049e+06	-49289.1	1005.82	-29759.6	0.000000	0.000000	6.522943	-0.056046	NaN	0.000000	0.001605	0.001668	28.0795	0.077396	0.002099	36.8806	-177.967	-165.475	-0.112874	0.521300	-0.533442	-0.534717	-0.056046	36.8806	-0.532302	-9.65036e+06	5.807680E-9	NaN
556	1.000000	0.530611	7.37049e+06	-49289.1	1005.82	-29759.6	0.000000	0.000000	6.530981	-0.000567	NaN	0.000000	0.001610	0.001680	28.0793	0.071769	0.002049	35.0312	-15.0987	-163.735	0.033372	0.529289	-0.525406	-0.526728	-0.000567	35.0312	-0.525394	-7.73729e+06	7.328017E-11	NaN
556	1.000000	0.538615	7.37049e+06	-49289.1	1005.82	-29759.6	0.000000	0.000000	6.538985	-0.005878	NaN	0.000000	0.001616	0.001657	28.0793	0.051490	0.001989	25.8833	75.0398	-166.121	0.036872	0.537316	-0.517402	-0.518701	-0.005878	25.8833	-0.517232	-5.95783e+06	9.865849E-10	NaN
556	1.000000	0.546627	7.37049e+06	-49289.1	1005.82	-29759.6	0.000000	0.000000	6.546999	0.042124	NaN	0.000000	0.001586	0.001634	28.0796	0.001997	0.002096	0.952955	45.0574	-166.732	0.029161	0.545306	-0.509390	-0.510710	0.042124	0.952955	-0.542543	-1.338506E+7	-3.147123E-9	NaN
556	1.000000	0.554604	7.37049e+06	-49289.1	1005.82	-29759.6	0.000000	0.000000	6.554974	-0.000974	NaN	0.000000	0.001589	0.001639	28.0794	0.129187	0.002053	62.9109	36.5703	-167.329	-0.100790	0.553307	-0.501413	-0.502710	-0.000974	62.9109	-0.501401	-3.58562e+06	2.716671E-10	NaN
556	1.000000	0.562588	7.37049e+06	-49289.1	1005.82	-29759.6	0.000000	0.000000	6.562958	-0.033360	NaN	0.000000	0.001587	0.001653	28.0794	0.088246	0.002011	43.8902	119.283	-168.82	0.026224	0.561290	-0.493428	-0.494727	-0.033360	43.8902	-0.492858	-2.72475e+06	1.224342E-8	NaN
556	1.000000	0.570603	7.37049e+06	-49289.1	1005.82	-29759.6	0.000000	0.000000	6.570974	0.003001	NaN	0.000000	0.001611	0.001625	28.0808	0.041074	0.002134	19.2511	31.059	-165.172	-0.084898	0.569299	-0.485414	-0.486718	0.003001	19.2511	-0.485531	-2.15235e+06	-1.394098E-9	NaN
556	1.000000	0.578578	7.37049e+06	-49289.1	1005.82	-29759.6	0.000000	0.000000	6.578948	-0.005779	NaN	0.000000	0.001578	0.001651	28.0804	0.028305	0.001993	14.2003	69.6204	-165.585	0.058543	0.577263	-0.477439	-0.478754	-0.005779	14.2003	-0.477134	-1.64207e+06	3.519262E-9	NaN
556	1.000000	0.586593	7.37049e+06	-49289.1	1005.82	-29759.6	0.000000	0.000000	6.586963	-0.012897	NaN	0.000000	0.001588	0.001625	28.0807	0.067995	0.001976	34.4027	-5.445535	-164.732	-0.035845	0.585234	-0.469424	-0.470783	-0.012897	34.4027	-0.469143	-1.26876e+06	1.016482E-8	NaN
556	1.000000	0.594601	7.37049e+06	-49289.1	1005.82	-29759.6	0.000000	0.000000	6.594973	0.051747	NaN	0.000000	0.001609	0.001599	28.0807	0.038999	0.001988	19.6159	74.6686	-166.044	0.042048	0.593315	-0.461416	-0.462701	0.051747	19.6159	-0.463395	-1.05368e+06	-4.911094E-8	NaN
556	1.000000	0.602602	7.37049e+06	-49289.1	1005.82	-29759.6	0.000000	0.000000	6.602975	0.052019	NaN	0.000000	0.001624	0.001655	28.0809	0.065152	0.001974	33.0091	45.6887	-167.553	0.082371	0.601284	-0.453415	-0.454733	0.052019	33.0091	-0.454597	-792579	-6.563283E-8	NaN
556	1.000000	0.610605	7.37049e+06	-49289.1	1005.82	-29759.6	0.000000	0.000000	6.610977	0.047508	NaN	0.000000	0.001605	0.001634	28.0804	0.050117	0.002058	24.3473	116.805	-167.615	0.051013	0.609306	-0.445412	-0.446711	0.047508	24.3473	-0.446875	-617055	-7.699154E-8	NaN
556	1.000000	0.618618	7.37049e+06	-49289.1	1005.82	-29759.6	0.000000	0.000000	6.618990	0.042417	NaN	0.000000	0.001568	0.001648	28.0805	0.086809	0.002046	42.4333	-172.837	-164.262	-0.035835	0.617320	-0.437399	-0.438697	0.042417	42.4333	-0.438149	-464765	-9.126582E-8	NaN
556	1.000000	0.626629	7.37049e+06	-49289.1	1005.82	-29759.6	0.000000	0.000000	6.627002	0.057881	NaN	0.000000	0.001566	0.001632	28.0805	0.076514	0.001990	38.4444	-102.923	-169.035	0.052887	0.625304	-0.429388	-0.430713	0.057881	38.4444	-0.430517	-362554	-1.596491E-7	NaN
556	1.000000	0.634630	7.37049e+06	-49289.1	1005.82	-29759.6	0.000000	0.000000	6.635000	-0.010284	NaN	0.000000	0.001624	0.001603	28.0807	0.044903	0.002011	22.33	114.822	-163.748	0.000703	0.633278	-0.421387	-0.422739	-0.010284	22.33	-0.421042	-266187	3.863607E-8	NaN
556	1.000000	0.642644	7.37049e+06	-49289.1	1005.82	-29759.6	0.000000	0.000000	6.643014	-0.010394	NaN	0.000000	0.001635	0.001684	28.0808	0.082347	0.001969	41.8175	-19.2257	-164.043	-0.009455	0.641283	-0.413373	-0.414734	-0.010394	41.8175	-0.413187	-205919	5.047399E-8	NaN
556	1.000000	0.650614	7.37049e+06	-49289.1	1005.82	-29759.6	0.000000	0.000000	6.650985	0.010428	NaN	0.000000	0.001590	0.001640	28.0808	0.044567	0.002027	21.9876	149.85	-168.263	0.132085	0.649348	-0.405403	-0.406668	0.010428	21.9876	-0.405758	-161453	-6.459008E-8	NaN
556	1.000000	0.658649	7.37049e+06	-49289.1	1005.82	-29759.6	0.000000	0.000000	6.659020	0.015831	NaN	0.000000	0.001571	0.001637	28.0808	0.041786	0.002114	19.7665	86.8841	-167.383	0.010927	0.657325	-0.397368	-0.398692	0.015831	19.7665	-0.397969	-125030	-1.266193E-7	NaN
556	1.000000	0.666627	7.37049e+06	-49289.1	1005.82	-29759.6	0.000000	0.000000	6.666999	0.027125	NaN	0.000000	0.001569	0.001679	28.0806	0.043664	0.002008	21.7471	173.851	-168.856	0.028043	0.665364	-0.389390	-0.390653	0.027125	21.7471	-0.390325	-97233.7	-2.789627E-7	NaN
556	1.000000	0.674623	7.37049e+06	-49289.1	1005.82	-29759.6	0.000000	0.000000	6.674992	-0.020467	NaN	0.000000	0.001598	0.001637	28.0807	0.104493	0.002003	52.1764	-110.771	-167.436	0.056858	0.673281	-0.381394	-0.382736	-0.020467	52.1764	-0.381100	-71725	2.853588E-7	NaN
556	1.000000	0.682647	7.37049e+06	-49289.1	1005.82	-29759.6	0.000000	0.000000	6.683017	-0.023917	NaN	0.000000	0.001561	0.001664	28.0804	0.057504	0.002013	28.5694	148.136	-167.641	0.025173	0.681355	-0.373370	-0.374662	-0.023917	28.5694	-0.372742	-54399.3	4.396590E-7	NaN
556	1.000000	0.690645	7.37049e+06	-49289.1	1005.82	-29759.6	0.000000	0.000000	6.691016	0.031135	NaN	0.000000	0.001579	0.001693	28.0808	0.091496	0.001986	46.0621	116.302	-165.162	-0.011603	0.689353	-0.365372	-0.366664	0.031135	46.0621	-0.365879	-43324.6	-7.186524E-7	NaN
556	1.000000	0.698655	7.37049e+06	-49289.1	1005.82	-29759.6	0.000000	0.000000	6.699027	0.044092	NaN	0.000000	0.001576	0.001674	28.0805	0.088950	0.002020	44.0279	76.016	-166.77	0.104763	0.697319	-0.357362	-0.358698	0.044092	44.0279	-0.358113	-33462.5	-1.317652E-6	NaN
556	1.000000	0.706629	7.37049e+06	-49289.1	1005.82	-29759.6	0.000000	0.000000	6.706998	-0.029165	NaN	0.000000	0.001555	0.001645	28.0795	0.044433	0.001967	22.5865	112.937	-164.679	-0.101982	0.705341	-0.349388	-0.350676	-0.029165	22.5865	-0.348419	-24213.3	1.204498E-6	NaN
556	1.000000	0.714660	7.37049e+06	-49289.1	1005.82	-29759.6	0.000000	0.000000	6.715031	0.007855	NaN	0.000000	0.001596	0.001629	28.0796	0.095774	0.001890	50.6646	170.922	-167.296	0.056187	0.713348	-0.341357	-0.342669	0.007855	50.6646	-0.341473	-19187.4	-4.093653E-7	NaN
556	1.000000	0.722647	7.37049e+06	-49289.1	1005.82	-29759.6	0.000000	0.000000	6.723019	0.029761	NaN	0.000000	0.001568	0.001650	28.0792	0.101651	0.001990	51.0801	90.8489	-167.859	0.044074	0.721363	-0.333370	-0.334654	0.029761	51.0801	-0.333807	-14830.3	-2.006738E-6	NaN
556	1.000000	0.730660	7.37049e+06	-49289.1	1005.82	-29759.6	0.000000	0.000000	6.731029	-0.021240	NaN	0.000000	0.001604	0.001630	28.0794	0.118166	0.002080	56.824	160.245	-167.075	-0.052261	0.729370	-0.325357	-0.326647	-0.021240	56.824	-0.325077	-11047.5	1.922579E-6	NaN
556	1.000000	0.738686	7.37049e+06	-49289.1	1005.82	-29759.6	0.000000	0.000000	6.739060	0.087578	NaN	0.000000	0.001565	0.001626	28.0794	0.111507	0.001873	59.5297	111.197	-164.593	0.032535	0.737334	-0.317331	-0.318683	0.087578	59.5297	-0.318435	-8822.46	-9.926684E-6	NaN
556	1.000000	0.746670	7.37049e+06	-49289.1	1005.82	-29759.6	0.000000	0.000000	6.747038	-0.056881	NaN	0.000000	0.001588	0.001648	28.0794	0.075789	0.002019	37.5313	-76.7932	-166.975	-0.050430	0.745353	-0.309347	-0.310664	-0.056881	37.5313	-0.308210	-6230.99	9.128701E-6	NaN
556	1.000000	0.754682	7.37049e+06	-49289.1	1005.82	-29759.6	0.000000	0.000000	6.755052	-0.008362	NaN	0.000000	0.001602	0.001648	28.0794	0.145570	0.002027	71.8173	37.017	-167.575	-0.061961	0.753315	-0.301335	-0.302702	-0.008362	71.8173	-0.301248	-4911.4	1.702608E-6	NaN
556	1.000000	0.762672	7.37049e+06	-49289.1	1005.82	-29759.6	0.000000	0.000000	6.763039	-0.084498	NaN	0.000000	0.001566	0.001631	28.0793	0.125821	0.001983	63.4564	64.4295	-165.015	-0.035041	0.761351	-0.293345	-0.294666	-0.084498	63.4564	-0.292346	-3617.6	2.335749E-5	NaN
556	1.000000	0.770673	7.37049e+06	-49289.1	1005.82	-29759.6	0.000000	0.000000	6.771046	0.050979	NaN	0.000000	0.001586	0.001636	28.0794	0.076927	0.001990	38.6654	16.8721	-166.1	0.033560	0.769378	-0.285344	-0.286639	0.050979	38.6654	-0.286333	-2939.61	-1.734212E-5	NaN
556	1.000000	0.778666	7.37049e+06	-49289.1	1005.82	-29759.6	0.000000	0.000000	6.779039	0.053048	NaN	0.000000	0.001608	0.001595	28.0793	0.050784	0.002037	24.9357	-178.943	-166.021	-0.014325	0.777352	-0.277351	-0.278664	0.053048	24.9357	-0.278946	-2275.45	-2.331311E-5	NaN
556	1.000000	0.786657	7.37049e+06	-49289.1	1005.82	-29759.6	0.000000	0.000000	6.787027	-0.012134	NaN	0.000000	0.001574	0.001598	28.0794	0.146345	0.001901	76.9814	167.972	-167.455	0.050360	0.785315	-0.269360	-0.270702	-0.012134	76.9814	-0.269242	-1621.85	7.481559E-6	NaN
556	1.000000	0.794686	7.37049e+06	-49289.1	1005.82	-29759.6	0.000000	0.000000	6.795053	-0.069301	NaN	0.000000	0.001614	0.001611	28.0792	0.057980	0.001917	30.2436	-82.6442	-166.673	-0.065646	0.793446	-0.261331	-0.262571	-0.069301	30.2436	-0.259613	-1156.06	5.994561E-5	NaN
556	1.000000	0.802715	7.37049e+06	-49289.1	1005.82	-29759.6	0.000000	0.000000	6.803085	-0.006279	NaN	0.000000	0.001590	0.001628	28.0791	0.045202	0.002010	22.4896	169.842	-165.248	0.048209	0.801363	-0.253302	-0.254654	-0.006279	22.4896	-0.253093	-917.761	6.841248E-6	NaN
556	1.000000	0.810711	7.37049e+06	-49289.1	1005.82	-29759.6	0.000000	0.000000	6.811081	-0.019631	NaN	0.000000	0.001581	0.001639	28.0796	0.100724	0.002044	49.2788	102.439	-164.23	0.030416	0.809341	-0.245306	-0.246676	-0.019631	49.2788	-0.245007	-687.956	2.853573E-5	NaN
556	1.000000	0.818700	7.37049e+06	-49289.1	1005.82	-29759.6	0.000000	0.000000	6.819072	0.035382	NaN	0.000000	0.001585	0.001636	28.0794	0.077313	0.002016	38.3497	30.6897	-167.034	0.076475	0.817415	-0.237317	-0.238602	0.035382	38.3497	-0.238009	-535.081	-6.612425E-5	NaN
556	1.000000	0.826741	7.37049e+06	-49289.1	1005.82	-29759.6	0.000000	0.000000	6.827110	-0.018479	NaN	0.000000	0.001571	0.001654	28.0794	0.103228	0.002041	50.576	-167.881	-166.262	-0.014660	0.825365	-0.229276	-0.230652	-0.018479	50.576	-0.229002	-386.146	4.785527E-5	NaN
556	1.000000	0.834684	7.37049e+06	-49289.1	1005.82	-29759.6	0.000000	0.000000	6.835058	0.086855	NaN	0.000000	0.001563	0.001635	28.0793	0.021257	0.001852	11.4784	-135.141	-165.924	0.033575	0.833400	-0.221333	-0.222617	0.086855	11.4784	-0.227008	-359.084	-0.000242	NaN
556	1.000000	0.842687	7.37049e+06	-49289.1	1005.82	-29759.6	0.000000	0.000000	6.843058	0.021708	NaN	0.000000	0.001585	0.001645	28.0804	0.159426	0.002107	75.6583	8.812557	-167.893	-0.029208	0.841419	-0.213330	-0.214598	0.021708	75.6583	-0.213545	-218.823	-9.920404E-5	NaN
556	1.000000	0.850721	7.37049e+06	-49289.1	1005.82	-29759.6	0.000000	0.000000	6.851094	0.048636	NaN	0.000000	0.001602	0.001627	28.0807	0.020226	0.002022	10.0018	-45.919	-165.871	0.072970	0.849362	-0.205296	-0.206655	0.048636	10.0018	-0.208943	-184.367	-0.000264	NaN
556	1.000000	0.858728	7.37049e+06	-49289.1	1005.82	-29759.6	0.000000	0.000000	6.859098	-0.013386	NaN	0.000000	0.001582	0.001621	28.0805	0.098625	0.001893	52.0966	79.9356	-165.99	-0.013789	0.857443	-0.197288	-0.198573	-0.013386	52.0966	-0.197096	-117.994	0.000113	NaN
556	1.000000	0.866709	7.37049e+06	-49289.1	1005.82	-29759.6	0.000000	0.000000	6.867079	-0.000929	NaN	0.000000	0.001599	0.001625	28.0805	0.092677	0.001945	47.6486	43.6848	-164.37	-0.051102	0.865427	-0.189308	-0.190590	-0.000929	47.6486	-0.189293	-87.5418	1.061663E-5	NaN
556	1.000000	0.874727	7.37049e+06	-49289.1	1005.82	-29759.6	0.000000	0.000000	6.875099	0.027950	NaN	0.000000	0.001592	0.001631	28.0807	0.085637	0.002040	41.9805	159.468	-161.743	-0.012821	0.873411	-0.181290	-0.182606	0.027950	41.9805	-0.181789	-65.4415	-0.000427	NaN
556	1.000000	0.882721	7.37049e+06	-49289.1	1005.82	-29759.6	0.000000	0.000000	6.883094	0.063997	NaN	0.000000	0.001587	0.001628	28.0808	0.081404	0.002029	40.1107	-155.182	-165.902	0.049251	0.881418	-0.173296	-0.174598	0.063997	40.1107	-0.174493	-49.1203	-0.001303	NaN
556	1.000000	0.890713	7.37049e+06	-49289.1	1005.82	-29759.6	0.000000	0.000000	6.891085	0.027934	NaN	0.000000	0.001577	0.001633	28.0808	0.008600	0.002024	4.249490	-72.2712	-168.469	0.067026	0.889478	-0.165304	-0.166538	0.027934	4.249490	-0.170234	-41.4644	-0.000674	NaN
556	1.000000	0.898751	7.37049e+06	-49289.1	1005.82	-29759.6	0.000000	0.000000	6.899124	0.057148	NaN	0.000000	0.001625	0.001636	28.0806	0.030394	0.002050	14.828	148.725	-167.682	0.015164	0.897451	-0.157265	-0.158566	0.057148	14.828	-0.160156	-27.5904	-0.002071	NaN
556	1.000000	0.906739	7.37049e+06	-49289.1	1005.82	-29759.6	0.000000	0.000000	6.907111	0.027446	NaN	0.000000	0.001569	0.001627	28.0808	0.062690	0.001970	31.8173	169.42	-163.674	-0.002823	0.905410	-0.149277	-0.150607	0.027446	31.8173	-0.149924	-18.0561	-0.001520	NaN
556	1.000000	0.914756	7.37049e+06	-49289.1	1005.82	-29759.6	0.000000	0.000000	6.915126	-0.019989	NaN	0.000000	0.001567	0.001638	28.0804	0.048340	0.002020	23.9297	-37.774	-165.732	0.005005	0.913412	-0.141261	-0.142605	-0.019989	23.9297	-0.140634	-12.1581	0.001644	NaN
556	1.000000	0.922772	7.37049e+06	-49289.1	1005.82	-29759.6	0.000000	0.000000	6.923142	-0.014377	NaN	0.000000	0.001569	0.001627	28.0809	0.168937	0.001871	90.2913	-90.9405	-164.992	-0.016254	0.921419	-0.133245	-0.134598	-0.014377	90.2913	-0.133125	-8.757536	0.001642	NaN
556	1.000000	0.930739	7.37049e+06	-49289.1	1005.82	-29759.6	0.000000	0.000000	6.931108	-0.053151	NaN	0.000000	0.001580	0.001591	28.0805	0.136148	0.001855	73.3774	-155.659	-164.249	-0.019947	0.929445	-0.125277	-0.126571	-0.053151	73.3774	-0.124734	-6.008005	0.008847	NaN
556	1.000000	0.938754	7.37049e+06	-49289.1	1005.82	-29759.6	0.000000	0.000000	6.939127	0.061915	NaN	0.000000	0.001565	0.001622	28.0806	0.044444	0.002028	21.9155	-34.8552	-166.073	0.106900	0.937444	-0.117263	-0.118572	0.061915	21.9155	-0.119382	-4.694491	-0.013189	NaN
556	1.000000	0.946732	7.37049e+06	-49289.1	1005.82	-29759.6	0.000000	0.000000	6.947101	-0.028964	NaN	0.000000	0.001603	0.001663	28.0807	0.080963	0.002128	38.0534	-84.9269	-165.08	-0.064465	0.945404	-0.109285	-0.110613	-0.028964	38.0534	-0.108714	-2.822797	0.010261	NaN
556	1.000000	0.954728	7.37049e+06	-49289.1	1005.82	-29759.6	0.000000	0.000000	6.955099	0.012115	NaN	0.000000	0.001593	0.001652	28.0806	0.087982	0.001986	44.3067	-124.375	-165.599	0.025155	0.953473	-0.101289	-0.102544	0.012115	44.3067	-0.101494	-1.971293	-0.006146	NaN
556	1.000000	0.962788	7.37049e+06	-49289.1	1005.82	-29759.6	0.000000	0.000000	6.963162	0.088197	NaN	0.000000	0.001629	0.001638	28.081	0.081154	0.001914	42.3982	101.567	-165.415	0.087933	0.961458	-0.093229	-0.094559	0.088197	42.3982	-0.094789	-1.395125	-0.063218	NaN
556	1.000000	0.970744	7.37049e+06	-49289.1	1005.82	-29759.6	0.000000	0.000000	6.971115	0.019614	NaN	0.000000	0.001606	0.001639	28.0806	0.081845	0.001905	42.9705	-105.465	-164.054	0.033293	0.969431	-0.085273	-0.086586	0.019614	42.9705	-0.085615	-0.850225	-0.023069	NaN
556	1.000000	0.978771	7.37049e+06	-49289.1	1005.82	-29759.6	0.000000	0.000000	6.979141	-0.032718	NaN	0.000000	0.001644	0.001663	28.0795	0.059463	0.002040	29.1434	82.1896	-163.77	-0.025414	0.977435	-0.077245	-0.078582	-0.032718	29.1434	-0.076403	-0.501942	0.065182	NaN
556	1.000000	0.986757	7.37049e+06	-49289.1	1005.82	-29759.6	0.000000	0.000000	6.987128	-0.001475	NaN	0.000000	0.001651	0.001684	28.0794	0.044426	0.001945	22.8409	10.7235	-166.449	0.004762	0.985483	-0.069260	-0.070534	-0.001475	22.8409	-0.069211	-0.324866	0.004540	NaN
556	1.000000	0.994771	7.37049e+06	-49289.1	1005.82	-29759.6	0.000000	0.000000	6.995143	0.055822	NaN	0.000000	0.001563	0.001644	28.0803	0.017024	0.002023	8.416703	-41.4663	-165.332	0.070980	0.993439	-0.061246	-0.062578	0.055822	8.416703	-0.066220	-0.269333	-0.207262	NaN
556	1.000000	1.002756	7.37049e+06	-49289.1	1005.82	-29759.6	0.000000	0.000000	7.003129	0.069083	NaN	0.000000	0.001558	0.001655	28.0794	0.081172	0.001950	41.616	70.2206	-161.98	0.019996	1.001457	-0.053261	-0.054560	0.069083	41.616	-0.054506	-0.124512	-0.554826	NaN
556	1.000000	1.010787	7.37049e+06	-49289.1	1005.82	-29759.6	0.000000	0.000000	7.011159	0.017939	NaN	0.000000	0.001572	0.001633	28.0793	0.025711	0.001966	13.0799	71.6181	-166.366	0.061531	1.009474	-0.045230	-0.046543	0.017939	13.0799	-0.046258	-0.070218	-0.255481	NaN
556	1.000000	1.018773	7.37049e+06	-49289.1	1005.82	-29759.6	0.000000	0.000000	7.019143	0.008769	NaN	0.000000	0.001552	0.001661	28.0797	0.018973	0.001979	9.586052	-170.583	-165.388	0.029625	1.017452	-0.037244	-0.038565	0.008769	9.586052	-0.037930	-0.039153	-0.223972	NaN
556	1.000000	1.026752	7.37049e+06	-49289.1	1005.82	-29759.6	0.000000	0.000000	7.027124	0.031391	NaN	0.000000	0.001599	0.001636	28.0794	0.065852	0.002110	31.2136	-27.7176	-166.849	-0.097657	1.025465	-0.029265	-0.030552	0.031391	31.2136	-0.030019	-0.023041	-1.362398	NaN
556	1.000000	1.034796	7.37049e+06	-49289.1	1005.82	-29759.6	0.000000	0.000000	7.035167	0.027033	NaN	0.000000	0.001588	0.001630	28.0791	0.100132	0.001925	52.0285	87.0048	-164.607	0.071953	1.033538	-0.021221	-0.022479	0.027033	52.0285	-0.021611	-0.013803	-1.958554	NaN
556	1.000000	1.042803	7.37049e+06	-49289.1	1005.82	-29759.6	0.000000	0.000000	7.043173	-0.015276	NaN	0.000000	0.001582	0.001656	28.0792	0.091263	0.002168	42.0964	-147.973	-163.446	-0.043052	1.041516	-0.013213	-0.014501	-0.015276	42.0964	-0.012941	-0.008068	1.893281	NaN
556	1.000000	1.050785	7.37049e+06	-49289.1	1005.82	-29759.6	0.000000	0.000000	7.051158	0.042865	NaN	0.000000	0.001577	0.001635	28.0791	0.056969	0.001994	28.5633	115.538	-169.855	0.070941	1.049448	-0.005231	-0.006569	0.042865	28.5633	-0.006357	-0.004254	-10.0773	NaN
556	1.000000	1.058796	7.37049e+06	-49289.1	1005.82	-29759.6	0.000000	0.000000	7.059331	3.979277	NaN	0.000000	0.001602	0.001650	28.08	4.611683	0.001699	2714.62	8.588871	-170.266	2.555591	1.057516	0.002780	0.001499	3.979277	2714.62	0.001680	0.001298	3066.06	68844.7
556	2.000000	1.064442	7.37049e+06	-49289.1	1005.82	-29759.6	0.000000	0.000000	7.065192	9.222874	NaN	0.000000	0.001605	0.001635	28.0794	9.474765	0.001676	5652.19	3.469309	-168.356	8.825320	1.064082	0.008425	0.008065	9.222874	5652.19	0.007201	0.006234	1479.51	65405.7
556	2.000000	1.066359	7.37049e+06	-49289.1	1005.82	-29759.6	0.000000	0.000000	7.067260	12.8999	NaN	0.000000	0.001615	0.001620	28.0793	11.6436	0.001623	7174.54	4.032042	-173.015	11.5016	1.066078	0.010342	0.010061	12.8999	7174.54	0.008994	0.008084	1595.67	72903.2
556	2.000000	1.068366	7.37049e+06	-49289.1	1005.82	-29759.6	0.000000	0.000000	7.069304	13.8122	NaN	0.000000	0.001594	0.001601	28.0793	14.0903	0.001767	7974.71	6.808946	-174.955	14.4883	1.068087	0.012349	0.012070	13.8122	7974.71	0.011050	0.010372	1331.72	71542.4
556	2.000000	1.070339	7.37049e+06	-49289.1	1005.82	-29759.6	0.000000	0.000000	7.071432	17.5657	NaN	0.000000	0.001618	0.001639	28.0794	15.501	0.001712	9055.84	5.011060	-174.439	16.9203	1.070042	0.014322	0.014025	17.5657	9055.84	0.012867	0.012546	1400.13	73867.4
556	2.000000	1.072342	7.37049e+06	-49289.1	1005.82	-29759.6	0.000000	0.000000	7.073545	20.2563	NaN	0.000000	0.001626	0.001651	28.0806	18.2546	0.001854	9847.28	7.218531	-176.393	20.4421	1.072031	0.016325	0.016014	20.2563	9847.28	0.014782	0.014996	1350.75	73467.8
556	2.000000	1.074360	7.37049e+06	-49289.1	1005.82	-29759.6	0.000000	0.000000	7.075854	27.3327	NaN	0.000000	0.001646	0.001587	28.0794	20.4315	0.001809	11292	8.818281	-179.159	27.9543	1.073993	0.018343	0.017977	27.3327	11292	0.016527	0.017376	1572.99	78264.9
556	2.000000	1.076263	7.37049e+06	-49289.1	1005.82	-29759.6	0.000000	0.000000	7.077939	31.7641	NaN	0.000000	0.001612	0.001660	28.0804	21.6715	0.001681	12893.4	2.511356	-175.125	29.3087	1.075977	0.020246	0.019961	31.7641	12893.4	0.018398	0.020087	1581.31	83115.2
556	2.000000	1.078352	7.37049e+06	-49289.1	1005.82	-29759.6	0.000000	0.000000	7.080118	33.9268	NaN	0.000000	0.001618	0.001607	28.0808	24.8352	0.001794	13847	7.526840	179.832	35.088	1.078049	0.022335	0.022032	33.9268	13847	0.020498	0.023331	1454.17	82825.8
556	2.000000	1.080289	7.37049e+06	-49289.1	1005.82	-29759.6	0.000000	0.000000	7.082360	41.3679	NaN	0.000000	0.001619	0.001650	28.0807	25.7375	0.001720	14960	3.763212	-178.295	40.017	1.079999	0.024272	0.023982	41.3679	14960	0.022198	0.026114	1584.1	84579.7
556	2.000000	1.082296	7.37049e+06	-49289.1	1005.82	-29759.6	0.000000	0.000000	7.084526	45.232	NaN	0.000000	0.001563	0.001685	28.0826	28.8798	0.001886	15314.9	6.785595	-179.937	45.7647	1.081917	0.026279	0.025900	45.232	15314.9	0.024064	0.029335	1541.92	81695
556	2.000000	1.084303	7.37049e+06	-49289.1	1005.82	-29759.6	0.000000	0.000000	7.086829	52.4201	NaN	0.000000	0.001589	0.001647	28.0804	31.2793	0.001881	16632.5	8.885355	176.91	53.1765	1.083992	0.028286	0.027976	52.4201	16632.5	0.025922	0.032715	1602.32	84014.9
556	2.000000	1.086279	7.37049e+06	-49289.1	1005.82	-29759.6	0.000000	0.000000	7.088905	54.8411	NaN	0.000000	0.001545	0.001633	28.0806	32.0032	0.001767	18113.1	6.686956	178.111	54.9954	1.085962	0.030263	0.029945	54.8411	18113.1	0.027992	0.036684	1494.95	86402.7
556	2.000000	1.088275	7.37049e+06	-49289.1	1005.82	-29759.6	0.000000	0.000000	7.091206	62.2785	NaN	0.000000	0.001562	0.001632	28.0808	34.7161	0.001769	19627.9	4.392391	178.593	60.1134	1.087942	0.032258	0.031925	62.2785	19627.9	0.029878	0.040491	1538.07	89118
556	2.000000	1.090297	7.37049e+06	-49289.1	1005.82	-29759.6	0.000000	0.000000	7.093341	65.0095	NaN	0.000000	0.001603	0.001638	28.081	35.2102	0.001744	20193.9	1.153081	-177.863	63.8275	1.090011	0.034281	0.033995	65.0095	20193.9	0.031866	0.044700	1454.34	87264.5
556	2.000000	1.092252	7.37049e+06	-49289.1	1005.82	-29759.6	0.000000	0.000000	7.095559	71.4081	NaN	0.000000	0.001596	0.001632	28.0812	38.0074	0.001845	20597.6	3.693143	179.606	70.2376	1.091995	0.036235	0.035978	71.4081	20597.6	0.033635	0.048616	1468.83	85349.5
556	2.000000	1.094259	7.37049e+06	-49289.1	1005.82	-29759.6	0.000000	0.000000	7.097862	78.6105	NaN	0.000000	0.001585	0.001644	28.0808	39.0173	0.001685	23156	-0.301284	-178.187	76.7425	1.094005	0.038242	0.037988	78.6105	23156	0.035696	0.053380	1472.67	91569.1
556	2.000000	1.096305	7.37049e+06	-49289.1	1005.82	-29759.6	0.000000	0.000000	7.100245	86.8335	NaN	0.000000	0.001607	0.001620	28.0809	41.2182	0.001820	22647.5	2.344290	-179.45	87.7169	1.095954	0.040288	0.039937	86.8335	22647.5	0.037412	0.057512	1509.84	86281.2
556	2.000000	1.098311	7.37049e+06	-49289.1	1005.82	-29759.6	0.000000	0.000000	7.102779	99.6545	NaN	0.000000	0.001579	0.001629	28.0809	43.2568	0.001782	24272.8	9.415127	173.333	101.418	1.097855	0.042294	0.041838	99.6545	24272.8	0.039215	0.062015	1606.93	89051.9
556	2.000000	1.100211	7.37049e+06	-49289.1	1005.82	-29759.6	0.000000	0.000000	7.104961	106.52	NaN	0.000000	0.001601	0.001605	28.0809	43.8544	0.001738	25237.9	5.188486	176.045	103.083	1.099944	0.044194	0.043927	106.52	25237.9	0.041029	0.066714	1596.67	89272.5
556	2.000000	1.102250	7.37049e+06	-49289.1	1005.82	-29759.6	0.000000	0.000000	7.107327	114.455	NaN	0.000000	0.001605	0.001634	28.0811	45.2493	0.001743	25953.8	4.300661	177.731	113.456	1.101856	0.046233	0.045839	114.455	25953.8	0.042926	0.071809	1593.9	88488.2
556	2.000000	1.104311	7.37049e+06	-49289.1	1005.82	-29759.6	0.000000	0.000000	7.109790	124.245	NaN	0.000000	0.001583	0.001653	28.0806	47.9068	0.001795	26682.4	3.456999	178.643	125.037	1.103977	0.048294	0.047960	124.245	26682.4	0.044802	0.077026	1613.02	87837.3
556	2.000000	1.106227	7.37049e+06	-49289.1	1005.82	-29759.6	0.000000	0.000000	7.111928	129.642	NaN	0.000000	0.001560	0.001618	28.0809	50.1193	0.001705	29389.5	6.216077	173.592	129.872	1.105992	0.050210	0.049975	129.642	29389.5	0.046902	0.083078	1560.48	93158.6
556	2.000000	1.108222	7.37049e+06	-49289.1	1005.82	-29759.6	0.000000	0.000000	7.114363	140.34	NaN	0.000000	0.001586	0.001597	28.0807	52.3027	0.001791	29204.9	3.111800	177.181	139.067	1.107926	0.052205	0.051910	140.34	29204.9	0.048601	0.088138	1592.27	89876.8
556	2.000000	1.110208	7.37049e+06	-49289.1	1005.82	-29759.6	0.000000	0.000000	7.116548	145.159	NaN	0.000000	0.001588	0.001611	28.08	53.0339	0.001807	29353.7	2.908776	176.812	143.298	1.109943	0.054192	0.053926	145.159	29353.7	0.050483	0.093911	1545.7	87513.9
556	2.000000	1.112234	7.37049e+06	-49289.1	1005.82	-29759.6	0.000000	0.000000	7.119083	157.548	NaN	0.000000	0.001603	0.001638	28.0798	56.3488	0.001784	31580.9	6.241724	173.268	157.374	1.111900	0.056218	0.055883	157.548	31580.9	0.052476	0.100220	1572.03	91142.6
556	2.000000	1.114207	7.37049e+06	-49289.1	1005.82	-29759.6	0.000000	0.000000	7.121433	166.733	NaN	0.000000	0.001603	0.001653	28.0795	58.5361	0.001825	32079.1	4.892227	174.582	163.702	1.113931	0.058190	0.057915	166.733	32079.1	0.054292	0.106141	1570.87	89960.9
556	2.000000	1.116152	7.37049e+06	-49289.1	1005.82	-29759.6	0.000000	0.000000	7.123952	180.68	NaN	0.000000	0.001634	0.001662	28.0796	59.2944	0.001698	34926.5	3.246785	175.761	176.663	1.115915	0.060135	0.059898	180.68	34926.5	0.056255	0.112723	1602.86	95043.3
556	2.000000	1.118302	7.37049e+06	-49289.1	1005.82	-29759.6	0.000000	0.000000	7.126418	188.357	NaN	0.000000	0.001620	0.001617	28.0792	61.925	0.001688	36687.3	2.040119	176.532	190.019	1.117888	0.062285	0.061871	188.357	36687.3	0.058435	0.120256	1566.3	96657.7
556	2.000000	1.120260	7.37049e+06	-49289.1	1005.82	-29759.6	0.000000	0.000000	7.128818	199.119	NaN	0.000000	0.001620	0.001633	28.0796	63.2252	0.001861	33965.8	3.728360	175.448	199.537	1.119960	0.064243	0.063943	199.119	33965.8	0.059846	0.125257	1589.68	87682.8
556	2.000000	1.122248	7.37049e+06	-49289.1	1005.82	-29759.6	0.000000	0.000000	7.131252	209.955	NaN	0.000000	0.001607	0.001612	28.0797	66.0573	0.001870	35332.6	3.419797	175.32	210.076	1.121855	0.066231	0.065838	209.955	35332.6	0.061775	0.132249	1587.58	88767.3
556	2.000000	1.124224	7.37049e+06	-49289.1	1005.82	-29759.6	0.000000	0.000000	7.133672	220.781	NaN	0.000000	0.001613	0.001616	28.0795	67.5588	0.001951	34626.9	3.487622	175.683	218.445	1.123881	0.068207	0.067864	220.781	34626.9	0.063425	0.138376	1595.52	85046.7
556	2.000000	1.126265	7.37049e+06	-49289.1	1005.82	-29759.6	0.000000	0.000000	7.136284	234.65	NaN	0.000000	0.001609	0.001609	28.0797	68.4292	0.001784	38351.6	6.227798	172.461	235.896	1.125877	0.070248	0.069861	234.65	38351.6	0.065660	0.146881	1597.55	91426.8
556	2.000000	1.128257	7.37049e+06	-49289.1	1005.82	-29759.6	0.000000	0.000000	7.138579	242.033	NaN	0.000000	0.001621	0.001612	28.0795	71.3372	0.001836	38847.6	4.844634	173.561	244.037	1.127910	0.072240	0.071894	242.033	38847.6	0.067567	0.154332	1568.26	90346.2
556	2.000000	1.130102	7.37049e+06	-49289.1	1005.82	-29759.6	0.000000	0.000000	7.141028	256.712	NaN	0.000000	0.001643	0.001671	28.0796	72.0555	0.001832	39326.1	7.494280	170.21	251.765	1.129888	0.074085	0.073871	256.712	39326.1	0.069189	0.160806	1596.41	89598.9
556	2.000000	1.132154	7.37049e+06	-49289.1	1005.82	-29759.6	0.000000	0.000000	7.143524	267.529	NaN	0.000000	0.001587	0.001677	28.0794	74.6589	0.001764	42323.1	6.756183	170.5	264.268	1.131789	0.076137	0.075772	267.529	42323.1	0.071396	0.169812	1575.44	93835.2
556	2.000000	1.134195	7.37049e+06	-49289.1	1005.82	-29759.6	0.000000	0.000000	7.146028	278.773	NaN	0.000000	0.001599	0.001632	28.0794	75.9398	0.001832	41458	2.062994	175.555	276.44	1.133910	0.078178	0.077893	278.773	41458	0.073135	0.177074	1574.33	90012.7
556	2.000000	1.136185	7.37049e+06	-49289.1	1005.82	-29759.6	0.000000	0.000000	7.148681	294.902	NaN	0.000000	0.001614	0.001685	28.0794	78.0722	0.001757	44423.5	7.012135	170.301	291.79	1.135790	0.080168	0.079773	294.902	44423.5	0.075189	0.185835	1586.9	94150.4
556	2.000000	1.138217	7.37049e+06	-49289.1	1005.82	-29759.6	0.000000	0.000000	7.151039	302.823	NaN	0.000000	0.001613	0.001681	28.0795	81.4696	0.001734	46978.2	7.783983	168.832	303.776	1.137906	0.082200	0.081890	302.823	46978.2	0.077366	0.195335	1550.28	97113.4
556	2.000000	1.140175	7.37049e+06	-49289.1	1005.82	-29759.6	0.000000	0.000000	7.153796	322.276	NaN	0.000000	0.001575	0.001676	28.0797	80.7366	0.001708	47258.5	0.380080	176.311	320.815	1.139891	0.084158	0.083874	322.276	47258.5	0.079043	0.202807	1589.08	95876.4
556	2.000000	1.142108	7.37049e+06	-49289.1	1005.82	-29759.6	0.000000	0.000000	7.156245	334.815	NaN	0.000000	0.001602	0.001622	28.0795	84.1292	0.001736	48454.1	5.801477	170.573	329.496	1.141789	0.086091	0.085772	334.815	48454.1	0.080909	0.211272	1584.76	96312.7
556	2.000000	1.144262	7.37049e+06	-49289.1	1005.82	-29759.6	0.000000	0.000000	7.158874	346.353	NaN	0.000000	0.001597	0.001637	28.0799	85.1498	0.001704	49956.5	3.667473	173.057	347.676	1.143777	0.088245	0.087760	346.353	49956.5	0.083045	0.221165	1566.04	97052.6
556	2.000000	1.146170	7.37049e+06	-49289.1	1005.82	-29759.6	0.000000	0.000000	7.161338	359.879	NaN	0.000000	0.001623	0.001655	28.0806	87.3533	0.001773	49263.7	4.425347	171.36	355.969	1.145940	0.090153	0.089923	359.879	49263.7	0.084674	0.228849	1572.56	94086.1
556	2.000000	1.148251	7.37049e+06	-49289.1	1005.82	-29759.6	0.000000	0.000000	7.163456	360.781	NaN	0.000000	0.001613	0.001685	28.0807	90.2006	0.001830	49290.1	1.365396	174.363	361.673	1.148142	0.092234	0.092125	360.781	49290.1	0.086745	0.238795	1510.84	92155.4
556	2.000000	1.150247	7.37049e+06	-49289.1	1005.82	-29759.6	0.000000	0.000000	7.166482	385.844	NaN	0.000000	0.001623	0.001689	28.0805	90.9287	0.001644	55293.5	5.412740	169.929	386.915	1.149984	0.094230	0.093967	385.844	55293.5	0.088996	0.249833	1544.41	101070
556	2.000000	1.152195	7.37049e+06	-49289.1	1005.82	-29759.6	0.000000	0.000000	7.169035	400.548	NaN	0.000000	0.001615	0.001675	28.0806	93.9178	0.001819	51625.4	2.917034	172.915	399.678	1.152041	0.096178	0.096024	400.548	51625.4	0.090359	0.256628	1560.81	93107.5
556	2.000000	1.154179	7.37049e+06	-49289.1	1005.82	-29759.6	0.000000	0.000000	7.171178	404.412	NaN	0.000000	0.001596	0.001630	28.0807	95.917	0.001780	53892.6	3.545723	172.058	402.215	1.154091	0.098162	0.098074	404.412	53892.6	0.092534	0.267646	1511	95174.8
556	2.000000	1.156187	7.37049e+06	-49289.1	1005.82	-29759.6	0.000000	0.000000	7.174217	429.495	NaN	0.000000	0.001606	0.001648	28.0806	97.5553	0.001851	52705.8	5.482590	170.267	427.971	1.155935	0.100170	0.099919	429.495	52705.8	0.094058	0.275500	1558.96	91742.5
556	2.000000	1.158209	7.37049e+06	-49289.1	1005.82	-29759.6	0.000000	0.000000	7.177078	449.884	NaN	0.000000	0.001639	0.001659	28.0807	99.2754	0.001839	53989.5	1.856300	174.235	449.824	1.157873	0.102192	0.101856	449.884	53989.5	0.095942	0.285352	1576.6	92340.6
556	2.000000	1.160156	7.37049e+06	-49289.1	1005.82	-29759.6	0.000000	0.000000	7.179984	473.2	NaN	0.000000	0.001594	0.001652	28.0807	100.018	0.001904	52530.4	5.229178	171.153	470.266	1.159807	0.104139	0.103790	473.2	52530.4	0.097383	0.292996	1615.04	88665.2
556	2.000000	1.162045	7.37049e+06	-49289.1	1005.82	-29759.6	0.000000	0.000000	7.182121	479.245	NaN	0.000000	0.001647	0.001614	28.0806	103.136	0.001868	55209.6	6.641201	168.656	470.551	1.161731	0.106029	0.105714	479.245	55209.6	0.099518	0.304496	1573.9	91410.7