File: remote_trans/data/nanoindenter/0828-1/data/Data_2025-08-06,11h17m57s/2025-07-22_16-23-58_1_1026.txt
2025-07-22, 16:23:58, 1
Index	Phase	Displacement	Time	Pos X	Pos Y	Pos Z	Rot A	Rot B	Piezo Z	Force A	Force B	Gripper	Voltage A	Voltage B	Temperature	Amplitude force	Amplitude pos	Stiffness	Phase shift	Phase excitation	Force A raw	Displacement raw	HMax	HMax raw	Real Force	Real Stiffness	Contact Depth	Area	Hardness	Reduced Mod.
[#]	[#]	[um]	[s]	[um]	[um]	[um]	[m°]	[m°]	[um]	[uN]	[uN]	[V]	[V]	[V]	[°C]	[uN]	[um]	[N/m]	[°]	[°]	[uN]	[um]	[um]	[um]	[uN]	[N/m]	[um]	[um^2]	[MPa]	[MPa]
1026	1.000000	0.002485	7.37508e+06	-51439.1	1055.82	-29752.2	0.000000	0.000000	6.002789	0.006134	NaN	0.000000	0.001608	0.001749	28.084	0.029463	0.001019	28.9272	118.341	-162.181	-0.003042	0.001282	-1.090173	-1.091377	0.006134	28.9272	-1.090332	-3.717690E+14	-1.649875E-17	NaN
1026	1.000000	0.012543	7.37508e+06	-51439.1	1055.82	-29752.2	0.000000	0.000000	6.012849	0.061116	NaN	0.000000	0.001625	0.001791	28.0838	0.116610	0.001082	107.748	-106.838	14.8544	0.036212	0.011107	-1.080115	-1.081551	0.061116	107.748	-1.080540	-2.746495E+14	-2.225241E-16	NaN
1026	1.000000	0.022433	7.37508e+06	-51439.1	1055.82	-29752.2	0.000000	0.000000	6.022739	0.074075	NaN	0.000000	0.001604	0.001775	28.0839	0.063565	0.001726	36.8334	22.0834	-164.143	0.101061	0.021138	-1.070226	-1.071520	0.074075	36.8334	-1.071734	-2.091643E+14	-3.541488E-16	NaN
1026	1.000000	0.032447	7.37508e+06	-51439.1	1055.82	-29752.2	0.000000	0.000000	6.032749	-0.028950	NaN	0.000000	0.001602	0.001762	28.0836	0.094654	0.001856	51.0023	140.525	14.5396	-0.022578	0.031044	-1.060212	-1.061615	-0.028950	51.0023	-1.059786	-1.445262E+14	2.003078E-16	NaN
1026	1.000000	0.042474	7.37508e+06	-51439.1	1055.82	-29752.2	0.000000	0.000000	6.042774	-0.066116	NaN	0.000000	0.001651	0.001785	28.0847	0.031518	0.001910	16.5014	-17.7313	-164.239	-0.042327	0.041146	-1.050185	-1.051512	-0.066116	16.5014	-1.047180	-9.783692E+13	6.757769E-16	NaN
1026	1.000000	0.052462	7.37508e+06	-51439.1	1055.82	-29752.2	0.000000	0.000000	6.052764	-0.034032	NaN	0.000000	0.001649	0.001774	28.0837	0.072847	0.001963	37.1059	176.764	14.3154	0.021841	0.051099	-1.040197	-1.041559	-0.034032	37.1059	-1.039509	-7.715479E+13	4.410851E-16	NaN
1026	1.000000	0.062463	7.37508e+06	-51439.1	1055.82	-29752.2	0.000000	0.000000	6.062768	0.043802	NaN	0.000000	0.001616	0.001757	28.0838	0.093418	0.002091	44.6779	13.7293	-163.806	0.017314	0.061091	-1.030196	-1.031567	0.043802	44.6779	-1.030931	-5.915637E+13	-7.404374E-16	NaN
1026	1.000000	0.072445	7.37508e+06	-51439.1	1055.82	-29752.2	0.000000	0.000000	6.072750	0.042554	NaN	0.000000	0.001602	0.001753	28.0837	0.112017	0.001985	56.422	-65.7509	14.8739	0.075425	0.071094	-1.020214	-1.021565	0.042554	56.422	-1.020779	-4.319533E+13	-9.851487E-16	NaN
1026	1.000000	0.082453	7.37508e+06	-51439.1	1055.82	-29752.2	0.000000	0.000000	6.082756	-0.011584	NaN	0.000000	0.001643	0.001715	28.0843	0.090146	0.002034	44.3238	-54.4369	-163.867	-0.003454	0.081137	-1.010206	-1.011522	-0.011584	44.3238	-1.010010	-3.093973E+13	3.744134E-16	NaN
1026	1.000000	0.092433	7.37508e+06	-51439.1	1055.82	-29752.2	0.000000	0.000000	6.092735	-0.040634	NaN	0.000000	0.001649	0.001705	28.0837	0.020162	0.002084	9.673034	-122.876	14.8397	0.023520	0.091120	-1.000226	-1.001539	-0.040634	9.673034	-0.997075	-2.071992E+13	1.961107E-15	NaN
1026	1.000000	0.102483	7.37508e+06	-51439.1	1055.82	-29752.2	0.000000	0.000000	6.102785	-0.037772	NaN	0.000000	0.001585	0.001726	28.0842	0.037858	0.001878	20.1613	54.0467	-162.762	-0.023377	0.101156	-0.990175	-0.991502	-0.037772	20.1613	-0.988770	-1.601579E+13	2.358404E-15	NaN
1026	1.000000	0.112458	7.37508e+06	-51439.1	1055.82	-29752.2	0.000000	0.000000	6.112762	0.023483	NaN	0.000000	0.001608	0.001709	28.0836	0.088232	0.002018	43.7173	157.509	14.3619	0.035761	0.111062	-0.980201	-0.981597	0.023483	43.7173	-0.980604	-1.243202E+13	-1.888929E-15	NaN
1026	1.000000	0.122471	7.37508e+06	-51439.1	1055.82	-29752.2	0.000000	0.000000	6.122779	0.108377	NaN	0.000000	0.001619	0.001692	28.0843	0.045460	0.001998	22.7572	172.901	-164.291	0.077836	0.121111	-0.970188	-0.971547	0.108377	22.7572	-0.973759	-1.005367E+13	-1.077985E-14	NaN
1026	1.000000	0.132489	7.37508e+06	-51439.1	1055.82	-29752.2	0.000000	0.000000	6.132791	-0.020279	NaN	0.000000	0.001586	0.001721	28.0825	0.072270	0.001961	36.8551	122.565	13.6725	-0.028930	0.131123	-0.960170	-0.961536	-0.020279	36.8551	-0.959757	-6.510200E+12	3.114920E-15	NaN
1026	1.000000	0.142481	7.37508e+06	-51439.1	1055.82	-29752.2	0.000000	0.000000	6.142788	0.078437	NaN	0.000000	0.001624	0.001712	28.0824	0.082565	0.001907	43.2888	-39.8954	-164.404	0.113853	0.141125	-0.950177	-0.951533	0.078437	43.2888	-0.951536	-5.043678E+12	-1.555160E-14	NaN
1026	1.000000	0.152468	7.37508e+06	-51439.1	1055.82	-29752.2	0.000000	0.000000	6.152774	0.044014	NaN	0.000000	0.001610	0.001737	28.0824	0.079509	0.001952	40.7396	-80.7912	13.7313	0.026685	0.151134	-0.940190	-0.941525	0.044014	40.7396	-0.941000	-3.636082E+12	-1.210470E-14	NaN
1026	1.000000	0.162505	7.37508e+06	-51439.1	1055.82	-29752.2	0.000000	0.000000	6.162813	0.115206	NaN	0.000000	0.001592	0.001722	28.0826	0.157753	0.002002	78.7835	33.8112	-166.705	0.069840	0.161161	-0.930154	-0.931497	0.115206	78.7835	-0.931250	-2.685796E+12	-4.289451E-14	NaN
1026	1.000000	0.172481	7.37508e+06	-51439.1	1055.82	-29752.2	0.000000	0.000000	6.172789	0.111325	NaN	0.000000	0.001599	0.001723	28.0822	0.123776	0.001935	63.9658	44.0611	14.5922	0.121117	0.171158	-0.920178	-0.921500	0.111325	63.9658	-0.921483	-1.982561E+12	-5.615234E-14	NaN
1026	1.000000	0.182502	7.37508e+06	-51439.1	1055.82	-29752.2	0.000000	0.000000	6.182808	0.059138	NaN	0.000000	0.001568	0.001784	28.0822	0.099305	0.002051	48.4073	115.04	-164.44	0.018577	0.181219	-0.910156	-0.911439	0.059138	48.4073	-0.911073	-1.434331E+12	-4.123016E-14	NaN
1026	1.000000	0.192480	7.37508e+06	-51439.1	1055.82	-29752.2	0.000000	0.000000	6.192786	0.048295	NaN	0.000000	0.001580	0.001774	28.0824	0.103351	0.002026	51.0141	159.168	11.9889	0.088048	0.191132	-0.900178	-0.901526	0.048295	51.0141	-0.900888	-1.044879E+12	-4.622073E-14	NaN
1026	1.000000	0.202485	7.37508e+06	-51439.1	1055.82	-29752.2	0.000000	0.000000	6.202791	0.062267	NaN	0.000000	0.001583	0.001716	28.0822	0.015980	0.001900	8.412196	-156.256	-167.402	0.015351	0.201159	-0.890173	-0.891499	0.062267	8.412196	-0.895725	-8.898052E+11	-6.997788E-14	NaN
1026	1.000000	0.212494	7.37508e+06	-51439.1	1055.82	-29752.2	0.000000	0.000000	6.212801	0.099372	NaN	0.000000	0.001600	0.001726	28.0821	0.005162	0.001937	2.664309	-30.4567	15.1171	0.019057	0.211139	-0.880165	-0.881519	0.099372	2.664309	-0.908138	-1.309209E+12	-7.590237E-14	NaN
1026	1.000000	0.222510	7.37508e+06	-51439.1	1055.82	-29752.2	0.000000	0.000000	6.222816	0.046404	NaN	0.000000	0.001629	0.001745	28.0825	0.064658	0.001985	32.5665	153.604	-166.302	0.026754	0.221184	-0.870148	-0.871475	0.046404	32.5665	-0.871217	-4.148664E+11	-1.118537E-13	NaN
1026	1.000000	0.232510	7.37508e+06	-51439.1	1055.82	-29752.2	0.000000	0.000000	6.232815	0.032208	NaN	0.000000	0.001627	0.001749	28.0825	0.021750	0.001989	10.9334	-136.262	14.2206	0.010039	0.231171	-0.860149	-0.861488	0.032208	10.9334	-0.862358	-3.148015E+11	-1.023109E-13	NaN
1026	1.000000	0.242529	7.37508e+06	-51439.1	1055.82	-29752.2	0.000000	0.000000	6.242834	0.038652	NaN	0.000000	0.001610	0.001729	28.0822	0.063522	0.002103	30.2029	-164.265	-166.473	0.073918	0.241215	-0.850129	-0.851444	0.038652	30.2029	-0.851089	-2.215574E+11	-1.744550E-13	NaN
1026	1.000000	0.252493	7.37508e+06	-51439.1	1055.82	-29752.2	0.000000	0.000000	6.252797	0.007201	NaN	0.000000	0.001600	0.001779	28.0823	0.084758	0.001909	44.399	-119.445	13.474	0.043218	0.251182	-0.840166	-0.841477	0.007201	44.399	-0.840287	-1.581923E+11	-4.552001E-14	NaN
1026	1.000000	0.262515	7.37508e+06	-51439.1	1055.82	-29752.2	0.000000	0.000000	6.262822	0.095965	NaN	0.000000	0.001587	0.001762	28.0823	0.083875	0.002060	40.7207	2.864922	-164.82	0.093894	0.261185	-0.830144	-0.831473	0.095965	40.7207	-0.831911	-1.218116E+11	-7.878127E-13	NaN
1026	1.000000	0.272532	7.37508e+06	-51439.1	1055.82	-29752.2	0.000000	0.000000	6.272835	-0.003501	NaN	0.000000	0.001600	0.001760	28.0833	0.029460	0.001811	16.2662	146.983	13.7991	0.003922	0.271171	-0.820127	-0.821488	-0.003501	16.2662	-0.819965	-8.389587E+10	4.173624E-14	NaN
1026	1.000000	0.282549	7.37508e+06	-51439.1	1055.82	-29752.2	0.000000	0.000000	6.282853	0.020411	NaN	0.000000	0.001529	0.001759	28.0832	0.022642	0.002089	10.8413	159.746	-162.973	0.095129	0.281262	-0.810110	-0.811396	0.020411	10.8413	-0.811522	-6.444909E+10	-3.166992E-13	NaN
1026	1.000000	0.292549	7.37509e+06	-51439.1	1055.82	-29752.2	0.000000	0.000000	6.292851	-0.035854	NaN	0.000000	0.001562	0.001743	28.0832	0.031679	0.002040	15.5284	88.3891	14.3095	-0.012578	0.291194	-0.800110	-0.801465	-0.035854	15.5284	-0.798378	-4.274116E+10	8.388623E-13	NaN
1026	1.000000	0.302552	7.37509e+06	-51439.1	1055.82	-29752.2	0.000000	0.000000	6.302858	0.058031	NaN	0.000000	0.001598	0.001715	28.0836	0.127957	0.002059	62.1464	176.579	-168.861	-0.007733	0.301206	-0.790107	-0.791453	0.058031	62.1464	-0.790807	-3.373198E+10	-1.720348E-12	NaN
1026	1.000000	0.312559	7.37509e+06	-51439.1	1055.82	-29752.2	0.000000	0.000000	6.312863	0.008124	NaN	0.000000	0.001637	0.001742	28.0833	0.046322	0.002011	23.0382	-78.2139	16.709	0.114358	0.311198	-0.780099	-0.781460	0.008124	23.0382	-0.780364	-2.433178E+10	-3.338871E-13	NaN
1026	1.000000	0.322545	7.37509e+06	-51439.1	1055.82	-29752.2	0.000000	0.000000	6.322849	0.000483	NaN	0.000000	0.001614	0.001744	28.0832	0.068152	0.001977	34.4648	-176.111	-168.153	0.043571	0.321279	-0.770113	-0.771379	0.000483	34.4648	-0.770124	-1.765983E+10	-2.735622E-14	NaN
1026	1.000000	0.332555	7.37509e+06	-51439.1	1055.82	-29752.2	0.000000	0.000000	6.332861	0.066426	NaN	0.000000	0.001602	0.001775	28.0833	0.063527	0.002007	31.6563	-115.305	14.8799	-0.037778	0.331161	-0.760104	-0.761497	0.066426	31.6563	-0.761677	-1.355563E+10	-4.900246E-12	NaN
1026	1.000000	0.342564	7.37509e+06	-51439.1	1055.82	-29752.2	0.000000	0.000000	6.342868	0.022081	NaN	0.000000	0.001558	0.001758	28.0834	0.036690	0.001983	18.5066	-119.447	-165.297	0.028639	0.341261	-0.750095	-0.751397	0.022081	18.5066	-0.750990	-9.698245E+9	-2.276804E-12	NaN
1026	1.000000	0.352573	7.37509e+06	-51439.1	1055.82	-29752.2	0.000000	0.000000	6.352877	0.007332	NaN	0.000000	0.001554	0.001757	28.0835	0.113723	0.002087	54.5003	-119.894	14.4946	0.036272	0.351180	-0.740085	-0.741478	0.007332	54.5003	-0.740186	-6.911779E+9	-1.060852E-12	NaN
1026	1.000000	0.362575	7.37509e+06	-51439.1	1055.82	-29752.2	0.000000	0.000000	6.362878	-0.002926	NaN	0.000000	0.001589	0.001753	28.0834	0.032038	0.002031	15.7766	29.0827	-165.958	-0.036148	0.361278	-0.730084	-0.731380	-0.002926	15.7766	-0.729945	-5.012473E+9	5.838047E-13	NaN
1026	1.000000	0.372575	7.37509e+06	-51439.1	1055.82	-29752.2	0.000000	0.000000	6.372879	0.013444	NaN	0.000000	0.001598	0.001781	28.0839	0.037614	0.002016	18.6549	-47.6122	15.0575	0.040746	0.371233	-0.720084	-0.721426	0.013444	18.6549	-0.720624	-3.740984E+9	-3.593686E-12	NaN
1026	1.000000	0.382565	7.37509e+06	-51439.1	1055.82	-29752.2	0.000000	0.000000	6.382871	0.051178	NaN	0.000000	0.001607	0.001733	28.0835	0.069618	0.002184	31.878	48.6019	-167.369	0.033784	0.381262	-0.710093	-0.711397	0.051178	31.878	-0.711297	-2.790938E+9	-1.833714E-11	NaN
1026	1.000000	0.392575	7.37509e+06	-51439.1	1055.82	-29752.2	0.000000	0.000000	6.392877	-0.035143	NaN	0.000000	0.001599	0.001800	28.0837	0.075640	0.001984	38.1189	64.2474	14.8586	0.058394	0.391217	-0.700083	-0.701441	-0.035143	38.1189	-0.699392	-1.919677E+9	1.830695E-11	NaN
1026	1.000000	0.402583	7.37509e+06	-51439.1	1055.82	-29752.2	0.000000	0.000000	6.402890	0.065488	NaN	0.000000	0.001614	0.001798	28.0822	0.078981	0.002071	38.1353	-3.702613	-166.228	0.001889	0.401215	-0.690075	-0.691443	0.065488	38.1353	-0.691363	-1.491226E+9	-4.391548E-11	NaN
1026	1.000000	0.412585	7.37509e+06	-51439.1	1055.82	-29752.2	0.000000	0.000000	6.412890	0.043707	NaN	0.000000	0.001580	0.001761	28.0823	0.082932	0.001951	42.5048	119.223	12.0607	0.129424	0.411297	-0.680073	-0.681362	0.043707	42.5048	-0.680845	-1.070921E+9	-4.081230E-11	NaN
1026	1.000000	0.422608	7.37509e+06	-51439.1	1055.82	-29752.2	0.000000	0.000000	6.422911	-0.017624	NaN	0.000000	0.001603	0.001772	28.082	0.068528	0.002018	33.9651	89.6779	-165.384	0.011852	0.421321	-0.670051	-0.671338	-0.017624	33.9651	-0.669661	-7.529346E+8	2.340663E-11	NaN
1026	1.000000	0.432587	7.37509e+06	-51439.1	1055.82	-29752.2	0.000000	0.000000	6.432890	-0.014086	NaN	0.000000	0.001611	0.001740	28.082	0.094863	0.001930	49.1632	-161.968	16.9827	-0.032958	0.431248	-0.660072	-0.661410	-0.014086	49.1632	-0.659857	-5.527242E+8	2.548479E-11	NaN
1026	1.000000	0.442610	7.37509e+06	-51439.1	1055.82	-29752.2	0.000000	0.000000	6.442915	0.017568	NaN	0.000000	0.001608	0.001751	28.0824	0.012372	0.001947	6.353478	-101.482	-164.768	0.090171	0.441289	-0.650048	-0.651369	0.017568	6.353478	-0.652122	-4.330371E+8	-4.056915E-11	NaN
1026	1.000000	0.452587	7.37509e+06	-51439.1	1055.82	-29752.2	0.000000	0.000000	6.452893	0.070226	NaN	0.000000	0.001594	0.001746	28.0821	0.093890	0.001818	51.6493	-169.917	13.188	-0.039193	0.451219	-0.640072	-0.641440	0.070226	51.6493	-0.641091	-3.056765E+8	-2.297382E-10	NaN
1026	1.000000	0.462618	7.37509e+06	-51439.1	1055.82	-29752.2	0.000000	0.000000	6.462924	0.059896	NaN	0.000000	0.001604	0.001675	28.082	0.039843	0.002060	19.3367	128.126	-169.15	0.120269	0.461298	-0.630040	-0.631360	0.059896	19.3367	-0.632363	-2.319933E+8	-2.581779E-10	NaN
1026	1.000000	0.472600	7.37509e+06	-51439.1	1055.82	-29752.2	0.000000	0.000000	6.472903	-0.013617	NaN	0.000000	0.001566	0.001760	28.082	0.071418	0.002090	34.1787	167.382	13.7887	0.022767	0.471275	-0.620059	-0.621383	-0.013617	34.1787	-0.619760	-1.557172E+8	8.744769E-11	NaN
1026	1.000000	0.482629	7.37509e+06	-51439.1	1055.82	-29752.2	0.000000	0.000000	6.482937	0.099882	NaN	0.000000	0.001615	0.001749	28.082	0.018271	0.002015	9.069850	17.0164	-163.345	0.066173	0.481353	-0.610029	-0.611306	0.099882	9.069850	-0.618289	-1.486307E+8	-6.720124E-10	NaN
1026	1.000000	0.492640	7.37509e+06	-51439.1	1055.82	-29752.2	0.000000	0.000000	6.492946	0.065744	NaN	0.000000	0.001599	0.001759	28.0821	0.083560	0.001957	42.6886	-85.655	13.2306	0.125537	0.491190	-0.600019	-0.601468	0.065744	42.6886	-0.601174	-8.642273E+7	-7.607205E-10	NaN
1026	1.000000	0.502674	7.37509e+06	-51439.1	1055.82	-29752.2	0.000000	0.000000	6.502981	0.077721	NaN	0.000000	0.001598	0.001757	28.0819	0.024992	0.002003	12.4742	-124.18	-164.903	0.049968	0.501315	-0.589984	-0.591343	0.077721	12.4742	-0.594657	-7.028439E+7	-1.105809E-9	NaN
1026	1.000000	0.512642	7.37509e+06	-51439.1	1055.82	-29752.2	0.000000	0.000000	6.512946	3.329298E-5	NaN	0.000000	0.001598	0.001731	28.0822	0.024498	0.001988	12.3217	156.779	14.2705	-0.022811	0.511250	-0.580016	-0.581409	3.329298E-5	12.3217	-0.580018	-4.415451E+7	-7.540108E-13	NaN
1026	1.000000	0.522652	7.37509e+06	-51439.1	1055.82	-29752.2	0.000000	0.000000	6.522956	0.004323	NaN	0.000000	0.001580	0.001736	28.0821	0.081695	0.001896	43.0797	62.4088	-166.782	0.050543	0.521299	-0.570006	-0.571359	0.004323	43.0797	-0.570081	-3.219265E+7	-1.342938E-10	NaN
1026	1.000000	0.532687	7.37509e+06	-51439.1	1055.82	-29752.2	0.000000	0.000000	6.532989	-0.029478	NaN	0.000000	0.001676	0.001741	28.0822	0.073578	0.002020	36.4263	-91.3267	15.5574	0.025471	0.531299	-0.559972	-0.561359	-0.029478	36.4263	-0.559365	-2.288696E+7	1.287999E-9	NaN
1026	1.000000	0.542632	7.37509e+06	-51439.1	1055.82	-29752.2	0.000000	0.000000	6.542937	0.033652	NaN	0.000000	0.001680	0.001750	28.0834	0.034320	0.001998	17.1785	-90.1549	-165.908	0.063097	0.541363	-0.550026	-0.551295	0.033652	17.1785	-0.551496	-1.781019E+7	-1.889481E-9	NaN
1026	1.000000	0.552635	7.37509e+06	-51439.1	1055.82	-29752.2	0.000000	0.000000	6.552939	0.011595	NaN	0.000000	0.001616	0.001759	28.0836	0.142164	0.002050	69.3574	5.718412	13.5547	-0.069917	0.551320	-0.540023	-0.541338	0.011595	69.3574	-0.540149	-1.239997E+7	-9.350908E-10	NaN
1026	1.000000	0.562681	7.37509e+06	-51439.1	1055.82	-29752.2	0.000000	0.000000	6.562985	0.025682	NaN	0.000000	0.001605	0.001722	28.0835	0.074282	0.001974	37.6275	179.413	-165.062	0.033434	0.561368	-0.529978	-0.531290	0.025682	37.6275	-0.530490	-9.10704e+06	-2.820012E-9	NaN
1026	1.000000	0.572668	7.37509e+06	-51439.1	1055.82	-29752.2	0.000000	0.000000	6.572975	0.072862	NaN	0.000000	0.001675	0.001782	28.0833	0.053542	0.002042	26.2162	-89.0088	15.1744	0.059673	0.571298	-0.519990	-0.521360	0.072862	26.2162	-0.522075	-6.95739e+06	-1.047259E-8	NaN
1026	1.000000	0.582663	7.37509e+06	-51439.1	1055.82	-29752.2	0.000000	0.000000	6.582969	0.050457	NaN	0.000000	0.001667	0.001753	28.0835	0.025673	0.001916	13.3982	157.798	-166.535	0.069140	0.581359	-0.509996	-0.511300	0.050457	13.3982	-0.512820	-5.17234e+06	-9.755160E-9	NaN
1026	1.000000	0.592652	7.37509e+06	-51439.1	1055.82	-29752.2	0.000000	0.000000	6.592956	0.001750	NaN	0.000000	0.001665	0.001753	28.0833	0.062130	0.002036	30.5167	-156.185	15.4866	0.005583	0.591266	-0.500007	-0.501393	0.001750	30.5167	-0.500050	-3.43328e+06	-5.098305E-10	NaN
1026	1.000000	0.602664	7.37509e+06	-51439.1	1055.82	-29752.2	0.000000	0.000000	6.602966	-0.053433	NaN	0.000000	0.001652	0.001763	28.0835	0.111155	0.002000	55.5882	-152.749	-166.877	-0.056303	0.601375	-0.489994	-0.491284	-0.053433	55.5882	-0.489273	-2.42794e+06	2.200774E-8	NaN
1026	1.000000	0.612681	7.37509e+06	-51439.1	1055.82	-29752.2	0.000000	0.000000	6.612988	0.085679	NaN	0.000000	0.001668	0.001779	28.0833	0.039726	0.001951	20.3616	-1.849346	15.6651	0.050116	0.611331	-0.479977	-0.481328	0.085679	20.3616	-0.483133	-1.99241e+06	-4.300270E-8	NaN
1026	1.000000	0.622705	7.37509e+06	-51439.1	1055.82	-29752.2	0.000000	0.000000	6.623009	0.009666	NaN	0.000000	0.001667	0.001765	28.0838	0.038116	0.001926	19.7942	-49.1544	-162.863	0.019530	0.621344	-0.469953	-0.471314	0.009666	19.7942	-0.470320	-1.31792e+06	-7.334629E-9	NaN
1026	1.000000	0.632697	7.37509e+06	-51439.1	1055.82	-29752.2	0.000000	0.000000	6.633001	0.014035	NaN	0.000000	0.001695	0.001760	28.0833	0.098499	0.002138	46.0656	69.6628	12.1186	-0.019306	0.631343	-0.459962	-0.461316	0.014035	46.0656	-0.460190	-949929	-1.477475E-8	NaN
1026	1.000000	0.642664	7.37509e+06	-51439.1	1055.82	-29752.2	0.000000	0.000000	6.642967	-0.023122	NaN	0.000000	0.001652	0.001752	28.0838	0.084349	0.001959	43.0502	-106.952	-166.158	-0.027979	0.641391	-0.449994	-0.451267	-0.023122	43.0502	-0.449591	-673886	3.431201E-8	NaN
1026	1.000000	0.652688	7.37509e+06	-51439.1	1055.82	-29752.2	0.000000	0.000000	6.652990	-0.039497	NaN	0.000000	0.001690	0.001743	28.0832	0.119420	0.001992	59.9576	-147.091	11.3277	-0.062967	0.651293	-0.439970	-0.441366	-0.039497	59.9576	-0.439476	-485252	8.139533E-8	NaN
1026	1.000000	0.662691	7.37509e+06	-51439.1	1055.82	-29752.2	0.000000	0.000000	6.662992	-0.063418	NaN	0.000000	0.001683	0.001772	28.0836	0.068305	0.002027	33.6991	-0.650957	-165.198	-0.030537	0.661383	-0.429967	-0.431276	-0.063418	33.6991	-0.428556	-340114	1.864607E-7	NaN
1026	1.000000	0.672694	7.37509e+06	-51439.1	1055.82	-29752.2	0.000000	0.000000	6.672999	0.035324	NaN	0.000000	0.001668	0.001813	28.0829	0.092887	0.001907	48.6987	-36.7994	16.2175	0.055320	0.671347	-0.419965	-0.421311	0.035324	48.6987	-0.420509	-261595	-1.350347E-7	NaN
1026	1.000000	0.682710	7.37509e+06	-51439.1	1055.82	-29752.2	0.000000	0.000000	6.683013	-0.007671	NaN	0.000000	0.001655	0.001764	28.0824	0.073012	0.002035	35.8771	55.1608	-167.843	-0.006591	0.681421	-0.409948	-0.411238	-0.007671	35.8771	-0.409788	-184241	4.163665E-8	NaN
1026	1.000000	0.692692	7.37509e+06	-51439.1	1055.82	-29752.2	0.000000	0.000000	6.692996	0.006239	NaN	0.000000	0.001704	0.001758	28.0822	0.092383	0.001954	47.283	164.312	14.6225	0.006624	0.691371	-0.399966	-0.401288	0.006239	47.283	-0.400065	-133945	-4.657670E-8	NaN
1026	1.000000	0.702714	7.37509e+06	-51439.1	1055.82	-29752.2	0.000000	0.000000	6.703017	-0.010014	NaN	0.000000	0.001669	0.001735	28.0822	0.061697	0.001987	31.0457	-5.631236	-161.079	-0.043641	0.701430	-0.389945	-0.391229	-0.010014	31.0457	-0.389703	-95261.2	1.051216E-7	NaN
1026	1.000000	0.712737	7.37509e+06	-51439.1	1055.82	-29752.2	0.000000	0.000000	6.713041	0.006568	NaN	0.000000	0.001660	0.001762	28.082	0.013391	0.002026	6.610731	177.454	15.5774	-0.040213	0.711318	-0.379921	-0.381340	0.006568	6.610731	-0.380666	-70704.9	-9.289757E-8	NaN
1026	1.000000	0.722764	7.37509e+06	-51439.1	1055.82	-29752.2	0.000000	0.000000	6.723070	0.049253	NaN	0.000000	0.001664	0.001780	28.0822	0.040141	0.001899	21.1431	-120.306	-164.938	0.164609	0.721380	-0.369895	-0.371279	0.049253	21.1431	-0.371642	-52452.2	-9.390085E-7	NaN
1026	1.000000	0.732741	7.37509e+06	-51439.1	1055.82	-29752.2	0.000000	0.000000	6.733046	0.015847	NaN	0.000000	0.001675	0.001742	28.0823	0.057979	0.001936	29.9474	140.021	15.5065	0.006405	0.731362	-0.359917	-0.361296	0.015847	29.9474	-0.360314	-36006.7	-4.401134E-7	NaN
1026	1.000000	0.742734	7.37509e+06	-51439.1	1055.82	-29752.2	0.000000	0.000000	6.743038	0.017488	NaN	0.000000	0.001660	0.001757	28.0822	0.082800	0.002121	39.0318	-110.122	-163.132	-0.001192	0.741451	-0.349925	-0.351207	0.017488	39.0318	-0.350261	-25750.8	-6.791182E-7	NaN
1026	1.000000	0.752727	7.37509e+06	-51439.1	1055.82	-29752.2	0.000000	0.000000	6.753031	0.010621	NaN	0.000000	0.001671	0.001769	28.0821	0.069075	0.001883	36.6862	-77.4772	15.9615	-0.038364	0.751393	-0.339931	-0.341266	0.010621	36.6862	-0.340148	-18353.3	-5.786881E-7	NaN
1026	1.000000	0.762734	7.37509e+06	-51439.1	1055.82	-29752.2	0.000000	0.000000	6.763041	0.065356	NaN	0.000000	0.001699	0.001782	28.0822	0.128150	0.002183	58.7006	-54.7813	-165.604	0.053499	0.761441	-0.329924	-0.331217	0.065356	58.7006	-0.330759	-13383.4	-4.883377E-6	NaN
1026	1.000000	0.772742	7.37509e+06	-51439.1	1055.82	-29752.2	0.000000	0.000000	6.773047	0.025512	NaN	0.000000	0.001652	0.001748	28.0821	0.073086	0.002000	36.5361	11.1917	16.8289	0.043768	0.771397	-0.319916	-0.321261	0.025512	36.5361	-0.320440	-9443.09	-2.701618E-6	NaN
1026	1.000000	0.782756	7.37509e+06	-51439.1	1055.82	-29752.2	0.000000	0.000000	6.783060	0.017467	NaN	0.000000	0.001678	0.001745	28.0821	0.089573	0.001977	45.3131	119.04	-165.76	0.044659	0.781434	-0.309903	-0.311225	0.017467	45.3131	-0.310192	-6666.47	-2.620062E-6	NaN
1026	1.000000	0.792784	7.37509e+06	-51439.1	1055.82	-29752.2	0.000000	0.000000	6.793084	-0.069326	NaN	0.000000	0.001642	0.001756	28.0821	0.035444	0.002000	17.7184	-165.44	13.1296	-0.029291	0.791378	-0.299875	-0.301280	-0.069326	17.7184	-0.296940	-4236.89	1.636245E-5	NaN
1026	1.000000	0.802761	7.37509e+06	-51439.1	1055.82	-29752.2	0.000000	0.000000	6.803067	0.043265	NaN	0.000000	0.001680	0.001744	28.0824	0.101987	0.001978	51.5601	-101.027	-162.658	0.068384	0.801372	-0.289897	-0.291287	0.043265	51.5601	-0.290527	-3397.73	-1.273341E-5	NaN
1026	1.000000	0.812782	7.37509e+06	-51439.1	1055.82	-29752.2	0.000000	0.000000	6.813085	-0.032408	NaN	0.000000	0.001612	0.001747	28.0833	0.100695	0.001958	51.4386	-1.451961	15.7566	0.029134	0.811400	-0.279876	-0.281259	-0.032408	51.4386	-0.279404	-2311.91	1.401790E-5	NaN
1026	1.000000	0.822753	7.37509e+06	-51439.1	1055.82	-29752.2	0.000000	0.000000	6.823053	-0.089424	NaN	0.000000	0.001597	0.001745	28.0833	0.070321	0.001933	36.3736	-61.3681	-166.02	-0.052091	0.821445	-0.269906	-0.271214	-0.089424	36.3736	-0.268062	-1556.17	5.746386E-5	NaN
1026	1.000000	0.832773	7.37509e+06	-51439.1	1055.82	-29752.2	0.000000	0.000000	6.833077	0.015152	NaN	0.000000	0.001681	0.001788	28.0831	0.159992	0.001836	87.1502	-63.4768	17.3962	0.087551	0.831403	-0.259885	-0.261256	0.015152	87.1502	-0.260016	-1172.62	-1.292153E-5	NaN
1026	1.000000	0.842762	7.37509e+06	-51439.1	1055.82	-29752.2	0.000000	0.000000	6.843067	0.027716	NaN	0.000000	0.001688	0.001765	28.0834	0.030047	0.002039	14.7331	-143.594	-165.262	-0.051435	0.841429	-0.249897	-0.251229	0.027716	14.7331	-0.251308	-861.344	-3.217757E-5	NaN
1026	1.000000	0.852770	7.37509e+06	-51439.1	1055.82	-29752.2	0.000000	0.000000	6.853075	0.034566	NaN	0.000000	0.001664	0.001759	28.0831	0.020482	0.002100	9.754353	25.0909	15.164	0.047673	0.851414	-0.239889	-0.241244	0.034566	9.754353	-0.242546	-629.901	-5.487488E-5	NaN
1026	1.000000	0.862759	7.37509e+06	-51439.1	1055.82	-29752.2	0.000000	0.000000	6.863065	0.043172	NaN	0.000000	0.001668	0.001761	28.0831	0.070050	0.002057	34.0583	167.697	-161.812	-0.001135	0.861492	-0.229899	-0.231166	0.043172	34.0583	-0.230850	-412.982	-0.000105	NaN
1026	1.000000	0.872807	7.37509e+06	-51439.1	1055.82	-29752.2	0.000000	0.000000	6.873113	0.054074	NaN	0.000000	0.001685	0.001724	28.0834	0.083925	0.001860	45.1118	89.4761	16.5228	0.047777	0.871481	-0.219852	-0.221177	0.054074	45.1118	-0.220751	-285.541	-0.000189	NaN
1026	1.000000	0.882757	7.37509e+06	-51439.1	1055.82	-29752.2	0.000000	0.000000	6.883062	0.031284	NaN	0.000000	0.001659	0.001726	28.0838	0.068827	0.001984	34.6892	-8.489825	-162.898	0.116039	0.881491	-0.209902	-0.211168	0.031284	34.6892	-0.210578	-195.964	-0.000160	NaN
1026	1.000000	0.892786	7.37509e+06	-51439.1	1055.82	-29752.2	0.000000	0.000000	6.893089	-0.027827	NaN	0.000000	0.001663	0.001733	28.0838	0.052910	0.001890	27.9883	-140.325	16.0673	0.040612	0.891438	-0.199872	-0.201221	-0.027827	27.9883	-0.199126	-127.448	0.000218	NaN
1026	1.000000	0.902787	7.37509e+06	-51439.1	1055.82	-29752.2	0.000000	0.000000	6.903090	-0.026626	NaN	0.000000	0.001703	0.001720	28.0831	0.090067	0.002038	44.194	108.328	-162.795	0.068350	0.901486	-0.189871	-0.191173	-0.026626	44.194	-0.189419	-87.9671	0.000303	NaN
1026	1.000000	0.912807	7.37509e+06	-51439.1	1055.82	-29752.2	0.000000	0.000000	6.913111	-0.002105	NaN	0.000000	0.001616	0.001744	28.0836	0.181903	0.001939	93.8148	-39.3994	15.3177	-0.003205	0.911402	-0.179851	-0.181257	-0.002105	93.8148	-0.179834	-60.6248	3.471701E-5	NaN
1026	1.000000	0.922823	7.37509e+06	-51439.1	1055.82	-29752.2	0.000000	0.000000	6.923128	0.036636	NaN	0.000000	0.001601	0.001746	28.0832	0.206237	0.001928	106.976	-140.415	-164.356	0.033225	0.921483	-0.169835	-0.171176	0.036636	106.976	-0.170092	-41.23	-0.000889	NaN
1026	1.000000	0.932827	7.37509e+06	-51439.1	1055.82	-29752.2	0.000000	0.000000	6.933129	-0.026069	NaN	0.000000	0.001626	0.001737	28.0833	0.019004	0.001931	9.840079	-42.8143	14.5003	-0.035234	0.931431	-0.159832	-0.161227	-0.026069	9.840079	-0.157845	-25.0952	0.001039	NaN
1026	1.000000	0.942824	7.37509e+06	-51439.1	1055.82	-29752.2	0.000000	0.000000	6.943126	-0.035937	NaN	0.000000	0.001637	0.001712	28.0833	0.065526	0.001833	35.7555	90.1654	-163.789	-0.007699	0.941517	-0.149834	-0.151141	-0.035937	35.7555	-0.149080	-17.4265	0.002062	NaN
1026	1.000000	0.952836	7.37509e+06	-51439.1	1055.82	-29752.2	0.000000	0.000000	6.953142	0.059700	NaN	0.000000	0.001635	0.001729	28.0825	0.087036	0.002016	43.1811	-119.265	15.15	0.069777	0.951490	-0.139822	-0.141168	0.059700	43.1811	-0.140859	-12.2769	-0.004863	NaN
1026	1.000000	0.962814	7.37509e+06	-51439.1	1055.82	-29752.2	0.000000	0.000000	6.963116	-0.028589	NaN	0.000000	0.001612	0.001669	28.0821	0.110539	0.002055	53.7942	6.165223	-163.417	-0.012329	0.961485	-0.129844	-0.131173	-0.028589	53.7942	-0.129446	-7.434259	0.003846	NaN
1026	1.000000	0.972819	7.37509e+06	-51439.1	1055.82	-29752.2	0.000000	0.000000	6.973123	0.008703	NaN	0.000000	0.001652	0.001738	28.0818	0.137188	0.002080	65.9499	177.581	18.2744	0.009739	0.971499	-0.119839	-0.121159	0.008703	65.9499	-0.119938	-4.817706	-0.001807	NaN
1026	1.000000	0.982813	7.37509e+06	-51439.1	1055.82	-29752.2	0.000000	0.000000	6.983117	0.031339	NaN	0.000000	0.001647	0.001751	28.082	0.059040	0.001981	29.8031	-86.3389	-165.896	0.133865	0.981479	-0.109846	-0.111179	0.031339	29.8031	-0.110635	-3.099090	-0.010112	NaN
1026	1.000000	0.992837	7.37509e+06	-51439.1	1055.82	-29752.2	0.000000	0.000000	6.993144	0.101041	NaN	0.000000	0.001622	0.001711	28.0822	0.043706	0.002036	21.4694	-37.1479	16.8185	0.010958	0.991454	-0.099822	-0.101205	0.101041	21.4694	-0.103352	-2.164803	-0.046674	NaN
1026	1.000000	1.002836	7.37509e+06	-51439.1	1055.82	-29752.2	0.000000	0.000000	7.003141	0.025879	NaN	0.000000	0.001659	0.001733	28.082	0.096433	0.002050	47.0418	-163.1	-166.045	0.012862	1.001507	-0.089822	-0.091152	0.025879	47.0418	-0.090235	-1.094774	-0.023639	NaN
1026	1.000000	1.012848	7.37509e+06	-51439.1	1055.82	-29752.2	0.000000	0.000000	7.013154	0.049023	NaN	0.000000	0.001706	0.001731	28.0821	0.016131	0.001923	8.389275	-101.554	13.4288	0.021238	1.011444	-0.079810	-0.081214	0.049023	8.389275	-0.084193	-0.785410	-0.062417	NaN
1026	1.000000	1.022851	7.37509e+06	-51439.1	1055.82	-29752.2	0.000000	0.000000	7.023157	0.067455	NaN	0.000000	0.001661	0.001729	28.0822	0.032924	0.002051	16.0516	159.156	-166.385	0.097126	1.021526	-0.069808	-0.071133	0.067455	16.0516	-0.072959	-0.408654	-0.165066	NaN
1026	1.000000	1.032875	7.37509e+06	-51439.1	1055.82	-29752.2	0.000000	0.000000	7.033182	0.068391	NaN	0.000000	0.001649	0.001696	28.0821	0.109389	0.001943	56.3	-92.3854	12.2501	0.081038	1.031482	-0.059783	-0.061176	0.068391	56.3	-0.060694	-0.188526	-0.362769	NaN
1026	1.000000	1.042838	7.37509e+06	-51439.1	1055.82	-29752.2	0.000000	0.000000	7.043143	0.032001	NaN	0.000000	0.001656	0.001727	28.0821	0.077887	0.002125	36.6484	-32.2768	-161.594	0.061599	1.041521	-0.049820	-0.051137	0.032001	36.6484	-0.050475	-0.094318	-0.339291	NaN
1026	1.000000	1.052863	7.37509e+06	-51439.1	1055.82	-29752.2	0.000000	0.000000	7.053167	0.026190	NaN	0.000000	0.001667	0.001692	28.0823	0.022824	0.002074	11.0053	-150.908	18.2186	0.011954	1.051465	-0.039796	-0.041194	0.026190	11.0053	-0.041580	-0.050521	-0.518410	NaN
1026	1.000000	1.062845	7.37509e+06	-51439.1	1055.82	-29752.2	0.000000	0.000000	7.063151	0.071260	NaN	0.000000	0.001690	0.001738	28.0825	0.115149	0.002059	55.9187	136.787	-162.41	0.009495	1.061526	-0.029814	-0.031132	0.071260	55.9187	-0.030769	-0.024183	-2.946654	NaN
1026	1.000000	1.072873	7.37509e+06	-51439.1	1055.82	-29752.2	0.000000	0.000000	7.073177	0.009888	NaN	0.000000	0.001652	0.001696	28.0823	0.045239	0.001941	23.3024	168.97	13.6218	0.060951	1.071468	-0.019785	-0.021190	0.009888	23.3024	-0.020103	-0.012637	-0.782440	NaN
1026	1.000000	1.082900	7.37509e+06	-51439.1	1055.82	-29752.2	0.000000	0.000000	7.083204	0.015911	NaN	0.000000	0.001651	0.001701	28.0824	0.090483	0.002015	44.9038	-67.5249	-165.564	0.016725	1.081572	-0.009759	-0.011086	0.015911	44.9038	-0.010024	-0.006401	-2.485539	NaN
1026	1.000000	1.092864	7.37509e+06	-51439.1	1055.82	-29752.2	0.000000	0.000000	7.093214	1.127066	NaN	0.000000	0.001646	0.001711	28.0847	1.754485	0.001866	940.365	6.807451	11.9848	0.369940	1.091476	0.000206	-0.001183	1.127066	940.365	-0.000693	-0.000511	-2204.17	NaN
1026	2.000000	1.100444	7.37509e+06	-51439.1	1055.82	-29752.2	0.000000	0.000000	7.101147	9.711399	NaN	0.000000	0.001617	0.001712	28.0839	9.109676	0.001709	5330.64	9.607341	-173.198	9.245577	1.100192	0.007785	0.007534	9.711399	5330.64	0.006419	0.005466	1776.75	65875.5
1026	2.000000	1.102923	7.37509e+06	-51439.1	1055.82	-29752.2	0.000000	0.000000	7.103779	13.4521	NaN	0.000000	0.001575	0.001730	28.0837	12.3366	0.001712	7206.05	5.812973	7.839029	11.9069	1.102582	0.010264	0.009924	13.4521	7206.05	0.008864	0.007946	1692.9	73857.1
1026	2.000000	1.105397	7.37509e+06	-51439.1	1055.82	-29752.2	0.000000	0.000000	7.106455	18.3362	NaN	0.000000	0.001600	0.001699	28.0835	15.0728	0.001814	8307.55	5.700847	-172.099	17.9905	1.105129	0.012739	0.012471	18.3362	8307.55	0.011083	0.010411	1761.3	74388.9
1026	2.000000	1.107914	7.37509e+06	-51439.1	1055.82	-29752.2	0.000000	0.000000	7.109185	23.5293	NaN	0.000000	0.001634	0.001747	28.084	17.4618	0.001767	9884.63	6.522123	4.806123	22.2654	1.107580	0.015255	0.014922	23.5293	9884.63	0.013470	0.013299	1769.3	78312.3
1026	2.000000	1.110424	7.37509e+06	-51439.1	1055.82	-29752.2	0.000000	0.000000	7.111888	28.2208	NaN	0.000000	0.001650	0.001742	28.0842	20.0872	0.001717	11697.9	5.883205	-176.77	27.2283	1.110065	0.017766	0.017407	28.2208	11697.9	0.015956	0.016582	1701.93	82998.1
1026	2.000000	1.112875	7.37509e+06	-51439.1	1055.82	-29752.2	0.000000	0.000000	7.114581	34.0977	NaN	0.000000	0.001647	0.001778	28.0838	21.7782	0.001806	12057	4.774359	4.518842	32.7015	1.112577	0.020217	0.019918	34.0977	12057	0.018096	0.019638	1736.31	78607.3
1026	2.000000	1.115407	7.37509e+06	-51439.1	1055.82	-29752.2	0.000000	0.000000	7.117340	39.6216	NaN	0.000000	0.001581	0.001726	28.0846	24.4989	0.001944	12599.5	6.158387	-175.974	39.7513	1.115063	0.022748	0.022404	39.6216	12599.5	0.020390	0.023159	1710.89	75643.7
1026	2.000000	1.117911	7.37509e+06	-51439.1	1055.82	-29752.2	0.000000	0.000000	7.120095	45.722	NaN	0.000000	0.001613	0.001740	28.084	26.5251	0.001766	15021.8	5.204927	3.560238	45.3814	1.117502	0.025252	0.024843	45.722	15021.8	0.022970	0.027425	1667.15	82874.1
1026	2.000000	1.120356	7.37509e+06	-51439.1	1055.82	-29752.2	0.000000	0.000000	7.122730	50.342	NaN	0.000000	0.001631	0.001717	28.0846	29.4276	0.001808	16272.2	6.235636	-179.855	49.052	1.120056	0.027698	0.027398	50.342	16272.2	0.025377	0.031706	1587.79	83493.2
1026	2.000000	1.122794	7.37509e+06	-51439.1	1055.82	-29752.2	0.000000	0.000000	7.125436	56.8694	NaN	0.000000	0.001653	0.001719	28.0835	31.1953	0.001719	18150.7	0.131376	4.765939	53.4012	1.122586	0.030136	0.029928	56.8694	18150.7	0.027786	0.036279	1567.55	87063.7
1026	2.000000	1.125423	7.37509e+06	-51439.1	1055.82	-29752.2	0.000000	0.000000	7.128332	63.3567	NaN	0.000000	0.001625	0.001799	28.0839	34.7432	0.001729	20096.5	5.467392	179.758	65.4747	1.125145	0.032764	0.032487	63.3567	20096.5	0.030400	0.041577	1523.85	90046.8
1026	2.000000	1.127902	7.37509e+06	-51439.1	1055.82	-29752.2	0.000000	0.000000	7.131161	71.8654	NaN	0.000000	0.001635	0.001771	28.0841	36.5531	0.001780	20531.3	2.044474	2.230546	71.568	1.127523	0.035243	0.034864	71.8654	20531.3	0.032618	0.046345	1550.65	87133.8
1026	2.000000	1.130364	7.37509e+06	-51439.1	1055.82	-29752.2	0.000000	0.000000	7.134002	81.0702	NaN	0.000000	0.001619	0.001757	28.0827	39.3052	0.001760	22331.2	9.019123	173.88	81.3016	1.130121	0.037706	0.037463	81.0702	22331.2	0.034983	0.051707	1567.89	89724.7
1026	2.000000	1.132808	7.37509e+06	-51439.1	1055.82	-29752.2	0.000000	0.000000	7.136865	91.2804	NaN	0.000000	0.001642	0.001776	28.0825	40.2073	0.001747	23012.6	3.193786	0.528194	88.7224	1.132499	0.040149	0.039840	91.2804	23012.6	0.037174	0.056930	1603.39	88119.1
1026	2.000000	1.135319	7.37509e+06	-51439.1	1055.82	-29752.2	0.000000	0.000000	7.139747	100.295	NaN	0.000000	0.001662	0.001736	28.084	43.6527	0.001784	24465.7	3.767103	178.267	99.2435	1.135091	0.042660	0.042433	100.295	24465.7	0.039586	0.062962	1592.95	89082.5
1026	2.000000	1.137869	7.37509e+06	-51439.1	1055.82	-29752.2	0.000000	0.000000	7.142668	109.302	NaN	0.000000	0.001630	0.001754	28.0825	45.4418	0.001643	27664.3	1.989552	-0.561364	108.626	1.137536	0.045211	0.044877	109.302	27664.3	0.042248	0.069966	1562.21	95554.2
1026	2.000000	1.140290	7.37509e+06	-51439.1	1055.82	-29752.2	0.000000	0.000000	7.145573	121.096	NaN	0.000000	0.001646	0.001742	28.0826	48.4079	0.001771	27333.8	5.462830	177.018	119.144	1.140018	0.047631	0.047360	121.096	27333.8	0.044309	0.075637	1601.02	90804.4
1026	2.000000	1.142796	7.37509e+06	-51439.1	1055.82	-29752.2	0.000000	0.000000	7.148600	133.752	NaN	0.000000	0.001639	0.001797	28.0823	52.5467	0.001879	27967.7	5.310414	-3.620264	130.747	1.142484	0.050137	0.049826	133.752	27967.7	0.046551	0.082050	1630.12	89205
1026	2.000000	1.145333	7.37509e+06	-51439.1	1055.82	-29752.2	0.000000	0.000000	7.151355	139.05	NaN	0.000000	0.001589	0.001785	28.0836	54.4932	0.001784	30549.6	3.551438	177.431	137.393	1.145081	0.052675	0.052423	139.05	30549.6	0.049261	0.090142	1542.57	92964
1026	2.000000	1.147807	7.37509e+06	-51439.1	1055.82	-29752.2	0.000000	0.000000	7.154610	158.044	NaN	0.000000	0.001614	0.001795	28.0822	56.571	0.001794	31531.9	5.099841	-4.382274	155.036	1.147419	0.055149	0.054760	158.044	31531.9	0.051390	0.096757	1633.41	92615.4
1026	2.000000	1.150346	7.37509e+06	-51439.1	1055.82	-29752.2	0.000000	0.000000	7.157428	164.815	NaN	0.000000	0.001620	0.001768	28.0827	58.7953	0.001751	33576.3	5.358176	174.607	165.844	1.149968	0.057688	0.057310	164.815	33576.3	0.054006	0.105197	1566.73	94581
1026	2.000000	1.152700	7.37509e+06	-51439.1	1055.82	-29752.2	0.000000	0.000000	7.160394	179.718	NaN	0.000000	0.001669	0.001777	28.0825	62.8245	0.001883	33355.5	6.322539	-6.378742	171.893	1.152371	0.060041	0.059712	179.718	33355.5	0.056000	0.111858	1606.67	91118.9
1026	2.000000	1.155300	7.37509e+06	-51439.1	1055.82	-29752.2	0.000000	0.000000	7.163240	185.687	NaN	0.000000	0.001649	0.001803	28.0827	65.0646	0.001858	35020.4	6.365636	173.079	184.595	1.155093	0.062641	0.062434	185.687	35020.4	0.058665	0.121064	1533.8	91957.5
1026	2.000000	1.157758	7.37509e+06	-51439.1	1055.82	-29752.2	0.000000	0.000000	7.166612	207.899	NaN	0.000000	0.001655	0.001753	28.0824	66.5194	0.001815	36656.1	4.525919	-4.650854	203.694	1.157417	0.065100	0.064758	207.899	36656.1	0.060846	0.128860	1613.38	93295.5
1026	2.000000	1.160264	7.37509e+06	-51439.1	1055.82	-29752.2	0.000000	0.000000	7.169764	223.621	NaN	0.000000	0.001638	0.001757	28.0827	68.074	0.001853	36746.1	6.452983	173.649	219.269	1.159957	0.067605	0.067299	223.621	36746.1	0.063041	0.136939	1633	90723.7
1026	2.000000	1.162734	7.37509e+06	-51439.1	1055.82	-29752.2	0.000000	0.000000	7.172913	240.138	NaN	0.000000	0.001642	0.001731	28.0825	70.9849	0.001845	38478.3	4.235800	-5.333779	234.501	1.162434	0.070076	0.069775	240.138	38478.3	0.065395	0.145861	1646.34	92049.1
1026	2.000000	1.165287	7.37509e+06	-51439.1	1055.82	-29752.2	0.000000	0.000000	7.176025	253.725	NaN	0.000000	0.001620	0.001697	28.0837	72.8116	0.001767	41195.1	4.694208	174.623	251.616	1.164879	0.072628	0.072220	253.725	41195.1	0.068009	0.156084	1625.57	95266.4
1026	2.000000	1.167809	7.37509e+06	-51439.1	1055.82	-29752.2	0.000000	0.000000	7.179203	269.67	NaN	0.000000	0.001619	0.001748	28.0836	75.2402	0.001900	39599.7	5.615003	-6.023334	268.289	1.167308	0.075151	0.074650	269.67	39599.7	0.070043	0.164265	1641.68	89267.4
1026	2.000000	1.170318	7.37509e+06	-51439.1	1055.82	-29752.2	0.000000	0.000000	7.182512	289.134	NaN	0.000000	0.001596	0.001707	28.0837	77.5128	0.001771	43757	6.072499	172.418	290.032	1.169969	0.077659	0.077311	289.134	43757	0.072704	0.175260	1649.74	95494.8
1026	2.000000	1.172842	7.37509e+06	-51439.1	1055.82	-29752.2	0.000000	0.000000	7.185353	296.842	NaN	0.000000	0.001616	0.001719	28.0837	79.6149	0.001683	47305.2	2.970892	-6.019247	297.198	1.172591	0.080183	0.079932	296.842	47305.2	0.075477	0.187079	1586.72	99924.1
1026	2.000000	1.175280	7.37509e+06	-51439.1	1055.82	-29752.2	0.000000	0.000000	7.188955	325.153	NaN	0.000000	0.001661	0.001682	28.0833	84.1642	0.001870	45012.4	6.241350	171.223	324.03	1.174839	0.082621	0.082180	325.153	45012.4	0.077203	0.194619	1670.72	93220.8
1026	2.000000	1.177783	7.37509e+06	-51439.1	1055.82	-29752.2	0.000000	0.000000	7.192232	343.968	NaN	0.000000	0.001598	0.001708	28.0832	85.3057	0.001719	49622.8	7.160731	-9.272777	341.031	1.177282	0.085124	0.084623	343.968	49622.8	0.079925	0.206790	1663.37	99698.7
1026	2.000000	1.180339	7.37509e+06	-51439.1	1055.82	-29752.2	0.000000	0.000000	7.195156	352.92	NaN	0.000000	0.001598	0.001721	28.0834	87.6854	0.001667	52586.4	8.653400	167.266	355.928	1.179990	0.087681	0.087332	352.92	52586.4	0.082647	0.219306	1609.26	102594
1026	2.000000	1.182706	7.37509e+06	-51439.1	1055.82	-29752.2	0.000000	0.000000	7.198440	375.219	NaN	0.000000	0.001605	0.001749	28.0836	89.2168	0.001835	48618.1	5.398976	-8.630402	371.29	1.182430	0.090048	0.089772	375.219	48618.1	0.084259	0.226881	1653.81	93255.1
1026	2.000000	1.185303	7.37509e+06	-51439.1	1055.82	-29752.2	0.000000	0.000000	7.201522	387.003	NaN	0.000000	0.001564	0.001737	28.0834	92.972	0.001842	50476	5.923571	169.829	385.175	1.185041	0.092644	0.092383	387.003	50476	0.086894	0.239519	1615.75	94229.7
1026	2.000000	1.187763	7.37509e+06	-51439.1	1055.82	-29752.2	0.000000	0.000000	7.205188	416.332	NaN	0.000000	0.001585	0.001696	28.0834	93.8477	0.001780	52726	7.710518	-11.5668	412.147	1.187387	0.095105	0.094728	416.332	52726	0.089182	0.250757	1660.3	96199.3
1026	2.000000	1.190317	7.37509e+06	-51439.1	1055.82	-29752.2	0.000000	0.000000	7.208553	436.052	NaN	0.000000	0.001611	0.001745	28.0837	94.4463	0.001707	55320.4	2.711256	173.284	436.064	1.189905	0.097659	0.097247	436.052	55320.4	0.091747	0.263634	1654	98436.9
1026	2.000000	1.192709	7.37509e+06	-51439.1	1055.82	-29752.2	0.000000	0.000000	7.211996	461.615	NaN	0.000000	0.001630	0.001736	28.0833	98.4155	0.001759	55936.6	4.972158	-9.229606	454.892	1.192338	0.100050	0.099680	461.615	55936.6	0.093861	0.274477	1681.8	97547.6
1026	2.000000	1.195263	7.37509e+06	-51439.1	1055.82	-29752.2	0.000000	0.000000	7.215254	478.717	NaN	0.000000	0.001564	0.001752	28.0834	102.35	0.001832	55880.4	4.275386	171.335	476.209	1.195058	0.102605	0.102399	478.717	55880.4	0.096180	0.286604	1670.31	95365.6
1026	2.000000	1.197708	7.37509e+06	-51439.1	1055.82	-29752.2	0.000000	0.000000	7.218755	504.391	NaN	0.000000	0.001554	0.001767	28.0829	103.68	0.001816	57090.6	5.147747	-9.615863	497.065	1.197366	0.105050	0.104707	504.391	57090.6	0.098424	0.298574	1689.33	95457.9
1026	2.000000	1.198277	7.37509e+06	-51439.1	1055.82	-29752.2	0.000000	0.000000	7.219440	507.22	NaN	0.000000	0.001529	0.001767	28.0823	105.317	0.001796	58627.8	6.888830	168.897	508.665	1.197879	0.105618	0.105221	507.22	58627.8	0.099130	0.302388	1677.38	97407.9