File: remote_trans/data/nanoindenter/0828-1/data/Data_2025-08-06,11h17m57s/2025-07-22_16-23-58_1_508.txt
2025-07-22, 16:23:58, 1
Index	Phase	Displacement	Time	Pos X	Pos Y	Pos Z	Rot A	Rot B	Piezo Z	Force A	Force B	Gripper	Voltage A	Voltage B	Temperature	Amplitude force	Amplitude pos	Stiffness	Phase shift	Phase excitation	Force A raw	Displacement raw	HMax	HMax raw	Real Force	Real Stiffness	Contact Depth	Area	Hardness	Reduced Mod.
[#]	[#]	[um]	[s]	[um]	[um]	[um]	[m°]	[m°]	[um]	[uN]	[uN]	[V]	[V]	[V]	[°C]	[uN]	[um]	[N/m]	[°]	[°]	[uN]	[um]	[um]	[um]	[uN]	[N/m]	[um]	[um^2]	[MPa]	[MPa]
508	1.000000	0.002602	7.37002e+06	-51689.1	1005.82	-29751.5	0.000000	0.000000	6.002816	0.008774	NaN	0.000000	0.001655	0.001679	28.0801	0.060964	0.000885	68.8837	-163.083	-166.679	0.008502	0.001262	-1.127321	-1.128661	0.008774	68.8837	-1.127417	-1.169421E+15	-7.502748E-18	NaN
508	1.000000	0.012651	7.37002e+06	-51689.1	1005.82	-29751.5	0.000000	0.000000	6.012864	-0.025484	NaN	0.000000	0.001641	0.001687	28.0795	0.106200	0.001324	80.2036	68.1399	14.2063	0.036197	0.011223	-1.117272	-1.118700	-0.025484	80.2036	-1.117033	-8.485350E+14	3.003330E-17	NaN
508	1.000000	0.022546	7.37002e+06	-51689.1	1005.82	-29751.5	0.000000	0.000000	6.022761	0.018359	NaN	0.000000	0.001646	0.001708	28.0794	0.054847	0.001814	30.2429	97.8528	-165.213	0.078960	0.021190	-1.107377	-1.108733	0.018359	30.2429	-1.107832	-6.385547E+14	-2.875118E-17	NaN
508	1.000000	0.032533	7.37002e+06	-51689.1	1005.82	-29751.5	0.000000	0.000000	6.032747	-0.005774	NaN	0.000000	0.001653	0.001702	28.0794	0.072974	0.001982	36.8174	153.281	12.8183	-0.062712	0.031188	-1.097390	-1.098735	-0.005774	36.8174	-1.097272	-4.607359E+14	1.253195E-17	NaN
508	1.000000	0.042547	7.37002e+06	-51689.1	1005.82	-29751.5	0.000000	0.000000	6.042761	-0.006248	NaN	0.000000	0.001609	0.001724	28.0797	0.059032	0.001947	30.3222	36.8737	-162.853	-0.011870	0.041260	-1.087376	-1.088663	-0.006248	30.3222	-1.087222	-3.376786E+14	1.850331E-17	NaN
508	1.000000	0.052518	7.37002e+06	-51689.1	1005.82	-29751.5	0.000000	0.000000	6.052734	0.042247	NaN	0.000000	0.001645	0.001700	28.0794	0.055255	0.001938	28.509	-36.7237	18.731	0.020528	0.051139	-1.077405	-1.078784	0.042247	28.509	-1.078517	-2.579851E+14	-1.637593E-16	NaN
508	1.000000	0.062528	7.37002e+06	-51689.1	1005.82	-29751.5	0.000000	0.000000	6.062741	-0.018452	NaN	0.000000	0.001643	0.001727	28.0795	0.019855	0.002008	9.888303	129.688	-163.975	0.047906	0.061243	-1.067395	-1.068680	-0.018452	9.888303	-1.065996	-1.751414E+14	1.053567E-16	NaN
508	1.000000	0.072541	7.37002e+06	-51689.1	1005.82	-29751.5	0.000000	0.000000	6.072758	0.076761	NaN	0.000000	0.001682	0.001693	28.0797	0.060649	0.001947	31.1514	75.1415	15.1793	0.075481	0.071162	-1.057382	-1.058761	0.076761	31.1514	-1.059230	-1.420615E+14	-5.403357E-16	NaN
508	1.000000	0.082538	7.37002e+06	-51689.1	1005.82	-29751.5	0.000000	0.000000	6.082754	0.052625	NaN	0.000000	0.001640	0.001704	28.0793	0.140840	0.001947	72.3203	-104.061	-164.317	0.039496	0.081229	-1.047385	-1.048694	0.052625	72.3203	-1.047931	-1.001389E+14	-5.255231E-16	NaN
508	1.000000	0.092552	7.37002e+06	-51689.1	1005.82	-29751.5	0.000000	0.000000	6.092767	0.021350	NaN	0.000000	0.001625	0.001687	28.0795	0.056624	0.001986	28.5104	-178.672	18.054	0.024238	0.091178	-1.037371	-1.038745	0.021350	28.5104	-1.037933	-7.348016E+13	-2.905527E-16	NaN
508	1.000000	0.102582	7.37002e+06	-51689.1	1005.82	-29751.5	0.000000	0.000000	6.102794	-0.042403	NaN	0.000000	0.001667	0.001687	28.0811	0.070140	0.001931	36.3275	130.647	-168.5	-0.082903	0.101248	-1.027341	-1.028675	-0.042403	36.3275	-1.026466	-5.151574E+13	8.231088E-16	NaN
508	1.000000	0.112520	7.37002e+06	-51689.1	1005.82	-29751.5	0.000000	0.000000	6.112735	-0.000567	NaN	0.000000	0.001623	0.001696	28.081	0.101012	0.001955	51.6656	-151.436	13.4773	-0.009668	0.111177	-1.017403	-1.018746	-0.000567	51.6656	-1.017395	-3.889507E+13	1.458354E-17	NaN
508	1.000000	0.122558	7.37002e+06	-51689.1	1005.82	-29751.5	0.000000	0.000000	6.122772	0.000758	NaN	0.000000	0.001643	0.001737	28.0808	0.045860	0.002025	22.6431	-131.803	-164.821	-0.037512	0.121230	-1.007365	-1.008693	0.000758	22.6431	-1.007391	-2.852726E+13	-2.655596E-17	NaN
508	1.000000	0.132572	7.37002e+06	-51689.1	1005.82	-29751.5	0.000000	0.000000	6.132787	0.005729	NaN	0.000000	0.001627	0.001676	28.0809	0.052715	0.002039	25.8494	-100.189	17.1681	-0.086164	0.131242	-0.997351	-0.998681	0.005729	25.8494	-0.997517	-2.100580E+13	-2.727526E-16	NaN
508	1.000000	0.142566	7.37002e+06	-51689.1	1005.82	-29751.5	0.000000	0.000000	6.142777	-0.101185	NaN	0.000000	0.001621	0.001741	28.0809	0.095678	0.002020	47.3663	52.6923	-162.657	-0.088844	0.141243	-0.987357	-0.988681	-0.101185	47.3663	-0.985754	-1.458576E+13	6.937233E-15	NaN
508	1.000000	0.152593	7.37002e+06	-51689.1	1005.82	-29751.5	0.000000	0.000000	6.152810	0.066415	NaN	0.000000	0.001611	0.001712	28.081	0.091952	0.001981	46.4204	-21.9592	12.1468	0.055791	0.151217	-0.977330	-0.978706	0.066415	46.4204	-0.978403	-1.161182E+13	-5.719588E-15	NaN
508	1.000000	0.162597	7.37002e+06	-51689.1	1005.82	-29751.5	0.000000	0.000000	6.162814	0.058135	NaN	0.000000	0.001629	0.001745	28.0808	0.035554	0.002044	17.3905	156.911	-165.738	0.063715	0.161231	-0.967326	-0.968692	0.058135	17.3905	-0.969833	-8.900563E+12	-6.531577E-15	NaN
508	1.000000	0.172576	7.37002e+06	-51689.1	1005.82	-29751.5	0.000000	0.000000	6.172792	0.046695	NaN	0.000000	0.001617	0.001742	28.0818	0.016598	0.001981	8.378259	-18.4963	11.0287	0.036948	0.171186	-0.957347	-0.958737	0.046695	8.378259	-0.961527	-6.877958E+12	-6.789107E-15	NaN
508	1.000000	0.182603	7.37002e+06	-51689.1	1005.82	-29751.5	0.000000	0.000000	6.182816	-0.031459	NaN	0.000000	0.001617	0.001743	28.081	0.080803	0.001854	43.5796	6.171903	-166.83	-0.058224	0.181258	-0.947320	-0.948665	-0.031459	43.5796	-0.946778	-4.350855E+12	7.230461E-15	NaN
508	1.000000	0.192569	7.37002e+06	-51689.1	1005.82	-29751.5	0.000000	0.000000	6.192782	-0.042902	NaN	0.000000	0.001616	0.001730	28.0809	0.094455	0.002116	44.6464	-101.675	15.3967	-0.004472	0.191282	-0.937354	-0.938641	-0.042902	44.6464	-0.936633	-3.174772E+12	1.351331E-14	NaN
508	1.000000	0.202609	7.37002e+06	-51689.1	1005.82	-29751.5	0.000000	0.000000	6.202823	-0.014443	NaN	0.000000	0.001605	0.001674	28.0811	0.060723	0.001951	31.1243	126.632	-167.573	0.005520	0.201258	-0.927314	-0.928665	-0.014443	31.1243	-0.926966	-2.350946E+12	6.143314E-15	NaN
508	1.000000	0.212592	7.37002e+06	-51689.1	1005.82	-29751.5	0.000000	0.000000	6.212805	-0.043900	NaN	0.000000	0.001611	0.001713	28.081	0.130997	0.001942	67.4579	125.015	14.2505	-0.059153	0.211244	-0.917331	-0.918679	-0.043900	67.4579	-0.916843	-1.716217E+12	2.557964E-14	NaN
508	1.000000	0.222611	7.37002e+06	-51689.1	1005.82	-29751.5	0.000000	0.000000	6.222822	-0.084296	NaN	0.000000	0.001617	0.001720	28.0811	0.061284	0.002098	29.2046	20.6268	-164.759	-0.134692	0.221248	-0.907312	-0.908675	-0.084296	29.2046	-0.905147	-1.192920E+12	7.066347E-14	NaN
508	1.000000	0.232616	7.37002e+06	-51689.1	1005.82	-29751.5	0.000000	0.000000	6.232828	-0.067927	NaN	0.000000	0.001637	0.001698	28.0808	0.030776	0.002029	15.167	82.0173	12.4714	-0.051342	0.231216	-0.897307	-0.898707	-0.067927	15.167	-0.893948	-8.419352E+11	8.067973E-14	NaN
508	1.000000	0.242609	7.37002e+06	-51689.1	1005.82	-29751.5	0.000000	0.000000	6.242822	-0.036934	NaN	0.000000	0.001646	0.001690	28.0798	0.053954	0.001962	27.5059	59.323	-166.169	-0.006375	0.241265	-0.887314	-0.888658	-0.036934	27.5059	-0.886307	-6.637202E+11	5.564761E-14	NaN
508	1.000000	0.252617	7.37002e+06	-51689.1	1005.82	-29751.5	0.000000	0.000000	6.252831	-0.008645	NaN	0.000000	0.001647	0.001690	28.0798	0.156389	0.002012	77.725	91.5078	15.8134	-0.027580	0.251271	-0.877306	-0.878652	-0.008645	77.725	-0.877223	-5.002058E+11	1.728315E-14	NaN
508	1.000000	0.262580	7.37002e+06	-51689.1	1005.82	-29751.5	0.000000	0.000000	6.262794	-0.014820	NaN	0.000000	0.001627	0.001706	28.0799	0.048421	0.001938	24.9798	-24.692	-163.077	-0.048553	0.261279	-0.867343	-0.868644	-0.014820	24.9798	-0.866898	-3.626354E+11	4.086689E-14	NaN
508	1.000000	0.272624	7.37002e+06	-51689.1	1005.82	-29751.5	0.000000	0.000000	6.272838	-0.010886	NaN	0.000000	0.001671	0.001699	28.0795	0.020165	0.001985	10.157	112.321	14.3392	0.024616	0.271217	-0.857299	-0.858706	-0.010886	10.157	-0.856495	-2.622257E+11	4.151339E-14	NaN
508	1.000000	0.282648	7.37002e+06	-51689.1	1005.82	-29751.5	0.000000	0.000000	6.282861	-0.042414	NaN	0.000000	0.001733	0.001674	28.0797	0.045222	0.001900	23.8056	-175.738	-165.922	0.011138	0.281314	-0.847275	-0.848609	-0.042414	23.8056	-0.845939	-1.886840E+11	2.247859E-13	NaN
508	1.000000	0.292618	7.37002e+06	-51689.1	1005.82	-29751.5	0.000000	0.000000	6.292833	0.023876	NaN	0.000000	0.001754	0.001704	28.0796	0.170882	0.002060	82.9455	39.0417	13.3151	0.065063	0.291290	-0.837305	-0.838633	0.023876	82.9455	-0.837521	-1.451128E+11	-1.645329E-13	NaN
508	1.000000	0.302649	7.37002e+06	-51689.1	1005.82	-29751.5	0.000000	0.000000	6.302862	-0.016351	NaN	0.000000	0.001643	0.001683	28.0796	0.144789	0.001978	73.2167	-144.106	-164.428	0.015137	0.301332	-0.827274	-0.828591	-0.016351	73.2167	-0.827107	-1.048503E+11	1.559437E-13	NaN
508	1.000000	0.312653	7.37002e+06	-51689.1	1005.82	-29751.5	0.000000	0.000000	6.312868	0.015178	NaN	0.000000	0.001673	0.001675	28.0794	0.020329	0.001939	10.4833	-100.673	13.8627	0.040708	0.311296	-0.817270	-0.818627	0.015178	10.4833	-0.818356	-7.978375E+10	-1.902440E-13	NaN
508	1.000000	0.322650	7.37002e+06	-51689.1	1005.82	-29751.5	0.000000	0.000000	6.322866	0.030286	NaN	0.000000	0.001710	0.001659	28.0792	0.117112	0.001967	59.5532	-44.893	-166.063	-0.017142	0.321414	-0.807273	-0.808509	0.030286	59.5532	-0.807654	-5.711418E+10	-5.302781E-13	NaN
508	1.000000	0.332652	7.37002e+06	-51689.1	1005.82	-29751.5	0.000000	0.000000	6.332864	-0.068130	NaN	0.000000	0.001667	0.001736	28.0795	0.063230	0.002007	31.5122	14.4686	10.6412	-0.014137	0.331273	-0.797271	-0.798650	-0.068130	31.5122	-0.795649	-3.924642E+10	1.735948E-12	NaN
508	1.000000	0.342653	7.37002e+06	-51689.1	1005.82	-29751.5	0.000000	0.000000	6.342867	-0.015232	NaN	0.000000	0.001683	0.001744	28.0797	0.091886	0.002104	43.6692	-20.5148	-165.931	-0.022155	0.341332	-0.787270	-0.788591	-0.015232	43.6692	-0.787008	-2.995365E+10	5.085074E-13	NaN
508	1.000000	0.352656	7.37002e+06	-51689.1	1005.82	-29751.5	0.000000	0.000000	6.352871	-0.006031	NaN	0.000000	0.001734	0.001745	28.0797	0.060401	0.002016	29.9652	120.06	17.2455	-0.007359	0.351280	-0.777267	-0.778643	-0.006031	29.9652	-0.777116	-2.198025E+10	2.743802E-13	NaN
508	1.000000	0.362682	7.37002e+06	-51689.1	1005.82	-29751.5	0.000000	0.000000	6.362896	-0.002878	NaN	0.000000	0.001717	0.001723	28.0795	0.065458	0.001922	34.0522	-6.264444	-161.475	-0.057236	0.361361	-0.767241	-0.768562	-0.002878	34.0522	-0.767178	-1.610395E+10	1.786916E-13	NaN
508	1.000000	0.372675	7.37002e+06	-51689.1	1005.82	-29751.5	0.000000	0.000000	6.372889	-0.012787	NaN	0.000000	0.001696	0.001712	28.0801	0.119413	0.001974	60.483	3.329907	14.3405	-0.002213	0.371278	-0.757248	-0.758645	-0.012787	60.483	-0.757089	-1.174083E+10	1.089098E-12	NaN
508	1.000000	0.382660	7.37002e+06	-51689.1	1005.82	-29751.5	0.000000	0.000000	6.382875	0.015113	NaN	0.000000	0.001688	0.001720	28.0833	0.038913	0.001918	20.2885	-47.0139	-165.033	0.012932	0.381383	-0.747263	-0.748540	0.015113	20.2885	-0.747822	-8.781423E+9	-1.720992E-12	NaN
508	1.000000	0.392667	7.37002e+06	-51689.1	1005.82	-29751.5	0.000000	0.000000	6.392884	0.059017	NaN	0.000000	0.001706	0.001719	28.0818	0.101433	0.001984	51.1267	178.237	11.6568	-0.054486	0.391318	-0.737256	-0.738605	0.059017	51.1267	-0.738122	-6.478496E+9	-9.109660E-12	NaN
508	1.000000	0.402667	7.37002e+06	-51689.1	1005.82	-29751.5	0.000000	0.000000	6.402881	-0.007357	NaN	0.000000	0.001698	0.001765	28.0815	0.129309	0.002147	60.228	-61.0274	-164.483	0.001704	0.401335	-0.727256	-0.728588	-0.007357	60.228	-0.727164	-4.593647E+9	1.601452E-12	NaN
508	1.000000	0.412692	7.37002e+06	-51689.1	1005.82	-29751.5	0.000000	0.000000	6.412907	0.008390	NaN	0.000000	0.001710	0.001733	28.0811	0.103387	0.002004	51.578	-19.1767	14.703	0.026472	0.411320	-0.717231	-0.718603	0.008390	51.578	-0.717353	-3.375704E+9	-2.485324E-12	NaN
508	1.000000	0.422646	7.37002e+06	-51689.1	1005.82	-29751.5	0.000000	0.000000	6.422860	-0.003926	NaN	0.000000	0.001738	0.001725	28.0808	0.059324	0.001999	29.6725	-55.4145	-164.407	-0.012919	0.421410	-0.707277	-0.708513	-0.003926	29.6725	-0.707178	-2.452049E+9	1.601236E-12	NaN
508	1.000000	0.432670	7.37002e+06	-51689.1	1005.82	-29751.5	0.000000	0.000000	6.432882	-0.053108	NaN	0.000000	0.001747	0.001721	28.0807	0.071677	0.001971	36.3741	63.9413	14.0209	-0.009854	0.431326	-0.697253	-0.698597	-0.053108	36.3741	-0.696158	-1.734044E+9	3.062676E-11	NaN
508	1.000000	0.442698	7.37002e+06	-51689.1	1005.82	-29751.5	0.000000	0.000000	6.442911	-0.026193	NaN	0.000000	0.001713	0.001715	28.0806	0.067963	0.002079	32.6931	-4.509333	-162.972	-0.014333	0.441401	-0.687225	-0.688522	-0.026193	32.6931	-0.686624	-1.284623E+9	2.038988E-11	NaN
508	1.000000	0.452708	7.37002e+06	-51689.1	1005.82	-29751.5	0.000000	0.000000	6.452923	0.015520	NaN	0.000000	0.001682	0.001723	28.0807	0.031904	0.001990	16.0343	49.8348	12.9764	0.054473	0.451326	-0.677215	-0.678597	0.015520	16.0343	-0.677941	-9.773263E+8	-1.588022E-11	NaN
508	1.000000	0.462738	7.37002e+06	-51689.1	1005.82	-29751.5	0.000000	0.000000	6.462952	-0.014728	NaN	0.000000	0.001655	0.001726	28.0808	0.061304	0.002060	29.7632	108.174	-166.115	-0.014095	0.461375	-0.667185	-0.668548	-0.014728	29.7632	-0.666814	-6.882938E+8	2.139778E-11	NaN
508	1.000000	0.472724	7.37002e+06	-51689.1	1005.82	-29751.5	0.000000	0.000000	6.472939	0.015213	NaN	0.000000	0.001746	0.001719	28.0807	0.101113	0.001943	52.0449	147.438	13.5858	-0.119900	0.471343	-0.657199	-0.658580	0.015213	52.0449	-0.657418	-5.117980E+8	-2.972378E-11	NaN
508	1.000000	0.482697	7.37002e+06	-51689.1	1005.82	-29751.5	0.000000	0.000000	6.482910	-0.022841	NaN	0.000000	0.001728	0.001750	28.0808	0.110767	0.002051	53.9951	96.5901	-168.523	-0.022438	0.481438	-0.647226	-0.648485	-0.022841	53.9951	-0.646909	-3.673286E+8	6.218225E-11	NaN
508	1.000000	0.492701	7.37002e+06	-51689.1	1005.82	-29751.5	0.000000	0.000000	6.492917	0.054740	NaN	0.000000	0.001730	0.001730	28.081	0.047035	0.001948	24.14	-171.414	15.4873	0.102547	0.491380	-0.637222	-0.638543	0.054740	24.14	-0.638923	-2.854378E+8	-1.917747E-10	NaN
508	1.000000	0.502734	7.37002e+06	-51689.1	1005.82	-29751.5	0.000000	0.000000	6.502948	0.009394	NaN	0.000000	0.001672	0.001724	28.081	0.171496	0.001995	85.9452	176.413	-165.988	0.026212	0.501418	-0.627189	-0.628505	0.009394	85.9452	-0.627271	-1.974905E+8	-4.756846E-11	NaN
508	1.000000	0.512744	7.37002e+06	-51689.1	1005.82	-29751.5	0.000000	0.000000	6.512960	0.028611	NaN	0.000000	0.001712	0.001727	28.0795	0.235220	0.002047	114.921	-175.184	16.7631	0.068103	0.511318	-0.617179	-0.618605	0.028611	114.921	-0.617365	-1.443491E+8	-1.982093E-10	NaN
508	1.000000	0.522735	7.37002e+06	-51689.1	1005.82	-29751.5	0.000000	0.000000	6.522946	-0.076092	NaN	0.000000	0.001665	0.001734	28.0796	0.038532	0.002175	17.7194	-43.5291	-165.498	-0.033152	0.521426	-0.607188	-0.608497	-0.076092	17.7194	-0.603967	-9.442516E+7	8.058477E-10	NaN
508	1.000000	0.532722	7.37002e+06	-51689.1	1005.82	-29751.5	0.000000	0.000000	6.532935	-0.017946	NaN	0.000000	0.001603	0.001756	28.0799	0.055720	0.002034	27.3884	127.886	17.5577	-0.034342	0.531376	-0.597201	-0.598547	-0.017946	27.3884	-0.596710	-7.501389E+7	2.392331E-10	NaN
508	1.000000	0.542752	7.37002e+06	-51689.1	1005.82	-29751.5	0.000000	0.000000	6.542966	-0.006740	NaN	0.000000	0.001515	0.001762	28.0796	0.075457	0.001942	38.8536	108.257	-168.147	0.008153	0.541481	-0.587171	-0.588442	-0.006740	38.8536	-0.587041	-5.519074E+7	1.221288E-10	NaN
508	1.000000	0.552756	7.37002e+06	-51689.1	1005.82	-29751.5	0.000000	0.000000	6.552971	0.018761	NaN	0.000000	0.001564	0.001731	28.0798	0.032378	0.001887	17.1604	109.38	13.8758	-0.055203	0.551412	-0.577167	-0.578511	0.018761	17.1604	-0.577987	-4.139367E+7	-4.532270E-10	NaN
508	1.000000	0.562740	7.37002e+06	-51689.1	1005.82	-29751.5	0.000000	0.000000	6.562953	-0.032545	NaN	0.000000	0.001517	0.001720	28.0798	0.057949	0.001944	29.8123	-157.505	-163.772	-0.020927	0.561448	-0.567183	-0.568475	-0.032545	29.8123	-0.566364	-2.860124E+7	1.137891E-9	NaN
508	1.000000	0.572740	7.37002e+06	-51689.1	1005.82	-29751.5	0.000000	0.000000	6.572955	0.011205	NaN	0.000000	0.001623	0.001732	28.08	0.039237	0.001966	19.962	-57.4546	18.5444	0.030457	0.571418	-0.557183	-0.558505	0.011205	19.962	-0.557604	-2.163865E+7	-5.178330E-10	NaN
508	1.000000	0.582748	7.37002e+06	-51689.1	1005.82	-29751.5	0.000000	0.000000	6.582964	0.035404	NaN	0.000000	0.001576	0.001707	28.0798	0.103676	0.001977	52.4533	179.785	-164.039	0.064723	0.581444	-0.547175	-0.548479	0.035404	52.4533	-0.547681	-1.576987E+7	-2.245050E-9	NaN
508	1.000000	0.592765	7.37002e+06	-51689.1	1005.82	-29751.5	0.000000	0.000000	6.592980	0.004415	NaN	0.000000	0.001633	0.001731	28.0799	0.028707	0.002024	14.1799	-17.6928	9.275313	-0.100103	0.591376	-0.537158	-0.538547	0.004415	14.1799	-0.537391	-1.135466E+7	-3.888375E-10	NaN
508	1.000000	0.602771	7.37002e+06	-51689.1	1005.82	-29751.5	0.000000	0.000000	6.602986	0.000983	NaN	0.000000	0.001595	0.001787	28.0797	0.093455	0.002027	46.1093	143.181	-168.459	-0.111309	0.601484	-0.527152	-0.528439	0.000983	46.1093	-0.527168	-8.18903e+06	-1.200206E-10	NaN
508	1.000000	0.612786	7.37002e+06	-51689.1	1005.82	-29751.5	0.000000	0.000000	6.613000	-0.007643	NaN	0.000000	0.001613	0.001719	28.0799	0.051938	0.001959	26.5152	25.0605	13.5429	-0.043038	0.611416	-0.517137	-0.518507	-0.007643	26.5152	-0.516921	-5.89882e+06	1.295628E-9	NaN
508	1.000000	0.622782	7.37002e+06	-51689.1	1005.82	-29751.5	0.000000	0.000000	6.622995	-0.038639	NaN	0.000000	0.001614	0.001731	28.0794	0.114760	0.002120	54.1209	175.537	-163.317	-0.080349	0.621463	-0.507141	-0.508460	-0.038639	54.1209	-0.506606	-4.23766e+06	9.118105E-9	NaN
508	1.000000	0.632801	7.37002e+06	-51689.1	1005.82	-29751.5	0.000000	0.000000	6.633018	0.061636	NaN	0.000000	0.001613	0.001718	28.0796	0.044269	0.002058	21.5112	64.9125	16.2324	0.004861	0.631432	-0.497122	-0.498491	0.061636	21.5112	-0.499271	-3.34851e+06	-1.840707E-8	NaN
508	1.000000	0.642803	7.37002e+06	-51689.1	1005.82	-29751.5	0.000000	0.000000	6.643019	0.052021	NaN	0.000000	0.001626	0.001711	28.0796	0.108098	0.001913	56.5132	-86.1676	-165.054	0.027825	0.641507	-0.487120	-0.488416	0.052021	56.5132	-0.487811	-2.31628e+06	-2.245879E-8	NaN
508	1.000000	0.652792	7.37002e+06	-51689.1	1005.82	-29751.5	0.000000	0.000000	6.653005	-0.021553	NaN	0.000000	0.001636	0.001665	28.081	0.084703	0.001987	42.6261	-95.6552	17.8431	-0.011454	0.651435	-0.477131	-0.478488	-0.021553	42.6261	-0.476752	-1.62199e+06	1.328815E-8	NaN
508	1.000000	0.662782	7.37002e+06	-51689.1	1005.82	-29751.5	0.000000	0.000000	6.662999	0.064109	NaN	0.000000	0.001636	0.001701	28.0807	0.090928	0.002002	45.417	87.3635	-162.41	0.033426	0.661478	-0.467141	-0.468445	0.064109	45.417	-0.468200	-1.23072e+06	-5.209090E-8	NaN
508	1.000000	0.672819	7.37002e+06	-51689.1	1005.82	-29751.5	0.000000	0.000000	6.673032	-0.028739	NaN	0.000000	0.001627	0.001728	28.0808	0.145882	0.001939	75.2199	-101.521	16.7517	-0.033058	0.671419	-0.457104	-0.458504	-0.028739	75.2199	-0.456818	-851692	3.374337E-8	NaN
508	1.000000	0.682783	7.37002e+06	-51689.1	1005.82	-29751.5	0.000000	0.000000	6.682996	-0.018915	NaN	0.000000	0.001629	0.001691	28.081	0.068295	0.001926	35.4551	165.207	-163.903	-0.004447	0.681485	-0.447140	-0.448438	-0.018915	35.4551	-0.446740	-614357	3.078827E-8	NaN
508	1.000000	0.692792	7.37002e+06	-51689.1	1005.82	-29751.5	0.000000	0.000000	6.693006	-0.024121	NaN	0.000000	0.001635	0.001680	28.0809	0.078766	0.002139	36.8308	-175.904	11.8586	-0.015777	0.691458	-0.437131	-0.438465	-0.024121	36.8308	-0.436640	-442504	5.450986E-8	NaN
508	1.000000	0.702804	7.37002e+06	-51689.1	1005.82	-29751.5	0.000000	0.000000	6.703019	0.017060	NaN	0.000000	0.001634	0.001715	28.0807	0.040264	0.001943	20.7267	-3.568008	-167.81	0.040686	0.701494	-0.427119	-0.428429	0.017060	20.7267	-0.427737	-331157	-5.151506E-8	NaN
508	1.000000	0.712825	7.37002e+06	-51689.1	1005.82	-29751.5	0.000000	0.000000	6.713039	-0.003483	NaN	0.000000	0.001605	0.001685	28.0807	0.082639	0.002040	40.5109	-27.8738	13.6207	0.040647	0.711420	-0.417098	-0.418503	-0.003483	40.5109	-0.417034	-233522	1.491459E-8	NaN
508	1.000000	0.722814	7.37002e+06	-51689.1	1005.82	-29751.5	0.000000	0.000000	6.723029	0.017447	NaN	0.000000	0.001611	0.001715	28.0808	0.097176	0.002102	46.2385	123.437	-166.727	0.020092	0.721512	-0.407109	-0.408411	0.017447	46.2385	-0.407392	-170336	-1.024267E-7	NaN
508	1.000000	0.732794	7.37002e+06	-51689.1	1005.82	-29751.5	0.000000	0.000000	6.733008	-0.015979	NaN	0.000000	0.001647	0.001719	28.0806	0.135234	0.001919	70.4759	-46.9122	15.6999	0.022467	0.731498	-0.397129	-0.398425	-0.015979	70.4759	-0.396959	-120950	1.321145E-7	NaN
508	1.000000	0.742837	7.37002e+06	-51689.1	1005.82	-29751.5	0.000000	0.000000	6.743051	-0.008051	NaN	0.000000	0.001678	0.001655	28.0807	0.092569	0.001940	47.7237	133.78	-166.235	0.056270	0.741499	-0.387086	-0.388424	-0.008051	47.7237	-0.386959	-87025.4	9.251324E-8	NaN
508	1.000000	0.752854	7.37002e+06	-51689.1	1005.82	-29751.5	0.000000	0.000000	6.753074	0.130258	NaN	0.000000	0.001664	0.001704	28.0807	0.025194	0.001916	13.152	-48.2268	14.9368	0.088279	0.751471	-0.377069	-0.378452	0.130258	13.152	-0.384497	-80237.5	-1.623409E-6	NaN
508	1.000000	0.762828	7.37002e+06	-51689.1	1005.82	-29751.5	0.000000	0.000000	6.763042	-0.003521	NaN	0.000000	0.001629	0.001698	28.0809	0.136388	0.001941	70.2492	103.876	-165.458	-0.080015	0.761478	-0.367095	-0.368445	-0.003521	70.2492	-0.367057	-45053.4	7.815911E-8	NaN
508	1.000000	0.772847	7.37002e+06	-51689.1	1005.82	-29751.5	0.000000	0.000000	6.773059	-0.044716	NaN	0.000000	0.001621	0.001713	28.0806	0.062463	0.002063	30.2716	39.826	11.8182	-0.045986	0.771510	-0.357076	-0.358413	-0.044716	30.2716	-0.355968	-31154.4	1.435297E-6	NaN
508	1.000000	0.782853	7.37002e+06	-51689.1	1005.82	-29751.5	0.000000	0.000000	6.783068	0.022708	NaN	0.000000	0.001663	0.001673	28.0803	0.023587	0.001993	11.832	-114.133	-164.929	0.016873	0.781575	-0.347070	-0.348348	0.022708	11.832	-0.348509	-24286.1	-9.350161E-7	NaN
508	1.000000	0.792861	7.37002e+06	-51689.1	1005.82	-29751.5	0.000000	0.000000	6.793075	-0.004419	NaN	0.000000	0.001686	0.001725	28.0795	0.087947	0.001884	46.6721	31.0372	11.4312	0.074903	0.791459	-0.337062	-0.338464	-0.004419	46.6721	-0.336991	-16507	2.677187E-7	NaN
508	1.000000	0.802855	7.37002e+06	-51689.1	1005.82	-29751.5	0.000000	0.000000	6.803067	-0.047396	NaN	0.000000	0.001635	0.001692	28.0798	0.114553	0.001914	59.836	-147.237	-168.048	-0.019574	0.801484	-0.327068	-0.328439	-0.047396	59.836	-0.326474	-11581.6	4.092396E-6	NaN
508	1.000000	0.812848	7.37002e+06	-51689.1	1005.82	-29751.5	0.000000	0.000000	6.813061	-0.026826	NaN	0.000000	0.001620	0.001701	28.0795	0.065989	0.002161	30.5302	178.421	13.3776	0.086450	0.811506	-0.317075	-0.318417	-0.026826	30.5302	-0.316416	-8238.38	3.256247E-6	NaN
508	1.000000	0.822849	7.37002e+06	-51689.1	1005.82	-29751.5	0.000000	0.000000	6.823065	0.026151	NaN	0.000000	0.001638	0.001724	28.0797	0.040962	0.002073	19.7557	-175.089	-166.753	-0.012863	0.821498	-0.307074	-0.308425	0.026151	19.7557	-0.308067	-6200.52	-4.217515E-6	NaN
508	1.000000	0.832841	7.37002e+06	-51689.1	1005.82	-29751.5	0.000000	0.000000	6.833057	0.040191	NaN	0.000000	0.001621	0.001716	28.0797	0.077341	0.002072	37.3256	-155.869	13.4441	0.029871	0.831497	-0.297082	-0.298426	0.040191	37.3256	-0.297889	-4377.18	-9.181857E-6	NaN
508	1.000000	0.842873	7.37002e+06	-51689.1	1005.82	-29751.5	0.000000	0.000000	6.843085	-0.052246	NaN	0.000000	0.001662	0.001712	28.0798	0.075730	0.001935	39.136	74.9499	-166.818	-0.024758	0.841589	-0.287050	-0.288334	-0.052246	39.136	-0.286049	-2910.92	1.794840E-5	NaN
508	1.000000	0.852866	7.37002e+06	-51689.1	1005.82	-29751.5	0.000000	0.000000	6.853080	-0.008298	NaN	0.000000	0.001710	0.001692	28.0795	0.149729	0.001990	75.2266	86.5497	13.7104	0.002696	0.851527	-0.277057	-0.278396	-0.008298	75.2266	-0.276974	-2124.57	3.905510E-6	NaN
508	1.000000	0.862875	7.37002e+06	-51689.1	1005.82	-29751.5	0.000000	0.000000	6.863086	-0.088672	NaN	0.000000	0.001731	0.001714	28.0797	0.021497	0.001985	10.8311	37.5797	-167.47	-0.075744	0.861594	-0.267048	-0.268329	-0.088672	10.8311	-0.260908	-1210.12	7.327531E-5	NaN
508	1.000000	0.872868	7.37002e+06	-51689.1	1005.82	-29751.5	0.000000	0.000000	6.873082	-0.004712	NaN	0.000000	0.001725	0.001704	28.0794	0.059470	0.001904	31.2413	174.334	15.7091	0.004716	0.871530	-0.257055	-0.258393	-0.004712	31.2413	-0.256942	-1051.91	4.479599E-6	NaN
508	1.000000	0.882876	7.37002e+06	-51689.1	1005.82	-29751.5	0.000000	0.000000	6.883089	-0.021953	NaN	0.000000	0.001736	0.001676	28.0795	0.021143	0.002004	10.5514	-101.755	-165.911	0.001947	0.881559	-0.247047	-0.248364	-0.021953	10.5514	-0.245487	-699.869	3.136680E-5	NaN
508	1.000000	0.892885	7.37002e+06	-51689.1	1005.82	-29751.5	0.000000	0.000000	6.893101	0.038949	NaN	0.000000	0.001725	0.001667	28.0795	0.017305	0.001887	9.173009	127.335	13.6661	-0.014768	0.891475	-0.237038	-0.238448	0.038949	9.173009	-0.240223	-579.472	-6.721487E-5	NaN
508	1.000000	0.902920	7.37002e+06	-51689.1	1005.82	-29751.5	0.000000	0.000000	6.903135	0.010298	NaN	0.000000	0.001710	0.001697	28.0797	0.069787	0.001947	35.8502	-160.015	-166.511	0.054506	0.901613	-0.227003	-0.228310	0.010298	35.8502	-0.227218	-361.846	-2.845959E-5	NaN
508	1.000000	0.912904	7.37002e+06	-51689.1	1005.82	-29751.5	0.000000	0.000000	6.913121	0.077981	NaN	0.000000	0.001727	0.001680	28.0795	0.097443	0.002117	46.0275	-27.4485	15.3755	0.050330	0.911536	-0.217019	-0.218387	0.077981	46.0275	-0.218290	-260.805	-0.000299	NaN
508	1.000000	0.922887	7.37002e+06	-51689.1	1005.82	-29751.5	0.000000	0.000000	6.923103	0.034507	NaN	0.000000	0.001689	0.001675	28.0807	0.112929	0.002031	55.6148	-8.954115	-165.368	0.098865	0.921660	-0.207036	-0.208263	0.034507	55.6148	-0.207501	-174.697	-0.000198	NaN
508	1.000000	0.932887	7.37003e+06	-51689.1	1005.82	-29751.5	0.000000	0.000000	6.933100	-0.025383	NaN	0.000000	0.001703	0.001693	28.0806	0.077077	0.001962	39.2902	171.596	13.6573	-0.066002	0.931579	-0.197036	-0.198344	-0.025383	39.2902	-0.196552	-115.578	0.000220	NaN
508	1.000000	0.942915	7.37003e+06	-51689.1	1005.82	-29751.5	0.000000	0.000000	6.943127	-0.057801	NaN	0.000000	0.001728	0.001655	28.081	0.066190	0.002117	31.2693	-7.173079	-165.725	-0.014301	0.941606	-0.187008	-0.188318	-0.057801	31.2693	-0.185622	-75.9635	0.000761	NaN
508	1.000000	0.952926	7.37003e+06	-51689.1	1005.82	-29751.5	0.000000	0.000000	6.953139	-0.018598	NaN	0.000000	0.001662	0.001691	28.0805	0.030118	0.002082	14.4685	84.9963	13.5901	-0.023010	0.951544	-0.176997	-0.178379	-0.018598	14.4685	-0.176033	-52.2053	0.000356	NaN
508	1.000000	0.962906	7.37003e+06	-51689.1	1005.82	-29751.5	0.000000	0.000000	6.963121	0.031949	NaN	0.000000	0.001660	0.001699	28.0809	0.023188	0.002145	10.8122	59.4491	-165.922	-0.023316	0.961606	-0.167017	-0.168317	0.031949	10.8122	-0.169234	-39.8375	-0.000802	NaN
508	1.000000	0.972927	7.37003e+06	-51689.1	1005.82	-29751.5	0.000000	0.000000	6.973141	-0.014216	NaN	0.000000	0.001632	0.001698	28.0813	0.072127	0.001963	36.7433	-59.9135	14.1265	-0.065504	0.971553	-0.156996	-0.158370	-0.014216	36.7433	-0.156705	-23.9444	0.000594	NaN
508	1.000000	0.982940	7.37003e+06	-51689.1	1005.82	-29751.5	0.000000	0.000000	6.983152	-0.059793	NaN	0.000000	0.001658	0.001721	28.0812	0.138306	0.002058	67.1991	58.2161	-167.135	0.018567	0.981590	-0.146983	-0.148333	-0.059793	67.1991	-0.146315	-15.5044	0.003857	NaN
508	1.000000	0.992941	7.37003e+06	-51689.1	1005.82	-29751.5	0.000000	0.000000	6.993156	0.014451	NaN	0.000000	0.001634	0.001732	28.0806	0.073591	0.002130	34.5452	-146.908	15.3844	0.028996	0.991554	-0.136982	-0.138369	0.014451	34.5452	-0.137296	-10.5185	-0.001374	NaN
508	1.000000	1.002891	7.37003e+06	-51689.1	1005.82	-29751.5	0.000000	0.000000	7.003107	0.035467	NaN	0.000000	0.001671	0.001743	28.0809	0.055765	0.002001	27.8657	97.2371	-171.761	0.039453	1.001643	-0.127032	-0.128280	0.035467	27.8657	-0.127986	-6.962323	-0.005094	NaN
508	1.000000	1.012923	7.37003e+06	-51689.1	1005.82	-29751.5	0.000000	0.000000	7.013139	0.050024	NaN	0.000000	0.001658	0.001701	28.0806	0.063882	0.001929	33.1226	16.3997	12.9678	-0.026236	1.011532	-0.117000	-0.118391	0.050024	33.1226	-0.118133	-4.428439	-0.011296	NaN
508	1.000000	1.022951	7.37003e+06	-51689.1	1005.82	-29751.5	0.000000	0.000000	7.023168	0.057311	NaN	0.000000	0.001662	0.001723	28.0808	0.069293	0.001993	34.7635	97.2816	-168.321	-0.050303	1.021614	-0.106972	-0.108309	0.057311	34.7635	-0.108208	-2.753793	-0.020812	NaN
508	1.000000	1.032964	7.37003e+06	-51689.1	1005.82	-29751.5	0.000000	0.000000	7.033179	0.008777	NaN	0.000000	0.001655	0.001737	28.0805	0.069721	0.002055	33.9325	131.086	16.7807	-0.029745	1.031533	-0.096959	-0.098390	0.008777	33.9325	-0.097153	-1.578234	-0.005561	NaN
508	1.000000	1.042940	7.37003e+06	-51689.1	1005.82	-29751.5	0.000000	0.000000	7.043151	-0.093559	NaN	0.000000	0.001651	0.001736	28.0806	0.109755	0.001956	56.1044	-127.295	-169.24	-0.005674	1.041632	-0.086983	-0.088291	-0.093559	56.1044	-0.085732	-0.855758	0.109328	NaN
508	1.000000	1.052957	7.37003e+06	-51689.1	1005.82	-29751.5	0.000000	0.000000	7.053169	-0.054349	NaN	0.000000	0.001694	0.001698	28.0809	0.051731	0.002018	25.6388	84.6755	14.5729	-0.076292	1.051626	-0.076966	-0.078297	-0.054349	25.6388	-0.075376	-0.472314	0.115069	NaN
508	1.000000	1.062969	7.37003e+06	-51689.1	1005.82	-29751.5	0.000000	0.000000	7.063185	0.041500	NaN	0.000000	0.001685	0.001700	28.0793	0.023108	0.002011	11.4938	39.4625	-164.677	0.022943	1.061682	-0.066954	-0.068241	0.041500	11.4938	-0.069662	-0.334067	-0.124226	NaN
508	1.000000	1.072970	7.37003e+06	-51689.1	1005.82	-29751.5	0.000000	0.000000	7.073185	0.016075	NaN	0.000000	0.001673	0.001710	28.0796	0.025739	0.001973	13.0491	131.842	15.464	0.044019	1.071566	-0.056953	-0.058357	0.016075	13.0491	-0.057877	-0.156384	-0.102789	NaN
508	1.000000	1.082974	7.37003e+06	-51689.1	1005.82	-29751.5	0.000000	0.000000	7.083184	-0.089981	NaN	0.000000	0.001675	0.001713	28.0793	0.113472	0.002028	55.9429	108.281	-163.362	-0.082640	1.081667	-0.046949	-0.048256	-0.089981	55.9429	-0.045743	-0.067718	1.328759	NaN
508	1.000000	1.092957	7.37003e+06	-51689.1	1005.82	-29751.5	0.000000	0.000000	7.093172	0.013603	NaN	0.000000	0.001669	0.001715	28.0799	0.061614	0.001957	31.4801	-145.942	13.8704	-0.057308	1.091606	-0.036966	-0.038317	0.013603	31.4801	-0.037290	-0.037457	-0.363172	NaN
508	1.000000	1.102996	7.37003e+06	-51689.1	1005.82	-29751.5	0.000000	0.000000	7.103210	-0.019270	NaN	0.000000	0.001701	0.001722	28.0795	0.109460	0.001920	57.0242	-87.4294	-166.244	-0.038927	1.101661	-0.026927	-0.028262	-0.019270	57.0242	-0.026673	-0.018676	1.031808	NaN
508	1.000000	1.112978	7.37003e+06	-51689.1	1005.82	-29751.5	0.000000	0.000000	7.113192	-0.005590	NaN	0.000000	0.001660	0.001716	28.0795	0.065171	0.001957	33.3007	-132.232	14.1697	-0.034557	1.111582	-0.016945	-0.018341	-0.005590	33.3007	-0.016819	-0.010395	0.537721	NaN
508	1.000000	1.122960	7.37003e+06	-51689.1	1005.82	-29751.5	0.000000	0.000000	7.123174	-0.011907	NaN	0.000000	0.001634	0.001724	28.0795	0.134696	0.002093	64.3659	-104.876	-170.464	-0.070284	1.121674	-0.006963	-0.008249	-0.011907	64.3659	-0.006824	-0.004535	2.625459	NaN
508	1.000000	1.132943	7.37003e+06	-51689.1	1005.82	-29751.5	0.000000	0.000000	7.133422	6.443320	NaN	0.000000	0.001670	0.001706	28.0801	7.144052	0.001917	3727.23	13.6093	8.338647	4.902871	1.131609	0.003020	0.001686	6.443320	3727.23	0.001724	0.001332	4835.63	93289.1
508	2.000000	1.136602	7.37003e+06	-51689.1	1005.82	-29751.5	0.000000	0.000000	7.137263	10.8537	NaN	0.000000	0.001671	0.001712	28.0796	10.9077	0.001579	6907.44	13.1274	179.14	10.3399	1.136335	0.006679	0.006412	10.8537	6907.44	0.005501	0.004595	2362.18	93101.8
508	2.000000	1.139093	7.37003e+06	-51689.1	1005.82	-29751.5	0.000000	0.000000	7.139942	15.4191	NaN	0.000000	0.001703	0.001705	28.0795	13.8861	0.001730	8028.02	7.491313	3.240570	14.5043	1.138776	0.009170	0.008853	15.4191	8028.02	0.007730	0.006766	2278.96	89170.3
508	2.000000	1.141551	7.37003e+06	-51689.1	1005.82	-29751.5	0.000000	0.000000	7.142515	18.2362	NaN	0.000000	0.001672	0.001674	28.0795	16.6232	0.001783	9322.54	5.724722	-174.774	17.3296	1.141298	0.011628	0.011375	18.2362	9322.54	0.010160	0.009360	1948.24	88036.3
508	2.000000	1.144068	7.37003e+06	-51689.1	1005.82	-29751.5	0.000000	0.000000	7.145316	25.1441	NaN	0.000000	0.001675	0.001703	28.08	19.2221	0.001817	10579.8	9.232973	0.327297	24.1417	1.143711	0.014145	0.013788	25.1441	10579.8	0.012363	0.011927	2108.12	88507.7
508	2.000000	1.146551	7.37003e+06	-51689.1	1005.82	-29751.5	0.000000	0.000000	7.147970	29.2961	NaN	0.000000	0.001668	0.001677	28.0796	21.3179	0.001812	11767.5	8.718743	179.635	28.3727	1.146191	0.016628	0.016268	29.2961	11767.5	0.014761	0.014968	1957.22	87876.3
508	2.000000	1.149055	7.37003e+06	-51689.1	1005.82	-29751.5	0.000000	0.000000	7.150736	35.6555	NaN	0.000000	0.001679	0.001710	28.0807	24.1315	0.001824	13228.5	4.743152	2.364863	33.8863	1.148718	0.019132	0.018795	35.6555	13228.5	0.017111	0.018204	1958.65	89577.5
508	2.000000	1.151506	7.37003e+06	-51689.1	1005.82	-29751.5	0.000000	0.000000	7.153397	40.7487	NaN	0.000000	0.001703	0.001673	28.0811	25.8595	0.001832	14115.3	3.243420	-176.323	38.7274	1.151191	0.021583	0.021268	40.7487	14115.3	0.019418	0.021636	1883.34	87673.7
508	2.000000	1.154079	7.37003e+06	-51689.1	1005.82	-29751.5	0.000000	0.000000	7.156178	45.8312	NaN	0.000000	0.001689	0.001688	28.0815	28.3364	0.001822	15550.9	7.241547	-0.580029	45.8555	1.153694	0.024156	0.023771	45.8312	15550.9	0.021946	0.025693	1783.81	88638.4
508	2.000000	1.156545	7.37003e+06	-51689.1	1005.82	-29751.5	0.000000	0.000000	7.158920	52.5458	NaN	0.000000	0.001643	0.001694	28.0809	29.9784	0.001815	16518.8	2.095028	-176.847	51.9022	1.156213	0.026622	0.026290	52.5458	16518.8	0.024236	0.029640	1772.78	87661.7
508	2.000000	1.159008	7.37003e+06	-51689.1	1005.82	-29751.5	0.000000	0.000000	7.161764	61.8082	NaN	0.000000	0.001682	0.001705	28.081	31.6398	0.001725	18343.1	2.824841	1.487931	59.8162	1.158580	0.029085	0.028657	61.8082	18343.1	0.026558	0.033911	1822.65	91007
508	2.000000	1.161520	7.37003e+06	-51689.1	1005.82	-29751.5	0.000000	0.000000	7.164581	69.2208	NaN	0.000000	0.001681	0.001698	28.0809	34.9896	0.001696	20629.5	5.589234	177.674	68.0239	1.161284	0.031597	0.031361	69.2208	20629.5	0.029080	0.038859	1781.35	95613.1
508	2.000000	1.163994	7.37003e+06	-51689.1	1005.82	-29751.5	0.000000	0.000000	7.167626	83.1106	NaN	0.000000	0.001682	0.001678	28.0811	37.3591	0.001838	20322.4	5.507491	-0.638562	79.9156	1.163558	0.034071	0.033635	83.1106	20322.4	0.031004	0.042850	1939.58	89696.2
508	2.000000	1.166512	7.37003e+06	-51689.1	1005.82	-29751.5	0.000000	0.000000	7.170313	87.2105	NaN	0.000000	0.001692	0.001658	28.0808	39.9163	0.001749	22817.9	4.128051	178.223	86.8928	1.166159	0.036589	0.036236	87.2105	22817.9	0.033722	0.048812	1786.65	94359.1
508	2.000000	1.168966	7.37003e+06	-51689.1	1005.82	-29751.5	0.000000	0.000000	7.173262	99.242	NaN	0.000000	0.001703	0.001681	28.0808	42.1502	0.001894	22248.8	2.341745	1.394610	97.4571	1.168740	0.039043	0.038817	99.242	22248.8	0.035698	0.053383	1859.04	87978.6
508	2.000000	1.171513	7.37003e+06	-51689.1	1005.82	-29751.5	0.000000	0.000000	7.176332	111.95	NaN	0.000000	0.001726	0.001674	28.0807	44.7795	0.001833	24435.9	4.588831	177.301	111.467	1.171157	0.041590	0.041234	111.95	24435.9	0.038154	0.059345	1886.42	91644.8
508	2.000000	1.173999	7.37003e+06	-51689.1	1005.82	-29751.5	0.000000	0.000000	7.179318	124.128	NaN	0.000000	0.001690	0.001706	28.0806	46.9195	0.001749	26826.1	7.953169	-5.692738	122.776	1.173562	0.044076	0.043639	124.128	26826.1	0.040606	0.065603	1892.11	95690.2
508	2.000000	1.176481	7.37003e+06	-51689.1	1005.82	-29751.5	0.000000	0.000000	7.182205	133.964	NaN	0.000000	0.001720	0.001688	28.0807	48.3885	0.001813	26690.9	3.160233	178.719	132.393	1.176234	0.046558	0.046311	133.964	26690.9	0.042794	0.071447	1875	91231
508	2.000000	1.178953	7.37003e+06	-51689.1	1005.82	-29751.5	0.000000	0.000000	7.185253	147.965	NaN	0.000000	0.001688	0.001672	28.0809	51.3386	0.001791	28671.8	1.962568	-1.366656	144.178	1.178578	0.049030	0.048655	147.965	28671.8	0.045160	0.078042	1895.97	93770.1
508	2.000000	1.181502	7.37003e+06	-51689.1	1005.82	-29751.5	0.000000	0.000000	7.188179	157.146	NaN	0.000000	0.001670	0.001696	28.081	54.1468	0.001809	29938.6	0.358370	-179.972	155.988	1.181124	0.051579	0.051201	157.146	29938.6	0.047642	0.085265	1843.04	93674.1
508	2.000000	1.184022	7.37003e+06	-51689.1	1005.82	-29751.5	0.000000	0.000000	7.191226	169.953	NaN	0.000000	0.001670	0.001702	28.0796	56.5816	0.001814	31198.5	6.711824	-5.927474	168.937	1.183544	0.054099	0.053621	169.953	31198.5	0.050014	0.092456	1838.2	93743.2
508	2.000000	1.186430	7.37003e+06	-51689.1	1005.82	-29751.5	0.000000	0.000000	7.194230	184.462	NaN	0.000000	0.001715	0.001714	28.0795	57.8183	0.001794	32223	1.765740	177.997	181.592	1.186139	0.056507	0.056216	184.462	32223	0.052214	0.099378	1856.16	93388.6
508	2.000000	1.188988	7.37003e+06	-51689.1	1005.82	-29751.5	0.000000	0.000000	7.197113	192.36	NaN	0.000000	0.001693	0.001725	28.0798	61.6956	0.001832	33676.9	3.149988	-3.978323	191.017	1.188598	0.059065	0.058675	192.36	33676.9	0.054781	0.107761	1785.07	93729.2
508	2.000000	1.191489	7.37003e+06	-51689.1	1005.82	-29751.5	0.000000	0.000000	7.200449	212.655	NaN	0.000000	0.001684	0.001691	28.0796	63.8088	0.001850	34482.8	4.388819	175.456	214.436	1.191185	0.061566	0.061262	212.655	34482.8	0.056941	0.115068	1848.08	92875.1
508	2.000000	1.193989	7.37003e+06	-51689.1	1005.82	-29751.5	0.000000	0.000000	7.203263	220.314	NaN	0.000000	0.001712	0.001701	28.0796	65.6409	0.001875	35011.1	6.012538	-5.765841	219.322	1.193511	0.064066	0.063588	220.314	35011.1	0.059346	0.123474	1784.3	91031.4
508	2.000000	1.196444	7.37003e+06	-51689.1	1005.82	-29751.5	0.000000	0.000000	7.206618	242.172	NaN	0.000000	0.001702	0.001721	28.0796	67.605	0.001782	37948.3	6.692591	172.366	240.067	1.196114	0.066521	0.066191	242.172	37948.3	0.061735	0.132103	1833.21	95391.4
508	2.000000	1.198941	7.37003e+06	-51689.1	1005.82	-29751.5	0.000000	0.000000	7.209584	253.581	NaN	0.000000	0.001734	0.001699	28.08	69.6372	0.001785	39016.3	3.707007	-4.695983	251.456	1.198625	0.069018	0.068702	253.581	39016.3	0.064143	0.141084	1797.37	94903.1
508	2.000000	1.201402	7.37003e+06	-51689.1	1005.82	-29751.5	0.000000	0.000000	7.212669	268.74	NaN	0.000000	0.001689	0.001729	28.0792	72.3546	0.001852	39062.8	2.787416	175.267	264.408	1.201183	0.071479	0.071260	268.74	39062.8	0.066320	0.149439	1798.32	92321.8
508	2.000000	1.203955	7.37003e+06	-51689.1	1005.82	-29751.5	0.000000	0.000000	7.215783	282.405	NaN	0.000000	0.001698	0.001708	28.0798	74.4851	0.001830	40713.1	5.658073	-7.417750	279.854	1.203676	0.074032	0.073753	282.405	40713.1	0.068829	0.159359	1772.13	93179.2
508	2.000000	1.206441	7.37003e+06	-51689.1	1005.82	-29751.5	0.000000	0.000000	7.219104	302.702	NaN	0.000000	0.001685	0.001723	28.0798	76.1206	0.001793	42460.9	6.749075	171.213	302.34	1.206133	0.076518	0.076210	302.702	42460.9	0.071171	0.168886	1792.35	94398.6
508	2.000000	1.209024	7.37003e+06	-51689.1	1005.82	-29751.5	0.000000	0.000000	7.222198	315.144	NaN	0.000000	0.001683	0.001703	28.0798	79.4966	0.001786	44506.4	9.749345	-11.5692	317.836	1.208444	0.079101	0.078521	315.144	44506.4	0.073790	0.179846	1752.3	95883.9
508	2.000000	1.211500	7.37003e+06	-51689.1	1005.82	-29751.5	0.000000	0.000000	7.225081	325.015	NaN	0.000000	0.001729	0.001724	28.0796	81.3422	0.001705	47719.6	2.836329	174.163	325.997	1.211233	0.081577	0.081310	325.015	47719.6	0.076469	0.191393	1698.16	99656.7
508	2.000000	1.213975	7.37003e+06	-51689.1	1005.82	-29751.5	0.000000	0.000000	7.228432	346.332	NaN	0.000000	0.001736	0.001721	28.0795	83.1745	0.001791	46435.5	3.603326	-6.337727	344.67	1.213596	0.084052	0.083673	346.332	46435.5	0.078458	0.200186	1730.05	94821.5
508	2.000000	1.216341	7.37003e+06	-51689.1	1005.82	-29751.5	0.000000	0.000000	7.231736	369.126	NaN	0.000000	0.001718	0.001759	28.0796	85.0491	0.001765	48178.7	4.570471	172.337	364.45	1.216073	0.086418	0.086150	369.126	48178.7	0.080672	0.210190	1756.15	96011.2
508	2.000000	1.218920	7.37003e+06	-51689.1	1005.82	-29751.5	0.000000	0.000000	7.234967	384.985	NaN	0.000000	0.001768	0.001737	28.081	87.5152	0.001756	49829.4	6.812717	-10.1235	383.481	1.218563	0.088997	0.088640	384.985	49829.4	0.083203	0.221902	1734.93	96644.9
508	2.000000	1.221358	7.37003e+06	-51689.1	1005.82	-29751.5	0.000000	0.000000	7.237705	392.264	NaN	0.000000	0.001739	0.001697	28.0808	90.561	0.001860	48694.2	4.298889	172.407	388.376	1.221127	0.091435	0.091204	392.264	48694.2	0.085394	0.232283	1688.74	92308.5
508	2.000000	1.223890	7.37003e+06	-51689.1	1005.82	-29751.5	0.000000	0.000000	7.241044	411.891	NaN	0.000000	0.001709	0.001698	28.0808	91.9477	0.001750	52529.4	4.409465	-8.289868	407.111	1.223656	0.093967	0.093733	411.891	52529.4	0.088086	0.245344	1678.83	96891.9
508	2.000000	1.226446	7.37003e+06	-51689.1	1005.82	-29751.5	0.000000	0.000000	7.244680	438.161	NaN	0.000000	0.001670	0.001697	28.081	93.8729	0.001684	55732.6	5.102473	170.892	436.973	1.225997	0.096523	0.096074	438.161	55732.6	0.090627	0.257972	1698.49	100253
508	2.000000	1.228899	7.37003e+06	-51689.1	1005.82	-29751.5	0.000000	0.000000	7.247593	449.352	NaN	0.000000	0.001671	0.001726	28.0806	95.6269	0.001722	55536.4	1.598004	-5.853438	442.835	1.228642	0.098976	0.098719	449.352	55536.4	0.092908	0.269564	1666.96	97728.2
508	2.000000	1.231328	7.37003e+06	-51689.1	1005.82	-29751.5	0.000000	0.000000	7.250981	472.664	NaN	0.000000	0.001694	0.001654	28.0808	100.521	0.001869	53786.7	5.201011	171.326	466.611	1.231022	0.101405	0.101099	472.664	53786.7	0.094814	0.279432	1691.52	92963
508	2.000000	1.232907	7.37003e+06	-51689.1	1005.82	-29751.5	0.000000	0.000000	7.252905	481.059	NaN	0.000000	0.001670	0.001703	28.0808	100.558	0.001752	57410.5	5.810371	-10.2787	476.455	1.232589	0.102984	0.102666	481.059	57410.5	0.096700	0.289357	1662.51	97509.6