File: remote_trans/data/nanoindenter/0828-1/data/Data_2025-08-06,11h17m57s/2025-07-22_16-23-58_1_783.txt
2025-07-22, 16:23:58, 1
Index	Phase	Displacement	Time	Pos X	Pos Y	Pos Z	Rot A	Rot B	Piezo Z	Force A	Force B	Gripper	Voltage A	Voltage B	Temperature	Amplitude force	Amplitude pos	Stiffness	Phase shift	Phase excitation	Force A raw	Displacement raw	HMax	HMax raw	Real Force	Real Stiffness	Contact Depth	Area	Hardness	Reduced Mod.
[#]	[#]	[um]	[s]	[um]	[um]	[um]	[m°]	[m°]	[um]	[uN]	[uN]	[V]	[V]	[V]	[°C]	[uN]	[um]	[N/m]	[°]	[°]	[uN]	[um]	[um]	[um]	[uN]	[N/m]	[um]	[um^2]	[MPa]	[MPa]
783	1.000000	0.002538	7.37271e+06	-39289.1	1055.82	-29794.3	0.000000	0.000000	6.002819	-0.006270	NaN	0.000000	0.001737	0.001672	28.0838	0.086425	0.000925	93.4074	-33.492	-168.166	-0.017909	0.001228	-1.092611	-1.093920	-0.006270	93.4074	-1.092561	-3.982829E+14	1.574239E-17	NaN
783	1.000000	0.012586	7.37271e+06	-39289.1	1055.82	-29794.3	0.000000	0.000000	6.012868	0.018784	NaN	0.000000	0.001734	0.001646	28.0828	0.081477	0.001297	62.8175	164.402	16.3055	0.078559	0.011127	-1.082562	-1.084021	0.018784	62.8175	-1.082786	-2.944022E+14	-6.380261E-17	NaN
783	1.000000	0.022471	7.37271e+06	-39289.1	1055.82	-29794.3	0.000000	0.000000	6.022754	0.041243	NaN	0.000000	0.001726	0.001651	28.0827	0.032329	0.001701	19.0092	-61.6959	-163.013	0.073957	0.021148	-1.072678	-1.074000	0.041243	19.0092	-1.074305	-2.264754E+14	-1.821064E-16	NaN
783	1.000000	0.032480	7.37271e+06	-39289.1	1055.82	-29794.3	0.000000	0.000000	6.032763	0.036492	NaN	0.000000	0.001674	0.001634	28.083	0.068359	0.002024	33.7727	138.455	14.1882	-0.071764	0.031133	-1.062669	-1.064015	0.036492	33.7727	-1.063479	-1.620214E+14	-2.252274E-16	NaN
783	1.000000	0.042466	7.37271e+06	-39289.1	1055.82	-29794.3	0.000000	0.000000	6.042749	0.031466	NaN	0.000000	0.001662	0.001645	28.0826	0.076077	0.002013	37.7961	88.8845	-165.871	0.083174	0.041211	-1.052682	-1.053938	0.031466	37.7961	-1.053307	-1.182669E+14	-2.660572E-16	NaN
783	1.000000	0.052470	7.37271e+06	-39289.1	1055.82	-29794.3	0.000000	0.000000	6.052750	-0.027258	NaN	0.000000	0.001648	0.001650	28.083	0.010985	0.002004	5.481835	177.448	14.3767	-0.053981	0.051095	-1.042679	-1.044053	-0.027258	5.481835	-1.038949	-7.582983E+13	3.594563E-16	NaN
783	1.000000	0.062465	7.37271e+06	-39289.1	1055.82	-29794.3	0.000000	0.000000	6.062749	0.058176	NaN	0.000000	0.001609	0.001642	28.083	0.055765	0.001950	28.5978	98.7704	-165.429	0.152255	0.061124	-1.032683	-1.034024	0.058176	28.5978	-1.034209	-6.547666E+13	-8.884927E-16	NaN
783	1.000000	0.072518	7.37271e+06	-39289.1	1055.82	-29794.3	0.000000	0.000000	6.072797	-0.065193	NaN	0.000000	0.001640	0.001628	28.0829	0.071196	0.001975	36.0444	95.6597	16.4133	-0.014561	0.071127	-1.022630	-1.024021	-0.065193	36.0444	-1.021274	-4.386193E+13	1.486321E-15	NaN
783	1.000000	0.082500	7.37271e+06	-39289.1	1055.82	-29794.3	0.000000	0.000000	6.082783	0.055828	NaN	0.000000	0.001632	0.001638	28.0824	0.066947	0.001972	33.9437	-174.693	-165.17	-0.027072	0.081146	-1.012649	-1.014002	0.055828	33.9437	-1.013882	-3.488419E+13	-1.600367E-15	NaN
783	1.000000	0.092459	7.37271e+06	-39289.1	1055.82	-29794.3	0.000000	0.000000	6.092739	-0.030108	NaN	0.000000	0.001623	0.001702	28.0829	0.102949	0.002008	51.2751	7.068641	19.4343	-0.025136	0.091132	-1.002689	-1.004017	-0.030108	51.2751	-1.002249	-2.432438E+13	1.237754E-15	NaN
783	1.000000	0.102474	7.37271e+06	-39289.1	1055.82	-29794.3	0.000000	0.000000	6.102756	0.006452	NaN	0.000000	0.001594	0.001651	28.0827	0.067523	0.002015	33.5177	31.6151	-162.559	-0.006186	0.101136	-0.992674	-0.994012	0.006452	33.5177	-0.992819	-1.815808E+13	-3.553039E-16	NaN
783	1.000000	0.112489	7.37271e+06	-39289.1	1055.82	-29794.3	0.000000	0.000000	6.112771	0.026901	NaN	0.000000	0.001620	0.001650	28.0829	0.041074	0.001816	22.6175	135.092	15.5465	-0.026158	0.111083	-0.982660	-0.984066	0.026901	22.6175	-0.983552	-1.362255E+13	-1.974717E-15	NaN
783	1.000000	0.122506	7.37271e+06	-39289.1	1055.82	-29794.3	0.000000	0.000000	6.122788	0.003238	NaN	0.000000	0.001630	0.001623	28.0824	0.082737	0.001938	42.6843	-15.5394	-166.058	-0.064603	0.121166	-0.972642	-0.973982	0.003238	42.6843	-0.972699	-9.728339E+12	-3.328285E-16	NaN
783	1.000000	0.132493	7.37271e+06	-39289.1	1055.82	-29794.3	0.000000	0.000000	6.132775	0.028354	NaN	0.000000	0.001666	0.001704	28.0826	0.061305	0.002090	29.326	132.072	16.703	0.084442	0.131168	-0.962656	-0.963980	0.028354	29.326	-0.963381	-7.285290E+12	-3.891911E-15	NaN
783	1.000000	0.142501	7.37271e+06	-39289.1	1055.82	-29794.3	0.000000	0.000000	6.142782	-0.001604	NaN	0.000000	0.001636	0.001652	28.0824	0.083025	0.002070	40.1076	-144.011	-170.138	0.016719	0.141227	-0.952648	-0.953921	-0.001604	40.1076	-0.952618	-5.215891E+12	3.074620E-16	NaN
783	1.000000	0.152482	7.37271e+06	-39289.1	1055.82	-29794.3	0.000000	0.000000	6.152761	-0.046088	NaN	0.000000	0.001642	0.001680	28.0836	0.090106	0.002105	42.7983	46.1243	14.539	-0.040734	0.151135	-0.942666	-0.944013	-0.046088	42.7983	-0.941859	-3.734336E+12	1.234170E-14	NaN
783	1.000000	0.162506	7.37271e+06	-39289.1	1055.82	-29794.4	0.000000	0.000000	6.162789	0.035422	NaN	0.000000	0.001621	0.001659	28.0834	0.083810	0.001890	44.3496	139.269	-164.038	0.003986	0.161197	-0.932642	-0.933951	0.035422	44.3496	-0.933241	-2.857194E+12	-1.239741E-14	NaN
783	1.000000	0.172521	7.37271e+06	-39289.1	1055.82	-29794.4	0.000000	0.000000	6.172801	-0.015121	NaN	0.000000	0.001634	0.001661	28.0836	0.091286	0.002024	45.1087	4.625687	18.7727	-0.050288	0.171191	-0.922628	-0.923957	-0.015121	45.1087	-0.922376	-2.038405E+12	7.417832E-15	NaN
783	1.000000	0.182533	7.37271e+06	-39289.1	1055.82	-29794.4	0.000000	0.000000	6.182816	0.040073	NaN	0.000000	0.001617	0.001614	28.0837	0.051966	0.001963	26.4791	-141.783	-164.965	0.069430	0.181225	-0.912616	-0.913923	0.040073	26.4791	-0.913751	-1.558901E+12	-2.570615E-14	NaN
783	1.000000	0.192532	7.37271e+06	-39289.1	1055.82	-29794.4	0.000000	0.000000	6.192814	0.020417	NaN	0.000000	0.001648	0.001625	28.0832	0.066775	0.001996	33.4493	-15.4648	15.6897	-0.069696	0.191141	-0.902616	-0.904007	0.020417	33.4493	-0.903074	-1.118404E+12	-1.825550E-14	NaN
783	1.000000	0.202566	7.37271e+06	-39289.1	1055.82	-29794.4	0.000000	0.000000	6.202852	0.105632	NaN	0.000000	0.001609	0.001630	28.0833	0.068100	0.002011	33.8678	-54.4342	-167.705	0.144343	0.201206	-0.892582	-0.893942	0.105632	33.8678	-0.894921	-8.678257E+11	-1.217200E-13	NaN
783	1.000000	0.212533	7.37271e+06	-39289.1	1055.82	-29794.4	0.000000	0.000000	6.212815	0.008043	NaN	0.000000	0.001601	0.001653	28.0835	0.081685	0.002060	39.6604	-175.643	16.4986	-0.031513	0.211168	-0.882615	-0.883980	0.008043	39.6604	-0.882767	-5.944667E+11	-1.353004E-14	NaN
783	1.000000	0.222538	7.37271e+06	-39289.1	1055.82	-29794.4	0.000000	0.000000	6.222821	0.046169	NaN	0.000000	0.001626	0.001640	28.0837	0.034917	0.002067	16.8913	35.7824	-168.355	-0.012864	0.221235	-0.872610	-0.873913	0.046169	16.8913	-0.874660	-4.618377E+11	-9.996831E-14	NaN
783	1.000000	0.232564	7.37271e+06	-39289.1	1055.82	-29794.4	0.000000	0.000000	6.232847	0.039303	NaN	0.000000	0.001634	0.001637	28.0832	0.073721	0.002094	35.202	0.514867	14.4259	0.035975	0.231188	-0.862584	-0.863960	0.039303	35.202	-0.863422	-3.254094E+11	-1.207797E-13	NaN
783	1.000000	0.242542	7.37271e+06	-39289.1	1055.82	-29794.4	0.000000	0.000000	6.242821	-0.073601	NaN	0.000000	0.001606	0.001646	28.0833	0.071540	0.001951	36.6624	-114.033	-171.499	-0.093200	0.241257	-0.852606	-0.853891	-0.073601	36.6624	-0.851100	-2.216344E+11	3.320843E-13	NaN
783	1.000000	0.252562	7.37271e+06	-39289.1	1055.82	-29794.4	0.000000	0.000000	6.252848	0.114785	NaN	0.000000	0.001632	0.001600	28.0834	0.023776	0.001967	12.0853	5.317656	13.9707	0.078051	0.251183	-0.842587	-0.843966	0.114785	12.0853	-0.849710	-2.122316E+11	-5.408467E-13	NaN
783	1.000000	0.262542	7.37271e+06	-39289.1	1055.82	-29794.4	0.000000	0.000000	6.262826	0.068300	NaN	0.000000	0.001599	0.001653	28.0834	0.080969	0.002010	40.2767	-152.108	-165.208	0.022217	0.261249	-0.832606	-0.833900	0.068300	40.2767	-0.833878	-1.295215E+11	-5.273264E-13	NaN
783	1.000000	0.272571	7.37271e+06	-39289.1	1055.82	-29794.4	0.000000	0.000000	6.272853	0.016454	NaN	0.000000	0.001632	0.001685	28.0833	0.060744	0.002003	30.334	135.389	18.5607	-0.074946	0.271198	-0.822577	-0.823950	0.016454	30.334	-0.822984	-9.218786E+10	-1.784861E-13	NaN
783	1.000000	0.282557	7.37271e+06	-39289.1	1055.82	-29794.4	0.000000	0.000000	6.282838	-0.013464	NaN	0.000000	0.001626	0.001620	28.0833	0.108897	0.001930	56.4107	-98.4705	-165.215	0.054956	0.281239	-0.812591	-0.813910	-0.013464	56.4107	-0.812412	-6.626663E+10	2.031841E-13	NaN
783	1.000000	0.292575	7.37271e+06	-39289.1	1055.82	-29794.4	0.000000	0.000000	6.292858	0.028924	NaN	0.000000	0.001598	0.001619	28.0823	0.022981	0.001805	12.7323	-42.2616	12.0192	0.020058	0.291165	-0.802573	-0.803983	0.028924	12.7323	-0.804277	-5.139385E+10	-5.627825E-13	NaN
783	1.000000	0.302567	7.37271e+06	-39289.1	1055.82	-29794.4	0.000000	0.000000	6.302849	0.018367	NaN	0.000000	0.001613	0.001662	28.0822	0.063717	0.001996	31.9199	103.678	-159.767	-0.038301	0.301221	-0.792582	-0.793928	0.018367	31.9199	-0.793013	-3.614122E+10	-5.082008E-13	NaN
783	1.000000	0.312590	7.37271e+06	-39289.1	1055.82	-29794.4	0.000000	0.000000	6.312870	-0.041866	NaN	0.000000	0.001608	0.001673	28.0822	0.030650	0.001931	15.8742	129.803	16.2017	0.041786	0.311186	-0.782558	-0.783962	-0.041866	15.8742	-0.780580	-2.449702E+10	1.709018E-12	NaN
783	1.000000	0.322582	7.37271e+06	-39289.1	1055.82	-29794.4	0.000000	0.000000	6.322862	-0.029005	NaN	0.000000	0.001615	0.001666	28.0824	0.022087	0.001957	11.2871	-43.0127	-166.697	0.008423	0.321244	-0.772567	-0.773904	-0.029005	11.2871	-0.770640	-1.794743E+10	1.616092E-12	NaN
783	1.000000	0.332575	7.37271e+06	-39289.1	1055.82	-29794.4	0.000000	0.000000	6.332857	0.013775	NaN	0.000000	0.001589	0.001640	28.0821	0.035809	0.001869	19.1567	-141.542	15.226	-0.048903	0.331240	-0.762573	-0.763908	0.013775	19.1567	-0.763112	-1.417878E+10	-9.715564E-13	NaN
783	1.000000	0.342585	7.37271e+06	-39289.1	1055.82	-29794.4	0.000000	0.000000	6.342866	0.006469	NaN	0.000000	0.001611	0.001709	28.0822	0.039950	0.001977	20.2093	83.9219	-166.521	-0.038734	0.341317	-0.752564	-0.753832	0.006469	20.2093	-0.752804	-1.026555E+10	-6.301953E-13	NaN
783	1.000000	0.352587	7.37271e+06	-39289.1	1055.82	-29794.4	0.000000	0.000000	6.352870	0.055058	NaN	0.000000	0.001618	0.001644	28.0822	0.045242	0.001957	23.1204	-112.384	12.5722	0.057493	0.351197	-0.742562	-0.743951	0.055058	23.1204	-0.744348	-7.875316E+9	-6.991148E-12	NaN
783	1.000000	0.362572	7.37271e+06	-39289.1	1055.82	-29794.4	0.000000	0.000000	6.362853	-0.022738	NaN	0.000000	0.001621	0.001704	28.0828	0.103414	0.002006	51.5411	46.6632	-167.367	-0.006209	0.361252	-0.732576	-0.733897	-0.022738	51.5411	-0.732245	-5.387739E+9	4.220301E-12	NaN
783	1.000000	0.372606	7.37271e+06	-39289.1	1055.82	-29794.4	0.000000	0.000000	6.372886	-0.012251	NaN	0.000000	0.001637	0.001652	28.0824	0.047864	0.001943	24.631	29.9679	11.9383	0.041674	0.371267	-0.722543	-0.723881	-0.012251	24.631	-0.722170	-3.926999E+9	3.119687E-12	NaN
783	1.000000	0.382583	7.37271e+06	-39289.1	1055.82	-29794.4	0.000000	0.000000	6.382860	-0.091489	NaN	0.000000	0.001625	0.001671	28.0826	0.028857	0.002055	14.0396	86.0814	-164.209	-0.100554	0.381311	-0.712565	-0.713837	-0.091489	14.0396	-0.707678	-2.490914E+9	3.672892E-11	NaN
783	1.000000	0.392608	7.37271e+06	-39289.1	1055.82	-29794.4	0.000000	0.000000	6.392889	0.002767	NaN	0.000000	0.001657	0.001687	28.0824	0.097382	0.001980	49.1811	-24.0464	13.408	0.056658	0.391260	-0.702541	-0.703889	0.002767	49.1811	-0.702583	-2.122260E+9	-1.303870E-12	NaN
783	1.000000	0.402608	7.37271e+06	-39289.1	1055.82	-29794.4	0.000000	0.000000	6.402891	0.039526	NaN	0.000000	0.001626	0.001658	28.0828	0.067880	0.002031	33.4256	-166.334	-163.298	0.046801	0.401310	-0.692540	-0.693839	0.039526	33.4256	-0.693427	-1.591295E+9	-2.483866E-11	NaN
783	1.000000	0.412642	7.37271e+06	-39289.1	1055.82	-29794.4	0.000000	0.000000	6.412926	0.070126	NaN	0.000000	0.001630	0.001628	28.0823	0.020569	0.002030	10.1322	172.769	13.6023	0.149140	0.411211	-0.682506	-0.683938	0.070126	10.1322	-0.687697	-1.328747E+9	-5.277610E-11	NaN
783	1.000000	0.422616	7.37271e+06	-39289.1	1055.82	-29794.4	0.000000	0.000000	6.422899	0.039847	NaN	0.000000	0.001626	0.001626	28.0835	0.009584	0.001945	4.928130	-54.5741	-164.198	0.042285	0.421333	-0.672533	-0.673815	0.039847	4.928130	-0.678597	-9.977395E+8	-3.993751E-11	NaN
783	1.000000	0.432612	7.37271e+06	-39289.1	1055.82	-29794.4	0.000000	0.000000	6.432893	0.002639	NaN	0.000000	0.001612	0.001660	28.0839	0.029447	0.001979	14.8776	35.0814	13.6668	0.057078	0.431312	-0.662537	-0.663836	0.002639	14.8776	-0.662670	-6.039991E+8	-4.369611E-12	NaN
783	1.000000	0.442623	7.37271e+06	-39289.1	1055.82	-29794.4	0.000000	0.000000	6.442906	0.041768	NaN	0.000000	0.001609	0.001664	28.0837	0.047991	0.002035	23.5815	-114.195	-165.928	0.020661	0.441354	-0.652525	-0.653795	0.041768	23.5815	-0.653854	-4.573609E+8	-9.132406E-11	NaN
783	1.000000	0.452624	7.37271e+06	-39289.1	1055.82	-29794.4	0.000000	0.000000	6.452908	0.071793	NaN	0.000000	0.001606	0.001638	28.0834	0.035410	0.002049	17.2786	148.767	15.6837	-0.047428	0.451221	-0.642525	-0.643927	0.071793	17.2786	-0.645641	-3.529153E+8	-2.034280E-10	NaN
783	1.000000	0.462652	7.37271e+06	-39289.1	1055.82	-29794.4	0.000000	0.000000	6.462934	0.016620	NaN	0.000000	0.001652	0.001659	28.0835	0.068796	0.002013	34.1716	135.497	-163.828	0.007586	0.461381	-0.632496	-0.633768	0.016620	34.1716	-0.632861	-2.356726E+8	-7.052198E-11	NaN
783	1.000000	0.472639	7.37271e+06	-39289.1	1055.82	-29794.4	0.000000	0.000000	6.472918	-0.044469	NaN	0.000000	0.001652	0.001691	28.0834	0.025506	0.002020	12.6239	28.8207	15.0598	0.046214	0.471288	-0.622510	-0.623861	-0.044469	12.6239	-0.619868	-1.562481E+8	2.846052E-10	NaN
783	1.000000	0.482655	7.37271e+06	-39289.1	1055.82	-29794.4	0.000000	0.000000	6.482938	0.037261	NaN	0.000000	0.001624	0.001639	28.0834	0.024045	0.001971	12.1979	-115.1	-161.894	0.032934	0.481339	-0.612493	-0.613810	0.037261	12.1979	-0.614784	-1.330217E+8	-2.801105E-10	NaN
783	1.000000	0.492635	7.37271e+06	-39289.1	1055.82	-29794.4	0.000000	0.000000	6.492916	-0.008100	NaN	0.000000	0.001661	0.001700	28.0833	0.153962	0.002000	76.9674	128.484	16.3299	-0.010453	0.491306	-0.602514	-0.603842	-0.008100	76.9674	-0.602435	-8.994723E+7	9.005369E-11	NaN
783	1.000000	0.502658	7.37271e+06	-39289.1	1055.82	-29794.4	0.000000	0.000000	6.502939	-0.017463	NaN	0.000000	0.001632	0.001663	28.0836	0.083118	0.002019	41.1766	-159.749	-164.627	0.021614	0.501399	-0.592490	-0.593750	-0.017463	41.1766	-0.592172	-6.495467E+7	2.688561E-10	NaN
783	1.000000	0.512672	7.37271e+06	-39289.1	1055.82	-29794.4	0.000000	0.000000	6.512952	-0.033220	NaN	0.000000	0.001646	0.001671	28.0836	0.118897	0.001995	59.5929	159.3	16.4148	-0.027599	0.511315	-0.582477	-0.583834	-0.033220	59.5929	-0.582059	-4.711235E+7	7.051192E-10	NaN
783	1.000000	0.522643	7.37271e+06	-39289.1	1055.82	-29794.4	0.000000	0.000000	6.522926	0.038621	NaN	0.000000	0.001636	0.001692	28.0835	0.040408	0.002036	19.8496	78.4863	-166.051	0.052678	0.521322	-0.572506	-0.573827	0.038621	19.8496	-0.573965	-3.642541E+7	-1.060285E-9	NaN
783	1.000000	0.532680	7.37271e+06	-39289.1	1055.82	-29794.4	0.000000	0.000000	6.532960	-0.041079	NaN	0.000000	0.001656	0.001669	28.0837	0.102540	0.001973	51.969	1.119552	11.5967	0.043858	0.531314	-0.562468	-0.563835	-0.041079	51.969	-0.561875	-2.479225E+7	1.656922E-9	NaN
783	1.000000	0.542673	7.37271e+06	-39289.1	1055.82	-29794.4	0.000000	0.000000	6.542952	-0.054023	NaN	0.000000	0.001653	0.001644	28.084	0.072949	0.002160	33.7665	100.297	-167.575	0.003219	0.541388	-0.552475	-0.553760	-0.054023	33.7665	-0.551275	-1.768547E+7	3.054636E-9	NaN
783	1.000000	0.552696	7.37271e+06	-39289.1	1055.82	-29794.4	0.000000	0.000000	6.552978	0.015388	NaN	0.000000	0.001669	0.001682	28.0837	0.052994	0.002046	25.9056	-126.133	15.0865	-0.071013	0.551329	-0.542452	-0.543820	0.015388	25.9056	-0.542898	-1.353753E+7	-1.136693E-9	NaN
783	1.000000	0.562672	7.37271e+06	-39289.1	1055.82	-29794.4	0.000000	0.000000	6.562957	0.089522	NaN	0.000000	0.001691	0.001730	28.0824	0.070482	0.001928	36.5496	166.336	-165.703	0.015806	0.561410	-0.532476	-0.533739	0.089522	36.5496	-0.534313	-1.029110E+7	-8.699018E-9	NaN
783	1.000000	0.572729	7.37271e+06	-39289.1	1055.82	-29794.4	0.000000	0.000000	6.573012	0.039763	NaN	0.000000	0.001657	0.001713	28.0826	0.053181	0.001965	27.0578	-90.0571	15.22	0.059333	0.571324	-0.522419	-0.523824	0.039763	27.0578	-0.523522	-7.28721e+06	-5.456559E-9	NaN
783	1.000000	0.582694	7.37271e+06	-39289.1	1055.82	-29794.4	0.000000	0.000000	6.582975	0.002856	NaN	0.000000	0.001666	0.001741	28.0828	0.025586	0.001935	13.2238	-168.148	-167.922	-0.006545	0.581347	-0.512455	-0.513801	0.002856	13.2238	-0.512617	-5.13872e+06	-5.557597E-10	NaN
783	1.000000	0.592718	7.37271e+06	-39289.1	1055.82	-29794.4	0.000000	0.000000	6.592998	-0.016064	NaN	0.000000	0.001662	0.001727	28.0827	0.071265	0.001916	37.1897	67.4641	15.3723	-0.114210	0.591331	-0.502431	-0.503818	-0.016064	37.1897	-0.502107	-3.66779e+06	4.379735E-9	NaN
783	1.000000	0.602666	7.37271e+06	-39289.1	1055.82	-29794.4	0.000000	0.000000	6.602947	-0.000887	NaN	0.000000	0.001630	0.001714	28.0826	0.016544	0.001994	8.295687	83.5605	-164.148	-0.085942	0.601375	-0.492483	-0.493773	-0.000887	8.295687	-0.492403	-2.6851e+06	3.301953E-10	NaN
783	1.000000	0.612710	7.37271e+06	-39289.1	1055.82	-29794.4	0.000000	0.000000	6.612990	-0.014601	NaN	0.000000	0.001636	0.001743	28.083	0.159930	0.002010	79.5482	-71.7343	15.846	-0.030948	0.611356	-0.482439	-0.483793	-0.014601	79.5482	-0.482301	-1.9397e+06	7.527370E-9	NaN
783	1.000000	0.622731	7.37271e+06	-39289.1	1055.82	-29794.4	0.000000	0.000000	6.623013	0.019055	NaN	0.000000	0.001633	0.001741	28.0824	0.012771	0.002069	6.171912	19.8199	-167.524	-0.000225	0.621407	-0.472418	-0.473742	0.019055	6.171912	-0.474733	-1.5197e+06	-1.253845E-8	NaN
783	1.000000	0.632740	7.37271e+06	-39289.1	1055.82	-29794.4	0.000000	0.000000	6.633023	0.022366	NaN	0.000000	0.001643	0.001732	28.0828	0.094723	0.001972	48.0278	88.2949	17.6895	-0.091250	0.631374	-0.462408	-0.463775	0.022366	48.0278	-0.462757	-1.03218e+06	-2.166890E-8	NaN
783	1.000000	0.642703	7.37271e+06	-39289.1	1055.82	-29794.4	0.000000	0.000000	6.642986	0.041101	NaN	0.000000	0.001659	0.001675	28.0826	0.063200	0.002117	29.8527	83.6445	-165.181	0.016185	0.641400	-0.452446	-0.453749	0.041101	29.8527	-0.453478	-764380	-5.376983E-8	NaN
783	1.000000	0.652730	7.37271e+06	-39289.1	1055.82	-29794.4	0.000000	0.000000	6.653013	0.043658	NaN	0.000000	0.001657	0.001730	28.0833	0.048153	0.002075	23.2031	40.43	17.4551	0.103701	0.651354	-0.442418	-0.443794	0.043658	23.2031	-0.443829	-558965	-7.810427E-8	NaN
783	1.000000	0.662731	7.37271e+06	-39289.1	1055.82	-29794.4	0.000000	0.000000	6.663012	0.011578	NaN	0.000000	0.001642	0.001739	28.0826	0.142337	0.002074	68.6196	-13.6992	-165.534	0.004084	0.661400	-0.432418	-0.433748	0.011578	68.6196	-0.432544	-387298	-2.989391E-8	NaN
783	1.000000	0.672735	7.37271e+06	-39289.1	1055.82	-29794.4	0.000000	0.000000	6.673014	-0.062699	NaN	0.000000	0.001632	0.001729	28.0828	0.083439	0.002029	41.114	-11.4439	13.5588	-0.030671	0.671393	-0.422413	-0.423756	-0.062699	41.114	-0.421269	-268174	2.337990E-7	NaN
783	1.000000	0.682737	7.37271e+06	-39289.1	1055.82	-29794.4	0.000000	0.000000	6.683019	0.027055	NaN	0.000000	0.001660	0.001714	28.0827	0.028032	0.002000	14.0143	52.4569	-165.224	0.025732	0.681431	-0.412411	-0.413717	0.027055	14.0143	-0.413859	-210500	-1.285252E-7	NaN
783	1.000000	0.692746	7.37271e+06	-39289.1	1055.82	-29794.4	0.000000	0.000000	6.693032	0.102770	NaN	0.000000	0.001672	0.001711	28.0831	0.030962	0.001946	15.9071	-77.4242	16.5305	0.177238	0.691396	-0.402402	-0.403753	0.102770	15.9071	-0.407248	-169530	-6.062083E-7	NaN
783	1.000000	0.702737	7.37271e+06	-39289.1	1055.82	-29794.4	0.000000	0.000000	6.703017	-0.021534	NaN	0.000000	0.001681	0.001760	28.0839	0.137532	0.001852	74.2518	73.9622	-167.694	-0.024037	0.701332	-0.392412	-0.393816	-0.021534	74.2518	-0.392194	-103405	2.082472E-7	NaN
783	1.000000	0.712757	7.37271e+06	-39289.1	1055.82	-29794.4	0.000000	0.000000	6.713037	-0.029014	NaN	0.000000	0.001674	0.001725	28.0839	0.056411	0.002055	27.4462	-160.744	12.1784	-0.020375	0.711398	-0.382391	-0.383751	-0.029014	27.4462	-0.381598	-72915.4	3.979096E-7	NaN
783	1.000000	0.722746	7.37271e+06	-39289.1	1055.82	-29794.4	0.000000	0.000000	6.723027	-0.001268	NaN	0.000000	0.001677	0.001745	28.084	0.053635	0.001974	27.1752	-16.4859	-166.523	0.003715	0.721402	-0.372402	-0.373746	-0.001268	27.1752	-0.372367	-53728.6	2.359894E-8	NaN
783	1.000000	0.732767	7.37271e+06	-39289.1	1055.82	-29794.4	0.000000	0.000000	6.733046	-0.043412	NaN	0.000000	0.001676	0.001765	28.0839	0.034647	0.001996	17.3542	-105.022	17.8881	-0.064057	0.731354	-0.362382	-0.363794	-0.043412	17.3542	-0.360506	-36237.1	1.198002E-6	NaN
783	1.000000	0.742760	7.37271e+06	-39289.1	1055.82	-29794.4	0.000000	0.000000	6.743041	-0.018297	NaN	0.000000	0.001650	0.001719	28.0836	0.086321	0.002046	42.1876	-64.8823	-166.456	0.034523	0.741455	-0.352388	-0.353694	-0.018297	42.1876	-0.352063	-27348.3	6.690450E-7	NaN
783	1.000000	0.752783	7.37271e+06	-39289.1	1055.82	-29794.4	0.000000	0.000000	6.753065	0.012646	NaN	0.000000	0.001641	0.001717	28.0837	0.027863	0.001973	14.124	163.465	16.2211	0.002895	0.751352	-0.342365	-0.343796	0.012646	14.124	-0.343037	-20220.5	-6.253954E-7	NaN
783	1.000000	0.762776	7.37272e+06	-39289.1	1055.82	-29794.4	0.000000	0.000000	6.763055	-0.046853	NaN	0.000000	0.001614	0.001746	28.0842	0.092228	0.002017	45.7233	53.3977	-164.972	-0.013860	0.761487	-0.332372	-0.333662	-0.046853	45.7233	-0.331604	-13769.8	3.402573E-6	NaN
783	1.000000	0.772781	7.37272e+06	-39289.1	1055.82	-29794.4	0.000000	0.000000	6.773064	0.039212	NaN	0.000000	0.001657	0.001749	28.0837	0.029436	0.002075	14.1884	-22.5324	15.0944	0.010803	0.771400	-0.322368	-0.323748	0.039212	14.1884	-0.324440	-10812.4	-3.626552E-6	NaN
783	1.000000	0.782758	7.37272e+06	-39289.1	1055.82	-29794.4	0.000000	0.000000	6.783040	0.018261	NaN	0.000000	0.001626	0.001699	28.0837	0.063783	0.002080	30.6694	-121.321	-166.834	-0.028054	0.781461	-0.312391	-0.313688	0.018261	30.6694	-0.312837	-7294.72	-2.503341E-6	NaN
783	1.000000	0.792784	7.37272e+06	-39289.1	1055.82	-29794.4	0.000000	0.000000	6.793067	0.047621	NaN	0.000000	0.001692	0.001696	28.0838	0.107266	0.002040	52.5892	164.625	13.2664	0.035815	0.791427	-0.302364	-0.303722	0.047621	52.5892	-0.303044	-5222.78	-9.117901E-6	NaN
783	1.000000	0.802777	7.37272e+06	-39289.1	1055.82	-29794.4	0.000000	0.000000	6.803058	0.001311	NaN	0.000000	0.001661	0.001718	28.0838	0.079701	0.001810	44.0437	-67.6603	-165.775	0.018745	0.801466	-0.292372	-0.293683	0.001311	44.0437	-0.292394	-3623.59	-3.617204E-7	NaN
783	1.000000	0.812774	7.37272e+06	-39289.1	1055.82	-29794.4	0.000000	0.000000	6.813057	0.036138	NaN	0.000000	0.001717	0.001738	28.0839	0.033362	0.002050	16.2761	-111.216	17.2554	-0.018317	0.811420	-0.282375	-0.283728	0.036138	16.2761	-0.284040	-2715.36	-1.330884E-5	NaN
783	1.000000	0.822773	7.37272e+06	-39289.1	1055.82	-29794.4	0.000000	0.000000	6.823056	0.028142	NaN	0.000000	0.001732	0.001728	28.084	0.096293	0.002034	47.3506	51.1603	-168.476	-0.017102	0.821430	-0.272375	-0.273719	0.028142	47.3506	-0.272821	-1838.13	-1.530994E-5	NaN
783	1.000000	0.832765	7.37272e+06	-39289.1	1055.82	-29794.4	0.000000	0.000000	6.833046	-0.002910	NaN	0.000000	0.001750	0.001735	28.0829	0.071950	0.001946	36.9807	-101.433	14.3273	0.024927	0.831430	-0.262383	-0.263719	-0.002910	36.9807	-0.262324	-1272.05	2.287629E-6	NaN
783	1.000000	0.842800	7.37272e+06	-39289.1	1055.82	-29794.4	0.000000	0.000000	6.843080	-0.024290	NaN	0.000000	0.001732	0.001804	28.0826	0.024202	0.002005	12.0718	28.2121	-167.57	-0.040775	0.841520	-0.252348	-0.253629	-0.024290	12.0718	-0.250839	-847.111	2.867438E-5	NaN
783	1.000000	0.852790	7.37272e+06	-39289.1	1055.82	-29794.4	0.000000	0.000000	6.853069	-0.072242	NaN	0.000000	0.001731	0.001755	28.0826	0.038503	0.002054	18.7414	-111.559	13.818	0.034721	0.851437	-0.242358	-0.243712	-0.072242	18.7414	-0.239467	-563.933	0.000128	NaN
783	1.000000	0.862816	7.37272e+06	-39289.1	1055.82	-29794.4	0.000000	0.000000	6.863096	-0.026006	NaN	0.000000	0.001713	0.001753	28.0826	0.075138	0.001989	37.7688	-9.987544	-167.47	0.098928	0.861443	-0.232332	-0.233706	-0.026006	37.7688	-0.231816	-427.722	6.080234E-5	NaN
783	1.000000	0.872811	7.37272e+06	-39289.1	1055.82	-29794.4	0.000000	0.000000	6.873093	0.030425	NaN	0.000000	0.001751	0.001733	28.0829	0.051035	0.001952	26.141	-64.3839	12.5541	-0.013350	0.871422	-0.222338	-0.223726	0.030425	26.141	-0.223211	-312.526	-9.735034E-5	NaN
783	1.000000	0.882814	7.37272e+06	-39289.1	1055.82	-29794.4	0.000000	0.000000	6.883095	-0.004153	NaN	0.000000	0.001757	0.001715	28.0827	0.026739	0.001905	14.0375	-18.3374	-167.51	0.005656	0.881571	-0.212335	-0.213577	-0.004153	14.0375	-0.212113	-207.485	2.001416E-5	NaN
783	1.000000	0.892835	7.37272e+06	-39289.1	1055.82	-29794.4	0.000000	0.000000	6.893116	-0.013449	NaN	0.000000	0.001743	0.001763	28.0827	0.024967	0.001770	14.1069	161.235	13.0676	-0.040929	0.891483	-0.202314	-0.203666	-0.013449	14.1069	-0.201599	-139.939	9.610429E-5	NaN
783	1.000000	0.902827	7.37272e+06	-39289.1	1055.82	-29794.4	0.000000	0.000000	6.903110	0.050917	NaN	0.000000	0.001735	0.001766	28.083	0.102200	0.001995	51.2266	-112.311	-164.425	0.052435	0.901513	-0.192322	-0.193635	0.050917	51.2266	-0.193067	-101.189	-0.000503	NaN
783	1.000000	0.912825	7.37272e+06	-39289.1	1055.82	-29794.4	0.000000	0.000000	6.913106	-0.002033	NaN	0.000000	0.001722	0.001735	28.0829	0.009947	0.002040	4.874861	-93.0006	10.0727	0.101590	0.911487	-0.182323	-0.183662	-0.002033	4.874861	-0.182010	-66.0091	3.080224E-5	NaN
783	1.000000	0.922817	7.37272e+06	-39289.1	1055.82	-29794.4	0.000000	0.000000	6.923100	0.039254	NaN	0.000000	0.001689	0.001722	28.0827	0.137901	0.002080	66.3033	-165.31	-164.19	0.039957	0.921563	-0.172331	-0.173585	0.039254	66.3033	-0.172775	-45.8843	-0.000855	NaN
783	1.000000	0.932854	7.37272e+06	-39289.1	1055.82	-29794.4	0.000000	0.000000	6.933136	0.026618	NaN	0.000000	0.001691	0.001718	28.0826	0.092603	0.001916	48.3223	-80.5664	10.9079	-0.021408	0.931434	-0.162294	-0.163715	0.026618	48.3223	-0.162707	-30.6154	-0.000869	NaN
783	1.000000	0.942821	7.37272e+06	-39289.1	1055.82	-29794.4	0.000000	0.000000	6.943103	-0.001324	NaN	0.000000	0.001651	0.001742	28.083	0.026971	0.001994	13.526	-85.2404	-170.536	-0.046941	0.941540	-0.152327	-0.153609	-0.001324	13.526	-0.152254	-19.9059	6.652309E-5	NaN
783	1.000000	0.952843	7.37272e+06	-39289.1	1055.82	-29794.4	0.000000	0.000000	6.953126	0.029344	NaN	0.000000	0.001642	0.001735	28.0828	0.022229	0.002019	11.0108	-24.3117	14.3043	0.036248	0.951460	-0.142305	-0.143689	0.029344	11.0108	-0.144304	-14.2325	-0.002062	NaN
783	1.000000	0.962863	7.37272e+06	-39289.1	1055.82	-29794.4	0.000000	0.000000	6.963147	0.049715	NaN	0.000000	0.001621	0.001699	28.0825	0.117441	0.002114	55.5654	103.658	-166.185	0.016172	0.961500	-0.132285	-0.133648	0.049715	55.5654	-0.132956	-8.692335	-0.005719	NaN
783	1.000000	0.972858	7.37272e+06	-39289.1	1055.82	-29794.4	0.000000	0.000000	6.973141	0.025170	NaN	0.000000	0.001601	0.001730	28.0839	0.073175	0.002011	36.3948	139.256	14.903	0.041599	0.971485	-0.122290	-0.123663	0.025170	36.3948	-0.122809	-5.501094	-0.004575	NaN
783	1.000000	0.982861	7.37272e+06	-39289.1	1055.82	-29794.4	0.000000	0.000000	6.983141	-0.021349	NaN	0.000000	0.001630	0.001726	28.084	0.124983	0.001878	66.5464	174.878	-163.922	0.083685	0.981522	-0.112287	-0.113626	-0.021349	66.5464	-0.112047	-3.317623	0.006435	NaN
783	1.000000	0.992849	7.37272e+06	-39289.1	1055.82	-29794.4	0.000000	0.000000	6.993132	0.028135	NaN	0.000000	0.001641	0.001697	28.0841	0.116850	0.002009	58.1678	-53.6466	16.5709	0.035511	0.991508	-0.102299	-0.103640	0.028135	58.1678	-0.102662	-2.091061	-0.013455	NaN
783	1.000000	1.002848	7.37272e+06	-39289.1	1055.82	-29794.4	0.000000	0.000000	7.003132	0.072009	NaN	0.000000	0.001606	0.001706	28.084	0.154221	0.001999	77.1667	-165.447	-166.329	0.055886	1.001541	-0.092301	-0.093607	0.072009	77.1667	-0.093001	-1.269391	-0.056728	NaN
783	1.000000	1.012874	7.37272e+06	-39289.1	1055.82	-29794.4	0.000000	0.000000	7.013157	0.034978	NaN	0.000000	0.001580	0.001717	28.0837	0.076818	0.001955	39.2831	-127.868	13.9601	0.033600	1.011503	-0.082274	-0.083645	0.034978	39.2831	-0.082942	-0.732046	-0.047782	NaN
783	1.000000	1.022864	7.37272e+06	-39289.1	1055.82	-29794.4	0.000000	0.000000	7.023148	0.072989	NaN	0.000000	0.001585	0.001733	28.0841	0.132669	0.002087	63.572	-178.008	-164.34	0.026423	1.021511	-0.072284	-0.073637	0.072989	63.572	-0.073145	-0.413270	-0.176612	NaN
783	1.000000	1.032876	7.37272e+06	-39289.1	1055.82	-29794.4	0.000000	0.000000	7.033158	0.018573	NaN	0.000000	0.001676	0.001722	28.0838	0.056807	0.001916	29.6436	139.892	15.3517	-0.023222	1.031518	-0.062273	-0.063631	0.018573	29.6436	-0.062743	-0.215510	-0.086180	NaN
783	1.000000	1.042882	7.37272e+06	-39289.1	1055.82	-29794.4	0.000000	0.000000	7.043164	0.039647	NaN	0.000000	0.001696	0.001736	28.0841	0.086756	0.001968	44.091	-94.3429	-163.925	0.004498	1.041609	-0.052267	-0.053540	0.039647	44.091	-0.052941	-0.111857	-0.354440	NaN
783	1.000000	1.052898	7.37272e+06	-39289.1	1055.82	-29794.4	0.000000	0.000000	7.053179	-0.011034	NaN	0.000000	0.001680	0.001692	28.0838	0.071513	0.002005	35.6652	-151.643	15.2686	0.020136	1.051495	-0.042251	-0.043654	-0.011034	35.6652	-0.042019	-0.052100	0.211782	NaN
783	1.000000	1.062904	7.37272e+06	-39289.1	1055.82	-29794.4	0.000000	0.000000	7.063186	0.024093	NaN	0.000000	0.001698	0.001725	28.0842	0.018379	0.002065	8.898514	-67.7901	-163.967	0.028819	1.061578	-0.032245	-0.033570	0.024093	8.898514	-0.034275	-0.030494	-0.790089	NaN
783	1.000000	1.072901	7.37272e+06	-39289.1	1055.82	-29794.4	0.000000	0.000000	7.073180	-0.058231	NaN	0.000000	0.001604	0.001725	28.0839	0.010218	0.001923	5.314272	16.8841	18.755	-0.071169	1.071502	-0.022248	-0.023647	-0.058231	5.314272	-0.014029	-0.008701	6.692801	NaN
783	1.000000	1.082898	7.37272e+06	-39289.1	1055.82	-29794.4	0.000000	0.000000	7.083177	-0.052901	NaN	0.000000	0.001613	0.001746	28.0838	0.076927	0.002055	37.431	120.103	-168.096	-0.072762	1.081572	-0.012251	-0.013576	-0.052901	37.431	-0.011191	-0.007067	7.485843	NaN
783	1.000000	1.092865	7.37272e+06	-39289.1	1055.82	-29794.4	0.000000	0.000000	7.093202	1.352913	NaN	0.000000	0.001626	0.001754	28.0836	1.832269	0.001845	993.128	10.0385	13.152	0.465208	1.091539	-0.002283	-0.003609	1.352913	993.128	-0.003305	-0.002324	-582.247	NaN
783	2.000000	1.101403	7.37272e+06	-39289.1	1055.82	-29794.4	0.000000	0.000000	7.102100	10.1089	NaN	0.000000	0.001627	0.001746	28.0839	9.296228	0.001651	5631.48	6.438134	-170.888	9.493173	1.101097	0.006255	0.005949	10.1089	5631.48	0.004908	0.004050	2496.11	80849.5
783	2.000000	1.103928	7.37272e+06	-39289.1	1055.82	-29794.4	0.000000	0.000000	7.104747	13.0799	NaN	0.000000	0.001583	0.001761	28.0826	12.0034	0.001605	7476.56	7.222904	5.076941	12.3881	1.103610	0.008780	0.008462	13.0799	7476.56	0.007468	0.006501	2012.07	84721.8
783	2.000000	1.106403	7.37272e+06	-39289.1	1055.82	-29794.4	0.000000	0.000000	7.107412	17.7162	NaN	0.000000	0.001648	0.001752	28.0826	15.1385	0.001650	9177.45	6.553660	-176.752	17.4169	1.106092	0.011254	0.010944	17.7162	9177.45	0.009806	0.008967	1975.71	88546.6
783	2.000000	1.108922	7.37272e+06	-39289.1	1055.82	-29794.4	0.000000	0.000000	7.110167	23.4445	NaN	0.000000	0.001607	0.001772	28.083	17.6714	0.001869	9454.34	6.516498	5.806875	21.9886	1.108520	0.013774	0.013371	23.4445	9454.34	0.011914	0.011387	2058.81	80945.3
783	2.000000	1.111350	7.37272e+06	-39289.1	1055.82	-29794.4	0.000000	0.000000	7.112726	26.6452	NaN	0.000000	0.001585	0.001779	28.0829	19.8702	0.001778	11178.6	3.558136	-174.354	25.7312	1.111048	0.016202	0.015900	26.6452	11178.6	0.014414	0.014512	1836.07	84780.7
783	2.000000	1.113841	7.37272e+06	-39289.1	1055.82	-29794.4	0.000000	0.000000	7.115445	32.1848	NaN	0.000000	0.001634	0.001711	28.0828	23.5956	0.001863	12666	7.865168	-0.271741	30.1838	1.113477	0.018693	0.018329	32.1848	12666	0.016787	0.017742	1814	86877
783	2.000000	1.116310	7.37272e+06	-39289.1	1055.82	-29794.4	0.000000	0.000000	7.118147	37.8581	NaN	0.000000	0.001649	0.001751	28.0827	25.7141	0.001744	14743.9	4.068041	-177.445	36.1489	1.115957	0.021162	0.020808	37.8581	14743.9	0.019236	0.021356	1772.7	92177
783	2.000000	1.118838	7.37272e+06	-39289.1	1055.82	-29794.4	0.000000	0.000000	7.120949	44.5276	NaN	0.000000	0.001643	0.001711	28.083	28.2495	0.001851	15264.6	7.685014	-1.157011	41.6682	1.118506	0.023690	0.023357	44.5276	15264.6	0.021502	0.024957	1784.15	88279.7
783	2.000000	1.121333	7.37272e+06	-39289.1	1055.82	-29794.4	0.000000	0.000000	7.123814	53.5356	NaN	0.000000	0.001666	0.001756	28.0828	30.7144	0.001731	17745.1	7.659158	177.139	52.4422	1.121037	0.026184	0.025889	53.5356	17745.1	0.023922	0.029083	1840.77	95067.3
783	2.000000	1.123827	7.37272e+06	-39289.1	1055.82	-29794.4	0.000000	0.000000	7.126498	58.1506	NaN	0.000000	0.001655	0.001761	28.0826	33.5237	0.001799	18635.6	4.153371	-0.354039	56.0992	1.123531	0.028678	0.028382	58.1506	18635.6	0.026338	0.033495	1736.11	93031.1
783	2.000000	1.126326	7.37272e+06	-39289.1	1055.82	-29794.4	0.000000	0.000000	7.129272	64.8525	NaN	0.000000	0.001610	0.001806	28.0827	35.6634	0.001766	20193.8	9.054089	174.996	64.4292	1.126044	0.031177	0.030895	64.8525	20193.8	0.028769	0.038230	1696.37	94359.9
783	2.000000	1.128785	7.37272e+06	-39289.1	1055.82	-29794.4	0.000000	0.000000	7.131973	70.7385	NaN	0.000000	0.001643	0.001767	28.0829	37.6559	0.001734	21716.6	7.509114	-4.253745	66.7506	1.128386	0.033637	0.033238	70.7385	21716.6	0.031194	0.043255	1635.4	95399.9
783	2.000000	1.131300	7.37272e+06	-39289.1	1055.82	-29794.4	0.000000	0.000000	7.134816	78.7226	NaN	0.000000	0.001605	0.001755	28.0827	39.502	0.001777	22231.4	2.782247	-179.66	78.7723	1.130963	0.036152	0.035815	78.7226	22231.4	0.033496	0.048302	1629.81	92418.6
783	2.000000	1.133779	7.37272e+06	-39289.1	1055.82	-29794.4	0.000000	0.000000	7.137863	92.5601	NaN	0.000000	0.001647	0.001775	28.0827	41.9146	0.001749	23964.9	4.309688	-3.196441	87.2991	1.133420	0.038630	0.038271	92.5601	23964.9	0.035733	0.053467	1731.15	94690
783	2.000000	1.136290	7.37272e+06	-39289.1	1055.82	-29794.4	0.000000	0.000000	7.140757	101.855	NaN	0.000000	0.001668	0.001798	28.0838	44.8882	0.001739	25806.4	1.859387	178.964	98.9075	1.136036	0.041141	0.040887	101.855	25806.4	0.038181	0.059413	1714.37	96730
783	2.000000	1.138848	7.37272e+06	-39289.1	1055.82	-29794.4	0.000000	0.000000	7.143838	114.577	NaN	0.000000	0.001668	0.001779	28.0839	46.2541	0.001730	26741.4	7.930398	-6.528570	113.439	1.138356	0.043700	0.043207	114.577	26741.4	0.040487	0.065292	1754.85	95615.6
783	2.000000	1.141300	7.37272e+06	-39289.1	1055.82	-29794.4	0.000000	0.000000	7.146611	122.4	NaN	0.000000	0.001684	0.001758	28.0839	48.7685	0.001680	29026.4	4.712014	175.232	123.043	1.140941	0.046151	0.045792	122.4	29026.4	0.042989	0.071980	1700.46	98846
783	2.000000	1.143855	7.37272e+06	-39289.1	1055.82	-29794.4	0.000000	0.000000	7.149188	122.929	NaN	0.000000	0.001653	0.001739	28.0841	52.4815	0.001862	28179.3	3.890104	-3.529591	124.101	1.143676	0.048706	0.048528	122.929	28179.3	0.045435	0.078826	1559.49	91699.7
783	2.000000	1.146275	7.37272e+06	-39289.1	1055.82	-29794.4	0.000000	0.000000	7.152532	145.409	NaN	0.000000	0.001652	0.001761	28.084	54.6906	0.001757	31124	4.198775	175.61	143.359	1.145959	0.051127	0.050810	145.409	31124	0.047623	0.085208	1706.52	97415.8
783	2.000000	1.148815	7.37272e+06	-39289.1	1055.82	-29794.4	0.000000	0.000000	7.155081	145.642	NaN	0.000000	0.001635	0.001748	28.0842	55.9794	0.001742	32128	2.073875	-2.469363	144.184	1.148595	0.053666	0.053447	145.642	32128	0.050266	0.093238	1562.05	96130.4
783	2.000000	1.151231	7.37272e+06	-39289.1	1055.82	-29794.4	0.000000	0.000000	7.158506	170.191	NaN	0.000000	0.001715	0.001770	28.0838	59.1266	0.001758	33630.7	3.827166	175.53	168.137	1.151072	0.056083	0.055924	170.191	33630.7	0.052287	0.099613	1708.52	97353.1
783	2.000000	1.153843	7.37272e+06	-39289.1	1055.82	-29794.4	0.000000	0.000000	7.161358	176.036	NaN	0.000000	0.001698	0.001762	28.0842	62.4374	0.001737	35946.2	6.181241	-7.943380	176.379	1.153555	0.058694	0.058407	176.036	35946.2	0.055021	0.108563	1621.51	99674.6
783	2.000000	1.156264	7.37272e+06	-39289.1	1055.82	-29794.4	0.000000	0.000000	7.164460	192.613	NaN	0.000000	0.001716	0.001806	28.0841	64.6071	0.001732	37309.7	1.864802	176.525	191.077	1.155965	0.061116	0.060817	192.613	37309.7	0.057244	0.116110	1658.88	100037
783	2.000000	1.158767	7.37272e+06	-39289.1	1055.82	-29794.4	0.000000	0.000000	7.167805	213.1	NaN	0.000000	0.001657	0.001787	28.0842	65.9363	0.001645	40093.6	4.057294	-6.387036	210.121	1.158471	0.063619	0.063323	213.1	40093.6	0.059632	0.124493	1711.74	103819
783	2.000000	1.161238	7.37272e+06	-39289.1	1055.82	-29794.4	0.000000	0.000000	7.170664	222.545	NaN	0.000000	0.001734	0.001795	28.0838	69.0269	0.001707	40439.7	8.313674	168.504	218.537	1.160943	0.066089	0.065795	222.545	40439.7	0.061962	0.132938	1674.05	101334
783	2.000000	1.163724	7.37272e+06	-39289.1	1055.82	-29794.4	0.000000	0.000000	7.173973	242.571	NaN	0.000000	0.001701	0.001774	28.0843	71.8394	0.001729	41560.7	6.901143	-9.547874	237.033	1.163336	0.068575	0.068187	242.571	41560.7	0.064198	0.141291	1716.82	101018
783	2.000000	1.166258	7.37272e+06	-39289.1	1055.82	-29794.4	0.000000	0.000000	7.176693	247.102	NaN	0.000000	0.001683	0.001736	28.084	74.6355	0.001720	43395.1	1.865388	174.987	244.363	1.166097	0.071109	0.070949	247.102	43395.1	0.066839	0.151466	1631.4	101872
783	2.000000	1.168765	7.37272e+06	-39289.1	1055.82	-29794.4	0.000000	0.000000	7.180139	269.961	NaN	0.000000	0.001678	0.001765	28.0841	75.6137	0.001675	45138.1	0.977420	-3.873702	266.051	1.168538	0.073616	0.073389	269.961	45138.1	0.069130	0.160569	1681.28	102917
783	2.000000	1.171296	7.37272e+06	-39289.1	1055.82	-29794.4	0.000000	0.000000	7.183652	293.836	NaN	0.000000	0.001726	0.001781	28.0824	79.6732	0.001832	43488	7.877048	170.133	295.725	1.170870	0.076147	0.075722	293.836	43488	0.071080	0.168509	1743.74	96790.3
783	2.000000	1.173688	7.37272e+06	-39289.1	1055.82	-29794.4	0.000000	0.000000	7.186616	307.761	NaN	0.000000	0.001717	0.001772	28.0833	83.0217	0.001787	46453.5	9.538766	-13.0785	301.123	1.173313	0.078540	0.078165	307.761	46453.5	0.073571	0.178916	1720.15	100338
783	2.000000	1.176215	7.37272e+06	-39289.1	1055.82	-29794.4	0.000000	0.000000	7.189783	323.355	NaN	0.000000	0.001694	0.001760	28.0825	85.6043	0.001789	47843.7	5.339299	170.674	320.668	1.176099	0.081066	0.080950	323.355	47843.7	0.075997	0.189336	1707.84	100457
783	2.000000	1.178787	7.37272e+06	-39289.1	1055.82	-29794.4	0.000000	0.000000	7.193523	351.743	NaN	0.000000	0.001722	0.001760	28.0829	87.4507	0.001745	50124.2	6.031953	-9.708491	348.646	1.178329	0.083639	0.083181	351.743	50124.2	0.078376	0.199819	1760.31	102448
783	2.000000	1.181148	7.37272e+06	-39289.1	1055.82	-29794.4	0.000000	0.000000	7.196902	376.531	NaN	0.000000	0.001711	0.001720	28.0825	88.6067	0.001661	53343.5	2.746827	173.21	370.124	1.180870	0.085999	0.085722	376.531	53343.5	0.080705	0.210341	1790.1	106266
783	2.000000	1.183758	7.37272e+06	-39289.1	1055.82	-29794.4	0.000000	0.000000	7.200508	400.755	NaN	0.000000	0.001711	0.001776	28.0829	93.6922	0.001894	49464.4	4.037471	-7.194313	398.497	1.183296	0.088610	0.088148	400.755	49464.4	0.082533	0.218776	1831.8	96619.8
783	2.000000	1.186193	7.37272e+06	-39289.1	1055.82	-29794.4	0.000000	0.000000	7.203994	426.35	NaN	0.000000	0.001701	0.001744	28.0825	95.7695	0.001757	54499.8	3.418991	172.411	421.384	1.185812	0.091045	0.090664	426.35	54499.8	0.085177	0.231248	1843.69	103545
783	2.000000	1.188699	7.37272e+06	-39289.1	1055.82	-29794.4	0.000000	0.000000	7.207340	446.776	NaN	0.000000	0.001697	0.001742	28.0825	98.3992	0.001818	54136.4	9.687243	-13.7987	440.841	1.188263	0.093551	0.093114	446.776	54136.4	0.087361	0.241794	1847.76	100586
783	2.000000	1.191181	7.37272e+06	-39289.1	1055.82	-29794.4	0.000000	0.000000	7.210809	470.812	NaN	0.000000	0.001702	0.001747	28.0825	99.9282	0.001773	56352.6	3.662754	171.462	466.421	1.190920	0.096033	0.095771	470.812	56352.6	0.089767	0.253663	1856.05	102225
783	2.000000	1.193778	7.37272e+06	-39289.1	1055.82	-29794.4	0.000000	0.000000	7.214418	495.433	NaN	0.000000	0.001715	0.001753	28.0827	103.706	0.001827	56761	6.441012	-11.2338	493.701	1.193286	0.098629	0.098137	495.433	56761	0.092083	0.265345	1867.13	100674
783	2.000000	1.196279	7.37272e+06	-39289.1	1055.82	-29794.4	0.000000	0.000000	7.217944	520.369	NaN	0.000000	0.001725	0.001760	28.0826	104.831	0.001654	63366.4	3.614446	170.684	522.227	1.195984	0.101131	0.100835	520.369	63366.4	0.094972	0.280255	1856.77	109359
783	2.000000	1.198686	7.37272e+06	-39289.1	1055.82	-29794.4	0.000000	0.000000	7.221603	550.832	NaN	0.000000	0.001677	0.001728	28.0826	107.121	0.001822	58797.2	5.102324	-9.669528	542.566	1.198258	0.103537	0.103109	550.832	58797.2	0.096511	0.288358	1910.24	100038
783	2.000000	1.199342	7.37272e+06	-39289.1	1055.82	-29794.4	0.000000	0.000000	7.222214	549.745	NaN	0.000000	0.001695	0.001714	28.0829	110.137	0.001837	59961.7	6.671983	168.258	554.915	1.198962	0.104194	0.103813	549.745	59961.7	0.097317	0.292644	1878.54	101269