File: remote_trans/data/nanoindenter/0828-1/data/Data_2025-08-06,11h17m57s/2025-07-22_16-23-58_1_427.txt
2025-07-22, 16:23:58, 1
Index	Phase	Displacement	Time	Pos X	Pos Y	Pos Z	Rot A	Rot B	Piezo Z	Force A	Force B	Gripper	Voltage A	Voltage B	Temperature	Amplitude force	Amplitude pos	Stiffness	Phase shift	Phase excitation	Force A raw	Displacement raw	HMax	HMax raw	Real Force	Real Stiffness	Contact Depth	Area	Hardness	Reduced Mod.
[#]	[#]	[um]	[s]	[um]	[um]	[um]	[m°]	[m°]	[um]	[uN]	[uN]	[V]	[V]	[V]	[°C]	[uN]	[um]	[N/m]	[°]	[°]	[uN]	[um]	[um]	[um]	[uN]	[N/m]	[um]	[um^2]	[MPa]	[MPa]
427	1.000000	0.002488	7.36923e+06	-55739.1	1005.82	-29740.9	0.000000	0.000000	6.002827	0.050726	NaN	0.000000	0.001690	0.001764	28.0786	0.023514	0.000886	26.533	139.655	-163.291	0.034637	0.001222	-1.138691	-1.139957	0.050726	26.533	-1.140124	-1.731439E+15	-2.929714E-17	NaN
427	1.000000	0.012503	7.36923e+06	-55739.1	1005.82	-29740.9	0.000000	0.000000	6.012842	0.044703	NaN	0.000000	0.001675	0.001762	28.0781	0.002735	0.001231	2.221051	27.4472	18.1215	0.022937	0.011085	-1.128675	-1.130094	0.044703	2.221051	-1.143771	-1.937748E+15	-2.306936E-17	NaN
427	1.000000	0.022412	7.36923e+06	-55739.1	1005.82	-29740.9	0.000000	0.000000	6.022750	0.045030	NaN	0.000000	0.001684	0.001756	28.0779	0.029648	0.001598	18.5545	-21.9619	-161.464	-0.007109	0.021116	-1.118767	-1.120062	0.045030	18.5545	-1.120587	-9.469996E+14	-4.755038E-17	NaN
427	1.000000	0.032402	7.36923e+06	-55739.1	1005.82	-29740.9	0.000000	0.000000	6.032738	-0.009233	NaN	0.000000	0.001691	0.001768	28.078	0.037128	0.001862	19.9379	78.9717	15.4578	-0.018063	0.031049	-1.108777	-1.110129	-0.009233	19.9379	-1.108430	-6.504460E+14	1.419487E-17	NaN
427	1.000000	0.042419	7.36923e+06	-55739.1	1005.82	-29740.9	0.000000	0.000000	6.042755	-0.036365	NaN	0.000000	0.001672	0.001747	28.0793	0.092067	0.001872	49.1691	-82.9357	-164.703	-0.046360	0.041063	-1.098759	-1.100116	-0.036365	49.1691	-1.098205	-4.742041E+14	7.668642E-17	NaN
427	1.000000	0.052427	7.36923e+06	-55739.1	1005.82	-29740.9	0.000000	0.000000	6.052766	0.035513	NaN	0.000000	0.001651	0.001745	28.0792	0.073075	0.002021	36.1532	159.51	12.9162	0.102536	0.051047	-1.088751	-1.090131	0.035513	36.1532	-1.089488	-3.621891E+14	-9.805233E-17	NaN
427	1.000000	0.062409	7.36923e+06	-55739.1	1005.82	-29740.9	0.000000	0.000000	6.062748	0.039034	NaN	0.000000	0.001642	0.001770	28.0791	0.029623	0.002006	14.7702	29.1666	-162.938	-0.030802	0.061102	-1.078770	-1.080076	0.039034	14.7702	-1.080752	-2.764496E+14	-1.411971E-16	NaN
427	1.000000	0.072415	7.36923e+06	-55739.1	1005.82	-29740.9	0.000000	0.000000	6.072752	-0.003475	NaN	0.000000	0.001646	0.001783	28.0791	0.136967	0.001976	69.3167	34.3723	12.317	-0.006634	0.071099	-1.068763	-1.070080	-0.003475	69.3167	-1.068726	-1.905752E+14	1.823332E-17	NaN
427	1.000000	0.082416	7.36923e+06	-55739.1	1005.82	-29740.9	0.000000	0.000000	6.082752	-0.016752	NaN	0.000000	0.001691	0.001806	28.0793	0.095647	0.002053	46.5805	-83.5831	-161.999	0.035449	0.081103	-1.058763	-1.060076	-0.016752	46.5805	-1.058493	-1.388567E+14	1.206433E-16	NaN
427	1.000000	0.092421	7.36923e+06	-55739.1	1005.82	-29740.9	0.000000	0.000000	6.092759	0.017665	NaN	0.000000	0.001645	0.001751	28.0791	0.041214	0.001952	21.1142	-29.6248	9.392201	-0.036051	0.091063	-1.048758	-1.050116	0.017665	21.1142	-1.049385	-1.047486E+14	-1.686459E-16	NaN
427	1.000000	0.102435	7.36923e+06	-55739.1	1005.82	-29740.9	0.000000	0.000000	6.102771	-0.030387	NaN	0.000000	0.001655	0.001716	28.0791	0.065886	0.002042	32.2709	101.366	-163.176	-0.023234	0.101123	-1.038744	-1.040056	-0.030387	32.2709	-1.038037	-7.371837E+13	4.122034E-16	NaN
427	1.000000	0.112438	7.36923e+06	-55739.1	1005.82	-29740.9	0.000000	0.000000	6.112777	0.053034	NaN	0.000000	0.001655	0.001765	28.0795	0.070620	0.002033	34.7443	-118.727	13.0139	0.062322	0.111061	-1.028741	-1.030118	0.053034	34.7443	-1.029886	-5.727247E+13	-9.259944E-16	NaN
427	1.000000	0.122434	7.36923e+06	-55739.1	1005.82	-29740.9	0.000000	0.000000	6.122769	-0.067606	NaN	0.000000	0.001693	0.001773	28.079	0.070531	0.001996	35.3325	48.7929	-165.867	-0.130586	0.121118	-1.018744	-1.020060	-0.067606	35.3325	-1.017309	-3.879232E+13	1.742757E-15	NaN
427	1.000000	0.132441	7.36923e+06	-55739.1	1005.82	-29740.9	0.000000	0.000000	6.132774	-0.096554	NaN	0.000000	0.001645	0.001737	28.0792	0.103016	0.001935	53.2364	-24.6567	10.8391	-0.068400	0.131066	-1.008737	-1.010113	-0.096554	53.2364	-1.007377	-2.851529E+13	3.386037E-15	NaN
427	1.000000	0.142461	7.36923e+06	-55739.1	1005.82	-29740.9	0.000000	0.000000	6.142798	-0.003307	NaN	0.000000	0.001655	0.001691	28.079	0.077992	0.002121	36.7771	-41.4158	-169.661	0.018724	0.141166	-0.998718	-1.000013	-0.003307	36.7771	-0.998650	-2.175680E+13	1.519914E-16	NaN
427	1.000000	0.152462	7.36923e+06	-55739.1	1005.82	-29740.9	0.000000	0.000000	6.152799	-0.000376	NaN	0.000000	0.001656	0.001729	28.0797	0.008600	0.001901	4.523818	9.060012	13.1875	-0.037726	0.151056	-0.988717	-0.990122	-0.000376	4.523818	-0.988654	-1.595828E+13	2.356016E-17	NaN
427	1.000000	0.162442	7.36924e+06	-55739.1	1005.82	-29740.9	0.000000	0.000000	6.162778	-0.007875	NaN	0.000000	0.001668	0.001736	28.079	0.070936	0.001930	36.7522	-77.1025	-163.571	-0.013359	0.161123	-0.978737	-0.980056	-0.007875	36.7522	-0.978576	-1.167427E+13	6.745616E-16	NaN
427	1.000000	0.172453	7.36924e+06	-55739.1	1005.82	-29740.9	0.000000	0.000000	6.172790	-0.002222	NaN	0.000000	0.001658	0.001729	28.0796	0.025099	0.001830	13.7186	104.811	13.5667	0.001980	0.171086	-0.968725	-0.970093	-0.002222	13.7186	-0.968604	-8.567333E+12	2.593349E-16	NaN
427	1.000000	0.182462	7.36924e+06	-55739.1	1005.82	-29740.9	0.000000	0.000000	6.182798	-0.009974	NaN	0.000000	0.001678	0.001697	28.0781	0.026478	0.001870	14.1603	35.7504	-166.135	0.001309	0.181184	-0.958717	-0.959994	-0.009974	14.1603	-0.958188	-6.200778E+12	1.608498E-15	NaN
427	1.000000	0.192470	7.36924e+06	-55739.1	1005.82	-29740.9	0.000000	0.000000	6.192806	-0.028699	NaN	0.000000	0.001650	0.001683	28.0785	0.045939	0.002130	21.5641	-144.029	14.0367	0.027790	0.191072	-0.948709	-0.950107	-0.028699	21.5641	-0.947710	-4.478658E+12	6.407996E-15	NaN
427	1.000000	0.202471	7.36924e+06	-55739.1	1005.82	-29740.9	0.000000	0.000000	6.202811	0.055956	NaN	0.000000	0.001701	0.001729	28.0777	0.063165	0.001899	33.263	104.699	-163.467	0.053999	0.201174	-0.938707	-0.940005	0.055956	33.263	-0.939969	-3.521409E+12	-1.589023E-14	NaN
427	1.000000	0.212479	7.36924e+06	-55739.1	1005.82	-29740.9	0.000000	0.000000	6.212814	-0.058487	NaN	0.000000	0.001693	0.001761	28.078	0.042612	0.001951	21.8459	26.6889	14.8155	-0.083831	0.211106	-0.928699	-0.930072	-0.058487	21.8459	-0.926691	-2.330972E+12	2.509119E-14	NaN
427	1.000000	0.222485	7.36924e+06	-55739.1	1005.82	-29740.9	0.000000	0.000000	6.222826	0.083013	NaN	0.000000	0.001648	0.001741	28.0779	0.106487	0.002024	52.6049	58.8523	-164.986	0.001538	0.221135	-0.918693	-0.920044	0.083013	52.6049	-0.919877	-1.886013E+12	-4.401532E-14	NaN
427	1.000000	0.232474	7.36924e+06	-55739.1	1005.82	-29740.9	0.000000	0.000000	6.232809	-0.049101	NaN	0.000000	0.001667	0.001759	28.078	0.048633	0.001930	25.1928	174.254	17.8668	-0.079924	0.231091	-0.908705	-0.910088	-0.049101	25.1928	-0.907243	-1.273281E+12	3.856258E-14	NaN
427	1.000000	0.242482	7.36924e+06	-55739.1	1005.82	-29740.9	0.000000	0.000000	6.242819	0.007158	NaN	0.000000	0.001639	0.001761	28.0778	0.111200	0.001859	59.8282	-177.8	-168.608	0.008636	0.241203	-0.898697	-0.899976	0.007158	59.8282	-0.898786	-9.787378E+11	-7.313702E-15	NaN
427	1.000000	0.252503	7.36924e+06	-55739.1	1005.82	-29740.9	0.000000	0.000000	6.252840	-0.013740	NaN	0.000000	0.001675	0.001762	28.0782	0.007920	0.001906	4.154463	-133.67	11.6282	0.024381	0.251084	-0.888675	-0.890095	-0.013740	4.154463	-0.886195	-6.614133E+11	2.077362E-14	NaN
427	1.000000	0.262509	7.36924e+06	-55739.1	1005.82	-29740.9	0.000000	0.000000	6.262842	-0.095085	NaN	0.000000	0.001670	0.001723	28.0776	0.101843	0.001982	51.372	-148.19	-165.327	-0.069143	0.261183	-0.878670	-0.879996	-0.095085	51.372	-0.877281	-5.011202E+11	1.897453E-13	NaN
427	1.000000	0.272516	7.36924e+06	-55739.1	1005.82	-29740.9	0.000000	0.000000	6.272850	-0.083253	NaN	0.000000	0.001661	0.001784	28.0781	0.053355	0.002140	24.9325	-87.2771	14.2915	-0.012680	0.271133	-0.868662	-0.870046	-0.083253	24.9325	-0.866158	-3.543720E+11	2.349311E-13	NaN
427	1.000000	0.282510	7.36924e+06	-55739.1	1005.82	-29740.9	0.000000	0.000000	6.282849	0.048798	NaN	0.000000	0.001710	0.001762	28.078	0.025907	0.002035	12.7331	-92.7124	-162.464	-0.082655	0.281230	-0.858669	-0.859948	0.048798	12.7331	-0.861543	-3.069051E+11	-1.590010E-13	NaN
427	1.000000	0.292480	7.36924e+06	-55739.1	1005.82	-29740.9	0.000000	0.000000	6.292819	0.033740	NaN	0.000000	0.001658	0.001763	28.0781	0.022910	0.002017	11.3585	-140.62	13.6256	0.089059	0.291205	-0.848698	-0.849973	0.033740	11.3585	-0.850926	-2.204337E+11	-1.530624E-13	NaN
427	1.000000	0.302513	7.36924e+06	-55739.1	1005.82	-29740.9	0.000000	0.000000	6.302850	-0.002303	NaN	0.000000	0.001689	0.001774	28.0781	0.024348	0.002011	12.1081	93.0584	-164.128	-0.065547	0.301193	-0.838666	-0.839986	-0.002303	12.1081	-0.838523	-1.497207E+11	1.537992E-14	NaN
427	1.000000	0.312542	7.36924e+06	-55739.1	1005.82	-29740.9	0.000000	0.000000	6.312881	0.048830	NaN	0.000000	0.001661	0.001776	28.0785	0.051916	0.001937	26.8024	136.616	13.5926	0.050745	0.311185	-0.828637	-0.829994	0.048830	26.8024	-0.830003	-1.147704E+11	-4.254567E-13	NaN
427	1.000000	0.322529	7.36924e+06	-55739.1	1005.82	-29740.9	0.000000	0.000000	6.322864	-0.044500	NaN	0.000000	0.001658	0.001776	28.079	0.083223	0.001977	42.0994	-129.444	-167.419	-0.006651	0.321212	-0.818650	-0.819966	-0.044500	42.0994	-0.817857	-7.855043E+10	5.665134E-13	NaN
427	1.000000	0.332520	7.36924e+06	-55739.1	1005.82	-29740.9	0.000000	0.000000	6.332858	0.037259	NaN	0.000000	0.001671	0.001773	28.0794	0.036692	0.002015	18.2071	-49.7818	15.6941	0.054749	0.331158	-0.808659	-0.810021	0.037259	18.2071	-0.810194	-6.183015E+10	-6.025981E-13	NaN
427	1.000000	0.342528	7.36924e+06	-55739.1	1005.82	-29740.9	0.000000	0.000000	6.342865	0.010194	NaN	0.000000	0.001665	0.001770	28.0792	0.049034	0.001944	25.2247	-123.871	-166.617	0.073381	0.341208	-0.798651	-0.799971	0.010194	25.2247	-0.798954	-4.351727E+10	-2.342481E-13	NaN
427	1.000000	0.352516	7.36924e+06	-55739.1	1005.82	-29740.9	0.000000	0.000000	6.352856	0.065095	NaN	0.000000	0.001615	0.001739	28.079	0.088981	0.001962	45.3424	172.583	13.6547	0.101045	0.351213	-0.788662	-0.789966	0.065095	45.3424	-0.789739	-3.262413E+10	-1.995316E-12	NaN
427	1.000000	0.362519	7.36924e+06	-55739.1	1005.82	-29740.9	0.000000	0.000000	6.362855	-0.009097	NaN	0.000000	0.001637	0.001696	28.0791	0.092861	0.001930	48.1053	15.8419	-167.751	0.017855	0.361273	-0.778660	-0.779906	-0.009097	48.1053	-0.778518	-2.296641E+10	3.961169E-13	NaN
427	1.000000	0.372536	7.36924e+06	-55739.1	1005.82	-29740.9	0.000000	0.000000	6.372871	-0.066196	NaN	0.000000	0.001654	0.001741	28.0794	0.036015	0.002046	17.599	104.507	16.3841	-0.010927	0.371246	-0.768642	-0.769932	-0.066196	17.599	-0.765821	-1.543418E+10	4.288943E-12	NaN
427	1.000000	0.382554	7.36924e+06	-55739.1	1005.82	-29740.9	0.000000	0.000000	6.382894	0.059573	NaN	0.000000	0.001656	0.001725	28.0794	0.061436	0.002030	30.2572	69.3321	-165.584	0.021258	0.381250	-0.758625	-0.759929	0.059573	30.2572	-0.760101	-1.290266E+10	-4.617088E-12	NaN
427	1.000000	0.392520	7.36924e+06	-55739.1	1005.82	-29740.9	0.000000	0.000000	6.392861	0.095955	NaN	0.000000	0.001675	0.001748	28.0791	0.067115	0.001926	34.854	-127.523	16.656	0.071700	0.391200	-0.748659	-0.749978	0.095955	34.854	-0.750724	-9.617704E+9	-9.976944E-12	NaN
427	1.000000	0.402545	7.36924e+06	-55739.1	1005.82	-29740.9	0.000000	0.000000	6.402879	-0.053605	NaN	0.000000	0.001660	0.001757	28.0794	0.043171	0.002020	21.3683	163.549	-165.709	-0.049835	0.401255	-0.738634	-0.739924	-0.053605	21.3683	-0.736753	-6.206120E+9	8.637373E-12	NaN
427	1.000000	0.412570	7.36924e+06	-55739.1	1005.82	-29740.9	0.000000	0.000000	6.412905	-0.027088	NaN	0.000000	0.001663	0.001726	28.0796	0.128257	0.002057	62.3444	27.2825	13.9043	-0.023528	0.411161	-0.728609	-0.730017	-0.027088	62.3444	-0.728283	-4.757829E+9	5.693438E-12	NaN
427	1.000000	0.422562	7.36924e+06	-55739.1	1005.82	-29740.9	0.000000	0.000000	6.422897	-0.040904	NaN	0.000000	0.001638	0.001713	28.0795	0.080254	0.001962	40.8996	-109.711	-168.886	-0.064818	0.421260	-0.718616	-0.719919	-0.040904	40.8996	-0.717866	-3.430626E+9	1.192319E-11	NaN
427	1.000000	0.432592	7.36924e+06	-55739.1	1005.82	-29740.9	0.000000	0.000000	6.432928	-0.041766	NaN	0.000000	0.001660	0.001739	28.0794	0.121819	0.002043	59.6306	165.329	11.9864	0.030056	0.431224	-0.708586	-0.709955	-0.041766	59.6306	-0.708061	-2.521060E+9	1.656694E-11	NaN
427	1.000000	0.442563	7.36924e+06	-55739.1	1005.82	-29740.9	0.000000	0.000000	6.442897	-0.065791	NaN	0.000000	0.001600	0.001757	28.0795	0.108348	0.001989	54.4723	135.732	-166.05	-0.069554	0.441296	-0.698616	-0.699883	-0.065791	54.4723	-0.697710	-1.820780E+9	3.613366E-11	NaN
427	1.000000	0.452548	7.36924e+06	-55739.1	1005.82	-29740.9	0.000000	0.000000	6.452885	-0.006049	NaN	0.000000	0.001637	0.001704	28.0782	0.026190	0.001990	13.1612	-83.6643	12.45	0.013055	0.451200	-0.688630	-0.689978	-0.006049	13.1612	-0.688285	-1.353585E+9	4.469144E-12	NaN
427	1.000000	0.462582	7.36924e+06	-55739.1	1005.82	-29740.9	0.000000	0.000000	6.462919	0.000447	NaN	0.000000	0.001605	0.001769	28.0782	0.098041	0.002007	48.8464	-129.318	-163.782	0.053019	0.461274	-0.678596	-0.679905	0.000447	48.8464	-0.678603	-9.979326E+8	-4.479044E-13	NaN
427	1.000000	0.472626	7.36924e+06	-55739.1	1005.82	-29740.9	0.000000	0.000000	6.472963	-0.002985	NaN	0.000000	0.001665	0.001784	28.0779	0.040061	0.002066	19.3908	-4.314542	15.3641	0.009013	0.471282	-0.668552	-0.669897	-0.002985	19.3908	-0.668437	-7.244300E+8	4.120221E-12	NaN
427	1.000000	0.482602	7.36924e+06	-55739.1	1005.82	-29740.9	0.000000	0.000000	6.482940	0.003221	NaN	0.000000	0.001652	0.001768	28.0782	0.063655	0.001978	32.1812	130.316	-165.452	-0.027525	0.481290	-0.658576	-0.659889	0.003221	32.1812	-0.658651	-5.320994E+8	-6.053266E-12	NaN
427	1.000000	0.492622	7.36924e+06	-55739.1	1005.82	-29740.9	0.000000	0.000000	6.492960	0.036517	NaN	0.000000	0.001653	0.001782	28.078	0.035139	0.002029	17.318	26.3241	15.2949	-0.016016	0.491190	-0.648557	-0.649989	0.036517	17.318	-0.650138	-4.067526E+8	-8.977787E-11	NaN
427	1.000000	0.502644	7.36924e+06	-55739.1	1005.82	-29740.9	0.000000	0.000000	6.502983	0.038192	NaN	0.000000	0.001672	0.001746	28.078	0.099102	0.002017	49.1291	28.4441	-167.693	0.034626	0.501291	-0.638534	-0.639888	0.038192	49.1291	-0.639117	-2.871976E+8	-1.329808E-10	NaN
427	1.000000	0.512610	7.36924e+06	-55739.1	1005.82	-29740.9	0.000000	0.000000	6.512944	-0.081671	NaN	0.000000	0.001684	0.001727	28.0779	0.094547	0.002148	44.0208	-166.578	13.6827	0.027027	0.511281	-0.628569	-0.629898	-0.081671	44.0208	-0.627177	-1.969035E+8	4.147749E-10	NaN
427	1.000000	0.522611	7.36924e+06	-55739.1	1005.82	-29740.9	0.000000	0.000000	6.522948	0.004900	NaN	0.000000	0.001687	0.001685	28.0784	0.049305	0.002027	24.325	98.3686	-168.612	-0.021361	0.521278	-0.618568	-0.619901	0.004900	24.325	-0.618719	-1.506697E+8	-3.252400E-11	NaN
427	1.000000	0.532606	7.36924e+06	-55739.1	1005.82	-29740.9	0.000000	0.000000	6.532946	0.067120	NaN	0.000000	0.001718	0.001723	28.078	0.051523	0.001927	26.7419	89.2324	12.4884	0.057510	0.531246	-0.608573	-0.609932	0.067120	26.7419	-0.610455	-1.159785E+8	-5.787239E-10	NaN
427	1.000000	0.542630	7.36924e+06	-55739.1	1005.82	-29740.9	0.000000	0.000000	6.542969	0.055816	NaN	0.000000	0.001717	0.001711	28.0782	0.109952	0.002071	53.0931	70.357	-166.412	0.000682	0.541294	-0.598549	-0.599884	0.055816	53.0931	-0.599338	-8.153367E+7	-6.845759E-10	NaN
427	1.000000	0.552610	7.36924e+06	-55739.1	1005.82	-29740.9	0.000000	0.000000	6.552945	-0.055165	NaN	0.000000	0.001727	0.001725	28.0779	0.077441	0.001965	39.4085	-36.9924	11.7653	-0.041951	0.551263	-0.588568	-0.589915	-0.055165	39.4085	-0.587518	-5.603381E+7	9.844886E-10	NaN
427	1.000000	0.562609	7.36924e+06	-55739.1	1005.82	-29740.9	0.000000	0.000000	6.562945	-0.029678	NaN	0.000000	0.001705	0.001711	28.0783	0.053520	0.002037	26.2749	-6.802758	-167.606	-0.079589	0.561296	-0.578570	-0.579883	-0.029678	26.2749	-0.577722	-4.104759E+7	7.230118E-10	NaN
427	1.000000	0.572612	7.36924e+06	-55739.1	1005.82	-29740.9	0.000000	0.000000	6.572950	0.024040	NaN	0.000000	0.001718	0.001745	28.078	0.068255	0.001937	35.2429	14.3021	17.3588	0.072651	0.571309	-0.568566	-0.569870	0.024040	35.2429	-0.569078	-3.118086E+7	-7.709959E-10	NaN
427	1.000000	0.582664	7.36924e+06	-55739.1	1005.82	-29740.9	0.000000	0.000000	6.583000	-0.032541	NaN	0.000000	0.001740	0.001736	28.0784	0.082083	0.002042	40.1965	-18.8367	-165.488	-0.061753	0.581324	-0.558514	-0.559854	-0.032541	40.1965	-0.557907	-2.184854E+7	1.489373E-9	NaN
427	1.000000	0.592652	7.36924e+06	-55739.1	1005.82	-29740.9	0.000000	0.000000	6.592990	0.011893	NaN	0.000000	0.001726	0.001724	28.0793	0.171151	0.002093	81.759	-105.508	13.3384	0.004264	0.591299	-0.548527	-0.549879	0.011893	81.759	-0.548636	-1.625763E+7	-7.315476E-10	NaN
427	1.000000	0.602633	7.36924e+06	-55739.1	1005.82	-29740.9	0.000000	0.000000	6.602970	0.002532	NaN	0.000000	0.001739	0.001739	28.0793	0.109921	0.001909	57.5926	139.575	-166.716	0.029197	0.601356	-0.538545	-0.539822	0.002532	57.5926	-0.538578	-1.179345E+7	-2.147165E-10	NaN
427	1.000000	0.612684	7.36924e+06	-55739.1	1005.82	-29740.9	0.000000	0.000000	6.613023	0.044664	NaN	0.000000	0.001714	0.001807	28.0793	0.023730	0.001867	12.7071	56.5304	14.1487	0.080432	0.611309	-0.528495	-0.529870	0.044664	12.7071	-0.531131	-9.29562e+06	-4.804801E-9	NaN
427	1.000000	0.622639	7.36924e+06	-55739.1	1005.82	-29740.9	0.000000	0.000000	6.622977	0.026308	NaN	0.000000	0.001752	0.001765	28.0793	0.085268	0.001845	46.2105	91.1626	-168.626	0.034790	0.621356	-0.518540	-0.519822	0.026308	46.2105	-0.518967	-6.29835e+06	-4.177043E-9	NaN
427	1.000000	0.632660	7.36924e+06	-55739.1	1005.82	-29740.9	0.000000	0.000000	6.632996	-0.028700	NaN	0.000000	0.001749	0.001742	28.0795	0.033584	0.002002	16.7777	-74.043	12.8038	0.049902	0.631274	-0.508519	-0.509905	-0.028700	16.7777	-0.507236	-4.3242e+06	6.636990E-9	NaN
427	1.000000	0.642626	7.36924e+06	-55739.1	1005.82	-29740.9	0.000000	0.000000	6.642962	-0.042265	NaN	0.000000	0.001749	0.001763	28.0792	0.049857	0.002096	23.7913	150.966	-166.173	-0.002261	0.641295	-0.498552	-0.499883	-0.042265	23.7913	-0.497220	-3.13491e+06	1.348199E-8	NaN
427	1.000000	0.652672	7.36924e+06	-55739.1	1005.82	-29740.9	0.000000	0.000000	6.653009	-0.001353	NaN	0.000000	0.001764	0.001767	28.0795	0.019369	0.002059	9.406230	-94.1982	10.4238	0.080486	0.651307	-0.488507	-0.489872	-0.001353	9.406230	-0.488399	-2.36058e+06	5.731359E-10	NaN
427	1.000000	0.662670	7.36924e+06	-55739.1	1005.82	-29740.9	0.000000	0.000000	6.663007	-0.011817	NaN	0.000000	0.001751	0.001764	28.0794	0.138204	0.002102	65.7525	-153.669	-166.923	0.036150	0.661344	-0.478509	-0.479835	-0.011817	65.7525	-0.478374	-1.70906e+06	6.914097E-9	NaN
427	1.000000	0.672677	7.36924e+06	-55739.1	1005.82	-29740.9	0.000000	0.000000	6.673017	0.066512	NaN	0.000000	0.001758	0.001725	28.0794	0.096341	0.001971	48.8917	77.7008	16.4498	0.088114	0.671265	-0.468502	-0.469913	0.066512	48.8917	-0.469522	-1.2844e+06	-5.178437E-8	NaN
427	1.000000	0.682694	7.36924e+06	-55739.1	1005.82	-29740.9	0.000000	0.000000	6.683032	0.004190	NaN	0.000000	0.001771	0.001764	28.0793	0.028480	0.001928	14.7715	3.226762	-163.801	-0.035012	0.681362	-0.458484	-0.459816	0.004190	14.7715	-0.458697	-905113	-4.629045E-9	NaN
427	1.000000	0.692695	7.36924e+06	-55739.1	1005.82	-29740.9	0.000000	0.000000	6.693032	-0.001117	NaN	0.000000	0.001811	0.001698	28.0801	0.102666	0.001982	51.7896	15.8649	12.6471	0.044895	0.691347	-0.448484	-0.449831	-0.001117	51.7896	-0.448467	-649766	1.718435E-9	NaN
427	1.000000	0.702691	7.36924e+06	-55739.1	1005.82	-29740.9	0.000000	0.000000	6.703028	-0.000121	NaN	0.000000	0.001828	0.001737	28.0796	0.077000	0.002044	37.6758	149.756	-169.263	0.034081	0.701354	-0.438487	-0.439825	-0.000121	37.6758	-0.438485	-469866	2.564870E-10	NaN
427	1.000000	0.712684	7.36924e+06	-55739.1	1005.82	-29740.9	0.000000	0.000000	6.713024	0.065061	NaN	0.000000	0.001833	0.001776	28.0794	0.066294	0.002010	32.9798	134.368	8.878553	-0.063433	0.711330	-0.428495	-0.429848	0.065061	32.9798	-0.429974	-356202	-1.826513E-7	NaN
427	1.000000	0.722661	7.36924e+06	-55739.1	1005.82	-29740.9	0.000000	0.000000	6.722995	-0.069476	NaN	0.000000	0.001820	0.001731	28.0783	0.034121	0.001892	18.0327	-6.808577	-168.28	-0.058256	0.721376	-0.418517	-0.419802	-0.069476	18.0327	-0.415628	-223033	3.115072E-7	NaN
427	1.000000	0.732680	7.36924e+06	-55739.1	1005.82	-29740.9	0.000000	0.000000	6.733017	0.014807	NaN	0.000000	0.001828	0.001730	28.0781	0.124928	0.001991	62.736	-121.736	16.001	0.051122	0.731404	-0.408499	-0.409775	0.014807	62.736	-0.408676	-177651	-8.335063E-8	NaN
427	1.000000	0.742707	7.36924e+06	-55739.1	1005.82	-29740.9	0.000000	0.000000	6.743044	0.001699	NaN	0.000000	0.001841	0.001746	28.0782	0.069767	0.002081	33.5188	-43.8541	-167.472	-0.114848	0.741348	-0.398471	-0.399831	0.001699	33.5188	-0.398509	-127272	-1.334565E-8	NaN
427	1.000000	0.752683	7.36924e+06	-55739.1	1005.82	-29740.9	0.000000	0.000000	6.753023	0.073012	NaN	0.000000	0.001842	0.001741	28.078	0.059545	0.002062	28.8729	15.7029	11.4625	0.004844	0.751278	-0.388495	-0.389901	0.073012	28.8729	-0.390392	-97447.9	-7.492401E-7	NaN
427	1.000000	0.762705	7.36924e+06	-55739.1	1005.82	-29740.9	0.000000	0.000000	6.763045	0.055260	NaN	0.000000	0.001814	0.001750	28.0781	0.022576	0.002119	10.6553	-131.323	-166.063	0.112485	0.761427	-0.378473	-0.379752	0.055260	10.6553	-0.382363	-74780.1	-7.389709E-7	NaN
427	1.000000	0.772727	7.36924e+06	-55739.1	1005.82	-29740.9	0.000000	0.000000	6.773064	0.000450	NaN	0.000000	0.001797	0.001756	28.0783	0.078191	0.002092	37.3746	-68.6364	9.827801	0.006154	0.771353	-0.368452	-0.369826	0.000450	37.3746	-0.368461	-47201	-9.524168E-9	NaN
427	1.000000	0.782705	7.36924e+06	-55739.1	1005.82	-29740.9	0.000000	0.000000	6.783041	-0.016568	NaN	0.000000	0.001824	0.001736	28.0782	0.072155	0.001880	38.3821	157.949	-165.393	-0.035583	0.781398	-0.358474	-0.359781	-0.016568	38.3821	-0.358150	-33503.5	4.945243E-7	NaN
427	1.000000	0.792703	7.36924e+06	-55739.1	1005.82	-29740.9	0.000000	0.000000	6.793039	-0.028383	NaN	0.000000	0.001822	0.001737	28.0783	0.035672	0.002050	17.397	37.8768	13.1539	-0.067665	0.791332	-0.348476	-0.349846	-0.028383	17.397	-0.347252	-23286.1	1.218862E-6	NaN
427	1.000000	0.802751	7.36924e+06	-55739.1	1005.82	-29740.9	0.000000	0.000000	6.803089	0.031169	NaN	0.000000	0.001739	0.001778	28.078	0.066254	0.001992	33.2676	84.8352	-165.983	-0.066555	0.801388	-0.338428	-0.339790	0.031169	33.2676	-0.339131	-17737	-1.757274E-6	NaN
427	1.000000	0.812737	7.36924e+06	-55739.1	1005.82	-29740.9	0.000000	0.000000	6.813072	-0.040528	NaN	0.000000	0.001721	0.001752	28.0783	0.045822	0.002025	22.6327	-143.599	13.1049	-0.079928	0.811387	-0.328442	-0.329792	-0.040528	22.6327	-0.327099	-11828.5	3.426262E-6	NaN
427	1.000000	0.822698	7.36924e+06	-55739.1	1005.82	-29740.9	0.000000	0.000000	6.823037	0.049853	NaN	0.000000	0.001699	0.001770	28.078	0.102991	0.002053	50.1582	-123.534	-168.811	0.037618	0.821441	-0.318480	-0.319737	0.049853	50.1582	-0.319226	-9062.32	-5.501134E-6	NaN
427	1.000000	0.832712	7.36924e+06	-55739.1	1005.82	-29740.9	0.000000	0.000000	6.833049	0.021245	NaN	0.000000	0.001738	0.001774	28.078	0.065367	0.002015	32.4338	63.9458	15.1137	0.039688	0.831431	-0.308467	-0.309747	0.021245	32.4338	-0.308958	-6391.98	-3.323638E-6	NaN
427	1.000000	0.842759	7.36924e+06	-55739.1	1005.82	-29740.9	0.000000	0.000000	6.843101	0.102588	NaN	0.000000	0.001746	0.001772	28.078	0.023337	0.001944	12.0037	-91.4883	-165.927	0.047284	0.841410	-0.298419	-0.299768	0.102588	12.0037	-0.304829	-5551.58	-1.847900E-5	NaN
427	1.000000	0.852760	7.36924e+06	-55739.1	1005.82	-29740.9	0.000000	0.000000	6.853098	0.034901	NaN	0.000000	0.001831	0.001772	28.0781	0.098789	0.002166	45.606	72.5688	13.3122	0.013673	0.851418	-0.288419	-0.289761	0.034901	45.606	-0.288993	-3222.61	-1.082988E-5	NaN
427	1.000000	0.862738	7.36924e+06	-55739.1	1005.82	-29740.9	0.000000	0.000000	6.863072	-0.070026	NaN	0.000000	0.001830	0.001777	28.0793	0.086781	0.002078	41.7698	-15.0521	-170.107	-0.104275	0.861424	-0.278441	-0.279754	-0.070026	41.7698	-0.277184	-2140.12	3.272043E-5	NaN
427	1.000000	0.872756	7.36924e+06	-55739.1	1005.82	-29740.9	0.000000	0.000000	6.873096	0.072233	NaN	0.000000	0.001795	0.001779	28.0794	0.060862	0.001879	32.3969	-59.8506	13.5703	0.022417	0.871413	-0.268423	-0.269765	0.072233	32.3969	-0.270095	-1671.05	-4.322606E-5	NaN
427	1.000000	0.882749	7.36924e+06	-55739.1	1005.82	-29740.9	0.000000	0.000000	6.883085	-0.020986	NaN	0.000000	0.001769	0.001741	28.0795	0.012678	0.002010	6.308525	-153.412	-165.636	0.021038	0.881445	-0.258430	-0.259733	-0.020986	6.308525	-0.255935	-1015.09	2.067385E-5	NaN
427	1.000000	0.892764	7.36924e+06	-55739.1	1005.82	-29740.9	0.000000	0.000000	6.893104	0.067997	NaN	0.000000	0.001736	0.001754	28.0792	0.071920	0.001970	36.5012	-130.714	15.1394	0.088727	0.891388	-0.248414	-0.249791	0.067997	36.5012	-0.249812	-816.679	-8.326005E-5	NaN
427	1.000000	0.902745	7.36924e+06	-55739.1	1005.82	-29740.9	0.000000	0.000000	6.903082	-0.002396	NaN	0.000000	0.001720	0.001778	28.0795	0.104319	0.002058	50.6922	138.444	-164.868	-0.026111	0.901459	-0.238434	-0.239719	-0.002396	50.6922	-0.238398	-542.642	4.415461E-6	NaN
427	1.000000	0.912774	7.36924e+06	-55739.1	1005.82	-29740.9	0.000000	0.000000	6.913113	0.028745	NaN	0.000000	0.001737	0.001774	28.0792	0.077072	0.002045	37.6813	38.597	16.1601	-0.015537	0.911414	-0.228404	-0.229764	0.028745	37.6813	-0.228976	-385.783	-7.451183E-5	NaN
427	1.000000	0.922772	7.36924e+06	-55739.1	1005.82	-29740.9	0.000000	0.000000	6.923108	-0.021277	NaN	0.000000	0.001769	0.001756	28.0796	0.101894	0.002012	50.6532	167.386	-165.192	-0.011578	0.921454	-0.218407	-0.219724	-0.021277	50.6532	-0.218092	-258.909	8.217900E-5	NaN
427	1.000000	0.932769	7.36924e+06	-55739.1	1005.82	-29740.9	0.000000	0.000000	6.933104	-0.039716	NaN	0.000000	0.001720	0.001799	28.0792	0.034777	0.001915	18.161	152.008	10.4286	-0.063956	0.931417	-0.208410	-0.209761	-0.039716	18.161	-0.206770	-169.975	0.000234	NaN
427	1.000000	0.942795	7.36924e+06	-55739.1	1005.82	-29740.9	0.000000	0.000000	6.943134	0.055702	NaN	0.000000	0.001723	0.001793	28.0794	0.060213	0.002020	29.8024	-147.225	-169.612	0.031965	0.941474	-0.198384	-0.199705	0.055702	29.8024	-0.199786	-130.671	-0.000426	NaN
427	1.000000	0.952791	7.36924e+06	-55739.1	1005.82	-29740.9	0.000000	0.000000	6.953127	-0.032649	NaN	0.000000	0.001746	0.001751	28.0793	0.059369	0.002016	29.4513	-120.649	17.0411	0.004096	0.951439	-0.188387	-0.189740	-0.032649	29.4513	-0.187556	-81.8679	0.000399	NaN
427	1.000000	0.962807	7.36924e+06	-55739.1	1005.82	-29740.9	0.000000	0.000000	6.963144	-0.007178	NaN	0.000000	0.001706	0.001773	28.0794	0.072099	0.001975	36.5097	-48.5101	-166.685	0.027455	0.961522	-0.178372	-0.179657	-0.007178	36.5097	-0.178224	-56.9119	0.000126	NaN
427	1.000000	0.972814	7.36924e+06	-55739.1	1005.82	-29740.9	0.000000	0.000000	6.973152	0.038447	NaN	0.000000	0.001722	0.001743	28.0793	0.050681	0.002179	23.255	83.4902	9.928963	0.022010	0.971429	-0.168365	-0.169750	0.038447	23.255	-0.169605	-40.434	-0.000951	NaN
427	1.000000	0.982765	7.36924e+06	-55739.1	1005.82	-29740.9	0.000000	0.000000	6.983103	0.039333	NaN	0.000000	0.001727	0.001752	28.0795	0.117408	0.002087	56.2493	168.313	-166.906	-0.035097	0.981472	-0.158414	-0.159707	0.039333	56.2493	-0.158938	-26.248	-0.001499	NaN
427	1.000000	0.992803	7.36924e+06	-55739.1	1005.82	-29740.9	0.000000	0.000000	6.993138	-0.041744	NaN	0.000000	0.001704	0.001733	28.0795	0.040426	0.001933	20.917	93.3028	14.2922	-0.018198	0.991454	-0.148375	-0.149725	-0.041744	20.917	-0.146879	-15.8792	0.002629	NaN
427	1.000000	1.002814	7.36924e+06	-55739.1	1005.82	-29740.9	0.000000	0.000000	7.003149	-0.055022	NaN	0.000000	0.001711	0.001725	28.0781	0.039611	0.002041	19.4046	100.688	-164.115	-0.059727	1.001475	-0.138364	-0.139703	-0.055022	19.4046	-0.136238	-10.0432	0.005479	NaN
427	1.000000	1.012796	7.36924e+06	-55739.1	1005.82	-29740.9	0.000000	0.000000	7.013133	0.001865	NaN	0.000000	0.001709	0.001759	28.0781	0.024004	0.001999	12.0091	108.619	15.0723	0.010931	1.011442	-0.128382	-0.129737	0.001865	12.0091	-0.128499	-7.124795	-0.000262	NaN
427	1.000000	1.022827	7.36924e+06	-55739.1	1005.82	-29740.9	0.000000	0.000000	7.023162	-0.036149	NaN	0.000000	0.001656	0.001763	28.0781	0.096445	0.001994	48.3669	87.8629	-168.407	-0.063154	1.021511	-0.118352	-0.119668	-0.036149	48.3669	-0.117791	-4.358114	0.008295	NaN
427	1.000000	1.032836	7.36924e+06	-55739.1	1005.82	-29740.9	0.000000	0.000000	7.033174	0.017371	NaN	0.000000	0.001668	0.001769	28.0784	0.050857	0.001932	26.3303	-12.3587	12.6732	-0.006020	1.031484	-0.108343	-0.109695	0.017371	26.3303	-0.108837	-2.839831	-0.006117	NaN
427	1.000000	1.042813	7.36924e+06	-55739.1	1005.82	-29740.9	0.000000	0.000000	7.043148	-0.037402	NaN	0.000000	0.001704	0.001757	28.0782	0.048271	0.002139	22.564	-14.2068	-168.123	0.025386	1.041513	-0.098366	-0.099666	-0.037402	22.564	-0.097122	-1.575749	0.023736	NaN
427	1.000000	1.052842	7.36924e+06	-55739.1	1005.82	-29740.9	0.000000	0.000000	7.053177	-0.058565	NaN	0.000000	0.001759	0.001777	28.0779	0.075093	0.002096	35.8345	133.716	15.0008	0.076630	1.051520	-0.088336	-0.089659	-0.058565	35.8345	-0.087111	-0.923463	0.063419	NaN
427	1.000000	1.062821	7.36924e+06	-55739.1	1005.82	-29740.9	0.000000	0.000000	7.063157	-0.011129	NaN	0.000000	0.001720	0.001749	28.0782	0.028590	0.002111	13.5404	-118.276	-166.543	0.037432	1.061516	-0.078358	-0.079662	-0.011129	13.5404	-0.077741	-0.542971	0.020497	NaN
427	1.000000	1.072827	7.36924e+06	-55739.1	1005.82	-29740.9	0.000000	0.000000	7.073163	-0.014898	NaN	0.000000	0.001739	0.001742	28.0781	0.060349	0.001985	30.4055	-175.512	12.3212	0.026413	1.071470	-0.068352	-0.069709	-0.014898	30.4055	-0.067984	-0.300962	0.049502	NaN
427	1.000000	1.082864	7.36924e+06	-55739.1	1005.82	-29740.9	0.000000	0.000000	7.083202	0.040108	NaN	0.000000	0.001704	0.001774	28.0782	0.056643	0.001976	28.6639	117.232	-163.815	0.148811	1.081557	-0.058315	-0.059622	0.040108	28.6639	-0.059364	-0.172674	-0.232277	NaN
427	1.000000	1.092842	7.36924e+06	-55739.1	1005.82	-29740.9	0.000000	0.000000	7.093181	0.046271	NaN	0.000000	0.001756	0.001763	28.0779	0.060298	0.002083	28.9438	163.032	13.2019	0.007121	1.091476	-0.048337	-0.049703	0.046271	28.9438	-0.049536	-0.088346	-0.523744	NaN
427	1.000000	1.102844	7.36924e+06	-55739.1	1005.82	-29740.9	0.000000	0.000000	7.103180	-0.015741	NaN	0.000000	0.001734	0.001765	28.0785	0.098099	0.001898	51.6743	-19.9467	-165.469	-0.009983	1.101561	-0.038335	-0.039617	-0.015741	51.6743	-0.038106	-0.039633	0.397179	NaN
427	1.000000	1.112860	7.36924e+06	-55739.1	1005.82	-29740.9	0.000000	0.000000	7.113199	0.039041	NaN	0.000000	0.001759	0.001807	28.0783	0.030518	0.002033	15.008	-154.964	15.0326	0.020671	1.111537	-0.028318	-0.029642	0.039041	15.008	-0.030269	-0.023415	-1.667386	NaN
427	1.000000	1.122859	7.36924e+06	-55739.1	1005.82	-29740.9	0.000000	0.000000	7.123197	0.024579	NaN	0.000000	0.001750	0.001797	28.0783	0.065684	0.002003	32.7993	10.5996	-166.599	0.026861	1.121586	-0.018319	-0.019593	0.024579	32.7993	-0.018881	-0.011762	-2.089685	NaN
427	1.000000	1.132861	7.36924e+06	-55739.1	1005.82	-29740.9	0.000000	0.000000	7.133313	2.798249	NaN	0.000000	0.001806	0.001787	28.0794	1.572498	0.001832	858.503	8.115550	12.5461	2.156007	1.131492	-0.008318	-0.009687	2.798249	858.503	-0.010762	-0.006822	-410.152	NaN
427	1.000000	1.142874	7.36924e+06	-55739.1	1005.82	-29740.9	0.000000	0.000000	7.143512	7.301881	NaN	0.000000	0.001755	0.001762	28.0796	2.000687	0.001889	1059.21	9.748118	-169.326	6.941163	1.141574	0.001696	0.000396	7.301881	1059.21	-0.003475	-0.002436	-2997.76	NaN
427	1.000000	1.152872	7.36924e+06	-55739.1	1005.82	-29740.9	0.000000	0.000000	7.153412	4.939089	NaN	0.000000	0.001728	0.001783	28.0794	5.148430	0.001999	2575.64	11.0037	11.8826	4.626717	1.151522	0.011694	0.010343	4.939089	2575.64	0.010255	0.009467	521.736	24185.8
427	2.000000	1.158488	7.36924e+06	-55739.1	1005.82	-29740.9	0.000000	0.000000	7.159166	8.295580	NaN	0.000000	0.001758	0.001771	28.0795	9.356048	0.001745	5360.46	5.859235	-173.083	7.807363	1.158145	0.017309	0.016966	8.295580	5360.46	0.016148	0.016848	492.392	37731.8
427	2.000000	1.160930	7.36924e+06	-55739.1	1005.82	-29740.9	0.000000	0.000000	7.161726	11.1593	NaN	0.000000	0.001777	0.001766	28.0797	11.9877	0.001649	7270.97	3.664671	7.007913	10.1319	1.160579	0.019751	0.019400	11.1593	7270.97	0.018600	0.020390	547.281	46521.3
427	2.000000	1.163359	7.36924e+06	-55739.1	1005.82	-29740.9	0.000000	0.000000	7.164385	16.7485	NaN	0.000000	0.001759	0.001760	28.0798	14.7372	0.001671	8820.02	7.161732	-177.287	15.4442	1.163126	0.022181	0.021947	16.7485	8820.02	0.020757	0.023745	705.344	52294.4
427	2.000000	1.165852	7.36924e+06	-55739.1	1005.82	-29740.9	0.000000	0.000000	7.166934	18.104	NaN	0.000000	0.001746	0.001775	28.0796	16.872	0.001835	9192.24	7.181659	4.541730	16.6751	1.165557	0.024674	0.024379	18.104	9192.24	0.023197	0.027816	650.837	50355.1
427	2.000000	1.168406	7.36924e+06	-55739.1	1005.82	-29740.9	0.000000	0.000000	7.169659	22.267	NaN	0.000000	0.001754	0.001780	28.0795	19.2069	0.001708	11245.8	8.323539	179.482	21.9139	1.168038	0.027227	0.026859	22.267	11245.8	0.025742	0.032380	687.677	57098.7
427	2.000000	1.170901	7.36924e+06	-55739.1	1005.82	-29740.9	0.000000	0.000000	7.172215	23.7328	NaN	0.000000	0.001738	0.001783	28.0799	20.6162	0.001713	12035.1	8.518021	0.789747	23.5651	1.170492	0.029723	0.029313	23.7328	12035.1	0.028244	0.037182	638.285	57023.7
427	2.000000	1.173397	7.36924e+06	-55739.1	1005.82	-29740.9	0.000000	0.000000	7.174925	28.9419	NaN	0.000000	0.001724	0.001785	28.0796	22.5807	0.001646	13719.1	6.380373	-179.516	29.2314	1.172956	0.032218	0.031777	28.9419	13719.1	0.030636	0.042073	687.904	61108.3
427	2.000000	1.175906	7.36924e+06	-55739.1	1005.82	-29740.9	0.000000	0.000000	7.177552	31.8048	NaN	0.000000	0.001731	0.001805	28.0797	25.6626	0.001748	14681.6	10.1501	-2.964126	33.2934	1.175512	0.034728	0.034333	31.8048	14681.6	0.033103	0.047421	670.691	61597.2
427	2.000000	1.178396	7.36924e+06	-55739.1	1005.82	-29740.9	0.000000	0.000000	7.180268	37.3247	NaN	0.000000	0.001715	0.001811	28.0794	28.8995	0.002023	14282.1	7.229504	-179.702	37.6417	1.178030	0.037217	0.036852	37.3247	14282.1	0.035257	0.052346	713.033	57032.4
427	2.000000	1.180856	7.36924e+06	-55739.1	1005.82	-29740.9	0.000000	0.000000	7.182934	42.3223	NaN	0.000000	0.001717	0.001816	28.0805	30.8335	0.001827	16875.5	6.950284	-1.853801	40.915	1.180489	0.039678	0.039311	42.3223	16875.5	0.037797	0.058459	723.968	63768.5
427	2.000000	1.183416	7.36924e+06	-55739.1	1005.82	-29740.9	0.000000	0.000000	7.185784	49.3703	NaN	0.000000	0.001744	0.001763	28.0794	32.4264	0.001792	18091.7	6.534434	178.879	51.3315	1.183001	0.042237	0.041822	49.3703	18091.7	0.040191	0.064522	765.174	65072.7
427	2.000000	1.185884	7.36924e+06	-55739.1	1005.82	-29740.9	0.000000	0.000000	7.188431	53.7152	NaN	0.000000	0.001721	0.001798	28.0791	35.8481	0.001891	18957.8	9.372269	-4.486494	54.2915	1.185466	0.044706	0.044287	53.7152	18957.8	0.042580	0.070867	757.97	65063.7
427	2.000000	1.188356	7.36924e+06	-55739.1	1005.82	-29740.9	0.000000	0.000000	7.191235	61.7889	NaN	0.000000	0.001738	0.001749	28.0783	36.6895	0.001732	21186	-1.591614	-175.411	62.6055	1.188075	0.047177	0.046896	61.7889	21186	0.044990	0.077558	796.679	69503.8
427	2.000000	1.190828	7.36924e+06	-55739.1	1005.82	-29740.9	0.000000	0.000000	7.194126	71.9594	NaN	0.000000	0.001708	0.001777	28.0785	39.9146	0.001816	21981.8	9.094357	-4.839391	69.902	1.190430	0.049650	0.049251	71.9594	21981.8	0.047195	0.083939	857.277	69319.3
427	2.000000	1.193333	7.36924e+06	-55739.1	1005.82	-29740.9	0.000000	0.000000	7.196815	76.4678	NaN	0.000000	0.001731	0.001755	28.078	41.9211	0.001734	24179.7	2.477795	179.557	76.7301	1.193059	0.052154	0.051881	76.4678	24179.7	0.049782	0.091741	833.521	72936.1
427	2.000000	1.195889	7.36924e+06	-55739.1	1005.82	-29740.9	0.000000	0.000000	7.199600	82.0229	NaN	0.000000	0.001706	0.001759	28.0785	45.1074	0.001763	25584	4.787918	-3.124473	83.0163	1.195471	0.054710	0.054293	82.0229	25584	0.052306	0.099673	822.917	74037.7
427	2.000000	1.198270	7.36924e+06	-55739.1	1005.82	-29740.9	0.000000	0.000000	7.202564	96.1929	NaN	0.000000	0.001703	0.001747	28.0784	47.7635	0.001701	28082	5.050446	175.722	94.0817	1.198019	0.057091	0.056841	96.1929	28082	0.054522	0.106902	899.82	78470.6
427	2.000000	1.200862	7.36924e+06	-55739.1	1005.82	-29740.9	0.000000	0.000000	7.205599	106.963	NaN	0.000000	0.001724	0.001747	28.0795	48.7447	0.001806	26985.8	3.695764	-1.776456	106.024	1.200459	0.059684	0.059280	106.963	26985.8	0.056711	0.114278	935.991	72933.4
427	2.000000	1.203281	7.36924e+06	-55739.1	1005.82	-29740.9	0.000000	0.000000	7.208091	108.725	NaN	0.000000	0.001742	0.001754	28.0781	51.1654	0.001650	31011.3	2.645166	176.336	106.353	1.203067	0.062102	0.061889	108.725	31011.3	0.059473	0.123925	877.344	80484.8
427	2.000000	1.205800	7.36924e+06	-55739.1	1005.82	-29740.9	0.000000	0.000000	7.211051	119.447	NaN	0.000000	0.001729	0.001726	28.0783	54.4116	0.001843	29526.8	5.304760	-5.153648	118.864	1.205515	0.064621	0.064336	119.447	29526.8	0.061587	0.131561	907.915	74374.8
427	2.000000	1.208299	7.36924e+06	-55739.1	1005.82	-29740.9	0.000000	0.000000	7.213940	128.913	NaN	0.000000	0.001720	0.001772	28.0783	56.5016	0.001787	31615	1.397948	178.221	128.127	1.208010	0.067121	0.066831	128.913	31615	0.064063	0.140778	915.722	76983.9
427	2.000000	1.210799	7.36924e+06	-55739.1	1005.82	-29740.9	0.000000	0.000000	7.217164	146.53	NaN	0.000000	0.001721	0.001752	28.0787	58.8755	0.001756	33537.1	2.854424	-3.149566	145.038	1.210465	0.069620	0.069286	146.53	33537.1	0.066343	0.149532	979.925	79237.7
427	2.000000	1.213263	7.36924e+06	-55739.1	1005.82	-29740.9	0.000000	0.000000	7.219955	154.479	NaN	0.000000	0.001714	0.001777	28.0785	61.8662	0.001815	34092.5	5.692254	173.261	151.832	1.213058	0.072085	0.071879	154.479	34092.5	0.068686	0.158785	972.88	78167.7
427	2.000000	1.215717	7.36924e+06	-55739.1	1005.82	-29740.9	0.000000	0.000000	7.223157	172.669	NaN	0.000000	0.001755	0.001733	28.0784	62.8355	0.001681	37372.9	-0.047082	-1.706991	169.431	1.215476	0.074538	0.074297	172.669	37372.9	0.071073	0.168481	1024.86	83187
427	2.000000	1.218300	7.36924e+06	-55739.1	1005.82	-29740.9	0.000000	0.000000	7.226364	187.824	NaN	0.000000	0.001725	0.001764	28.0785	67.6575	0.001839	36789	5.495443	172.979	186.556	1.218010	0.077122	0.076832	187.824	36789	0.073293	0.177739	1056.74	79725.9
427	2.000000	1.220700	7.36924e+06	-55739.1	1005.82	-29740.9	0.000000	0.000000	7.229575	207.534	NaN	0.000000	0.001753	0.001784	28.0795	68.6128	0.001860	36893.8	4.322654	-5.609626	200.502	1.220342	0.079522	0.079163	207.534	36893.8	0.075303	0.186326	1113.82	78088.9
427	2.000000	1.223210	7.36924e+06	-55739.1	1005.82	-29740.9	0.000000	0.000000	7.232970	229.066	NaN	0.000000	0.001728	0.001774	28.0794	71.3231	0.001771	40270.8	6.491578	170.911	224.168	1.222887	0.082031	0.081708	229.066	40270.8	0.077765	0.197101	1162.18	82874.2
427	2.000000	1.225766	7.36924e+06	-55739.1	1005.82	-29740.9	0.000000	0.000000	7.236128	243.668	NaN	0.000000	0.001723	0.001742	28.0794	73.6693	0.001692	43532.9	5.303620	-8.536574	241.979	1.225487	0.084588	0.084309	243.668	43532.9	0.080390	0.208901	1166.43	87020.1
427	2.000000	1.228291	7.36924e+06	-55739.1	1005.82	-29740.9	0.000000	0.000000	7.239413	262.179	NaN	0.000000	0.001714	0.001785	28.0796	78.1277	0.001781	43862.4	8.278733	168.229	261.326	1.227975	0.087112	0.086797	262.179	43862.4	0.082629	0.219222	1195.95	85590.1
427	2.000000	1.230789	7.36924e+06	-55739.1	1005.82	-29740.9	0.000000	0.000000	7.242914	286.545	NaN	0.000000	0.001716	0.001736	28.0799	80.2133	0.001872	42839.2	8.937041	-11.1609	285.44	1.230318	0.089610	0.089140	286.545	42839.2	0.084593	0.228465	1254.22	81885
427	2.000000	1.233229	7.36924e+06	-55739.1	1005.82	-29740.9	0.000000	0.000000	7.246144	305.762	NaN	0.000000	0.001702	0.001772	28.0794	81.1751	0.001770	45864.6	5.514856	171.292	302.463	1.232952	0.092050	0.091774	305.762	45864.6	0.087050	0.240278	1272.53	85485.7
427	2.000000	1.235812	7.36924e+06	-55739.1	1005.82	-29740.9	0.000000	0.000000	7.249659	328.386	NaN	0.000000	0.001718	0.001758	28.0797	85.5047	0.001892	45190.9	6.458066	-9.370518	327.899	1.235346	0.094634	0.094167	328.386	45190.9	0.089184	0.250763	1309.55	82450.5
427	2.000000	1.238270	7.36924e+06	-55739.1	1005.82	-29740.9	0.000000	0.000000	7.253155	353.628	NaN	0.000000	0.001698	0.001729	28.0795	87.8206	0.001868	47014.3	5.201252	171.047	353.221	1.237916	0.097092	0.096737	353.628	47014.3	0.091450	0.262129	1349.06	83896.7
427	2.000000	1.240939	7.36924e+06	-55739.1	1005.82	-29740.9	0.000000	0.000000	7.256723	375.499	NaN	0.000000	0.001723	0.001750	28.0797	89.8729	0.001802	49874	8.612009	-11.5719	382.376	1.240435	0.099760	0.099256	375.499	49874	0.094113	0.275786	1361.56	86768.3
427	2.000000	1.243280	7.36924e+06	-55739.1	1005.82	-29740.9	0.000000	0.000000	7.259942	396.823	NaN	0.000000	0.001734	0.001754	28.0795	91.47	0.001760	51968.1	6.707134	169.005	396.916	1.242970	0.102102	0.101791	396.823	51968.1	0.096375	0.287635	1379.61	88529.7
427	2.000000	1.245753	7.36924e+06	-55739.1	1005.82	-29740.9	0.000000	0.000000	7.263681	427.601	NaN	0.000000	0.001748	0.001751	28.0798	93.8969	0.001800	52171.9	2.377081	-6.645508	424.298	1.245398	0.104574	0.104219	427.601	52171.9	0.098427	0.298594	1432.05	87230.6
427	2.000000	1.248215	7.36924e+06	-55739.1	1005.82	-29740.9	0.000000	0.000000	7.267260	454.766	NaN	0.000000	0.001698	0.001783	28.0794	96.7566	0.001780	54343.9	3.773965	172.055	452.048	1.247894	0.107036	0.106716	454.766	54343.9	0.100760	0.311279	1460.96	88991.7
427	2.000000	1.250662	7.36924e+06	-55739.1	1005.82	-29740.9	0.000000	0.000000	7.270848	482.492	NaN	0.000000	0.001715	0.001725	28.0796	98.4195	0.001761	55892.8	7.153299	-11.9244	474.434	1.250388	0.109483	0.109209	482.492	55892.8	0.103009	0.323744	1490.35	89748.8
427	2.000000	1.253287	7.36924e+06	-55739.1	1005.82	-29740.9	0.000000	0.000000	7.274514	507.785	NaN	0.000000	0.001704	0.001725	28.0784	100.605	0.001723	58391.2	7.127623	168.135	509.664	1.252890	0.112109	0.111711	507.785	58391.2	0.105586	0.338311	1500.94	91719.6
427	2.000000	1.255133	7.36924e+06	-55739.1	1005.82	-29740.9	0.000000	0.000000	7.277419	533.531	NaN	0.000000	0.001740	0.001770	28.0784	102.43	0.001763	58089.4	1.989735	173.091	526.4	1.254880	0.113955	0.113702	533.531	58089.4	0.107066	0.346811	1538.39	90120.5