File: remote_trans/data/nanoindenter/0828-1/data/Data_2025-08-06,11h17m57s/2025-07-22_16-23-58_1_543.txt
2025-07-22, 16:23:58, 1
Index	Phase	Displacement	Time	Pos X	Pos Y	Pos Z	Rot A	Rot B	Piezo Z	Force A	Force B	Gripper	Voltage A	Voltage B	Temperature	Amplitude force	Amplitude pos	Stiffness	Phase shift	Phase excitation	Force A raw	Displacement raw	HMax	HMax raw	Real Force	Real Stiffness	Contact Depth	Area	Hardness	Reduced Mod.
[#]	[#]	[um]	[s]	[um]	[um]	[um]	[m°]	[m°]	[um]	[uN]	[uN]	[V]	[V]	[V]	[°C]	[uN]	[um]	[N/m]	[°]	[°]	[uN]	[um]	[um]	[um]	[uN]	[N/m]	[um]	[um^2]	[MPa]	[MPa]
543	1.000000	0.002550	7.37036e+06	-49939.1	1005.82	-29757.3	0.000000	0.000000	6.002817	-0.072027	NaN	0.000000	0.001646	0.001752	28.0825	0.051585	0.001055	48.8859	-85.5663	-166.623	-0.097380	0.001259	-1.140832	-1.142124	-0.072027	48.8859	-1.139727	-1.710319E+15	4.211332E-17	NaN
543	1.000000	0.012587	7.37036e+06	-49939.1	1005.82	-29757.3	0.000000	0.000000	6.012858	0.017585	NaN	0.000000	0.001635	0.001770	28.082	0.058885	0.001316	44.7304	-54.6959	23.3149	0.040525	0.011200	-1.130795	-1.132183	0.017585	44.7304	-1.131090	-1.309915E+15	-1.342416E-17	NaN
543	1.000000	0.022491	7.37036e+06	-49939.1	1005.82	-29757.3	0.000000	0.000000	6.022762	0.025597	NaN	0.000000	0.001610	0.001792	28.082	0.008527	0.001704	5.003395	147.642	-164.172	-0.044745	0.021179	-1.120892	-1.122203	0.025597	5.003395	-1.124729	-1.076249E+15	-2.378347E-17	NaN
543	1.000000	0.032466	7.37036e+06	-49939.1	1005.82	-29757.3	0.000000	0.000000	6.032736	-0.006008	NaN	0.000000	0.001663	0.001775	28.0822	0.059250	0.002061	28.7454	149.633	15.5376	-0.078010	0.031132	-1.110916	-1.112250	-0.006008	28.7454	-1.110759	-6.990003E+14	8.594875E-18	NaN
543	1.000000	0.042483	7.37036e+06	-49939.1	1005.82	-29757.3	0.000000	0.000000	6.042751	-0.064817	NaN	0.000000	0.001669	0.001765	28.082	0.066215	0.001937	34.1884	30.4989	-162.538	-0.072688	0.041197	-1.100899	-1.102186	-0.064817	34.1884	-1.099477	-4.932329E+14	1.314122E-16	NaN
543	1.000000	0.052484	7.37036e+06	-49939.1	1005.82	-29757.3	0.000000	0.000000	6.052751	-0.072380	NaN	0.000000	0.001658	0.001743	28.0824	0.110091	0.001864	59.0546	21.2958	14.3012	-0.045239	0.051137	-1.090898	-1.092245	-0.072380	59.0546	-1.089979	-3.677295E+14	1.968287E-16	NaN
543	1.000000	0.062457	7.37036e+06	-49939.1	1005.82	-29757.3	0.000000	0.000000	6.062727	0.002287	NaN	0.000000	0.001638	0.001772	28.0822	0.000389	0.001833	0.212115	64.68	-164.409	0.011432	0.061127	-1.080926	-1.082256	0.002287	0.212115	-1.089012	-3.568999E+14	-6.407981E-18	NaN
543	1.000000	0.072510	7.37036e+06	-49939.1	1005.82	-29757.3	0.000000	0.000000	6.072777	-0.095367	NaN	0.000000	0.001677	0.001759	28.0824	0.061535	0.001949	31.5731	1.533634	14.758	-0.073698	0.071082	-1.070872	-1.072301	-0.095367	31.5731	-1.068607	-1.898756E+14	5.022582E-16	NaN
543	1.000000	0.082474	7.37036e+06	-49939.1	1005.82	-29757.3	0.000000	0.000000	6.082743	-0.032323	NaN	0.000000	0.001650	0.001764	28.0821	0.059356	0.002231	26.6069	-145.184	-162.562	-0.077848	0.081156	-1.060908	-1.062226	-0.032323	26.6069	-1.059997	-1.454740E+14	2.221878E-16	NaN
543	1.000000	0.092476	7.37036e+06	-49939.1	1005.82	-29757.3	0.000000	0.000000	6.092747	0.015936	NaN	0.000000	0.001586	0.001747	28.0822	0.020705	0.001979	10.4602	46.4064	13.9009	-0.053955	0.091161	-1.050906	-1.052221	0.015936	10.4602	-1.052049	-1.137515E+14	-1.400925E-16	NaN
543	1.000000	0.102493	7.37036e+06	-49939.1	1005.82	-29757.3	0.000000	0.000000	6.102760	-0.080041	NaN	0.000000	0.001595	0.001726	28.0811	0.050026	0.002083	24.0121	-56.0823	-167.131	-0.081819	0.101228	-1.040890	-1.042154	-0.080041	24.0121	-1.038390	-7.452690E+13	1.073984E-15	NaN
543	1.000000	0.112508	7.37036e+06	-49939.1	1005.82	-29757.3	0.000000	0.000000	6.112776	-0.045867	NaN	0.000000	0.001655	0.001721	28.0809	0.084298	0.001903	44.2915	-52.2208	12.5666	-0.126755	0.111130	-1.030875	-1.032253	-0.045867	44.2915	-1.030098	-5.765000E+13	7.956158E-16	NaN
543	1.000000	0.122477	7.37036e+06	-49939.1	1005.82	-29757.3	0.000000	0.000000	6.122745	-0.050673	NaN	0.000000	0.001616	0.001752	28.0811	0.067126	0.002084	32.2159	-87.3937	-164.378	-0.031589	0.121180	-1.020905	-1.022202	-0.050673	32.2159	-1.019725	-4.180793E+13	1.212043E-15	NaN
543	1.000000	0.132505	7.37036e+06	-49939.1	1005.82	-29757.3	0.000000	0.000000	6.132774	-0.046872	NaN	0.000000	0.001606	0.001734	28.0808	0.074010	0.002132	34.7058	-108.247	9.799207	-0.033355	0.131130	-1.010877	-1.012252	-0.046872	34.7058	-1.009864	-3.080015E+13	1.521821E-15	NaN
543	1.000000	0.142497	7.37036e+06	-49939.1	1005.82	-29757.3	0.000000	0.000000	6.142764	-0.068866	NaN	0.000000	0.001632	0.001712	28.081	0.141828	0.001976	71.769	116.992	-165.368	-0.051499	0.141222	-1.000886	-1.002160	-0.068866	71.769	-1.000166	-2.280363E+13	3.019938E-15	NaN
543	1.000000	0.152523	7.37036e+06	-49939.1	1005.82	-29757.3	0.000000	0.000000	6.152792	-0.022828	NaN	0.000000	0.001680	0.001730	28.0811	0.079915	0.001910	41.8327	-34.8264	16.5987	0.005656	0.151192	-0.990860	-0.992191	-0.022828	41.8327	-0.990451	-1.687252E+13	1.352982E-15	NaN
543	1.000000	0.162512	7.37036e+06	-49939.1	1005.82	-29757.3	0.000000	0.000000	6.162782	-0.000705	NaN	0.000000	0.001652	0.001701	28.0808	0.021441	0.002066	10.3782	-12.6745	-163.598	-0.024351	0.161234	-0.980870	-0.982148	-0.000705	10.3782	-0.980819	-1.251547E+13	5.636790E-17	NaN
543	1.000000	0.172517	7.37036e+06	-49939.1	1005.82	-29757.3	0.000000	0.000000	6.172787	0.000624	NaN	0.000000	0.001621	0.001772	28.0811	0.088011	0.002118	41.5521	162.406	13.8041	0.031873	0.171107	-0.970866	-0.972275	0.000624	41.5521	-0.970877	-9.193553E+12	-6.789108E-17	NaN
543	1.000000	0.182539	7.37036e+06	-49939.1	1005.82	-29757.3	0.000000	0.000000	6.182806	-0.069324	NaN	0.000000	0.001630	0.001719	28.0809	0.053149	0.002017	26.3524	46.4977	-165.095	-0.063845	0.181233	-0.960844	-0.962149	-0.069324	26.3524	-0.958871	-6.333530E+12	1.094556E-14	NaN
543	1.000000	0.192522	7.37036e+06	-49939.1	1005.82	-29757.3	0.000000	0.000000	6.192790	-0.055764	NaN	0.000000	0.001613	0.001741	28.0808	0.044959	0.001903	23.6193	120.864	13.0031	-0.057262	0.191195	-0.950860	-0.952187	-0.055764	23.6193	-0.949090	-4.674638E+12	1.192906E-14	NaN
543	1.000000	0.202535	7.37036e+06	-49939.1	1005.82	-29757.3	0.000000	0.000000	6.202805	0.003722	NaN	0.000000	0.001590	0.001735	28.0808	0.071789	0.002042	35.1638	172.992	-165.832	0.000172	0.201228	-0.940847	-0.942154	0.003722	35.1638	-0.940927	-3.627755E+12	-1.025985E-15	NaN
543	1.000000	0.212567	7.37036e+06	-49939.1	1005.82	-29757.3	0.000000	0.000000	6.212837	0.001793	NaN	0.000000	0.001617	0.001768	28.0809	0.101696	0.002020	50.3437	-114.122	14.8338	0.019739	0.211187	-0.930815	-0.932196	0.001793	50.3437	-0.930842	-2.651937E+12	-6.760529E-16	NaN
543	1.000000	0.222553	7.37036e+06	-49939.1	1005.82	-29757.3	0.000000	0.000000	6.222823	-0.011928	NaN	0.000000	0.001641	0.001735	28.081	0.051354	0.001923	26.698	2.467246	-165.986	-0.017793	0.221230	-0.920829	-0.922152	-0.011928	26.698	-0.920494	-1.922536E+12	6.204066E-15	NaN
543	1.000000	0.232540	7.37036e+06	-49939.1	1005.82	-29757.3	0.000000	0.000000	6.232810	-0.016005	NaN	0.000000	0.001616	0.001727	28.0807	0.017661	0.002099	8.412298	-55.4841	16.6998	0.007524	0.231176	-0.910842	-0.912207	-0.016005	8.412298	-0.909415	-1.362278E+12	1.174861E-14	NaN
543	1.000000	0.242573	7.37036e+06	-49939.1	1005.82	-29757.3	0.000000	0.000000	6.242840	-0.070497	NaN	0.000000	0.001600	0.001799	28.082	0.054560	0.001921	28.4031	136.167	-164.148	-0.150739	0.241232	-0.900809	-0.902150	-0.070497	28.4031	-0.898948	-9.836625E+11	7.166750E-14	NaN
543	1.000000	0.252582	7.37036e+06	-49939.1	1005.82	-29757.3	0.000000	0.000000	6.252851	-0.037706	NaN	0.000000	0.001615	0.001774	28.0823	0.054829	0.001982	27.6577	-22.5518	18.0824	-0.095232	0.251248	-0.890800	-0.892135	-0.037706	27.6577	-0.889778	-7.394517E+11	5.099205E-14	NaN
543	1.000000	0.262562	7.37036e+06	-49939.1	1005.82	-29757.3	0.000000	0.000000	6.262834	0.034294	NaN	0.000000	0.001635	0.001823	28.0819	0.065420	0.001957	33.4253	38.4847	-165.561	0.022833	0.261277	-0.880820	-0.882105	0.034294	33.4253	-0.881589	-5.730640E+11	-5.984320E-14	NaN
543	1.000000	0.272565	7.37036e+06	-49939.1	1005.82	-29757.3	0.000000	0.000000	6.272834	-0.025944	NaN	0.000000	0.001592	0.001735	28.0822	0.060448	0.002093	28.8792	-2.472199	18.7174	-0.057095	0.271199	-0.870818	-0.872183	-0.025944	28.8792	-0.870144	-4.012301E+11	6.466004E-14	NaN
543	1.000000	0.282556	7.37036e+06	-49939.1	1005.82	-29757.3	0.000000	0.000000	6.282823	-0.051217	NaN	0.000000	0.001616	0.001745	28.0821	0.043634	0.001865	23.3939	117.731	-163.596	-0.109165	0.281288	-0.860827	-0.862094	-0.051217	23.3939	-0.859185	-2.851597E+11	1.796095E-13	NaN
543	1.000000	0.292584	7.37036e+06	-49939.1	1005.82	-29757.3	0.000000	0.000000	6.292855	0.022017	NaN	0.000000	0.001608	0.001785	28.0827	0.045191	0.001911	23.6501	75.395	14.8802	-0.031514	0.291250	-0.850798	-0.852132	0.022017	23.6501	-0.851496	-2.243874E+11	-9.812072E-14	NaN
543	1.000000	0.302594	7.37036e+06	-49939.1	1005.82	-29757.3	0.000000	0.000000	6.302863	-0.043814	NaN	0.000000	0.001599	0.001734	28.0822	0.081127	0.001982	40.9267	54.9302	-163.316	-0.017432	0.301317	-0.840788	-0.842065	-0.043814	40.9267	-0.839985	-1.567079E+11	2.795889E-13	NaN
543	1.000000	0.312589	7.37036e+06	-49939.1	1005.82	-29757.3	0.000000	0.000000	6.312854	-0.121416	NaN	0.000000	0.001612	0.001761	28.0825	0.062726	0.002007	31.2484	134.134	11.0066	-0.069618	0.311222	-0.830794	-0.832160	-0.121416	31.2484	-0.827879	-1.074089E+11	1.130408E-12	NaN
543	1.000000	0.322614	7.37036e+06	-49939.1	1005.82	-29757.3	0.000000	0.000000	6.322883	-0.028901	NaN	0.000000	0.001600	0.001787	28.0828	0.052577	0.002010	26.1636	95.0125	-162.949	-0.018434	0.321247	-0.820768	-0.822136	-0.028901	26.1636	-0.819940	-8.382877E+10	3.447651E-13	NaN
543	1.000000	0.332597	7.37036e+06	-49939.1	1005.82	-29757.3	0.000000	0.000000	6.332866	-0.020144	NaN	0.000000	0.001636	0.001775	28.0826	0.039889	0.001969	20.2549	2.859400	17.5697	-0.016150	0.331263	-0.810786	-0.812119	-0.020144	20.2549	-0.810040	-6.153327E+10	3.273606E-13	NaN
543	1.000000	0.342606	7.37036e+06	-49939.1	1005.82	-29757.3	0.000000	0.000000	6.342873	-0.073991	NaN	0.000000	0.001628	0.001739	28.0827	0.121184	0.001889	64.1617	173.009	-165.806	-0.034552	0.341283	-0.800776	-0.802099	-0.073991	64.1617	-0.799911	-4.483909E+10	1.650150E-12	NaN
543	1.000000	0.352603	7.37036e+06	-49939.1	1005.82	-29757.3	0.000000	0.000000	6.352872	-0.036459	NaN	0.000000	0.001599	0.001746	28.0825	0.053447	0.002047	26.1055	-139.145	15.3598	0.023747	0.351210	-0.790779	-0.792173	-0.036459	26.1055	-0.789732	-3.261682E+10	1.117812E-12	NaN
543	1.000000	0.362592	7.37036e+06	-49939.1	1005.82	-29757.3	0.000000	0.000000	6.362859	-0.068493	NaN	0.000000	0.001604	0.001738	28.0827	0.060073	0.001947	30.8473	-29.0907	-166.173	-0.062308	0.361322	-0.780791	-0.782061	-0.068493	30.8473	-0.779126	-2.340718E+10	2.926161E-12	NaN
543	1.000000	0.372582	7.37036e+06	-49939.1	1005.82	-29757.3	0.000000	0.000000	6.372851	-0.018061	NaN	0.000000	0.001593	0.001723	28.0814	0.098662	0.002105	46.8742	-151.692	17.1762	-0.028657	0.371245	-0.770800	-0.772138	-0.018061	46.8742	-0.770511	-1.787552E+10	1.010390E-12	NaN
543	1.000000	0.382594	7.37036e+06	-49939.1	1005.82	-29757.3	0.000000	0.000000	6.382863	-0.035048	NaN	0.000000	0.001629	0.001763	28.0813	0.077076	0.001843	41.8149	-174.876	-162.74	0.041957	0.381283	-0.760788	-0.762099	-0.035048	41.8149	-0.760160	-1.292636E+10	2.711392E-12	NaN
543	1.000000	0.392647	7.37036e+06	-49939.1	1005.82	-29757.3	0.000000	0.000000	6.392915	-0.040823	NaN	0.000000	0.001598	0.001798	28.0809	0.096507	0.002154	44.8128	49.485	16.9479	0.002254	0.391267	-0.750736	-0.752115	-0.040823	44.8128	-0.750052	-9.417427E+9	4.334830E-12	NaN
543	1.000000	0.402644	7.37036e+06	-49939.1	1005.82	-29757.3	0.000000	0.000000	6.402913	-0.031512	NaN	0.000000	0.001606	0.001750	28.0811	0.083631	0.001924	43.4607	86.7938	-165.924	-0.045807	0.401314	-0.740739	-0.742069	-0.031512	43.4607	-0.740195	-6.913707E+9	4.557857E-12	NaN
543	1.000000	0.412629	7.37036e+06	-49939.1	1005.82	-29757.3	0.000000	0.000000	6.412892	-0.165011	NaN	0.000000	0.001633	0.001750	28.0811	0.099421	0.001977	50.2993	-28.3033	15.3781	-0.111890	0.411320	-0.730754	-0.732062	-0.165011	50.2993	-0.728293	-4.759325E+9	3.467099E-11	NaN
543	1.000000	0.422616	7.37036e+06	-49939.1	1005.82	-29757.3	0.000000	0.000000	6.422886	-0.014704	NaN	0.000000	0.001583	0.001762	28.0812	0.036642	0.002050	17.8782	5.138446	-167.168	-0.022753	0.421306	-0.720766	-0.722076	-0.014704	17.8782	-0.720149	-3.685622E+9	3.989512E-12	NaN
543	1.000000	0.432658	7.37036e+06	-49939.1	1005.82	-29757.3	0.000000	0.000000	6.432926	-0.037768	NaN	0.000000	0.001588	0.001752	28.0813	0.053803	0.001941	27.7127	71.9398	13.3417	-0.034291	0.431279	-0.710725	-0.712104	-0.037768	27.7127	-0.709703	-2.654551E+9	1.422778E-11	NaN
543	1.000000	0.442654	7.37036e+06	-49939.1	1005.82	-29757.3	0.000000	0.000000	6.442923	-0.028465	NaN	0.000000	0.001657	0.001739	28.0811	0.078616	0.002032	38.6903	116.656	-165.365	-0.122712	0.441325	-0.700729	-0.702057	-0.028465	38.6903	-0.700177	-1.967644E+9	1.446638E-11	NaN
543	1.000000	0.452640	7.37036e+06	-49939.1	1005.82	-29757.3	0.000000	0.000000	6.452908	-0.032477	NaN	0.000000	0.001634	0.001752	28.0811	0.097971	0.001975	49.6162	131.246	11.274	0.029217	0.451317	-0.690743	-0.692065	-0.032477	49.6162	-0.690252	-1.439989E+9	2.255347E-11	NaN
543	1.000000	0.462621	7.37036e+06	-49939.1	1005.82	-29757.3	0.000000	0.000000	6.462890	-0.040203	NaN	0.000000	0.001652	0.001728	28.0813	0.078929	0.002002	39.4184	-111.154	-163.237	-0.065433	0.461393	-0.680761	-0.681989	-0.040203	39.4184	-0.679996	-1.042690E+9	3.855692E-11	NaN
543	1.000000	0.472655	7.37036e+06	-49939.1	1005.82	-29757.3	0.000000	0.000000	6.472920	-0.113781	NaN	0.000000	0.001624	0.001748	28.0813	0.134024	0.002035	65.8626	-114.232	12.4707	-0.058764	0.471304	-0.670727	-0.672078	-0.113781	65.8626	-0.669432	-7.475010E+8	1.522153E-10	NaN
543	1.000000	0.482653	7.37036e+06	-49939.1	1005.82	-29757.3	0.000000	0.000000	6.482922	-0.024186	NaN	0.000000	0.001629	0.001719	28.0811	0.069957	0.002039	34.3112	107.708	-167.534	-0.020092	0.481354	-0.660729	-0.662028	-0.024186	34.3112	-0.660201	-5.587514E+8	4.328553E-11	NaN
543	1.000000	0.492633	7.37036e+06	-49939.1	1005.82	-29757.3	0.000000	0.000000	6.492901	-0.056464	NaN	0.000000	0.001626	0.001708	28.081	0.039893	0.001853	21.5327	35.2084	15.8003	-0.101656	0.491317	-0.650749	-0.652066	-0.056464	21.5327	-0.648783	-3.897134E+8	1.448862E-10	NaN
543	1.000000	0.502662	7.37036e+06	-49939.1	1005.82	-29757.3	0.000000	0.000000	6.502932	-0.002773	NaN	0.000000	0.001614	0.001719	28.0814	0.051857	0.002030	25.5426	-107.07	-167.098	0.020259	0.501421	-0.640721	-0.641961	-0.002773	25.5426	-0.640639	-3.013438E+8	9.203729E-12	NaN
543	1.000000	0.512692	7.37036e+06	-49939.1	1005.82	-29757.3	0.000000	0.000000	6.512960	-0.054630	NaN	0.000000	0.001552	0.001717	28.0822	0.042350	0.002052	20.635	-126.382	14.9432	-0.041923	0.511354	-0.630690	-0.632029	-0.054630	20.635	-0.628704	-2.066481E+8	2.643610E-10	NaN
543	1.000000	0.522699	7.37036e+06	-49939.1	1005.82	-29757.3	0.000000	0.000000	6.522969	0.004329	NaN	0.000000	0.001597	0.001728	28.0824	0.124315	0.001966	63.2184	60.7155	-163.931	0.014255	0.521401	-0.620684	-0.621981	0.004329	63.2184	-0.620735	-1.605959E+8	-2.695695E-11	NaN
543	1.000000	0.532677	7.37036e+06	-49939.1	1005.82	-29757.3	0.000000	0.000000	6.532947	-0.020509	NaN	0.000000	0.001632	0.001720	28.082	0.053419	0.002070	25.8036	73.0068	16.0828	-0.001771	0.531284	-0.610705	-0.612099	-0.020509	25.8036	-0.610109	-1.147130E+8	1.787861E-10	NaN
543	1.000000	0.542710	7.37036e+06	-49939.1	1005.82	-29757.3	0.000000	0.000000	6.542976	-0.092793	NaN	0.000000	0.001604	0.001708	28.0825	0.057850	0.002039	28.366	48.3445	-164.835	-0.050661	0.541343	-0.600673	-0.602040	-0.092793	28.366	-0.598219	-7.869243E+7	1.179189E-9	NaN
543	1.000000	0.552681	7.37036e+06	-49939.1	1005.82	-29757.3	0.000000	0.000000	6.552952	0.018377	NaN	0.000000	0.001577	0.001706	28.082	0.049518	0.002006	24.6797	97.4825	17.3915	0.018259	0.551303	-0.590701	-0.592079	0.018377	24.6797	-0.591259	-6.309984E+7	-2.912362E-10	NaN
543	1.000000	0.562664	7.37036e+06	-49939.1	1005.82	-29757.3	0.000000	0.000000	6.562931	-0.068875	NaN	0.000000	0.001559	0.001758	28.0824	0.046674	0.001983	23.5353	-71.0424	-167.587	-0.027663	0.561364	-0.580718	-0.582019	-0.068875	23.5353	-0.578524	-4.210641E+7	1.635726E-9	NaN
543	1.000000	0.572703	7.37036e+06	-49939.1	1005.82	-29757.3	0.000000	0.000000	6.572974	0.013024	NaN	0.000000	0.001579	0.001721	28.0821	0.014867	0.001984	7.494915	57.3827	16.006	-0.027914	0.571343	-0.570679	-0.572039	0.013024	7.494915	-0.571983	-3.419977E+7	-3.808129E-10	NaN
543	1.000000	0.582685	7.37036e+06	-49939.1	1005.82	-29757.3	0.000000	0.000000	6.582952	-0.074323	NaN	0.000000	0.001585	0.001741	28.0825	0.104565	0.001945	53.7735	-152.305	-165.478	-0.065334	0.581383	-0.560698	-0.562000	-0.074323	53.7735	-0.559661	-2.310403E+7	3.216865E-9	NaN
543	1.000000	0.592726	7.37036e+06	-49939.1	1005.82	-29757.3	0.000000	0.000000	6.592996	-0.014167	NaN	0.000000	0.001606	0.001754	28.0823	0.066677	0.002086	31.9672	88.6476	15.5514	-0.002244	0.591293	-0.550656	-0.552089	-0.014167	31.9672	-0.550324	-1.715697E+7	8.257404E-10	NaN
543	1.000000	0.602708	7.37036e+06	-49939.1	1005.82	-29757.3	0.000000	0.000000	6.602975	-0.073398	NaN	0.000000	0.001594	0.001760	28.0821	0.043397	0.001953	22.2242	-74.8471	-166.397	-0.015188	0.601408	-0.540675	-0.541975	-0.073398	22.2242	-0.538198	-1.165098E+7	6.299693E-9	NaN
543	1.000000	0.612722	7.37036e+06	-49939.1	1005.82	-29757.3	0.000000	0.000000	6.612992	-0.013508	NaN	0.000000	0.001568	0.001774	28.0823	0.055579	0.002136	26.0165	-50.5755	16.0857	-0.027249	0.611369	-0.530660	-0.532014	-0.013508	26.0165	-0.530271	-9.04347e+06	1.493642E-9	NaN
543	1.000000	0.622724	7.37036e+06	-49939.1	1005.82	-29757.3	0.000000	0.000000	6.622992	-0.047324	NaN	0.000000	0.001618	0.001778	28.0822	0.033895	0.001929	17.5713	-89.6897	-161.414	-0.080173	0.621400	-0.520659	-0.521983	-0.047324	17.5713	-0.518639	-6.23256e+06	7.592957E-9	NaN
543	1.000000	0.632728	7.37036e+06	-49939.1	1005.82	-29757.3	0.000000	0.000000	6.632994	-0.081225	NaN	0.000000	0.001626	0.001781	28.0836	0.112875	0.001937	58.2748	69.3472	17.675	-0.058482	0.631386	-0.510655	-0.511997	-0.081225	58.2748	-0.509609	-4.66631e+06	1.740672E-8	NaN
543	1.000000	0.642727	7.37036e+06	-49939.1	1005.82	-29757.3	0.000000	0.000000	6.642993	-0.095338	NaN	0.000000	0.001647	0.001734	28.0823	0.063482	0.001964	32.3228	-122.701	-165.344	-0.026949	0.641451	-0.500656	-0.501931	-0.095338	32.3228	-0.498444	-3.26062e+06	2.923934E-8	NaN
543	1.000000	0.652764	7.37036e+06	-49939.1	1005.82	-29757.3	0.000000	0.000000	6.653033	-0.019930	NaN	0.000000	0.001613	0.001754	28.0814	0.044743	0.002016	22.1942	-115.81	14.0646	-0.031003	0.651377	-0.490618	-0.492005	-0.019930	22.1942	-0.489945	-2.48099e+06	8.032899E-9	NaN
543	1.000000	0.662749	7.37036e+06	-49939.1	1005.82	-29757.3	0.000000	0.000000	6.663016	-0.071574	NaN	0.000000	0.001616	0.001732	28.0809	0.103823	0.001869	55.536	168.775	-160.428	-0.085632	0.661452	-0.480633	-0.481931	-0.071574	55.536	-0.479667	-1.78181e+06	4.016928E-8	NaN
543	1.000000	0.672705	7.37036e+06	-49939.1	1005.82	-29757.3	0.000000	0.000000	6.672974	-0.021658	NaN	0.000000	0.001587	0.001759	28.0809	0.110281	0.001978	55.7641	16.8565	12.6806	0.059592	0.671378	-0.470677	-0.472004	-0.021658	55.7641	-0.470386	-1.32075e+06	1.639812E-8	NaN
543	1.000000	0.682734	7.37036e+06	-49939.1	1005.82	-29757.3	0.000000	0.000000	6.683005	0.036022	NaN	0.000000	0.001635	0.001731	28.0808	0.066516	0.001922	34.6154	-100.319	-166.483	-0.027388	0.681463	-0.460649	-0.461920	0.036022	34.6154	-0.461429	-988783	-3.643044E-8	NaN
543	1.000000	0.692757	7.37036e+06	-49939.1	1005.82	-29757.3	0.000000	0.000000	6.693026	-0.026333	NaN	0.000000	0.001637	0.001704	28.081	0.093551	0.002041	45.8363	-148.926	13.6025	0.030220	0.691447	-0.450625	-0.451935	-0.026333	45.8363	-0.450194	-687195	3.831920E-8	NaN
543	1.000000	0.702740	7.37036e+06	-49939.1	1005.82	-29757.3	0.000000	0.000000	6.703006	-0.095871	NaN	0.000000	0.001624	0.001738	28.0807	0.076049	0.002036	37.345	-128.712	-162.522	-0.086895	0.701393	-0.440643	-0.441989	-0.095871	37.345	-0.438717	-473430	2.025032E-7	NaN
543	1.000000	0.712766	7.37036e+06	-49939.1	1005.82	-29757.3	0.000000	0.000000	6.713035	-0.015571	NaN	0.000000	0.001646	0.001751	28.0807	0.053824	0.001822	29.5356	113.34	12.3788	-0.082115	0.711402	-0.430616	-0.431981	-0.015571	29.5356	-0.430221	-359077	4.336304E-8	NaN
543	1.000000	0.722782	7.37036e+06	-49939.1	1005.82	-29757.3	0.000000	0.000000	6.723052	-0.002077	NaN	0.000000	0.001653	0.001756	28.0809	0.033549	0.002068	16.2238	167.94	-161.091	-0.007438	0.721491	-0.420601	-0.421892	-0.002077	16.2238	-0.420505	-261561	7.940606E-9	NaN
543	1.000000	0.732751	7.37036e+06	-49939.1	1005.82	-29757.3	0.000000	0.000000	6.733018	-0.058358	NaN	0.000000	0.001631	0.001784	28.0809	0.060103	0.001974	30.4535	28.0313	18.0346	-0.097650	0.731418	-0.410632	-0.411965	-0.058358	30.4535	-0.409194	-180694	3.229647E-7	NaN
543	1.000000	0.742733	7.37036e+06	-49939.1	1005.82	-29757.3	0.000000	0.000000	6.743002	-0.035550	NaN	0.000000	0.001626	0.001732	28.0806	0.087882	0.002053	42.8132	98.6558	-165.451	-0.093480	0.741461	-0.400649	-0.401921	-0.035550	42.8132	-0.400026	-133774	2.657487E-7	NaN
543	1.000000	0.752739	7.37036e+06	-49939.1	1005.82	-29757.3	0.000000	0.000000	6.753008	-0.022113	NaN	0.000000	0.001672	0.001746	28.0806	0.080855	0.001993	40.5782	-25.4684	14.3463	-0.066661	0.751427	-0.390644	-0.391956	-0.022113	40.5782	-0.390235	-96946.1	2.281006E-7	NaN
543	1.000000	0.762793	7.37036e+06	-49939.1	1005.82	-29757.3	0.000000	0.000000	6.763062	-0.022942	NaN	0.000000	0.001655	0.001785	28.0807	0.147247	0.001851	79.5328	160.194	-165.551	-0.029687	0.761455	-0.380589	-0.381927	-0.022942	79.5328	-0.380373	-70022.7	3.276305E-7	NaN
543	1.000000	0.772784	7.37036e+06	-49939.1	1005.82	-29757.3	0.000000	0.000000	6.773051	-0.072340	NaN	0.000000	0.001633	0.001766	28.0806	0.154743	0.001917	80.7003	-64.7358	13.9112	-0.075100	0.771435	-0.370598	-0.371948	-0.072340	80.7003	-0.369926	-49551.7	1.459885E-6	NaN
543	1.000000	0.782809	7.37036e+06	-49939.1	1005.82	-29757.3	0.000000	0.000000	6.783079	-0.002398	NaN	0.000000	0.001635	0.001718	28.0816	0.145197	0.001893	76.7066	50.3935	-163.646	0.024021	0.781489	-0.360573	-0.361894	-0.002398	76.7066	-0.360550	-36290.2	6.606887E-8	NaN
543	1.000000	0.792776	7.37036e+06	-49939.1	1005.82	-29757.3	0.000000	0.000000	6.793045	-0.041256	NaN	0.000000	0.001670	0.001739	28.0819	0.104298	0.002013	51.8214	-157.68	16.4845	-0.054715	0.791453	-0.350606	-0.351929	-0.041256	51.8214	-0.350009	-25534.8	1.615660E-6	NaN
543	1.000000	0.802788	7.37036e+06	-49939.1	1005.82	-29757.3	0.000000	0.000000	6.803054	-0.101192	NaN	0.000000	0.001667	0.001730	28.0821	0.072240	0.002087	34.6208	14.2196	-165.965	-0.106709	0.801449	-0.340594	-0.341934	-0.101192	34.6208	-0.338402	-17308.4	5.846439E-6	NaN
543	1.000000	0.812774	7.37036e+06	-49939.1	1005.82	-29757.3	0.000000	0.000000	6.813043	-0.034926	NaN	0.000000	0.001678	0.001769	28.082	0.051720	0.002090	24.7427	116.925	14.2564	-0.079418	0.811480	-0.330609	-0.331903	-0.034926	24.7427	-0.329550	-12848.7	2.718300E-6	NaN
543	1.000000	0.822761	7.37036e+06	-49939.1	1005.82	-29757.3	0.000000	0.000000	6.823028	-0.095026	NaN	0.000000	0.001645	0.001733	28.0819	0.094609	0.001947	48.5855	-47.21	-162.385	-0.079867	0.821482	-0.320621	-0.321901	-0.095026	48.5855	-0.319154	-9040.35	1.051128E-5	NaN
543	1.000000	0.832787	7.37036e+06	-49939.1	1005.82	-29757.3	0.000000	0.000000	6.833058	0.023791	NaN	0.000000	0.001617	0.001740	28.0821	0.032866	0.001926	17.0609	158.105	16.9199	-0.029279	0.831505	-0.310596	-0.311878	0.023791	17.0609	-0.311642	-7003.88	-3.396894E-6	NaN
543	1.000000	0.842789	7.37036e+06	-49939.1	1005.82	-29757.3	0.000000	0.000000	6.843056	-0.078659	NaN	0.000000	0.001648	0.001758	28.0821	0.060095	0.002007	29.9361	97.1832	-163.472	-0.071656	0.841535	-0.300594	-0.301847	-0.078659	29.9361	-0.298623	-4488.79	1.752353E-5	NaN
543	1.000000	0.852845	7.37036e+06	-49939.1	1005.82	-29757.3	0.000000	0.000000	6.853112	-0.065205	NaN	0.000000	0.001669	0.001769	28.0819	0.009631	0.002127	4.527022	33.2495	15.236	-0.054836	0.851440	-0.290537	-0.291943	-0.065205	4.527022	-0.279735	-2338.68	2.788096E-5	NaN
543	1.000000	0.862823	7.37036e+06	-49939.1	1005.82	-29757.3	0.000000	0.000000	6.863093	-0.003703	NaN	0.000000	0.001675	0.001744	28.0818	0.035537	0.001927	18.4453	160.348	-166.125	-0.007216	0.861572	-0.280559	-0.281810	-0.003703	18.4453	-0.280408	-2394.03	1.546564E-6	NaN
543	1.000000	0.872832	7.37036e+06	-49939.1	1005.82	-29757.3	0.000000	0.000000	6.873100	-0.058643	NaN	0.000000	0.001646	0.001749	28.082	0.074420	0.002079	35.7912	-107.945	15.6245	0.034837	0.871504	-0.270550	-0.271878	-0.058643	35.7912	-0.269321	-1626.38	3.605712E-5	NaN
543	1.000000	0.882821	7.37036e+06	-49939.1	1005.82	-29757.3	0.000000	0.000000	6.883091	-0.003784	NaN	0.000000	0.001693	0.001744	28.0819	0.174723	0.001960	89.1227	-24.8017	-162.12	-0.038416	0.881498	-0.260562	-0.261884	-0.003784	89.1227	-0.260530	-1194.09	3.168624E-6	NaN
543	1.000000	0.892853	7.37036e+06	-49939.1	1005.82	-29757.3	0.000000	0.000000	6.893118	-0.124794	NaN	0.000000	0.001686	0.001759	28.0818	0.016231	0.002054	7.903835	122.026	12.6203	-0.069339	0.891499	-0.250529	-0.251884	-0.124794	7.903835	-0.238688	-548.329	0.000228	NaN
543	1.000000	0.902828	7.37036e+06	-49939.1	1005.82	-29757.3	0.000000	0.000000	6.903092	-0.145611	NaN	0.000000	0.001641	0.001767	28.0818	0.053372	0.001978	26.9772	80.5176	-165.458	-0.085422	0.901474	-0.240554	-0.241908	-0.145611	26.9772	-0.236506	-506.848	0.000287	NaN
543	1.000000	0.912861	7.37036e+06	-49939.1	1005.82	-29757.3	0.000000	0.000000	6.913131	-0.013741	NaN	0.000000	0.001663	0.001771	28.082	0.066039	0.001971	33.5073	-157.649	16.6955	0.034302	0.911470	-0.230521	-0.231912	-0.013741	33.5073	-0.230214	-403.543	3.405146E-5	NaN
543	1.000000	0.922851	7.37036e+06	-49939.1	1005.82	-29757.3	0.000000	0.000000	6.923116	-0.141115	NaN	0.000000	0.001671	0.001826	28.0808	0.029356	0.002051	14.3143	-54.5967	-163.445	-0.063967	0.921567	-0.220531	-0.221816	-0.141115	14.3143	-0.213137	-215.535	0.000655	NaN
543	1.000000	0.932846	7.37036e+06	-49939.1	1005.82	-29757.3	0.000000	0.000000	6.933117	0.004855	NaN	0.000000	0.001655	0.001805	28.0805	0.018991	0.001946	9.761570	61.6581	13.9539	0.077054	0.931489	-0.210536	-0.211894	0.004855	9.761570	-0.210909	-198.396	-2.446884E-5	NaN
543	1.000000	0.942856	7.37036e+06	-49939.1	1005.82	-29757.3	0.000000	0.000000	6.943123	-0.075382	NaN	0.000000	0.001687	0.001841	28.0806	0.044309	0.002062	21.4925	-145.955	-164.162	-0.105674	0.941562	-0.200526	-0.201820	-0.075382	21.4925	-0.197896	-121.636	0.000620	NaN
543	1.000000	0.952878	7.37036e+06	-49939.1	1005.82	-29757.3	0.000000	0.000000	6.953145	-0.070224	NaN	0.000000	0.001635	0.001804	28.0805	0.055672	0.002012	27.6739	-12.3127	16.0088	-0.043597	0.951480	-0.190505	-0.191902	-0.070224	27.6739	-0.188602	-85.2394	0.000824	NaN
543	1.000000	0.962881	7.37036e+06	-49939.1	1005.82	-29757.3	0.000000	0.000000	6.963148	-0.079291	NaN	0.000000	0.001618	0.001784	28.0804	0.058243	0.001964	29.6506	71.8218	-166.241	-0.038417	0.961553	-0.180501	-0.181830	-0.079291	29.6506	-0.178496	-57.5219	0.001378	NaN
543	1.000000	0.972868	7.37036e+06	-49939.1	1005.82	-29757.3	0.000000	0.000000	6.973137	-0.039168	NaN	0.000000	0.001637	0.001825	28.0804	0.090320	0.002067	43.6867	-146.988	12.5349	-0.059576	0.971515	-0.170514	-0.171868	-0.039168	43.6867	-0.169842	-40.8189	0.000960	NaN
543	1.000000	0.982862	7.37036e+06	-49939.1	1005.82	-29757.3	0.000000	0.000000	6.983131	-0.028635	NaN	0.000000	0.001638	0.001745	28.0806	0.086519	0.001950	44.3633	175.891	-161.703	0.014448	0.981565	-0.160520	-0.161817	-0.028635	44.3633	-0.160036	-27.4554	0.001043	NaN
543	1.000000	0.992863	7.37036e+06	-49939.1	1005.82	-29757.3	0.000000	0.000000	6.993132	-0.042427	NaN	0.000000	0.001637	0.001748	28.0804	0.069155	0.002055	33.655	136.614	12.8985	0.021549	0.991519	-0.150519	-0.151864	-0.042427	33.655	-0.149574	-17.7921	0.002385	NaN
543	1.000000	1.002839	7.37036e+06	-49939.1	1005.82	-29757.3	0.000000	0.000000	7.003105	-0.114650	NaN	0.000000	0.001595	0.001753	28.0805	0.093875	0.001992	47.1356	-18.5	-164.928	-0.091569	1.001573	-0.140543	-0.141810	-0.114650	47.1356	-0.138719	-11.1906	0.010245	NaN
543	1.000000	1.012876	7.37036e+06	-49939.1	1005.82	-29757.3	0.000000	0.000000	7.013142	-0.086140	NaN	0.000000	0.001655	0.001711	28.0806	0.073265	0.001908	38.3938	-104.01	15.1649	-0.139035	1.011528	-0.130507	-0.131855	-0.086140	38.3938	-0.128824	-7.229734	0.011915	NaN
543	1.000000	1.022864	7.37036e+06	-49939.1	1005.82	-29757.3	0.000000	0.000000	7.023131	-0.064628	NaN	0.000000	0.001600	0.001714	28.0806	0.126728	0.002066	61.3293	-148.249	-167.303	-0.000549	1.021586	-0.120519	-0.121797	-0.064628	61.3293	-0.119729	-4.770906	0.013546	NaN
543	1.000000	1.032867	7.37036e+06	-49939.1	1005.82	-29757.3	0.000000	0.000000	7.033134	-0.066692	NaN	0.000000	0.001657	0.001782	28.0802	0.053401	0.002065	25.8547	-11.3282	13.3813	-0.091631	1.031517	-0.110515	-0.111865	-0.066692	25.8547	-0.108581	-2.804440	0.023781	NaN
543	1.000000	1.042885	7.37036e+06	-49939.1	1005.82	-29757.3	0.000000	0.000000	7.043153	-0.036188	NaN	0.000000	0.001656	0.001793	28.0805	0.019236	0.001939	9.920394	64.994	-162.542	-0.035761	1.041537	-0.100498	-0.101846	-0.036188	9.920394	-0.097762	-1.628789	0.022218	NaN
543	1.000000	1.052890	7.37036e+06	-49939.1	1005.82	-29757.3	0.000000	0.000000	7.053157	-0.088834	NaN	0.000000	0.001640	0.001769	28.0805	0.022574	0.002001	11.2821	-116.908	12.2023	-0.040495	1.051517	-0.090492	-0.091865	-0.088834	11.2821	-0.084587	-0.802910	0.110640	NaN
543	1.000000	1.062921	7.37036e+06	-49939.1	1005.82	-29757.3	0.000000	0.000000	7.063186	-0.108745	NaN	0.000000	0.001657	0.001745	28.0818	0.106714	0.001987	53.7188	77.4924	-168.211	-0.128151	1.061641	-0.080462	-0.081742	-0.108745	53.7188	-0.078943	-0.582331	0.186741	NaN
543	1.000000	1.072931	7.37037e+06	-49939.1	1005.82	-29757.3	0.000000	0.000000	7.073200	-0.028731	NaN	0.000000	0.001683	0.001740	28.0816	0.043557	0.002130	20.4476	3.816598	12.7193	-0.116444	1.071567	-0.070451	-0.071816	-0.028731	20.4476	-0.069397	-0.328633	0.087426	NaN
543	1.000000	1.082900	7.37037e+06	-49939.1	1005.82	-29757.3	0.000000	0.000000	7.083168	-0.032129	NaN	0.000000	0.001620	0.001734	28.0817	0.052901	0.002021	26.1722	-5.107320	-167.557	-0.085475	1.081597	-0.060483	-0.061785	-0.032129	26.1722	-0.059562	-0.174952	0.183644	NaN
543	1.000000	1.092899	7.37037e+06	-49939.1	1005.82	-29757.3	0.000000	0.000000	7.093170	0.025823	NaN	0.000000	0.001649	0.001745	28.0817	0.118371	0.002095	56.5014	44.7586	16.524	0.007937	1.091562	-0.050483	-0.051820	0.025823	56.5014	-0.050826	-0.096644	-0.267194	NaN
543	1.000000	1.102886	7.37037e+06	-49939.1	1005.82	-29757.3	0.000000	0.000000	7.103153	-0.078113	NaN	0.000000	0.001621	0.001738	28.0817	0.057387	0.002063	27.8167	-39.6939	-161.518	-0.093048	1.101602	-0.040496	-0.041781	-0.078113	27.8167	-0.038390	-0.040422	1.932419	NaN
543	1.000000	1.112926	7.37037e+06	-49939.1	1005.82	-29757.3	0.000000	0.000000	7.113193	-0.061303	NaN	0.000000	0.001639	0.001717	28.0817	0.081717	0.002092	39.0629	-178.735	15.4015	-0.025888	1.111537	-0.030457	-0.031845	-0.061303	39.0629	-0.029280	-0.021978	2.789261	NaN
543	1.000000	1.122924	7.37037e+06	-49939.1	1005.82	-29757.3	0.000000	0.000000	7.123192	-0.055006	NaN	0.000000	0.001655	0.001724	28.082	0.048418	0.001946	24.8817	-126.193	-167.54	-0.033632	1.121639	-0.020458	-0.021743	-0.055006	24.8817	-0.018800	-0.011706	4.699053	NaN
543	1.000000	1.132922	7.37037e+06	-49939.1	1005.82	-29757.3	0.000000	0.000000	7.133191	-0.021504	NaN	0.000000	0.001676	0.001715	28.0819	0.068170	0.001930	35.3248	-32.4083	13.4723	-0.061359	1.131583	-0.010461	-0.011800	-0.021504	35.3248	-0.010004	-0.006390	3.365371	NaN
543	1.000000	1.142928	7.37037e+06	-49939.1	1005.82	-29757.3	0.000000	0.000000	7.143283	2.076678	NaN	0.000000	0.001627	0.001738	28.0818	3.203525	0.001834	1746.57	9.559341	-167.842	0.745715	1.141599	-0.000454	-0.001783	2.076678	1746.57	-0.001346	-0.000981	-2117.72	NaN
543	2.000000	1.149036	7.37037e+06	-49939.1	1005.82	-29757.3	0.000000	0.000000	7.149744	10.648	NaN	0.000000	0.001620	0.001729	28.0819	9.879358	0.001550	6373.55	7.531352	7.431670	10.3142	1.148682	0.005653	0.005299	10.648	6373.55	0.004400	0.003593	2963.7	97149.2
543	2.000000	1.151471	7.37037e+06	-49939.1	1005.82	-29757.3	0.000000	0.000000	7.152346	14.6871	NaN	0.000000	0.001632	0.001718	28.0817	13.4039	0.001837	7295.75	6.452463	-173.887	13.6193	1.151183	0.008089	0.007800	14.6871	7295.75	0.006579	0.005621	2612.76	88904.7
543	2.000000	1.153983	7.37037e+06	-49939.1	1005.82	-29757.3	0.000000	0.000000	7.155046	19.2894	NaN	0.000000	0.001655	0.001766	28.0818	15.5493	0.001715	9066.49	10.8521	1.926304	19.0175	1.153656	0.010601	0.010274	19.2894	9066.49	0.009005	0.008097	2382.43	92058.3
543	2.000000	1.156461	7.37037e+06	-49939.1	1005.82	-29757.3	0.000000	0.000000	7.157621	21.6402	NaN	0.000000	0.001643	0.001737	28.0818	17.7117	0.001813	9769.26	4.786061	-173.667	20.6663	1.156103	0.013079	0.012720	21.6402	9769.26	0.011417	0.010799	2003.81	85888.2
543	2.000000	1.158944	7.37037e+06	-49939.1	1005.82	-29757.3	0.000000	0.000000	7.160282	25.9554	NaN	0.000000	0.001602	0.001739	28.0813	20.9444	0.001870	11199.2	6.020578	3.379653	24.8921	1.158540	0.015562	0.015157	25.9554	11199.2	0.013824	0.013749	1887.83	87262.5
543	2.000000	1.161465	7.37037e+06	-49939.1	1005.82	-29757.3	0.000000	0.000000	7.163046	31.8688	NaN	0.000000	0.001616	0.001735	28.0808	23.7719	0.001965	12100.3	5.963698	-175.701	31.6033	1.161050	0.018083	0.017668	31.8688	12100.3	0.016107	0.016791	1898.02	85317.5
543	2.000000	1.163943	7.37037e+06	-49939.1	1005.82	-29757.3	0.000000	0.000000	7.165744	37.2437	NaN	0.000000	0.001657	0.001699	28.0808	25.2187	0.001798	14028.8	2.797249	5.416863	35.9337	1.163617	0.020560	0.020234	37.2437	14028.8	0.018569	0.020343	1830.75	89863.3
543	2.000000	1.166437	7.37037e+06	-49939.1	1005.82	-29757.3	0.000000	0.000000	7.168372	40.4996	NaN	0.000000	0.001653	0.001745	28.0808	27.4865	0.001736	15832.8	6.302860	-179.858	39.5737	1.166173	0.023054	0.022791	40.4996	15832.8	0.021136	0.024359	1662.65	92684
543	2.000000	1.168896	7.37037e+06	-49939.1	1005.82	-29757.3	0.000000	0.000000	7.171110	47.268	NaN	0.000000	0.001637	0.001678	28.0809	30.5397	0.001852	16486.2	7.460029	-0.257337	46.0617	1.168583	0.025514	0.025200	47.268	16486.2	0.023364	0.028106	1681.79	89845.3
543	2.000000	1.171438	7.37037e+06	-49939.1	1005.82	-29757.3	0.000000	0.000000	7.173891	53.0967	NaN	0.000000	0.001680	0.001727	28.0809	32.8202	0.001784	18401.2	5.495011	179.692	52.0177	1.171122	0.028055	0.027739	53.0967	18401.2	0.025891	0.032657	1625.91	93032
543	2.000000	1.173896	7.37037e+06	-49939.1	1005.82	-29757.3	0.000000	0.000000	7.176706	61.775	NaN	0.000000	0.001719	0.001744	28.0808	34.2315	0.001604	21344.2	4.983621	-1.809716	59.7559	1.173699	0.030513	0.030317	61.775	21344.2	0.028343	0.037379	1652.68	100865
543	2.000000	1.176395	7.37037e+06	-49939.1	1005.82	-29757.3	0.000000	0.000000	7.179603	71.444	NaN	0.000000	0.001730	0.001717	28.0808	36.5287	0.001672	21846.5	9.127399	175.462	71.8596	1.176023	0.033012	0.032640	71.444	21846.5	0.030560	0.041912	1704.63	97496.3
543	2.000000	1.178878	7.37037e+06	-49939.1	1005.82	-29757.3	0.000000	0.000000	7.182334	77.4751	NaN	0.000000	0.001715	0.001713	28.081	39.3976	0.001823	21606	6.137207	-2.065624	75.6712	1.178529	0.035496	0.035147	77.4751	21606	0.032806	0.046762	1656.81	91285.6
543	2.000000	1.181334	7.37037e+06	-49939.1	1005.82	-29757.3	0.000000	0.000000	7.185202	87.4848	NaN	0.000000	0.001730	0.001720	28.0808	42.1287	0.001803	23366.2	6.934512	175.932	84.4679	1.181100	0.037952	0.037718	87.4848	23366.2	0.035144	0.052082	1679.77	93544.9
543	2.000000	1.183914	7.37037e+06	-49939.1	1005.82	-29757.3	0.000000	0.000000	7.188199	97.6389	NaN	0.000000	0.001728	0.001684	28.0817	42.7499	0.001836	23280.3	4.574219	0.063288	95.9418	1.183572	0.040532	0.040190	97.6389	23280.3	0.037386	0.057448	1699.59	88740.6
543	2.000000	1.186317	7.37037e+06	-49939.1	1005.82	-29757.3	0.000000	0.000000	7.190828	103.114	NaN	0.000000	0.001713	0.001699	28.081	45.9668	0.001799	25551	3.186740	178.897	99.5215	1.186070	0.042935	0.042688	103.114	25551	0.039908	0.063792	1616.43	92427.2
543	2.000000	1.188853	7.37037e+06	-49939.1	1005.82	-29757.3	0.000000	0.000000	7.193709	111.502	NaN	0.000000	0.001789	0.001716	28.0812	48.3488	0.001745	27702.3	-0.175909	1.899745	108.215	1.188547	0.045471	0.045164	111.502	27702.3	0.042452	0.070519	1581.16	95309.1
543	2.000000	1.191381	7.37037e+06	-49939.1	1005.82	-29757.3	0.000000	0.000000	7.196603	120.412	NaN	0.000000	0.001721	0.001703	28.081	51.9054	0.001814	28621.1	5.326018	175.817	120.419	1.191157	0.047999	0.047775	120.412	28621.1	0.044844	0.077144	1560.87	94147.5
543	2.000000	1.193873	7.37037e+06	-49939.1	1005.82	-29757.3	0.000000	0.000000	7.199724	135.729	NaN	0.000000	0.001650	0.001721	28.0826	53.6582	0.001787	30032	4.214526	-2.926482	133.4	1.193463	0.050490	0.050081	135.729	30032	0.047101	0.083663	1622.32	94861.7
543	2.000000	1.196381	7.37037e+06	-49939.1	1005.82	-29757.3	0.000000	0.000000	7.202559	143.685	NaN	0.000000	0.001659	0.001716	28.0822	55.3646	0.001786	31007.7	6.579291	175.362	143.805	1.196026	0.052998	0.052643	143.685	31007.7	0.049523	0.090944	1579.92	93940.9
543	2.000000	1.198887	7.37037e+06	-49939.1	1005.82	-29757.3	0.000000	0.000000	7.205479	153.737	NaN	0.000000	0.001680	0.001707	28.0823	58.3296	0.001890	30864.1	3.961974	-3.008936	152.521	1.198492	0.055504	0.055109	153.737	30864.1	0.051769	0.097958	1569.41	90096.2
543	2.000000	1.201358	7.37037e+06	-49939.1	1005.82	-29757.3	0.000000	0.000000	7.208389	164.412	NaN	0.000000	0.001687	0.001728	28.082	60.2786	0.001820	33111.6	3.090354	177.157	162.54	1.201103	0.057976	0.057721	164.412	33111.6	0.054252	0.106007	1550.96	92915.2
543	2.000000	1.203925	7.37037e+06	-49939.1	1005.82	-29757.3	0.000000	0.000000	7.211504	177.73	NaN	0.000000	0.001691	0.001654	28.0822	61.1345	0.001761	34708.2	4.281490	-3.562222	178.034	1.203473	0.060543	0.060091	177.73	34708.2	0.056702	0.114249	1555.63	93816.3
543	2.000000	1.206370	7.37037e+06	-49939.1	1005.82	-29757.3	0.000000	0.000000	7.214529	191.853	NaN	0.000000	0.001686	0.001664	28.0822	63.5551	0.001804	35227.2	6.570155	173.422	191.984	1.206020	0.062987	0.062638	191.853	35227.2	0.058903	0.121902	1573.83	92181.8
543	2.000000	1.208825	7.37037e+06	-49939.1	1005.82	-29757.3	0.000000	0.000000	7.217538	205.326	NaN	0.000000	0.001659	0.001714	28.0822	66.6021	0.001783	37346.1	7.722729	-8.544942	201.237	1.208470	0.065443	0.065088	205.326	37346.1	0.061319	0.130582	1572.39	94422.8
543	2.000000	1.211328	7.37037e+06	-49939.1	1005.82	-29757.3	0.000000	0.000000	7.220404	214.134	NaN	0.000000	0.001716	0.001703	28.0822	69.1241	0.001944	35563.5	3.898254	176.212	211.354	1.211068	0.067946	0.067685	214.134	35563.5	0.063430	0.138394	1547.27	87341.1
543	2.000000	1.213823	7.37037e+06	-49939.1	1005.82	-29757.3	0.000000	0.000000	7.223671	232.922	NaN	0.000000	0.001694	0.001683	28.082	70.4964	0.001826	38598.9	2.724417	-3.736381	229.363	1.213505	0.070441	0.070122	232.922	38598.9	0.065915	0.147869	1575.19	91708.4
543	2.000000	1.216350	7.37037e+06	-49939.1	1005.82	-29757.3	0.000000	0.000000	7.226728	245.804	NaN	0.000000	0.001676	0.001705	28.0823	73.2297	0.001772	41329.2	3.486431	174.952	245.289	1.216000	0.072968	0.072618	245.804	41329.2	0.068507	0.158068	1555.06	94974.9
543	2.000000	1.218769	7.37037e+06	-49939.1	1005.82	-29757.3	0.000000	0.000000	7.229797	261.616	NaN	0.000000	0.001715	0.001716	28.0827	75.5934	0.001771	42677.8	3.716008	-5.571799	254.552	1.218501	0.075387	0.075119	261.616	42677.8	0.070790	0.167314	1563.62	95325.3
543	2.000000	1.221259	7.37037e+06	-49939.1	1005.82	-29757.3	0.000000	0.000000	7.233217	284.23	NaN	0.000000	0.001704	0.001695	28.0821	78.5232	0.001722	45612	4.774482	172.866	277.337	1.220959	0.077877	0.077577	284.23	45612	0.073203	0.177363	1602.54	98951.3
543	2.000000	1.223832	7.37037e+06	-49939.1	1005.82	-29757.3	0.000000	0.000000	7.236386	298.746	NaN	0.000000	0.001695	0.001704	28.082	80.6834	0.001734	46530.1	7.329444	-9.342601	296.219	1.223608	0.080449	0.080225	298.746	46530.1	0.075634	0.187757	1591.13	98109
543	2.000000	1.226350	7.37037e+06	-49939.1	1005.82	-29757.3	0.000000	0.000000	7.239562	314.737	NaN	0.000000	0.001624	0.001727	28.0823	82.1521	0.001722	47696.5	4.269731	172.921	313.439	1.226096	0.082968	0.082714	314.737	47696.5	0.078019	0.198228	1587.75	97876.1
543	2.000000	1.228784	7.37037e+06	-49939.1	1005.82	-29757.3	0.000000	0.000000	7.242765	333.437	NaN	0.000000	0.001623	0.001705	28.0809	85.6429	0.001741	49192.5	6.991925	-9.373471	330.461	1.228420	0.085401	0.085037	333.437	49192.5	0.080318	0.208573	1598.66	98411
543	2.000000	1.231364	7.37037e+06	-49939.1	1005.82	-29757.3	0.000000	0.000000	7.246005	349.485	NaN	0.000000	0.001618	0.001678	28.0808	89.108	0.001836	48530.3	7.210620	170.65	350.333	1.231037	0.087981	0.087654	349.485	48530.3	0.082580	0.218994	1595.86	94748
543	2.000000	1.233814	7.37037e+06	-49939.1	1005.82	-29757.3	0.000000	0.000000	7.249329	370.746	NaN	0.000000	0.001615	0.001702	28.0809	90.4812	0.001795	50405.4	6.943691	-9.280718	366.118	1.233419	0.090432	0.090037	370.746	50405.4	0.084915	0.229997	1611.96	96026.1
543	2.000000	1.236351	7.37037e+06	-49939.1	1005.82	-29757.3	0.000000	0.000000	7.252607	388.772	NaN	0.000000	0.001607	0.001706	28.081	92.4253	0.001709	54082.8	2.991939	173.726	388.243	1.236050	0.092968	0.092667	388.772	54082.8	0.087577	0.242847	1600.9	100269
543	2.000000	1.238799	7.37037e+06	-49939.1	1005.82	-29757.3	0.000000	0.000000	7.255603	402.106	NaN	0.000000	0.001613	0.001671	28.0809	95.1591	0.001779	53496	3.421839	-6.830520	397.543	1.238545	0.095416	0.095163	402.106	53496	0.089779	0.253724	1584.81	97031.7
543	2.000000	1.241340	7.37037e+06	-49939.1	1005.82	-29757.3	0.000000	0.000000	7.259240	428.746	NaN	0.000000	0.001596	0.001725	28.081	99.543	0.001907	52210.7	5.550798	171.055	428.855	1.241046	0.097957	0.097664	428.746	52210.7	0.091798	0.263897	1624.67	92857.1
543	2.000000	1.243693	7.37037e+06	-49939.1	1005.82	-29757.3	0.000000	0.000000	7.262853	459.398	NaN	0.000000	0.001607	0.001716	28.081	99.8668	0.001733	57630	3.635839	-7.477256	451.101	1.243428	0.100310	0.100045	459.398	57630	0.094332	0.276919	1658.96	100057
543	2.000000	1.246217	7.37037e+06	-49939.1	1005.82	-29757.3	0.000000	0.000000	7.266405	484.365	NaN	0.000000	0.001613	0.001685	28.0805	101.034	0.001737	58152.2	3.825224	172.716	477.702	1.245869	0.102835	0.102486	484.365	58152.2	0.096588	0.288766	1677.36	98870.4