File: remote_trans/data/nanoindenter/0828-1/data/Data_2025-08-06,11h17m57s/2025-07-22_16-23-58_1_389.txt
2025-07-22, 16:23:58, 1
Index	Phase	Displacement	Time	Pos X	Pos Y	Pos Z	Rot A	Rot B	Piezo Z	Force A	Force B	Gripper	Voltage A	Voltage B	Temperature	Amplitude force	Amplitude pos	Stiffness	Phase shift	Phase excitation	Force A raw	Displacement raw	HMax	HMax raw	Real Force	Real Stiffness	Contact Depth	Area	Hardness	Reduced Mod.
[#]	[#]	[um]	[s]	[um]	[um]	[um]	[m°]	[m°]	[um]	[uN]	[uN]	[V]	[V]	[V]	[°C]	[uN]	[um]	[N/m]	[°]	[°]	[uN]	[um]	[um]	[um]	[uN]	[N/m]	[um]	[um^2]	[MPa]	[MPa]
389	1.000000	0.002500	7.36887e+06	-57639.1	1005.82	-29736.8	0.000000	0.000000	6.002796	0.098420	NaN	0.000000	0.001664	0.001638	28.0795	0.033316	0.001020	32.6565	12.6276	-165.672	0.149128	0.001249	-1.100307	-1.101558	0.098420	32.6565	-1.102567	-5.426591E+14	-1.813654E-16	NaN
389	1.000000	0.012527	7.36887e+06	-57639.1	1005.82	-29736.8	0.000000	0.000000	6.012822	0.072965	NaN	0.000000	0.001660	0.001654	28.0794	0.060866	0.001217	50.0163	92.2268	21.7169	0.028792	0.011119	-1.090280	-1.091687	0.072965	50.0163	-1.091374	-3.839364E+14	-1.900433E-16	NaN
389	1.000000	0.022463	7.36887e+06	-57639.1	1005.82	-29736.8	0.000000	0.000000	6.022758	0.057775	NaN	0.000000	0.001618	0.001636	28.0795	0.051195	0.001613	31.7336	86.4573	-164.208	-0.010056	0.021112	-1.080343	-1.081694	0.057775	31.7336	-1.081709	-2.847531E+14	-2.028936E-16	NaN
389	1.000000	0.032458	7.36887e+06	-57639.1	1005.82	-29736.8	0.000000	0.000000	6.032753	0.062603	NaN	0.000000	0.001631	0.001645	28.0794	0.072103	0.001800	40.0582	141.22	15.4574	0.038527	0.031091	-1.070348	-1.071716	0.062603	40.0582	-1.071520	-2.077843E+14	-3.012905E-16	NaN
389	1.000000	0.042459	7.36887e+06	-57639.1	1005.82	-29736.8	0.000000	0.000000	6.042754	0.042102	NaN	0.000000	0.001645	0.001682	28.0801	0.053933	0.001949	27.6719	-86.1038	-166.301	0.044244	0.041147	-1.060347	-1.061660	0.042102	27.6719	-1.061488	-1.523415E+14	-2.763647E-16	NaN
389	1.000000	0.052472	7.36887e+06	-57639.1	1005.82	-29736.8	0.000000	0.000000	6.052766	0.061046	NaN	0.000000	0.001655	0.001643	28.08	0.162157	0.001985	81.7056	85.6501	19.0128	0.117847	0.051122	-1.050335	-1.051685	0.061046	81.7056	-1.050895	-1.097609E+14	-5.561691E-16	NaN
389	1.000000	0.062465	7.36887e+06	-57639.1	1005.82	-29736.8	0.000000	0.000000	6.062760	0.060978	NaN	0.000000	0.001638	0.001652	28.0814	0.052708	0.001946	27.0788	144.54	-162.637	0.016128	0.061160	-1.040342	-1.041646	0.060978	27.0788	-1.042031	-8.342055E+13	-7.309738E-16	NaN
389	1.000000	0.072496	7.36887e+06	-57639.1	1005.82	-29736.8	0.000000	0.000000	6.072792	0.103765	NaN	0.000000	0.001635	0.001644	28.0808	0.107454	0.001929	55.7162	53.8417	12.7111	0.037044	0.071002	-1.030311	-1.031804	0.103765	55.7162	-1.031708	-6.059665E+13	-1.712383E-15	NaN
389	1.000000	0.082475	7.36887e+06	-57639.1	1005.82	-29736.8	0.000000	0.000000	6.082770	0.053912	NaN	0.000000	0.001666	0.001665	28.0811	0.079994	0.001952	40.9858	-91.564	-164.623	0.048077	0.081169	-1.020331	-1.021637	0.053912	40.9858	-1.021317	-4.392161E+13	-1.227459E-15	NaN
389	1.000000	0.092454	7.36887e+06	-57639.1	1005.82	-29736.8	0.000000	0.000000	6.092747	0.029868	NaN	0.000000	0.001647	0.001639	28.0807	0.154656	0.002038	75.9042	29.6155	17.1043	0.027397	0.091109	-1.010353	-1.011697	0.029868	75.9042	-1.010648	-3.155732E+13	-9.464650E-16	NaN
389	1.000000	0.102488	7.36887e+06	-57639.1	1005.82	-29736.8	0.000000	0.000000	6.102784	0.080238	NaN	0.000000	0.001634	0.001648	28.0813	0.024165	0.002016	11.9868	-62.4311	-167.021	0.118149	0.101199	-1.000318	-1.001608	0.080238	11.9868	-1.005338	-2.676917E+13	-2.997408E-15	NaN
389	1.000000	0.112460	7.36887e+06	-57639.1	1005.82	-29736.8	0.000000	0.000000	6.112754	0.016648	NaN	0.000000	0.001593	0.001644	28.0805	0.068029	0.002064	32.9531	-6.026167	14.6611	0.030179	0.111125	-0.990346	-0.991682	0.016648	32.9531	-0.990725	-1.701664E+13	-9.783264E-16	NaN
389	1.000000	0.122480	7.36887e+06	-57639.1	1005.82	-29736.8	0.000000	0.000000	6.122773	0.019849	NaN	0.000000	0.001626	0.001634	28.081	0.022659	0.001958	11.5719	-37.0184	-164.637	-0.058518	0.121123	-0.980326	-0.981684	0.019849	11.5719	-0.981613	-1.282743E+13	-1.547366E-15	NaN
389	1.000000	0.132491	7.36887e+06	-57639.1	1005.82	-29736.8	0.000000	0.000000	6.132783	-0.005074	NaN	0.000000	0.001567	0.001662	28.0807	0.086640	0.001861	46.5666	-118.444	15.7364	0.014575	0.131099	-0.970316	-0.971708	-0.005074	46.5666	-0.970234	-9.011934E+12	5.630178E-16	NaN
389	1.000000	0.142495	7.36887e+06	-57639.1	1005.82	-29736.8	0.000000	0.000000	6.142787	-0.014521	NaN	0.000000	0.001578	0.001691	28.0809	0.072616	0.002060	35.2548	67.1755	-167.356	0.024185	0.141202	-0.960311	-0.961604	-0.014521	35.2548	-0.960002	-6.559884E+12	2.213586E-15	NaN
389	1.000000	0.152502	7.36887e+06	-57639.1	1005.82	-29736.8	0.000000	0.000000	6.152798	0.076843	NaN	0.000000	0.001592	0.001657	28.0806	0.050881	0.001932	26.3349	44.8319	12.0701	0.070402	0.151131	-0.950304	-0.951676	0.076843	26.3349	-0.952492	-5.195639E+12	-1.478982E-14	NaN
389	1.000000	0.162455	7.36887e+06	-57639.1	1005.82	-29736.8	0.000000	0.000000	6.162748	0.013164	NaN	0.000000	0.001637	0.001676	28.0807	0.077176	0.002034	37.934	2.222469	-166.223	-0.002005	0.161144	-0.940351	-0.941663	0.013164	37.934	-0.940612	-3.592437E+12	-3.664282E-15	NaN
389	1.000000	0.172486	7.36887e+06	-57639.1	1005.82	-29736.8	0.000000	0.000000	6.172781	0.073966	NaN	0.000000	0.001650	0.001680	28.0806	0.061202	0.002246	27.2495	-131.971	13.2568	0.130066	0.171124	-0.930321	-0.931682	0.073966	27.2495	-0.932356	-2.779710E+12	-2.660925E-14	NaN
389	1.000000	0.182504	7.36887e+06	-57639.1	1005.82	-29736.8	0.000000	0.000000	6.182798	0.036539	NaN	0.000000	0.001681	0.001672	28.0809	0.111290	0.001920	57.9534	143.681	-163.626	0.053050	0.181197	-0.920302	-0.921610	0.036539	57.9534	-0.920775	-1.939408E+12	-1.884027E-14	NaN
389	1.000000	0.192500	7.36887e+06	-57639.1	1005.82	-29736.8	0.000000	0.000000	6.192794	0.041177	NaN	0.000000	0.001686	0.001671	28.0795	0.022635	0.002075	10.9102	-76.1218	14.8758	0.107342	0.191130	-0.910307	-0.911677	0.041177	10.9102	-0.913137	-1.529447E+12	-2.692312E-14	NaN
389	1.000000	0.202528	7.36887e+06	-57639.1	1005.82	-29736.8	0.000000	0.000000	6.202823	0.059873	NaN	0.000000	0.001674	0.001674	28.0795	0.065060	0.002012	32.3399	103.925	-161.726	0.066229	0.201203	-0.900278	-0.901604	0.059873	32.3399	-0.901666	-1.070493E+12	-5.593056E-14	NaN
389	1.000000	0.212503	7.36887e+06	-57639.1	1005.82	-29736.8	0.000000	0.000000	6.212796	0.004618	NaN	0.000000	0.001682	0.001711	28.0796	0.042381	0.002091	20.2653	17.8177	17.2896	0.033214	0.211160	-0.890303	-0.891647	0.004618	20.2653	-0.890474	-7.556520E+11	-6.110664E-15	NaN
389	1.000000	0.222527	7.36887e+06	-57639.1	1005.82	-29736.8	0.000000	0.000000	6.222822	0.057211	NaN	0.000000	0.001667	0.001665	28.0793	0.130156	0.002064	63.0564	173.731	-164.356	0.086550	0.221242	-0.880279	-0.881564	0.057211	63.0564	-0.880960	-5.619320E+11	-1.018108E-13	NaN
389	1.000000	0.232525	7.36887e+06	-57639.1	1005.82	-29736.8	0.000000	0.000000	6.232819	0.048074	NaN	0.000000	0.001668	0.001686	28.0796	0.066733	0.002085	32.012	62.3154	11.9942	0.057280	0.231162	-0.870281	-0.871645	0.048074	32.012	-0.871408	-4.173393E+11	-1.151928E-13	NaN
389	1.000000	0.242526	7.36887e+06	-57639.1	1005.82	-29736.8	0.000000	0.000000	6.242821	0.069188	NaN	0.000000	0.001669	0.001665	28.0796	0.090839	0.002052	44.2791	-32.6189	-165.851	0.076504	0.241255	-0.860281	-0.861552	0.069188	44.2791	-0.861453	-3.060436E+11	-2.260722E-13	NaN
389	1.000000	0.252516	7.36887e+06	-57639.1	1005.82	-29736.8	0.000000	0.000000	6.252810	0.047782	NaN	0.000000	0.001675	0.001674	28.0798	0.024792	0.001873	13.2392	155.005	15.9866	0.047138	0.251135	-0.850290	-0.851671	0.047782	13.2392	-0.852997	-2.351371E+11	-2.032109E-13	NaN
389	1.000000	0.262543	7.36887e+06	-57639.1	1005.82	-29736.8	0.000000	0.000000	6.262837	0.047921	NaN	0.000000	0.001626	0.001640	28.0796	0.043407	0.001963	22.1098	-100.434	-163.017	0.096758	0.261276	-0.840263	-0.841530	0.047921	22.1098	-0.841889	-1.662960E+11	-2.881648E-13	NaN
389	1.000000	0.272543	7.36887e+06	-57639.1	1005.82	-29736.8	0.000000	0.000000	6.272836	0.004663	NaN	0.000000	0.001644	0.001667	28.0797	0.178668	0.002040	87.5992	2.531891	12.8548	0.061584	0.271175	-0.830263	-0.831632	0.004663	87.5992	-0.830303	-1.158495E+11	-4.024820E-14	NaN
389	1.000000	0.282543	7.36887e+06	-57639.1	1005.82	-29736.8	0.000000	0.000000	6.282839	0.072926	NaN	0.000000	0.001684	0.001642	28.0797	0.074985	0.002054	36.505	-126.647	-164.409	0.050405	0.281285	-0.820263	-0.821521	0.072926	36.505	-0.821761	-8.873516E+10	-8.218374E-13	NaN
389	1.000000	0.292550	7.36887e+06	-57639.1	1005.82	-29736.8	0.000000	0.000000	6.292846	0.099159	NaN	0.000000	0.001657	0.001658	28.0795	0.043642	0.001946	22.4273	14.1215	15.9256	0.077997	0.291202	-0.810257	-0.811604	0.099159	22.4273	-0.813573	-6.871304E+10	-1.443095E-12	NaN
389	1.000000	0.302586	7.36887e+06	-57639.1	1005.82	-29736.8	0.000000	0.000000	6.302880	0.034342	NaN	0.000000	0.001649	0.001671	28.0794	0.101235	0.002038	49.6851	-114.846	-163.96	0.066571	0.301207	-0.800220	-0.801600	0.034342	49.6851	-0.800739	-4.601376E+10	-7.463455E-13	NaN
389	1.000000	0.312558	7.36887e+06	-57639.1	1005.82	-29736.8	0.000000	0.000000	6.312853	0.050343	NaN	0.000000	0.001675	0.001664	28.0795	0.116925	0.001947	60.0503	162.338	18.246	0.055576	0.311139	-0.790248	-0.791668	0.050343	60.0503	-0.790877	-3.380597E+10	-1.489184E-12	NaN
389	1.000000	0.322579	7.36887e+06	-57639.1	1005.82	-29736.8	0.000000	0.000000	6.322871	-0.012300	NaN	0.000000	0.001651	0.001623	28.0796	0.044180	0.002000	22.0877	56.9325	-164.578	0.032011	0.321237	-0.780227	-0.781569	-0.012300	22.0877	-0.779810	-2.391369E+10	5.143391E-13	NaN
389	1.000000	0.332561	7.36887e+06	-57639.1	1005.82	-29736.8	0.000000	0.000000	6.332855	0.045946	NaN	0.000000	0.001665	0.001619	28.0808	0.073882	0.001897	38.9527	129.235	15.8507	-0.017267	0.331215	-0.770245	-0.771591	0.045946	38.9527	-0.771130	-1.822512E+10	-2.521029E-12	NaN
389	1.000000	0.342566	7.36887e+06	-57639.1	1005.82	-29736.8	0.000000	0.000000	6.342861	0.056991	NaN	0.000000	0.001675	0.001637	28.0805	0.060041	0.001894	31.6993	11.31	-166.2	0.042913	0.341247	-0.760240	-0.761560	0.056991	31.6993	-0.761589	-1.351811E+10	-4.215880E-12	NaN
389	1.000000	0.352564	7.36887e+06	-57639.1	1005.82	-29736.8	0.000000	0.000000	6.352856	-0.024947	NaN	0.000000	0.001665	0.001656	28.0807	0.135635	0.002140	63.3666	-138.378	16.8519	-0.007893	0.351252	-0.750242	-0.751554	-0.024947	63.3666	-0.749947	-9.386285E+9	2.657854E-12	NaN
389	1.000000	0.362585	7.36887e+06	-57639.1	1005.82	-29736.8	0.000000	0.000000	6.362880	0.066696	NaN	0.000000	0.001637	0.001621	28.0807	0.068765	0.001936	35.5159	-79.9385	-164.886	0.080329	0.361295	-0.740222	-0.741512	0.066696	35.5159	-0.741630	-7.232035E+9	-9.222297E-12	NaN
389	1.000000	0.372591	7.36887e+06	-57639.1	1005.82	-29736.8	0.000000	0.000000	6.372888	0.101927	NaN	0.000000	0.001613	0.001643	28.0807	0.051823	0.001944	26.6544	151.067	13.2622	0.127809	0.371234	-0.730215	-0.731572	0.101927	26.6544	-0.733083	-5.531224E+9	-1.842751E-11	NaN
389	1.000000	0.382575	7.36887e+06	-57639.1	1005.82	-29736.8	0.000000	0.000000	6.382873	0.135738	NaN	0.000000	0.001656	0.001658	28.0805	0.138874	0.001967	70.5857	-65.7527	-165.307	0.151837	0.381261	-0.720232	-0.721545	0.135738	70.5857	-0.721674	-3.866334E+9	-3.510758E-11	NaN
389	1.000000	0.392585	7.36887e+06	-57639.1	1005.82	-29736.8	0.000000	0.000000	6.392878	0.025091	NaN	0.000000	0.001672	0.001621	28.0808	0.074148	0.002084	35.5883	93.6865	15.503	0.017532	0.391227	-0.710221	-0.711579	0.025091	35.5883	-0.710750	-2.743387E+9	-9.146077E-12	NaN
389	1.000000	0.402593	7.36887e+06	-57639.1	1005.82	-29736.8	0.000000	0.000000	6.402886	0.025753	NaN	0.000000	0.001664	0.001618	28.0806	0.143878	0.002025	71.0641	19.2796	-164.723	-0.044381	0.401236	-0.700214	-0.701571	0.025753	71.0641	-0.700486	-1.986837E+9	-1.296197E-11	NaN
389	1.000000	0.412619	7.36887e+06	-57639.1	1005.82	-29736.8	0.000000	0.000000	6.412913	0.028919	NaN	0.000000	0.001635	0.001630	28.0809	0.039787	0.001955	20.3558	47.6917	16.5683	0.019827	0.411278	-0.690187	-0.691529	0.028919	20.3558	-0.691252	-1.486049E+9	-1.946057E-11	NaN
389	1.000000	0.422627	7.36887e+06	-57639.1	1005.82	-29736.8	0.000000	0.000000	6.422922	0.062424	NaN	0.000000	0.001687	0.001640	28.0808	0.023296	0.001991	11.7003	83.7493	-167.631	-0.018450	0.421303	-0.680180	-0.681503	0.062424	11.7003	-0.684181	-1.189543E+9	-5.247701E-11	NaN
389	1.000000	0.432585	7.36887e+06	-57639.1	1005.82	-29736.8	0.000000	0.000000	6.432879	0.036889	NaN	0.000000	0.001696	0.001633	28.0808	0.078916	0.001993	39.603	-30.4895	12.8023	0.071600	0.431271	-0.670221	-0.671535	0.036889	39.603	-0.670920	-7.833925E+8	-4.708819E-11	NaN
389	1.000000	0.442631	7.36887e+06	-57639.1	1005.82	-29736.8	0.000000	0.000000	6.442925	0.052774	NaN	0.000000	0.001685	0.001630	28.0806	0.129666	0.002010	64.4987	-18.6268	-168.804	0.053450	0.441311	-0.660176	-0.661495	0.052774	64.4987	-0.660789	-5.692195E+8	-9.271373E-11	NaN
389	1.000000	0.452623	7.36887e+06	-57639.1	1005.82	-29736.8	0.000000	0.000000	6.452917	0.031677	NaN	0.000000	0.001641	0.001631	28.0807	0.060784	0.002128	28.5598	-103.583	15.0913	0.066726	0.451266	-0.650184	-0.651541	0.031677	28.5598	-0.651015	-4.181729E+8	-7.575133E-11	NaN
389	1.000000	0.462599	7.36887e+06	-57639.1	1005.82	-29736.8	0.000000	0.000000	6.462895	0.098323	NaN	0.000000	0.001635	0.001695	28.08	0.029826	0.002045	14.5874	-54.4889	-167.832	0.033321	0.461310	-0.640208	-0.641497	0.098323	14.5874	-0.645263	-3.487272E+8	-2.819478E-10	NaN
389	1.000000	0.472623	7.36887e+06	-57639.1	1005.82	-29736.8	0.000000	0.000000	6.472918	0.039916	NaN	0.000000	0.001619	0.001674	28.0796	0.047302	0.001982	23.8639	-76.1474	13.8259	0.000698	0.471274	-0.630183	-0.631533	0.039916	23.8639	-0.631437	-2.253002E+8	-1.771681E-10	NaN
389	1.000000	0.482624	7.36887e+06	-57639.1	1005.82	-29736.8	0.000000	0.000000	6.482919	0.070422	NaN	0.000000	0.001673	0.001647	28.0794	0.001451	0.002023	0.717368	92.3146	-164.518	0.102895	0.481287	-0.620183	-0.621519	0.070422	0.717368	-0.693808	-1.610463E+9	-4.372772E-11	NaN
389	1.000000	0.492638	7.36887e+06	-57639.1	1005.82	-29736.8	0.000000	0.000000	6.492931	0.035861	NaN	0.000000	0.001695	0.001629	28.0796	0.051557	0.002010	25.6516	59.5823	12.0553	0.039642	0.491314	-0.610169	-0.611492	0.035861	25.6516	-0.611217	-1.188125E+8	-3.018300E-10	NaN
389	1.000000	0.502668	7.36887e+06	-57639.1	1005.82	-29736.8	0.000000	0.000000	6.502964	0.110158	NaN	0.000000	0.001654	0.001626	28.0795	0.041622	0.001957	21.2693	-133.313	-162.294	0.137490	0.501321	-0.600139	-0.601486	0.110158	21.2693	-0.604023	-9.459293E+7	-1.164544E-9	NaN
389	1.000000	0.512645	7.36887e+06	-57639.1	1005.82	-29736.8	0.000000	0.000000	6.512941	0.082478	NaN	0.000000	0.001675	0.001631	28.0796	0.042162	0.001922	21.9374	35.234	15.0173	0.097326	0.511300	-0.590161	-0.591507	0.082478	21.9374	-0.592981	-6.664369E+7	-1.237600E-9	NaN
389	1.000000	0.522667	7.36887e+06	-57639.1	1005.82	-29736.8	0.000000	0.000000	6.522964	0.116743	NaN	0.000000	0.001682	0.001626	28.0796	0.011780	0.002167	5.435951	-177.516	-166.618	0.104522	0.521320	-0.580140	-0.581486	0.116743	5.435951	-0.596247	-7.391963E+7	-1.579324E-9	NaN
389	1.000000	0.532628	7.36887e+06	-57639.1	1005.82	-29736.8	0.000000	0.000000	6.532923	0.068271	NaN	0.000000	0.001708	0.001606	28.0795	0.076131	0.001985	38.3507	-102.518	13.5135	0.091709	0.531340	-0.570178	-0.571467	0.068271	38.3507	-0.571513	-3.369312E+7	-2.026269E-9	NaN
389	1.000000	0.542685	7.36887e+06	-57639.1	1005.82	-29736.8	0.000000	0.000000	6.542983	0.139147	NaN	0.000000	0.001670	0.001620	28.0797	0.007418	0.001929	3.844779	89.1375	-167.971	0.072004	0.541365	-0.560121	-0.561441	0.139147	3.844779	-0.587264	-5.558353E+7	-2.503378E-9	NaN
389	1.000000	0.552676	7.36887e+06	-57639.1	1005.82	-29736.8	0.000000	0.000000	6.552968	-0.023392	NaN	0.000000	0.001694	0.001629	28.0797	0.027888	0.001921	14.518	-31.9145	8.549932	0.015924	0.551327	-0.550130	-0.551480	-0.023392	14.518	-0.548922	-1.640666E+7	1.425763E-9	NaN
389	1.000000	0.562645	7.36887e+06	-57639.1	1005.82	-29736.8	0.000000	0.000000	6.562939	0.030863	NaN	0.000000	0.001686	0.001624	28.0798	0.024339	0.002103	11.5714	159.649	-165.513	0.092218	0.561364	-0.540161	-0.541443	0.030863	11.5714	-0.542161	-1.322301E+7	-2.334048E-9	NaN
389	1.000000	0.572686	7.36887e+06	-57639.1	1005.82	-29736.8	0.000000	0.000000	6.572982	0.093522	NaN	0.000000	0.001663	0.001627	28.0796	0.046597	0.002052	22.7084	10.7041	15.788	0.008308	0.571315	-0.530121	-0.531492	0.093522	22.7084	-0.533209	-9.93426e+06	-9.414137E-9	NaN
389	1.000000	0.582670	7.36887e+06	-57639.1	1005.82	-29736.8	0.000000	0.000000	6.582965	0.044233	NaN	0.000000	0.001670	0.001639	28.0798	0.068423	0.001978	34.584	168.636	-164.27	0.038858	0.581381	-0.520136	-0.521425	0.044233	34.584	-0.521095	-6.74264e+06	-6.560229E-9	NaN
389	1.000000	0.592653	7.36887e+06	-57639.1	1005.82	-29736.8	0.000000	0.000000	6.592947	0.038862	NaN	0.000000	0.001649	0.001636	28.0794	0.077370	0.002096	36.9208	-10.6621	17.7812	0.039648	0.591326	-0.510153	-0.511480	0.038862	36.9208	-0.510943	-4.87021e+06	-7.979471E-9	NaN
389	1.000000	0.602704	7.36887e+06	-57639.1	1005.82	-29736.8	0.000000	0.000000	6.602996	-0.021976	NaN	0.000000	0.001658	0.001588	28.0809	0.126341	0.002015	62.7074	17.1982	-165.721	-0.031082	0.601381	-0.500102	-0.501426	-0.021976	62.7074	-0.499839	-3.41016e+06	6.444297E-9	NaN
389	1.000000	0.612693	7.36887e+06	-57639.1	1005.82	-29736.8	0.000000	0.000000	6.612985	-0.015355	NaN	0.000000	0.001665	0.001656	28.0808	0.061897	0.001984	31.2052	159.763	13.915	0.081536	0.611311	-0.490113	-0.491496	-0.015355	31.2052	-0.489744	-2.46499e+06	6.229186E-9	NaN
389	1.000000	0.622670	7.36887e+06	-57639.1	1005.82	-29736.8	0.000000	0.000000	6.622963	0.008034	NaN	0.000000	0.001661	0.001617	28.0809	0.087066	0.001927	45.1876	-171.505	-162.774	-0.005677	0.621364	-0.480136	-0.481443	0.008034	45.1876	-0.480269	-1.81677e+06	-4.422284E-9	NaN
389	1.000000	0.632703	7.36887e+06	-57639.1	1005.82	-29736.8	0.000000	0.000000	6.632998	0.057629	NaN	0.000000	0.001698	0.001654	28.0807	0.082494	0.001927	42.8034	-156.142	16.3665	-0.003733	0.631346	-0.470103	-0.471461	0.057629	42.8034	-0.471113	-1.35212e+06	-4.262170E-8	NaN
389	1.000000	0.642716	7.36887e+06	-57639.1	1005.82	-29736.8	0.000000	0.000000	6.643011	0.071914	NaN	0.000000	0.001699	0.001647	28.0808	0.097319	0.002034	47.841	-140.498	-162.758	0.079498	0.641381	-0.460091	-0.461425	0.071914	47.841	-0.461218	-982053	-7.322813E-8	NaN
389	1.000000	0.652712	7.36887e+06	-57639.1	1005.82	-29736.8	0.000000	0.000000	6.653007	0.070467	NaN	0.000000	0.001650	0.001668	28.081	0.026869	0.001980	13.5721	-129.257	11.6706	-0.013671	0.651330	-0.450094	-0.451476	0.070467	13.5721	-0.453988	-777114	-9.067824E-8	NaN
389	1.000000	0.662715	7.36887e+06	-57639.1	1005.82	-29736.8	0.000000	0.000000	6.663007	-0.000716	NaN	0.000000	0.001693	0.001641	28.081	0.069372	0.001958	35.4261	-79.7624	-163.81	-0.027298	0.661446	-0.440092	-0.441360	-0.000716	35.4261	-0.440076	-494814	1.447865E-9	NaN
389	1.000000	0.672712	7.36887e+06	-57639.1	1005.82	-29736.8	0.000000	0.000000	6.673004	-0.002055	NaN	0.000000	0.001666	0.001606	28.0807	0.044312	0.001909	23.2154	100.245	13.2832	0.029101	0.671303	-0.430095	-0.431503	-0.002055	23.2154	-0.430028	-356832	5.758227E-9	NaN
389	1.000000	0.682713	7.36887e+06	-57639.1	1005.82	-29736.8	0.000000	0.000000	6.683009	0.108590	NaN	0.000000	0.001668	0.001648	28.0808	0.081531	0.002030	40.1645	134.846	-164.592	0.019366	0.681496	-0.420094	-0.421310	0.108590	40.1645	-0.422122	-275738	-3.938154E-7	NaN
389	1.000000	0.692721	7.36887e+06	-57639.1	1005.82	-29736.8	0.000000	0.000000	6.693016	0.069243	NaN	0.000000	0.001692	0.001627	28.0809	0.049240	0.002079	23.6809	-57.971	14.0742	0.053026	0.691381	-0.410085	-0.411425	0.069243	23.6809	-0.412278	-199889	-3.464067E-7	NaN
389	1.000000	0.702720	7.36887e+06	-57639.1	1005.82	-29736.8	0.000000	0.000000	6.703010	-0.068912	NaN	0.000000	0.001660	0.001678	28.0811	0.098380	0.002019	48.7177	-146.208	-164.453	-0.063122	0.701424	-0.400086	-0.401383	-0.068912	48.7177	-0.399025	-129447	5.323529E-7	NaN
389	1.000000	0.712737	7.36887e+06	-57639.1	1005.82	-29736.8	0.000000	0.000000	6.713032	0.067233	NaN	0.000000	0.001670	0.001651	28.0808	0.117228	0.002179	53.8005	140.673	15.0367	0.094152	0.711410	-0.390070	-0.391396	0.067233	53.8005	-0.391007	-99441.8	-6.761069E-7	NaN
389	1.000000	0.722745	7.36887e+06	-57639.1	1005.82	-29736.8	0.000000	0.000000	6.723037	-0.003879	NaN	0.000000	0.001672	0.001623	28.0809	0.047165	0.001887	24.9933	-53.9366	-162.618	-0.004660	0.721423	-0.380062	-0.381384	-0.003879	24.9933	-0.379945	-69040.1	5.618567E-8	NaN
389	1.000000	0.732738	7.36887e+06	-57639.1	1005.82	-29736.8	0.000000	0.000000	6.733031	0.030415	NaN	0.000000	0.001701	0.001645	28.0808	0.054000	0.001894	28.5034	132.119	10.6639	0.056626	0.731369	-0.370069	-0.371437	0.030415	28.5034	-0.370869	-51125.7	-5.949072E-7	NaN
389	1.000000	0.742733	7.36887e+06	-57639.1	1005.82	-29736.8	0.000000	0.000000	6.743029	0.104814	NaN	0.000000	0.001699	0.001627	28.0798	0.077489	0.001987	38.9922	37.278	-165.991	0.097728	0.741426	-0.360074	-0.361380	0.104814	38.9922	-0.362090	-38198.1	-2.743963E-6	NaN
389	1.000000	0.752780	7.36887e+06	-57639.1	1005.82	-29736.8	0.000000	0.000000	6.753071	-0.037797	NaN	0.000000	0.001647	0.001624	28.0795	0.062467	0.002122	29.4379	-92.9159	15.3403	-0.106149	0.751419	-0.350026	-0.351388	-0.037797	29.4379	-0.349063	-24740	1.527779E-6	NaN
389	1.000000	0.762758	7.36887e+06	-57639.1	1005.82	-29736.8	0.000000	0.000000	6.763054	0.089737	NaN	0.000000	0.001660	0.001617	28.08	0.034621	0.001934	17.9	-41.5884	-164.075	0.079770	0.761447	-0.340049	-0.341359	0.089737	17.9	-0.343809	-20750.3	-4.324621E-6	NaN
389	1.000000	0.772786	7.36887e+06	-57639.1	1005.82	-29736.8	0.000000	0.000000	6.773079	0.020622	NaN	0.000000	0.001691	0.001654	28.0798	0.033562	0.001878	17.8679	11.163	14.5477	0.018322	0.771380	-0.330020	-0.331427	0.020622	17.8679	-0.330886	-13440.7	-1.534292E-6	NaN
389	1.000000	0.782772	7.36887e+06	-57639.1	1005.82	-29736.8	0.000000	0.000000	6.783068	0.100690	NaN	0.000000	0.001696	0.001606	28.0796	0.081026	0.001960	41.3399	-74.7705	-167.532	0.148458	0.781442	-0.320035	-0.321365	0.100690	41.3399	-0.321861	-9908.82	-1.016169E-5	NaN
389	1.000000	0.792775	7.36887e+06	-57639.1	1005.82	-29736.8	0.000000	0.000000	6.793071	0.089938	NaN	0.000000	0.001688	0.001627	28.0797	0.086360	0.001952	44.2361	-86.6433	15.3361	0.140298	0.791379	-0.310031	-0.311427	0.089938	44.2361	-0.311556	-6983.53	-1.287853E-5	NaN
389	1.000000	0.802773	7.36887e+06	-57639.1	1005.82	-29736.8	0.000000	0.000000	6.803068	0.065399	NaN	0.000000	0.001731	0.001636	28.0795	0.069656	0.002082	33.4634	-56.8399	-167.004	0.018232	0.801452	-0.300034	-0.301354	0.065399	33.4634	-0.301500	-4953.92	-1.320149E-5	NaN
389	1.000000	0.812768	7.36887e+06	-57639.1	1005.82	-29736.8	0.000000	0.000000	6.813063	0.077805	NaN	0.000000	0.001724	0.001624	28.0799	0.072064	0.002093	34.4331	87.8259	12.2279	0.110396	0.811430	-0.290039	-0.291376	0.077805	34.4331	-0.291733	-3542.07	-2.196595E-5	NaN
389	1.000000	0.822744	7.36887e+06	-57639.1	1005.82	-29736.8	0.000000	0.000000	6.823040	0.085421	NaN	0.000000	0.001699	0.001603	28.0796	0.110206	0.001922	57.337	-23.5358	-166.826	0.028721	0.821469	-0.280063	-0.281338	0.085421	57.337	-0.281180	-2459.02	-3.473788E-5	NaN
389	1.000000	0.832774	7.36887e+06	-57639.1	1005.82	-29736.8	0.000000	0.000000	6.833065	-0.039903	NaN	0.000000	0.001652	0.001634	28.0797	0.100963	0.002119	47.6439	46.2264	13.2396	-0.067002	0.831451	-0.270033	-0.271355	-0.039903	47.6439	-0.269404	-1631.14	2.446324E-5	NaN
389	1.000000	0.842780	7.36887e+06	-57639.1	1005.82	-29736.8	0.000000	0.000000	6.843073	0.013926	NaN	0.000000	0.001661	0.001649	28.0797	0.015979	0.001773	9.014752	-79.0164	-163.553	0.042921	0.841480	-0.260026	-0.261327	0.013926	9.014752	-0.261185	-1221.98	-1.139603E-5	NaN
389	1.000000	0.852791	7.36887e+06	-57639.1	1005.82	-29736.8	0.000000	0.000000	6.853084	0.023739	NaN	0.000000	0.001707	0.001627	28.0797	0.138673	0.002017	68.7486	-148.258	13.3828	-0.019381	0.851467	-0.250016	-0.251339	0.023739	68.7486	-0.250275	-830.258	-2.859276E-5	NaN
389	1.000000	0.862784	7.36887e+06	-57639.1	1005.82	-29736.8	0.000000	0.000000	6.863078	0.025746	NaN	0.000000	0.001723	0.001640	28.0795	0.062738	0.002017	31.1034	-128.313	-167.428	0.132531	0.861430	-0.240022	-0.241376	0.025746	31.1034	-0.240643	-588.29	-4.376475E-5	NaN
389	1.000000	0.872799	7.36887e+06	-57639.1	1005.82	-29736.8	0.000000	0.000000	6.873093	0.033681	NaN	0.000000	0.001704	0.001638	28.0804	0.028054	0.002102	13.3477	-22.5206	13.3845	-0.007498	0.871485	-0.230007	-0.231321	0.033681	13.3477	-0.231900	-429.022	-7.850649E-5	NaN
389	1.000000	0.882825	7.36887e+06	-57639.1	1005.82	-29736.8	0.000000	0.000000	6.883122	0.102244	NaN	0.000000	0.001689	0.001649	28.0808	0.041955	0.002016	20.8129	49.0883	-166.01	0.115636	0.881516	-0.219981	-0.221291	0.102244	20.8129	-0.223666	-317.779	-0.000322	NaN
389	1.000000	0.892819	7.36887e+06	-57639.1	1005.82	-29736.8	0.000000	0.000000	6.893117	0.123989	NaN	0.000000	0.001677	0.001601	28.0807	0.109729	0.001947	56.3717	1.068683	14.8739	0.109010	0.891458	-0.209987	-0.211348	0.123989	56.3717	-0.211637	-203.841	-0.000608	NaN
389	1.000000	0.902817	7.36887e+06	-57639.1	1005.82	-29736.8	0.000000	0.000000	6.903114	0.114205	NaN	0.000000	0.001643	0.001653	28.0807	0.023495	0.001921	12.2334	-179.939	-165.968	0.044549	0.901475	-0.199990	-0.201331	0.114205	12.2334	-0.206991	-171.391	-0.000666	NaN
389	1.000000	0.912821	7.36887e+06	-57639.1	1005.82	-29736.8	0.000000	0.000000	6.913112	-0.014569	NaN	0.000000	0.001589	0.001616	28.0807	0.040305	0.001965	20.5091	29.8228	13.6809	-0.035717	0.911473	-0.189986	-0.191334	-0.014569	20.5091	-0.189453	-88.0818	0.000165	NaN
389	1.000000	0.922816	7.36887e+06	-57639.1	1005.82	-29736.8	0.000000	0.000000	6.923110	0.045357	NaN	0.000000	0.001587	0.001633	28.0809	0.078935	0.002044	38.6226	-141.765	-166.247	0.055647	0.921486	-0.179991	-0.181321	0.045357	38.6226	-0.180871	-63.1366	-0.000718	NaN
389	1.000000	0.932833	7.36887e+06	-57639.1	1005.82	-29736.8	0.000000	0.000000	6.933129	0.099522	NaN	0.000000	0.001607	0.001618	28.0806	0.177302	0.002067	85.7794	138.363	14.2095	0.081250	0.931481	-0.169974	-0.171325	0.099522	85.7794	-0.170844	-42.4868	-0.002342	NaN
389	1.000000	0.942836	7.36887e+06	-57639.1	1005.82	-29736.8	0.000000	0.000000	6.943131	0.074083	NaN	0.000000	0.001604	0.001625	28.0808	0.122921	0.002086	58.9275	132.853	-164.781	0.089569	0.941466	-0.159971	-0.161340	0.074083	58.9275	-0.160914	-28.4579	-0.002603	NaN
389	1.000000	0.952834	7.36887e+06	-57639.1	1005.82	-29736.8	0.000000	0.000000	6.953129	0.074865	NaN	0.000000	0.001644	0.001638	28.0808	0.019125	0.002016	9.488748	31.2738	16.6457	0.109285	0.951507	-0.149972	-0.151299	0.074865	9.488748	-0.155890	-23.1513	-0.003234	NaN
389	1.000000	0.962868	7.36887e+06	-57639.1	1005.82	-29736.8	0.000000	0.000000	6.963162	0.044778	NaN	0.000000	0.001608	0.001668	28.0808	0.040641	0.001973	20.6023	24.1137	-165.993	0.046724	0.961466	-0.139938	-0.141341	0.044778	20.6023	-0.141569	-12.6578	-0.003538	NaN
389	1.000000	0.972821	7.36887e+06	-57639.1	1005.82	-29736.8	0.000000	0.000000	6.973112	-0.022169	NaN	0.000000	0.001638	0.001636	28.0816	0.100802	0.002040	49.4151	60.8231	14.1827	0.027290	0.971506	-0.129986	-0.131301	-0.022169	49.4151	-0.129649	-7.502259	0.002955	NaN
389	1.000000	0.982838	7.36887e+06	-57639.1	1005.82	-29736.8	0.000000	0.000000	6.983134	0.087558	NaN	0.000000	0.001578	0.001636	28.0808	0.078971	0.002014	39.2156	147.124	-166.447	0.032130	0.981539	-0.119969	-0.121267	0.087558	39.2156	-0.121643	-5.213598	-0.016794	NaN
389	1.000000	0.992858	7.36887e+06	-57639.1	1005.82	-29736.8	0.000000	0.000000	6.993152	0.043282	NaN	0.000000	0.001628	0.001635	28.0808	0.049923	0.002078	24.027	133.187	17.1538	0.098307	0.991522	-0.109949	-0.111285	0.043282	24.027	-0.111300	-3.200366	-0.013524	NaN
389	1.000000	1.002835	7.36887e+06	-57639.1	1005.82	-29736.8	0.000000	0.000000	7.003130	0.060144	NaN	0.000000	0.001624	0.001598	28.0808	0.055423	0.001949	28.4438	-71.4918	-168.177	0.040728	1.001544	-0.099971	-0.101262	0.060144	28.4438	-0.101557	-1.977665	-0.030412	NaN
389	1.000000	1.012867	7.36887e+06	-57639.1	1005.82	-29736.8	0.000000	0.000000	7.013158	-0.024263	NaN	0.000000	0.001656	0.001625	28.0795	0.072190	0.001965	36.7344	-171.297	14.3085	0.079703	1.011465	-0.089940	-0.091341	-0.024263	36.7344	-0.089444	-1.048949	0.023131	NaN
389	1.000000	1.022879	7.36887e+06	-57639.1	1005.82	-29736.8	0.000000	0.000000	7.023174	0.058844	NaN	0.000000	0.001652	0.001638	28.0794	0.043656	0.001988	21.9584	-14.832	-166.884	0.069424	1.021531	-0.079927	-0.081275	0.058844	21.9584	-0.081937	-0.691531	-0.085092	NaN
389	1.000000	1.032889	7.36887e+06	-57639.1	1005.82	-29736.8	0.000000	0.000000	7.033184	0.054221	NaN	0.000000	0.001651	0.001634	28.0796	0.050653	0.002057	24.6257	-150.967	12.972	0.105206	1.031508	-0.069917	-0.071298	0.054221	24.6257	-0.071568	-0.375556	-0.144375	NaN
389	1.000000	1.042893	7.36887e+06	-57639.1	1005.82	-29736.8	0.000000	0.000000	7.043188	0.064419	NaN	0.000000	0.001676	0.001618	28.0796	0.067282	0.001973	34.0969	93.4245	-164.012	0.099417	1.041511	-0.059913	-0.061295	0.064419	34.0969	-0.061330	-0.196559	-0.327731	NaN
389	1.000000	1.052854	7.36887e+06	-57639.1	1005.82	-29736.8	0.000000	0.000000	7.053149	0.064311	NaN	0.000000	0.001667	0.001615	28.0794	0.060863	0.002017	30.1725	56.0354	15.6533	0.062737	1.051480	-0.049952	-0.051327	0.064311	30.1725	-0.051551	-0.101624	-0.632840	NaN
389	1.000000	1.062851	7.36887e+06	-57639.1	1005.82	-29736.8	0.000000	0.000000	7.063146	0.074782	NaN	0.000000	0.001622	0.001613	28.0794	0.088560	0.002103	42.1121	-95.4512	-163.11	0.095941	1.061561	-0.039956	-0.041246	0.074782	42.1121	-0.041288	-0.049492	-1.510990	NaN
389	1.000000	1.072913	7.36887e+06	-57639.1	1005.82	-29736.8	0.000000	0.000000	7.073207	0.051354	NaN	0.000000	0.001656	0.001630	28.0793	0.023963	0.002008	11.9347	-56.5611	15.9078	0.099178	1.071565	-0.029894	-0.031241	0.051354	11.9347	-0.033121	-0.028225	-1.819483	NaN
389	1.000000	1.082870	7.36887e+06	-57639.1	1005.82	-29736.8	0.000000	0.000000	7.083166	0.068151	NaN	0.000000	0.001637	0.001601	28.0796	0.043975	0.002014	21.8316	-156.851	-164.381	0.114461	1.081608	-0.019936	-0.021198	0.068151	21.8316	-0.022277	-0.014353	-4.748294	NaN
389	1.000000	1.092897	7.36887e+06	-57639.1	1005.82	-29736.8	0.000000	0.000000	7.093191	0.045738	NaN	0.000000	0.001621	0.001631	28.0794	0.034816	0.002013	17.2978	-56.1687	14.4252	0.045078	1.091549	-0.009910	-0.011258	0.045738	17.2978	-0.011893	-0.007467	-6.125168	NaN
389	1.000000	1.102904	7.36887e+06	-57639.1	1005.82	-29736.8	0.000000	0.000000	7.103201	0.105462	NaN	0.000000	0.001656	0.001637	28.0794	0.434868	0.001872	232.241	11.4686	-168.273	-0.063129	1.101577	9.783861E-5	-0.001229	0.105462	232.241	-0.000243	-0.000181	-584.098	NaN
389	2.000000	1.112593	7.36887e+06	-57639.1	1005.82	-29736.8	0.000000	0.000000	7.113245	8.720148	NaN	0.000000	0.001615	0.001676	28.0793	9.109706	0.001639	5557.74	10.9382	6.767735	7.522327	1.111500	0.009787	0.008694	8.720148	5557.74	0.008610	0.007678	1135.79	57950.8
389	2.000000	1.115440	7.36887e+06	-57639.1	1005.82	-29736.8	0.000000	0.000000	7.116238	12.2948	NaN	0.000000	0.001650	0.001619	28.0799	12.5882	0.001712	7353.44	10.0169	-177.711	12.4308	1.115148	0.012634	0.012341	12.2948	7353.44	0.011380	0.010756	1143.12	64781.1
389	2.000000	1.117896	7.36887e+06	-57639.1	1005.82	-29736.8	0.000000	0.000000	7.118927	17.9404	NaN	0.000000	0.001670	0.001641	28.0794	15.1817	0.001586	9570.18	5.864273	3.566459	16.9607	1.117543	0.015090	0.014737	17.9404	9570.18	0.013684	0.013570	1322.03	75058
389	2.000000	1.120384	7.36887e+06	-57639.1	1005.82	-29736.8	0.000000	0.000000	7.121479	19.5196	NaN	0.000000	0.001624	0.001590	28.0794	17.5215	0.001726	10152.7	5.404999	-176.272	19.6429	1.120113	0.017577	0.017307	19.5196	10152.7	0.016135	0.016829	1159.85	71502.4
389	2.000000	1.122900	7.36887e+06	-57639.1	1005.82	-29736.8	0.000000	0.000000	7.124178	23.9526	NaN	0.000000	0.001638	0.001632	28.0807	20.6875	0.001897	10907.7	7.948056	1.601175	24.1807	1.122498	0.020093	0.019691	23.9526	10907.7	0.018446	0.020159	1188.16	70188.7
389	2.000000	1.125382	7.36887e+06	-57639.1	1005.82	-29736.8	0.000000	0.000000	7.126930	30.521	NaN	0.000000	0.001592	0.001643	28.0812	22.3408	0.001768	12638.6	2.940575	-175.801	29.7628	1.125009	0.022575	0.022203	30.521	12638.6	0.020764	0.023757	1284.7	74915.9
389	2.000000	1.127859	7.36887e+06	-57639.1	1005.82	-29736.8	0.000000	0.000000	7.129728	38.2991	NaN	0.000000	0.001613	0.001661	28.0806	24.2462	0.001794	13516.7	5.141466	2.504010	36.7714	1.127465	0.025053	0.024659	38.2991	13516.7	0.022928	0.027354	1400.15	74668.2
389	2.000000	1.130336	7.36887e+06	-57639.1	1005.82	-29736.8	0.000000	0.000000	7.132358	42.0427	NaN	0.000000	0.001701	0.001635	28.0807	27.1724	0.001787	15202.1	4.930379	-178.975	42.0806	1.130053	0.027530	0.027247	42.0427	15202.1	0.025456	0.031850	1320.03	77825.8
389	2.000000	1.132796	7.36887e+06	-57639.1	1005.82	-29736.8	0.000000	0.000000	7.135119	49.3406	NaN	0.000000	0.001669	0.001620	28.081	29.9617	0.001805	16598.6	2.319720	1.660502	45.3286	1.132479	0.029990	0.029672	49.3406	16598.6	0.027760	0.036229	1361.9	79673.5
389	2.000000	1.135362	7.36887e+06	-57639.1	1005.82	-29736.8	0.000000	0.000000	7.137864	53.6932	NaN	0.000000	0.001689	0.001632	28.0809	32.0312	0.001772	18076.7	0.753490	-177.119	53.6288	1.135098	0.032556	0.032291	53.6932	18076.7	0.030328	0.041426	1296.13	81144.1
389	2.000000	1.137814	7.36887e+06	-57639.1	1005.82	-29736.8	0.000000	0.000000	7.140650	61.8068	NaN	0.000000	0.001716	0.001617	28.0804	34.453	0.001715	20092.5	3.456366	-0.097777	60.793	1.137488	0.035008	0.034682	61.8068	20092.5	0.032701	0.046528	1328.38	85104.2
389	2.000000	1.140343	7.36887e+06	-57639.1	1005.82	-29736.8	0.000000	0.000000	7.143597	71.9687	NaN	0.000000	0.001667	0.001587	28.0809	36.9492	0.001763	20959.1	8.808565	175.48	72.9065	1.139987	0.037537	0.037181	71.9687	20959.1	0.034961	0.051656	1393.23	84253.1
389	2.000000	1.142797	7.36887e+06	-57639.1	1005.82	-29736.8	0.000000	0.000000	7.146434	81.2853	NaN	0.000000	0.001674	0.001633	28.0809	39.2461	0.001764	22250.7	5.872413	-2.941295	78.1636	1.142384	0.039990	0.039578	81.2853	22250.7	0.037250	0.057116	1423.17	85062.5
389	2.000000	1.145310	7.36887e+06	-57639.1	1005.82	-29736.8	0.000000	0.000000	7.149098	84.9535	NaN	0.000000	0.001702	0.001610	28.0809	42.6326	0.001858	22948.2	4.548221	177.102	82.8238	1.145029	0.042503	0.042223	84.9535	22948.2	0.039727	0.063324	1341.56	83317.5
389	2.000000	1.147800	7.36887e+06	-57639.1	1005.82	-29736.8	0.000000	0.000000	7.152182	99.3878	NaN	0.000000	0.001677	0.001609	28.0808	43.8067	0.001735	25254.8	5.852986	-3.585674	98.4996	1.147404	0.044994	0.044598	99.3878	25254.8	0.042042	0.069413	1431.84	87578.5
389	2.000000	1.150346	7.36887e+06	-57639.1	1005.82	-29736.8	0.000000	0.000000	7.154918	104.007	NaN	0.000000	0.001673	0.001613	28.082	45.4914	0.001823	24950.3	2.099492	179.774	106.686	1.150043	0.047540	0.047237	104.007	24950.3	0.044413	0.075931	1369.77	82725.8
389	2.000000	1.152744	7.36887e+06	-57639.1	1005.82	-29736.8	0.000000	0.000000	7.157856	117.148	NaN	0.000000	0.001669	0.001617	28.081	49.1288	0.001811	27123.9	7.605559	-6.885183	112.644	1.152397	0.049937	0.049591	117.148	27123.9	0.046698	0.082481	1420.3	86287.5
389	2.000000	1.155334	7.36887e+06	-57639.1	1005.82	-29736.8	0.000000	0.000000	7.160513	118.775	NaN	0.000000	0.001685	0.001671	28.0803	51.6249	0.001846	27972.9	5.488997	175.428	120.049	1.155076	0.052527	0.052270	118.775	27972.9	0.049343	0.090392	1314	85005.3
389	2.000000	1.157788	7.36887e+06	-57639.1	1005.82	-29736.8	0.000000	0.000000	7.163685	136.213	NaN	0.000000	0.001704	0.001635	28.0795	51.9267	0.001745	29759.4	2.119076	-2.202435	133.617	1.157411	0.054982	0.054605	136.213	29759.4	0.051549	0.097261	1400.49	87182.2
389	2.000000	1.160275	7.36887e+06	-57639.1	1005.82	-29736.8	0.000000	0.000000	7.166660	148.064	NaN	0.000000	0.001703	0.001652	28.0799	53.5619	0.001729	30973.6	3.168220	176.297	146.272	1.159990	0.057469	0.057184	148.064	30973.6	0.053884	0.104794	1412.91	87417.2
389	2.000000	1.162740	7.36887e+06	-57639.1	1005.82	-29736.8	0.000000	0.000000	7.169539	158.153	NaN	0.000000	0.001656	0.001645	28.0797	56.2267	0.001740	32322.2	-0.130272	0.165498	153.226	1.162391	0.059933	0.059584	158.153	32322.2	0.056263	0.112751	1402.67	87945.3
389	2.000000	1.165280	7.36887e+06	-57639.1	1005.82	-29736.8	0.000000	0.000000	7.172383	165.523	NaN	0.000000	0.001648	0.001653	28.0796	61.384	0.001918	32005.9	8.649420	171.163	165.443	1.164940	0.062474	0.062134	165.523	32005.9	0.058595	0.120819	1370.01	84127.2
389	2.000000	1.167799	7.36887e+06	-57639.1	1005.82	-29736.8	0.000000	0.000000	7.175404	177.737	NaN	0.000000	0.001681	0.001652	28.0796	62.3235	0.001746	35694.7	6.264078	-7.453048	174.515	1.167417	0.064992	0.064610	177.737	35694.7	0.061258	0.130357	1363.46	90325.2
389	2.000000	1.170274	7.36887e+06	-57639.1	1005.82	-29736.8	0.000000	0.000000	7.178478	192.272	NaN	0.000000	0.001580	0.001670	28.08	65.109	0.001907	34148.5	4.864713	174.197	190.923	1.169845	0.067468	0.067039	192.272	34148.5	0.063245	0.137702	1396.29	84076.7
389	2.000000	1.172723	7.36887e+06	-57639.1	1005.82	-29736.8	0.000000	0.000000	7.181308	201.54	NaN	0.000000	0.001604	0.001659	28.0798	68.3186	0.001893	36092.6	6.508157	-8.454805	196.454	1.172330	0.069916	0.069524	201.54	36092.6	0.065729	0.147148	1369.64	85963.7
389	2.000000	1.175209	7.36887e+06	-57639.1	1005.82	-29736.8	0.000000	0.000000	7.184515	219.063	NaN	0.000000	0.001606	0.001658	28.0797	70.047	0.001794	39039	6.919419	171.533	215.64	1.174900	0.072403	0.072093	219.063	39039	0.068194	0.156819	1396.92	90068.4
389	2.000000	1.177790	7.36887e+06	-57639.1	1005.82	-29736.8	0.000000	0.000000	7.187622	231.85	NaN	0.000000	0.001619	0.001650	28.0796	71.1403	0.001800	39520.6	2.732571	-4.883887	229.105	1.177507	0.074984	0.074700	231.85	39520.6	0.070584	0.166471	1392.74	88496.8
389	2.000000	1.180208	7.36887e+06	-57639.1	1005.82	-29736.8	0.000000	0.000000	7.190649	246.638	NaN	0.000000	0.001609	0.001595	28.0799	74.4292	0.001812	41064.8	5.067601	172.382	244.545	1.180073	0.077402	0.077267	246.638	41064.8	0.072897	0.176073	1400.78	89412.3
389	2.000000	1.182754	7.36887e+06	-57639.1	1005.82	-29736.8	0.000000	0.000000	7.193862	262.849	NaN	0.000000	0.001633	0.001567	28.0795	76.2058	0.001799	42355.3	0.609826	-2.495482	260.578	1.182428	0.079948	0.079622	262.849	42355.3	0.075294	0.186286	1411	89658.6
389	2.000000	1.185216	7.36887e+06	-57639.1	1005.82	-29736.8	0.000000	0.000000	7.196826	275.063	NaN	0.000000	0.001601	0.001595	28.0797	79.3217	0.001872	42379.1	2.318576	175.092	272.432	1.184939	0.082409	0.082133	275.063	42379.1	0.077542	0.196112	1402.59	87432.6
389	2.000000	1.187776	7.36887e+06	-57639.1	1005.82	-29736.8	0.000000	0.000000	7.200005	290.125	NaN	0.000000	0.001596	0.001597	28.0796	80.8525	0.001740	46470.9	4.097346	-7.136127	289.551	1.187453	0.084969	0.084647	290.125	46470.9	0.080287	0.208433	1391.93	92997.4
389	2.000000	1.190254	7.36887e+06	-57639.1	1005.82	-29736.8	0.000000	0.000000	7.203278	309.445	NaN	0.000000	0.001631	0.001608	28.0811	82.1144	0.001760	46668.8	2.917467	174.105	310.551	1.189908	0.087447	0.087101	309.445	46668.8	0.082474	0.218501	1416.22	91216.4
389	2.000000	1.192682	7.36887e+06	-57639.1	1005.82	-29736.8	0.000000	0.000000	7.206181	320.985	NaN	0.000000	0.001636	0.001607	28.0808	83.6274	0.001770	47241.5	-1.200033	-2.101289	314.995	1.192456	0.089875	0.089650	320.985	47241.5	0.084779	0.229350	1399.54	90125.5
389	2.000000	1.195280	7.36887e+06	-57639.1	1005.82	-29736.8	0.000000	0.000000	7.209236	332.091	NaN	0.000000	0.001609	0.001585	28.0807	87.5009	0.001830	47827.3	1.941839	174.333	331.471	1.195079	0.092473	0.092273	332.091	47827.3	0.087266	0.241328	1376.1	88949.9
389	2.000000	1.197766	7.36887e+06	-57639.1	1005.82	-29736.8	0.000000	0.000000	7.212677	355.285	NaN	0.000000	0.001626	0.001536	28.0808	90.554	0.001808	50080.3	9.205588	-12.6894	353	1.197316	0.094960	0.094509	355.285	50080.3	0.089639	0.253029	1404.13	90960.9
389	2.000000	1.200223	7.36887e+06	-57639.1	1005.82	-29736.8	0.000000	0.000000	7.215839	372.416	NaN	0.000000	0.001547	0.001547	28.0808	91.6567	0.001803	50846.1	4.262132	171.942	371.406	1.199917	0.097417	0.097111	372.416	50846.1	0.091924	0.264533	1407.82	90321.4
389	2.000000	1.202536	7.36887e+06	-57639.1	1005.82	-29736.8	0.000000	0.000000	7.218730	386.479	NaN	0.000000	0.001584	0.001565	28.0807	95.4069	0.001896	50323.3	2.962770	-6.301746	374.111	1.202271	0.099729	0.099464	386.479	50323.3	0.093969	0.275038	1405.18	87669
389	2.000000	1.205259	7.36887e+06	-57639.1	1005.82	-29736.8	0.000000	0.000000	7.221931	398.101	NaN	0.000000	0.001593	0.001551	28.0808	97.5488	0.001795	54347.5	2.259385	173.343	398.119	1.205128	0.102453	0.102321	398.101	54347.5	0.096959	0.290734	1369.3	92088.3
389	2.000000	1.207802	7.36887e+06	-57639.1	1005.82	-29736.8	0.000000	0.000000	7.225671	427.165	NaN	0.000000	0.001568	0.001542	28.0809	99.7375	0.001844	54081.9	6.017805	-9.377416	426.184	1.207269	0.104996	0.104463	427.165	54081.9	0.099072	0.302075	1414.1	89901.6
389	2.000000	1.210251	7.36887e+06	-57639.1	1005.82	-29736.8	0.000000	0.000000	7.228788	443.412	NaN	0.000000	0.001679	0.001544	28.0808	101.817	0.001795	56717.5	1.735515	173.689	442.584	1.209888	0.107445	0.107081	443.412	56717.5	0.101582	0.315806	1404.07	92210.5
389	2.000000	1.211208	7.36887e+06	-57639.1	1005.82	-29736.8	0.000000	0.000000	7.230233	455.272	NaN	0.000000	0.001639	0.001542	28.0809	104.643	0.001912	54717.9	6.844257	170.102	453.349	1.210737	0.108401	0.107931	455.272	54717.9	0.102161	0.319018	1427.1	88510.5