File: remote_trans/data/nanoindenter/0828-1/data/Data_2025-08-06,11h17m57s/2025-07-22_16-23-58_1_393.txt
2025-07-22, 16:23:58, 1
Index	Phase	Displacement	Time	Pos X	Pos Y	Pos Z	Rot A	Rot B	Piezo Z	Force A	Force B	Gripper	Voltage A	Voltage B	Temperature	Amplitude force	Amplitude pos	Stiffness	Phase shift	Phase excitation	Force A raw	Displacement raw	HMax	HMax raw	Real Force	Real Stiffness	Contact Depth	Area	Hardness	Reduced Mod.
[#]	[#]	[um]	[s]	[um]	[um]	[um]	[m°]	[m°]	[um]	[uN]	[uN]	[V]	[V]	[V]	[°C]	[uN]	[um]	[N/m]	[°]	[°]	[uN]	[um]	[um]	[um]	[uN]	[N/m]	[um]	[um^2]	[MPa]	[MPa]
393	1.000000	0.002684	7.36891e+06	-57439.1	1005.82	-29737.1	0.000000	0.000000	6.002808	-0.018918	NaN	0.000000	0.001618	0.001652	28.0816	0.057981	0.001018	56.9583	127.398	-164.34	-0.008523	0.001393	-1.076357	-1.077648	-0.018918	56.9583	-1.076108	-2.394622E+14	7.900244E-17	NaN
393	1.000000	0.010645	7.36891e+06	-57439.1	1005.82	-29737.1	0.000000	0.000000	6.010774	0.083837	NaN	0.000000	0.001643	0.001629	28.0816	0.075044	0.000907	82.7131	19.6955	-167.779	0.009284	0.009332	-1.068396	-1.069709	0.083837	82.7131	-1.069156	-1.931287E+14	-4.340992E-16	NaN
393	1.000000	0.018622	7.36891e+06	-57439.1	1005.82	-29737.1	0.000000	0.000000	6.018745	-0.060611	NaN	0.000000	0.001647	0.001645	28.0817	0.125657	0.001702	73.8422	143.71	-167.608	0.002362	0.017345	-1.060419	-1.061696	-0.060611	73.8422	-1.059803	-1.446029E+14	4.191578E-16	NaN
393	1.000000	0.026663	7.36891e+06	-57439.1	1005.82	-29737.1	0.000000	0.000000	6.026786	-0.054088	NaN	0.000000	0.001668	0.001648	28.0817	0.003691	0.001729	2.135015	-150.666	-168.219	-0.000618	0.025329	-1.052378	-1.053711	-0.054088	2.135015	-1.033378	-6.381305E+13	8.475946E-16	NaN
393	1.000000	0.034651	7.36891e+06	-57439.1	1005.82	-29737.1	0.000000	0.000000	6.034775	-0.007602	NaN	0.000000	0.001679	0.001679	28.0818	0.035356	0.001959	18.0451	70.9945	-164.442	0.020159	0.033281	-1.044390	-1.045759	-0.007602	18.0451	-1.044074	-8.886863E+13	8.553819E-17	NaN
393	1.000000	0.042637	7.36891e+06	-57439.1	1005.82	-29737.1	0.000000	0.000000	6.042762	-0.009381	NaN	0.000000	0.001649	0.001653	28.0817	0.043771	0.001849	23.6703	-112.923	-165.52	0.007800	0.041295	-1.036404	-1.037746	-0.009381	23.6703	-1.036107	-6.944014E+13	1.350928E-16	NaN
393	1.000000	0.050621	7.36891e+06	-57439.1	1005.82	-29737.1	0.000000	0.000000	6.050746	0.012109	NaN	0.000000	0.001672	0.001672	28.0823	0.084913	0.001947	43.6144	88.0842	-167.866	0.009221	0.049233	-1.028420	-1.029807	0.012109	43.6144	-1.028628	-5.508427E+13	-2.198216E-16	NaN
393	1.000000	0.058621	7.36891e+06	-57439.1	1005.82	-29737.1	0.000000	0.000000	6.058746	0.002640	NaN	0.000000	0.001650	0.001671	28.0816	0.072694	0.001980	36.716	-63.0082	-166.906	-0.000206	0.057304	-1.020420	-1.021737	0.002640	36.716	-1.020474	-4.278882E+13	-6.169105E-17	NaN
393	1.000000	0.066606	7.36891e+06	-57439.1	1005.82	-29737.1	0.000000	0.000000	6.066731	-0.008232	NaN	0.000000	0.001654	0.001678	28.082	0.067128	0.002015	33.3082	-171.292	-163.84	-0.061535	0.065305	-1.012434	-1.013736	-0.008232	33.3082	-1.012249	-3.316279E+13	2.482290E-16	NaN
393	1.000000	0.074628	7.36891e+06	-57439.1	1005.82	-29737.1	0.000000	0.000000	6.074753	0.015858	NaN	0.000000	0.001682	0.001651	28.0818	0.034786	0.002012	17.2897	86.1846	-169.885	-0.148531	0.073346	-1.004413	-1.005695	0.015858	17.2897	-1.005101	-2.657304E+13	-5.967867E-16	NaN
393	1.000000	0.082626	7.36891e+06	-57439.1	1005.82	-29737.1	0.000000	0.000000	6.082754	0.065153	NaN	0.000000	0.001651	0.001659	28.0817	0.073221	0.001862	39.3136	-76.9392	-165.229	0.052143	0.081231	-0.996415	-0.997810	0.065153	39.3136	-0.997658	-2.109765E+13	-3.088160E-15	NaN
393	1.000000	0.090636	7.36891e+06	-57439.1	1005.82	-29737.1	0.000000	0.000000	6.090763	0.036915	NaN	0.000000	0.001615	0.001624	28.0824	0.088532	0.001997	44.3426	143.753	-163.059	0.032697	0.089344	-0.988405	-0.989697	0.036915	44.3426	-0.989029	-1.614490E+13	-2.286481E-15	NaN
393	1.000000	0.098619	7.36891e+06	-57439.1	1005.82	-29737.1	0.000000	0.000000	6.098743	-0.016147	NaN	0.000000	0.001642	0.001641	28.0819	0.065413	0.001885	34.6946	-20.218	-166.642	-0.023196	0.097397	-0.980422	-0.981643	-0.016147	34.6946	-0.980073	-1.222907E+13	1.320344E-15	NaN
393	1.000000	0.106654	7.36891e+06	-57439.1	1005.82	-29737.1	0.000000	0.000000	6.106778	-0.034731	NaN	0.000000	0.001686	0.001655	28.0822	0.033320	0.001995	16.7037	5.419692	-169.146	-0.041961	0.105325	-0.972386	-0.973716	-0.034731	16.7037	-0.970827	-9.179283E+12	3.783632E-15	NaN
393	1.000000	0.114650	7.36891e+06	-57439.1	1005.82	-29737.1	0.000000	0.000000	6.114775	-0.012078	NaN	0.000000	0.001617	0.001649	28.0813	0.064971	0.002064	31.4704	156.74	-165.976	-0.048901	0.113400	-0.964391	-0.965641	-0.012078	31.4704	-0.964103	-7.450420E+12	1.621166E-15	NaN
393	1.000000	0.122654	7.36891e+06	-57439.1	1005.82	-29737.1	0.000000	0.000000	6.122778	-0.020120	NaN	0.000000	0.001637	0.001643	28.0805	0.050828	0.001970	25.8026	-7.779243	-166.274	-0.040059	0.121408	-0.956387	-0.957633	-0.020120	25.8026	-0.955802	-5.757985E+12	3.494229E-15	NaN
393	1.000000	0.130634	7.36891e+06	-57439.1	1005.82	-29737.1	0.000000	0.000000	6.130760	0.023288	NaN	0.000000	0.001664	0.001651	28.0805	0.058948	0.002050	28.7528	-60.7281	-165.802	0.072751	0.129332	-0.948407	-0.949708	0.023288	28.7528	-0.949014	-4.663730E+12	-4.993389E-15	NaN
393	1.000000	0.138661	7.36891e+06	-57439.1	1005.82	-29737.1	0.000000	0.000000	6.138787	0.035357	NaN	0.000000	0.001625	0.001676	28.0803	0.031610	0.001897	16.6653	-2.534279	-168.072	-0.004727	0.137331	-0.940380	-0.941710	0.035357	16.6653	-0.941971	-3.747429E+12	-9.435056E-15	NaN
393	1.000000	0.146651	7.36891e+06	-57439.1	1005.82	-29737.1	0.000000	0.000000	6.146774	-0.045125	NaN	0.000000	0.001621	0.001673	28.0807	0.044573	0.001980	22.5121	-93.965	-168.956	0.038350	0.145351	-0.932390	-0.933689	-0.045125	22.5121	-0.930886	-2.655569E+12	1.699271E-14	NaN
393	1.000000	0.154643	7.36891e+06	-57439.1	1005.82	-29737.1	0.000000	0.000000	6.154767	-0.018570	NaN	0.000000	0.001651	0.001690	28.0805	0.084340	0.001926	43.7955	58.8284	-166.441	-0.011623	0.153328	-0.924398	-0.925713	-0.018570	43.7955	-0.924080	-2.149247E+12	8.640324E-15	NaN
393	1.000000	0.162681	7.36891e+06	-57439.1	1005.82	-29737.1	0.000000	0.000000	6.162805	-0.026966	NaN	0.000000	0.001627	0.001682	28.0804	0.061936	0.002046	30.2779	134.369	-165.205	-0.075390	0.161372	-0.916359	-0.917669	-0.026966	30.2779	-0.915691	-1.655880E+12	1.628494E-14	NaN
393	1.000000	0.170651	7.36891e+06	-57439.1	1005.82	-29737.1	0.000000	0.000000	6.170776	-0.001000	NaN	0.000000	0.001640	0.001630	28.0803	0.004061	0.001982	2.049035	-5.861199	-170.718	-0.018285	0.169382	-0.908390	-0.909659	-0.001000	2.049035	-0.908023	-1.304560E+12	7.667106E-16	NaN
393	1.000000	0.178665	7.36891e+06	-57439.1	1005.82	-29737.1	0.000000	0.000000	6.178790	-0.003397	NaN	0.000000	0.001626	0.001668	28.0802	0.032000	0.002089	15.3196	159.951	-167.437	-0.031596	0.177406	-0.900376	-0.901635	-0.003397	15.3196	-0.900209	-1.023049E+12	3.320259E-15	NaN
393	1.000000	0.186654	7.36891e+06	-57439.1	1005.82	-29737.1	0.000000	0.000000	6.186777	-0.063233	NaN	0.000000	0.001662	0.001662	28.0808	0.052637	0.001974	26.6701	-110.826	-166.321	-0.026280	0.185355	-0.892386	-0.893686	-0.063233	26.6701	-0.890608	-7.588171E+11	8.333059E-14	NaN
393	1.000000	0.194684	7.36891e+06	-57439.1	1005.82	-29737.1	0.000000	0.000000	6.194807	-0.039289	NaN	0.000000	0.001686	0.001651	28.0804	0.037563	0.001944	19.3235	-40.007	-166.031	0.046178	0.193362	-0.884357	-0.885678	-0.039289	19.3235	-0.882832	-5.956728E+11	6.595746E-14	NaN
393	1.000000	0.202688	7.36891e+06	-57439.1	1005.82	-29737.1	0.000000	0.000000	6.202813	-0.017047	NaN	0.000000	0.001651	0.001654	28.0808	0.095107	0.001997	47.62	-105.887	-166.274	0.046459	0.201328	-0.876353	-0.877713	-0.017047	47.62	-0.876084	-4.827765E+11	3.531120E-14	NaN
393	1.000000	0.210661	7.36891e+06	-57439.1	1005.82	-29737.1	0.000000	0.000000	6.210787	0.028841	NaN	0.000000	0.001668	0.001688	28.0807	0.067921	0.001955	34.7407	-20.411	-166.92	0.065457	0.209394	-0.868380	-0.869647	0.028841	34.7407	-0.869003	-3.872157E+11	-7.448332E-14	NaN
393	1.000000	0.218713	7.36891e+06	-57439.1	1005.82	-29737.1	0.000000	0.000000	6.218837	-0.021897	NaN	0.000000	0.001610	0.001647	28.0805	0.047108	0.002068	22.7773	-116.109	-165.29	0.019892	0.217379	-0.860328	-0.861662	-0.021897	22.7773	-0.859607	-2.889362E+11	7.578605E-14	NaN
393	1.000000	0.226706	7.36891e+06	-57439.1	1005.82	-29737.1	0.000000	0.000000	6.226833	0.028389	NaN	0.000000	0.001618	0.001661	28.0808	0.043019	0.001906	22.5754	-95.0315	-167.223	0.002741	0.225390	-0.852334	-0.853651	0.028389	22.5754	-0.853278	-2.372014E+11	-1.196843E-13	NaN
393	1.000000	0.234711	7.36891e+06	-57439.1	1005.82	-29737.1	0.000000	0.000000	6.234836	-0.006536	NaN	0.000000	0.001622	0.001647	28.0806	0.015230	0.001950	7.809036	73.7485	-165.217	0.035802	0.233399	-0.844329	-0.845642	-0.006536	7.809036	-0.843702	-1.759696E+11	3.714503E-14	NaN
393	1.000000	0.242715	7.36891e+06	-57439.1	1005.82	-29737.1	0.000000	0.000000	6.242839	-0.026542	NaN	0.000000	0.001616	0.001654	28.0807	0.101166	0.002097	48.2388	175.078	-165.966	-0.025453	0.241458	-0.836326	-0.837583	-0.026542	48.2388	-0.835913	-1.380142E+11	1.923142E-13	NaN
393	1.000000	0.250718	7.36891e+06	-57439.1	1005.82	-29737.1	0.000000	0.000000	6.250843	0.011019	NaN	0.000000	0.001659	0.001642	28.0808	0.037378	0.001913	19.5372	-77.5659	-164.551	0.004963	0.249393	-0.828323	-0.829647	0.011019	19.5372	-0.828746	-1.103547E+11	-9.985027E-14	NaN
393	1.000000	0.258698	7.36891e+06	-57439.1	1005.82	-29737.1	0.000000	0.000000	6.258826	0.074759	NaN	0.000000	0.001671	0.001705	28.082	0.068582	0.002049	33.4756	-46.9154	-166.923	-0.014632	0.257372	-0.820343	-0.821669	0.074759	33.4756	-0.822018	-8.944923E+10	-8.357720E-13	NaN
393	1.000000	0.266725	7.36891e+06	-57439.1	1005.82	-29737.1	0.000000	0.000000	6.266849	-0.019140	NaN	0.000000	0.001632	0.001717	28.0816	0.043852	0.002023	21.6801	-133.913	-166.19	-0.031275	0.265356	-0.812316	-0.813684	-0.019140	21.6801	-0.811654	-6.471584E+10	2.957525E-13	NaN
393	1.000000	0.274704	7.36891e+06	-57439.1	1005.82	-29737.1	0.000000	0.000000	6.274829	-0.007231	NaN	0.000000	0.001665	0.001685	28.0816	0.122865	0.002041	60.2	-128.087	-165.069	-0.072516	0.273423	-0.804336	-0.805618	-0.007231	60.2	-0.804246	-5.134481E+10	1.408359E-13	NaN
393	1.000000	0.282729	7.36891e+06	-57439.1	1005.82	-29737.1	0.000000	0.000000	6.282854	0.000733	NaN	0.000000	0.001678	0.001680	28.0819	0.014907	0.002134	6.984837	126.825	-166.187	-0.031396	0.281469	-0.796312	-0.797571	0.000733	6.984837	-0.796391	-4.016630E+10	-1.825777E-14	NaN
393	1.000000	0.290763	7.36891e+06	-57439.1	1005.82	-29737.1	0.000000	0.000000	6.290891	0.061635	NaN	0.000000	0.001700	0.001653	28.0817	0.060477	0.002017	29.9874	149.791	-169.544	0.011727	0.289446	-0.788278	-0.789595	0.061635	29.9874	-0.789819	-3.270615E+10	-1.884504E-12	NaN
393	1.000000	0.298712	7.36891e+06	-57439.1	1005.82	-29737.1	0.000000	0.000000	6.298838	0.036646	NaN	0.000000	0.001674	0.001632	28.0819	0.031626	0.001988	15.9052	127.255	-163.688	0.062654	0.297385	-0.780329	-0.781656	0.036646	15.9052	-0.782057	-2.565584E+10	-1.428377E-12	NaN
393	1.000000	0.306732	7.36891e+06	-57439.1	1005.82	-29737.1	0.000000	0.000000	6.306859	0.043344	NaN	0.000000	0.001657	0.001659	28.0825	0.160031	0.002039	78.4795	-26.8622	-164.755	0.098430	0.305472	-0.772308	-0.773569	0.043344	78.4795	-0.772723	-1.915666E+10	-2.262584E-12	NaN
393	1.000000	0.314708	7.36891e+06	-57439.1	1005.82	-29737.1	0.000000	0.000000	6.314833	0.004634	NaN	0.000000	0.001602	0.001657	28.0816	0.050107	0.002031	24.6664	150.679	-168.034	0.033902	0.313459	-0.764333	-0.765582	0.004634	24.6664	-0.764474	-1.479651E+10	-3.131947E-13	NaN
393	1.000000	0.322724	7.36891e+06	-57439.1	1005.82	-29737.1	0.000000	0.000000	6.322852	0.073596	NaN	0.000000	0.001603	0.001648	28.0818	0.087658	0.002043	42.9157	-13.8286	-166.567	0.016877	0.321442	-0.756317	-0.757599	0.073596	42.9157	-0.757603	-1.193155E+10	-6.168192E-12	NaN
393	1.000000	0.330731	7.36891e+06	-57439.1	1005.82	-29737.1	0.000000	0.000000	6.330858	0.031192	NaN	0.000000	0.001630	0.001645	28.0816	0.054136	0.002065	26.2108	-148.807	-166.386	0.059909	0.329448	-0.748309	-0.749593	0.031192	26.2108	-0.749202	-9.169698E+9	-3.401683E-12	NaN
393	1.000000	0.338763	7.36891e+06	-57439.1	1005.82	-29737.1	0.000000	0.000000	6.338889	0.011868	NaN	0.000000	0.001612	0.001647	28.0817	0.064353	0.001937	33.2242	123.152	-165.279	0.088644	0.337443	-0.740278	-0.741598	0.011868	33.2242	-0.740546	-6.990189E+9	-1.697775E-12	NaN
393	1.000000	0.346759	7.36891e+06	-57439.1	1005.82	-29737.1	0.000000	0.000000	6.346885	0.021637	NaN	0.000000	0.001662	0.001660	28.0814	0.007105	0.001924	3.692742	-107.327	-166.087	-0.008080	0.345438	-0.732282	-0.733602	0.021637	3.692742	-0.736677	-6.191362E+9	-3.494755E-12	NaN
393	1.000000	0.354746	7.36891e+06	-57439.1	1005.82	-29737.1	0.000000	0.000000	6.354872	0.002887	NaN	0.000000	0.001611	0.001688	28.0814	0.041892	0.001998	20.9656	-61.2059	-168.456	0.030907	0.353458	-0.724294	-0.725583	0.002887	20.9656	-0.724398	-4.211535E+9	-6.854384E-13	NaN
393	1.000000	0.362759	7.36891e+06	-57439.1	1005.82	-29737.1	0.000000	0.000000	6.362884	-0.007769	NaN	0.000000	0.001666	0.001643	28.0813	0.044843	0.001902	23.5747	63.3044	-165.583	-0.029731	0.361475	-0.716281	-0.717566	-0.007769	23.5747	-0.716034	-3.238781E+9	2.398804E-12	NaN
393	1.000000	0.370767	7.36891e+06	-57439.1	1005.82	-29737.1	0.000000	0.000000	6.370892	-0.003463	NaN	0.000000	0.001661	0.001651	28.0813	0.137989	0.002074	66.5468	-61.9769	-167.072	-0.010709	0.369481	-0.708274	-0.709560	-0.003463	66.5468	-0.708235	-2.534868E+9	1.366338E-12	NaN
393	1.000000	0.378776	7.36891e+06	-57439.1	1005.82	-29737.1	0.000000	0.000000	6.378902	0.012687	NaN	0.000000	0.001631	0.001643	28.0816	0.079148	0.001914	41.3508	34.6346	-167.438	0.008102	0.377476	-0.700265	-0.701564	0.012687	41.3508	-0.700495	-1.987410E+9	-6.383655E-12	NaN
393	1.000000	0.386776	7.36891e+06	-57439.1	1005.82	-29737.1	0.000000	0.000000	6.386903	0.056386	NaN	0.000000	0.001604	0.001638	28.0811	0.035486	0.001971	18.0055	-63.2178	-165.152	-0.002319	0.385473	-0.692265	-0.693568	0.056386	18.0055	-0.694614	-1.651821E+9	-3.413551E-11	NaN
393	1.000000	0.394758	7.36891e+06	-57439.1	1005.82	-29737.1	0.000000	0.000000	6.394886	0.054569	NaN	0.000000	0.001653	0.001628	28.0804	0.030396	0.001962	15.4903	-77.0077	-167.69	0.072132	0.393405	-0.684282	-0.685635	0.054569	15.4903	-0.686924	-1.296828E+9	-4.207885E-11	NaN
393	1.000000	0.402788	7.36891e+06	-57439.1	1005.82	-29737.1	0.000000	0.000000	6.402914	0.000302	NaN	0.000000	0.001664	0.001597	28.0801	0.081149	0.002105	38.5513	-140.99	-167.698	-0.028671	0.401538	-0.676252	-0.677502	0.000302	38.5513	-0.676258	-9.268807E+8	-3.260291E-13	NaN
393	1.000000	0.410780	7.36891e+06	-57439.1	1005.82	-29737.1	0.000000	0.000000	6.410908	0.074894	NaN	0.000000	0.001646	0.001576	28.0804	0.033003	0.002191	15.0614	87.348	-164.741	0.068310	0.409443	-0.668261	-0.669598	0.074894	15.0614	-0.671990	-8.102664E+8	-9.243143E-11	NaN
393	1.000000	0.418772	7.36891e+06	-57439.1	1005.82	-29737.1	0.000000	0.000000	6.418898	0.003001	NaN	0.000000	0.001654	0.001622	28.0804	0.027770	0.002111	13.1517	-81.0792	-167.023	-0.047615	0.417466	-0.660268	-0.661575	0.003001	13.1517	-0.660440	-5.629762E+8	-5.330603E-12	NaN
393	1.000000	0.426799	7.36891e+06	-57439.1	1005.82	-29737.1	0.000000	0.000000	6.426926	0.038340	NaN	0.000000	0.001663	0.001585	28.0803	0.069751	0.001851	37.6908	-176.393	-164.866	0.011764	0.425477	-0.652242	-0.653563	0.038340	37.6908	-0.653005	-4.452705E+8	-8.610584E-11	NaN
393	1.000000	0.434788	7.36891e+06	-57439.1	1005.82	-29737.1	0.000000	0.000000	6.434912	-0.023560	NaN	0.000000	0.001689	0.001587	28.0806	0.064098	0.001977	32.4286	-152.265	-168.694	0.057958	0.433506	-0.644252	-0.645534	-0.023560	32.4286	-0.643708	-3.320101E+8	7.096072E-11	NaN
393	1.000000	0.442781	7.36891e+06	-57439.1	1005.82	-29737.1	0.000000	0.000000	6.442905	-0.030625	NaN	0.000000	0.001656	0.001575	28.0804	0.068785	0.001987	34.6243	-176.188	-167.548	0.022171	0.441485	-0.636260	-0.637556	-0.030625	34.6243	-0.635597	-2.569567E+8	1.191829E-10	NaN
393	1.000000	0.450778	7.36891e+06	-57439.1	1005.82	-29737.1	0.000000	0.000000	6.450902	-0.043148	NaN	0.000000	0.001662	0.001577	28.0805	0.054671	0.001960	27.8908	-102.109	-166.974	0.005660	0.449487	-0.628263	-0.629554	-0.043148	27.8908	-0.627102	-1.964374E+8	2.196547E-10	NaN
393	1.000000	0.458790	7.36891e+06	-57439.1	1005.82	-29737.1	0.000000	0.000000	6.458917	0.041193	NaN	0.000000	0.001673	0.001586	28.0806	0.038556	0.002005	19.234	141.741	-166.68	-0.025366	0.457485	-0.620250	-0.621555	0.041193	19.234	-0.621857	-1.663998E+8	-2.475551E-10	NaN
393	1.000000	0.466816	7.36891e+06	-57439.1	1005.82	-29737.1	0.000000	0.000000	6.466944	0.074307	NaN	0.000000	0.001666	0.001591	28.0806	0.051482	0.002108	24.4217	78.4483	-165.609	0.069704	0.465521	-0.612225	-0.613520	0.074307	24.4217	-0.614507	-1.318602E+8	-5.635276E-10	NaN
393	1.000000	0.474802	7.36891e+06	-57439.1	1005.82	-29737.1	0.000000	0.000000	6.474930	0.066002	NaN	0.000000	0.001661	0.001579	28.0807	0.044389	0.001955	22.7032	91.3337	-166.477	0.041284	0.473506	-0.604239	-0.605535	0.066002	22.7032	-0.606419	-1.020566E+8	-6.467161E-10	NaN
393	1.000000	0.482808	7.36891e+06	-57439.1	1005.82	-29737.1	0.000000	0.000000	6.482935	0.057728	NaN	0.000000	0.001688	0.001583	28.0806	0.078717	0.001990	39.5499	91.9916	-165.851	-0.106364	0.481550	-0.596233	-0.597490	0.057728	39.5499	-0.597328	-7.649893E+7	-7.546226E-10	NaN
393	1.000000	0.490788	7.36891e+06	-57439.1	1005.82	-29737.1	0.000000	0.000000	6.490913	-0.007893	NaN	0.000000	0.001721	0.001616	28.0805	0.032898	0.001990	16.5285	132.661	-165.546	0.049206	0.489525	-0.588253	-0.589516	-0.007893	16.5285	-0.587895	-5.670744E+7	1.391838E-10	NaN
393	1.000000	0.498787	7.36891e+06	-57439.1	1005.82	-29737.1	0.000000	0.000000	6.498910	-0.060900	NaN	0.000000	0.001637	0.001573	28.0817	0.155273	0.002038	76.1767	-69.1215	-168.505	-0.062881	0.497553	-0.580254	-0.581488	-0.060900	76.1767	-0.579654	-4.364694E+7	1.395280E-9	NaN
393	1.000000	0.506829	7.36891e+06	-57439.1	1005.82	-29737.1	0.000000	0.000000	6.506954	0.002287	NaN	0.000000	0.001661	0.001550	28.0806	0.020968	0.002045	10.255	-100.966	-166.792	0.004798	0.505519	-0.572211	-0.573522	0.002287	10.255	-0.572379	-3.463343E+7	-6.604071E-11	NaN
393	1.000000	0.514818	7.36891e+06	-57439.1	1005.82	-29737.1	0.000000	0.000000	6.514944	0.015600	NaN	0.000000	0.001699	0.001577	28.0808	0.144962	0.001956	74.1104	-139.415	-167.161	0.074570	0.513472	-0.564223	-0.565569	0.015600	74.1104	-0.564381	-2.685118E+7	-5.809830E-10	NaN
393	1.000000	0.522808	7.36891e+06	-57439.1	1005.82	-29737.1	0.000000	0.000000	6.522934	0.008299	NaN	0.000000	0.001670	0.001580	28.0805	0.091044	0.001959	46.4633	44.323	-170.004	0.121091	0.521497	-0.556232	-0.557544	0.008299	46.4633	-0.556366	-2.080179E+7	-3.989770E-10	NaN
393	1.000000	0.530820	7.36891e+06	-57439.1	1005.82	-29737.1	0.000000	0.000000	6.530944	-0.025137	NaN	0.000000	0.001654	0.001574	28.082	0.034627	0.002024	17.1085	-84.9211	-168.13	0.010908	0.529561	-0.548221	-0.549480	-0.025137	17.1085	-0.547119	-1.548979E+7	1.622822E-9	NaN
393	1.000000	0.538829	7.36891e+06	-57439.1	1005.82	-29737.1	0.000000	0.000000	6.538955	0.015872	NaN	0.000000	0.001669	0.001563	28.0818	0.129449	0.002016	64.2259	-17.4716	-162.52	0.019976	0.537539	-0.540211	-0.541502	0.015872	64.2259	-0.540397	-1.249854E+7	-1.269917E-9	NaN
393	1.000000	0.546847	7.36891e+06	-57439.1	1005.82	-29737.1	0.000000	0.000000	6.546972	0.015244	NaN	0.000000	0.001658	0.001570	28.0819	0.108047	0.001998	54.0792	122.109	-164.147	0.076248	0.545483	-0.532194	-0.533558	0.015244	54.0792	-0.532406	-9.68229e+06	-1.574382E-9	NaN
393	1.000000	0.554841	7.36891e+06	-57439.1	1005.82	-29737.1	0.000000	0.000000	6.554965	-0.039051	NaN	0.000000	0.001635	0.001576	28.0818	0.014695	0.002109	6.969029	-120.031	-167.022	-0.041805	0.553584	-0.524200	-0.525457	-0.039051	6.969029	-0.519997	-6.50962e+06	5.998928E-9	NaN
393	1.000000	0.562799	7.36891e+06	-57439.1	1005.82	-29737.1	0.000000	0.000000	6.562921	-0.068456	NaN	0.000000	0.001637	0.001559	28.0818	0.039052	0.002012	19.4071	-133.908	-163.947	-0.013685	0.561520	-0.516242	-0.517521	-0.068456	19.4071	-0.513597	-5.3027e+06	1.290966E-8	NaN
393	1.000000	0.570861	7.36891e+06	-57439.1	1005.82	-29737.1	0.000000	0.000000	6.570988	0.062200	NaN	0.000000	0.001657	0.001575	28.0819	0.022963	0.001977	11.614	-51.7418	-166.794	-0.028182	0.569472	-0.508180	-0.509569	0.062200	11.614	-0.512197	-5.07004e+06	-1.226822E-8	NaN
393	1.000000	0.578832	7.36891e+06	-57439.1	1005.82	-29737.1	0.000000	0.000000	6.578957	-0.015244	NaN	0.000000	0.001645	0.001563	28.0816	0.067364	0.002007	33.5674	150.973	-167.844	0.047564	0.577536	-0.500208	-0.501504	-0.015244	33.5674	-0.499868	-3.4133e+06	4.465968E-9	NaN
393	1.000000	0.586839	7.36891e+06	-57439.1	1005.82	-29737.1	0.000000	0.000000	6.586963	-0.011490	NaN	0.000000	0.001656	0.001563	28.082	0.058514	0.001922	30.4457	44.8578	-168.503	0.055031	0.585501	-0.492202	-0.493539	-0.011490	30.4457	-0.491919	-2.64367e+06	4.346254E-9	NaN
393	1.000000	0.594824	7.36891e+06	-57439.1	1005.82	-29737.1	0.000000	0.000000	6.594949	-0.020977	NaN	0.000000	0.001660	0.001557	28.0818	0.046225	0.001840	25.1267	152.605	-166.456	-0.140516	0.593547	-0.484216	-0.485494	-0.020977	25.1267	-0.483590	-2.02196e+06	1.037467E-8	NaN
393	1.000000	0.602852	7.36891e+06	-57439.1	1005.82	-29737.1	0.000000	0.000000	6.602979	0.025208	NaN	0.000000	0.001664	0.001615	28.0817	0.171386	0.002143	79.9866	103.971	-165.974	-0.061759	0.601623	-0.476188	-0.477417	0.025208	79.9866	-0.476425	-1.60494e+06	-1.570646E-8	NaN
393	1.000000	0.610865	7.36891e+06	-57439.1	1005.82	-29737.1	0.000000	0.000000	6.610991	0.007721	NaN	0.000000	0.001639	0.001604	28.0819	0.107245	0.002104	50.9698	-163.925	-164.301	-0.040191	0.609563	-0.468176	-0.469478	0.007721	50.9698	-0.468289	-1.23426e+06	-6.255508E-9	NaN
393	1.000000	0.618859	7.36891e+06	-57439.1	1005.82	-29737.1	0.000000	0.000000	6.618985	0.023040	NaN	0.000000	0.001698	0.001572	28.0817	0.017293	0.002072	8.346010	-148.899	-166.927	0.037708	0.617556	-0.460182	-0.461485	0.023040	8.346010	-0.462252	-1.01545e+06	-2.268961E-8	NaN
393	1.000000	0.626875	7.36891e+06	-57439.1	1005.82	-29737.1	0.000000	0.000000	6.627001	0.019636	NaN	0.000000	0.001659	0.001540	28.082	0.110917	0.002082	53.2716	76.9365	-165.446	0.022345	0.625571	-0.452166	-0.453470	0.019636	53.2716	-0.452442	-739133	-2.656565E-8	NaN
393	1.000000	0.634857	7.36891e+06	-57439.1	1005.82	-29737.1	0.000000	0.000000	6.634982	-0.004040	NaN	0.000000	0.001671	0.001560	28.0817	0.085756	0.001900	45.127	19.3352	-166.725	-0.033551	0.633555	-0.444184	-0.445486	-0.004040	45.127	-0.444117	-564207	7.159780E-9	NaN
393	1.000000	0.642888	7.36891e+06	-57439.1	1005.82	-29737.1	0.000000	0.000000	6.643012	-0.022821	NaN	0.000000	0.001650	0.001611	28.0817	0.114472	0.002215	51.6727	159.928	-167.561	-0.052952	0.641535	-0.436153	-0.437506	-0.022821	51.6727	-0.435821	-430883	5.296395E-8	NaN
393	1.000000	0.650880	7.36891e+06	-57439.1	1005.82	-29737.1	0.000000	0.000000	6.651005	-0.016151	NaN	0.000000	0.001683	0.001594	28.0818	0.096315	0.002066	46.6092	-65.6872	-168.353	0.019023	0.649583	-0.428161	-0.429458	-0.016151	46.6092	-0.427901	-332931	4.851253E-8	NaN
393	1.000000	0.658904	7.36891e+06	-57439.1	1005.82	-29737.1	0.000000	0.000000	6.659031	0.039800	NaN	0.000000	0.001686	0.001584	28.0817	0.164680	0.002002	82.2709	-49.6022	-168.282	0.101499	0.657593	-0.420137	-0.421448	0.039800	82.2709	-0.420500	-261517	-1.521879E-7	NaN
393	1.000000	0.666887	7.36891e+06	-57439.1	1005.82	-29737.1	0.000000	0.000000	6.667011	-0.026980	NaN	0.000000	0.001666	0.001629	28.0806	0.103230	0.002030	50.8524	147.967	-167.853	0.022681	0.665611	-0.412154	-0.413430	-0.026980	50.8524	-0.411756	-196501	1.373018E-7	NaN
393	1.000000	0.674920	7.36891e+06	-57439.1	1005.82	-29737.1	0.000000	0.000000	6.675044	-0.019620	NaN	0.000000	0.001641	0.001614	28.0806	0.097282	0.001898	51.2603	-112.268	-164.915	-0.042175	0.673531	-0.404121	-0.405510	-0.019620	51.2603	-0.403834	-151579	1.294365E-7	NaN
393	1.000000	0.682874	7.36891e+06	-57439.1	1005.82	-29737.1	0.000000	0.000000	6.682998	-0.023945	NaN	0.000000	0.001717	0.001608	28.0806	0.158531	0.001963	80.7474	-103.237	-164.357	0.034320	0.681595	-0.396167	-0.397446	-0.023945	80.7474	-0.395944	-116982	2.046897E-7	NaN
393	1.000000	0.690897	7.36891e+06	-57439.1	1005.82	-29737.1	0.000000	0.000000	6.691020	-0.052674	NaN	0.000000	0.001718	0.001593	28.0805	0.053890	0.001920	28.0624	-24.7309	-164.128	-0.042758	0.689567	-0.388144	-0.389474	-0.052674	28.0624	-0.386736	-86388.9	6.097361E-7	NaN
393	1.000000	0.698908	7.36891e+06	-57439.1	1005.82	-29737.1	0.000000	0.000000	6.699033	-0.003759	NaN	0.000000	0.001729	0.001629	28.0804	0.060899	0.002087	29.1764	137.347	-170.161	0.004286	0.697594	-0.380132	-0.381447	-0.003759	29.1764	-0.380036	-69247.3	5.427936E-8	NaN
393	1.000000	0.706895	7.36891e+06	-57439.1	1005.82	-29737.1	0.000000	0.000000	6.707019	-0.042368	NaN	0.000000	0.001722	0.001663	28.0807	0.047610	0.002020	23.5638	-12.671	-167.382	-0.098817	0.705596	-0.372145	-0.373445	-0.042368	23.5638	-0.370797	-51003.8	8.306883E-7	NaN
393	1.000000	0.714903	7.36891e+06	-57439.1	1005.82	-29737.1	0.000000	0.000000	6.715029	0.027296	NaN	0.000000	0.001712	0.001640	28.0804	0.020290	0.002003	10.1315	-66.7781	-162.627	0.008677	0.713588	-0.364138	-0.365452	0.027296	10.1315	-0.366158	-43728.5	-6.242222E-7	NaN
393	1.000000	0.722913	7.36891e+06	-57439.1	1005.82	-29737.1	0.000000	0.000000	6.723038	0.014199	NaN	0.000000	0.001652	0.001659	28.0808	0.025132	0.001968	12.771	130.494	-164.506	0.062127	0.721555	-0.356128	-0.357486	0.014199	12.771	-0.356962	-32203.5	-4.409175E-7	NaN
393	1.000000	0.730876	7.36891e+06	-57439.1	1005.82	-29737.1	0.000000	0.000000	6.731003	0.032490	NaN	0.000000	0.001647	0.001658	28.0807	0.070168	0.001891	37.1129	-98.7023	-166.514	-0.027391	0.729609	-0.348164	-0.349432	0.032490	37.1129	-0.348821	-24540.7	-1.323909E-6	NaN
393	1.000000	0.738929	7.36891e+06	-57439.1	1005.82	-29737.1	0.000000	0.000000	6.739055	0.027897	NaN	0.000000	0.001685	0.001630	28.0804	0.022607	0.002032	11.1269	6.871266	-163.474	0.037362	0.737611	-0.340112	-0.341430	0.027897	11.1269	-0.341992	-19524.5	-1.428816E-6	NaN
393	1.000000	0.746901	7.36891e+06	-57439.1	1005.82	-29737.1	0.000000	0.000000	6.747025	-0.013314	NaN	0.000000	0.001700	0.001664	28.0806	0.121077	0.001988	60.8977	121.68	-166.697	0.002309	0.745541	-0.332140	-0.333500	-0.013314	60.8977	-0.331976	-13943.6	9.548187E-7	NaN
393	1.000000	0.754931	7.36891e+06	-57439.1	1005.82	-29737.1	0.000000	0.000000	6.755058	0.038024	NaN	0.000000	0.001709	0.001624	28.0805	0.095095	0.002003	47.4756	166.409	-165.131	-0.086167	0.753606	-0.324109	-0.325435	0.038024	47.4756	-0.324710	-10911.4	-3.484787E-6	NaN
393	1.000000	0.762935	7.36891e+06	-57439.1	1005.82	-29737.1	0.000000	0.000000	6.763060	-0.013843	NaN	0.000000	0.001666	0.001656	28.0808	0.035039	0.001862	18.8161	-133.482	-164.807	0.055036	0.761610	-0.316106	-0.317430	-0.013843	18.8161	-0.315554	-8000.52	1.730278E-6	NaN
393	1.000000	0.770910	7.36891e+06	-57439.1	1005.82	-29737.1	0.000000	0.000000	6.771036	0.013783	NaN	0.000000	0.001689	0.001665	28.0807	0.062490	0.001990	31.4023	-176.087	-165.345	0.026410	0.769660	-0.308131	-0.309380	0.013783	31.4023	-0.308460	-6284.25	-2.193241E-6	NaN
393	1.000000	0.778924	7.36891e+06	-57439.1	1005.82	-29737.1	0.000000	0.000000	6.779049	0.006793	NaN	0.000000	0.001699	0.001646	28.0805	0.035484	0.001797	19.749	87.5968	-167.475	-0.074138	0.777642	-0.300117	-0.301399	0.006793	19.749	-0.300375	-4766.65	-1.425036E-6	NaN
393	1.000000	0.786948	7.36891e+06	-57439.1	1005.82	-29737.1	0.000000	0.000000	6.787072	-0.022465	NaN	0.000000	0.001709	0.001659	28.0804	0.070417	0.001960	35.9265	-168.133	-166.526	-0.032364	0.785603	-0.292093	-0.293438	-0.022465	35.9265	-0.291624	-3528.75	6.366372E-6	NaN
393	1.000000	0.794948	7.36891e+06	-57439.1	1005.82	-29737.1	0.000000	0.000000	6.795071	-0.032940	NaN	0.000000	0.001733	0.001611	28.0806	0.027736	0.002049	13.5343	-12.2636	-167.62	0.032788	0.793628	-0.284093	-0.285413	-0.032940	13.5343	-0.282268	-2553.61	1.289935E-5	NaN
393	1.000000	0.802948	7.36891e+06	-57439.1	1005.82	-29737.1	0.000000	0.000000	6.803068	-0.109049	NaN	0.000000	0.001730	0.001648	28.082	0.069659	0.002010	34.6606	158.021	-167.983	-0.018477	0.801633	-0.276093	-0.277408	-0.109049	34.6606	-0.273733	-1897.63	5.746598E-5	NaN
393	1.000000	0.810958	7.36891e+06	-57439.1	1005.82	-29737.1	0.000000	0.000000	6.811083	0.001644	NaN	0.000000	0.001758	0.001660	28.0818	0.052968	0.002062	25.6871	88.44	-168.949	-0.021643	0.809671	-0.268082	-0.269370	0.001644	25.6871	-0.268130	-1559.93	-1.053629E-6	NaN
393	1.000000	0.818968	7.36891e+06	-57439.1	1005.82	-29737.1	0.000000	0.000000	6.819093	-0.019010	NaN	0.000000	0.001694	0.001669	28.0819	0.087480	0.002008	43.5577	-104.712	-168.659	-0.013365	0.817650	-0.260073	-0.261391	-0.019010	43.5577	-0.259745	-1161.48	1.636720E-5	NaN
393	1.000000	0.826949	7.36891e+06	-57439.1	1005.82	-29737.1	0.000000	0.000000	6.827073	-0.047297	NaN	0.000000	0.001657	0.001645	28.0816	0.072307	0.001969	36.7223	-33.8029	-166.924	0.005147	0.825636	-0.252091	-0.253405	-0.047297	36.7223	-0.251125	-855.78	5.526744E-5	NaN
393	1.000000	0.834937	7.36891e+06	-57439.1	1005.82	-29737.1	0.000000	0.000000	6.835061	-0.026771	NaN	0.000000	0.001632	0.001656	28.0819	0.043558	0.002006	21.7143	46.9449	-165.632	-0.015321	0.833670	-0.244104	-0.245370	-0.026771	21.7143	-0.243179	-644.358	4.154746E-5	NaN
393	1.000000	0.842916	7.36891e+06	-57439.1	1005.82	-29737.1	0.000000	0.000000	6.843042	0.021101	NaN	0.000000	0.001657	0.001647	28.0819	0.111765	0.001927	58.0072	-31.3374	-164.68	0.030546	0.841675	-0.236125	-0.237366	0.021101	58.0072	-0.236397	-504.867	-4.179449E-5	NaN
393	1.000000	0.850990	7.36891e+06	-57439.1	1005.82	-29737.1	0.000000	0.000000	6.851116	0.018085	NaN	0.000000	0.001679	0.001658	28.0815	0.070801	0.002000	35.4041	-114.583	-165.833	0.037490	0.849655	-0.228051	-0.229386	0.018085	35.4041	-0.228434	-378.236	-4.781348E-5	NaN
393	1.000000	0.858986	7.36891e+06	-57439.1	1005.82	-29737.1	0.000000	0.000000	6.859107	-0.085454	NaN	0.000000	0.001663	0.001676	28.0817	0.075810	0.001965	38.5742	-102.463	-166.905	-0.149374	0.857662	-0.220055	-0.221379	-0.085454	38.5742	-0.218394	-261.806	0.000326	NaN
393	1.000000	0.866980	7.36891e+06	-57439.1	1005.82	-29737.1	0.000000	0.000000	6.867105	0.010443	NaN	0.000000	0.001649	0.001675	28.0816	0.163241	0.002079	78.5326	24.8359	-165.806	-0.001254	0.865629	-0.212061	-0.213412	0.010443	78.5326	-0.212161	-207.853	-5.024012E-5	NaN
393	1.000000	0.874971	7.36891e+06	-57439.1	1005.82	-29737.1	0.000000	0.000000	6.875092	-0.084892	NaN	0.000000	0.001669	0.001665	28.0818	0.133877	0.002092	63.99	167.723	-167.184	0.023309	0.873636	-0.204070	-0.205404	-0.084892	63.99	-0.203075	-147.951	0.000574	NaN
393	1.000000	0.882945	7.36891e+06	-57439.1	1005.82	-29737.1	0.000000	0.000000	6.883070	-0.008870	NaN	0.000000	0.001680	0.001660	28.0816	0.142054	0.001861	76.3376	-88.815	-162.361	-0.020616	0.881687	-0.196096	-0.197354	-0.008870	76.3376	-0.196009	-113.213	7.834499E-5	NaN
393	1.000000	0.890947	7.36891e+06	-57439.1	1005.82	-29737.1	0.000000	0.000000	6.891074	0.048791	NaN	0.000000	0.001656	0.001672	28.0816	0.084999	0.001994	42.6237	31.197	-165.663	-0.003164	0.889703	-0.188094	-0.189337	0.048791	42.6237	-0.188953	-86.4003	-0.000565	NaN
393	1.000000	0.898984	7.36891e+06	-57439.1	1005.82	-29737.1	0.000000	0.000000	6.899111	0.053905	NaN	0.000000	0.001656	0.001683	28.082	0.115852	0.002118	54.7018	-176.007	-165.825	0.050287	0.897687	-0.180057	-0.181354	0.053905	54.7018	-0.180796	-62.9513	-0.000856	NaN
393	1.000000	0.906972	7.36891e+06	-57439.1	1005.82	-29737.1	0.000000	0.000000	6.907097	0.002389	NaN	0.000000	0.001648	0.001691	28.0816	0.041782	0.002011	20.7764	-30.5554	-167.168	0.029095	0.905667	-0.172069	-0.173374	0.002389	20.7764	-0.172155	-44.766	-5.336542E-5	NaN
393	1.000000	0.914977	7.36891e+06	-57439.1	1005.82	-29737.1	0.000000	0.000000	6.915102	0.000694	NaN	0.000000	0.001625	0.001637	28.0818	0.121506	0.002019	60.1917	149.259	-165.397	0.050835	0.913686	-0.164064	-0.165355	0.000694	60.1917	-0.164073	-32.36	-2.145293E-5	NaN
393	1.000000	0.922981	7.36891e+06	-57439.1	1005.82	-29737.1	0.000000	0.000000	6.923107	0.017243	NaN	0.000000	0.001628	0.001631	28.0815	0.050659	0.002087	24.2791	-7.584664	-167.303	-0.090932	0.921676	-0.156059	-0.157365	0.017243	24.2791	-0.156592	-23.8325	-0.000723	NaN
393	1.000000	0.931014	7.36891e+06	-57439.1	1005.82	-29737.1	0.000000	0.000000	6.931140	0.031634	NaN	0.000000	0.001630	0.001650	28.0812	0.063478	0.001972	32.1962	175.352	-167.567	0.010361	0.929653	-0.148027	-0.149388	0.031634	32.1962	-0.148764	-17.1959	-0.001840	NaN
393	1.000000	0.938995	7.36891e+06	-57439.1	1005.82	-29737.1	0.000000	0.000000	6.939118	-0.047174	NaN	0.000000	0.001591	0.001659	28.0806	0.116517	0.002021	57.6598	-46.1316	-168.827	-0.016441	0.937699	-0.140046	-0.141342	-0.047174	57.6598	-0.139433	-11.5425	0.004087	NaN
393	1.000000	0.946976	7.36891e+06	-57439.1	1005.82	-29737.1	0.000000	0.000000	6.947101	0.017521	NaN	0.000000	0.001638	0.001667	28.0803	0.094645	0.001965	48.1759	-107.273	-165.493	0.016236	0.945643	-0.132065	-0.133398	0.017521	48.1759	-0.132338	-8.457445	-0.002072	NaN
393	1.000000	0.955005	7.36891e+06	-57439.1	1005.82	-29737.1	0.000000	0.000000	6.955131	0.028592	NaN	0.000000	0.001613	0.001671	28.0804	0.047782	0.001887	25.3228	-177.593	-170.557	0.000852	0.953675	-0.124036	-0.125366	0.028592	25.3228	-0.124883	-6.048854	-0.004727	NaN
393	1.000000	0.963008	7.36891e+06	-57439.1	1005.82	-29737.1	0.000000	0.000000	6.963132	-0.028890	NaN	0.000000	0.001644	0.001624	28.0803	0.049787	0.002151	23.1425	79.1383	-169.254	0.019543	0.961704	-0.116033	-0.117336	-0.028890	23.1425	-0.115096	-3.837895	0.007528	NaN
393	1.000000	0.971010	7.36891e+06	-57439.1	1005.82	-29737.1	0.000000	0.000000	6.971138	0.062021	NaN	0.000000	0.001591	0.001633	28.0804	0.111029	0.002063	53.8143	168.803	-165.84	0.044493	0.969712	-0.108030	-0.109329	0.062021	53.8143	-0.108895	-2.847786	-0.021779	NaN
393	1.000000	0.978989	7.36891e+06	-57439.1	1005.82	-29737.1	0.000000	0.000000	6.979113	-0.037986	NaN	0.000000	0.001629	0.001658	28.0808	0.070289	0.001997	35.1928	3.690677	-168.627	0.070459	0.977761	-0.100051	-0.101280	-0.037986	35.1928	-0.099242	-1.757658	0.021612	NaN
393	1.000000	0.987010	7.36891e+06	-57439.1	1005.82	-29737.1	0.000000	0.000000	6.987135	-0.010522	NaN	0.000000	0.001625	0.001718	28.0803	0.038242	0.002066	18.5065	152.175	-165.666	0.019717	0.985699	-0.092030	-0.093342	-0.010522	18.5065	-0.091604	-1.178340	0.008930	NaN
393	1.000000	0.995001	7.36891e+06	-57439.1	1005.82	-29737.1	0.000000	0.000000	6.995126	0.004075	NaN	0.000000	0.001639	0.001676	28.0804	0.016133	0.001890	8.537871	-61.5669	-166.036	-0.018631	0.993733	-0.084040	-0.085308	0.004075	8.537871	-0.084398	-0.794476	-0.005129	NaN
393	1.000000	1.003026	7.36891e+06	-57439.1	1005.82	-29737.1	0.000000	0.000000	7.003151	-0.013666	NaN	0.000000	0.001641	0.001631	28.0804	0.075948	0.002068	36.7266	155.682	-168.465	0.010090	1.001749	-0.076015	-0.077292	-0.013666	36.7266	-0.075736	-0.482507	0.028322	NaN
393	1.000000	1.011044	7.36891e+06	-57439.1	1005.82	-29737.1	0.000000	0.000000	7.011167	-0.049528	NaN	0.000000	0.001643	0.001662	28.0805	0.019256	0.001965	9.800486	-103.428	-164.307	0.013709	1.009677	-0.067996	-0.069364	-0.049528	9.800486	-0.064206	-0.236861	0.209102	NaN
393	1.000000	1.018993	7.36891e+06	-57439.1	1005.82	-29737.1	0.000000	0.000000	7.019118	0.007954	NaN	0.000000	0.001639	0.001703	28.0813	0.068178	0.002044	33.3507	37.4784	-163.465	0.020184	1.017745	-0.060048	-0.061296	0.007954	33.3507	-0.060227	-0.182811	-0.043508	NaN
393	1.000000	1.027021	7.36891e+06	-57439.1	1005.82	-29737.1	0.000000	0.000000	7.027144	-0.042384	NaN	0.000000	0.001655	0.001676	28.0805	0.056309	0.001998	28.1802	-157.179	-169.588	-0.060025	1.025690	-0.052020	-0.053351	-0.042384	28.1802	-0.050892	-0.097086	0.436556	NaN
393	1.000000	1.035038	7.36891e+06	-57439.1	1005.82	-29737.1	0.000000	0.000000	7.035163	0.012259	NaN	0.000000	0.001635	0.001663	28.0806	0.100537	0.002097	47.9463	66.1421	-169.644	0.090289	1.033761	-0.044003	-0.045280	0.012259	47.9463	-0.044195	-0.060726	-0.201872	NaN
393	1.000000	1.043009	7.36891e+06	-57439.1	1005.82	-29737.1	0.000000	0.000000	7.043132	-0.044656	NaN	0.000000	0.001630	0.001704	28.0804	0.120220	0.001934	62.1495	-111.197	-167.219	0.003222	1.041692	-0.036032	-0.037349	-0.044656	62.1495	-0.035493	-0.033115	1.348488	NaN
393	1.000000	1.051025	7.36891e+06	-57439.1	1005.82	-29737.1	0.000000	0.000000	7.051151	0.005389	NaN	0.000000	0.001674	0.001628	28.0807	0.011396	0.001924	5.922127	-169.311	-168.947	-0.034227	1.049747	-0.028015	-0.029294	0.005389	5.922127	-0.028698	-0.021183	-0.254411	NaN
393	1.000000	1.059046	7.36891e+06	-57439.1	1005.82	-29737.1	0.000000	0.000000	7.059169	-0.032129	NaN	0.000000	0.001645	0.001656	28.0805	0.090110	0.002115	42.6053	-8.623569	-166.505	0.050586	1.057728	-0.019995	-0.021313	-0.032129	42.6053	-0.019430	-0.012148	2.644877	NaN
393	1.000000	1.067047	7.36891e+06	-57439.1	1005.82	-29737.1	0.000000	0.000000	7.067170	-0.032810	NaN	0.000000	0.001676	0.001655	28.0804	0.067885	0.001974	34.395	-25.1585	-167.398	-0.085320	1.065697	-0.011994	-0.013344	-0.032810	34.395	-0.011279	-0.007117	4.610129	NaN
393	1.000000	1.075040	7.36891e+06	-57439.1	1005.82	-29737.1	0.000000	0.000000	7.075163	-0.039202	NaN	0.000000	0.001691	0.001663	28.0816	0.096957	0.002026	47.8543	-111.676	-167.627	-0.005144	1.073685	-0.004001	-0.005356	-0.039202	47.8543	-0.003387	-0.002378	16.4877	NaN
393	1.000000	1.083011	7.36891e+06	-57439.1	1005.82	-29737.1	0.000000	0.000000	7.083319	4.455922	NaN	0.000000	0.001731	0.001639	28.0818	5.253240	0.001782	2948.52	9.574905	-171.477	2.640307	1.081722	0.003970	0.002682	4.455922	2948.52	0.002837	0.002243	1986.75	56882.6
393	2.000000	1.087622	7.36891e+06	-57439.1	1005.82	-29737.1	0.000000	0.000000	7.088140	9.553573	NaN	0.000000	0.001716	0.001675	28.082	9.917310	0.001526	6498.23	6.675999	-174.974	9.595003	1.087262	0.008581	0.008222	9.553573	6498.23	0.007478	0.006511	1467.2	73575
393	2.000000	1.089562	7.36891e+06	-57439.1	1005.82	-29737.1	0.000000	0.000000	7.090224	13.0391	NaN	0.000000	0.001685	0.001688	28.0816	12.3053	0.001613	7629.68	4.453764	-172.904	12.4589	1.089216	0.010521	0.010175	13.0391	7629.68	0.009239	0.008348	1561.86	76291.6
393	2.000000	1.091603	7.36891e+06	-57439.1	1005.82	-29737.1	0.000000	0.000000	7.092408	16.5087	NaN	0.000000	0.001673	0.001676	28.082	14.7035	0.001743	8436.87	6.058158	-173.065	16.4716	1.091205	0.012563	0.012165	16.5087	8436.87	0.011095	0.010424	1583.71	75498.1
393	2.000000	1.093504	7.36891e+06	-57439.1	1005.82	-29737.1	0.000000	0.000000	7.094405	18.875	NaN	0.000000	0.001644	0.001681	28.0819	16.5137	0.001744	9468.53	5.410879	-175.249	17.1863	1.093241	0.014463	0.014200	18.875	9468.53	0.012968	0.012670	1489.73	76853.8
393	2.000000	1.095569	7.36891e+06	-57439.1	1005.82	-29737.1	0.000000	0.000000	7.096524	20.1599	NaN	0.000000	0.001697	0.001669	28.0819	18.9791	0.001864	10180.6	6.725176	-176.538	20.6279	1.095167	0.016528	0.016126	20.1599	10180.6	0.015043	0.015343	1313.96	75091.9
393	2.000000	1.097506	7.36891e+06	-57439.1	1005.82	-29737.1	0.000000	0.000000	7.098643	24.5861	NaN	0.000000	0.001670	0.001661	28.0821	20.7189	0.001820	11384.3	10.5405	178.099	24.2107	1.097235	0.018466	0.018194	24.5861	11384.3	0.016846	0.017826	1379.21	77902
393	2.000000	1.099500	7.36891e+06	-57439.1	1005.82	-29737.1	0.000000	0.000000	7.100810	28.788	NaN	0.000000	0.001674	0.001639	28.0815	22.9303	0.001857	12348.4	10.1465	178.037	28.9974	1.099139	0.020459	0.020098	28.788	12348.4	0.018711	0.020557	1400.42	78687.7
393	2.000000	1.101567	7.36891e+06	-57439.1	1005.82	-29737.1	0.000000	0.000000	7.103030	32.5254	NaN	0.000000	0.001677	0.001665	28.0816	23.9761	0.001763	13596.8	3.857908	-176.898	32.2681	1.101227	0.022526	0.022186	32.5254	13596.8	0.020732	0.023705	1372.08	80683.9
393	2.000000	1.103466	7.36891e+06	-57439.1	1005.82	-29737.1	0.000000	0.000000	7.105171	38.3957	NaN	0.000000	0.001638	0.001659	28.0817	25.8614	0.001677	15424.1	4.830144	179.74	36.3149	1.103170	0.024425	0.024129	38.3957	15424.1	0.022558	0.026723	1436.8	86204.8
393	2.000000	1.105510	7.36891e+06	-57439.1	1005.82	-29737.1	0.000000	0.000000	7.107124	36.1987	NaN	0.000000	0.001650	0.001651	28.0817	28.091	0.001837	15289.5	4.189064	-178.636	35.9613	1.105367	0.026469	0.026326	36.1987	15289.5	0.024693	0.030460	1188.4	80038.6
393	2.000000	1.107537	7.36891e+06	-57439.1	1005.82	-29737.1	0.000000	0.000000	7.109597	47.0387	NaN	0.000000	0.001673	0.001658	28.0826	29.7581	0.001857	16028.6	5.473583	-178.529	47.7492	1.107180	0.028496	0.028139	47.0387	16028.6	0.026295	0.033414	1407.77	80113.7
393	2.000000	1.109488	7.36891e+06	-57439.1	1005.82	-29737.1	0.000000	0.000000	7.111549	47.0694	NaN	0.000000	0.001673	0.001661	28.0814	32.4163	0.001676	19340	6.279365	175.638	46.1675	1.109219	0.030447	0.030179	47.0694	19340	0.028622	0.037935	1240.78	90721.3
393	2.000000	1.111566	7.36891e+06	-57439.1	1005.82	-29737.1	0.000000	0.000000	7.113976	55.5316	NaN	0.000000	0.001648	0.001692	28.0814	34.557	0.001876	18423.7	7.134515	178.191	55.8794	1.111127	0.032525	0.032086	55.5316	18423.7	0.030265	0.041294	1344.78	82833.5
393	2.000000	1.113488	7.36891e+06	-57439.1	1005.82	-29737.1	0.000000	0.000000	7.116164	61.998	NaN	0.000000	0.001643	0.001655	28.0817	36.3102	0.001866	19457.1	2.980480	-179.177	60.2019	1.113139	0.034447	0.034098	61.998	19457.1	0.032057	0.045116	1374.18	83692.1
393	2.000000	1.115499	7.36891e+06	-57439.1	1005.82	-29737.1	0.000000	0.000000	7.118336	65.9098	NaN	0.000000	0.001645	0.001653	28.0815	38.3217	0.001819	21071.5	3.630531	178.972	66.3703	1.115224	0.036458	0.036183	65.9098	21071.5	0.034112	0.049699	1326.18	86356.2
393	2.000000	1.117457	7.36891e+06	-57439.1	1005.82	-29737.1	0.000000	0.000000	7.120651	74.5901	NaN	0.000000	0.001628	0.001650	28.0807	39.5853	0.001788	22143.4	6.688589	175.461	72.9004	1.117129	0.038417	0.038088	74.5901	22143.4	0.035890	0.053839	1385.43	87190.5
393	2.000000	1.119423	7.36891e+06	-57439.1	1005.82	-29737.1	0.000000	0.000000	7.122694	76.4801	NaN	0.000000	0.001632	0.001635	28.0801	41.7226	0.001766	23623.2	3.969514	177.192	72.8043	1.119204	0.040382	0.040164	76.4801	23623.2	0.037954	0.058847	1299.64	88971.1
393	2.000000	1.121545	7.36891e+06	-57439.1	1005.82	-29737.1	0.000000	0.000000	7.125164	84.9184	NaN	0.000000	0.001634	0.001622	28.0804	44.141	0.001867	23643.9	9.458411	173.249	86.6959	1.121114	0.042504	0.042074	84.9184	23643.9	0.039810	0.063539	1336.47	85698.2
393	2.000000	1.123399	7.36891e+06	-57439.1	1005.82	-29737.1	0.000000	0.000000	7.127419	94.6725	NaN	0.000000	0.001630	0.001664	28.0804	45.5662	0.001743	26145.6	5.398484	174.951	91.4351	1.123148	0.044358	0.044107	94.6725	26145.6	0.041642	0.068342	1385.28	91375.1
393	2.000000	1.125473	7.36891e+06	-57439.1	1005.82	-29737.1	0.000000	0.000000	7.129717	100.113	NaN	0.000000	0.001658	0.001644	28.0802	48.0168	0.001888	25431.4	3.129097	178.387	99.914	1.125116	0.046432	0.046075	100.113	25431.4	0.043479	0.073329	1365.25	85803.7
393	2.000000	1.127424	7.36891e+06	-57439.1	1005.82	-29737.1	0.000000	0.000000	7.131862	104.825	NaN	0.000000	0.001686	0.001648	28.0804	49.1372	0.001798	27332.7	5.537382	174.509	103.455	1.127207	0.048383	0.048166	104.825	27332.7	0.045507	0.079033	1326.34	88828.1
393	2.000000	1.129396	7.36891e+06	-57439.1	1005.82	-29737.1	0.000000	0.000000	7.134428	119.259	NaN	0.000000	0.001665	0.001641	28.0801	49.9283	0.001730	28855.2	1.343395	178.89	116.203	1.129117	0.050356	0.050076	119.259	28855.2	0.047256	0.084120	1417.72	90896.7
393	2.000000	1.131510	7.36891e+06	-57439.1	1005.82	-29737.1	0.000000	0.000000	7.136878	127.411	NaN	0.000000	0.001641	0.001671	28.0806	52.7359	0.001792	29433.6	3.879690	176.47	127.538	1.131086	0.052469	0.052045	127.411	29433.6	0.049223	0.090026	1415.27	89625.5
393	2.000000	1.133459	7.36891e+06	-57439.1	1005.82	-29737.1	0.000000	0.000000	7.139064	133.192	NaN	0.000000	0.001670	0.001668	28.0801	54.4011	0.001695	32100.7	7.020253	172.357	133.206	1.133133	0.054418	0.054092	133.192	32100.7	0.051306	0.096493	1380.33	94414.6
393	2.000000	1.135410	7.36891e+06	-57439.1	1005.82	-29737.1	0.000000	0.000000	7.141237	138.579	NaN	0.000000	0.001621	0.001651	28.0802	56.9593	0.001751	32538.8	2.896729	175.486	135.504	1.135177	0.056369	0.056136	138.579	32538.8	0.053175	0.102480	1352.26	92865.7
393	2.000000	1.137437	7.36891e+06	-57439.1	1005.82	-29737.1	0.000000	0.000000	7.143821	152.135	NaN	0.000000	0.001566	0.001645	28.0803	57.3688	0.001667	34415	6.217490	172.19	150.81	1.137145	0.058396	0.058104	152.135	34415	0.055080	0.108761	1398.81	95342.1
393	2.000000	1.139441	7.36891e+06	-57439.1	1005.82	-29737.1	0.000000	0.000000	7.146061	157.849	NaN	0.000000	0.001610	0.001619	28.0802	61.1574	0.001799	34004.2	5.241228	173.274	157.033	1.139071	0.060400	0.060030	157.849	34004.2	0.056918	0.114991	1372.71	91616.7
393	2.000000	1.141374	7.36891e+06	-57439.1	1005.82	-29737.1	0.000000	0.000000	7.148501	170.172	NaN	0.000000	0.001631	0.001609	28.0811	62.3328	0.001811	34426.5	2.384313	175.972	165.191	1.141113	0.062333	0.062072	170.172	34426.5	0.058626	0.120926	1407.23	90449.2
393	2.000000	1.143483	7.36891e+06	-57439.1	1005.82	-29737.1	0.000000	0.000000	7.150951	178.462	NaN	0.000000	0.001623	0.001600	28.0803	64.2706	0.001882	34155.9	5.788246	173.698	181.152	1.143146	0.064442	0.064105	178.462	34155.9	0.060523	0.127692	1397.6	87328.7
393	2.000000	1.145370	7.36891e+06	-57439.1	1005.82	-29737.1	0.000000	0.000000	7.153308	189.883	NaN	0.000000	0.001649	0.001626	28.0802	66.2979	0.001771	37439.7	5.993951	172.162	185.635	1.145053	0.066330	0.066012	189.883	37439.7	0.062526	0.135021	1406.32	93090.5
393	2.000000	1.147457	7.36891e+06	-57439.1	1005.82	-29737.1	0.000000	0.000000	7.155765	198.885	NaN	0.000000	0.001632	0.001604	28.0806	66.2709	0.001788	37057.1	0.880347	176.509	197.691	1.147195	0.068417	0.068154	198.885	37057.1	0.064391	0.142024	1400.36	89838.7
393	2.000000	1.149321	7.36891e+06	-57439.1	1005.82	-29737.1	0.000000	0.000000	7.158352	216.456	NaN	0.000000	0.001617	0.001643	28.0803	69.696	0.001803	38644.9	5.758993	172.086	210.759	1.149054	0.070280	0.070013	216.456	38644.9	0.066080	0.148507	1457.55	91620.5
393	2.000000	1.151486	7.36891e+06	-57439.1	1005.82	-29737.1	0.000000	0.000000	7.160845	224.42	NaN	0.000000	0.001599	0.001663	28.082	71.295	0.001759	40521.5	4.629597	173.296	225.364	1.151061	0.072445	0.072020	224.42	40521.5	0.068292	0.157208	1427.54	93373.1
393	2.000000	1.153469	7.36891e+06	-57439.1	1005.82	-29737.1	0.000000	0.000000	7.163377	237.771	NaN	0.000000	0.001622	0.001677	28.0813	73.8239	0.001834	40254.1	10.5489	167.847	238.599	1.153014	0.074428	0.073973	237.771	40254.1	0.069998	0.164080	1449.12	90793.7
393	2.000000	1.155484	7.36891e+06	-57439.1	1005.82	-29737.1	0.000000	0.000000	7.165649	244.018	NaN	0.000000	0.001575	0.001707	28.0813	76.0127	0.001808	42033.6	10.1309	167.985	246.178	1.155073	0.076443	0.076032	244.018	42033.6	0.072089	0.172691	1413.03	92413.5
393	2.000000	1.157419	7.36891e+06	-57439.1	1005.82	-29737.1	0.000000	0.000000	7.168266	260.607	NaN	0.000000	0.001612	0.001678	28.0816	76.1377	0.001875	40611.6	3.913633	173.679	258.38	1.156983	0.078378	0.077942	260.607	40611.6	0.073565	0.178892	1456.78	87725.8
393	2.000000	1.159445	7.36891e+06	-57439.1	1005.82	-29737.1	0.000000	0.000000	7.170893	275.214	NaN	0.000000	0.001606	0.001690	28.0815	79.6241	0.001739	45791.1	7.035009	169.265	277.471	1.159104	0.080404	0.080063	275.214	45791.1	0.075896	0.188897	1456.96	96259.1
393	2.000000	1.161476	7.36891e+06	-57439.1	1005.82	-29737.1	0.000000	0.000000	7.173310	284.595	NaN	0.000000	0.001626	0.001626	28.0819	81.8897	0.001796	45606.3	7.471351	169.703	284.888	1.161121	0.082435	0.082080	284.595	45606.3	0.077755	0.197056	1444.24	93865
393	2.000000	1.163395	7.36891e+06	-57439.1	1005.82	-29737.1	0.000000	0.000000	7.175693	295.86	NaN	0.000000	0.001615	0.001647	28.0815	82.9161	0.001739	47682.8	4.239626	171.419	292.49	1.163104	0.084354	0.084063	295.86	47682.8	0.079700	0.205771	1437.81	96037.9
393	2.000000	1.165400	7.36891e+06	-57439.1	1005.82	-29737.1	0.000000	0.000000	7.178344	311.557	NaN	0.000000	0.001634	0.001643	28.0814	86.4116	0.001844	46851.6	8.697980	167.449	310.413	1.165133	0.086360	0.086092	311.557	46851.6	0.081372	0.213400	1459.96	92661.6
393	2.000000	1.167346	7.36891e+06	-57439.1	1005.82	-29737.1	0.000000	0.000000	7.181078	330.695	NaN	0.000000	0.001642	0.001640	28.0817	85.0493	0.001724	49320.5	4.536477	171.337	327.202	1.167122	0.088306	0.088081	330.695	49320.5	0.083277	0.222250	1487.94	95582.7
393	2.000000	1.169385	7.36891e+06	-57439.1	1005.82	-29737.1	0.000000	0.000000	7.183604	342.55	NaN	0.000000	0.001607	0.001652	28.0813	88.0628	0.001756	50135.9	1.945049	174.215	340.412	1.169052	0.090344	0.090011	342.55	50135.9	0.085220	0.231453	1480	95211.7
393	2.000000	1.171325	7.36891e+06	-57439.1	1005.82	-29737.1	0.000000	0.000000	7.185959	352.637	NaN	0.000000	0.001626	0.001674	28.0817	91.4962	0.001885	48528.4	7.231534	169.159	345.438	1.170913	0.092284	0.091872	352.637	48528.4	0.086834	0.239228	1474.06	90649
393	2.000000	1.173463	7.36891e+06	-57439.1	1005.82	-29737.1	0.000000	0.000000	7.188780	369.238	NaN	0.000000	0.001637	0.001676	28.0814	91.8868	0.001771	51875.7	3.088316	173.179	370.918	1.173051	0.094422	0.094010	369.238	51875.7	0.089084	0.250266	1475.38	94740.7
393	2.000000	1.175445	7.36891e+06	-57439.1	1005.82	-29737.1	0.000000	0.000000	7.190793	369.986	NaN	0.000000	0.001605	0.001704	28.0817	94.8463	0.001842	51497.4	1.445092	173.723	370.087	1.175309	0.096404	0.096268	369.986	51497.4	0.091016	0.259934	1423.38	92284.1
393	2.000000	1.177230	7.36891e+06	-57439.1	1005.82	-29737.1	0.000000	0.000000	7.193478	391.855	NaN	0.000000	0.001672	0.001678	28.0814	95.043	0.001743	54512.9	0.878765	174.761	382.509	1.177109	0.098189	0.098068	391.855	54512.9	0.092798	0.268999	1456.71	96027.7
393	2.000000	1.179410	7.36891e+06	-57439.1	1005.82	-29737.1	0.000000	0.000000	7.196383	409.493	NaN	0.000000	0.001639	0.001731	28.0814	98.6887	0.001815	54381.1	4.688113	170.736	408.098	1.179018	0.100369	0.099977	409.493	54381.1	0.094721	0.278948	1467.99	94071.8
393	2.000000	1.181448	7.36891e+06	-57439.1	1005.82	-29737.1	0.000000	0.000000	7.198906	421.268	NaN	0.000000	0.001612	0.001685	28.0816	101.425	0.001769	57329.2	8.142867	166.687	421.311	1.181219	0.102407	0.102178	421.268	57329.2	0.096896	0.290401	1450.64	97196.3
393	2.000000	1.183309	7.36891e+06	-57439.1	1005.82	-29737.1	0.000000	0.000000	7.201951	450.035	NaN	0.000000	0.001640	0.001707	28.0814	102.152	0.001735	58864.9	4.064169	170.61	445.436	1.183018	0.104268	0.103977	450.035	58864.9	0.098535	0.299171	1504.27	98326.4
393	2.000000	1.184998	7.36891e+06	-57439.1	1005.82	-29737.1	0.000000	0.000000	7.203708	451.69	NaN	0.000000	0.001664	0.001709	28.0809	105.26	0.001770	59462.9	9.127614	-14.2404	453.658	1.184614	0.105957	0.105573	451.69	59462.9	0.100260	0.308541	1463.96	97805.4