File: remote_trans/data/nanoindenter/0828-1/data/Data_2025-08-06,11h17m57s/2025-07-22_16-23-58_1_1061.txt
2025-07-22, 16:23:58, 1
Index	Phase	Displacement	Time	Pos X	Pos Y	Pos Z	Rot A	Rot B	Piezo Z	Force A	Force B	Gripper	Voltage A	Voltage B	Temperature	Amplitude force	Amplitude pos	Stiffness	Phase shift	Phase excitation	Force A raw	Displacement raw	HMax	HMax raw	Real Force	Real Stiffness	Contact Depth	Area	Hardness	Reduced Mod.
[#]	[#]	[um]	[s]	[um]	[um]	[um]	[m°]	[m°]	[um]	[uN]	[uN]	[V]	[V]	[V]	[°C]	[uN]	[um]	[N/m]	[°]	[°]	[uN]	[um]	[um]	[um]	[uN]	[N/m]	[um]	[um^2]	[MPa]	[MPa]
1061	1.000000	0.002341	7.37542e+06	-53189.1	1055.82	-29746.9	0.000000	0.000000	6.002812	-0.004485	NaN	0.000000	0.001733	0.001696	28.0822	0.105407	0.000874	120.626	-165.221	-169.434	-0.106221	0.001104	-1.107867	-1.109105	-0.004485	120.626	-1.107839	-6.386887E+14	7.022600E-18	NaN
1061	1.000000	0.012389	7.37542e+06	-53189.1	1055.82	-29746.9	0.000000	0.000000	6.012862	0.056376	NaN	0.000000	0.001726	0.001710	28.0818	0.103710	0.001383	75.0142	40.1416	12.5512	-0.023420	0.010938	-1.097819	-1.099271	0.056376	75.0142	-1.098383	-4.768275E+14	-1.182305E-16	NaN
1061	1.000000	0.022297	7.37542e+06	-53189.1	1055.82	-29746.9	0.000000	0.000000	6.022764	-0.107799	NaN	0.000000	0.001646	0.001717	28.0818	0.110494	0.001819	60.743	174.396	-168.262	-0.037340	0.021015	-1.087911	-1.089193	-0.107799	60.743	-1.086580	-3.310499E+14	3.256282E-16	NaN
1061	1.000000	0.032292	7.37542e+06	-53189.1	1055.82	-29746.9	0.000000	0.000000	6.032760	-0.069970	NaN	0.000000	0.001645	0.001707	28.082	0.027202	0.001959	13.8842	116.23	14.4013	-0.043908	0.030910	-1.077917	-1.079299	-0.069970	13.8842	-1.074137	-2.253028E+14	3.105604E-16	NaN
1061	1.000000	0.042277	7.37542e+06	-53189.1	1055.82	-29746.9	0.000000	0.000000	6.042749	0.036567	NaN	0.000000	0.001666	0.001695	28.0833	0.056489	0.001955	28.8951	-22.8625	-164.779	-0.030489	0.041036	-1.067931	-1.069172	0.036567	28.8951	-1.068881	-1.914918E+14	-1.909584E-16	NaN
1061	1.000000	0.052298	7.37542e+06	-53189.1	1055.82	-29746.9	0.000000	0.000000	6.052766	-0.058262	NaN	0.000000	0.001726	0.001638	28.0831	0.132823	0.002088	63.6246	107.202	19.2394	-0.073440	0.050973	-1.057911	-1.059235	-0.058262	63.6246	-1.057224	-1.335111E+14	4.363831E-16	NaN
1061	1.000000	0.062284	7.37542e+06	-53189.1	1055.82	-29746.9	0.000000	0.000000	6.062754	-0.026694	NaN	0.000000	0.001710	0.001677	28.0829	0.043308	0.002037	21.2629	121.753	-167.053	-0.075018	0.060904	-1.047925	-1.049305	-0.026694	21.2629	-1.046983	-9.724320E+13	2.745084E-16	NaN
1061	1.000000	0.072293	7.37543e+06	-53189.1	1055.82	-29746.9	0.000000	0.000000	6.072762	-0.041189	NaN	0.000000	0.001693	0.001646	28.0832	0.124467	0.001942	64.0825	-55.784	13.9274	-0.048779	0.071011	-1.037915	-1.039198	-0.041189	64.0825	-1.037433	-7.235242E+13	5.692805E-16	NaN
1061	1.000000	0.082266	7.37543e+06	-53189.1	1055.82	-29746.9	0.000000	0.000000	6.082735	-0.056117	NaN	0.000000	0.001701	0.001665	28.083	0.024198	0.002050	11.8023	-46.0419	-166.097	-0.094564	0.080966	-1.027943	-1.029243	-0.056117	11.8023	-1.024377	-4.828751E+13	1.162138E-15	NaN
1061	1.000000	0.092272	7.37543e+06	-53189.1	1055.82	-29746.9	0.000000	0.000000	6.092743	0.013886	NaN	0.000000	0.001674	0.001684	28.0832	0.037787	0.002138	17.6732	171.169	16.2291	-0.083786	0.090903	-1.017937	-1.019305	0.013886	17.6732	-1.018526	-4.028323E+13	-3.447101E-16	NaN
1061	1.000000	0.102275	7.37543e+06	-53189.1	1055.82	-29746.9	0.000000	0.000000	6.102747	0.021380	NaN	0.000000	0.001704	0.001664	28.0829	0.021704	0.001994	10.8857	156.253	-166.516	0.027060	0.100977	-1.007933	-1.009232	0.021380	10.8857	-1.009406	-3.036630E+13	-7.040571E-16	NaN
1061	1.000000	0.112313	7.37543e+06	-53189.1	1055.82	-29746.9	0.000000	0.000000	6.112787	0.069646	NaN	0.000000	0.001642	0.001659	28.0834	0.155059	0.002039	76.03	-94.4754	13.2397	-0.033724	0.110931	-0.997895	-0.999277	0.069646	76.03	-0.998582	-2.171104E+13	-3.207856E-15	NaN
1061	1.000000	0.122295	7.37543e+06	-53189.1	1055.82	-29746.9	0.000000	0.000000	6.122764	-0.040209	NaN	0.000000	0.001645	0.001675	28.083	0.049256	0.001934	25.4663	-145.385	-165.121	-0.120451	0.120952	-0.987914	-0.989256	-0.040209	25.4663	-0.986730	-1.503366E+13	2.674602E-15	NaN
1061	1.000000	0.132322	7.37543e+06	-53189.1	1055.82	-29747	0.000000	0.000000	6.132793	0.009171	NaN	0.000000	0.001651	0.001646	28.0833	0.044083	0.001978	22.2851	104.635	15.3024	-0.013970	0.130949	-0.977886	-0.979259	0.009171	22.2851	-0.978195	-1.153702E+13	-7.949264E-16	NaN
1061	1.000000	0.142271	7.37543e+06	-53189.1	1055.82	-29747	0.000000	0.000000	6.142743	0.033804	NaN	0.000000	0.001652	0.001699	28.0828	0.082395	0.001974	41.7455	-86.6873	-168.227	0.025657	0.141009	-0.967938	-0.969200	0.033804	41.7455	-0.968545	-8.551700E+12	-3.952859E-15	NaN
1061	1.000000	0.152328	7.37543e+06	-53189.1	1055.82	-29747	0.000000	0.000000	6.152801	0.039589	NaN	0.000000	0.001638	0.001662	28.0831	0.064136	0.002014	31.8388	-109.563	14.6027	0.041853	0.150899	-0.957880	-0.959310	0.039589	31.8388	-0.958813	-6.322180E+12	-6.261955E-15	NaN
1061	1.000000	0.162325	7.37543e+06	-53189.1	1055.82	-29747	0.000000	0.000000	6.162795	-0.027782	NaN	0.000000	0.001642	0.001655	28.0829	0.117288	0.001942	60.3978	40.4678	-164.02	-0.044670	0.161025	-0.947883	-0.949184	-0.027782	60.3978	-0.947538	-4.454779E+12	6.236427E-15	NaN
1061	1.000000	0.172370	7.37543e+06	-53189.1	1055.82	-29747	0.000000	0.000000	6.172839	-0.063175	NaN	0.000000	0.001653	0.001656	28.0817	0.100868	0.002026	49.7824	105.725	12.4593	-0.075115	0.170943	-0.937838	-0.939266	-0.063175	49.7824	-0.936886	-3.199832E+12	1.974321E-14	NaN
1061	1.000000	0.182341	7.37543e+06	-53189.1	1055.82	-29747	0.000000	0.000000	6.182812	-0.008455	NaN	0.000000	0.001675	0.001651	28.0819	0.041209	0.002121	19.4279	-131.049	-164.861	-0.005700	0.180997	-0.927867	-0.929212	-0.008455	19.4279	-0.927541	-2.393351E+12	3.532894E-15	NaN
1061	1.000000	0.192313	7.37543e+06	-53189.1	1055.82	-29747	0.000000	0.000000	6.192782	-0.040298	NaN	0.000000	0.001694	0.001678	28.0817	0.080067	0.002050	39.0631	53.3608	12.9304	-0.086104	0.190983	-0.917895	-0.919225	-0.040298	39.0631	-0.917122	-1.731178E+12	2.327801E-14	NaN
1061	1.000000	0.202325	7.37543e+06	-53189.1	1055.82	-29747	0.000000	0.000000	6.202796	0.024288	NaN	0.000000	0.001663	0.001686	28.0815	0.092058	0.001964	46.8655	77.4641	-166.249	0.029905	0.201052	-0.907884	-0.909156	0.024288	46.8655	-0.908273	-1.314717E+12	-1.847425E-14	NaN
1061	1.000000	0.212338	7.37543e+06	-53189.1	1055.82	-29747	0.000000	0.000000	6.212806	-0.075418	NaN	0.000000	0.001650	0.001688	28.0816	0.050672	0.001912	26.496	-148.21	13.9944	-0.046870	0.210984	-0.897871	-0.899224	-0.075418	26.496	-0.895736	-8.901067E+11	8.472944E-14	NaN
1061	1.000000	0.222351	7.37543e+06	-53189.1	1055.82	-29747	0.000000	0.000000	6.222820	-0.055833	NaN	0.000000	0.001646	0.001648	28.0819	0.077046	0.002134	36.11	40.2559	-165.578	-0.053337	0.221042	-0.887857	-0.889167	-0.055833	36.11	-0.886698	-6.718482E+11	8.310393E-14	NaN
1061	1.000000	0.232370	7.37543e+06	-53189.1	1055.82	-29747	0.000000	0.000000	6.232841	0.000888	NaN	0.000000	0.001648	0.001674	28.0816	0.065989	0.002084	31.6572	111.286	13.7375	-0.007814	0.230996	-0.877839	-0.879212	0.000888	31.6572	-0.877860	-5.102270E+11	-1.741284E-15	NaN
1061	1.000000	0.242352	7.37543e+06	-53189.1	1055.82	-29747	0.000000	0.000000	6.242819	-0.082010	NaN	0.000000	0.001660	0.001694	28.0817	0.123446	0.001863	66.2783	-168.455	-167.609	-0.044408	0.241068	-0.867857	-0.869141	-0.082010	66.2783	-0.866929	-3.629872E+11	2.259303E-13	NaN
1061	1.000000	0.252394	7.37543e+06	-53189.1	1055.82	-29747	0.000000	0.000000	6.252865	0.005147	NaN	0.000000	0.001636	0.001640	28.0815	0.068961	0.002021	34.1227	86.2921	14.1582	0.023272	0.251046	-0.857814	-0.859163	0.005147	34.1227	-0.857928	-2.742012E+11	-1.877054E-14	NaN
1061	1.000000	0.262372	7.37543e+06	-53189.1	1055.82	-29747	0.000000	0.000000	6.262840	-0.058362	NaN	0.000000	0.001682	0.001648	28.0825	0.060168	0.001994	30.1712	-71.911	-166.306	-0.019239	0.261036	-0.847837	-0.849172	-0.058362	30.1712	-0.846386	-1.913356E+11	3.050224E-13	NaN
1061	1.000000	0.272358	7.37543e+06	-53189.1	1055.82	-29747	0.000000	0.000000	6.272828	-0.027983	NaN	0.000000	0.001673	0.001689	28.0816	0.018633	0.002061	9.040067	27.5459	16.4902	0.010220	0.271045	-0.837851	-0.839163	-0.027983	9.040067	-0.835529	-1.363689E+11	2.052031E-13	NaN
1061	1.000000	0.282376	7.37543e+06	-53189.1	1055.82	-29747	0.000000	0.000000	6.282844	-0.068895	NaN	0.000000	0.001666	0.001663	28.0829	0.061544	0.001984	31.0137	159.888	-165.084	0.001181	0.281061	-0.827833	-0.829147	-0.068895	31.0137	-0.826167	-1.018179E+11	6.766476E-13	NaN
1061	1.000000	0.292341	7.37543e+06	-53189.1	1055.82	-29747	0.000000	0.000000	6.292807	-0.123821	NaN	0.000000	0.001661	0.001665	28.0822	0.039735	0.002052	19.3646	-146.567	13.5007	-0.127616	0.291053	-0.817868	-0.819155	-0.123821	19.3646	-0.813072	-6.764654E+10	1.830414E-12	NaN
1061	1.000000	0.302369	7.37543e+06	-53189.1	1055.82	-29747	0.000000	0.000000	6.302840	0.010445	NaN	0.000000	0.001690	0.001643	28.0822	0.090455	0.002077	43.5503	173.205	-167.453	0.049928	0.301047	-0.807840	-0.809162	0.010445	43.5503	-0.808020	-5.776991E+10	-1.808014E-13	NaN
1061	1.000000	0.312423	7.37543e+06	-53189.1	1055.82	-29747	0.000000	0.000000	6.312893	-0.026156	NaN	0.000000	0.001660	0.001678	28.0831	0.090361	0.002016	44.8135	-170.844	11.8981	-0.065398	0.311019	-0.797786	-0.799189	-0.026156	44.8135	-0.797348	-4.138656E+10	6.319856E-13	NaN
1061	1.000000	0.322369	7.37543e+06	-53189.1	1055.82	-29747	0.000000	0.000000	6.322837	-0.085499	NaN	0.000000	0.001690	0.001682	28.0833	0.082499	0.002057	40.1075	-19.8308	-163.939	-0.087912	0.321038	-0.787839	-0.789171	-0.085499	40.1075	-0.786241	-2.924283E+10	2.923752E-12	NaN
1061	1.000000	0.332397	7.37543e+06	-53189.1	1055.82	-29747	0.000000	0.000000	6.332869	0.031008	NaN	0.000000	0.001663	0.001680	28.0832	0.151845	0.002049	74.1189	0.928232	13.888	-0.009197	0.331027	-0.777812	-0.779182	0.031008	74.1189	-0.778126	-2.268620E+10	-1.366800E-12	NaN
1061	1.000000	0.342414	7.37543e+06	-53189.1	1055.82	-29747	0.000000	0.000000	6.342883	-0.053200	NaN	0.000000	0.001651	0.001661	28.0833	0.028768	0.002111	13.6256	-151.266	-166.796	-0.037390	0.341083	-0.767794	-0.769126	-0.053200	13.6256	-0.764866	-1.497935E+10	3.551527E-12	NaN
1061	1.000000	0.352404	7.37543e+06	-53189.1	1055.82	-29747	0.000000	0.000000	6.352875	0.011740	NaN	0.000000	0.001658	0.001645	28.0829	0.186100	0.001940	95.9281	14.1811	13.5912	-0.017845	0.351075	-0.757805	-0.759133	0.011740	95.9281	-0.757896	-1.204152E+10	-9.749844E-13	NaN
1061	1.000000	0.362408	7.37543e+06	-53189.1	1055.82	-29747	0.000000	0.000000	6.362879	-0.016331	NaN	0.000000	0.001697	0.001664	28.0832	0.039635	0.001894	20.9219	5.080757	-164.143	-0.007124	0.361068	-0.747800	-0.749141	-0.016331	20.9219	-0.747215	-8.615971E+9	1.895415E-12	NaN
1061	1.000000	0.372413	7.37543e+06	-53189.1	1055.82	-29747	0.000000	0.000000	6.372882	-0.035615	NaN	0.000000	0.001703	0.001685	28.0831	0.030086	0.002094	14.3699	17.3535	15.764	-0.075002	0.371038	-0.737796	-0.739170	-0.035615	14.3699	-0.735937	-6.049357E+9	5.887381E-12	NaN
1061	1.000000	0.382422	7.37543e+06	-53189.1	1055.82	-29747	0.000000	0.000000	6.382890	-0.046216	NaN	0.000000	0.001627	0.001659	28.0832	0.054836	0.002117	25.9004	-110.041	-167.795	-0.031952	0.381109	-0.727787	-0.729100	-0.046216	25.9004	-0.726449	-4.491622E+9	1.028938E-11	NaN
1061	1.000000	0.392408	7.37543e+06	-53189.1	1055.82	-29747	0.000000	0.000000	6.392877	-0.049888	NaN	0.000000	0.001667	0.001667	28.0831	0.063470	0.001949	32.5674	64.6861	11.8725	0.020062	0.391062	-0.717800	-0.719146	-0.049888	32.5674	-0.716651	-3.302183E+9	1.510772E-11	NaN
1061	1.000000	0.402423	7.37543e+06	-53189.1	1055.82	-29747	0.000000	0.000000	6.402893	-0.020336	NaN	0.000000	0.001660	0.001654	28.0835	0.027396	0.001895	14.4588	1.485713	-166.396	-0.010231	0.401110	-0.707786	-0.709098	-0.020336	14.4588	-0.706731	-2.417839E+9	8.410778E-12	NaN
1061	1.000000	0.412464	7.37543e+06	-53189.1	1055.82	-29747	0.000000	0.000000	6.412933	-0.032425	NaN	0.000000	0.001688	0.001651	28.0831	0.012322	0.001963	6.278522	34.2133	11.5065	-0.005748	0.411130	-0.697745	-0.699079	-0.032425	6.278522	-0.693872	-1.613695E+9	2.009340E-11	NaN
1061	1.000000	0.422442	7.37543e+06	-53189.1	1055.82	-29747	0.000000	0.000000	6.422912	-0.012864	NaN	0.000000	0.001674	0.001685	28.0832	0.044186	0.002094	21.1035	-35.763	-165.547	-0.012692	0.421114	-0.687767	-0.689094	-0.012864	21.1035	-0.687310	-1.312648E+9	9.800155E-12	NaN
1061	1.000000	0.432452	7.37543e+06	-53189.1	1055.82	-29747	0.000000	0.000000	6.432921	-0.036434	NaN	0.000000	0.001701	0.001655	28.0832	0.043634	0.001957	22.2933	-33.7581	14.3102	-0.033230	0.431069	-0.677756	-0.679139	-0.036434	22.2933	-0.676531	-9.348727E+8	3.897175E-11	NaN
1061	1.000000	0.442459	7.37543e+06	-53189.1	1055.82	-29747	0.000000	0.000000	6.442925	-0.105752	NaN	0.000000	0.001703	0.001685	28.0833	0.094603	0.001984	47.6941	-156.247	-165.784	-0.100761	0.441189	-0.667750	-0.669020	-0.105752	47.6941	-0.666087	-6.726997E+8	1.572059E-10	NaN
1061	1.000000	0.452421	7.37543e+06	-53189.1	1055.82	-29747	0.000000	0.000000	6.452890	-0.032464	NaN	0.000000	0.001685	0.001670	28.0819	0.078975	0.002060	38.3326	36.0929	11.8981	0.031147	0.451119	-0.657788	-0.659090	-0.032464	38.3326	-0.657153	-5.075325E+8	6.396502E-11	NaN
1061	1.000000	0.462457	7.37543e+06	-53189.1	1055.82	-29747	0.000000	0.000000	6.462925	-0.063915	NaN	0.000000	0.001681	0.001636	28.082	0.188484	0.001885	99.9876	-37.5854	-161.14	-0.035623	0.461101	-0.647752	-0.649108	-0.063915	99.9876	-0.647272	-3.715693E+8	1.720147E-10	NaN
1061	1.000000	0.472447	7.37543e+06	-53189.1	1055.82	-29747	0.000000	0.000000	6.472916	-0.035679	NaN	0.000000	0.001690	0.001663	28.082	0.080774	0.001981	40.7729	163.698	11.6626	0.016857	0.471097	-0.637762	-0.639112	-0.035679	40.7729	-0.637105	-2.695047E+8	1.323880E-10	NaN
1061	1.000000	0.482465	7.37543e+06	-53189.1	1055.82	-29747	0.000000	0.000000	6.482935	-0.018595	NaN	0.000000	0.001704	0.001703	28.0821	0.035679	0.002137	16.6978	-142.868	-167.659	-0.041780	0.481205	-0.627743	-0.629003	-0.018595	16.6978	-0.626908	-1.952345E+8	9.524468E-11	NaN
1061	1.000000	0.492455	7.37543e+06	-53189.1	1055.82	-29747	0.000000	0.000000	6.492926	-0.001047	NaN	0.000000	0.001689	0.001697	28.0819	0.115941	0.001990	58.2529	85.5674	12.3315	-0.015628	0.491054	-0.617753	-0.619155	-0.001047	58.2529	-0.617740	-1.460700E+8	7.166637E-12	NaN
1061	1.000000	0.502489	7.37543e+06	-53189.1	1055.82	-29747	0.000000	0.000000	6.502958	-0.027318	NaN	0.000000	0.001688	0.001708	28.082	0.061893	0.001922	32.1959	87.0072	-167.269	-0.060247	0.501156	-0.607720	-0.609052	-0.027318	32.1959	-0.607084	-1.042279E+8	2.620981E-10	NaN
1061	1.000000	0.512475	7.37543e+06	-53189.1	1055.82	-29747	0.000000	0.000000	6.512944	-0.038682	NaN	0.000000	0.001715	0.001693	28.0821	0.083143	0.002023	41.1038	111.279	11.9559	0.016498	0.511118	-0.597733	-0.599090	-0.038682	41.1038	-0.597028	-7.577361E+7	5.105000E-10	NaN
1061	1.000000	0.522456	7.37543e+06	-53189.1	1055.82	-29747	0.000000	0.000000	6.522924	-0.057905	NaN	0.000000	0.001693	0.001668	28.0819	0.127545	0.002041	62.4798	126.352	-167.379	0.010708	0.521139	-0.587753	-0.589070	-0.057905	62.4798	-0.587058	-5.521975E+7	1.048630E-9	NaN
1061	1.000000	0.532473	7.37543e+06	-53189.1	1055.82	-29747	0.000000	0.000000	6.532944	-0.012310	NaN	0.000000	0.001699	0.001662	28.082	0.098575	0.002025	48.6709	-2.071394	16.9957	-0.006974	0.531161	-0.577735	-0.579048	-0.012310	48.6709	-0.577546	-4.081754E+7	3.015909E-10	NaN
1061	1.000000	0.542476	7.37543e+06	-53189.1	1055.82	-29747	0.000000	0.000000	6.542945	-0.040797	NaN	0.000000	0.001727	0.001688	28.0819	0.154041	0.001992	77.3334	-176.307	-165.291	-0.005642	0.541173	-0.567733	-0.569036	-0.040797	77.3334	-0.567337	-2.950099E+7	1.382904E-9	NaN
1061	1.000000	0.552485	7.37543e+06	-53189.1	1055.82	-29747	0.000000	0.000000	6.552956	0.016628	NaN	0.000000	0.001673	0.001668	28.0822	0.018840	0.001834	10.2743	112.086	15.4205	-0.021476	0.551143	-0.557724	-0.559065	0.016628	10.2743	-0.558938	-2.257783E+7	-7.364858E-10	NaN
1061	1.000000	0.562513	7.37543e+06	-53189.1	1055.82	-29747	0.000000	0.000000	6.562981	-0.077388	NaN	0.000000	0.001693	0.001670	28.0819	0.160679	0.001947	82.5167	124.763	-167.082	-0.084949	0.561208	-0.547695	-0.549001	-0.077388	82.5167	-0.546992	-1.542710E+7	5.016362E-9	NaN
1061	1.000000	0.572504	7.37543e+06	-53189.1	1055.82	-29747	0.000000	0.000000	6.572973	-0.049271	NaN	0.000000	0.001741	0.001667	28.0817	0.095056	0.002020	47.0602	113.922	11.6777	-0.002934	0.571115	-0.537704	-0.539094	-0.049271	47.0602	-0.536919	-1.118456E+7	4.405230E-9	NaN
1061	1.000000	0.582494	7.37543e+06	-53189.1	1055.82	-29747	0.000000	0.000000	6.582965	0.001094	NaN	0.000000	0.001684	0.001650	28.0831	0.014908	0.002075	7.185156	152.483	-166.617	-0.049232	0.581191	-0.527714	-0.529017	0.001094	7.185156	-0.527829	-8.36403e+06	-1.307810E-10	NaN
1061	1.000000	0.592507	7.37543e+06	-53189.1	1055.82	-29747	0.000000	0.000000	6.592978	0.004156	NaN	0.000000	0.001684	0.001678	28.083	0.119887	0.001993	60.1649	-99.1676	9.873829	-0.027172	0.591147	-0.517701	-0.519062	0.004156	60.1649	-0.517753	-6.05823e+06	-6.859548E-10	NaN
1061	1.000000	0.602485	7.37543e+06	-53189.1	1055.82	-29747	0.000000	0.000000	6.602954	-0.046716	NaN	0.000000	0.001680	0.001677	28.0829	0.071328	0.001862	38.311	134.393	-165.738	-0.026557	0.601220	-0.507723	-0.508988	-0.046716	38.311	-0.506809	-4.26537e+06	1.095237E-8	NaN
1061	1.000000	0.612532	7.37543e+06	-53189.1	1055.82	-29747	0.000000	0.000000	6.612999	-0.098853	NaN	0.000000	0.001666	0.001674	28.0825	0.104598	0.001815	57.6283	116.884	12.2388	0.019046	0.611160	-0.497677	-0.499049	-0.098853	57.6283	-0.496390	-3.05241e+06	3.238521E-8	NaN
1061	1.000000	0.622518	7.37543e+06	-53189.1	1055.82	-29747	0.000000	0.000000	6.622986	-0.064317	NaN	0.000000	0.001680	0.001630	28.0833	0.020822	0.002031	10.2511	111.83	-167.02	0.008043	0.621209	-0.487691	-0.488999	-0.064317	10.2511	-0.482985	-1.98291e+06	3.243575E-8	NaN
1061	1.000000	0.632529	7.37543e+06	-53189.1	1055.82	-29747	0.000000	0.000000	6.633001	0.022454	NaN	0.000000	0.001685	0.001677	28.0829	0.101162	0.001936	52.2415	25.8478	13.325	0.020302	0.631210	-0.477679	-0.478998	0.022454	52.2415	-0.478002	-1.68868e+06	-1.329657E-8	NaN
1061	1.000000	0.642553	7.37543e+06	-53189.1	1055.82	-29747	0.000000	0.000000	6.643023	-0.014429	NaN	0.000000	0.001687	0.001657	28.0829	0.042877	0.002034	21.0771	-141.48	-163.245	-0.025936	0.641225	-0.467656	-0.468984	-0.014429	21.0771	-0.467143	-1.18938e+06	1.213177E-8	NaN
1061	1.000000	0.652533	7.37543e+06	-53189.1	1055.82	-29747	0.000000	0.000000	6.653003	-0.004495	NaN	0.000000	0.001644	0.001644	28.0829	0.075082	0.002003	37.4786	72.7522	16.6402	-0.003033	0.651173	-0.457676	-0.459036	-0.004495	37.4786	-0.457586	-873141	5.147905E-9	NaN
1061	1.000000	0.662541	7.37543e+06	-53189.1	1055.82	-29747	0.000000	0.000000	6.663010	-0.056308	NaN	0.000000	0.001670	0.001634	28.0832	0.043038	0.001966	21.8872	-55.5757	-168.14	-0.059492	0.661198	-0.447667	-0.449011	-0.056308	21.8872	-0.445738	-594694	9.468456E-8	NaN
1061	1.000000	0.672536	7.37543e+06	-53189.1	1055.82	-29747	0.000000	0.000000	6.673006	-0.032130	NaN	0.000000	0.001683	0.001660	28.0831	0.066777	0.002011	33.2107	57.589	13.0045	-0.018614	0.671184	-0.437672	-0.439024	-0.032130	33.2107	-0.436947	-446949	7.188738E-8	NaN
1061	1.000000	0.682586	7.37543e+06	-53189.1	1055.82	-29747	0.000000	0.000000	6.683053	-0.086207	NaN	0.000000	0.001665	0.001637	28.0832	0.059422	0.001933	30.7401	92.2311	-166.767	-0.075903	0.681282	-0.427623	-0.428927	-0.086207	30.7401	-0.425520	-308065	2.798339E-7	NaN
1061	1.000000	0.692540	7.37543e+06	-53189.1	1055.82	-29747	0.000000	0.000000	6.693008	-0.075600	NaN	0.000000	0.001656	0.001683	28.0832	0.087088	0.001877	46.4093	-145.889	15.8784	-0.087958	0.691204	-0.417669	-0.419005	-0.075600	46.4093	-0.416447	-229087	3.300065E-7	NaN
1061	1.000000	0.702548	7.37543e+06	-53189.1	1055.82	-29747	0.000000	0.000000	6.703019	-0.015271	NaN	0.000000	0.001666	0.001676	28.0832	0.006314	0.002021	3.123223	57.5915	-165.468	0.033067	0.701294	-0.407660	-0.408914	-0.015271	3.123223	-0.403993	-152373	1.002201E-7	NaN
1061	1.000000	0.712558	7.37543e+06	-53189.1	1055.82	-29747	0.000000	0.000000	6.713028	-0.033853	NaN	0.000000	0.001702	0.001641	28.0832	0.086983	0.002072	41.971	-169.786	12.8401	-0.060665	0.711172	-0.397650	-0.399037	-0.033853	41.971	-0.397045	-121293	2.790965E-7	NaN
1061	1.000000	0.722562	7.37543e+06	-53189.1	1055.82	-29747	0.000000	0.000000	6.723031	-0.044361	NaN	0.000000	0.001674	0.001644	28.0818	0.191543	0.001917	99.9032	-155.829	-168.605	-0.059139	0.721253	-0.387647	-0.388956	-0.044361	99.9032	-0.387314	-88049.1	5.038156E-7	NaN
1061	1.000000	0.732559	7.37543e+06	-53189.1	1055.82	-29747	0.000000	0.000000	6.733029	-0.014855	NaN	0.000000	0.001688	0.001642	28.0822	0.120424	0.002108	57.1161	-152.265	16.0672	0.034835	0.731264	-0.377650	-0.378945	-0.014855	57.1161	-0.377455	-63583.5	2.336263E-7	NaN
1061	1.000000	0.742574	7.37543e+06	-53189.1	1055.82	-29747	0.000000	0.000000	6.743043	-0.049855	NaN	0.000000	0.001688	0.001674	28.0822	0.051338	0.002043	25.1277	-121.951	-164.807	-0.127485	0.741211	-0.367634	-0.368997	-0.049855	25.1277	-0.366146	-43710.6	1.140566E-6	NaN
1061	1.000000	0.752561	7.37543e+06	-53189.1	1055.82	-29747	0.000000	0.000000	6.753030	-0.049254	NaN	0.000000	0.001694	0.001673	28.082	0.156226	0.001934	80.7675	-110.988	16.9677	-0.054359	0.751218	-0.357648	-0.358991	-0.049254	80.7675	-0.357190	-32449.5	1.517863E-6	NaN
1061	1.000000	0.762577	7.37543e+06	-53189.1	1055.82	-29747	0.000000	0.000000	6.763044	-0.092253	NaN	0.000000	0.001679	0.001662	28.082	0.062873	0.002050	30.6748	110.628	-167.488	-0.133969	0.761279	-0.347632	-0.348930	-0.092253	30.6748	-0.345376	-21868.8	4.218488E-6	NaN
1061	1.000000	0.772592	7.37543e+06	-53189.1	1055.82	-29747	0.000000	0.000000	6.773061	-0.055891	NaN	0.000000	0.001662	0.001631	28.0822	0.188634	0.002067	91.2777	155.25	12.6693	0.027361	0.771165	-0.337617	-0.339043	-0.055891	91.2777	-0.337157	-16599.3	3.367076E-6	NaN
1061	1.000000	0.782600	7.37543e+06	-53189.1	1055.82	-29747	0.000000	0.000000	6.783069	-0.034052	NaN	0.000000	0.001638	0.001641	28.0821	0.075052	0.001892	39.6683	-61.1631	-162.752	-0.026302	0.781244	-0.327609	-0.328965	-0.034052	39.6683	-0.326965	-11775.2	2.891820E-6	NaN
1061	1.000000	0.792603	7.37543e+06	-53189.1	1055.82	-29747	0.000000	0.000000	6.793073	-0.037567	NaN	0.000000	0.001693	0.001619	28.0819	0.072933	0.001875	38.8925	104.974	14.4806	0.012219	0.791211	-0.317605	-0.318998	-0.037567	38.8925	-0.316881	-8369.31	4.488709E-6	NaN
1061	1.000000	0.802579	7.37543e+06	-53189.1	1055.82	-29747	0.000000	0.000000	6.803050	-0.004980	NaN	0.000000	0.001688	0.001653	28.082	0.081165	0.002088	38.8773	-83.5429	-166.22	-0.018871	0.801303	-0.307629	-0.308905	-0.004980	38.8773	-0.307533	-6088.67	8.178338E-7	NaN
1061	1.000000	0.812583	7.37543e+06	-53189.1	1055.82	-29747	0.000000	0.000000	6.813053	-0.020964	NaN	0.000000	0.001649	0.001663	28.082	0.131586	0.002038	64.5719	-174.446	11.3581	-0.048290	0.811244	-0.297625	-0.298965	-0.020964	64.5719	-0.297382	-4301.57	4.873687E-6	NaN
1061	1.000000	0.822614	7.37543e+06	-53189.1	1055.82	-29747	0.000000	0.000000	6.823083	-0.061477	NaN	0.000000	0.001687	0.001655	28.082	0.043851	0.001979	22.1624	-153.359	-166.379	0.023569	0.821279	-0.287594	-0.288930	-0.061477	22.1624	-0.285514	-2857.53	2.151387E-5	NaN
1061	1.000000	0.832622	7.37543e+06	-53189.1	1055.82	-29747	0.000000	0.000000	6.833094	0.017777	NaN	0.000000	0.001687	0.001621	28.0819	0.034638	0.002170	15.9608	153.16	17.3581	-0.017758	0.831225	-0.277586	-0.278983	0.017777	15.9608	-0.278422	-2234.31	-7.956391E-6	NaN
1061	1.000000	0.842623	7.37543e+06	-53189.1	1055.82	-29747	0.000000	0.000000	6.843094	-0.009036	NaN	0.000000	0.001701	0.001634	28.0822	0.061139	0.002015	30.3432	-51.2222	-164.294	-0.027019	0.841336	-0.267585	-0.268873	-0.009036	30.3432	-0.267362	-1518.46	5.951007E-6	NaN
1061	1.000000	0.852641	7.37543e+06	-53189.1	1055.82	-29747	0.000000	0.000000	6.853110	-0.036558	NaN	0.000000	0.001653	0.001671	28.0821	0.029061	0.001938	14.9947	116.954	14.4405	-0.031893	0.851236	-0.257568	-0.258973	-0.036558	14.9947	-0.255739	-1008.08	3.626446E-5	NaN
1061	1.000000	0.862608	7.37543e+06	-53189.1	1055.82	-29747	0.000000	0.000000	6.863077	-0.049434	NaN	0.000000	0.001682	0.001688	28.083	0.059093	0.001949	30.3181	-27.4574	-166.452	-0.069473	0.861271	-0.247601	-0.248937	-0.049434	30.3181	-0.246378	-722.516	6.841995E-5	NaN
1061	1.000000	0.872610	7.37543e+06	-53189.1	1055.82	-29747	0.000000	0.000000	6.873077	-0.073792	NaN	0.000000	0.001703	0.001713	28.083	0.089094	0.001947	45.7661	-57.7946	14.0287	-0.046964	0.871288	-0.237599	-0.238920	-0.073792	45.7661	-0.236390	-504.726	0.000146	NaN
1061	1.000000	0.882626	7.37543e+06	-53189.1	1055.82	-29747	0.000000	0.000000	6.883096	-0.017042	NaN	0.000000	0.001692	0.001727	28.0832	0.029581	0.002061	14.3504	158.306	-165.484	-0.019715	0.881305	-0.227583	-0.228904	-0.017042	14.3504	-0.226692	-354.962	4.801062E-5	NaN
1061	1.000000	0.892605	7.37543e+06	-53189.1	1055.82	-29747	0.000000	0.000000	6.893072	-0.091444	NaN	0.000000	0.001710	0.001643	28.0831	0.051695	0.001981	26.0997	23.792	11.7336	-0.068406	0.891289	-0.217603	-0.218920	-0.091444	26.0997	-0.214976	-230.74	0.000396	NaN
1061	1.000000	0.902584	7.37543e+06	-53189.1	1055.82	-29747	0.000000	0.000000	6.903052	-0.085044	NaN	0.000000	0.001683	0.001638	28.083	0.113305	0.002024	55.9724	176.766	-162.686	-0.154931	0.901348	-0.207624	-0.208860	-0.085044	55.9724	-0.206485	-168.17	0.000506	NaN
1061	1.000000	0.912618	7.37543e+06	-53189.1	1055.82	-29747	0.000000	0.000000	6.913087	-0.035582	NaN	0.000000	0.001681	0.001667	28.0832	0.021182	0.001950	10.8631	171.068	9.299828	0.042704	0.911278	-0.197591	-0.198931	-0.035582	10.8631	-0.195134	-109.503	0.000325	NaN
1061	1.000000	0.922625	7.37543e+06	-53189.1	1055.82	-29747	0.000000	0.000000	6.923097	0.025614	NaN	0.000000	0.001675	0.001649	28.083	0.056626	0.002108	26.8625	60.183	-166.732	0.003905	0.921295	-0.187584	-0.188913	0.025614	26.8625	-0.188299	-84.2495	-0.000304	NaN
1061	1.000000	0.932638	7.37543e+06	-53189.1	1055.82	-29747	0.000000	0.000000	6.933106	-0.062577	NaN	0.000000	0.001677	0.001646	28.0831	0.092185	0.002026	45.4927	-116.527	13.126	-0.097513	0.931289	-0.177570	-0.178920	-0.062577	45.4927	-0.176539	-53.2575	0.001175	NaN
1061	1.000000	0.942670	7.37543e+06	-53189.1	1055.82	-29747	0.000000	0.000000	6.943140	-0.014207	NaN	0.000000	0.001723	0.001648	28.0829	0.100775	0.001973	51.074	-57.0282	-164.816	-0.000673	0.941318	-0.167539	-0.168891	-0.014207	51.074	-0.167330	-36.9079	0.000385	NaN
1061	1.000000	0.952644	7.37543e+06	-53189.1	1055.82	-29747	0.000000	0.000000	6.953115	-0.001688	NaN	0.000000	0.001656	0.001671	28.0834	0.077207	0.002036	37.9269	-159.8	12.9697	0.003560	0.951281	-0.157564	-0.158928	-0.001688	37.9269	-0.157531	-24.773	6.814360E-5	NaN
1061	1.000000	0.962636	7.37543e+06	-53189.1	1055.82	-29747	0.000000	0.000000	6.963102	-0.130464	NaN	0.000000	0.001668	0.001648	28.0831	0.044818	0.002012	22.2768	-7.866470	-171.115	-0.133024	0.961400	-0.147572	-0.148809	-0.130464	22.2768	-0.143180	-13.5646	0.009618	NaN
1061	1.000000	0.972683	7.37543e+06	-53189.1	1055.82	-29747	0.000000	0.000000	6.973151	-0.070077	NaN	0.000000	0.001677	0.001686	28.0832	0.052850	0.002051	25.7708	-109.908	12.2267	-0.000429	0.971327	-0.137526	-0.138881	-0.070077	25.7708	-0.135486	-9.717705	0.007211	NaN
1061	1.000000	0.982663	7.37543e+06	-53189.1	1055.82	-29747	0.000000	0.000000	6.983130	-0.088874	NaN	0.000000	0.001648	0.001683	28.0833	0.085223	0.002081	40.9448	157.62	-165.165	-0.112615	0.981374	-0.127546	-0.128835	-0.088874	40.9448	-0.125918	-6.340464	0.014017	NaN
1061	1.000000	0.992661	7.37543e+06	-53189.1	1055.82	-29747	0.000000	0.000000	6.993127	-0.122583	NaN	0.000000	0.001658	0.001672	28.082	0.117544	0.001937	60.6686	-159.014	15.8189	-0.112439	0.991268	-0.117548	-0.118941	-0.122583	60.6686	-0.116032	-4.011756	0.030556	NaN
1061	1.000000	1.002669	7.37543e+06	-53189.1	1055.82	-29747	0.000000	0.000000	7.003142	0.031048	NaN	0.000000	0.001697	0.001631	28.0821	0.121781	0.001928	63.1536	133.077	-169.026	-0.028841	1.001363	-0.107539	-0.108846	0.031048	63.1536	-0.107908	-2.713573	-0.011442	NaN
1061	1.000000	1.012696	7.37543e+06	-53189.1	1055.82	-29747	0.000000	0.000000	7.013166	-0.020834	NaN	0.000000	0.001644	0.001649	28.0823	0.081707	0.002020	40.4498	8.594159	11.5169	-0.052376	1.011313	-0.097512	-0.098895	-0.020834	40.4498	-0.097126	-1.576037	0.013219	NaN
1061	1.000000	1.022664	7.37543e+06	-53189.1	1055.82	-29747	0.000000	0.000000	7.023131	-0.109863	NaN	0.000000	0.001644	0.001664	28.0821	0.085197	0.001907	44.6682	167.487	-166.793	-0.060768	1.021337	-0.087544	-0.088871	-0.109863	44.6682	-0.085700	-0.854223	0.128612	NaN
1061	1.000000	1.032687	7.37543e+06	-53189.1	1055.82	-29747	0.000000	0.000000	7.033154	-0.086397	NaN	0.000000	0.001652	0.001683	28.0822	0.065281	0.002060	31.6845	-174.829	16.0386	-0.040333	1.031355	-0.077521	-0.078854	-0.086397	31.6845	-0.075476	-0.475143	0.181834	NaN
1061	1.000000	1.042711	7.37543e+06	-53189.1	1055.82	-29747	0.000000	0.000000	7.043179	-0.050390	NaN	0.000000	0.001635	0.001609	28.082	0.060804	0.001965	30.9503	77.9117	-167.722	-0.108924	1.041372	-0.067498	-0.068837	-0.050390	30.9503	-0.066277	-0.270298	0.186422	NaN
1061	1.000000	1.052671	7.37543e+06	-53189.1	1055.82	-29747	0.000000	0.000000	7.053140	-0.037293	NaN	0.000000	0.001650	0.001631	28.0822	0.176271	0.001993	88.4611	-146.438	12.7446	-0.095925	1.051371	-0.057538	-0.058838	-0.037293	88.4611	-0.057222	-0.149659	0.249184	NaN
1061	1.000000	1.062689	7.37543e+06	-53189.1	1055.82	-29747	0.000000	0.000000	7.063160	0.011193	NaN	0.000000	0.001652	0.001651	28.0822	0.091631	0.002039	44.9491	142.98	-166.461	-0.014332	1.061364	-0.047520	-0.048844	0.011193	44.9491	-0.047706	-0.077735	-0.143994	NaN
1061	1.000000	1.072689	7.37543e+06	-53189.1	1055.82	-29747	0.000000	0.000000	7.073157	-0.061396	NaN	0.000000	0.001699	0.001643	28.0824	0.088167	0.001984	44.4424	-110.478	13.8608	-0.043137	1.071391	-0.037520	-0.038817	-0.061396	44.4424	-0.036483	-0.035436	1.732619	NaN
1061	1.000000	1.082692	7.37543e+06	-53189.1	1055.82	-29747	0.000000	0.000000	7.083163	0.003003	NaN	0.000000	0.001627	0.001650	28.082	0.067961	0.002028	33.5088	-50.4215	-170.849	0.023487	1.081425	-0.027516	-0.028784	0.003003	33.5088	-0.027584	-0.019756	-0.151991	NaN
1061	1.000000	1.092695	7.37543e+06	-53189.1	1055.82	-29747	0.000000	0.000000	7.093166	-0.005717	NaN	0.000000	0.001691	0.001656	28.0827	0.092641	0.001968	47.0805	-107.631	14.9096	-0.029081	1.091336	-0.017513	-0.018872	-0.005717	47.0805	-0.017422	-0.010783	0.530232	NaN
1061	1.000000	1.102699	7.37543e+06	-53189.1	1055.82	-29747	0.000000	0.000000	7.103168	-0.049152	NaN	0.000000	0.001696	0.001649	28.0822	0.064748	0.002085	31.0612	104.414	-163.712	-0.130242	1.101386	-0.007509	-0.008823	-0.049152	31.0612	-0.006322	-0.004233	11.6128	NaN
1061	1.000000	1.112693	7.37543e+06	-53189.1	1055.82	-29747	0.000000	0.000000	7.113255	2.212488	NaN	0.000000	0.001720	0.001681	28.0819	3.021950	0.001826	1655.35	10.1189	7.112285	0.944008	1.111338	0.002484	0.001129	2.212488	1655.35	0.001482	0.001140	1940.86	44794
1061	2.000000	1.119326	7.37543e+06	-53189.1	1055.82	-29747	0.000000	0.000000	7.120165	8.948225	NaN	0.000000	0.001735	0.001648	28.082	9.173684	0.001676	5472.61	2.961830	-169.082	8.513591	1.119077	0.009118	0.008868	8.948225	5472.61	0.007891	0.006931	1291.1	60059.3
1061	2.000000	1.121879	7.37543e+06	-53189.1	1055.82	-29747	0.000000	0.000000	7.122910	13.6196	NaN	0.000000	0.001732	0.001651	28.0831	11.8918	0.001734	6858.4	9.565823	4.499282	13.6997	1.121496	0.011671	0.011287	13.6196	6858.4	0.010181	0.009383	1451.45	64686.5
1061	2.000000	1.124289	7.37543e+06	-53189.1	1055.82	-29747	0.000000	0.000000	7.125450	16.7825	NaN	0.000000	0.001712	0.001636	28.0832	14.4297	0.001655	8716.58	6.842471	-176.65	15.6746	1.123942	0.014081	0.013733	16.7825	8716.58	0.012637	0.012261	1368.72	71919.7
1061	2.000000	1.126800	7.37543e+06	-53189.1	1055.82	-29747	0.000000	0.000000	7.128127	20.8161	NaN	0.000000	0.001710	0.001629	28.0832	17.1861	0.001778	9665.04	7.322035	3.006042	20.3173	1.126472	0.016591	0.016263	20.8161	9665.04	0.014976	0.015253	1364.7	71498.3
1061	2.000000	1.129286	7.37543e+06	-53189.1	1055.82	-29747	0.000000	0.000000	7.130758	24.351	NaN	0.000000	0.001715	0.001608	28.0831	19.6843	0.001836	10723	3.980990	-174.754	24.2297	1.129099	0.019077	0.018890	24.351	10723	0.017374	0.018583	1310.38	71867.4
1061	2.000000	1.131784	7.37543e+06	-53189.1	1055.82	-29747	0.000000	0.000000	7.133529	30.9903	NaN	0.000000	0.001734	0.001682	28.0834	21.9564	0.001829	12002.1	5.831406	3.346213	30.5199	1.131425	0.021575	0.021217	30.9903	12002.1	0.019638	0.021977	1410.1	73967.8
1061	2.000000	1.134254	7.37543e+06	-53189.1	1055.82	-29747	0.000000	0.000000	7.136226	36.4963	NaN	0.000000	0.001734	0.001668	28.0831	23.7506	0.001741	13643.7	4.898602	-178.902	35.2635	1.133988	0.024045	0.023780	36.4963	13643.7	0.022039	0.025848	1411.93	77533.2
1061	2.000000	1.136743	7.37543e+06	-53189.1	1055.82	-29747	0.000000	0.000000	7.139092	45.678	NaN	0.000000	0.001693	0.001663	28.0836	26.3018	0.001663	15820.1	4.446226	-0.147796	44.0595	1.136444	0.026534	0.026235	45.678	15820.1	0.024369	0.029877	1528.85	83620.1
1061	2.000000	1.139257	7.37543e+06	-53189.1	1055.82	-29747	0.000000	0.000000	7.141772	49.7155	NaN	0.000000	0.001691	0.001675	28.0831	30.1188	0.001814	16602.8	3.452480	-178.713	50.1134	1.139011	0.029048	0.028802	49.7155	16602.8	0.026802	0.034376	1446.22	81813.5
1061	2.000000	1.141769	7.37543e+06	-53189.1	1055.82	-29747	0.000000	0.000000	7.144716	60.2026	NaN	0.000000	0.001670	0.001640	28.0844	31.8375	0.001815	17541.2	2.726888	2.125531	58.3613	1.141432	0.031560	0.031223	60.2026	17541.2	0.028986	0.038669	1556.89	81499.1
1061	2.000000	1.144219	7.37543e+06	-53189.1	1055.82	-29747	0.000000	0.000000	7.147533	69.1118	NaN	0.000000	0.001695	0.001668	28.0831	34.4183	0.001812	18996	4.706732	179.557	67.4567	1.143889	0.034011	0.033680	69.1118	18996	0.031282	0.043442	1590.88	83267.8
1061	2.000000	1.146757	7.37543e+06	-53189.1	1055.82	-29747	0.000000	0.000000	7.150231	73.006	NaN	0.000000	0.001694	0.001631	28.0831	37.107	0.001716	21628.7	6.748486	-3.798322	72.7293	1.146404	0.036549	0.036196	73.006	21628.7	0.034017	0.049482	1475.4	88834
1061	2.000000	1.149206	7.37543e+06	-53189.1	1055.82	-29747	0.000000	0.000000	7.153048	81.9802	NaN	0.000000	0.001670	0.001654	28.0829	40.1095	0.001816	22090	2.131369	179.43	79.8594	1.149017	0.038997	0.038808	81.9802	22090	0.036214	0.054610	1501.21	86364.3
1061	2.000000	1.151728	7.37543e+06	-53189.1	1055.82	-29747	0.000000	0.000000	7.156197	97.2067	NaN	0.000000	0.001686	0.001604	28.084	41.9055	0.001786	23457	6.148668	-3.093466	93.3134	1.151331	0.041519	0.041123	97.2067	23457	0.038411	0.059986	1620.48	87502.4
1061	2.000000	1.154286	7.37543e+06	-53189.1	1055.82	-29747	0.000000	0.000000	7.158975	102.554	NaN	0.000000	0.001675	0.001678	28.0823	44.6908	0.001798	24851	4.765865	177.513	106.412	1.153906	0.044077	0.043698	102.554	24851	0.040982	0.066591	1540.05	87984.8
1061	2.000000	1.156744	7.37543e+06	-53189.1	1055.82	-29747	0.000000	0.000000	7.162045	117.45	NaN	0.000000	0.001695	0.001691	28.0819	47.3927	0.001640	28899.9	6.123620	-5.989666	116.92	1.156301	0.046535	0.046092	117.45	28899.9	0.043487	0.073350	1601.23	97492.2
1061	2.000000	1.159164	7.37543e+06	-53189.1	1055.82	-29747	0.000000	0.000000	7.164788	125.283	NaN	0.000000	0.001708	0.001678	28.0817	50.3276	0.001847	27255.6	1.747168	178.548	120.177	1.159000	0.048955	0.048792	125.283	27255.6	0.045508	0.079036	1585.14	88576
1061	2.000000	1.161801	7.37543e+06	-53189.1	1055.82	-29747	0.000000	0.000000	7.167676	131.398	NaN	0.000000	0.001719	0.001652	28.0824	52.3016	0.001754	29824.7	4.570180	-5.154742	131.587	1.161613	0.051592	0.051404	131.398	29824.7	0.048288	0.087194	1506.95	92279.6
1061	2.000000	1.164200	7.37543e+06	-53189.1	1055.82	-29747	0.000000	0.000000	7.170753	147.867	NaN	0.000000	0.001737	0.001697	28.0815	54.7488	0.001797	30467	3.804412	175.557	147.625	1.163997	0.053992	0.053788	147.867	30467	0.050352	0.093503	1581.42	91031
1061	2.000000	1.166661	7.37543e+06	-53189.1	1055.82	-29747	0.000000	0.000000	7.173858	163.529	NaN	0.000000	0.001728	0.001684	28.0818	57.662	0.001834	31441.9	6.724333	-7.531313	159.086	1.166263	0.056452	0.056054	163.529	31441.9	0.052552	0.100463	1627.75	90631.5
1061	2.000000	1.169218	7.37543e+06	-53189.1	1055.82	-29747	0.000000	0.000000	7.177055	179.086	NaN	0.000000	0.001728	0.001656	28.0817	60.1807	0.001928	31218.7	4.763026	175.973	179.631	1.168824	0.059010	0.058616	179.086	31218.7	0.054707	0.107516	1665.67	86986.3
1061	2.000000	1.171717	7.37543e+06	-53189.1	1055.82	-29747	0.000000	0.000000	7.180132	193.14	NaN	0.000000	0.001738	0.001658	28.0822	61.5135	0.001824	33732.4	3.900034	-4.417452	189.979	1.171216	0.061509	0.061008	193.14	33732.4	0.057214	0.116009	1664.86	90484.3
1061	2.000000	1.174193	7.37543e+06	-53189.1	1055.82	-29747	0.000000	0.000000	7.183218	207.985	NaN	0.000000	0.001747	0.001677	28.0817	64.4183	0.001825	35295	7.103700	171.74	206.959	1.173889	0.063985	0.063681	207.985	35295	0.059565	0.124253	1673.88	91481.5
1061	2.000000	1.176696	7.37543e+06	-53189.1	1055.82	-29747	0.000000	0.000000	7.186172	218.942	NaN	0.000000	0.001723	0.001694	28.0819	67.3568	0.001820	37005.8	5.294915	-6.858384	215.803	1.176342	0.066488	0.066133	218.942	37005.8	0.062050	0.133263	1642.93	92616.4
1061	2.000000	1.179228	7.37543e+06	-53189.1	1055.82	-29747	0.000000	0.000000	7.189459	237.299	NaN	0.000000	0.001742	0.001685	28.0819	70.2699	0.001808	38876.8	8.575814	169.507	237.464	1.178853	0.069019	0.068644	237.299	38876.8	0.064441	0.142213	1668.62	94187.5
1061	2.000000	1.181765	7.37543e+06	-53189.1	1055.82	-29747	0.000000	0.000000	7.192478	249.027	NaN	0.000000	0.001744	0.001637	28.0822	70.8263	0.001679	42194.3	4.089156	-7.086126	250.458	1.181510	0.071556	0.071301	249.027	42194.3	0.067130	0.152608	1631.81	98682.2
1061	2.000000	1.184247	7.37543e+06	-53189.1	1055.82	-29747	0.000000	0.000000	7.195964	273.429	NaN	0.000000	0.001719	0.001668	28.0817	73.0621	0.001770	41269.2	5.835805	171.666	275.833	1.183850	0.074038	0.073641	273.429	41269.2	0.069069	0.160322	1705.5	94167.9
1061	2.000000	1.186717	7.37543e+06	-53189.1	1055.82	-29747	0.000000	0.000000	7.199022	287.717	NaN	0.000000	0.001682	0.001707	28.0818	75.3297	0.001794	41981.8	5.156238	-7.156389	288.068	1.186342	0.076509	0.076134	287.717	41981.8	0.071369	0.169700	1695.45	93109.3
1061	2.000000	1.189208	7.37543e+06	-53189.1	1055.82	-29747	0.000000	0.000000	7.201992	299.372	NaN	0.000000	0.001702	0.001624	28.083	79.4725	0.001777	44721	5.883664	170.398	300.509	1.188972	0.078999	0.078763	299.372	44721	0.073979	0.180649	1657.2	96131.9
1061	2.000000	1.191664	7.37543e+06	-53189.1	1055.82	-29747	0.000000	0.000000	7.205450	323.724	NaN	0.000000	0.001720	0.001688	28.083	80.8674	0.001755	46083.8	6.904525	-10.2812	319.665	1.191378	0.081456	0.081169	323.724	46083.8	0.076187	0.190163	1702.35	96551.4
1061	2.000000	1.194122	7.37543e+06	-53189.1	1055.82	-29747	0.000000	0.000000	7.208792	345.206	NaN	0.000000	0.001679	0.001610	28.0829	83.4977	0.001730	48254.9	5.393655	170.838	342.669	1.193869	0.083914	0.083661	345.206	48254.9	0.078548	0.200590	1720.96	98437.6
1061	2.000000	1.196664	7.37543e+06	-53189.1	1055.82	-29747	0.000000	0.000000	7.211342	345.418	NaN	0.000000	0.001682	0.001632	28.083	86.8005	0.001873	46334.2	3.954192	-8.078125	341.232	1.196498	0.086455	0.086290	345.418	46334.2	0.080864	0.211067	1636.53	92143.4
1061	2.000000	1.199174	7.37543e+06	-53189.1	1055.82	-29747	0.000000	0.000000	7.214849	369.681	NaN	0.000000	0.001666	0.001654	28.0832	89.256	0.001797	49679.1	5.811744	169.606	368.931	1.199042	0.088965	0.088833	369.681	49679.1	0.083384	0.222753	1659.6	96169
1061	2.000000	1.201681	7.37543e+06	-53189.1	1055.82	-29747	0.000000	0.000000	7.218607	400.056	NaN	0.000000	0.001693	0.001644	28.083	90.569	0.001881	48147.8	3.346416	-6.349522	396.327	1.201271	0.091473	0.091062	400.056	48147.8	0.085241	0.231554	1727.7	91416.4
1061	2.000000	1.204148	7.37543e+06	-53189.1	1055.82	-29747	0.000000	0.000000	7.221538	411.353	NaN	0.000000	0.001667	0.001632	28.0829	93.6259	0.001792	52246.8	7.284250	168.23	408.099	1.203813	0.093939	0.093605	411.353	52246.8	0.088035	0.245090	1678.38	96420.7
1061	2.000000	1.206578	7.37543e+06	-53189.1	1055.82	-29747	0.000000	0.000000	7.225307	443.925	NaN	0.000000	0.001694	0.001626	28.0829	95.9305	0.001690	56766.5	5.570822	-10.4281	438.128	1.206209	0.096369	0.096000	443.925	56766.5	0.090504	0.257356	1724.94	102235
1061	2.000000	1.209282	7.37543e+06	-53189.1	1055.82	-29747	0.000000	0.000000	7.228162	447.586	NaN	0.000000	0.001704	0.001645	28.0831	98.7541	0.001708	57810.4	2.657193	172.238	451.983	1.208981	0.099073	0.098772	447.586	57810.4	0.093267	0.271409	1649.12	101383
1061	2.000000	1.211617	7.37543e+06	-53189.1	1055.82	-29747	0.000000	0.000000	7.231803	479.331	NaN	0.000000	0.001669	0.001639	28.0829	101.164	0.001804	56072	9.149780	-13.3015	471.403	1.211136	0.101409	0.100927	479.331	56072	0.094997	0.280390	1709.52	96747.1
1061	2.000000	1.214093	7.37543e+06	-53189.1	1055.82	-29747	0.000000	0.000000	7.234994	496.716	NaN	0.000000	0.001670	0.001657	28.0829	103.063	0.001762	58477.1	6.840111	168.63	492.102	1.213773	0.103884	0.103565	496.716	58477.1	0.097514	0.293692	1691.28	98585.6
1061	2.000000	1.216613	7.37543e+06	-53189.1	1055.82	-29747	0.000000	0.000000	7.238243	514.448	NaN	0.000000	0.001707	0.001662	28.083	104.958	0.001809	58024.9	1.629037	-6.505646	509.579	1.216362	0.106404	0.106153	514.448	58024.9	0.099755	0.305782	1682.4	95869.7