File: remote_trans/data/nanoindenter/0828-1/data/Data_2025-08-06,11h17m57s/2025-07-22_16-23-58_1_522.txt
2025-07-22, 16:23:58, 1
Index	Phase	Displacement	Time	Pos X	Pos Y	Pos Z	Rot A	Rot B	Piezo Z	Force A	Force B	Gripper	Voltage A	Voltage B	Temperature	Amplitude force	Amplitude pos	Stiffness	Phase shift	Phase excitation	Force A raw	Displacement raw	HMax	HMax raw	Real Force	Real Stiffness	Contact Depth	Area	Hardness	Reduced Mod.
[#]	[#]	[um]	[s]	[um]	[um]	[um]	[m°]	[m°]	[um]	[uN]	[uN]	[V]	[V]	[V]	[°C]	[uN]	[um]	[N/m]	[°]	[°]	[uN]	[um]	[um]	[um]	[uN]	[N/m]	[um]	[um^2]	[MPa]	[MPa]
522	1.000000	0.002655	7.37016e+06	-50989.1	1005.82	-29753.8	0.000000	0.000000	6.002800	-0.041132	NaN	0.000000	0.001694	0.001760	28.0837	0.094569	0.000932	101.493	153.848	-159.999	0.004236	0.001391	-1.120487	-1.121751	-0.041132	101.493	-1.120183	-9.352624E+14	4.397877E-17	NaN
522	1.000000	0.012723	7.37016e+06	-50989.1	1005.82	-29753.8	0.000000	0.000000	6.012872	0.044929	NaN	0.000000	0.001647	0.001762	28.0837	0.063825	0.001226	52.046	103.677	13.5175	0.117701	0.011323	-1.110419	-1.111819	0.044929	52.046	-1.111067	-7.056704E+14	-6.366836E-17	NaN
522	1.000000	0.022641	7.37016e+06	-50989.1	1005.82	-29753.8	0.000000	0.000000	6.022788	0.009513	NaN	0.000000	0.001599	0.001766	28.0838	0.064273	0.001825	35.2173	30.2862	-164.267	0.009401	0.021245	-1.100501	-1.101897	0.009513	35.2173	-1.100704	-5.122918E+14	-1.857039E-17	NaN
522	1.000000	0.032607	7.37016e+06	-50989.1	1005.82	-29753.8	0.000000	0.000000	6.032755	0.024576	NaN	0.000000	0.001637	0.001767	28.0838	0.072075	0.001943	37.0903	-62.0044	11.6326	-0.033429	0.031253	-1.090536	-1.091889	0.024576	37.0903	-1.091032	-3.799052E+14	-6.469056E-17	NaN
522	1.000000	0.042625	7.37016e+06	-50989.1	1005.82	-29753.8	0.000000	0.000000	6.042774	0.037606	NaN	0.000000	0.001603	0.001768	28.083	0.039916	0.001932	20.6623	71.0584	-167.874	0.056843	0.041292	-1.080517	-1.081850	0.037606	20.6623	-1.081882	-2.862816E+14	-1.313607E-16	NaN
522	1.000000	0.052592	7.37016e+06	-50989.1	1005.82	-29753.8	0.000000	0.000000	6.052738	-0.018550	NaN	0.000000	0.001639	0.001768	28.0827	0.080755	0.001912	42.2422	-62.5074	11.3643	0.027610	0.051264	-1.070550	-1.071878	-0.018550	42.2422	-1.070221	-1.995998E+14	9.293498E-17	NaN
522	1.000000	0.062591	7.37016e+06	-50989.1	1005.82	-29753.8	0.000000	0.000000	6.062737	-0.029045	NaN	0.000000	0.001627	0.001766	28.083	0.060469	0.002050	29.4997	64.6086	-165.461	-0.038255	0.061254	-1.060551	-1.061888	-0.029045	29.4997	-1.059813	-1.446464E+14	2.008031E-16	NaN
522	1.000000	0.072591	7.37016e+06	-50989.1	1005.82	-29753.8	0.000000	0.000000	6.072739	-0.004031	NaN	0.000000	0.001606	0.001761	28.0829	0.099937	0.001967	50.7959	-21.9736	12.9838	-0.024059	0.071249	-1.050551	-1.051893	-0.004031	50.7959	-1.050491	-1.083971E+14	3.719101E-17	NaN
522	1.000000	0.082631	7.37016e+06	-50989.1	1005.82	-29753.8	0.000000	0.000000	6.082779	0.021034	NaN	0.000000	0.001621	0.001779	28.083	0.028784	0.002021	14.241	99.0236	-162.749	0.030037	0.081291	-1.040511	-1.041851	0.021034	14.241	-1.041619	-8.236355E+13	-2.553813E-16	NaN
522	1.000000	0.092624	7.37016e+06	-50989.1	1005.82	-29753.8	0.000000	0.000000	6.092769	-0.056453	NaN	0.000000	0.001629	0.001796	28.0827	0.087935	0.001897	46.3634	-166.233	14.8409	-0.048236	0.091209	-1.030518	-1.031933	-0.056453	46.3634	-1.029605	-5.677651E+13	9.943050E-16	NaN
522	1.000000	0.102610	7.37016e+06	-50989.1	1005.82	-29753.8	0.000000	0.000000	6.102760	0.063494	NaN	0.000000	0.001614	0.001804	28.0826	0.113541	0.001977	57.4444	154.139	-166.55	-0.008791	0.101294	-1.020532	-1.021848	0.063494	57.4444	-1.021361	-4.398100E+13	-1.443676E-15	NaN
522	1.000000	0.112643	7.37016e+06	-50989.1	1005.82	-29753.8	0.000000	0.000000	6.112788	-0.053938	NaN	0.000000	0.001618	0.001819	28.0825	0.078297	0.001958	39.9973	-115.898	11.558	0.033207	0.111324	-1.010499	-1.011818	-0.053938	39.9973	-1.009487	-3.044264E+13	1.771799E-15	NaN
522	1.000000	0.122658	7.37016e+06	-50989.1	1005.82	-29753.8	0.000000	0.000000	6.122801	-0.113806	NaN	0.000000	0.001586	0.001813	28.0827	0.076342	0.002041	37.3994	30.6995	-163.884	-0.120150	0.121256	-1.000484	-1.001886	-0.113806	37.3994	-0.998202	-2.145659E+13	5.304025E-15	NaN
522	1.000000	0.132625	7.37016e+06	-50989.1	1005.82	-29753.8	0.000000	0.000000	6.132772	-0.000489	NaN	0.000000	0.001583	0.001815	28.0824	0.072668	0.001907	38.1153	175.612	14.2999	-0.027641	0.131300	-0.990517	-0.991842	-0.000489	38.1153	-0.990507	-1.690232E+13	2.891910E-17	NaN
522	1.000000	0.142621	7.37016e+06	-50989.1	1005.82	-29753.8	0.000000	0.000000	6.142769	0.020065	NaN	0.000000	0.001574	0.001802	28.0824	0.037763	0.001879	20.1007	-136.079	-162.77	0.084892	0.141296	-0.980521	-0.981846	0.020065	20.1007	-0.981270	-1.269176E+13	-1.580959E-15	NaN
522	1.000000	0.152600	7.37016e+06	-50989.1	1005.82	-29753.8	0.000000	0.000000	6.152748	0.028208	NaN	0.000000	0.001552	0.001840	28.0827	0.043791	0.002034	21.5247	6.111595	13.3826	0.016508	0.151300	-0.970543	-0.971842	0.028208	21.5247	-0.971525	-9.380375E+12	-3.007087E-15	NaN
522	1.000000	0.162631	7.37016e+06	-50989.1	1005.82	-29753.8	0.000000	0.000000	6.162778	-0.003401	NaN	0.000000	0.001575	0.001781	28.083	0.052752	0.001931	27.3207	-164.951	-168.871	0.012442	0.161346	-0.960511	-0.961796	-0.003401	27.3207	-0.960418	-6.645048E+12	5.117966E-16	NaN
522	1.000000	0.172634	7.37016e+06	-50989.1	1005.82	-29753.8	0.000000	0.000000	6.172780	-0.027457	NaN	0.000000	0.001613	0.001803	28.0828	0.053204	0.001964	27.0847	-32.5639	17.5043	-0.016240	0.171287	-0.950508	-0.951855	-0.027457	27.0847	-0.949748	-4.771194E+12	5.754728E-15	NaN
522	1.000000	0.182641	7.37016e+06	-50989.1	1005.82	-29753.8	0.000000	0.000000	6.182788	5.041796E-5	NaN	0.000000	0.001590	0.001825	28.084	0.038673	0.001974	19.587	-149.886	-162.64	0.049854	0.181307	-0.940501	-0.941835	5.041796E-5	19.587	-0.940503	-3.580336E+12	-1.408191E-17	NaN
522	1.000000	0.192675	7.37016e+06	-50989.1	1005.82	-29753.8	0.000000	0.000000	6.192822	-0.008245	NaN	0.000000	0.001622	0.001803	28.0841	0.071810	0.001960	36.6286	-48.5685	14.3083	-0.007167	0.191348	-0.930467	-0.931794	-0.008245	36.6286	-0.930298	-2.607483E+12	3.161909E-15	NaN
522	1.000000	0.202655	7.37016e+06	-50989.1	1005.82	-29753.8	0.000000	0.000000	6.202802	-0.030009	NaN	0.000000	0.001571	0.001825	28.084	0.050010	0.001876	26.6527	-117.681	-166.114	0.022107	0.201385	-0.920487	-0.921757	-0.030009	26.6527	-0.919642	-1.872294E+12	1.602815E-14	NaN
522	1.000000	0.212666	7.37016e+06	-50989.1	1005.82	-29753.8	0.000000	0.000000	6.212812	-0.018677	NaN	0.000000	0.001609	0.001827	28.0838	0.060939	0.002072	29.4139	48.6948	13.5678	0.026718	0.211339	-0.910476	-0.911803	-0.018677	29.4139	-0.910000	-1.387280E+12	1.346323E-14	NaN
522	1.000000	0.222641	7.37016e+06	-50989.1	1005.82	-29753.8	0.000000	0.000000	6.222789	0.002941	NaN	0.000000	0.001628	0.001823	28.0839	0.076442	0.002000	38.2181	118.172	-166.848	0.018446	0.221376	-0.900501	-0.901767	0.002941	38.2181	-0.900559	-1.034229E+12	-2.843950E-15	NaN
522	1.000000	0.232675	7.37016e+06	-50989.1	1005.82	-29753.8	0.000000	0.000000	6.232820	-0.064540	NaN	0.000000	0.001603	0.001835	28.0841	0.079485	0.001973	40.2857	131.134	16.6021	-0.084496	0.231327	-0.890467	-0.891815	-0.064540	40.2857	-0.889266	-7.277621E+11	8.868243E-14	NaN
522	1.000000	0.242683	7.37016e+06	-50989.1	1005.82	-29753.8	0.000000	0.000000	6.242830	-0.018634	NaN	0.000000	0.001587	0.001800	28.0839	0.081184	0.002075	39.1173	-141.89	-163.788	0.095939	0.241358	-0.880459	-0.881784	-0.018634	39.1173	-0.880101	-5.471173E+11	3.405884E-14	NaN
522	1.000000	0.252656	7.37016e+06	-50989.1	1005.82	-29753.8	0.000000	0.000000	6.252802	-0.028421	NaN	0.000000	0.001624	0.001803	28.084	0.052638	0.002130	24.7121	39.3398	14.7113	-0.011418	0.251293	-0.870486	-0.871849	-0.028421	24.7121	-0.869624	-3.947784E+11	7.199282E-14	NaN
522	1.000000	0.262702	7.37016e+06	-50989.1	1005.82	-29753.8	0.000000	0.000000	6.262851	0.041730	NaN	0.000000	0.001629	0.001809	28.0842	0.033646	0.002099	16.0261	139.171	-167.573	-0.005836	0.261393	-0.860440	-0.861749	0.041730	16.0261	-0.862393	-3.151440E+11	-1.324153E-13	NaN
522	1.000000	0.272690	7.37016e+06	-50989.1	1005.82	-29753.8	0.000000	0.000000	6.272839	0.038271	NaN	0.000000	0.001602	0.001838	28.0841	0.139475	0.001910	73.0163	40.9718	16.0851	0.055721	0.271329	-0.850452	-0.851813	0.038271	73.0163	-0.850845	-2.198799E+11	-1.740548E-13	NaN
522	1.000000	0.282700	7.37016e+06	-50989.1	1005.82	-29753.8	0.000000	0.000000	6.282847	0.003421	NaN	0.000000	0.001615	0.001817	28.084	0.103525	0.001981	52.2523	148.384	-164.703	0.041458	0.281335	-0.840442	-0.841807	0.003421	52.2523	-0.840491	-1.592025E+11	-2.149010E-14	NaN
522	1.000000	0.292714	7.37016e+06	-50989.1	1005.82	-29753.8	0.000000	0.000000	6.292862	0.012924	NaN	0.000000	0.001614	0.001786	28.0839	0.046872	0.001922	24.3882	117.692	16.398	-0.004429	0.291373	-0.830428	-0.831769	0.012924	24.3882	-0.830826	-1.177542E+11	-1.097570E-13	NaN
522	1.000000	0.302721	7.37016e+06	-50989.1	1005.82	-29753.8	0.000000	0.000000	6.302866	-0.043630	NaN	0.000000	0.001598	0.001821	28.084	0.066456	0.002094	31.7353	120.886	-166.424	-0.028718	0.301426	-0.820422	-0.821716	-0.043630	31.7353	-0.819390	-8.240340E+10	5.294682E-13	NaN
522	1.000000	0.312703	7.37016e+06	-50989.1	1005.82	-29753.8	0.000000	0.000000	6.312847	-0.093060	NaN	0.000000	0.001580	0.001826	28.0826	0.093464	0.002112	44.2552	-112.023	10.5444	-0.036864	0.311376	-0.810439	-0.811766	-0.093060	44.2552	-0.808862	-5.930982E+10	1.569049E-12	NaN
522	1.000000	0.322696	7.37016e+06	-50989.1	1005.82	-29753.8	0.000000	0.000000	6.322841	-0.057799	NaN	0.000000	0.001575	0.001805	28.0826	0.105841	0.002009	52.675	-81.1846	-169.307	-0.117807	0.321421	-0.800446	-0.801721	-0.057799	52.675	-0.799623	-4.443664E+10	1.300714E-12	NaN
522	1.000000	0.332725	7.37016e+06	-50989.1	1005.82	-29753.8	0.000000	0.000000	6.332871	-0.025966	NaN	0.000000	0.001598	0.001845	28.0832	0.068326	0.001973	34.6309	128.888	14.7023	0.009707	0.331384	-0.790417	-0.791758	-0.025966	34.6309	-0.789855	-3.274281E+10	7.930140E-13	NaN
522	1.000000	0.342719	7.37016e+06	-50989.1	1005.82	-29753.8	0.000000	0.000000	6.342865	-0.021979	NaN	0.000000	0.001603	0.001804	28.0828	0.140118	0.001958	71.5477	-138.817	-166.233	-0.091018	0.341406	-0.780423	-0.781736	-0.021979	71.5477	-0.780193	-2.420192E+10	9.081318E-13	NaN
522	1.000000	0.352716	7.37016e+06	-50989.1	1005.82	-29753.8	0.000000	0.000000	6.352863	-0.008535	NaN	0.000000	0.001553	0.001859	28.0826	0.045392	0.002003	22.658	-59.2711	13.9327	0.070264	0.351374	-0.770426	-0.771768	-0.008535	22.658	-0.770144	-1.767100E+10	4.829665E-13	NaN
522	1.000000	0.362731	7.37016e+06	-50989.1	1005.82	-29753.8	0.000000	0.000000	6.362880	0.044862	NaN	0.000000	0.001600	0.001832	28.0827	0.070329	0.002072	33.9387	140.008	-167.402	0.053307	0.361435	-0.760411	-0.761707	0.044862	33.9387	-0.761403	-1.343954E+10	-3.338051E-12	NaN
522	1.000000	0.372758	7.37016e+06	-50989.1	1005.82	-29753.8	0.000000	0.000000	6.372905	-0.006781	NaN	0.000000	0.001645	0.001807	28.0827	0.006260	0.001885	3.320807	122.109	15.1383	-0.080216	0.371378	-0.750384	-0.751764	-0.006781	3.320807	-0.748853	-9.069895E+9	7.476790E-13	NaN
522	1.000000	0.382728	7.37016e+06	-50989.1	1005.82	-29753.8	0.000000	0.000000	6.382876	-0.004396	NaN	0.000000	0.001670	0.001850	28.0826	0.063457	0.001956	32.4478	-144.776	-167.167	0.006986	0.381500	-0.740414	-0.741642	-0.004396	32.4478	-0.740312	-6.939142E+9	6.334921E-13	NaN
522	1.000000	0.392753	7.37016e+06	-50989.1	1005.82	-29753.8	0.000000	0.000000	6.392901	0.016734	NaN	0.000000	0.001651	0.001820	28.0826	0.027659	0.002110	13.1111	-43.7089	14.8097	0.032159	0.391416	-0.730389	-0.731726	0.016734	13.1111	-0.731347	-5.237927E+9	-3.194745E-12	NaN
522	1.000000	0.402777	7.37016e+06	-50989.1	1005.82	-29753.8	0.000000	0.000000	6.402921	-0.088067	NaN	0.000000	0.001569	0.001838	28.0828	0.102657	0.001991	51.5665	113.015	-168.854	-0.087178	0.401426	-0.720365	-0.721716	-0.088067	51.5665	-0.719084	-3.564349E+9	2.470762E-11	NaN
522	1.000000	0.412719	7.37016e+06	-50989.1	1005.82	-29753.8	0.000000	0.000000	6.412864	-0.045437	NaN	0.000000	0.001635	0.001798	28.0828	0.092685	0.001996	46.4249	-162.386	14.1023	-0.008903	0.411419	-0.710423	-0.711724	-0.045437	46.4249	-0.709689	-2.653427E+9	1.712404E-11	NaN
522	1.000000	0.422748	7.37016e+06	-50989.1	1005.82	-29753.8	0.000000	0.000000	6.422896	0.000327	NaN	0.000000	0.001595	0.001773	28.0828	0.032743	0.002023	16.1881	-178.747	-165.459	-0.016522	0.421475	-0.700394	-0.701667	0.000327	16.1881	-0.700409	-1.982045E+9	-1.648312E-13	NaN
522	1.000000	0.432763	7.37016e+06	-50989.1	1005.82	-29753.8	0.000000	0.000000	6.432910	0.002281	NaN	0.000000	0.001558	0.001749	28.0825	0.041874	0.002089	20.0439	-14.3894	13.277	-0.060533	0.431349	-0.690379	-0.691793	0.002281	20.0439	-0.690465	-1.449668E+9	-1.573366E-12	NaN
522	1.000000	0.442778	7.37016e+06	-50989.1	1005.82	-29753.8	0.000000	0.000000	6.442926	0.007356	NaN	0.000000	0.001558	0.001760	28.083	0.063232	0.001900	33.2716	134.48	-166.885	0.077199	0.441487	-0.680364	-0.681655	0.007356	33.2716	-0.680530	-1.060359E+9	-6.937276E-12	NaN
522	1.000000	0.452768	7.37016e+06	-50989.1	1005.82	-29753.8	0.000000	0.000000	6.452915	-0.022292	NaN	0.000000	0.001572	0.001806	28.0839	0.017244	0.001898	9.085529	84.8668	18.736	-0.054265	0.451379	-0.670374	-0.671764	-0.022292	9.085529	-0.668533	-7.266365E+8	3.067880E-11	NaN
522	1.000000	0.462773	7.37016e+06	-50989.1	1005.82	-29753.8	0.000000	0.000000	6.462922	0.023891	NaN	0.000000	0.001599	0.001807	28.0839	0.017605	0.001974	8.917826	-111.941	-165.176	0.006916	0.461501	-0.660369	-0.661641	0.023891	8.917826	-0.662378	-5.984640E+8	-3.991982E-11	NaN
522	1.000000	0.472796	7.37016e+06	-50989.1	1005.82	-29753.8	0.000000	0.000000	6.472944	0.003717	NaN	0.000000	0.001569	0.001824	28.0851	0.094493	0.001962	48.1573	-152.736	15.5088	0.002159	0.471388	-0.650346	-0.651754	0.003717	48.1573	-0.650404	-4.101763E+8	-9.063161E-12	NaN
522	1.000000	0.482802	7.37016e+06	-50989.1	1005.82	-29753.8	0.000000	0.000000	6.482951	0.034343	NaN	0.000000	0.001586	0.001764	28.0841	0.049999	0.002126	23.5176	-175.572	-168.363	0.018835	0.481448	-0.640340	-0.641694	0.034343	23.5176	-0.641435	-3.090155E+8	-1.111371E-10	NaN
522	1.000000	0.492791	7.37016e+06	-50989.1	1005.82	-29753.8	0.000000	0.000000	6.492937	-0.029086	NaN	0.000000	0.001596	0.001803	28.0839	0.034170	0.002006	17.0378	29.6974	14.6079	-0.012147	0.491416	-0.630351	-0.631726	-0.029086	17.0378	-0.629071	-2.090543E+8	1.391298E-10	NaN
522	1.000000	0.502795	7.37016e+06	-50989.1	1005.82	-29753.8	0.000000	0.000000	6.502943	0.014299	NaN	0.000000	0.001597	0.001790	28.0839	0.083296	0.001990	41.8603	-100.622	-163.804	0.005701	0.501456	-0.620348	-0.621686	0.014299	41.8603	-0.620604	-1.599305E+8	-8.940522E-11	NaN
522	1.000000	0.512795	7.37016e+06	-50989.1	1005.82	-29753.8	0.000000	0.000000	6.512943	0.019304	NaN	0.000000	0.001607	0.001817	28.084	0.018302	0.002130	8.591344	-171.378	13.846	-0.002114	0.511469	-0.610347	-0.611673	0.019304	8.591344	-0.612032	-1.219191E+8	-1.583311E-10	NaN
522	1.000000	0.522797	7.37016e+06	-50989.1	1005.82	-29753.8	0.000000	0.000000	6.522942	-0.054244	NaN	0.000000	0.001592	0.001832	28.084	0.046800	0.002023	23.1291	117.379	-168.859	-0.031118	0.521488	-0.600345	-0.601654	-0.054244	23.1291	-0.598586	-7.961344E+7	6.813472E-10	NaN
522	1.000000	0.532815	7.37016e+06	-50989.1	1005.82	-29753.8	0.000000	0.000000	6.532963	0.012959	NaN	0.000000	0.001596	0.001776	28.0839	0.059715	0.001993	29.9671	-60.4416	18.3083	-0.040270	0.531463	-0.590327	-0.591679	0.012959	29.9671	-0.590652	-6.189454E+7	-2.093724E-10	NaN
522	1.000000	0.542789	7.37016e+06	-50989.1	1005.82	-29753.8	0.000000	0.000000	6.542933	-0.076815	NaN	0.000000	0.001634	0.001802	28.0841	0.140919	0.002110	66.799	-90.0732	-167.856	-0.033769	0.541489	-0.580353	-0.581653	-0.076815	66.799	-0.579491	-4.342053E+7	1.769086E-9	NaN
522	1.000000	0.552812	7.37016e+06	-50989.1	1005.82	-29753.8	0.000000	0.000000	6.552957	-0.059326	NaN	0.000000	0.001676	0.001754	28.0843	0.073460	0.002128	34.5211	-136.426	13.4282	-0.035273	0.551518	-0.570330	-0.571624	-0.059326	34.5211	-0.569042	-3.114495E+7	1.904826E-9	NaN
522	1.000000	0.562818	7.37016e+06	-50989.1	1005.82	-29753.8	0.000000	0.000000	6.562965	-0.023665	NaN	0.000000	0.001651	0.001784	28.084	0.059572	0.001887	31.575	-41.187	-161.488	-0.046969	0.561486	-0.560324	-0.561656	-0.023665	31.575	-0.559762	-2.317827E+7	1.021014E-9	NaN
522	1.000000	0.572819	7.37016e+06	-50989.1	1005.82	-29753.8	0.000000	0.000000	6.572968	0.052062	NaN	0.000000	0.001639	0.001799	28.084	0.060126	0.002028	29.6423	-40.802	15.7483	0.032422	0.571508	-0.550323	-0.551634	0.052062	29.6423	-0.551640	-1.789263E+7	-2.909670E-9	NaN
522	1.000000	0.582829	7.37016e+06	-50989.1	1005.82	-29753.8	0.000000	0.000000	6.582978	0.049007	NaN	0.000000	0.001650	0.001803	28.0836	0.084548	0.002023	41.787	-158.917	-165.25	0.035383	0.581509	-0.540313	-0.541633	0.049007	41.787	-0.541193	-1.282025E+7	-3.822594E-9	NaN
522	1.000000	0.592803	7.37016e+06	-50989.1	1005.82	-29753.8	0.000000	0.000000	6.592952	0.044114	NaN	0.000000	0.001658	0.001800	28.0828	0.032563	0.002036	15.9923	148.982	11.542	0.049215	0.591492	-0.530339	-0.531650	0.044114	15.9923	-0.532408	-9.68311e+06	-4.555744E-9	NaN
522	1.000000	0.602797	7.37016e+06	-50989.1	1005.82	-29753.8	0.000000	0.000000	6.602944	0.008742	NaN	0.000000	0.001651	0.001811	28.0825	0.096929	0.001904	50.913	-81.0013	-167.519	0.058349	0.601555	-0.520345	-0.521587	0.008742	50.913	-0.520474	-6.60985e+06	-1.322522E-9	NaN
522	1.000000	0.612839	7.37016e+06	-50989.1	1005.82	-29753.8	0.000000	0.000000	6.612985	-0.038146	NaN	0.000000	0.001639	0.001812	28.0825	0.026820	0.002025	13.2457	71.316	13.2686	-0.098464	0.611471	-0.510303	-0.511671	-0.038146	13.2457	-0.508143	-4.45188e+06	8.568448E-9	NaN
522	1.000000	0.622853	7.37016e+06	-50989.1	1005.82	-29753.8	0.000000	0.000000	6.623000	-0.005472	NaN	0.000000	0.001664	0.001820	28.0826	0.071269	0.002054	34.6934	-102.103	-164.468	0.041593	0.621517	-0.500289	-0.501625	-0.005472	34.6934	-0.500171	-3.44671e+06	1.587617E-9	NaN
522	1.000000	0.632863	7.37016e+06	-50989.1	1005.82	-29753.8	0.000000	0.000000	6.633008	-0.064390	NaN	0.000000	0.001620	0.001834	28.0826	0.065783	0.001936	33.985	-159.873	15.4249	-0.124323	0.631520	-0.490279	-0.491622	-0.064390	33.985	-0.488858	-2.3957e+06	2.687742E-8	NaN
522	1.000000	0.642863	7.37016e+06	-50989.1	1005.82	-29753.8	0.000000	0.000000	6.643007	-0.088822	NaN	0.000000	0.001644	0.001817	28.0825	0.110298	0.002116	52.1321	-129.481	-165.152	0.007438	0.641525	-0.480279	-0.481617	-0.088822	52.1321	-0.479001	-1.74398e+06	5.093053E-8	NaN
522	1.000000	0.652883	7.37016e+06	-50989.1	1005.82	-29753.8	0.000000	0.000000	6.653028	-0.059906	NaN	0.000000	0.001620	0.001801	28.0824	0.024283	0.002086	11.6382	-74.6902	16.0089	-0.129308	0.651503	-0.470259	-0.471639	-0.059906	11.6382	-0.466399	-1.16114e+06	5.159254E-8	NaN
522	1.000000	0.662875	7.37016e+06	-50989.1	1005.82	-29753.8	0.000000	0.000000	6.663019	-0.067074	NaN	0.000000	0.001644	0.001806	28.0833	0.157928	0.002053	76.9386	-63.9666	-166.89	0.010693	0.661562	-0.460267	-0.461581	-0.067074	76.9386	-0.459614	-932366	7.193917E-8	NaN
522	1.000000	0.672854	7.37016e+06	-50989.1	1005.82	-29753.8	0.000000	0.000000	6.672999	-0.067094	NaN	0.000000	0.001642	0.001803	28.0823	0.011166	0.002037	5.481856	92.0163	16.4853	-0.027882	0.671528	-0.450288	-0.451614	-0.067094	5.481856	-0.441109	-511692	1.311210E-7	NaN
522	1.000000	0.682890	7.37016e+06	-50989.1	1005.82	-29753.8	0.000000	0.000000	6.683035	-0.065398	NaN	0.000000	0.001656	0.001783	28.0826	0.100017	0.001978	50.5723	96.8318	-165.968	-0.021048	0.681576	-0.440252	-0.441567	-0.065398	50.5723	-0.439282	-482200	1.356248E-7	NaN
522	1.000000	0.692850	7.37016e+06	-50989.1	1005.82	-29753.8	0.000000	0.000000	6.692999	0.030082	NaN	0.000000	0.001654	0.001786	28.0825	0.075595	0.002046	36.9507	126.789	16.2321	0.059685	0.691554	-0.430292	-0.431588	0.030082	36.9507	-0.430903	-367137	-8.193570E-8	NaN
522	1.000000	0.702869	7.37016e+06	-50989.1	1005.82	-29753.8	0.000000	0.000000	6.703017	0.015354	NaN	0.000000	0.001636	0.001803	28.0827	0.098088	0.002029	48.333	-154.326	-163.5	0.002245	0.701564	-0.420273	-0.421578	0.015354	48.333	-0.420511	-261615	-5.869023E-8	NaN
522	1.000000	0.712873	7.37016e+06	-50989.1	1005.82	-29753.8	0.000000	0.000000	6.713021	0.006469	NaN	0.000000	0.001633	0.001778	28.0825	0.084564	0.001974	42.8416	145.004	9.587386	-0.033679	0.711467	-0.410269	-0.411675	0.006469	42.8416	-0.410382	-187861	-3.443264E-8	NaN
522	1.000000	0.722880	7.37016e+06	-50989.1	1005.82	-29753.8	0.000000	0.000000	6.723029	0.046630	NaN	0.000000	0.001621	0.001771	28.0839	0.105726	0.002012	52.543	5.838357	-166.484	0.023617	0.721547	-0.400262	-0.401595	0.046630	52.543	-0.400928	-137791	-3.384113E-7	NaN
522	1.000000	0.732863	7.37016e+06	-50989.1	1005.82	-29753.8	0.000000	0.000000	6.733010	0.004688	NaN	0.000000	0.001584	0.001749	28.084	0.070889	0.002055	34.4985	-164.873	12.3497	-0.054480	0.731525	-0.390279	-0.391617	0.004688	34.4985	-0.390381	-97414.3	-4.812565E-8	NaN
522	1.000000	0.742886	7.37016e+06	-50989.1	1005.82	-29753.8	0.000000	0.000000	6.743031	-0.063838	NaN	0.000000	0.001558	0.001799	28.0837	0.074865	0.002064	36.2783	-52.428	-166.588	-0.050146	0.741601	-0.380256	-0.381541	-0.063838	36.2783	-0.378936	-66775.4	9.560167E-7	NaN
522	1.000000	0.752890	7.37016e+06	-50989.1	1005.82	-29753.8	0.000000	0.000000	6.753039	0.033043	NaN	0.000000	0.001625	0.001766	28.0836	0.089994	0.002025	44.4451	79.7272	15.1054	0.002785	0.751542	-0.370252	-0.371600	0.033043	44.4451	-0.370810	-51025.6	-6.475857E-7	NaN
522	1.000000	0.762918	7.37016e+06	-50989.1	1005.82	-29753.8	0.000000	0.000000	6.763065	-0.019002	NaN	0.000000	0.001613	0.001747	28.0838	0.037643	0.001940	19.4031	-54.8765	-166.664	-0.072241	0.761539	-0.360224	-0.361603	-0.019002	19.4031	-0.359490	-35032	5.424291E-7	NaN
522	1.000000	0.772906	7.37016e+06	-50989.1	1005.82	-29753.8	0.000000	0.000000	6.773052	-0.037773	NaN	0.000000	0.001621	0.001807	28.084	0.102236	0.001974	51.7868	138.218	17.0455	0.024807	0.771489	-0.350236	-0.351653	-0.037773	51.7868	-0.349689	-25262.9	1.495205E-6	NaN
522	1.000000	0.782931	7.37016e+06	-50989.1	1005.82	-29753.8	0.000000	0.000000	6.783078	-0.010390	NaN	0.000000	0.001563	0.001792	28.0838	0.094502	0.001845	51.2087	-33.1883	-165.138	-0.036042	0.781587	-0.340211	-0.341555	-0.010390	51.2087	-0.340059	-18298.1	5.678390E-7	NaN
522	1.000000	0.792903	7.37016e+06	-50989.1	1005.82	-29753.8	0.000000	0.000000	6.793049	-0.010673	NaN	0.000000	0.001580	0.001795	28.084	0.107731	0.002061	52.2813	7.686421	17.5556	-0.079488	0.791578	-0.330240	-0.331564	-0.010673	52.2813	-0.330086	-13083.3	8.157422E-7	NaN
522	1.000000	0.802911	7.37016e+06	-50989.1	1005.82	-29753.8	0.000000	0.000000	6.803057	-0.032236	NaN	0.000000	0.001553	0.001801	28.0841	0.050559	0.002020	25.0341	-167.894	-163.609	-0.016382	0.801626	-0.320231	-0.321516	-0.032236	25.0341	-0.319265	-9074.48	3.552352E-6	NaN
522	1.000000	0.812906	7.37016e+06	-50989.1	1005.82	-29753.8	0.000000	0.000000	6.813054	0.022781	NaN	0.000000	0.001580	0.001768	28.0841	0.012705	0.001992	6.379335	-95.544	15.2458	0.039463	0.811566	-0.310236	-0.311576	0.022781	6.379335	-0.312914	-7313.95	-3.114797E-6	NaN
522	1.000000	0.822933	7.37016e+06	-50989.1	1005.82	-29753.8	0.000000	0.000000	6.823078	-0.041792	NaN	0.000000	0.001602	0.001822	28.0842	0.075453	0.002000	37.7338	95.217	-162.815	-0.091876	0.821614	-0.300209	-0.301528	-0.041792	37.7338	-0.299379	-4606.63	9.072135E-6	NaN
522	1.000000	0.832950	7.37016e+06	-50989.1	1005.82	-29753.8	0.000000	0.000000	6.833097	0.009911	NaN	0.000000	0.001635	0.001845	28.084	0.098182	0.002240	43.8249	157.407	13.3731	-0.016008	0.831615	-0.290193	-0.291528	0.009911	43.8249	-0.290362	-3378.52	-2.933400E-6	NaN
522	1.000000	0.842912	7.37016e+06	-50989.1	1005.82	-29753.8	0.000000	0.000000	6.843059	0.008365	NaN	0.000000	0.001627	0.001792	28.0845	0.076831	0.001917	40.0749	-70.1702	-166.772	-0.018910	0.841600	-0.280231	-0.281542	0.008365	40.0749	-0.280387	-2392.26	-3.496513E-6	NaN
522	1.000000	0.852929	7.37016e+06	-50989.1	1005.82	-29753.8	0.000000	0.000000	6.853076	-0.001436	NaN	0.000000	0.001635	0.001776	28.0841	0.037505	0.001884	19.9041	-10.943	14.2925	0.005322	0.851604	-0.270213	-0.271538	-0.001436	19.9041	-0.270159	-1674.8	8.573132E-7	NaN
522	1.000000	0.862931	7.37016e+06	-50989.1	1005.82	-29753.8	0.000000	0.000000	6.863079	-0.004678	NaN	0.000000	0.001614	0.001771	28.083	0.033370	0.002007	16.6241	-152.001	-162.783	-0.070736	0.861610	-0.260211	-0.261532	-0.004678	16.6241	-0.260000	-1171.95	3.991382E-6	NaN
522	1.000000	0.872993	7.37016e+06	-50989.1	1005.82	-29753.8	0.000000	0.000000	6.873141	0.005631	NaN	0.000000	0.001641	0.001788	28.0828	0.059584	0.001886	31.5986	120.349	16.1141	0.021440	0.871564	-0.250149	-0.251578	0.005631	31.5986	-0.250282	-830.49	-6.780442E-6	NaN
522	1.000000	0.882934	7.37016e+06	-50989.1	1005.82	-29753.8	0.000000	0.000000	6.883083	0.031026	NaN	0.000000	0.001656	0.001840	28.0832	0.117966	0.001927	61.2219	-144.067	-163.39	-0.029620	0.881685	-0.240208	-0.241458	0.031026	61.2219	-0.240588	-587.132	-5.284327E-5	NaN
522	1.000000	0.892938	7.37016e+06	-50989.1	1005.82	-29753.8	0.000000	0.000000	6.893083	-0.047087	NaN	0.000000	0.001620	0.001823	28.0828	0.119591	0.002154	55.5109	151.577	12.1058	-0.043893	0.891663	-0.230204	-0.231479	-0.047087	55.5109	-0.229568	-394.183	0.000119	NaN
522	1.000000	0.902973	7.37016e+06	-50989.1	1005.82	-29753.8	0.000000	0.000000	6.903118	-0.055325	NaN	0.000000	0.001624	0.001814	28.0827	0.024158	0.002058	11.7364	8.985710	-168.432	-0.086764	0.901669	-0.220169	-0.221474	-0.055325	11.7364	-0.216633	-245.334	0.000226	NaN
522	1.000000	0.912953	7.37016e+06	-50989.1	1005.82	-29753.8	0.000000	0.000000	6.913100	-0.005280	NaN	0.000000	0.001622	0.001844	28.0827	0.072236	0.002047	35.2954	-85.4805	13.4352	-0.034831	0.911611	-0.210189	-0.211531	-0.005280	35.2954	-0.210077	-192.337	2.745264E-5	NaN
522	1.000000	0.922974	7.37016e+06	-50989.1	1005.82	-29753.8	0.000000	0.000000	6.923121	0.002836	NaN	0.000000	0.001631	0.001839	28.0826	0.073775	0.002041	36.1426	-27.759	-163.404	-0.057370	0.921629	-0.200168	-0.201513	0.002836	36.1426	-0.200227	-132.872	-2.134209E-5	NaN
522	1.000000	0.932941	7.37016e+06	-50989.1	1005.82	-29753.8	0.000000	0.000000	6.933090	0.023703	NaN	0.000000	0.001615	0.001834	28.0825	0.119376	0.001962	60.8547	131.264	13.1279	0.118394	0.931565	-0.190201	-0.191577	0.023703	60.8547	-0.190493	-91.6765	-0.000259	NaN
522	1.000000	0.942975	7.37016e+06	-50989.1	1005.82	-29753.8	0.000000	0.000000	6.943121	-0.031595	NaN	0.000000	0.001689	0.001816	28.0827	0.058766	0.001971	29.8221	142.908	-163.566	-0.022076	0.941649	-0.180167	-0.181493	-0.031595	29.8221	-0.179372	-59.536	0.000531	NaN
522	1.000000	0.952984	7.37016e+06	-50989.1	1005.82	-29753.8	0.000000	0.000000	6.953132	0.014568	NaN	0.000000	0.001718	0.001783	28.0829	0.106088	0.001985	53.4475	-72.8178	14.2986	-0.009963	0.951624	-0.170158	-0.171518	0.014568	53.4475	-0.170363	-41.6783	-0.000350	NaN
522	1.000000	0.962957	7.37016e+06	-50989.1	1005.82	-29753.8	0.000000	0.000000	6.963103	-0.051561	NaN	0.000000	0.001693	0.001813	28.0827	0.033857	0.001884	17.9745	-2.025049	-164.315	0.040511	0.961687	-0.160185	-0.161455	-0.051561	17.9745	-0.158033	-25.2902	0.002039	NaN
522	1.000000	0.972968	7.37016e+06	-50989.1	1005.82	-29753.8	0.000000	0.000000	6.973115	-0.011050	NaN	0.000000	0.001705	0.001852	28.0827	0.150529	0.002026	74.2824	-127.342	13.9081	-0.110365	0.971644	-0.150174	-0.151498	-0.011050	74.2824	-0.150063	-18.1615	0.000608	NaN
522	1.000000	0.983018	7.37016e+06	-50989.1	1005.82	-29753.8	0.000000	0.000000	6.983163	-0.070922	NaN	0.000000	0.001674	0.001829	28.0828	0.050480	0.002064	24.4592	-161.041	-166.68	-0.141928	0.981625	-0.140124	-0.141517	-0.070922	24.4592	-0.137949	-10.8221	0.006553	NaN
522	1.000000	0.993012	7.37016e+06	-50989.1	1005.82	-29753.8	0.000000	0.000000	6.993160	0.000989	NaN	0.000000	0.001653	0.001856	28.0834	0.085387	0.001990	42.8983	-19.5741	13.5891	0.011006	0.991606	-0.130130	-0.131536	0.000989	42.8983	-0.130147	-7.671317	-0.000129	NaN
522	1.000000	1.002992	7.37016e+06	-50989.1	1005.82	-29753.8	0.000000	0.000000	7.003139	-0.002063	NaN	0.000000	0.001626	0.001815	28.0843	0.106257	0.001985	53.52	163.047	-166.92	0.033377	1.001650	-0.120150	-0.121492	-0.002063	53.52	-0.120121	-4.858804	0.000425	NaN
522	1.000000	1.013002	7.37016e+06	-50989.1	1005.82	-29753.8	0.000000	0.000000	7.013149	-0.017000	NaN	0.000000	0.001693	0.001803	28.0842	0.146261	0.002025	72.2177	-134.387	14.491	-0.027479	1.011627	-0.110140	-0.111515	-0.017000	72.2177	-0.109963	-2.999835	0.005667	NaN
522	1.000000	1.023018	7.37016e+06	-50989.1	1005.82	-29753.8	0.000000	0.000000	7.023164	-0.018510	NaN	0.000000	0.001688	0.001830	28.0843	0.027590	0.001937	14.2465	-86.6591	-164.773	-0.031434	1.021719	-0.100124	-0.101423	-0.018510	14.2465	-0.099150	-1.749393	0.010581	NaN
522	1.000000	1.033013	7.37016e+06	-50989.1	1005.82	-29753.8	0.000000	0.000000	7.033162	0.044141	NaN	0.000000	0.001678	0.001817	28.084	0.082639	0.001885	43.8382	56.1045	16.369	0.100852	1.031713	-0.090129	-0.091429	0.044141	43.8382	-0.090884	-1.133728	-0.038935	NaN
522	1.000000	1.042980	7.37016e+06	-50989.1	1005.82	-29753.8	0.000000	0.000000	7.043129	0.054705	NaN	0.000000	0.001698	0.001832	28.0839	0.070040	0.002162	32.4023	-5.926058	-165.288	-0.004274	1.041683	-0.080162	-0.081459	0.054705	32.4023	-0.081429	-0.671801	-0.081431	NaN
522	1.000000	1.052999	7.37016e+06	-50989.1	1005.82	-29753.8	0.000000	0.000000	7.053144	-0.053743	NaN	0.000000	0.001699	0.001839	28.0841	0.076921	0.002087	36.8608	55.0068	16.0788	-0.012596	1.051692	-0.070144	-0.071450	-0.053743	36.8608	-0.069050	-0.321631	0.167096	NaN
522	1.000000	1.063036	7.37016e+06	-50989.1	1005.82	-29753.8	0.000000	0.000000	7.063186	0.064540	NaN	0.000000	0.001681	0.001801	28.0839	0.012901	0.002004	6.436705	-50.9211	-165.535	-0.006848	1.061720	-0.060106	-0.061422	0.064540	6.436705	-0.067627	-0.294292	-0.219307	NaN
522	1.000000	1.073026	7.37016e+06	-50989.1	1005.82	-29753.8	0.000000	0.000000	7.073174	0.006247	NaN	0.000000	0.001611	0.001827	28.084	0.041173	0.002066	19.9303	-39.038	10.3321	-0.027890	1.071709	-0.050116	-0.051433	0.006247	19.9303	-0.050351	-0.093508	-0.066803	NaN
522	1.000000	1.082990	7.37016e+06	-50989.1	1005.82	-29753.8	0.000000	0.000000	7.083139	0.035519	NaN	0.000000	0.001609	0.001837	28.0838	0.049031	0.001896	25.8648	-176.166	-166.633	0.057140	1.081760	-0.040152	-0.041382	0.035519	25.8648	-0.041182	-0.049128	-0.722985	NaN
522	1.000000	1.093030	7.37016e+06	-50989.1	1005.82	-29753.8	0.000000	0.000000	7.093176	-0.047163	NaN	0.000000	0.001560	0.001815	28.0841	0.032906	0.001892	17.3953	-151.488	12.6087	-0.045987	1.091611	-0.030112	-0.031531	-0.047163	17.3953	-0.028079	-0.020375	2.314731	NaN
522	1.000000	1.103025	7.37016e+06	-50989.1	1005.82	-29753.8	0.000000	0.000000	7.103169	-0.074802	NaN	0.000000	0.001588	0.001845	28.0834	0.049927	0.002023	24.6856	-58.8969	-161.791	-0.029586	1.101723	-0.020117	-0.021419	-0.074802	24.6856	-0.017844	-0.011059	6.763689	NaN
522	1.000000	1.113043	7.37016e+06	-50989.1	1005.82	-29753.8	0.000000	0.000000	7.113188	-0.043376	NaN	0.000000	0.001579	0.001845	28.0839	0.045424	0.002010	22.6006	-164.033	14.4304	0.034336	1.111675	-0.010099	-0.011467	-0.043376	22.6006	-0.008660	-0.005616	7.723349	NaN
522	1.000000	1.123032	7.37016e+06	-50989.1	1005.82	-29753.8	0.000000	0.000000	7.123278	2.406514	NaN	0.000000	0.001571	0.001861	28.0838	3.389409	0.001799	1883.88	10.0266	-168.243	1.225183	1.121681	-0.000110	-0.001461	2.406514	1883.88	-0.001068	-0.000782	-3076.76	NaN
522	2.000000	1.130091	7.37016e+06	-50989.1	1005.82	-29753.8	0.000000	0.000000	7.130684	10.846	NaN	0.000000	0.001583	0.001831	28.0838	9.978143	0.001611	6195.04	6.649667	6.983888	10.0705	1.129716	0.006949	0.006573	10.846	6195.04	0.005636	0.004721	2297.41	82376.1
522	2.000000	1.132576	7.37016e+06	-50989.1	1005.82	-29753.8	0.000000	0.000000	7.133258	12.9932	NaN	0.000000	0.001580	0.001814	28.0826	11.8677	0.001675	7085.89	6.259244	-173.346	12.9361	1.132268	0.009434	0.009126	12.9932	7085.89	0.008059	0.007103	1829.23	76814.6
522	2.000000	1.135035	7.37016e+06	-50989.1	1005.82	-29753.8	0.000000	0.000000	7.135860	16.4767	NaN	0.000000	0.001602	0.001848	28.0825	14.527	0.001676	8668	3.063821	7.914971	15.4682	1.134769	0.011893	0.011627	16.4767	8668	0.010468	0.009706	1697.62	80385.4
522	2.000000	1.137528	7.37016e+06	-50989.1	1005.82	-29753.8	0.000000	0.000000	7.138558	21.4481	NaN	0.000000	0.001590	0.001845	28.0824	17.738	0.001812	9788.16	6.145295	-174.536	21.6853	1.137178	0.014386	0.014036	21.4481	9788.16	0.012743	0.012392	1730.82	80335.3
522	2.000000	1.140002	7.37016e+06	-50989.1	1005.82	-29753.8	0.000000	0.000000	7.141297	27.8904	NaN	0.000000	0.001623	0.001847	28.0829	19.7726	0.001852	10675.6	6.648565	4.713385	26.2858	1.139621	0.016860	0.016479	27.8904	10675.6	0.014901	0.015153	1840.55	79233.9
522	2.000000	1.142512	7.37016e+06	-50989.1	1005.82	-29753.8	0.000000	0.000000	7.143944	31.2337	NaN	0.000000	0.001639	0.001851	28.0825	21.9024	0.001719	12740.2	2.618944	-175.561	30.3826	1.142141	0.019370	0.018999	31.2337	12740.2	0.017532	0.018811	1660.38	84867.8
522	2.000000	1.145015	7.37016e+06	-50989.1	1005.82	-29753.8	0.000000	0.000000	7.146657	36.3451	NaN	0.000000	0.001603	0.001830	28.0826	24.5102	0.001733	14146.2	7.377720	1.181493	37.528	1.144619	0.021873	0.021477	36.3451	14146.2	0.019946	0.022458	1618.35	86243.6
522	2.000000	1.147434	7.37016e+06	-50989.1	1005.82	-29753.8	0.000000	0.000000	7.149435	45.079	NaN	0.000000	0.001617	0.001821	28.0826	26.5636	0.001729	15367.3	2.914966	-176.716	42.9227	1.147175	0.024292	0.024033	45.079	15367.3	0.022092	0.025937	1738.04	87179.4
522	2.000000	1.149990	7.37016e+06	-50989.1	1005.82	-29753.8	0.000000	0.000000	7.152242	51.1978	NaN	0.000000	0.001620	0.001840	28.0825	29.0192	0.001919	15119.2	3.467875	5.006076	48.8932	1.149647	0.026848	0.026505	51.1978	15119.2	0.024308	0.029769	1719.86	80061.6
522	2.000000	1.152484	7.37016e+06	-50989.1	1005.82	-29753.8	0.000000	0.000000	7.154968	56.8303	NaN	0.000000	0.001628	0.001846	28.0827	32.0206	0.001787	17923.2	6.644119	178.775	55.7549	1.152206	0.029342	0.029064	56.8303	17923.2	0.026964	0.034685	1638.47	87926.2
522	2.000000	1.154971	7.37016e+06	-50989.1	1005.82	-29753.8	0.000000	0.000000	7.157907	67.8034	NaN	0.000000	0.001586	0.001841	28.0826	33.8056	0.001853	18241.3	6.701115	-1.231770	66.0118	1.154594	0.031829	0.031452	67.8034	18241.3	0.029041	0.038780	1748.43	84630.4
522	2.000000	1.157472	7.37016e+06	-50989.1	1005.82	-29753.8	0.000000	0.000000	7.160635	73.3425	NaN	0.000000	0.001582	0.001835	28.0828	36.2303	0.001813	19979.4	7.075488	178.582	72.7378	1.157185	0.034330	0.034043	73.3425	19979.4	0.031576	0.044074	1664.06	86948.5
522	2.000000	1.160024	7.37016e+06	-50989.1	1005.82	-29753.8	0.000000	0.000000	7.163629	84.0834	NaN	0.000000	0.001575	0.001848	28.0827	38.1459	0.001733	22012.1	7.414871	-3.180169	83.9763	1.159598	0.036882	0.036456	84.0834	22012.1	0.034017	0.049482	1699.28	90409.1
522	2.000000	1.162463	7.37016e+06	-50989.1	1005.82	-29753.8	0.000000	0.000000	7.166407	92.3145	NaN	0.000000	0.001628	0.001841	28.0826	40.7333	0.001739	23420.2	8.178856	175.325	91.7516	1.162135	0.039321	0.038993	92.3145	23420.2	0.036365	0.054972	1679.3	91262.7
522	2.000000	1.164911	7.37016e+06	-50989.1	1005.82	-29753.8	0.000000	0.000000	7.169278	102.59	NaN	0.000000	0.001614	0.001799	28.0841	44.3582	0.001757	25242.9	3.455864	-1.445842	98.6634	1.164587	0.041769	0.041445	102.59	25242.9	0.038721	0.060765	1688.31	93559
522	2.000000	1.167356	7.37016e+06	-50989.1	1005.82	-29753.8	0.000000	0.000000	7.172153	113.044	NaN	0.000000	0.001620	0.001823	28.0847	47.217	0.001865	25319.8	3.521058	178.325	109.199	1.167178	0.044214	0.044036	113.044	25319.8	0.040866	0.066285	1705.42	89851.4
522	2.000000	1.169923	7.37016e+06	-50989.1	1005.82	-29753.8	0.000000	0.000000	7.175056	121.246	NaN	0.000000	0.001638	0.001827	28.0838	48.8878	0.001820	26861	2.922190	-1.103783	118.365	1.169686	0.046781	0.046544	121.246	26861	0.043395	0.073097	1658.7	90770.3
522	2.000000	1.172444	7.37016e+06	-50989.1	1005.82	-29753.8	0.000000	0.000000	7.178082	133.511	NaN	0.000000	0.001621	0.001840	28.084	50.6375	0.001813	27928.7	2.616385	179.373	132.47	1.172146	0.049302	0.049004	133.511	27928.7	0.045717	0.079636	1676.52	90421
522	2.000000	1.174995	7.37016e+06	-50989.1	1005.82	-29753.8	0.000000	0.000000	7.181135	145.709	NaN	0.000000	0.001629	0.001852	28.0838	52.8082	0.001815	29088.5	4.877256	-2.994543	147.475	1.174544	0.051853	0.051402	145.709	29088.5	0.048096	0.086620	1682.16	90299.4
522	2.000000	1.177460	7.37016e+06	-50989.1	1005.82	-29753.8	0.000000	0.000000	7.184096	157.794	NaN	0.000000	0.001595	0.001847	28.0837	55.7396	0.001843	30249.5	5.471062	176.546	158.329	1.177086	0.054318	0.053944	157.794	30249.5	0.050405	0.093670	1684.58	90300.9
522	2.000000	1.179957	7.37016e+06	-50989.1	1005.82	-29753.8	0.000000	0.000000	7.187203	172.599	NaN	0.000000	0.001642	0.001843	28.0833	58.4973	0.001868	31323.1	10.8403	-9.702584	171.908	1.179518	0.056815	0.056376	172.599	31323.1	0.052683	0.100885	1710.84	90100
522	2.000000	1.182384	7.37016e+06	-50989.1	1005.82	-29753.8	0.000000	0.000000	7.190134	184.879	NaN	0.000000	0.001635	0.001830	28.0832	58.9538	0.001821	32367.2	5.142155	175.357	182.863	1.182055	0.059242	0.058913	184.879	32367.2	0.054958	0.108351	1706.3	89838.5
522	2.000000	1.184920	7.37016e+06	-50989.1	1005.82	-29753.8	0.000000	0.000000	7.193320	200.664	NaN	0.000000	0.001670	0.001830	28.0836	61.3302	0.001717	35710.4	4.476063	-4.650942	200.213	1.184525	0.061778	0.061383	200.664	35710.4	0.057564	0.117218	1711.89	95295.2
522	2.000000	1.187373	7.37016e+06	-50989.1	1005.82	-29753.8	0.000000	0.000000	7.196272	212.834	NaN	0.000000	0.001589	0.001845	28.0836	64.4991	0.001875	34405.1	2.456760	177.5	209.014	1.187126	0.064231	0.063984	212.834	34405.1	0.059591	0.124346	1711.63	89141.7
522	2.000000	1.189995	7.37016e+06	-50989.1	1005.82	-29753.8	0.000000	0.000000	7.199387	224.794	NaN	0.000000	0.001648	0.001828	28.0833	66.7167	0.001737	38402.9	3.790433	-4.625710	224.965	1.189700	0.066853	0.066558	224.794	38402.9	0.062463	0.134789	1667.75	95567.5
522	2.000000	1.192443	7.37016e+06	-50989.1	1005.82	-29753.8	0.000000	0.000000	7.202295	235.999	NaN	0.000000	0.001600	0.001848	28.0835	68.7872	0.001734	39658.3	3.812734	175.368	238.23	1.192177	0.069301	0.069035	235.999	39658.3	0.064838	0.143724	1642.03	95574.4
522	2.000000	1.194878	7.37016e+06	-50989.1	1005.82	-29753.8	0.000000	0.000000	7.205607	257.317	NaN	0.000000	0.001626	0.001862	28.0837	71.7309	0.001811	39610.8	4.123404	-5.445862	253.43	1.194583	0.071736	0.071441	257.317	39610.8	0.066864	0.151565	1697.74	92958.2
522	2.000000	1.197339	7.37016e+06	-50989.1	1005.82	-29753.8	0.000000	0.000000	7.208326	263.584	NaN	0.000000	0.001625	0.001859	28.0826	74.3065	0.001856	40027.9	2.682565	176.067	259.81	1.197070	0.074197	0.073928	263.584	40027.9	0.069258	0.161084	1636.31	91119.2
522	2.000000	1.199935	7.37016e+06	-50989.1	1005.82	-29753.8	0.000000	0.000000	7.211702	282.541	NaN	0.000000	0.001614	0.001854	28.0821	76.1003	0.001779	42765.2	3.332503	-4.306499	280.776	1.199500	0.076793	0.076358	282.541	42765.2	0.071838	0.171645	1646.08	94307.8
522	2.000000	1.202481	7.37016e+06	-50989.1	1005.82	-29753.8	0.000000	0.000000	7.214999	300.805	NaN	0.000000	0.001621	0.001859	28.0824	78.3521	0.001876	41768.8	9.307707	170.543	303.647	1.201998	0.079339	0.078856	300.805	41768.8	0.073938	0.180474	1666.75	89829.1
522	2.000000	1.204835	7.37016e+06	-50989.1	1005.82	-29753.8	0.000000	0.000000	7.218046	317.657	NaN	0.000000	0.001614	0.001838	28.0823	80.4975	0.001812	44417.4	4.711445	-6.402249	311.774	1.204553	0.081693	0.081411	317.657	44417.4	0.076329	0.190784	1665.01	92908.6
522	2.000000	1.207407	7.37016e+06	-50989.1	1005.82	-29753.8	0.000000	0.000000	7.221216	332.223	NaN	0.000000	0.001649	0.001835	28.0826	83.2367	0.001812	45937.6	3.799822	174.294	330.845	1.207153	0.084265	0.084011	332.223	45937.6	0.078841	0.201898	1645.5	93406.1
522	2.000000	1.209947	7.37016e+06	-50989.1	1005.82	-29753.8	0.000000	0.000000	7.224541	351.301	NaN	0.000000	0.001625	0.001839	28.0823	85.5649	0.001894	45168.8	7.835781	-9.559851	350.736	1.209456	0.086805	0.086314	351.301	45168.8	0.080972	0.211563	1660.5	89720.6
522	2.000000	1.212347	7.37016e+06	-50989.1	1005.82	-29753.8	0.000000	0.000000	7.227666	368.933	NaN	0.000000	0.001636	0.001844	28.0828	87.49	0.001866	46875.3	7.440352	170.004	365.564	1.212094	0.089205	0.088952	368.933	46875.3	0.083302	0.222368	1659.11	90820
522	2.000000	1.214810	7.37016e+06	-50989.1	1005.82	-29753.8	0.000000	0.000000	7.230896	387.577	NaN	0.000000	0.001628	0.001874	28.0821	89.7925	0.001804	49774.3	6.209669	-8.952464	380.841	1.214554	0.091668	0.091412	387.577	49774.3	0.085828	0.234369	1653.7	93935.2
522	2.000000	1.217382	7.37016e+06	-50989.1	1005.82	-29753.8	0.000000	0.000000	7.234065	402.094	NaN	0.000000	0.001668	0.001839	28.0827	92.4197	0.001792	51566.2	4.237460	172.51	400.197	1.217118	0.094240	0.093976	402.094	51566.2	0.088392	0.246848	1628.91	94825
522	2.000000	1.219879	7.37016e+06	-50989.1	1005.82	-29753.8	0.000000	0.000000	7.237697	429.698	NaN	0.000000	0.001615	0.001834	28.0822	94.4325	0.001804	52344	5.406168	-8.055531	425.777	1.219466	0.096737	0.096324	429.698	52344	0.090581	0.257740	1667.18	94199.7
522	2.000000	1.222518	7.37016e+06	-50989.1	1005.82	-29753.8	0.000000	0.000000	7.240647	437.267	NaN	0.000000	0.001616	0.001856	28.0827	96.6325	0.001738	55598.5	6.082236	170.87	444.509	1.222042	0.099376	0.098900	437.267	55598.5	0.093477	0.272494	1604.68	97310.1
522	2.000000	1.224777	7.37016e+06	-50989.1	1005.82	-29753.8	0.000000	0.000000	7.243767	458.186	NaN	0.000000	0.001658	0.001871	28.0821	99.8498	0.001794	55652.3	4.101595	-7.439810	449.77	1.224466	0.101635	0.101324	458.186	55652.3	0.095461	0.282817	1620.08	95610
522	2.000000	1.227275	7.37016e+06	-50989.1	1005.82	-29753.8	0.000000	0.000000	7.247052	477.339	NaN	0.000000	0.001618	0.001899	28.0825	102.155	0.001695	60263.1	3.616380	172.439	471.452	1.227142	0.104133	0.104000	477.339	60263.1	0.098192	0.297328	1605.43	100973