File: remote_trans/data/nanoindenter/0828-1/data/Data_2025-08-06,11h17m57s/2025-07-22_16-23-58_1_1084.txt
2025-07-22, 16:23:58, 1
Index	Phase	Displacement	Time	Pos X	Pos Y	Pos Z	Rot A	Rot B	Piezo Z	Force A	Force B	Gripper	Voltage A	Voltage B	Temperature	Amplitude force	Amplitude pos	Stiffness	Phase shift	Phase excitation	Force A raw	Displacement raw	HMax	HMax raw	Real Force	Real Stiffness	Contact Depth	Area	Hardness	Reduced Mod.
[#]	[#]	[um]	[s]	[um]	[um]	[um]	[m°]	[m°]	[um]	[uN]	[uN]	[V]	[V]	[V]	[°C]	[uN]	[um]	[N/m]	[°]	[°]	[uN]	[um]	[um]	[um]	[uN]	[N/m]	[um]	[um^2]	[MPa]	[MPa]
1084	1.000000	0.002642	7.37566e+06	-54339.1	1055.82	-29743.7	0.000000	0.000000	6.002776	-0.048309	NaN	0.000000	0.001584	0.001703	28.0837	0.052466	0.000920	57.0423	-70.5192	-166.103	-0.035317	0.001382	-1.096499	-1.097759	-0.048309	57.0423	-1.095863	-4.410996E+14	1.095192E-16	NaN
1084	1.000000	0.012732	7.37566e+06	-54339.1	1055.82	-29743.7	0.000000	0.000000	6.012869	0.005597	NaN	0.000000	0.001568	0.001734	28.0835	0.006134	0.001192	5.144285	-84.6126	20.8733	-0.004213	0.011289	-1.086408	-1.087852	0.005597	5.144285	-1.087224	-3.377087E+14	-1.657461E-17	NaN
1084	1.000000	0.022590	7.37566e+06	-54339.1	1055.82	-29743.7	0.000000	0.000000	6.022724	-0.077812	NaN	0.000000	0.001572	0.001710	28.0841	0.102417	0.001716	59.6885	-62.7795	-164.22	-0.002662	0.021298	-1.076550	-1.077843	-0.077812	59.6885	-1.075572	-2.355309E+14	3.303703E-16	NaN
1084	1.000000	0.032596	7.37566e+06	-54339.1	1055.82	-29743.7	0.000000	0.000000	6.032730	-0.065370	NaN	0.000000	0.001548	0.001691	28.0835	0.048852	0.001880	25.9865	-111.114	12.4617	-0.057047	0.031237	-1.066544	-1.067904	-0.065370	25.9865	-1.064658	-1.680383E+14	3.890193E-16	NaN
1084	1.000000	0.042611	7.37566e+06	-54339.1	1055.82	-29743.7	0.000000	0.000000	6.042748	0.021191	NaN	0.000000	0.001571	0.001670	28.0839	0.023214	0.001980	11.7232	123.171	-166.97	-0.001542	0.041350	-1.056530	-1.057790	0.021191	11.7232	-1.057886	-1.362720E+14	-1.555087E-16	NaN
1084	1.000000	0.052605	7.37566e+06	-54339.1	1055.82	-29743.7	0.000000	0.000000	6.052741	0.000200	NaN	0.000000	0.001560	0.001712	28.0838	0.061751	0.001988	31.0581	126.945	16.6123	-0.032923	0.051244	-1.046536	-1.047896	0.000200	31.0581	-1.046541	-9.592008E+13	-2.086889E-18	NaN
1084	1.000000	0.062609	7.37566e+06	-54339.1	1055.82	-29743.7	0.000000	0.000000	6.062746	0.028879	NaN	0.000000	0.001582	0.001703	28.0838	0.051659	0.001941	26.6092	176.969	-165.273	0.085398	0.061346	-1.036532	-1.037794	0.028879	26.6092	-1.037345	-7.215590E+13	-4.002255E-16	NaN
1084	1.000000	0.072642	7.37566e+06	-54339.1	1055.82	-29743.7	0.000000	0.000000	6.072776	-0.058025	NaN	0.000000	0.001578	0.001717	28.0836	0.107746	0.002002	53.8218	117.713	14.2989	-0.048199	0.071308	-1.026499	-1.027833	-0.058025	53.8218	-1.025690	-5.029302E+13	1.153740E-15	NaN
1084	1.000000	0.082624	7.37566e+06	-54339.1	1055.82	-29743.7	0.000000	0.000000	6.082759	-0.020245	NaN	0.000000	0.001572	0.001722	28.0837	0.067746	0.002088	32.4392	-77.9382	-161.331	-0.013289	0.081315	-1.016517	-1.017826	-0.020245	32.4392	-1.016049	-3.730682E+13	5.426583E-16	NaN
1084	1.000000	0.092625	7.37566e+06	-54339.1	1055.82	-29743.7	0.000000	0.000000	6.092761	-0.004036	NaN	0.000000	0.001635	0.001715	28.0835	0.032304	0.001989	16.2422	-110.597	17.1057	-0.032843	0.091238	-1.006515	-1.007902	-0.004036	16.2422	-1.006329	-2.760402E+13	1.461951E-16	NaN
1084	1.000000	0.102655	7.37566e+06	-54339.1	1055.82	-29743.7	0.000000	0.000000	6.102792	0.020929	NaN	0.000000	0.001660	0.001713	28.0836	0.047722	0.002002	23.8401	-125.895	-163.211	-0.021894	0.101299	-0.996485	-0.997841	0.020929	23.8401	-0.997144	-2.076411E+13	-1.007949E-15	NaN
1084	1.000000	0.112641	7.37566e+06	-54339.1	1055.82	-29743.7	0.000000	0.000000	6.112775	-0.040327	NaN	0.000000	0.001660	0.001726	28.0822	0.022192	0.002030	10.9326	-113.044	14.7758	-0.018728	0.111253	-0.986500	-0.987888	-0.040327	10.9326	-0.983733	-1.369949E+13	2.943722E-15	NaN
1084	1.000000	0.122658	7.37566e+06	-54339.1	1055.82	-29743.7	0.000000	0.000000	6.122795	0.001031	NaN	0.000000	0.001604	0.001691	28.0823	0.067609	0.002004	33.7387	128.087	-163.201	-0.037080	0.121309	-0.976482	-0.977832	0.001031	33.7387	-0.976505	-1.094768E+13	-9.421703E-17	NaN
1084	1.000000	0.132650	7.37566e+06	-54339.1	1055.82	-29743.7	0.000000	0.000000	6.132786	-0.017065	NaN	0.000000	0.001614	0.001718	28.0824	0.026759	0.001940	13.7927	-48.4466	14.3656	-0.023506	0.131274	-0.966490	-0.967866	-0.017065	13.7927	-0.965562	-7.795640E+12	2.188981E-15	NaN
1084	1.000000	0.142637	7.37566e+06	-54339.1	1055.82	-29743.7	0.000000	0.000000	6.142771	-0.056884	NaN	0.000000	0.001547	0.001738	28.0824	0.104039	0.002029	51.2843	129.86	-166.56	0.001809	0.141311	-0.956504	-0.957830	-0.056884	51.2843	-0.955672	-5.734774E+12	9.919157E-15	NaN
1084	1.000000	0.152654	7.37566e+06	-54339.1	1055.82	-29743.7	0.000000	0.000000	6.152790	0.001881	NaN	0.000000	0.001592	0.001684	28.0826	0.129709	0.001978	65.5747	53.844	15.5072	-0.009425	0.151289	-0.946486	-0.947851	0.001881	65.5747	-0.946508	-4.314487E+12	-4.360567E-16	NaN
1084	1.000000	0.162661	7.37566e+06	-54339.1	1055.82	-29743.7	0.000000	0.000000	6.162795	-0.053693	NaN	0.000000	0.001561	0.001694	28.0825	0.065277	0.001938	33.6741	-154.981	-162.168	-0.015406	0.161362	-0.936480	-0.937778	-0.053693	33.6741	-0.935284	-3.044407E+12	1.763669E-14	NaN
1084	1.000000	0.172680	7.37566e+06	-54339.1	1055.82	-29743.7	0.000000	0.000000	6.172818	0.044982	NaN	0.000000	0.001578	0.001696	28.0824	0.036585	0.002078	17.6016	-35.9008	11.0592	0.028222	0.171267	-0.926461	-0.927873	0.044982	17.6016	-0.928377	-2.456394E+12	-1.831221E-14	NaN
1084	1.000000	0.182702	7.37566e+06	-54339.1	1055.82	-29743.7	0.000000	0.000000	6.182832	-0.173520	NaN	0.000000	0.001603	0.001674	28.0825	0.058862	0.002058	28.5985	-155.046	-159.632	-0.108242	0.181364	-0.916438	-0.917777	-0.173520	28.5985	-0.911888	-1.471153E+12	1.179484E-13	NaN
1084	1.000000	0.192643	7.37566e+06	-54339.1	1055.82	-29743.7	0.000000	0.000000	6.192777	-0.054678	NaN	0.000000	0.001548	0.001690	28.0826	0.041635	0.002039	20.4208	82.3594	15.8041	-0.037154	0.191288	-0.906498	-0.907853	-0.054678	20.4208	-0.904490	-1.168769E+12	4.678280E-14	NaN
1084	1.000000	0.202668	7.37566e+06	-54339.1	1055.82	-29743.7	0.000000	0.000000	6.202804	-0.006791	NaN	0.000000	0.001554	0.001701	28.0824	0.077215	0.002130	36.2583	47.9293	-162.173	-0.015307	0.201380	-0.896473	-0.897761	-0.006791	36.2583	-0.896332	-9.067803E+11	7.488592E-15	NaN
1084	1.000000	0.212660	7.37566e+06	-54339.1	1055.82	-29743.7	0.000000	0.000000	6.212797	0.017933	NaN	0.000000	0.001547	0.001704	28.0824	0.129819	0.002035	63.8028	147.345	14.0727	-0.002971	0.211329	-0.886481	-0.887811	0.017933	63.8028	-0.886692	-6.717251E+11	-2.669651E-14	NaN
1084	1.000000	0.222688	7.37566e+06	-54339.1	1055.82	-29743.8	0.000000	0.000000	6.222824	-0.009972	NaN	0.000000	0.001560	0.001688	28.0829	0.061612	0.002038	30.2289	144.679	-163.738	-0.020790	0.221376	-0.876452	-0.877765	-0.009972	30.2289	-0.876205	-4.845995E+11	2.057760E-14	NaN
1084	1.000000	0.232691	7.37566e+06	-54339.1	1055.82	-29743.8	0.000000	0.000000	6.232825	-0.047486	NaN	0.000000	0.001533	0.001697	28.0827	0.099285	0.001986	49.9803	-72.923	12.0908	0.019826	0.231321	-0.866450	-0.867820	-0.047486	49.9803	-0.865737	-3.497541E+11	1.357707E-13	NaN
1084	1.000000	0.242723	7.37566e+06	-54339.1	1055.82	-29743.8	0.000000	0.000000	6.242856	-0.081556	NaN	0.000000	0.001565	0.001712	28.0837	0.022919	0.001978	11.5899	63.775	-163.788	-0.127954	0.241381	-0.856417	-0.857760	-0.081556	11.5899	-0.851140	-2.219072E+11	3.675219E-13	NaN
1084	1.000000	0.252719	7.37566e+06	-54339.1	1055.82	-29743.8	0.000000	0.000000	6.252854	-0.022616	NaN	0.000000	0.001556	0.001674	28.0836	0.010490	0.002057	5.099594	27.3598	17.3897	0.014940	0.251309	-0.846422	-0.847832	-0.022616	5.099594	-0.843096	-1.726758E+11	1.309756E-13	NaN
1084	1.000000	0.262665	7.37566e+06	-54339.1	1055.82	-29743.8	0.000000	0.000000	6.262798	-0.080863	NaN	0.000000	0.001546	0.001669	28.0836	0.146773	0.002034	72.1436	82.1733	-166.625	-0.148979	0.261377	-0.836476	-0.837764	-0.080863	72.1436	-0.835635	-1.368217E+11	5.910098E-13	NaN
1084	1.000000	0.272726	7.37566e+06	-54339.1	1055.82	-29743.8	0.000000	0.000000	6.272860	-0.060558	NaN	0.000000	0.001571	0.001683	28.0835	0.039952	0.002073	19.2768	-8.410107	11.1256	-0.085421	0.271353	-0.826415	-0.827788	-0.060558	19.2768	-0.824058	-9.533258E+10	6.352258E-13	NaN
1084	1.000000	0.282724	7.37566e+06	-54339.1	1055.82	-29743.8	0.000000	0.000000	6.282860	0.003341	NaN	0.000000	0.001588	0.001691	28.0833	0.065049	0.002050	31.7295	-8.347460	-164.528	0.000581	0.281416	-0.816417	-0.817724	0.003341	31.7295	-0.816496	-7.528121E+10	-4.438067E-14	NaN
1084	1.000000	0.292694	7.37566e+06	-54339.1	1055.82	-29743.8	0.000000	0.000000	6.292830	-0.005889	NaN	0.000000	0.001557	0.001702	28.0836	0.019129	0.002035	9.398100	143.297	15.3948	0.032334	0.291386	-0.806446	-0.807755	-0.005889	9.398100	-0.805976	-5.419706E+10	1.086595E-13	NaN
1084	1.000000	0.302749	7.37566e+06	-54339.1	1055.82	-29743.8	0.000000	0.000000	6.302884	-0.037405	NaN	0.000000	0.001590	0.001707	28.0837	0.023849	0.001987	12.0021	-70.9558	-162.71	-0.029688	0.301385	-0.796391	-0.797756	-0.037405	12.0021	-0.794054	-3.733651E+10	1.001841E-12	NaN
1084	1.000000	0.312697	7.37566e+06	-54339.1	1055.82	-29743.8	0.000000	0.000000	6.312831	-0.065906	NaN	0.000000	0.001535	0.001739	28.0838	0.079808	0.001904	41.9055	94.4239	13.8336	-0.012357	0.311334	-0.786443	-0.787806	-0.065906	41.9055	-0.785264	-2.836288E+10	2.323681E-12	NaN
1084	1.000000	0.322713	7.37566e+06	-54339.1	1055.82	-29743.8	0.000000	0.000000	6.322848	-0.017649	NaN	0.000000	0.001580	0.001712	28.0838	0.110837	0.002055	53.9375	-179.555	-165.447	-0.060452	0.321419	-0.776428	-0.777722	-0.017649	53.9375	-0.776182	-2.134761E+10	8.267242E-13	NaN
1084	1.000000	0.332732	7.37566e+06	-54339.1	1055.82	-29743.8	0.000000	0.000000	6.332868	-0.003498	NaN	0.000000	0.001659	0.001712	28.0837	0.040920	0.002120	19.3027	-168.644	14.8458	0.057686	0.331356	-0.766409	-0.767785	-0.003498	19.3027	-0.766273	-1.565401E+10	2.234391E-13	NaN
1084	1.000000	0.342733	7.37566e+06	-54339.1	1055.82	-29743.8	0.000000	0.000000	6.342867	-0.042394	NaN	0.000000	0.001603	0.001678	28.0836	0.115304	0.002068	55.7658	-36.206	-164.106	-0.115146	0.341382	-0.756408	-0.757758	-0.042394	55.7658	-0.755838	-1.128934E+10	3.755220E-12	NaN
1084	1.000000	0.352726	7.37566e+06	-54339.1	1055.82	-29743.8	0.000000	0.000000	6.352861	-0.021376	NaN	0.000000	0.001635	0.001680	28.0837	0.042228	0.002002	21.0926	-76.1115	13.6393	-0.045047	0.351368	-0.746415	-0.747773	-0.021376	21.0926	-0.745654	-8.204649E+9	2.605397E-12	NaN
1084	1.000000	0.362722	7.37566e+06	-54339.1	1055.82	-29743.8	0.000000	0.000000	6.362855	-0.078663	NaN	0.000000	0.001614	0.001677	28.0838	0.099956	0.002124	47.0536	151.117	-162.94	-0.024500	0.361453	-0.736419	-0.737687	-0.078663	47.0536	-0.735165	-5.904637E+9	1.332225E-11	NaN
1084	1.000000	0.372741	7.37566e+06	-54339.1	1055.82	-29743.8	0.000000	0.000000	6.372875	-0.042638	NaN	0.000000	0.001632	0.001719	28.0842	0.110744	0.001867	59.3107	-160.656	15.5754	-0.078535	0.371458	-0.726400	-0.727682	-0.042638	59.3107	-0.725860	-4.409425E+9	9.669673E-12	NaN
1084	1.000000	0.382743	7.37566e+06	-54339.1	1055.82	-29743.8	0.000000	0.000000	6.382877	-0.051265	NaN	0.000000	0.001632	0.001725	28.0826	0.111803	0.001940	57.6257	-85.3038	-167.369	-0.071825	0.381517	-0.716398	-0.717623	-0.051265	57.6257	-0.715731	-3.208030E+9	1.598020E-11	NaN
1084	1.000000	0.392742	7.37566e+06	-54339.1	1055.82	-29743.8	0.000000	0.000000	6.392877	-0.042397	NaN	0.000000	0.001652	0.001717	28.0825	0.030512	0.001983	15.3839	147.894	15.516	-0.007623	0.391366	-0.706399	-0.707774	-0.042397	15.3839	-0.704332	-2.242211E+9	1.890839E-11	NaN
1084	1.000000	0.402780	7.37566e+06	-54339.1	1055.82	-29743.8	0.000000	0.000000	6.402917	0.007286	NaN	0.000000	0.001649	0.001741	28.0825	0.071240	0.001891	37.6728	95.5099	-164.087	-0.021680	0.401421	-0.696360	-0.697719	0.007286	37.6728	-0.696505	-1.753079E+9	-4.156322E-12	NaN
1084	1.000000	0.412761	7.37566e+06	-54339.1	1055.82	-29743.8	0.000000	0.000000	6.412899	0.030413	NaN	0.000000	0.001581	0.001716	28.0829	0.079326	0.001972	40.2184	-74.1262	14.7821	-0.044338	0.411434	-0.686380	-0.687707	0.030413	40.2184	-0.686947	-1.297736E+9	-2.343540E-11	NaN
1084	1.000000	0.422778	7.37566e+06	-54339.1	1055.82	-29743.8	0.000000	0.000000	6.422911	-0.073111	NaN	0.000000	0.001570	0.001655	28.0829	0.011134	0.001807	6.162621	-77.1903	-162.771	-0.085472	0.421468	-0.676363	-0.677672	-0.073111	6.162621	-0.667465	-7.025742E+8	1.040618E-10	NaN
1084	1.000000	0.432765	7.37566e+06	-54339.1	1055.82	-29743.8	0.000000	0.000000	6.432901	-0.020665	NaN	0.000000	0.001549	0.001705	28.0825	0.057620	0.001894	30.4237	-34.802	13.0198	0.025479	0.431434	-0.666375	-0.667707	-0.020665	30.4237	-0.665866	-6.680289E+8	3.093497E-11	NaN
1084	1.000000	0.442768	7.37566e+06	-54339.1	1055.82	-29743.8	0.000000	0.000000	6.442903	-0.035280	NaN	0.000000	0.001537	0.001707	28.0827	0.040310	0.002160	18.6596	111.322	-166.939	-0.011385	0.441460	-0.656373	-0.657680	-0.035280	18.6596	-0.654955	-4.735280E+8	7.450402E-11	NaN
1084	1.000000	0.452771	7.37566e+06	-54339.1	1055.82	-29743.8	0.000000	0.000000	6.452905	-0.050326	NaN	0.000000	0.001586	0.001711	28.0828	0.093655	0.002204	42.494	-0.448764	16.0015	0.014179	0.451400	-0.646370	-0.647741	-0.050326	42.494	-0.645482	-3.511421E+8	1.433220E-10	NaN
1084	1.000000	0.462791	7.37566e+06	-54339.1	1055.82	-29743.8	0.000000	0.000000	6.462926	-0.050534	NaN	0.000000	0.001579	0.001737	28.0823	0.139246	0.002042	68.1797	50.2748	-164.501	-0.101374	0.461451	-0.636349	-0.637690	-0.050534	68.1797	-0.635793	-2.585591E+8	1.954439E-10	NaN
1084	1.000000	0.472768	7.37566e+06	-54339.1	1055.82	-29743.8	0.000000	0.000000	6.472901	-0.093792	NaN	0.000000	0.001580	0.001723	28.0825	0.072644	0.001895	38.3336	-2.090835	15.4744	-0.085965	0.471406	-0.626372	-0.627735	-0.093792	38.3336	-0.624537	-1.811280E+8	5.178225E-10	NaN
1084	1.000000	0.482805	7.37566e+06	-54339.1	1055.82	-29743.8	0.000000	0.000000	6.482941	-0.014663	NaN	0.000000	0.001558	0.001716	28.0827	0.070262	0.002052	34.2396	-75.5065	-166.024	-0.071240	0.481443	-0.616335	-0.617697	-0.014663	34.2396	-0.616014	-1.383041E+8	1.060201E-10	NaN
1084	1.000000	0.492767	7.37566e+06	-54339.1	1055.82	-29743.8	0.000000	0.000000	6.492903	-0.005427	NaN	0.000000	0.001609	0.001718	28.0824	0.054930	0.002050	26.7984	-50.0562	17.3545	0.090565	0.491424	-0.606373	-0.607717	-0.005427	26.7984	-0.606221	-1.014185E+8	5.350958E-11	NaN
1084	1.000000	0.502784	7.37566e+06	-54339.1	1055.82	-29743.8	0.000000	0.000000	6.502919	-0.021338	NaN	0.000000	0.001592	0.001735	28.0822	0.102359	0.002043	50.1088	152.673	-168.033	-0.064319	0.501534	-0.596357	-0.597607	-0.021338	50.1088	-0.596038	-7.343078E+7	2.905826E-10	NaN
1084	1.000000	0.512791	7.37566e+06	-54339.1	1055.82	-29743.8	0.000000	0.000000	6.512928	-0.004942	NaN	0.000000	0.001617	0.001734	28.0823	0.096320	0.001901	50.6773	-75.5135	17.3975	-0.059571	0.511409	-0.586349	-0.587732	-0.004942	50.6773	-0.586276	-5.386593E+7	9.174020E-11	NaN
1084	1.000000	0.522806	7.37566e+06	-54339.1	1055.82	-29743.8	0.000000	0.000000	6.522942	-0.003589	NaN	0.000000	0.001612	0.001716	28.0838	0.039964	0.001981	20.1728	160.425	-165.284	0.033790	0.521512	-0.576335	-0.577628	-0.003589	20.1728	-0.576201	-3.910969E+7	9.177992E-11	NaN
1084	1.000000	0.532807	7.37566e+06	-54339.1	1055.82	-29743.8	0.000000	0.000000	6.532946	0.072975	NaN	0.000000	0.001619	0.001714	28.0837	0.042741	0.001992	21.4565	120.093	13.6872	0.056764	0.531490	-0.566333	-0.567651	0.072975	21.4565	-0.568884	-3.098949E+7	-2.354825E-9	NaN
1084	1.000000	0.542853	7.37566e+06	-54339.1	1055.82	-29743.8	0.000000	0.000000	6.542988	-0.030106	NaN	0.000000	0.001586	0.001757	28.0836	0.010334	0.002060	5.016786	101.829	-166.305	-0.103214	0.541515	-0.556288	-0.557626	-0.030106	5.016786	-0.551787	-1.797666E+7	1.674712E-9	NaN
1084	1.000000	0.552813	7.37566e+06	-54339.1	1055.82	-29743.8	0.000000	0.000000	6.552946	-0.085722	NaN	0.000000	0.001618	0.001766	28.0835	0.060432	0.002077	29.0947	-1.043808	16.5922	-0.101539	0.551450	-0.546327	-0.547690	-0.085722	29.0947	-0.544117	-1.407496E+7	6.090372E-9	NaN
1084	1.000000	0.562809	7.37566e+06	-54339.1	1055.82	-29743.8	0.000000	0.000000	6.562943	-0.049563	NaN	0.000000	0.001565	0.001716	28.0837	0.140524	0.001898	74.0272	-44.6617	-164.779	-0.023038	0.561482	-0.536332	-0.537659	-0.049563	74.0272	-0.535829	-1.080192E+7	4.588321E-9	NaN
1084	1.000000	0.572819	7.37566e+06	-54339.1	1055.82	-29743.8	0.000000	0.000000	6.572953	-0.045091	NaN	0.000000	0.001574	0.001735	28.0835	0.063329	0.002014	31.4473	29.0606	16.0773	-0.040765	0.571517	-0.526322	-0.527624	-0.045091	31.4473	-0.525246	-7.7008e+06	5.855354E-9	NaN
1084	1.000000	0.582813	7.37566e+06	-54339.1	1055.82	-29743.8	0.000000	0.000000	6.582947	-0.064429	NaN	0.000000	0.001553	0.001727	28.0836	0.033962	0.002042	16.6335	142.188	-164.31	-0.126009	0.581501	-0.516327	-0.517640	-0.064429	16.6335	-0.513422	-5.27315e+06	1.221835E-8	NaN
1084	1.000000	0.592834	7.37566e+06	-54339.1	1055.82	-29743.8	0.000000	0.000000	6.592967	-0.073527	NaN	0.000000	0.001572	0.001811	28.0839	0.075050	0.002045	36.6951	38.3751	14.3577	-0.167354	0.591495	-0.506307	-0.507646	-0.073527	36.6951	-0.504804	-3.99953e+06	1.838402E-8	NaN
1084	1.000000	0.602849	7.37566e+06	-54339.1	1055.82	-29743.8	0.000000	0.000000	6.602984	-0.038949	NaN	0.000000	0.001594	0.001822	28.0835	0.013733	0.001915	7.170443	58.5261	-166.516	-0.046517	0.601545	-0.496292	-0.497596	-0.038949	7.170443	-0.492218	-2.66917e+06	1.459213E-8	NaN
1084	1.000000	0.612839	7.37566e+06	-54339.1	1055.82	-29743.8	0.000000	0.000000	6.612976	0.012757	NaN	0.000000	0.001586	0.001832	28.0837	0.050826	0.001932	26.3106	145.096	14.5105	0.124513	0.611482	-0.486301	-0.487659	0.012757	26.3106	-0.486665	-2.2324e+06	-5.714585E-9	NaN
1084	1.000000	0.622851	7.37566e+06	-54339.1	1055.82	-29743.8	0.000000	0.000000	6.622987	-0.005903	NaN	0.000000	0.001545	0.001837	28.084	0.063727	0.001955	32.5901	128.984	-166.876	-0.071793	0.621537	-0.476289	-0.477603	-0.005903	32.5901	-0.476153	-1.59097e+06	3.710444E-9	NaN
1084	1.000000	0.632878	7.37566e+06	-54339.1	1055.82	-29743.8	0.000000	0.000000	6.633015	0.031161	NaN	0.000000	0.001553	0.001792	28.0841	0.097304	0.002167	44.8964	7.736139	12.1973	0.098901	0.631508	-0.466263	-0.467633	0.031161	44.8964	-0.466784	-1.17566e+06	-2.650498E-8	NaN
1084	1.000000	0.642852	7.37566e+06	-54339.1	1055.82	-29743.8	0.000000	0.000000	6.642988	-0.009521	NaN	0.000000	0.001579	0.001819	28.0838	0.096993	0.001977	49.0717	-61.4954	-169.211	0.010163	0.641594	-0.456288	-0.457546	-0.009521	49.0717	-0.456143	-833275	1.142614E-8	NaN
1084	1.000000	0.652871	7.37566e+06	-54339.1	1055.82	-29743.8	0.000000	0.000000	6.653006	-0.023549	NaN	0.000000	0.001564	0.001809	28.0827	0.075535	0.001919	39.3622	-71.3886	13.8586	-0.019419	0.651465	-0.446270	-0.447676	-0.023549	39.3622	-0.445821	-596305	3.949074E-8	NaN
1084	1.000000	0.662852	7.37566e+06	-54339.1	1055.82	-29743.8	0.000000	0.000000	6.662989	0.014957	NaN	0.000000	0.001547	0.001798	28.0828	0.112972	0.002047	55.1851	99.8318	-164.921	0.018461	0.661525	-0.436289	-0.437615	0.014957	55.1851	-0.436492	-440387	-3.396359E-8	NaN
1084	1.000000	0.672870	7.37566e+06	-54339.1	1055.82	-29743.8	0.000000	0.000000	6.673006	-0.017285	NaN	0.000000	0.001587	0.001839	28.0827	0.058380	0.001993	29.291	168.126	15.304	-0.034038	0.671451	-0.426270	-0.427690	-0.017285	29.291	-0.425828	-311177	5.554807E-8	NaN
1084	1.000000	0.682866	7.37566e+06	-54339.1	1055.82	-29743.8	0.000000	0.000000	6.683002	-0.013649	NaN	0.000000	0.001616	0.001810	28.0827	0.022459	0.001998	11.2425	-4.557393	-161.769	-0.012299	0.681553	-0.416274	-0.417587	-0.013649	11.2425	-0.415364	-221117	6.172703E-8	NaN
1084	1.000000	0.692888	7.37566e+06	-54339.1	1055.82	-29743.8	0.000000	0.000000	6.693024	-0.008010	NaN	0.000000	0.001608	0.001823	28.0827	0.110648	0.001958	56.5244	175.446	18.0849	-0.002791	0.691515	-0.406253	-0.407625	-0.008010	56.5244	-0.406147	-163521	4.898734E-8	NaN
1084	1.000000	0.702870	7.37566e+06	-54339.1	1055.82	-29743.8	0.000000	0.000000	6.703004	-0.055539	NaN	0.000000	0.001560	0.001847	28.0829	0.092537	0.001980	46.7462	-22.5322	-165.537	-0.125601	0.701532	-0.396271	-0.397609	-0.055539	46.7462	-0.395380	-114830	4.836654E-7	NaN
1084	1.000000	0.712879	7.37566e+06	-54339.1	1055.82	-29743.8	0.000000	0.000000	6.713011	-0.085619	NaN	0.000000	0.001566	0.001824	28.0826	0.049832	0.001977	25.2069	-78.8072	12.6119	-0.080770	0.711523	-0.386262	-0.387618	-0.085619	25.2069	-0.383714	-78192	1.094991E-6	NaN
1084	1.000000	0.722912	7.37566e+06	-54339.1	1055.82	-29743.8	0.000000	0.000000	6.723046	-0.033497	NaN	0.000000	0.001526	0.001855	28.0828	0.044902	0.001896	23.6885	20.6811	-163.839	-0.069491	0.721609	-0.376229	-0.377531	-0.033497	23.6885	-0.375168	-58951.2	5.682144E-7	NaN
1084	1.000000	0.732910	7.37566e+06	-54339.1	1055.82	-29743.8	0.000000	0.000000	6.733044	-0.041545	NaN	0.000000	0.001564	0.001808	28.0828	0.080667	0.001972	40.9111	51.5655	11.0926	-0.070203	0.731506	-0.366231	-0.367634	-0.041545	40.9111	-0.365469	-42739	9.720641E-7	NaN
1084	1.000000	0.742908	7.37566e+06	-54339.1	1055.82	-29743.8	0.000000	0.000000	6.743045	0.005239	NaN	0.000000	0.001581	0.001789	28.0832	0.055111	0.002010	27.4219	-164.655	-166.2	-0.039261	0.741562	-0.356232	-0.357579	0.005239	27.4219	-0.356376	-31580.4	-1.658930E-7	NaN
1084	1.000000	0.752890	7.37566e+06	-54339.1	1055.82	-29743.8	0.000000	0.000000	6.753025	-0.025854	NaN	0.000000	0.001596	0.001801	28.0827	0.086414	0.001996	43.2911	-135.852	13.8689	-0.007004	0.751534	-0.346251	-0.347607	-0.025854	43.2911	-0.345803	-22183.7	1.165449E-6	NaN
1084	1.000000	0.762946	7.37566e+06	-54339.1	1055.82	-29743.8	0.000000	0.000000	6.763083	0.029696	NaN	0.000000	0.001610	0.001808	28.0827	0.084585	0.002016	41.9534	-91.3842	-162.657	-0.071005	0.761610	-0.336195	-0.337531	0.029696	41.9534	-0.336726	-16360.2	-1.815167E-6	NaN
1084	1.000000	0.772939	7.37566e+06	-54339.1	1055.82	-29743.8	0.000000	0.000000	6.773075	-0.004634	NaN	0.000000	0.001678	0.001805	28.0828	0.070777	0.001998	35.4165	-176.192	16.3211	-0.009711	0.771552	-0.326201	-0.327589	-0.004634	35.4165	-0.326103	-11437.5	4.051277E-7	NaN
1084	1.000000	0.782910	7.37566e+06	-54339.1	1055.82	-29743.8	0.000000	0.000000	6.783044	-0.041042	NaN	0.000000	0.001663	0.001825	28.0826	0.011177	0.002061	5.422816	-115.486	-165.187	-0.015717	0.781631	-0.316231	-0.317510	-0.041042	5.422816	-0.310554	-6749.32	6.080894E-6	NaN
1084	1.000000	0.792912	7.37566e+06	-54339.1	1055.82	-29743.8	0.000000	0.000000	6.793049	0.008612	NaN	0.000000	0.001620	0.001827	28.0839	0.069221	0.001981	34.9429	146.18	14.3639	0.012602	0.791554	-0.306228	-0.307587	0.008612	34.9429	-0.306413	-5860.32	-1.469519E-6	NaN
1084	1.000000	0.802929	7.37566e+06	-54339.1	1055.82	-29743.8	0.000000	0.000000	6.803065	-0.002107	NaN	0.000000	0.001601	0.001807	28.0836	0.067958	0.001964	34.5961	117.572	-161.758	-0.044438	0.801607	-0.296211	-0.297534	-0.002107	34.5961	-0.296166	-4125.63	5.107931E-7	NaN
1084	1.000000	0.812936	7.37566e+06	-54339.1	1055.82	-29743.8	0.000000	0.000000	6.813071	-0.018213	NaN	0.000000	0.001661	0.001834	28.0842	0.071705	0.001942	36.9147	-27.603	12.6596	0.001477	0.811597	-0.286205	-0.287543	-0.018213	36.9147	-0.285835	-2889.43	6.303422E-6	NaN
1084	1.000000	0.822929	7.37566e+06	-54339.1	1055.82	-29743.8	0.000000	0.000000	6.823064	-0.020944	NaN	0.000000	0.001622	0.001822	28.084	0.057208	0.001916	29.8628	177.513	-164.883	0.070378	0.821621	-0.276212	-0.277520	-0.020944	29.8628	-0.275686	-2031.33	1.031049E-5	NaN
1084	1.000000	0.832948	7.37566e+06	-54339.1	1055.82	-29743.8	0.000000	0.000000	6.833082	-0.064964	NaN	0.000000	0.001581	0.001780	28.0837	0.057638	0.002051	28.1058	-156.186	14.0121	-0.106921	0.831603	-0.266192	-0.267538	-0.064964	28.1058	-0.264459	-1371.28	4.737467E-5	NaN
1084	1.000000	0.842899	7.37566e+06	-54339.1	1055.82	-29743.8	0.000000	0.000000	6.843037	0.033663	NaN	0.000000	0.001616	0.001794	28.0837	0.078979	0.001914	41.2721	-110.106	-165.751	0.048893	0.841611	-0.256241	-0.257529	0.033663	41.2721	-0.256853	-1048.62	-3.210235E-5	NaN
1084	1.000000	0.852976	7.37566e+06	-54339.1	1055.82	-29743.8	0.000000	0.000000	6.853112	-0.025994	NaN	0.000000	0.001590	0.001815	28.0839	0.074085	0.001912	38.7391	-26.2808	17.2834	-0.005465	0.851579	-0.246164	-0.247562	-0.025994	38.7391	-0.245661	-704.237	3.691074E-5	NaN
1084	1.000000	0.862989	7.37566e+06	-54339.1	1055.82	-29743.8	0.000000	0.000000	6.863127	0.041322	NaN	0.000000	0.001606	0.001785	28.0835	0.113495	0.001973	57.5168	-23.4801	-163.635	0.055037	0.861606	-0.236151	-0.237535	0.041322	57.5168	-0.236690	-510.231	-8.098605E-5	NaN
1084	1.000000	0.872974	7.37566e+06	-54339.1	1055.82	-29743.8	0.000000	0.000000	6.873107	-0.065640	NaN	0.000000	0.001613	0.001824	28.0838	0.084098	0.001935	43.472	66.0383	14.3162	0.014399	0.871618	-0.226167	-0.227522	-0.065640	43.472	-0.225035	-334.106	0.000196	NaN
1084	1.000000	0.882961	7.37566e+06	-54339.1	1055.82	-29743.8	0.000000	0.000000	6.883097	-0.022289	NaN	0.000000	0.001627	0.001778	28.0839	0.134924	0.001875	71.9485	100.499	-163.606	-0.054993	0.881608	-0.216179	-0.217533	-0.022289	71.9485	-0.215947	-239.186	9.318863E-5	NaN
1084	1.000000	0.892964	7.37566e+06	-54339.1	1055.82	-29743.8	0.000000	0.000000	6.893101	0.006088	NaN	0.000000	0.001662	0.001807	28.0838	0.015105	0.001937	7.798257	-95.1036	14.0792	0.095053	0.891611	-0.206176	-0.207529	0.006088	7.798257	-0.206762	-169.925	-3.583008E-5	NaN
1084	1.000000	0.902960	7.37566e+06	-54339.1	1055.82	-29743.8	0.000000	0.000000	6.903096	-0.011300	NaN	0.000000	0.001657	0.001782	28.0839	0.038679	0.002083	18.5688	-51.0324	-167.853	0.004410	0.901639	-0.196180	-0.197502	-0.011300	18.5688	-0.195724	-111.992	0.000101	NaN
1084	1.000000	0.912967	7.37566e+06	-54339.1	1055.82	-29743.8	0.000000	0.000000	6.913104	0.003023	NaN	0.000000	0.001625	0.001821	28.0839	0.034661	0.002092	16.5681	108.849	16.0064	-0.017389	0.911583	-0.186173	-0.187557	0.003023	16.5681	-0.186310	-78.0163	-3.874966E-5	NaN
1084	1.000000	0.922980	7.37566e+06	-54339.1	1055.82	-29743.8	0.000000	0.000000	6.923115	-0.030891	NaN	0.000000	0.001684	0.001805	28.084	0.051947	0.002046	25.3933	109.523	-162.365	-0.020540	0.921646	-0.176160	-0.177494	-0.030891	25.3933	-0.175248	-50.6103	0.000610	NaN
1084	1.000000	0.932987	7.37566e+06	-54339.1	1055.82	-29743.8	0.000000	0.000000	6.933120	-0.080086	NaN	0.000000	0.001638	0.001802	28.0828	0.042571	0.002069	20.5791	-5.268531	15.9405	-0.075807	0.931637	-0.166153	-0.167503	-0.080086	20.5791	-0.163234	-31.2779	0.002560	NaN
1084	1.000000	0.942956	7.37566e+06	-54339.1	1055.82	-29743.8	0.000000	0.000000	6.943091	-0.033216	NaN	0.000000	0.001603	0.001824	28.0826	0.072407	0.002079	34.8217	-53.2225	-162.991	-0.016474	0.941664	-0.156184	-0.157476	-0.033216	34.8217	-0.155469	-22.7515	0.001460	NaN
1084	1.000000	0.952966	7.37566e+06	-54339.1	1055.82	-29743.8	0.000000	0.000000	6.953102	-0.023026	NaN	0.000000	0.001577	0.001812	28.0829	0.005957	0.002134	2.791638	-82.0374	16.7517	0.002515	0.951666	-0.146174	-0.147475	-0.023026	2.791638	-0.139988	-11.8235	0.001947	NaN
1084	1.000000	0.962991	7.37566e+06	-54339.1	1055.82	-29743.8	0.000000	0.000000	6.963125	-0.064993	NaN	0.000000	0.001563	0.001814	28.0827	0.063168	0.002027	31.1626	87.2469	-166.288	-0.066869	0.961674	-0.136149	-0.137467	-0.064993	31.1626	-0.134585	-9.340419	0.006958	NaN
1084	1.000000	0.973003	7.37566e+06	-54339.1	1055.82	-29743.8	0.000000	0.000000	6.973136	-0.066040	NaN	0.000000	0.001544	0.001785	28.083	0.091444	0.001996	45.8107	-71.3631	13.758	-0.124202	0.971663	-0.126138	-0.127477	-0.066040	45.8107	-0.125057	-6.096983	0.010832	NaN
1084	1.000000	0.982981	7.37566e+06	-54339.1	1055.82	-29743.8	0.000000	0.000000	6.983116	-0.045504	NaN	0.000000	0.001551	0.001784	28.0827	0.019761	0.002046	9.656025	77.224	-161.774	0.013577	0.981685	-0.116159	-0.117456	-0.045504	9.656025	-0.112625	-3.411033	0.013340	NaN
1084	1.000000	0.992990	7.37566e+06	-54339.1	1055.82	-29743.8	0.000000	0.000000	6.993128	0.035827	NaN	0.000000	0.001555	0.001788	28.0832	0.029021	0.002049	14.1609	-110.811	15.3004	0.011441	0.991625	-0.106151	-0.107516	0.035827	14.1609	-0.108048	-2.732294	-0.013113	NaN
1084	1.000000	1.003030	7.37566e+06	-54339.1	1055.82	-29743.8	0.000000	0.000000	7.003169	0.069396	NaN	0.000000	0.001543	0.001802	28.0826	0.061658	0.002005	30.7512	93.2404	-164.221	-0.025526	1.001738	-0.096111	-0.097403	0.069396	30.7512	-0.097803	-1.632248	-0.042515	NaN
1084	1.000000	1.013025	7.37566e+06	-54339.1	1055.82	-29743.8	0.000000	0.000000	7.013158	-0.079800	NaN	0.000000	0.001583	0.001786	28.0828	0.107215	0.002014	53.241	-84.443	14.8021	-0.177898	1.011680	-0.086115	-0.087461	-0.079800	53.241	-0.084991	-0.821239	0.097170	NaN
1084	1.000000	1.023017	7.37566e+06	-54339.1	1055.82	-29743.8	0.000000	0.000000	7.023153	-0.016089	NaN	0.000000	0.001626	0.001770	28.0827	0.012579	0.001846	6.813047	87.3053	-164.851	-0.114860	1.021695	-0.076123	-0.077446	-0.016089	6.813047	-0.074352	-0.444345	0.036208	NaN
1084	1.000000	1.033021	7.37566e+06	-54339.1	1055.82	-29743.8	0.000000	0.000000	7.033154	-0.074992	NaN	0.000000	0.001574	0.001791	28.0828	0.023058	0.002095	11.0042	51.2814	14.5587	-0.071538	1.031661	-0.066120	-0.067479	-0.074992	11.0042	-0.061009	-0.192461	0.389648	NaN
1084	1.000000	1.043009	7.37566e+06	-54339.1	1055.82	-29743.8	0.000000	0.000000	7.043144	-0.028268	NaN	0.000000	0.001573	0.001781	28.0827	0.077107	0.001890	40.8056	9.396500	-166.851	-0.041543	1.041704	-0.056131	-0.057437	-0.028268	40.8056	-0.055612	-0.134243	0.210571	NaN
1084	1.000000	1.053029	7.37566e+06	-54339.1	1055.82	-29743.8	0.000000	0.000000	7.053164	-0.033405	NaN	0.000000	0.001557	0.001803	28.0827	0.014834	0.002010	7.381102	-46.3315	13.1562	-0.049298	1.051637	-0.046112	-0.047504	-0.033405	7.381102	-0.042717	-0.054725	0.610411	NaN
1084	1.000000	1.063058	7.37566e+06	-54339.1	1055.82	-29743.8	0.000000	0.000000	7.063193	-0.037606	NaN	0.000000	0.001581	0.001824	28.084	0.088906	0.002054	43.2784	-88.4621	-162.335	-0.081061	1.061744	-0.036083	-0.037396	-0.037606	43.2784	-0.035431	-0.032976	1.140423	NaN
1084	1.000000	1.073017	7.37566e+06	-54339.1	1055.82	-29743.8	0.000000	0.000000	7.073152	-0.030711	NaN	0.000000	0.001586	0.001826	28.0841	0.056097	0.002044	27.4506	-1.451165	16.3955	-0.059233	1.071699	-0.026123	-0.027441	-0.030711	27.4506	-0.025284	-0.017162	1.789504	NaN
1084	1.000000	1.083036	7.37566e+06	-54339.1	1055.82	-29743.8	0.000000	0.000000	7.083170	-0.055788	NaN	0.000000	0.001573	0.001815	28.0839	0.059261	0.001846	32.0976	-56.1466	-168.584	-0.018110	1.081756	-0.016104	-0.017385	-0.055788	32.0976	-0.014801	-0.009156	6.092939	NaN
1084	1.000000	1.093032	7.37566e+06	-54339.1	1055.82	-29743.8	0.000000	0.000000	7.093166	-0.060838	NaN	0.000000	0.001624	0.001791	28.084	0.073958	0.002052	36.043	-70.2141	16.6517	-0.026782	1.091719	-0.006108	-0.007421	-0.060838	36.043	-0.004842	-0.003317	18.3396	NaN
1084	1.000000	1.103028	7.37566e+06	-54339.1	1055.82	-29743.8	0.000000	0.000000	7.103437	6.628331	NaN	0.000000	0.001634	0.001788	28.0839	6.930922	0.001718	4034.09	10.8122	-169.23	5.217380	1.101698	0.003887	0.002557	6.628331	4034.09	0.002655	0.002091	3169.27	80592.7
1084	2.000000	1.107105	7.37566e+06	-54339.1	1055.82	-29743.8	0.000000	0.000000	7.107701	11.188	NaN	0.000000	0.001591	0.001812	28.0838	10.9293	0.001598	6840.65	4.945697	8.123473	10.276	1.106820	0.007964	0.007680	11.188	6840.65	0.006737	0.005776	1937.1	82237.7
1084	2.000000	1.109564	7.37566e+06	-54339.1	1055.82	-29743.8	0.000000	0.000000	7.110404	17.1097	NaN	0.000000	0.001628	0.001767	28.0836	14.8126	0.001719	8619.22	6.185324	-174.79	15.892	1.109336	0.010424	0.010196	17.1097	8619.22	0.008935	0.008022	2132.9	87923.6
1084	2.000000	1.112115	7.37566e+06	-54339.1	1055.82	-29743.8	0.000000	0.000000	7.113213	23.3667	NaN	0.000000	0.001674	0.001789	28.0838	17.1825	0.001775	9681.5	8.068437	3.971776	23.32	1.111783	0.012975	0.012642	23.3667	9681.5	0.011165	0.010505	2224.36	86301.9
1084	2.000000	1.114581	7.37566e+06	-54339.1	1055.82	-29743.8	0.000000	0.000000	7.116033	31.9701	NaN	0.000000	0.001630	0.001767	28.0839	20.2258	0.001692	11956.9	3.432943	-174.032	30.7048	1.114264	0.015441	0.015124	31.9701	11956.9	0.013435	0.013255	2411.88	94884.9
1084	2.000000	1.117058	7.37566e+06	-54339.1	1055.82	-29743.8	0.000000	0.000000	7.118878	40.9513	NaN	0.000000	0.001668	0.001811	28.0837	23.4963	0.001636	14358.8	7.603863	0.089874	39.2069	1.116685	0.017917	0.017545	40.9513	14358.8	0.015778	0.016337	2506.65	102637
1084	2.000000	1.119553	7.37566e+06	-54339.1	1055.82	-29743.8	0.000000	0.000000	7.121700	48.9027	NaN	0.000000	0.001652	0.001815	28.0836	27.1946	0.001738	15644	4.610531	-178.092	47.6379	1.119177	0.020412	0.020036	48.9027	15644	0.018067	0.019596	2495.54	102103
1084	2.000000	1.122041	7.37566e+06	-54339.1	1055.82	-29743.8	0.000000	0.000000	7.124852	65.0344	NaN	0.000000	0.001643	0.001795	28.0837	30.0622	0.001809	16615.3	7.878605	0.437540	63.1091	1.121637	0.022900	0.022496	65.0344	16615.3	0.019965	0.022487	2892.15	101233
1084	2.000000	1.124487	7.37566e+06	-54339.1	1055.82	-29743.8	0.000000	0.000000	7.127720	75.2668	NaN	0.000000	0.001625	0.001796	28.0838	32.3553	0.001753	18455.8	4.404434	-178.591	72.1519	1.124238	0.025347	0.025098	75.2668	18455.8	0.022288	0.026266	2865.54	104042
1084	2.000000	1.126999	7.37566e+06	-54339.1	1055.82	-29743.8	0.000000	0.000000	7.130993	93.7964	NaN	0.000000	0.001637	0.001764	28.0836	34.9763	0.001801	19416.5	4.526776	0.643265	90.7692	1.126612	0.027858	0.027471	93.7964	19416.5	0.024235	0.029639	3164.68	103042
1084	2.000000	1.129476	7.37566e+06	-54339.1	1055.82	-29743.8	0.000000	0.000000	7.134196	111.432	NaN	0.000000	0.001631	0.001748	28.0823	38.5452	0.001768	21803.2	5.506841	178.755	107.93	1.129214	0.030335	0.030073	111.432	21803.2	0.026502	0.033805	3296.28	108343
1084	2.000000	1.132052	7.37566e+06	-54339.1	1055.82	-29743.8	0.000000	0.000000	7.137442	127.723	NaN	0.000000	0.001619	0.001811	28.0824	40.5606	0.001721	23566	3.643672	0.145725	125.553	1.131684	0.032911	0.032544	127.723	23566	0.028847	0.038387	3327.25	109892
1084	2.000000	1.134507	7.37566e+06	-54339.1	1055.82	-29743.8	0.000000	0.000000	7.140842	150.693	NaN	0.000000	0.001562	0.001756	28.0827	44.0513	0.001634	26954.6	8.306164	173.829	149.507	1.134095	0.035367	0.034955	150.693	26954.6	0.031174	0.043211	3487.34	118470
1084	2.000000	1.136998	7.37566e+06	-54339.1	1055.82	-29743.8	0.000000	0.000000	7.143830	162.763	NaN	0.000000	0.001608	0.001739	28.0822	45.8205	0.001592	28778.2	0.234780	1.376134	159.154	1.136632	0.037858	0.037491	162.763	28778.2	0.033616	0.048572	3350.96	119301
1084	2.000000	1.139537	7.37566e+06	-54339.1	1055.82	-29743.8	0.000000	0.000000	7.147037	179.032	NaN	0.000000	0.001570	0.001771	28.0822	50.9768	0.001743	29243	4.907319	176.298	179.299	1.139203	0.040396	0.040063	179.032	29243	0.035804	0.053635	3337.95	115364
1084	2.000000	1.142032	7.37566e+06	-54339.1	1055.82	-29743.8	0.000000	0.000000	7.150535	203.395	NaN	0.000000	0.001600	0.001806	28.0824	53.7175	0.001872	28699.4	6.223475	-4.459090	201.056	1.141660	0.042892	0.042519	203.395	28699.4	0.037576	0.057915	3511.97	108956
1084	2.000000	1.144505	7.37566e+06	-54339.1	1055.82	-29743.8	0.000000	0.000000	7.153851	223.878	NaN	0.000000	0.001518	0.001820	28.0826	56.3427	0.001884	29905	5.284709	176.1	221.54	1.144146	0.045365	0.045006	223.878	29905	0.039750	0.063384	3532.1	108524
1084	2.000000	1.146958	7.37566e+06	-54339.1	1055.82	-29743.8	0.000000	0.000000	7.157183	245.283	NaN	0.000000	0.001541	0.001832	28.0823	59.7061	0.001937	30820.4	6.952594	-6.233675	242.442	1.146653	0.047817	0.047512	245.283	30820.4	0.041848	0.068892	3560.41	107282
1084	2.000000	1.149467	7.37566e+06	-54339.1	1055.82	-29743.8	0.000000	0.000000	7.160519	265.387	NaN	0.000000	0.001535	0.001804	28.0823	60.5425	0.001792	33783.6	1.552714	178.66	262.868	1.149224	0.050326	0.050083	265.387	33783.6	0.044434	0.075990	3492.4	111970
1084	2.000000	1.151968	7.37566e+06	-54339.1	1055.82	-29743.8	0.000000	0.000000	7.164395	298.8	NaN	0.000000	0.001539	0.001806	28.0825	62.7738	0.001821	34474.2	6.427001	-5.879926	293.049	1.151633	0.052827	0.052493	298.8	34474.2	0.046327	0.081398	3670.86	110398
1084	2.000000	1.154501	7.37566e+06	-54339.1	1055.82	-29743.8	0.000000	0.000000	7.167688	317.278	NaN	0.000000	0.001563	0.001797	28.0826	64.9326	0.001823	35613.9	2.408028	177.354	316.777	1.154250	0.055360	0.055109	317.278	35613.9	0.048679	0.088373	3590.2	109454
1084	2.000000	1.156870	7.37566e+06	-54339.1	1055.82	-29743.8	0.000000	0.000000	7.170040	316.871	NaN	0.000000	0.001554	0.001767	28.0843	67.2089	0.001705	39426.9	0.400347	-1.800077	308.22	1.156601	0.057729	0.057460	316.871	39426.9	0.051701	0.097744	3241.84	115218
1084	2.000000	1.159422	7.37566e+06	-54339.1	1055.82	-29743.8	0.000000	0.000000	7.174050	352.292	NaN	0.000000	0.001543	0.001805	28.0861	71.1578	0.001746	40763.9	3.392653	175.378	347.53	1.159114	0.060282	0.059974	352.292	40763.9	0.053800	0.104520	3370.56	115199
1084	2.000000	1.162000	7.37566e+06	-54339.1	1055.82	-29743.8	0.000000	0.000000	7.177592	375.744	NaN	0.000000	0.001533	0.001818	28.0831	72.6104	0.001611	45075.6	3.282598	-4.490018	372.384	1.161511	0.062860	0.062371	375.744	45075.6	0.056608	0.113927	3298.12	122012
1084	2.000000	1.164400	7.37566e+06	-54339.1	1055.82	-29743.8	0.000000	0.000000	7.181080	402.172	NaN	0.000000	0.001545	0.001810	28.0844	75.6871	0.001847	40971	5.142870	174.098	396.92	1.164128	0.065260	0.064988	402.172	40971	0.057898	0.118378	3397.35	108796
1084	2.000000	1.167045	7.37566e+06	-54339.1	1055.82	-29743.8	0.000000	0.000000	7.184344	417.24	NaN	0.000000	0.001536	0.001754	28.0835	77.7792	0.001847	42114.2	3.445103	-5.104996	418.303	1.166775	0.067905	0.067635	417.24	42114.2	0.060474	0.127514	3272.11	107751
1084	2.000000	1.169515	7.37566e+06	-54339.1	1055.82	-29743.8	0.000000	0.000000	7.188263	452.468	NaN	0.000000	0.001548	0.001797	28.084	80.3628	0.001833	43847.1	2.331791	176.567	453.031	1.169100	0.070375	0.069959	452.468	43847.1	0.062635	0.135427	3341.04	108858
1084	2.000000	1.171949	7.37566e+06	-54339.1	1055.82	-29743.8	0.000000	0.000000	7.191854	480.599	NaN	0.000000	0.001540	0.001793	28.0835	81.218	0.001748	46459.4	3.743754	-5.599974	476.408	1.171656	0.072808	0.072516	480.599	46459.4	0.065050	0.144536	3325.11	111650
1084	2.000000	1.174350	7.37566e+06	-54339.1	1055.82	-29743.8	0.000000	0.000000	7.195698	515.68	NaN	0.000000	0.001580	0.001804	28.0843	82.8279	0.001694	48889.1	2.572454	175.177	508.158	1.173999	0.075209	0.074859	515.68	48889.1	0.067298	0.153271	3364.5	114092
1084	2.000000	1.176897	7.37566e+06	-54339.1	1055.82	-29743.8	0.000000	0.000000	7.199075	535.839	NaN	0.000000	0.001558	0.001803	28.0836	85.6431	0.001780	48102.6	1.272786	-3.225493	529.422	1.176480	0.077757	0.077340	535.839	48102.6	0.069402	0.161664	3314.52	109304
1084	2.000000	1.179273	7.37566e+06	-54339.1	1055.82	-29743.8	0.000000	0.000000	7.201052	526.146	NaN	0.000000	0.001602	0.001809	28.0839	88.1621	0.001790	49262.6	0.583960	176.964	515.268	1.178934	0.080133	0.079793	526.146	49262.6	0.072122	0.172828	3044.33	108264
1084	2.000000	1.181886	7.37566e+06	-54339.1	1055.82	-29743.8	0.000000	0.000000	7.205242	564.495	NaN	0.000000	0.001543	0.001816	28.0836	91.2818	0.001772	51522.7	5.815785	-7.697886	556.825	1.181518	0.082745	0.082378	564.495	51522.7	0.074528	0.182992	3084.8	110041
1084	2.000000	1.184488	7.37566e+06	-54339.1	1055.82	-29743.8	0.000000	0.000000	7.208972	591.913	NaN	0.000000	0.001537	0.001823	28.0853	93.6342	0.001864	50231.2	6.225637	172.2	592.421	1.184007	0.085347	0.084866	591.913	50231.2	0.076509	0.191571	3089.78	104853
1084	2.000000	1.187050	7.37566e+06	-54339.1	1055.82	-29743.8	0.000000	0.000000	7.212374	612.326	NaN	0.000000	0.001540	0.001780	28.0837	96.0992	0.001879	51146.8	8.843226	-10.6579	616.929	1.186515	0.087910	0.087375	612.326	51146.8	0.078931	0.202302	3026.79	103894
1084	2.000000	1.189502	7.37566e+06	-54339.1	1055.82	-29743.8	0.000000	0.000000	7.215955	639.773	NaN	0.000000	0.001554	0.001830	28.0837	97.6942	0.001727	56566.1	3.322380	173.561	642.975	1.189132	0.090362	0.089992	639.773	56566.1	0.081879	0.215738	2965.51	111267
1084	2.000000	1.191893	7.37566e+06	-54339.1	1055.82	-29743.8	0.000000	0.000000	7.219780	674.652	NaN	0.000000	0.001551	0.001787	28.0837	98.8927	0.001749	56532.5	2.948460	-5.728691	666.347	1.191510	0.092752	0.092370	674.652	56532.5	0.083802	0.224718	3002.21	108956
1084	2.000000	1.194385	7.37566e+06	-54339.1	1055.82	-29743.8	0.000000	0.000000	7.223803	711.865	NaN	0.000000	0.001574	0.001800	28.0845	101.139	0.001767	57235.3	2.933839	174.195	707.271	1.194003	0.095244	0.094863	711.865	57235.3	0.085916	0.234792	3031.89	107918
1084	2.000000	1.196735	7.37566e+06	-54339.1	1055.82	-29743.8	0.000000	0.000000	7.227004	732.554	NaN	0.000000	0.001589	0.001784	28.0825	103.898	0.001857	55946.7	2.653117	-5.687529	718.021	1.196346	0.097595	0.097206	732.554	55946.7	0.087774	0.243813	3004.57	103519
1084	2.000000	1.199368	7.37566e+06	-54339.1	1055.82	-29743.8	0.000000	0.000000	7.230593	755.791	NaN	0.000000	0.001587	0.001803	28.0825	106.972	0.001921	55676.2	3.104407	173.573	748.889	1.199091	0.100227	0.099950	755.791	55676.2	0.090046	0.255060	2963.19	100721
1084	2.000000	1.201855	7.37566e+06	-54339.1	1055.82	-29743.8	0.000000	0.000000	7.234319	785.907	NaN	0.000000	0.001564	0.001799	28.0823	107.479	0.001817	59145	2.983884	-6.494411	777.144	1.201502	0.102715	0.102361	785.907	59145	0.092749	0.268748	2924.33	104236
1084	2.000000	1.203809	7.37566e+06	-54339.1	1055.82	-29743.8	0.000000	0.000000	7.236993	803.428	NaN	0.000000	0.001567	0.001805	28.0823	109.643	0.001754	62523.9	4.655169	-8.668279	794.167	1.203473	0.104668	0.104332	803.428	62523.9	0.095031	0.280564	2863.62	107846