File: remote_trans/data/nanoindenter/0828-1/data/Data_2025-08-06,11h17m57s/2025-07-22_16-23-58_1_784.txt
2025-07-22, 16:23:58, 1
Index	Phase	Displacement	Time	Pos X	Pos Y	Pos Z	Rot A	Rot B	Piezo Z	Force A	Force B	Gripper	Voltage A	Voltage B	Temperature	Amplitude force	Amplitude pos	Stiffness	Phase shift	Phase excitation	Force A raw	Displacement raw	HMax	HMax raw	Real Force	Real Stiffness	Contact Depth	Area	Hardness	Reduced Mod.
[#]	[#]	[um]	[s]	[um]	[um]	[um]	[m°]	[m°]	[um]	[uN]	[uN]	[V]	[V]	[V]	[°C]	[uN]	[um]	[N/m]	[°]	[°]	[uN]	[um]	[um]	[um]	[uN]	[N/m]	[um]	[um^2]	[MPa]	[MPa]
784	1.000000	0.002701	7.37272e+06	-39339.1	1055.82	-29794.2	0.000000	0.000000	6.002792	-0.013378	NaN	0.000000	0.001644	0.001738	28.0844	0.085499	0.000970	88.1487	-98.6152	-162.641	-0.016073	0.001422	-1.119353	-1.120631	-0.013378	88.1487	-1.119239	-9.083691E+14	1.472769E-17	NaN
784	1.000000	0.012742	7.37272e+06	-39339.1	1055.82	-29794.2	0.000000	0.000000	6.012836	0.037922	NaN	0.000000	0.001659	0.001734	28.083	0.074286	0.001342	55.37	-140.802	17.8894	0.038664	0.011336	-1.109311	-1.110717	0.037922	55.37	-1.109825	-6.791040E+14	-5.584187E-17	NaN
784	1.000000	0.022658	7.37272e+06	-39339.1	1055.82	-29794.2	0.000000	0.000000	6.022754	0.104626	NaN	0.000000	0.001653	0.001712	28.0831	0.034427	0.001712	20.1039	-69.1221	-166.541	0.128936	0.021354	-1.099396	-1.100699	0.104626	20.1039	-1.103299	-5.550752E+14	-1.884893E-16	NaN
784	1.000000	0.032660	7.37272e+06	-39339.1	1055.82	-29794.2	0.000000	0.000000	6.032753	0.014519	NaN	0.000000	0.001674	0.001697	28.0828	0.087559	0.001776	49.3119	-76.8726	12.6841	0.030748	0.031353	-1.089393	-1.090700	0.014519	49.3119	-1.089614	-3.636042E+14	-3.993215E-17	NaN
784	1.000000	0.042667	7.37272e+06	-39339.1	1055.82	-29794.2	0.000000	0.000000	6.042758	-0.021147	NaN	0.000000	0.001645	0.001672	28.0832	0.208183	0.002138	97.3719	-149.899	-168.226	0.044770	0.041358	-1.079386	-1.080695	-0.021147	97.3719	-1.079223	-2.636863E+14	8.019595E-17	NaN
784	1.000000	0.052663	7.37272e+06	-39339.1	1055.82	-29794.2	0.000000	0.000000	6.052752	-0.068719	NaN	0.000000	0.001643	0.001706	28.0829	0.110726	0.002145	51.6292	-156.763	13.2291	-0.044606	0.051271	-1.069390	-1.070782	-0.068719	51.6292	-1.068392	-1.886172E+14	3.643330E-16	NaN
784	1.000000	0.062679	7.37272e+06	-39339.1	1055.82	-29794.2	0.000000	0.000000	6.062770	-0.034163	NaN	0.000000	0.001628	0.001693	28.0831	0.081163	0.002090	38.833	-9.916480	-163.82	0.007114	0.061356	-1.059374	-1.060697	-0.034163	38.833	-1.058714	-1.398110E+14	2.443492E-16	NaN
784	1.000000	0.072667	7.37272e+06	-39339.1	1055.82	-29794.2	0.000000	0.000000	6.072757	-0.027525	NaN	0.000000	0.001620	0.001693	28.0828	0.025445	0.002029	12.541	-12.7921	14.1402	0.060849	0.071294	-1.049387	-1.050760	-0.027525	12.541	-1.047741	-9.954974E+13	2.764940E-16	NaN
784	1.000000	0.082677	7.37272e+06	-39339.1	1055.82	-29794.2	0.000000	0.000000	6.082770	0.036003	NaN	0.000000	0.001645	0.001741	28.0833	0.086300	0.002040	42.3018	-139.046	-168.757	0.058651	0.081353	-1.039377	-1.040700	0.036003	42.3018	-1.040015	-7.837376E+13	-4.593798E-16	NaN
784	1.000000	0.092665	7.37272e+06	-39339.1	1055.82	-29794.2	0.000000	0.000000	6.092757	-0.010151	NaN	0.000000	0.001692	0.001732	28.0829	0.066450	0.002028	32.769	-41.1577	15.6602	-0.005851	0.091291	-1.029388	-1.030762	-0.010151	32.769	-1.029156	-5.599179E+13	1.812991E-16	NaN
784	1.000000	0.102682	7.37272e+06	-39339.1	1055.82	-29794.2	0.000000	0.000000	6.102778	0.120405	NaN	0.000000	0.001685	0.001688	28.0829	0.059357	0.002078	28.566	-87.484	-165.966	-0.003651	0.101361	-1.019372	-1.020692	0.120405	28.566	-1.022533	-4.560678E+13	-2.640067E-15	NaN
784	1.000000	0.112670	7.37272e+06	-39339.1	1055.82	-29794.2	0.000000	0.000000	6.112763	0.026213	NaN	0.000000	0.001653	0.001735	28.0831	0.060477	0.001953	30.9619	21.514	17.2811	0.053055	0.111336	-1.009383	-1.010718	0.026213	30.9619	-1.010018	-3.094755E+13	-8.470078E-16	NaN
784	1.000000	0.122683	7.37272e+06	-39339.1	1055.82	-29794.2	0.000000	0.000000	6.122772	-0.065541	NaN	0.000000	0.001659	0.001655	28.0827	0.015445	0.001931	7.998240	152.916	-166.35	-0.007293	0.121368	-0.999370	-1.000686	-0.065541	7.998240	-0.993225	-1.838811E+13	3.564338E-15	NaN
784	1.000000	0.132694	7.37272e+06	-39339.1	1055.82	-29794.2	0.000000	0.000000	6.132786	0.023150	NaN	0.000000	0.001650	0.001700	28.0826	0.076117	0.002068	36.8143	-132.864	17.049	0.019302	0.131306	-0.989360	-0.990748	0.023150	36.8143	-0.989832	-1.655171E+13	-1.398625E-15	NaN
784	1.000000	0.142691	7.37272e+06	-39339.1	1055.82	-29794.2	0.000000	0.000000	6.142783	0.016587	NaN	0.000000	0.001656	0.001660	28.0825	0.053910	0.001887	28.5674	26.6193	-168.031	0.043857	0.141372	-0.979363	-0.980681	0.016587	28.5674	-0.979798	-1.212534E+13	-1.367987E-15	NaN
784	1.000000	0.152699	7.37272e+06	-39339.1	1055.82	-29794.2	0.000000	0.000000	6.152791	-0.001327	NaN	0.000000	0.001604	0.001689	28.0843	0.122283	0.001996	61.2765	-81.4648	13.8665	-0.012283	0.151315	-0.969354	-0.970738	-0.001327	61.2765	-0.969338	-8.764702E+12	1.514375E-16	NaN
784	1.000000	0.162693	7.37272e+06	-39339.1	1055.82	-29794.2	0.000000	0.000000	6.162786	0.033071	NaN	0.000000	0.001658	0.001660	28.0839	0.072172	0.001987	36.33	-21.3014	-165.211	-0.003158	0.161431	-0.959360	-0.960622	0.033071	36.33	-0.960043	-6.568167E+12	-5.034999E-15	NaN
784	1.000000	0.172723	7.37272e+06	-39339.1	1055.82	-29794.2	0.000000	0.000000	6.172817	0.058649	NaN	0.000000	0.001666	0.001772	28.084	0.081014	0.002079	38.9763	26.1942	15.8517	-0.015648	0.171348	-0.949330	-0.950705	0.058649	38.9763	-0.950459	-4.877732E+12	-1.202391E-14	NaN
784	1.000000	0.182708	7.37272e+06	-39339.1	1055.82	-29794.2	0.000000	0.000000	6.182800	0.020815	NaN	0.000000	0.001655	0.001664	28.0839	0.041494	0.001978	20.9758	-118.807	-165.245	0.039145	0.181418	-0.939346	-0.940635	0.020815	20.9758	-0.940090	-3.534668E+12	-5.888929E-15	NaN
784	1.000000	0.192744	7.37272e+06	-39339.1	1055.82	-29794.2	0.000000	0.000000	6.192834	-0.037287	NaN	0.000000	0.001653	0.001728	28.0839	0.043720	0.002139	20.4416	-159.859	11.206	0.015388	0.191351	-0.929310	-0.930702	-0.037287	20.4416	-0.927942	-2.423360E+12	1.538661E-14	NaN
784	1.000000	0.202701	7.37272e+06	-39339.1	1055.82	-29794.2	0.000000	0.000000	6.202792	0.006232	NaN	0.000000	0.001661	0.001725	28.0838	0.145904	0.001901	76.7517	-70.2265	-166.096	-0.004541	0.201440	-0.919353	-0.920614	0.006232	76.7517	-0.919414	-1.859050E+12	-3.352170E-15	NaN
784	1.000000	0.212711	7.37272e+06	-39339.1	1055.82	-29794.2	0.000000	0.000000	6.212806	0.073296	NaN	0.000000	0.001622	0.001728	28.0839	0.076599	0.001966	38.96	114.879	12.2916	0.032206	0.211362	-0.909343	-0.910692	0.073296	38.96	-0.910754	-1.420171E+12	-5.161080E-14	NaN
784	1.000000	0.222753	7.37272e+06	-39339.1	1055.82	-29794.2	0.000000	0.000000	6.222845	-0.005318	NaN	0.000000	0.001656	0.001672	28.0841	0.027160	0.002064	13.1588	128.217	-163.678	-0.041854	0.221428	-0.899300	-0.900625	-0.005318	13.1588	-0.898997	-9.851684E+11	5.398496E-15	NaN
784	1.000000	0.232721	7.37272e+06	-39339.1	1055.82	-29794.2	0.000000	0.000000	6.232812	-0.024510	NaN	0.000000	0.001651	0.001652	28.0839	0.092573	0.002111	43.8476	-80.6738	11.4305	0.046763	0.231385	-0.889332	-0.890669	-0.024510	43.8476	-0.888913	-7.198151E+11	3.404972E-14	NaN
784	1.000000	0.242761	7.37272e+06	-39339.1	1055.82	-29794.2	0.000000	0.000000	6.242849	-0.077591	NaN	0.000000	0.001644	0.001683	28.084	0.068377	0.001945	35.1641	-62.8476	-171.99	-0.099225	0.241462	-0.879293	-0.880591	-0.077591	35.1641	-0.877638	-5.067119E+11	1.531258E-13	NaN
784	1.000000	0.252785	7.37272e+06	-39339.1	1055.82	-29794.2	0.000000	0.000000	6.252880	0.067748	NaN	0.000000	0.001686	0.001702	28.0841	0.055799	0.001991	28.0285	-137.327	11.4664	0.057167	0.251338	-0.869268	-0.870716	0.067748	28.0285	-0.871081	-4.131119E+11	-1.639935E-13	NaN
784	1.000000	0.262755	7.37272e+06	-39339.1	1055.82	-29794.2	0.000000	0.000000	6.262849	0.055083	NaN	0.000000	0.001700	0.001671	28.084	0.107460	0.002044	52.579	31.424	-166.975	-0.016278	0.261438	-0.859299	-0.860615	0.055083	52.579	-0.860084	-2.932673E+11	-1.878237E-13	NaN
784	1.000000	0.272727	7.37272e+06	-39339.1	1055.82	-29794.2	0.000000	0.000000	6.272821	0.049645	NaN	0.000000	0.001679	0.001676	28.0841	0.009092	0.001935	4.697408	-3.202451	12.9612	0.021199	0.271409	-0.849326	-0.850645	0.049645	4.697408	-0.857253	-2.684928E+11	-1.849012E-13	NaN
784	1.000000	0.282753	7.37272e+06	-39339.1	1055.82	-29794.2	0.000000	0.000000	6.282844	-0.013761	NaN	0.000000	0.001686	0.001675	28.0838	0.124317	0.002019	61.5666	152.144	-164.217	-0.051286	0.281444	-0.839301	-0.840610	-0.013761	61.5666	-0.839133	-1.525969E+11	9.018099E-14	NaN
784	1.000000	0.292766	7.37272e+06	-39339.1	1055.82	-29794.2	0.000000	0.000000	6.292859	0.017523	NaN	0.000000	0.001685	0.001678	28.0826	0.125869	0.002051	61.3818	-36.0038	10.9864	0.003179	0.291388	-0.829287	-0.830665	0.017523	61.3818	-0.829501	-1.129857E+11	-1.550870E-13	NaN
784	1.000000	0.302739	7.37272e+06	-39339.1	1055.82	-29794.2	0.000000	0.000000	6.302832	0.039316	NaN	0.000000	0.001648	0.001737	28.084	0.077396	0.002095	36.944	-47.4186	-167.146	0.007328	0.301491	-0.819315	-0.820562	0.039316	36.944	-0.820113	-8.428375E+10	-4.664718E-13	NaN
784	1.000000	0.312771	7.37272e+06	-39339.1	1055.82	-29794.2	0.000000	0.000000	6.312863	0.011228	NaN	0.000000	0.001625	0.001704	28.0864	0.051941	0.002000	25.9666	-152.692	11.5743	-0.052682	0.311399	-0.809282	-0.810655	0.011228	25.9666	-0.809607	-6.070635E+10	-1.849628E-13	NaN
784	1.000000	0.322787	7.37272e+06	-39339.1	1055.82	-29794.2	0.000000	0.000000	6.322877	-0.045235	NaN	0.000000	0.001733	0.001733	28.0829	0.096862	0.001988	48.7122	58.7572	-169.175	-0.076006	0.321440	-0.799267	-0.800614	-0.045235	48.7122	-0.798570	-4.299849E+10	1.052023E-12	NaN
784	1.000000	0.332753	7.37272e+06	-39339.1	1055.82	-29794.2	0.000000	0.000000	6.332843	-0.041175	NaN	0.000000	0.001708	0.001760	28.0832	0.138884	0.001940	71.5934	-151.944	13.7582	-0.023648	0.331432	-0.789300	-0.790621	-0.041175	71.5934	-0.788869	-3.174823E+10	1.296929E-12	NaN
784	1.000000	0.342771	7.37272e+06	-39339.1	1055.82	-29794.2	0.000000	0.000000	6.342863	0.009638	NaN	0.000000	0.001720	0.001698	28.0831	0.061868	0.002012	30.7513	125.991	-168.87	-0.022465	0.341489	-0.779282	-0.780565	0.009638	30.7513	-0.779517	-2.369578E+10	-4.067257E-13	NaN
784	1.000000	0.352781	7.37272e+06	-39339.1	1055.82	-29794.2	0.000000	0.000000	6.352873	0.001621	NaN	0.000000	0.001628	0.001728	28.0828	0.086173	0.002000	43.0826	146.03	10.9025	-0.017258	0.351441	-0.769272	-0.770612	0.001621	43.0826	-0.769300	-1.721046E+10	-9.417213E-14	NaN
784	1.000000	0.362809	7.37272e+06	-39339.1	1055.82	-29794.2	0.000000	0.000000	6.362901	0.001764	NaN	0.000000	0.001691	0.001752	28.0827	0.048904	0.001975	24.7606	154.457	-168.902	-0.017024	0.361517	-0.759244	-0.760536	0.001764	24.7606	-0.759298	-1.258194E+10	-1.401989E-13	NaN
784	1.000000	0.372778	7.37272e+06	-39339.1	1055.82	-29794.2	0.000000	0.000000	6.372868	-0.037968	NaN	0.000000	0.001672	0.001736	28.0828	0.111577	0.002035	54.8182	-111.442	10.9368	-0.129133	0.371434	-0.749275	-0.750619	-0.037968	54.8182	-0.748756	-9.042363E+9	4.198931E-12	NaN
784	1.000000	0.382800	7.37272e+06	-39339.1	1055.82	-29794.2	0.000000	0.000000	6.382893	0.020457	NaN	0.000000	0.001694	0.001722	28.0828	0.048245	0.002058	23.439	122.882	-164.851	0.048986	0.381490	-0.739253	-0.740564	0.020457	23.439	-0.739908	-6.851728E+9	-2.985740E-12	NaN
784	1.000000	0.392814	7.37272e+06	-39339.1	1055.82	-29794.2	0.000000	0.000000	6.392903	-0.063558	NaN	0.000000	0.001681	0.001770	28.0825	0.004232	0.001998	2.118315	-73.8858	11.8139	-0.067106	0.391468	-0.729239	-0.730586	-0.063558	2.118315	-0.706736	-2.418272E+9	2.628235E-11	NaN
784	1.000000	0.402792	7.37272e+06	-39339.1	1055.82	-29794.2	0.000000	0.000000	6.402883	-0.016403	NaN	0.000000	0.001683	0.001730	28.0825	0.027219	0.002063	13.1936	113.216	-168.918	-0.044449	0.401478	-0.719262	-0.720575	-0.016403	13.1936	-0.718329	-3.480858E+9	4.712356E-12	NaN
784	1.000000	0.412814	7.37272e+06	-39339.1	1055.82	-29794.2	0.000000	0.000000	6.412909	0.074577	NaN	0.000000	0.001658	0.001721	28.0826	0.034148	0.002135	15.9941	80.8218	14.8888	-0.017664	0.411449	-0.709239	-0.710605	0.074577	15.9941	-0.712737	-2.920052E+9	-2.553959E-11	NaN
784	1.000000	0.422811	7.37272e+06	-39339.1	1055.82	-29794.2	0.000000	0.000000	6.422907	0.107854	NaN	0.000000	0.001664	0.001707	28.0836	0.047855	0.002058	23.2508	27.181	-166.523	0.033215	0.421525	-0.699242	-0.700529	0.107854	23.2508	-0.702721	-2.131531E+9	-5.059933E-11	NaN
784	1.000000	0.432805	7.37272e+06	-39339.1	1055.82	-29794.2	0.000000	0.000000	6.432897	-0.002521	NaN	0.000000	0.001693	0.001717	28.0836	0.048427	0.002030	23.8565	172.678	13.6201	0.032780	0.431448	-0.689248	-0.690605	-0.002521	23.8565	-0.689169	-1.391750E+9	1.811474E-12	NaN
784	1.000000	0.442805	7.37272e+06	-39339.1	1055.82	-29794.2	0.000000	0.000000	6.442897	-0.000463	NaN	0.000000	0.001654	0.001755	28.0837	0.056359	0.001939	29.067	-121.765	-166.427	-1.712466E-5	0.441577	-0.679248	-0.680476	-0.000463	29.067	-0.679236	-1.018021E+9	4.544095E-13	NaN
784	1.000000	0.452811	7.37272e+06	-39339.1	1055.82	-29794.2	0.000000	0.000000	6.452904	0.016924	NaN	0.000000	0.001663	0.001746	28.0839	0.017021	0.001992	8.545358	129.696	13.8047	-0.040809	0.451455	-0.669242	-0.670599	0.016924	8.545358	-0.670727	-7.786548E+8	-2.173489E-11	NaN
784	1.000000	0.462836	7.37272e+06	-39339.1	1055.82	-29794.2	0.000000	0.000000	6.462926	-0.041529	NaN	0.000000	0.001676	0.001700	28.0836	0.004112	0.002041	2.014317	-102.282	-164.477	-0.039265	0.461517	-0.659217	-0.660537	-0.041529	2.014317	-0.643754	-3.325022E+8	1.248982E-10	NaN
784	1.000000	0.472814	7.37272e+06	-39339.1	1055.82	-29794.2	0.000000	0.000000	6.472905	-0.007577	NaN	0.000000	0.001673	0.001759	28.0838	0.059963	0.001891	31.7086	-19.1259	11.716	-0.003447	0.471434	-0.649239	-0.650619	-0.007577	31.7086	-0.649060	-3.931439E+8	1.927386E-11	NaN
784	1.000000	0.482825	7.37272e+06	-39339.1	1055.82	-29794.2	0.000000	0.000000	6.482918	0.033070	NaN	0.000000	0.001677	0.001709	28.0839	0.080487	0.002048	39.2919	148.921	-165.388	0.143509	0.481469	-0.639229	-0.640585	0.033070	39.2919	-0.639860	-2.940145E+8	-1.124771E-10	NaN
784	1.000000	0.492847	7.37272e+06	-39339.1	1055.82	-29794.2	0.000000	0.000000	6.492942	0.076284	NaN	0.000000	0.001637	0.001725	28.0837	0.017004	0.002001	8.497024	118.096	15.0234	0.090993	0.491525	-0.629207	-0.630528	0.076284	8.497024	-0.635940	-2.597608E+8	-2.936705E-10	NaN
784	1.000000	0.502848	7.37272e+06	-39339.1	1055.82	-29794.2	0.000000	0.000000	6.502940	0.002491	NaN	0.000000	0.001661	0.001740	28.0837	0.032082	0.002114	15.1745	-166.762	-167.824	-0.086322	0.501516	-0.619206	-0.620538	0.002491	15.1745	-0.619329	-1.536053E+8	-1.621364E-11	NaN
784	1.000000	0.512847	7.37272e+06	-39339.1	1055.82	-29794.2	0.000000	0.000000	6.512941	0.051678	NaN	0.000000	0.001602	0.001734	28.0839	0.062299	0.001886	33.0301	-5.167475	12.3143	0.021872	0.511478	-0.609206	-0.610575	0.051678	33.0301	-0.610380	-1.157008E+8	-4.466546E-10	NaN
784	1.000000	0.522837	7.37272e+06	-39339.1	1055.82	-29794.2	0.000000	0.000000	6.522931	0.065535	NaN	0.000000	0.001595	0.001745	28.0842	0.066078	0.001998	33.0644	-32.1307	-166.025	0.038206	0.521539	-0.599217	-0.600514	0.065535	33.0644	-0.600703	-8.514282E+7	-7.697081E-10	NaN
784	1.000000	0.532863	7.37272e+06	-39339.1	1055.82	-29794.2	0.000000	0.000000	6.532954	-0.026577	NaN	0.000000	0.001638	0.001744	28.0838	0.064506	0.001987	32.4579	-161.531	14.7787	0.004510	0.531535	-0.589190	-0.590519	-0.026577	32.4579	-0.588576	-5.794748E+7	4.586317E-10	NaN
784	1.000000	0.542864	7.37272e+06	-39339.1	1055.82	-29794.2	0.000000	0.000000	6.542955	-0.035609	NaN	0.000000	0.001642	0.001760	28.0841	0.016500	0.001960	8.417728	-13.9177	-166.843	-0.024363	0.541614	-0.579189	-0.580439	-0.035609	8.417728	-0.576016	-3.888062E+7	9.158529E-10	NaN
784	1.000000	0.552857	7.37272e+06	-39339.1	1055.82	-29794.2	0.000000	0.000000	6.552949	0.021291	NaN	0.000000	0.001652	0.001733	28.0842	0.058055	0.002042	28.4298	-84.47	9.265832	0.040950	0.551531	-0.569197	-0.570523	0.021291	28.4298	-0.569759	-3.186369E+7	-6.681942E-10	NaN
784	1.000000	0.562879	7.37272e+06	-39339.1	1055.82	-29794.2	0.000000	0.000000	6.562973	0.057092	NaN	0.000000	0.001649	0.001742	28.0829	0.060284	0.002028	29.7329	12.1623	-167.005	0.074242	0.561561	-0.559174	-0.560493	0.057092	29.7329	-0.560615	-2.381656E+7	-2.397177E-9	NaN
784	1.000000	0.572883	7.37272e+06	-39339.1	1055.82	-29794.2	0.000000	0.000000	6.572975	0.015206	NaN	0.000000	0.001635	0.001764	28.0835	0.132624	0.001969	67.3488	-83.144	16.2221	0.002506	0.571521	-0.549170	-0.550533	0.015206	67.3488	-0.549340	-1.662689E+7	-9.145554E-10	NaN
784	1.000000	0.582897	7.37272e+06	-39339.1	1055.82	-29794.2	0.000000	0.000000	6.582987	-0.043943	NaN	0.000000	0.001644	0.001742	28.0829	0.040977	0.001925	21.2911	47.5171	-164.373	-0.066031	0.581514	-0.539156	-0.540539	-0.043943	21.2911	-0.537608	-1.143349E+7	3.843392E-9	NaN
784	1.000000	0.592888	7.37272e+06	-39339.1	1055.82	-29794.2	0.000000	0.000000	6.592976	-0.068357	NaN	0.000000	0.001688	0.001699	28.0834	0.071115	0.002041	34.8423	-35.2219	14.0579	-0.080937	0.591561	-0.529166	-0.530493	-0.068357	34.8423	-0.527694	-8.32817e+06	8.207958E-9	NaN
784	1.000000	0.602865	7.37272e+06	-39339.1	1055.82	-29794.2	0.000000	0.000000	6.602958	0.027374	NaN	0.000000	0.001641	0.001672	28.0829	0.029170	0.001944	15.0055	-116.325	-167.882	-0.011185	0.601598	-0.519188	-0.520455	0.027374	15.0055	-0.520556	-6.6273e+06	-4.130423E-9	NaN
784	1.000000	0.612887	7.37272e+06	-39339.1	1055.82	-29794.2	0.000000	0.000000	6.612982	0.071357	NaN	0.000000	0.001684	0.001667	28.0831	0.071026	0.002023	35.1018	157.204	10.6878	0.050841	0.611580	-0.509166	-0.510474	0.071357	35.1018	-0.510691	-4.83104e+06	-1.477061E-8	NaN
784	1.000000	0.622911	7.37272e+06	-39339.1	1055.82	-29794.2	0.000000	0.000000	6.623001	-0.022675	NaN	0.000000	0.001682	0.001653	28.083	0.040029	0.001968	20.341	93.855	-166.442	-0.071363	0.621532	-0.499143	-0.500522	-0.022675	20.341	-0.498307	-3.24633e+06	6.984737E-9	NaN
784	1.000000	0.632897	7.37272e+06	-39339.1	1055.82	-29794.2	0.000000	0.000000	6.632990	0.044670	NaN	0.000000	0.001643	0.001655	28.0834	0.079624	0.002031	39.2073	-16.0607	12.2337	0.008617	0.631524	-0.489156	-0.490529	0.044670	39.2073	-0.490011	-2.48626e+06	-1.796695E-8	NaN
784	1.000000	0.642911	7.37272e+06	-39339.1	1055.82	-29794.2	0.000000	0.000000	6.643004	0.017669	NaN	0.000000	0.001677	0.001675	28.083	0.054643	0.002080	26.2745	97.8044	-163.758	-0.011233	0.641605	-0.479142	-0.480449	0.017669	26.2745	-0.479646	-1.78064e+06	-9.923005E-9	NaN
784	1.000000	0.652931	7.37272e+06	-39339.1	1055.82	-29794.2	0.000000	0.000000	6.653024	0.028915	NaN	0.000000	0.001736	0.001657	28.0829	0.081066	0.002014	40.261	-68.1262	14.3636	0.046765	0.651461	-0.469122	-0.470592	0.028915	40.261	-0.469661	-1.29019e+06	-2.241174E-8	NaN
784	1.000000	0.662922	7.37272e+06	-39339.1	1055.82	-29794.2	0.000000	0.000000	6.663017	0.067013	NaN	0.000000	0.001637	0.001699	28.0831	0.005545	0.001997	2.776265	-139.249	-165.472	0.043996	0.661597	-0.459131	-0.460456	0.067013	2.776265	-0.477235	-1.64742e+06	-4.067781E-8	NaN
784	1.000000	0.672906	7.37272e+06	-39339.1	1055.82	-29794.2	0.000000	0.000000	6.672997	-0.008806	NaN	0.000000	0.001664	0.001685	28.0829	0.108251	0.001991	54.3621	161.477	13.0872	-0.080559	0.671552	-0.449148	-0.450501	-0.008806	54.3621	-0.449026	-661650	1.330981E-8	NaN
784	1.000000	0.682928	7.37272e+06	-39339.1	1055.82	-29794.2	0.000000	0.000000	6.683021	0.020223	NaN	0.000000	0.001633	0.001763	28.083	0.047120	0.001965	23.9765	16.8324	-166.547	0.103753	0.681660	-0.439125	-0.440394	0.020223	23.9765	-0.439758	-489714	-4.129526E-8	NaN
784	1.000000	0.692915	7.37272e+06	-39339.1	1055.82	-29794.2	0.000000	0.000000	6.693008	0.049642	NaN	0.000000	0.001662	0.001698	28.0832	0.138504	0.001887	73.4129	45.3493	15.9625	0.017101	0.691521	-0.429139	-0.430532	0.049642	73.4129	-0.429646	-352414	-1.408622E-7	NaN
784	1.000000	0.702953	7.37272e+06	-39339.1	1055.82	-29794.2	0.000000	0.000000	6.703047	0.062276	NaN	0.000000	0.001656	0.001697	28.0847	0.084887	0.002143	39.6169	160.03	-164.593	0.050397	0.701643	-0.419101	-0.420410	0.062276	39.6169	-0.420280	-259646	-2.398505E-7	NaN
784	1.000000	0.712946	7.37272e+06	-39339.1	1055.82	-29794.2	0.000000	0.000000	6.713037	-0.016985	NaN	0.000000	0.001680	0.001717	28.0841	0.034592	0.001984	17.434	-174.801	14.9108	-0.091778	0.711599	-0.409107	-0.410455	-0.016985	17.434	-0.408376	-175917	9.655318E-8	NaN
784	1.000000	0.722932	7.37272e+06	-39339.1	1055.82	-29794.2	0.000000	0.000000	6.723024	0.017329	NaN	0.000000	0.001636	0.001701	28.0842	0.105804	0.002062	51.301	13.0395	-166.54	0.009157	0.721608	-0.399121	-0.400446	0.017329	51.301	-0.399375	-130941	-1.323386E-7	NaN
784	1.000000	0.732966	7.37272e+06	-39339.1	1055.82	-29794.2	0.000000	0.000000	6.733057	-0.010747	NaN	0.000000	0.001674	0.001741	28.0843	0.071513	0.001936	36.9366	129.756	11.0311	-0.032900	0.731551	-0.389088	-0.390502	-0.010747	36.9366	-0.388869	-92680.9	1.159539E-7	NaN
784	1.000000	0.742970	7.37272e+06	-39339.1	1055.82	-29794.2	0.000000	0.000000	6.743063	0.015629	NaN	0.000000	0.001632	0.001741	28.0846	0.150019	0.001934	77.5683	-72.1205	-164.134	0.052092	0.741591	-0.379083	-0.380462	0.015629	77.5683	-0.379234	-67436.8	-2.317512E-7	NaN
784	1.000000	0.752979	7.37272e+06	-39339.1	1055.82	-29794.2	0.000000	0.000000	6.753069	-0.037199	NaN	0.000000	0.001666	0.001717	28.0843	0.026478	0.001966	13.4691	-94.9015	10.5151	-0.021358	0.751562	-0.369075	-0.370491	-0.037199	13.4691	-0.367003	-44972.5	8.271469E-7	NaN
784	1.000000	0.762918	7.37272e+06	-39339.1	1055.82	-29794.2	0.000000	0.000000	6.763010	0.012404	NaN	0.000000	0.001609	0.001703	28.0846	0.022433	0.002155	10.4086	-71.8043	-164.279	-0.101816	0.761627	-0.359136	-0.360427	0.012404	10.4086	-0.360030	-35667.6	-3.477644E-7	NaN
784	1.000000	0.772951	7.37272e+06	-39339.1	1055.82	-29794.2	0.000000	0.000000	6.773045	0.065510	NaN	0.000000	0.001633	0.001716	28.0843	0.051684	0.002023	25.5456	-169.983	10.0551	0.065933	0.771630	-0.349102	-0.350423	0.065510	25.5456	-0.351026	-26417.2	-2.479815E-6	NaN
784	1.000000	0.782985	7.37272e+06	-39339.1	1055.82	-29794.2	0.000000	0.000000	6.783079	0.050223	NaN	0.000000	0.001615	0.001741	28.0844	0.140501	0.001867	75.2685	-62.6759	-167.772	-0.007811	0.781651	-0.339068	-0.340402	0.050223	75.2685	-0.339569	-17999.8	-2.790183E-6	NaN
784	1.000000	0.792970	7.37272e+06	-39339.1	1055.82	-29794.2	0.000000	0.000000	6.793064	0.060341	NaN	0.000000	0.001634	0.001764	28.0844	0.083658	0.001955	42.8008	54.205	10.0245	0.047789	0.791636	-0.329084	-0.330418	0.060341	42.8008	-0.330141	-13107.4	-4.603585E-6	NaN
784	1.000000	0.802968	7.37272e+06	-39339.1	1055.82	-29794.2	0.000000	0.000000	6.803061	0.031654	NaN	0.000000	0.001679	0.001740	28.0845	0.032374	0.001997	16.212	-128.502	-166.971	0.028011	0.801704	-0.319085	-0.320349	0.031654	16.212	-0.320550	-9478.19	-3.339661E-6	NaN
784	1.000000	0.812989	7.37272e+06	-39339.1	1055.82	-29794.2	0.000000	0.000000	6.813081	0.023164	NaN	0.000000	0.001638	0.001715	28.0844	0.145255	0.002070	70.1712	56.1654	11.4581	-0.036658	0.811620	-0.309065	-0.310433	0.023164	70.1712	-0.309313	-6469.63	-3.580387E-6	NaN
784	1.000000	0.822973	7.37272e+06	-39339.1	1055.82	-29794.2	0.000000	0.000000	6.823066	0.035020	NaN	0.000000	0.001661	0.001734	28.0846	0.063405	0.002041	31.0581	93.0611	-166.111	-0.082274	0.821666	-0.299080	-0.300387	0.035020	31.0581	-0.299926	-4693.91	-7.460708E-6	NaN
784	1.000000	0.833002	7.37272e+06	-39339.1	1055.82	-29794.2	0.000000	0.000000	6.833094	0.009404	NaN	0.000000	0.001674	0.001740	28.083	0.021326	0.002142	9.955801	96.3704	12.4234	0.052418	0.831588	-0.289052	-0.290465	0.009404	9.955801	-0.289760	-3309.06	-2.841767E-6	NaN
784	1.000000	0.843000	7.37272e+06	-39339.1	1055.82	-29794.2	0.000000	0.000000	6.843091	-0.011584	NaN	0.000000	0.001692	0.001731	28.0832	0.044930	0.001962	22.9001	-38.9601	-166.189	-0.066796	0.841740	-0.279053	-0.280313	-0.011584	22.9001	-0.278674	-2254.01	5.139268E-6	NaN
784	1.000000	0.853006	7.37273e+06	-39339.1	1055.82	-29794.2	0.000000	0.000000	6.853094	-0.079971	NaN	0.000000	0.001681	0.001746	28.083	0.055862	0.001884	29.6511	102.997	12.4764	-0.058939	0.851680	-0.269048	-0.270374	-0.079971	29.6511	-0.267025	-1500.62	5.329195E-5	NaN
784	1.000000	0.862996	7.37273e+06	-39339.1	1055.82	-29794.2	0.000000	0.000000	6.863088	0.010527	NaN	0.000000	0.001654	0.001740	28.083	0.145755	0.002038	71.5048	138.118	-163.885	-0.035558	0.861686	-0.259057	-0.260368	0.010527	71.5048	-0.259168	-1138.04	-9.250101E-6	NaN
784	1.000000	0.872987	7.37273e+06	-39339.1	1055.82	-29794.2	0.000000	0.000000	6.873079	-0.005197	NaN	0.000000	0.001646	0.001706	28.0828	0.011789	0.002055	5.736950	144.238	13.5685	0.007529	0.871638	-0.249066	-0.250415	-0.005197	5.736950	-0.248387	-776.239	6.695006E-6	NaN
784	1.000000	0.882999	7.37273e+06	-39339.1	1055.82	-29794.2	0.000000	0.000000	6.883091	0.016539	NaN	0.000000	0.001670	0.001735	28.0832	0.112157	0.001966	57.0369	-32.5054	-164.958	0.064657	0.881703	-0.239054	-0.240351	0.016539	57.0369	-0.239272	-559.981	-2.953468E-5	NaN
784	1.000000	0.893012	7.37273e+06	-39339.1	1055.82	-29794.2	0.000000	0.000000	6.893105	0.033767	NaN	0.000000	0.001650	0.001704	28.0829	0.026858	0.002022	13.2806	163.813	11.8158	0.040448	0.891618	-0.229041	-0.230436	0.033767	13.2806	-0.230948	-414.458	-8.147249E-5	NaN
784	1.000000	0.903017	7.37273e+06	-39339.1	1055.82	-29794.2	0.000000	0.000000	6.903109	0.005450	NaN	0.000000	0.001641	0.001719	28.083	0.107344	0.002043	52.5411	31.8628	-166.704	-0.025463	0.901690	-0.219036	-0.220363	0.005450	52.5411	-0.219114	-268.849	-2.027122E-5	NaN
784	1.000000	0.913031	7.37273e+06	-39339.1	1055.82	-29794.2	0.000000	0.000000	6.913121	-0.041074	NaN	0.000000	0.001594	0.001714	28.0829	0.097765	0.001920	50.9259	-129.005	14.2523	-0.076842	0.911631	-0.209022	-0.210423	-0.041074	50.9259	-0.208417	-180.784	0.000227	NaN
784	1.000000	0.922985	7.37273e+06	-39339.1	1055.82	-29794.2	0.000000	0.000000	6.923079	0.043444	NaN	0.000000	0.001627	0.001698	28.0831	0.093313	0.001994	46.8071	84.6843	-161.943	0.007223	0.921716	-0.199068	-0.200338	0.043444	46.8071	-0.199764	-130.565	-0.000333	NaN
784	1.000000	0.933010	7.37273e+06	-39339.1	1055.82	-29794.2	0.000000	0.000000	6.933106	0.128391	NaN	0.000000	0.001596	0.001699	28.0827	0.074178	0.002100	35.3167	-99.5827	14.1041	0.038867	0.931681	-0.189044	-0.190373	0.128391	35.3167	-0.191770	-96.2852	-0.001333	NaN
784	1.000000	0.943008	7.37273e+06	-39339.1	1055.82	-29794.2	0.000000	0.000000	6.943096	-0.077086	NaN	0.000000	0.001620	0.001700	28.0829	0.059588	0.002112	28.2145	-160.134	-167.444	-0.029043	0.941680	-0.179046	-0.180373	-0.077086	28.2145	-0.176997	-54.2272	0.001422	NaN
784	1.000000	0.953061	7.37273e+06	-39339.1	1055.82	-29794.2	0.000000	0.000000	6.953153	0.017045	NaN	0.000000	0.001620	0.001698	28.0828	0.079177	0.002011	39.372	129.394	13.9396	-0.048830	0.951626	-0.168992	-0.170427	0.017045	39.372	-0.169317	-39.9712	-0.000426	NaN
784	1.000000	0.963031	7.37273e+06	-39339.1	1055.82	-29794.2	0.000000	0.000000	6.963124	0.034887	NaN	0.000000	0.001646	0.001668	28.0831	0.032315	0.002131	15.1614	-136.85	-166.566	0.025817	0.961757	-0.159023	-0.160296	0.034887	15.1614	-0.160748	-28.2666	-0.001234	NaN
784	1.000000	0.973044	7.37273e+06	-39339.1	1055.82	-29794.2	0.000000	0.000000	6.973136	0.010816	NaN	0.000000	0.001661	0.001700	28.0841	0.032564	0.001950	16.6972	49.8164	8.399291	0.056455	0.971677	-0.149009	-0.150376	0.010816	16.6972	-0.149495	-17.7333	-0.000610	NaN
784	1.000000	0.983014	7.37273e+06	-39339.1	1055.82	-29794.2	0.000000	0.000000	6.983108	0.068274	NaN	0.000000	0.001636	0.001705	28.0842	0.139636	0.001886	74.0215	67.625	-166.935	-0.011602	0.981735	-0.139040	-0.140319	0.068274	74.0215	-0.139731	-11.6928	-0.005839	NaN
784	1.000000	0.993082	7.37273e+06	-39339.1	1055.82	-29794.2	0.000000	0.000000	6.993173	-0.001548	NaN	0.000000	0.001627	0.001705	28.0844	0.100354	0.002005	50.0597	4.411699	12.6381	0.073212	0.991706	-0.128972	-0.130348	-0.001548	50.0597	-0.128948	-7.270204	0.000213	NaN
784	1.000000	1.003062	7.37273e+06	-39339.1	1055.82	-29794.2	0.000000	0.000000	7.003156	0.056015	NaN	0.000000	0.001662	0.001696	28.0841	0.135881	0.002101	64.6708	25.0954	-167.645	-0.008059	1.001778	-0.118991	-0.120276	0.056015	64.6708	-0.119641	-4.751478	-0.011789	NaN
784	1.000000	1.013067	7.37273e+06	-39339.1	1055.82	-29794.2	0.000000	0.000000	7.013161	0.055771	NaN	0.000000	0.001691	0.001694	28.084	0.104673	0.002012	52.0161	69.032	12.3424	0.117538	1.011667	-0.108986	-0.110386	0.055771	52.0161	-0.109790	-2.974769	-0.018748	NaN
784	1.000000	1.023076	7.37273e+06	-39339.1	1055.82	-29794.2	0.000000	0.000000	7.023170	0.062643	NaN	0.000000	0.001658	0.001689	28.084	0.027556	0.001920	14.3549	72.2908	-167.539	0.035196	1.021782	-0.098977	-0.100272	0.062643	14.3549	-0.102250	-2.048134	-0.030586	NaN
784	1.000000	1.033072	7.37273e+06	-39339.1	1055.82	-29794.2	0.000000	0.000000	7.033164	0.003442	NaN	0.000000	0.001628	0.001679	28.0843	0.056741	0.001933	29.3504	-157.293	12.9983	0.002056	1.031716	-0.088981	-0.090337	0.003442	29.3504	-0.089069	-1.027826	-0.003349	NaN
784	1.000000	1.043071	7.37273e+06	-39339.1	1055.82	-29794.2	0.000000	0.000000	7.043162	-0.037470	NaN	0.000000	0.001664	0.001652	28.084	0.047219	0.001957	24.133	-164.338	-168.367	-0.062531	1.041782	-0.078982	-0.080271	-0.037470	24.133	-0.077818	-0.545393	0.068703	NaN
784	1.000000	1.053072	7.37273e+06	-39339.1	1055.82	-29794.2	0.000000	0.000000	7.053164	0.007379	NaN	0.000000	0.001640	0.001700	28.0838	0.050137	0.001973	25.4059	-112.194	14.2802	0.000916	1.051688	-0.068982	-0.070365	0.007379	25.4059	-0.069200	-0.324632	-0.022732	NaN
784	1.000000	1.063084	7.37273e+06	-39339.1	1055.82	-29794.2	0.000000	0.000000	7.063173	-0.063667	NaN	0.000000	0.001674	0.001701	28.084	0.096870	0.001975	49.0567	-49.3684	-169.117	-0.057459	1.061805	-0.058969	-0.060249	-0.063667	49.0567	-0.057996	-0.157632	0.403900	NaN
784	1.000000	1.073086	7.37273e+06	-39339.1	1055.82	-29794.2	0.000000	0.000000	7.073178	-0.001053	NaN	0.000000	0.001664	0.001714	28.0838	0.114595	0.002024	56.6313	-10.994	10.8313	-0.029379	1.071772	-0.048967	-0.050281	-0.001053	56.6313	-0.048953	-0.084823	0.012409	NaN
784	1.000000	1.083084	7.37273e+06	-39339.1	1055.82	-29794.2	0.000000	0.000000	7.083174	-0.032246	NaN	0.000000	0.001620	0.001712	28.0837	0.048590	0.002038	23.8364	-129.362	-165.412	0.065283	1.081777	-0.038969	-0.040276	-0.032246	23.8364	-0.037955	-0.039220	0.822186	NaN
784	1.000000	1.093090	7.37273e+06	-39339.1	1055.82	-29794.2	0.000000	0.000000	7.093182	0.007107	NaN	0.000000	0.001628	0.001704	28.0837	0.053286	0.001989	26.7867	-67.4484	16.2825	-0.097956	1.091693	-0.028964	-0.030361	0.007107	26.7867	-0.029163	-0.021815	-0.325790	NaN
784	1.000000	1.103096	7.37273e+06	-39339.1	1055.82	-29794.2	0.000000	0.000000	7.103188	-0.008675	NaN	0.000000	0.001648	0.001706	28.0839	0.019210	0.001986	9.673822	-163.474	-166.817	0.067896	1.101805	-0.018957	-0.020249	-0.008675	9.673822	-0.018285	-0.011353	0.764119	NaN
784	1.000000	1.113090	7.37273e+06	-39339.1	1055.82	-29794.2	0.000000	0.000000	7.113180	-0.022566	NaN	0.000000	0.001644	0.001714	28.0826	0.101380	0.001944	52.1427	-37.5378	15.8187	-0.115274	1.111755	-0.008964	-0.010299	-0.022566	52.1427	-0.008639	-0.005604	4.026552	NaN
784	1.000000	1.123095	7.37273e+06	-39339.1	1055.82	-29794.2	0.000000	0.000000	7.123190	0.078381	NaN	0.000000	0.001666	0.001682	28.0827	0.128204	0.002131	60.1565	147.923	-165.133	0.101219	1.121722	0.001042	-0.000331	0.078381	60.1565	6.473559E-5	4.843818E-5	1618.16	7896.99
784	1.000000	1.133088	7.37273e+06	-39339.1	1055.82	-29794.2	0.000000	0.000000	7.133197	0.428977	NaN	0.000000	0.001678	0.001683	28.0829	0.678883	0.002132	318.473	4.728441	13.5544	0.135471	1.131711	0.011035	0.009658	0.428977	318.473	0.010024	0.009209	46.5838	3032.12
784	1.000000	1.142981	7.37273e+06	-39339.1	1055.82	-29794.2	0.000000	0.000000	7.143406	8.128101	NaN	0.000000	0.001676	0.001695	28.0827	7.563629	0.001740	4345.99	14.2757	-174.949	6.938267	1.141802	0.020927	0.019749	8.128101	4345.99	0.019525	0.021801	372.838	26892.3
784	2.000000	1.146184	7.37273e+06	-39339.1	1055.82	-29794.2	0.000000	0.000000	7.146728	10.9903	NaN	0.000000	0.001683	0.001717	28.0832	9.412014	0.001768	5325	3.625631	10.2214	10.3121	1.145843	0.024131	0.023790	10.9903	5325	0.022583	0.026765	410.624	29738
784	2.000000	1.148658	7.37273e+06	-39339.1	1055.82	-29794.2	0.000000	0.000000	7.149262	12.4811	NaN	0.000000	0.001682	0.001708	28.0827	11.6312	0.001996	5826.98	7.295086	-173.185	12.5523	1.148370	0.026604	0.026316	12.4811	5826.98	0.024998	0.031011	402.469	30231.2
784	2.000000	1.151192	7.37273e+06	-39339.1	1055.82	-29794.2	0.000000	0.000000	7.151936	15.8791	NaN	0.000000	0.001667	0.001676	28.0831	13.1509	0.001848	7115.41	8.495255	4.971500	15.8875	1.150771	0.029138	0.028718	15.8791	7115.41	0.027465	0.035652	445.385	34429.3
784	2.000000	1.153615	7.37273e+06	-39339.1	1055.82	-29794.2	0.000000	0.000000	7.154512	19.5999	NaN	0.000000	0.001676	0.001681	28.0827	14.846	0.001730	8582.18	5.080941	-175.537	18.7598	1.153293	0.031561	0.031239	19.5999	8582.18	0.029848	0.040430	484.785	38995.9
784	2.000000	1.156111	7.37273e+06	-39339.1	1055.82	-29794.2	0.000000	0.000000	7.157291	26.4933	NaN	0.000000	0.001658	0.001681	28.0833	18.2458	0.001674	10899.5	0.792355	5.842825	24.8943	1.155795	0.034057	0.033741	26.4933	10899.5	0.032234	0.045502	582.25	46683.6
784	2.000000	1.158585	7.37273e+06	-39339.1	1055.82	-29794.2	0.000000	0.000000	7.160022	32.7382	NaN	0.000000	0.001639	0.001689	28.0827	21.6535	0.001753	12352.1	7.013930	179.783	31.9861	1.158276	0.036532	0.036223	32.7382	12352.1	0.034544	0.050689	645.858	50125.3
784	2.000000	1.161145	7.37273e+06	-39339.1	1055.82	-29794.2	0.000000	0.000000	7.162801	38.0856	NaN	0.000000	0.001680	0.001698	28.0832	23.6926	0.001746	13571.3	4.929238	3.182989	39.1075	1.160763	0.039091	0.038709	38.0856	13571.3	0.036986	0.056472	674.412	52176.7
784	2.000000	1.163571	7.37273e+06	-39339.1	1055.82	-29794.2	0.000000	0.000000	7.165637	48.0474	NaN	0.000000	0.001691	0.001716	28.0827	27.3301	0.001822	15001.4	7.713921	176.81	46.7165	1.163282	0.041518	0.041229	48.0474	15001.4	0.039116	0.061763	777.932	55149.5
784	2.000000	1.166143	7.37273e+06	-39339.1	1055.82	-29794.2	0.000000	0.000000	7.168318	50.6873	NaN	0.000000	0.001644	0.001674	28.0835	30.2657	0.001873	16160.2	6.021309	-1.627995	51.3351	1.165854	0.044090	0.043801	50.6873	16160.2	0.041737	0.068595	738.936	56373.5
784	2.000000	1.168625	7.37273e+06	-39339.1	1055.82	-29794.2	0.000000	0.000000	7.171460	66.7568	NaN	0.000000	0.001660	0.001708	28.0839	32.1824	0.001752	18373.3	3.389617	179.331	67.2941	1.168242	0.046572	0.046188	66.7568	18373.3	0.043847	0.074348	897.902	61564.2
784	2.000000	1.171148	7.37273e+06	-39339.1	1055.82	-29794.2	0.000000	0.000000	7.174434	77.7388	NaN	0.000000	0.001654	0.001732	28.0852	34.4262	0.001827	18840.9	6.914560	-3.318100	77.8679	1.170693	0.049094	0.048639	77.7388	18840.9	0.046000	0.080450	966.297	60689.2
784	2.000000	1.173580	7.37273e+06	-39339.1	1055.82	-29794.2	0.000000	0.000000	7.177354	89.5983	NaN	0.000000	0.001662	0.001709	28.084	36.662	0.001863	19678.9	6.635481	176.252	88.7044	1.173218	0.051527	0.051165	89.5983	19678.9	0.048112	0.086667	1033.82	61072.7
784	2.000000	1.176041	7.37273e+06	-39339.1	1055.82	-29794.2	0.000000	0.000000	7.180196	98.869	NaN	0.000000	0.001630	0.001711	28.0842	39.0313	0.001793	21774.8	2.285854	-0.995014	95.764	1.175710	0.053988	0.053657	98.869	21774.8	0.050583	0.094222	1049.32	64811.2
784	2.000000	1.178540	7.37273e+06	-39339.1	1055.82	-29794.2	0.000000	0.000000	7.183116	109.139	NaN	0.000000	0.001662	0.001716	28.0838	41.1931	0.001769	23291.3	1.370173	179.37	106.131	1.178281	0.056487	0.056227	109.139	23291.3	0.052972	0.101821	1071.88	66688.2
784	2.000000	1.181035	7.37273e+06	-39339.1	1055.82	-29794.2	0.000000	0.000000	7.186277	125.353	NaN	0.000000	0.001678	0.001738	28.0857	43.6772	0.001927	22662	7.023088	-4.990405	122.028	1.180696	0.058981	0.058642	125.353	22662	0.054833	0.107933	1161.39	63022.1
784	2.000000	1.183541	7.37273e+06	-39339.1	1055.82	-29794.2	0.000000	0.000000	7.189207	135.651	NaN	0.000000	0.001621	0.001711	28.084	45.7344	0.001902	24051	4.952705	176.277	134.08	1.183215	0.061488	0.061162	135.651	24051	0.057258	0.116159	1167.81	64473.5
784	2.000000	1.186029	7.37273e+06	-39339.1	1055.82	-29794.2	0.000000	0.000000	7.192119	145.959	NaN	0.000000	0.001632	0.001728	28.0848	47.7071	0.001883	25335.6	1.370022	-0.624912	142.858	1.185758	0.063976	0.063704	145.959	25335.6	0.059655	0.124574	1171.66	65582.8
784	2.000000	1.188549	7.37273e+06	-39339.1	1055.82	-29794.2	0.000000	0.000000	7.195177	159.055	NaN	0.000000	0.001667	0.001728	28.084	49.8464	0.001804	27632.7	6.769084	174.016	157.949	1.188094	0.066496	0.066040	159.055	27632.7	0.062179	0.133737	1189.31	69035.1
784	2.000000	1.191026	7.37273e+06	-39339.1	1055.82	-29794.2	0.000000	0.000000	7.198190	172.1	NaN	0.000000	0.001644	0.001685	28.0844	51.1571	0.001833	27907.2	6.617400	-6.149000	167.982	1.190612	0.068973	0.068559	172.1	27907.2	0.064348	0.141859	1213.18	67695.8
784	2.000000	1.193483	7.37273e+06	-39339.1	1055.82	-29794.2	0.000000	0.000000	7.201265	187.146	NaN	0.000000	0.001731	0.001688	28.0841	52.5424	0.001854	28334.6	3.523009	176.582	183.593	1.193245	0.071430	0.071192	187.146	28334.6	0.066476	0.150049	1247.23	66830.2
784	2.000000	1.196139	7.37273e+06	-39339.1	1055.82	-29794.2	0.000000	0.000000	7.204152	192.764	NaN	0.000000	0.001756	0.001714	28.0842	56.9499	0.001898	30005.4	5.800698	-5.294363	196.906	1.195677	0.074085	0.073623	192.764	30005.4	0.069267	0.161119	1196.41	68296.6
784	2.000000	1.198519	7.37273e+06	-39339.1	1055.82	-29794.2	0.000000	0.000000	7.206998	204.099	NaN	0.000000	0.001738	0.001705	28.0843	58.5548	0.001754	33375.8	2.018507	176.048	202.173	1.198275	0.076465	0.076221	204.099	33375.8	0.071879	0.171815	1187.9	73565.4
784	2.000000	1.201048	7.37273e+06	-39339.1	1055.82	-29794.2	0.000000	0.000000	7.210307	223.084	NaN	0.000000	0.001733	0.001719	28.0841	60.0054	0.001735	34593	8.250744	-8.829594	221.161	1.200690	0.078995	0.078637	223.084	34593	0.074158	0.181412	1229.71	74204.1
784	2.000000	1.203543	7.37273e+06	-39339.1	1055.82	-29794.2	0.000000	0.000000	7.213286	234.849	NaN	0.000000	0.001720	0.001749	28.0829	62.8656	0.001675	37536.1	6.676886	170.923	234.172	1.203179	0.081490	0.081125	234.849	37536.1	0.076797	0.192833	1217.89	78096.5
784	2.000000	1.206001	7.37273e+06	-39339.1	1055.82	-29794.2	0.000000	0.000000	7.216305	248.515	NaN	0.000000	0.001711	0.001708	28.083	64.6854	0.001804	35854.7	2.815154	-4.601080	245.641	1.205720	0.083947	0.083667	248.515	35854.7	0.078749	0.201488	1233.4	72978.6
784	2.000000	1.208558	7.37273e+06	-39339.1	1055.82	-29794.2	0.000000	0.000000	7.219502	264.111	NaN	0.000000	0.001709	0.001709	28.0832	68.2055	0.001813	37611.6	7.782084	169.733	264.696	1.208154	0.086504	0.086101	264.111	37611.6	0.081238	0.212781	1241.24	74495.2
784	2.000000	1.211047	7.37273e+06	-39339.1	1055.82	-29794.2	0.000000	0.000000	7.222696	281.239	NaN	0.000000	0.001701	0.001708	28.0831	69.7804	0.001720	40572.6	4.665755	-7.471730	277.533	1.210577	0.088994	0.088523	281.239	40572.6	0.083795	0.224687	1251.69	78201.8
784	2.000000	1.213478	7.37273e+06	-39339.1	1055.82	-29794.2	0.000000	0.000000	7.225931	300.834	NaN	0.000000	0.001617	0.001725	28.083	71.7883	0.001822	39404	1.271522	176.228	296.757	1.213146	0.091424	0.091093	300.834	39404	0.085698	0.233743	1287.03	74463.6
784	2.000000	1.215965	7.37273e+06	-39339.1	1055.82	-29794.2	0.000000	0.000000	7.228909	312.74	NaN	0.000000	0.001644	0.001692	28.0831	74.1042	0.001891	39182.3	3.965524	-6.854484	307.095	1.215675	0.093912	0.093621	312.74	39182.3	0.087926	0.244556	1278.81	72389.3
784	2.000000	1.218521	7.37273e+06	-39339.1	1055.82	-29794.2	0.000000	0.000000	7.232025	326.406	NaN	0.000000	0.001619	0.001716	28.0829	77.1238	0.001891	40788.4	3.106014	173.347	325.311	1.218294	0.096467	0.096240	326.406	40788.4	0.090465	0.257162	1269.26	73486.4
784	2.000000	1.221046	7.37273e+06	-39339.1	1055.82	-29794.2	0.000000	0.000000	7.235437	347.982	NaN	0.000000	0.001608	0.001752	28.0829	78.1837	0.001969	39710.7	4.081264	-6.356262	346.789	1.220712	0.098993	0.098659	347.982	39710.7	0.092421	0.267067	1302.98	70205.4
784	2.000000	1.223386	7.37273e+06	-39339.1	1055.82	-29794.2	0.000000	0.000000	7.238621	368.52	NaN	0.000000	0.001606	0.001723	28.0829	79.0725	0.001823	43370.3	1.339130	175.272	361.995	1.223216	0.101333	0.101163	368.52	43370.3	0.094960	0.280194	1315.23	74857.7
784	2.000000	1.225986	7.37273e+06	-39339.1	1055.82	-29794.2	0.000000	0.000000	7.241832	383.382	NaN	0.000000	0.001672	0.001704	28.0831	83.0543	0.001817	45700.5	3.106475	-6.861344	381.076	1.225766	0.103932	0.103713	383.382	45700.5	0.097640	0.294370	1302.38	76956.8
784	2.000000	1.228549	7.37273e+06	-39339.1	1055.82	-29794.2	0.000000	0.000000	7.245013	398.41	NaN	0.000000	0.001657	0.001684	28.083	85.5913	0.001883	45462.4	2.138901	174.555	399.862	1.228181	0.106496	0.106128	398.41	45462.4	0.099923	0.306700	1299.02	75001.4
784	2.000000	1.230985	7.37273e+06	-39339.1	1055.82	-29794.2	0.000000	0.000000	7.248332	419.911	NaN	0.000000	0.001621	0.001712	28.0828	86.8552	0.001863	46610.3	7.170201	-10.2501	415.748	1.230568	0.108932	0.108514	419.911	46610.3	0.102175	0.319096	1315.94	75386.6
784	2.000000	1.233438	7.37273e+06	-39339.1	1055.82	-29794.2	0.000000	0.000000	7.251603	439.816	NaN	0.000000	0.001618	0.001718	28.0831	87.7242	0.001809	48495.2	4.594802	171.67	436.237	1.233148	0.111385	0.111094	439.816	48495.2	0.104583	0.332602	1322.35	76826.2
784	2.000000	1.235939	7.37273e+06	-39339.1	1055.82	-29794.2	0.000000	0.000000	7.255029	462.343	NaN	0.000000	0.001637	0.001708	28.0832	90.2313	0.001857	48601.7	5.891498	-9.404551	457.244	1.235493	0.113885	0.113439	462.343	48601.7	0.106750	0.344990	1340.17	75599.9
784	2.000000	1.238563	7.37273e+06	-39339.1	1055.82	-29794.2	0.000000	0.000000	7.258041	471.751	NaN	0.000000	0.001656	0.001731	28.0842	92.4659	0.001796	51477.1	3.393751	172.136	475.252	1.238180	0.116510	0.116127	471.751	51477.1	0.109637	0.361812	1303.86	78189
784	2.000000	1.240973	7.37273e+06	-39339.1	1055.82	-29794.2	0.000000	0.000000	7.261492	497.087	NaN	0.000000	0.001622	0.001714	28.0841	94.4877	0.001898	49793.7	6.007316	-9.747691	491.038	1.240523	0.118920	0.118470	497.087	49793.7	0.111433	0.372471	1334.57	74542.1
784	2.000000	1.242475	7.37273e+06	-39339.1	1055.82	-29794.2	0.000000	0.000000	7.263447	508.118	NaN	0.000000	0.001674	0.001687	28.084	97.3163	0.001910	50959.9	7.187736	168.751	506.944	1.242090	0.120422	0.120037	508.118	50959.9	0.112944	0.381551	1331.72	75374.6