File: remote_trans/data/nanoindenter/0828-1/data/Data_2025-08-06,11h17m57s/2025-07-22_16-23-58_1_1010.txt
2025-07-22, 16:23:58, 1
Index	Phase	Displacement	Time	Pos X	Pos Y	Pos Z	Rot A	Rot B	Piezo Z	Force A	Force B	Gripper	Voltage A	Voltage B	Temperature	Amplitude force	Amplitude pos	Stiffness	Phase shift	Phase excitation	Force A raw	Displacement raw	HMax	HMax raw	Real Force	Real Stiffness	Contact Depth	Area	Hardness	Reduced Mod.
[#]	[#]	[um]	[s]	[um]	[um]	[um]	[m°]	[m°]	[um]	[uN]	[uN]	[V]	[V]	[V]	[°C]	[uN]	[um]	[N/m]	[°]	[°]	[uN]	[um]	[um]	[um]	[uN]	[N/m]	[um]	[um^2]	[MPa]	[MPa]
1010	1.000000	0.002811	7.37493e+06	-50639.1	1055.82	-29754.9	0.000000	0.000000	6.002793	0.025872	NaN	0.000000	0.001664	0.001765	28.0816	0.059850	0.000963	62.1379	-18.8561	-168.204	0.107990	0.001583	-1.112595	-1.113824	0.025872	62.1379	-1.112908	-7.469761E+14	-3.463513E-17	NaN
1010	1.000000	0.012883	7.37493e+06	-50639.1	1055.82	-29754.9	0.000000	0.000000	6.012862	-0.032912	NaN	0.000000	0.001634	0.001792	28.0812	0.099972	0.001132	88.3261	-27.5334	14.6985	-0.046569	0.011439	-1.102524	-1.103967	-0.032912	88.3261	-1.102244	-5.372678E+14	6.125752E-17	NaN
1010	1.000000	0.022786	7.37493e+06	-50639.1	1055.82	-29754.9	0.000000	0.000000	6.022768	0.043378	NaN	0.000000	0.001654	0.001767	28.0825	0.084158	0.001641	51.286	171.072	-160.592	-0.081561	0.021490	-1.092620	-1.093917	0.043378	51.286	-1.093255	-4.069227E+14	-1.065996E-16	NaN
1010	1.000000	0.032763	7.37493e+06	-50639.1	1055.82	-29754.9	0.000000	0.000000	6.032745	0.042645	NaN	0.000000	0.001645	0.001757	28.0838	0.055057	0.002080	26.4664	-131.157	13.0606	0.012459	0.031371	-1.082644	-1.084036	0.042645	26.4664	-1.083852	-3.042691E+14	-1.401557E-16	NaN
1010	1.000000	0.042771	7.37493e+06	-50639.1	1055.82	-29754.9	0.000000	0.000000	6.042751	-0.003158	NaN	0.000000	0.001649	0.001762	28.0826	0.083330	0.001956	42.6066	-60.4529	-161.506	-0.004718	0.041442	-1.072635	-1.073965	-0.003158	42.6066	-1.072580	-2.147072E+14	1.470721E-17	NaN
1010	1.000000	0.052788	7.37493e+06	-50639.1	1055.82	-29754.9	0.000000	0.000000	6.052769	0.031251	NaN	0.000000	0.001662	0.001755	28.0827	0.060609	0.001914	31.6674	-127.296	12.2405	0.004218	0.051405	-1.062619	-1.064002	0.031251	31.6674	-1.063359	-1.614208E+14	-1.936015E-16	NaN
1010	1.000000	0.062787	7.37493e+06	-50639.1	1055.82	-29754.9	0.000000	0.000000	6.062771	0.078470	NaN	0.000000	0.001660	0.001735	28.0826	0.096944	0.001909	50.7788	31.5647	-164.17	0.027285	0.061443	-1.052620	-1.053964	0.078470	50.7788	-1.053779	-1.200069E+14	-6.538753E-16	NaN
1010	1.000000	0.072746	7.37493e+06	-50639.1	1055.82	-29754.9	0.000000	0.000000	6.072727	0.014136	NaN	0.000000	0.001649	0.001735	28.0825	0.061628	0.002081	29.6215	-25.1143	12.1895	0.024263	0.071429	-1.042661	-1.043977	0.014136	29.6215	-1.043019	-8.601187E+13	-1.643529E-16	NaN
1010	1.000000	0.082779	7.37493e+06	-50639.1	1055.82	-29754.9	0.000000	0.000000	6.082759	0.001370	NaN	0.000000	0.001656	0.001769	28.0826	0.038944	0.001982	19.6502	-161.549	-164.271	0.054402	0.081474	-1.032628	-1.033933	0.001370	19.6502	-1.032680	-6.244947E+13	-2.193161E-17	NaN
1010	1.000000	0.092771	7.37493e+06	-50639.1	1055.82	-29754.9	0.000000	0.000000	6.092749	-0.047333	NaN	0.000000	0.001640	0.001738	28.0827	0.121326	0.001832	66.222	83.4945	11.9623	-0.034974	0.091406	-1.022636	-1.024001	-0.047333	66.222	-1.022100	-4.499872E+13	1.051870E-15	NaN
1010	1.000000	0.102779	7.37493e+06	-50639.1	1055.82	-29754.9	0.000000	0.000000	6.102760	0.011771	NaN	0.000000	0.001688	0.001743	28.0824	0.017125	0.001947	8.797776	-143.141	-162.264	0.008956	0.101480	-1.012628	-1.013927	0.011771	8.797776	-1.013631	-3.461399E+13	-3.400677E-16	NaN
1010	1.000000	0.112788	7.37493e+06	-50639.1	1055.82	-29754.9	0.000000	0.000000	6.112769	0.026770	NaN	0.000000	0.001662	0.001774	28.0825	0.128595	0.001965	65.4308	100.483	16.2139	0.020756	0.111414	-1.002619	-1.003993	0.026770	65.4308	-1.002926	-2.484023E+13	-1.077668E-15	NaN
1010	1.000000	0.122803	7.37493e+06	-50639.1	1055.82	-29754.9	0.000000	0.000000	6.122781	-0.045981	NaN	0.000000	0.001672	0.001763	28.0825	0.182008	0.002114	86.1086	-9.151843	-162.701	-0.040527	0.121446	-0.992604	-0.993961	-0.045981	86.1086	-0.992204	-1.781520E+13	2.581024E-15	NaN
1010	1.000000	0.132795	7.37493e+06	-50639.1	1055.82	-29754.9	0.000000	0.000000	6.132778	0.065769	NaN	0.000000	0.001635	0.001759	28.0824	0.023684	0.001983	11.9409	-55.8335	16.374	-0.026846	0.131452	-0.982611	-0.983955	0.065769	11.9409	-0.986742	-1.503957E+13	-4.373052E-15	NaN
1010	1.000000	0.142802	7.37493e+06	-50639.1	1055.82	-29754.9	0.000000	0.000000	6.142779	-0.082363	NaN	0.000000	0.001683	0.001758	28.0828	0.097461	0.002051	47.523	1.675484	-164.145	0.028401	0.141506	-0.972605	-0.973901	-0.082363	47.523	-0.971305	-9.316409E+12	8.840674E-15	NaN
1010	1.000000	0.152808	7.37493e+06	-50639.1	1055.82	-29754.9	0.000000	0.000000	6.152787	-0.020436	NaN	0.000000	0.001706	0.001746	28.0824	0.070112	0.001964	35.6939	88.8699	15.4935	-0.030562	0.151461	-0.962599	-0.963946	-0.020436	35.6939	-0.962170	-7.016491E+12	2.912543E-15	NaN
1010	1.000000	0.162830	7.37493e+06	-50639.1	1055.82	-29754.9	0.000000	0.000000	6.162809	-0.015885	NaN	0.000000	0.001716	0.001765	28.0814	0.050724	0.002028	25.0071	-174.86	-161.106	0.012539	0.161454	-0.952577	-0.953953	-0.015885	25.0071	-0.952101	-5.132862E+12	3.094800E-15	NaN
1010	1.000000	0.172814	7.37493e+06	-50639.1	1055.82	-29754.9	0.000000	0.000000	6.172792	-0.059114	NaN	0.000000	0.001657	0.001750	28.0815	0.083647	0.002016	41.4838	117.619	14.3265	-0.026450	0.171451	-0.942593	-0.943956	-0.059114	41.4838	-0.941524	-3.695715E+12	1.599515E-14	NaN
1010	1.000000	0.182814	7.37493e+06	-50639.1	1055.82	-29754.9	0.000000	0.000000	6.182792	-0.043629	NaN	0.000000	0.001708	0.001719	28.0816	0.152961	0.001957	78.148	152.875	-166.4	-0.067538	0.181484	-0.932593	-0.933923	-0.043629	78.148	-0.932174	-2.764031E+12	1.578456E-14	NaN
1010	1.000000	0.192828	7.37493e+06	-50639.1	1055.82	-29754.9	0.000000	0.000000	6.192809	0.032429	NaN	0.000000	0.001661	0.001750	28.0812	0.069397	0.002165	32.0562	-28.0043	15.4424	0.016504	0.191465	-0.922579	-0.923942	0.032429	32.0562	-0.923338	-2.100230E+12	-1.544071E-14	NaN
1010	1.000000	0.202816	7.37493e+06	-50639.1	1055.82	-29754.9	0.000000	0.000000	6.202797	0.043417	NaN	0.000000	0.001688	0.001725	28.0811	0.078239	0.002080	37.6143	-176.353	-162.689	0.068890	0.201519	-0.912591	-0.913887	0.043417	37.6143	-0.913457	-1.544732E+12	-2.810664E-14	NaN
1010	1.000000	0.212818	7.37493e+06	-50639.1	1055.82	-29754.9	0.000000	0.000000	6.212797	-0.031770	NaN	0.000000	0.001641	0.001749	28.0812	0.137250	0.001989	68.9982	-174.894	12.2488	0.005405	0.211470	-0.902589	-0.903937	-0.031770	68.9982	-0.902243	-1.089872E+12	2.914987E-14	NaN
1010	1.000000	0.222838	7.37493e+06	-50639.1	1055.82	-29754.9	0.000000	0.000000	6.222818	-0.005910	NaN	0.000000	0.001650	0.001752	28.081	0.049105	0.001933	25.4013	159.747	-164.749	-0.054889	0.221583	-0.892569	-0.893824	-0.005910	25.4013	-0.892395	-8.022008E+11	7.367354E-15	NaN
1010	1.000000	0.232830	7.37493e+06	-50639.1	1055.82	-29754.9	0.000000	0.000000	6.232810	0.001886	NaN	0.000000	0.001674	0.001784	28.081	0.011123	0.002000	5.560386	-156.276	15.9422	0.001578	0.231448	-0.882577	-0.883958	0.001886	5.560386	-0.882831	-5.956540E+11	-3.165805E-15	NaN
1010	1.000000	0.242864	7.37493e+06	-50639.1	1055.82	-29754.9	0.000000	0.000000	6.242845	0.027762	NaN	0.000000	0.001715	0.001789	28.0811	0.119399	0.002005	59.5548	-20.2253	-165.637	0.092338	0.241541	-0.872543	-0.873866	0.027762	59.5548	-0.872892	-4.370925E+11	-6.351592E-14	NaN
1010	1.000000	0.252852	7.37493e+06	-50639.1	1055.82	-29754.9	0.000000	0.000000	6.252829	-0.081160	NaN	0.000000	0.001748	0.001777	28.0813	0.025167	0.001997	12.6023	-41.3878	17.1404	0.010121	0.251506	-0.862555	-0.863901	-0.081160	12.6023	-0.857725	-2.724745E+11	2.978629E-13	NaN
1010	1.000000	0.262842	7.37493e+06	-50639.1	1055.82	-29754.9	0.000000	0.000000	6.262821	-0.031680	NaN	0.000000	0.001716	0.001777	28.0811	0.018943	0.002001	9.466482	175.028	-166.061	-0.048928	0.261560	-0.852565	-0.853847	-0.031680	9.466482	-0.850055	-2.145256E+11	1.476727E-13	NaN
1010	1.000000	0.272867	7.37493e+06	-50639.1	1055.82	-29754.9	0.000000	0.000000	6.272849	0.037151	NaN	0.000000	0.001669	0.001788	28.081	0.037877	0.002062	18.3731	6.456791	15.0699	0.029346	0.271489	-0.842540	-0.843918	0.037151	18.3731	-0.844056	-1.779263E+11	-2.087991E-13	NaN
1010	1.000000	0.282861	7.37493e+06	-50639.1	1055.82	-29754.9	0.000000	0.000000	6.282843	0.046509	NaN	0.000000	0.001670	0.001729	28.081	0.050633	0.001965	25.7635	-138.537	-162.63	0.087595	0.281588	-0.832546	-0.833819	0.046509	25.7635	-0.833900	-1.296112E+11	-3.588353E-13	NaN
1010	1.000000	0.292898	7.37493e+06	-50639.1	1055.82	-29754.9	0.000000	0.000000	6.292879	-6.845284E-5	NaN	0.000000	0.001711	0.001757	28.0824	0.096452	0.002044	47.1918	-41.8544	14.8307	0.056027	0.291549	-0.822508	-0.823857	-6.845284E-5	47.1918	-0.822507	-9.082606E+10	7.536696E-16	NaN
1010	1.000000	0.302853	7.37493e+06	-50639.1	1055.82	-29754.9	0.000000	0.000000	6.302833	0.008672	NaN	0.000000	0.001689	0.001753	28.0822	0.028150	0.001953	14.4104	-177.655	-166.664	-0.013716	0.301565	-0.812554	-0.813842	0.008672	14.4104	-0.813005	-6.750598E+10	-1.284563E-13	NaN
1010	1.000000	0.312899	7.37493e+06	-50639.1	1055.82	-29754.9	0.000000	0.000000	6.312878	-0.040573	NaN	0.000000	0.001667	0.001762	28.0823	0.070347	0.002040	34.4899	116.467	17.3553	-0.038550	0.311536	-0.802508	-0.803871	-0.040573	34.4899	-0.801625	-4.730712E+10	8.576522E-13	NaN
1010	1.000000	0.322877	7.37493e+06	-50639.1	1055.82	-29754.9	0.000000	0.000000	6.322857	-0.015744	NaN	0.000000	0.001699	0.001748	28.0824	0.050436	0.002024	24.9209	-29.5136	-161.758	-0.021351	0.321607	-0.792529	-0.793800	-0.015744	24.9209	-0.792056	-3.507509E+10	4.488690E-13	NaN
1010	1.000000	0.332921	7.37493e+06	-50639.1	1055.82	-29754.9	0.000000	0.000000	6.332903	0.044178	NaN	0.000000	0.001698	0.001784	28.082	0.094810	0.001847	51.3408	142.036	13.6518	-0.022348	0.331502	-0.782486	-0.783904	0.044178	51.3408	-0.783131	-2.653240E+10	-1.665047E-12	NaN
1010	1.000000	0.342866	7.37493e+06	-50639.1	1055.82	-29754.9	0.000000	0.000000	6.342842	-0.082408	NaN	0.000000	0.001671	0.001761	28.0822	0.078315	0.001997	39.2069	74.4708	-165.221	-0.161174	0.341587	-0.772541	-0.773819	-0.082408	39.2069	-0.770965	-1.813104E+10	4.545153E-12	NaN
1010	1.000000	0.352888	7.37493e+06	-50639.1	1055.82	-29754.9	0.000000	0.000000	6.352867	-0.039960	NaN	0.000000	0.001722	0.001784	28.0823	0.078291	0.002011	38.9311	-10.1191	17.6529	-0.036234	0.351524	-0.762519	-0.763883	-0.039960	38.9311	-0.761749	-1.358602E+10	2.941231E-12	NaN
1010	1.000000	0.362904	7.37493e+06	-50639.1	1055.82	-29754.9	0.000000	0.000000	6.362884	0.006255	NaN	0.000000	0.001663	0.001752	28.0824	0.093141	0.002030	45.8769	150.017	-162.821	0.025244	0.361585	-0.752503	-0.753822	0.006255	45.8769	-0.752605	-1.020185E+10	-6.131606E-13	NaN
1010	1.000000	0.372902	7.37493e+06	-50639.1	1055.82	-29754.9	0.000000	0.000000	6.372883	0.033147	NaN	0.000000	0.001647	0.001785	28.0825	0.023440	0.002101	11.1571	178.99	14.8068	-0.073637	0.371537	-0.742505	-0.743870	0.033147	11.1571	-0.744733	-7.971105E+9	-4.158397E-12	NaN
1010	1.000000	0.382900	7.37493e+06	-50639.1	1055.82	-29754.9	0.000000	0.000000	6.382882	0.041897	NaN	0.000000	0.001645	0.001751	28.0822	0.058528	0.002106	27.7906	-138.952	-166.307	-0.010942	0.381594	-0.732507	-0.733813	0.041897	27.7906	-0.733638	-5.628354E+9	-7.443838E-12	NaN
1010	1.000000	0.392924	7.37493e+06	-50639.1	1055.82	-29754.9	0.000000	0.000000	6.392904	-0.014090	NaN	0.000000	0.001668	0.001740	28.0823	0.061507	0.002075	29.6406	122.767	16.4026	0.002151	0.391552	-0.722483	-0.723855	-0.014090	29.6406	-0.722126	-3.921624E+9	3.592848E-12	NaN
1010	1.000000	0.402932	7.37493e+06	-50639.1	1055.82	-29754.9	0.000000	0.000000	6.402914	0.034364	NaN	0.000000	0.001646	0.001751	28.0825	0.109519	0.001970	55.607	125.691	-164.83	0.026780	0.401592	-0.712475	-0.713815	0.034364	55.607	-0.712938	-2.938602E+9	-1.169391E-11	NaN
1010	1.000000	0.412928	7.37493e+06	-50639.1	1055.82	-29754.9	0.000000	0.000000	6.412906	-0.037615	NaN	0.000000	0.001660	0.001747	28.0824	0.087537	0.001933	45.2783	-135.804	15.532	-0.068547	0.411589	-0.702479	-0.703817	-0.037615	45.2783	-0.701856	-2.074329E+9	1.813337E-11	NaN
1010	1.000000	0.422922	7.37493e+06	-50639.1	1055.82	-29754.9	0.000000	0.000000	6.422901	-0.018759	NaN	0.000000	0.001635	0.001783	28.0823	0.042347	0.001963	21.569	-7.888188	-164.267	-0.037868	0.421609	-0.692485	-0.693798	-0.018759	21.569	-0.691833	-1.513440E+9	1.239503E-11	NaN
1010	1.000000	0.432921	7.37493e+06	-50639.1	1055.82	-29754.9	0.000000	0.000000	6.432901	-0.003368	NaN	0.000000	0.001625	0.001749	28.0815	0.011405	0.002134	5.343285	0.121336	14.3921	-0.027219	0.431565	-0.682486	-0.683842	-0.003368	5.343285	-0.682013	-1.111052E+9	3.031704E-12	NaN
1010	1.000000	0.442928	7.37493e+06	-50639.1	1055.82	-29754.9	0.000000	0.000000	6.442906	-0.041057	NaN	0.000000	0.001640	0.001765	28.081	0.028262	0.001932	14.6283	-27.9376	-163.557	-0.051498	0.441623	-0.672479	-0.673784	-0.041057	14.6283	-0.670374	-7.700357E+8	5.331803E-11	NaN
1010	1.000000	0.452942	7.37493e+06	-50639.1	1055.82	-29754.9	0.000000	0.000000	6.452923	0.019010	NaN	0.000000	0.001657	0.001759	28.0816	0.151573	0.001861	81.4279	94.7681	18.956	0.078176	0.451571	-0.662465	-0.663836	0.019010	81.4279	-0.662640	-6.034265E+8	-3.150325E-11	NaN
1010	1.000000	0.462927	7.37493e+06	-50639.1	1055.82	-29754.9	0.000000	0.000000	6.462909	0.042717	NaN	0.000000	0.001663	0.001758	28.081	0.080920	0.001852	43.6932	-168.167	-162.599	-0.071215	0.461623	-0.652480	-0.653784	0.042717	43.6932	-0.653213	-4.482073E+8	-9.530647E-11	NaN
1010	1.000000	0.472943	7.37493e+06	-50639.1	1055.82	-29754.9	0.000000	0.000000	6.472922	-0.032867	NaN	0.000000	0.001686	0.001748	28.0813	0.084196	0.002045	41.1785	23.9105	17.1783	-0.007930	0.471624	-0.642464	-0.643783	-0.032867	41.1785	-0.641865	-3.132429E+8	1.049253E-10	NaN
1010	1.000000	0.482984	7.37493e+06	-50639.1	1055.82	-29754.9	0.000000	0.000000	6.482962	-0.033327	NaN	0.000000	0.001641	0.001775	28.0806	0.161484	0.001950	82.8053	113.962	-165.932	-0.076042	0.481595	-0.632423	-0.633812	-0.033327	82.8053	-0.632121	-2.302252E+8	1.447593E-10	NaN
1010	1.000000	0.492935	7.37493e+06	-50639.1	1055.82	-29754.9	0.000000	0.000000	6.492918	0.073698	NaN	0.000000	0.001638	0.001764	28.081	0.076353	0.002025	37.711	-14.7231	15.8558	0.044489	0.491584	-0.622472	-0.623822	0.073698	37.711	-0.623938	-1.777246E+8	-4.146753E-10	NaN
1010	1.000000	0.502948	7.37493e+06	-50639.1	1055.82	-29754.9	0.000000	0.000000	6.502929	0.004295	NaN	0.000000	0.001670	0.001748	28.0811	0.115853	0.001989	58.2497	-82.1375	-164.633	-0.045048	0.501608	-0.612459	-0.613799	0.004295	58.2497	-0.612514	-1.237931E+8	-3.469178E-11	NaN
1010	1.000000	0.512952	7.37493e+06	-50639.1	1055.82	-29754.9	0.000000	0.000000	6.512932	0.016206	NaN	0.000000	0.001693	0.001725	28.081	0.055577	0.002042	27.2191	7.751111	17.0508	0.050730	0.511631	-0.602455	-0.603776	0.016206	27.2191	-0.602902	-9.128884E+7	-1.775244E-10	NaN
1010	1.000000	0.522955	7.37493e+06	-50639.1	1055.82	-29754.9	0.000000	0.000000	6.522934	-0.043297	NaN	0.000000	0.001686	0.001719	28.0811	0.039089	0.001997	19.5718	127.982	-165.539	-0.024391	0.521658	-0.592451	-0.593749	-0.043297	19.5718	-0.590792	-6.217117E+7	6.964160E-10	NaN
1010	1.000000	0.532980	7.37493e+06	-50639.1	1055.82	-29754.9	0.000000	0.000000	6.532960	-0.017177	NaN	0.000000	0.001689	0.001712	28.0811	0.052545	0.001925	27.2938	-98.8381	14.7188	0.005929	0.531623	-0.582426	-0.583784	-0.017177	27.2938	-0.581954	-4.695673E+7	3.658094E-10	NaN
1010	1.000000	0.542981	7.37493e+06	-50639.1	1055.82	-29754.9	0.000000	0.000000	6.542961	-0.005622	NaN	0.000000	0.001668	0.001728	28.0811	0.074297	0.002043	36.3744	108.346	-159.817	0.062514	0.541625	-0.572425	-0.573781	-0.005622	36.3744	-0.572309	-3.455713E+7	1.626879E-10	NaN
1010	1.000000	0.552999	7.37493e+06	-50639.1	1055.82	-29754.9	0.000000	0.000000	6.552981	0.027109	NaN	0.000000	0.001673	0.001759	28.081	0.028645	0.001914	14.9641	-65.6314	16.8534	0.061264	0.551585	-0.562407	-0.563822	0.027109	14.9641	-0.563766	-2.633091E+7	-1.029543E-9	NaN
1010	1.000000	0.562986	7.37493e+06	-50639.1	1055.82	-29754.9	0.000000	0.000000	6.562965	-0.032392	NaN	0.000000	0.001671	0.001776	28.0813	0.075068	0.002036	36.8781	82.1881	-164.371	0.034145	0.561698	-0.552421	-0.553709	-0.032392	36.8781	-0.551762	-1.796224E+7	1.803358E-9	NaN
1010	1.000000	0.572950	7.37493e+06	-50639.1	1055.82	-29754.9	0.000000	0.000000	6.572926	-0.121992	NaN	0.000000	0.001688	0.001770	28.0826	0.061719	0.001958	31.5255	89.1425	13.7028	-0.058730	0.571614	-0.542456	-0.543793	-0.121992	31.5255	-0.539554	-1.216675E+7	1.002670E-8	NaN
1010	1.000000	0.582977	7.37493e+06	-50639.1	1055.82	-29754.9	0.000000	0.000000	6.582957	-0.006957	NaN	0.000000	0.001677	0.001763	28.0824	0.083777	0.001869	44.8152	171.206	-163.168	-0.010781	0.581624	-0.532430	-0.533783	-0.006957	44.8152	-0.532314	-9.65385e+06	7.206161E-10	NaN
1010	1.000000	0.592992	7.37493e+06	-50639.1	1055.82	-29754.9	0.000000	0.000000	6.592971	-0.009343	NaN	0.000000	0.001693	0.001750	28.0822	0.083836	0.002071	40.4718	-177.533	16.759	-0.025910	0.591638	-0.522415	-0.523769	-0.009343	40.4718	-0.522242	-6.99481e+06	1.335659E-9	NaN
1010	1.000000	0.602976	7.37493e+06	-50639.1	1055.82	-29754.9	0.000000	0.000000	6.602958	0.059006	NaN	0.000000	0.001670	0.001732	28.0823	0.119636	0.001966	60.8391	-157.915	-162.559	-0.027895	0.601650	-0.512431	-0.513757	0.059006	60.8391	-0.513159	-5.22879e+06	-1.128480E-8	NaN
1010	1.000000	0.613009	7.37493e+06	-50639.1	1055.82	-29754.9	0.000000	0.000000	6.612991	0.051156	NaN	0.000000	0.001658	0.001750	28.0825	0.034999	0.001956	17.8969	150.676	14.2118	0.038914	0.611670	-0.502398	-0.503737	0.051156	17.8969	-0.504541	-3.96598e+06	-1.289876E-8	NaN
1010	1.000000	0.623003	7.37493e+06	-50639.1	1055.82	-29754.9	0.000000	0.000000	6.622984	0.021749	NaN	0.000000	0.001640	0.001731	28.0822	0.142141	0.002033	69.9006	-109.504	-165.575	0.001069	0.621699	-0.492404	-0.493708	0.021749	69.9006	-0.492638	-2.70547e+06	-8.038874E-9	NaN
1010	1.000000	0.633018	7.37493e+06	-50639.1	1055.82	-29754.9	0.000000	0.000000	6.632997	-0.017822	NaN	0.000000	0.001723	0.001707	28.0822	0.059977	0.002088	28.7215	79.4557	14.2886	-0.085172	0.631631	-0.482389	-0.483776	-0.017822	28.7215	-0.481924	-1.91625e+06	9.300287E-9	NaN
1010	1.000000	0.643044	7.37493e+06	-50639.1	1055.82	-29754.9	0.000000	0.000000	6.643022	-0.051305	NaN	0.000000	0.001717	0.001726	28.0823	0.046907	0.001897	24.7253	91.9535	-167.763	0.012091	0.641717	-0.472362	-0.473690	-0.051305	24.7253	-0.470806	-1.3388e+06	3.832148E-8	NaN
1010	1.000000	0.653023	7.37493e+06	-50639.1	1055.82	-29754.9	0.000000	0.000000	6.653004	0.007966	NaN	0.000000	0.001740	0.001740	28.0822	0.081504	0.001910	42.6758	-48.0686	18.8677	-0.001313	0.651712	-0.462383	-0.463695	0.007966	42.6758	-0.462523	-1.0244e+06	-7.775906E-9	NaN
1010	1.000000	0.663044	7.37493e+06	-50639.1	1055.82	-29754.9	0.000000	0.000000	6.663025	0.029163	NaN	0.000000	0.001729	0.001711	28.0824	0.085679	0.001896	45.191	95.1699	-165.449	0.021360	0.661756	-0.452363	-0.453651	0.029163	45.191	-0.452847	-748905	-3.894030E-8	NaN
1010	1.000000	0.672997	7.37493e+06	-50639.1	1055.82	-29754.9	0.000000	0.000000	6.672979	0.043537	NaN	0.000000	0.001727	0.001726	28.0823	0.065265	0.002059	31.7009	40.1996	15.8303	0.047850	0.671659	-0.442410	-0.443747	0.043537	31.7009	-0.443440	-551945	-7.887871E-8	NaN
1010	1.000000	0.683038	7.37493e+06	-50639.1	1055.82	-29754.9	0.000000	0.000000	6.683021	0.084010	NaN	0.000000	0.001719	0.001721	28.0827	0.076420	0.001992	38.3643	-176.31	-165.927	0.007590	0.681735	-0.432369	-0.433672	0.084010	38.3643	-0.434012	-406244	-2.067971E-7	NaN
1010	1.000000	0.693004	7.37493e+06	-50639.1	1055.82	-29754.9	0.000000	0.000000	6.692986	0.036788	NaN	0.000000	0.001775	0.001771	28.0824	0.082434	0.001991	41.4078	167.521	17.0676	0.020612	0.691704	-0.422403	-0.423703	0.036788	41.4078	-0.423069	-284395	-1.293550E-7	NaN
1010	1.000000	0.703034	7.37493e+06	-50639.1	1055.82	-29754.9	0.000000	0.000000	6.703013	-0.031545	NaN	0.000000	0.001748	0.001753	28.0815	0.075285	0.001953	38.5496	122.562	-165.646	0.004112	0.701712	-0.412373	-0.413695	-0.031545	38.5496	-0.411759	-196523	1.605165E-7	NaN
1010	1.000000	0.713059	7.37493e+06	-50639.1	1055.82	-29754.9	0.000000	0.000000	6.713037	-0.059751	NaN	0.000000	0.001707	0.001781	28.0811	0.052864	0.002062	25.635	-62.7731	16.4384	-0.019504	0.711690	-0.402347	-0.403717	-0.059751	25.635	-0.400599	-136314	4.383355E-7	NaN
1010	1.000000	0.723078	7.37493e+06	-50639.1	1055.82	-29754.9	0.000000	0.000000	6.723059	0.006718	NaN	0.000000	0.001763	0.001729	28.0817	0.084706	0.001942	43.6218	10.769	-160.799	0.014214	0.721712	-0.392328	-0.393694	0.006718	43.6218	-0.392444	-104259	-6.443541E-8	NaN
1010	1.000000	0.733057	7.37493e+06	-50639.1	1055.82	-29754.9	0.000000	0.000000	6.733037	-0.011620	NaN	0.000000	0.001779	0.001750	28.0811	0.073279	0.001953	37.5263	-78.2691	18.994	-0.010197	0.731687	-0.382350	-0.383720	-0.011620	37.5263	-0.382117	-74176.2	1.566526E-7	NaN
1010	1.000000	0.743069	7.37493e+06	-50639.1	1055.82	-29754.9	0.000000	0.000000	6.743045	-0.094653	NaN	0.000000	0.001727	0.001738	28.081	0.039040	0.001891	20.6409	-32.6894	-164.005	-0.080866	0.741733	-0.372338	-0.373674	-0.094653	20.6409	-0.368898	-47891.8	1.976387E-6	NaN
1010	1.000000	0.753059	7.37493e+06	-50639.1	1055.82	-29754.9	0.000000	0.000000	6.753037	-0.048310	NaN	0.000000	0.001773	0.001782	28.0812	0.088531	0.001963	45.094	50.3051	16.14	-0.022886	0.751714	-0.362348	-0.363693	-0.048310	45.094	-0.361544	-37511	1.287881E-6	NaN
1010	1.000000	0.763052	7.37493e+06	-50639.1	1055.82	-29754.9	0.000000	0.000000	6.763033	0.004268	NaN	0.000000	0.001737	0.001761	28.0814	0.042698	0.001964	21.7394	102.785	-164.072	0.060222	0.761769	-0.352354	-0.353638	0.004268	21.7394	-0.352502	-27751.8	-1.537940E-7	NaN
1010	1.000000	0.773055	7.37493e+06	-50639.1	1055.82	-29754.9	0.000000	0.000000	6.773034	-0.028546	NaN	0.000000	0.001718	0.001770	28.0814	0.025985	0.002023	12.8477	-134.864	14.1456	0.017026	0.771686	-0.342351	-0.343721	-0.028546	12.8477	-0.340685	-18686.9	1.527580E-6	NaN
1010	1.000000	0.783104	7.37493e+06	-50639.1	1055.82	-29754.9	0.000000	0.000000	6.783086	0.050452	NaN	0.000000	0.001721	0.001732	28.0812	0.050533	0.001951	25.8963	25.7492	-165.008	0.020153	0.781756	-0.332303	-0.333651	0.050452	25.8963	-0.333764	-14809	-3.406839E-6	NaN
1010	1.000000	0.793061	7.37493e+06	-50639.1	1055.82	-29754.9	0.000000	0.000000	6.793037	-0.086557	NaN	0.000000	0.001719	0.001739	28.0815	0.056362	0.002172	25.9524	100.108	15.1548	-0.015042	0.791757	-0.322346	-0.323650	-0.086557	25.9524	-0.319845	-9254.47	9.352951E-6	NaN
1010	1.000000	0.803069	7.37493e+06	-50639.1	1055.82	-29754.9	0.000000	0.000000	6.803049	0.005257	NaN	0.000000	0.001717	0.001793	28.0811	0.106386	0.002008	52.9873	116.231	-167.772	-0.042663	0.801755	-0.312338	-0.313652	0.005257	52.9873	-0.312412	-7189.98	-7.311396E-7	NaN
1010	1.000000	0.813086	7.37493e+06	-50639.1	1055.82	-29754.9	0.000000	0.000000	6.813066	-0.003156	NaN	0.000000	0.001670	0.001740	28.0811	0.041235	0.001954	21.1063	-6.984848	15.2339	0.052208	0.811672	-0.302321	-0.303734	-0.003156	21.1063	-0.302209	-5075.7	6.217052E-7	NaN
1010	1.000000	0.823102	7.37493e+06	-50639.1	1055.82	-29754.9	0.000000	0.000000	6.823082	-0.010113	NaN	0.000000	0.001709	0.001777	28.081	0.083619	0.001973	42.3839	-147.306	-163.086	-0.019183	0.821732	-0.292305	-0.293675	-0.010113	42.3839	-0.292126	-3590.27	2.816778E-6	NaN
1010	1.000000	0.833069	7.37493e+06	-50639.1	1055.82	-29754.9	0.000000	0.000000	6.833050	0.015152	NaN	0.000000	0.001685	0.001743	28.0824	0.145974	0.002065	70.68	-138.602	13.5975	0.109552	0.831722	-0.282338	-0.283685	0.015152	70.68	-0.282499	-2574.15	-5.886326E-6	NaN
1010	1.000000	0.843118	7.37493e+06	-50639.1	1055.82	-29754.9	0.000000	0.000000	6.843096	-0.046182	NaN	0.000000	0.001702	0.001772	28.0823	0.018950	0.001817	10.4303	131.144	-163.536	-0.086435	0.841736	-0.272289	-0.273671	-0.046182	10.4303	-0.268968	-1606.4	2.874860E-5	NaN
1010	1.000000	0.853106	7.37493e+06	-50639.1	1055.82	-29754.9	0.000000	0.000000	6.853085	-0.031839	NaN	0.000000	0.001728	0.001756	28.0824	0.118092	0.001848	63.899	83.0263	14.2586	-0.032360	0.851729	-0.262301	-0.263678	-0.031839	63.899	-0.261927	-1254.39	2.538225E-5	NaN
1010	1.000000	0.863140	7.37493e+06	-50639.1	1055.82	-29754.9	0.000000	0.000000	6.863120	-0.003044	NaN	0.000000	0.001721	0.001767	28.0825	0.119022	0.001909	62.3441	-72.2201	-165.539	0.010818	0.861774	-0.252267	-0.253633	-0.003044	62.3441	-0.252230	-890.061	3.419602E-6	NaN
1010	1.000000	0.873109	7.37493e+06	-50639.1	1055.82	-29754.9	0.000000	0.000000	6.873089	-0.001999	NaN	0.000000	0.001753	0.001776	28.0824	0.007765	0.001898	4.090363	-0.738718	16.3955	-0.019123	0.871730	-0.242298	-0.243677	-0.001999	4.090363	-0.241932	-616.164	3.243970E-6	NaN
1010	1.000000	0.883094	7.37493e+06	-50639.1	1055.82	-29754.9	0.000000	0.000000	6.883077	0.072544	NaN	0.000000	0.001738	0.001780	28.0823	0.071515	0.002046	34.9528	119.25	-166.099	0.018827	0.881765	-0.232313	-0.233641	0.072544	34.9528	-0.233870	-460.773	-0.000157	NaN
1010	1.000000	0.893118	7.37493e+06	-50639.1	1055.82	-29754.9	0.000000	0.000000	6.893095	-0.062232	NaN	0.000000	0.001714	0.001747	28.0824	0.092408	0.002049	45.1083	-148.501	11.1343	-0.026216	0.891777	-0.222289	-0.223630	-0.062232	45.1083	-0.221254	-290.875	0.000214	NaN
1010	1.000000	0.903117	7.37493e+06	-50639.1	1055.82	-29754.9	0.000000	0.000000	6.903100	0.056169	NaN	0.000000	0.001729	0.001716	28.0825	0.102876	0.001880	54.7259	97.9858	-167.115	0.070896	0.901815	-0.212290	-0.213592	0.056169	54.7259	-0.213059	-214.911	-0.000261	NaN
1010	1.000000	0.913102	7.37493e+06	-50639.1	1055.82	-29754.9	0.000000	0.000000	6.913082	0.000633	NaN	0.000000	0.001718	0.001741	28.0824	0.056411	0.001986	28.4009	162.523	12.851	0.019652	0.911793	-0.202305	-0.203614	0.000633	28.4009	-0.202322	-143.809	-4.400666E-6	NaN
1010	1.000000	0.923141	7.37493e+06	-50639.1	1055.82	-29754.9	0.000000	0.000000	6.923121	-0.007147	NaN	0.000000	0.001706	0.001759	28.0823	0.055637	0.002129	26.1385	-16.3847	-161.224	-0.096915	0.921849	-0.192265	-0.193558	-0.007147	26.1385	-0.192060	-97.3613	7.340354E-5	NaN
1010	1.000000	0.933147	7.37493e+06	-50639.1	1055.82	-29754.9	0.000000	0.000000	6.933128	0.011059	NaN	0.000000	0.001669	0.001779	28.0826	0.031315	0.001917	16.3332	-48.2951	16.8279	-0.005318	0.931810	-0.182259	-0.183597	0.011059	16.3332	-0.182767	-67.9866	-0.000163	NaN
1010	1.000000	0.943128	7.37493e+06	-50639.1	1055.82	-29754.9	0.000000	0.000000	6.943108	-0.010581	NaN	0.000000	0.001703	0.001747	28.0826	0.080749	0.002037	39.6356	141.11	-164.574	-0.038840	0.941827	-0.172278	-0.173580	-0.010581	39.6356	-0.172078	-44.6294	0.000237	NaN
1010	1.000000	0.953138	7.37493e+06	-50639.1	1055.82	-29754.9	0.000000	0.000000	6.953118	0.005589	NaN	0.000000	0.001675	0.001763	28.0825	0.064231	0.001965	32.6797	166.066	14.0241	-0.010983	0.951761	-0.162269	-0.163646	0.005589	32.6797	-0.162397	-30.2315	-0.000185	NaN
1010	1.000000	0.963140	7.37493e+06	-50639.1	1055.82	-29754.9	0.000000	0.000000	6.963120	-0.001363	NaN	0.000000	0.001637	0.001782	28.0824	0.058319	0.001943	30.0088	-38.0613	-161.776	0.043262	0.961804	-0.152267	-0.153603	-0.001363	30.0088	-0.152233	-19.8887	6.851447E-5	NaN
1010	1.000000	0.973173	7.37493e+06	-50639.1	1055.82	-29754.9	0.000000	0.000000	6.973157	0.070917	NaN	0.000000	0.001662	0.001754	28.0825	0.010324	0.002035	5.073120	12.4998	13.7609	0.104704	0.971783	-0.142233	-0.143624	0.070917	5.073120	-0.152718	-20.2948	-0.003494	NaN
1010	1.000000	0.983179	7.37493e+06	-50639.1	1055.82	-29754.9	0.000000	0.000000	6.983159	0.004191	NaN	0.000000	0.001688	0.001757	28.0812	0.126341	0.002006	62.9895	169.96	-166.896	-0.015579	0.981846	-0.132228	-0.133560	0.004191	62.9895	-0.132278	-8.434858	-0.000497	NaN
1010	1.000000	0.993144	7.37493e+06	-50639.1	1055.82	-29754.9	0.000000	0.000000	6.993123	-0.019975	NaN	0.000000	0.001718	0.001715	28.0811	0.038531	0.002053	18.7707	33.9473	15.346	0.027985	0.991808	-0.122263	-0.123599	-0.019975	18.7707	-0.121465	-5.170764	0.003863	NaN
1010	1.000000	1.003159	7.37493e+06	-50639.1	1055.82	-29754.9	0.000000	0.000000	7.003139	0.010132	NaN	0.000000	0.001626	0.001754	28.0812	0.106721	0.002071	51.5366	-177.875	-165.176	0.036276	1.001810	-0.112248	-0.113596	0.010132	51.5366	-0.112395	-3.373665	-0.003003	NaN
1010	1.000000	1.013132	7.37493e+06	-50639.1	1055.82	-29754.9	0.000000	0.000000	7.013115	0.070784	NaN	0.000000	0.001674	0.001768	28.0814	0.120352	0.002034	59.169	-32.0123	13.7536	0.024105	1.011823	-0.102275	-0.103584	0.070784	59.169	-0.103172	-2.145374	-0.032994	NaN
1010	1.000000	1.023136	7.37493e+06	-50639.1	1055.82	-29754.9	0.000000	0.000000	7.023114	-0.060944	NaN	0.000000	0.001679	0.001779	28.0809	0.095255	0.002047	46.537	-72.8627	-165.69	0.061904	1.021843	-0.092271	-0.093564	-0.060944	46.537	-0.091288	-1.158590	0.052602	NaN
1010	1.000000	1.033160	7.37493e+06	-50639.1	1055.82	-29754.9	0.000000	0.000000	7.033139	-0.024880	NaN	0.000000	0.001668	0.001738	28.081	0.092768	0.001938	47.8688	0.388321	10.8198	-0.028050	1.031793	-0.082247	-0.083614	-0.024880	47.8688	-0.081857	-0.688410	0.036141	NaN
1010	1.000000	1.043190	7.37493e+06	-50639.1	1055.82	-29754.9	0.000000	0.000000	7.043171	0.016772	NaN	0.000000	0.001676	0.001753	28.0811	0.137886	0.002037	67.7065	56.2187	-166.452	0.025851	1.041769	-0.072217	-0.073638	0.016772	67.7065	-0.072402	-0.395104	-0.042449	NaN
1010	1.000000	1.053145	7.37493e+06	-50639.1	1055.82	-29754.9	0.000000	0.000000	7.053127	0.035638	NaN	0.000000	0.001689	0.001775	28.081	0.137117	0.001972	69.5373	-71.7741	15.6725	0.096814	1.051808	-0.062261	-0.063599	0.035638	69.5373	-0.062646	-0.214161	-0.166407	NaN
1010	1.000000	1.063185	7.37493e+06	-50639.1	1055.82	-29754.9	0.000000	0.000000	7.063164	-0.014330	NaN	0.000000	0.001692	0.001740	28.0808	0.067642	0.001916	35.3071	-22.8649	-164.651	0.033579	1.061832	-0.052222	-0.053574	-0.014330	35.3071	-0.051917	-0.104234	0.137481	NaN
1010	1.000000	1.073193	7.37493e+06	-50639.1	1055.82	-29754.9	0.000000	0.000000	7.073171	-0.043530	NaN	0.000000	0.001730	0.001758	28.081	0.039342	0.001975	19.9226	-63.935	12.22	-0.098298	1.071853	-0.042214	-0.043554	-0.043530	19.9226	-0.040575	-0.047080	0.924582	NaN
1010	1.000000	1.083194	7.37493e+06	-50639.1	1055.82	-29754.9	0.000000	0.000000	7.083175	0.039211	NaN	0.000000	0.001707	0.001744	28.0812	0.028335	0.002025	13.9947	135.089	-165.351	0.047223	1.081899	-0.032213	-0.033508	0.039211	13.9947	-0.034314	-0.030574	-1.282484	NaN
1010	1.000000	1.093221	7.37493e+06	-50639.1	1055.82	-29754.9	0.000000	0.000000	7.093200	-0.038195	NaN	0.000000	0.001722	0.001774	28.0811	0.049748	0.002093	23.7708	57.7285	10.8691	0.011257	1.091862	-0.022185	-0.023544	-0.038195	23.7708	-0.020980	-0.013303	2.871260	NaN
1010	1.000000	1.103228	7.37493e+06	-50639.1	1055.82	-29754.9	0.000000	0.000000	7.103208	-0.008831	NaN	0.000000	0.001639	0.001738	28.081	0.149140	0.002059	72.4414	-174.356	-166.65	0.007595	1.101881	-0.012179	-0.013526	-0.008831	72.4414	-0.012087	-0.007578	1.165248	NaN
1010	1.000000	1.113189	7.37493e+06	-50639.1	1055.82	-29754.9	0.000000	0.000000	7.113170	0.024728	NaN	0.000000	0.001654	0.001731	28.0825	0.248205	0.002113	117.467	31.9322	14.8522	-0.045707	1.111837	-0.002218	-0.003570	0.024728	117.467	-0.002376	-0.001698	-14.5633	NaN
1010	2.000000	1.122643	7.37493e+06	-50639.1	1055.82	-29754.9	0.000000	0.000000	7.122976	8.587346	NaN	0.000000	0.001582	0.001721	28.0825	8.250826	0.001563	5279.25	8.167667	-173.209	8.142393	1.121826	0.007236	0.006419	8.587346	5279.25	0.006016	0.005080	1690.48	67673.8
1010	2.000000	1.125331	7.37493e+06	-50639.1	1055.82	-29754.9	0.000000	0.000000	7.125767	11.0911	NaN	0.000000	0.001648	0.001733	28.0824	10.8627	0.001576	6892.03	7.892069	5.091304	9.828854	1.124901	0.009924	0.009494	11.0911	6892.03	0.008717	0.007790	1423.73	71342
1010	2.000000	1.127753	7.37493e+06	-50639.1	1055.82	-29754.9	0.000000	0.000000	7.128340	14.7658	NaN	0.000000	0.001651	0.001755	28.0824	13.463	0.001686	7984.48	4.444379	-173.42	14.0787	1.127468	0.012346	0.012061	14.7658	7984.48	0.010959	0.010267	1438.17	71994
1010	2.000000	1.130232	7.37493e+06	-50639.1	1055.82	-29754.9	0.000000	0.000000	7.130946	17.8511	NaN	0.000000	0.001691	0.001688	28.0825	16.4134	0.001783	9206.02	6.562163	3.566488	17.1031	1.129954	0.014825	0.014547	17.8511	9206.02	0.013371	0.013174	1355.06	73281.1
1010	2.000000	1.132755	7.37493e+06	-50639.1	1055.82	-29754.9	0.000000	0.000000	7.133627	21.6964	NaN	0.000000	0.001661	0.001745	28.0825	18.8428	0.001872	10063.7	7.526772	-177.682	21.1488	1.132413	0.017348	0.017006	21.6964	10063.7	0.015731	0.016273	1333.3	72077.6
1010	2.000000	1.135284	7.37493e+06	-50639.1	1055.82	-29754.9	0.000000	0.000000	7.136344	26.262	NaN	0.000000	0.001673	0.001768	28.0825	20.8327	0.001793	11616.7	9.322833	0.229363	26.7897	1.134852	0.019877	0.019445	26.262	11616.7	0.018182	0.019765	1328.71	75492.9
1010	2.000000	1.137723	7.37493e+06	-50639.1	1055.82	-29754.9	0.000000	0.000000	7.139089	33.696	NaN	0.000000	0.001683	0.001770	28.0825	23.3026	0.001732	13457.1	6.579942	179.854	33.0521	1.137378	0.022316	0.021971	33.696	13457.1	0.020438	0.023235	1450.2	80658.3
1010	2.000000	1.140264	7.37493e+06	-50639.1	1055.82	-29754.9	0.000000	0.000000	7.141862	39.3348	NaN	0.000000	0.001690	0.001747	28.0826	26.1101	0.001849	14125	5.081944	2.136156	39.2204	1.139855	0.024858	0.024448	39.3348	14125	0.022769	0.027082	1452.46	78419.5
1010	2.000000	1.142703	7.37493e+06	-50639.1	1055.82	-29754.9	0.000000	0.000000	7.144593	46.4583	NaN	0.000000	0.001687	0.001740	28.0823	29.1106	0.001816	16025.9	6.643194	179.317	45.392	1.142423	0.027296	0.027016	46.4583	16025.9	0.025122	0.031237	1487.27	82843.3
1010	2.000000	1.145214	7.37493e+06	-50639.1	1055.82	-29754.9	0.000000	0.000000	7.147484	55.6802	NaN	0.000000	0.001653	0.001743	28.0825	30.7419	0.001916	16041.2	4.504529	2.068072	54.3793	1.144842	0.029807	0.029435	55.6802	16041.2	0.027204	0.035147	1584.22	78174.7
1010	2.000000	1.147691	7.37493e+06	-50639.1	1055.82	-29754.9	0.000000	0.000000	7.150159	60.4962	NaN	0.000000	0.001700	0.001734	28.0823	33.4267	0.001897	17622.3	6.072915	178.985	60.0005	1.147425	0.032285	0.032018	60.4962	17622.3	0.029710	0.040145	1506.96	80356.5
1010	2.000000	1.150205	7.37493e+06	-50639.1	1055.82	-29754.9	0.000000	0.000000	7.153129	71.6013	NaN	0.000000	0.001657	0.001819	28.0826	36.3337	0.001838	19768.1	10.1046	-6.042895	69.9115	1.149848	0.034798	0.034441	71.6013	19768.1	0.032081	0.045168	1585.21	84980.9
1010	2.000000	1.152664	7.37493e+06	-50639.1	1055.82	-29754.9	0.000000	0.000000	7.155982	81.1764	NaN	0.000000	0.001768	0.001768	28.0824	37.5992	0.001701	22108.9	1.733009	-179.246	79.6901	1.152364	0.037257	0.036958	81.1764	22108.9	0.034503	0.050595	1604.44	89802.3
1010	2.000000	1.155178	7.37493e+06	-50639.1	1055.82	-29754.9	0.000000	0.000000	7.158858	89.9931	NaN	0.000000	0.001737	0.001774	28.0812	39.8387	0.001694	23522	4.828912	-2.259981	87.332	1.154806	0.039771	0.039399	89.9931	23522	0.036901	0.056266	1599.43	90599.4
1010	2.000000	1.157634	7.37493e+06	-50639.1	1055.82	-29754.9	0.000000	0.000000	7.161785	101.408	NaN	0.000000	0.001727	0.001740	28.0813	42.4662	0.001772	23964	4.642626	176.862	98.6893	1.157308	0.042228	0.041901	101.408	23964	0.039054	0.061606	1646.06	88210.6
1010	2.000000	1.160146	7.37493e+06	-50639.1	1055.82	-29754.9	0.000000	0.000000	7.164498	106.315	NaN	0.000000	0.001723	0.001757	28.0813	46.0158	0.001767	26038.6	3.842611	-2.977072	104.679	1.159821	0.044739	0.044414	106.315	26038.6	0.041677	0.068435	1553.52	90939.7
1010	2.000000	1.162729	7.37493e+06	-50639.1	1055.82	-29754.9	0.000000	0.000000	7.167523	117.047	NaN	0.000000	0.001725	0.001765	28.081	49.0866	0.001792	27384.9	4.369544	175.768	119.69	1.162408	0.047322	0.047001	117.047	27384.9	0.044117	0.075100	1558.55	91298.7
1010	2.000000	1.165204	7.37493e+06	-50639.1	1055.82	-29754.9	0.000000	0.000000	7.170471	128.552	NaN	0.000000	0.001668	0.001755	28.0809	51.2292	0.001957	26177.6	5.723386	-4.295487	127.459	1.164760	0.049797	0.049353	128.552	26177.6	0.046114	0.080782	1591.34	84148.1
1010	2.000000	1.167692	7.37493e+06	-50639.1	1055.82	-29754.9	0.000000	0.000000	7.173396	139.203	NaN	0.000000	0.001696	0.001749	28.0812	53.4276	0.001924	27775.9	9.325389	171.247	140.274	1.167317	0.052285	0.051911	139.203	27775.9	0.048526	0.087911	1583.45	85589.1
1010	2.000000	1.170088	7.37493e+06	-50639.1	1055.82	-29754.9	0.000000	0.000000	7.176394	153.817	NaN	0.000000	0.001685	0.001796	28.0809	54.6663	0.001811	30186.5	7.093704	-7.854683	148.918	1.169762	0.054682	0.054355	153.817	30186.5	0.050860	0.095090	1617.6	89437.6
1010	2.000000	1.172630	7.37493e+06	-50639.1	1055.82	-29754.9	0.000000	0.000000	7.179414	165.456	NaN	0.000000	0.001662	0.001766	28.081	57.021	0.001797	31735.9	3.660420	176.093	165.756	1.172327	0.057223	0.056921	165.456	31735.9	0.053313	0.102929	1607.48	90376.4
1010	2.000000	1.175096	7.37493e+06	-50639.1	1055.82	-29754.9	0.000000	0.000000	7.182531	181.299	NaN	0.000000	0.001704	0.001686	28.0809	58.9598	0.001910	30861.2	6.142297	-5.762540	177.896	1.174741	0.059689	0.059334	181.299	30861.2	0.055283	0.109439	1656.61	85231.2
1010	2.000000	1.177638	7.37493e+06	-50639.1	1055.82	-29754.9	0.000000	0.000000	7.185546	192.798	NaN	0.000000	0.001681	0.001718	28.0814	60.717	0.001756	34580.4	2.920326	176.103	192.316	1.177322	0.062231	0.061915	192.798	34580.4	0.058050	0.118908	1621.4	91621.6
1010	2.000000	1.180113	7.37493e+06	-50639.1	1055.82	-29754.9	0.000000	0.000000	7.188511	204.695	NaN	0.000000	0.001669	0.001713	28.0811	63.0394	0.001903	33121.3	2.508704	-3.097056	200.645	1.179776	0.064707	0.064370	204.695	33121.3	0.060071	0.126064	1623.73	85228.3
1010	2.000000	1.182616	7.37493e+06	-50639.1	1055.82	-29754.9	0.000000	0.000000	7.191690	221.128	NaN	0.000000	0.001677	0.001759	28.0812	65.0137	0.001702	38192.1	3.425764	175.024	219.015	1.182276	0.067210	0.066869	221.128	38192.1	0.062867	0.136290	1622.48	94518.1
1010	2.000000	1.185126	7.37493e+06	-50639.1	1055.82	-29754.9	0.000000	0.000000	7.194607	231.023	NaN	0.000000	0.001677	0.001741	28.0814	66.9552	0.001694	39530.6	5.298336	-8.156074	226.089	1.184763	0.069720	0.069356	231.023	39530.6	0.065336	0.145636	1586.3	94639.3
1010	2.000000	1.187683	7.37493e+06	-50639.1	1055.82	-29754.9	0.000000	0.000000	7.197794	246.367	NaN	0.000000	0.001692	0.001738	28.0817	69.1878	0.001818	38063.7	5.469416	172.366	248.894	1.187288	0.072276	0.071881	246.367	38063.7	0.067422	0.153758	1602.31	88688
1010	2.000000	1.190106	7.37493e+06	-50639.1	1055.82	-29754.9	0.000000	0.000000	7.201039	266.357	NaN	0.000000	0.001698	0.001716	28.0823	71.7886	0.001701	42204.3	4.056240	-7.372433	262.519	1.189738	0.074699	0.074331	266.357	42204.3	0.069966	0.163948	1624.64	95230.6
1010	2.000000	1.192646	7.37493e+06	-50639.1	1055.82	-29754.9	0.000000	0.000000	7.204108	279.204	NaN	0.000000	0.001710	0.001761	28.0828	75.0051	0.001779	42156.8	2.152184	174.784	278.15	1.192430	0.077239	0.077023	279.204	42156.8	0.072272	0.173452	1609.69	92480.7
1010	2.000000	1.195116	7.37493e+06	-50639.1	1055.82	-29754.9	0.000000	0.000000	7.207316	297.161	NaN	0.000000	0.001677	0.001712	28.0827	76.4857	0.001744	43866.2	3.734830	-7.079437	293.578	1.194732	0.079709	0.079326	297.161	43866.2	0.074628	0.183422	1620.09	93578.7
1010	2.000000	1.197724	7.37493e+06	-50639.1	1055.82	-29754.9	0.000000	0.000000	7.210428	309.421	NaN	0.000000	0.001722	0.001690	28.0828	79.798	0.001743	45788.3	5.942101	170.394	313.735	1.197295	0.082317	0.081888	309.421	45788.3	0.077249	0.194818	1588.26	94779.2
1010	2.000000	1.200069	7.37493e+06	-50639.1	1055.82	-29754.9	0.000000	0.000000	7.213507	327.269	NaN	0.000000	0.001691	0.001649	28.0824	81.4355	0.001763	46180.1	2.628563	-6.505374	320.314	1.199771	0.084662	0.084364	327.269	46180.1	0.079347	0.204176	1602.87	93373.8
1010	2.000000	1.202544	7.37493e+06	-50639.1	1055.82	-29754.9	0.000000	0.000000	7.216728	345.408	NaN	0.000000	0.001665	0.001668	28.0826	85.3765	0.001755	48653.9	7.584761	168.032	340.574	1.202233	0.087137	0.086826	345.408	48653.9	0.081813	0.215432	1603.33	95771.4
1010	2.000000	1.205132	7.37494e+06	-50639.1	1055.82	-29754.9	0.000000	0.000000	7.220193	366.742	NaN	0.000000	0.001660	0.001692	28.0824	85.8001	0.001651	51957.7	2.602768	-6.301091	364.144	1.204687	0.089725	0.089280	366.742	51957.7	0.084431	0.227694	1610.68	99482.6
1010	2.000000	1.207485	7.37494e+06	-50639.1	1055.82	-29754.9	0.000000	0.000000	7.223263	384.186	NaN	0.000000	0.001662	0.001686	28.0824	89.3508	0.001834	48725.2	5.606742	170.41	378.256	1.207245	0.092078	0.091838	384.186	48725.2	0.086164	0.235986	1628	91639.6
1010	2.000000	1.210040	7.37494e+06	-50639.1	1055.82	-29754.9	0.000000	0.000000	7.226782	407.615	NaN	0.000000	0.001660	0.001682	28.0822	90.9221	0.001707	53259.6	3.577463	-7.835695	401.393	1.209753	0.094633	0.094347	407.615	53259.6	0.088893	0.249322	1634.89	97452
1010	2.000000	1.212593	7.37494e+06	-50639.1	1055.82	-29754.9	0.000000	0.000000	7.229856	420.289	NaN	0.000000	0.001627	0.001671	28.0827	94.7945	0.001767	53653.4	1.901808	173.237	418.076	1.212356	0.097186	0.096949	420.289	53653.4	0.091311	0.261424	1607.69	95873.2
1010	2.000000	1.215088	7.37494e+06	-50639.1	1055.82	-29754.9	0.000000	0.000000	7.233256	442.312	NaN	0.000000	0.001654	0.001703	28.0822	96.7348	0.001845	52443.7	5.901039	-10.0334	438.146	1.214700	0.099681	0.099293	442.312	52443.7	0.093355	0.271865	1626.95	91894.6
1010	2.000000	1.217710	7.37494e+06	-50639.1	1055.82	-29754.9	0.000000	0.000000	7.236375	454.37	NaN	0.000000	0.001618	0.001703	28.0823	97.9408	0.001780	55013.4	2.843554	172.601	459.753	1.217308	0.102303	0.101901	454.37	55013.4	0.096109	0.286231	1587.43	93947.1
1010	2.000000	1.220154	7.37494e+06	-50639.1	1055.82	-29754.9	0.000000	0.000000	7.239804	478.35	NaN	0.000000	0.001659	0.001682	28.0822	101.472	0.001717	59092.5	7.585066	-12.4009	480.16	1.219657	0.104747	0.104250	478.35	59092.5	0.098676	0.299932	1594.86	98581.3
1010	2.000000	1.221053	7.37494e+06	-50639.1	1055.82	-29754.9	0.000000	0.000000	7.240648	477.008	NaN	0.000000	0.001665	0.001707	28.0822	101.267	0.001848	54788.5	5.579477	-10.9931	472.25	1.220820	0.105646	0.105413	477.008	54788.5	0.099116	0.302314	1577.86	91040.2