File: remote_trans/data/nanoindenter/0828-1/data/Data_2025-08-06,11h17m57s/2025-07-22_16-23-58_1_1004.txt
2025-07-22, 16:23:58, 1
Index	Phase	Displacement	Time	Pos X	Pos Y	Pos Z	Rot A	Rot B	Piezo Z	Force A	Force B	Gripper	Voltage A	Voltage B	Temperature	Amplitude force	Amplitude pos	Stiffness	Phase shift	Phase excitation	Force A raw	Displacement raw	HMax	HMax raw	Real Force	Real Stiffness	Contact Depth	Area	Hardness	Reduced Mod.
[#]	[#]	[um]	[s]	[um]	[um]	[um]	[m°]	[m°]	[um]	[uN]	[uN]	[V]	[V]	[V]	[°C]	[uN]	[um]	[N/m]	[°]	[°]	[uN]	[um]	[um]	[um]	[uN]	[N/m]	[um]	[um^2]	[MPa]	[MPa]
1004	1.000000	0.002487	7.37487e+06	-50339.1	1055.82	-29756	0.000000	0.000000	6.002810	-0.060480	NaN	0.000000	0.001509	0.001741	28.0845	0.104148	0.001124	92.6338	151.649	-164.702	-0.102786	0.001237	-1.055522	-1.056772	-0.060480	92.6338	-1.055032	-1.247547E+14	4.847892E-16	NaN
1004	1.000000	0.010440	7.37487e+06	-50339.1	1055.82	-29756	0.000000	0.000000	6.010765	-0.024002	NaN	0.000000	0.001609	0.001771	28.0845	0.073989	0.000895	82.6728	-92.1284	-164.017	-0.013851	0.009085	-1.047569	-1.048924	-0.024002	82.6728	-1.047351	-9.835611E+13	2.440325E-16	NaN
1004	1.000000	0.018447	7.37487e+06	-50339.1	1055.82	-29756	0.000000	0.000000	6.018771	-0.035124	NaN	0.000000	0.001605	0.001798	28.0844	0.031570	0.001638	19.2789	170.14	-168.898	-0.102601	0.017123	-1.039562	-1.040886	-0.035124	19.2789	-1.038196	-7.408075E+13	4.741254E-16	NaN
1004	1.000000	0.026501	7.37487e+06	-50339.1	1055.82	-29756	0.000000	0.000000	6.026826	-0.007348	NaN	0.000000	0.001584	0.001764	28.0845	0.179349	0.001992	90.057	137.462	-165.771	-0.053109	0.025079	-1.031508	-1.032930	-0.007348	90.057	-1.031447	-6.010969E+13	1.222360E-16	NaN
1004	1.000000	0.034440	7.37487e+06	-50339.1	1055.82	-29756	0.000000	0.000000	6.034763	-0.073438	NaN	0.000000	0.001631	0.001764	28.0845	0.052180	0.001817	28.7169	124.626	-164.988	-0.066607	0.033107	-1.023569	-1.024902	-0.073438	28.7169	-1.021651	-4.437796E+13	1.654836E-15	NaN
1004	1.000000	0.042413	7.37487e+06	-50339.1	1055.82	-29756	0.000000	0.000000	6.042735	-0.084892	NaN	0.000000	0.001609	0.001749	28.0849	0.054932	0.002060	26.6648	15.8996	-167.643	-0.074179	0.041137	-1.015596	-1.016872	-0.084892	26.6648	-1.013209	-3.416370E+13	2.484854E-15	NaN
1004	1.000000	0.050438	7.37487e+06	-50339.1	1055.82	-29756	0.000000	0.000000	6.050763	-0.014180	NaN	0.000000	0.001617	0.001783	28.0846	0.028661	0.002022	14.1748	173.133	-167.165	-0.004533	0.049110	-1.007571	-1.008899	-0.014180	14.1748	-1.006821	-2.802801E+13	5.059341E-16	NaN
1004	1.000000	0.058417	7.37487e+06	-50339.1	1055.82	-29756	0.000000	0.000000	6.058740	-0.071854	NaN	0.000000	0.001635	0.001752	28.0846	0.120032	0.002082	57.6651	27.804	-164.857	0.003389	0.057155	-0.999592	-1.000854	-0.071854	57.6651	-0.998657	-2.176156E+13	3.301893E-15	NaN
1004	1.000000	0.066422	7.37487e+06	-50339.1	1055.82	-29756	0.000000	0.000000	6.066743	-0.107565	NaN	0.000000	0.001533	0.001770	28.0844	0.030959	0.002008	15.4165	97.4691	-165.656	-0.102045	0.065101	-0.991587	-0.992908	-0.107565	15.4165	-0.986354	-1.485964E+13	7.238726E-15	NaN
1004	1.000000	0.074424	7.37487e+06	-50339.1	1055.82	-29756	0.000000	0.000000	6.074748	-0.055427	NaN	0.000000	0.001545	0.001785	28.0844	0.128786	0.001854	69.4772	-119.221	-166.483	-0.084243	0.073143	-0.983585	-0.984866	-0.055427	69.4772	-0.982986	-1.338568E+13	4.140799E-15	NaN
1004	1.000000	0.082414	7.37487e+06	-50339.1	1055.82	-29756	0.000000	0.000000	6.082738	-0.045360	NaN	0.000000	0.001551	0.001777	28.0845	0.064019	0.001989	32.1913	162.341	-164.988	-0.047598	0.081154	-0.975595	-0.976855	-0.045360	32.1913	-0.974538	-1.029968E+13	4.404010E-15	NaN
1004	1.000000	0.090465	7.37487e+06	-50339.1	1055.82	-29756	0.000000	0.000000	6.090791	-0.005596	NaN	0.000000	0.001550	0.001775	28.0843	0.095409	0.002101	45.4129	-16.0362	-165.41	-0.048014	0.089109	-0.967544	-0.968900	-0.005596	45.4129	-0.967452	-8.266392E+12	6.770103E-16	NaN
1004	1.000000	0.098421	7.37487e+06	-50339.1	1055.82	-29756	0.000000	0.000000	6.098746	-0.029761	NaN	0.000000	0.001540	0.001793	28.0846	0.008248	0.002117	3.895811	-54.5363	-166.699	-0.003832	0.097155	-0.959588	-0.960854	-0.029761	3.895811	-0.953858	-5.420731E+12	5.490284E-15	NaN
1004	1.000000	0.106411	7.37487e+06	-50339.1	1055.82	-29756	0.000000	0.000000	6.106736	-0.041341	NaN	0.000000	0.001555	0.001772	28.0844	0.082179	0.002056	39.978	-57.7522	-169.187	-0.025558	0.105168	-0.951598	-0.952841	-0.041341	39.978	-0.950822	-4.933038E+12	8.380415E-15	NaN
1004	1.000000	0.114456	7.37487e+06	-50339.1	1055.82	-29756	0.000000	0.000000	6.114781	-0.034759	NaN	0.000000	0.001545	0.001760	28.0848	0.046539	0.001842	25.2702	-141.681	-165.558	0.038233	0.113189	-0.943553	-0.944820	-0.034759	25.2702	-0.942521	-3.811986E+12	9.118277E-15	NaN
1004	1.000000	0.122436	7.37487e+06	-50339.1	1055.82	-29756	0.000000	0.000000	6.122762	0.003091	NaN	0.000000	0.001538	0.001756	28.0836	0.057707	0.002001	28.8435	-54.5427	-163.453	0.059359	0.121138	-0.935573	-0.936871	0.003091	28.8435	-0.935654	-3.079600E+12	-1.003647E-15	NaN
1004	1.000000	0.130464	7.37487e+06	-50339.1	1055.82	-29756	0.000000	0.000000	6.130788	-0.044127	NaN	0.000000	0.001566	0.001763	28.083	0.076372	0.001959	38.9794	78.5944	-163.757	-0.015362	0.129161	-0.927545	-0.928848	-0.044127	38.9794	-0.926696	-2.331310E+12	1.892817E-14	NaN
1004	1.000000	0.138467	7.37487e+06	-50339.1	1055.82	-29756	0.000000	0.000000	6.138791	-0.043823	NaN	0.000000	0.001581	0.001733	28.0832	0.043989	0.002038	21.5868	-67.9321	-164.343	-0.033200	0.137092	-0.919543	-0.920917	-0.043823	21.5868	-0.918020	-1.780208E+12	2.461700E-14	NaN
1004	1.000000	0.146436	7.37487e+06	-50339.1	1055.82	-29756	0.000000	0.000000	6.146760	-0.052076	NaN	0.000000	0.001543	0.001754	28.0828	0.167223	0.002048	81.6581	-113.46	-165.74	-0.046033	0.145166	-0.911573	-0.912843	-0.052076	81.6581	-0.911095	-1.435311E+12	3.628204E-14	NaN
1004	1.000000	0.154455	7.37487e+06	-50339.1	1055.82	-29756	0.000000	0.000000	6.154779	-0.051332	NaN	0.000000	0.001576	0.001772	28.0833	0.068014	0.001913	35.5592	159.718	-165.291	-0.078530	0.153172	-0.903554	-0.904837	-0.051332	35.5592	-0.902471	-1.097621E+12	4.676688E-14	NaN
1004	1.000000	0.162477	7.37487e+06	-50339.1	1055.82	-29756	0.000000	0.000000	6.162801	-0.035617	NaN	0.000000	0.001587	0.001792	28.083	0.046849	0.002039	22.9754	-41.9702	-166.444	-0.024087	0.161126	-0.895532	-0.896883	-0.035617	22.9754	-0.894369	-8.530509E+11	4.175205E-14	NaN
1004	1.000000	0.170492	7.37487e+06	-50339.1	1055.82	-29756	0.000000	0.000000	6.170817	-0.018408	NaN	0.000000	0.001595	0.001787	28.0832	0.049413	0.002081	23.7502	-138.054	-166.16	0.032564	0.169189	-0.887518	-0.888820	-0.018408	23.7502	-0.886936	-6.768567E+11	2.719624E-14	NaN
1004	1.000000	0.178474	7.37487e+06	-50339.1	1055.82	-29756	0.000000	0.000000	6.178797	-0.056156	NaN	0.000000	0.001555	0.001777	28.0833	0.072943	0.002053	35.5374	-79.376	-165.323	-0.063409	0.177149	-0.879535	-0.880860	-0.056156	35.5374	-0.878350	-5.180756E+11	1.083926E-13	NaN
1004	1.000000	0.186481	7.37487e+06	-50339.1	1055.82	-29756	0.000000	0.000000	6.186804	-0.073060	NaN	0.000000	0.001546	0.001794	28.0831	0.113103	0.001897	59.6294	162.31	-163.549	-0.069599	0.185169	-0.871528	-0.872840	-0.073060	59.6294	-0.870609	-4.070875E+11	1.794697E-13	NaN
1004	1.000000	0.194462	7.37487e+06	-50339.1	1055.82	-29756	0.000000	0.000000	6.194788	0.007802	NaN	0.000000	0.001547	0.001775	28.0835	0.165510	0.001988	83.2573	-79.4263	-167.679	0.065396	0.193256	-0.863547	-0.864753	0.007802	83.2573	-0.863617	-3.273979E+11	-2.382938E-14	NaN
1004	1.000000	0.202496	7.37487e+06	-50339.1	1055.82	-29756	0.000000	0.000000	6.202820	-0.058678	NaN	0.000000	0.001551	0.001803	28.083	0.157720	0.001920	82.1577	-81.6024	-167.302	-0.010418	0.201199	-0.855513	-0.856810	-0.058678	82.1577	-0.854977	-2.501065E+11	2.346110E-13	NaN
1004	1.000000	0.210498	7.37487e+06	-50339.1	1055.82	-29756	0.000000	0.000000	6.210820	-0.088073	NaN	0.000000	0.001546	0.001820	28.0832	0.082509	0.001991	41.4358	-19.9768	-162.285	-0.118327	0.209241	-0.847511	-0.848768	-0.088073	41.4358	-0.845917	-1.885569E+11	4.670921E-13	NaN
1004	1.000000	0.218470	7.37487e+06	-50339.1	1055.82	-29756	0.000000	0.000000	6.218796	0.005083	NaN	0.000000	0.001529	0.001823	28.0834	0.052280	0.002003	26.0986	-165.117	-165.606	-0.059391	0.217251	-0.839539	-0.840758	0.005083	26.0986	-0.839685	-1.552491E+11	-3.273998E-14	NaN
1004	1.000000	0.226493	7.37487e+06	-50339.1	1055.82	-29756	0.000000	0.000000	6.226816	-0.068845	NaN	0.000000	0.001578	0.001797	28.083	0.032330	0.001973	16.3833	-136.675	-167.662	-0.105487	0.225171	-0.831516	-0.832838	-0.068845	16.3833	-0.828364	-1.090475E+11	6.313326E-13	NaN
1004	1.000000	0.234503	7.37487e+06	-50339.1	1055.82	-29756	0.000000	0.000000	6.234829	0.008060	NaN	0.000000	0.001570	0.001836	28.0833	0.057346	0.001914	29.9658	103.716	-164.964	-0.075374	0.233201	-0.823506	-0.824809	0.008060	29.9658	-0.823708	-9.429400E+10	-8.547703E-14	NaN
1004	1.000000	0.242488	7.37487e+06	-50339.1	1055.82	-29756	0.000000	0.000000	6.242811	-0.064951	NaN	0.000000	0.001534	0.001841	28.0832	0.066465	0.001993	33.3491	160.63	-161.171	-0.020478	0.241183	-0.815522	-0.816827	-0.064951	33.3491	-0.814061	-6.976868E+10	9.309420E-13	NaN
1004	1.000000	0.250539	7.37487e+06	-50339.1	1055.82	-29756	0.000000	0.000000	6.250864	-0.038878	NaN	0.000000	0.001532	0.001775	28.0832	0.103231	0.002009	51.3789	-29.5383	-162.814	-0.075884	0.249175	-0.807470	-0.808834	-0.038878	51.3789	-0.806902	-5.578762E+10	6.968932E-13	NaN
1004	1.000000	0.258532	7.37487e+06	-50339.1	1055.82	-29756	0.000000	0.000000	6.258855	-0.076991	NaN	0.000000	0.001511	0.001780	28.0839	0.032620	0.001880	17.353	166.345	-169.08	-0.040994	0.257271	-0.799477	-0.800738	-0.076991	17.353	-0.796150	-3.986496E+10	1.931285E-12	NaN
1004	1.000000	0.266506	7.37487e+06	-50339.1	1055.82	-29756	0.000000	0.000000	6.266831	-0.032229	NaN	0.000000	0.001523	0.001774	28.0844	0.015301	0.002061	7.424085	-77.3864	-162.814	0.058525	0.265213	-0.791503	-0.792796	-0.032229	7.424085	-0.788247	-3.113655E+10	1.035095E-12	NaN
1004	1.000000	0.274545	7.37487e+06	-50339.1	1055.82	-29756	0.000000	0.000000	6.274870	-0.025468	NaN	0.000000	0.001569	0.001754	28.0846	0.066912	0.002095	31.937	171.665	-165.591	-0.033253	0.273226	-0.783464	-0.784783	-0.025468	31.937	-0.782866	-2.631331E+10	9.678665E-13	NaN
1004	1.000000	0.282525	7.37487e+06	-50339.1	1055.82	-29756	0.000000	0.000000	6.282847	-0.079746	NaN	0.000000	0.001582	0.001756	28.0847	0.009694	0.002081	4.658352	-172.345	-168.655	-0.020124	0.281177	-0.775484	-0.776832	-0.079746	4.658352	-0.762645	-1.397280E+10	5.707210E-12	NaN
1004	1.000000	0.290501	7.37487e+06	-50339.1	1055.82	-29756	0.000000	0.000000	6.290827	0.015969	NaN	0.000000	0.001578	0.001766	28.0846	0.091406	0.002041	44.7805	34.9516	-165.221	-0.071669	0.289271	-0.767509	-0.768738	0.015969	44.7805	-0.767776	-1.640835E+10	-9.732166E-13	NaN
1004	1.000000	0.298518	7.37487e+06	-50339.1	1055.82	-29756	0.000000	0.000000	6.298841	-0.061162	NaN	0.000000	0.001629	0.001757	28.0847	0.181506	0.001982	91.5836	-98.6112	-168.202	-0.042055	0.297258	-0.759492	-0.760751	-0.061162	91.5836	-0.758991	-1.246150E+10	4.908084E-12	NaN
1004	1.000000	0.306519	7.37487e+06	-50339.1	1055.82	-29756	0.000000	0.000000	6.306841	-0.091478	NaN	0.000000	0.001591	0.001746	28.0848	0.046498	0.002092	22.2244	-35.4048	-166.602	-0.099401	0.305232	-0.751490	-0.752777	-0.091478	22.2244	-0.748403	-8.943047E+9	1.022890E-11	NaN
1004	1.000000	0.314525	7.37487e+06	-50339.1	1055.82	-29756	0.000000	0.000000	6.314849	-0.058841	NaN	0.000000	0.001607	0.001744	28.0848	0.058593	0.002023	28.9586	10.0696	-167.247	-0.056127	0.313154	-0.743484	-0.744855	-0.058841	28.9586	-0.741960	-7.307175E+9	8.052513E-12	NaN
1004	1.000000	0.322553	7.37487e+06	-50339.1	1055.82	-29756	0.000000	0.000000	6.322878	-0.016523	NaN	0.000000	0.001609	0.001746	28.0848	0.028864	0.002037	14.1682	-39.6907	-166.86	-0.103404	0.321238	-0.735456	-0.736771	-0.016523	14.1682	-0.734581	-5.797484E+9	2.850058E-12	NaN
1004	1.000000	0.330562	7.37487e+06	-50339.1	1055.82	-29756	0.000000	0.000000	6.330884	-0.094477	NaN	0.000000	0.001591	0.001758	28.0846	0.086500	0.002065	41.8864	-1.182021	-165.664	-0.055216	0.329229	-0.727447	-0.728781	-0.094477	41.8864	-0.725755	-4.394924E+9	2.149676E-11	NaN
1004	1.000000	0.338538	7.37487e+06	-50339.1	1055.82	-29756	0.000000	0.000000	6.338863	-0.025498	NaN	0.000000	0.001606	0.001762	28.0846	0.044667	0.002072	21.5605	-56.6839	-166.425	0.012893	0.337226	-0.719471	-0.720783	-0.025498	21.5605	-0.718584	-3.508798E+9	7.266842E-12	NaN
1004	1.000000	0.346528	7.37487e+06	-50339.1	1055.82	-29756	0.000000	0.000000	6.346852	-0.041431	NaN	0.000000	0.001590	0.001762	28.0848	0.147186	0.001951	75.4553	-12.2778	-164.78	-0.063787	0.345185	-0.711481	-0.712824	-0.041431	75.4553	-0.711070	-2.771060E+9	1.495128E-11	NaN
1004	1.000000	0.354576	7.37487e+06	-50339.1	1055.82	-29756	0.000000	0.000000	6.354899	-0.059387	NaN	0.000000	0.001534	0.001730	28.0846	0.074659	0.001929	38.7055	-4.608166	-168.129	-0.104571	0.353253	-0.703433	-0.704756	-0.059387	38.7055	-0.702282	-2.102322E+9	2.824809E-11	NaN
1004	1.000000	0.362537	7.37487e+06	-50339.1	1055.82	-29756	0.000000	0.000000	6.362861	-0.021339	NaN	0.000000	0.001573	0.001754	28.085	0.036942	0.001894	19.5054	-154.61	-164.158	-0.035670	0.361238	-0.695473	-0.696771	-0.021339	19.5054	-0.694652	-1.653801E+9	1.290311E-11	NaN
1004	1.000000	0.370546	7.37487e+06	-50339.1	1055.82	-29756	0.000000	0.000000	6.370871	-0.037558	NaN	0.000000	0.001560	0.001750	28.0848	0.078735	0.001946	40.469	-172.121	-168.842	-0.145820	0.369208	-0.687463	-0.688801	-0.037558	40.469	-0.686767	-1.290399E+9	2.910555E-11	NaN
1004	1.000000	0.378542	7.37487e+06	-50339.1	1055.82	-29756	0.000000	0.000000	6.378864	-0.097654	NaN	0.000000	0.001547	0.001757	28.0846	0.104097	0.001993	52.2416	78.4046	-167.167	-0.067294	0.377260	-0.679467	-0.680749	-0.097654	52.2416	-0.678065	-9.811729E+8	9.952828E-11	NaN
1004	1.000000	0.386533	7.37487e+06	-50339.1	1055.82	-29756	0.000000	0.000000	6.386857	-0.047141	NaN	0.000000	0.001523	0.001755	28.0847	0.062329	0.001962	31.7709	15.9963	-165.897	-0.027758	0.385304	-0.671476	-0.672705	-0.047141	31.7709	-0.670363	-7.697628E+8	6.124057E-11	NaN
1004	1.000000	0.394567	7.37487e+06	-50339.1	1055.82	-29756	0.000000	0.000000	6.394893	-0.007439	NaN	0.000000	0.001551	0.001735	28.0844	0.077015	0.001896	40.6243	147.335	-167.164	-0.034402	0.393257	-0.663442	-0.664752	-0.007439	40.6243	-0.663304	-6.162057E+8	1.207238E-11	NaN
1004	1.000000	0.402551	7.37487e+06	-50339.1	1055.82	-29756	0.000000	0.000000	6.402876	-0.010589	NaN	0.000000	0.001579	0.001782	28.0838	0.034341	0.001878	18.2894	-8.946274	-167.838	-0.007720	0.401259	-0.655458	-0.656750	-0.010589	18.2894	-0.655024	-4.745686E+8	2.231314E-11	NaN
1004	1.000000	0.410578	7.37487e+06	-50339.1	1055.82	-29756	0.000000	0.000000	6.410902	-0.046657	NaN	0.000000	0.001563	0.001787	28.0835	0.039400	0.001940	20.3128	-162.279	-166.96	-0.100813	0.409283	-0.647431	-0.648726	-0.046657	20.3128	-0.645708	-3.536662E+8	1.319235E-10	NaN
1004	1.000000	0.418575	7.37487e+06	-50339.1	1055.82	-29756	0.000000	0.000000	6.418901	0.013888	NaN	0.000000	0.001667	0.001794	28.0836	0.094033	0.002094	44.9116	-38.8008	-165.524	0.038269	0.417280	-0.639434	-0.640729	0.013888	44.9116	-0.639666	-2.922217E+8	-4.752426E-11	NaN
1004	1.000000	0.426600	7.37487e+06	-50339.1	1055.82	-29756	0.000000	0.000000	6.426926	0.005294	NaN	0.000000	0.001621	0.001769	28.0837	0.022328	0.001953	11.4327	-73.8759	-165.324	0.045776	0.425297	-0.631409	-0.632712	0.005294	11.4327	-0.631756	-2.275822E+8	-2.326271E-11	NaN
1004	1.000000	0.434591	7.37487e+06	-50339.1	1055.82	-29756	0.000000	0.000000	6.434913	-0.097511	NaN	0.000000	0.001671	0.001786	28.0837	0.123344	0.001904	64.7881	63.437	-165.458	-0.012126	0.433262	-0.623418	-0.624747	-0.097511	64.7881	-0.622290	-1.686944E+8	5.780308E-10	NaN
1004	1.000000	0.442607	7.37487e+06	-50339.1	1055.82	-29756	0.000000	0.000000	6.442928	-0.121016	NaN	0.000000	0.001674	0.001749	28.0835	0.033813	0.001958	17.2733	119.692	-168.985	-0.125632	0.441286	-0.615402	-0.616723	-0.121016	17.2733	-0.610148	-1.148542E+8	1.053645E-9	NaN
1004	1.000000	0.450581	7.37487e+06	-50339.1	1055.82	-29756	0.000000	0.000000	6.450903	-0.091517	NaN	0.000000	0.001672	0.001748	28.0836	0.009417	0.001976	4.766938	72.192	-166.247	-0.109535	0.449277	-0.607428	-0.608732	-0.091517	4.766938	-0.593029	-6.674514E+7	1.371141E-9	NaN
1004	1.000000	0.458603	7.37487e+06	-50339.1	1055.82	-29756	0.000000	0.000000	6.458925	-0.095035	NaN	0.000000	0.001634	0.001745	28.0836	0.072349	0.001922	37.6455	161.468	-162.135	-0.064853	0.457300	-0.599406	-0.600709	-0.095035	37.6455	-0.597513	-7.694805E+7	1.235056E-9	NaN
1004	1.000000	0.466582	7.37487e+06	-50339.1	1055.82	-29756	0.000000	0.000000	6.466908	0.004790	NaN	0.000000	0.001646	0.001733	28.0835	0.029646	0.002005	14.787	26.9674	-166.147	-0.026754	0.465308	-0.591427	-0.592701	0.004790	14.787	-0.591670	-6.392768E+7	-7.493112E-11	NaN
1004	1.000000	0.474607	7.37487e+06	-50339.1	1055.82	-29756	0.000000	0.000000	6.474931	-0.043860	NaN	0.000000	0.001660	0.001741	28.084	0.027672	0.002094	13.2138	47.0372	-165.53	-0.003517	0.473240	-0.583402	-0.584769	-0.043860	13.2138	-0.580913	-4.542789E+7	9.654868E-10	NaN
1004	1.000000	0.482575	7.37487e+06	-50339.1	1055.82	-29756	0.000000	0.000000	6.482899	-0.042781	NaN	0.000000	0.001657	0.001769	28.0834	0.085327	0.002029	42.0497	-29.8143	-169.981	0.042197	0.481299	-0.575434	-0.576710	-0.042781	42.0497	-0.574671	-3.725262E+7	1.148394E-9	NaN
1004	1.000000	0.490650	7.37487e+06	-50339.1	1055.82	-29756	0.000000	0.000000	6.490971	-0.118776	NaN	0.000000	0.001653	0.001775	28.0839	0.065806	0.002127	30.9354	79.9757	-167.227	-0.072053	0.489313	-0.567359	-0.568696	-0.118776	30.9354	-0.564480	-2.693604E+7	4.409576E-9	NaN
1004	1.000000	0.498621	7.37487e+06	-50339.1	1055.82	-29756	0.000000	0.000000	6.498947	0.002182	NaN	0.000000	0.001652	0.001746	28.0837	0.116995	0.002075	56.3858	-126.939	-163.803	0.037662	0.497275	-0.559388	-0.560735	0.002182	56.3858	-0.559417	-2.292504E+7	-9.516318E-11	NaN
1004	1.000000	0.506638	7.37487e+06	-50339.1	1055.82	-29756	0.000000	0.000000	6.506961	-0.081868	NaN	0.000000	0.001587	0.001744	28.0835	0.117796	0.001939	60.7622	-172.326	-163.37	-0.036928	0.505321	-0.551371	-0.552688	-0.081868	60.7622	-0.550360	-1.717685E+7	4.766165E-9	NaN
1004	1.000000	0.514647	7.37487e+06	-50339.1	1055.82	-29756	0.000000	0.000000	6.514971	-0.052270	NaN	0.000000	0.001601	0.001753	28.0834	0.075390	0.001917	39.3267	-62.0076	-161.893	-0.083072	0.513267	-0.543362	-0.544742	-0.052270	39.3267	-0.542365	-1.330923E+7	3.927361E-9	NaN
1004	1.000000	0.522666	7.37487e+06	-50339.1	1055.82	-29756	0.000000	0.000000	6.522989	-0.053274	NaN	0.000000	0.001618	0.001790	28.0836	0.029881	0.001972	15.1502	-0.191968	-165.392	-0.032530	0.521325	-0.535343	-0.536684	-0.053274	15.1502	-0.532706	-9.77575e+06	5.449555E-9	NaN
1004	1.000000	0.530644	7.37487e+06	-50339.1	1055.82	-29756	0.000000	0.000000	6.530965	-0.112286	NaN	0.000000	0.001602	0.001740	28.0848	0.040911	0.001972	20.7494	62.1263	-163.158	-0.061480	0.529284	-0.527365	-0.528725	-0.112286	20.7494	-0.523307	-7.23727e+06	1.551496E-8	NaN
1004	1.000000	0.538634	7.37487e+06	-50339.1	1055.82	-29756	0.000000	0.000000	6.538957	-0.061952	NaN	0.000000	0.001628	0.001775	28.0846	0.112810	0.001910	59.0513	-112.407	-164.995	0.010260	0.537324	-0.519376	-0.520685	-0.061952	59.0513	-0.518589	-6.22254e+06	9.956031E-9	NaN
1004	1.000000	0.546643	7.37487e+06	-50339.1	1055.82	-29756	0.000000	0.000000	6.546966	-0.057465	NaN	0.000000	0.001624	0.001767	28.0845	0.063581	0.002014	31.5697	-1.657663	-166.402	-0.029628	0.545328	-0.511366	-0.512681	-0.057465	31.5697	-0.510001	-4.72529e+06	1.216109E-8	NaN
1004	1.000000	0.554600	7.37487e+06	-50339.1	1055.82	-29756	0.000000	0.000000	6.554924	-0.037261	NaN	0.000000	0.001609	0.001739	28.0847	0.010759	0.001967	5.468731	9.871751	-165.391	-0.007837	0.553301	-0.503409	-0.504708	-0.037261	5.468731	-0.498299	-3.24552e+06	1.148077E-8	NaN
1004	1.000000	0.562644	7.37487e+06	-50339.1	1055.82	-29756	0.000000	0.000000	6.562969	-0.005327	NaN	0.000000	0.001631	0.001758	28.0847	0.040830	0.002014	20.2714	174.286	-164.453	-0.034265	0.561322	-0.495365	-0.496687	-0.005327	20.2714	-0.495168	-2.93485e+06	1.815006E-9	NaN
1004	1.000000	0.570636	7.37487e+06	-50339.1	1055.82	-29756	0.000000	0.000000	6.570963	0.030203	NaN	0.000000	0.001623	0.001703	28.0849	0.075962	0.002040	37.2424	-11.1757	-162.175	0.017884	0.569343	-0.487373	-0.488666	0.030203	37.2424	-0.487981	-2.32903e+06	-1.296787E-8	NaN
1004	1.000000	0.578624	7.37487e+06	-50339.1	1055.82	-29756	0.000000	0.000000	6.578949	-0.031953	NaN	0.000000	0.001625	0.001715	28.0847	0.149145	0.002062	72.3269	-49.0578	-164.587	0.070544	0.577359	-0.479385	-0.480650	-0.031953	72.3269	-0.479053	-1.74692e+06	1.829100E-8	NaN
1004	1.000000	0.586651	7.37487e+06	-50339.1	1055.82	-29756	0.000000	0.000000	6.586975	-0.036105	NaN	0.000000	0.001611	0.001746	28.0847	0.056564	0.002019	28.0206	118.7	-166.772	0.020546	0.585341	-0.471358	-0.472668	-0.036105	28.0206	-0.470392	-1.32099e+06	2.733185E-8	NaN
1004	1.000000	0.594635	7.37487e+06	-50339.1	1055.82	-29756	0.000000	0.000000	6.594959	-0.046107	NaN	0.000000	0.001629	0.001749	28.0846	0.095152	0.001963	48.4687	-154.618	-166.151	-0.088390	0.593356	-0.463374	-0.464653	-0.046107	48.4687	-0.462660	-1.02895e+06	4.480956E-8	NaN
1004	1.000000	0.602646	7.37487e+06	-50339.1	1055.82	-29756	0.000000	0.000000	6.602971	-0.011303	NaN	0.000000	0.001632	0.001734	28.0846	0.084661	0.001997	42.3945	69.7051	-163.903	-0.011710	0.601314	-0.455363	-0.456695	-0.011303	42.3945	-0.455163	-807266	1.400108E-8	NaN
1004	1.000000	0.610660	7.37487e+06	-50339.1	1055.82	-29756	0.000000	0.000000	6.610986	0.004113	NaN	0.000000	0.001661	0.001753	28.0848	0.045530	0.001999	22.7795	-155.974	-166.389	-0.026458	0.609377	-0.447349	-0.448632	0.004113	22.7795	-0.447485	-629382	-6.535579E-9	NaN
1004	1.000000	0.618673	7.37487e+06	-50339.1	1055.82	-29756	0.000000	0.000000	6.618995	-0.093904	NaN	0.000000	0.001673	0.001779	28.0848	0.101963	0.002067	49.3359	126.556	-164.989	-0.036733	0.617349	-0.439336	-0.440660	-0.093904	49.3359	-0.437909	-461151	2.036293E-7	NaN
1004	1.000000	0.626633	7.37487e+06	-50339.1	1055.82	-29756	0.000000	0.000000	6.626957	-0.047223	NaN	0.000000	0.001633	0.001776	28.0849	0.068032	0.001923	35.3782	-104.829	-168.558	-0.013140	0.625400	-0.431376	-0.432609	-0.047223	35.3782	-0.430375	-360880	1.308564E-7	NaN
1004	1.000000	0.634666	7.37487e+06	-50339.1	1055.82	-29756	0.000000	0.000000	6.634991	-0.010978	NaN	0.000000	0.001675	0.001783	28.0847	0.033133	0.001987	16.6774	-88.7287	-169.345	-0.018746	0.633373	-0.423343	-0.424636	-0.010978	16.6774	-0.422849	-282366	3.887840E-8	NaN
1004	1.000000	0.642665	7.37487e+06	-50339.1	1055.82	-29756	0.000000	0.000000	6.642989	-0.062687	NaN	0.000000	0.001666	0.001703	28.0848	0.080488	0.001962	41.0174	-72.3802	-166.437	-0.010713	0.641362	-0.415344	-0.416647	-0.062687	41.0174	-0.414197	-212842	2.945255E-7	NaN
1004	1.000000	0.650677	7.37487e+06	-50339.1	1055.82	-29756	0.000000	0.000000	6.651000	-0.088865	NaN	0.000000	0.001648	0.001773	28.0847	0.135627	0.001960	69.2112	-155.522	-167.366	-0.036417	0.649386	-0.407332	-0.408624	-0.088865	69.2112	-0.406369	-164715	5.395049E-7	NaN
1004	1.000000	0.658644	7.37487e+06	-50339.1	1055.82	-29756	0.000000	0.000000	6.658970	0.015211	NaN	0.000000	0.001627	0.001767	28.0848	0.095791	0.001965	48.7558	103.387	-167.173	-0.017258	0.657365	-0.399365	-0.400644	0.015211	48.7558	-0.399599	-131911	-1.153122E-7	NaN
1004	1.000000	0.666675	7.37487e+06	-50339.1	1055.82	-29756	0.000000	0.000000	6.667000	-0.033809	NaN	0.000000	0.001638	0.001746	28.0848	0.167582	0.001992	84.1364	-36.169	-161.532	0.021656	0.665377	-0.391334	-0.392632	-0.033809	84.1364	-0.391032	-99524.4	3.397061E-7	NaN
1004	1.000000	0.674668	7.37487e+06	-50339.1	1055.82	-29756	0.000000	0.000000	6.674993	-0.017870	NaN	0.000000	0.001640	0.001747	28.0837	0.066787	0.002083	32.0567	-157.106	-163.746	0.027601	0.673357	-0.383341	-0.384652	-0.017870	32.0567	-0.382923	-76176.5	2.345859E-7	NaN
1004	1.000000	0.682696	7.37487e+06	-50339.1	1055.82	-29756	0.000000	0.000000	6.683021	-0.019036	NaN	0.000000	0.001677	0.001783	28.0838	0.092439	0.002023	45.6855	5.142860	-165.731	0.051416	0.681293	-0.375313	-0.376716	-0.019036	45.6855	-0.375000	-58624.3	3.247147E-7	NaN
1004	1.000000	0.690681	7.37487e+06	-50339.1	1055.82	-29756	0.000000	0.000000	6.691006	-0.034145	NaN	0.000000	0.001616	0.001791	28.0834	0.156094	0.001885	82.814	105.518	-161.233	-0.030238	0.689363	-0.367328	-0.368646	-0.034145	82.814	-0.367019	-44995.3	7.588589E-7	NaN
1004	1.000000	0.698688	7.37487e+06	-50339.1	1055.82	-29756	0.000000	0.000000	6.699012	-0.053909	NaN	0.000000	0.001649	0.001786	28.0835	0.068171	0.001951	34.9502	-25.6782	-164.838	-0.115656	0.697448	-0.359321	-0.360561	-0.053909	34.9502	-0.358164	-33519.6	1.608289E-6	NaN
1004	1.000000	0.706709	7.37487e+06	-50339.1	1055.82	-29756	0.000000	0.000000	6.707034	-0.016311	NaN	0.000000	0.001630	0.001755	28.0835	0.084730	0.001959	43.2534	-167.727	-163.728	-0.071035	0.705410	-0.351301	-0.352599	-0.016311	43.2534	-0.351018	-26410.1	6.175914E-7	NaN
1004	1.000000	0.714687	7.37487e+06	-50339.1	1055.82	-29756	0.000000	0.000000	6.715009	-0.096591	NaN	0.000000	0.001663	0.001751	28.0838	0.120037	0.001952	61.4858	-137.623	-163.995	-0.039915	0.713417	-0.343322	-0.344592	-0.096591	61.4858	-0.342144	-19624	4.922084E-6	NaN
1004	1.000000	0.722718	7.37487e+06	-50339.1	1055.82	-29756	0.000000	0.000000	6.723041	-0.055672	NaN	0.000000	0.001707	0.001786	28.0837	0.087197	0.002032	42.9221	-49.8799	-164.97	-0.095288	0.721442	-0.335291	-0.336567	-0.055672	42.9221	-0.334318	-15087.9	3.689883E-6	NaN
1004	1.000000	0.730701	7.37487e+06	-50339.1	1055.82	-29756	0.000000	0.000000	6.731028	0.019538	NaN	0.000000	0.001663	0.001814	28.0833	0.055197	0.002040	27.0576	-166.641	-167.865	-0.055308	0.729416	-0.327308	-0.328593	0.019538	27.0576	-0.327850	-12132.2	-1.610396E-6	NaN
1004	1.000000	0.738718	7.37487e+06	-50339.1	1055.82	-29756	0.000000	0.000000	6.739038	-0.139570	NaN	0.000000	0.001645	0.001776	28.0835	0.062576	0.001968	31.8036	-112.8	-164.039	-0.171164	0.737404	-0.319291	-0.320605	-0.139570	31.8036	-0.316000	-8122.68	1.718269E-5	NaN
1004	1.000000	0.746714	7.37487e+06	-50339.1	1055.82	-29756	0.000000	0.000000	6.747037	-0.066013	NaN	0.000000	0.001677	0.001785	28.0835	0.034251	0.001952	17.5487	-44.4138	-165.94	0.024902	0.745456	-0.311295	-0.312553	-0.066013	17.5487	-0.308473	-6287.16	1.049962E-5	NaN
1004	1.000000	0.754725	7.37487e+06	-50339.1	1055.82	-29756	0.000000	0.000000	6.755049	-0.049516	NaN	0.000000	0.001635	0.001786	28.0837	0.060645	0.002049	29.5956	-173.737	-168.609	-0.065642	0.753436	-0.303284	-0.304573	-0.049516	29.5956	-0.302029	-5044.61	9.815678E-6	NaN
1004	1.000000	0.762735	7.37487e+06	-50339.1	1055.82	-29756	0.000000	0.000000	6.763059	-0.028586	NaN	0.000000	0.001632	0.001782	28.0836	0.069201	0.001900	36.4169	-92.2875	-165.962	-0.121237	0.761408	-0.295274	-0.296601	-0.028586	36.4169	-0.294686	-3920.98	7.290625E-6	NaN
1004	1.000000	0.770706	7.37487e+06	-50339.1	1055.82	-29756	0.000000	0.000000	6.771029	-0.060554	NaN	0.000000	0.001666	0.001775	28.0834	0.078551	0.001996	39.3608	37.0768	-167.476	-0.079139	0.769360	-0.287303	-0.288649	-0.060554	39.3608	-0.286150	-2921.06	2.073024E-5	NaN
1004	1.000000	0.778721	7.37487e+06	-50339.1	1055.82	-29756	0.000000	0.000000	6.779044	-0.062560	NaN	0.000000	0.001624	0.001757	28.0837	0.086251	0.002077	41.5175	-172.078	-165.867	-0.019578	0.777422	-0.279288	-0.280587	-0.062560	41.5175	-0.278158	-2213.94	2.825730E-5	NaN
1004	1.000000	0.786743	7.37487e+06	-50339.1	1055.82	-29756	0.000000	0.000000	6.787066	-0.080771	NaN	0.000000	0.001639	0.001737	28.0834	0.129634	0.002036	63.6636	92.4662	-167.539	-0.135166	0.785447	-0.271266	-0.272562	-0.080771	63.6636	-0.270314	-1683.91	4.796637E-5	NaN
1004	1.000000	0.794735	7.37487e+06	-50339.1	1055.82	-29756	0.000000	0.000000	6.795060	-0.033866	NaN	0.000000	0.001579	0.001779	28.0835	0.039239	0.002200	17.8345	116.955	-167.141	-0.072292	0.793419	-0.263274	-0.264590	-0.033866	17.8345	-0.261849	-1250.95	2.707200E-5	NaN
1004	1.000000	0.802762	7.37487e+06	-50339.1	1055.82	-29756	0.000000	0.000000	6.803085	-0.082497	NaN	0.000000	0.001580	0.001759	28.0834	0.026135	0.001918	13.6291	15.4004	-168.577	-0.037625	0.801444	-0.255247	-0.256565	-0.082497	13.6291	-0.250707	-843.135	9.784516E-5	NaN
1004	1.000000	0.810761	7.37487e+06	-50339.1	1055.82	-29756	0.000000	0.000000	6.811084	-0.068814	NaN	0.000000	0.001586	0.001743	28.0846	0.009645	0.001900	5.076298	-30.2327	-168.703	-0.047004	0.809441	-0.247248	-0.248568	-0.068814	5.076298	-0.237081	-517.477	0.000133	NaN
1004	1.000000	0.818752	7.37487e+06	-50339.1	1055.82	-29756	0.000000	0.000000	6.819077	-0.021536	NaN	0.000000	0.001551	0.001727	28.085	0.014768	0.001975	7.476923	-21.531	-164.516	-0.004263	0.817454	-0.239257	-0.240555	-0.021536	7.476923	-0.237097	-517.765	4.159323E-5	NaN
1004	1.000000	0.826742	7.37487e+06	-50339.1	1055.82	-29756	0.000000	0.000000	6.827064	-0.091923	NaN	0.000000	0.001621	0.001753	28.0845	0.149762	0.001989	75.3023	108.424	-166.115	-0.089307	0.825415	-0.231267	-0.232594	-0.091923	75.3023	-0.230352	-405.575	0.000227	NaN
1004	1.000000	0.834704	7.37487e+06	-50339.1	1055.82	-29756	0.000000	0.000000	6.835028	-0.055755	NaN	0.000000	0.001660	0.001758	28.0846	0.056911	0.001973	28.8479	-110.289	-164.994	-0.079280	0.833473	-0.223305	-0.224536	-0.055755	28.8479	-0.221855	-297.364	0.000187	NaN
1004	1.000000	0.842747	7.37487e+06	-50339.1	1055.82	-29756	0.000000	0.000000	6.843071	-0.047212	NaN	0.000000	0.001599	0.001789	28.0844	0.126266	0.001937	65.1929	55.3416	-163.172	-0.096684	0.841482	-0.215262	-0.216527	-0.047212	65.1929	-0.214719	-228.553	0.000207	NaN
1004	1.000000	0.850765	7.37487e+06	-50339.1	1055.82	-29756	0.000000	0.000000	6.851088	-0.052430	NaN	0.000000	0.001571	0.001734	28.0845	0.128339	0.001967	65.2386	-61.1817	-165.766	-0.080986	0.849437	-0.207245	-0.208573	-0.052430	65.2386	-0.206642	-169.163	0.000310	NaN
1004	1.000000	0.858780	7.37487e+06	-50339.1	1055.82	-29756	0.000000	0.000000	6.859103	-0.077419	NaN	0.000000	0.001622	0.001721	28.0845	0.116972	0.001975	59.2204	-134.292	-165.054	-0.139603	0.857518	-0.199229	-0.200491	-0.077419	59.2204	-0.198248	-123.275	0.000628	NaN
1004	1.000000	0.866755	7.37487e+06	-50339.1	1055.82	-29756	0.000000	0.000000	6.867080	-0.025500	NaN	0.000000	0.001615	0.001696	28.0844	0.082751	0.001917	43.1699	87.975	-166.148	-0.120000	0.865535	-0.191254	-0.192474	-0.025500	43.1699	-0.190811	-92.8034	0.000275	NaN
1004	1.000000	0.874765	7.37487e+06	-50339.1	1055.82	-29756	0.000000	0.000000	6.875087	-0.106732	NaN	0.000000	0.001568	0.001733	28.0845	0.041124	0.002036	20.1985	141.495	-167.908	-0.098785	0.873461	-0.183244	-0.184548	-0.106732	20.1985	-0.179281	-59.3231	0.001799	NaN
1004	1.000000	0.882778	7.37487e+06	-50339.1	1055.82	-29756	0.000000	0.000000	6.883100	-0.082261	NaN	0.000000	0.001541	0.001701	28.0846	0.078948	0.002017	39.1401	78.1955	-166.784	-0.078073	0.881510	-0.175231	-0.176499	-0.082261	39.1401	-0.173655	-47.5154	0.001731	NaN
1004	1.000000	0.890766	7.37487e+06	-50339.1	1055.82	-29756	0.000000	0.000000	6.891090	-0.053698	NaN	0.000000	0.001612	0.001742	28.0846	0.015500	0.002073	7.475608	-36.5115	-163.952	-0.033812	0.889499	-0.167243	-0.168510	-0.053698	7.475608	-0.161856	-29.5726	0.001816	NaN
1004	1.000000	0.898785	7.37487e+06	-50339.1	1055.82	-29756	0.000000	0.000000	6.899108	-0.075967	NaN	0.000000	0.001582	0.001751	28.0846	0.054424	0.002087	26.0829	-152.021	-164.035	-0.049575	0.897544	-0.159224	-0.160465	-0.075967	26.0829	-0.157040	-24.2768	0.003129	NaN
1004	1.000000	0.906759	7.37487e+06	-50339.1	1055.82	-29756	0.000000	0.000000	6.907082	-0.084047	NaN	0.000000	0.001583	0.001726	28.0846	0.122120	0.002022	60.388	138.708	-162.37	-0.191041	0.905463	-0.151250	-0.152546	-0.084047	60.388	-0.150206	-18.2708	0.004600	NaN
1004	1.000000	0.914786	7.37487e+06	-50339.1	1055.82	-29756	0.000000	0.000000	6.915109	-0.063337	NaN	0.000000	0.001562	0.001768	28.0845	0.021334	0.002055	10.38	50.3101	-168.421	-0.101514	0.913466	-0.143223	-0.144543	-0.063337	10.38	-0.138647	-11.1558	0.005677	NaN
1004	1.000000	0.922784	7.37487e+06	-50339.1	1055.82	-29756	0.000000	0.000000	6.923108	-0.049448	NaN	0.000000	0.001578	0.001741	28.0847	0.063445	0.001994	31.8199	122.399	-166.053	-0.120486	0.921491	-0.135225	-0.136518	-0.049448	31.8199	-0.134059	-9.126503	0.005418	NaN
1004	1.000000	0.930787	7.37487e+06	-50339.1	1055.82	-29756	0.000000	0.000000	6.931111	-0.056249	NaN	0.000000	0.001564	0.001744	28.0848	0.018024	0.002010	8.966401	45.8843	-164.287	-0.062282	0.929512	-0.127222	-0.128497	-0.056249	8.966401	-0.122517	-5.427725	0.010363	NaN
1004	1.000000	0.938817	7.37487e+06	-50339.1	1055.82	-29756	0.000000	0.000000	6.939140	-0.063126	NaN	0.000000	0.001568	0.001740	28.0846	0.091645	0.002027	45.2066	132.962	-164.087	0.020839	0.937482	-0.119192	-0.120527	-0.063126	45.2066	-0.118145	-4.430934	0.014247	NaN
1004	1.000000	0.946798	7.37487e+06	-50339.1	1055.82	-29756	0.000000	0.000000	6.947121	-0.081058	NaN	0.000000	0.001574	0.001740	28.0835	0.082495	0.002065	39.9501	43.6514	-163.566	-0.115576	0.945540	-0.111211	-0.112469	-0.081058	39.9501	-0.109689	-2.960128	0.027383	NaN
1004	1.000000	0.954804	7.37487e+06	-50339.1	1055.82	-29756	0.000000	0.000000	6.955129	-0.023022	NaN	0.000000	0.001603	0.001733	28.0832	0.105652	0.002131	49.5728	-21.5675	-163.548	-0.019772	0.953511	-0.103205	-0.104498	-0.023022	49.5728	-0.102857	-2.111676	0.010902	NaN
1004	1.000000	0.962810	7.37487e+06	-50339.1	1055.82	-29756	0.000000	0.000000	6.963136	-0.008230	NaN	0.000000	0.001596	0.001747	28.0835	0.088276	0.001974	44.7244	65.1365	-164.83	0.003503	0.961490	-0.095199	-0.096519	-0.008230	44.7244	-0.095061	-1.415151	0.005816	NaN
1004	1.000000	0.970815	7.37487e+06	-50339.1	1055.82	-29756	0.000000	0.000000	6.971142	0.024990	NaN	0.000000	0.001618	0.001727	28.0834	0.139598	0.001847	75.5921	25.0735	-165.504	-0.043298	0.969500	-0.087194	-0.088509	0.024990	75.5921	-0.087442	-0.940421	-0.026573	NaN
1004	1.000000	0.978818	7.37487e+06	-50339.1	1055.82	-29756	0.000000	0.000000	6.979141	-0.072520	NaN	0.000000	0.001642	0.001721	28.083	0.053340	0.001986	26.8641	-78.1411	-164.766	-0.070643	0.977459	-0.079191	-0.080550	-0.072520	26.8641	-0.077167	-0.524998	0.138134	NaN
1004	1.000000	0.986829	7.37487e+06	-50339.1	1055.82	-29756	0.000000	0.000000	6.987153	-0.057380	NaN	0.000000	0.001609	0.001747	28.0835	0.059817	0.002026	29.5219	157.913	-161.638	-0.071299	0.985548	-0.071180	-0.072461	-0.057380	29.5219	-0.069722	-0.335307	0.171126	NaN
1004	1.000000	0.994831	7.37487e+06	-50339.1	1055.82	-29756	0.000000	0.000000	6.995154	-0.072599	NaN	0.000000	0.001621	0.001765	28.0831	0.042266	0.001992	21.223	162.72	-164.991	-0.019686	0.993494	-0.063178	-0.064515	-0.072599	21.223	-0.060612	-0.187510	0.387175	NaN
1004	1.000000	1.002821	7.37487e+06	-50339.1	1055.82	-29756	0.000000	0.000000	7.003144	-0.083354	NaN	0.000000	0.001593	0.001746	28.0834	0.097704	0.002014	48.5164	178.842	-163.692	-0.047332	1.001530	-0.055188	-0.056480	-0.083354	48.5164	-0.053899	-0.119456	0.697781	NaN
1004	1.000000	1.010806	7.37487e+06	-50339.1	1055.82	-29756	0.000000	0.000000	7.011126	-0.152566	NaN	0.000000	0.001604	0.001748	28.0832	0.094137	0.002004	46.97	177.883	-165.501	-0.123426	1.009484	-0.047203	-0.048525	-0.152566	46.97	-0.044767	-0.063220	2.413255	NaN
1004	1.000000	1.018786	7.37487e+06	-50339.1	1055.82	-29756	0.000000	0.000000	7.019107	-0.115394	NaN	0.000000	0.001585	0.001738	28.0832	0.079694	0.001931	41.2707	-87.0923	-166.641	-0.065900	1.017534	-0.039223	-0.040475	-0.115394	41.2707	-0.037126	-0.037037	3.115619	NaN
1004	1.000000	1.026831	7.37487e+06	-50339.1	1055.82	-29756	0.000000	0.000000	7.027156	-0.037557	NaN	0.000000	0.001574	0.001701	28.0837	0.033699	0.001995	16.8897	166.044	-164.937	-0.034814	1.025486	-0.031178	-0.032523	-0.037557	16.8897	-0.029510	-0.022303	1.683949	NaN
1004	1.000000	1.034834	7.37487e+06	-50339.1	1055.82	-29756	0.000000	0.000000	7.035154	-0.122346	NaN	0.000000	0.001584	0.001727	28.0834	0.067247	0.002059	32.6647	65.9367	-165.713	-0.067295	1.033508	-0.023175	-0.024501	-0.122346	32.6647	-0.020366	-0.012833	9.533595	NaN
1004	1.000000	1.042845	7.37487e+06	-50339.1	1055.82	-29756	0.000000	0.000000	7.043168	-0.071078	NaN	0.000000	0.001518	0.001733	28.0837	0.115131	0.001977	58.2348	121.357	-160.672	-0.042310	1.041522	-0.015164	-0.016487	-0.071078	58.2348	-0.014249	-0.008829	8.050258	NaN
1004	1.000000	1.050862	7.37487e+06	-50339.1	1055.82	-29756	0.000000	0.000000	7.051186	-0.055395	NaN	0.000000	0.001531	0.001692	28.0833	0.030253	0.002043	14.8049	136.06	-164.39	-0.103346	1.049540	-0.007147	-0.008469	-0.055395	14.8049	-0.004341	-0.002998	18.4748	NaN
1004	1.000000	1.058793	7.37487e+06	-50339.1	1055.82	-29756	0.000000	0.000000	7.059260	3.443253	NaN	0.000000	0.001528	0.001717	28.0832	4.197191	0.001835	2287.35	11.7069	-171.08	1.984813	1.057541	0.000784	-0.000468	3.443253	2287.35	-0.000345	-0.000256	-13429.7	NaN
1004	2.000000	1.064400	7.37487e+06	-50339.1	1055.82	-29756	0.000000	0.000000	7.065130	9.821689	NaN	0.000000	0.001530	0.001713	28.0834	9.614408	0.001582	6078.1	6.923879	-172.607	8.985851	1.064056	0.006391	0.006046	9.821689	6078.1	0.005179	0.004297	2285.61	84712.8
1004	2.000000	1.066357	7.37487e+06	-50339.1	1055.82	-29756	0.000000	0.000000	7.067193	12.4062	NaN	0.000000	0.001535	0.001747	28.0831	11.8788	0.001650	7197.42	7.023639	-174.596	11.473	1.066048	0.008348	0.008039	12.4062	7197.42	0.007055	0.006088	2037.73	84276
1004	2.000000	1.068309	7.37487e+06	-50339.1	1055.82	-29756	0.000000	0.000000	7.069281	15.7046	NaN	0.000000	0.001525	0.001742	28.0848	14.7187	0.001857	7926.57	8.701208	-175.281	14.1314	1.068027	0.010300	0.010018	15.7046	7926.57	0.008814	0.007893	1989.61	81513.3
1004	2.000000	1.070323	7.37487e+06	-50339.1	1055.82	-29756	0.000000	0.000000	7.071473	20.0279	NaN	0.000000	0.001522	0.001725	28.0844	16.2063	0.001727	9382.28	5.160301	-175.107	19.1825	1.070066	0.012314	0.012057	20.0279	9382.28	0.010713	0.009985	2005.82	85784.8
1004	2.000000	1.072300	7.37487e+06	-50339.1	1055.82	-29756	0.000000	0.000000	7.073626	24.3198	NaN	0.000000	0.001514	0.001736	28.0844	18.542	0.001773	10459.8	3.612463	-173.511	23.5623	1.072018	0.014291	0.014009	24.3198	10459.8	0.012547	0.012152	2001.25	86689.7
1004	2.000000	1.074363	7.37487e+06	-50339.1	1055.82	-29756	0.000000	0.000000	7.075862	28.5107	NaN	0.000000	0.001519	0.001788	28.0845	21.4527	0.001891	11346.3	8.678075	-176.955	28.8115	1.073935	0.016354	0.015926	28.5107	11346.3	0.014470	0.014585	1954.82	85837.4
1004	2.000000	1.076304	7.37487e+06	-50339.1	1055.82	-29756	0.000000	0.000000	7.077978	32.7797	NaN	0.000000	0.001523	0.001746	28.0844	23.1419	0.001695	13652.6	6.496729	-178.817	32.2685	1.076012	0.018295	0.018003	32.7797	13652.6	0.016494	0.017330	1891.55	94753.8
1004	2.000000	1.078322	7.37487e+06	-50339.1	1055.82	-29756	0.000000	0.000000	7.080140	36.2855	NaN	0.000000	0.001508	0.001723	28.0857	25.2243	0.001699	14842.5	2.010326	-174.928	36.656	1.078021	0.020313	0.020012	36.2855	14842.5	0.018479	0.020209	1795.52	95391.7
1004	2.000000	1.080268	7.37487e+06	-50339.1	1055.82	-29756	0.000000	0.000000	7.082358	42.9053	NaN	0.000000	0.001552	0.001738	28.0846	26.8381	0.001687	15909.9	5.193980	-178.998	40.648	1.079961	0.022259	0.021952	42.9053	15909.9	0.020236	0.022915	1872.36	96024.3
1004	2.000000	1.082291	7.37487e+06	-50339.1	1055.82	-29756	0.000000	0.000000	7.084538	46.7183	NaN	0.000000	0.001543	0.001728	28.0845	29.2773	0.001740	16824	3.715085	-178.478	46.1526	1.082004	0.024282	0.023995	46.7183	16824	0.022199	0.026116	1788.85	95114.6
1004	2.000000	1.084293	7.37487e+06	-50339.1	1055.82	-29756	0.000000	0.000000	7.086927	56.1154	NaN	0.000000	0.001564	0.001723	28.0843	32.0694	0.001892	16947.3	5.839223	-178.58	54.8662	1.083870	0.026284	0.025861	56.1154	16947.3	0.023801	0.028870	1943.73	91127.6
1004	2.000000	1.086255	7.37488e+06	-50339.1	1055.82	-29756	0.000000	0.000000	7.089108	61.4512	NaN	0.000000	0.001535	0.001753	28.0842	33.2181	0.001768	18789.2	3.205421	-177.818	60.6109	1.086018	0.028246	0.028009	61.4512	18789.2	0.025793	0.032474	1892.31	95260.1
1004	2.000000	1.088257	7.37488e+06	-50339.1	1055.82	-29756	0.000000	0.000000	7.091369	67.7566	NaN	0.000000	0.001545	0.001738	28.0844	36.0656	0.001837	19631.4	7.064543	178.063	66.6438	1.087983	0.030248	0.029974	67.7566	19631.4	0.027659	0.036032	1880.47	94489
1004	2.000000	1.090163	7.37488e+06	-50339.1	1055.82	-29756	0.000000	0.000000	7.093548	74.3836	NaN	0.000000	0.001527	0.001763	28.0843	36.965	0.001766	20925.9	2.992190	-178.965	70.3976	1.089955	0.032154	0.031946	74.3836	20925.9	0.029488	0.039690	1874.12	95966
1004	2.000000	1.092260	7.37488e+06	-50339.1	1055.82	-29756	0.000000	0.000000	7.096016	83.4147	NaN	0.000000	0.001598	0.001750	28.0845	39.3796	0.001902	20704.7	6.038936	178.572	82.1539	1.091915	0.034251	0.033905	83.4147	20704.7	0.031229	0.043330	1925.1	90875.7
1004	2.000000	1.094296	7.37488e+06	-50339.1	1055.82	-29756	0.000000	0.000000	7.098305	89.5574	NaN	0.000000	0.001562	0.001755	28.0844	41.514	0.001809	22945.2	7.467201	176.027	90.4423	1.093973	0.036287	0.035964	89.5574	22945.2	0.033360	0.047996	1865.93	95688.9
1004	2.000000	1.096295	7.37488e+06	-50339.1	1055.82	-29756	0.000000	0.000000	7.100553	95.6448	NaN	0.000000	0.001538	0.001741	28.0845	42.3771	0.001833	23117.1	7.065905	177.431	96.5501	1.095966	0.038285	0.037957	95.6448	23117.1	0.035182	0.052172	1833.28	92467.8
1004	2.000000	1.098270	7.37488e+06	-50339.1	1055.82	-29756	0.000000	0.000000	7.102839	103.189	NaN	0.000000	0.001618	0.001736	28.0853	45.017	0.001812	24850.1	4.003751	177.883	100.973	1.097957	0.040261	0.039948	103.189	24850.1	0.037146	0.056862	1814.74	95212
1004	2.000000	1.100200	7.37488e+06	-50339.1	1055.82	-29756	0.000000	0.000000	7.105145	112.328	NaN	0.000000	0.001583	0.001731	28.0845	45.7111	0.001589	28760.2	6.711213	175.074	110.228	1.099927	0.042191	0.041918	112.328	28760.2	0.039262	0.062134	1807.83	105415
1004	2.000000	1.102229	7.37488e+06	-50339.1	1055.82	-29756	0.000000	0.000000	7.107369	117.078	NaN	0.000000	0.001562	0.001734	28.0833	48.3953	0.001737	27859.1	3.335967	177.513	115.309	1.102001	0.044220	0.043992	117.078	27859.1	0.041068	0.066817	1752.21	98468.2
1004	2.000000	1.104263	7.37488e+06	-50339.1	1055.82	-29756	0.000000	0.000000	7.109837	127.606	NaN	0.000000	0.001572	0.001757	28.0832	50.7106	0.001822	27831.4	2.876987	179.313	127.048	1.103927	0.046254	0.045918	127.606	27831.4	0.042816	0.071507	1784.51	95089.7
1004	2.000000	1.106230	7.37488e+06	-50339.1	1055.82	-29756	0.000000	0.000000	7.112135	135.683	NaN	0.000000	0.001567	0.001712	28.0833	52.0743	0.001712	30416.2	5.340013	175.892	137.789	1.105976	0.048221	0.047967	135.683	30416.2	0.044875	0.077234	1756.77	99993.7
1004	2.000000	1.108223	7.37488e+06	-50339.1	1055.82	-29756	0.000000	0.000000	7.114606	147.304	NaN	0.000000	0.001590	0.001751	28.0835	55.3723	0.001808	30632.3	1.777173	179.739	144.405	1.107934	0.050214	0.049925	147.304	30632.3	0.046607	0.082216	1791.66	97605.4
1004	2.000000	1.110182	7.37488e+06	-50339.1	1055.82	-29756	0.000000	0.000000	7.116987	157.556	NaN	0.000000	0.001583	0.001754	28.0829	55.7457	0.001662	33534.2	2.105117	177.495	153.112	1.109924	0.052173	0.051915	157.556	33534.2	0.048649	0.088283	1784.66	103115
1004	2.000000	1.112248	7.37488e+06	-50339.1	1055.82	-29756	0.000000	0.000000	7.119539	169.391	NaN	0.000000	0.001555	0.001762	28.083	59.4295	0.001796	33096.8	8.453496	172.403	170.256	1.111889	0.054239	0.053880	169.391	33096.8	0.050400	0.093655	1808.67	98808.4
1004	2.000000	1.114187	7.37488e+06	-50339.1	1055.82	-29756	0.000000	0.000000	7.122011	182.351	NaN	0.000000	0.001570	0.001757	28.0832	60.4742	0.001851	32676.9	1.977991	178.646	177.548	1.113907	0.056178	0.055897	182.351	32676.9	0.051992	0.098670	1848.09	95043.1
1004	2.000000	1.116235	7.37488e+06	-50339.1	1055.82	-29756	0.000000	0.000000	7.124501	193.1	NaN	0.000000	0.001579	0.001727	28.0833	61.8978	0.001701	36395.4	2.846598	177.006	192.377	1.115959	0.058226	0.057950	193.1	36395.4	0.054246	0.105989	1821.89	102139
1004	2.000000	1.118240	7.37488e+06	-50339.1	1055.82	-29756	0.000000	0.000000	7.126893	202.524	NaN	0.000000	0.001528	0.001764	28.0832	65.4731	0.001797	36431.7	3.213149	176.224	202.13	1.117962	0.060231	0.059953	202.524	36431.7	0.056061	0.112065	1807.2	99430.1
1004	2.000000	1.120209	7.37488e+06	-50339.1	1055.82	-29756	0.000000	0.000000	7.129345	214.252	NaN	0.000000	0.001570	0.001760	28.0833	66.5789	0.001807	36854	4.465816	175.425	212.176	1.119879	0.062200	0.061870	214.252	36854	0.057840	0.118176	1812.99	97947.5
1004	2.000000	1.122239	7.37488e+06	-50339.1	1055.82	-29756	0.000000	0.000000	7.131666	221.324	NaN	0.000000	0.001564	0.001770	28.0829	69.4214	0.001786	38872.4	3.413495	175.578	220.893	1.121822	0.064230	0.063812	221.324	38872.4	0.059960	0.125665	1761.22	100186
1004	2.000000	1.124193	7.37488e+06	-50339.1	1055.82	-29756	0.000000	0.000000	7.134028	231.254	NaN	0.000000	0.001591	0.001751	28.0829	72.4957	0.001812	40000.9	6.125099	172.58	228.236	1.124004	0.066184	0.065995	231.254	40000.9	0.061848	0.132518	1745.08	100393
1004	2.000000	1.126285	7.37488e+06	-50339.1	1055.82	-29756	0.000000	0.000000	7.136817	248.185	NaN	0.000000	0.001566	0.001736	28.083	72.8458	0.001836	39679.8	6.198947	173.944	251.646	1.125835	0.068276	0.067826	248.185	39679.8	0.063585	0.138978	1785.79	97245.8
1004	2.000000	1.128171	7.37488e+06	-50339.1	1055.82	-29756	0.000000	0.000000	7.139093	257.678	NaN	0.000000	0.001570	0.001736	28.0832	75.2112	0.001891	39773.3	4.498587	174.842	257.023	1.127931	0.070162	0.069922	257.678	39773.3	0.065303	0.145508	1770.89	95262.2
1004	2.000000	1.130140	7.37488e+06	-50339.1	1055.82	-29756	0.000000	0.000000	7.141737	274.08	NaN	0.000000	0.001582	0.001714	28.0832	74.9333	0.001717	43654.4	2.079036	176.409	269.723	1.129763	0.072131	0.071754	274.08	43654.4	0.067422	0.153761	1782.51	101713
1004	2.000000	1.132167	7.37488e+06	-50339.1	1055.82	-29756	0.000000	0.000000	7.144168	283.93	NaN	0.000000	0.001577	0.001727	28.0834	78.319	0.001898	41274.5	3.095075	175.393	279.726	1.131849	0.074158	0.073840	283.93	41274.5	0.068998	0.160037	1774.15	94263.7
1004	2.000000	1.134281	7.37488e+06	-50339.1	1055.82	-29756	0.000000	0.000000	7.146973	300.716	NaN	0.000000	0.001543	0.001730	28.0831	80.3925	0.001773	45353.8	8.485548	170.728	301.488	1.133748	0.076272	0.075739	300.716	45353.8	0.071299	0.169414	1775.04	100673
1004	2.000000	1.136215	7.37488e+06	-50339.1	1055.82	-29756	0.000000	0.000000	7.149257	309.222	NaN	0.000000	0.001571	0.001759	28.084	81.89	0.001735	47201	3.779593	174.197	311.807	1.135898	0.078206	0.077889	309.222	47201	0.073293	0.177740	1739.75	102290
1004	2.000000	1.138177	7.37488e+06	-50339.1	1055.82	-29756	0.000000	0.000000	7.151664	320.056	NaN	0.000000	0.001586	0.001708	28.0843	85.743	0.001857	46167	5.387142	171.908	316.78	1.137980	0.080168	0.079971	320.056	46167	0.074969	0.184886	1731.1	98096.5
1004	2.000000	1.140237	7.37488e+06	-50339.1	1055.82	-29756	0.000000	0.000000	7.154486	338.581	NaN	0.000000	0.001605	0.001735	28.0841	86.2997	0.001763	48939.4	4.681914	172.421	339.681	1.139945	0.082228	0.081936	338.581	48939.4	0.077040	0.193897	1746.19	101542
1004	2.000000	1.142144	7.37488e+06	-50339.1	1055.82	-29756	0.000000	0.000000	7.156769	347.739	NaN	0.000000	0.001590	0.001738	28.0844	87.4959	0.001736	50404.4	2.984337	173.73	343.37	1.142008	0.084135	0.083999	347.739	50404.4	0.078961	0.202438	1717.76	102352
1004	2.000000	1.144287	7.37488e+06	-50339.1	1055.82	-29756	0.000000	0.000000	7.159613	364.77	NaN	0.000000	0.001586	0.001726	28.0843	90.9607	0.001898	47912.1	8.724834	170.463	365.07	1.143759	0.086278	0.085750	364.77	47912.1	0.080568	0.209715	1739.36	95588.2
1004	2.000000	1.146217	7.37488e+06	-50339.1	1055.82	-29756	0.000000	0.000000	7.162331	383.941	NaN	0.000000	0.001639	0.001764	28.0841	92.5782	0.001815	51007.1	10.9725	167.206	382.941	1.145677	0.088208	0.087668	383.941	51007.1	0.082563	0.218913	1753.85	99601.9
1004	2.000000	1.148193	7.37488e+06	-50339.1	1055.82	-29756	0.000000	0.000000	7.164519	389.087	NaN	0.000000	0.001641	0.001772	28.0843	95.0876	0.001786	53228.4	6.040097	170.285	388.128	1.147972	0.090184	0.089963	389.087	53228.4	0.084702	0.228982	1699.21	101629
1004	2.000000	1.150194	7.37488e+06	-50339.1	1055.82	-29756	0.000000	0.000000	7.167342	409.09	NaN	0.000000	0.001662	0.001741	28.0842	95.0412	0.001757	54095.7	7.000317	170.375	408.204	1.149720	0.092185	0.091711	409.09	54095.7	0.086513	0.237673	1721.23	101378
1004	2.000000	1.152143	7.37488e+06	-50339.1	1055.82	-29756	0.000000	0.000000	7.169779	420.945	NaN	0.000000	0.001646	0.001766	28.0843	97.2584	0.001827	53230.2	2.096410	174.856	417.926	1.151921	0.094134	0.093912	420.945	53230.2	0.088203	0.245919	1711.72	98069.6
1004	2.000000	1.154146	7.37488e+06	-50339.1	1055.82	-29756	0.000000	0.000000	7.172546	439.527	NaN	0.000000	0.001617	0.001724	28.0841	99.2688	0.001887	52594.9	5.541033	172.268	435.722	1.153813	0.096137	0.095804	439.527	52594.9	0.089869	0.254176	1729.23	95312.5
1004	2.000000	1.156216	7.37488e+06	-50339.1	1055.82	-29756	0.000000	0.000000	7.175124	451.906	NaN	0.000000	0.001621	0.001745	28.0846	100.106	0.001898	52753.2	1.206810	175.696	452.446	1.155974	0.098207	0.097965	451.906	52753.2	0.091782	0.263812	1712.99	93837.2
1004	2.000000	1.158095	7.37488e+06	-50339.1	1055.82	-29756	0.000000	0.000000	7.178028	476.824	NaN	0.000000	0.001639	0.001721	28.0845	102.392	0.001931	53035.1	7.275112	169.93	470.375	1.157832	0.100085	0.099823	476.824	53035.1	0.093342	0.271799	1754.33	92942.2
1004	2.000000	1.160068	7.37488e+06	-50339.1	1055.82	-29756	0.000000	0.000000	7.180657	492.767	NaN	0.000000	0.001662	0.001754	28.0843	102.913	0.001756	58594	7.663868	169.579	486.273	1.159678	0.102059	0.101669	492.767	58594	0.095751	0.284345	1732.99	100393
1004	2.000000	1.162138	7.37488e+06	-50339.1	1055.82	-29756	0.000000	0.000000	7.183556	512.931	NaN	0.000000	0.001666	0.001736	28.0845	104.26	0.001736	60050	2.851103	173.36	510.223	1.161781	0.104128	0.103772	512.931	60050	0.097722	0.294808	1739.89	101046