File: remote_trans/data/nanoindenter/0828-1/data/Data_2025-08-06,11h17m57s/2025-07-22_16-23-58_1_112.txt
2025-07-22, 16:23:58, 1
Index	Phase	Displacement	Time	Pos X	Pos Y	Pos Z	Rot A	Rot B	Piezo Z	Force A	Force B	Gripper	Voltage A	Voltage B	Temperature	Amplitude force	Amplitude pos	Stiffness	Phase shift	Phase excitation	Force A raw	Displacement raw	HMax	HMax raw	Real Force	Real Stiffness	Contact Depth	Area	Hardness	Reduced Mod.
[#]	[#]	[um]	[s]	[um]	[um]	[um]	[m°]	[m°]	[um]	[uN]	[uN]	[V]	[V]	[V]	[°C]	[uN]	[um]	[N/m]	[°]	[°]	[uN]	[um]	[um]	[um]	[uN]	[N/m]	[um]	[um^2]	[MPa]	[MPa]
112	1.000000	0.002972	7.36613e+06	-44239.1	955.818	-29776.9	0.000000	0.000000	6.002795	-0.018341	NaN	0.000000	0.001554	0.001730	28.1223	0.097271	0.000963	101.058	95.6002	-164.966	-0.000360	0.001724	-1.116425	-1.117673	-0.018341	101.058	-1.116289	-8.292344E+14	2.211840E-17	NaN
112	1.000000	0.013045	7.36613e+06	-44239.1	955.818	-29776.9	0.000000	0.000000	6.012871	0.037763	NaN	0.000000	0.001545	0.001751	28.0827	0.136578	0.001242	109.964	156.72	17.2639	0.111036	0.011623	-1.106352	-1.107773	0.037763	109.964	-1.106609	-6.148708E+14	-6.141555E-17	NaN
112	1.000000	0.022959	7.36613e+06	-44239.1	955.818	-29776.9	0.000000	0.000000	6.022784	0.013635	NaN	0.000000	0.001565	0.001726	28.0805	0.030276	0.001728	17.5196	163.221	-163.975	-0.034006	0.021616	-1.096438	-1.097781	0.013635	17.5196	-1.097021	-4.571761E+14	-2.982407E-17	NaN
112	1.000000	0.032913	7.36613e+06	-44239.1	955.819	-29776.9	0.000000	0.000000	6.032739	0.038713	NaN	0.000000	0.001576	0.001698	28.1127	0.078185	0.001998	39.1373	-50.3474	13.1697	0.123518	0.031516	-1.086483	-1.087880	0.038713	39.1373	-1.087225	-3.377179E+14	-1.146311E-16	NaN
112	1.000000	0.042963	7.36613e+06	-44239.1	955.819	-29776.9	0.000000	0.000000	6.042786	-0.022022	NaN	0.000000	0.001544	0.001732	28.1217	0.078892	0.002053	38.4354	127.594	-162.692	-0.066320	0.041646	-1.076434	-1.077751	-0.022022	38.4354	-1.076004	-2.386970E+14	9.225981E-17	NaN
112	1.000000	0.052949	7.36613e+06	-44239.1	955.818	-29776.9	0.000000	0.000000	6.052772	-0.024654	NaN	0.000000	0.001507	0.001726	28.0833	0.089079	0.001984	44.8897	-34.4946	15.2428	0.022949	0.051571	-1.066448	-1.067826	-0.024654	44.8897	-1.066036	-1.753586E+14	1.405928E-16	NaN
112	1.000000	0.062934	7.36613e+06	-44239.1	955.818	-29776.9	0.000000	0.000000	6.062759	0.014935	NaN	0.000000	0.001530	0.001748	28.0806	0.100629	0.002158	46.6209	-167.412	-164.742	-0.002726	0.061618	-1.056463	-1.057779	0.014935	46.6209	-1.056703	-1.313753E+14	-1.136784E-16	NaN
112	1.000000	0.072926	7.36613e+06	-44239.1	955.817	-29776.9	0.000000	0.000000	6.072753	0.087769	NaN	0.000000	0.001549	0.001668	28.1131	0.075811	0.001916	39.5651	166.523	13.9302	-0.043682	0.071548	-1.046471	-1.047849	0.087769	39.5651	-1.048135	-1.007726E+14	-8.709567E-16	NaN
112	1.000000	0.082910	7.36613e+06	-44239.1	955.818	-29776.9	0.000000	0.000000	6.082735	0.020576	NaN	0.000000	0.001569	0.001647	28.122	0.066787	0.002076	32.1641	-89.6036	-168.163	-0.057244	0.081642	-1.036487	-1.037755	0.020576	32.1641	-1.036966	-7.131402E+13	-2.885238E-16	NaN
112	1.000000	0.092912	7.36613e+06	-44239.1	955.819	-29776.9	0.000000	0.000000	6.092736	0.000841	NaN	0.000000	0.001588	0.001670	28.0836	0.011520	0.001818	6.337185	-157.473	13.66	0.047546	0.091505	-1.026484	-1.027892	0.000841	6.337185	-1.026584	-5.170479E+13	-1.627472E-17	NaN
112	1.000000	0.102950	7.36613e+06	-44239.1	955.818	-29776.9	0.000000	0.000000	6.102777	0.078409	NaN	0.000000	0.001571	0.001639	28.0801	0.079759	0.002056	38.7957	129.048	-166.996	0.128583	0.101670	-1.016447	-1.017727	0.078409	38.7957	-1.017963	-3.958614E+13	-1.980713E-15	NaN
112	1.000000	0.112930	7.36613e+06	-44239.1	955.82	-29776.9	0.000000	0.000000	6.112757	0.058089	NaN	0.000000	0.001555	0.001667	28.1135	0.112662	0.002046	55.0621	85.0253	12.0178	0.056804	0.111651	-1.006467	-1.007746	0.058089	55.0621	-1.007258	-2.841006E+13	-2.044680E-15	NaN
112	1.000000	0.122948	7.36613e+06	-44239.1	955.818	-29776.9	0.000000	0.000000	6.122772	-0.008504	NaN	0.000000	0.001522	0.001678	28.1227	0.108929	0.002075	52.4957	-71.4135	-166.743	-0.000936	0.121663	-0.996449	-0.997734	-0.008504	52.4957	-0.996327	-2.024487E+13	4.200505E-16	NaN
112	1.000000	0.132965	7.36613e+06	-44239.1	955.818	-29776.9	0.000000	0.000000	6.132791	0.046332	NaN	0.000000	0.001529	0.001712	28.0845	0.090190	0.002015	44.768	68.9492	12.3907	0.067318	0.131631	-0.986431	-0.987766	0.046332	44.768	-0.987208	-1.525821E+13	-3.036504E-15	NaN
112	1.000000	0.142971	7.36613e+06	-44239.1	955.818	-29776.9	0.000000	0.000000	6.142795	0.008738	NaN	0.000000	0.001573	0.001655	28.0812	0.102123	0.002015	50.6801	1.905703	-168.506	-0.049508	0.141680	-0.976426	-0.977716	0.008738	50.6801	-0.976556	-1.096487E+13	-7.968728E-16	NaN
112	1.000000	0.152973	7.36613e+06	-44239.1	955.818	-29776.9	0.000000	0.000000	6.152797	0.007322	NaN	0.000000	0.001590	0.001660	28.1144	0.020397	0.002052	9.941632	82.5373	14.3725	0.031513	0.151558	-0.966424	-0.967839	0.007322	9.941632	-0.966976	-8.145326E+12	-8.989047E-16	NaN
112	1.000000	0.162934	7.36613e+06	-44239.1	955.818	-29776.9	0.000000	0.000000	6.162756	-0.045077	NaN	0.000000	0.001584	0.001663	28.1243	0.040788	0.001789	22.8041	-137.631	-161.694	-0.002202	0.161645	-0.956463	-0.957752	-0.045077	22.8041	-0.954981	-5.613000E+12	8.030882E-15	NaN
112	1.000000	0.172975	7.36613e+06	-44239.1	955.818	-29776.9	0.000000	0.000000	6.172801	0.052488	NaN	0.000000	0.001560	0.001669	28.0854	0.019336	0.002002	9.660271	2.020588	15.6906	0.024441	0.171606	-0.946422	-0.947791	0.052488	9.660271	-0.950497	-4.883471E+12	-1.074812E-14	NaN
112	1.000000	0.182975	7.36613e+06	-44239.1	955.818	-29776.9	0.000000	0.000000	6.182797	-0.041603	NaN	0.000000	0.001586	0.001689	28.0819	0.018919	0.001988	9.514143	-53.2738	-164.059	0.064350	0.181644	-0.936422	-0.937753	-0.041603	9.514143	-0.933142	-2.848432E+12	1.460564E-14	NaN
112	1.000000	0.192958	7.36613e+06	-44239.1	955.819	-29776.9	0.000000	0.000000	6.192783	0.024388	NaN	0.000000	0.001584	0.001700	28.1131	0.064040	0.001915	33.4429	-7.663364	15.079	-0.024273	0.191639	-0.926439	-0.927758	0.024388	33.4429	-0.926986	-2.352429E+12	-1.036719E-14	NaN
112	1.000000	0.202988	7.36613e+06	-44239.1	955.818	-29776.9	0.000000	0.000000	6.202812	0.016937	NaN	0.000000	0.001604	0.001654	28.1239	0.062558	0.001959	31.9276	95.3859	-168.269	0.024751	0.201617	-0.916409	-0.917779	0.016937	31.9276	-0.916807	-1.714335E+12	-9.879562E-15	NaN
112	1.000000	0.212987	7.36613e+06	-44239.1	955.818	-29776.9	0.000000	0.000000	6.212811	0.014087	NaN	0.000000	0.001581	0.001648	28.0857	0.137719	0.002003	68.7678	-147.617	14.3144	-0.000395	0.211657	-0.906410	-0.907740	0.014087	68.7678	-0.906564	-1.246653E+12	-1.129949E-14	NaN
112	1.000000	0.222965	7.36613e+06	-44239.1	955.818	-29776.9	0.000000	0.000000	6.222792	0.061392	NaN	0.000000	0.001568	0.001705	28.0811	0.022154	0.001979	11.1957	26.1032	-163.507	0.004995	0.221727	-0.896432	-0.897670	0.061392	11.1957	-0.900544	-1.033761E+12	-5.938742E-14	NaN
112	1.000000	0.233014	7.36613e+06	-44239.1	955.819	-29776.9	0.000000	0.000000	6.232838	-0.000475	NaN	0.000000	0.001562	0.001683	28.1128	0.067403	0.001947	34.6189	-126.85	15.8139	0.064433	0.231607	-0.886383	-0.887790	-0.000475	34.6189	-0.886373	-6.650914E+11	7.138276E-16	NaN
112	1.000000	0.243002	7.36613e+06	-44239.1	955.818	-29776.9	0.000000	0.000000	6.242823	-0.060187	NaN	0.000000	0.001574	0.001671	28.1231	0.031448	0.002045	15.3806	-163.015	-165.01	-0.104551	0.241709	-0.876395	-0.877688	-0.060187	15.3806	-0.873460	-4.448904E+11	1.352861E-13	NaN
112	1.000000	0.253003	7.36613e+06	-44239.1	955.818	-29776.9	0.000000	0.000000	6.252827	-0.016765	NaN	0.000000	0.001561	0.001655	28.0822	0.099078	0.001977	50.1278	-64.9429	12.7344	0.023548	0.251655	-0.866394	-0.867742	-0.016765	50.1278	-0.866143	-3.542049E+11	4.733105E-14	NaN
112	1.000000	0.263025	7.36613e+06	-44239.1	955.818	-29776.9	0.000000	0.000000	6.262851	0.060582	NaN	0.000000	0.001565	0.001679	28.0778	0.042162	0.001989	21.1922	-13.9308	-167.029	0.046849	0.261702	-0.856372	-0.857695	0.060582	21.1922	-0.858516	-2.792796E+11	-2.169223E-13	NaN
112	1.000000	0.273001	7.36613e+06	-44239.1	955.817	-29776.9	0.000000	0.000000	6.272828	0.085075	NaN	0.000000	0.001567	0.001700	28.1113	0.084392	0.001988	42.4412	-161.823	14.4078	0.037972	0.271603	-0.846396	-0.847794	0.085075	42.4412	-0.847899	-2.005822E+11	-4.241427E-13	NaN
112	1.000000	0.282996	7.36613e+06	-44239.1	955.818	-29776.9	0.000000	0.000000	6.282821	0.031945	NaN	0.000000	0.001558	0.001743	28.1224	0.069310	0.002022	34.2797	-131.186	-160.916	0.064351	0.281666	-0.836401	-0.837731	0.031945	34.2797	-0.837100	-1.432181E+11	-2.230493E-13	NaN
112	1.000000	0.293030	7.36613e+06	-44239.1	955.818	-29776.9	0.000000	0.000000	6.292857	0.078804	NaN	0.000000	0.001567	0.001734	28.0841	0.094772	0.001991	47.603	97.2778	14.7718	0.007176	0.291633	-0.826367	-0.827763	0.078804	47.603	-0.827608	-1.065039E+11	-7.399182E-13	NaN
112	1.000000	0.303051	7.36613e+06	-44239.1	955.818	-29776.9	0.000000	0.000000	6.302877	0.046167	NaN	0.000000	0.001541	0.001687	28.0806	0.037867	0.001980	19.1244	-80.2236	-163.577	-0.009819	0.301721	-0.816346	-0.817676	0.046167	19.1244	-0.818156	-7.928851E+10	-5.822602E-13	NaN
112	1.000000	0.313054	7.36613e+06	-44239.1	955.818	-29776.9	0.000000	0.000000	6.312880	0.033753	NaN	0.000000	0.001549	0.001725	28.1121	0.053271	0.002167	24.5799	-11.7664	11.4592	0.028208	0.311682	-0.806342	-0.807715	0.033753	24.5799	-0.807372	-5.661330E+10	-5.962106E-13	NaN
112	1.000000	0.323046	7.36613e+06	-44239.1	955.818	-29776.9	0.000000	0.000000	6.322872	0.036574	NaN	0.000000	0.001571	0.001725	28.1234	0.151151	0.002052	73.6675	-130.25	-167.015	-0.065303	0.321716	-0.796351	-0.797680	0.036574	73.6675	-0.796723	-4.058614E+10	-9.011505E-13	NaN
112	1.000000	0.333062	7.36613e+06	-44239.1	955.819	-29776.9	0.000000	0.000000	6.332890	0.088291	NaN	0.000000	0.001567	0.001718	28.0837	0.116823	0.001948	59.9756	74.6042	15.7117	0.091855	0.331657	-0.786334	-0.787740	0.088291	59.9756	-0.787439	-3.035939E+10	-2.908183E-12	NaN
112	1.000000	0.343049	7.36614e+06	-44239.1	955.818	-29776.9	0.000000	0.000000	6.342875	0.048762	NaN	0.000000	0.001571	0.001692	28.0793	0.085325	0.001987	42.95	-21.2417	-163.868	0.025382	0.341708	-0.776348	-0.777689	0.048762	42.95	-0.777199	-2.203792E+10	-2.212622E-12	NaN
112	1.000000	0.353048	7.36614e+06	-44239.1	955.818	-29776.9	0.000000	0.000000	6.352872	0.003537	NaN	0.000000	0.001543	0.001718	28.1115	0.085620	0.001998	42.852	-95.6282	14.1138	0.083716	0.351672	-0.766349	-0.767725	0.003537	42.852	-0.766411	-1.572197E+10	-2.249866E-13	NaN
112	1.000000	0.363052	7.36614e+06	-44239.1	955.818	-29776.9	0.000000	0.000000	6.362876	-0.000102	NaN	0.000000	0.001549	0.001725	28.1241	0.036921	0.001866	19.7846	91.496	-165.275	0.009234	0.361773	-0.756345	-0.757624	-0.000102	19.7846	-0.756341	-1.146877E+10	8.917803E-15	NaN
112	1.000000	0.373073	7.36614e+06	-44239.1	955.818	-29776.9	0.000000	0.000000	6.372897	0.001882	NaN	0.000000	0.001573	0.001751	28.0866	0.079350	0.001898	41.8046	18.8787	13.0525	-0.094310	0.371745	-0.746324	-0.747652	0.001882	41.8046	-0.746358	-8.387581E+9	-2.244032E-13	NaN
112	1.000000	0.383088	7.36614e+06	-44239.1	955.817	-29776.9	0.000000	0.000000	6.382913	0.023441	NaN	0.000000	0.001566	0.001749	28.082	0.103298	0.001863	55.4497	120.288	-162.457	-0.028864	0.381782	-0.736309	-0.737615	0.023441	55.4497	-0.736626	-6.181578E+9	-3.792117E-12	NaN
112	1.000000	0.393078	7.36614e+06	-44239.1	955.819	-29776.9	0.000000	0.000000	6.392905	0.093368	NaN	0.000000	0.001569	0.001714	28.1132	0.085735	0.001982	43.2477	-121.243	15.135	0.038450	0.391728	-0.726319	-0.727669	0.093368	43.2477	-0.727938	-4.706627E+9	-1.983746E-11	NaN
112	1.000000	0.403050	7.36614e+06	-44239.1	955.817	-29776.9	0.000000	0.000000	6.402872	-0.047626	NaN	0.000000	0.001595	0.001736	28.1251	0.018069	0.002058	8.777959	142.803	-162.514	0.040428	0.401759	-0.716347	-0.717638	-0.047626	8.777959	-0.712277	-2.878234E+9	1.654706E-11	NaN
112	1.000000	0.413077	7.36614e+06	-44239.1	955.818	-29776.9	0.000000	0.000000	6.412902	0.011877	NaN	0.000000	0.001607	0.001741	28.085	0.136767	0.002022	67.6231	76.1469	15.147	0.122159	0.411676	-0.706320	-0.707721	0.011877	67.6231	-0.706451	-2.396702E+9	-4.955512E-12	NaN
112	1.000000	0.423070	7.36614e+06	-44239.1	955.818	-29776.9	0.000000	0.000000	6.422894	0.000503	NaN	0.000000	0.001603	0.001706	28.0809	0.097806	0.001999	48.9192	-177.827	-168.122	-0.037325	0.421758	-0.696327	-0.697638	0.000503	48.9192	-0.696335	-1.743688E+9	-2.883120E-13	NaN
112	1.000000	0.433075	7.36614e+06	-44239.1	955.819	-29776.9	0.000000	0.000000	6.432899	-0.002710	NaN	0.000000	0.001613	0.001716	28.1125	0.136000	0.001952	69.6708	23.1169	17.5954	-0.020338	0.431757	-0.686322	-0.687640	-0.002710	69.6708	-0.686293	-1.271303E+9	2.131335E-12	NaN
112	1.000000	0.443100	7.36614e+06	-44239.1	955.819	-29776.9	0.000000	0.000000	6.442927	0.065883	NaN	0.000000	0.001553	0.001716	28.1241	0.124216	0.002033	61.1037	-28.3708	-164.418	-0.029954	0.441773	-0.676297	-0.677624	0.065883	61.1037	-0.677105	-9.519428E+8	-6.920885E-11	NaN
112	1.000000	0.453111	7.36614e+06	-44239.1	955.818	-29776.9	0.000000	0.000000	6.452936	0.011940	NaN	0.000000	0.001598	0.001717	28.0862	0.073183	0.001981	36.9403	110.284	17.4622	-0.067007	0.451704	-0.666286	-0.667693	0.011940	36.9403	-0.666528	-6.821248E+8	-1.750461E-11	NaN
112	1.000000	0.463104	7.36614e+06	-44239.1	955.818	-29776.9	0.000000	0.000000	6.462927	-0.033250	NaN	0.000000	0.001573	0.001743	28.0811	0.049407	0.001996	24.7499	-117.405	-166.313	0.070631	0.461784	-0.656293	-0.657613	-0.033250	24.7499	-0.655285	-4.784893E+8	6.948911E-11	NaN
112	1.000000	0.473133	7.36614e+06	-44239.1	955.818	-29776.9	0.000000	0.000000	6.472957	-0.008124	NaN	0.000000	0.001579	0.001756	28.1131	0.045094	0.001934	23.3135	-60.7999	13.7451	-0.048900	0.471740	-0.646264	-0.647657	-0.008124	23.3135	-0.646002	-3.569626E+8	2.275937E-11	NaN
112	1.000000	0.483100	7.36614e+06	-44239.1	955.818	-29776.9	0.000000	0.000000	6.482927	0.087361	NaN	0.000000	0.001558	0.001740	28.125	0.097150	0.002013	48.2727	-168.441	-166.707	0.002265	0.481765	-0.636297	-0.637632	0.087361	48.2727	-0.637654	-2.742234E+8	-3.185772E-10	NaN
112	1.000000	0.493103	7.36614e+06	-44239.1	955.819	-29776.9	0.000000	0.000000	6.492929	0.052108	NaN	0.000000	0.001461	0.001733	28.0855	0.041227	0.001970	20.9277	-27.7554	15.9891	0.093992	0.491734	-0.626294	-0.627663	0.052108	20.9277	-0.628162	-2.031317E+8	-2.565243E-10	NaN
112	1.000000	0.503122	7.36614e+06	-44239.1	955.818	-29776.9	0.000000	0.000000	6.502951	0.132645	NaN	0.000000	0.001462	0.001735	28.078	0.086020	0.002150	40.0097	-40.6259	-168.486	0.144511	0.501833	-0.616275	-0.617563	0.132645	40.0097	-0.618762	-1.508722E+8	-8.791870E-10	NaN
112	1.000000	0.513119	7.36614e+06	-44239.1	955.818	-29776.9	0.000000	0.000000	6.512942	-0.038013	NaN	0.000000	0.001496	0.001718	28.1099	0.019432	0.002024	9.599702	-137.291	16.2771	-0.058943	0.511772	-0.606277	-0.607625	-0.038013	9.599702	-0.603308	-9.247111E+7	4.110809E-10	NaN
112	1.000000	0.523114	7.36614e+06	-44239.1	955.819	-29776.9	0.000000	0.000000	6.522938	-0.004407	NaN	0.000000	0.001489	0.001701	28.1227	0.047616	0.002064	23.0729	-132.962	-164.98	0.023496	0.521782	-0.596283	-0.597615	-0.004407	23.0729	-0.596140	-7.366855E+7	5.982763E-11	NaN
112	1.000000	0.533127	7.36614e+06	-44239.1	955.818	-29776.9	0.000000	0.000000	6.532950	-0.014794	NaN	0.000000	0.001480	0.001728	28.0849	0.083248	0.002114	39.3728	-129.175	13.5518	0.025868	0.531780	-0.586270	-0.587617	-0.014794	39.3728	-0.585988	-5.337586E+7	2.771743E-10	NaN
112	1.000000	0.543136	7.36614e+06	-44239.1	955.818	-29776.9	0.000000	0.000000	6.542960	-0.008947	NaN	0.000000	0.001485	0.001766	28.08	0.056893	0.002040	27.8906	34.3891	-166.708	-0.024386	0.541793	-0.576261	-0.577603	-0.008947	27.8906	-0.576020	-3.888506E+7	2.300845E-10	NaN
112	1.000000	0.553144	7.36614e+06	-44239.1	955.818	-29776.9	0.000000	0.000000	6.552968	0.020370	NaN	0.000000	0.001495	0.001768	28.1108	0.062400	0.001977	31.5708	-154.383	15.3322	-0.043490	0.551768	-0.566253	-0.567629	0.020370	31.5708	-0.566737	-2.894279E+7	-7.037919E-10	NaN
112	1.000000	0.563132	7.36614e+06	-44239.1	955.818	-29776.9	0.000000	0.000000	6.562957	0.029826	NaN	0.000000	0.001526	0.001741	28.1245	0.039105	0.002036	19.2048	-166.732	-168.874	0.019744	0.561860	-0.556265	-0.557537	0.029826	19.2048	-0.557430	-2.151896E+7	-1.386051E-9	NaN
112	1.000000	0.573138	7.36614e+06	-44239.1	955.818	-29776.9	0.000000	0.000000	6.572961	-0.006902	NaN	0.000000	0.001518	0.001736	28.0846	0.110520	0.002082	53.0923	142.372	14.1531	-0.043545	0.571779	-0.546259	-0.547617	-0.006902	53.0923	-0.546162	-1.502381E+7	4.594364E-10	NaN
112	1.000000	0.583152	7.36614e+06	-44239.1	955.818	-29776.9	0.000000	0.000000	6.582975	-0.027939	NaN	0.000000	0.001510	0.001738	28.0793	0.037602	0.001901	19.7792	-40.2281	-164.23	-0.028265	0.581830	-0.536244	-0.537566	-0.027939	19.7792	-0.535185	-1.058175E+7	2.640291E-9	NaN
112	1.000000	0.593144	7.36614e+06	-44239.1	955.818	-29776.9	0.000000	0.000000	6.592969	0.037931	NaN	0.000000	0.001528	0.001700	28.1098	0.032705	0.002044	16.0009	84.2239	16.3035	0.029364	0.591810	-0.526253	-0.527587	0.037931	16.0009	-0.528031	-8.41841e+06	-4.505684E-9	NaN
112	1.000000	0.603159	7.36614e+06	-44239.1	955.818	-29776.9	0.000000	0.000000	6.602986	0.061797	NaN	0.000000	0.001519	0.001730	28.1231	0.103467	0.002039	50.7418	-146.022	-164.514	0.077022	0.601822	-0.516238	-0.517575	0.061797	50.7418	-0.517151	-5.94244e+06	-1.039927E-8	NaN
112	1.000000	0.613167	7.36614e+06	-44239.1	955.818	-29776.9	0.000000	0.000000	6.612990	-0.038118	NaN	0.000000	0.001510	0.001713	28.0862	0.099590	0.001946	51.1823	82.9816	16.3754	-0.053041	0.611776	-0.506230	-0.507621	-0.038118	51.1823	-0.505671	-4.11242e+06	9.269026E-9	NaN
112	1.000000	0.623167	7.36614e+06	-44239.1	955.817	-29776.9	0.000000	0.000000	6.622993	0.044590	NaN	0.000000	0.001578	0.001742	28.0812	0.111898	0.001940	57.6772	-114.957	-165.394	-0.004280	0.621850	-0.496229	-0.497547	0.044590	57.6772	-0.496809	-3.0938e+06	-1.441262E-8	NaN
112	1.000000	0.633173	7.36614e+06	-44239.1	955.818	-29776.9	0.000000	0.000000	6.632997	0.012851	NaN	0.000000	0.001568	0.001730	28.1115	0.158790	0.001931	82.227	6.809895	18.0361	0.067615	0.631807	-0.486224	-0.487590	0.012851	82.227	-0.486341	-2.20926e+06	-5.817052E-9	NaN
112	1.000000	0.643186	7.36614e+06	-44239.1	955.819	-29776.9	0.000000	0.000000	6.643010	0.017149	NaN	0.000000	0.001563	0.001720	28.1261	0.110782	0.001908	58.055	28.4625	-161.785	0.021696	0.641826	-0.476211	-0.477571	0.017149	58.055	-0.476433	-1.60537e+06	-1.068209E-8	NaN
112	1.000000	0.653200	7.36614e+06	-44239.1	955.818	-29776.9	0.000000	0.000000	6.653024	-0.003735	NaN	0.000000	0.001538	0.001690	28.0866	0.105517	0.001960	53.839	-8.949881	17.4293	-0.074499	0.651793	-0.466197	-0.467604	-0.003735	53.839	-0.466145	-1.15164e+06	3.243492E-9	NaN
112	1.000000	0.663199	7.36614e+06	-44239.1	955.818	-29776.9	0.000000	0.000000	6.663025	0.040427	NaN	0.000000	0.001558	0.001762	28.0802	0.058312	0.002111	27.6174	-6.687811	-164.557	0.076327	0.661967	-0.456198	-0.457430	0.040427	27.6174	-0.457295	-864968	-4.673832E-8	NaN
112	1.000000	0.673203	7.36614e+06	-44239.1	955.819	-29776.9	0.000000	0.000000	6.673030	0.071920	NaN	0.000000	0.001536	0.001739	28.1107	0.063391	0.002100	30.1847	141.079	11.9565	0.132583	0.671775	-0.446194	-0.447622	0.071920	30.1847	-0.447981	-639596	-1.124456E-7	NaN
112	1.000000	0.683217	7.36614e+06	-44239.1	955.818	-29776.9	0.000000	0.000000	6.683038	-0.078608	NaN	0.000000	0.001550	0.001765	28.1247	0.150809	0.001947	77.4425	-12.5301	-168.747	-0.050186	0.681895	-0.436180	-0.437502	-0.078608	77.4425	-0.435419	-425276	1.848392E-7	NaN
112	1.000000	0.693190	7.36614e+06	-44239.1	955.818	-29776.9	0.000000	0.000000	6.693017	0.074643	NaN	0.000000	0.001564	0.001741	28.0867	0.033273	0.002019	16.481	-28.7229	13.6268	0.042661	0.691826	-0.426207	-0.427571	0.074643	16.481	-0.429604	-351931	-2.120958E-7	NaN
112	1.000000	0.703205	7.36614e+06	-44239.1	955.818	-29776.9	0.000000	0.000000	6.703031	0.049875	NaN	0.000000	0.001543	0.001723	28.0822	0.083849	0.001961	42.7637	90.1899	-167.618	-0.022681	0.701904	-0.416192	-0.417493	0.049875	42.7637	-0.417067	-233777	-2.133428E-7	NaN
112	1.000000	0.713213	7.36614e+06	-44239.1	955.819	-29776.9	0.000000	0.000000	6.713038	0.016083	NaN	0.000000	0.001563	0.001757	28.1106	0.045387	0.002066	21.9718	-91.7975	18.8517	0.011511	0.711805	-0.406184	-0.407592	0.016083	21.9718	-0.406733	-166693	-9.648268E-8	NaN
112	1.000000	0.723200	7.36614e+06	-44239.1	955.818	-29776.9	0.000000	0.000000	6.723025	0.025884	NaN	0.000000	0.001554	0.001703	28.126	0.095439	0.002006	47.5796	-172.604	-161.44	0.004698	0.721850	-0.396197	-0.397547	0.025884	47.5796	-0.396605	-119550	-2.165109E-7	NaN
112	1.000000	0.733219	7.36614e+06	-44239.1	955.818	-29776.9	0.000000	0.000000	6.733042	-0.019970	NaN	0.000000	0.001558	0.001711	28.0861	0.120740	0.001979	60.9986	-10.5959	18.0005	-0.052952	0.731844	-0.386178	-0.387553	-0.019970	60.9986	-0.385933	-84129.8	2.373655E-7	NaN
112	1.000000	0.743215	7.36614e+06	-44239.1	955.817	-29776.9	0.000000	0.000000	6.743039	-0.001119	NaN	0.000000	0.001549	0.001699	28.0809	0.086151	0.001928	44.6834	71.3302	-160.975	0.001144	0.741924	-0.376182	-0.377472	-0.001119	44.6834	-0.376163	-60923.3	1.836173E-8	NaN
112	1.000000	0.753218	7.36614e+06	-44239.1	955.819	-29776.9	0.000000	0.000000	6.753042	0.008444	NaN	0.000000	0.001577	0.001713	28.1104	0.064803	0.002063	31.4156	29.3687	14.2278	0.059430	0.751861	-0.366179	-0.367536	0.008444	31.4156	-0.366381	-44052.2	-1.916869E-7	NaN
112	1.000000	0.763170	7.36614e+06	-44239.1	955.817	-29776.9	0.000000	0.000000	6.762994	0.008586	NaN	0.000000	0.001546	0.001669	28.125	0.020583	0.002013	10.227	24.2324	-165.119	-0.032118	0.761922	-0.356227	-0.357475	0.008586	10.227	-0.356857	-32091.1	-2.675498E-7	NaN
112	1.000000	0.773227	7.36614e+06	-44239.1	955.818	-29776.9	0.000000	0.000000	6.773053	0.044665	NaN	0.000000	0.001537	0.001688	28.0868	0.074720	0.001920	38.9262	59.2811	15.0633	0.034699	0.771853	-0.346170	-0.347544	0.044665	38.9262	-0.347031	-23114.2	-1.932368E-6	NaN
112	1.000000	0.783219	7.36614e+06	-44239.1	955.818	-29776.9	0.000000	0.000000	6.783045	0.051205	NaN	0.000000	0.001531	0.001688	28.0793	0.114868	0.001963	58.508	-172.366	-166.65	0.075669	0.781907	-0.336178	-0.337490	0.051205	58.508	-0.336834	-16420.1	-3.118455E-6	NaN
112	1.000000	0.793236	7.36614e+06	-44239.1	955.818	-29776.9	0.000000	0.000000	6.793062	0.050299	NaN	0.000000	0.001572	0.001720	28.11	0.027655	0.002024	13.6637	-51.3894	12.4179	0.082421	0.791895	-0.326161	-0.327502	0.050299	13.6637	-0.328922	-12579.5	-3.998499E-6	NaN
112	1.000000	0.803256	7.36614e+06	-44239.1	955.818	-29776.9	0.000000	0.000000	6.803083	0.082528	NaN	0.000000	0.001536	0.001671	28.1251	0.163456	0.001943	84.1428	-177.991	-161.84	0.086336	0.801861	-0.316141	-0.317536	0.082528	84.1428	-0.316877	-8368.18	-9.862064E-6	NaN
112	1.000000	0.813228	7.36614e+06	-44239.1	955.818	-29776.9	0.000000	0.000000	6.813053	0.024187	NaN	0.000000	0.001568	0.001698	28.0857	0.040645	0.002093	19.4175	130.069	16.7917	0.056648	0.811906	-0.306169	-0.307491	0.024187	19.4175	-0.307103	-6000.03	-4.031073E-6	NaN
112	1.000000	0.823283	7.36614e+06	-44239.1	955.818	-29776.9	0.000000	0.000000	6.823109	0.053215	NaN	0.000000	0.001552	0.001702	28.0799	0.065997	0.001999	33.0106	124.261	-164.146	0.023979	0.821970	-0.296114	-0.297427	0.053215	33.0106	-0.297323	-4292.96	-1.239590E-5	NaN
112	1.000000	0.833231	7.36614e+06	-44239.1	955.817	-29776.9	0.000000	0.000000	6.833054	-0.019870	NaN	0.000000	0.001548	0.001673	28.1087	0.052163	0.002016	25.8735	-54.8369	15.9632	0.062593	0.831913	-0.286166	-0.287484	-0.019870	25.8735	-0.285590	-2865.07	6.935243E-6	NaN
112	1.000000	0.843298	7.36614e+06	-44239.1	955.819	-29776.9	0.000000	0.000000	6.843124	0.046680	NaN	0.000000	0.001538	0.001675	28.124	0.039415	0.001898	20.7651	-176.728	-162.292	-0.011299	0.841923	-0.276099	-0.277474	0.046680	20.7651	-0.277785	-2185.35	-2.136032E-5	NaN
112	1.000000	0.853275	7.36614e+06	-44239.1	955.818	-29776.9	0.000000	0.000000	6.853099	0.009172	NaN	0.000000	0.001572	0.001681	28.0858	0.070775	0.001955	36.1931	-18.0827	11.9644	-0.075194	0.851880	-0.266122	-0.267517	0.009172	36.1931	-0.266312	-1463.54	-6.267046E-6	NaN
112	1.000000	0.863291	7.36614e+06	-44239.1	955.818	-29776.9	0.000000	0.000000	6.863113	-0.059683	NaN	0.000000	0.001541	0.001710	28.0794	0.104867	0.002130	49.2342	144.469	-165.43	-0.027634	0.861921	-0.256106	-0.257476	-0.059683	49.2342	-0.255196	-988.869	6.035514E-5	NaN
112	1.000000	0.873286	7.36614e+06	-44239.1	955.819	-29776.9	0.000000	0.000000	6.873112	0.046299	NaN	0.000000	0.001565	0.001679	28.1092	0.088453	0.002060	42.9352	1.796510	15.0979	0.039229	0.871947	-0.246111	-0.247450	0.046299	42.9352	-0.246919	-736.638	-6.285112E-5	NaN
112	1.000000	0.883275	7.36614e+06	-44239.1	955.818	-29776.9	0.000000	0.000000	6.883098	-0.016192	NaN	0.000000	0.001522	0.001722	28.1254	0.101040	0.001974	51.1837	158.998	-164.223	0.034957	0.881932	-0.236122	-0.237465	-0.016192	51.1837	-0.235885	-495.605	3.267038E-5	NaN
112	1.000000	0.893304	7.36614e+06	-44239.1	955.818	-29776.9	0.000000	0.000000	6.893130	0.034959	NaN	0.000000	0.001536	0.001680	28.085	0.073910	0.002002	36.9193	58.7908	15.7988	0.017032	0.891946	-0.226093	-0.227451	0.034959	36.9193	-0.226803	-356.403	-9.808853E-5	NaN
112	1.000000	0.903270	7.36614e+06	-44239.1	955.818	-29776.9	0.000000	0.000000	6.903094	-0.002291	NaN	0.000000	0.001519	0.001681	28.0786	0.055726	0.002096	26.584	-60.9077	-164.274	-0.006927	0.902008	-0.216127	-0.217389	-0.002291	26.584	-0.216062	-240.207	9.536861E-6	NaN
112	1.000000	0.913270	7.36614e+06	-44239.1	955.818	-29776.9	0.000000	0.000000	6.913094	0.009957	NaN	0.000000	0.001539	0.001760	28.1094	0.035483	0.002014	17.6168	-35.9125	16.6299	0.014156	0.911933	-0.206127	-0.207464	0.009957	17.6168	-0.206551	-168.588	-5.905891E-5	NaN
112	1.000000	0.923303	7.36614e+06	-44239.1	955.819	-29776.9	0.000000	0.000000	6.923129	0.047041	NaN	0.000000	0.001573	0.001744	28.1263	0.096252	0.002025	47.5295	143.701	-164.317	-0.036739	0.921941	-0.196094	-0.197456	0.047041	47.5295	-0.196836	-116.836	-0.000403	NaN
112	1.000000	0.933276	7.36614e+06	-44239.1	955.818	-29776.9	0.000000	0.000000	6.933104	0.084163	NaN	0.000000	0.001614	0.001712	28.0879	0.036620	0.002051	17.855	41.8853	15.1065	0.061025	0.931867	-0.186121	-0.187530	0.084163	17.855	-0.189656	-88.7729	-0.000948	NaN
112	1.000000	0.943289	7.36614e+06	-44239.1	955.819	-29776.9	0.000000	0.000000	6.943114	0.017822	NaN	0.000000	0.001607	0.001693	28.0818	0.016313	0.001972	8.273200	-29.0586	-165.833	0.038028	0.941914	-0.176108	-0.177483	0.017822	8.273200	-0.177723	-55.8018	-0.000319	NaN
112	1.000000	0.953288	7.36614e+06	-44239.1	955.818	-29776.9	0.000000	0.000000	6.953111	-0.003675	NaN	0.000000	0.001594	0.001708	28.1101	0.091291	0.002054	44.4532	87.5916	14.89	0.027981	0.951911	-0.166109	-0.167486	-0.003675	44.4532	-0.166047	-35.0489	0.000105	NaN
112	1.000000	0.963323	7.36614e+06	-44239.1	955.817	-29776.9	0.000000	0.000000	6.963147	0.009070	NaN	0.000000	0.001609	0.001691	28.1274	0.060819	0.001904	31.9374	134.942	-163.735	0.059078	0.961994	-0.156074	-0.157403	0.009070	31.9374	-0.156287	-23.5347	-0.000385	NaN
112	1.000000	0.973296	7.36614e+06	-44239.1	955.819	-29776.9	0.000000	0.000000	6.973118	-0.029166	NaN	0.000000	0.001627	0.001722	28.087	0.046653	0.001953	23.8895	118.025	12.2356	-0.030456	0.971991	-0.146101	-0.147406	-0.029166	23.8895	-0.145186	-14.7775	0.001974	NaN
112	1.000000	0.983298	7.36614e+06	-44239.1	955.818	-29776.9	0.000000	0.000000	6.983121	-0.026125	NaN	0.000000	0.001627	0.001706	28.0809	0.057050	0.001963	29.0666	6.346676	-169.382	-0.052025	0.981991	-0.136099	-0.137406	-0.026125	29.0666	-0.135425	-9.691586	0.002696	NaN
112	1.000000	0.993315	7.36614e+06	-44239.1	955.817	-29776.9	0.000000	0.000000	6.993138	-0.026352	NaN	0.000000	0.001638	0.001710	28.1088	0.033725	0.001934	17.4374	179.336	15.1548	-0.047651	0.991926	-0.126082	-0.127471	-0.026352	17.4374	-0.124948	-6.066895	0.004344	NaN
112	1.000000	1.003312	7.36614e+06	-44239.1	955.819	-29776.9	0.000000	0.000000	7.003136	0.007705	NaN	0.000000	0.001640	0.001714	28.1257	0.024065	0.002100	11.4573	148.454	-163.652	-0.025344	1.001984	-0.116085	-0.117413	0.007705	11.4573	-0.116590	-4.118691	-0.001871	NaN
112	1.000000	1.013330	7.36614e+06	-44239.1	955.82	-29776.9	0.000000	0.000000	7.013156	0.055435	NaN	0.000000	0.001651	0.001695	28.0877	0.049537	0.002076	23.8572	-31.3274	16.3309	0.023862	1.011985	-0.106067	-0.107412	0.055435	23.8572	-0.107810	-2.700506	-0.020528	NaN
112	1.000000	1.023312	7.36614e+06	-44239.1	955.819	-29776.9	0.000000	0.000000	7.023139	0.052323	NaN	0.000000	0.001650	0.001701	28.0814	0.059990	0.002090	28.7062	-176.71	-165.08	0.004260	1.022030	-0.096084	-0.097367	0.052323	28.7062	-0.097451	-1.602839	-0.032644	NaN
112	1.000000	1.033332	7.36614e+06	-44239.1	955.818	-29776.9	0.000000	0.000000	7.033156	0.008250	NaN	0.000000	0.001683	0.001684	28.1095	0.024951	0.001844	13.5298	-87.3032	16.126	0.034701	1.031999	-0.086065	-0.087398	0.008250	13.5298	-0.086522	-0.894027	-0.009228	NaN
112	1.000000	1.043341	7.36614e+06	-44239.1	955.819	-29776.9	0.000000	0.000000	7.043164	-0.024323	NaN	0.000000	0.001673	0.001709	28.1256	0.019272	0.001971	9.779403	-140.914	-165.325	-0.023233	1.042045	-0.076056	-0.077352	-0.024323	9.779403	-0.074190	-0.440065	0.055271	NaN
112	1.000000	1.053353	7.36614e+06	-44239.1	955.819	-29776.9	0.000000	0.000000	7.053180	0.062222	NaN	0.000000	0.001666	0.001678	28.0858	0.086064	0.001900	45.3046	164.058	12.9766	0.060251	1.052007	-0.066044	-0.067390	0.062222	45.3046	-0.067074	-0.284244	-0.218905	NaN
112	1.000000	1.063375	7.36614e+06	-44239.1	955.818	-29776.9	0.000000	0.000000	7.063200	0.026836	NaN	0.000000	0.001676	0.001682	28.0782	0.096756	0.002071	46.7157	-109.125	-165.909	0.075443	1.061991	-0.056022	-0.057406	0.026836	46.7157	-0.056453	-0.142105	-0.188844	NaN
112	1.000000	1.073353	7.36614e+06	-44239.1	955.819	-29776.9	0.000000	0.000000	7.073178	0.032117	NaN	0.000000	0.001636	0.001695	28.1081	0.085391	0.001878	45.4685	-105.176	12.6419	0.073342	1.072003	-0.046044	-0.047394	0.032117	45.4685	-0.046574	-0.071793	-0.447353	NaN
112	1.000000	1.083361	7.36614e+06	-44239.1	955.819	-29776.9	0.000000	0.000000	7.083183	-0.043474	NaN	0.000000	0.001680	0.001688	28.1249	0.017215	0.002082	8.266652	102.912	-162.02	-0.005235	1.082052	-0.036036	-0.037344	-0.043474	8.266652	-0.032092	-0.026366	1.648884	NaN
112	1.000000	1.093383	7.36614e+06	-44239.1	955.82	-29776.9	0.000000	0.000000	7.093208	0.024518	NaN	0.000000	0.001588	0.001692	28.0863	0.109422	0.002130	51.3767	-63.5943	14.3132	-0.063954	1.091993	-0.026014	-0.027404	0.024518	51.3767	-0.026372	-0.018334	-1.337304	NaN
112	1.000000	1.103337	7.36614e+06	-44239.1	955.819	-29776.9	0.000000	0.000000	7.103163	0.060915	NaN	0.000000	0.001594	0.001667	28.0808	0.021226	0.002094	10.1351	139.305	-165.627	0.107275	1.102016	-0.016060	-0.017381	0.060915	10.1351	-0.020568	-0.012986	-4.690972	NaN
112	1.000000	1.113387	7.36614e+06	-44239.1	955.82	-29776.9	0.000000	0.000000	7.113214	0.081463	NaN	0.000000	0.001569	0.001683	28.1081	0.094346	0.002046	46.1134	-134.213	14.9059	0.057036	1.112017	-0.006010	-0.007380	0.081463	46.1134	-0.007335	-0.004840	-16.8326	NaN
112	1.000000	1.123325	7.36614e+06	-44239.1	955.82	-29776.9	0.000000	0.000000	7.123242	2.255936	NaN	0.000000	0.001575	0.001707	28.1258	3.026229	0.001915	1580.35	9.858659	-168.459	1.111399	1.122062	0.003928	0.002665	2.255936	1580.35	0.002858	0.002261	997.931	30367.9
112	2.000000	1.131454	7.36614e+06	-44239.1	955.818	-29776.9	0.000000	0.000000	7.131695	10.135	NaN	0.000000	0.001575	0.001736	28.0864	10.0476	0.001679	5985.73	7.927605	7.417193	9.962446	1.131041	0.012058	0.011644	10.135	5985.73	0.010788	0.010070	1006.46	54497.3
112	2.000000	1.133858	7.36614e+06	-44239.1	955.82	-29776.9	0.000000	0.000000	7.134181	12.1379	NaN	0.000000	0.001567	0.001728	28.078	12.1842	0.001622	7512.78	5.457303	-174.867	10.5924	1.133592	0.014462	0.014195	12.1379	7512.78	0.013250	0.013022	932.116	60150.2
112	2.000000	1.136367	7.36614e+06	-44239.1	955.819	-29776.9	0.000000	0.000000	7.136825	15.4345	NaN	0.000000	0.001567	0.001706	28.107	15.4049	0.001819	8467.42	7.143688	4.168630	14.2773	1.136020	0.016970	0.016623	15.4345	8467.42	0.015603	0.016098	958.809	60973.8
112	2.000000	1.138860	7.36614e+06	-44239.1	955.818	-29776.9	0.000000	0.000000	7.139455	18.7477	NaN	0.000000	0.001587	0.001713	28.125	18.2797	0.001833	9969.85	7.643111	-176.076	18.5833	1.138571	0.019463	0.019174	18.7477	9969.85	0.018053	0.019575	957.753	65105.1
112	2.000000	1.141343	7.36614e+06	-44239.1	955.82	-29776.9	0.000000	0.000000	7.142042	21.2869	NaN	0.000000	0.001569	0.001719	28.0864	20.0943	0.001762	11403.5	7.218806	3.171974	18.9544	1.140943	0.021946	0.021546	21.2869	11403.5	0.020546	0.023407	909.417	68098.3
112	2.000000	1.143864	7.36614e+06	-44239.1	955.82	-29776.9	0.000000	0.000000	7.144910	29.726	NaN	0.000000	0.001574	0.001732	28.0805	23.2672	0.001938	12008.5	11.2887	-179.423	30.9997	1.143451	0.024467	0.024054	29.726	12008.5	0.022610	0.026811	1108.71	67004.6
112	2.000000	1.146321	7.36614e+06	-44239.1	955.82	-29776.9	0.000000	0.000000	7.147562	34.467	NaN	0.000000	0.001567	0.001693	28.1086	25.6616	0.001737	14771.5	7.608397	0.150066	33.1638	1.145938	0.026924	0.026541	34.467	14771.5	0.025174	0.031333	1100.01	76242
112	2.000000	1.148776	7.36614e+06	-44239.1	955.82	-29776.9	0.000000	0.000000	7.150166	38.0943	NaN	0.000000	0.001572	0.001705	28.1272	28.6358	0.001908	15011.4	5.260126	-178.58	35.7634	1.148523	0.029379	0.029126	38.0943	15011.4	0.027476	0.035674	1067.85	72613.8
112	2.000000	1.151300	7.36614e+06	-44239.1	955.82	-29776.9	0.000000	0.000000	7.153086	47.7249	NaN	0.000000	0.001570	0.001729	28.088	30.9622	0.001817	17036.2	8.421123	-2.096758	45.1559	1.150910	0.031903	0.031513	47.7249	17036.2	0.029802	0.040335	1183.21	77500.2
112	2.000000	1.153812	7.36614e+06	-44239.1	955.821	-29776.9	0.000000	0.000000	7.155704	50.3176	NaN	0.000000	0.001559	0.001728	28.0804	32.0635	0.001698	18879.7	3.004076	-178.055	48.8348	1.153554	0.034415	0.034157	50.3176	18879.7	0.032416	0.045900	1096.25	80512.4
112	2.000000	1.156334	7.36614e+06	-44239.1	955.819	-29776.9	0.000000	0.000000	7.158575	58.8019	NaN	0.000000	0.001587	0.001730	28.1073	35.4486	0.001772	20004.6	8.008019	-2.146451	61.3445	1.155898	0.036938	0.036501	58.8019	20004.6	0.034733	0.051126	1150.14	80831.9
112	2.000000	1.158813	7.36614e+06	-44239.1	955.82	-29776.9	0.000000	0.000000	7.161253	63.6403	NaN	0.000000	0.001587	0.001680	28.1273	38.1645	0.001787	21351.9	5.840587	178.332	63.4669	1.158485	0.039416	0.039089	63.6403	21351.9	0.037181	0.056946	1117.56	81748.5
112	2.000000	1.161299	7.36614e+06	-44239.1	955.82	-29776.9	0.000000	0.000000	7.164179	74.3644	NaN	0.000000	0.001580	0.001717	28.0885	40.2525	0.001776	22661.5	7.641104	-4.095220	72.7516	1.160903	0.041902	0.041506	74.3644	22661.5	0.039441	0.062591	1188.1	82757.1
112	2.000000	1.163788	7.36614e+06	-44239.1	955.819	-29776.9	0.000000	0.000000	7.167108	85.043	NaN	0.000000	0.001593	0.001749	28.0809	42.3576	0.001861	22766.5	6.639845	177.218	84.4571	1.163442	0.044391	0.044045	85.043	22766.5	0.041590	0.068201	1246.95	79648
112	2.000000	1.166253	7.36614e+06	-44239.1	955.82	-29776.9	0.000000	0.000000	7.169919	93.4686	NaN	0.000000	0.001577	0.001760	28.1081	44.8397	0.001676	26753.7	4.681317	-2.502634	90.6807	1.165894	0.046856	0.046497	93.4686	26753.7	0.044236	0.075434	1239.08	88996.6
112	2.000000	1.168776	7.36614e+06	-44239.1	955.82	-29776.9	0.000000	0.000000	7.172595	97.1896	NaN	0.000000	0.001572	0.001725	28.129	49.0629	0.001919	25569.4	7.236986	174.606	95.4101	1.168598	0.049379	0.049201	97.1896	25569.4	0.046528	0.081985	1185.45	81588
112	2.000000	1.171355	7.36614e+06	-44239.1	955.819	-29776.9	0.000000	0.000000	7.175721	110.497	NaN	0.000000	0.001567	0.001733	28.0877	49.8958	0.001773	28149.8	4.504148	-1.994412	113.157	1.171014	0.051958	0.051617	110.497	28149.8	0.049014	0.089391	1236.11	86020.5
112	2.000000	1.173827	7.36614e+06	-44239.1	955.821	-29776.9	0.000000	0.000000	7.178594	120.256	NaN	0.000000	0.001569	0.001772	28.0808	52.0365	0.001745	29825.8	3.531870	177.578	122.084	1.173534	0.054430	0.054137	120.256	29825.8	0.051406	0.096809	1242.2	87580.5
112	2.000000	1.176205	7.36614e+06	-44239.1	955.82	-29776.9	0.000000	0.000000	7.181420	131.141	NaN	0.000000	0.001566	0.001730	28.1075	54.8117	0.001780	30792.3	3.158370	-2.523865	127.24	1.175833	0.056808	0.056437	131.141	30792.3	0.053614	0.103911	1262.06	87274.1
112	2.000000	1.178785	7.36614e+06	-44239.1	955.82	-29776.9	0.000000	0.000000	7.184468	142.535	NaN	0.000000	0.001579	0.001775	28.1264	58.4447	0.001731	33763.5	5.616147	174.939	142.672	1.178421	0.059388	0.059024	142.535	33763.5	0.056222	0.112611	1265.73	91924.4
112	2.000000	1.181255	7.36614e+06	-44239.1	955.821	-29776.9	0.000000	0.000000	7.187146	147.584	NaN	0.000000	0.001541	0.001745	28.088	60.2196	0.001824	33016	5.645465	-5.346043	143.27	1.180951	0.061859	0.061554	147.584	33016	0.058506	0.120506	1224.71	86894.9
112	2.000000	1.183764	7.36614e+06	-44239.1	955.82	-29776.9	0.000000	0.000000	7.190286	162.954	NaN	0.000000	0.001542	0.001745	28.081	62.0647	0.001743	35610.5	6.011027	173.733	163.766	1.183484	0.064367	0.064087	162.954	35610.5	0.060935	0.129181	1261.44	90521.5
112	2.000000	1.186227	7.36614e+06	-44239.1	955.82	-29776.9	0.000000	0.000000	7.193139	172.431	NaN	0.000000	0.001558	0.001746	28.1066	65.0866	0.001846	35256.4	6.351819	-6.531137	169.859	1.185891	0.066830	0.066494	172.431	35256.4	0.063162	0.137391	1255.04	86902.4
112	2.000000	1.188747	7.36614e+06	-44239.1	955.821	-29776.9	0.000000	0.000000	7.196166	184.77	NaN	0.000000	0.001538	0.001834	28.1266	67.148	0.001810	37093.2	2.892092	176.741	183.25	1.188571	0.069350	0.069174	184.77	37093.2	0.065614	0.146706	1259.45	88479.5
112	2.000000	1.191265	7.36614e+06	-44239.1	955.82	-29776.9	0.000000	0.000000	7.199343	200.828	NaN	0.000000	0.001529	0.001849	28.0867	69.7548	0.001972	35370	8.394206	-8.607372	196.593	1.190870	0.071868	0.071473	200.828	35370	0.067609	0.154499	1299.87	82213.9
112	2.000000	1.193739	7.36614e+06	-44239.1	955.819	-29776.9	0.000000	0.000000	7.202509	217.665	NaN	0.000000	0.001529	0.001758	28.079	71.2403	0.001790	39807.4	1.497394	177.428	216.93	1.193453	0.074342	0.074056	217.665	39807.4	0.070241	0.165068	1318.63	89517
112	2.000000	1.196296	7.36614e+06	-44239.1	955.82	-29776.9	0.000000	0.000000	7.205245	221.98	NaN	0.000000	0.001543	0.001814	28.1056	74.4173	0.001809	41137.2	4.898237	-6.768290	221.319	1.196007	0.076899	0.076610	221.98	41137.2	0.072852	0.175884	1262.08	89617.9
112	2.000000	1.198665	7.36614e+06	-44239.1	955.82	-29776.9	0.000000	0.000000	7.208434	241.938	NaN	0.000000	0.001554	0.001803	28.1256	76.2494	0.001796	42453.8	2.947381	175.648	238.707	1.198433	0.079269	0.079036	241.938	42453.8	0.074994	0.184996	1307.8	90179.7
112	2.000000	1.201192	7.36614e+06	-44239.1	955.82	-29776.9	0.000000	0.000000	7.211599	257.472	NaN	0.000000	0.001551	0.001808	28.0872	78.05	0.001661	46981.5	6.879958	-8.800780	250.479	1.200770	0.081795	0.081373	257.472	46981.5	0.077685	0.196748	1308.64	96771
112	2.000000	1.203783	7.36614e+06	-44239.1	955.82	-29776.9	0.000000	0.000000	7.214572	266.75	NaN	0.000000	0.001575	0.001807	28.0792	79.8536	0.001667	47907.2	2.962825	174.472	268.69	1.203467	0.084387	0.084070	266.75	47907.2	0.080211	0.208085	1281.93	95951.8
112	2.000000	1.206304	7.36614e+06	-44239.1	955.82	-29776.9	0.000000	0.000000	7.217689	281.24	NaN	0.000000	0.001572	0.001822	28.1059	82.5889	0.001755	47064.5	3.130979	-5.128959	282.888	1.205832	0.086908	0.086435	281.24	47064.5	0.082426	0.218275	1288.47	92037.5
112	2.000000	1.208688	7.36614e+06	-44239.1	955.82	-29776.9	0.000000	0.000000	7.220949	302.566	NaN	0.000000	0.001551	0.001785	28.1265	85.2131	0.001820	46820.4	3.635301	174.125	300.09	1.208407	0.089291	0.089010	302.566	46820.4	0.084445	0.227760	1328.45	89633.4
112	2.000000	1.211280	7.36614e+06	-44239.1	955.821	-29776.9	0.000000	0.000000	7.224204	318.708	NaN	0.000000	0.001514	0.001780	28.0884	86.6648	0.001776	48794.4	5.008270	-7.192471	317.454	1.210843	0.091883	0.091447	318.708	48794.4	0.086984	0.239957	1328.19	91007.2
112	2.000000	1.213807	7.36614e+06	-44239.1	955.821	-29776.9	0.000000	0.000000	7.227135	328.542	NaN	0.000000	0.001552	0.001857	28.0785	89.2591	0.001746	51128.7	6.915991	170.391	334.533	1.213401	0.094410	0.094004	328.542	51128.7	0.089590	0.252785	1299.69	92910
112	2.000000	1.216207	7.36614e+06	-44239.1	955.821	-29776.9	0.000000	0.000000	7.230665	356.015	NaN	0.000000	0.001538	0.001832	28.1061	92.895	0.001793	51819.5	8.480852	-11.1248	352.821	1.215778	0.096810	0.096381	356.015	51819.5	0.091658	0.263181	1352.74	92286.7
112	2.000000	1.218727	7.36614e+06	-44239.1	955.822	-29776.9	0.000000	0.000000	7.233710	368.781	NaN	0.000000	0.001539	0.001811	28.1268	95.8856	0.001723	55635	4.546140	171.754	367.45	1.218440	0.099330	0.099043	368.781	55635	0.094359	0.277061	1331.05	96568.1
112	2.000000	1.221230	7.36614e+06	-44239.1	955.822	-29776.9	0.000000	0.000000	7.236767	382.281	NaN	0.000000	0.001559	0.001783	28.0888	97.4176	0.001794	54316.2	2.756830	-5.916138	378.58	1.220887	0.101833	0.101490	382.281	54316.2	0.096555	0.288589	1324.66	92376.9
112	2.000000	1.223764	7.36614e+06	-44239.1	955.822	-29776.9	0.000000	0.000000	7.239913	397.154	NaN	0.000000	0.001535	0.001831	28.0812	99.7649	0.001807	55207.9	3.987726	172.502	399.087	1.223402	0.104368	0.104005	397.154	55207.9	0.098972	0.301535	1317.11	91855.7
112	2.000000	1.226115	7.36614e+06	-44239.1	955.822	-29776.9	0.000000	0.000000	7.243365	423.947	NaN	0.000000	0.001518	0.001803	28.1071	100.935	0.001833	55070.6	-0.231615	-3.050084	418.175	1.225845	0.106718	0.106448	423.947	55070.6	0.100944	0.312291	1357.54	90035.3
112	2.000000	1.228628	7.36614e+06	-44239.1	955.821	-29776.9	0.000000	0.000000	7.246798	446.346	NaN	0.000000	0.001547	0.001805	28.128	104.826	0.001792	58487.9	4.164353	172.239	441.396	1.228374	0.109231	0.108978	446.346	58487.9	0.103507	0.326537	1366.91	93513.3
112	2.000000	1.229193	7.36614e+06	-44239.1	955.821	-29776.9	0.000000	0.000000	7.247580	451.62	NaN	0.000000	0.001563	0.001793	28.0882	105.5	0.001822	57892.9	7.156957	-10.6286	448.086	1.228798	0.109796	0.109401	451.62	57892.9	0.103945	0.329000	1372.7	92214.7