File: remote_trans/data/nanoindenter/0828-1/data/Data_2025-08-06,11h17m57s/2025-07-22_16-23-58_1_103.txt
2025-07-22, 16:23:58, 1
Index	Phase	Displacement	Time	Pos X	Pos Y	Pos Z	Rot A	Rot B	Piezo Z	Force A	Force B	Gripper	Voltage A	Voltage B	Temperature	Amplitude force	Amplitude pos	Stiffness	Phase shift	Phase excitation	Force A raw	Displacement raw	HMax	HMax raw	Real Force	Real Stiffness	Contact Depth	Area	Hardness	Reduced Mod.
[#]	[#]	[um]	[s]	[um]	[um]	[um]	[m°]	[m°]	[um]	[uN]	[uN]	[V]	[V]	[V]	[°C]	[uN]	[um]	[N/m]	[°]	[°]	[uN]	[um]	[um]	[um]	[uN]	[N/m]	[um]	[um^2]	[MPa]	[MPa]
103	1.000000	0.002356	7.36604e+06	-43789.1	955.82	-29778.4	0.000000	0.000000	6.002805	0.002860	NaN	0.000000	0.001567	0.001667	28.085	0.064862	0.000904	71.784	-178.938	-168.238	0.041154	0.001158	-1.148759	-1.149958	0.002860	71.784	-1.148789	-2.262495E+15	-1.264115E-18	NaN
103	1.000000	0.012439	7.36604e+06	-43789.1	955.818	-29778.4	0.000000	0.000000	6.012890	0.047194	NaN	0.000000	0.001547	0.001672	28.1201	0.202592	0.001182	171.442	35.7514	18.6271	0.036057	0.010942	-1.138677	-1.140173	0.047194	171.442	-1.138883	-1.666323E+15	-2.832236E-17	NaN
103	1.000000	0.022328	7.36604e+06	-43789.1	955.819	-29778.4	0.000000	0.000000	6.022776	-0.012078	NaN	0.000000	0.001534	0.001650	28.1216	0.034078	0.001637	20.8217	1.133856	-166.157	-0.061480	0.020975	-1.128788	-1.130141	-0.012078	20.8217	-1.128353	-1.203730E+15	1.003354E-17	NaN
103	1.000000	0.032312	7.36604e+06	-43789.1	955.818	-29778.4	0.000000	0.000000	6.032761	0.020815	NaN	0.000000	0.001603	0.001671	28.0836	0.108155	0.001798	60.1394	-145.02	11.4169	-0.011967	0.030943	-1.118804	-1.120173	0.020815	60.1394	-1.119064	-9.034628E+14	-2.303909E-17	NaN
103	1.000000	0.042295	7.36604e+06	-43789.1	955.818	-29778.4	0.000000	0.000000	6.042744	0.013834	NaN	0.000000	0.001557	0.001653	28.0844	0.032156	0.001925	16.705	-29.9625	-163.87	0.051612	0.041060	-1.108821	-1.110055	0.013834	16.705	-1.109442	-6.711226E+14	-2.061253E-17	NaN
103	1.000000	0.052299	7.36604e+06	-43789.1	955.818	-29778.4	0.000000	0.000000	6.052747	-0.010454	NaN	0.000000	0.001595	0.001653	28.1183	0.065516	0.002140	30.6193	43.9653	14.6226	-0.030666	0.050954	-1.098816	-1.100162	-0.010454	30.6193	-1.098560	-4.794495E+14	2.180343E-17	NaN
103	1.000000	0.062314	7.36604e+06	-43789.1	955.819	-29778.4	0.000000	0.000000	6.062760	-0.049566	NaN	0.000000	0.001552	0.001660	28.1231	0.095141	0.002046	46.5056	166.065	-166.092	-0.028255	0.061041	-1.088802	-1.090075	-0.049566	46.5056	-1.088003	-3.459329E+14	1.432824E-16	NaN
103	1.000000	0.072310	7.36604e+06	-43789.1	955.818	-29778.4	0.000000	0.000000	6.072755	-0.085806	NaN	0.000000	0.001548	0.001696	28.0855	0.051990	0.002148	24.1999	-132.687	15.8645	0.054233	0.070970	-1.078805	-1.080145	-0.085806	24.1999	-1.076146	-2.397470E+14	3.579003E-16	NaN
103	1.000000	0.082306	7.36604e+06	-43789.1	955.819	-29778.4	0.000000	0.000000	6.082758	0.078444	NaN	0.000000	0.001582	0.001686	28.0841	0.031643	0.001995	15.8593	79.543	-165.152	0.021867	0.081035	-1.068810	-1.070080	0.078444	15.8593	-1.072519	-2.143059E+14	-3.660387E-16	NaN
103	1.000000	0.092325	7.36604e+06	-43789.1	955.819	-29778.4	0.000000	0.000000	6.092777	0.078647	NaN	0.000000	0.001566	0.001674	28.1194	0.104744	0.001992	52.5902	-12.0852	15.4661	0.061654	0.090976	-1.058790	-1.060140	0.078647	52.5902	-1.059912	-1.450900E+14	-5.420532E-16	NaN
103	1.000000	0.102350	7.36604e+06	-43789.1	955.819	-29778.4	0.000000	0.000000	6.102799	0.012999	NaN	0.000000	0.001530	0.001657	28.1219	0.051024	0.002050	24.8912	132.027	-164.871	-0.037481	0.100999	-1.048766	-1.050116	0.012999	24.8912	-1.049158	-1.040137E+14	-1.249712E-16	NaN
103	1.000000	0.112333	7.36604e+06	-43789.1	955.819	-29778.4	0.000000	0.000000	6.112781	-0.014189	NaN	0.000000	0.001562	0.001651	28.0851	0.024411	0.001871	13.046	24.6043	15.3487	0.004636	0.110983	-1.038783	-1.040133	-0.014189	13.046	-1.037967	-7.355880E+13	1.928950E-16	NaN
103	1.000000	0.122345	7.36604e+06	-43789.1	955.819	-29778.4	0.000000	0.000000	6.122798	0.105005	NaN	0.000000	0.001553	0.001665	28.0828	0.079877	0.001973	40.4833	158.423	-163.005	-0.015612	0.120964	-1.028771	-1.030152	0.105005	40.4833	-1.030716	-5.876448E+13	-1.786876E-15	NaN
103	1.000000	0.132314	7.36604e+06	-43789.1	955.818	-29778.4	0.000000	0.000000	6.132765	0.057286	NaN	0.000000	0.001589	0.001614	28.1174	0.080740	0.001997	40.4389	-178.52	13.7457	0.107183	0.130971	-1.018801	-1.020144	0.057286	40.4389	-1.019864	-4.198737E+13	-1.364361E-15	NaN
103	1.000000	0.142364	7.36604e+06	-43789.1	955.819	-29778.4	0.000000	0.000000	6.142811	-0.034397	NaN	0.000000	0.001543	0.001660	28.122	0.027956	0.002099	13.3175	-29.6952	-163.264	-0.030076	0.141030	-1.008752	-1.010086	-0.034397	13.3175	-1.006815	-2.802263E+13	1.227466E-15	NaN
103	1.000000	0.152326	7.36604e+06	-43789.1	955.818	-29778.4	0.000000	0.000000	6.152778	0.087738	NaN	0.000000	0.001576	0.001581	28.0845	0.057222	0.002000	28.6096	-28.8373	17.4603	0.076134	0.150929	-0.998790	-1.000186	0.087738	28.6096	-1.001090	-2.346609E+13	-3.738910E-15	NaN
103	1.000000	0.162342	7.36604e+06	-43789.1	955.817	-29778.4	0.000000	0.000000	6.162788	-0.047153	NaN	0.000000	0.001561	0.001617	28.0838	0.083455	0.001940	43.0094	5.789764	-166.708	0.009069	0.161013	-0.988774	-0.990103	-0.047153	43.0094	-0.987952	-1.561439E+13	3.019839E-15	NaN
103	1.000000	0.172344	7.36604e+06	-43789.1	955.819	-29778.4	0.000000	0.000000	6.172796	0.083150	NaN	0.000000	0.001569	0.001624	28.118	0.174635	0.002031	85.9704	124.088	12.3677	0.091713	0.170966	-0.978772	-0.980150	0.083150	85.9704	-0.979497	-1.201268E+13	-6.921852E-15	NaN
103	1.000000	0.182361	7.36604e+06	-43789.1	955.818	-29778.4	0.000000	0.000000	6.182811	0.030649	NaN	0.000000	0.001578	0.001632	28.1213	0.069527	0.002042	34.0497	89.9154	-163.634	0.067864	0.181099	-0.968755	-0.970017	0.030649	34.0497	-0.969430	-8.789807E+12	-3.486898E-15	NaN
103	1.000000	0.192352	7.36604e+06	-43789.1	955.818	-29778.4	0.000000	0.000000	6.192801	0.026209	NaN	0.000000	0.001572	0.001618	28.0833	0.072596	0.002012	36.09	-160.809	15.6363	-0.013360	0.190995	-0.958764	-0.960120	0.026209	36.09	-0.959309	-6.420189E+12	-4.082301E-15	NaN
103	1.000000	0.202371	7.36604e+06	-43789.1	955.819	-29778.4	0.000000	0.000000	6.202817	-0.044104	NaN	0.000000	0.001557	0.001609	28.0814	0.080759	0.001901	42.4751	106.792	-163.547	-0.055489	0.201072	-0.948745	-0.950044	-0.044104	42.4751	-0.947966	-4.514405E+12	9.769577E-15	NaN
103	1.000000	0.212386	7.36604e+06	-43789.1	955.819	-29778.4	0.000000	0.000000	6.212836	0.040639	NaN	0.000000	0.001595	0.001630	28.117	0.089705	0.002084	43.0353	-113.322	14.8323	0.024273	0.211036	-0.938730	-0.940080	0.040639	43.0353	-0.939438	-3.463842E+12	-1.173222E-14	NaN
103	1.000000	0.222389	7.36604e+06	-43789.1	955.818	-29778.4	0.000000	0.000000	6.222839	0.056121	NaN	0.000000	0.001593	0.001628	28.1226	0.099216	0.002130	46.5856	71.6358	-166.333	0.072241	0.221079	-0.928727	-0.930037	0.056121	46.5856	-0.929631	-2.553950E+12	-2.197422E-14	NaN
103	1.000000	0.232372	7.36604e+06	-43789.1	955.818	-29778.4	0.000000	0.000000	6.232821	0.021190	NaN	0.000000	0.001584	0.001632	28.0845	0.032137	0.002040	15.7509	77.8334	16.557	0.023333	0.231033	-0.918744	-0.920083	0.021190	15.7509	-0.919753	-1.878754E+12	-1.127862E-14	NaN
103	1.000000	0.242362	7.36604e+06	-43789.1	955.818	-29778.4	0.000000	0.000000	6.242810	-0.021423	NaN	0.000000	0.001595	0.001622	28.0832	0.030894	0.001960	15.7582	137.006	-166.243	-0.021633	0.241076	-0.908754	-0.910040	-0.021423	15.7582	-0.907734	-1.292881E+12	1.656979E-14	NaN
103	1.000000	0.252387	7.36604e+06	-43789.1	955.818	-29778.4	0.000000	0.000000	6.252835	-0.004118	NaN	0.000000	0.001579	0.001596	28.1172	0.119874	0.001993	60.1534	-24.8914	17.0401	-0.018286	0.251025	-0.898729	-0.900090	-0.004118	60.1534	-0.898678	-9.754404E+11	4.221273E-15	NaN
103	1.000000	0.262376	7.36604e+06	-43789.1	955.819	-29778.4	0.000000	0.000000	6.262822	-0.060466	NaN	0.000000	0.001604	0.001651	28.1218	0.042654	0.002054	20.766	-11.1934	-159.848	0.055533	0.261081	-0.888740	-0.890035	-0.060466	20.766	-0.886556	-6.688956E+11	9.039633E-14	NaN
103	1.000000	0.272384	7.36605e+06	-43789.1	955.818	-29778.4	0.000000	0.000000	6.272834	0.033694	NaN	0.000000	0.001588	0.001701	28.0849	0.028476	0.001977	14.4052	67.2586	14.1208	-0.023681	0.271056	-0.878732	-0.880059	0.033694	14.4052	-0.880486	-5.537071E+11	-6.085250E-14	NaN
103	1.000000	0.282415	7.36605e+06	-43789.1	955.818	-29778.4	0.000000	0.000000	6.282865	0.038101	NaN	0.000000	0.001568	0.001723	28.0825	0.059974	0.001928	31.1081	72.3295	-165.082	0.051994	0.281120	-0.868701	-0.869995	0.038101	31.1081	-0.869619	-3.947233E+11	-9.652609E-14	NaN
103	1.000000	0.292395	7.36605e+06	-43789.1	955.818	-29778.4	0.000000	0.000000	6.292846	0.060428	NaN	0.000000	0.001616	0.001665	28.1168	0.115032	0.001853	62.0944	-18.6978	16.1308	0.032453	0.291051	-0.858720	-0.860064	0.060428	62.0944	-0.859450	-2.875269E+11	-2.101653E-13	NaN
103	1.000000	0.302417	7.36605e+06	-43789.1	955.819	-29778.4	0.000000	0.000000	6.302866	-0.007047	NaN	0.000000	0.001575	0.001670	28.124	0.136898	0.002000	68.445	62.1378	-163.265	0.047277	0.301135	-0.848698	-0.849980	-0.007047	68.445	-0.848621	-2.051476E+11	3.435307E-14	NaN
103	1.000000	0.312446	7.36605e+06	-43789.1	955.818	-29778.4	0.000000	0.000000	6.312894	-0.021365	NaN	0.000000	0.001601	0.001667	28.0865	0.107519	0.001929	55.7516	23.9431	13.1563	-0.070868	0.311097	-0.838670	-0.840018	-0.021365	55.7516	-0.838382	-1.490648E+11	1.433291E-13	NaN
103	1.000000	0.322406	7.36605e+06	-43789.1	955.819	-29778.4	0.000000	0.000000	6.322854	-0.007688	NaN	0.000000	0.001547	0.001688	28.084	0.032592	0.002103	15.4979	170.076	-163.444	-0.050829	0.321119	-0.828710	-0.829997	-0.007688	15.4979	-0.828338	-1.089572E+11	7.056181E-14	NaN
103	1.000000	0.332418	7.36605e+06	-43789.1	955.818	-29778.4	0.000000	0.000000	6.332868	0.047531	NaN	0.000000	0.001593	0.001680	28.1184	0.048015	0.002026	23.6957	-39.9009	20.5522	0.073880	0.331063	-0.818698	-0.820053	0.047531	23.6957	-0.820203	-8.451968E+10	-5.623710E-13	NaN
103	1.000000	0.342411	7.36605e+06	-43789.1	955.818	-29778.4	0.000000	0.000000	6.342858	-0.034173	NaN	0.000000	0.001605	0.001713	28.1231	0.046516	0.002028	22.939	-138.272	-165.075	0.012028	0.341073	-0.808705	-0.810042	-0.034173	22.939	-0.807588	-5.699533E+10	5.995757E-13	NaN
103	1.000000	0.352430	7.36605e+06	-43789.1	955.818	-29778.4	0.000000	0.000000	6.352878	-0.016636	NaN	0.000000	0.001596	0.001636	28.0843	0.012394	0.001936	6.401869	55.9913	13.6471	0.041250	0.351047	-0.798686	-0.800069	-0.016636	6.401869	-0.796737	-4.060326E+10	4.097148E-13	NaN
103	1.000000	0.362415	7.36605e+06	-43789.1	955.818	-29778.4	0.000000	0.000000	6.362863	-0.006385	NaN	0.000000	0.001564	0.001644	28.0823	0.028211	0.002084	13.5396	-28.3134	-162.543	-0.042224	0.361166	-0.788701	-0.789950	-0.006385	13.5396	-0.788347	-3.123456E+10	2.044083E-13	NaN
103	1.000000	0.372433	7.36605e+06	-43789.1	955.818	-29778.4	0.000000	0.000000	6.372879	-0.053036	NaN	0.000000	0.001528	0.001613	28.1167	0.052405	0.001911	27.4164	-127.173	13.9951	-0.014950	0.371067	-0.778683	-0.780049	-0.053036	27.4164	-0.777232	-2.206073E+10	2.404100E-12	NaN
103	1.000000	0.382443	7.36605e+06	-43789.1	955.818	-29778.4	0.000000	0.000000	6.382895	0.068258	NaN	0.000000	0.001549	0.001643	28.1241	0.051257	0.001976	25.9353	94.5737	-161.388	0.046394	0.381133	-0.768672	-0.769983	0.068258	25.9353	-0.770646	-1.795114E+10	-3.802433E-12	NaN
103	1.000000	0.392479	7.36605e+06	-43789.1	955.819	-29778.4	0.000000	0.000000	6.392930	0.040912	NaN	0.000000	0.001567	0.001631	28.0864	0.109900	0.001899	57.8842	-0.874792	15.8781	-0.063098	0.391111	-0.758636	-0.760005	0.040912	57.8842	-0.759167	-1.253035E+10	-3.265058E-12	NaN
103	1.000000	0.402434	7.36605e+06	-43789.1	955.818	-29778.4	0.000000	0.000000	6.402884	0.028658	NaN	0.000000	0.001566	0.001677	28.0836	0.058699	0.002132	27.5373	-1.763813	-165.839	-0.030647	0.401141	-0.748682	-0.749975	0.028658	27.5373	-0.749462	-9.244882E+9	-3.099902E-12	NaN
103	1.000000	0.412436	7.36605e+06	-43789.1	955.818	-29778.4	0.000000	0.000000	6.412885	0.013307	NaN	0.000000	0.001594	0.001673	28.116	0.019552	0.001920	10.1824	151.916	13.5636	0.001423	0.411085	-0.738680	-0.740030	0.013307	10.1824	-0.739660	-6.798733E+9	-1.957293E-12	NaN
103	1.000000	0.422457	7.36605e+06	-43789.1	955.818	-29778.4	0.000000	0.000000	6.422906	0.000227	NaN	0.000000	0.001576	0.001680	28.1209	0.104505	0.001983	52.7039	-3.749355	-164.41	-0.095720	0.421156	-0.728659	-0.729960	0.000227	52.7039	-0.728662	-4.814707E+9	-4.705784E-14	NaN
103	1.000000	0.432472	7.36605e+06	-43789.1	955.818	-29778.4	0.000000	0.000000	6.432921	-0.000913	NaN	0.000000	0.001548	0.001664	28.0837	0.051268	0.001929	26.5762	-167.356	14.686	-0.037420	0.431116	-0.718644	-0.720000	-0.000913	26.5762	-0.718618	-3.512547E+9	2.599614E-13	NaN
103	1.000000	0.442465	7.36605e+06	-43789.1	955.819	-29778.4	0.000000	0.000000	6.442912	-0.024285	NaN	0.000000	0.001560	0.001649	28.0805	0.088297	0.001885	46.8371	-77.2793	-167.226	-0.022355	0.441196	-0.708651	-0.709919	-0.024285	46.8371	-0.708262	-2.537068E+9	9.571910E-12	NaN
103	1.000000	0.452470	7.36605e+06	-43789.1	955.818	-29778.4	0.000000	0.000000	6.452917	-0.026851	NaN	0.000000	0.001652	0.001664	28.1147	0.014062	0.002018	6.966371	-157.791	18.8162	-0.032645	0.451114	-0.698646	-0.700002	-0.026851	6.966371	-0.695755	-1.712189E+9	1.568203E-11	NaN
103	1.000000	0.462465	7.36605e+06	-43789.1	955.818	-29778.4	0.000000	0.000000	6.462915	0.044205	NaN	0.000000	0.001642	0.001646	28.1222	0.056249	0.001966	28.6053	119.091	-163.463	0.000979	0.461214	-0.688651	-0.689901	0.044205	28.6053	-0.689810	-1.420102E+9	-3.112820E-11	NaN
103	1.000000	0.472487	7.36605e+06	-43789.1	955.819	-29778.4	0.000000	0.000000	6.472933	-0.062997	NaN	0.000000	0.001616	0.001625	28.0841	0.089777	0.001959	45.8259	-9.526490	15.7566	-0.027695	0.471094	-0.678629	-0.680021	-0.062997	45.8259	-0.677598	-9.668351E+8	6.515805E-11	NaN
103	1.000000	0.482480	7.36605e+06	-43789.1	955.819	-29778.4	0.000000	0.000000	6.482928	-0.016333	NaN	0.000000	0.001628	0.001622	28.0807	0.024670	0.001961	12.5832	171.746	-159.649	-0.034211	0.481146	-0.668635	-0.669969	-0.016333	12.5832	-0.667662	-7.069468E+8	2.310358E-11	NaN
103	1.000000	0.492483	7.36605e+06	-43789.1	955.819	-29778.4	0.000000	0.000000	6.492932	0.009781	NaN	0.000000	0.001596	0.001626	28.1147	0.037126	0.002129	17.4421	-148.285	16.703	0.069209	0.491153	-0.658633	-0.659963	0.009781	17.4421	-0.659054	-5.388978E+8	-1.815031E-11	NaN
103	1.000000	0.502509	7.36605e+06	-43789.1	955.819	-29778.4	0.000000	0.000000	6.502958	0.024627	NaN	0.000000	0.001569	0.001600	28.1217	0.045627	0.001977	23.0811	149.428	-160.817	0.039535	0.501142	-0.648607	-0.649974	0.024627	23.0811	-0.649407	-3.974770E+8	-6.195829E-11	NaN
103	1.000000	0.512508	7.36605e+06	-43789.1	955.818	-29778.4	0.000000	0.000000	6.512959	0.074814	NaN	0.000000	0.001613	0.001638	28.0835	0.019866	0.002093	9.489856	-39.2425	15.507	0.048984	0.511174	-0.638608	-0.639941	0.074814	9.489856	-0.644521	-3.406482E+8	-2.196225E-10	NaN
103	1.000000	0.522518	7.36605e+06	-43789.1	955.818	-29778.4	0.000000	0.000000	6.522966	-0.002329	NaN	0.000000	0.001570	0.001639	28.0805	0.020783	0.001883	11.0353	-36.4496	-165.797	0.067471	0.521162	-0.628598	-0.629953	-0.002329	11.0353	-0.628440	-2.049264E+8	1.136326E-11	NaN
103	1.000000	0.532547	7.36605e+06	-43789.1	955.818	-29778.4	0.000000	0.000000	6.532996	-2.395826E-5	NaN	0.000000	0.001606	0.001622	28.1146	0.096282	0.001955	49.239	-4.295366	15.5739	0.029215	0.531166	-0.618569	-0.619950	-2.395826E-5	49.239	-0.618568	-1.499517E+8	1.597732E-13	NaN
103	1.000000	0.542502	7.36605e+06	-43789.1	955.819	-29778.4	0.000000	0.000000	6.542950	-0.016023	NaN	0.000000	0.001584	0.001646	28.1228	0.224926	0.002114	106.39	-111.679	-162.897	0.021210	0.541168	-0.608614	-0.609948	-0.016023	106.39	-0.608501	-1.090142E+8	1.469801E-10	NaN
103	1.000000	0.552547	7.36605e+06	-43789.1	955.818	-29778.4	0.000000	0.000000	6.552999	0.087817	NaN	0.000000	0.001549	0.001666	28.0854	0.038323	0.002034	18.8405	-94.7284	13.7653	0.057996	0.551132	-0.598569	-0.599984	0.087817	18.8405	-0.602065	-8.889788E+7	-9.878430E-10	NaN
103	1.000000	0.562531	7.36605e+06	-43789.1	955.819	-29778.4	0.000000	0.000000	6.562983	0.083122	NaN	0.000000	0.001546	0.001663	28.0825	0.073056	0.002011	36.3233	136.661	-167.8	-0.001720	0.561187	-0.588584	-0.589929	0.083122	36.3233	-0.590301	-6.120841E+7	-1.358016E-9	NaN
103	1.000000	0.572520	7.36605e+06	-43789.1	955.818	-29778.4	0.000000	0.000000	6.572970	0.038561	NaN	0.000000	0.001531	0.001711	28.1164	0.022793	0.001963	11.6113	-69.9905	16.9297	0.009348	0.571198	-0.578596	-0.579918	0.038561	11.6113	-0.581086	-4.567930E+7	-8.441709E-10	NaN
103	1.000000	0.582531	7.36605e+06	-43789.1	955.818	-29778.4	0.000000	0.000000	6.582980	0.030822	NaN	0.000000	0.001555	0.001647	28.1231	0.067389	0.001952	34.5275	170.896	-165.505	0.017685	0.581246	-0.568585	-0.569869	0.030822	34.5275	-0.569255	-3.135696E+7	-9.829301E-10	NaN
103	1.000000	0.592563	7.36605e+06	-43789.1	955.819	-29778.4	0.000000	0.000000	6.593014	0.052481	NaN	0.000000	0.001531	0.001702	28.0851	0.035149	0.001832	19.1897	26.8739	16.9792	0.055983	0.591214	-0.558553	-0.559901	0.052481	19.1897	-0.560604	-2.380853E+7	-2.204305E-9	NaN
103	1.000000	0.602539	7.36605e+06	-43789.1	955.817	-29778.4	0.000000	0.000000	6.602989	0.025966	NaN	0.000000	0.001537	0.001672	28.0817	0.050005	0.001875	26.6654	173.827	-163.765	0.033444	0.601230	-0.548577	-0.549885	0.025966	26.6654	-0.549307	-1.660948E+7	-1.563337E-9	NaN
103	1.000000	0.612547	7.36605e+06	-43789.1	955.819	-29778.4	0.000000	0.000000	6.612995	-0.006084	NaN	0.000000	0.001533	0.001700	28.1152	0.044084	0.001981	22.2555	160.648	14.0847	-0.033108	0.611166	-0.538569	-0.539949	-0.006084	22.2555	-0.538364	-1.171294E+7	5.194583E-10	NaN
103	1.000000	0.622541	7.36605e+06	-43789.1	955.818	-29778.4	0.000000	0.000000	6.622990	0.016130	NaN	0.000000	0.001525	0.001677	28.1246	0.102489	0.001960	52.3027	-34.9633	-165.692	-0.031959	0.621188	-0.528575	-0.529927	0.016130	52.3027	-0.528806	-8.62967e+06	-1.869085E-9	NaN
103	1.000000	0.632554	7.36605e+06	-43789.1	955.818	-29778.4	0.000000	0.000000	6.633003	-0.007378	NaN	0.000000	0.001563	0.001671	28.0877	0.178497	0.002127	83.9256	159.654	14.4867	-0.048914	0.631227	-0.518561	-0.519889	-0.007378	83.9256	-0.518495	-6.20396e+06	1.189239E-9	NaN
103	1.000000	0.642546	7.36605e+06	-43789.1	955.818	-29778.4	0.000000	0.000000	6.642991	-0.068274	NaN	0.000000	0.001531	0.001647	28.0828	0.013943	0.001920	7.260448	-113.884	-164.084	-0.029523	0.641236	-0.508570	-0.509879	-0.068274	7.260448	-0.501517	-3.59902e+06	1.897005E-8	NaN
103	1.000000	0.652546	7.36605e+06	-43789.1	955.819	-29778.4	0.000000	0.000000	6.652994	-0.015299	NaN	0.000000	0.001560	0.001666	28.1161	0.138837	0.001986	69.8929	9.420202	14.3799	0.005402	0.651156	-0.498569	-0.499959	-0.015299	69.8929	-0.498405	-3.25662e+06	4.697917E-9	NaN
103	1.000000	0.662581	7.36605e+06	-43789.1	955.818	-29778.4	0.000000	0.000000	6.663029	-0.028415	NaN	0.000000	0.001498	0.001660	28.1234	0.079230	0.001862	42.5504	16.1132	-163.919	-0.035575	0.661242	-0.488534	-0.489873	-0.028415	42.5504	-0.488033	-2.33296e+06	1.217987E-8	NaN
103	1.000000	0.672589	7.36605e+06	-43789.1	955.819	-29778.4	0.000000	0.000000	6.673039	0.017102	NaN	0.000000	0.001546	0.001650	28.0848	0.067671	0.002021	33.4774	-37.9584	17.7031	0.031406	0.671225	-0.478526	-0.479890	0.017102	33.4774	-0.478910	-1.73884e+06	-9.835352E-9	NaN
103	1.000000	0.682569	7.36605e+06	-43789.1	955.819	-29778.4	0.000000	0.000000	6.683016	-0.024157	NaN	0.000000	0.001532	0.001695	28.0807	0.057798	0.001984	29.1372	29.784	-166.471	-0.087026	0.681254	-0.468547	-0.469862	-0.024157	29.1372	-0.467925	-1.21983e+06	1.980366E-8	NaN
103	1.000000	0.692585	7.36605e+06	-43789.1	955.818	-29778.4	0.000000	0.000000	6.693034	-0.001947	NaN	0.000000	0.001526	0.001678	28.1136	0.050287	0.002000	25.1388	133.849	15.244	-0.081784	0.691222	-0.458530	-0.459893	-0.001947	25.1388	-0.458472	-898557	2.166510E-9	NaN
103	1.000000	0.702571	7.36605e+06	-43789.1	955.818	-29778.4	0.000000	0.000000	6.703023	0.071922	NaN	0.000000	0.001558	0.001618	28.1234	0.019295	0.002174	8.875634	105.775	-163.016	0.041002	0.701255	-0.448545	-0.449861	0.071922	8.875634	-0.454622	-793232	-9.066963E-8	NaN
103	1.000000	0.712572	7.36605e+06	-43789.1	955.818	-29778.4	0.000000	0.000000	6.713020	-0.007402	NaN	0.000000	0.001533	0.001674	28.0845	0.140812	0.001886	74.6558	-79.0164	17.1163	-0.043355	0.711181	-0.438544	-0.439935	-0.007402	74.6558	-0.438469	-469630	1.576118E-8	NaN
103	1.000000	0.722571	7.36605e+06	-43789.1	955.819	-29778.4	0.000000	0.000000	6.723021	0.042064	NaN	0.000000	0.001531	0.001657	28.0818	0.022749	0.002097	10.8462	-14.5102	-165.755	-0.021463	0.721265	-0.428545	-0.429851	0.042064	10.8462	-0.431454	-373787	-1.125353E-7	NaN
103	1.000000	0.732596	7.36605e+06	-43789.1	955.819	-29778.4	0.000000	0.000000	6.733042	-0.051117	NaN	0.000000	0.001534	0.001650	28.1149	0.093621	0.002012	46.5423	-49.0697	13.9667	0.042589	0.731239	-0.418520	-0.419877	-0.051117	46.5423	-0.417696	-238634	2.142088E-7	NaN
103	1.000000	0.742593	7.36605e+06	-43789.1	955.818	-29778.4	0.000000	0.000000	6.743040	-0.054281	NaN	0.000000	0.001560	0.001645	28.1223	0.122116	0.001988	61.4371	16.2729	-163.49	-0.002520	0.741276	-0.408522	-0.409840	-0.054281	61.4371	-0.407860	-172964	3.138264E-7	NaN
103	1.000000	0.752601	7.36605e+06	-43789.1	955.819	-29778.4	0.000000	0.000000	6.753049	-0.014440	NaN	0.000000	0.001549	0.001653	28.0836	0.020930	0.001993	10.4991	83.4596	16.8488	0.030969	0.751277	-0.398514	-0.399839	-0.014440	10.4991	-0.397483	-123051	1.173536E-7	NaN
103	1.000000	0.762615	7.36605e+06	-43789.1	955.818	-29778.4	0.000000	0.000000	6.763064	0.014384	NaN	0.000000	0.001535	0.001636	28.0795	0.022596	0.002009	11.2471	104.159	-163.289	0.071628	0.761305	-0.388501	-0.389810	0.014384	11.2471	-0.389460	-94503.2	-1.522070E-7	NaN
103	1.000000	0.772635	7.36605e+06	-43789.1	955.817	-29778.4	0.000000	0.000000	6.773087	0.079999	NaN	0.000000	0.001533	0.001632	28.1127	0.054123	0.002083	25.9863	27.6267	16.4381	0.043481	0.771262	-0.378481	-0.379854	0.079999	25.9863	-0.380790	-70993.9	-1.126837E-6	NaN
103	1.000000	0.782615	7.36605e+06	-43789.1	955.819	-29778.4	0.000000	0.000000	6.783064	0.014698	NaN	0.000000	0.001539	0.001666	28.1237	0.079903	0.001872	42.6782	133.6	-164.831	0.046776	0.781308	-0.368501	-0.369808	0.014698	42.6782	-0.368759	-47670.8	-3.083187E-7	NaN
103	1.000000	0.792615	7.36605e+06	-43789.1	955.818	-29778.4	0.000000	0.000000	6.793067	0.094021	NaN	0.000000	0.001560	0.001659	28.0861	0.041653	0.001970	21.1449	-67.4056	16.2876	0.022603	0.791296	-0.358501	-0.359820	0.094021	21.1449	-0.361836	-37877.1	-2.482252E-6	NaN
103	1.000000	0.802614	7.36605e+06	-43789.1	955.818	-29778.4	0.000000	0.000000	6.803064	0.052223	NaN	0.000000	0.001585	0.001658	28.0821	0.059685	0.001994	29.9284	-159.957	-162.45	-0.027415	0.801307	-0.348502	-0.349808	0.052223	29.9284	-0.349811	-25366.1	-2.058779E-6	NaN
103	1.000000	0.812611	7.36605e+06	-43789.1	955.819	-29778.4	0.000000	0.000000	6.813060	0.007833	NaN	0.000000	0.001575	0.001664	28.1141	0.103322	0.002012	51.3402	166.978	10.314	-0.050407	0.811251	-0.338505	-0.339864	0.007833	51.3402	-0.338619	-17435	-4.492682E-7	NaN
103	1.000000	0.822620	7.36605e+06	-43789.1	955.818	-29778.4	0.000000	0.000000	6.823067	-0.044017	NaN	0.000000	0.001593	0.001684	28.1242	0.073847	0.002209	33.4229	-92.1243	-162.323	-0.030921	0.821309	-0.328496	-0.329807	-0.044017	33.4229	-0.327508	-11993.2	3.670218E-6	NaN
103	1.000000	0.832627	7.36605e+06	-43789.1	955.819	-29778.4	0.000000	0.000000	6.833078	0.059121	NaN	0.000000	0.001547	0.001647	28.0842	0.012853	0.002039	6.303105	-90.2722	17.0892	0.032472	0.831322	-0.318489	-0.319794	0.059121	6.303105	-0.325523	-11215.5	-5.271374E-6	NaN
103	1.000000	0.842621	7.36605e+06	-43789.1	955.818	-29778.4	0.000000	0.000000	6.843070	-0.004048	NaN	0.000000	0.001592	0.001637	28.0823	0.117821	0.002074	56.8002	-36.629	-164.783	0.057894	0.841363	-0.308494	-0.309753	-0.004048	56.8002	-0.308441	-6280.19	6.446265E-7	NaN
103	1.000000	0.852619	7.36605e+06	-43789.1	955.818	-29778.4	0.000000	0.000000	6.853068	0.014157	NaN	0.000000	0.001552	0.001666	28.1138	0.137822	0.001945	70.8698	-71.0433	10.7551	-0.038467	0.851284	-0.298497	-0.299831	0.014157	70.8698	-0.298647	-4492.43	-3.151346E-6	NaN
103	1.000000	0.862625	7.36605e+06	-43789.1	955.819	-29778.4	0.000000	0.000000	6.863074	0.009294	NaN	0.000000	0.001568	0.001671	28.1256	0.054464	0.001978	27.5294	100.309	-166.275	0.073065	0.861288	-0.288491	-0.289828	0.009294	27.5294	-0.288744	-3195.03	-2.908917E-6	NaN
103	1.000000	0.872657	7.36605e+06	-43789.1	955.818	-29778.4	0.000000	0.000000	6.873104	-0.026397	NaN	0.000000	0.001606	0.001633	28.0863	0.039590	0.001992	19.8742	-142.034	16.781	-0.022792	0.871293	-0.278459	-0.279823	-0.026397	19.8742	-0.277463	-2161.03	1.221502E-5	NaN
103	1.000000	0.882652	7.36605e+06	-43789.1	955.819	-29778.4	0.000000	0.000000	6.883103	0.055828	NaN	0.000000	0.001586	0.001665	28.083	0.074812	0.002006	37.3007	-127.321	-164.529	0.094109	0.881361	-0.268463	-0.269755	0.055828	37.3007	-0.269586	-1641.54	-3.400939E-5	NaN
103	1.000000	0.892695	7.36605e+06	-43789.1	955.818	-29778.4	0.000000	0.000000	6.893145	0.026753	NaN	0.000000	0.001568	0.001656	28.115	0.032221	0.001971	16.3492	-145.793	16.0254	0.075033	0.891260	-0.258421	-0.259856	0.026753	16.3492	-0.259648	-1157.51	-2.311239E-5	NaN
103	1.000000	0.902666	7.36605e+06	-43789.1	955.818	-29778.4	0.000000	0.000000	6.903114	-0.012090	NaN	0.000000	0.001573	0.001639	28.1246	0.066936	0.001995	33.5444	29.3356	-164.249	0.007669	0.901350	-0.248450	-0.249765	-0.012090	33.5444	-0.248180	-770.528	1.569023E-5	NaN
103	1.000000	0.912686	7.36605e+06	-43789.1	955.818	-29778.4	0.000000	0.000000	6.913133	-0.025591	NaN	0.000000	0.001565	0.001645	28.086	0.037601	0.002088	18.0066	3.224873	15.2121	0.006723	0.911290	-0.238430	-0.239826	-0.025591	18.0066	-0.237364	-522.786	4.895167E-5	NaN
103	1.000000	0.922685	7.36605e+06	-43789.1	955.819	-29778.4	0.000000	0.000000	6.923135	0.041380	NaN	0.000000	0.001562	0.001653	28.0819	0.091518	0.001975	46.3353	-33.9385	-167.416	0.006426	0.921316	-0.228431	-0.229799	0.041380	46.3353	-0.229101	-387.537	-0.000107	NaN
103	1.000000	0.932672	7.36605e+06	-43789.1	955.819	-29778.4	0.000000	0.000000	6.933118	-0.053089	NaN	0.000000	0.001611	0.001664	28.1136	0.103465	0.002078	49.7831	141.837	14.1685	-0.019747	0.931386	-0.218444	-0.219730	-0.053089	49.7831	-0.217644	-254.665	0.000208	NaN
103	1.000000	0.942670	7.36605e+06	-43789.1	955.818	-29778.4	0.000000	0.000000	6.943118	0.002796	NaN	0.000000	0.001593	0.001632	28.1258	0.031553	0.002124	14.8532	-59.0944	-164.992	0.006844	0.941403	-0.208446	-0.209713	0.002796	14.8532	-0.208587	-181.936	-1.536998E-5	NaN
103	1.000000	0.952687	7.36605e+06	-43789.1	955.818	-29778.4	0.000000	0.000000	6.953135	-0.020771	NaN	0.000000	0.001620	0.001636	28.0872	0.076968	0.001985	38.782	-134.697	16.9225	0.074133	0.951283	-0.198429	-0.199832	-0.020771	38.782	-0.198027	-122.243	0.000170	NaN
103	1.000000	0.962675	7.36605e+06	-43789.1	955.819	-29778.4	0.000000	0.000000	6.963125	0.041575	NaN	0.000000	0.001612	0.001639	28.0804	0.160704	0.001966	81.7441	67.5865	-168.407	0.033696	0.961381	-0.188441	-0.189735	0.041575	81.7441	-0.188823	-85.9686	-0.000484	NaN
103	1.000000	0.972678	7.36605e+06	-43789.1	955.817	-29778.4	0.000000	0.000000	6.973127	0.014545	NaN	0.000000	0.001601	0.001689	28.1134	0.074064	0.002080	35.6102	21.5601	15.1422	0.059104	0.971295	-0.178438	-0.179821	0.014545	35.6102	-0.178744	-58.0866	-0.000250	NaN
103	1.000000	0.982717	7.36605e+06	-43789.1	955.818	-29778.4	0.000000	0.000000	6.983165	-0.000757	NaN	0.000000	0.001585	0.001651	28.1234	0.034392	0.001965	17.5039	-68.2015	-162.581	0.023202	0.981417	-0.168399	-0.169699	-0.000757	17.5039	-0.168367	-38.4768	1.967117E-5	NaN
103	1.000000	0.992721	7.36605e+06	-43789.1	955.818	-29778.4	0.000000	0.000000	6.993170	0.016424	NaN	0.000000	0.001593	0.001639	28.0847	0.101327	0.001936	52.352	122.214	15.5353	0.014083	0.991316	-0.158395	-0.159799	0.016424	52.352	-0.158630	-25.9178	-0.000634	NaN
103	1.000000	1.002711	7.36605e+06	-43789.1	955.817	-29778.4	0.000000	0.000000	7.003156	-0.085060	NaN	0.000000	0.001628	0.001642	28.0793	0.064843	0.002259	28.7005	-68.0581	-165.958	-0.035814	1.001383	-0.148405	-0.149733	-0.085060	28.7005	-0.146182	-15.4167	0.005517	NaN
103	1.000000	1.012683	7.36605e+06	-43789.1	955.819	-29778.4	0.000000	0.000000	7.013134	0.052567	NaN	0.000000	0.001530	0.001647	28.1118	0.053979	0.002081	25.944	-120.878	17.0344	0.078242	1.011322	-0.138433	-0.139794	0.052567	25.944	-0.139952	-11.8052	-0.004453	NaN
103	1.000000	1.022714	7.36605e+06	-43789.1	955.819	-29778.4	0.000000	0.000000	7.023163	0.004997	NaN	0.000000	0.001552	0.001655	28.1246	0.038754	0.002017	19.2094	175.079	-168.026	-0.021311	1.021421	-0.128402	-0.129694	0.004997	19.2094	-0.128597	-7.156318	-0.000698	NaN
103	1.000000	1.032730	7.36605e+06	-43789.1	955.818	-29778.4	0.000000	0.000000	7.033179	0.022730	NaN	0.000000	0.001525	0.001630	28.0855	0.000551	0.002032	0.271105	-26.5361	13.8427	0.125720	1.031313	-0.118386	-0.119803	0.022730	0.271105	-0.181268	-64.1237	-0.000354	NaN
103	1.000000	1.042715	7.36605e+06	-43789.1	955.819	-29778.4	0.000000	0.000000	7.043167	0.066643	NaN	0.000000	0.001515	0.001636	28.0822	0.031374	0.001999	15.6919	156.886	-167.623	0.060857	1.041407	-0.108400	-0.109709	0.066643	15.6919	-0.111586	-3.244757	-0.020539	NaN
103	1.000000	1.052712	7.36605e+06	-43789.1	955.818	-29778.4	0.000000	0.000000	7.053161	0.005361	NaN	0.000000	0.001553	0.001652	28.1119	0.133459	0.002074	64.3615	-149.603	13.6706	0.083975	1.051345	-0.098403	-0.099771	0.005361	64.3615	-0.098466	-1.688987	-0.003174	NaN
103	1.000000	1.062735	7.36605e+06	-43789.1	955.818	-29778.4	0.000000	0.000000	7.063181	-0.054581	NaN	0.000000	0.001595	0.001584	28.1239	0.065885	0.002160	30.4987	-164.858	-162.402	-0.037285	1.061376	-0.088381	-0.089740	-0.054581	30.4987	-0.087038	-0.919804	0.059340	NaN
103	1.000000	1.072716	7.36605e+06	-43789.1	955.818	-29778.4	0.000000	0.000000	7.073164	-0.009688	NaN	0.000000	0.001565	0.001613	28.0854	0.070478	0.001901	37.0736	135.766	11.9429	-0.045333	1.071371	-0.078400	-0.079745	-0.009688	37.0736	-0.078204	-0.557830	0.017367	NaN
103	1.000000	1.082731	7.36605e+06	-43789.1	955.819	-29778.4	0.000000	0.000000	7.083178	-0.020749	NaN	0.000000	0.001547	0.001617	28.0814	0.050097	0.001972	25.4004	95.9687	-165.404	-0.037473	1.081454	-0.068385	-0.069662	-0.020749	25.4004	-0.067772	-0.296993	0.069862	NaN
103	1.000000	1.092722	7.36605e+06	-43789.1	955.818	-29778.4	0.000000	0.000000	7.093172	0.015562	NaN	0.000000	0.001555	0.001629	28.1134	0.008289	0.002026	4.090671	68.8254	14.0886	0.059694	1.091390	-0.058393	-0.059725	0.015562	4.090671	-0.061247	-0.195484	-0.079608	NaN
103	1.000000	1.102739	7.36605e+06	-43789.1	955.818	-29778.4	0.000000	0.000000	7.103191	0.073131	NaN	0.000000	0.001577	0.001641	28.126	0.148719	0.001957	75.9955	4.602260	-167.139	0.088889	1.101462	-0.048377	-0.049654	0.073131	75.9955	-0.049098	-0.085689	-0.853454	NaN
103	1.000000	1.112751	7.36605e+06	-43789.1	955.818	-29778.4	0.000000	0.000000	7.113200	0.010124	NaN	0.000000	0.001570	0.001647	28.0873	0.046255	0.002055	22.5114	-12.5154	16.474	0.090079	1.111384	-0.038365	-0.039731	0.010124	22.5114	-0.038702	-0.041309	-0.245091	NaN
103	1.000000	1.122749	7.36605e+06	-43789.1	955.818	-29778.4	0.000000	0.000000	7.123201	0.073317	NaN	0.000000	0.001532	0.001687	28.0819	0.143941	0.002040	70.573	-3.165917	-169.88	0.038753	1.121475	-0.028366	-0.029641	0.073317	70.573	-0.029146	-0.021792	-3.364453	NaN
103	1.000000	1.132792	7.36605e+06	-43789.1	955.818	-29778.4	0.000000	0.000000	7.133240	-0.019459	NaN	0.000000	0.001548	0.001674	28.1143	0.092855	0.001948	47.6692	22.4023	15.276	0.024224	1.131414	-0.018323	-0.019702	-0.019459	47.6692	-0.018017	-0.011174	1.741471	NaN
103	1.000000	1.142776	7.36605e+06	-43789.1	955.818	-29778.4	0.000000	0.000000	7.143221	-0.089284	NaN	0.000000	0.001531	0.001658	28.125	0.089893	0.002041	44.0471	119.423	-165.099	-0.106291	1.141452	-0.008339	-0.009663	-0.089284	44.0471	-0.006819	-0.004532	19.7002	NaN
103	1.000000	1.152748	7.36605e+06	-43789.1	955.818	-29778.4	0.000000	0.000000	7.153227	0.741835	NaN	0.000000	0.001566	0.001667	28.0857	1.264945	0.001743	725.918	14.3174	10.7926	0.133495	1.151332	0.001633	0.000216	0.741835	725.918	0.000866	0.000658	1126.74	25847.5
103	2.000000	1.160302	7.36605e+06	-43789.1	955.819	-29778.4	0.000000	0.000000	7.161121	9.008157	NaN	0.000000	0.001576	0.001675	28.0814	9.428187	0.001743	5409.25	6.908435	-171.158	8.686530	1.159958	0.009186	0.008842	9.008157	5409.25	0.007937	0.006978	1291	59163.7
103	2.000000	1.162791	7.36605e+06	-43789.1	955.819	-29778.4	0.000000	0.000000	7.163719	11.6677	NaN	0.000000	0.001561	0.001623	28.1125	11.5606	0.001701	6795.74	8.073422	7.078056	10.6289	1.162438	0.011676	0.011323	11.6677	6795.74	0.010388	0.009616	1213.4	63316.6
103	2.000000	1.165236	7.36605e+06	-43789.1	955.819	-29778.4	0.000000	0.000000	7.166315	15.3419	NaN	0.000000	0.001508	0.001631	28.1268	14.6179	0.001717	8513.39	8.616826	-177.519	14.7074	1.164983	0.014120	0.013868	15.3419	8513.39	0.012768	0.012423	1234.93	69784.2
103	2.000000	1.167767	7.36605e+06	-43789.1	955.819	-29778.4	0.000000	0.000000	7.169054	20.4162	NaN	0.000000	0.001533	0.001618	28.0875	17.5133	0.001789	9790.3	10.1477	1.522472	20.5232	1.167392	0.016651	0.016276	20.4162	9790.3	0.015087	0.015402	1325.59	72075.4
103	2.000000	1.170243	7.36605e+06	-43789.1	955.818	-29778.4	0.000000	0.000000	7.171795	26.8553	NaN	0.000000	0.001574	0.001615	28.0831	20.3641	0.001769	11508.5	7.034015	-178.842	26.6731	1.169940	0.019127	0.018824	26.8553	11508.5	0.017377	0.018587	1444.87	77124.3
103	2.000000	1.172790	7.36605e+06	-43789.1	955.819	-29778.4	0.000000	0.000000	7.174519	31.142	NaN	0.000000	0.001547	0.001636	28.1139	22.8597	0.001800	12698.2	6.485781	1.344256	29.6937	1.172427	0.021674	0.021311	31.142	12698.2	0.019835	0.022283	1397.54	77718.4
103	2.000000	1.175221	7.36605e+06	-43789.1	955.818	-29778.4	0.000000	0.000000	7.177250	38.4627	NaN	0.000000	0.001508	0.001619	28.1255	25.1135	0.001791	14025.5	7.975364	-179.654	38.3863	1.174898	0.024105	0.023782	38.4627	14025.5	0.022049	0.025864	1487.11	79679
103	2.000000	1.177716	7.36605e+06	-43789.1	955.818	-29778.4	0.000000	0.000000	7.180072	46.396	NaN	0.000000	0.001557	0.001634	28.0858	27.6165	0.001736	15910.6	5.306450	1.357777	45.3551	1.177415	0.026600	0.026299	46.396	15910.6	0.024413	0.029957	1548.76	83986.8
103	2.000000	1.180220	7.36605e+06	-43789.1	955.818	-29778.4	0.000000	0.000000	7.182825	52.4798	NaN	0.000000	0.001537	0.001622	28.0803	31.1481	0.001839	16933.7	6.375133	179.047	51.3802	1.179894	0.029104	0.028779	52.4798	16933.7	0.026780	0.034333	1528.55	83496.6
103	2.000000	1.182665	7.36605e+06	-43789.1	955.819	-29778.4	0.000000	0.000000	7.185603	60.5541	NaN	0.000000	0.001571	0.001647	28.1123	32.4656	0.001794	18100.1	3.389992	1.969459	58.2133	1.182365	0.031550	0.031249	60.5541	18100.1	0.029041	0.038779	1561.53	83976.5
103	2.000000	1.185150	7.36605e+06	-43789.1	955.819	-29778.4	0.000000	0.000000	7.188443	69.1962	NaN	0.000000	0.001565	0.001642	28.1257	34.527	0.001645	20984.5	3.114716	179.343	66.6244	1.184853	0.034034	0.033738	69.1962	20984.5	0.031561	0.044042	1571.14	91356.5
103	2.000000	1.187685	7.36605e+06	-43789.1	955.818	-29778.4	0.000000	0.000000	7.191141	73.1683	NaN	0.000000	0.001572	0.001599	28.0859	37.2828	0.001819	20494.5	4.571310	-0.922218	71.5757	1.187481	0.036569	0.036365	73.1683	20494.5	0.033892	0.049197	1487.26	84419.3
103	2.000000	1.190178	7.36605e+06	-43789.1	955.817	-29778.4	0.000000	0.000000	7.194019	82.548	NaN	0.000000	0.001560	0.001563	28.0812	40.6267	0.001913	21238.9	8.167906	175.562	81.842	1.189869	0.039062	0.038753	82.548	21238.9	0.036147	0.054450	1516.04	83158.4
103	2.000000	1.192695	7.36605e+06	-43789.1	955.818	-29778.4	0.000000	0.000000	7.196938	92.3097	NaN	0.000000	0.001533	0.001584	28.1125	41.4465	0.001761	23530.1	3.066974	-0.856201	89.155	1.192359	0.041579	0.041244	92.3097	23530.1	0.038637	0.060553	1524.45	87363.5
103	2.000000	1.195201	7.36605e+06	-43789.1	955.818	-29778.4	0.000000	0.000000	7.199892	103.205	NaN	0.000000	0.001532	0.001604	28.1243	43.3799	0.001814	23916.9	4.430753	179.129	102.843	1.194704	0.044085	0.043588	103.205	23916.9	0.040849	0.066241	1558.03	84901.5
103	2.000000	1.197591	7.36605e+06	-43789.1	955.819	-29778.4	0.000000	0.000000	7.202588	110.678	NaN	0.000000	0.001529	0.001579	28.0854	45.7193	0.001815	25184.6	1.408856	0.864795	105.951	1.197255	0.046475	0.046139	110.678	25184.6	0.043179	0.072502	1526.55	85454.4
103	2.000000	1.200179	7.36605e+06	-43789.1	955.819	-29778.4	0.000000	0.000000	7.205446	117.242	NaN	0.000000	0.001548	0.001546	28.0804	48.611	0.001833	26525.7	2.770381	178.585	116.826	1.199852	0.049063	0.048736	117.242	26525.7	0.045748	0.079726	1470.57	85830.3
103	2.000000	1.202704	7.36605e+06	-43789.1	955.818	-29778.4	0.000000	0.000000	7.208459	129.109	NaN	0.000000	0.001589	0.001607	28.11	50.9585	0.001809	28175	2.673880	-1.589091	127.371	1.202365	0.051588	0.051249	129.109	28175	0.048151	0.086785	1487.69	87380.4
103	2.000000	1.205155	7.36605e+06	-43789.1	955.818	-29778.4	0.000000	0.000000	7.211578	145.362	NaN	0.000000	0.001551	0.001605	28.1256	53.631	0.001876	28582.9	6.665522	174.99	144.575	1.204770	0.054039	0.053654	145.362	28582.9	0.050225	0.093109	1561.19	85582.1
103	2.000000	1.207638	7.36605e+06	-43789.1	955.819	-29778.4	0.000000	0.000000	7.214513	156.333	NaN	0.000000	0.001554	0.001650	28.0863	56.2672	0.001871	30067.4	5.437555	-5.077617	152.702	1.207307	0.056523	0.056191	156.333	30067.4	0.052623	0.100693	1552.56	86570.4
103	2.000000	1.210146	7.36605e+06	-43789.1	955.819	-29778.4	0.000000	0.000000	7.217519	168.47	NaN	0.000000	0.001591	0.001563	28.0808	57.7656	0.001786	32340.4	4.492394	175.519	166.517	1.209859	0.059030	0.058743	168.47	32340.4	0.055123	0.108903	1546.97	89536
103	2.000000	1.212679	7.36605e+06	-43789.1	955.819	-29778.4	0.000000	0.000000	7.220683	183.834	NaN	0.000000	0.001555	0.001578	28.1125	58.8616	0.001715	34317.5	4.852888	-5.327279	182.594	1.212228	0.061563	0.061112	183.834	34317.5	0.057545	0.117154	1569.17	91603.3
103	2.000000	1.215082	7.36605e+06	-43789.1	955.819	-29778.4	0.000000	0.000000	7.223521	194.414	NaN	0.000000	0.001573	0.001608	28.1256	60.3846	0.001709	35343.6	2.222221	176.564	191.448	1.214865	0.063966	0.063749	194.414	35343.6	0.059840	0.125236	1552.38	91247
103	2.000000	1.217629	7.36605e+06	-43789.1	955.818	-29778.4	0.000000	0.000000	7.226708	209.968	NaN	0.000000	0.001599	0.001653	28.0862	64.8836	0.001815	35742.5	5.539104	-5.865375	209.86	1.217230	0.066513	0.066114	209.968	35742.5	0.062107	0.133473	1573.12	89384.5
103	2.000000	1.220128	7.36605e+06	-43789.1	955.817	-29778.4	0.000000	0.000000	7.229801	224.425	NaN	0.000000	0.001563	0.001608	28.0794	68.0294	0.001900	35806	7.048374	172.604	224.468	1.219817	0.069012	0.068701	224.425	35806	0.064311	0.141720	1583.58	86898.9
103	2.000000	1.222660	7.36605e+06	-43789.1	955.818	-29778.4	0.000000	0.000000	7.233048	241.814	NaN	0.000000	0.001564	0.001572	28.111	68.1179	0.001849	36845.2	1.448164	-1.552497	237.744	1.222238	0.071544	0.071123	241.814	36845.2	0.066622	0.150620	1605.46	86738.7
103	2.000000	1.225053	7.36605e+06	-43789.1	955.818	-29778.4	0.000000	0.000000	7.236039	256.384	NaN	0.000000	0.001554	0.001574	28.1267	71.3796	0.001892	37732.5	7.694278	171.421	253.886	1.224840	0.073937	0.073725	256.384	37732.5	0.068841	0.159404	1608.39	86345.4
103	2.000000	1.227536	7.36605e+06	-43789.1	955.818	-29778.4	0.000000	0.000000	7.239032	268.769	NaN	0.000000	0.001588	0.001553	28.088	74.5331	0.001878	39690.8	4.737624	-6.861368	263.572	1.227239	0.076420	0.076123	268.769	39690.8	0.071342	0.169588	1584.83	88057.2
103	2.000000	1.230210	7.36605e+06	-43789.1	955.818	-29778.4	0.000000	0.000000	7.242097	278.309	NaN	0.000000	0.001553	0.001552	28.0814	77.011	0.001861	41382.1	2.925227	175.569	283.083	1.229831	0.079094	0.078716	278.309	41382.1	0.074050	0.180951	1538.03	88880.1
103	2.000000	1.232588	7.36605e+06	-43789.1	955.818	-29778.4	0.000000	0.000000	7.245465	302.394	NaN	0.000000	0.001547	0.001557	28.1115	78.0197	0.001780	43821.7	6.229652	-7.840072	297.459	1.232153	0.081472	0.081037	302.394	43821.7	0.076296	0.190640	1586.21	91697.1
103	2.000000	1.235140	7.36605e+06	-43789.1	955.817	-29778.4	0.000000	0.000000	7.248440	312.685	NaN	0.000000	0.001551	0.001523	28.126	80.4226	0.001759	45712.5	6.284801	171.003	313.623	1.234928	0.084024	0.083812	312.685	45712.5	0.078894	0.202136	1546.9	92893.6
103	2.000000	1.237594	7.36605e+06	-43789.1	955.818	-29778.4	0.000000	0.000000	7.251785	334.328	NaN	0.000000	0.001536	0.001517	28.0865	81.6992	0.001723	47422.7	-0.041132	-2.822101	330.31	1.237163	0.086479	0.086047	334.328	47422.7	0.081191	0.212568	1572.81	93974.7
103	2.000000	1.240115	7.36605e+06	-43789.1	955.818	-29778.4	0.000000	0.000000	7.254864	347.919	NaN	0.000000	0.001566	0.001541	28.082	86.0974	0.001750	49186.8	7.413636	169.043	346.522	1.239682	0.088999	0.088566	347.919	49186.8	0.083694	0.224211	1551.75	94905.9
103	2.000000	1.242612	7.36605e+06	-43789.1	955.818	-29778.4	0.000000	0.000000	7.258185	367.973	NaN	0.000000	0.001560	0.001566	28.1101	88.0897	0.001951	45140.4	6.757873	-9.101707	364.009	1.242176	0.091496	0.091061	367.973	45140.4	0.085382	0.232229	1584.53	85581.6
103	2.000000	1.245061	7.36605e+06	-43789.1	955.818	-29778.4	0.000000	0.000000	7.261434	387.416	NaN	0.000000	0.001574	0.001574	28.1263	90.1118	0.001856	48563.6	5.556017	171.266	385.661	1.244728	0.093946	0.093612	387.416	48563.6	0.087963	0.244737	1582.99	89688
103	2.000000	1.247494	7.36605e+06	-43789.1	955.817	-29778.4	0.000000	0.000000	7.264763	409.222	NaN	0.000000	0.001565	0.001537	28.0879	91.7368	0.001846	49688.6	5.819238	-8.717543	400.662	1.247156	0.096378	0.096040	409.222	49688.6	0.090201	0.255837	1599.54	89752.9
103	2.000000	1.250097	7.36605e+06	-43789.1	955.817	-29778.4	0.000000	0.000000	7.267950	423.428	NaN	0.000000	0.001541	0.001584	28.0804	94.5001	0.001748	54049.5	3.254913	172.638	420.944	1.249851	0.098981	0.098735	423.428	54049.5	0.093106	0.270581	1564.89	94932.9
103	2.000000	1.252633	7.36605e+06	-43789.1	955.817	-29778.4	0.000000	0.000000	7.271305	443.352	NaN	0.000000	0.001527	0.001539	28.1102	96.0068	0.001723	55730.8	4.293857	-8.440008	441.6	1.252336	0.101517	0.101220	443.352	55730.8	0.095551	0.283292	1565	95664.7
103	2.000000	1.255010	7.36605e+06	-43789.1	955.818	-29778.4	0.000000	0.000000	7.274542	464.305	NaN	0.000000	0.001573	0.001518	28.1256	97.3176	0.001664	58499.4	4.517888	170.85	458.551	1.254789	0.103894	0.103673	464.305	58499.4	0.097941	0.295980	1568.7	98241.2
103	2.000000	1.257506	7.36605e+06	-43789.1	955.817	-29778.4	0.000000	0.000000	7.277803	482.899	NaN	0.000000	0.001533	0.001491	28.0852	100.703	0.001713	58773.3	5.831656	-10.9302	475.606	1.257287	0.106390	0.106171	482.899	58773.3	0.100228	0.308365	1566	96698.8
103	2.000000	1.258043	7.36605e+06	-43789.1	955.817	-29778.4	0.000000	0.000000	7.278738	492.584	NaN	0.000000	0.001537	0.001489	28.0783	101.668	0.001824	55734.7	9.235191	166.902	487.78	1.257588	0.106927	0.106472	492.584	55734.7	0.100299	0.308752	1595.41	91641.9