File: remote_trans/data/nanoindenter/0828-1/data/Data_2025-08-06,11h17m57s/2025-07-22_16-23-58_1_696.txt
2025-07-22, 16:23:58, 1
Index	Phase	Displacement	Time	Pos X	Pos Y	Pos Z	Rot A	Rot B	Piezo Z	Force A	Force B	Gripper	Voltage A	Voltage B	Temperature	Amplitude force	Amplitude pos	Stiffness	Phase shift	Phase excitation	Force A raw	Displacement raw	HMax	HMax raw	Real Force	Real Stiffness	Contact Depth	Area	Hardness	Reduced Mod.
[#]	[#]	[um]	[s]	[um]	[um]	[um]	[m°]	[m°]	[um]	[uN]	[uN]	[V]	[V]	[V]	[°C]	[uN]	[um]	[N/m]	[°]	[°]	[uN]	[um]	[um]	[um]	[uN]	[N/m]	[um]	[um^2]	[MPa]	[MPa]
696	1.000000	0.002466	7.37186e+06	-42289.1	1005.82	-29783.1	0.000000	0.000000	6.002781	0.007376	NaN	0.000000	0.001650	0.001656	28.0816	0.046603	0.001000	46.5985	12.8911	-169.8	0.014578	0.001220	-1.186464	-1.187710	0.007376	46.5985	-1.186583	-7.261943E+15	-1.015677E-18	NaN
696	1.000000	0.012570	7.37186e+06	-42289.1	1005.82	-29783.1	0.000000	0.000000	6.012882	-0.073869	NaN	0.000000	0.001619	0.001686	28.0815	0.142823	0.001118	127.742	-60.1929	11.7922	-0.109191	0.011083	-1.176360	-1.177847	-0.073869	127.742	-1.175926	-5.227504E+15	1.413085E-17	NaN
696	1.000000	0.022457	7.37186e+06	-42289.1	1005.82	-29783.1	0.000000	0.000000	6.022771	-0.014732	NaN	0.000000	0.001620	0.001670	28.0816	0.073344	0.001726	42.4927	115.879	-163.485	0.003166	0.021050	-1.166473	-1.167880	-0.014732	42.4927	-1.166213	-3.873783E+15	3.803019E-18	NaN
696	1.000000	0.032447	7.37186e+06	-42289.1	1005.82	-29783.1	0.000000	0.000000	6.032759	-0.075829	NaN	0.000000	0.001617	0.001679	28.0813	0.104799	0.001812	57.8221	-49.8199	10.786	-0.048924	0.031056	-1.156483	-1.157874	-0.075829	57.8221	-1.155499	-2.783196E+15	2.724515E-17	NaN
696	1.000000	0.042386	7.37186e+06	-42289.1	1005.82	-29783.1	0.000000	0.000000	6.042701	0.027913	NaN	0.000000	0.001607	0.001645	28.0828	0.036667	0.001782	20.5812	135.463	-167.964	-0.019689	0.041106	-1.146545	-1.147824	0.027913	20.5812	-1.147562	-2.178364E+15	-1.281394E-17	NaN
696	1.000000	0.052421	7.37186e+06	-42289.1	1005.82	-29783.1	0.000000	0.000000	6.052735	-0.037372	NaN	0.000000	0.001631	0.001636	28.0831	0.055251	0.001970	28.0457	-28.4878	12.2504	-0.036483	0.051065	-1.136509	-1.137865	-0.037372	28.0457	-1.135509	-1.501462E+15	2.489025E-17	NaN
696	1.000000	0.062436	7.37186e+06	-42289.1	1005.82	-29783.1	0.000000	0.000000	6.062749	-0.038089	NaN	0.000000	0.001622	0.001656	28.083	0.115875	0.002019	57.3964	88.2961	-167.107	-0.064570	0.061217	-1.126494	-1.127713	-0.038089	57.3964	-1.125996	-1.119220E+15	3.403182E-17	NaN
696	1.000000	0.072419	7.37186e+06	-42289.1	1005.82	-29783.1	0.000000	0.000000	6.072736	0.062240	NaN	0.000000	0.001646	0.001671	28.0831	0.102911	0.002040	50.4414	-148.569	17.5794	-0.019671	0.071125	-1.116511	-1.117805	0.062240	50.4414	-1.117437	-8.591734E+14	-7.244173E-17	NaN
696	1.000000	0.082463	7.37186e+06	-42289.1	1005.82	-29783.1	0.000000	0.000000	6.082779	0.022786	NaN	0.000000	0.001602	0.001668	28.0835	0.059272	0.002070	28.6278	84.3302	-167.003	0.019255	0.081129	-1.106467	-1.107801	0.022786	28.6278	-1.107064	-6.235717E+14	-3.654035E-17	NaN
696	1.000000	0.092444	7.37186e+06	-42289.1	1005.82	-29783.1	0.000000	0.000000	6.092757	-0.031142	NaN	0.000000	0.001633	0.001676	28.083	0.085299	0.002003	42.5814	-32.1213	13.4826	-0.107447	0.091108	-1.096486	-1.097823	-0.031142	42.5814	-1.095938	-4.421140E+14	7.043875E-17	NaN
696	1.000000	0.102456	7.37186e+06	-42289.1	1005.82	-29783.1	0.000000	0.000000	6.102772	0.011615	NaN	0.000000	0.001626	0.001690	28.083	0.050301	0.002076	24.2251	175.712	-164.584	-0.046199	0.101199	-1.086474	-1.087731	0.011615	24.2251	-1.086833	-3.336491E+14	-3.481126E-17	NaN
696	1.000000	0.112457	7.37186e+06	-42289.1	1005.82	-29783.1	0.000000	0.000000	6.112773	0.021335	NaN	0.000000	0.001577	0.001653	28.083	0.051882	0.002072	25.0377	83.08	14.6644	0.063097	0.111086	-1.076473	-1.077844	0.021335	25.0377	-1.077112	-2.470164E+14	-8.636958E-17	NaN
696	1.000000	0.122463	7.37186e+06	-42289.1	1005.82	-29783.1	0.000000	0.000000	6.122777	-0.016071	NaN	0.000000	0.001620	0.001664	28.0831	0.033300	0.001844	18.0587	-71.1271	-165.417	-0.049353	0.121161	-1.066467	-1.067769	-0.016071	18.0587	-1.065799	-1.740801E+14	9.231728E-17	NaN
696	1.000000	0.132448	7.37186e+06	-42289.1	1005.82	-29783.1	0.000000	0.000000	6.132764	0.022563	NaN	0.000000	0.001600	0.001655	28.083	0.155296	0.001895	81.9505	134.768	15.4705	0.172302	0.131114	-1.056482	-1.057817	0.022563	81.9505	-1.056689	-1.313161E+14	-1.718232E-16	NaN
696	1.000000	0.142461	7.37186e+06	-42289.1	1005.82	-29783.1	0.000000	0.000000	6.142775	-0.019400	NaN	0.000000	0.001643	0.001670	28.083	0.063854	0.001930	33.0934	-159.968	-168.281	0.099111	0.141202	-1.046469	-1.047728	-0.019400	33.0934	-1.046029	-9.441358E+13	2.054740E-16	NaN
696	1.000000	0.152485	7.37186e+06	-42289.1	1005.82	-29783.1	0.000000	0.000000	6.152800	0.005585	NaN	0.000000	0.001645	0.001663	28.0833	0.034313	0.002111	16.2562	55.3393	14.5153	0.017120	0.151143	-1.036445	-1.037787	0.005585	16.2562	-1.036702	-7.073308E+13	-7.896381E-17	NaN
696	1.000000	0.162486	7.37186e+06	-42289.1	1005.82	-29783.1	0.000000	0.000000	6.162799	-0.027421	NaN	0.000000	0.001674	0.001633	28.0829	0.089765	0.001963	45.7213	163.115	-166.409	-0.057528	0.161182	-1.026444	-1.027749	-0.027421	45.7213	-1.025995	-5.076925E+13	5.401062E-16	NaN
696	1.000000	0.172486	7.37186e+06	-42289.1	1005.82	-29783.1	0.000000	0.000000	6.172802	0.029020	NaN	0.000000	0.001666	0.001661	28.0828	0.041086	0.002089	19.6654	-16.0692	8.159722	-0.046732	0.171089	-1.016444	-1.017842	0.029020	19.6654	-1.017550	-3.908346E+13	-7.425087E-16	NaN
696	1.000000	0.182499	7.37186e+06	-42289.1	1005.82	-29783.1	0.000000	0.000000	6.182813	-0.006545	NaN	0.000000	0.001671	0.001675	28.0817	0.093214	0.002019	46.1615	114.827	-162.971	-0.017396	0.181235	-1.006431	-1.007695	-0.006545	46.1615	-1.006325	-2.760049E+13	2.371409E-16	NaN
696	1.000000	0.192458	7.37186e+06	-42289.1	1005.82	-29783.1	0.000000	0.000000	6.192771	-0.052840	NaN	0.000000	0.001665	0.001689	28.0817	0.092615	0.001917	48.3047	-110.099	15.0099	-0.071034	0.191147	-0.996472	-0.997783	-0.052840	48.3047	-0.995651	-1.982520E+13	2.665307E-15	NaN
696	1.000000	0.202518	7.37186e+06	-42289.1	1005.82	-29783.1	0.000000	0.000000	6.202831	-0.060375	NaN	0.000000	0.001631	0.001651	28.0815	0.062514	0.002019	30.9681	-111.901	-164.464	0.016499	0.201161	-0.986412	-0.987769	-0.060375	30.9681	-0.984949	-1.422611E+13	4.243929E-15	NaN
696	1.000000	0.212499	7.37186e+06	-42289.1	1005.82	-29783.1	0.000000	0.000000	6.212814	0.011980	NaN	0.000000	0.001649	0.001599	28.0819	0.076468	0.001911	40.0042	-113.991	15.9296	0.084349	0.211174	-0.976431	-0.977756	0.011980	40.0042	-0.976656	-1.099904E+13	-1.089204E-15	NaN
696	1.000000	0.222527	7.37186e+06	-42289.1	1005.82	-29783.1	0.000000	0.000000	6.222841	-0.014288	NaN	0.000000	0.001618	0.001701	28.0821	0.099918	0.002067	48.3448	-158.269	-167.97	-0.030475	0.221240	-0.966403	-0.967690	-0.014288	48.3448	-0.966182	-7.946929E+12	1.797971E-15	NaN
696	1.000000	0.232532	7.37186e+06	-42289.1	1005.82	-29783.1	0.000000	0.000000	6.232845	-0.050813	NaN	0.000000	0.001630	0.001683	28.082	0.025437	0.002023	12.5715	179.246	12.7181	0.004422	0.231179	-0.956398	-0.957751	-0.050813	12.5715	-0.953366	-5.338586E+12	9.518146E-15	NaN
696	1.000000	0.242521	7.37186e+06	-42289.1	1005.82	-29783.1	0.000000	0.000000	6.242835	-0.001248	NaN	0.000000	0.001615	0.001605	28.0818	0.043710	0.002004	21.8101	-26.5132	-167.275	-0.039404	0.241180	-0.946410	-0.947750	-0.001248	21.8101	-0.946367	-4.295596E+12	2.904943E-16	NaN
696	1.000000	0.252526	7.37186e+06	-42289.1	1005.82	-29783.1	0.000000	0.000000	6.252840	-0.038188	NaN	0.000000	0.001644	0.001622	28.0821	0.066574	0.002050	32.4797	131.991	12.7269	0.026433	0.251128	-0.936404	-0.937802	-0.038188	32.4797	-0.935522	-3.067008E+12	1.245128E-14	NaN
696	1.000000	0.262545	7.37186e+06	-42289.1	1005.82	-29783.1	0.000000	0.000000	6.262861	0.020498	NaN	0.000000	0.001652	0.001617	28.0822	0.071399	0.002056	34.7247	-135.426	-165.628	-0.005646	0.261226	-0.926385	-0.927704	0.020498	34.7247	-0.926828	-2.340874E+12	-8.756604E-15	NaN
696	1.000000	0.272535	7.37186e+06	-42289.1	1005.82	-29783.1	0.000000	0.000000	6.272848	-0.051575	NaN	0.000000	0.001613	0.001669	28.0822	0.152899	0.002001	76.4049	-63.8099	15.9352	-0.064307	0.271105	-0.916395	-0.917826	-0.051575	76.4049	-0.915888	-1.666054E+12	3.095654E-14	NaN
696	1.000000	0.282520	7.37186e+06	-42289.1	1005.82	-29783.1	0.000000	0.000000	6.282834	-0.021927	NaN	0.000000	0.001666	0.001700	28.0819	0.033667	0.002023	16.643	-1.845497	-166.486	-0.035587	0.281211	-0.906410	-0.907719	-0.021927	16.643	-0.905422	-1.203140E+12	1.822440E-14	NaN
696	1.000000	0.292513	7.37186e+06	-42289.1	1005.82	-29783.1	0.000000	0.000000	6.292829	0.036222	NaN	0.000000	0.001705	0.001691	28.082	0.054163	0.001945	27.8479	-71.5076	14.6204	0.003430	0.291177	-0.896417	-0.897753	0.036222	27.8479	-0.897392	-9.371916E+11	-3.864934E-14	NaN
696	1.000000	0.302541	7.37186e+06	-42289.1	1005.82	-29783.1	0.000000	0.000000	6.302854	-0.044908	NaN	0.000000	0.001682	0.001687	28.0821	0.065865	0.001965	33.5108	-31.1056	-168.522	0.008092	0.301237	-0.886389	-0.887693	-0.044908	33.5108	-0.885384	-6.449267E+11	6.963314E-14	NaN
696	1.000000	0.312539	7.37186e+06	-42289.1	1005.82	-29783.1	0.000000	0.000000	6.312854	0.016363	NaN	0.000000	0.001732	0.001688	28.0829	0.073329	0.001959	37.4301	-95.751	14.9665	-0.072672	0.311135	-0.876392	-0.877795	0.016363	37.4301	-0.876719	-4.924255E+11	-3.322984E-14	NaN
696	1.000000	0.322520	7.37186e+06	-42289.1	1005.82	-29783.1	0.000000	0.000000	6.322835	-0.002080	NaN	0.000000	0.001726	0.001711	28.0832	0.005721	0.001856	3.081912	163.929	-166.567	0.045933	0.321229	-0.866410	-0.867701	-0.002080	3.081912	-0.865904	-3.515786E+11	5.916499E-15	NaN
696	1.000000	0.332544	7.37186e+06	-42289.1	1005.82	-29783.1	0.000000	0.000000	6.332857	-0.039058	NaN	0.000000	0.001739	0.001670	28.0832	0.029389	0.001927	15.2546	111.198	13.2416	-0.009828	0.331227	-0.856386	-0.857703	-0.039058	15.2546	-0.854465	-2.461495E+11	1.586766E-13	NaN
696	1.000000	0.342563	7.37186e+06	-42289.1	1005.82	-29783.1	0.000000	0.000000	6.342876	-0.052353	NaN	0.000000	0.001702	0.001698	28.0834	0.078905	0.002070	38.121	174.904	-167.439	-0.040803	0.341228	-0.846367	-0.847702	-0.052353	38.121	-0.845337	-1.851755E+11	2.827223E-13	NaN
696	1.000000	0.352552	7.37186e+06	-42289.1	1005.82	-29783.1	0.000000	0.000000	6.352867	0.006937	NaN	0.000000	0.001696	0.001694	28.083	0.072430	0.002036	35.5671	-78.3849	13.0193	0.049059	0.351246	-0.836378	-0.837684	0.006937	35.5671	-0.836524	-1.406700E+11	-4.931325E-14	NaN
696	1.000000	0.362574	7.37186e+06	-42289.1	1005.82	-29783.1	0.000000	0.000000	6.362888	-0.017486	NaN	0.000000	0.001706	0.001721	28.083	0.105897	0.002052	51.599	55.1913	-164.509	0.065133	0.361253	-0.826356	-0.827677	-0.017486	51.599	-0.826102	-1.016110E+11	1.720830E-13	NaN
696	1.000000	0.372555	7.37186e+06	-42289.1	1005.82	-29783.1	0.000000	0.000000	6.372870	9.384184E-5	NaN	0.000000	0.001679	0.001709	28.0831	0.050489	0.001914	26.3801	-69.8399	13.0645	0.037697	0.371189	-0.816375	-0.817742	9.384184E-5	26.3801	-0.816378	-7.500451E+10	-1.251149E-15	NaN
696	1.000000	0.382593	7.37186e+06	-42289.1	1005.82	-29783.1	0.000000	0.000000	6.382909	0.035267	NaN	0.000000	0.001645	0.001731	28.083	0.056470	0.001905	29.6419	27.4085	-165.902	0.023684	0.381326	-0.806337	-0.807604	0.035267	29.6419	-0.807230	-5.636147E+10	-6.257219E-13	NaN
696	1.000000	0.392554	7.37186e+06	-42289.1	1005.82	-29783.1	0.000000	0.000000	6.392867	-0.018471	NaN	0.000000	0.001616	0.001697	28.0829	0.034753	0.002076	16.7386	-55.2439	10.0697	-0.020380	0.391247	-0.796377	-0.797683	-0.018471	16.7386	-0.795549	-3.912323E+10	4.721286E-13	NaN
696	1.000000	0.402597	7.37186e+06	-42289.1	1005.82	-29783.1	0.000000	0.000000	6.402911	-0.005780	NaN	0.000000	0.001614	0.001743	28.0832	0.104686	0.001911	54.7828	-85.5239	-164.059	-0.008394	0.401288	-0.786333	-0.787642	-0.005780	54.7828	-0.786254	-2.925518E+10	1.975684E-13	NaN
696	1.000000	0.412610	7.37186e+06	-42289.1	1005.82	-29783.1	0.000000	0.000000	6.412925	-0.003765	NaN	0.000000	0.001642	0.001735	28.0832	0.030767	0.001919	16.0338	-157.754	15.0915	-0.035483	0.411252	-0.776320	-0.777679	-0.003765	16.0338	-0.776144	-2.132173E+10	1.765735E-13	NaN
696	1.000000	0.422589	7.37186e+06	-42289.1	1005.82	-29783.1	0.000000	0.000000	6.422905	0.035375	NaN	0.000000	0.001641	0.001655	28.0831	0.038986	0.002054	18.9777	35.9544	-167.476	0.008106	0.421245	-0.766341	-0.767686	0.035375	18.9777	-0.767739	-1.638925E+10	-2.158403E-12	NaN
696	1.000000	0.432590	7.37186e+06	-42289.1	1005.82	-29783.1	0.000000	0.000000	6.432903	-0.046174	NaN	0.000000	0.001640	0.001669	28.0829	0.012704	0.001980	6.416621	-155.797	15.6343	0.004942	0.431231	-0.756340	-0.757700	-0.046174	6.416621	-0.750943	-9.684097E+9	4.768046E-12	NaN
696	1.000000	0.442578	7.37186e+06	-42289.1	1005.82	-29783.1	0.000000	0.000000	6.442892	-0.004460	NaN	0.000000	0.001637	0.001688	28.083	0.042729	0.002071	20.628	-110.999	-168.749	0.010757	0.441295	-0.746352	-0.747635	-0.004460	20.628	-0.746190	-8.343598E+9	5.345236E-13	NaN
696	1.000000	0.452586	7.37186e+06	-42289.1	1005.82	-29783.1	0.000000	0.000000	6.452899	-0.026999	NaN	0.000000	0.001663	0.001707	28.0818	0.060333	0.002113	28.5578	-20.8532	11.9379	-0.013463	0.451274	-0.736344	-0.737656	-0.026999	28.5578	-0.735635	-5.992348E+9	4.505573E-12	NaN
696	1.000000	0.462621	7.37186e+06	-42289.1	1005.82	-29783.1	0.000000	0.000000	6.462937	0.021802	NaN	0.000000	0.001665	0.001681	28.0818	0.024014	0.002037	11.7902	-71.9361	-168.06	-0.027873	0.461287	-0.726309	-0.727643	0.021802	11.7902	-0.727696	-4.670889E+9	-4.667613E-12	NaN
696	1.000000	0.472584	7.37186e+06	-42289.1	1005.82	-29783.1	0.000000	0.000000	6.472900	0.043686	NaN	0.000000	0.001647	0.001689	28.0816	0.108547	0.002091	51.9068	-48.3843	14.9799	0.051946	0.471321	-0.716346	-0.717609	0.043686	51.9068	-0.716977	-3.336163E+9	-1.309464E-11	NaN
696	1.000000	0.482597	7.37186e+06	-42289.1	1005.82	-29783.1	0.000000	0.000000	6.482910	-0.044897	NaN	0.000000	0.001649	0.001660	28.082	0.069989	0.001944	36.0081	77.4888	-168.444	-0.054682	0.481266	-0.706333	-0.707664	-0.044897	36.0081	-0.705398	-2.318648E+9	1.936360E-11	NaN
696	1.000000	0.492623	7.37186e+06	-42289.1	1005.82	-29783.1	0.000000	0.000000	6.492937	-0.014821	NaN	0.000000	0.001609	0.001677	28.0817	0.090035	0.002035	44.2407	-37.2732	16.8656	-0.020098	0.491250	-0.696307	-0.697680	-0.014821	44.2407	-0.696056	-1.728455E+9	8.574558E-12	NaN
696	1.000000	0.502630	7.37186e+06	-42289.1	1005.82	-29783.1	0.000000	0.000000	6.502945	-0.000432	NaN	0.000000	0.001645	0.001766	28.0817	0.052915	0.002065	25.6214	-176.597	-166.5	0.022048	0.501269	-0.686300	-0.687662	-0.000432	25.6214	-0.686287	-1.271085E+9	3.400736E-13	NaN
696	1.000000	0.512633	7.37186e+06	-42289.1	1005.82	-29783.1	0.000000	0.000000	6.512946	-0.056817	NaN	0.000000	0.001623	0.001740	28.0818	0.009698	0.002094	4.631135	136.661	13.7257	0.039295	0.511272	-0.676297	-0.677658	-0.056817	4.631135	-0.667096	-6.944384E+8	8.181660E-11	NaN
696	1.000000	0.522621	7.37186e+06	-42289.1	1005.82	-29783.1	0.000000	0.000000	6.522936	0.015603	NaN	0.000000	0.001613	0.001769	28.082	0.048542	0.002074	23.4016	118.613	-166.919	-0.043902	0.521349	-0.666309	-0.667581	0.015603	23.4016	-0.666809	-6.881929E+8	-2.267171E-11	NaN
696	1.000000	0.532667	7.37186e+06	-42289.1	1005.82	-29783.1	0.000000	0.000000	6.532980	-0.032205	NaN	0.000000	0.001663	0.001774	28.0817	0.057096	0.001977	28.8736	-4.688835	14.0448	0.026275	0.531280	-0.656263	-0.657650	-0.032205	28.8736	-0.655427	-4.806336E+8	6.700468E-11	NaN
696	1.000000	0.542616	7.37186e+06	-42289.1	1005.82	-29783.1	0.000000	0.000000	6.542931	0.010043	NaN	0.000000	0.001636	0.001805	28.0818	0.058719	0.001987	29.555	113.134	-166.496	-0.010621	0.541315	-0.646314	-0.647615	0.010043	29.555	-0.646569	-3.634039E+8	-2.763544E-11	NaN
696	1.000000	0.552643	7.37186e+06	-42289.1	1005.82	-29783.1	0.000000	0.000000	6.552955	-0.067075	NaN	0.000000	0.001670	0.001794	28.082	0.058290	0.002109	27.6418	-142.061	11.0904	-0.045349	0.551325	-0.636287	-0.637605	-0.067075	27.6418	-0.634467	-2.479460E+8	2.705234E-10	NaN
696	1.000000	0.562636	7.37186e+06	-42289.1	1005.82	-29783.1	0.000000	0.000000	6.562949	-0.031145	NaN	0.000000	0.001642	0.001756	28.082	0.064202	0.001977	32.4812	-166.29	-168.145	0.013060	0.561331	-0.626294	-0.627599	-0.031145	32.4812	-0.625575	-1.871728E+8	1.663989E-10	NaN
696	1.000000	0.572671	7.37186e+06	-42289.1	1005.82	-29783.1	0.000000	0.000000	6.572985	-0.012698	NaN	0.000000	0.001656	0.001714	28.0818	0.074068	0.002035	36.4021	66.31	12.6595	0.027783	0.571382	-0.616259	-0.617548	-0.012698	36.4021	-0.615998	-1.382330E+8	9.185643E-11	NaN
696	1.000000	0.582653	7.37186e+06	-42289.1	1005.82	-29783.1	0.000000	0.000000	6.582967	-0.014532	NaN	0.000000	0.001652	0.001717	28.082	0.014879	0.002010	7.404008	74.519	-165.963	0.010714	0.581364	-0.606277	-0.607566	-0.014532	7.404008	-0.604805	-9.696750E+7	1.498650E-10	NaN
696	1.000000	0.592658	7.37186e+06	-42289.1	1005.82	-29783.1	0.000000	0.000000	6.592974	0.041244	NaN	0.000000	0.001688	0.001688	28.0832	0.053617	0.001967	27.2532	135.366	14.1345	-0.064334	0.591298	-0.596272	-0.597632	0.041244	27.2532	-0.597407	-7.669168E+7	-5.377882E-10	NaN
696	1.000000	0.602670	7.37186e+06	-42289.1	1005.82	-29783.1	0.000000	0.000000	6.602983	-0.048753	NaN	0.000000	0.001647	0.001711	28.0829	0.122674	0.002063	59.4623	100.122	-165.606	-0.087731	0.601380	-0.586260	-0.587551	-0.048753	59.4623	-0.585645	-5.279704E+7	9.234110E-10	NaN
696	1.000000	0.612693	7.37186e+06	-42289.1	1005.82	-29783.1	0.000000	0.000000	6.613008	-0.002380	NaN	0.000000	0.001645	0.001674	28.083	0.006104	0.002041	2.990444	-121.939	15.6212	-0.030571	0.611316	-0.576237	-0.577614	-0.002380	2.990444	-0.575640	-3.841784E+7	6.194399E-11	NaN
696	1.000000	0.622673	7.37186e+06	-42289.1	1005.82	-29783.1	0.000000	0.000000	6.622988	0.010035	NaN	0.000000	0.001648	0.001685	28.083	0.075778	0.002034	37.2647	149.302	-161.622	0.010220	0.621328	-0.566257	-0.567602	0.010035	37.2647	-0.566459	-2.868785E+7	-3.498053E-10	NaN
696	1.000000	0.632672	7.37186e+06	-42289.1	1005.82	-29783.1	0.000000	0.000000	6.632986	-0.017933	NaN	0.000000	0.001627	0.001690	28.083	0.128304	0.002104	60.985	48.0673	14.4694	-0.074362	0.631245	-0.556258	-0.557685	-0.017933	60.985	-0.556037	-2.058487E+7	8.711947E-10	NaN
696	1.000000	0.642678	7.37186e+06	-42289.1	1005.82	-29783.1	0.000000	0.000000	6.642992	-0.021085	NaN	0.000000	0.001652	0.001670	28.0829	0.087577	0.001825	47.9947	-61.1007	-162.457	-0.094941	0.641354	-0.546252	-0.547576	-0.021085	47.9947	-0.545923	-1.490970E+7	1.414163E-9	NaN
696	1.000000	0.652670	7.37186e+06	-42289.1	1005.82	-29783.1	0.000000	0.000000	6.652986	0.045758	NaN	0.000000	0.001624	0.001694	28.0832	0.022098	0.002071	10.6713	48.2778	14.8483	0.080323	0.651303	-0.536260	-0.537627	0.045758	10.6713	-0.539476	-1.213649E+7	-3.770306E-9	NaN
696	1.000000	0.662680	7.37186e+06	-42289.1	1005.82	-29783.1	0.000000	0.000000	6.662993	-0.046029	NaN	0.000000	0.001621	0.001676	28.0829	0.046556	0.001961	23.7431	9.971467	-166.865	0.009990	0.661358	-0.526250	-0.527572	-0.046029	23.7431	-0.524796	-7.59062e+06	6.063925E-9	NaN
696	1.000000	0.672689	7.37186e+06	-42289.1	1005.82	-29783.1	0.000000	0.000000	6.673004	0.013120	NaN	0.000000	0.001606	0.001659	28.0834	0.077118	0.002103	36.6679	111.437	15.5035	0.141894	0.671298	-0.516241	-0.517632	0.013120	36.6679	-0.516510	-5.82159e+06	-2.253642E-9	NaN
696	1.000000	0.682681	7.37186e+06	-42289.1	1005.82	-29783.1	0.000000	0.000000	6.682994	-0.036767	NaN	0.000000	0.001608	0.001683	28.0828	0.078268	0.001941	40.3227	-56.0948	-165.896	-0.035590	0.681417	-0.506249	-0.507513	-0.036767	40.3227	-0.505565	-4.09846e+06	8.970823E-9	NaN
696	1.000000	0.692699	7.37186e+06	-42289.1	1005.82	-29783.1	0.000000	0.000000	6.693014	-0.004828	NaN	0.000000	0.001624	0.001693	28.083	0.028828	0.002015	14.3047	86.358	8.429821	0.004398	0.691338	-0.496231	-0.497592	-0.004828	14.3047	-0.495977	-3.01218e+06	1.602960E-9	NaN
696	1.000000	0.702700	7.37186e+06	-42289.1	1005.82	-29783.1	0.000000	0.000000	6.703014	-0.022878	NaN	0.000000	0.001562	0.001724	28.0831	0.043791	0.002028	21.5984	-94.0308	-170.129	0.001463	0.701349	-0.486230	-0.487581	-0.022878	21.5984	-0.485436	-2.14577e+06	1.066174E-8	NaN
696	1.000000	0.712701	7.37186e+06	-42289.1	1005.82	-29783.1	0.000000	0.000000	6.713018	0.070035	NaN	0.000000	0.001636	0.001645	28.0829	0.078028	0.001974	39.5321	-117.81	14.7328	0.037624	0.711353	-0.476229	-0.477577	0.070035	39.5321	-0.477558	-1.6647e+06	-4.207084E-8	NaN
696	1.000000	0.722708	7.37186e+06	-42289.1	1005.82	-29783.1	0.000000	0.000000	6.723023	0.004476	NaN	0.000000	0.001600	0.001729	28.0816	0.033472	0.002054	16.2947	-48.8636	-167.479	-0.034604	0.721410	-0.466222	-0.467520	0.004476	16.2947	-0.466428	-1.16223e+06	-3.850878E-9	NaN
696	1.000000	0.732719	7.37186e+06	-42289.1	1005.82	-29783.1	0.000000	0.000000	6.733035	0.028098	NaN	0.000000	0.001597	0.001716	28.0817	0.052844	0.002038	25.9278	-84.5711	15.0356	-0.032715	0.731300	-0.456211	-0.457630	0.028098	25.9278	-0.457024	-857401	-3.277070E-8	NaN
696	1.000000	0.742734	7.37186e+06	-42289.1	1005.82	-29783.1	0.000000	0.000000	6.743049	0.021198	NaN	0.000000	0.001648	0.001744	28.0819	0.061002	0.001934	31.5469	-146.745	-167.329	0.068871	0.741425	-0.446196	-0.447505	0.021198	31.5469	-0.446700	-613562	-3.454962E-8	NaN
696	1.000000	0.752745	7.37186e+06	-42289.1	1005.82	-29783.1	0.000000	0.000000	6.753058	-0.033357	NaN	0.000000	0.001644	0.001702	28.0817	0.088759	0.001937	45.8228	161.743	14.6654	0.016357	0.751391	-0.436185	-0.437539	-0.033357	45.8228	-0.435639	-428339	7.787495E-8	NaN
696	1.000000	0.762735	7.37186e+06	-42289.1	1005.82	-29783.1	0.000000	0.000000	6.763050	0.005524	NaN	0.000000	0.001677	0.001731	28.0815	0.034041	0.002055	16.5664	161.07	-166.592	-0.010559	0.761437	-0.426195	-0.427493	0.005524	16.5664	-0.426446	-317508	-1.739822E-8	NaN
696	1.000000	0.772734	7.37186e+06	-42289.1	1005.82	-29783.1	0.000000	0.000000	6.773050	0.029197	NaN	0.000000	0.001621	0.001700	28.0816	0.023869	0.002049	11.6499	100.428	13.3295	0.002842	0.771368	-0.416196	-0.417562	0.029197	11.6499	-0.418076	-241612	-1.208436E-7	NaN
696	1.000000	0.782748	7.37186e+06	-42289.1	1005.82	-29783.1	0.000000	0.000000	6.783063	0.010775	NaN	0.000000	0.001632	0.001726	28.0815	0.067119	0.002016	33.2925	-0.098360	-163.154	0.013242	0.781399	-0.406182	-0.407531	0.010775	33.2925	-0.406424	-165017	-6.529645E-8	NaN
696	1.000000	0.792709	7.37186e+06	-42289.1	1005.82	-29783.1	0.000000	0.000000	6.793026	0.057277	NaN	0.000000	0.001653	0.001715	28.0816	0.080787	0.002058	39.2589	-93.3051	13.413	0.007534	0.791439	-0.396221	-0.397491	0.057277	39.2589	-0.397316	-122376	-4.680399E-7	NaN
696	1.000000	0.802758	7.37186e+06	-42289.1	1005.82	-29783.1	0.000000	0.000000	6.803074	0.027498	NaN	0.000000	0.001647	0.001698	28.0815	0.093652	0.001983	47.2288	-56.4391	-163.817	0.049692	0.801389	-0.386172	-0.387541	0.027498	47.2288	-0.386609	-86025.4	-3.196538E-7	NaN
696	1.000000	0.812725	7.37186e+06	-42289.1	1005.82	-29783.1	0.000000	0.000000	6.813042	0.046358	NaN	0.000000	0.001622	0.001695	28.0816	0.076273	0.001957	38.9667	-11.3173	11.6774	-0.018079	0.811375	-0.376205	-0.377555	0.046358	38.9667	-0.377097	-62835.9	-7.377637E-7	NaN
696	1.000000	0.822762	7.37186e+06	-42289.1	1005.82	-29783.1	0.000000	0.000000	6.823077	0.021444	NaN	0.000000	0.001650	0.001659	28.0815	0.074140	0.001842	40.2399	164.172	-168.282	-0.003447	0.821467	-0.366168	-0.367463	0.021444	40.2399	-0.366568	-44327.2	-4.837737E-7	NaN
696	1.000000	0.832774	7.37186e+06	-42289.1	1005.82	-29783.1	0.000000	0.000000	6.833091	0.061060	NaN	0.000000	0.001628	0.001695	28.0815	0.030189	0.001955	15.4439	-103.04	12.4162	0.056772	0.831413	-0.356156	-0.357517	0.061060	15.4439	-0.359121	-34605.3	-1.764458E-6	NaN
696	1.000000	0.842735	7.37186e+06	-42289.1	1005.82	-29783.1	0.000000	0.000000	6.843050	0.006113	NaN	0.000000	0.001650	0.001688	28.0814	0.087994	0.002092	42.0608	-178.912	-168.443	0.087229	0.841490	-0.346195	-0.347440	0.006113	42.0608	-0.346304	-22559.2	-2.709596E-7	NaN
696	1.000000	0.852775	7.37186e+06	-42289.1	1005.82	-29783.1	0.000000	0.000000	6.853088	-0.026276	NaN	0.000000	0.001612	0.001677	28.0818	0.051438	0.001950	26.383	-169.331	14.0156	0.050712	0.851421	-0.336156	-0.337509	-0.026276	26.383	-0.335409	-15651.5	1.678787E-6	NaN
696	1.000000	0.862768	7.37186e+06	-42289.1	1005.82	-29783.1	0.000000	0.000000	6.863085	0.057708	NaN	0.000000	0.001636	0.001693	28.0827	0.018698	0.001976	9.461709	-79.3909	-168.465	-0.008853	0.861451	-0.326162	-0.327479	0.057708	9.461709	-0.330737	-13373.3	-4.315199E-6	NaN
696	1.000000	0.872782	7.37186e+06	-42289.1	1005.82	-29783.1	0.000000	0.000000	6.873094	-0.063828	NaN	0.000000	0.001639	0.001726	28.0825	0.036978	0.002026	18.2517	26.2933	12.6526	-0.107134	0.871435	-0.316148	-0.317495	-0.063828	18.2517	-0.313525	-7467.43	8.547483E-6	NaN
696	1.000000	0.882792	7.37186e+06	-42289.1	1005.82	-29783.1	0.000000	0.000000	6.883108	0.037289	NaN	0.000000	0.001641	0.001703	28.0827	0.100473	0.002137	47.0086	173.392	-167.473	0.027210	0.881517	-0.306138	-0.307413	0.037289	47.0086	-0.306733	-5924.67	-6.293833E-6	NaN
696	1.000000	0.892774	7.37186e+06	-42289.1	1005.82	-29783.1	0.000000	0.000000	6.893088	-0.023418	NaN	0.000000	0.001610	0.001733	28.083	0.130771	0.001937	67.4955	-116.408	11.9865	0.016827	0.891392	-0.296156	-0.297538	-0.023418	67.4955	-0.295896	-4087.57	5.729070E-6	NaN
696	1.000000	0.902806	7.37186e+06	-42289.1	1005.82	-29783.1	0.000000	0.000000	6.903126	0.131179	NaN	0.000000	0.001610	0.001701	28.0828	0.063120	0.002079	30.3667	159.825	-168.673	0.121486	0.901434	-0.286124	-0.287496	0.131179	30.3667	-0.289364	-3264.2	-4.018727E-5	NaN
696	1.000000	0.912794	7.37186e+06	-42289.1	1005.82	-29783.1	0.000000	0.000000	6.913109	0.006437	NaN	0.000000	0.001604	0.001664	28.0828	0.120995	0.002041	59.269	129.321	13.461	0.053062	0.911436	-0.276137	-0.277494	0.006437	59.269	-0.276218	-2069.35	-3.110691E-6	NaN
696	1.000000	0.922785	7.37186e+06	-42289.1	1005.82	-29783.1	0.000000	0.000000	6.923099	-0.004687	NaN	0.000000	0.001626	0.001706	28.0832	0.039091	0.001899	20.5832	-159.899	-168.403	0.036915	0.921469	-0.266145	-0.267461	-0.004687	20.5832	-0.265975	-1446.3	3.240921E-6	NaN
696	1.000000	0.932776	7.37186e+06	-42289.1	1005.82	-29783.1	0.000000	0.000000	6.933089	-0.062557	NaN	0.000000	0.001571	0.001649	28.0828	0.041671	0.001962	21.2435	178.985	11.8408	-0.040272	0.931487	-0.256154	-0.257443	-0.062557	21.2435	-0.253945	-945.951	6.613093E-5	NaN
696	1.000000	0.942804	7.37186e+06	-42289.1	1005.82	-29783.1	0.000000	0.000000	6.943121	0.038560	NaN	0.000000	0.001616	0.001733	28.0826	0.035066	0.002141	16.3786	-51.4477	-163.407	0.017190	0.941517	-0.246126	-0.247413	0.038560	16.3786	-0.247891	-762.645	-5.056057E-5	NaN
696	1.000000	0.952827	7.37186e+06	-42289.1	1005.82	-29783.1	0.000000	0.000000	6.953141	-0.000969	NaN	0.000000	0.001610	0.001677	28.0828	0.066288	0.001990	33.3161	-71.1378	15.7275	0.077584	0.951452	-0.236103	-0.237478	-0.000969	33.3161	-0.236082	-499.141	1.940953E-6	NaN
696	1.000000	0.962820	7.37186e+06	-42289.1	1005.82	-29783.1	0.000000	0.000000	6.963134	-0.025436	NaN	0.000000	0.001611	0.001727	28.0829	0.067809	0.001946	34.8528	50.395	-166.441	-0.067409	0.961519	-0.226110	-0.227411	-0.025436	34.8528	-0.225563	-340.621	7.467458E-5	NaN
696	1.000000	0.972826	7.37186e+06	-42289.1	1005.82	-29783.1	0.000000	0.000000	6.973142	0.016527	NaN	0.000000	0.001617	0.001663	28.0826	0.184703	0.002125	86.9207	45.156	13.0922	-0.029000	0.971472	-0.216104	-0.217458	0.016527	86.9207	-0.216247	-241.851	-6.833438E-5	NaN
696	1.000000	0.982805	7.37186e+06	-42289.1	1005.82	-29783.1	0.000000	0.000000	6.983120	0.000654	NaN	0.000000	0.001645	0.001674	28.0828	0.179087	0.002016	88.837	93.941	-165.139	0.010426	0.981499	-0.206125	-0.207431	0.000654	88.837	-0.206131	-165.952	-3.938411E-6	NaN
696	1.000000	0.992827	7.37186e+06	-42289.1	1005.82	-29783.1	0.000000	0.000000	6.993140	-0.031543	NaN	0.000000	0.001615	0.001692	28.0829	0.098441	0.002217	44.3933	134.977	14.399	0.067637	0.991533	-0.196103	-0.197397	-0.031543	44.3933	-0.195571	-111.34	0.000283	NaN
696	1.000000	1.002820	7.37186e+06	-42289.1	1005.82	-29783.1	0.000000	0.000000	7.003136	0.041937	NaN	0.000000	0.001581	0.001675	28.0818	0.055644	0.002125	26.1802	-167.874	-166.951	0.054809	1.001503	-0.186110	-0.187427	0.041937	26.1802	-0.187312	-81.0984	-0.000517	NaN
696	1.000000	1.012842	7.37186e+06	-42289.1	1005.82	-29783.1	0.000000	0.000000	7.013155	-0.047755	NaN	0.000000	0.001624	0.001674	28.0817	0.024941	0.002034	12.264	167.837	12.9283	-0.064301	1.011432	-0.176088	-0.177499	-0.047755	12.264	-0.173167	-46.6045	0.001025	NaN
696	1.000000	1.022827	7.37186e+06	-42289.1	1005.82	-29783.1	0.000000	0.000000	7.023142	0.003563	NaN	0.000000	0.001615	0.001659	28.0818	0.018900	0.001960	9.643757	164.769	-165.378	-0.107304	1.021475	-0.166103	-0.167455	0.003563	9.643757	-0.166380	-35.5222	-0.000100	NaN
696	1.000000	1.032817	7.37186e+06	-42289.1	1005.82	-29783.1	0.000000	0.000000	7.033133	0.023623	NaN	0.000000	0.001606	0.001669	28.0817	0.049892	0.001971	25.3152	-136.425	12.9914	-0.008461	1.031478	-0.156113	-0.157452	0.023623	25.3152	-0.156813	-24.0505	-0.000982	NaN
696	1.000000	1.042845	7.37186e+06	-42289.1	1005.82	-29783.1	0.000000	0.000000	7.043158	-0.035977	NaN	0.000000	0.001585	0.001659	28.0818	0.029405	0.002078	14.1515	-44.0841	-165.213	-0.035625	1.041513	-0.146085	-0.147417	-0.035977	14.1515	-0.144179	-14.1565	0.002541	NaN
696	1.000000	1.052872	7.37186e+06	-42289.1	1005.82	-29783.1	0.000000	0.000000	7.053184	-0.067914	NaN	0.000000	0.001613	0.001630	28.0818	0.151003	0.001924	78.4773	-104.234	14.8201	0.011118	1.051514	-0.136058	-0.137416	-0.067914	78.4773	-0.135409	-9.684858	0.007012	NaN
696	1.000000	1.062862	7.37186e+06	-42289.1	1005.82	-29783.1	0.000000	0.000000	7.063174	-0.085676	NaN	0.000000	0.001631	0.001669	28.0819	0.102621	0.001994	51.4622	-11.6959	-164.087	0.008106	1.061526	-0.126068	-0.127404	-0.085676	51.4622	-0.124819	-6.031298	0.014205	NaN
696	1.000000	1.072845	7.37186e+06	-42289.1	1005.82	-29783.1	0.000000	0.000000	7.073161	0.021705	NaN	0.000000	0.001592	0.001672	28.0818	0.051253	0.001936	26.4796	-80.8918	15.2376	-0.076410	1.071512	-0.116085	-0.117418	0.021705	26.4796	-0.116700	-4.140135	-0.005243	NaN
696	1.000000	1.082860	7.37186e+06	-42289.1	1005.82	-29783.1	0.000000	0.000000	7.083175	0.000735	NaN	0.000000	0.001635	0.001694	28.0817	0.093914	0.002074	45.2857	-31.2962	-166.922	-0.013785	1.081567	-0.106070	-0.107363	0.000735	45.2857	-0.106082	-2.480193	-0.000296	NaN
696	1.000000	1.092855	7.37186e+06	-42289.1	1005.82	-29783.1	0.000000	0.000000	7.093169	-0.024087	NaN	0.000000	0.001598	0.001703	28.0816	0.023894	0.002012	11.8738	-4.967769	13.0328	0.010105	1.091501	-0.096075	-0.097430	-0.024087	11.8738	-0.094553	-1.377912	0.017481	NaN
696	1.000000	1.102863	7.37186e+06	-42289.1	1005.82	-29783.1	0.000000	0.000000	7.103176	-0.039755	NaN	0.000000	0.001562	0.001662	28.0816	0.101893	0.002021	50.4277	157.446	-164.1	-0.082911	1.101533	-0.086067	-0.087397	-0.039755	50.4277	-0.085476	-0.843667	0.047122	NaN
696	1.000000	1.112875	7.37186e+06	-42289.1	1005.82	-29783.1	0.000000	0.000000	7.113190	0.016137	NaN	0.000000	0.001607	0.001706	28.0817	0.061489	0.002000	30.7515	57.1512	13.2491	-0.013924	1.111469	-0.076055	-0.077461	0.016137	30.7515	-0.076449	-0.503281	-0.032063	NaN
696	1.000000	1.122898	7.37186e+06	-42289.1	1005.82	-29783.1	0.000000	0.000000	7.123213	0.010319	NaN	0.000000	0.001555	0.001713	28.0819	0.041744	0.001946	21.4473	162.667	-166.355	0.046277	1.121615	-0.066032	-0.067315	0.010319	21.4473	-0.066393	-0.272291	-0.037897	NaN
696	1.000000	1.132884	7.37186e+06	-42289.1	1005.82	-29783.1	0.000000	0.000000	7.133197	-0.044660	NaN	0.000000	0.001616	0.001725	28.083	0.092131	0.002017	45.6714	-6.014899	15.3766	-0.091495	1.131505	-0.056046	-0.057425	-0.044660	45.6714	-0.055312	-0.131542	0.339508	NaN
696	1.000000	1.142881	7.37186e+06	-42289.1	1005.82	-29783.1	0.000000	0.000000	7.143193	-0.071560	NaN	0.000000	0.001615	0.001681	28.0833	0.063227	0.002038	31.0237	158.464	-166.509	-0.067781	1.141594	-0.046049	-0.047336	-0.071560	31.0237	-0.044319	-0.061259	1.168152	NaN
696	1.000000	1.152895	7.37186e+06	-42289.1	1005.82	-29783.1	0.000000	0.000000	7.153209	-0.008389	NaN	0.000000	0.001617	0.001641	28.083	0.068869	0.001962	35.0982	-170.256	9.513726	-0.006722	1.151531	-0.036035	-0.037399	-0.008389	35.0982	-0.035856	-0.033945	0.247122	NaN
696	1.000000	1.162905	7.37186e+06	-42289.1	1005.82	-29783.1	0.000000	0.000000	7.163221	0.041059	NaN	0.000000	0.001600	0.001713	28.0832	0.069653	0.002122	32.8173	-92.1184	-166.935	-0.002081	1.161574	-0.026025	-0.027356	0.041059	32.8173	-0.026964	-0.019012	-2.159593	NaN
696	1.000000	1.172878	7.37186e+06	-42289.1	1005.82	-29783.1	0.000000	0.000000	7.173190	-0.059470	NaN	0.000000	0.001555	0.001691	28.0831	0.070833	0.001899	37.2912	29.2285	10.88	-0.017105	1.171558	-0.016052	-0.017372	-0.059470	37.2912	-0.014856	-0.009190	6.471521	NaN
696	1.000000	1.182889	7.37186e+06	-42289.1	1005.82	-29783.1	0.000000	0.000000	7.183201	-0.045154	NaN	0.000000	0.001536	0.001682	28.0834	0.112192	0.001900	59.0363	69.184	-166.336	-0.066515	1.181564	-0.006042	-0.007366	-0.045154	59.0363	-0.005468	-0.003709	12.1753	NaN
696	2.000000	1.192649	7.37186e+06	-42289.1	1005.82	-29783.1	0.000000	0.000000	7.193308	8.382690	NaN	0.000000	0.001540	0.001675	28.0832	6.865661	0.001670	4110.04	5.612228	12.1668	6.198086	1.191535	0.003719	0.002604	8.382690	4110.04	0.002189	0.001708	4907.33	90855.3
696	2.000000	1.195597	7.37186e+06	-42289.1	1005.82	-29783.1	0.000000	0.000000	7.196303	9.514809	NaN	0.000000	0.001558	0.001687	28.0832	9.813529	0.001516	6472.26	6.652933	-177.327	9.321332	1.195278	0.006667	0.006348	9.514809	6472.26	0.005565	0.004655	2044.21	86674.6
696	2.000000	1.198117	7.37186e+06	-42289.1	1005.82	-29783.1	0.000000	0.000000	7.198959	12.8317	NaN	0.000000	0.001562	0.001659	28.0833	11.9314	0.001782	6696.33	7.454571	6.901629	12.7971	1.197749	0.009187	0.008819	12.8317	6696.33	0.007749	0.006786	1890.92	74268.5
696	2.000000	1.200537	7.37186e+06	-42289.1	1005.82	-29783.1	0.000000	0.000000	7.201560	17.235	NaN	0.000000	0.001586	0.001671	28.0833	14.8412	0.001758	8442.62	9.534146	-177.765	17.4911	1.200240	0.011607	0.011309	17.235	8442.62	0.010076	0.009266	1859.97	80130.6
696	2.000000	1.202998	7.37186e+06	-42289.1	1005.82	-29783.1	0.000000	0.000000	7.204187	21.2611	NaN	0.000000	0.001559	0.001699	28.0834	17.547	0.001749	10030.4	8.076240	0.609378	20.3545	1.202673	0.014068	0.013743	21.2611	10030.4	0.012478	0.012068	1761.75	83420
696	2.000000	1.205513	7.37186e+06	-42289.1	1005.82	-29783.1	0.000000	0.000000	7.206832	24.4248	NaN	0.000000	0.001534	0.001672	28.0835	20.1352	0.001897	10615.1	5.847101	-175.911	23.6815	1.205209	0.016583	0.016279	24.4248	10615.1	0.014857	0.015096	1618.01	78935.9
696	2.000000	1.208026	7.37186e+06	-42289.1	1005.82	-29783.1	0.000000	0.000000	7.209557	29.58	NaN	0.000000	0.001544	0.001696	28.0841	21.6905	0.001795	12081.9	4.254542	3.664060	28.6446	1.207751	0.019096	0.018821	29.58	12081.9	0.017260	0.018418	1606	81335.9
696	2.000000	1.210517	7.37186e+06	-42289.1	1005.82	-29783.1	0.000000	0.000000	7.212250	34.5104	NaN	0.000000	0.001557	0.001682	28.0837	23.4673	0.001753	13383.8	6.035455	-178.265	33.4751	1.210141	0.021586	0.021211	34.5104	13383.8	0.019653	0.021999	1568.7	82442.1
696	2.000000	1.213002	7.37186e+06	-42289.1	1005.82	-29783.1	0.000000	0.000000	7.214919	38.9786	NaN	0.000000	0.001549	0.001689	28.0823	26.3579	0.001773	14870.4	7.105563	-0.665922	37.7661	1.212680	0.024072	0.023750	38.9786	14870.4	0.022106	0.025960	1501.47	84322.2
696	2.000000	1.215510	7.37186e+06	-42289.1	1005.82	-29783.1	0.000000	0.000000	7.217673	44.9727	NaN	0.000000	0.001564	0.001690	28.082	29.1122	0.001737	16759.7	10.8112	174.787	45.852	1.215230	0.026580	0.026300	44.9727	16759.7	0.024568	0.030234	1487.49	88062.7
696	2.000000	1.218006	7.37186e+06	-42289.1	1005.82	-29783.1	0.000000	0.000000	7.220509	53.2535	NaN	0.000000	0.001526	0.001691	28.0822	30.681	0.001746	17572.3	6.457852	-0.721369	51.3738	1.217617	0.029076	0.028687	53.2535	17572.3	0.026803	0.034377	1549.11	86590.3
696	2.000000	1.220464	7.37186e+06	-42289.1	1005.82	-29783.1	0.000000	0.000000	7.223066	55.639	NaN	0.000000	0.001554	0.001714	28.082	33.4766	0.001928	17360.6	8.170089	177.378	55.1387	1.220197	0.031534	0.031267	55.639	17360.6	0.029131	0.038961	1428.07	80357
696	2.000000	1.222987	7.37186e+06	-42289.1	1005.82	-29783.1	0.000000	0.000000	7.225881	62.7652	NaN	0.000000	0.001547	0.001714	28.0819	35.9256	0.001822	19720.9	9.429848	-5.504541	62.3782	1.222617	0.034057	0.033687	62.7652	19720.9	0.031670	0.044275	1417.61	85628.7
696	2.000000	1.225509	7.37186e+06	-42289.1	1005.82	-29783.1	0.000000	0.000000	7.228931	75.5941	NaN	0.000000	0.001595	0.001730	28.0821	38.6218	0.001809	21354.2	5.643248	177.37	75.9696	1.225151	0.036579	0.036221	75.5941	21354.2	0.033924	0.049271	1534.25	87894.6
696	2.000000	1.227988	7.37186e+06	-42289.1	1005.82	-29783.1	0.000000	0.000000	7.231612	80.5126	NaN	0.000000	0.001580	0.001689	28.0821	39.857	0.001698	23474.4	3.071159	-1.100690	77.9219	1.227683	0.039058	0.038753	80.5126	23474.4	0.036486	0.055263	1456.91	91233.1
696	2.000000	1.230480	7.37186e+06	-42289.1	1005.82	-29783.1	0.000000	0.000000	7.234316	85.6803	NaN	0.000000	0.001528	0.001730	28.0819	42.6585	0.001871	22796.7	7.236074	176.112	85.0105	1.230088	0.041550	0.041158	85.6803	22796.7	0.038731	0.060791	1409.43	84474.9
696	2.000000	1.232919	7.37186e+06	-42289.1	1005.82	-29783.1	0.000000	0.000000	7.237260	97.9603	NaN	0.000000	0.001531	0.001739	28.0819	44.3808	0.001699	26116.7	2.844552	-1.683996	96.0677	1.232665	0.043989	0.043735	97.9603	26116.7	0.041176	0.067104	1459.84	92112.7
696	2.000000	1.235441	7.37186e+06	-42289.1	1005.82	-29783.1	0.000000	0.000000	7.240126	106.328	NaN	0.000000	0.001602	0.001703	28.0816	48.1747	0.001809	26633.2	2.532658	178.2	105.512	1.235252	0.046511	0.046322	106.328	26633.2	0.043517	0.073432	1447.98	89795.7
696	2.000000	1.237938	7.37186e+06	-42289.1	1005.82	-29783.1	0.000000	0.000000	7.243061	116.998	NaN	0.000000	0.001611	0.001697	28.0819	49.1471	0.001810	27157.8	2.819467	-1.172461	113.364	1.237569	0.049008	0.048639	116.998	27157.8	0.045777	0.079807	1466.01	87830.6
696	2.000000	1.240460	7.37186e+06	-42289.1	1005.82	-29783.1	0.000000	0.000000	7.245825	122.879	NaN	0.000000	0.001578	0.001716	28.0817	52.0545	0.001839	28310.9	2.772569	178.47	125.435	1.240132	0.051530	0.051202	122.879	28310.9	0.048275	0.087156	1409.88	87615.1
696	2.000000	1.242930	7.37186e+06	-42289.1	1005.82	-29783.1	0.000000	0.000000	7.249000	140.019	NaN	0.000000	0.001572	0.001719	28.0821	54.4133	0.001794	30326	9.366101	-9.113862	138.453	1.242567	0.054000	0.053636	140.019	30326	0.050537	0.094081	1488.28	90331
696	2.000000	1.245367	7.37186e+06	-42289.1	1005.82	-29783.1	0.000000	0.000000	7.251996	153.632	NaN	0.000000	0.001604	0.001714	28.0815	57.3165	0.001853	30933.9	3.849671	175.678	148.852	1.245148	0.056437	0.056218	153.632	30933.9	0.052712	0.100979	1521.42	88938.8
696	2.000000	1.247864	7.37186e+06	-42289.1	1005.82	-29783.1	0.000000	0.000000	7.254972	165.299	NaN	0.000000	0.001574	0.001716	28.0834	58.9553	0.001921	30688.2	3.822448	-3.883197	160.144	1.247605	0.058934	0.058675	165.299	30688.2	0.054894	0.108139	1528.58	85261.7
696	2.000000	1.250481	7.37186e+06	-42289.1	1005.82	-29783.1	0.000000	0.000000	7.258150	178.939	NaN	0.000000	0.001583	0.001704	28.0829	60.765	0.001705	35643.1	5.804812	172.577	180.625	1.250100	0.061551	0.061170	178.939	35643.1	0.057785	0.117987	1516.6	94804.9
696	2.000000	1.252955	7.37186e+06	-42289.1	1005.82	-29783.1	0.000000	0.000000	7.261183	192.54	NaN	0.000000	0.001610	0.001703	28.0832	63.424	0.001793	35368.3	3.619894	-4.909034	192.218	1.252625	0.064024	0.063695	192.54	35368.3	0.059942	0.125599	1532.98	91178.8
696	2.000000	1.255427	7.37186e+06	-42289.1	1005.82	-29783.1	0.000000	0.000000	7.263946	199.608	NaN	0.000000	0.001623	0.001676	28.0827	67.1216	0.001809	37102.2	4.863542	172.605	197.724	1.255235	0.066497	0.066304	199.608	37102.2	0.062462	0.134785	1480.94	92332
696	2.000000	1.257947	7.37186e+06	-42289.1	1005.82	-29783.1	0.000000	0.000000	7.267452	223.602	NaN	0.000000	0.001587	0.001669	28.0834	68.8282	0.001672	41164.7	3.891482	-6.655486	219.841	1.257620	0.069017	0.068690	223.602	41164.7	0.064943	0.144128	1551.41	99066
696	2.000000	1.260423	7.37186e+06	-42289.1	1005.82	-29783.1	0.000000	0.000000	7.270498	237.478	NaN	0.000000	0.001611	0.001642	28.0828	72.4705	0.001843	39324.2	6.416750	171.755	237.331	1.259994	0.071493	0.071064	237.478	39324.2	0.066964	0.151956	1562.81	92166.7
696	2.000000	1.262990	7.37186e+06	-42289.1	1005.82	-29783.1	0.000000	0.000000	7.273663	252.026	NaN	0.000000	0.001582	0.001656	28.0832	74.5434	0.001770	42113.7	0.003138	-2.969780	251.606	1.262638	0.074060	0.073707	252.026	42113.7	0.069571	0.162349	1552.37	95493.1
696	2.000000	1.265476	7.37186e+06	-42289.1	1005.82	-29783.1	0.000000	0.000000	7.276751	266.662	NaN	0.000000	0.001556	0.001644	28.0832	77.9918	0.001714	45496.6	6.678466	170.685	269.549	1.265192	0.076546	0.076262	266.662	45496.6	0.072150	0.172945	1541.89	99953.6
696	2.000000	1.267913	7.37186e+06	-42289.1	1005.82	-29783.1	0.000000	0.000000	7.279900	284.003	NaN	0.000000	0.001569	0.001635	28.0832	79.1798	0.001815	43622.3	3.628886	-6.088259	280.916	1.267640	0.078983	0.078710	284.003	43622.3	0.074100	0.181166	1567.64	93636.1
696	2.000000	1.270368	7.37186e+06	-42289.1	1005.82	-29783.1	0.000000	0.000000	7.282875	296.655	NaN	0.000000	0.001520	0.001651	28.0829	81.3787	0.001751	46471	2.537784	173.6	291.982	1.270091	0.081438	0.081161	296.655	46471	0.076650	0.192188	1543.57	96848.3
696	2.000000	1.272861	7.37186e+06	-42289.1	1005.82	-29783.1	0.000000	0.000000	7.285952	310.867	NaN	0.000000	0.001598	0.001626	28.083	83.8376	0.001803	46493	2.008600	-5.809200	306.164	1.272675	0.083931	0.083744	310.867	46493	0.078916	0.202237	1537.14	94456
696	2.000000	1.275412	7.37186e+06	-42289.1	1005.82	-29783.1	0.000000	0.000000	7.289387	332.376	NaN	0.000000	0.001641	0.001675	28.0832	87.4173	0.001833	47689.4	6.082122	170.051	332.857	1.275118	0.086482	0.086188	332.376	47689.4	0.081254	0.212858	1561.49	94438.7
696	2.000000	1.277880	7.37186e+06	-42289.1	1005.82	-29783.1	0.000000	0.000000	7.292661	351.987	NaN	0.000000	0.001656	0.001666	28.083	89.573	0.001933	46332.6	7.619325	-10.7193	345.807	1.277498	0.088950	0.088568	351.987	46332.6	0.083252	0.222134	1584.57	89815.9
696	2.000000	1.280317	7.37186e+06	-42289.1	1005.82	-29783.1	0.000000	0.000000	7.295996	373.829	NaN	0.000000	0.001612	0.001661	28.0819	92.0881	0.001889	48751.7	6.523499	169.31	369.015	1.280027	0.091387	0.091097	373.829	48751.7	0.085636	0.233444	1601.36	92187.4
696	2.000000	1.282843	7.37186e+06	-42289.1	1005.82	-29783.1	0.000000	0.000000	7.299629	400.769	NaN	0.000000	0.001575	0.001619	28.082	92.1236	0.001677	54937.5	1.534510	-6.013748	395.373	1.282464	0.093913	0.093534	400.769	54937.5	0.088441	0.247092	1621.95	100975
696	2.000000	1.285465	7.37186e+06	-42289.1	1005.82	-29783.1	0.000000	0.000000	7.302797	414.053	NaN	0.000000	0.001575	0.001652	28.0822	98.2366	0.001872	52478.8	9.413539	166.4	417.128	1.285103	0.096535	0.096173	414.053	52478.8	0.090618	0.257928	1605.3	94407.8
696	2.000000	1.287850	7.37186e+06	-42289.1	1005.82	-29783.1	0.000000	0.000000	7.306011	434.218	NaN	0.000000	0.001665	0.001683	28.0818	98.0685	0.001815	54031.9	4.143745	-8.027263	426.146	1.287536	0.098920	0.098606	434.218	54031.9	0.092893	0.269488	1611.27	95094.2
696	2.000000	1.290390	7.37186e+06	-42289.1	1005.82	-29783.1	0.000000	0.000000	7.309285	452.084	NaN	0.000000	0.001679	0.001667	28.0819	100.064	0.001834	54564.6	1.841471	173.966	450.677	1.290000	0.101460	0.101070	452.084	54564.6	0.095246	0.281689	1604.9	93928.8
696	2.000000	1.291346	7.37186e+06	-42289.1	1005.82	-29783.1	0.000000	0.000000	7.310863	467.215	NaN	0.000000	0.001676	0.001655	28.0818	101.952	0.001875	54382.7	3.451311	172.508	462.886	1.290981	0.102416	0.102051	467.215	54382.7	0.095972	0.285510	1636.42	92987.2