File: remote_trans/data/nanoindenter/0828-1/data/Data_2025-08-06,11h17m57s/2025-07-22_16-23-58_1_590.txt
2025-07-22, 16:23:58, 1
Index	Phase	Displacement	Time	Pos X	Pos Y	Pos Z	Rot A	Rot B	Piezo Z	Force A	Force B	Gripper	Voltage A	Voltage B	Temperature	Amplitude force	Amplitude pos	Stiffness	Phase shift	Phase excitation	Force A raw	Displacement raw	HMax	HMax raw	Real Force	Real Stiffness	Contact Depth	Area	Hardness	Reduced Mod.
[#]	[#]	[um]	[s]	[um]	[um]	[um]	[m°]	[m°]	[um]	[uN]	[uN]	[V]	[V]	[V]	[°C]	[uN]	[um]	[N/m]	[°]	[°]	[uN]	[um]	[um]	[um]	[uN]	[N/m]	[um]	[um^2]	[MPa]	[MPa]
590	1.000000	0.003193	7.37082e+06	-47589.1	1005.82	-29765.4	0.000000	0.000000	6.002850	0.006913	NaN	0.000000	0.001603	0.001789	28.0805	0.040379	0.001141	35.3993	116.554	-167.091	0.057753	0.001888	-1.115519	-1.116825	0.006913	35.3993	-1.115665	-8.134162E+14	-8.499126E-18	NaN
590	1.000000	0.013190	7.37082e+06	-47589.1	1005.82	-29765.4	0.000000	0.000000	6.012847	0.004506	NaN	0.000000	0.001622	0.001803	28.0804	0.071141	0.001255	56.7004	149.896	21.5718	0.037623	0.011743	-1.105522	-1.106969	0.004506	56.7004	-1.105582	-5.956554E+14	-7.565504E-18	NaN
590	1.000000	0.023098	7.37082e+06	-47589.1	1005.82	-29765.4	0.000000	0.000000	6.022753	-0.041026	NaN	0.000000	0.001619	0.001770	28.0802	0.038418	0.001695	22.6619	-13.2451	-165.599	-0.077728	0.021774	-1.095614	-1.096938	-0.041026	22.6619	-1.094256	-4.197161E+14	9.774723E-17	NaN
590	1.000000	0.033107	7.37082e+06	-47589.1	1005.82	-29765.4	0.000000	0.000000	6.032762	-0.041207	NaN	0.000000	0.001628	0.001763	28.0803	0.047341	0.001895	24.9847	-153.353	13.4791	-0.080327	0.031746	-1.085605	-1.086966	-0.041207	24.9847	-1.084368	-3.091628E+14	1.332860E-16	NaN
590	1.000000	0.043117	7.37082e+06	-47589.1	1005.82	-29765.4	0.000000	0.000000	6.042773	-0.003282	NaN	0.000000	0.001632	0.001795	28.0802	0.055677	0.002104	26.4602	14.3429	-162.761	0.032536	0.041803	-1.075595	-1.076909	-0.003282	26.4602	-1.075502	-2.350201E+14	1.396266E-17	NaN
590	1.000000	0.053072	7.37082e+06	-47589.1	1005.82	-29765.4	0.000000	0.000000	6.052729	0.012649	NaN	0.000000	0.001660	0.001820	28.0797	0.021913	0.001951	11.2335	171.056	17.9753	-0.007767	0.051740	-1.065640	-1.066972	0.012649	11.2335	-1.066485	-1.778113E+14	-7.113587E-17	NaN
590	1.000000	0.063094	7.37082e+06	-47589.1	1005.82	-29765.4	0.000000	0.000000	6.062754	0.076284	NaN	0.000000	0.001640	0.001756	28.0798	0.053049	0.001943	27.3057	139.308	-163.755	0.044493	0.061798	-1.055618	-1.056915	0.076284	27.3057	-1.057713	-1.355467E+14	-5.627849E-16	NaN
590	1.000000	0.073127	7.37082e+06	-47589.1	1005.82	-29765.4	0.000000	0.000000	6.072781	-0.053221	NaN	0.000000	0.001630	0.001732	28.08	0.113107	0.002021	55.9541	131.728	18.3124	-0.058268	0.071777	-1.045585	-1.046935	-0.053221	55.9541	-1.044872	-9.109068E+13	5.842633E-16	NaN
590	1.000000	0.083120	7.37082e+06	-47589.1	1005.82	-29765.4	0.000000	0.000000	6.082770	-0.144853	NaN	0.000000	0.001636	0.001806	28.0799	0.027871	0.001911	14.5828	-43.0042	-167.015	-0.059759	0.081783	-1.035592	-1.036929	-0.144853	14.5828	-1.028143	-5.426206E+13	2.669506E-15	NaN
590	1.000000	0.093128	7.37082e+06	-47589.1	1005.82	-29765.4	0.000000	0.000000	6.092786	0.025486	NaN	0.000000	0.001635	0.001800	28.0797	0.011793	0.002069	5.698713	-47.5042	16.8607	-0.027008	0.091789	-1.025584	-1.026923	0.025486	5.698713	-1.028938	-5.561583E+13	-4.582566E-16	NaN
590	1.000000	0.103096	7.37082e+06	-47589.1	1005.82	-29765.4	0.000000	0.000000	6.102753	0.007754	NaN	0.000000	0.001671	0.001813	28.0797	0.064805	0.002030	31.9308	-41.2036	-164.731	0.004632	0.101796	-1.015616	-1.016916	0.007754	31.9308	-1.015798	-3.701757E+13	-2.094733E-16	NaN
590	1.000000	0.113118	7.37082e+06	-47589.1	1005.82	-29765.4	0.000000	0.000000	6.112774	-0.013073	NaN	0.000000	0.001617	0.001811	28.0798	0.165797	0.002133	77.7295	-157.491	14.7992	-0.003528	0.111798	-1.005594	-1.006914	-0.013073	77.7295	-1.005468	-2.687685E+13	4.864196E-16	NaN
590	1.000000	0.123102	7.37082e+06	-47589.1	1005.82	-29765.4	0.000000	0.000000	6.122758	-0.014387	NaN	0.000000	0.001604	0.001812	28.08	0.019864	0.001987	9.999028	157.46	-162.192	-0.012926	0.121777	-0.995610	-0.996935	-0.014387	9.999028	-0.994531	-1.914815E+13	7.513427E-16	NaN
590	1.000000	0.133106	7.37082e+06	-47589.1	1005.82	-29765.4	0.000000	0.000000	6.132764	0.036348	NaN	0.000000	0.001613	0.001829	28.0799	0.109076	0.002008	54.32	56.7313	14.7342	0.058690	0.131743	-0.985606	-0.986969	0.036348	54.32	-0.986108	-1.474653E+13	-2.464831E-15	NaN
590	1.000000	0.143117	7.37082e+06	-47589.1	1005.82	-29765.4	0.000000	0.000000	6.142774	0.011366	NaN	0.000000	0.001623	0.001773	28.0786	0.082789	0.001884	43.948	44.097	-167.33	-0.014135	0.141787	-0.975595	-0.976925	0.011366	43.948	-0.975789	-1.070712E+13	-1.061566E-15	NaN
590	1.000000	0.153120	7.37082e+06	-47589.1	1005.82	-29765.4	0.000000	0.000000	6.152775	-0.037307	NaN	0.000000	0.001618	0.001820	28.0787	0.099807	0.001943	51.3717	116.652	13.848	-0.030461	0.151803	-0.965592	-0.966909	-0.037307	51.3717	-0.965048	-7.672080E+12	4.862668E-15	NaN
590	1.000000	0.163147	7.37082e+06	-47589.1	1005.82	-29765.4	0.000000	0.000000	6.162803	-0.011775	NaN	0.000000	0.001637	0.001830	28.0785	0.030538	0.001836	16.6364	-177.965	-165.923	-0.003042	0.161799	-0.955565	-0.956913	-0.011775	16.6364	-0.955034	-5.622365E+12	2.094362E-15	NaN
590	1.000000	0.173149	7.37082e+06	-47589.1	1005.82	-29765.4	0.000000	0.000000	6.172809	0.076526	NaN	0.000000	0.001610	0.001844	28.0786	0.072530	0.001874	38.7019	120.017	12.8444	0.040321	0.171821	-0.945563	-0.946891	0.076526	38.7019	-0.947046	-4.387219E+12	-1.744287E-14	NaN
590	1.000000	0.183161	7.37082e+06	-47589.1	1005.82	-29765.4	0.000000	0.000000	6.182817	-0.011534	NaN	0.000000	0.001633	0.001790	28.0788	0.093621	0.001977	47.3442	129.523	-165.455	-0.122377	0.181831	-0.935551	-0.936881	-0.011534	47.3442	-0.935368	-3.052414E+12	3.778786E-15	NaN
590	1.000000	0.193138	7.37082e+06	-47589.1	1005.82	-29765.4	0.000000	0.000000	6.192795	-0.000933	NaN	0.000000	0.001628	0.001782	28.0785	0.051348	0.001938	26.4953	-125.225	16.6672	-0.041857	0.191820	-0.925574	-0.926892	-0.000933	26.4953	-0.925548	-2.249574E+12	4.145288E-16	NaN
590	1.000000	0.203157	7.37082e+06	-47589.1	1005.82	-29765.4	0.000000	0.000000	6.202814	0.017418	NaN	0.000000	0.001623	0.001781	28.0786	0.065982	0.002004	32.9255	-104.333	-167.346	0.111974	0.201833	-0.915556	-0.916879	0.017418	32.9255	-0.915952	-1.669366E+12	-1.043410E-14	NaN
590	1.000000	0.213165	7.37082e+06	-47589.1	1005.82	-29765.4	0.000000	0.000000	6.212822	0.000446	NaN	0.000000	0.001635	0.001771	28.0784	0.063481	0.001999	31.7609	-28.6005	17.3299	-0.045284	0.211760	-0.905547	-0.906952	0.000446	31.7609	-0.905557	-1.208227E+12	-3.689129E-16	NaN
590	1.000000	0.223150	7.37082e+06	-47589.1	1005.82	-29765.4	0.000000	0.000000	6.222805	-0.025644	NaN	0.000000	0.001648	0.001775	28.0787	0.109111	0.001922	56.7669	134.827	-165.631	0.039200	0.221862	-0.895562	-0.896851	-0.025644	56.7669	-0.895223	-8.760286E+11	2.927296E-14	NaN
590	1.000000	0.233177	7.37082e+06	-47589.1	1005.82	-29765.4	0.000000	0.000000	6.232833	-0.020582	NaN	0.000000	0.001609	0.001775	28.0786	0.053690	0.002004	26.7976	-110.359	16.0099	-0.002681	0.231790	-0.885535	-0.886922	-0.020582	26.7976	-0.884959	-6.364538E+11	3.233815E-14	NaN
590	1.000000	0.243151	7.37082e+06	-47589.1	1005.82	-29765.4	0.000000	0.000000	6.242808	0.016819	NaN	0.000000	0.001586	0.001811	28.0785	0.090917	0.002137	42.5537	-6.716457	-163.649	0.050782	0.241855	-0.875561	-0.876857	0.016819	42.5537	-0.875858	-4.793838E+11	-3.508365E-14	NaN
590	1.000000	0.253167	7.37082e+06	-47589.1	1005.82	-29765.4	0.000000	0.000000	6.252825	0.033606	NaN	0.000000	0.001609	0.001766	28.0787	0.053816	0.001938	27.7715	27.903	17.7387	0.092052	0.251830	-0.865545	-0.866882	0.033606	27.7715	-0.866453	-3.576446E+11	-9.396591E-14	NaN
590	1.000000	0.263185	7.37082e+06	-47589.1	1005.82	-29765.4	0.000000	0.000000	6.262841	-0.011192	NaN	0.000000	0.001589	0.001785	28.0788	0.078995	0.001995	39.5878	40.204	-164.771	-0.027243	0.261835	-0.855527	-0.856877	-0.011192	39.5878	-0.855315	-2.527586E+11	4.427959E-14	NaN
590	1.000000	0.273204	7.37082e+06	-47589.1	1005.82	-29765.4	0.000000	0.000000	6.272859	-0.033150	NaN	0.000000	0.001581	0.001802	28.0787	0.084084	0.001881	44.7019	104.429	14.9765	0.020642	0.271827	-0.845508	-0.846885	-0.033150	44.7019	-0.844952	-1.829669E+11	1.811778E-13	NaN
590	1.000000	0.283206	7.37082e+06	-47589.1	1005.82	-29765.4	0.000000	0.000000	6.282861	-0.044038	NaN	0.000000	0.001539	0.001813	28.0795	0.037446	0.001936	19.3457	113.027	-167.894	0.030491	0.281844	-0.835506	-0.836868	-0.044038	19.3457	-0.833799	-1.292014E+11	3.408485E-13	NaN
590	1.000000	0.293190	7.37082e+06	-47589.1	1005.82	-29765.4	0.000000	0.000000	6.292847	0.006429	NaN	0.000000	0.001587	0.001811	28.0799	0.015539	0.002019	7.694863	160.936	15.0816	-0.025934	0.291814	-0.825522	-0.826898	0.006429	7.694863	-0.826148	-1.017595E+11	-6.317570E-14	NaN
590	1.000000	0.303189	7.37082e+06	-47589.1	1005.82	-29765.4	0.000000	0.000000	6.302845	0.000877	NaN	0.000000	0.001547	0.001794	28.0798	0.123727	0.002104	58.812	76.7696	-167.643	-0.083617	0.301834	-0.815523	-0.816878	0.000877	58.812	-0.815535	-7.305520E+10	-1.200599E-14	NaN
590	1.000000	0.313191	7.37082e+06	-47589.1	1005.82	-29765.4	0.000000	0.000000	6.312847	-0.020451	NaN	0.000000	0.001516	0.001808	28.0799	0.073018	0.001852	39.4281	70.7955	12.2681	-0.028947	0.311897	-0.805521	-0.806815	-0.020451	39.4281	-0.805132	-5.278591E+10	3.874267E-13	NaN
590	1.000000	0.323190	7.37082e+06	-47589.1	1005.82	-29765.4	0.000000	0.000000	6.322849	0.053460	NaN	0.000000	0.001538	0.001770	28.0798	0.110114	0.002048	53.7773	82.7144	-164.197	0.004607	0.321902	-0.795522	-0.796810	0.053460	53.7773	-0.796268	-4.001235E+10	-1.336086E-12	NaN
590	1.000000	0.333218	7.37082e+06	-47589.1	1005.82	-29765.4	0.000000	0.000000	6.332872	-0.056127	NaN	0.000000	0.001529	0.001819	28.08	0.071540	0.002054	34.8314	32.196	11.2325	-0.112012	0.331822	-0.785494	-0.786890	-0.056127	34.8314	-0.784285	-2.750806E+10	2.040385E-12	NaN
590	1.000000	0.343233	7.37082e+06	-47589.1	1005.82	-29765.4	0.000000	0.000000	6.342893	0.072342	NaN	0.000000	0.001578	0.001777	28.0797	0.127615	0.001984	64.3304	-19.5705	-165.628	0.070046	0.341905	-0.775479	-0.776807	0.072342	64.3304	-0.776323	-2.144143E+10	-3.373919E-12	NaN
590	1.000000	0.353201	7.37082e+06	-47589.1	1005.82	-29765.4	0.000000	0.000000	6.352856	-0.036204	NaN	0.000000	0.001514	0.001805	28.0798	0.023964	0.002054	11.6695	-120.324	15.1497	-0.025396	0.351862	-0.765511	-0.766850	-0.036204	11.6695	-0.763184	-1.421075E+10	2.547669E-12	NaN
590	1.000000	0.363234	7.37082e+06	-47589.1	1005.82	-29765.4	0.000000	0.000000	6.362889	-0.042989	NaN	0.000000	0.001556	0.001731	28.0797	0.081702	0.001900	42.998	-66.1124	-166.044	0.007779	0.361910	-0.755478	-0.756802	-0.042989	42.998	-0.754728	-1.090360E+10	3.942632E-12	NaN
590	1.000000	0.373222	7.37082e+06	-47589.1	1005.82	-29765.4	0.000000	0.000000	6.372878	-0.028012	NaN	0.000000	0.001560	0.001768	28.0798	0.016296	0.002053	7.936975	174.91	14.2505	0.066169	0.371854	-0.745490	-0.746858	-0.028012	7.936975	-0.742843	-7.512305E+9	3.728864E-12	NaN
590	1.000000	0.383241	7.37082e+06	-47589.1	1005.82	-29765.4	0.000000	0.000000	6.382897	-0.024498	NaN	0.000000	0.001581	0.001748	28.0799	0.119069	0.002003	59.4312	-134.944	-170.331	0.008802	0.381909	-0.735471	-0.736803	-0.024498	59.4312	-0.735162	-5.903994E+9	4.149410E-12	NaN
590	1.000000	0.393267	7.37082e+06	-47589.1	1005.82	-29765.4	0.000000	0.000000	6.392922	-0.053785	NaN	0.000000	0.001581	0.001761	28.0801	0.116631	0.002099	55.5699	80.2065	15.1915	-0.003186	0.391888	-0.725445	-0.726824	-0.053785	55.5699	-0.724719	-4.254201E+9	1.264289E-11	NaN
590	1.000000	0.403242	7.37082e+06	-47589.1	1005.82	-29765.4	0.000000	0.000000	6.402898	-0.014896	NaN	0.000000	0.001562	0.001800	28.0799	0.061162	0.002027	30.1762	5.539667	-165.704	-0.034387	0.401926	-0.715470	-0.716786	-0.014896	30.1762	-0.715100	-3.145065E+9	4.736434E-12	NaN
590	1.000000	0.413259	7.37082e+06	-47589.1	1005.82	-29765.4	0.000000	0.000000	6.412916	0.015777	NaN	0.000000	0.001532	0.001777	28.0787	0.062381	0.002080	29.9973	145.494	17.0476	-0.003046	0.411852	-0.705453	-0.706860	0.015777	29.9973	-0.705848	-2.351650E+9	-6.708758E-12	NaN
590	1.000000	0.423239	7.37082e+06	-47589.1	1005.82	-29765.4	0.000000	0.000000	6.422894	-0.033704	NaN	0.000000	0.001557	0.001767	28.0785	0.026403	0.002091	12.6255	-105.156	-165.404	0.071711	0.421926	-0.695473	-0.696786	-0.033704	12.6255	-0.693471	-1.593478E+9	2.115109E-11	NaN
590	1.000000	0.433234	7.37082e+06	-47589.1	1005.82	-29765.4	0.000000	0.000000	6.432890	-0.012277	NaN	0.000000	0.001522	0.001756	28.0788	0.077134	0.002090	36.9074	163.742	15.8416	0.034091	0.431854	-0.685478	-0.686859	-0.012277	36.9074	-0.685229	-1.229419E+9	9.985943E-12	NaN
590	1.000000	0.443269	7.37082e+06	-47589.1	1005.82	-29765.4	0.000000	0.000000	6.442926	0.001646	NaN	0.000000	0.001514	0.001759	28.0785	0.056256	0.001881	29.9018	-90.3243	-167.04	-0.038355	0.441982	-0.675443	-0.676730	0.001646	29.9018	-0.675484	-9.045595E+8	-1.819525E-12	NaN
590	1.000000	0.453232	7.37082e+06	-47589.1	1005.82	-29765.4	0.000000	0.000000	6.452890	0.039473	NaN	0.000000	0.001546	0.001737	28.0788	0.058522	0.002038	28.713	-18.3294	11.512	-0.000134	0.451856	-0.665480	-0.666856	0.039473	28.713	-0.666511	-6.817648E+8	-5.789862E-11	NaN
590	1.000000	0.463259	7.37082e+06	-47589.1	1005.82	-29765.4	0.000000	0.000000	6.462921	0.119889	NaN	0.000000	0.001554	0.001751	28.0786	0.060910	0.001939	31.4093	94.8791	-162.188	0.040960	0.461970	-0.655453	-0.656742	0.119889	31.4093	-0.658316	-5.264955E+8	-2.277121E-10	NaN
590	1.000000	0.473275	7.37082e+06	-47589.1	1005.82	-29765.4	0.000000	0.000000	6.472934	0.063292	NaN	0.000000	0.001556	0.001774	28.0788	0.056944	0.002060	27.6461	176.036	14.9255	0.195227	0.471867	-0.645437	-0.646845	0.063292	27.6461	-0.647154	-3.701837E+8	-1.709736E-10	NaN
590	1.000000	0.483291	7.37082e+06	-47589.1	1005.82	-29765.4	0.000000	0.000000	6.482947	-0.005122	NaN	0.000000	0.001611	0.001786	28.0785	0.016123	0.001975	8.165718	-2.848629	-165.543	-0.080628	0.481992	-0.635422	-0.636720	-0.005122	8.165718	-0.634951	-2.517680E+8	2.034285E-11	NaN
590	1.000000	0.493276	7.37082e+06	-47589.1	1005.82	-29765.4	0.000000	0.000000	6.492933	0.001703	NaN	0.000000	0.001619	0.001802	28.0785	0.033528	0.001964	17.0749	-69.0447	13.3668	-0.013399	0.491881	-0.625436	-0.626831	0.001703	17.0749	-0.625511	-1.867930E+8	-9.117060E-12	NaN
590	1.000000	0.503285	7.37082e+06	-47589.1	1005.82	-29765.4	0.000000	0.000000	6.502942	0.004588	NaN	0.000000	0.001608	0.001755	28.0786	0.045640	0.001954	23.3581	164.656	-165.227	-0.027610	0.501952	-0.615427	-0.616761	0.004588	23.3581	-0.615574	-1.363909E+8	-3.364207E-11	NaN
590	1.000000	0.513297	7.37082e+06	-47589.1	1005.82	-29765.4	0.000000	0.000000	6.512951	-0.059868	NaN	0.000000	0.001609	0.001795	28.0787	0.130540	0.002076	62.8746	-143.297	16.1272	0.064195	0.511924	-0.605416	-0.606788	-0.059868	62.8746	-0.604701	-9.664838E+7	6.194401E-10	NaN
590	1.000000	0.523276	7.37082e+06	-47589.1	1005.82	-29765.4	0.000000	0.000000	6.522934	0.038717	NaN	0.000000	0.001605	0.001760	28.0784	0.044759	0.002096	21.358	-58.017	-165.599	0.047013	0.521990	-0.595436	-0.596722	0.038717	21.358	-0.596796	-7.521806E+7	-5.147342E-10	NaN
590	1.000000	0.533290	7.37082e+06	-47589.1	1005.82	-29765.4	0.000000	0.000000	6.532948	0.036613	NaN	0.000000	0.001597	0.001750	28.0786	0.151688	0.002032	74.6437	-85.9722	15.2029	0.069493	0.531955	-0.585422	-0.586757	0.036613	74.6437	-0.585790	-5.304098E+7	-6.902822E-10	NaN
590	1.000000	0.543282	7.37082e+06	-47589.1	1005.82	-29765.4	0.000000	0.000000	6.542939	0.017553	NaN	0.000000	0.001622	0.001760	28.0789	0.096651	0.001953	49.4863	-55.7631	-163.661	-0.012889	0.541996	-0.575430	-0.576716	0.017553	49.4863	-0.575696	-3.848717E+7	-4.560692E-10	NaN
590	1.000000	0.553320	7.37082e+06	-47589.1	1005.82	-29765.4	0.000000	0.000000	6.552978	0.017232	NaN	0.000000	0.001549	0.001786	28.0798	0.067130	0.002114	31.7501	-57.5183	13.8034	-0.059950	0.551931	-0.565392	-0.566781	0.017232	31.7501	-0.565799	-2.809128E+7	-6.134165E-10	NaN
590	1.000000	0.563339	7.37082e+06	-47589.1	1005.82	-29765.4	0.000000	0.000000	6.562997	0.020234	NaN	0.000000	0.001577	0.001817	28.0796	0.078464	0.002045	38.367	80.435	-165.194	0.035362	0.561999	-0.555373	-0.556713	0.020234	38.367	-0.555768	-2.040898E+7	-9.914094E-10	NaN
590	1.000000	0.573311	7.37082e+06	-47589.1	1005.82	-29765.4	0.000000	0.000000	6.572965	-0.052983	NaN	0.000000	0.001568	0.001765	28.0799	0.080339	0.001919	41.8704	-127.958	18.0634	0.021309	0.571936	-0.545401	-0.546776	-0.052983	41.8704	-0.544452	-1.422624E+7	3.724347E-9	NaN
590	1.000000	0.583321	7.37082e+06	-47589.1	1005.82	-29765.4	0.000000	0.000000	6.582975	-0.074452	NaN	0.000000	0.001555	0.001778	28.08	0.102027	0.001889	54.006	-29.2884	-164.87	-0.080600	0.581972	-0.535391	-0.536740	-0.074452	54.006	-0.534357	-1.030542E+7	7.224507E-9	NaN
590	1.000000	0.593276	7.37082e+06	-47589.1	1005.82	-29765.4	0.000000	0.000000	6.592934	0.031165	NaN	0.000000	0.001581	0.001762	28.0797	0.084122	0.002061	40.8093	-92.2787	13.8225	0.026352	0.591996	-0.525437	-0.526716	0.031165	40.8093	-0.526009	-7.8911e+06	-3.949336E-9	NaN
590	1.000000	0.603325	7.37082e+06	-47589.1	1005.82	-29765.4	0.000000	0.000000	6.602982	0.001455	NaN	0.000000	0.001601	0.001755	28.0798	0.022477	0.001922	11.6973	-122.051	-165.092	0.060950	0.602021	-0.515387	-0.516691	0.001455	11.6973	-0.515480	-5.6327e+06	-2.582272E-10	NaN
590	1.000000	0.613326	7.37082e+06	-47589.1	1005.82	-29765.4	0.000000	0.000000	6.612985	0.073364	NaN	0.000000	0.001583	0.001811	28.0798	0.027879	0.002041	13.6583	106.539	15.3013	0.076321	0.611956	-0.505386	-0.506756	0.073364	13.6583	-0.509415	-4.63731e+06	-1.582027E-8	NaN
590	1.000000	0.623345	7.37082e+06	-47589.1	1005.82	-29765.4	0.000000	0.000000	6.623001	-0.009043	NaN	0.000000	0.001589	0.001760	28.0798	0.070809	0.002139	33.0989	-99.5171	-165.569	-0.104416	0.621996	-0.495367	-0.496716	-0.009043	33.0989	-0.495162	-2.93427e+06	3.081704E-9	NaN
590	1.000000	0.633325	7.37082e+06	-47589.1	1005.82	-29765.4	0.000000	0.000000	6.632978	-0.084791	NaN	0.000000	0.001596	0.001735	28.0796	0.062109	0.002037	30.4928	18.4837	13.4055	-0.063824	0.631984	-0.485387	-0.486728	-0.084791	30.4928	-0.483302	-2.00324e+06	4.232718E-8	NaN
590	1.000000	0.643368	7.37082e+06	-47589.1	1005.82	-29765.4	0.000000	0.000000	6.643023	-0.040083	NaN	0.000000	0.001614	0.001741	28.0799	0.038587	0.002000	19.2934	112.168	-168.244	-0.090894	0.642000	-0.475344	-0.476712	-0.040083	19.2934	-0.473786	-1.47398e+06	2.719357E-8	NaN
590	1.000000	0.653343	7.37082e+06	-47589.1	1005.82	-29765.4	0.000000	0.000000	6.652995	-0.105328	NaN	0.000000	0.001594	0.001751	28.0801	0.044351	0.002021	21.943	153.416	13.0807	-0.050456	0.651983	-0.465369	-0.466729	-0.105328	21.943	-0.461769	-999712	1.053587E-7	NaN
590	1.000000	0.663323	7.37082e+06	-47589.1	1005.82	-29765.4	0.000000	0.000000	6.662979	-0.019525	NaN	0.000000	0.001674	0.001740	28.0798	0.108521	0.002026	53.5528	6.585867	-163.388	-0.042498	0.662060	-0.455389	-0.456652	-0.019525	53.5528	-0.455115	-806008	2.422384E-8	NaN
590	1.000000	0.673345	7.37082e+06	-47589.1	1005.82	-29765.4	0.000000	0.000000	6.672999	-0.084718	NaN	0.000000	0.001642	0.001749	28.0798	0.005915	0.002012	2.939191	-85.3203	17.586	-0.071305	0.671958	-0.445367	-0.446754	-0.084718	2.939191	-0.423749	-290777	2.913499E-7	NaN
590	1.000000	0.683353	7.37082e+06	-47589.1	1005.82	-29765.4	0.000000	0.000000	6.683008	-0.038047	NaN	0.000000	0.001656	0.001769	28.0801	0.049806	0.001925	25.8718	-133.993	-166.225	-0.029788	0.682041	-0.435359	-0.436671	-0.038047	25.8718	-0.434256	-409490	9.291394E-8	NaN
590	1.000000	0.693366	7.37082e+06	-47589.1	1005.82	-29765.4	0.000000	0.000000	6.693021	-0.024764	NaN	0.000000	0.001633	0.001751	28.0786	0.027798	0.002092	13.2856	14.5415	15.6069	-0.012256	0.691965	-0.425347	-0.426747	-0.024764	13.2856	-0.423949	-292677	8.461050E-8	NaN
590	1.000000	0.703363	7.37082e+06	-47589.1	1005.82	-29765.4	0.000000	0.000000	6.703021	0.034412	NaN	0.000000	0.001649	0.001739	28.0789	0.062506	0.001903	32.8402	-113.949	-165.111	0.043169	0.702032	-0.415349	-0.416680	0.034412	32.8402	-0.416135	-226765	-1.517518E-7	NaN
590	1.000000	0.713386	7.37082e+06	-47589.1	1005.82	-29765.4	0.000000	0.000000	6.713044	0.020329	NaN	0.000000	0.001626	0.001750	28.0788	0.037643	0.002065	18.2332	-83.1449	15.233	0.042476	0.712048	-0.405326	-0.406664	0.020329	18.2332	-0.406162	-163603	-1.242584E-7	NaN
590	1.000000	0.723372	7.37082e+06	-47589.1	1005.82	-29765.4	0.000000	0.000000	6.723029	0.010809	NaN	0.000000	0.001662	0.001781	28.0788	0.060363	0.001996	30.2435	-53.3552	-162.985	0.048625	0.722047	-0.395341	-0.396665	0.010809	30.2435	-0.395609	-115698	-9.342821E-8	NaN
590	1.000000	0.733373	7.37082e+06	-47589.1	1005.82	-29765.4	0.000000	0.000000	6.733028	-0.038229	NaN	0.000000	0.001631	0.001751	28.0787	0.016610	0.002133	7.788559	-83.8553	13.6128	0.071878	0.732018	-0.385339	-0.386694	-0.038229	7.788559	-0.381658	-73059.4	5.232648E-7	NaN
590	1.000000	0.743396	7.37082e+06	-47589.1	1005.82	-29765.4	0.000000	0.000000	6.743049	-0.087808	NaN	0.000000	0.001596	0.001757	28.0787	0.061592	0.001984	31.0377	-126.788	-162.535	-0.023954	0.742064	-0.375316	-0.376648	-0.087808	31.0377	-0.373194	-55220.5	1.590128E-6	NaN
590	1.000000	0.753365	7.37082e+06	-47589.1	1005.82	-29765.4	0.000000	0.000000	6.753023	0.030806	NaN	0.000000	0.001555	0.001739	28.0787	0.111525	0.001931	57.7672	87.2722	17.2524	0.041302	0.752014	-0.365347	-0.366698	0.030806	57.7672	-0.365747	-43135.5	-7.141756E-7	NaN
590	1.000000	0.763401	7.37082e+06	-47589.1	1005.82	-29765.4	0.000000	0.000000	6.763058	5.489527E-5	NaN	0.000000	0.001535	0.001793	28.0787	0.062280	0.001992	31.2594	-177.797	-164.019	-0.000303	0.762113	-0.355311	-0.356600	5.489527E-5	31.2594	-0.355312	-30480.3	-1.801006E-9	NaN
590	1.000000	0.773381	7.37082e+06	-47589.1	1005.82	-29765.4	0.000000	0.000000	6.773035	-0.073098	NaN	0.000000	0.001542	0.001785	28.0786	0.143383	0.001917	74.8056	106.175	18.6363	-0.025447	0.772039	-0.345331	-0.346673	-0.073098	74.8056	-0.344598	-21306.6	3.430757E-6	NaN
590	1.000000	0.783411	7.37082e+06	-47589.1	1005.82	-29765.4	0.000000	0.000000	6.783069	0.028945	NaN	0.000000	0.001564	0.001771	28.0786	0.074712	0.002021	36.9604	168.622	-163.289	-0.053677	0.782105	-0.335301	-0.336607	0.028945	36.9604	-0.335889	-15906.2	-1.819727E-6	NaN
590	1.000000	0.793412	7.37082e+06	-47589.1	1005.82	-29765.4	0.000000	0.000000	6.793069	0.022497	NaN	0.000000	0.001575	0.001758	28.0789	0.091884	0.002071	44.36	-164.605	14.6663	0.028157	0.792030	-0.325300	-0.326682	0.022497	44.36	-0.325681	-11275.3	-1.995274E-6	NaN
590	1.000000	0.803405	7.37082e+06	-47589.1	1005.82	-29765.4	0.000000	0.000000	6.803058	-0.074972	NaN	0.000000	0.001520	0.001763	28.0787	0.050123	0.002002	25.0354	101.18	-167.683	-0.020915	0.802057	-0.315307	-0.316655	-0.074972	25.0354	-0.313061	-7350.57	1.019954E-5	NaN
590	1.000000	0.813384	7.37082e+06	-47589.1	1005.82	-29765.4	0.000000	0.000000	6.813039	-0.039646	NaN	0.000000	0.001537	0.001786	28.0787	0.098804	0.001948	50.7324	31.8012	16.6427	-0.038197	0.812074	-0.305329	-0.306639	-0.039646	50.7324	-0.304742	-5535.18	7.162639E-6	NaN
590	1.000000	0.823427	7.37082e+06	-47589.1	1005.82	-29765.4	0.000000	0.000000	6.823084	0.005239	NaN	0.000000	0.001552	0.001788	28.0802	0.038376	0.001858	20.6511	157.252	-165.927	-0.078158	0.822073	-0.295285	-0.296639	0.005239	20.6511	-0.295475	-4028.84	-1.300293E-6	NaN
590	1.000000	0.833427	7.37082e+06	-47589.1	1005.82	-29765.4	0.000000	0.000000	6.833081	-0.055722	NaN	0.000000	0.001554	0.001786	28.0802	0.039804	0.002062	19.3037	144.889	14.8033	-0.004266	0.832065	-0.285285	-0.286647	-0.055722	19.3037	-0.283120	-2630.21	2.118552E-5	NaN
590	1.000000	0.843439	7.37082e+06	-47589.1	1005.82	-29765.4	0.000000	0.000000	6.843095	-0.015904	NaN	0.000000	0.001562	0.001793	28.0799	0.066865	0.001974	33.8725	7.323055	-165.915	-0.011205	0.842064	-0.275273	-0.276648	-0.015904	33.8725	-0.274921	-1977.91	8.040572E-6	NaN
590	1.000000	0.853401	7.37082e+06	-47589.1	1005.82	-29765.4	0.000000	0.000000	6.853059	0.037541	NaN	0.000000	0.001539	0.001783	28.0802	0.084651	0.001902	44.5156	56.882	15.8048	-0.035292	0.852082	-0.265311	-0.266630	0.037541	44.5156	-0.265944	-1444.73	-2.598473E-5	NaN
590	1.000000	0.863444	7.37082e+06	-47589.1	1005.82	-29765.4	0.000000	0.000000	6.863100	-0.011455	NaN	0.000000	0.001505	0.001724	28.0802	0.045617	0.001850	24.6583	-60.7735	-163.571	0.037594	0.862119	-0.255268	-0.256593	-0.011455	24.6583	-0.254920	-979.216	1.169807E-5	NaN
590	1.000000	0.873445	7.37082e+06	-47589.1	1005.82	-29765.4	0.000000	0.000000	6.873101	-0.014111	NaN	0.000000	0.001557	0.001745	28.0801	0.063951	0.001907	33.5428	-10.2703	17.0313	0.027788	0.872107	-0.245267	-0.246606	-0.014111	33.5428	-0.244952	-686.593	2.055263E-5	NaN
590	1.000000	0.883430	7.37082e+06	-47589.1	1005.82	-29765.4	0.000000	0.000000	6.883088	0.040149	NaN	0.000000	0.001610	0.001743	28.08	0.069477	0.001957	35.5051	15.0693	-163.046	0.029562	0.882113	-0.235282	-0.236599	0.040149	35.5051	-0.236130	-500.022	-8.029403E-5	NaN
590	1.000000	0.893431	7.37082e+06	-47589.1	1005.82	-29765.4	0.000000	0.000000	6.893090	0.066857	NaN	0.000000	0.001615	0.001688	28.0801	0.030681	0.001921	15.9735	86.2226	15.4378	0.037471	0.892071	-0.225281	-0.226641	0.066857	15.9735	-0.228420	-378.049	-0.000177	NaN
590	1.000000	0.903447	7.37082e+06	-47589.1	1005.82	-29765.4	0.000000	0.000000	6.903104	0.017271	NaN	0.000000	0.001549	0.001700	28.0802	0.101758	0.002068	49.2043	161.288	-162.601	-0.007768	0.902137	-0.215265	-0.216576	0.017271	49.2043	-0.215528	-235.511	-7.333324E-5	NaN
590	1.000000	0.913458	7.37082e+06	-47589.1	1005.82	-29765.4	0.000000	0.000000	6.913116	0.036077	NaN	0.000000	0.001605	0.001704	28.0801	0.056027	0.001984	28.2392	-29.4442	16.5881	0.039051	0.912080	-0.205254	-0.206632	0.036077	28.2392	-0.206212	-166.46	-0.000217	NaN
590	1.000000	0.923474	7.37082e+06	-47589.1	1005.82	-29765.4	0.000000	0.000000	6.923130	-0.020212	NaN	0.000000	0.001612	0.001715	28.08	0.179921	0.001927	93.3602	-99.2167	-161.851	-0.044180	0.922143	-0.195238	-0.196569	-0.020212	93.3602	-0.195075	-109.258	0.000185	NaN
590	1.000000	0.933452	7.37082e+06	-47589.1	1005.82	-29765.4	0.000000	0.000000	6.933109	0.000349	NaN	0.000000	0.001644	0.001733	28.0802	0.105571	0.002036	51.8587	35.4127	19.0704	0.028927	0.932096	-0.185260	-0.186616	0.000349	51.8587	-0.185265	-74.9191	-4.652768E-6	NaN
590	1.000000	0.943447	7.37082e+06	-47589.1	1005.82	-29765.4	0.000000	0.000000	6.943106	0.045269	NaN	0.000000	0.001663	0.001732	28.08	0.059349	0.002042	29.0633	150.11	-163.728	0.047646	0.942168	-0.175265	-0.176545	0.045269	29.0633	-0.176433	-53.0358	-0.000854	NaN
590	1.000000	0.953456	7.37082e+06	-47589.1	1005.82	-29765.4	0.000000	0.000000	6.953117	0.089789	NaN	0.000000	0.001634	0.001757	28.0803	0.095446	0.001811	52.7145	161.415	15.313	0.161868	0.952062	-0.165256	-0.166650	0.089789	52.7145	-0.166533	-35.7423	-0.002512	NaN
590	1.000000	0.963478	7.37082e+06	-47589.1	1005.82	-29765.4	0.000000	0.000000	6.963134	-0.013180	NaN	0.000000	0.001607	0.001710	28.0789	0.111033	0.002006	55.3544	4.854155	-164.736	0.038376	0.962147	-0.155234	-0.156565	-0.013180	55.3544	-0.155055	-22.3654	0.000589	NaN
590	1.000000	0.973453	7.37082e+06	-47589.1	1005.82	-29765.4	0.000000	0.000000	6.973112	0.035927	NaN	0.000000	0.001663	0.001729	28.0793	0.074402	0.001961	37.9343	153.717	11.9489	-0.056584	0.972104	-0.145259	-0.146608	0.035927	37.9343	-0.145969	-15.2781	-0.002351	NaN
590	1.000000	0.983467	7.37082e+06	-47589.1	1005.82	-29765.4	0.000000	0.000000	6.983125	0.036605	NaN	0.000000	0.001629	0.001697	28.0788	0.083266	0.001990	41.85	28.6287	-161.511	0.023448	0.982166	-0.135245	-0.136546	0.036605	41.85	-0.135901	-9.896313	-0.003699	NaN
590	1.000000	0.993497	7.37082e+06	-47589.1	1005.82	-29765.4	0.000000	0.000000	6.993154	0.013284	NaN	0.000000	0.001669	0.001704	28.0791	0.022780	0.001930	11.8061	-80.4733	15.5236	0.082076	0.992146	-0.125215	-0.126566	0.013284	11.8061	-0.126059	-6.381222	-0.002082	NaN
590	1.000000	1.003474	7.37082e+06	-47589.1	1005.82	-29765.4	0.000000	0.000000	7.003130	-0.023902	NaN	0.000000	0.001622	0.001687	28.079	0.095019	0.002176	43.6676	33.2212	-165.942	0.003489	1.002164	-0.115238	-0.116548	-0.023902	43.6676	-0.114828	-3.789207	0.006308	NaN
590	1.000000	1.013470	7.37082e+06	-47589.1	1005.82	-29765.4	0.000000	0.000000	7.013126	-0.001134	NaN	0.000000	0.001611	0.001707	28.079	0.006703	0.002007	3.340091	8.702255	16.0378	0.002303	1.012109	-0.105242	-0.106603	-0.001134	3.340091	-0.104988	-2.349134	0.000483	NaN
590	1.000000	1.023511	7.37082e+06	-47589.1	1005.82	-29765.4	0.000000	0.000000	7.023169	0.030160	NaN	0.000000	0.001640	0.001709	28.0789	0.110629	0.002116	52.2885	100.284	-165.117	0.008569	1.022209	-0.095201	-0.096503	0.030160	52.2885	-0.095634	-1.458246	-0.020683	NaN
590	1.000000	1.033486	7.37082e+06	-47589.1	1005.82	-29765.4	0.000000	0.000000	7.033144	0.030523	NaN	0.000000	0.001625	0.001731	28.0791	0.032524	0.002078	15.654	-35.7583	14.659	-0.021847	1.032140	-0.085226	-0.086572	0.030523	15.654	-0.086689	-0.902264	-0.033829	NaN
590	1.000000	1.043499	7.37082e+06	-47589.1	1005.82	-29765.4	0.000000	0.000000	7.043157	0.026544	NaN	0.000000	0.001653	0.001720	28.0792	0.055005	0.002042	26.9326	-163.258	-164.504	-0.041250	1.042172	-0.075213	-0.076540	0.026544	26.9326	-0.075953	-0.488744	-0.054311	NaN
590	1.000000	1.053503	7.37082e+06	-47589.1	1005.82	-29765.4	0.000000	0.000000	7.053162	0.052764	NaN	0.000000	0.001679	0.001704	28.0789	0.097365	0.001936	50.2884	-68.9286	16.529	-0.054169	1.052148	-0.065209	-0.066564	0.052764	50.2884	-0.065996	-0.265529	-0.198712	NaN
590	1.000000	1.063541	7.37082e+06	-47589.1	1005.82	-29765.4	0.000000	0.000000	7.063198	0.002978	NaN	0.000000	0.001651	0.001739	28.0788	0.022558	0.001797	12.5554	-10.9347	-165.338	0.012434	1.062238	-0.055171	-0.056474	0.002978	12.5554	-0.055349	-0.131868	-0.022587	NaN
590	1.000000	1.073488	7.37082e+06	-47589.1	1005.82	-29765.4	0.000000	0.000000	7.073147	0.057106	NaN	0.000000	0.001572	0.001750	28.0791	0.046721	0.001897	24.6223	-84.2862	16.2817	0.028388	1.072176	-0.045224	-0.046536	0.057106	24.6223	-0.046964	-0.073788	-0.773920	NaN
590	1.000000	1.083500	7.37082e+06	-47589.1	1005.82	-29765.4	0.000000	0.000000	7.083158	0.013522	NaN	0.000000	0.001583	0.001728	28.0789	0.034151	0.002036	16.7766	-172.269	-163.344	0.020736	1.082228	-0.035212	-0.036484	0.013522	16.7766	-0.035816	-0.033854	-0.399433	NaN
590	1.000000	1.093537	7.37082e+06	-47589.1	1005.82	-29765.4	0.000000	0.000000	7.093192	-0.024918	NaN	0.000000	0.001611	0.001710	28.0792	0.058522	0.001988	29.4441	127.923	13.7517	-0.047648	1.092128	-0.025176	-0.026584	-0.024918	29.4441	-0.024541	-0.016412	1.518291	NaN
590	1.000000	1.103540	7.37082e+06	-47589.1	1005.82	-29765.4	0.000000	0.000000	7.103194	-0.053365	NaN	0.000000	0.001589	0.001752	28.08	0.115553	0.001888	61.1977	134.558	-162.127	0.005762	1.102189	-0.015172	-0.016523	-0.053365	61.1977	-0.014518	-0.008989	5.937047	NaN
590	1.000000	1.113547	7.37082e+06	-47589.1	1005.82	-29765.4	0.000000	0.000000	7.113202	-0.036828	NaN	0.000000	0.001592	0.001719	28.0803	0.071060	0.001873	37.9292	140.646	13.8154	-0.009755	1.112161	-0.005165	-0.006551	-0.036828	37.9292	-0.004437	-0.003060	12.0352	NaN
590	1.000000	1.123473	7.37082e+06	-47589.1	1005.82	-29765.4	0.000000	0.000000	7.123398	6.523495	NaN	0.000000	0.001587	0.001747	28.0801	7.275475	0.001835	3965.21	11.2197	-172.049	4.731217	1.122212	0.004761	0.003500	6.523495	3965.21	0.003527	0.002829	2306.3	68117.2
590	2.000000	1.127577	7.37082e+06	-47589.1	1005.82	-29765.4	0.000000	0.000000	7.127746	12.4751	NaN	0.000000	0.001584	0.001744	28.0802	11.1678	0.001671	6683.38	4.464456	9.477144	11.8251	1.127216	0.008865	0.008504	12.4751	6683.38	0.007465	0.006497	1920	75752.8
590	2.000000	1.130034	7.37082e+06	-47589.1	1005.82	-29765.4	0.000000	0.000000	7.130424	17.8445	NaN	0.000000	0.001580	0.001725	28.08	13.4734	0.001586	8495.66	4.414490	-172.001	17.849	1.129652	0.011322	0.010940	17.8445	8495.66	0.009747	0.008901	2004.68	82270
590	2.000000	1.132483	7.37082e+06	-47589.1	1005.82	-29765.4	0.000000	0.000000	7.133048	22.087	NaN	0.000000	0.001585	0.001738	28.0804	17.2203	0.001818	9470.9	7.813158	2.991211	21.1244	1.132160	0.013771	0.013448	22.087	9470.9	0.012022	0.011516	1917.94	80633.2
590	2.000000	1.135000	7.37082e+06	-47589.1	1005.82	-29765.4	0.000000	0.000000	7.135764	26.9178	NaN	0.000000	0.001592	0.001722	28.0802	19.587	0.001801	10876.2	7.132250	-176.88	26.3177	1.134713	0.016288	0.016001	26.9178	10876.2	0.014432	0.014536	1851.84	82420.2
590	2.000000	1.137530	7.37082e+06	-47589.1	1005.82	-29765.4	0.000000	0.000000	7.138602	34.4321	NaN	0.000000	0.001588	0.001700	28.0804	21.4751	0.001764	12177.3	4.036548	4.844840	33.2589	1.137211	0.018818	0.018499	34.4321	12177.3	0.016697	0.017616	1954.64	83825.3
590	2.000000	1.139998	7.37082e+06	-47589.1	1005.82	-29765.4	0.000000	0.000000	7.141361	41.4934	NaN	0.000000	0.001622	0.001712	28.0802	23.3718	0.001656	14116.6	1.891338	-175.076	39.6781	1.139678	0.021286	0.020966	41.4934	14116.6	0.019081	0.021119	1964.7	88748.5
590	2.000000	1.142454	7.37082e+06	-47589.1	1005.82	-29765.4	0.000000	0.000000	7.144034	46.7899	NaN	0.000000	0.001571	0.001716	28.0804	26.7073	0.001836	14546.9	4.082330	2.141608	43.9232	1.142167	0.023742	0.023455	46.7899	14546.9	0.021329	0.024674	1896.29	84609.9
590	2.000000	1.145007	7.37082e+06	-47589.1	1005.82	-29765.4	0.000000	0.000000	7.146928	55.0726	NaN	0.000000	0.001557	0.001719	28.0799	29.6702	0.001813	16365.5	7.731934	178.713	54.434	1.144603	0.026295	0.025891	55.0726	16365.5	0.023771	0.028817	1911.08	88079.6
590	2.000000	1.147470	7.37082e+06	-47589.1	1005.82	-29765.4	0.000000	0.000000	7.149776	64.4435	NaN	0.000000	0.001545	0.001698	28.0801	31.6324	0.001904	16611.5	6.966678	-0.170745	62.2595	1.147096	0.028758	0.028384	64.4435	16611.5	0.025848	0.032577	1978.18	84086.2
590	2.000000	1.149980	7.37082e+06	-47589.1	1005.82	-29765.4	0.000000	0.000000	7.152625	72.6831	NaN	0.000000	0.001559	0.001693	28.0799	32.6325	0.001667	19573.6	4.545449	179.458	71.6167	1.149638	0.031268	0.030926	72.6831	19573.6	0.028483	0.037657	1930.12	92155.3
590	2.000000	1.152431	7.37082e+06	-47589.1	1005.82	-29765.4	0.000000	0.000000	7.155270	77.3954	NaN	0.000000	0.001550	0.001716	28.0786	37.1249	0.001864	19914.8	6.386321	-2.288370	75.2111	1.152180	0.033719	0.033468	77.3954	19914.8	0.030804	0.042427	1824.19	88333.7
590	2.000000	1.154918	7.37082e+06	-47589.1	1005.82	-29765.4	0.000000	0.000000	7.158194	88.0326	NaN	0.000000	0.001511	0.001734	28.0787	38.7026	0.001734	22318.6	3.835644	178.923	86.5072	1.154642	0.036206	0.035929	88.0326	22318.6	0.033247	0.047744	1843.86	93321.6
590	2.000000	1.157468	7.37082e+06	-47589.1	1005.82	-29765.4	0.000000	0.000000	7.161052	95.518	NaN	0.000000	0.001582	0.001730	28.0789	41.7734	0.001812	23049.9	5.584080	-3.010918	92.954	1.157138	0.038756	0.038426	95.518	23049.9	0.035648	0.053265	1793.27	91247.5
590	2.000000	1.159962	7.37082e+06	-47589.1	1005.82	-29765.4	0.000000	0.000000	7.164029	107.265	NaN	0.000000	0.001580	0.001697	28.0789	44.6876	0.001939	23046.6	6.699048	176.51	107.745	1.159659	0.041250	0.040947	107.265	23046.6	0.037760	0.058367	1837.78	87156.1
590	2.000000	1.162424	7.37082e+06	-47589.1	1005.82	-29765.4	0.000000	0.000000	7.166843	115.82	NaN	0.000000	0.001585	0.001703	28.0786	44.7359	0.001728	25887.5	-0.662905	2.110869	112.191	1.162162	0.043712	0.043450	115.82	25887.5	0.040357	0.064954	1783.11	92802.5
590	2.000000	1.164922	7.37082e+06	-47589.1	1005.82	-29765.4	0.000000	0.000000	7.169846	128.134	NaN	0.000000	0.001609	0.001715	28.0787	48.8707	0.001798	27184.3	4.390349	176.748	126.41	1.164634	0.046210	0.045922	128.134	27184.3	0.042674	0.071123	1801.59	93129.6
590	2.000000	1.167432	7.37082e+06	-47589.1	1005.82	-29765.4	0.000000	0.000000	7.173000	143.779	NaN	0.000000	0.001569	0.001751	28.0788	50.5888	0.001797	28147.9	4.600898	-3.449743	140.657	1.167013	0.048720	0.048301	143.779	28147.9	0.044889	0.077272	1860.7	92514.5
590	2.000000	1.169840	7.37082e+06	-47589.1	1005.82	-29765.4	0.000000	0.000000	7.176087	160.299	NaN	0.000000	0.001584	0.001729	28.0789	52.5473	0.001790	29351.6	3.238557	177.728	154.9	1.169522	0.051128	0.050810	160.299	29351.6	0.047032	0.083460	1920.67	92825.1
590	2.000000	1.172356	7.37082e+06	-47589.1	1005.82	-29765.4	0.000000	0.000000	7.179031	170.702	NaN	0.000000	0.001594	0.001721	28.0786	55.4105	0.001822	30404	1.657184	-1.539179	165.424	1.172041	0.053644	0.053329	170.702	30404	0.049433	0.090669	1882.7	92251.8
590	2.000000	1.174917	7.37082e+06	-47589.1	1005.82	-29765.4	0.000000	0.000000	7.182160	184.522	NaN	0.000000	0.001617	0.001742	28.0787	57.0713	0.001641	34784.3	3.163066	176.579	183.732	1.174602	0.056205	0.055890	184.522	34784.3	0.052227	0.099419	1855.99	100791
590	2.000000	1.177438	7.37082e+06	-47589.1	1005.82	-29765.4	0.000000	0.000000	7.185143	195.76	NaN	0.000000	0.001543	0.001738	28.0797	59.3628	0.001770	33544.7	2.740026	-2.701666	193.194	1.177103	0.058726	0.058391	195.76	33544.7	0.054349	0.106329	1841.08	93987.9
590	2.000000	1.179924	7.37082e+06	-47589.1	1005.82	-29765.4	0.000000	0.000000	7.188125	207.813	NaN	0.000000	0.001568	0.001720	28.0786	61.6114	0.001830	33673.4	1.550514	178.42	205.772	1.179594	0.061212	0.060882	207.813	33673.4	0.056584	0.113844	1825.41	91181.1
590	2.000000	1.182357	7.37082e+06	-47589.1	1005.82	-29765.4	0.000000	0.000000	7.191316	226.28	NaN	0.000000	0.001550	0.001736	28.0787	64.7342	0.001805	35871.9	3.487415	-4.534369	222.315	1.182083	0.063644	0.063371	226.28	35871.9	0.058913	0.121941	1855.65	93853.9
590	2.000000	1.184878	7.37083e+06	-47589.1	1005.82	-29765.4	0.000000	0.000000	7.194392	239.764	NaN	0.000000	0.001553	0.001753	28.0786	67.5048	0.001814	37222.2	4.198038	174.08	236.967	1.184653	0.066166	0.065941	239.764	37222.2	0.061335	0.130638	1835.33	94089.2
590	2.000000	1.187394	7.37083e+06	-47589.1	1005.82	-29765.4	0.000000	0.000000	7.197748	260.202	NaN	0.000000	0.001538	0.001686	28.0802	69.615	0.001715	40586.8	7.640314	-8.943590	257.796	1.186925	0.068682	0.068213	260.202	40586.8	0.063873	0.140063	1857.75	99082.2
590	2.000000	1.189897	7.37083e+06	-47589.1	1005.82	-29765.4	0.000000	0.000000	7.201008	278.606	NaN	0.000000	0.001581	0.001672	28.0799	72.2774	0.001819	39736.9	6.918372	171.252	276.633	1.189557	0.071185	0.070845	278.606	39736.9	0.065926	0.147912	1883.59	94398.5
590	2.000000	1.192373	7.37083e+06	-47589.1	1005.82	-29765.4	0.000000	0.000000	7.204108	293.792	NaN	0.000000	0.001583	0.001735	28.08	73.5258	0.001798	40883.1	2.659132	-4.689470	289.671	1.192052	0.073661	0.073339	293.792	40883.1	0.068271	0.157126	1869.78	94230.7
590	2.000000	1.194884	7.37083e+06	-47589.1	1005.82	-29765.4	0.000000	0.000000	7.207210	308.163	NaN	0.000000	0.001550	0.001710	28.0802	76.2455	0.001835	41543.2	1.597261	176.635	307.087	1.194690	0.076171	0.075978	308.163	41543.2	0.070608	0.166570	1850.05	92998.2
590	2.000000	1.197402	7.37083e+06	-47589.1	1005.82	-29765.4	0.000000	0.000000	7.210540	327.887	NaN	0.000000	0.001564	0.001746	28.0801	78.1852	0.001881	41576.5	3.426457	-5.191642	325.422	1.197035	0.078690	0.078323	327.887	41576.5	0.072776	0.175562	1867.65	90658
590	2.000000	1.199905	7.37083e+06	-47589.1	1005.82	-29765.4	0.000000	0.000000	7.214015	351.546	NaN	0.000000	0.001575	0.001717	28.0801	79.5193	0.001730	45957.5	2.432746	175.551	350.633	1.199498	0.081193	0.080785	351.546	45957.5	0.075456	0.186989	1880.03	97100.5
590	2.000000	1.202308	7.37083e+06	-47589.1	1005.82	-29765.4	0.000000	0.000000	7.216690	358.148	NaN	0.000000	0.001578	0.001716	28.0799	82.2745	0.001783	46149.6	1.103458	-3.858749	351.85	1.202123	0.083596	0.083411	358.148	46149.6	0.077776	0.197149	1816.63	94960.6
590	2.000000	1.204899	7.37083e+06	-47589.1	1005.82	-29765.4	0.000000	0.000000	7.219902	373.267	NaN	0.000000	0.001575	0.001738	28.0803	86.393	0.001856	46535.9	4.416586	172.415	371.215	1.204654	0.086187	0.085942	373.267	46535.9	0.080171	0.207906	1795.37	93245.7
590	2.000000	1.207455	7.37083e+06	-47589.1	1005.82	-29765.4	0.000000	0.000000	7.223444	397.254	NaN	0.000000	0.001570	0.001678	28.08	88.3221	0.001826	48377.7	5.224709	-8.754427	398.019	1.207083	0.088743	0.088371	397.254	48377.7	0.082585	0.219014	1813.82	94445.6
590	2.000000	1.209989	7.37083e+06	-47589.1	1005.82	-29765.4	0.000000	0.000000	7.226767	416.446	NaN	0.000000	0.001602	0.001704	28.0803	88.6726	0.001741	50946.2	0.729855	175.893	420.759	1.209584	0.091277	0.090872	416.446	50946.2	0.085146	0.231099	1802.02	96824.6
590	2.000000	1.212333	7.37083e+06	-47589.1	1005.82	-29765.4	0.000000	0.000000	7.229961	437.116	NaN	0.000000	0.001592	0.001720	28.0799	92.6139	0.001806	51283.5	4.273233	-8.512069	433.909	1.212098	0.093621	0.093386	437.116	51283.5	0.087229	0.241148	1812.65	95413.4
590	2.000000	1.214874	7.37083e+06	-47589.1	1005.82	-29765.4	0.000000	0.000000	7.233459	460.38	NaN	0.000000	0.001604	0.001734	28.0804	95.713	0.001718	55700.7	5.781133	169.85	459.741	1.214500	0.096162	0.095788	460.38	55700.7	0.089963	0.254646	1807.92	100848
590	2.000000	1.217432	7.37083e+06	-47589.1	1005.82	-29765.4	0.000000	0.000000	7.236625	475.167	NaN	0.000000	0.001595	0.001742	28.0799	96.404	0.001725	55894.3	4.792608	-9.291498	474.515	1.217006	0.098720	0.098294	475.167	55894.3	0.092344	0.266679	1781.8	98888.6
590	2.000000	1.219814	7.37083e+06	-47589.1	1005.82	-29765.4	0.000000	0.000000	7.239867	496.1	NaN	0.000000	0.001563	0.001753	28.0795	98.3091	0.001872	52528.1	4.002236	171.957	492.693	1.219504	0.101102	0.100792	496.1	52528.1	0.094018	0.275292	1802.09	91467.8
590	2.000000	1.222410	7.37083e+06	-47589.1	1005.82	-29765.4	0.000000	0.000000	7.243130	512.34	NaN	0.000000	0.001525	0.001673	28.0789	102.641	0.001814	56571.6	8.420248	-13.2406	511.264	1.222109	0.103697	0.103397	512.34	56571.6	0.096905	0.290448	1763.96	95904
590	2.000000	1.223811	7.37083e+06	-47589.1	1005.82	-29765.4	0.000000	0.000000	7.245531	536.639	NaN	0.000000	0.001583	0.001702	28.0785	102.033	0.001776	57460.3	5.046541	170.693	531.508	1.223385	0.105099	0.104673	536.639	57460.3	0.098095	0.296804	1808.06	96362.1