File: remote_trans/data/nanoindenter/0828-1/data/Data_2025-08-06,11h17m57s/2025-07-22_16-23-58_1_524.txt
2025-07-22, 16:23:58, 1
Index	Phase	Displacement	Time	Pos X	Pos Y	Pos Z	Rot A	Rot B	Piezo Z	Force A	Force B	Gripper	Voltage A	Voltage B	Temperature	Amplitude force	Amplitude pos	Stiffness	Phase shift	Phase excitation	Force A raw	Displacement raw	HMax	HMax raw	Real Force	Real Stiffness	Contact Depth	Area	Hardness	Reduced Mod.
[#]	[#]	[um]	[s]	[um]	[um]	[um]	[m°]	[m°]	[um]	[uN]	[uN]	[V]	[V]	[V]	[°C]	[uN]	[um]	[N/m]	[°]	[°]	[uN]	[um]	[um]	[um]	[uN]	[N/m]	[um]	[um^2]	[MPa]	[MPa]
524	1.000000	0.002855	7.37017e+06	-50889.1	1005.82	-29754.1	0.000000	0.000000	6.002802	0.028808	NaN	0.000000	0.001629	0.001832	28.0818	0.130034	0.000924	140.679	13.1089	-166.974	0.000702	0.001598	-1.148674	-1.149931	0.028808	140.679	-1.148828	-2.265177E+15	-1.271785E-17	NaN
524	1.000000	0.012896	7.37018e+06	-50889.1	1005.82	-29754.1	0.000000	0.000000	6.012844	0.028246	NaN	0.000000	0.001613	0.001814	28.0812	0.067695	0.001206	56.1191	144.055	18.2585	-0.004211	0.011486	-1.138633	-1.140042	0.028246	56.1191	-1.139010	-1.672869E+15	-1.688456E-17	NaN
524	1.000000	0.022802	7.37018e+06	-50889.1	1005.82	-29754.1	0.000000	0.000000	6.022748	-0.016830	NaN	0.000000	0.001603	0.001814	28.0815	0.052927	0.001718	30.8057	-71.4209	-165.017	0.003994	0.021468	-1.128726	-1.130060	-0.016830	30.8057	-1.128317	-1.202377E+15	1.399698E-17	NaN
524	1.000000	0.032773	7.37018e+06	-50889.1	1005.82	-29754.1	0.000000	0.000000	6.032719	-0.007731	NaN	0.000000	0.001646	0.001777	28.0815	0.074575	0.001850	40.31	47.7302	10.5098	-0.089881	0.031464	-1.118755	-1.120064	-0.007731	40.31	-1.118612	-8.909304E+14	8.677998E-18	NaN
524	1.000000	0.042820	7.37018e+06	-50889.1	1005.82	-29754.1	0.000000	0.000000	6.042764	-0.047269	NaN	0.000000	0.001585	0.001785	28.0825	0.044656	0.001994	22.398	57.2674	-170.568	-0.031652	0.041494	-1.108709	-1.110035	-0.047269	22.398	-1.107126	-6.247662E+14	7.565878E-17	NaN
524	1.000000	0.052782	7.37018e+06	-50889.1	1005.82	-29754.1	0.000000	0.000000	6.052730	0.028602	NaN	0.000000	0.001614	0.001786	28.0825	0.044988	0.001997	22.5329	-152.234	13.3445	0.041029	0.051387	-1.098746	-1.100141	0.028602	22.5329	-1.099698	-4.966155E+14	-5.759446E-17	NaN
524	1.000000	0.062813	7.37018e+06	-50889.1	1005.82	-29754.1	0.000000	0.000000	6.062761	0.019166	NaN	0.000000	0.001633	0.001827	28.0826	0.028135	0.001971	14.2761	-22.9333	-166.397	-0.004973	0.061474	-1.088715	-1.090054	0.019166	14.2761	-1.089722	-3.648228E+14	-5.253541E-17	NaN
524	1.000000	0.072811	7.37018e+06	-50889.1	1005.82	-29754.1	0.000000	0.000000	6.072756	-0.030768	NaN	0.000000	0.001611	0.001789	28.0827	0.093395	0.002029	46.0329	96.2716	15.7161	-0.006712	0.071438	-1.078718	-1.080090	-0.030768	46.0329	-1.078216	-2.556014E+14	1.203747E-16	NaN
524	1.000000	0.082797	7.37018e+06	-50889.1	1005.82	-29754.1	0.000000	0.000000	6.082744	0.011039	NaN	0.000000	0.001624	0.001836	28.0824	0.039964	0.002039	19.6037	37.2399	-166.406	0.026327	0.081520	-1.068731	-1.070008	0.011039	19.6037	-1.069154	-1.931171E+14	-5.716276E-17	NaN
524	1.000000	0.092836	7.37018e+06	-50889.1	1005.82	-29754.1	0.000000	0.000000	6.092781	-0.041329	NaN	0.000000	0.001626	0.001808	28.0825	0.150505	0.002042	73.7158	-14.5255	13.8436	-0.069228	0.091441	-1.058692	-1.060087	-0.041329	73.7158	-1.058272	-1.379105E+14	2.996781E-16	NaN
524	1.000000	0.102799	7.37018e+06	-50889.1	1005.82	-29754.1	0.000000	0.000000	6.102747	0.022676	NaN	0.000000	0.001637	0.001842	28.0825	0.198891	0.001998	99.5595	109.581	-167.687	0.014612	0.101511	-1.048730	-1.050018	0.022676	99.5595	-1.048900	-1.031887E+14	-2.197571E-16	NaN
524	1.000000	0.112837	7.37018e+06	-50889.1	1005.82	-29754.1	0.000000	0.000000	6.112782	-0.051385	NaN	0.000000	0.001632	0.001848	28.0826	0.108948	0.001966	55.4147	-159.601	13.9125	0.001849	0.111445	-1.038691	-1.040084	-0.051385	55.4147	-1.037996	-7.362353E+13	6.979434E-16	NaN
524	1.000000	0.122836	7.37018e+06	-50889.1	1005.82	-29754.1	0.000000	0.000000	6.122786	0.072853	NaN	0.000000	0.001642	0.001819	28.0826	0.020617	0.001966	10.4871	-49.259	-165.417	0.054091	0.121504	-1.028692	-1.030024	0.072853	10.4871	-1.033903	-6.485898E+13	-1.123259E-15	NaN
524	1.000000	0.132870	7.37018e+06	-50889.1	1005.82	-29754.1	0.000000	0.000000	6.132820	0.078818	NaN	0.000000	0.001625	0.001841	28.0826	0.155261	0.001973	78.708	158.975	15.6343	0.102981	0.131525	-1.018658	-1.020003	0.078818	78.708	-1.019409	-4.140021E+13	-1.903809E-15	NaN
524	1.000000	0.142808	7.37018e+06	-50889.1	1005.82	-29754.1	0.000000	0.000000	6.142755	-0.004946	NaN	0.000000	0.001617	0.001806	28.0826	0.064116	0.002008	31.9364	58.6722	-169.356	-0.029929	0.141528	-1.008720	-1.010000	-0.004946	31.9364	-1.008604	-2.962068E+13	1.669722E-16	NaN
524	1.000000	0.152852	7.37018e+06	-50889.1	1005.82	-29754.1	0.000000	0.000000	6.152798	-0.001853	NaN	0.000000	0.001609	0.001812	28.0824	0.078625	0.002165	36.3102	-64.9392	11.5255	-0.006722	0.151492	-0.998677	-1.000037	-0.001853	36.3102	-0.998639	-2.174905E+13	8.521066E-17	NaN
524	1.000000	0.162843	7.37018e+06	-50889.1	1005.82	-29754.1	0.000000	0.000000	6.162788	-0.034174	NaN	0.000000	0.001651	0.001809	28.0827	0.050349	0.001994	25.2488	-61.4997	-164.368	0.007901	0.161540	-0.988686	-0.989988	-0.034174	25.2488	-0.987671	-1.547898E+13	2.207744E-15	NaN
524	1.000000	0.172807	7.37018e+06	-50889.1	1005.82	-29754.1	0.000000	0.000000	6.172755	0.020129	NaN	0.000000	0.001653	0.001800	28.0826	0.090057	0.001947	46.2509	143.319	13.7591	-0.086649	0.171459	-0.978721	-0.980070	0.020129	46.2509	-0.979048	-1.184620E+13	-1.699160E-15	NaN
524	1.000000	0.182832	7.37018e+06	-50889.1	1005.82	-29754.1	0.000000	0.000000	6.182778	-0.016194	NaN	0.000000	0.001658	0.001814	28.0817	0.065093	0.002023	32.1702	-89.8188	-166.436	-0.020944	0.181493	-0.968697	-0.970035	-0.016194	32.1702	-0.968319	-8.492024E+12	1.906950E-15	NaN
524	1.000000	0.192842	7.37018e+06	-50889.1	1005.82	-29754.1	0.000000	0.000000	6.192789	0.000117	NaN	0.000000	0.001647	0.001802	28.0814	0.037744	0.001991	18.9576	-63.2103	11.7594	0.002825	0.191457	-0.958686	-0.960072	0.000117	18.9576	-0.958691	-6.298287E+12	-1.860212E-17	NaN
524	1.000000	0.202887	7.37018e+06	-50889.1	1005.82	-29754.1	0.000000	0.000000	6.202835	0.038635	NaN	0.000000	0.001632	0.001826	28.0814	0.032508	0.001953	16.6466	-88.3206	-168.148	-0.008541	0.201594	-0.948642	-0.949935	0.038635	16.6466	-0.950383	-4.866177E+12	-7.939551E-15	NaN
524	1.000000	0.212845	7.37018e+06	-50889.1	1005.82	-29754.1	0.000000	0.000000	6.212788	-0.109836	NaN	0.000000	0.001669	0.001783	28.0813	0.067681	0.001932	35.0322	-153.951	15.0087	-0.028396	0.211508	-0.938683	-0.940020	-0.109836	35.0322	-0.936332	-3.145159E+12	3.492224E-14	NaN
524	1.000000	0.222889	7.37018e+06	-50889.1	1005.82	-29754.1	0.000000	0.000000	6.222840	0.083982	NaN	0.000000	0.001648	0.001786	28.0813	0.145925	0.002073	70.3793	-71.1931	-166.392	0.010083	0.221555	-0.928639	-0.929974	0.083982	70.3793	-0.929534	-2.546298E+12	-3.298209E-14	NaN
524	1.000000	0.232868	7.37018e+06	-50889.1	1005.82	-29754.1	0.000000	0.000000	6.232816	0.025968	NaN	0.000000	0.001632	0.001736	28.0813	0.122885	0.001961	62.6776	-122.756	15.7422	0.007343	0.231467	-0.918660	-0.920062	0.025968	62.6776	-0.918971	-1.833624E+12	-1.416210E-14	NaN
524	1.000000	0.242868	7.37018e+06	-50889.1	1005.82	-29754.1	0.000000	0.000000	6.242816	0.027768	NaN	0.000000	0.001610	0.001762	28.0813	0.149429	0.002107	70.9153	-30.6839	-167.78	0.018244	0.241589	-0.908661	-0.909940	0.027768	70.9153	-0.908955	-1.342892E+12	-2.067743E-14	NaN
524	1.000000	0.252871	7.37018e+06	-50889.1	1005.82	-29754.1	0.000000	0.000000	6.252815	-0.064859	NaN	0.000000	0.001645	0.001775	28.0812	0.041113	0.002030	20.2551	-142.863	17.1456	0.019030	0.251526	-0.898658	-0.900003	-0.064859	20.2551	-0.896256	-9.046309E+11	7.169685E-14	NaN
524	1.000000	0.262875	7.37018e+06	-50889.1	1005.82	-29754.1	0.000000	0.000000	6.262820	-0.034590	NaN	0.000000	0.001649	0.001784	28.0813	0.039057	0.001946	20.0691	-18.5552	-165.489	-0.055400	0.261571	-0.888653	-0.889957	-0.034590	20.0691	-0.887361	-6.858609E+11	5.043233E-14	NaN
524	1.000000	0.272879	7.37018e+06	-50889.1	1005.82	-29754.1	0.000000	0.000000	6.272825	-0.024958	NaN	0.000000	0.001619	0.001781	28.0816	0.064293	0.002018	31.8629	51.0802	14.5887	0.024462	0.271487	-0.878649	-0.880042	-0.024958	31.8629	-0.878062	-5.134475E+11	4.860859E-14	NaN
524	1.000000	0.282889	7.37018e+06	-50889.1	1005.82	-29754.1	0.000000	0.000000	6.282836	0.016342	NaN	0.000000	0.001614	0.001748	28.0815	0.073245	0.001986	36.8826	32.3172	-165.715	-0.033550	0.281594	-0.868640	-0.869934	0.016342	36.8826	-0.868972	-3.868475E+11	-4.224486E-14	NaN
524	1.000000	0.292904	7.37018e+06	-50889.1	1005.82	-29754.1	0.000000	0.000000	6.292851	0.010295	NaN	0.000000	0.001598	0.001740	28.0817	0.026927	0.001910	14.1013	-15.8178	14.685	0.011400	0.291536	-0.858624	-0.859992	0.010295	14.1013	-0.859172	-2.850436E+11	-3.611823E-14	NaN
524	1.000000	0.302903	7.37018e+06	-50889.1	1005.82	-29754.1	0.000000	0.000000	6.302849	0.001561	NaN	0.000000	0.001596	0.001754	28.0812	0.102523	0.002041	50.2424	101.313	-164.416	0.030409	0.301564	-0.848626	-0.849964	0.001561	50.2424	-0.848649	-2.053269E+11	-7.600300E-15	NaN
524	1.000000	0.312914	7.37018e+06	-50889.1	1005.82	-29754.1	0.000000	0.000000	6.312864	0.083497	NaN	0.000000	0.001584	0.001746	28.0815	0.018385	0.001955	9.405600	50.2856	14.8589	0.012055	0.311549	-0.838615	-0.839979	0.083497	9.405600	-0.845273	-1.848070E+11	-4.518090E-13	NaN
524	1.000000	0.322897	7.37018e+06	-50889.1	1005.82	-29754.1	0.000000	0.000000	6.322844	0.002769	NaN	0.000000	0.001623	0.001782	28.0826	0.153604	0.002082	73.7628	-165.522	-167.257	0.005643	0.321577	-0.828631	-0.829952	0.002769	73.7628	-0.828659	-1.100556E+11	-2.516182E-14	NaN
524	1.000000	0.332931	7.37018e+06	-50889.1	1005.82	-29754.1	0.000000	0.000000	6.332877	-0.032374	NaN	0.000000	0.001630	0.001809	28.0825	0.094361	0.001970	47.8914	-95.0879	13.58	0.021439	0.331558	-0.818597	-0.819971	-0.032374	47.8914	-0.818090	-7.912465E+10	4.091560E-13	NaN
524	1.000000	0.342943	7.37018e+06	-50889.1	1005.82	-29754.1	0.000000	0.000000	6.342891	0.012706	NaN	0.000000	0.001625	0.001779	28.0826	0.039097	0.002018	19.3695	-120.436	-168.841	-0.088534	0.341608	-0.808585	-0.809921	0.012706	19.3695	-0.809077	-5.971031E+10	-2.127996E-13	NaN
524	1.000000	0.352947	7.37018e+06	-50889.1	1005.82	-29754.1	0.000000	0.000000	6.352892	-0.036781	NaN	0.000000	0.001636	0.001798	28.0826	0.041573	0.002074	20.0493	-170.73	17.0568	-0.001796	0.351573	-0.798582	-0.799956	-0.036781	20.0493	-0.797206	-4.120337E+10	8.926706E-13	NaN
524	1.000000	0.362912	7.37018e+06	-50889.1	1005.82	-29754.1	0.000000	0.000000	6.362860	0.031275	NaN	0.000000	0.001594	0.001757	28.0827	0.028837	0.001872	15.4041	163.256	-165.195	0.000533	0.361593	-0.788617	-0.789936	0.031275	15.4041	-0.790139	-3.303503E+10	-9.467341E-13	NaN
524	1.000000	0.372913	7.37018e+06	-50889.1	1005.82	-29754.1	0.000000	0.000000	6.372858	-0.049727	NaN	0.000000	0.001608	0.001777	28.0824	0.097681	0.001998	48.8865	116.817	14.2286	0.031612	0.371588	-0.778615	-0.779940	-0.049727	48.8865	-0.777852	-2.249290E+10	2.210808E-12	NaN
524	1.000000	0.382956	7.37018e+06	-50889.1	1005.82	-29754.1	0.000000	0.000000	6.382900	-0.063905	NaN	0.000000	0.001628	0.001754	28.0825	0.102479	0.002033	50.4009	-15.0725	-169.878	-0.000763	0.381663	-0.768573	-0.769865	-0.063905	50.4009	-0.767622	-1.632935E+10	3.913495E-12	NaN
524	1.000000	0.392930	7.37018e+06	-50889.1	1005.82	-29754.1	0.000000	0.000000	6.392876	-0.003136	NaN	0.000000	0.001638	0.001801	28.0824	0.032879	0.002041	16.1102	118.59	13.1636	0.001556	0.391585	-0.758599	-0.759944	-0.003136	16.1102	-0.758453	-1.225336E+10	2.559534E-13	NaN
524	1.000000	0.402959	7.37018e+06	-50889.1	1005.82	-29754.1	0.000000	0.000000	6.402905	-0.028508	NaN	0.000000	0.001609	0.001828	28.0826	0.016402	0.002026	8.097091	-73.2861	-165.716	-0.060578	0.401589	-0.748569	-0.749940	-0.028508	8.097091	-0.745929	-8.275451E+9	3.444902E-12	NaN
524	1.000000	0.412959	7.37018e+06	-50889.1	1005.82	-29754.1	0.000000	0.000000	6.412907	0.023665	NaN	0.000000	0.001619	0.001811	28.0827	0.026719	0.001945	13.7401	79.7789	10.8847	0.076309	0.411582	-0.738569	-0.739947	0.023665	13.7401	-0.739861	-6.841657E+9	-3.458947E-12	NaN
524	1.000000	0.422977	7.37018e+06	-50889.1	1005.82	-29754.1	0.000000	0.000000	6.422926	0.057764	NaN	0.000000	0.001605	0.001814	28.0823	0.062678	0.002109	29.7194	-41.9767	-164.572	-0.002127	0.421639	-0.728551	-0.729889	0.057764	29.7194	-0.730009	-5.022606E+9	-1.150087E-11	NaN
524	1.000000	0.432968	7.37018e+06	-50889.1	1005.82	-29754.1	0.000000	0.000000	6.432916	0.044874	NaN	0.000000	0.001589	0.001813	28.0824	0.078362	0.001993	39.3172	-96.9706	11.927	0.010267	0.431575	-0.718561	-0.719954	0.044874	39.3172	-0.719417	-3.601805E+9	-1.245883E-11	NaN
524	1.000000	0.442970	7.37018e+06	-50889.1	1005.82	-29754.1	0.000000	0.000000	6.442916	-0.016406	NaN	0.000000	0.001626	0.001826	28.0826	0.058993	0.002144	27.511	-122.961	-165.034	-0.004732	0.441649	-0.708559	-0.709879	-0.016406	27.511	-0.708112	-2.525095E+9	6.497084E-12	NaN
524	1.000000	0.452982	7.37018e+06	-50889.1	1005.82	-29754.1	0.000000	0.000000	6.452929	0.010944	NaN	0.000000	0.001632	0.001837	28.0813	0.052294	0.002040	25.6352	157.751	14.4144	-0.039439	0.451585	-0.698547	-0.699943	0.010944	25.6352	-0.698867	-1.888244E+9	-5.796028E-12	NaN
524	1.000000	0.462989	7.37018e+06	-50889.1	1005.82	-29754.1	0.000000	0.000000	6.462935	-0.025434	NaN	0.000000	0.001649	0.001784	28.0814	0.121802	0.002085	58.4131	-23.1943	-165.201	-0.013664	0.461687	-0.688540	-0.689841	-0.025434	58.4131	-0.688213	-1.350505E+9	1.883327E-11	NaN
524	1.000000	0.472996	7.37018e+06	-50889.1	1005.82	-29754.1	0.000000	0.000000	6.472943	0.018782	NaN	0.000000	0.001611	0.001803	28.0812	0.068345	0.002022	33.7948	-127.982	16.332	-0.005271	0.471605	-0.678533	-0.679924	0.018782	33.7948	-0.678950	-1.008878E+9	-1.861685E-11	NaN
524	1.000000	0.482976	7.37018e+06	-50889.1	1005.82	-29754.1	0.000000	0.000000	6.482922	-0.014497	NaN	0.000000	0.001604	0.001822	28.0814	0.027541	0.001873	14.7071	19.7649	-165.995	-0.023424	0.481653	-0.668553	-0.669875	-0.014497	14.7071	-0.667813	-7.103268E+8	2.040869E-11	NaN
524	1.000000	0.492985	7.37018e+06	-50889.1	1005.82	-29754.1	0.000000	0.000000	6.492932	0.014729	NaN	0.000000	0.001654	0.001769	28.0813	0.033345	0.001886	17.6791	0.559284	10.8364	0.015683	0.491592	-0.658544	-0.659936	0.014729	17.6791	-0.659169	-5.408583E+8	-2.723280E-11	NaN
524	1.000000	0.503001	7.37018e+06	-50889.1	1005.82	-29754.1	0.000000	0.000000	6.502950	0.065226	NaN	0.000000	0.001630	0.001808	28.0814	0.109099	0.002011	54.2387	136.465	-164.391	0.090515	0.501710	-0.648528	-0.649818	0.065226	54.2387	-0.649429	-3.977544E+8	-1.639868E-10	NaN
524	1.000000	0.512985	7.37018e+06	-50889.1	1005.82	-29754.1	0.000000	0.000000	6.512930	-0.025680	NaN	0.000000	0.001611	0.001810	28.0816	0.068959	0.001999	34.5014	108.28	11.4275	-0.041506	0.511618	-0.638544	-0.639911	-0.025680	34.5014	-0.637986	-2.771085E+8	9.267111E-11	NaN
524	1.000000	0.523018	7.37018e+06	-50889.1	1005.82	-29754.1	0.000000	0.000000	6.522965	0.026573	NaN	0.000000	0.001604	0.001827	28.0813	0.034278	0.002052	16.7024	146.393	-166.296	-0.015338	0.521696	-0.628511	-0.629833	0.026573	16.7024	-0.629704	-2.132848E+8	-1.245891E-10	NaN
524	1.000000	0.533002	7.37018e+06	-50889.1	1005.82	-29754.1	0.000000	0.000000	6.532948	-0.034538	NaN	0.000000	0.001625	0.001835	28.0817	0.083940	0.002136	39.2968	-107.15	13.0047	-0.008401	0.531637	-0.618526	-0.619891	-0.034538	39.2968	-0.617867	-1.466595E+8	2.355008E-10	NaN
524	1.000000	0.542993	7.37018e+06	-50889.1	1005.82	-29754.1	0.000000	0.000000	6.542941	0.025003	NaN	0.000000	0.001606	0.001812	28.0817	0.032167	0.001920	16.75	-0.799947	-167.57	0.009248	0.541734	-0.608535	-0.609794	0.025003	16.75	-0.609655	-1.130748E+8	-2.211213E-10	NaN
524	1.000000	0.552988	7.37018e+06	-50889.1	1005.82	-29754.1	0.000000	0.000000	6.552934	-0.007850	NaN	0.000000	0.001626	0.001772	28.0816	0.144187	0.002041	70.6385	-125.026	16.6516	-0.138713	0.551664	-0.598540	-0.599864	-0.007850	70.6385	-0.598457	-7.928847E+7	9.900727E-11	NaN
524	1.000000	0.563003	7.37018e+06	-50889.1	1005.82	-29754.1	0.000000	0.000000	6.562948	-0.032213	NaN	0.000000	0.001660	0.001789	28.0814	0.088101	0.002010	43.8329	-170.725	-165.926	0.003592	0.561690	-0.588526	-0.589839	-0.032213	43.8329	-0.587975	-5.685143E+7	5.666087E-10	NaN
524	1.000000	0.573044	7.37018e+06	-50889.1	1005.82	-29754.1	0.000000	0.000000	6.572993	0.059480	NaN	0.000000	0.001647	0.001767	28.0813	0.036456	0.001973	18.4787	4.901901	13.5402	0.087701	0.571659	-0.578485	-0.579870	0.059480	18.4787	-0.580899	-4.540773E+7	-1.309907E-9	NaN
524	1.000000	0.583022	7.37018e+06	-50889.1	1005.82	-29754.1	0.000000	0.000000	6.582969	0.002661	NaN	0.000000	0.001687	0.001744	28.0814	0.074915	0.001928	38.8595	-15.7832	-163.595	-0.014337	0.581762	-0.568506	-0.569767	0.002661	38.8595	-0.568558	-3.066901E+7	-8.677153E-11	NaN
524	1.000000	0.593009	7.37018e+06	-50889.1	1005.82	-29754.1	0.000000	0.000000	6.592956	-0.003055	NaN	0.000000	0.001657	0.001745	28.0828	0.066113	0.001966	33.6293	-177.722	14.9616	-0.055737	0.591703	-0.558519	-0.559825	-0.003055	33.6293	-0.558451	-2.223063E+7	1.374007E-10	NaN
524	1.000000	0.603033	7.37018e+06	-50889.1	1005.82	-29754.1	0.000000	0.000000	6.602978	-0.020652	NaN	0.000000	0.001648	0.001761	28.0827	0.028732	0.002096	13.7108	-139.886	-171.62	-0.101778	0.601745	-0.548496	-0.549783	-0.020652	13.7108	-0.547366	-1.561241E+7	1.322788E-9	NaN
524	1.000000	0.613032	7.37018e+06	-50889.1	1005.82	-29754.1	0.000000	0.000000	6.612980	0.032048	NaN	0.000000	0.001645	0.001773	28.0826	0.038293	0.001975	19.3863	-170.393	13.269	-0.022997	0.611655	-0.538496	-0.539874	0.032048	19.3863	-0.539736	-1.223773E+7	-2.618814E-9	NaN
524	1.000000	0.623051	7.37018e+06	-50889.1	1005.82	-29754.1	0.000000	0.000000	6.622997	-0.011438	NaN	0.000000	0.001660	0.001811	28.0828	0.026591	0.001980	13.4292	-146.39	-168	0.056580	0.621673	-0.528477	-0.529856	-0.011438	13.4292	-0.527839	-8.36667e+06	1.367105E-9	NaN
524	1.000000	0.633044	7.37018e+06	-50889.1	1005.82	-29754.1	0.000000	0.000000	6.632993	0.054137	NaN	0.000000	0.001649	0.001755	28.0826	0.101009	0.001969	51.2907	-134.361	18.1117	0.021352	0.631679	-0.518485	-0.519849	0.054137	51.2907	-0.519276	-6.36106e+06	-8.510752E-9	NaN
524	1.000000	0.643092	7.37018e+06	-50889.1	1005.82	-29754.1	0.000000	0.000000	6.643037	-0.022731	NaN	0.000000	0.001651	0.001791	28.0826	0.082102	0.001934	42.447	50.9843	-167.556	-0.037179	0.641740	-0.508437	-0.509788	-0.022731	42.447	-0.508035	-4.43655e+06	5.123663E-9	NaN
524	1.000000	0.653056	7.37018e+06	-50889.1	1005.82	-29754.1	0.000000	0.000000	6.653003	0.006758	NaN	0.000000	0.001660	0.001768	28.0826	0.126110	0.001975	63.8611	-43.7058	13.0315	-0.008139	0.651762	-0.498472	-0.499767	0.006758	63.8611	-0.498552	-3.27197e+06	-2.065468E-9	NaN
524	1.000000	0.663052	7.37018e+06	-50889.1	1005.82	-29754.1	0.000000	0.000000	6.663002	0.079643	NaN	0.000000	0.001637	0.001770	28.0828	0.016542	0.002027	8.160957	175.831	-163.459	0.003840	0.661771	-0.488476	-0.489757	0.079643	8.160957	-0.495795	-2.9946e+06	-2.659560E-8	NaN
524	1.000000	0.673038	7.37018e+06	-50889.1	1005.82	-29754.1	0.000000	0.000000	6.672981	-0.076177	NaN	0.000000	0.001644	0.001743	28.0826	0.064514	0.001797	35.8967	20.9344	14.7371	-0.046177	0.671720	-0.478491	-0.479808	-0.076177	35.8967	-0.476899	-1.6297e+06	4.674304E-8	NaN
524	1.000000	0.683084	7.37018e+06	-50889.1	1005.82	-29754.1	0.000000	0.000000	6.683031	0.023844	NaN	0.000000	0.001641	0.001773	28.0825	0.115317	0.002165	53.2605	-92.3419	-166.317	0.024590	0.681768	-0.468445	-0.469760	0.023844	53.2605	-0.468780	-1.25401e+06	-1.901447E-8	NaN
524	1.000000	0.693084	7.37018e+06	-50889.1	1005.82	-29754.1	0.000000	0.000000	6.693031	0.012504	NaN	0.000000	0.001645	0.001742	28.0828	0.044473	0.002013	22.0957	-16.8417	16.6691	-0.055784	0.691770	-0.458445	-0.459759	0.012504	22.0957	-0.458869	-910183	-1.373779E-8	NaN
524	1.000000	0.703072	7.37018e+06	-50889.1	1005.82	-29754.1	0.000000	0.000000	6.703020	0.037598	NaN	0.000000	0.001629	0.001758	28.0828	0.077498	0.001984	39.0603	62.7837	-166.587	0.023061	0.701718	-0.448456	-0.449811	0.037598	39.0603	-0.449178	-664920	-5.654505E-8	NaN
524	1.000000	0.713064	7.37018e+06	-50889.1	1005.82	-29754.1	0.000000	0.000000	6.713010	-0.009366	NaN	0.000000	0.001622	0.001737	28.0826	0.087516	0.001993	43.9096	126.647	11.1476	0.012234	0.711732	-0.438465	-0.439796	-0.009366	43.9096	-0.438305	-467128	2.005007E-8	NaN
524	1.000000	0.723072	7.37018e+06	-50889.1	1005.82	-29754.1	0.000000	0.000000	6.723018	-0.018072	NaN	0.000000	0.001614	0.001735	28.0823	0.035878	0.002092	17.1464	70.4658	-168.477	0.035551	0.721800	-0.428456	-0.429729	-0.018072	17.1464	-0.427666	-330390	5.469837E-8	NaN
524	1.000000	0.733106	7.37018e+06	-50889.1	1005.82	-29754.1	0.000000	0.000000	6.733052	-0.017305	NaN	0.000000	0.001608	0.001724	28.0814	0.083311	0.002004	41.5708	-99.5757	15.4633	0.001475	0.731722	-0.418422	-0.419807	-0.017305	41.5708	-0.418110	-241883	7.154278E-8	NaN
524	1.000000	0.743075	7.37018e+06	-50889.1	1005.82	-29754.1	0.000000	0.000000	6.743022	0.017650	NaN	0.000000	0.001637	0.001715	28.0815	0.039251	0.002020	19.4308	-116.26	-168.496	0.000181	0.741797	-0.408454	-0.409731	0.017650	19.4308	-0.409135	-180342	-9.787035E-8	NaN
524	1.000000	0.753111	7.37018e+06	-50889.1	1005.82	-29754.1	0.000000	0.000000	6.753058	-0.009620	NaN	0.000000	0.001640	0.001682	28.0813	0.045499	0.002065	22.0357	89.7811	14.5994	0.001157	0.751753	-0.398417	-0.399776	-0.009620	22.0357	-0.398090	-125529	7.663817E-8	NaN
524	1.000000	0.763052	7.37018e+06	-50889.1	1005.82	-29754.1	0.000000	0.000000	6.763001	0.048853	NaN	0.000000	0.001647	0.001669	28.0813	0.076546	0.001970	38.859	-105.277	-165.926	-0.051808	0.761791	-0.388476	-0.389737	0.048853	38.859	-0.389419	-94375.7	-5.176463E-7	NaN
524	1.000000	0.773106	7.37018e+06	-50889.1	1005.82	-29754.1	0.000000	0.000000	6.773052	-0.014331	NaN	0.000000	0.001635	0.001639	28.0815	0.094442	0.001941	48.6636	-131.817	12.5516	-0.020614	0.771686	-0.378423	-0.379843	-0.014331	48.6636	-0.378202	-65174.4	2.198806E-7	NaN
524	1.000000	0.783111	7.37018e+06	-50889.1	1005.82	-29754.1	0.000000	0.000000	6.783058	0.012773	NaN	0.000000	0.001661	0.001669	28.0814	0.125046	0.001917	65.2311	-98.457	-166.605	0.064462	0.781851	-0.368418	-0.369678	0.012773	65.2311	-0.368564	-47364	-2.696728E-7	NaN
524	1.000000	0.793107	7.37018e+06	-50889.1	1005.82	-29754.1	0.000000	0.000000	6.793055	0.045899	NaN	0.000000	0.001638	0.001676	28.0812	0.057606	0.001936	29.7537	138.219	13.3597	0.036462	0.791784	-0.358422	-0.359744	0.045899	29.7537	-0.359579	-35136.2	-1.306322E-6	NaN
524	1.000000	0.803120	7.37018e+06	-50889.1	1005.82	-29754.1	0.000000	0.000000	6.803066	-0.018025	NaN	0.000000	0.001613	0.001656	28.0813	0.082355	0.002040	40.3712	-115.96	-168.856	-0.020682	0.801823	-0.348409	-0.349705	-0.018025	40.3712	-0.348074	-23935.1	7.530660E-7	NaN
524	1.000000	0.813129	7.37018e+06	-50889.1	1005.82	-29754.1	0.000000	0.000000	6.813077	0.031922	NaN	0.000000	0.001628	0.001696	28.0814	0.073645	0.001909	38.5786	98.1239	12.0895	0.100492	0.811755	-0.338400	-0.339774	0.031922	38.5786	-0.339020	-17671.3	-1.806451E-6	NaN
524	1.000000	0.823136	7.37018e+06	-50889.1	1005.82	-29754.1	0.000000	0.000000	6.823083	0.003398	NaN	0.000000	0.001627	0.001675	28.0812	0.141497	0.002087	67.813	50.8871	-165.758	0.010545	0.821767	-0.328392	-0.329762	0.003398	67.813	-0.328430	-12372.3	-2.746347E-7	NaN
524	1.000000	0.833155	7.37018e+06	-50889.1	1005.82	-29754.1	0.000000	0.000000	6.833102	0.015078	NaN	0.000000	0.001640	0.001681	28.0813	0.038729	0.002047	18.9174	162.993	15.0929	0.035035	0.831761	-0.318374	-0.319767	0.015078	18.9174	-0.318971	-8984.5	-1.678197E-6	NaN
524	1.000000	0.843116	7.37018e+06	-50889.1	1005.82	-29754.1	0.000000	0.000000	6.843065	0.055756	NaN	0.000000	0.001634	0.001697	28.0814	0.084740	0.001955	43.3388	-57.4726	-169.195	0.068963	0.841836	-0.308413	-0.309692	0.055756	43.3388	-0.309377	-6483.97	-8.599120E-6	NaN
524	1.000000	0.853144	7.37018e+06	-50889.1	1005.82	-29754.1	0.000000	0.000000	6.853091	0.007946	NaN	0.000000	0.001627	0.001719	28.0815	0.061133	0.002048	29.8484	127.803	14.0383	0.030716	0.851779	-0.298384	-0.299750	0.007946	29.8484	-0.298584	-4482.75	-1.772549E-6	NaN
524	1.000000	0.863130	7.37018e+06	-50889.1	1005.82	-29754.1	0.000000	0.000000	6.863077	0.029473	NaN	0.000000	0.001599	0.001615	28.0825	0.063414	0.001975	32.1121	94.0682	-170.349	0.102064	0.861779	-0.288399	-0.289749	0.029473	32.1121	-0.289087	-3233.14	-9.115815E-6	NaN
524	1.000000	0.873170	7.37018e+06	-50889.1	1005.82	-29754.1	0.000000	0.000000	6.873117	0.022407	NaN	0.000000	0.001628	0.001645	28.0825	0.030099	0.001934	15.5633	6.288327	15.1139	0.107044	0.871798	-0.278359	-0.279731	0.022407	15.5633	-0.279439	-2314.74	-9.680029E-6	NaN
524	1.000000	0.883157	7.37018e+06	-50889.1	1005.82	-29754.1	0.000000	0.000000	6.883105	0.027053	NaN	0.000000	0.001661	0.001674	28.0828	0.122692	0.001994	61.5384	-42.3048	-162.837	0.011777	0.881837	-0.268372	-0.269691	0.027053	61.5384	-0.268702	-1591.46	-1.699853E-5	NaN
524	1.000000	0.893176	7.37018e+06	-50889.1	1005.82	-29754.1	0.000000	0.000000	6.893123	-0.005210	NaN	0.000000	0.001594	0.001654	28.0825	0.046489	0.001944	23.9202	-92.3607	14.6065	0.013635	0.891790	-0.258352	-0.259738	-0.005210	23.9202	-0.258189	-1099.36	4.739092E-6	NaN
524	1.000000	0.903148	7.37018e+06	-50889.1	1005.82	-29754.1	0.000000	0.000000	6.903091	-0.094934	NaN	0.000000	0.001602	0.001670	28.0826	0.078204	0.001875	41.7122	-99.9312	-163.89	-0.077055	0.901909	-0.248381	-0.249620	-0.094934	41.7122	-0.246674	-730.202	0.000130	NaN
524	1.000000	0.913147	7.37018e+06	-50889.1	1005.82	-29754.1	0.000000	0.000000	6.913095	0.034072	NaN	0.000000	0.001615	0.001654	28.0828	0.109997	0.002129	51.6605	34.8261	14.6935	0.017565	0.911747	-0.238382	-0.239781	0.034072	51.6605	-0.238876	-552.064	-6.171751E-5	NaN
524	1.000000	0.923169	7.37018e+06	-50889.1	1005.82	-29754.1	0.000000	0.000000	6.923116	0.016944	NaN	0.000000	0.001619	0.001696	28.0827	0.077544	0.001994	38.8945	109.751	-165.814	0.012655	0.921862	-0.228360	-0.229667	0.016944	38.8945	-0.228687	-381.737	-4.438734E-5	NaN
524	1.000000	0.933178	7.37018e+06	-50889.1	1005.82	-29754.1	0.000000	0.000000	6.933127	0.043411	NaN	0.000000	0.001627	0.001707	28.0826	0.100797	0.001972	51.1227	158	14.9028	0.048145	0.931858	-0.218350	-0.219670	0.043411	51.1227	-0.218987	-267.597	-0.000162	NaN
524	1.000000	0.943166	7.37018e+06	-50889.1	1005.82	-29754.1	0.000000	0.000000	6.943113	-0.001074	NaN	0.000000	0.001625	0.001663	28.0827	0.061226	0.002045	29.9388	74.2046	-166.684	-0.093005	0.941859	-0.208362	-0.209670	-0.001074	29.9388	-0.208335	-180.23	5.959554E-6	NaN
524	1.000000	0.953188	7.37018e+06	-50889.1	1005.82	-29754.1	0.000000	0.000000	6.953138	0.077308	NaN	0.000000	0.001639	0.001656	28.083	0.037933	0.002126	17.8433	22.1942	12.5255	-0.004120	0.951831	-0.198340	-0.199697	0.077308	17.8433	-0.201590	-139.892	-0.000553	NaN
524	1.000000	0.963162	7.37018e+06	-50889.1	1005.82	-29754.1	0.000000	0.000000	6.963107	-0.050377	NaN	0.000000	0.001639	0.001700	28.0826	0.068784	0.002004	34.3237	45.9609	-164.127	0.009908	0.961902	-0.188366	-0.189626	-0.050377	34.3237	-0.187265	-80.9537	0.000622	NaN
524	1.000000	0.973192	7.37018e+06	-50889.1	1005.82	-29754.1	0.000000	0.000000	6.973137	-0.047267	NaN	0.000000	0.001591	0.001678	28.0825	0.180748	0.001936	93.3551	-49.87	11.4363	0.032519	0.971824	-0.178336	-0.179704	-0.047267	93.3551	-0.177956	-56.3159	0.000839	NaN
524	1.000000	0.983224	7.37018e+06	-50889.1	1005.82	-29754.1	0.000000	0.000000	6.983170	-0.015381	NaN	0.000000	0.001619	0.001668	28.0825	0.077452	0.001937	39.9898	78.5719	-166.023	0.056212	0.981889	-0.168305	-0.169640	-0.015381	39.9898	-0.168016	-37.9392	0.000405	NaN
524	1.000000	0.993175	7.37018e+06	-50889.1	1005.82	-29754.1	0.000000	0.000000	6.993121	-0.014141	NaN	0.000000	0.001642	0.001674	28.0827	0.095849	0.002091	45.8472	-103.616	12.0576	-0.024202	0.991763	-0.158354	-0.159766	-0.014141	45.8472	-0.158123	-25.3834	0.000557	NaN
524	1.000000	1.003217	7.37018e+06	-50889.1	1005.82	-29754.1	0.000000	0.000000	7.003163	-0.014934	NaN	0.000000	0.001648	0.001678	28.0811	0.085111	0.002065	41.2103	42.5815	-168.076	0.029123	1.001905	-0.148312	-0.149624	-0.014934	41.2103	-0.148040	-16.6786	0.000895	NaN
524	1.000000	1.013226	7.37018e+06	-50889.1	1005.82	-29754.1	0.000000	0.000000	7.013173	-0.001675	NaN	0.000000	0.001637	0.001641	28.0811	0.061857	0.002057	30.0746	-107.929	14.318	-0.076868	1.011907	-0.138302	-0.139622	-0.001675	30.0746	-0.138261	-10.9699	0.000153	NaN
524	1.000000	1.023195	7.37018e+06	-50889.1	1005.82	-29754.1	0.000000	0.000000	7.023141	-0.002953	NaN	0.000000	0.001623	0.001649	28.0815	0.091061	0.001941	46.9101	-78.931	-168.522	0.042950	1.021914	-0.128334	-0.129615	-0.002953	46.9101	-0.128286	-7.057060	0.000418	NaN
524	1.000000	1.033225	7.37018e+06	-50889.1	1005.82	-29754.1	0.000000	0.000000	7.033175	0.065632	NaN	0.000000	0.001653	0.001636	28.0812	0.060000	0.002052	29.2384	-163.431	14.2657	0.058712	1.031894	-0.118303	-0.119634	0.065632	29.2384	-0.119987	-4.828552	-0.013593	NaN
524	1.000000	1.043208	7.37018e+06	-50889.1	1005.82	-29754.1	0.000000	0.000000	7.043155	-0.001343	NaN	0.000000	0.001626	0.001652	28.0811	0.082111	0.002006	40.9249	-139.21	-165.784	0.045416	1.041884	-0.108320	-0.109645	-0.001343	40.9249	-0.108296	-2.765629	0.000486	NaN
524	1.000000	1.053232	7.37018e+06	-50889.1	1005.82	-29754.1	0.000000	0.000000	7.053179	0.009422	NaN	0.000000	0.001626	0.001647	28.0812	0.068497	0.002031	33.7177	-61.2836	13.9416	-0.050974	1.051795	-0.098297	-0.099733	0.009422	33.7177	-0.098507	-1.692524	-0.005567	NaN
524	1.000000	1.063219	7.37018e+06	-50889.1	1005.82	-29754.1	0.000000	0.000000	7.063167	0.033779	NaN	0.000000	0.001663	0.001699	28.0813	0.064383	0.001944	33.1107	44.1825	-165.985	0.017428	1.061901	-0.088310	-0.089627	0.033779	33.1107	-0.089075	-1.028135	-0.032854	NaN
524	1.000000	1.073252	7.37018e+06	-50889.1	1005.82	-29754.1	0.000000	0.000000	7.073199	0.003148	NaN	0.000000	0.001693	0.001656	28.0811	0.051654	0.002068	24.9825	41.3183	14.2156	0.006543	1.071874	-0.078276	-0.079655	0.003148	24.9825	-0.078371	-0.563271	-0.005589	NaN
524	1.000000	1.083202	7.37018e+06	-50889.1	1005.82	-29754.1	0.000000	0.000000	7.083148	-0.003579	NaN	0.000000	0.001642	0.001724	28.0811	0.072043	0.001913	37.6533	103.475	-163.772	-0.022333	1.081924	-0.068327	-0.069604	-0.003579	37.6533	-0.068255	-0.306104	0.011693	NaN
524	1.000000	1.093214	7.37018e+06	-50889.1	1005.82	-29754.1	0.000000	0.000000	7.093161	-0.007506	NaN	0.000000	0.001656	0.001677	28.0813	0.052659	0.001939	27.1575	147.697	14.2122	-0.056782	1.091824	-0.058314	-0.059704	-0.007506	27.1575	-0.058107	-0.158806	0.047267	NaN
524	1.000000	1.103226	7.37018e+06	-50889.1	1005.82	-29754.1	0.000000	0.000000	7.103177	0.085521	NaN	0.000000	0.001685	0.001659	28.0813	0.097044	0.002086	46.5108	112.256	-168.171	0.056498	1.101882	-0.048302	-0.049646	0.085521	46.5108	-0.049681	-0.089246	-0.958261	NaN
524	1.000000	1.113234	7.37018e+06	-50889.1	1005.82	-29754.1	0.000000	0.000000	7.113179	-0.043568	NaN	0.000000	0.001697	0.001666	28.0813	0.020757	0.001892	10.9734	44.7994	16.014	-0.048077	1.111907	-0.038294	-0.039622	-0.043568	10.9734	-0.035317	-0.032721	1.331519	NaN
524	1.000000	1.123254	7.37018e+06	-50889.1	1005.82	-29754.1	0.000000	0.000000	7.123199	-0.028152	NaN	0.000000	0.001661	0.001671	28.0812	0.017622	0.002010	8.767891	-59.9105	-164.853	0.055249	1.121930	-0.028275	-0.029599	-0.028152	8.767891	-0.025867	-0.017778	1.583530	NaN
524	1.000000	1.133260	7.37018e+06	-50889.1	1005.82	-29754.1	0.000000	0.000000	7.133209	0.051664	NaN	0.000000	0.001660	0.001663	28.082	0.095937	0.001944	49.3515	-81.0553	13.8798	0.067719	1.131865	-0.018269	-0.019664	0.051664	49.3515	-0.019054	-0.011882	-4.348142	NaN
524	1.000000	1.143242	7.37018e+06	-50889.1	1005.82	-29754.1	0.000000	0.000000	7.143185	-0.067419	NaN	0.000000	0.001659	0.001693	28.0825	0.025552	0.002132	11.9854	121.382	-166.705	-0.137218	1.141907	-0.008287	-0.009621	-0.067419	11.9854	-0.004068	-0.002823	23.8819	NaN
524	1.000000	1.153214	7.37018e+06	-50889.1	1005.82	-29754.1	0.000000	0.000000	7.153287	3.076025	NaN	0.000000	0.001664	0.001671	28.0826	3.959793	0.001919	2063.82	11.8114	8.424232	1.472232	1.151878	0.001685	0.000349	3.076025	2063.82	0.000567	0.000429	7177.85	91085.3
524	2.000000	1.158841	7.37018e+06	-50889.1	1005.82	-29754.1	0.000000	0.000000	7.159202	10.0751	NaN	0.000000	0.001663	0.001655	28.0826	10.1757	0.001637	6217.26	2.449351	-168.998	9.388405	1.158545	0.007312	0.007017	10.0751	6217.26	0.006097	0.005157	1953.81	79102.2
524	2.000000	1.161329	7.37018e+06	-50889.1	1005.82	-29754.1	0.000000	0.000000	7.161858	14.1701	NaN	0.000000	0.001683	0.001638	28.0829	12.657	0.001535	8243.16	4.114416	6.103813	13.3265	1.161009	0.009800	0.009481	14.1701	8243.16	0.008511	0.007573	1871.09	86542
524	2.000000	1.163775	7.37018e+06	-50889.1	1005.82	-29754.1	0.000000	0.000000	7.164499	18.8799	NaN	0.000000	0.001659	0.001652	28.0823	15.5297	0.001697	9151.97	5.217667	-174.037	18.9704	1.163571	0.012247	0.012043	18.8799	9151.97	0.010700	0.009970	1893.77	83743.4
524	2.000000	1.166277	7.37018e+06	-50889.1	1005.82	-29754.1	0.000000	0.000000	7.167163	22.8374	NaN	0.000000	0.001626	0.001677	28.0827	17.8761	0.001686	10602.1	7.155455	2.449582	20.5294	1.165952	0.014748	0.014423	22.8374	10602.1	0.013133	0.012875	1773.72	85365.7
524	2.000000	1.168781	7.37018e+06	-50889.1	1005.82	-29754.1	0.000000	0.000000	7.169859	27.5027	NaN	0.000000	0.001643	0.001655	28.083	21.056	0.001823	11551.3	7.673862	-178.136	27.3519	1.168499	0.017253	0.016971	27.5027	11551.3	0.015467	0.015913	1728.31	83661.9
524	2.000000	1.171264	7.37018e+06	-50889.1	1005.82	-29754.1	0.000000	0.000000	7.172617	34.1934	NaN	0.000000	0.001627	0.001681	28.0827	23.0611	0.001829	12608.3	5.801910	2.576829	32.1829	1.170813	0.019735	0.019284	34.1934	12608.3	0.017701	0.019058	1794.16	83442.6
524	2.000000	1.173749	7.37018e+06	-50889.1	1005.82	-29754.1	0.000000	0.000000	7.175432	42.2192	NaN	0.000000	0.001653	0.001667	28.0829	24.8069	0.001899	13060.9	3.110768	-175.335	41.4418	1.173445	0.022221	0.021916	42.2192	13060.9	0.019797	0.022224	1899.75	80045.8
524	2.000000	1.176278	7.37018e+06	-50889.1	1005.82	-29754.1	0.000000	0.000000	7.178080	45.1264	NaN	0.000000	0.001636	0.001686	28.0829	27.5168	0.001755	15680.8	5.962599	-0.215731	44.5789	1.175915	0.024749	0.024386	45.1264	15680.8	0.022591	0.026778	1685.21	87549.4
524	2.000000	1.178701	7.37018e+06	-50889.1	1005.82	-29754.1	0.000000	0.000000	7.180825	52.9562	NaN	0.000000	0.001645	0.001717	28.083	30.8017	0.001875	16423.5	5.613310	178.97	50.7824	1.178468	0.027172	0.026940	52.9562	16423.5	0.024754	0.030570	1732.31	85821.2
524	2.000000	1.181327	7.37018e+06	-50889.1	1005.82	-29754.1	0.000000	0.000000	7.183683	58.5719	NaN	0.000000	0.001594	0.001682	28.0829	31.7112	0.001787	17748.3	2.649065	3.122263	59.0408	1.180826	0.029799	0.029298	58.5719	17748.3	0.027324	0.035379	1655.54	86209.3
524	2.000000	1.183718	7.37018e+06	-50889.1	1005.82	-29754.1	0.000000	0.000000	7.186300	64.0763	NaN	0.000000	0.001634	0.001691	28.0828	34.3233	0.001665	20616.2	4.172896	177.942	62.9275	1.183455	0.032189	0.031926	64.0763	20616.2	0.029858	0.040451	1584.07	93652.6
524	2.000000	1.186188	7.37018e+06	-50889.1	1005.82	-29754.1	0.000000	0.000000	7.189189	74.2589	NaN	0.000000	0.001710	0.001678	28.0817	37.8048	0.001807	20917.8	8.569372	-6.011997	71.9689	1.185907	0.034660	0.034379	74.2589	20917.8	0.031997	0.044985	1650.74	90106.2
524	2.000000	1.188673	7.37018e+06	-50889.1	1005.82	-29754.1	0.000000	0.000000	7.192032	82.9656	NaN	0.000000	0.001681	0.001693	28.0818	39.4243	0.001778	22171.8	4.289966	178.146	82.4045	1.188491	0.037145	0.036962	82.9656	22171.8	0.034338	0.050217	1652.15	90396.1
524	2.000000	1.191274	7.37018e+06	-50889.1	1005.82	-29754.1	0.000000	0.000000	7.195165	95.9171	NaN	0.000000	0.001716	0.001685	28.082	41.6156	0.001834	22691.5	6.650471	-3.495078	95.2178	1.190884	0.039746	0.039355	95.9171	22691.5	0.036575	0.055478	1728.92	88018.8
524	2.000000	1.193711	7.37018e+06	-50889.1	1005.82	-29754.1	0.000000	0.000000	7.197820	101.233	NaN	0.000000	0.001681	0.001669	28.0815	43.9775	0.001716	25628.4	7.425946	174.229	102.141	1.193406	0.042182	0.041877	101.233	25628.4	0.039219	0.062027	1632.09	94016.9
524	2.000000	1.196196	7.37018e+06	-50889.1	1005.82	-29754.1	0.000000	0.000000	7.200810	113.505	NaN	0.000000	0.001694	0.001679	28.0822	46.6627	0.001825	25563.1	3.046018	-0.880848	110.828	1.195804	0.044667	0.044275	113.505	25563.1	0.041337	0.067529	1680.83	89875.4
524	2.000000	1.198690	7.37018e+06	-50889.1	1005.82	-29754.1	0.000000	0.000000	7.203690	122.864	NaN	0.000000	0.001674	0.001691	28.0816	49.3426	0.001743	28308.2	3.916392	176.339	120.214	1.198476	0.047162	0.046948	122.864	28308.2	0.043907	0.074514	1648.88	94747.4
524	2.000000	1.201209	7.37018e+06	-50889.1	1005.82	-29754.1	0.000000	0.000000	7.206716	135.197	NaN	0.000000	0.001690	0.001671	28.0822	52.0152	0.001927	26997.5	6.072798	-4.656019	131.99	1.200940	0.049681	0.049411	135.197	26997.5	0.045925	0.080235	1685	87079.2
524	2.000000	1.203627	7.37018e+06	-50889.1	1005.82	-29754.1	0.000000	0.000000	7.209789	151.136	NaN	0.000000	0.001695	0.001649	28.0817	53.854	0.001795	29998.4	4.061357	175.916	147.774	1.203432	0.052098	0.051903	151.136	29998.4	0.048320	0.087290	1731.42	92765.8
524	2.000000	1.206215	7.37018e+06	-50889.1	1005.82	-29754.1	0.000000	0.000000	7.212778	160.903	NaN	0.000000	0.001669	0.001633	28.082	56.9397	0.001778	32027.3	3.304586	-3.609431	159.16	1.205899	0.054686	0.054370	160.903	32027.3	0.050918	0.095272	1688.89	94800.5
524	2.000000	1.208692	7.37018e+06	-50889.1	1005.82	-29754.1	0.000000	0.000000	7.215654	170.588	NaN	0.000000	0.001691	0.001648	28.0817	61.0629	0.001847	33060.3	6.152257	172.76	170.146	1.208438	0.057163	0.056909	170.588	33060.3	0.053294	0.102865	1658.38	94177.4
524	2.000000	1.211181	7.37018e+06	-50889.1	1005.82	-29754.1	0.000000	0.000000	7.219119	194.34	NaN	0.000000	0.001709	0.001659	28.0821	61.8722	0.001800	34368.8	5.358470	-5.725351	190.235	1.210757	0.059652	0.059229	194.34	34368.8	0.055411	0.109870	1768.82	94732.1
524	2.000000	1.213669	7.37018e+06	-50889.1	1005.82	-29754.1	0.000000	0.000000	7.222340	212.157	NaN	0.000000	0.001699	0.001651	28.0814	64.2154	0.001901	33771	4.391975	175.526	211.718	1.213375	0.062140	0.061846	212.157	33771	0.057429	0.116749	1817.2	90300.7
524	2.000000	1.216146	7.37018e+06	-50889.1	1005.82	-29754.1	0.000000	0.000000	7.225328	224.565	NaN	0.000000	0.001685	0.001660	28.0818	66.1232	0.001824	36257.7	3.003352	-3.846361	219.338	1.215872	0.064618	0.064344	224.565	36257.7	0.059972	0.125709	1786.38	93430.7
524	2.000000	1.218699	7.37018e+06	-50889.1	1005.82	-29754.1	0.000000	0.000000	7.228368	236.411	NaN	0.000000	0.001713	0.001643	28.0814	70.0285	0.001891	37039	7.325610	171.61	237.352	1.218377	0.067171	0.066849	236.411	37039	0.062384	0.134494	1757.78	92274.3
524	2.000000	1.221196	7.37018e+06	-50889.1	1005.82	-29754.1	0.000000	0.000000	7.231563	253.407	NaN	0.000000	0.001681	0.001643	28.0827	70.8231	0.001795	39463.9	4.714356	-6.441504	249.414	1.220835	0.069667	0.069307	253.407	39463.9	0.064851	0.143778	1762.5	95088.5
524	2.000000	1.223696	7.37018e+06	-50889.1	1005.82	-29754.1	0.000000	0.000000	7.234538	264.954	NaN	0.000000	0.001712	0.001629	28.0828	72.7648	0.001781	40851.7	2.873751	174.922	264.933	1.223391	0.072167	0.071862	264.954	40851.7	0.067303	0.153291	1728.45	95329.1
524	2.000000	1.226124	7.37018e+06	-50889.1	1005.82	-29754.1	0.000000	0.000000	7.237859	286.674	NaN	0.000000	0.001695	0.001664	28.0829	75.3843	0.001765	42721.5	7.018496	-9.230899	280.92	1.225672	0.074595	0.074144	286.674	42721.5	0.069563	0.162313	1766.18	96882.1
524	2.000000	1.228664	7.37018e+06	-50889.1	1005.82	-29754.1	0.000000	0.000000	7.241183	305.728	NaN	0.000000	0.001702	0.001654	28.0827	77.3991	0.001709	45293.2	2.840459	174.804	304.919	1.228353	0.077135	0.076824	305.728	45293.2	0.072073	0.172621	1771.09	99599.9
524	2.000000	1.231154	7.37018e+06	-50889.1	1005.82	-29754.1	0.000000	0.000000	7.244344	322.041	NaN	0.000000	0.001708	0.001685	28.0827	78.923	0.001783	44269.6	0.514543	-2.412009	317.962	1.230819	0.079625	0.079290	322.041	44269.6	0.074169	0.181461	1774.71	94948.3
524	2.000000	1.233684	7.37018e+06	-50889.1	1005.82	-29754.1	0.000000	0.000000	7.247635	340.556	NaN	0.000000	0.001682	0.001650	28.0828	81.6043	0.001676	48683.1	5.025919	172.478	340.461	1.233275	0.082155	0.081747	340.556	48683.1	0.076909	0.193321	1761.61	101161
524	2.000000	1.236090	7.37018e+06	-50889.1	1005.82	-29754.1	0.000000	0.000000	7.250956	362.784	NaN	0.000000	0.001723	0.001681	28.0826	84.506	0.001764	47916.3	3.798844	-6.657856	357.126	1.235724	0.084562	0.084196	362.784	47916.3	0.078884	0.202091	1795.15	97383
524	2.000000	1.238640	7.37018e+06	-50889.1	1005.82	-29754.1	0.000000	0.000000	7.254217	380.076	NaN	0.000000	0.001683	0.001667	28.0826	88.2529	0.001823	48411.1	5.036883	171.904	376.5	1.238356	0.087112	0.086827	380.076	48411.1	0.081223	0.212716	1786.78	95899.9
524	2.000000	1.241084	7.37018e+06	-50889.1	1005.82	-29754.1	0.000000	0.000000	7.257407	398.248	NaN	0.000000	0.001712	0.001658	28.0827	89.3591	0.001820	49093.6	2.511400	-5.601019	391.404	1.240760	0.089555	0.089232	398.248	49093.6	0.083471	0.223162	1784.57	94948.4
524	2.000000	1.243626	7.37018e+06	-50889.1	1005.82	-29754.1	0.000000	0.000000	7.260833	419.724	NaN	0.000000	0.001725	0.001666	28.0828	91.7188	0.001776	51629.1	4.670239	171.879	417.526	1.243290	0.092097	0.091761	419.724	51629.1	0.086000	0.235196	1784.57	97264
524	2.000000	1.246149	7.37018e+06	-50889.1	1005.82	-29754.1	0.000000	0.000000	7.264272	442.006	NaN	0.000000	0.001716	0.001662	28.0825	94.0178	0.001697	55400.8	2.265055	-6.486668	439.295	1.245837	0.094620	0.094308	442.006	55400.8	0.088637	0.248054	1781.9	101629
524	2.000000	1.248592	7.37018e+06	-50889.1	1005.82	-29754.1	0.000000	0.000000	7.267479	460.562	NaN	0.000000	0.001694	0.001644	28.0826	97.6436	0.001816	53779.5	3.717802	172.46	456.755	1.248368	0.097064	0.096839	460.562	53779.5	0.090641	0.258044	1784.82	96726
524	2.000000	1.251085	7.37018e+06	-50889.1	1005.82	-29754.1	0.000000	0.000000	7.270830	481.445	NaN	0.000000	0.001648	0.001675	28.083	97.9918	0.001845	53109	2.183209	-5.462733	473.367	1.250770	0.099557	0.099241	481.445	53109	0.092758	0.268793	1791.13	93590.5
524	2.000000	1.253626	7.37018e+06	-50889.1	1005.82	-29754.1	0.000000	0.000000	7.274206	501.735	NaN	0.000000	0.001648	0.001655	28.0818	101.792	0.001764	57689	6.733718	168.864	500.972	1.253305	0.102098	0.101776	501.735	57689	0.095575	0.283417	1770.31	99004
524	2.000000	1.255596	7.37018e+06	-50889.1	1005.82	-29754.1	0.000000	0.000000	7.277102	524.266	NaN	0.000000	0.001633	0.001685	28.0815	104.417	0.001848	56508.2	7.280116	168.503	520.936	1.255287	0.104067	0.103758	524.266	56508.2	0.097109	0.291534	1798.3	95618