File: remote_trans/data/nanoindenter/0828-1/data/Data_2025-08-06,11h17m57s/2025-07-22_16-23-58_1_684.txt
2025-07-22, 16:23:58, 1
Index	Phase	Displacement	Time	Pos X	Pos Y	Pos Z	Rot A	Rot B	Piezo Z	Force A	Force B	Gripper	Voltage A	Voltage B	Temperature	Amplitude force	Amplitude pos	Stiffness	Phase shift	Phase excitation	Force A raw	Displacement raw	HMax	HMax raw	Real Force	Real Stiffness	Contact Depth	Area	Hardness	Reduced Mod.
[#]	[#]	[um]	[s]	[um]	[um]	[um]	[m°]	[m°]	[um]	[uN]	[uN]	[V]	[V]	[V]	[°C]	[uN]	[um]	[N/m]	[°]	[°]	[uN]	[um]	[um]	[um]	[uN]	[N/m]	[um]	[um^2]	[MPa]	[MPa]
684	1.000000	0.002609	7.37174e+06	-42889.1	1005.82	-29781.1	0.000000	0.000000	6.002837	0.044043	NaN	0.000000	0.001583	0.001750	28.084	0.017025	0.000988	17.2322	79.9102	-167.109	0.044557	0.001310	-1.019637	-1.020937	0.044043	17.2322	-1.021554	-4.424480E+13	-9.954353E-16	NaN
684	1.000000	0.010574	7.37174e+06	-42889.1	1005.82	-29781.1	0.000000	0.000000	6.010799	-0.023725	NaN	0.000000	0.001597	0.001754	28.0838	0.037197	0.001020	36.4628	-101.67	-165.229	-0.079542	0.009253	-1.011672	-1.012994	-0.023725	36.4628	-1.011184	-3.208660E+13	7.393935E-16	NaN
684	1.000000	0.018525	7.37174e+06	-42889.1	1005.82	-29781.1	0.000000	0.000000	6.018746	-0.093929	NaN	0.000000	0.001606	0.001749	28.0839	0.084576	0.001593	53.1043	-176.462	-162.4	-0.063687	0.017237	-1.003722	-1.005009	-0.093929	53.1043	-1.002395	-2.443516E+13	3.844015E-15	NaN
684	1.000000	0.026564	7.37174e+06	-42889.1	1005.82	-29781.1	0.000000	0.000000	6.026788	-0.045198	NaN	0.000000	0.001641	0.001762	28.0844	0.028830	0.001830	15.7537	-173.077	-167.153	-0.014991	0.025218	-0.995682	-0.997029	-0.045198	15.7537	-0.993531	-1.856348E+13	2.434776E-15	NaN
684	1.000000	0.034536	7.37174e+06	-42889.1	1005.82	-29781.1	0.000000	0.000000	6.034761	-0.023676	NaN	0.000000	0.001612	0.001720	28.084	0.047272	0.001921	24.6047	-33.8753	-167.716	-0.031728	0.033240	-0.987710	-0.989007	-0.023676	24.6047	-0.986988	-1.515484E+13	1.562279E-15	NaN
684	1.000000	0.042529	7.37174e+06	-42889.1	1005.82	-29781.1	0.000000	0.000000	6.042755	-0.002534	NaN	0.000000	0.001625	0.001774	28.0841	0.100653	0.002014	49.9819	104.252	-167.998	-0.039469	0.041268	-0.979717	-0.980979	-0.002534	49.9819	-0.979679	-1.208057E+13	2.097204E-16	NaN
684	1.000000	0.050505	7.37174e+06	-42889.1	1005.82	-29781.1	0.000000	0.000000	6.050727	-0.077832	NaN	0.000000	0.001591	0.001744	28.0839	0.026000	0.002023	12.8493	-75.5152	-167.074	0.027981	0.049247	-0.971741	-0.972999	-0.077832	12.8493	-0.967199	-8.201733E+12	9.489670E-15	NaN
684	1.000000	0.058514	7.37174e+06	-42889.1	1005.82	-29781.1	0.000000	0.000000	6.058737	-0.059224	NaN	0.000000	0.001600	0.001741	28.0843	0.081192	0.001958	41.474	-26.5641	-167.748	-0.061504	0.057213	-0.963732	-0.965034	-0.059224	41.474	-0.962661	-7.124365E+12	8.312881E-15	NaN
684	1.000000	0.066534	7.37174e+06	-42889.1	1005.82	-29781.1	0.000000	0.000000	6.066758	-0.024030	NaN	0.000000	0.001605	0.001765	28.0837	0.123618	0.001965	62.9239	-107.787	-165.063	-0.010424	0.065258	-0.955713	-0.956989	-0.024030	62.9239	-0.955426	-5.691210E+12	4.222337E-15	NaN
684	1.000000	0.074523	7.37174e+06	-42889.1	1005.82	-29781.1	0.000000	0.000000	6.074747	-0.034789	NaN	0.000000	0.001582	0.001747	28.0839	0.056630	0.001921	29.4784	-46.6894	-167.536	0.047583	0.073175	-0.947724	-0.949071	-0.034789	29.4784	-0.946839	-4.359013E+12	7.981002E-15	NaN
684	1.000000	0.082559	7.37174e+06	-42889.1	1005.82	-29781.1	0.000000	0.000000	6.082783	-0.048588	NaN	0.000000	0.001579	0.001730	28.0843	0.039661	0.002147	18.4735	-70.5637	-164.465	-0.015136	0.081200	-0.939687	-0.941047	-0.048588	18.4735	-0.937715	-3.283238E+12	1.479890E-14	NaN
684	1.000000	0.090565	7.37174e+06	-42889.1	1005.82	-29781.1	0.000000	0.000000	6.090791	0.014864	NaN	0.000000	0.001599	0.001765	28.0839	0.006985	0.001862	3.750840	-139.675	-166.536	-0.082377	0.089232	-0.931681	-0.933015	0.014864	3.750840	-0.934654	-2.985369E+12	-4.978927E-15	NaN
684	1.000000	0.098546	7.37174e+06	-42889.1	1005.82	-29781.1	0.000000	0.000000	6.098771	-0.012785	NaN	0.000000	0.001572	0.001730	28.0829	0.028402	0.002051	13.8452	118.904	-165.518	-0.017617	0.097224	-0.923700	-0.925023	-0.012785	13.8452	-0.923008	-2.078793E+12	6.150029E-15	NaN
684	1.000000	0.106545	7.37174e+06	-42889.1	1005.82	-29781.1	0.000000	0.000000	6.106772	0.029424	NaN	0.000000	0.001566	0.001756	28.0827	0.029167	0.002049	14.2359	141.914	-170.707	0.016274	0.105258	-0.915702	-0.916989	0.029424	14.2359	-0.917252	-1.738191E+12	-1.692777E-14	NaN
684	1.000000	0.114549	7.37174e+06	-42889.1	1005.82	-29781.1	0.000000	0.000000	6.114775	-0.004841	NaN	0.000000	0.001625	0.001775	28.0829	0.081673	0.001932	42.2791	6.378355	-166.54	-0.049320	0.113257	-0.907697	-0.908990	-0.004841	42.2791	-0.907611	-1.287949E+12	3.758672E-15	NaN
684	1.000000	0.122546	7.37174e+06	-42889.1	1005.82	-29781.1	0.000000	0.000000	6.122769	-0.079067	NaN	0.000000	0.001616	0.001731	28.0829	0.067672	0.002004	33.773	-85.9739	-168.041	-0.068050	0.121205	-0.899700	-0.901041	-0.079067	33.773	-0.897944	-9.534305E+11	8.292917E-14	NaN
684	1.000000	0.130565	7.37174e+06	-42889.1	1005.82	-29781.1	0.000000	0.000000	6.130791	0.021127	NaN	0.000000	0.001660	0.001736	28.0828	0.052257	0.002127	24.5739	-131.903	-167.504	0.056339	0.129229	-0.891682	-0.893017	0.021127	24.5739	-0.892327	-8.005034E+11	-2.639227E-14	NaN
684	1.000000	0.138543	7.37174e+06	-42889.1	1005.82	-29781.1	0.000000	0.000000	6.138766	-0.063561	NaN	0.000000	0.001666	0.001711	28.0834	0.051406	0.002078	24.7412	-32.8878	-165.996	0.002036	0.137239	-0.883703	-0.885008	-0.063561	24.7412	-0.881777	-5.764106E+11	1.102711E-13	NaN
684	1.000000	0.146554	7.37174e+06	-42889.1	1005.82	-29781.1	0.000000	0.000000	6.146780	0.004263	NaN	0.000000	0.001593	0.001746	28.0827	0.054701	0.001943	28.1471	129.911	-163.491	0.016859	0.145272	-0.875692	-0.876975	0.004263	28.1471	-0.875806	-4.786121E+11	-8.907050E-15	NaN
684	1.000000	0.154574	7.37174e+06	-42889.1	1005.82	-29781.1	0.000000	0.000000	6.154799	0.005686	NaN	0.000000	0.001629	0.001750	28.0829	0.097330	0.001995	48.7962	-44.7168	-165.675	-0.010373	0.153249	-0.867673	-0.868997	0.005686	48.7962	-0.867760	-3.725131E+11	-1.526342E-14	NaN
684	1.000000	0.162560	7.37174e+06	-42889.1	1005.82	-29781.1	0.000000	0.000000	6.162787	0.029787	NaN	0.000000	0.001640	0.001737	28.0826	0.041215	0.001791	23.0128	121.045	-164.397	0.017474	0.161233	-0.859686	-0.861014	0.029787	23.0128	-0.860657	-2.985471E+11	-9.977251E-14	NaN
684	1.000000	0.170569	7.37174e+06	-42889.1	1005.82	-29781.1	0.000000	0.000000	6.170791	-0.079218	NaN	0.000000	0.001618	0.001721	28.0826	0.060365	0.001960	30.7987	46.8947	-166.293	0.012755	0.169275	-0.851677	-0.852972	-0.079218	30.7987	-0.849748	-2.124854E+11	3.728162E-13	NaN
684	1.000000	0.178567	7.37174e+06	-42889.1	1005.82	-29781.1	0.000000	0.000000	6.178792	-0.002648	NaN	0.000000	0.001583	0.001748	28.0828	0.060110	0.002000	30.0501	114.526	-167.112	-0.016556	0.177276	-0.843680	-0.844971	-0.002648	30.0501	-0.843613	-1.754860E+11	1.509054E-14	NaN
684	1.000000	0.186584	7.37174e+06	-42889.1	1005.82	-29781.1	0.000000	0.000000	6.186808	-0.042612	NaN	0.000000	0.001602	0.001734	28.0825	0.109355	0.001923	56.8542	92.678	-166.663	-0.067351	0.185306	-0.835663	-0.836941	-0.042612	56.8542	-0.835100	-1.345573E+11	3.166803E-13	NaN
684	1.000000	0.194603	7.37174e+06	-42889.1	1005.82	-29781.1	0.000000	0.000000	6.194826	-0.062296	NaN	0.000000	0.001606	0.001762	28.0827	0.078100	0.002019	38.6749	111.335	-164.085	-0.058134	0.193272	-0.827644	-0.828975	-0.062296	38.6749	-0.826436	-1.026761E+11	6.067198E-13	NaN
684	1.000000	0.202575	7.37174e+06	-42889.1	1005.82	-29781.1	0.000000	0.000000	6.202803	0.047676	NaN	0.000000	0.001564	0.001734	28.0825	0.027021	0.001910	14.1478	77.2235	-168.134	-0.067855	0.201276	-0.819671	-0.820970	0.047676	14.1478	-0.822199	-8.995464E+10	-5.300032E-13	NaN
684	1.000000	0.210587	7.37174e+06	-42889.1	1005.82	-29781.1	0.000000	0.000000	6.210811	-0.037525	NaN	0.000000	0.001585	0.001748	28.0827	0.119144	0.002016	59.1024	138.455	-166.642	-0.046922	0.209240	-0.811660	-0.813006	-0.037525	59.1024	-0.811184	-6.377191E+10	5.884257E-13	NaN
684	1.000000	0.218591	7.37174e+06	-42889.1	1005.82	-29781.1	0.000000	0.000000	6.218813	-0.074569	NaN	0.000000	0.001628	0.001755	28.0826	0.073597	0.002023	36.3716	-86.2141	-166.022	-0.063587	0.217273	-0.803656	-0.804973	-0.074569	36.3716	-0.802118	-4.804085E+10	1.552203E-12	NaN
684	1.000000	0.226585	7.37174e+06	-42889.1	1005.82	-29781.1	0.000000	0.000000	6.226812	0.029048	NaN	0.000000	0.001588	0.001748	28.0827	0.051750	0.002123	24.3718	119.354	-167.912	-0.053378	0.225296	-0.795662	-0.796951	0.029048	24.3718	-0.796556	-4.037399E+10	-7.194797E-13	NaN
684	1.000000	0.234621	7.37174e+06	-42889.1	1005.82	-29781.1	0.000000	0.000000	6.234845	-0.029282	NaN	0.000000	0.001633	0.001774	28.0842	0.102983	0.002036	50.5742	85.4436	-165.497	0.024854	0.233266	-0.787625	-0.788981	-0.029282	50.5742	-0.787191	-3.012537E+10	9.720087E-13	NaN
684	1.000000	0.242600	7.37174e+06	-42889.1	1005.82	-29781.1	0.000000	0.000000	6.242825	-0.013457	NaN	0.000000	0.001630	0.001734	28.0842	0.036774	0.001966	18.7045	-56.5801	-165.743	-0.043172	0.241253	-0.779647	-0.780993	-0.013457	18.7045	-0.779107	-2.339390E+10	5.752504E-13	NaN
684	1.000000	0.250588	7.37174e+06	-42889.1	1005.82	-29781.1	0.000000	0.000000	6.250813	-0.023831	NaN	0.000000	0.001598	0.001738	28.0842	0.044365	0.001969	22.5354	-123.483	-168.387	-0.100218	0.249302	-0.771658	-0.772945	-0.023831	22.5354	-0.770865	-1.807471E+10	1.318464E-12	NaN
684	1.000000	0.258610	7.37174e+06	-42889.1	1005.82	-29781.1	0.000000	0.000000	6.258833	-0.059248	NaN	0.000000	0.001581	0.001725	28.0838	0.083424	0.001963	42.5065	64.3274	-165.497	-0.018988	0.257275	-0.763637	-0.764971	-0.059248	42.5065	-0.762591	-1.394930E+10	4.247383E-12	NaN
684	1.000000	0.266635	7.37174e+06	-42889.1	1005.82	-29781.1	0.000000	0.000000	6.266860	-0.021226	NaN	0.000000	0.001592	0.001699	28.0838	0.047610	0.001843	25.8382	52.7827	-166.605	-0.015641	0.265285	-0.755612	-0.756962	-0.021226	25.8382	-0.754995	-1.099536E+10	1.930469E-12	NaN
684	1.000000	0.274621	7.37174e+06	-42889.1	1005.82	-29781.1	0.000000	0.000000	6.274847	0.014777	NaN	0.000000	0.001620	0.001730	28.0841	0.054022	0.002131	25.3493	-2.972198	-165.935	0.012110	0.273364	-0.747625	-0.748883	0.014777	25.3493	-0.748063	-8.848020E+9	-1.670064E-12	NaN
684	1.000000	0.282625	7.37174e+06	-42889.1	1005.82	-29781.1	0.000000	0.000000	6.282849	-0.034732	NaN	0.000000	0.001613	0.001743	28.0843	0.097723	0.001916	51.0072	158.449	-164.655	-0.108177	0.281351	-0.739622	-0.740895	-0.034732	51.0072	-0.739111	-6.682631E+9	5.197423E-12	NaN
684	1.000000	0.290623	7.37174e+06	-42889.1	1005.82	-29781.1	0.000000	0.000000	6.290850	0.030827	NaN	0.000000	0.001689	0.001705	28.084	0.080460	0.001915	42.0187	-97.0358	-165.467	-0.041305	0.289311	-0.731623	-0.732935	0.030827	42.0187	-0.732174	-5.375631E+9	-5.734610E-12	NaN
684	1.000000	0.298635	7.37174e+06	-42889.1	1005.82	-29781.1	0.000000	0.000000	6.298858	-0.050266	NaN	0.000000	0.001575	0.001730	28.0838	0.095880	0.002060	46.5326	-104.275	-168.364	-0.016986	0.297328	-0.723612	-0.724918	-0.050266	46.5326	-0.722802	-4.005682E+9	1.254876E-11	NaN
684	1.000000	0.306652	7.37174e+06	-42889.1	1005.82	-29781.1	0.000000	0.000000	6.306874	-0.082270	NaN	0.000000	0.001562	0.001743	28.0842	0.027936	0.002045	13.6586	-41.9442	-166.206	-0.024728	0.305340	-0.715595	-0.716907	-0.082270	13.6586	-0.711078	-2.771746E+9	2.968153E-11	NaN
684	1.000000	0.314632	7.37174e+06	-42889.1	1005.82	-29781.1	0.000000	0.000000	6.314857	0.002657	NaN	0.000000	0.001553	0.001771	28.0839	0.125068	0.002054	60.9025	89.4995	-165.942	0.052256	0.313361	-0.707615	-0.708886	0.002657	60.9025	-0.707648	-2.488548E+9	-1.067536E-12	NaN
684	1.000000	0.322638	7.37174e+06	-42889.1	1005.82	-29781.1	0.000000	0.000000	6.322863	-0.031300	NaN	0.000000	0.001607	0.001752	28.0835	0.055356	0.002043	27.098	-170.784	-166.577	-0.059269	0.321405	-0.699608	-0.700842	-0.031300	27.098	-0.698742	-1.880829E+9	1.664139E-11	NaN
684	1.000000	0.330620	7.37174e+06	-42889.1	1005.82	-29781.1	0.000000	0.000000	6.330845	-0.021232	NaN	0.000000	0.001588	0.001714	28.0837	0.057332	0.002049	27.977	-30.8199	-165.025	-0.082290	0.329315	-0.691626	-0.692932	-0.021232	27.977	-0.691057	-1.476937E+9	1.437601E-11	NaN
684	1.000000	0.338634	7.37174e+06	-42889.1	1005.82	-29781.1	0.000000	0.000000	6.338857	-0.045247	NaN	0.000000	0.001570	0.001750	28.0835	0.048095	0.002023	23.7695	-55.6713	-167.866	-0.080567	0.337330	-0.683613	-0.684917	-0.045247	23.7695	-0.682185	-1.117090E+9	4.050417E-11	NaN
684	1.000000	0.346664	7.37174e+06	-42889.1	1005.82	-29781.1	0.000000	0.000000	6.346889	-8.848733E-6	NaN	0.000000	0.001622	0.001741	28.0849	0.073139	0.001894	38.6113	-8.134454	-166.173	-0.019147	0.345282	-0.675583	-0.676965	-8.848733E-6	38.6113	-0.675583	-9.073642E+8	9.752128E-15	NaN
684	1.000000	0.354656	7.37174e+06	-42889.1	1005.82	-29781.1	0.000000	0.000000	6.354881	-0.011047	NaN	0.000000	0.001610	0.001738	28.0838	0.026607	0.002035	13.0741	86.4789	-166.546	-0.095681	0.353356	-0.667590	-0.668891	-0.011047	13.0741	-0.666957	-6.914043E+8	1.597733E-11	NaN
684	1.000000	0.362643	7.37174e+06	-42889.1	1005.82	-29781.1	0.000000	0.000000	6.362867	-0.045722	NaN	0.000000	0.001623	0.001728	28.0837	0.114144	0.002015	56.651	130.585	-168.643	-0.114469	0.361293	-0.659603	-0.660953	-0.045722	56.651	-0.658998	-5.379513E+8	8.499224E-11	NaN
684	1.000000	0.370650	7.37174e+06	-42889.1	1005.82	-29781.1	0.000000	0.000000	6.370874	-0.032873	NaN	0.000000	0.001634	0.001731	28.0825	0.028535	0.001914	14.9072	43.9162	-164.46	0.029816	0.369401	-0.651597	-0.652846	-0.032873	14.9072	-0.649943	-4.042549E+8	8.131673E-11	NaN
684	1.000000	0.378662	7.37174e+06	-42889.1	1005.82	-29781.1	0.000000	0.000000	6.378887	-0.023207	NaN	0.000000	0.001633	0.001733	28.0824	0.069653	0.001941	35.8886	-97.0749	-167.349	-0.058443	0.377349	-0.643585	-0.644898	-0.023207	35.8886	-0.643100	-3.256959E+8	7.125212E-11	NaN
684	1.000000	0.386674	7.37174e+06	-42889.1	1005.82	-29781.1	0.000000	0.000000	6.386897	-0.052519	NaN	0.000000	0.001604	0.001744	28.083	0.045760	0.002060	22.2084	-102.116	-164.478	-0.087268	0.385331	-0.635573	-0.636916	-0.052519	22.2084	-0.633799	-2.427675E+8	2.163361E-10	NaN
684	1.000000	0.394672	7.37174e+06	-42889.1	1005.82	-29781.1	0.000000	0.000000	6.394894	-0.096745	NaN	0.000000	0.001605	0.001729	28.0826	0.082412	0.001942	42.4453	58.6153	-166.559	-0.114024	0.393388	-0.627574	-0.628859	-0.096745	42.4453	-0.625865	-1.888974E+8	5.121572E-10	NaN
684	1.000000	0.402693	7.37174e+06	-42889.1	1005.82	-29781.1	0.000000	0.000000	6.402918	-0.000379	NaN	0.000000	0.001613	0.001722	28.0827	0.092104	0.002019	45.6122	56.0694	-164.941	0.005543	0.401431	-0.619554	-0.620815	-0.000379	45.6122	-0.619548	-1.546741E+8	2.453138E-12	NaN
684	1.000000	0.410687	7.37174e+06	-42889.1	1005.82	-29781.1	0.000000	0.000000	6.410907	-0.114665	NaN	0.000000	0.001602	0.001754	28.0825	0.048310	0.002093	23.0777	-122.823	-167.179	-0.092976	0.409314	-0.611560	-0.612932	-0.114665	23.0777	-0.607833	-1.067339E+8	1.074310E-9	NaN
684	1.000000	0.418676	7.37174e+06	-42889.1	1005.82	-29781.1	0.000000	0.000000	6.418902	0.007540	NaN	0.000000	0.001574	0.001779	28.0825	0.034490	0.002017	17.0962	61.4595	-163.817	-0.012797	0.417318	-0.603571	-0.604929	0.007540	17.0962	-0.603902	-9.422866E+7	-8.001828E-11	NaN
684	1.000000	0.426666	7.37174e+06	-42889.1	1005.82	-29781.1	0.000000	0.000000	6.426894	0.049192	NaN	0.000000	0.001622	0.001759	28.0826	0.128576	0.002036	63.1498	-25.3678	-166.338	0.030816	0.425391	-0.595581	-0.596855	0.049192	63.1498	-0.596165	-7.372779E+7	-6.672102E-10	NaN
684	1.000000	0.434709	7.37174e+06	-42889.1	1005.82	-29781.1	0.000000	0.000000	6.434934	-0.032793	NaN	0.000000	0.001652	0.001766	28.0824	0.023948	0.002003	11.9534	50.1264	-168.578	0.045215	0.433415	-0.587537	-0.588832	-0.032793	11.9534	-0.585480	-5.252080E+7	6.243737E-10	NaN
684	1.000000	0.442695	7.37174e+06	-42889.1	1005.82	-29781.1	0.000000	0.000000	6.442919	-0.026154	NaN	0.000000	0.001622	0.001731	28.0828	0.156575	0.001887	82.9625	-122.151	-167.991	-0.021022	0.441339	-0.579552	-0.580908	-0.026154	82.9625	-0.579315	-4.317925E+7	6.056985E-10	NaN
684	1.000000	0.450682	7.37174e+06	-42889.1	1005.82	-29781.1	0.000000	0.000000	6.450908	0.000307	NaN	0.000000	0.001627	0.001739	28.0826	0.043392	0.001888	22.9818	105.544	-164.473	-0.081440	0.449382	-0.571564	-0.572864	0.000307	22.9818	-0.571574	-3.375832E+7	-9.079295E-12	NaN
684	1.000000	0.458685	7.37174e+06	-42889.1	1005.82	-29781.1	0.000000	0.000000	6.458910	-0.010850	NaN	0.000000	0.001674	0.001717	28.0826	0.086954	0.002116	41.0848	57.154	-167.884	-0.033069	0.457417	-0.563562	-0.564830	-0.010850	41.0848	-0.563363	-2.599544E+7	4.173842E-10	NaN
684	1.000000	0.466682	7.37174e+06	-42889.1	1005.82	-29781.1	0.000000	0.000000	6.466910	0.079165	NaN	0.000000	0.001626	0.001740	28.0826	0.132369	0.001962	67.4607	66.4386	-166.696	-0.017089	0.465372	-0.555565	-0.556875	0.079165	67.4607	-0.556445	-2.085413E+7	-3.796144E-9	NaN
684	1.000000	0.474704	7.37174e+06	-42889.1	1005.82	-29781.1	0.000000	0.000000	6.474930	0.014981	NaN	0.000000	0.001635	0.001737	28.0826	0.155069	0.001918	80.8468	-97.2907	-162.405	0.013049	0.473370	-0.547543	-0.548877	0.014981	80.8468	-0.547682	-1.577054E+7	-9.499600E-10	NaN
684	1.000000	0.482724	7.37174e+06	-42889.1	1005.82	-29781.1	0.000000	0.000000	6.482948	-0.032269	NaN	0.000000	0.001652	0.001738	28.0832	0.074881	0.001958	38.2448	-9.267398	-165.817	-0.075331	0.481358	-0.539523	-0.540889	-0.032269	38.2448	-0.538890	-1.191143E+7	2.709117E-9	NaN
684	1.000000	0.490727	7.37174e+06	-42889.1	1005.82	-29781.1	0.000000	0.000000	6.490953	0.005004	NaN	0.000000	0.001644	0.001771	28.0826	0.047266	0.002108	22.4266	68.5174	-165.923	-0.002151	0.489410	-0.531519	-0.532837	0.005004	22.4266	-0.531687	-9.46228e+06	-5.288082E-10	NaN
684	1.000000	0.498750	7.37174e+06	-42889.1	1005.82	-29781.1	0.000000	0.000000	6.498973	-0.071207	NaN	0.000000	0.001616	0.001703	28.0825	0.078173	0.001973	39.6206	-151.998	-166.003	-0.098254	0.497439	-0.523496	-0.524807	-0.071207	39.6206	-0.522148	-6.97386e+06	1.021055E-8	NaN
684	1.000000	0.506720	7.37174e+06	-42889.1	1005.82	-29781.1	0.000000	0.000000	6.506946	0.008018	NaN	0.000000	0.001594	0.001738	28.0836	0.186511	0.001985	93.9767	43.956	-166.33	-0.012433	0.505382	-0.515527	-0.516865	0.008018	93.9767	-0.515591	-5.65268e+06	-1.418492E-9	NaN
684	1.000000	0.514716	7.37174e+06	-42889.1	1005.82	-29781.1	0.000000	0.000000	6.514938	-0.083289	NaN	0.000000	0.001611	0.001728	28.0837	0.108149	0.001911	56.5875	-174.772	-167.627	0.007987	0.513397	-0.507530	-0.508850	-0.083289	56.5875	-0.506427	-4.21335e+06	1.976777E-8	NaN
684	1.000000	0.522708	7.37174e+06	-42889.1	1005.82	-29781.1	0.000000	0.000000	6.522933	-0.008191	NaN	0.000000	0.001611	0.001745	28.0839	0.046712	0.002112	22.1125	78.8426	-164.408	-0.027271	0.521409	-0.499539	-0.500837	-0.008191	22.1125	-0.499261	-3.34742e+06	2.446930E-9	NaN
684	1.000000	0.530731	7.37174e+06	-42889.1	1005.82	-29781.1	0.000000	0.000000	6.530957	0.032282	NaN	0.000000	0.001583	0.001700	28.0839	0.085472	0.002023	42.2559	-33.3575	-167.753	-0.024127	0.529415	-0.491516	-0.492832	0.032282	42.2559	-0.492089	-2.65816e+06	-1.214465E-8	NaN
684	1.000000	0.538723	7.37174e+06	-42889.1	1005.82	-29781.1	0.000000	0.000000	6.538948	-0.016176	NaN	0.000000	0.001555	0.001730	28.084	0.098935	0.001916	51.6413	25.1933	-161.052	0.025745	0.537415	-0.483524	-0.484832	-0.016176	51.6413	-0.483289	-2.0024e+06	8.078139E-9	NaN
684	1.000000	0.546719	7.37174e+06	-42889.1	1005.82	-29781.1	0.000000	0.000000	6.546944	-0.027066	NaN	0.000000	0.001564	0.001716	28.0839	0.072088	0.001895	38.0486	-23.9155	-168.538	-0.042464	0.545400	-0.475527	-0.476847	-0.027066	38.0486	-0.474994	-1.53254e+06	1.766077E-8	NaN
684	1.000000	0.554755	7.37174e+06	-42889.1	1005.82	-29781.1	0.000000	0.000000	6.554980	-0.001962	NaN	0.000000	0.001568	0.001731	28.0839	0.103631	0.002064	50.2066	-179.195	-168.262	0.030507	0.553399	-0.467492	-0.468848	-0.001962	50.2066	-0.467463	-1.20174e+06	1.632748E-9	NaN
684	1.000000	0.562758	7.37174e+06	-42889.1	1005.82	-29781.1	0.000000	0.000000	6.562983	-0.001576	NaN	0.000000	0.001582	0.001719	28.0837	0.004851	0.002049	2.367396	-171.789	-168.249	-0.028313	0.561457	-0.459489	-0.460789	-0.001576	2.367396	-0.458990	-913732	1.724735E-9	NaN
684	1.000000	0.570721	7.37174e+06	-42889.1	1005.82	-29781.1	0.000000	0.000000	6.570944	-0.054576	NaN	0.000000	0.001591	0.001726	28.0836	0.055094	0.002019	27.2828	71.4375	-167.756	-0.037744	0.569402	-0.451526	-0.452844	-0.054576	27.2828	-0.450025	-683437	7.985467E-8	NaN
684	1.000000	0.578741	7.37174e+06	-42889.1	1005.82	-29781.1	0.000000	0.000000	6.578966	0.002289	NaN	0.000000	0.001593	0.001731	28.0841	0.045209	0.002022	22.3602	-90.0677	-164.359	0.029200	0.577493	-0.443506	-0.444754	0.002289	22.3602	-0.443583	-554512	-4.128279E-9	NaN
684	1.000000	0.586751	7.37174e+06	-42889.1	1005.82	-29781.1	0.000000	0.000000	6.586972	-0.093040	NaN	0.000000	0.001601	0.001692	28.0838	0.154963	0.001938	79.9699	-161.913	-166.928	-0.051315	0.585436	-0.435496	-0.436810	-0.093040	79.9699	-0.434623	-414413	2.245097E-7	NaN
684	1.000000	0.594733	7.37174e+06	-42889.1	1005.82	-29781.1	0.000000	0.000000	6.594958	-0.004960	NaN	0.000000	0.001554	0.001694	28.084	0.060418	0.001849	32.6691	35.0302	-163.861	0.063384	0.593440	-0.427513	-0.428807	-0.004960	32.6691	-0.427400	-327538	1.514199E-8	NaN
684	1.000000	0.602727	7.37174e+06	-42889.1	1005.82	-29781.1	0.000000	0.000000	6.602952	-0.008679	NaN	0.000000	0.001579	0.001707	28.0837	0.067120	0.002084	32.2086	162.968	-165.125	-0.006625	0.601490	-0.419520	-0.420756	-0.008679	32.2086	-0.419318	-251617	3.449464E-8	NaN
684	1.000000	0.610761	7.37174e+06	-42889.1	1005.82	-29781.1	0.000000	0.000000	6.610986	-0.013149	NaN	0.000000	0.001573	0.001729	28.0839	0.035575	0.002162	16.4513	-41.174	-167.123	-0.046752	0.609438	-0.411485	-0.412809	-0.013149	16.4513	-0.410886	-190983	6.884650E-8	NaN
684	1.000000	0.618764	7.37174e+06	-42889.1	1005.82	-29781.1	0.000000	0.000000	6.618989	-0.003342	NaN	0.000000	0.001587	0.001733	28.084	0.080205	0.002036	39.399	-129.195	-164.954	-0.043556	0.617485	-0.403483	-0.404762	-0.003342	39.399	-0.403419	-149531	2.235047E-8	NaN
684	1.000000	0.626767	7.37174e+06	-42889.1	1005.82	-29781.1	0.000000	0.000000	6.626992	0.004963	NaN	0.000000	0.001617	0.001701	28.0839	0.044709	0.001990	22.4711	84.3169	-167.258	-0.007494	0.625506	-0.395480	-0.396740	0.004963	22.4711	-0.395645	-115839	-4.284801E-8	NaN
684	1.000000	0.634761	7.37174e+06	-42889.1	1005.82	-29781.1	0.000000	0.000000	6.634988	0.049979	NaN	0.000000	0.001599	0.001756	28.0843	0.107726	0.002052	52.5016	103.405	-166.299	-0.004837	0.633522	-0.387486	-0.388725	0.049979	52.5016	-0.388200	-90659.2	-5.512832E-7	NaN
684	1.000000	0.642805	7.37174e+06	-42889.1	1005.82	-29781.1	0.000000	0.000000	6.643031	0.017143	NaN	0.000000	0.001575	0.001767	28.0826	0.086567	0.001999	43.3119	163.706	-163.706	-0.064186	0.641413	-0.379442	-0.380834	0.017143	43.3119	-0.379738	-68570.2	-2.500096E-7	NaN
684	1.000000	0.650746	7.37174e+06	-42889.1	1005.82	-29781.1	0.000000	0.000000	6.650971	-0.002094	NaN	0.000000	0.001575	0.001771	28.0828	0.103167	0.001956	52.7332	116.947	-165.669	-0.045798	0.649455	-0.371501	-0.372792	-0.002094	52.7332	-0.371471	-52156.5	4.015420E-8	NaN
684	1.000000	0.658763	7.37174e+06	-42889.1	1005.82	-29781.1	0.000000	0.000000	6.658989	0.001969	NaN	0.000000	0.001594	0.001733	28.0839	0.034668	0.001968	17.6133	54.571	-168.295	0.027606	0.657525	-0.363483	-0.364722	0.001969	17.6133	-0.363567	-40121.5	-4.906634E-8	NaN
684	1.000000	0.666795	7.37174e+06	-42889.1	1005.82	-29781.1	0.000000	0.000000	6.667018	-0.058933	NaN	0.000000	0.001549	0.001743	28.0827	0.102092	0.002042	50.005	160.378	-164.168	-0.010628	0.665455	-0.355451	-0.356792	-0.058933	50.005	-0.354568	-29732.5	1.982114E-6	NaN
684	1.000000	0.674813	7.37174e+06	-42889.1	1005.82	-29781.1	0.000000	0.000000	6.675038	-0.014877	NaN	0.000000	0.001560	0.001715	28.0829	0.057686	0.002020	28.5525	115.686	-163.709	-0.041394	0.673482	-0.347433	-0.348764	-0.014877	28.5525	-0.347043	-23123.5	6.433531E-7	NaN
684	1.000000	0.682782	7.37174e+06	-42889.1	1005.82	-29781.1	0.000000	0.000000	6.683002	-0.140902	NaN	0.000000	0.001550	0.001727	28.0826	0.088005	0.002008	43.8219	-64.0927	-166.968	-0.080912	0.681477	-0.339464	-0.340770	-0.140902	43.8219	-0.337053	-16541.1	8.518300E-6	NaN
684	1.000000	0.690786	7.37174e+06	-42889.1	1005.82	-29781.1	0.000000	0.000000	6.691009	-0.059041	NaN	0.000000	0.001553	0.001770	28.0827	0.073126	0.002014	36.3022	120.848	-168.225	-0.022917	0.689434	-0.331461	-0.332813	-0.059041	36.3022	-0.330241	-13151.6	4.489245E-6	NaN
684	1.000000	0.698787	7.37174e+06	-42889.1	1005.82	-29781.1	0.000000	0.000000	6.699012	-0.005814	NaN	0.000000	0.001529	0.001754	28.0827	0.060983	0.001940	31.4316	-96.9749	-162.857	0.019810	0.697490	-0.323459	-0.324757	-0.005814	31.4316	-0.323321	-10410.5	5.584397E-7	NaN
684	1.000000	0.706795	7.37174e+06	-42889.1	1005.82	-29781.1	0.000000	0.000000	6.707021	0.020349	NaN	0.000000	0.001563	0.001785	28.0827	0.045554	0.001995	22.8382	99.6186	-166.14	0.029392	0.705516	-0.315452	-0.316731	0.020349	22.8382	-0.316120	-8155.94	-2.494987E-6	NaN
684	1.000000	0.714799	7.37174e+06	-42889.1	1005.82	-29781.1	0.000000	0.000000	6.715022	-0.054402	NaN	0.000000	0.001602	0.001742	28.083	0.055704	0.002083	26.7359	157.977	-165.229	-0.004787	0.713503	-0.307448	-0.308744	-0.054402	26.7359	-0.305922	-5762.77	9.440256E-6	NaN
684	1.000000	0.722837	7.37175e+06	-42889.1	1005.82	-29781.1	0.000000	0.000000	6.723062	-0.010690	NaN	0.000000	0.001574	0.001741	28.0825	0.047233	0.001925	24.5382	-50.157	-163.467	0.017426	0.721482	-0.299410	-0.300764	-0.010690	24.5382	-0.299083	-4560.16	2.344235E-6	NaN
684	1.000000	0.730802	7.37175e+06	-42889.1	1005.82	-29781.1	0.000000	0.000000	6.731027	-0.011775	NaN	0.000000	0.001563	0.001717	28.0829	0.100897	0.002012	50.1376	138.92	-166.466	0.034926	0.729496	-0.291445	-0.292751	-0.011775	50.1376	-0.291269	-3485.79	3.378121E-6	NaN
684	1.000000	0.738830	7.37175e+06	-42889.1	1005.82	-29781.1	0.000000	0.000000	6.739053	-0.071741	NaN	0.000000	0.001580	0.001765	28.0827	0.113214	0.002158	52.453	157.035	-162.352	0.014007	0.737510	-0.283416	-0.284736	-0.071741	52.453	-0.282390	-2564.49	2.797485E-5	NaN
684	1.000000	0.746774	7.37175e+06	-42889.1	1005.82	-29781.1	0.000000	0.000000	6.746998	-0.032743	NaN	0.000000	0.001554	0.001770	28.0826	0.040172	0.002146	18.7191	69.8146	-163.042	0.038879	0.745505	-0.275473	-0.276741	-0.032743	18.7191	-0.274161	-1926.15	1.699938E-5	NaN
684	1.000000	0.754802	7.37175e+06	-42889.1	1005.82	-29781.1	0.000000	0.000000	6.755025	-0.060477	NaN	0.000000	0.001541	0.001779	28.0829	0.085162	0.001963	43.3733	13.4982	-167.437	-0.025649	0.753465	-0.267445	-0.268782	-0.060477	43.3733	-0.266399	-1468.01	4.119660E-5	NaN
684	1.000000	0.762821	7.37175e+06	-42889.1	1005.82	-29781.1	0.000000	0.000000	6.763046	-0.003661	NaN	0.000000	0.001552	0.001791	28.0824	0.049466	0.002022	24.4629	-120.235	-163.479	-0.040566	0.761503	-0.259426	-0.260744	-0.003661	24.4629	-0.259314	-1143.91	3.200044E-6	NaN
684	1.000000	0.770803	7.37175e+06	-42889.1	1005.82	-29781.1	0.000000	0.000000	6.771026	-0.061821	NaN	0.000000	0.001561	0.001788	28.0827	0.031680	0.001993	15.8924	62.6288	-166.103	-0.044629	0.769518	-0.251443	-0.252728	-0.061821	15.8924	-0.248526	-780.098	7.924754E-5	NaN
684	1.000000	0.778848	7.37175e+06	-42889.1	1005.82	-29781.1	0.000000	0.000000	6.779072	-0.039288	NaN	0.000000	0.001602	0.001768	28.0838	0.040369	0.002058	19.6189	31.7571	-165.201	-0.040858	0.777538	-0.243398	-0.244709	-0.039288	19.6189	-0.241896	-615.381	6.384407E-5	NaN
684	1.000000	0.786852	7.37175e+06	-42889.1	1005.82	-29781.1	0.000000	0.000000	6.787076	-0.048580	NaN	0.000000	0.001587	0.001760	28.0837	0.100112	0.002059	48.6284	99.0081	-167.466	-0.032357	0.785554	-0.235394	-0.236692	-0.048580	48.6284	-0.234645	-473.885	0.000103	NaN
684	1.000000	0.794829	7.37175e+06	-42889.1	1005.82	-29781.1	0.000000	0.000000	6.795054	-0.023368	NaN	0.000000	0.001606	0.001715	28.084	0.108418	0.001982	54.7067	-168.089	-162.549	0.002988	0.793536	-0.227417	-0.228711	-0.023368	54.7067	-0.227097	-360.246	6.486718E-5	NaN
684	1.000000	0.802807	7.37175e+06	-42889.1	1005.82	-29781.1	0.000000	0.000000	6.803034	0.032805	NaN	0.000000	0.001605	0.001743	28.0839	0.034331	0.002088	16.4421	91.4947	-167.033	-0.038125	0.801567	-0.219440	-0.220680	0.032805	16.4421	-0.220936	-287.492	-0.000114	NaN
684	1.000000	0.810849	7.37175e+06	-42889.1	1005.82	-29781.1	0.000000	0.000000	6.811075	0.010170	NaN	0.000000	0.001569	0.001774	28.0842	0.123248	0.002043	60.327	-121.875	-164.666	-0.015947	0.809483	-0.211398	-0.212764	0.010170	60.327	-0.211524	-202.991	-5.009952E-5	NaN
684	1.000000	0.818880	7.37175e+06	-42889.1	1005.82	-29781.1	0.000000	0.000000	6.819103	-0.057022	NaN	0.000000	0.001549	0.001809	28.0842	0.086181	0.002028	42.5004	-160.22	-162.067	-0.029587	0.817570	-0.203367	-0.204676	-0.057022	42.5004	-0.202361	-144.021	0.000396	NaN
684	1.000000	0.826803	7.37175e+06	-42889.1	1005.82	-29781.1	0.000000	0.000000	6.827028	-0.016411	NaN	0.000000	0.001538	0.001751	28.0841	0.130272	0.001997	65.2371	73.5092	-165.282	-0.019682	0.825590	-0.195443	-0.196656	-0.016411	65.2371	-0.195255	-110.007	0.000149	NaN
684	1.000000	0.834856	7.37175e+06	-42889.1	1005.82	-29781.1	0.000000	0.000000	6.835080	-0.047004	NaN	0.000000	0.001562	0.001733	28.0842	0.058682	0.002061	28.4662	178.268	-167.148	-0.066771	0.833529	-0.187391	-0.188718	-0.047004	28.4662	-0.186152	-77.541	0.000606	NaN
684	1.000000	0.842865	7.37175e+06	-42889.1	1005.82	-29781.1	0.000000	0.000000	6.843089	-0.041890	NaN	0.000000	0.001583	0.001764	28.0841	0.117693	0.001941	60.6421	93.2219	-167.017	-0.039916	0.841589	-0.179382	-0.180658	-0.041890	60.6421	-0.178864	-58.3599	0.000718	NaN
684	1.000000	0.850886	7.37175e+06	-42889.1	1005.82	-29781.1	0.000000	0.000000	6.851111	-0.019086	NaN	0.000000	0.001576	0.001769	28.0844	0.121925	0.001988	61.3253	59.5956	-161.779	0.001632	0.849559	-0.171361	-0.172687	-0.019086	61.3253	-0.171127	-42.97	0.000444	NaN
684	1.000000	0.858850	7.37175e+06	-42889.1	1005.82	-29781.1	0.000000	0.000000	6.859073	-0.048192	NaN	0.000000	0.001593	0.001777	28.0841	0.071490	0.001995	35.8363	-61.2547	-165.812	-0.112340	0.857589	-0.163397	-0.164657	-0.048192	35.8363	-0.162388	-30.2204	0.001595	NaN
684	1.000000	0.866842	7.37175e+06	-42889.1	1005.82	-29781.1	0.000000	0.000000	6.867067	-0.013760	NaN	0.000000	0.001566	0.001790	28.0845	0.088788	0.001968	45.1175	100.5	-167.038	0.052847	0.865560	-0.155404	-0.156687	-0.013760	45.1175	-0.155176	-22.4772	0.000612	NaN
684	1.000000	0.874845	7.37175e+06	-42889.1	1005.82	-29781.1	0.000000	0.000000	6.875071	0.006961	NaN	0.000000	0.001566	0.001785	28.084	0.062605	0.001918	32.6485	28.5691	-163.541	-0.048483	0.873556	-0.147401	-0.148690	0.006961	32.6485	-0.147561	-16.3446	-0.000426	NaN
684	1.000000	0.882881	7.37175e+06	-42889.1	1005.82	-29781.1	0.000000	0.000000	6.883105	-0.019563	NaN	0.000000	0.001562	0.001808	28.0841	0.042619	0.002030	20.9936	76.3823	-164.857	0.007207	0.881599	-0.139366	-0.140648	-0.019563	20.9936	-0.138667	-11.1655	0.001752	NaN
684	1.000000	0.890890	7.37175e+06	-42889.1	1005.82	-29781.1	0.000000	0.000000	6.891115	0.000876	NaN	0.000000	0.001543	0.001797	28.0842	0.100477	0.001981	50.7204	-10.9364	-163.616	-0.045063	0.889546	-0.131357	-0.132701	0.000876	50.7204	-0.131370	-8.101329	-0.000108	NaN
684	1.000000	0.898840	7.37175e+06	-42889.1	1005.82	-29781.1	0.000000	0.000000	6.899064	-0.020277	NaN	0.000000	0.001582	0.001768	28.0843	0.084014	0.002037	41.2489	31.338	-170.483	-0.102075	0.897614	-0.123407	-0.124633	-0.020277	41.2489	-0.123038	-5.559393	0.003647	NaN
684	1.000000	0.906882	7.37175e+06	-42889.1	1005.82	-29781.1	0.000000	0.000000	6.907103	-0.113084	NaN	0.000000	0.001575	0.001800	28.0845	0.097518	0.001998	48.8003	-115.057	-166.19	-0.024144	0.905517	-0.115364	-0.116729	-0.113084	48.8003	-0.113626	-3.578516	0.031601	NaN
684	1.000000	0.914870	7.37175e+06	-42889.1	1005.82	-29781.1	0.000000	0.000000	6.915093	-0.052494	NaN	0.000000	0.001604	0.001791	28.0831	0.035344	0.002045	17.2818	-164.334	-165.463	-0.051239	0.913596	-0.107377	-0.108651	-0.052494	17.2818	-0.105099	-2.362162	0.022223	NaN
684	1.000000	0.922892	7.37175e+06	-42889.1	1005.82	-29781.1	0.000000	0.000000	6.923116	-0.038523	NaN	0.000000	0.001543	0.001782	28.0832	0.071906	0.001945	36.9666	-140.465	-166.753	-0.041828	0.921572	-0.099354	-0.100674	-0.038523	36.9666	-0.098573	-1.698308	0.022683	NaN
684	1.000000	0.930901	7.37175e+06	-42889.1	1005.82	-29781.1	0.000000	0.000000	6.931129	0.054519	NaN	0.000000	0.001577	0.001766	28.0828	0.091773	0.001965	46.7135	43.8747	-165.445	-0.056703	0.929615	-0.091346	-0.092632	0.054519	46.7135	-0.092221	-1.217832	-0.044767	NaN
684	1.000000	0.938904	7.37175e+06	-42889.1	1005.82	-29781.1	0.000000	0.000000	6.939130	-0.003441	NaN	0.000000	0.001556	0.001749	28.083	0.077514	0.001997	38.8191	166.471	-162.822	-0.016921	0.937580	-0.083342	-0.084667	-0.003441	38.8191	-0.083276	-0.745959	0.004612	NaN
684	1.000000	0.946885	7.37175e+06	-42889.1	1005.82	-29781.1	0.000000	0.000000	6.947107	-0.070695	NaN	0.000000	0.001586	0.001749	28.0829	0.067317	0.001898	35.4661	117.58	-162.607	-0.031627	0.945565	-0.075362	-0.076682	-0.070695	35.4661	-0.073867	-0.431607	0.163795	NaN
684	1.000000	0.954878	7.37175e+06	-42889.1	1005.82	-29781.1	0.000000	0.000000	6.955100	-0.075554	NaN	0.000000	0.001584	0.001757	28.0825	0.018201	0.002046	8.896838	-137.724	-164.883	-0.100401	0.953582	-0.067369	-0.068665	-0.075554	8.896838	-0.061000	-0.192348	0.392801	NaN
684	1.000000	0.962901	7.37175e+06	-42889.1	1005.82	-29781.1	0.000000	0.000000	6.963122	-0.092277	NaN	0.000000	0.001572	0.001766	28.0829	0.019735	0.001890	10.4427	-110.212	-167.406	-0.134938	0.961629	-0.059346	-0.060618	-0.092277	10.4427	-0.052719	-0.110157	0.837679	NaN
684	1.000000	0.970926	7.37175e+06	-42889.1	1005.82	-29781.1	0.000000	0.000000	6.971153	0.017930	NaN	0.000000	0.001599	0.001725	28.0829	0.069698	0.001880	37.0824	-92.7754	-163.787	-0.011892	0.969639	-0.051320	-0.052608	0.017930	37.0824	-0.051683	-0.102557	-0.174826	NaN
684	1.000000	0.978883	7.37175e+06	-42889.1	1005.82	-29781.1	0.000000	0.000000	6.979106	-0.050822	NaN	0.000000	0.001584	0.001714	28.0832	0.018908	0.001885	10.0289	21.5854	-164.866	-0.022629	0.977613	-0.043364	-0.044633	-0.050822	10.0289	-0.039563	-0.043863	1.158659	NaN
684	1.000000	0.986929	7.37175e+06	-42889.1	1005.82	-29781.1	0.000000	0.000000	6.987154	-0.006904	NaN	0.000000	0.001585	0.001723	28.0829	0.045391	0.002016	22.5185	-167.307	-166.45	0.004724	0.985639	-0.035318	-0.036608	-0.006904	22.5185	-0.035088	-0.032216	0.214308	NaN
684	1.000000	0.994901	7.37175e+06	-42889.1	1005.82	-29781.1	0.000000	0.000000	6.995128	0.048476	NaN	0.000000	0.001570	0.001735	28.0827	0.098516	0.002063	47.7484	-98.561	-165.093	-0.006662	0.993631	-0.027346	-0.028615	0.048476	47.7484	-0.028107	-0.020411	-2.374935	NaN
684	1.000000	1.002917	7.37175e+06	-42889.1	1005.82	-29781.1	0.000000	0.000000	7.003145	0.065355	NaN	0.000000	0.001576	0.001725	28.0828	0.089726	0.002028	44.2518	-17.2825	-164.888	0.011553	1.001642	-0.019330	-0.020605	0.065355	44.2518	-0.020438	-0.012887	-5.071393	NaN
684	1.000000	1.010923	7.37175e+06	-42889.1	1005.82	-29781.1	0.000000	0.000000	7.011174	0.634189	NaN	0.000000	0.001618	0.001727	28.0826	0.651409	0.001944	335.161	16.9804	-165.764	0.439310	1.009568	-0.011324	-0.012679	0.634189	335.161	-0.012743	-0.007954	-79.7291	NaN
684	1.000000	1.018887	7.37175e+06	-42889.1	1005.82	-29781.1	0.000000	0.000000	7.019198	2.086878	NaN	0.000000	0.001580	0.001744	28.0827	1.295482	0.002034	636.972	20.7465	-166.479	1.836640	1.017642	-0.003360	-0.004604	2.086878	636.972	-0.005817	-0.003924	-531.792	NaN
684	1.000000	1.026910	7.37175e+06	-42889.1	1005.82	-29781.1	0.000000	0.000000	7.027308	4.186301	NaN	0.000000	0.001576	0.001738	28.0826	2.407639	0.001849	1302.2	18.8695	-167.55	3.831272	1.025596	0.004663	0.003349	4.186301	1302.2	0.002252	0.001760	2378.74	28360.2
684	1.000000	1.034909	7.37175e+06	-42889.1	1005.82	-29781.1	0.000000	0.000000	7.035413	6.795828	NaN	0.000000	0.001637	0.001715	28.0827	3.682754	0.001989	1851.13	20.9586	-168.381	6.309813	1.033551	0.012662	0.011304	6.795828	1851.13	0.009909	0.009080	748.43	17748.6
684	2.000000	1.041485	7.37175e+06	-42889.1	1005.82	-29781.1	0.000000	0.000000	7.042039	7.988454	NaN	0.000000	0.001566	0.001730	28.0837	5.201278	0.001865	2788.58	21.6314	-172.243	8.373088	1.041100	0.019239	0.018853	7.988454	2788.58	0.017090	0.018175	439.541	18898.4
684	2.000000	1.043476	7.37175e+06	-42889.1	1005.82	-29781.1	0.000000	0.000000	7.044032	8.047034	NaN	0.000000	0.001591	0.001735	28.0834	5.877846	0.001842	3191.21	13.5712	-169.179	7.998345	1.043153	0.021229	0.020906	8.047034	3191.21	0.019338	0.021513	374.059	19878.4
684	2.000000	1.045466	7.37175e+06	-42889.1	1005.82	-29781.1	0.000000	0.000000	7.046073	9.288220	NaN	0.000000	0.001591	0.001731	28.0838	6.865193	0.001865	3681.22	17.1543	-171.044	9.345304	1.045078	0.023219	0.022831	9.288220	3681.22	0.021327	0.024670	376.497	21413.1
684	2.000000	1.047450	7.37175e+06	-42889.1	1005.82	-29781.1	0.000000	0.000000	7.048116	10.716	NaN	0.000000	0.001568	0.001735	28.0839	7.735952	0.001868	4141.3	14.0279	-170.194	10.7395	1.047129	0.025203	0.024883	10.716	4141.3	0.023263	0.027930	383.669	22639.7
684	2.000000	1.049423	7.37175e+06	-42889.1	1005.82	-29781.1	0.000000	0.000000	7.050155	12.3163	NaN	0.000000	0.001577	0.001695	28.0839	8.694970	0.001784	4874.43	11.7887	-168.826	12.4557	1.049165	0.027176	0.026918	12.3163	4874.43	0.025281	0.031529	390.627	25080.6
684	2.000000	1.051436	7.37175e+06	-42889.1	1005.82	-29781.1	0.000000	0.000000	7.052246	14.2219	NaN	0.000000	0.001582	0.001680	28.0843	9.946162	0.001904	5222.77	12.9251	-169.952	14.2105	1.051072	0.029189	0.028825	14.2219	5222.77	0.027147	0.035038	405.904	25492.2
684	2.000000	1.053363	7.37175e+06	-42889.1	1005.82	-29781.1	0.000000	0.000000	7.054245	15.9907	NaN	0.000000	0.001597	0.001734	28.0839	11.0121	0.001800	6117.64	14.5343	-174.209	15.3224	1.053067	0.031116	0.030820	15.9907	6117.64	0.029156	0.039012	409.891	28298.1
684	2.000000	1.055412	7.37175e+06	-42889.1	1005.82	-29781.1	0.000000	0.000000	7.056325	16.7382	NaN	0.000000	0.001601	0.001710	28.0836	11.7552	0.001806	6510.29	15.5476	-175.114	16.7172	1.055054	0.033165	0.032808	16.7382	6510.29	0.031237	0.043346	386.152	28569.2
684	2.000000	1.057405	7.37175e+06	-42889.1	1005.82	-29781.1	0.000000	0.000000	7.058357	17.6656	NaN	0.000000	0.001590	0.001727	28.0833	13.4769	0.002063	6531.61	17.2675	-174.533	17.4892	1.057102	0.035159	0.034855	17.6656	6531.61	0.033130	0.047482	372.047	27386
684	2.000000	1.059393	7.37175e+06	-42889.1	1005.82	-29781.1	0.000000	0.000000	7.060428	19.6954	NaN	0.000000	0.001574	0.001728	28.0836	14.5478	0.001830	7951.4	12.8362	-174.017	19.6635	1.059075	0.037147	0.036828	19.6954	7951.4	0.035289	0.052421	375.719	31729.7
684	2.000000	1.061370	7.37175e+06	-42889.1	1005.82	-29781.1	0.000000	0.000000	7.062528	22.6896	NaN	0.000000	0.001567	0.001766	28.0839	17.26	0.001846	9348.84	16.3152	-179.757	22.1283	1.061082	0.039123	0.038835	22.6896	9348.84	0.037303	0.057245	396.363	35699.6
684	2.000000	1.063358	7.37175e+06	-42889.1	1005.82	-29781.1	0.000000	0.000000	7.064595	24.6202	NaN	0.000000	0.001577	0.001767	28.0837	18.6602	0.001834	10172	16.2702	178.779	24.4218	1.063111	0.041111	0.040865	24.6202	10172	0.039296	0.062222	395.686	37257.2
684	2.000000	1.065386	7.37175e+06	-42889.1	1005.82	-29781.1	0.000000	0.000000	7.066744	27.5494	NaN	0.000000	0.001579	0.001736	28.0837	21.2395	0.001815	11702.8	13.8883	178.991	27.2909	1.065014	0.043140	0.042767	27.5494	11702.8	0.041374	0.067628	407.367	41114.8
684	2.000000	1.067365	7.37175e+06	-42889.1	1005.82	-29781.1	0.000000	0.000000	7.068888	31.5829	NaN	0.000000	0.001608	0.001774	28.0838	23.687	0.001939	12214.3	13.2957	179.417	30.7027	1.067064	0.045118	0.044818	31.5829	12214.3	0.043179	0.072501	435.62	41444.8
684	2.000000	1.069354	7.37175e+06	-42889.1	1005.82	-29781.1	0.000000	0.000000	7.071025	35.1595	NaN	0.000000	0.001669	0.001707	28.0837	25.6877	0.001805	14229.1	12.6445	177.462	34.5615	1.069085	0.047108	0.046838	35.1595	14229.1	0.045254	0.078311	448.97	46455.8
684	2.000000	1.071383	7.37175e+06	-42889.1	1005.82	-29781.1	0.000000	0.000000	7.073318	41.5964	NaN	0.000000	0.001660	0.001730	28.0849	28.1544	0.001832	15365.6	11.1116	177.474	41.3235	1.071009	0.049137	0.048763	41.5964	15365.6	0.047106	0.083679	497.093	48530.5
684	2.000000	1.073319	7.37175e+06	-42889.1	1005.82	-29781.1	0.000000	0.000000	7.075555	48.8994	NaN	0.000000	0.001688	0.001748	28.0838	29.8663	0.001792	16664.7	10.4505	176.803	46.8573	1.072989	0.051073	0.050742	48.8994	16664.7	0.048872	0.088958	549.689	51047.9
684	2.000000	1.075351	7.37175e+06	-42889.1	1005.82	-29781.1	0.000000	0.000000	7.078019	59.425	NaN	0.000000	0.001682	0.001726	28.0837	32.7612	0.001731	18929.2	12.9368	172.318	58.6003	1.074971	0.053105	0.052724	59.425	18929.2	0.050750	0.094746	627.204	56185.7
684	2.000000	1.077341	7.37175e+06	-42889.1	1005.82	-29781.1	0.000000	0.000000	7.080399	68.9046	NaN	0.000000	0.001663	0.001744	28.0833	34.8077	0.001797	19368.7	7.629213	178.319	66.1131	1.076927	0.055095	0.054681	68.9046	19368.7	0.052427	0.100061	688.627	55942.4
684	2.000000	1.079338	7.37175e+06	-42889.1	1005.82	-29781.1	0.000000	0.000000	7.082809	78.9628	NaN	0.000000	0.001676	0.001724	28.0824	35.8325	0.001667	21500.5	4.495917	179.637	77.6691	1.079040	0.057092	0.056794	78.9628	21500.5	0.054337	0.106289	742.909	60252.9
684	2.000000	1.081312	7.37175e+06	-42889.1	1005.82	-29781.1	0.000000	0.000000	7.085334	92.3698	NaN	0.000000	0.001666	0.001748	28.0826	39.2522	0.001870	20989.2	3.310633	-178.298	91.4323	1.081031	0.059065	0.058785	92.3698	20989.2	0.055764	0.111060	831.712	57542.7
684	2.000000	1.083314	7.37175e+06	-42889.1	1005.82	-29781.1	0.000000	0.000000	7.087920	106.593	NaN	0.000000	0.001673	0.001710	28.0826	40.7472	0.001907	21362.6	7.545350	177.188	105.05	1.082939	0.061067	0.060692	106.593	21362.6	0.057325	0.116390	915.819	57209.6
684	2.000000	1.085326	7.37175e+06	-42889.1	1005.82	-29781.1	0.000000	0.000000	7.090511	120.678	NaN	0.000000	0.001688	0.001719	28.0826	42.6651	0.001766	24164	7.493964	174.952	120.211	1.085024	0.063079	0.062777	120.678	24164	0.059334	0.123430	977.709	62839.4
684	2.000000	1.087364	7.37175e+06	-42889.1	1005.82	-29781.1	0.000000	0.000000	7.093204	136.609	NaN	0.000000	0.001699	0.001729	28.0831	44.1176	0.001755	25138.3	6.061559	176.712	135.857	1.087026	0.065118	0.064780	136.609	25138.3	0.061042	0.129571	1054.32	63805.1
684	2.000000	1.089304	7.37175e+06	-42889.1	1005.82	-29781.1	0.000000	0.000000	7.095800	152.549	NaN	0.000000	0.001672	0.001735	28.0826	44.9654	0.001714	26238.1	2.368071	179.972	150.209	1.088938	0.067058	0.066692	152.549	26238.1	0.062697	0.135658	1124.52	65085.4
684	2.000000	1.091342	7.37175e+06	-42889.1	1005.82	-29781.1	0.000000	0.000000	7.098572	170.422	NaN	0.000000	0.001625	0.001741	28.083	48.0678	0.001851	25963.9	3.679870	178.712	168.284	1.090956	0.069095	0.068709	170.422	25963.9	0.064172	0.141193	1207.02	63130.2
684	2.000000	1.093318	7.37175e+06	-42889.1	1005.82	-29781.1	0.000000	0.000000	7.101245	187.373	NaN	0.000000	0.001667	0.001709	28.0828	49.291	0.001735	28415.2	5.410137	175.517	185.589	1.092951	0.071071	0.070704	187.373	28415.2	0.066126	0.148686	1260.19	67327
684	2.000000	1.095294	7.37175e+06	-42889.1	1005.82	-29781.1	0.000000	0.000000	7.104027	206.991	NaN	0.000000	0.001544	0.001744	28.0826	50.5992	0.001707	29646.4	1.523250	179.683	204.409	1.094941	0.073047	0.072694	206.991	29646.4	0.067810	0.155295	1332.89	68733.1
684	2.000000	1.097292	7.37175e+06	-42889.1	1005.82	-29781.1	0.000000	0.000000	7.106964	229.829	NaN	0.000000	0.001537	0.001740	28.0831	53.6413	0.001776	30196.5	2.329185	178.956	225.763	1.096958	0.075045	0.074712	229.829	30196.5	0.069337	0.161401	1423.96	68671.4
684	2.000000	1.099325	7.37175e+06	-42889.1	1005.82	-29781.1	0.000000	0.000000	7.109748	248.121	NaN	0.000000	0.001549	0.001726	28.0827	54.806	0.001779	30814.1	3.088248	178.003	247.228	1.098963	0.077078	0.076717	248.121	30814.1	0.071039	0.168339	1473.94	68616.6
684	2.000000	1.101289	7.37175e+06	-42889.1	1005.82	-29781.1	0.000000	0.000000	7.112277	261.873	NaN	0.000000	0.001577	0.001718	28.0829	57.6254	0.001708	33739.9	6.140194	173.393	259.108	1.101022	0.079042	0.078775	261.873	33739.9	0.073221	0.177436	1475.87	73180.7
684	2.000000	1.103394	7.37175e+06	-42889.1	1005.82	-29781.1	0.000000	0.000000	7.114520	265.226	NaN	0.000000	0.001579	0.001734	28.0827	58.3373	0.001778	32816.2	3.281494	177.049	266.824	1.103146	0.081147	0.080899	265.226	32816.2	0.075085	0.185387	1430.66	69634.1
684	2.000000	1.105289	7.37175e+06	-42889.1	1005.82	-29781.1	0.000000	0.000000	7.117679	295.977	NaN	0.000000	0.001542	0.001764	28.0827	61.4146	0.001808	33974.3	3.413502	175.962	293.65	1.104899	0.083042	0.082653	295.977	33974.3	0.076508	0.191566	1545.04	70919.4
684	2.000000	1.107280	7.37175e+06	-42889.1	1005.82	-29781.1	0.000000	0.000000	7.120469	315.413	NaN	0.000000	0.001559	0.001741	28.083	62.7147	0.001736	36125.4	4.065786	175.743	311.816	1.106951	0.085033	0.084704	315.413	36125.4	0.078485	0.200305	1574.67	73746.2
684	2.000000	1.109253	7.37175e+06	-42889.1	1005.82	-29781.1	0.000000	0.000000	7.123383	338.307	NaN	0.000000	0.001518	0.001737	28.0826	64.3143	0.001843	34898	4.956531	175.101	334.949	1.108880	0.087006	0.086633	338.307	34898	0.079736	0.205930	1642.82	70260.9
684	2.000000	1.111250	7.37175e+06	-42889.1	1005.82	-29781.1	0.000000	0.000000	7.126117	356.249	NaN	0.000000	0.001530	0.001712	28.0835	66.7772	0.001814	36804	7.203059	172.802	352.452	1.110921	0.089003	0.088674	356.249	36804	0.081743	0.215111	1656.12	72499.8
684	2.000000	1.113196	7.37175e+06	-42889.1	1005.82	-29781.1	0.000000	0.000000	7.128833	374.972	NaN	0.000000	0.001555	0.001756	28.084	67.0019	0.001816	36897.3	5.115911	173.868	368.8	1.112883	0.090949	0.090636	374.972	36897.3	0.083327	0.222486	1685.38	71468.9
684	2.000000	1.115290	7.37175e+06	-42889.1	1005.82	-29781.1	0.000000	0.000000	7.131770	395.482	NaN	0.000000	0.001610	0.001730	28.084	69.8855	0.001827	38242.4	5.362891	173.66	393.589	1.114966	0.093043	0.092720	395.482	38242.4	0.085287	0.231772	1706.34	72575.1
684	2.000000	1.117320	7.37175e+06	-42889.1	1005.82	-29781.1	0.000000	0.000000	7.134838	420.72	NaN	0.000000	0.001612	0.001741	28.0843	71.7847	0.001882	38146.1	4.148795	174.908	420.319	1.116962	0.095074	0.094715	420.72	38146.1	0.086802	0.239072	1759.81	71278.6
684	2.000000	1.119273	7.37175e+06	-42889.1	1005.82	-29781.1	0.000000	0.000000	7.137947	448.841	NaN	0.000000	0.001606	0.001755	28.084	74.0173	0.001836	40304	7.146107	172.493	447.891	1.118823	0.097027	0.096576	448.841	40304	0.088674	0.248241	1808.08	73906.8
684	2.000000	1.121168	7.37175e+06	-42889.1	1005.82	-29781.1	0.000000	0.000000	7.140192	457.367	NaN	0.000000	0.001608	0.001746	28.0844	74.1804	0.001851	40074.6	2.191518	176.472	450.209	1.120939	0.098922	0.098692	457.367	40074.6	0.090362	0.256642	1782.12	72273.4
684	2.000000	1.123162	7.37175e+06	-42889.1	1005.82	-29781.1	0.000000	0.000000	7.143360	485.947	NaN	0.000000	0.001609	0.001756	28.0839	75.4413	0.001734	43516.9	4.467021	173.984	476.702	1.122900	0.100915	0.100654	485.947	43516.9	0.092540	0.267677	1815.42	76846.8
684	2.000000	1.125131	7.37175e+06	-42889.1	1005.82	-29781.1	0.000000	0.000000	7.145830	498.115	NaN	0.000000	0.001579	0.001744	28.0841	77.7187	0.001875	41445.8	2.250587	175.929	491.194	1.124947	0.102885	0.102700	498.115	41445.8	0.093871	0.274529	1814.44	72270.3
684	2.000000	1.127262	7.37175e+06	-42889.1	1005.82	-29781.1	0.000000	0.000000	7.148788	518.243	NaN	0.000000	0.001601	0.001745	28.0842	79.2652	0.001807	43862.9	3.391972	174.827	514.384	1.126964	0.105016	0.104718	518.243	43862.9	0.096154	0.286470	1809.06	74874
684	2.000000	1.129350	7.37175e+06	-42889.1	1005.82	-29781.1	0.000000	0.000000	7.151490	533.196	NaN	0.000000	0.001598	0.001769	28.0841	80.5339	0.001774	45403.8	3.662424	173.744	536.103	1.129219	0.107103	0.106973	533.196	45403.8	0.098295	0.297883	1789.95	76005.1
684	2.000000	1.131196	7.37175e+06	-42889.1	1005.82	-29781.1	0.000000	0.000000	7.155022	574.221	NaN	0.000000	0.001577	0.001733	28.0846	83.1442	0.001837	45265.6	3.563827	174.496	569.044	1.130826	0.108949	0.108579	574.221	45265.6	0.099435	0.304044	1888.61	75002.2
684	2.000000	1.133226	7.37175e+06	-42889.1	1005.82	-29781.1	0.000000	0.000000	7.157870	594.101	NaN	0.000000	0.001619	0.001745	28.0841	84.3706	0.001762	47887.9	5.605882	171.381	590.656	1.132962	0.110979	0.110715	594.101	47887.9	0.101675	0.316322	1878.15	77791.9
684	2.000000	1.135139	7.37175e+06	-42889.1	1005.82	-29781.1	0.000000	0.000000	7.161049	624.906	NaN	0.000000	0.001598	0.001706	28.0842	87.6253	0.001780	49239.5	5.170541	172.386	617.084	1.134887	0.112892	0.112640	624.906	49239.5	0.103374	0.325788	1918.14	78816.9
684	2.000000	1.137353	7.37175e+06	-42889.1	1005.82	-29781.1	0.000000	0.000000	7.164209	647.912	NaN	0.000000	0.001571	0.001711	28.0839	90.9064	0.001818	49998.5	8.106767	170.519	649.327	1.136919	0.115107	0.114672	647.912	49998.5	0.105388	0.337179	1921.57	78668.3
684	2.000000	1.139108	7.37175e+06	-42889.1	1005.82	-29781.1	0.000000	0.000000	7.166429	659.235	NaN	0.000000	0.001572	0.001743	28.084	90.9691	0.001843	49352.7	2.513533	175.053	650.082	1.138782	0.116861	0.116536	659.235	49352.7	0.106843	0.345525	1907.92	76708.6