File: remote_trans/data/nanoindenter/0828-1/data/Data_2025-08-06,11h17m57s/2025-07-22_16-23-58_1_606.txt
2025-07-22, 16:23:58, 1
Index	Phase	Displacement	Time	Pos X	Pos Y	Pos Z	Rot A	Rot B	Piezo Z	Force A	Force B	Gripper	Voltage A	Voltage B	Temperature	Amplitude force	Amplitude pos	Stiffness	Phase shift	Phase excitation	Force A raw	Displacement raw	HMax	HMax raw	Real Force	Real Stiffness	Contact Depth	Area	Hardness	Reduced Mod.
[#]	[#]	[um]	[s]	[um]	[um]	[um]	[m°]	[m°]	[um]	[uN]	[uN]	[V]	[V]	[V]	[°C]	[uN]	[um]	[N/m]	[°]	[°]	[uN]	[um]	[um]	[um]	[uN]	[N/m]	[um]	[um^2]	[MPa]	[MPa]
606	1.000000	0.002940	7.37098e+06	-46789.1	1005.82	-29768.2	0.000000	0.000000	6.002774	-0.010047	NaN	0.000000	0.001601	0.001749	28.0795	0.035367	0.000888	39.8337	-47.3278	-166.3	-0.015429	0.001742	-1.045952	-1.047149	-0.010047	39.8337	-1.045763	-9.363779E+13	1.073008E-16	NaN
606	1.000000	0.010927	7.37098e+06	-46789.1	1005.82	-29768.2	0.000000	0.000000	6.010763	0.042380	NaN	0.000000	0.001581	0.001774	28.0795	0.018684	0.000961	19.4413	29.0116	-162.359	0.058430	0.009591	-1.037965	-1.039300	0.042380	19.4413	-1.039600	-7.737262E+13	-5.477332E-16	NaN
606	1.000000	0.018939	7.37098e+06	-46789.1	1005.82	-29768.2	0.000000	0.000000	6.018775	0.015422	NaN	0.000000	0.001536	0.001732	28.0794	0.098897	0.001806	54.7662	-95.6696	-162.994	0.066312	0.017624	-1.029952	-1.031268	0.015422	54.7662	-1.030164	-5.776703E+13	-2.669612E-16	NaN
606	1.000000	0.026964	7.37098e+06	-46789.1	1005.82	-29768.2	0.000000	0.000000	6.026800	0.009061	NaN	0.000000	0.001554	0.001796	28.0795	0.055686	0.001746	31.8895	-178.188	-164.685	0.146113	0.025626	-1.021927	-1.023265	0.009061	31.8895	-1.022140	-4.505555E+13	-2.011181E-16	NaN
606	1.000000	0.034935	7.37098e+06	-46789.1	1005.82	-29768.2	0.000000	0.000000	6.034769	-0.019486	NaN	0.000000	0.001563	0.001783	28.0793	0.127544	0.001901	67.095	144.417	-166.261	-0.016668	0.033550	-1.013957	-1.015342	-0.019486	67.095	-1.013739	-3.472995E+13	5.610604E-16	NaN
606	1.000000	0.042926	7.37098e+06	-46789.1	1005.82	-29768.2	0.000000	0.000000	6.042763	0.030273	NaN	0.000000	0.001544	0.001756	28.0795	0.117459	0.001989	59.061	-131.13	-165.728	0.047351	0.041588	-1.005965	-1.007303	0.030273	59.061	-1.006350	-2.762157E+13	-1.095976E-15	NaN
606	1.000000	0.050933	7.37098e+06	-46789.1	1005.82	-29768.2	0.000000	0.000000	6.050769	0.017106	NaN	0.000000	0.001562	0.001774	28.0795	0.108056	0.001973	54.7738	112.504	-167.022	0.006573	0.049582	-0.997959	-0.999309	0.017106	54.7738	-0.998193	-2.145053E+13	-7.974794E-16	NaN
606	1.000000	0.058908	7.37098e+06	-46789.1	1005.82	-29768.2	0.000000	0.000000	6.058743	0.001229	NaN	0.000000	0.001564	0.001758	28.0794	0.050634	0.002094	24.1755	50.0315	-162.318	-0.042251	0.057679	-0.989984	-0.991212	0.001229	24.1755	-0.990022	-1.664974E+13	-7.382875E-17	NaN
606	1.000000	0.066924	7.37098e+06	-46789.1	1005.82	-29768.2	0.000000	0.000000	6.066760	0.025965	NaN	0.000000	0.001572	0.001796	28.0794	0.107696	0.002039	52.8217	-27.8972	-163.192	0.006509	0.065598	-0.981968	-0.983294	0.025965	52.8217	-0.982336	-1.311852E+13	-1.979275E-15	NaN
606	1.000000	0.074924	7.37098e+06	-46789.1	1005.82	-29768.2	0.000000	0.000000	6.074759	0.017913	NaN	0.000000	0.001554	0.001805	28.0792	0.081275	0.001985	40.9349	-75.2949	-164.669	0.036567	0.073615	-0.973968	-0.975277	0.017913	40.9349	-0.974296	-1.022254E+13	-1.752348E-15	NaN
606	1.000000	0.082932	7.37098e+06	-46789.1	1005.82	-29768.2	0.000000	0.000000	6.082767	-0.000143	NaN	0.000000	0.001590	0.001742	28.0782	0.058504	0.001833	31.9088	114.365	-168.98	-0.046504	0.081615	-0.965960	-0.967276	-0.000143	31.9088	-0.965956	-7.891563E+12	1.814961E-17	NaN
606	1.000000	0.090931	7.37098e+06	-46789.1	1005.82	-29768.2	0.000000	0.000000	6.090767	0.012737	NaN	0.000000	0.001554	0.001759	28.0776	0.008849	0.001935	4.573595	13.2434	-165.255	0.015977	0.089662	-0.957960	-0.959230	0.012737	4.573595	-0.960049	-6.569402E+12	-1.938828E-15	NaN
606	1.000000	0.098930	7.37098e+06	-46789.1	1005.82	-29768.2	0.000000	0.000000	6.098763	-0.042342	NaN	0.000000	0.001573	0.001743	28.0783	0.057929	0.002056	28.1719	-74.6931	-163.146	-0.075068	0.097610	-0.949962	-0.951281	-0.042342	28.1719	-0.948835	-4.637776E+12	9.129852E-15	NaN
606	1.000000	0.106909	7.37098e+06	-46789.1	1005.82	-29768.2	0.000000	0.000000	6.106744	0.007544	NaN	0.000000	0.001575	0.001749	28.0782	0.080237	0.001958	40.978	-145.947	-161.828	0.071969	0.105668	-0.941983	-0.943224	0.007544	40.978	-0.942121	-3.764875E+12	-2.003770E-15	NaN
606	1.000000	0.114964	7.37098e+06	-46789.1	1005.82	-29768.2	0.000000	0.000000	6.114801	0.028068	NaN	0.000000	0.001588	0.001736	28.0782	0.128568	0.002121	60.6051	-5.420453	-161.636	0.049293	0.113590	-0.933927	-0.935302	0.028068	60.6051	-0.934274	-2.950405E+12	-9.513166E-15	NaN
606	1.000000	0.122951	7.37098e+06	-46789.1	1005.82	-29768.2	0.000000	0.000000	6.122792	0.142719	NaN	0.000000	0.001572	0.001762	28.0783	0.072255	0.002030	35.5899	-63.1928	-163.24	0.103444	0.121628	-0.925940	-0.927263	0.142719	35.5899	-0.928948	-2.500316E+12	-5.708035E-14	NaN
606	1.000000	0.130945	7.37098e+06	-46789.1	1005.82	-29768.2	0.000000	0.000000	6.130779	-0.025943	NaN	0.000000	0.001572	0.001738	28.0784	0.131545	0.001885	69.7871	-156.911	-164.736	0.035262	0.129647	-0.917946	-0.919245	-0.025943	69.7871	-0.917667	-1.760797E+12	1.473386E-14	NaN
606	1.000000	0.138957	7.37098e+06	-46789.1	1005.82	-29768.2	0.000000	0.000000	6.138796	0.097593	NaN	0.000000	0.001564	0.001728	28.0784	0.068596	0.001953	35.1166	68.5977	-162.314	0.131074	0.137656	-0.909934	-0.911236	0.097593	35.1166	-0.912019	-1.477167E+12	-6.606745E-14	NaN
606	1.000000	0.146947	7.37098e+06	-46789.1	1005.82	-29768.2	0.000000	0.000000	6.146780	-0.049718	NaN	0.000000	0.001586	0.001756	28.0787	0.078517	0.001975	39.7651	139.207	-164.553	-0.046632	0.145673	-0.901945	-0.903219	-0.049718	39.7651	-0.901007	-1.048746E+12	4.740726E-14	NaN
606	1.000000	0.154939	7.37098e+06	-46789.1	1005.82	-29768.2	0.000000	0.000000	6.154775	0.022811	NaN	0.000000	0.001562	0.001770	28.0787	0.091328	0.001900	48.0785	83.3318	-166.982	0.081026	0.153676	-0.893953	-0.895216	0.022811	48.0785	-0.894309	-8.514387E+11	-2.679065E-14	NaN
606	1.000000	0.162955	7.37098e+06	-46789.1	1005.82	-29768.2	0.000000	0.000000	6.162790	-0.005347	NaN	0.000000	0.001593	0.001746	28.0782	0.056197	0.002021	27.802	116.251	-161.379	-0.115466	0.161644	-0.885937	-0.887247	-0.005347	27.802	-0.885792	-6.531790E+11	8.186122E-15	NaN
606	1.000000	0.170970	7.37098e+06	-46789.1	1005.82	-29768.2	0.000000	0.000000	6.170805	0.004186	NaN	0.000000	0.001594	0.001747	28.0783	0.025561	0.001981	12.9032	-130.64	-164.496	0.025146	0.169615	-0.877922	-0.879276	0.004186	12.9032	-0.878165	-5.151002E+11	-8.126884E-15	NaN
606	1.000000	0.178970	7.37098e+06	-46789.1	1005.82	-29768.2	0.000000	0.000000	6.178805	-0.008375	NaN	0.000000	0.001557	0.001761	28.0781	0.069912	0.002080	33.6063	152.491	-166.816	0.055077	0.177636	-0.869921	-0.871255	-0.008375	33.6063	-0.869734	-3.961382E+11	2.114087E-14	NaN
606	1.000000	0.186959	7.37098e+06	-46789.1	1005.82	-29768.2	0.000000	0.000000	6.186795	0.003202	NaN	0.000000	0.001551	0.001759	28.0783	0.012629	0.002079	6.074145	-13.6815	-162.896	-0.052934	0.185623	-0.861932	-0.863269	0.003202	6.074145	-0.862328	-3.145017E+11	-1.018233E-14	NaN
606	1.000000	0.194954	7.37098e+06	-46789.1	1005.82	-29768.2	0.000000	0.000000	6.194791	0.066208	NaN	0.000000	0.001549	0.001740	28.0782	0.056340	0.002072	27.1963	-22.2287	-164.201	0.026517	0.193656	-0.853938	-0.855235	0.066208	27.1963	-0.855764	-2.563173E+11	-2.583059E-13	NaN
606	1.000000	0.202953	7.37098e+06	-46789.1	1005.82	-29768.2	0.000000	0.000000	6.202792	0.082765	NaN	0.000000	0.001498	0.001752	28.0781	0.068761	0.001986	34.6287	59.5125	-166.913	0.025547	0.201658	-0.845938	-0.847234	0.082765	34.6287	-0.847731	-1.995285E+11	-4.148025E-13	NaN
606	1.000000	0.210960	7.37098e+06	-46789.1	1005.82	-29768.2	0.000000	0.000000	6.210797	0.039460	NaN	0.000000	0.001557	0.001731	28.0783	0.095102	0.002009	47.3334	49.0101	-164.307	0.073389	0.209630	-0.837931	-0.839261	0.039460	47.3334	-0.838556	-1.498763E+11	-2.632850E-13	NaN
606	1.000000	0.218978	7.37098e+06	-46789.1	1005.82	-29768.2	0.000000	0.000000	6.218810	-0.080723	NaN	0.000000	0.001606	0.001720	28.0792	0.120336	0.001986	60.5995	169.141	-163.865	-0.114004	0.217650	-0.829914	-0.831241	-0.080723	60.5995	-0.828915	-1.109362E+11	7.276501E-13	NaN
606	1.000000	0.226972	7.37098e+06	-46789.1	1005.82	-29768.2	0.000000	0.000000	6.226808	0.011639	NaN	0.000000	0.001593	0.001744	28.0795	0.033159	0.001930	17.1797	-63.3517	-164.076	-0.021632	0.225713	-0.821919	-0.823178	0.011639	17.1797	-0.822427	-9.059943E+10	-1.284683E-13	NaN
606	1.000000	0.234968	7.37098e+06	-46789.1	1005.82	-29768.2	0.000000	0.000000	6.234805	0.047519	NaN	0.000000	0.001591	0.001728	28.0792	0.002503	0.002031	1.232390	-138.801	-162.303	-0.032897	0.233673	-0.813924	-0.815219	0.047519	1.232390	-0.842843	-1.713170E+11	-2.773772E-13	NaN
606	1.000000	0.242979	7.37098e+06	-46789.1	1005.82	-29768.2	0.000000	0.000000	6.242817	0.055350	NaN	0.000000	0.001495	0.001705	28.0795	0.057850	0.002028	28.53	-46.6287	-163.694	-0.004219	0.241709	-0.805912	-0.807183	0.055350	28.53	-0.807367	-5.660456E+10	-9.778297E-13	NaN
606	1.000000	0.251007	7.37098e+06	-46789.1	1005.82	-29768.2	0.000000	0.000000	6.250844	0.059817	NaN	0.000000	0.001516	0.001706	28.0794	0.129044	0.002001	64.4885	-178.034	-165.856	0.076507	0.249715	-0.797885	-0.799176	0.059817	64.4885	-0.798580	-4.301208E+10	-1.390692E-12	NaN
606	1.000000	0.259005	7.37098e+06	-46789.1	1005.82	-29768.2	0.000000	0.000000	6.258840	-0.016981	NaN	0.000000	0.001530	0.001715	28.0793	0.084169	0.001934	43.5098	149.674	-167.856	0.007071	0.257648	-0.789886	-0.791243	-0.016981	43.5098	-0.789593	-3.247597E+10	5.228757E-13	NaN
606	1.000000	0.266996	7.37098e+06	-46789.1	1005.82	-29768.2	0.000000	0.000000	6.266833	0.046931	NaN	0.000000	0.001528	0.001775	28.0796	0.059317	0.002073	28.6159	-19.9415	-163.672	0.007548	0.265659	-0.781895	-0.783232	0.046931	28.6159	-0.783125	-2.652768E+10	-1.769127E-12	NaN
606	1.000000	0.274984	7.37098e+06	-46789.1	1005.82	-29768.2	0.000000	0.000000	6.274824	0.096056	NaN	0.000000	0.001504	0.001758	28.0793	0.090538	0.001859	48.7153	-151.457	-167.551	0.082724	0.273678	-0.773907	-0.775214	0.096056	48.7153	-0.775386	-2.082203E+10	-4.613206E-12	NaN
606	1.000000	0.283019	7.37098e+06	-46789.1	1005.82	-29768.2	0.000000	0.000000	6.282857	0.053692	NaN	0.000000	0.001530	0.001723	28.0798	0.076415	0.002028	37.6866	134.493	-168.269	-0.007727	0.281625	-0.765872	-0.767266	0.053692	37.6866	-0.766941	-1.598470E+10	-3.358962E-12	NaN
606	1.000000	0.291026	7.37098e+06	-46789.1	1005.82	-29768.2	0.000000	0.000000	6.290860	-0.027155	NaN	0.000000	0.001547	0.001764	28.0793	0.154745	0.002012	76.8998	-16.0836	-166.136	-0.039049	0.289704	-0.757866	-0.759188	-0.027155	76.8998	-0.757601	-1.193066E+10	2.276029E-12	NaN
606	1.000000	0.299027	7.37098e+06	-46789.1	1005.82	-29768.2	0.000000	0.000000	6.298861	-0.018739	NaN	0.000000	0.001495	0.001780	28.0795	0.060537	0.002019	29.978	-106.265	-164.656	0.019290	0.297729	-0.749865	-0.751163	-0.018739	29.978	-0.749396	-9.225597E+9	2.031194E-12	NaN
606	1.000000	0.307013	7.37098e+06	-46789.1	1005.82	-29768.2	0.000000	0.000000	6.306849	0.016787	NaN	0.000000	0.001527	0.001742	28.0796	0.034221	0.001959	17.4667	20.4482	-165.588	-0.045069	0.305739	-0.741879	-0.743153	0.016787	17.4667	-0.742599	-7.455173E+9	-2.251703E-12	NaN
606	1.000000	0.315012	7.37098e+06	-46789.1	1005.82	-29768.2	0.000000	0.000000	6.314846	-0.026330	NaN	0.000000	0.001500	0.001799	28.0793	0.065792	0.002028	32.4405	-157.454	-165.258	-0.069514	0.313720	-0.733879	-0.735172	-0.026330	32.4405	-0.733270	-5.563875E+9	4.732287E-12	NaN
606	1.000000	0.322991	7.37098e+06	-46789.1	1005.82	-29768.2	0.000000	0.000000	6.322824	-0.054725	NaN	0.000000	0.001576	0.001799	28.0797	0.067453	0.001854	36.3784	44.8277	-166.996	-0.018910	0.321763	-0.725900	-0.727128	-0.054725	36.3784	-0.724772	-4.261290E+9	1.284231E-11	NaN
606	1.000000	0.331018	7.37098e+06	-46789.1	1005.82	-29768.2	0.000000	0.000000	6.330852	-0.040749	NaN	0.000000	0.001562	0.001832	28.0795	0.050278	0.001999	25.1552	-44.592	-164.708	-0.095262	0.329693	-0.717873	-0.719198	-0.040749	25.1552	-0.716658	-3.302903E+9	1.233737E-11	NaN
606	1.000000	0.339026	7.37098e+06	-46789.1	1005.82	-29768.2	0.000000	0.000000	6.338859	-0.035771	NaN	0.000000	0.001574	0.001813	28.0797	0.054595	0.002217	24.625	-156.488	-165.293	-0.038832	0.337718	-0.709866	-0.711173	-0.035771	24.625	-0.708777	-2.578403E+9	1.387333E-11	NaN
606	1.000000	0.347027	7.37098e+06	-46789.1	1005.82	-29768.2	0.000000	0.000000	6.346861	-0.026285	NaN	0.000000	0.001574	0.001788	28.0797	0.042075	0.001907	22.0679	-177.142	-165.019	0.067776	0.345747	-0.701865	-0.703145	-0.026285	22.0679	-0.700971	-2.017428E+9	1.302879E-11	NaN
606	1.000000	0.355018	7.37098e+06	-46789.1	1005.82	-29768.2	0.000000	0.000000	6.354854	0.026147	NaN	0.000000	0.001584	0.001833	28.0784	0.078467	0.001872	41.9165	-45.611	-171.753	-0.023498	0.353681	-0.693874	-0.695210	0.026147	41.9165	-0.694341	-1.637723E+9	-1.596522E-11	NaN
606	1.000000	0.363032	7.37098e+06	-46789.1	1005.82	-29768.2	0.000000	0.000000	6.362868	0.026313	NaN	0.000000	0.001577	0.001793	28.0784	0.043555	0.002073	21.0095	124.333	-166.092	-0.026675	0.361737	-0.685859	-0.687155	0.026313	21.0095	-0.686799	-1.291700E+9	-2.037076E-11	NaN
606	1.000000	0.371043	7.37098e+06	-46789.1	1005.82	-29768.2	0.000000	0.000000	6.370878	-0.006888	NaN	0.000000	0.001586	0.001783	28.0782	0.100344	0.001972	50.8776	-94.125	-165.846	0.032587	0.369739	-0.677848	-0.679152	-0.006888	50.8776	-0.677747	-9.713687E+8	7.090834E-12	NaN
606	1.000000	0.379034	7.37098e+06	-46789.1	1005.82	-29768.2	0.000000	0.000000	6.378872	0.059322	NaN	0.000000	0.001509	0.001815	28.0782	0.033777	0.001841	18.35	6.732369	-165.556	0.043155	0.377745	-0.669857	-0.671146	0.059322	18.35	-0.672282	-8.177461E+8	-7.254285E-11	NaN
606	1.000000	0.387083	7.37098e+06	-46789.1	1005.82	-29768.2	0.000000	0.000000	6.386919	0.020363	NaN	0.000000	0.001508	0.001805	28.0781	0.015207	0.002121	7.169895	130.261	-162.847	0.015017	0.385711	-0.661809	-0.663180	0.020363	7.169895	-0.663939	-6.286547E+8	-3.239203E-11	NaN
606	1.000000	0.395045	7.37098e+06	-46789.1	1005.82	-29768.2	0.000000	0.000000	6.394880	0.007861	NaN	0.000000	0.001463	0.001784	28.078	0.064616	0.001923	33.6021	-105.49	-163.888	0.050678	0.393733	-0.653847	-0.655158	0.007861	33.6021	-0.654022	-4.597963E+8	-1.709578E-11	NaN
606	1.000000	0.403033	7.37098e+06	-46789.1	1005.82	-29768.2	0.000000	0.000000	6.402866	-0.044709	NaN	0.000000	0.001496	0.001769	28.0779	0.056529	0.002046	27.6347	-136.839	-166.536	-0.038822	0.401712	-0.645859	-0.647179	-0.044709	27.6347	-0.644645	-3.419896E+8	1.307330E-10	NaN
606	1.000000	0.411063	7.37098e+06	-46789.1	1005.82	-29768.2	0.000000	0.000000	6.410898	-0.018374	NaN	0.000000	0.001502	0.001772	28.0783	0.036234	0.002036	17.8006	148.464	-163.038	-0.075926	0.409734	-0.637828	-0.639158	-0.018374	17.8006	-0.637054	-2.690684E+8	6.828735E-11	NaN
606	1.000000	0.419043	7.37098e+06	-46789.1	1005.82	-29768.2	0.000000	0.000000	6.418880	0.036838	NaN	0.000000	0.001515	0.001768	28.0782	0.202205	0.002068	97.7779	-43.083	-162.982	0.036782	0.417745	-0.629849	-0.631147	0.036838	97.7779	-0.630131	-2.161850E+8	-1.703984E-10	NaN
606	1.000000	0.427087	7.37098e+06	-46789.1	1005.82	-29768.2	0.000000	0.000000	6.426925	0.084261	NaN	0.000000	0.001522	0.001819	28.0781	0.071812	0.002015	35.6395	-111.912	-163.523	0.097524	0.425776	-0.621805	-0.623115	0.084261	35.6395	-0.623578	-1.757133E+8	-4.795374E-10	NaN
606	1.000000	0.435102	7.37098e+06	-46789.1	1005.82	-29768.2	0.000000	0.000000	6.434938	0.020935	NaN	0.000000	0.001538	0.001788	28.0783	0.041509	0.001930	21.5031	-126.704	-166.152	0.039922	0.433822	-0.613790	-0.615069	0.020935	21.5031	-0.614520	-1.319142E+8	-1.587041E-10	NaN
606	1.000000	0.443068	7.37098e+06	-46789.1	1005.82	-29768.2	0.000000	0.000000	6.442906	0.047632	NaN	0.000000	0.001537	0.001780	28.0781	0.017317	0.001944	8.906096	-37.76	-167.876	-0.026539	0.441814	-0.605823	-0.607078	0.047632	8.906096	-0.609834	-1.137191E+8	-4.188595E-10	NaN
606	1.000000	0.451104	7.37098e+06	-46789.1	1005.82	-29768.2	0.000000	0.000000	6.450940	0.015414	NaN	0.000000	0.001526	0.001786	28.0781	0.060194	0.002091	28.7849	-113.713	-163.464	0.027284	0.449767	-0.597787	-0.599124	0.015414	28.7849	-0.598189	-7.861703E+7	-1.960618E-10	NaN
606	1.000000	0.459094	7.37098e+06	-46789.1	1005.82	-29768.2	0.000000	0.000000	6.458930	0.028207	NaN	0.000000	0.001541	0.001793	28.0783	0.015368	0.001984	7.747190	88.9221	-163.736	-0.041041	0.457748	-0.589798	-0.591143	0.028207	7.747190	-0.592529	-6.569340E+7	-4.293667E-10	NaN
606	1.000000	0.467087	7.37098e+06	-46789.1	1005.82	-29768.2	0.000000	0.000000	6.466921	-0.031943	NaN	0.000000	0.001501	0.001774	28.0781	0.061497	0.001970	31.2139	-132.737	-164.863	-0.064283	0.465763	-0.581805	-0.583129	-0.031943	31.2139	-0.581037	-4.560805E+7	7.003699E-10	NaN
606	1.000000	0.475103	7.37098e+06	-46789.1	1005.82	-29768.2	0.000000	0.000000	6.474938	-0.002511	NaN	0.000000	0.001519	0.001731	28.0784	0.024774	0.002015	12.296	-135.995	-166.604	0.010058	0.473818	-0.573788	-0.575073	-0.002511	12.296	-0.573635	-3.604546E+7	6.966875E-11	NaN
606	1.000000	0.483123	7.37098e+06	-46789.1	1005.82	-29768.2	0.000000	0.000000	6.482960	0.037345	NaN	0.000000	0.001519	0.001770	28.0781	0.049041	0.001886	26.0038	59.4536	-164.03	0.055434	0.481764	-0.565768	-0.567128	0.037345	26.0038	-0.566846	-2.904280E+7	-1.285848E-9	NaN
606	1.000000	0.491097	7.37098e+06	-46789.1	1005.82	-29768.2	0.000000	0.000000	6.490933	0.009448	NaN	0.000000	0.001505	0.001769	28.0793	0.025729	0.001912	13.4593	48.0605	-166.058	-0.004002	0.489792	-0.557794	-0.559100	0.009448	13.4593	-0.558321	-2.213842E+7	-4.267550E-10	NaN
606	1.000000	0.499100	7.37098e+06	-46789.1	1005.82	-29768.2	0.000000	0.000000	6.498936	0.027922	NaN	0.000000	0.001516	0.001736	28.0795	0.160945	0.002032	79.2082	-3.045928	-166.234	0.024787	0.497778	-0.549792	-0.551113	0.027922	79.2082	-0.550056	-1.701127E+7	-1.641396E-9	NaN
606	1.000000	0.507088	7.37098e+06	-46789.1	1005.82	-29768.2	0.000000	0.000000	6.506923	-0.020792	NaN	0.000000	0.001539	0.001764	28.0795	0.091259	0.001731	52.7312	-135.887	-164.685	0.018030	0.505759	-0.541803	-0.543133	-0.020792	52.7312	-0.541507	-1.294973E+7	1.605622E-9	NaN
606	1.000000	0.515128	7.37098e+06	-46789.1	1005.82	-29768.2	0.000000	0.000000	6.514961	-0.052626	NaN	0.000000	0.001493	0.001770	28.0798	0.128789	0.002025	63.6026	12.6469	-165.115	0.002868	0.513820	-0.533763	-0.535071	-0.052626	63.6026	-0.533143	-9.91318e+06	5.308660E-9	NaN
606	1.000000	0.523122	7.37098e+06	-46789.1	1005.82	-29768.2	0.000000	0.000000	6.522957	-0.012947	NaN	0.000000	0.001550	0.001744	28.0795	0.124514	0.001909	65.2336	59.1415	-168.387	0.010303	0.521794	-0.525770	-0.527098	-0.012947	65.2336	-0.525621	-7.79358e+06	1.661200E-9	NaN
606	1.000000	0.531111	7.37098e+06	-46789.1	1005.82	-29768.2	0.000000	0.000000	6.530947	0.006811	NaN	0.000000	0.001499	0.001787	28.0797	0.097587	0.001996	48.8915	-25.7238	-167.013	-0.015304	0.529812	-0.517780	-0.519079	0.006811	48.8915	-0.517885	-6.08382e+06	-1.119601E-9	NaN
606	1.000000	0.539115	7.37098e+06	-46789.1	1005.82	-29768.2	0.000000	0.000000	6.538948	-0.046877	NaN	0.000000	0.001520	0.001777	28.0794	0.041418	0.001997	20.7349	-18.7617	-167.531	-0.042898	0.537828	-0.509776	-0.511063	-0.046877	20.7349	-0.508081	-4.44303e+06	1.055073E-8	NaN
606	1.000000	0.547101	7.37098e+06	-46789.1	1005.82	-29768.2	0.000000	0.000000	6.546937	0.037995	NaN	0.000000	0.001512	0.001780	28.0795	0.078125	0.001803	43.3264	66.5397	-162.638	-0.008643	0.545817	-0.501791	-0.503075	0.037995	43.3264	-0.502448	-3.70825e+06	-1.024597E-8	NaN
606	1.000000	0.555123	7.37098e+06	-46789.1	1005.82	-29768.2	0.000000	0.000000	6.554956	-0.053196	NaN	0.000000	0.001522	0.001799	28.0797	0.096485	0.001968	49.0285	125.983	-164.52	-0.028854	0.553829	-0.493769	-0.495063	-0.053196	49.0285	-0.492955	-2.73322e+06	1.946278E-8	NaN
606	1.000000	0.563108	7.37098e+06	-46789.1	1005.82	-29768.2	0.000000	0.000000	6.562947	0.091685	NaN	0.000000	0.001544	0.001738	28.0795	0.130233	0.001932	67.4023	151.925	-165.566	0.025743	0.561829	-0.485783	-0.487062	0.091685	67.4023	-0.486804	-2.2424e+06	-4.088721E-8	NaN
606	1.000000	0.571093	7.37098e+06	-46789.1	1005.82	-29768.2	0.000000	0.000000	6.570928	0.009679	NaN	0.000000	0.001519	0.001788	28.0798	0.013717	0.001954	7.020530	116.286	-169.534	0.051771	0.569857	-0.477799	-0.479035	0.009679	7.020530	-0.478833	-1.73453e+06	-5.580003E-9	NaN
606	1.000000	0.579116	7.37098e+06	-46789.1	1005.82	-29768.2	0.000000	0.000000	6.578952	0.019856	NaN	0.000000	0.001535	0.001805	28.0796	0.061447	0.001842	33.3539	-45.3252	-163.542	0.040491	0.577775	-0.469776	-0.471116	0.019856	33.3539	-0.470222	-1.31378e+06	-1.511335E-8	NaN
606	1.000000	0.587137	7.37098e+06	-46789.1	1005.82	-29768.2	0.000000	0.000000	6.586972	0.000591	NaN	0.000000	0.001603	0.001739	28.0795	0.118110	0.001871	63.1295	-62.1401	-159.284	0.049167	0.585801	-0.461755	-0.463091	0.000591	63.1295	-0.461762	-999475	-5.915524E-10	NaN
606	1.000000	0.595127	7.37098e+06	-46789.1	1005.82	-29768.2	0.000000	0.000000	6.594960	-0.044089	NaN	0.000000	0.001590	0.001753	28.0795	0.095874	0.001955	49.0469	156.451	-166.394	-0.007366	0.593846	-0.453765	-0.455045	-0.044089	49.0469	-0.453091	-754836	5.840926E-8	NaN
606	1.000000	0.603131	7.37098e+06	-46789.1	1005.82	-29768.2	0.000000	0.000000	6.602966	-0.006669	NaN	0.000000	0.001595	0.001747	28.0795	0.116335	0.002042	56.984	-162.11	-163.629	0.033241	0.601813	-0.445761	-0.447079	-0.006669	56.984	-0.445673	-593439	1.123742E-8	NaN
606	1.000000	0.611136	7.37098e+06	-46789.1	1005.82	-29768.2	0.000000	0.000000	6.610971	-0.010135	NaN	0.000000	0.001569	0.001794	28.0799	0.069119	0.002146	32.2096	-11.7978	-164.161	0.028457	0.609862	-0.437755	-0.439029	-0.010135	32.2096	-0.437519	-455343	2.225766E-8	NaN
606	1.000000	0.619131	7.37098e+06	-46789.1	1005.82	-29768.2	0.000000	0.000000	6.618965	-0.031555	NaN	0.000000	0.001558	0.001777	28.0794	0.032755	0.002019	16.226	-109.579	-167.915	0.038653	0.617851	-0.429761	-0.431040	-0.031555	16.226	-0.428302	-337317	9.354645E-8	NaN
606	1.000000	0.627144	7.37098e+06	-46789.1	1005.82	-29768.2	0.000000	0.000000	6.626977	-0.050828	NaN	0.000000	0.001582	0.001748	28.0787	0.029980	0.002052	14.6071	-25.2276	-168.309	-0.027025	0.625870	-0.421748	-0.423022	-0.050828	14.6071	-0.419138	-250142	2.031979E-7	NaN
606	1.000000	0.635142	7.37098e+06	-46789.1	1005.82	-29768.2	0.000000	0.000000	6.634978	0.002236	NaN	0.000000	0.001582	0.001717	28.0781	0.145527	0.002090	69.6326	122.918	-166.557	-0.002931	0.633834	-0.413749	-0.415057	0.002236	69.6326	-0.413773	-209909	-1.065075E-8	NaN
606	1.000000	0.643159	7.37098e+06	-46789.1	1005.82	-29768.2	0.000000	0.000000	6.642992	-0.041578	NaN	0.000000	0.001565	0.001758	28.0782	0.117352	0.002068	56.7504	138.118	-167.745	0.028467	0.641872	-0.405733	-0.407020	-0.041578	56.7504	-0.405183	-158437	2.624255E-7	NaN
606	1.000000	0.651197	7.37098e+06	-46789.1	1005.82	-29768.2	0.000000	0.000000	6.651032	-0.008547	NaN	0.000000	0.001581	0.001718	28.0781	0.035472	0.002082	17.0334	117.848	-166.252	-0.038664	0.649905	-0.397694	-0.398987	-0.008547	17.0334	-0.397318	-122384	6.984105E-8	NaN
606	1.000000	0.659192	7.37098e+06	-46789.1	1005.82	-29768.2	0.000000	0.000000	6.659027	-0.024026	NaN	0.000000	0.001593	0.001781	28.0784	0.075925	0.001946	39.0152	-60.2356	-165.116	0.014469	0.657896	-0.389699	-0.390995	-0.024026	39.0152	-0.389237	-93811.2	2.561114E-7	NaN
606	1.000000	0.667168	7.37098e+06	-46789.1	1005.82	-29768.2	0.000000	0.000000	6.667004	0.005261	NaN	0.000000	0.001570	0.001782	28.0786	0.113201	0.002053	55.1271	-5.208188	-167.126	0.005436	0.665841	-0.381723	-0.383050	0.005261	55.1271	-0.381795	-73390	-7.169099E-8	NaN
606	1.000000	0.675162	7.37098e+06	-46789.1	1005.82	-29768.2	0.000000	0.000000	6.674998	0.019231	NaN	0.000000	0.001567	0.001771	28.0783	0.059303	0.001971	30.0885	138.677	-164.239	-0.014673	0.673876	-0.373730	-0.375016	0.019231	30.0885	-0.374209	-57108.6	-3.367403E-7	NaN
606	1.000000	0.683179	7.37098e+06	-46789.1	1005.82	-29768.2	0.000000	0.000000	6.683013	-0.017941	NaN	0.000000	0.001587	0.001791	28.0785	0.151443	0.002172	69.7349	162.755	-163.976	0.062718	0.681906	-0.365712	-0.366985	-0.017941	69.7349	-0.365519	-42810.3	4.190901E-7	NaN
606	1.000000	0.691178	7.37098e+06	-46789.1	1005.82	-29768.2	0.000000	0.000000	6.691014	0.016087	NaN	0.000000	0.001586	0.001757	28.0784	0.041360	0.002017	20.5013	35.5528	-164.616	-0.009778	0.689888	-0.357713	-0.359003	0.016087	20.5013	-0.358302	-33673.3	-4.777237E-7	NaN
606	1.000000	0.699189	7.37098e+06	-46789.1	1005.82	-29768.2	0.000000	0.000000	6.699027	0.064703	NaN	0.000000	0.001599	0.001750	28.0784	0.003831	0.002004	1.911596	-84.0948	-163.041	0.043486	0.697880	-0.349702	-0.351011	0.064703	1.911596	-0.375088	-58794.5	-1.100500E-6	NaN
606	1.000000	0.707196	7.37098e+06	-46789.1	1005.82	-29768.2	0.000000	0.000000	6.707033	0.052288	NaN	0.000000	0.001523	0.001779	28.0786	0.092683	0.001967	47.1247	11.8874	-163.151	0.076191	0.705936	-0.341696	-0.342955	0.052288	47.1247	-0.342528	-19878.4	-2.630393E-6	NaN
606	1.000000	0.715205	7.37098e+06	-46789.1	1005.82	-29768.2	0.000000	0.000000	6.715040	0.003177	NaN	0.000000	0.001510	0.001778	28.0782	0.065388	0.002017	32.4209	14.986	-164.853	-0.034517	0.713827	-0.333687	-0.335064	0.003177	32.4209	-0.333760	-14807.1	-2.145479E-7	NaN
606	1.000000	0.723231	7.37098e+06	-46789.1	1005.82	-29768.2	0.000000	0.000000	6.723066	-0.018907	NaN	0.000000	0.001529	0.001795	28.0784	0.079886	0.002043	39.101	-170.621	-163.394	0.027076	0.721850	-0.325660	-0.327042	-0.018907	39.101	-0.325297	-11130.2	1.698691E-6	NaN
606	1.000000	0.731169	7.37098e+06	-46789.1	1005.82	-29768.2	0.000000	0.000000	6.731005	0.021314	NaN	0.000000	0.001553	0.001790	28.0785	0.049574	0.002094	23.6717	-160.249	-164.196	0.072199	0.729887	-0.317723	-0.319005	0.021314	23.6717	-0.318398	-8811.57	-2.418852E-6	NaN
606	1.000000	0.739175	7.37098e+06	-46789.1	1005.82	-29768.2	0.000000	0.000000	6.739010	-0.007589	NaN	0.000000	0.001519	0.001780	28.0785	0.066987	0.002099	31.9184	-41.9327	-163.916	0.008696	0.737943	-0.309717	-0.310949	-0.007589	31.9184	-0.309538	-6519.64	1.163965E-6	NaN
606	1.000000	0.747182	7.37098e+06	-46789.1	1005.82	-29768.2	0.000000	0.000000	6.747017	-0.008994	NaN	0.000000	0.001527	0.001742	28.0784	0.081722	0.001828	44.6962	93.6457	-164.971	0.046955	0.745870	-0.301710	-0.303022	-0.008994	44.6962	-0.301559	-4963.96	1.811857E-6	NaN
606	1.000000	0.755238	7.37098e+06	-46789.1	1005.82	-29768.2	0.000000	0.000000	6.755073	-0.004215	NaN	0.000000	0.001505	0.001765	28.0784	0.054181	0.001900	28.5124	164.34	-164.303	-0.005770	0.753924	-0.293654	-0.294967	-0.004215	28.5124	-0.293543	-3769.83	1.118096E-6	NaN
606	1.000000	0.763240	7.37098e+06	-46789.1	1005.82	-29768.2	0.000000	0.000000	6.763078	0.064711	NaN	0.000000	0.001527	0.001731	28.0794	0.067067	0.001950	34.3945	128.719	-163.581	0.020354	0.761854	-0.285651	-0.287038	0.064711	34.3945	-0.287062	-3014.73	-2.146505E-5	NaN
606	1.000000	0.771230	7.37098e+06	-46789.1	1005.82	-29768.2	0.000000	0.000000	6.771064	-0.026158	NaN	0.000000	0.001500	0.001843	28.0796	0.102945	0.001971	52.2185	3.495347	-165.035	-0.034554	0.769873	-0.277662	-0.279018	-0.026158	52.2185	-0.277286	-2147.75	1.217939E-5	NaN
606	1.000000	0.779238	7.37098e+06	-46789.1	1005.82	-29768.2	0.000000	0.000000	6.779075	0.041627	NaN	0.000000	0.001506	0.001785	28.0796	0.117491	0.001955	60.1017	103.773	-161.463	0.054238	0.777935	-0.269653	-0.270956	0.041627	60.1017	-0.270173	-1675.59	-2.484349E-5	NaN
606	1.000000	0.787215	7.37098e+06	-46789.1	1005.82	-29768.2	0.000000	0.000000	6.787053	0.058212	NaN	0.000000	0.001507	0.001794	28.0795	0.071474	0.002035	35.1211	86.7977	-166.388	0.001569	0.785891	-0.261676	-0.263000	0.058212	35.1211	-0.262920	-1299	-4.481294E-5	NaN
606	1.000000	0.795191	7.37098e+06	-46789.1	1005.82	-29768.2	0.000000	0.000000	6.795029	0.075643	NaN	0.000000	0.001527	0.001755	28.0796	0.069259	0.001888	36.6763	-41.2269	-165.487	0.103344	0.793913	-0.253701	-0.254978	0.075643	36.6763	-0.255247	-990.659	-7.635656E-5	NaN
606	1.000000	0.803199	7.37098e+06	-46789.1	1005.82	-29768.2	0.000000	0.000000	6.803035	0.016748	NaN	0.000000	0.001489	0.001783	28.081	0.087362	0.001998	43.7169	147.765	-164.517	-0.027678	0.801967	-0.245693	-0.246924	0.016748	43.7169	-0.245980	-712.317	-2.351234E-5	NaN
606	1.000000	0.811228	7.37098e+06	-46789.1	1005.82	-29768.2	0.000000	0.000000	6.811066	0.087491	NaN	0.000000	0.001523	0.001786	28.0836	0.095493	0.001923	49.6593	-33.7636	-161.607	0.050133	0.809917	-0.237664	-0.238974	0.087491	49.6593	-0.238985	-554.237	-0.000158	NaN
606	1.000000	0.819204	7.37098e+06	-46789.1	1005.82	-29768.2	0.000000	0.000000	6.819042	0.055648	NaN	0.000000	0.001525	0.001774	28.0806	0.022794	0.002031	11.2256	141.822	-163.514	0.005679	0.817905	-0.229687	-0.230987	0.055648	11.2256	-0.233405	-453.086	-0.000123	NaN
606	1.000000	0.827237	7.37098e+06	-46789.1	1005.82	-29768.2	0.000000	0.000000	6.827070	-0.046515	NaN	0.000000	0.001526	0.001726	28.0804	0.040120	0.002025	19.8079	93.6596	-166.921	-0.002348	0.825945	-0.221655	-0.222947	-0.046515	19.8079	-0.219893	-276.677	0.000168	NaN
606	1.000000	0.835231	7.37098e+06	-46789.1	1005.82	-29768.2	0.000000	0.000000	6.835068	0.036422	NaN	0.000000	0.001488	0.001793	28.0797	0.129520	0.002012	64.3893	-159.957	-162.395	-0.017297	0.833920	-0.213660	-0.214972	0.036422	64.3893	-0.214085	-223.246	-0.000163	NaN
606	1.000000	0.843235	7.37098e+06	-46789.1	1005.82	-29768.2	0.000000	0.000000	6.843069	-0.024446	NaN	0.000000	0.001503	0.001768	28.08	0.046487	0.001953	23.8049	76.0191	-165.125	0.058945	0.841947	-0.205656	-0.206944	-0.024446	23.8049	-0.204886	-158.38	0.000154	NaN
606	1.000000	0.851243	7.37098e+06	-46789.1	1005.82	-29768.2	0.000000	0.000000	6.851077	-0.030818	NaN	0.000000	0.001459	0.001789	28.0798	0.050708	0.001971	25.7274	130.833	-164.38	-0.064658	0.849988	-0.197648	-0.198904	-0.030818	25.7274	-0.196750	-116.453	0.000265	NaN
606	1.000000	0.859277	7.37098e+06	-46789.1	1005.82	-29768.2	0.000000	0.000000	6.859114	0.053422	NaN	0.000000	0.001523	0.001771	28.08	0.045789	0.002055	22.2803	129.492	-163.821	-0.012523	0.857969	-0.189615	-0.190922	0.053422	22.2803	-0.191413	-94.974	-0.000562	NaN
606	1.000000	0.867289	7.37098e+06	-46789.1	1005.82	-29768.2	0.000000	0.000000	6.867122	-0.043925	NaN	0.000000	0.001529	0.001753	28.0799	0.060235	0.002090	28.8161	-114.4	-165.989	-0.060779	0.865946	-0.181603	-0.182946	-0.043925	28.8161	-0.180460	-62.1274	0.000707	NaN
606	1.000000	0.875251	7.37098e+06	-46789.1	1005.82	-29768.2	0.000000	0.000000	6.875087	0.018769	NaN	0.000000	0.001559	0.001788	28.0796	0.057353	0.002012	28.5031	-164.925	-165.654	0.015100	0.873905	-0.173640	-0.174986	0.018769	28.5031	-0.174134	-48.4273	-0.000388	NaN
606	1.000000	0.883252	7.37098e+06	-46789.1	1005.82	-29768.2	0.000000	0.000000	6.883087	0.000116	NaN	0.000000	0.001543	0.001790	28.0799	0.054649	0.001915	28.54	-110.136	-164.103	-0.048448	0.881933	-0.165640	-0.166958	0.000116	28.54	-0.165643	-34.4815	-3.351352E-6	NaN
606	1.000000	0.891242	7.37098e+06	-46789.1	1005.82	-29768.2	0.000000	0.000000	6.891077	-0.008037	NaN	0.000000	0.001528	0.001779	28.0797	0.087417	0.001962	44.5586	70.6122	-169.676	-0.004150	0.889971	-0.157650	-0.158920	-0.008037	44.5586	-0.157514	-24.7559	0.000325	NaN
606	1.000000	0.899273	7.37098e+06	-46789.1	1005.82	-29768.2	0.000000	0.000000	6.899109	0.014626	NaN	0.000000	0.001488	0.001791	28.0797	0.107323	0.001892	56.7344	-139.93	-164.727	-0.056542	0.897927	-0.149618	-0.150964	0.014626	56.7344	-0.149812	-17.9708	-0.000814	NaN
606	1.000000	0.907262	7.37098e+06	-46789.1	1005.82	-29768.2	0.000000	0.000000	6.907096	-0.018409	NaN	0.000000	0.001521	0.001765	28.0785	0.037478	0.002082	17.9991	-83.9418	-166.304	0.027946	0.905909	-0.141630	-0.142983	-0.018409	17.9991	-0.140863	-12.2787	0.001499	NaN
606	1.000000	0.915271	7.37098e+06	-46789.1	1005.82	-29768.2	0.000000	0.000000	6.915106	0.018628	NaN	0.000000	0.001499	0.001778	28.0784	0.090735	0.002082	43.5767	99.5345	-166.203	-0.066231	0.913935	-0.133621	-0.134956	0.018628	43.5767	-0.133942	-9.079196	-0.002052	NaN
606	1.000000	0.923304	7.37098e+06	-46789.1	1005.82	-29768.2	0.000000	0.000000	6.923139	-0.019558	NaN	0.000000	0.001500	0.001760	28.0785	0.121809	0.002142	56.8677	117.497	-166.367	0.028954	0.921934	-0.125587	-0.126957	-0.019558	56.8677	-0.125329	-6.173130	0.003168	NaN
606	1.000000	0.931274	7.37098e+06	-46789.1	1005.82	-29768.2	0.000000	0.000000	6.931112	0.080959	NaN	0.000000	0.001521	0.001759	28.0783	0.024344	0.001947	12.5024	-0.162434	-164.31	0.073110	0.930002	-0.117618	-0.118890	0.080959	12.5024	-0.122475	-5.417211	-0.014945	NaN
606	1.000000	0.939303	7.37098e+06	-46789.1	1005.82	-29768.2	0.000000	0.000000	6.939140	0.037873	NaN	0.000000	0.001530	0.001776	28.0786	0.098917	0.002008	49.2645	-179.709	-165.855	0.009373	0.937950	-0.109588	-0.110941	0.037873	49.2645	-0.110165	-3.029345	-0.012502	NaN
606	1.000000	0.947280	7.37098e+06	-46789.1	1005.82	-29768.2	0.000000	0.000000	6.947115	0.001901	NaN	0.000000	0.001537	0.001756	28.0786	0.044063	0.001973	22.3323	-48.8188	-163.941	-0.071293	0.945981	-0.101612	-0.102911	0.001901	22.3323	-0.101675	-1.989515	-0.000956	NaN
606	1.000000	0.955283	7.37098e+06	-46789.1	1005.82	-29768.2	0.000000	0.000000	6.955116	-0.048730	NaN	0.000000	0.001526	0.001788	28.0787	0.087808	0.001989	44.1441	-179.529	-165.186	0.045964	0.953984	-0.093609	-0.094908	-0.048730	44.1441	-0.092781	-1.254662	0.038839	NaN
606	1.000000	0.963300	7.37098e+06	-46789.1	1005.82	-29768.2	0.000000	0.000000	6.963137	0.037836	NaN	0.000000	0.001559	0.001754	28.0784	0.111767	0.002024	55.225	11.9048	-160.468	0.087796	0.961940	-0.085592	-0.086951	0.037836	55.225	-0.086105	-0.873654	-0.043307	NaN
606	1.000000	0.971294	7.37098e+06	-46789.1	1005.82	-29768.2	0.000000	0.000000	6.971131	0.045736	NaN	0.000000	0.001536	0.001787	28.0783	0.059960	0.001960	30.5877	-78.2125	-166.247	0.060847	0.969973	-0.077597	-0.078918	0.045736	30.5877	-0.078719	-0.574791	-0.079569	NaN
606	1.000000	0.979314	7.37098e+06	-46789.1	1005.82	-29768.2	0.000000	0.000000	6.979146	-0.060043	NaN	0.000000	0.001523	0.001773	28.0784	0.042996	0.001978	21.7333	-98.3702	-165.149	-0.052036	0.978012	-0.069578	-0.070879	-0.060043	21.7333	-0.067506	-0.292071	0.205577	NaN
606	1.000000	0.987317	7.37098e+06	-46789.1	1005.82	-29768.2	0.000000	0.000000	6.987152	0.012182	NaN	0.000000	0.001538	0.001798	28.0784	0.015564	0.002196	7.087369	24.3046	-163.851	0.080224	0.986001	-0.061575	-0.062890	0.012182	7.087369	-0.062864	-0.217212	-0.056083	NaN
606	1.000000	0.995332	7.37098e+06	-46789.1	1005.82	-29768.2	0.000000	0.000000	6.995167	-0.024126	NaN	0.000000	0.001512	0.001778	28.0789	0.013225	0.001909	6.927115	129.551	-167.881	0.045013	0.993999	-0.053559	-0.054892	-0.024126	6.927115	-0.050947	-0.097459	0.247549	NaN
606	1.000000	1.003332	7.37098e+06	-46789.1	1005.82	-29768.2	0.000000	0.000000	7.003168	0.018419	NaN	0.000000	0.001527	0.001764	28.0786	0.068963	0.001948	35.3998	-65.763	-163.28	-0.034380	1.002005	-0.045559	-0.046886	0.018419	35.3998	-0.045949	-0.068709	-0.268079	NaN
606	1.000000	1.011313	7.37098e+06	-46789.1	1005.82	-29768.2	0.000000	0.000000	7.011148	0.014239	NaN	0.000000	0.001555	0.001775	28.0787	0.051131	0.001902	26.8838	-45.2563	-164.185	-0.007892	1.010019	-0.037579	-0.038873	0.014239	26.8838	-0.037976	-0.039278	-0.362526	NaN
606	1.000000	1.019295	7.37098e+06	-46789.1	1005.82	-29768.2	0.000000	0.000000	7.019133	0.065822	NaN	0.000000	0.001539	0.001764	28.0783	0.046373	0.001946	23.8295	-18.5074	-162.215	0.098786	1.018005	-0.029596	-0.030887	0.065822	23.8295	-0.031668	-0.025641	-2.567034	NaN
606	1.000000	1.027334	7.37098e+06	-46789.1	1005.82	-29768.2	0.000000	0.000000	7.027171	0.041309	NaN	0.000000	0.001501	0.001746	28.0783	0.060999	0.001964	31.0568	-172.535	-163.752	0.035369	1.026014	-0.021557	-0.022878	0.041309	31.0568	-0.022555	-0.014589	-2.831560	NaN
606	1.000000	1.035298	7.37098e+06	-46789.1	1005.82	-29768.2	0.000000	0.000000	7.035134	0.000827	NaN	0.000000	0.001533	0.001779	28.0787	0.074112	0.002158	34.3486	-5.994205	-164.481	-0.001963	1.034034	-0.013593	-0.014857	0.000827	34.3486	-0.013611	-0.008456	-0.097784	NaN
606	1.000000	1.043324	7.37098e+06	-46789.1	1005.82	-29768.2	0.000000	0.000000	7.043159	0.008413	NaN	0.000000	0.001497	0.001770	28.0798	0.041358	0.001881	21.985	0.862732	-168.169	-0.003155	1.041991	-0.005568	-0.006901	0.008413	21.985	-0.005855	-0.003947	-2.131365	NaN
606	1.000000	1.051276	7.37098e+06	-46789.1	1005.82	-29768.2	0.000000	0.000000	7.051337	5.499964	NaN	0.000000	0.001528	0.001751	28.0802	5.771121	0.001690	3414.48	10.3807	-168.69	3.779007	1.050003	0.002384	0.001112	5.499964	3414.48	0.001176	0.000899	6115.52	104024
606	2.000000	1.054979	7.37098e+06	-46789.1	1005.82	-29768.2	0.000000	0.000000	7.055180	8.905964	NaN	0.000000	0.001553	0.001770	28.0796	9.792563	0.001759	5567.14	7.819065	-173.296	9.087500	1.054708	0.006088	0.005816	8.905964	5567.14	0.004888	0.004031	2209.23	80109.9
606	2.000000	1.056964	7.37098e+06	-46789.1	1005.82	-29768.2	0.000000	0.000000	7.057312	12.4546	NaN	0.000000	0.001548	0.001746	28.0797	12.1003	0.001740	6956.02	6.511310	-173.804	11.2347	1.056635	0.008073	0.007744	12.4546	6956.02	0.006730	0.005768	2159.11	83677.1
606	2.000000	1.058926	7.37098e+06	-46789.1	1005.82	-29768.2	0.000000	0.000000	7.059371	14.8211	NaN	0.000000	0.001496	0.001737	28.0798	13.9027	0.001702	8168.11	6.527344	-175.309	14.2145	1.058673	0.010035	0.009781	14.8211	8168.11	0.008674	0.007745	1913.68	84798.8
606	2.000000	1.060916	7.37098e+06	-46789.1	1005.82	-29768.2	0.000000	0.000000	7.061495	18.0805	NaN	0.000000	0.001525	0.001765	28.0798	16.6135	0.001760	9439.56	5.281238	-173.298	17.8238	1.060637	0.012025	0.011746	18.0805	9439.56	0.010588	0.009843	1836.95	86929.6
606	2.000000	1.062899	7.37098e+06	-46789.1	1005.82	-29768.2	0.000000	0.000000	7.063707	23.6526	NaN	0.000000	0.001523	0.001766	28.0804	18.0532	0.001735	10407.5	1.093107	-171.087	22.8112	1.062574	0.014008	0.013683	23.6526	10407.5	0.012303	0.011855	1995.13	87330.5
606	2.000000	1.064922	7.37098e+06	-46789.1	1005.82	-29768.2	0.000000	0.000000	7.065836	26.2417	NaN	0.000000	0.001539	0.001773	28.0796	20.8838	0.001869	11175.1	8.479197	-178.02	27.177	1.064617	0.016030	0.015725	26.2417	11175.1	0.014269	0.014323	1832.12	85310.9
606	2.000000	1.066889	7.37098e+06	-46789.1	1005.82	-29768.2	0.000000	0.000000	7.068084	33.0759	NaN	0.000000	0.001537	0.001774	28.0798	22.3317	0.001754	12729.7	4.220333	-174.678	32.4617	1.066575	0.017998	0.017684	33.0759	12729.7	0.016049	0.016710	1979.43	89971.4
606	2.000000	1.068888	7.37098e+06	-46789.1	1005.82	-29768.2	0.000000	0.000000	7.070217	36.3186	NaN	0.000000	0.001529	0.001750	28.0798	23.6493	0.001749	13525.1	2.734110	-174.927	35.2726	1.068474	0.019997	0.019583	36.3186	13525.1	0.017983	0.019471	1865.23	88555.3
606	2.000000	1.070847	7.37098e+06	-46789.1	1005.82	-29768.2	0.000000	0.000000	7.072415	42.1428	NaN	0.000000	0.001526	0.001766	28.0799	26.0932	0.001662	15703.1	3.224531	-178.629	40.3522	1.070557	0.021956	0.021665	42.1428	15703.1	0.019943	0.022452	1876.98	95747.4
606	2.000000	1.072861	7.37098e+06	-46789.1	1005.82	-29768.2	0.000000	0.000000	7.074644	47.3933	NaN	0.000000	0.001520	0.001753	28.0812	27.6618	0.001739	15906.1	4.698650	-178.306	46.4579	1.072621	0.023969	0.023730	47.3933	15906.1	0.021734	0.025341	1870.19	91289.3
606	2.000000	1.074844	7.37098e+06	-46789.1	1005.82	-29768.2	0.000000	0.000000	7.076869	53.2683	NaN	0.000000	0.001478	0.001765	28.0796	30.5541	0.001810	16880.7	6.738539	178.75	52.1554	1.074562	0.025953	0.025671	53.2683	16880.7	0.023586	0.028494	1869.49	91367.2
606	2.000000	1.076890	7.37098e+06	-46789.1	1005.82	-29768.2	0.000000	0.000000	7.079157	59.1401	NaN	0.000000	0.001518	0.001797	28.08	32.6962	0.001875	17437.6	5.928810	-179.909	59.0348	1.076478	0.027999	0.027587	59.1401	17437.6	0.025455	0.031849	1856.92	89271.9
606	2.000000	1.078845	7.37098e+06	-46789.1	1005.82	-29768.2	0.000000	0.000000	7.081413	66.4646	NaN	0.000000	0.001546	0.001765	28.0799	34.3171	0.001807	18991.9	6.159441	177.745	64.6971	1.078535	0.029954	0.029644	66.4646	18991.9	0.027329	0.035389	1878.1	92237
606	2.000000	1.080832	7.37098e+06	-46789.1	1005.82	-29768.2	0.000000	0.000000	7.083637	72.2281	NaN	0.000000	0.001524	0.001776	28.0793	36.1405	0.001768	20442.6	3.549408	179.762	70.4293	1.080534	0.031941	0.031642	72.2281	20442.6	0.029291	0.039286	1838.5	94229.9
606	2.000000	1.082780	7.37098e+06	-46789.1	1005.82	-29768.2	0.000000	0.000000	7.085770	76.7407	NaN	0.000000	0.001559	0.001855	28.0798	37.1452	0.001789	20757.6	3.337376	179.383	74.4602	1.082557	0.033888	0.033665	76.7407	20757.6	0.031116	0.043088	1781.04	91363.8
606	2.000000	1.084852	7.37098e+06	-46789.1	1005.82	-29768.2	0.000000	0.000000	7.088175	84.8438	NaN	0.000000	0.001529	0.001840	28.0784	40.3089	0.001810	22270.4	8.663464	174.369	84.8245	1.084529	0.035960	0.035638	84.8438	22270.4	0.033103	0.047421	1789.15	93436.2
606	2.000000	1.086872	7.37098e+06	-46789.1	1005.82	-29768.2	0.000000	0.000000	7.090485	91.8985	NaN	0.000000	0.001529	0.001848	28.0785	42.256	0.001833	23056.5	5.678013	177.327	91.5453	1.086554	0.037980	0.037662	91.8985	23056.5	0.034991	0.051725	1776.69	92622.7
606	2.000000	1.088809	7.37098e+06	-46789.1	1005.82	-29768.2	0.000000	0.000000	7.092789	100.82	NaN	0.000000	0.001562	0.001823	28.0783	43.656	0.001791	24375.9	3.610117	179.045	98.8899	1.088541	0.039918	0.039649	100.82	24375.9	0.036816	0.056058	1798.49	94062.2
606	2.000000	1.090794	7.37098e+06	-46789.1	1005.82	-29768.2	0.000000	0.000000	7.095081	108.296	NaN	0.000000	0.001539	0.001859	28.0783	46.4548	0.001768	26280.5	4.713386	175.878	104.458	1.090529	0.041903	0.041638	108.296	26280.5	0.038812	0.060994	1775.52	97221.7
606	2.000000	1.092754	7.37098e+06	-46789.1	1005.82	-29768.2	0.000000	0.000000	7.097504	119.54	NaN	0.000000	0.001540	0.001859	28.0786	47.221	0.001875	25182.7	1.896508	-179.448	115.167	1.092488	0.043863	0.043597	119.54	25182.7	0.040303	0.064813	1844.4	90374.5
606	2.000000	1.094773	7.37098e+06	-46789.1	1005.82	-29768.2	0.000000	0.000000	7.099894	128.571	NaN	0.000000	0.001511	0.001819	28.0784	49.7731	0.001777	28005.2	5.102611	174.934	124.444	1.094432	0.045882	0.045540	128.571	28005.2	0.042439	0.070482	1824.17	96376.7
606	2.000000	1.096874	7.37098e+06	-46789.1	1005.82	-29768.2	0.000000	0.000000	7.102331	136.75	NaN	0.000000	0.001541	0.001866	28.0786	52.153	0.001826	28565.9	6.410647	174.772	138.203	1.096523	0.047983	0.047631	136.75	28565.9	0.044392	0.075871	1802.4	94750.6
606	2.000000	1.098900	7.37098e+06	-46789.1	1005.82	-29768.2	0.000000	0.000000	7.104719	145.562	NaN	0.000000	0.001531	0.001869	28.0783	53.3354	0.001744	30575.6	7.044880	174.472	148.644	1.098472	0.050009	0.049580	145.562	30575.6	0.046438	0.081722	1781.18	97718.9
606	2.000000	1.100834	7.37098e+06	-46789.1	1005.82	-29768.2	0.000000	0.000000	7.106972	153.311	NaN	0.000000	0.001530	0.001893	28.0783	56.7941	0.001849	30715.3	4.724692	175.448	153.109	1.100531	0.051942	0.051640	153.311	30715.3	0.048199	0.086926	1763.69	95181.3
606	2.000000	1.102720	7.37098e+06	-46789.1	1005.82	-29768.2	0.000000	0.000000	7.109346	165.193	NaN	0.000000	0.001521	0.001841	28.0785	57.1375	0.001744	32763.1	4.315746	175.125	160.234	1.102524	0.053828	0.053632	165.193	32763.1	0.050047	0.092557	1784.76	98390.4
606	2.000000	1.104953	7.37098e+06	-46789.1	1005.82	-29768.2	0.000000	0.000000	7.111646	166.826	NaN	0.000000	0.001528	0.001839	28.0782	59.7466	0.001667	35846.1	4.692134	174.48	173.94	1.104493	0.056061	0.055601	166.826	35846.1	0.052571	0.100524	1659.57	103295
606	2.000000	1.106841	7.37098e+06	-46789.1	1005.82	-29768.2	0.000000	0.000000	7.114185	182.646	NaN	0.000000	0.001538	0.001851	28.0785	62.9943	0.001934	32565.9	7.071872	172.776	182.893	1.106473	0.057949	0.057581	182.646	32565.9	0.053743	0.104332	1750.63	92114.3
606	2.000000	1.108769	7.37098e+06	-46789.1	1005.82	-29768.2	0.000000	0.000000	7.116767	198.541	NaN	0.000000	0.001563	0.001839	28.0783	63.8848	0.001768	36124.9	5.103601	174.108	196.833	1.108430	0.059878	0.059538	198.541	36124.9	0.055756	0.111031	1788.16	99050.7
606	2.000000	1.110778	7.37098e+06	-46789.1	1005.82	-29768.2	0.000000	0.000000	7.118981	203.531	NaN	0.000000	0.001548	0.001842	28.0782	65.4249	0.001783	36695.6	0.594439	177.784	200.443	1.110568	0.061887	0.061677	203.531	36695.6	0.057727	0.117783	1728.02	97688.9
606	2.000000	1.112783	7.37098e+06	-46789.1	1005.82	-29768.2	0.000000	0.000000	7.121613	218.793	NaN	0.000000	0.001542	0.001843	28.0783	67.0771	0.001797	37332.3	5.870385	172.878	215.25	1.112414	0.063892	0.063523	218.793	37332.3	0.059496	0.124008	1764.35	96857.8
606	2.000000	1.114751	7.37098e+06	-46789.1	1005.82	-29768.2	0.000000	0.000000	7.124176	233.253	NaN	0.000000	0.001554	0.001809	28.0782	67.5038	0.001775	38025.7	-0.679810	179.204	230.045	1.114501	0.065860	0.065609	233.253	38025.7	0.061259	0.130362	1789.27	96222.1
606	2.000000	1.116807	7.37098e+06	-46789.1	1005.82	-29768.2	0.000000	0.000000	7.126617	242.646	NaN	0.000000	0.001552	0.001845	28.0786	70.8413	0.001709	41459.2	7.726020	170.796	240.312	1.116427	0.067915	0.067535	242.646	41459.2	0.063526	0.138754	1748.75	101688
606	2.000000	1.118771	7.37098e+06	-46789.1	1005.82	-29768.2	0.000000	0.000000	7.129237	258.593	NaN	0.000000	0.001562	0.001843	28.0796	70.3419	0.001773	39682.8	-2.194073	-179.374	255.523	1.118379	0.069880	0.069487	258.593	39682.8	0.064992	0.144317	1791.84	95437
606	2.000000	1.120757	7.37098e+06	-46789.1	1005.82	-29768.2	0.000000	0.000000	7.131472	264.659	NaN	0.000000	0.001528	0.001862	28.0795	74.9531	0.001774	42260.7	5.865746	171.051	261.543	1.120575	0.071865	0.071684	264.659	42260.7	0.067168	0.152759	1732.52	98788.3
606	2.000000	1.122795	7.37098e+06	-46789.1	1005.82	-29768.2	0.000000	0.000000	7.134237	282.318	NaN	0.000000	0.001537	0.001845	28.0795	75.0965	0.001915	39218.4	3.805043	174.764	280.651	1.122454	0.073904	0.073563	282.318	39218.4	0.068505	0.158058	1786.16	90126.9
606	2.000000	1.124787	7.37098e+06	-46789.1	1005.82	-29768.2	0.000000	0.000000	7.136580	290.857	NaN	0.000000	0.001556	0.001866	28.0794	77.8875	0.001809	43058.9	5.302683	172.412	291.529	1.124431	0.075896	0.075540	290.857	43058.9	0.070829	0.167478	1736.69	96129.6
606	2.000000	1.126892	7.37098e+06	-46789.1	1005.82	-29768.2	0.000000	0.000000	7.139255	304.722	NaN	0.000000	0.001508	0.001852	28.0799	79.9137	0.001848	43249.2	3.639666	174.425	309.596	1.126504	0.078001	0.077613	304.722	43249.2	0.072716	0.175313	1738.16	94372.2
606	2.000000	1.128799	7.37099e+06	-46789.1	1005.82	-29768.2	0.000000	0.000000	7.142018	325.574	NaN	0.000000	0.001567	0.001871	28.0796	80.6509	0.001811	44536	4.517249	173.437	323.56	1.128342	0.079907	0.079450	325.574	44536	0.074424	0.182550	1783.48	95234.3
606	2.000000	1.130839	7.37099e+06	-46789.1	1005.82	-29768.2	0.000000	0.000000	7.144592	338.558	NaN	0.000000	0.001537	0.001821	28.0797	83.0842	0.001761	47187.9	1.181222	176.056	338.203	1.130412	0.081947	0.081520	338.558	47187.9	0.076566	0.191819	1764.99	98436.9
606	2.000000	1.132751	7.37099e+06	-46789.1	1005.82	-29768.2	0.000000	0.000000	7.147024	351.204	NaN	0.000000	0.001532	0.001840	28.0797	83.9254	0.001782	47088.8	2.812409	173.737	347.089	1.132517	0.083859	0.083625	351.204	47088.8	0.078265	0.199326	1761.96	96362.8
606	2.000000	1.134742	7.37099e+06	-46789.1	1005.82	-29768.2	0.000000	0.000000	7.149540	363.957	NaN	0.000000	0.001531	0.001869	28.0797	88.5226	0.001799	49214.3	5.735975	171.052	362.079	1.134414	0.085851	0.085523	363.957	49214.3	0.080304	0.208511	1745.5	98469.2
606	2.000000	1.136826	7.37099e+06	-46789.1	1005.82	-29768.2	0.000000	0.000000	7.152352	381.658	NaN	0.000000	0.001515	0.001858	28.0798	90.3646	0.001876	48163	5.981245	171.952	382.958	1.136395	0.087935	0.087504	381.658	48163	0.081992	0.216260	1764.81	94623.5
606	2.000000	1.138753	7.37099e+06	-46789.1	1005.82	-29768.2	0.000000	0.000000	7.154878	396.244	NaN	0.000000	0.001569	0.001878	28.0796	91.0395	0.001711	53196.1	4.730904	171.654	394.979	1.138346	0.089861	0.089455	396.244	53196.1	0.084275	0.226953	1745.93	102020
606	2.000000	1.140750	7.37099e+06	-46789.1	1005.82	-29768.2	0.000000	0.000000	7.157446	410.132	NaN	0.000000	0.001559	0.001872	28.0797	93.5873	0.001856	50421.6	4.100201	172.161	407.755	1.140496	0.091858	0.091604	410.132	50421.6	0.085758	0.234030	1752.47	95225.7
606	2.000000	1.142740	7.37099e+06	-46789.1	1005.82	-29768.2	0.000000	0.000000	7.160217	429.127	NaN	0.000000	0.001575	0.001881	28.0799	94.0784	0.001770	53149.3	4.181522	171.971	424.812	1.142404	0.093848	0.093513	429.127	53149.3	0.087793	0.243905	1759.4	98324.3
606	2.000000	1.144810	7.37099e+06	-46789.1	1005.82	-29768.2	0.000000	0.000000	7.162824	442.205	NaN	0.000000	0.001560	0.001838	28.08	96.5611	0.001769	54589.1	3.430596	172.394	444.278	1.144476	0.095918	0.095584	442.205	54589.1	0.089843	0.254044	1740.66	98952
606	2.000000	1.146855	7.37099e+06	-46789.1	1005.82	-29768.2	0.000000	0.000000	7.165823	465.404	NaN	0.000000	0.001553	0.001835	28.0799	98.5369	0.001750	56293.3	3.657447	172.36	467.927	1.146440	0.097963	0.097549	465.404	56293.3	0.091763	0.263714	1764.8	100153
606	2.000000	1.148854	7.37099e+06	-46789.1	1005.82	-29768.2	0.000000	0.000000	7.168375	478.866	NaN	0.000000	0.001557	0.001825	28.0798	100.636	0.001789	56245.5	3.808637	172.048	483.027	1.148435	0.099962	0.099544	478.866	56245.5	0.093577	0.273008	1754.03	98349.7
606	2.000000	1.150741	7.37099e+06	-46789.1	1005.82	-29768.2	0.000000	0.000000	7.170882	493.93	NaN	0.000000	0.001538	0.001841	28.0798	103.325	0.001789	57772.1	3.388495	172.377	492.201	1.150406	0.101850	0.101515	493.93	57772.1	0.095437	0.282695	1747.22	99273.2
606	2.000000	1.151692	7.37099e+06	-46789.1	1005.82	-29768.2	0.000000	0.000000	7.171889	495.28	NaN	0.000000	0.001578	0.001817	28.0792	104.07	0.001806	57620.3	3.819360	171.49	491.736	1.151537	0.102801	0.102646	495.28	57620.3	0.096354	0.287526	1722.56	98177.2