File: remote_trans/data/nanoindenter/0828-1/data/Data_2025-08-06,11h17m57s/2025-07-22_16-23-58_1_782.txt
2025-07-22, 16:23:58, 1
Index	Phase	Displacement	Time	Pos X	Pos Y	Pos Z	Rot A	Rot B	Piezo Z	Force A	Force B	Gripper	Voltage A	Voltage B	Temperature	Amplitude force	Amplitude pos	Stiffness	Phase shift	Phase excitation	Force A raw	Displacement raw	HMax	HMax raw	Real Force	Real Stiffness	Contact Depth	Area	Hardness	Reduced Mod.
[#]	[#]	[um]	[s]	[um]	[um]	[um]	[m°]	[m°]	[um]	[uN]	[uN]	[V]	[V]	[V]	[°C]	[uN]	[um]	[N/m]	[°]	[°]	[uN]	[um]	[um]	[um]	[uN]	[N/m]	[um]	[um^2]	[MPa]	[MPa]
782	1.000000	0.002202	7.3727e+06	-39239.1	1055.82	-29794.6	0.000000	0.000000	6.002787	0.073524	NaN	0.000000	0.001660	0.001738	28.0804	0.048942	0.000898	54.4823	-104.57	-163.907	0.066770	0.000954	-1.063080	-1.064328	0.073524	54.4823	-1.064092	-1.651221E+14	-4.452675E-16	NaN
782	1.000000	0.010170	7.3727e+06	-39239.1	1055.82	-29794.6	0.000000	0.000000	6.010755	0.070215	NaN	0.000000	0.001665	0.001737	28.0801	0.088376	0.000933	94.6832	115.16	-173.316	-0.016360	0.008875	-1.055112	-1.056407	0.070215	94.6832	-1.055668	-1.272330E+14	-5.518634E-16	NaN
782	1.000000	0.018158	7.3727e+06	-39239.1	1055.82	-29794.6	0.000000	0.000000	6.018742	0.026289	NaN	0.000000	0.001676	0.001722	28.0804	0.047495	0.001678	28.3132	-78.7472	-167.534	0.047233	0.016867	-1.047123	-1.048414	0.026289	28.3132	-1.047820	-9.979446E+13	-2.634311E-16	NaN
782	1.000000	0.026220	7.3727e+06	-39239.1	1055.82	-29794.6	0.000000	0.000000	6.026804	0.045877	NaN	0.000000	0.001691	0.001729	28.08	0.060792	0.001803	33.714	-137.26	-164.359	0.072407	0.024869	-1.039061	-1.040413	0.045877	33.714	-1.040082	-7.853627E+13	-5.841513E-16	NaN
782	1.000000	0.034177	7.3727e+06	-39239.1	1055.82	-29794.6	0.000000	0.000000	6.034760	0.016556	NaN	0.000000	0.001676	0.001720	28.0803	0.020347	0.001995	10.1989	22.4417	-164.781	0.046413	0.032856	-1.031104	-1.032425	0.016556	10.1989	-1.032322	-6.176046E+13	-2.680717E-16	NaN
782	1.000000	0.042165	7.3727e+06	-39239.1	1055.82	-29794.6	0.000000	0.000000	6.042748	0.014520	NaN	0.000000	0.001657	0.001731	28.0804	0.109248	0.001916	57.0314	100.15	-169.034	0.010220	0.040815	-1.023117	-1.024467	0.014520	57.0314	-1.023308	-4.671458E+13	-3.108133E-16	NaN
782	1.000000	0.050158	7.3727e+06	-39239.1	1055.82	-29794.6	0.000000	0.000000	6.050742	0.042973	NaN	0.000000	0.001685	0.001712	28.08	0.029782	0.001883	15.8134	105.241	-166.778	-0.037108	0.048855	-1.015124	-1.016427	0.042973	15.8134	-1.017162	-3.861617E+13	-1.112829E-15	NaN
782	1.000000	0.058184	7.3727e+06	-39239.1	1055.82	-29794.6	0.000000	0.000000	6.058769	0.063656	NaN	0.000000	0.001671	0.001718	28.0799	0.094143	0.001973	47.7262	-102.382	-166.202	0.065729	0.056858	-1.007098	-1.008424	0.063656	47.7262	-1.008098	-2.915983E+13	-2.183005E-15	NaN
782	1.000000	0.066152	7.3727e+06	-39239.1	1055.82	-29794.6	0.000000	0.000000	6.066735	0.006672	NaN	0.000000	0.001647	0.001716	28.0799	0.093795	0.002050	45.7566	5.758810	-161.316	0.045288	0.064886	-0.999129	-1.000395	0.006672	45.7566	-0.999239	-2.215741E+13	-3.011240E-16	NaN
782	1.000000	0.074194	7.3727e+06	-39239.1	1055.82	-29794.6	0.000000	0.000000	6.074779	0.059235	NaN	0.000000	0.001649	0.001724	28.0802	0.160702	0.001849	86.9146	-120.739	-166.326	0.097269	0.072822	-0.991087	-0.992459	0.059235	86.9146	-0.991598	-1.748388E+13	-3.387963E-15	NaN
782	1.000000	0.082197	7.3727e+06	-39239.1	1055.82	-29794.6	0.000000	0.000000	6.082781	0.050049	NaN	0.000000	0.001675	0.001707	28.08	0.167038	0.002003	83.3918	-19.9307	-163.992	0.118292	0.080858	-0.983085	-0.984424	0.050049	83.3918	-0.983535	-1.361536E+13	-3.675918E-15	NaN
782	1.000000	0.090169	7.3727e+06	-39239.1	1055.82	-29794.6	0.000000	0.000000	6.090753	0.057180	NaN	0.000000	0.001704	0.001706	28.0799	0.055226	0.002025	27.2736	-70.7632	-169.819	0.056140	0.088899	-0.975113	-0.976383	0.057180	27.2736	-0.976685	-1.100910E+13	-5.193929E-15	NaN
782	1.000000	0.098187	7.3727e+06	-39239.1	1055.82	-29794.6	0.000000	0.000000	6.098770	0.016873	NaN	0.000000	0.001673	0.001690	28.08	0.021112	0.002058	10.2563	-87.2367	-168.342	-0.009314	0.096891	-0.967095	-0.968390	0.016873	10.2563	-0.968329	-8.494485E+12	-1.986350E-15	NaN
782	1.000000	0.106166	7.3727e+06	-39239.1	1055.82	-29794.6	0.000000	0.000000	6.106753	0.109809	NaN	0.000000	0.001695	0.001687	28.0801	0.069936	0.002065	33.8685	-116.712	-166.831	0.143513	0.104838	-0.959116	-0.960443	0.109809	33.8685	-0.961548	-6.882284E+12	-1.595529E-14	NaN
782	1.000000	0.114175	7.3727e+06	-39239.1	1055.82	-29794.6	0.000000	0.000000	6.114757	0.007518	NaN	0.000000	0.001700	0.001708	28.0801	0.093991	0.002090	44.9654	-156.449	-163.023	-0.037726	0.112893	-0.951107	-0.952389	0.007518	44.9654	-0.951232	-4.996299E+12	-1.504628E-15	NaN
782	1.000000	0.122176	7.3727e+06	-39239.1	1055.82	-29794.6	0.000000	0.000000	6.122755	-0.079555	NaN	0.000000	0.001668	0.001680	28.0814	0.120211	0.001869	64.3287	-169.979	-166.554	-0.090304	0.120947	-0.943106	-0.944334	-0.079555	64.3287	-0.942178	-3.771604E+12	2.109320E-14	NaN
782	1.000000	0.130159	7.3727e+06	-39239.1	1055.82	-29794.6	0.000000	0.000000	6.130744	0.058132	NaN	0.000000	0.001623	0.001683	28.0814	0.067729	0.002004	33.7961	-51.0236	-164.831	0.116825	0.128900	-0.935123	-0.936381	0.058132	33.7961	-0.936413	-3.153106E+12	-1.843641E-14	NaN
782	1.000000	0.138191	7.3727e+06	-39239.1	1055.82	-29794.6	0.000000	0.000000	6.138776	0.069646	NaN	0.000000	0.001642	0.001700	28.0814	0.106139	0.002021	52.5155	-104.019	-169.414	0.010858	0.136921	-0.927091	-0.928361	0.069646	52.5155	-0.928086	-2.434205E+12	-2.861131E-14	NaN
782	1.000000	0.146218	7.3727e+06	-39239.1	1055.82	-29794.6	0.000000	0.000000	6.146801	0.017628	NaN	0.000000	0.001599	0.001708	28.0813	0.025277	0.002098	12.0465	129.002	-165.128	0.009614	0.144862	-0.919063	-0.920419	0.017628	12.0465	-0.920161	-1.902739E+12	-9.264700E-15	NaN
782	1.000000	0.154218	7.3727e+06	-39239.1	1055.82	-29794.6	0.000000	0.000000	6.154800	-0.012320	NaN	0.000000	0.001667	0.001696	28.0811	0.056998	0.001960	29.076	-138.056	-167.767	0.048638	0.152871	-0.911063	-0.912410	-0.012320	29.076	-0.910746	-1.419820E+12	8.677507E-15	NaN
782	1.000000	0.162240	7.3727e+06	-39239.1	1055.82	-29794.6	0.000000	0.000000	6.162821	-0.027719	NaN	0.000000	0.001621	0.001708	28.0814	0.084823	0.001907	44.4694	21.7623	-164.606	-0.002886	0.160907	-0.903042	-0.904375	-0.027719	44.4694	-0.902574	-1.101159E+12	2.517289E-14	NaN
782	1.000000	0.170211	7.3727e+06	-39239.1	1055.82	-29794.6	0.000000	0.000000	6.170795	0.047464	NaN	0.000000	0.001690	0.001711	28.0813	0.033768	0.002069	16.3175	116.714	-167.046	0.030173	0.168958	-0.895071	-0.896324	0.047464	16.3175	-0.897252	-9.331121E+11	-5.086669E-14	NaN
782	1.000000	0.178208	7.3727e+06	-39239.1	1055.82	-29794.6	0.000000	0.000000	6.178790	0.003557	NaN	0.000000	0.001683	0.001705	28.0815	0.030230	0.001952	15.4864	21.8544	-162.944	-0.016558	0.176910	-0.887074	-0.888372	0.003557	15.4864	-0.887246	-6.834142E+11	-5.204120E-15	NaN
782	1.000000	0.186235	7.3727e+06	-39239.1	1055.82	-29794.6	0.000000	0.000000	6.186820	0.042079	NaN	0.000000	0.001673	0.001712	28.0815	0.016990	0.001964	8.651585	171.747	-164.943	0.034768	0.184953	-0.879046	-0.880329	0.042079	8.651585	-0.882694	-5.931151E+11	-7.094608E-14	NaN
782	1.000000	0.194237	7.3727e+06	-39239.1	1055.82	-29794.6	0.000000	0.000000	6.194818	-0.023607	NaN	0.000000	0.001677	0.001709	28.0813	0.058142	0.002017	28.8194	117.054	-168.152	-0.005443	0.192876	-0.871045	-0.872406	-0.023607	28.8194	-0.870430	-4.048256E+11	5.831502E-14	NaN
782	1.000000	0.202215	7.3727e+06	-39239.1	1055.82	-29794.6	0.000000	0.000000	6.202801	0.081270	NaN	0.000000	0.001697	0.001740	28.0816	0.007934	0.001749	4.536105	157.778	-161.375	0.110785	0.200861	-0.863067	-0.864420	0.081270	4.536105	-0.876504	-4.891286E+11	-1.661531E-13	NaN
782	1.000000	0.210207	7.3727e+06	-39239.1	1055.82	-29794.6	0.000000	0.000000	6.210790	0.025687	NaN	0.000000	0.001665	0.001743	28.0812	0.014004	0.002003	6.991043	-138.024	-165.001	0.024279	0.208914	-0.855075	-0.856368	0.025687	6.991043	-0.857831	-2.733753E+11	-9.396195E-14	NaN
782	1.000000	0.218259	7.3727e+06	-39239.1	1055.82	-29794.6	0.000000	0.000000	6.218843	0.038433	NaN	0.000000	0.001653	0.001764	28.0812	0.120961	0.001979	61.1224	126.878	-164.665	0.024830	0.216949	-0.847022	-0.848332	0.038433	61.1224	-0.847494	-1.980613E+11	-1.940436E-13	NaN
782	1.000000	0.226225	7.3727e+06	-39239.1	1055.82	-29794.6	0.000000	0.000000	6.226808	0.011408	NaN	0.000000	0.001634	0.001725	28.0813	0.148086	0.002046	72.387	156.359	-166.306	0.058381	0.224928	-0.839057	-0.840354	0.011408	72.387	-0.839175	-1.527960E+11	-7.465916E-14	NaN
782	1.000000	0.234219	7.3727e+06	-39239.1	1055.82	-29794.6	0.000000	0.000000	6.234805	0.092796	NaN	0.000000	0.001662	0.001731	28.0812	0.053407	0.001977	27.0131	-34.5852	-166.087	0.016279	0.232965	-0.831063	-0.832316	0.092796	27.0131	-0.833639	-1.285595E+11	-7.218120E-13	NaN
782	1.000000	0.242240	7.3727e+06	-39239.1	1055.82	-29794.6	0.000000	0.000000	6.242823	0.007411	NaN	0.000000	0.001598	0.001703	28.0814	0.042098	0.002029	20.7446	-172.776	-168.211	0.020037	0.240940	-0.823041	-0.824341	0.007411	20.7446	-0.823309	-9.312844E+10	-7.957584E-14	NaN
782	1.000000	0.250248	7.3727e+06	-39239.1	1055.82	-29794.6	0.000000	0.000000	6.250833	0.056199	NaN	0.000000	0.001620	0.001704	28.0811	0.041595	0.001941	21.4291	-91.8168	-166.411	0.011590	0.248978	-0.815034	-0.816304	0.056199	21.4291	-0.817001	-7.647792E+10	-7.348439E-13	NaN
782	1.000000	0.258235	7.3727e+06	-39239.1	1055.82	-29794.6	0.000000	0.000000	6.258817	-0.016361	NaN	0.000000	0.001613	0.001700	28.0799	0.104548	0.001966	53.1882	49.5095	-168.321	-0.038120	0.256948	-0.807046	-0.808334	-0.016361	53.1882	-0.806816	-5.563693E+10	2.940712E-13	NaN
782	1.000000	0.266243	7.3727e+06	-39239.1	1055.82	-29794.6	0.000000	0.000000	6.266827	0.024590	NaN	0.000000	0.001638	0.001720	28.0797	0.081386	0.001949	41.7477	-125.138	-166.871	-0.027512	0.264921	-0.799038	-0.800361	0.024590	41.7477	-0.799480	-4.423881E+10	-5.558574E-13	NaN
782	1.000000	0.274256	7.3727e+06	-39239.1	1055.82	-29794.6	0.000000	0.000000	6.274841	0.072939	NaN	0.000000	0.001678	0.001683	28.0799	0.070862	0.001967	36.0273	69.0163	-166.286	-0.005736	0.273014	-0.791026	-0.792267	0.072939	36.0273	-0.792544	-3.561516E+10	-2.047983E-12	NaN
782	1.000000	0.282272	7.3727e+06	-39239.1	1055.82	-29794.6	0.000000	0.000000	6.282855	0.015036	NaN	0.000000	0.001655	0.001695	28.0801	0.072908	0.001995	36.5441	158.676	-165.552	0.003628	0.280988	-0.783010	-0.784294	0.015036	36.5441	-0.783318	-2.668836E+10	-5.633934E-13	NaN
782	1.000000	0.290310	7.3727e+06	-39239.1	1055.82	-29794.6	0.000000	0.000000	6.290894	0.036151	NaN	0.000000	0.001659	0.001701	28.0798	0.035506	0.001912	18.5729	-83.474	-163.082	-0.035630	0.288975	-0.774972	-0.776307	0.036151	18.5729	-0.776431	-2.151461E+10	-1.680321E-12	NaN
782	1.000000	0.298260	7.3727e+06	-39239.1	1055.82	-29794.6	0.000000	0.000000	6.298843	0.015155	NaN	0.000000	0.001654	0.001697	28.0796	0.057545	0.001877	30.6531	121.591	-165.394	0.060716	0.297014	-0.767022	-0.768268	0.015155	30.6531	-0.767393	-1.621263E+10	-9.347961E-13	NaN
782	1.000000	0.306277	7.3727e+06	-39239.1	1055.82	-29794.6	0.000000	0.000000	6.306854	-0.129198	NaN	0.000000	0.001645	0.001714	28.0798	0.006646	0.001981	3.354653	4.752155	-164.579	-0.049014	0.304955	-0.759004	-0.760326	-0.129198	3.354653	-0.730120	-5.040088E+9	2.563398E-11	NaN
782	1.000000	0.314274	7.3727e+06	-39239.1	1055.82	-29794.6	0.000000	0.000000	6.314857	0.035966	NaN	0.000000	0.001663	0.001704	28.0799	0.139791	0.002076	67.3386	-60.3843	-164.392	-0.017265	0.312963	-0.751008	-0.752319	0.035966	67.3386	-0.751409	-9.826417E+9	-3.660149E-12	NaN
782	1.000000	0.322261	7.3727e+06	-39239.1	1055.82	-29794.6	0.000000	0.000000	6.322844	0.011088	NaN	0.000000	0.001658	0.001693	28.0799	0.059913	0.001896	31.5959	-119.09	-165.92	0.034968	0.320949	-0.743020	-0.744332	0.011088	31.5959	-0.743283	-7.616814E+9	-1.455789E-12	NaN
782	1.000000	0.330303	7.3727e+06	-39239.1	1055.82	-29794.6	0.000000	0.000000	6.330889	0.093471	NaN	0.000000	0.001665	0.001715	28.0797	0.077343	0.001970	39.2662	110.641	-165.84	-0.024029	0.328960	-0.734979	-0.736322	0.093471	39.2662	-0.736764	-6.208333E+9	-1.505576E-11	NaN
782	1.000000	0.338290	7.3727e+06	-39239.1	1055.82	-29794.6	0.000000	0.000000	6.338874	0.030726	NaN	0.000000	0.001659	0.001737	28.0803	0.060161	0.001915	31.4171	-136.496	-165.497	-0.054820	0.336995	-0.726991	-0.728287	0.030726	31.4171	-0.727725	-4.675192E+9	-6.572189E-12	NaN
782	1.000000	0.346292	7.3727e+06	-39239.1	1055.82	-29794.6	0.000000	0.000000	6.346876	0.035802	NaN	0.000000	0.001650	0.001717	28.0807	0.077479	0.002042	37.9356	148.936	-166.869	-0.012513	0.344992	-0.718989	-0.720290	0.035802	37.9356	-0.719697	-3.633637E+9	-9.852832E-12	NaN
782	1.000000	0.354302	7.3727e+06	-39239.1	1055.82	-29794.6	0.000000	0.000000	6.354883	-0.032023	NaN	0.000000	0.001679	0.001736	28.08	0.056677	0.002020	28.0638	83.8834	-166.226	-0.034673	0.352986	-0.710980	-0.712296	-0.032023	28.0638	-0.710124	-2.689921E+9	1.190495E-11	NaN
782	1.000000	0.362291	7.3727e+06	-39239.1	1055.82	-29794.6	0.000000	0.000000	6.362874	0.011064	NaN	0.000000	0.001677	0.001732	28.08	0.027118	0.001902	14.256	141.873	-167.149	-0.008215	0.360997	-0.702990	-0.704285	0.011064	14.256	-0.703572	-2.189323E+9	-5.053490E-12	NaN
782	1.000000	0.370299	7.3727e+06	-39239.1	1055.82	-29794.6	0.000000	0.000000	6.370883	0.026693	NaN	0.000000	0.001647	0.001730	28.08	0.147863	0.001876	78.8206	-167.886	-162.69	0.041082	0.368937	-0.694982	-0.696344	0.026693	78.8206	-0.695236	-1.684468E+9	-1.584657E-11	NaN
782	1.000000	0.378311	7.3727e+06	-39239.1	1055.82	-29794.6	0.000000	0.000000	6.378894	0.018538	NaN	0.000000	0.001662	0.001724	28.0802	0.022404	0.002041	10.9761	47.9804	-167.702	-0.043279	0.376995	-0.686971	-0.688287	0.018538	10.9761	-0.688238	-1.351552E+9	-1.371608E-11	NaN
782	1.000000	0.386289	7.3727e+06	-39239.1	1055.82	-29794.6	0.000000	0.000000	6.386873	0.039787	NaN	0.000000	0.001655	0.001747	28.0801	0.122693	0.002064	59.4586	-168.895	-164.463	0.059781	0.385072	-0.678993	-0.680210	0.039787	59.4586	-0.679495	-1.026347E+9	-3.876590E-11	NaN
782	1.000000	0.394328	7.3727e+06	-39239.1	1055.82	-29794.6	0.000000	0.000000	6.394909	-0.025423	NaN	0.000000	0.001652	0.001755	28.081	0.088637	0.002104	42.1213	150.745	-167.726	0.057575	0.393012	-0.670954	-0.672270	-0.025423	42.1213	-0.670501	-7.731218E+8	3.288395E-11	NaN
782	1.000000	0.402318	7.3727e+06	-39239.1	1055.82	-29794.6	0.000000	0.000000	6.402901	0.007162	NaN	0.000000	0.001645	0.001698	28.0812	0.068929	0.002179	31.6291	37.6195	-163.458	-0.042401	0.400992	-0.662963	-0.664289	0.007162	31.6291	-0.663133	-6.128859E+8	-1.168495E-11	NaN
782	1.000000	0.410341	7.3727e+06	-39239.1	1055.82	-29794.6	0.000000	0.000000	6.410923	-0.004979	NaN	0.000000	0.001661	0.001736	28.0816	0.054603	0.002130	25.6381	-108.401	-167.534	-0.023597	0.409032	-0.654941	-0.656250	-0.004979	25.6381	-0.654795	-4.711508E+8	1.056832E-11	NaN
782	1.000000	0.418317	7.3727e+06	-39239.1	1055.82	-29794.6	0.000000	0.000000	6.418900	0.020458	NaN	0.000000	0.001655	0.001742	28.0817	0.042745	0.001976	21.6298	-44.19	-162.742	0.020224	0.417013	-0.646965	-0.648269	0.020458	21.6298	-0.647674	-3.763099E+8	-5.436572E-11	NaN
782	1.000000	0.426328	7.3727e+06	-39239.1	1055.82	-29794.6	0.000000	0.000000	6.426912	0.040425	NaN	0.000000	0.001683	0.001714	28.0812	0.071113	0.001919	37.0633	-6.759914	-165.325	0.038551	0.424972	-0.638954	-0.640310	0.040425	37.0633	-0.639772	-2.931966E+8	-1.378763E-10	NaN
782	1.000000	0.434299	7.3727e+06	-39239.1	1055.82	-29794.6	0.000000	0.000000	6.434882	0.013934	NaN	0.000000	0.001699	0.001729	28.0813	0.039834	0.001821	21.8796	30.6998	-164.784	-0.050248	0.433027	-0.630983	-0.632254	0.013934	21.8796	-0.631461	-2.254661E+8	-6.180160E-11	NaN
782	1.000000	0.442322	7.3727e+06	-39239.1	1055.82	-29794.6	0.000000	0.000000	6.442905	-0.002941	NaN	0.000000	0.001663	0.001682	28.0811	0.096239	0.002021	47.6309	56.8658	-167.228	-0.056702	0.440985	-0.622959	-0.624296	-0.002941	47.6309	-0.622913	-1.720547E+8	1.709363E-11	NaN
782	1.000000	0.450343	7.3727e+06	-39239.1	1055.82	-29794.6	0.000000	0.000000	6.450927	0.041617	NaN	0.000000	0.001656	0.001670	28.0814	0.043626	0.002050	21.2857	74.2852	-168.052	0.031879	0.449084	-0.614939	-0.616198	0.041617	21.2857	-0.616405	-1.400275E+8	-2.972091E-10	NaN
782	1.000000	0.458321	7.3727e+06	-39239.1	1055.82	-29794.6	0.000000	0.000000	6.458904	0.006450	NaN	0.000000	0.001670	0.001674	28.0814	0.053202	0.002102	25.3142	159.798	-163.502	0.046247	0.456967	-0.606961	-0.608314	0.006450	25.3142	-0.607152	-1.044526E+8	-6.175102E-11	NaN
782	1.000000	0.466345	7.3727e+06	-39239.1	1055.82	-29794.6	0.000000	0.000000	6.466932	0.103336	NaN	0.000000	0.001688	0.001730	28.0812	0.014107	0.001980	7.123512	8.724806	-165.045	0.102024	0.465053	-0.598936	-0.600228	0.103336	7.123512	-0.609816	-1.136534E+8	-9.092225E-10	NaN
782	1.000000	0.474367	7.3727e+06	-39239.1	1055.82	-29794.6	0.000000	0.000000	6.474949	-0.012637	NaN	0.000000	0.001651	0.001697	28.0813	0.060173	0.002043	29.447	-156.412	-164.499	0.082151	0.473122	-0.590915	-0.592160	-0.012637	29.447	-0.590593	-6.177849E+7	2.045535E-10	NaN
782	1.000000	0.482332	7.3727e+06	-39239.1	1055.82	-29794.6	0.000000	0.000000	6.482914	-0.010905	NaN	0.000000	0.001630	0.001679	28.0811	0.089301	0.002023	44.1461	155.41	-162.557	-0.057021	0.481004	-0.582950	-0.584278	-0.010905	44.1461	-0.582764	-4.818060E+7	2.263266E-10	NaN
782	1.000000	0.490355	7.3727e+06	-39239.1	1055.82	-29794.6	0.000000	0.000000	6.490940	0.055427	NaN	0.000000	0.001645	0.001679	28.0813	0.109989	0.001923	57.1984	48.1749	-164.748	0.036029	0.489085	-0.574926	-0.576197	0.055427	57.1984	-0.575653	-3.843401E+7	-1.442130E-9	NaN
782	1.000000	0.498358	7.3727e+06	-39239.1	1055.82	-29794.6	0.000000	0.000000	6.498939	-0.018419	NaN	0.000000	0.001658	0.001669	28.0811	0.036065	0.001834	19.6679	-154.392	-165.539	-0.055754	0.496986	-0.566924	-0.568296	-0.018419	19.6679	-0.566222	-2.847181E+7	6.469373E-10	NaN
782	1.000000	0.506367	7.3727e+06	-39239.1	1055.82	-29794.6	0.000000	0.000000	6.506951	0.044579	NaN	0.000000	0.001632	0.001728	28.0811	0.068807	0.001983	34.7004	-127.57	-165.194	0.046300	0.505093	-0.558914	-0.560189	0.044579	34.7004	-0.559878	-2.326420E+7	-1.916214E-9	NaN
782	1.000000	0.514364	7.3727e+06	-39239.1	1055.82	-29794.6	0.000000	0.000000	6.514944	-0.045893	NaN	0.000000	0.001617	0.001748	28.0813	0.047607	0.002040	23.3353	-15.0085	-166.495	-0.085262	0.513090	-0.550918	-0.552192	-0.045893	23.3353	-0.549443	-1.668177E+7	2.751078E-9	NaN
782	1.000000	0.522361	7.3727e+06	-39239.1	1055.82	-29794.6	0.000000	0.000000	6.522943	0.001941	NaN	0.000000	0.001625	0.001697	28.0811	0.076778	0.002090	36.7359	-163.382	-166.666	0.039814	0.521082	-0.542921	-0.544200	0.001941	36.7359	-0.542961	-1.356475E+7	-1.430548E-10	NaN
782	1.000000	0.530386	7.3727e+06	-39239.1	1055.82	-29794.6	0.000000	0.000000	6.530967	-0.040482	NaN	0.000000	0.001606	0.001724	28.0804	0.100177	0.001950	51.3797	98.2403	-165.215	-0.026212	0.529110	-0.534896	-0.536172	-0.040482	51.3797	-0.534305	-1.028820E+7	3.934843E-9	NaN
782	1.000000	0.538367	7.3727e+06	-39239.1	1055.82	-29794.6	0.000000	0.000000	6.538950	0.003029	NaN	0.000000	0.001656	0.001698	28.0799	0.047556	0.002018	23.566	-28.4531	-164.513	0.053748	0.537082	-0.526914	-0.528199	0.003029	23.566	-0.527011	-8.14806e+06	-3.717449E-10	NaN
782	1.000000	0.546383	7.3727e+06	-39239.1	1055.82	-29794.6	0.000000	0.000000	6.546966	0.010940	NaN	0.000000	0.001633	0.001755	28.0798	0.077950	0.001883	41.3961	135.806	-161.975	0.010472	0.545032	-0.518898	-0.520250	0.010940	41.3961	-0.519096	-6.32455e+06	-1.729762E-9	NaN
782	1.000000	0.554389	7.3727e+06	-39239.1	1055.82	-29794.6	0.000000	0.000000	6.554969	-0.050603	NaN	0.000000	0.001667	0.001713	28.0795	0.057219	0.001971	29.0366	-111.587	-161.987	-0.077381	0.553070	-0.510893	-0.512212	-0.050603	29.0366	-0.509585	-4.66274e+06	1.085272E-8	NaN
782	1.000000	0.562370	7.3727e+06	-39239.1	1055.82	-29794.6	0.000000	0.000000	6.562953	0.008787	NaN	0.000000	0.001659	0.001717	28.0799	0.061690	0.002154	28.6446	-146.366	-167.079	0.063146	0.561087	-0.502911	-0.504195	0.008787	28.6446	-0.503142	-3.79171e+06	-2.317457E-9	NaN
782	1.000000	0.570388	7.3727e+06	-39239.1	1055.82	-29794.6	0.000000	0.000000	6.570971	0.020841	NaN	0.000000	0.001648	0.001698	28.0801	0.029595	0.001886	15.6952	-105.638	-164.026	0.087716	0.569075	-0.494894	-0.496206	0.020841	15.6952	-0.495890	-3.00372e+06	-6.938371E-9	NaN
782	1.000000	0.578364	7.3727e+06	-39239.1	1055.82	-29794.6	0.000000	0.000000	6.578950	0.072329	NaN	0.000000	0.001646	0.001706	28.0799	0.181464	0.002028	89.4908	-166.829	-167.257	0.043301	0.577091	-0.486917	-0.488190	0.072329	89.4908	-0.487523	-2.29498e+06	-3.151640E-8	NaN
782	1.000000	0.586376	7.3727e+06	-39239.1	1055.82	-29794.6	0.000000	0.000000	6.586959	0.022642	NaN	0.000000	0.001627	0.001755	28.0798	0.017427	0.002010	8.668546	169.23	-167.486	-0.126913	0.585079	-0.478906	-0.480203	0.022642	8.668546	-0.480865	-1.85195e+06	-1.222624E-8	NaN
782	1.000000	0.594379	7.3727e+06	-39239.1	1055.82	-29794.6	0.000000	0.000000	6.594963	0.039046	NaN	0.000000	0.001660	0.001738	28.08	0.059378	0.001907	31.1404	84.777	-164.434	-0.044764	0.593062	-0.470903	-0.472220	0.039046	31.1404	-0.471843	-1.38437e+06	-2.820500E-8	NaN
782	1.000000	0.602430	7.3727e+06	-39239.1	1055.82	-29794.6	0.000000	0.000000	6.603013	0.021132	NaN	0.000000	0.001650	0.001737	28.0801	0.048809	0.002075	23.5186	71.9657	-164.819	-0.002819	0.601053	-0.462852	-0.464229	0.021132	23.5186	-0.463526	-1.05816e+06	-1.997022E-8	NaN
782	1.000000	0.610417	7.3727e+06	-39239.1	1055.82	-29794.6	0.000000	0.000000	6.611000	-0.004158	NaN	0.000000	0.001640	0.001767	28.0801	0.094041	0.002040	46.1063	117.147	-166.915	-0.011071	0.609135	-0.454864	-0.456147	-0.004158	46.1063	-0.454797	-797731	5.212243E-9	NaN
782	1.000000	0.618403	7.3727e+06	-39239.1	1055.82	-29794.6	0.000000	0.000000	6.618984	-0.037879	NaN	0.000000	0.001623	0.001743	28.0799	0.105903	0.002056	51.4987	-152.443	-164.278	0.010967	0.617095	-0.446879	-0.448186	-0.037879	51.4987	-0.446327	-606179	6.248760E-8	NaN
782	1.000000	0.626410	7.3727e+06	-39239.1	1055.82	-29794.6	0.000000	0.000000	6.626992	-0.009053	NaN	0.000000	0.001669	0.001677	28.0798	0.087941	0.001939	45.348	-79.9793	-161.294	-0.025625	0.625064	-0.438872	-0.440218	-0.009053	45.348	-0.438722	-473508	1.911812E-8	NaN
782	1.000000	0.634419	7.3727e+06	-39239.1	1055.82	-29794.6	0.000000	0.000000	6.634999	-0.062845	NaN	0.000000	0.001635	0.001637	28.0796	0.043794	0.001933	22.6607	-125.458	-165.036	-0.016645	0.633139	-0.430863	-0.432143	-0.062845	22.6607	-0.428783	-342638	1.834164E-7	NaN
782	1.000000	0.642410	7.3727e+06	-39239.1	1055.82	-29794.6	0.000000	0.000000	6.642995	0.068598	NaN	0.000000	0.001635	0.001697	28.0799	0.087764	0.001931	45.439	-172.662	-163.008	0.046364	0.641085	-0.422871	-0.424196	0.068598	45.439	-0.424004	-293203	-2.339603E-7	NaN
782	1.000000	0.650414	7.37271e+06	-39239.1	1055.82	-29794.6	0.000000	0.000000	6.650998	0.044319	NaN	0.000000	0.001610	0.001726	28.0798	0.052023	0.001919	27.1163	38.2133	-163.662	-0.010189	0.649097	-0.414868	-0.416185	0.044319	27.1163	-0.416093	-226454	-1.957071E-7	NaN
782	1.000000	0.658407	7.37271e+06	-39239.1	1055.82	-29794.6	0.000000	0.000000	6.658989	-0.016304	NaN	0.000000	0.001666	0.001686	28.0801	0.075453	0.001984	38.0279	114.314	-167.33	-0.030145	0.657065	-0.406875	-0.408216	-0.016304	38.0279	-0.406553	-165715	9.838440E-8	NaN
782	1.000000	0.666426	7.37271e+06	-39239.1	1055.82	-29794.6	0.000000	0.000000	6.667013	0.119454	NaN	0.000000	0.001647	0.001711	28.0804	0.151210	0.002005	75.3999	-178.529	-163.914	0.085067	0.665118	-0.398856	-0.400163	0.119454	75.3999	-0.400044	-133852	-8.924291E-7	NaN
782	1.000000	0.674423	7.37271e+06	-39239.1	1055.82	-29794.6	0.000000	0.000000	6.675007	0.036808	NaN	0.000000	0.001657	0.001696	28.0809	0.075914	0.002002	37.9119	50.4858	-160.755	0.033601	0.673148	-0.390858	-0.392134	0.036808	37.9119	-0.391587	-101358	-3.631513E-7	NaN
782	1.000000	0.682421	7.37271e+06	-39239.1	1055.82	-29794.6	0.000000	0.000000	6.683003	-0.005055	NaN	0.000000	0.001625	0.001673	28.0811	0.038633	0.002102	18.3783	21.1642	-166.008	-0.039712	0.681108	-0.382861	-0.384173	-0.005055	18.3783	-0.382654	-75503	6.695309E-8	NaN
782	1.000000	0.690433	7.37271e+06	-39239.1	1055.82	-29794.6	0.000000	0.000000	6.691017	0.040680	NaN	0.000000	0.001645	0.001664	28.081	0.085603	0.001930	44.3489	134.649	-166.097	0.034250	0.689136	-0.374849	-0.376146	0.040680	44.3489	-0.375536	-59673.7	-6.817039E-7	NaN
782	1.000000	0.698423	7.37271e+06	-39239.1	1055.82	-29794.6	0.000000	0.000000	6.699005	0.009140	NaN	0.000000	0.001647	0.001705	28.0812	0.111841	0.001915	58.402	-179.058	-164.324	0.024762	0.697082	-0.366859	-0.368200	0.009140	58.402	-0.366976	-44932.5	-2.034274E-7	NaN
782	1.000000	0.706460	7.37271e+06	-39239.1	1055.82	-29794.6	0.000000	0.000000	6.707044	0.029689	NaN	0.000000	0.001598	0.001664	28.0811	0.030998	0.002056	15.0771	-175.087	-163.5	0.060825	0.705134	-0.358821	-0.360148	0.029689	15.0771	-0.360298	-35988	-8.249785E-7	NaN
782	1.000000	0.714445	7.37271e+06	-39239.1	1055.82	-29794.6	0.000000	0.000000	6.715025	-0.058697	NaN	0.000000	0.001657	0.001721	28.0806	0.035527	0.002076	17.1164	22.4566	-165.951	-0.019199	0.713153	-0.350837	-0.352129	-0.058697	17.1164	-0.348265	-24088.6	2.436711E-6	NaN
782	1.000000	0.722476	7.37271e+06	-39239.1	1055.82	-29794.6	0.000000	0.000000	6.723060	0.035988	NaN	0.000000	0.001620	0.001661	28.0811	0.014942	0.001929	7.745361	145.826	-162.783	0.064537	0.721188	-0.342805	-0.344094	0.035988	7.745361	-0.346290	-22548.5	-1.596020E-6	NaN
782	1.000000	0.730458	7.37271e+06	-39239.1	1055.82	-29794.6	0.000000	0.000000	6.731037	-0.074383	NaN	0.000000	0.001638	0.001712	28.0811	0.063889	0.001998	31.9768	80.7107	-164.096	-0.033091	0.729136	-0.334824	-0.336146	-0.074383	31.9768	-0.333079	-14471.5	5.140005E-6	NaN
782	1.000000	0.738429	7.37271e+06	-39239.1	1055.82	-29794.6	0.000000	0.000000	6.739013	0.031661	NaN	0.000000	0.001642	0.001674	28.081	0.136550	0.001937	70.4775	-93.6452	-163.599	-0.014682	0.737134	-0.326853	-0.328148	0.031661	70.4775	-0.327190	-11864.9	-2.668483E-6	NaN
782	1.000000	0.746482	7.37271e+06	-39239.1	1055.82	-29794.6	0.000000	0.000000	6.747064	-0.011837	NaN	0.000000	0.001632	0.001689	28.0812	0.011148	0.002008	5.552343	85.6132	-163.724	-0.013586	0.745186	-0.318800	-0.320096	-0.011837	5.552343	-0.317201	-8460.67	1.399120E-6	NaN
782	1.000000	0.754475	7.37271e+06	-39239.1	1055.82	-29794.6	0.000000	0.000000	6.755057	0.006504	NaN	0.000000	0.001661	0.001700	28.0812	0.113185	0.002126	53.2403	93.752	-161.265	0.015687	0.753166	-0.310807	-0.312115	0.006504	53.2403	-0.310899	-6828.93	-9.523950E-7	NaN
782	1.000000	0.762454	7.37271e+06	-39239.1	1055.82	-29794.6	0.000000	0.000000	6.763038	0.043681	NaN	0.000000	0.001629	0.001646	28.0813	0.057753	0.001975	29.2457	-51.7594	-164.265	0.116508	0.761157	-0.302828	-0.304125	0.043681	29.2457	-0.303948	-5386.91	-8.108741E-6	NaN
782	1.000000	0.770460	7.37271e+06	-39239.1	1055.82	-29794.6	0.000000	0.000000	6.771042	-0.016152	NaN	0.000000	0.001666	0.001613	28.0809	0.165664	0.001944	85.202	-74.6387	-164.567	0.001708	0.769155	-0.294822	-0.296127	-0.016152	85.202	-0.294679	-3920.13	4.120147E-6	NaN
782	1.000000	0.778490	7.37271e+06	-39239.1	1055.82	-29794.6	0.000000	0.000000	6.779070	-0.057631	NaN	0.000000	0.001644	0.001621	28.081	0.054786	0.002029	26.9964	-10.8375	-166.026	-0.046261	0.777193	-0.286792	-0.288089	-0.057631	26.9964	-0.285191	-2825.77	2.039472E-5	NaN
782	1.000000	0.786497	7.37271e+06	-39239.1	1055.82	-29794.6	0.000000	0.000000	6.787080	0.034690	NaN	0.000000	0.001652	0.001622	28.081	0.096424	0.002003	48.1354	10.0556	-165.242	-0.011791	0.785183	-0.278785	-0.280099	0.034690	48.1354	-0.279326	-2305.65	-1.504554E-5	NaN
782	1.000000	0.794474	7.37271e+06	-39239.1	1055.82	-29794.6	0.000000	0.000000	6.795058	0.043781	NaN	0.000000	0.001610	0.001619	28.0809	0.025263	0.002007	12.5846	-10.2035	-159.827	-4.734763E-5	0.793148	-0.270808	-0.272134	0.043781	12.5846	-0.273417	-1876.78	-2.332789E-5	NaN
782	1.000000	0.802471	7.37271e+06	-39239.1	1055.82	-29794.6	0.000000	0.000000	6.803054	0.024845	NaN	0.000000	0.001599	0.001626	28.081	0.049460	0.002098	23.5708	-90.1582	-162.692	0.026042	0.801168	-0.262811	-0.264114	0.024845	23.5708	-0.263601	-1330.55	-1.867275E-5	NaN
782	1.000000	0.810503	7.37271e+06	-39239.1	1055.82	-29794.6	0.000000	0.000000	6.811085	0.009363	NaN	0.000000	0.001640	0.001634	28.0796	0.021553	0.001912	11.2733	-123.919	-162.963	-0.014334	0.809164	-0.254779	-0.256117	0.009363	11.2733	-0.255402	-996.101	-9.399703E-6	NaN
782	1.000000	0.818475	7.37271e+06	-39239.1	1055.82	-29794.6	0.000000	0.000000	6.819057	-0.019052	NaN	0.000000	0.001645	0.001630	28.0798	0.020100	0.001975	10.1758	-133.415	-165.929	0.015289	0.817174	-0.246806	-0.248107	-0.019052	10.1758	-0.245402	-697.751	2.730507E-5	NaN
782	1.000000	0.826486	7.37271e+06	-39239.1	1055.82	-29794.6	0.000000	0.000000	6.827070	0.050643	NaN	0.000000	0.001628	0.001657	28.0797	0.152756	0.002052	74.4574	73.8067	-163.447	-0.024768	0.825186	-0.238796	-0.240096	0.050643	74.4574	-0.239306	-560.67	-9.032580E-5	NaN
782	1.000000	0.834504	7.37271e+06	-39239.1	1055.82	-29794.6	0.000000	0.000000	6.835082	-0.122946	NaN	0.000000	0.001614	0.001616	28.0797	0.018827	0.002084	9.032632	-26.3326	-163.154	-0.096955	0.833185	-0.230777	-0.232097	-0.122946	9.032632	-0.220569	-283.637	0.000433	NaN
782	1.000000	0.842488	7.37271e+06	-39239.1	1055.82	-29794.6	0.000000	0.000000	6.843071	0.021453	NaN	0.000000	0.001637	0.001659	28.0798	0.061959	0.002132	29.0644	-25.1077	-162.922	0.003154	0.841182	-0.222793	-0.224100	0.021453	29.0644	-0.223347	-314.09	-6.830351E-5	NaN
782	1.000000	0.850488	7.37271e+06	-39239.1	1055.82	-29794.6	0.000000	0.000000	6.851072	0.046971	NaN	0.000000	0.001655	0.001660	28.0799	0.023620	0.002070	11.4091	14.1961	-164.046	0.099273	0.849160	-0.214793	-0.216122	0.046971	11.4091	-0.217881	-256.904	-0.000183	NaN
782	1.000000	0.858500	7.37271e+06	-39239.1	1055.82	-29794.6	0.000000	0.000000	6.859083	0.036470	NaN	0.000000	0.001638	0.001668	28.0799	0.123996	0.002127	58.3069	-143.509	-165.047	0.061886	0.857210	-0.206782	-0.208072	0.036470	58.3069	-0.207251	-173.068	-0.000211	NaN
782	1.000000	0.866508	7.37271e+06	-39239.1	1055.82	-29794.6	0.000000	0.000000	6.867090	-0.013152	NaN	0.000000	0.001646	0.001701	28.0798	0.066698	0.001976	33.7589	-59.2638	-161.852	0.022648	0.865238	-0.198773	-0.200044	-0.013152	33.7589	-0.198481	-124.367	0.000106	NaN
782	1.000000	0.874505	7.37271e+06	-39239.1	1055.82	-29794.6	0.000000	0.000000	6.875088	0.007170	NaN	0.000000	0.001675	0.001646	28.0799	0.109780	0.002001	54.858	-133.933	-164.279	-0.075108	0.873186	-0.190777	-0.192096	0.007170	54.858	-0.190875	-93.0315	-7.707052E-5	NaN
782	1.000000	0.882507	7.37271e+06	-39239.1	1055.82	-29794.6	0.000000	0.000000	6.883089	-0.005577	NaN	0.000000	0.001644	0.001679	28.0797	0.059294	0.001941	30.5456	-7.324317	-166.28	-0.006337	0.881199	-0.182775	-0.184082	-0.005577	30.5456	-0.182638	-67.6454	8.244630E-5	NaN
782	1.000000	0.890505	7.37271e+06	-39239.1	1055.82	-29794.6	0.000000	0.000000	6.891089	0.028925	NaN	0.000000	0.001666	0.001688	28.0797	0.010596	0.001979	5.353175	-152.135	-161.866	0.083016	0.889192	-0.174776	-0.176090	0.028925	5.353175	-0.178829	-58.2796	-0.000496	NaN
782	1.000000	0.898495	7.37271e+06	-39239.1	1055.82	-29794.6	0.000000	0.000000	6.899078	0.014358	NaN	0.000000	0.001656	0.001640	28.0797	0.036910	0.002056	17.9559	-26.5203	-165.145	0.013715	0.897247	-0.166787	-0.168034	0.014358	17.9559	-0.167386	-36.9909	-0.000388	NaN
782	1.000000	0.906524	7.37271e+06	-39239.1	1055.82	-29794.6	0.000000	0.000000	6.907110	0.086544	NaN	0.000000	0.001660	0.001636	28.0801	0.043684	0.001887	23.1501	-53.9141	-163.93	0.058146	0.905218	-0.158758	-0.160064	0.086544	23.1501	-0.161561	-29.2199	-0.002962	NaN
782	1.000000	0.914528	7.37271e+06	-39239.1	1055.82	-29794.6	0.000000	0.000000	6.915110	-0.007912	NaN	0.000000	0.001698	0.001657	28.08	0.073781	0.002134	34.5759	-115.821	-166.106	0.010532	0.913238	-0.150754	-0.152044	-0.007912	34.5759	-0.150582	-18.5614	0.000426	NaN
782	1.000000	0.922525	7.37271e+06	-39239.1	1055.82	-29794.6	0.000000	0.000000	6.923108	0.021539	NaN	0.000000	0.001705	0.001619	28.0797	0.049185	0.002068	23.785	-6.439265	-163.164	-0.023958	0.921242	-0.142757	-0.144040	0.021539	23.785	-0.143436	-13.7142	-0.001571	NaN
782	1.000000	0.930524	7.37271e+06	-39239.1	1055.82	-29794.6	0.000000	0.000000	6.931104	-0.044801	NaN	0.000000	0.001695	0.001631	28.0798	0.062196	0.001907	32.6207	-102.624	-166.616	0.022614	0.929236	-0.134758	-0.136046	-0.044801	32.6207	-0.133728	-8.993864	0.004981	NaN
782	1.000000	0.938540	7.37271e+06	-39239.1	1055.82	-29794.6	0.000000	0.000000	6.939124	0.031862	NaN	0.000000	0.001715	0.001649	28.0796	0.073610	0.002005	36.7123	135.282	-162.786	-0.021153	0.937218	-0.126742	-0.128063	0.031862	36.7123	-0.127393	-6.778382	-0.004701	NaN
782	1.000000	0.946550	7.37271e+06	-39239.1	1055.82	-29794.6	0.000000	0.000000	6.947133	0.022389	NaN	0.000000	0.001693	0.001649	28.0812	0.061102	0.002009	30.4068	14.8783	-165.626	0.004283	0.945238	-0.118732	-0.120044	0.022389	30.4068	-0.119284	-4.673212	-0.004791	NaN
782	1.000000	0.954543	7.37271e+06	-39239.1	1055.82	-29794.6	0.000000	0.000000	6.955125	-0.010382	NaN	0.000000	0.001691	0.001622	28.0811	0.160410	0.002039	78.6774	23.9926	-167.88	0.035481	0.953228	-0.110739	-0.112054	-0.010382	78.6774	-0.110640	-3.099894	0.003349	NaN
782	1.000000	0.962528	7.37271e+06	-39239.1	1055.82	-29794.6	0.000000	0.000000	6.963112	0.027325	NaN	0.000000	0.001703	0.001634	28.0809	0.018199	0.001953	9.316985	107.897	-164.233	-0.005165	0.961214	-0.102753	-0.104068	0.027325	9.316985	-0.104953	-2.345066	-0.011652	NaN
782	1.000000	0.970551	7.37271e+06	-39239.1	1055.82	-29794.6	0.000000	0.000000	6.971134	0.005842	NaN	0.000000	0.001668	0.001613	28.0812	0.058531	0.001984	29.5057	36.7195	-163.796	0.038847	0.969224	-0.094731	-0.096057	0.005842	29.5057	-0.094879	-1.401709	-0.004168	NaN
782	1.000000	0.978543	7.37271e+06	-39239.1	1055.82	-29794.6	0.000000	0.000000	6.979127	0.051934	NaN	0.000000	0.001652	0.001604	28.081	0.070670	0.002159	32.7298	6.302361	-162.708	0.029609	0.977297	-0.086739	-0.087985	0.051934	32.7298	-0.087929	-0.965870	-0.053769	NaN
782	1.000000	0.986548	7.37271e+06	-39239.1	1055.82	-29794.6	0.000000	0.000000	6.987130	-0.004621	NaN	0.000000	0.001632	0.001664	28.0811	0.095306	0.001908	49.9459	-121.082	-166.209	0.066930	0.985233	-0.078734	-0.080049	-0.004621	49.9459	-0.078665	-0.572988	0.008065	NaN
782	1.000000	0.994531	7.37271e+06	-39239.1	1055.82	-29794.6	0.000000	0.000000	6.995113	-0.011198	NaN	0.000000	0.001702	0.001651	28.0807	0.077615	0.001853	41.8763	-149.006	-160.313	0.081119	0.993298	-0.070750	-0.071984	-0.011198	41.8763	-0.070550	-0.352847	0.031735	NaN
782	1.000000	1.002560	7.37271e+06	-39239.1	1055.82	-29794.6	0.000000	0.000000	7.003144	0.018537	NaN	0.000000	0.001690	0.001654	28.0811	0.063928	0.001853	34.5057	176.92	-164.85	0.004644	1.001292	-0.062721	-0.063990	0.018537	34.5057	-0.063124	-0.220903	-0.083916	NaN
782	1.000000	1.010566	7.37271e+06	-39239.1	1055.82	-29794.6	0.000000	0.000000	7.011151	0.067839	NaN	0.000000	0.001706	0.001644	28.0814	0.044424	0.002040	21.7774	156.354	-167.772	0.009523	1.009276	-0.054716	-0.056006	0.067839	21.7774	-0.057052	-0.147962	-0.458488	NaN
782	1.000000	1.018572	7.37271e+06	-39239.1	1055.82	-29794.6	0.000000	0.000000	7.019157	0.071811	NaN	0.000000	0.001687	0.001640	28.0811	0.093416	0.001980	47.1884	81.1999	-162.943	0.024385	1.017235	-0.046710	-0.048047	0.071811	47.1884	-0.047851	-0.078528	-0.914460	NaN
782	1.000000	1.026570	7.37271e+06	-39239.1	1055.82	-29794.6	0.000000	0.000000	7.027153	0.014972	NaN	0.000000	0.001657	0.001651	28.0809	0.065636	0.001966	33.3923	-84.3762	-165.245	0.036403	1.025266	-0.038712	-0.040015	0.014972	33.3923	-0.039048	-0.042314	-0.353822	NaN
782	1.000000	1.034586	7.37271e+06	-39239.1	1055.82	-29794.6	0.000000	0.000000	7.035168	-0.024942	NaN	0.000000	0.001720	0.001657	28.081	0.064668	0.002250	28.7414	-29.1418	-163.503	0.025442	1.033255	-0.030695	-0.032027	-0.024942	28.7414	-0.030044	-0.023079	1.080756	NaN
782	1.000000	1.042556	7.37271e+06	-39239.1	1055.82	-29794.6	0.000000	0.000000	7.043138	0.004574	NaN	0.000000	0.001696	0.001646	28.0812	0.109241	0.001920	56.8888	143.007	-161.544	-0.030742	1.041249	-0.022726	-0.024033	0.004574	56.8888	-0.022786	-0.014789	-0.309312	NaN
782	1.000000	1.050587	7.37271e+06	-39239.1	1055.82	-29794.6	0.000000	0.000000	7.051167	-0.056092	NaN	0.000000	0.001694	0.001658	28.0813	0.034514	0.001901	18.1537	-12.9944	-165.915	-0.016724	1.049230	-0.014694	-0.016051	-0.056092	18.1537	-0.012377	-0.007744	7.243086	NaN
782	1.000000	1.058582	7.37271e+06	-39239.1	1055.82	-29794.6	0.000000	0.000000	7.059163	-0.026781	NaN	0.000000	0.001639	0.001664	28.081	0.143518	0.001987	72.2434	138.368	-164.147	0.019957	1.057282	-0.006700	-0.008000	-0.026781	72.2434	-0.006422	-0.004293	6.238387	NaN
782	1.000000	1.066590	7.37271e+06	-39239.1	1055.82	-29794.6	0.000000	0.000000	7.067355	4.455496	NaN	0.000000	0.001677	0.001665	28.0813	5.118815	0.001738	2945.69	9.667336	-167.647	3.221492	1.065257	0.001308	-2.424303E-5	4.455496	2945.69	0.000174	0.000130	34194.6	235771
782	2.000000	1.071240	7.37271e+06	-39239.1	1055.82	-29794.6	0.000000	0.000000	7.072194	9.049021	NaN	0.000000	0.001677	0.001681	28.0811	9.446925	0.001662	5684.62	8.527819	-171.969	9.089286	1.070920	0.005958	0.005638	9.049021	5684.62	0.004764	0.003919	2308.83	82960.3
782	2.000000	1.073222	7.37271e+06	-39239.1	1055.82	-29794.6	0.000000	0.000000	7.074375	13.8897	NaN	0.000000	0.001675	0.001660	28.0799	12.4203	0.001732	7170.09	5.528046	-171.695	13.4588	1.072826	0.007940	0.007544	13.8897	7170.09	0.006487	0.005532	2510.88	88077.4
782	2.000000	1.075221	7.37271e+06	-39239.1	1055.82	-29794.6	0.000000	0.000000	7.076371	13.8286	NaN	0.000000	0.001668	0.001696	28.0798	13.7056	0.001748	7838.86	12.5037	-177.837	14.601	1.074845	0.009939	0.009563	13.8286	7838.86	0.008616	0.007684	1799.77	81704.6
782	2.000000	1.077156	7.37271e+06	-39239.1	1055.82	-29794.6	0.000000	0.000000	7.078513	18.8556	NaN	0.000000	0.001689	0.001657	28.0798	16.1379	0.001725	9357.22	5.785211	-173.61	18.2441	1.076890	0.011874	0.011609	18.8556	9357.22	0.010363	0.009587	1966.74	87311.8
782	2.000000	1.079205	7.37271e+06	-39239.1	1055.82	-29794.6	0.000000	0.000000	7.080718	22.6441	NaN	0.000000	0.001718	0.001660	28.0801	18.5888	0.001737	10701.7	7.997306	-176.936	22.3594	1.078859	0.013924	0.013577	22.6441	10701.7	0.012337	0.011896	1903.5	89644.6
782	2.000000	1.081142	7.37271e+06	-39239.1	1055.82	-29794.6	0.000000	0.000000	7.082834	26.9962	NaN	0.000000	0.001675	0.001659	28.08	20.1995	0.001717	11762.5	5.392326	-175.86	26.2757	1.080832	0.015861	0.015551	26.9962	11762.5	0.014139	0.014155	1907.22	90327.8
782	2.000000	1.083176	7.37271e+06	-39239.1	1055.82	-29794.6	0.000000	0.000000	7.085102	32.6983	NaN	0.000000	0.001680	0.001694	28.0806	23.2568	0.001849	12578.7	8.866533	-178.896	33.1267	1.082804	0.017895	0.017523	32.6983	12578.7	0.015945	0.016566	1973.79	89288.4
782	2.000000	1.085081	7.37271e+06	-39239.1	1055.82	-29794.6	0.000000	0.000000	7.087277	39.2713	NaN	0.000000	0.001645	0.001671	28.0799	24.5635	0.001758	13973.3	4.937648	-177.385	36.018	1.084774	0.019800	0.019492	39.2713	13973.3	0.017692	0.019044	2062.1	92510
782	2.000000	1.087148	7.37271e+06	-39239.1	1055.82	-29794.6	0.000000	0.000000	7.089487	42.7447	NaN	0.000000	0.001688	0.001659	28.0799	26.4379	0.001763	14999.7	2.231283	-175.249	42.0336	1.086860	0.021866	0.021579	42.7447	14999.7	0.019729	0.022118	1932.57	92147.3
782	2.000000	1.089139	7.37271e+06	-39239.1	1055.82	-29794.6	0.000000	0.000000	7.091754	49.4593	NaN	0.000000	0.001722	0.001683	28.08	28.2095	0.001695	16640.5	2.514909	-175.52	48.9161	1.088826	0.023857	0.023544	49.4593	16640.5	0.021628	0.025165	1965.36	95837.9
782	2.000000	1.091106	7.37271e+06	-39239.1	1055.82	-29794.6	0.000000	0.000000	7.094104	58.7783	NaN	0.000000	0.001692	0.001618	28.0799	30.3	0.001739	17428.8	0.165824	-174.476	56.228	1.090756	0.025824	0.025475	58.7783	17428.8	0.023295	0.027987	2100.23	95184.1
782	2.000000	1.093112	7.37271e+06	-39239.1	1055.82	-29794.6	0.000000	0.000000	7.096400	65.8579	NaN	0.000000	0.001707	0.001665	28.0808	33.5866	0.001774	18935.8	6.509431	178.621	63.8082	1.092815	0.027830	0.027533	65.8579	18935.8	0.025222	0.031420	2096.04	97600.8
782	2.000000	1.095074	7.37271e+06	-39239.1	1055.82	-29794.6	0.000000	0.000000	7.098439	67.7188	NaN	0.000000	0.001680	0.001657	28.0798	34.5707	0.001706	20262.4	3.901550	179.673	64.8532	1.094833	0.029793	0.029551	67.7188	20262.4	0.027286	0.035306	1918.05	98523.3
782	2.000000	1.097111	7.37271e+06	-39239.1	1055.82	-29794.6	0.000000	0.000000	7.100681	72.6985	NaN	0.000000	0.001694	0.001621	28.0799	37.2277	0.001779	20930	6.407221	177.183	73.3031	1.096884	0.031829	0.031603	72.6985	20930	0.029224	0.039151	1856.86	96642.6
782	2.000000	1.099083	7.37271e+06	-39239.1	1055.82	-29794.6	0.000000	0.000000	7.103164	85.1332	NaN	0.000000	0.001675	0.001646	28.0797	39.317	0.001802	21818.1	4.613012	178.639	82.8477	1.098803	0.033801	0.033522	85.1332	21818.1	0.030875	0.042576	1999.54	96606.2
782	2.000000	1.101157	7.37271e+06	-39239.1	1055.82	-29794.6	0.000000	0.000000	7.105462	90.5868	NaN	0.000000	0.001703	0.001677	28.0799	40.6559	0.001727	23537.9	4.744844	178.756	92.2705	1.100802	0.035876	0.035521	90.5868	23537.9	0.032989	0.047168	1920.52	99018.8
782	2.000000	1.103097	7.37271e+06	-39239.1	1055.82	-29794.6	0.000000	0.000000	7.107891	102.496	NaN	0.000000	0.001716	0.001663	28.0806	43.0981	0.001814	23762.6	4.001578	178.946	101.724	1.102712	0.037815	0.037431	102.496	23762.6	0.034580	0.050774	2018.69	96349.2
782	2.000000	1.105043	7.37271e+06	-39239.1	1055.82	-29794.6	0.000000	0.000000	7.110137	109.799	NaN	0.000000	0.001708	0.001690	28.0797	43.9849	0.001744	25220.5	5.628329	176.747	105.9	1.104769	0.039761	0.039487	109.799	25220.5	0.036496	0.055287	1985.99	97998.1
782	2.000000	1.107037	7.37271e+06	-39239.1	1055.82	-29794.6	0.000000	0.000000	7.112562	120.291	NaN	0.000000	0.001715	0.001675	28.0811	45.8388	0.001719	26660.9	3.494362	178.466	118.615	1.106770	0.041755	0.041489	120.291	26660.9	0.038371	0.059887	2008.65	99536.8
782	2.000000	1.109138	7.37271e+06	-39239.1	1055.82	-29794.6	0.000000	0.000000	7.114998	128.43	NaN	0.000000	0.001724	0.001648	28.0808	48.3372	0.001798	26879.6	4.932075	177.163	127.945	1.108869	0.043856	0.043587	128.43	26879.6	0.040273	0.064735	1983.93	96522
782	2.000000	1.111081	7.37271e+06	-39239.1	1055.82	-29794.6	0.000000	0.000000	7.117607	144.645	NaN	0.000000	0.001720	0.001686	28.0809	49.6224	0.001803	27527.6	2.661026	178.827	143.747	1.110814	0.045799	0.045533	144.645	27527.6	0.041858	0.068919	2098.76	95801.4
782	2.000000	1.113135	7.37271e+06	-39239.1	1055.82	-29794.6	0.000000	0.000000	7.119977	152.323	NaN	0.000000	0.001666	0.001712	28.0816	52.6345	0.001840	28604.7	5.059252	177.279	155.662	1.112799	0.047854	0.047517	152.323	28604.7	0.043860	0.074383	2047.82	95823.7
782	2.000000	1.114996	7.37271e+06	-39239.1	1055.82	-29794.6	0.000000	0.000000	7.122548	169.602	NaN	0.000000	0.001694	0.001653	28.0809	52.2392	0.001773	29470.4	4.113009	177.692	164.722	1.114669	0.049714	0.049388	169.602	29470.4	0.045398	0.078721	2154.47	95965.4
782	2.000000	1.117064	7.37271e+06	-39239.1	1055.82	-29794.6	0.000000	0.000000	7.124970	178.237	NaN	0.000000	0.001723	0.001673	28.0813	56.1593	0.001805	31121.1	9.165888	172.446	177.786	1.116743	0.051782	0.051461	178.237	31121.1	0.047487	0.084803	2101.77	97638.9
782	2.000000	1.119181	7.37271e+06	-39239.1	1055.82	-29794.6	0.000000	0.000000	7.127323	183.954	NaN	0.000000	0.001678	0.001704	28.0808	57.5738	0.001741	33063.8	7.279424	173.295	186.784	1.118718	0.053900	0.053436	183.954	33063.8	0.049727	0.091572	2008.85	99826.5
782	2.000000	1.121054	7.37271e+06	-39239.1	1055.82	-29794.6	0.000000	0.000000	7.129523	191.928	NaN	0.000000	0.001675	0.001700	28.0808	58.9018	0.001809	32565.8	3.924615	176.15	189.876	1.120826	0.055773	0.055544	191.928	32565.8	0.051352	0.096639	1986.03	95710.3
782	2.000000	1.123048	7.37271e+06	-39239.1	1055.82	-29794.6	0.000000	0.000000	7.132177	208.001	NaN	0.000000	0.001709	0.001703	28.0814	59.7596	0.001807	33077.1	3.427072	177.22	204.581	1.122671	0.057766	0.057389	208.001	33077.1	0.053050	0.102072	2037.79	94590.5
782	2.000000	1.125025	7.37271e+06	-39239.1	1055.82	-29794.6	0.000000	0.000000	7.134566	218.009	NaN	0.000000	0.001635	0.001693	28.081	60.3302	0.001770	34085.7	2.058441	178.798	215.102	1.124687	0.059744	0.059406	218.009	34085.7	0.054947	0.108315	2012.74	94624.3
782	2.000000	1.127090	7.37271e+06	-39239.1	1055.82	-29794.6	0.000000	0.000000	7.137064	228.532	NaN	0.000000	0.001666	0.001619	28.0812	63.9743	0.001852	34542.3	3.165236	176.721	228.159	1.126788	0.061809	0.061506	228.532	34542.3	0.056847	0.114744	1991.67	93166.2
782	2.000000	1.129056	7.37271e+06	-39239.1	1055.82	-29794.6	0.000000	0.000000	7.139550	241.197	NaN	0.000000	0.001670	0.001666	28.0809	65.7243	0.001875	35056.8	3.215261	177.19	237.51	1.128659	0.063775	0.063378	241.197	35056.8	0.058614	0.120887	1995.23	92120.5
782	2.000000	1.131065	7.37271e+06	-39239.1	1055.82	-29794.6	0.000000	0.000000	7.142080	253.876	NaN	0.000000	0.001728	0.001690	28.081	65.9462	0.001666	39588.7	4.917835	173.977	252.835	1.130747	0.065784	0.065465	253.876	39588.7	0.060974	0.129325	1963.09	100578
782	2.000000	1.133044	7.37271e+06	-39239.1	1055.82	-29794.6	0.000000	0.000000	7.144544	265.684	NaN	0.000000	0.001702	0.001672	28.0812	69.0428	0.001724	40049.1	5.109647	173.689	264.293	1.132725	0.067762	0.067443	265.684	40049.1	0.062787	0.135991	1953.69	99222.8
782	2.000000	1.134929	7.37271e+06	-39239.1	1055.82	-29794.6	0.000000	0.000000	7.146605	269.98	NaN	0.000000	0.001685	0.001642	28.0809	69.4368	0.001773	39162	4.061623	174.646	264.412	1.134741	0.069647	0.069460	269.98	39162	0.064477	0.142349	1896.61	94833.6
782	2.000000	1.137044	7.37271e+06	-39239.1	1055.82	-29794.6	0.000000	0.000000	7.149447	287.671	NaN	0.000000	0.001668	0.001645	28.0813	71.6766	0.001698	42208	2.907140	175.46	284.393	1.136676	0.071762	0.071394	287.671	42208	0.066650	0.150729	1908.52	99327.4
782	2.000000	1.139122	7.37271e+06	-39239.1	1055.82	-29794.6	0.000000	0.000000	7.152040	300.19	NaN	0.000000	0.001648	0.001639	28.081	74.953	0.001821	41156.4	5.867863	173.463	300.541	1.138797	0.073841	0.073515	300.19	41156.4	0.068370	0.157521	1905.71	94741.7
782	2.000000	1.141036	7.37271e+06	-39239.1	1055.82	-29794.6	0.000000	0.000000	7.154410	311.299	NaN	0.000000	0.001658	0.001636	28.08	76.9936	0.001914	40218.1	3.425889	175.563	308.147	1.140773	0.075754	0.075492	311.299	40218.1	0.069949	0.163880	1899.56	90767.9
782	2.000000	1.142905	7.37271e+06	-39239.1	1055.82	-29794.6	0.000000	0.000000	7.157128	331.93	NaN	0.000000	0.001677	0.001637	28.08	79.3196	0.001867	42484	8.215759	170.302	324.88	1.142582	0.077624	0.077300	331.93	42484	0.071764	0.171337	1937.3	93772
782	2.000000	1.145089	7.37271e+06	-39239.1	1055.82	-29794.6	0.000000	0.000000	7.159767	343.011	NaN	0.000000	0.001670	0.001590	28.0797	80.2633	0.001916	41891	5.906845	172.754	344.867	1.144818	0.079808	0.079537	343.011	41891	0.073667	0.179322	1912.82	90381
782	2.000000	1.146999	7.37271e+06	-39239.1	1055.82	-29794.6	0.000000	0.000000	7.162103	353.388	NaN	0.000000	0.001645	0.001624	28.0801	81.2729	0.001953	41621.9	3.768843	174.997	350.357	1.146797	0.081717	0.081515	353.388	41621.9	0.075349	0.186527	1894.56	88049
782	2.000000	1.149081	7.37271e+06	-39239.1	1055.82	-29794.6	0.000000	0.000000	7.164929	371.494	NaN	0.000000	0.001684	0.001639	28.0798	82.7843	0.001782	46463.2	5.778657	172.713	373.488	1.148601	0.083799	0.083320	371.494	46463.2	0.077803	0.197269	1883.19	95577
782	2.000000	1.151076	7.37271e+06	-39239.1	1055.82	-29794.6	0.000000	0.000000	7.167609	388.158	NaN	0.000000	0.001640	0.001610	28.0799	84.063	0.001813	46376.6	6.655226	171.729	390.438	1.150619	0.085794	0.085338	388.158	46376.6	0.079517	0.204942	1893.99	93596
782	2.000000	1.153003	7.37271e+06	-39239.1	1055.82	-29794.6	0.000000	0.000000	7.170244	405.374	NaN	0.000000	0.001657	0.001669	28.0798	86.4259	0.001869	46248.2	5.583378	172.989	404.189	1.152582	0.087722	0.087300	405.374	46248.2	0.081148	0.212369	1908.81	91690
782	2.000000	1.154976	7.37271e+06	-39239.1	1055.82	-29794.6	0.000000	0.000000	7.172839	420.533	NaN	0.000000	0.001633	0.001638	28.0797	86.7783	0.001840	47165	6.482564	171.706	417.104	1.154707	0.089694	0.089425	420.533	47165	0.083007	0.220986	1902.99	91666.4
782	2.000000	1.156948	7.37271e+06	-39239.1	1055.82	-29794.6	0.000000	0.000000	7.175335	433.27	NaN	0.000000	0.001608	0.001629	28.0802	89.4015	0.001795	49807.8	2.754339	174.98	429.574	1.156760	0.091667	0.091479	433.27	49807.8	0.085142	0.231081	1874.97	94664.6
782	2.000000	1.159109	7.37271e+06	-39239.1	1055.82	-29794.6	0.000000	0.000000	7.178071	447.259	NaN	0.000000	0.001581	0.001624	28.0798	91.7058	0.001818	50457	5.761147	171.503	448.577	1.158799	0.093828	0.093517	447.259	50457	0.087179	0.240908	1856.56	93922.3
782	2.000000	1.160970	7.37271e+06	-39239.1	1055.82	-29794.6	0.000000	0.000000	7.180874	470.208	NaN	0.000000	0.001594	0.001661	28.0799	92.8169	0.001726	53779.6	4.217747	172.681	466.661	1.160719	0.095688	0.095438	470.208	53779.6	0.089131	0.250500	1877.08	98171.9
782	2.000000	1.163010	7.37271e+06	-39239.1	1055.82	-29794.6	0.000000	0.000000	7.183508	484.629	NaN	0.000000	0.001589	0.001610	28.0798	94.9499	0.001654	57423.1	6.351548	170.175	482.118	1.162638	0.097729	0.097356	484.629	57423.1	0.091399	0.261870	1850.64	102522
782	2.000000	1.165023	7.37271e+06	-39239.1	1055.82	-29794.6	0.000000	0.000000	7.186000	496.302	NaN	0.000000	0.001635	0.001627	28.0799	94.9205	0.001722	55136.3	0.589606	176.166	495.459	1.164833	0.099741	0.099552	496.302	55136.3	0.092990	0.269987	1838.25	96948.1
782	2.000000	1.167009	7.37271e+06	-39239.1	1055.82	-29794.6	0.000000	0.000000	7.188992	520.775	NaN	0.000000	0.001667	0.001624	28.0803	99.9916	0.001876	53306	8.506154	168.822	516.356	1.166646	0.101728	0.101364	520.775	53306	0.094400	0.277277	1878.18	92489.5
782	2.000000	1.168467	7.37271e+06	-39239.1	1055.82	-29794.6	0.000000	0.000000	7.190994	534.02	NaN	0.000000	0.001630	0.001636	28.08	99.9746	0.001797	55620.3	6.521405	-9.671671	527.809	1.168041	0.103185	0.102760	534.02	55620.3	0.095984	0.285573	1870	95092.9