File: remote_trans/data/nanoindenter/0828-1/data/Data_2025-08-06,11h17m57s/2025-07-22_16-23-58_1_656.txt
2025-07-22, 16:23:58, 1
Index	Phase	Displacement	Time	Pos X	Pos Y	Pos Z	Rot A	Rot B	Piezo Z	Force A	Force B	Gripper	Voltage A	Voltage B	Temperature	Amplitude force	Amplitude pos	Stiffness	Phase shift	Phase excitation	Force A raw	Displacement raw	HMax	HMax raw	Real Force	Real Stiffness	Contact Depth	Area	Hardness	Reduced Mod.
[#]	[#]	[um]	[s]	[um]	[um]	[um]	[m°]	[m°]	[um]	[uN]	[uN]	[V]	[V]	[V]	[°C]	[uN]	[um]	[N/m]	[°]	[°]	[uN]	[um]	[um]	[um]	[uN]	[N/m]	[um]	[um^2]	[MPa]	[MPa]
656	1.000000	0.003319	7.37147e+06	-44289.1	1005.82	-29776.2	0.000000	0.000000	6.002831	0.002310	NaN	0.000000	0.001606	0.001769	28.0839	0.061703	0.000865	71.3002	-48.7455	-168.79	0.034282	0.002042	-1.131284	-1.132562	0.002310	71.3002	-1.131309	-1.318791E+15	-1.751822E-18	NaN
656	1.000000	0.013348	7.37147e+06	-44289.1	1005.82	-29776.2	0.000000	0.000000	6.012860	-0.009175	NaN	0.000000	0.001569	0.001736	28.0836	0.115065	0.001218	94.4663	139.808	21.5244	0.047851	0.011934	-1.121255	-1.122669	-0.009175	94.4663	-1.121182	-9.645716E+14	9.511745E-18	NaN
656	1.000000	0.023220	7.37147e+06	-44289.1	1005.82	-29776.2	0.000000	0.000000	6.022735	0.062526	NaN	0.000000	0.001573	0.001680	28.0836	0.043008	0.001746	24.6317	-164.426	-162.242	0.094440	0.021916	-1.111383	-1.112688	0.062526	24.6317	-1.113287	-7.557823E+14	-8.272964E-17	NaN
656	1.000000	0.033218	7.37147e+06	-44289.1	1005.82	-29776.2	0.000000	0.000000	6.032729	-0.029826	NaN	0.000000	0.001601	0.001686	28.0839	0.118604	0.002001	59.2731	38.2723	14.1223	0.044694	0.031883	-1.101385	-1.102720	-0.029826	59.2731	-1.101008	-5.171230E+14	5.767755E-17	NaN
656	1.000000	0.043210	7.37147e+06	-44289.1	1005.82	-29776.2	0.000000	0.000000	6.042723	0.035936	NaN	0.000000	0.001641	0.001676	28.084	0.103834	0.001919	54.1067	-105.853	-165.771	0.135269	0.041920	-1.091393	-1.092683	0.035936	54.1067	-1.091892	-3.901311E+14	-9.211303E-17	NaN
656	1.000000	0.053224	7.37147e+06	-44289.1	1005.82	-29776.2	0.000000	0.000000	6.052737	0.033497	NaN	0.000000	0.001590	0.001710	28.0835	0.047306	0.002042	23.1653	147.529	15.2813	0.016962	0.051860	-1.081379	-1.082743	0.033497	23.1653	-1.082464	-2.914790E+14	-1.149200E-16	NaN
656	1.000000	0.063214	7.37147e+06	-44289.1	1005.82	-29776.2	0.000000	0.000000	6.062727	0.021353	NaN	0.000000	0.001610	0.001707	28.0834	0.017949	0.002023	8.874045	-102.293	-165.583	0.151506	0.061933	-1.071389	-1.072671	0.021353	8.874045	-1.073194	-2.188247E+14	-9.758053E-17	NaN
656	1.000000	0.073249	7.37147e+06	-44289.1	1005.82	-29776.2	0.000000	0.000000	6.072762	0.033484	NaN	0.000000	0.001615	0.001684	28.0834	0.077287	0.002087	37.0413	-159.605	15.6847	-0.021928	0.071890	-1.061355	-1.062713	0.033484	37.0413	-1.062033	-1.549303E+14	-2.161231E-16	NaN
656	1.000000	0.083238	7.37147e+06	-44289.1	1005.82	-29776.2	0.000000	0.000000	6.082750	0.011782	NaN	0.000000	0.001578	0.001727	28.0833	0.043332	0.002012	21.5333	-168.845	-164.916	0.033362	0.081943	-1.051365	-1.052661	0.011782	21.5333	-1.051776	-1.127929E+14	-1.044589E-16	NaN
656	1.000000	0.093251	7.37147e+06	-44289.1	1005.82	-29776.2	0.000000	0.000000	6.092764	0.032167	NaN	0.000000	0.001556	0.001693	28.0836	0.053589	0.002026	26.4483	-94.6095	15.9637	0.013634	0.091925	-1.041352	-1.042679	0.032167	26.4483	-1.042265	-8.402699E+13	-3.828222E-16	NaN
656	1.000000	0.103240	7.37147e+06	-44289.1	1005.82	-29776.2	0.000000	0.000000	6.102750	-0.022355	NaN	0.000000	0.001567	0.001726	28.0833	0.097420	0.002039	47.7827	-121.836	-165.526	0.040828	0.101969	-1.031364	-1.032635	-0.022355	47.7827	-1.031013	-5.930707E+13	3.769411E-16	NaN
656	1.000000	0.113256	7.37147e+06	-44289.1	1005.82	-29776.2	0.000000	0.000000	6.112771	0.078285	NaN	0.000000	0.001570	0.001698	28.0836	0.089794	0.001987	45.1959	1.230529	16.077	-0.004892	0.111899	-1.021347	-1.022705	0.078285	45.1959	-1.022646	-4.576720E+13	-1.710510E-15	NaN
656	1.000000	0.123255	7.37147e+06	-44289.1	1005.82	-29776.2	0.000000	0.000000	6.122767	0.012304	NaN	0.000000	0.001570	0.001699	28.083	0.075103	0.001962	38.2829	-125.829	-166.725	-0.037634	0.121957	-1.011349	-1.012647	0.012304	38.2829	-1.011590	-3.249203E+13	-3.786664E-16	NaN
656	1.000000	0.133269	7.37147e+06	-44289.1	1005.82	-29776.2	0.000000	0.000000	6.132780	-0.012732	NaN	0.000000	0.001578	0.001657	28.082	0.113018	0.001950	57.9448	-0.817403	11.5792	0.064322	0.131878	-1.001334	-1.002725	-0.012732	57.9448	-1.001169	-2.352414E+13	5.412336E-16	NaN
656	1.000000	0.143262	7.37147e+06	-44289.1	1005.82	-29776.2	0.000000	0.000000	6.142775	0.028962	NaN	0.000000	0.001600	0.001694	28.0822	0.016851	0.001991	8.462464	24.7499	-165.636	0.095983	0.141919	-0.991341	-0.992685	0.028962	8.462464	-0.993908	-1.878185E+13	-1.542011E-15	NaN
656	1.000000	0.153290	7.37147e+06	-44289.1	1005.82	-29776.2	0.000000	0.000000	6.152799	-0.083226	NaN	0.000000	0.001608	0.001635	28.082	0.040224	0.001985	20.2622	93.502	13.5954	-0.134140	0.151920	-0.981313	-0.982684	-0.083226	20.2622	-0.978232	-1.155039E+13	7.205452E-15	NaN
656	1.000000	0.163283	7.37147e+06	-44289.1	1005.82	-29776.2	0.000000	0.000000	6.162798	0.075322	NaN	0.000000	0.001626	0.001642	28.0822	0.025152	0.002058	12.2199	122.89	-166.536	0.073621	0.162015	-0.971320	-0.972589	0.075322	12.2199	-0.975943	-1.075855E+13	-7.001093E-15	NaN
656	1.000000	0.173280	7.37147e+06	-44289.1	1005.82	-29776.2	0.000000	0.000000	6.172790	-0.038129	NaN	0.000000	0.001567	0.001670	28.082	0.110124	0.002055	53.579	86.0696	16.3463	-0.042371	0.171939	-0.961324	-0.962664	-0.038129	53.579	-0.960790	-6.722356E+12	5.671957E-15	NaN
656	1.000000	0.183301	7.37147e+06	-44289.1	1005.82	-29776.2	0.000000	0.000000	6.182814	0.035343	NaN	0.000000	0.001603	0.001614	28.0825	0.062441	0.001977	31.5769	-129.407	-162.879	0.049761	0.181929	-0.951303	-0.952674	0.035343	31.5769	-0.952142	-5.139448E+12	-6.876803E-15	NaN
656	1.000000	0.193312	7.37147e+06	-44289.1	1005.82	-29776.2	0.000000	0.000000	6.192824	0.006932	NaN	0.000000	0.001579	0.001684	28.082	0.070230	0.001970	35.6509	131.721	14.7217	0.000801	0.191902	-0.941291	-0.942702	0.006932	35.6509	-0.941437	-3.685738E+12	-1.880881E-15	NaN
656	1.000000	0.203302	7.37147e+06	-44289.1	1005.82	-29776.2	0.000000	0.000000	6.202815	0.021482	NaN	0.000000	0.001573	0.001653	28.0821	0.033314	0.001987	16.7626	60.1005	-169.104	0.017356	0.201956	-0.931301	-0.932647	0.021482	16.7626	-0.932262	-2.771592E+12	-7.750909E-15	NaN
656	1.000000	0.213276	7.37147e+06	-44289.1	1005.82	-29776.2	0.000000	0.000000	6.212784	-0.095755	NaN	0.000000	0.001576	0.001673	28.082	0.068817	0.002018	34.1079	-144.391	17.2779	-0.069244	0.211940	-0.921327	-0.922664	-0.095755	34.1079	-0.919222	-1.847970E+12	5.181633E-14	NaN
656	1.000000	0.223289	7.37147e+06	-44289.1	1005.82	-29776.2	0.000000	0.000000	6.222801	0.025977	NaN	0.000000	0.001567	0.001653	28.0823	0.068615	0.001936	35.4405	-4.767961	-164.141	0.040604	0.221931	-0.911315	-0.912672	0.025977	35.4405	-0.911864	-1.470095E+12	-1.767062E-14	NaN
656	1.000000	0.233295	7.37147e+06	-44289.1	1005.82	-29776.2	0.000000	0.000000	6.232807	0.010896	NaN	0.000000	0.001555	0.001662	28.0819	0.071928	0.002118	33.9618	159.626	12.9134	0.032325	0.231959	-0.901309	-0.902644	0.010896	33.9618	-0.901549	-1.066597E+12	-1.021522E-14	NaN
656	1.000000	0.243321	7.37147e+06	-44289.1	1005.82	-29776.2	0.000000	0.000000	6.242830	-0.072222	NaN	0.000000	0.001529	0.001689	28.0821	0.059679	0.002166	27.5471	27.6791	-165.413	-0.097494	0.242006	-0.891283	-0.892597	-0.072222	27.5471	-0.889316	-7.289096E+11	9.908183E-14	NaN
656	1.000000	0.253305	7.37147e+06	-44289.1	1005.82	-29776.2	0.000000	0.000000	6.252819	0.053982	NaN	0.000000	0.001558	0.001682	28.0821	0.014968	0.001978	7.567339	-126.47	14.7159	0.027096	0.251915	-0.881298	-0.882689	0.053982	7.567339	-0.886648	-6.708156E+11	-8.047209E-14	NaN
656	1.000000	0.263272	7.37147e+06	-44289.1	1005.82	-29776.2	0.000000	0.000000	6.262784	0.025975	NaN	0.000000	0.001561	0.001694	28.0831	0.100256	0.001985	50.5161	-158.971	-167.853	-0.008305	0.262005	-0.871332	-0.872598	0.025975	50.5161	-0.871718	-4.213862E+11	-6.164173E-14	NaN
656	1.000000	0.273321	7.37147e+06	-44289.1	1005.82	-29776.2	0.000000	0.000000	6.272835	0.046971	NaN	0.000000	0.001591	0.001711	28.0834	0.097829	0.001981	49.3759	67.4918	12.5818	-0.009493	0.271905	-0.861282	-0.862698	0.046971	49.3759	-0.861996	-3.112681E+11	-1.509027E-13	NaN
656	1.000000	0.283337	7.37147e+06	-44289.1	1005.82	-29776.2	0.000000	0.000000	6.282850	0.030893	NaN	0.000000	0.001622	0.001691	28.0835	0.055531	0.002048	27.117	17.5015	-163.227	-0.064016	0.282011	-0.851266	-0.852592	0.030893	27.117	-0.852120	-2.287969E+11	-1.350239E-13	NaN
656	1.000000	0.293340	7.37147e+06	-44289.1	1005.82	-29776.2	0.000000	0.000000	6.292853	0.031091	NaN	0.000000	0.001647	0.001643	28.0832	0.060899	0.002123	28.68	-160.805	13.1608	0.021026	0.291952	-0.841264	-0.842652	0.031091	28.68	-0.842077	-1.672725E+11	-1.858710E-13	NaN
656	1.000000	0.303335	7.37147e+06	-44289.1	1005.82	-29776.2	0.000000	0.000000	6.302849	0.072841	NaN	0.000000	0.001626	0.001683	28.0833	0.071709	0.001894	37.8555	-22.5556	-163.757	0.120158	0.302071	-0.831269	-0.832533	0.072841	37.8555	-0.832712	-1.248936E+11	-5.832257E-13	NaN
656	1.000000	0.313353	7.37147e+06	-44289.1	1005.82	-29776.2	0.000000	0.000000	6.312865	0.009711	NaN	0.000000	0.001629	0.001651	28.0834	0.050251	0.001983	25.3444	-144.103	15.9602	-0.072557	0.312012	-0.821251	-0.822591	0.009711	25.3444	-0.821538	-8.811850E+10	-1.102036E-13	NaN
656	1.000000	0.323339	7.37147e+06	-44289.1	1005.82	-29776.2	0.000000	0.000000	6.322849	-0.034058	NaN	0.000000	0.001639	0.001651	28.0836	0.106472	0.001925	55.3228	64.3805	-167.987	-0.038491	0.322012	-0.811265	-0.812591	-0.034058	55.3228	-0.810803	-6.301788E+10	5.404459E-13	NaN
656	1.000000	0.333350	7.37147e+06	-44289.1	1005.82	-29776.2	0.000000	0.000000	6.332863	0.032530	NaN	0.000000	0.001655	0.001697	28.0836	0.019895	0.002028	9.812064	-122.612	15.4942	0.025000	0.332000	-0.801253	-0.802603	0.032530	9.812064	-0.803740	-5.053828E+10	-6.436734E-13	NaN
656	1.000000	0.343335	7.37147e+06	-44289.1	1005.82	-29776.2	0.000000	0.000000	6.342849	0.046197	NaN	0.000000	0.001637	0.001695	28.0836	0.054257	0.002097	25.8709	-86.7327	-163.8	0.017265	0.342050	-0.791268	-0.792553	0.046197	25.8709	-0.792608	-3.568579E+10	-1.294562E-12	NaN
656	1.000000	0.353365	7.37147e+06	-44289.1	1005.82	-29776.2	0.000000	0.000000	6.352874	-0.072845	NaN	0.000000	0.001622	0.001671	28.0835	0.038951	0.001927	20.209	55.5573	14.1773	0.013348	0.352001	-0.781238	-0.782602	-0.072845	20.209	-0.778535	-2.297834E+10	3.170155E-12	NaN
656	1.000000	0.363367	7.37147e+06	-44289.1	1005.82	-29776.2	0.000000	0.000000	6.362878	-0.015070	NaN	0.000000	0.001666	0.001678	28.0836	0.121005	0.001994	60.6702	72.1929	-164.556	0.037207	0.362070	-0.771236	-0.772533	-0.015070	60.6702	-0.771050	-1.817943E+10	8.289570E-13	NaN
656	1.000000	0.373378	7.37147e+06	-44289.1	1005.82	-29776.2	0.000000	0.000000	6.372889	-0.003448	NaN	0.000000	0.001611	0.001675	28.0836	0.029467	0.001986	14.8408	144.018	15.7802	-0.071510	0.372014	-0.761226	-0.762589	-0.003448	14.8408	-0.761051	-1.329244E+10	2.594213E-13	NaN
656	1.000000	0.383361	7.37147e+06	-44289.1	1005.82	-29776.2	0.000000	0.000000	6.382875	0.060605	NaN	0.000000	0.001650	0.001700	28.0834	0.069943	0.002029	34.48	-104.17	-161.788	0.051866	0.382053	-0.751242	-0.752550	0.060605	34.48	-0.752560	-1.018757E+10	-5.948905E-12	NaN
656	1.000000	0.393352	7.37147e+06	-44289.1	1005.82	-29776.2	0.000000	0.000000	6.392862	-0.050605	NaN	0.000000	0.001644	0.001722	28.0838	0.111324	0.002098	53.0591	174.727	16.1517	0.011431	0.392018	-0.741251	-0.742585	-0.050605	53.0591	-0.740536	-6.987975E+9	7.241795E-12	NaN
656	1.000000	0.403385	7.37147e+06	-44289.1	1005.82	-29776.2	0.000000	0.000000	6.402896	-0.028321	NaN	0.000000	0.001592	0.001701	28.0821	0.123111	0.001793	68.644	161.231	-165.439	-0.030714	0.402074	-0.731218	-0.732530	-0.028321	68.644	-0.730909	-5.166502E+9	5.481566E-12	NaN
656	1.000000	0.413411	7.37147e+06	-44289.1	1005.82	-29776.2	0.000000	0.000000	6.412923	-0.000714	NaN	0.000000	0.001595	0.001706	28.0834	0.055049	0.001988	27.6861	-17.1326	15.1717	-0.034816	0.412077	-0.721192	-0.722526	-0.000714	27.6861	-0.721173	-3.805987E+9	1.877121E-13	NaN
656	1.000000	0.423380	7.37147e+06	-44289.1	1005.82	-29776.2	0.000000	0.000000	6.422891	-0.024083	NaN	0.000000	0.001608	0.001672	28.0821	0.013423	0.002044	6.568205	-126.366	-164.492	-0.052721	0.422099	-0.711223	-0.712504	-0.024083	6.568205	-0.708473	-2.553963E+9	9.429593E-12	NaN
656	1.000000	0.433401	7.37147e+06	-44289.1	1005.82	-29776.2	0.000000	0.000000	6.432914	0.030903	NaN	0.000000	0.001623	0.001643	28.0824	0.041136	0.002099	19.5988	5.245319	15.6396	0.020322	0.431981	-0.701202	-0.702622	0.030903	19.5988	-0.702385	-2.109097E+9	-1.465241E-11	NaN
656	1.000000	0.443393	7.37147e+06	-44289.1	1005.82	-29776.2	0.000000	0.000000	6.442904	-0.005023	NaN	0.000000	0.001553	0.001693	28.0821	0.009255	0.001978	4.677899	-76.1059	-164.218	-0.036890	0.442104	-0.691211	-0.692499	-0.005023	4.677899	-0.690406	-1.446972E+9	3.471659E-12	NaN
656	1.000000	0.453394	7.37147e+06	-44289.1	1005.82	-29776.2	0.000000	0.000000	6.452906	0.007344	NaN	0.000000	0.001583	0.001661	28.0822	0.114794	0.001987	57.7676	161.051	15.8202	-0.064213	0.451980	-0.681210	-0.682623	0.007344	57.7676	-0.681305	-1.086560E+9	-6.758633E-12	NaN
656	1.000000	0.463418	7.37147e+06	-44289.1	1005.82	-29776.2	0.000000	0.000000	6.462930	-0.004440	NaN	0.000000	0.001575	0.001657	28.0825	0.048181	0.002072	23.2481	96.6889	-167.041	0.041186	0.462044	-0.671185	-0.672559	-0.004440	23.2481	-0.671042	-7.864146E+8	5.646470E-12	NaN
656	1.000000	0.473391	7.37147e+06	-44289.1	1005.82	-29776.2	0.000000	0.000000	6.472904	0.017513	NaN	0.000000	0.001560	0.001675	28.0823	0.038304	0.002076	18.4491	114.514	15.5039	0.064469	0.472021	-0.661212	-0.662582	0.017513	18.4491	-0.661924	-5.899582E+8	-2.968511E-11	NaN
656	1.000000	0.483410	7.37147e+06	-44289.1	1005.82	-29776.2	0.000000	0.000000	6.482921	-0.019040	NaN	0.000000	0.001573	0.001700	28.0824	0.047830	0.001880	25.4424	-160.463	-162.767	-0.042184	0.482060	-0.651194	-0.652543	-0.019040	25.4424	-0.650632	-4.131484E+8	4.608584E-11	NaN
656	1.000000	0.493442	7.37147e+06	-44289.1	1005.82	-29776.2	0.000000	0.000000	6.492954	0.026202	NaN	0.000000	0.001560	0.001655	28.0825	0.039833	0.001904	20.9237	58.3086	16.5585	0.051563	0.492086	-0.641162	-0.642518	0.026202	20.9237	-0.642101	-3.155837E+8	-8.302726E-11	NaN
656	1.000000	0.503422	7.37147e+06	-44289.1	1005.82	-29776.2	0.000000	0.000000	6.502933	-0.012308	NaN	0.000000	0.001580	0.001693	28.0826	0.164918	0.001853	89.0141	-78.5708	-169.763	-0.039118	0.502149	-0.631181	-0.632454	-0.012308	89.0141	-0.631077	-2.227510E+8	5.525234E-11	NaN
656	1.000000	0.513451	7.37147e+06	-44289.1	1005.82	-29776.2	0.000000	0.000000	6.512965	0.045095	NaN	0.000000	0.001597	0.001706	28.0822	0.049248	0.002007	24.5379	165.223	15.6146	-0.029281	0.512074	-0.621152	-0.622529	0.045095	24.5379	-0.622531	-1.699858E+8	-2.652887E-10	NaN
656	1.000000	0.523414	7.37147e+06	-44289.1	1005.82	-29776.2	0.000000	0.000000	6.522925	-0.019054	NaN	0.000000	0.001607	0.001695	28.0824	0.054388	0.002072	26.2465	-158.237	-163.469	-0.027396	0.522112	-0.611189	-0.612491	-0.019054	26.2465	-0.610645	-1.166772E+8	1.633050E-10	NaN
656	1.000000	0.533431	7.37147e+06	-44289.1	1005.82	-29776.2	0.000000	0.000000	6.532945	0.043087	NaN	0.000000	0.001594	0.001711	28.083	0.032084	0.001873	17.1312	29.1775	13.3787	0.088161	0.532055	-0.601172	-0.602548	0.043087	17.1312	-0.603059	-9.174393E+7	-4.696396E-10	NaN
656	1.000000	0.543426	7.37147e+06	-44289.1	1005.82	-29776.2	0.000000	0.000000	6.542938	0.021947	NaN	0.000000	0.001557	0.001692	28.0837	0.127032	0.001988	63.9033	-59.7522	-164.76	0.078058	0.542081	-0.591178	-0.592522	0.021947	63.9033	-0.591435	-6.345323E+7	-3.458833E-10	NaN
656	1.000000	0.553433	7.37147e+06	-44289.1	1005.82	-29776.2	0.000000	0.000000	6.552943	-0.042858	NaN	0.000000	0.001575	0.001696	28.0836	0.082140	0.001874	43.8234	51.4531	16.0873	0.046786	0.552054	-0.581171	-0.582550	-0.042858	43.8234	-0.580437	-4.474681E+7	9.577803E-10	NaN
656	1.000000	0.563457	7.37147e+06	-44289.1	1005.82	-29776.2	0.000000	0.000000	6.562970	0.028936	NaN	0.000000	0.001577	0.001704	28.0837	0.092885	0.002033	45.6919	16.713	-163.162	-0.003437	0.562138	-0.571147	-0.572466	0.028936	45.6919	-0.571622	-3.380925E+7	-8.558506E-10	NaN
656	1.000000	0.573467	7.37147e+06	-44289.1	1005.82	-29776.2	0.000000	0.000000	6.572982	0.096747	NaN	0.000000	0.001598	0.001726	28.084	0.133038	0.002095	63.4885	-19.1245	17.9315	0.014469	0.572086	-0.561137	-0.562518	0.096747	63.4885	-0.562280	-2.511355E+7	-3.852393E-9	NaN
656	1.000000	0.583455	7.37147e+06	-44289.1	1005.82	-29776.2	0.000000	0.000000	6.582968	0.025903	NaN	0.000000	0.001565	0.001708	28.0839	0.068241	0.002039	33.4684	130.958	-166.731	-0.025374	0.582118	-0.551148	-0.552485	0.025903	33.4684	-0.551729	-1.794299E+7	-1.443650E-9	NaN
656	1.000000	0.593471	7.37147e+06	-44289.1	1005.82	-29776.2	0.000000	0.000000	6.592982	-0.005682	NaN	0.000000	0.001585	0.001678	28.0837	0.046315	0.001879	24.6478	136.323	14.3738	0.021371	0.592127	-0.541133	-0.542477	-0.005682	24.6478	-0.540960	-1.272533E+7	4.465409E-10	NaN
656	1.000000	0.603450	7.37147e+06	-44289.1	1005.82	-29776.2	0.000000	0.000000	6.602961	-0.027769	NaN	0.000000	0.001577	0.001745	28.084	0.106002	0.002075	51.0896	-100.921	-167.348	-0.017040	0.602168	-0.531153	-0.532435	-0.027769	51.0896	-0.530746	-9.18183e+06	3.024396E-9	NaN
656	1.000000	0.613451	7.37147e+06	-44289.1	1005.82	-29776.2	0.000000	0.000000	6.612962	-0.020358	NaN	0.000000	0.001593	0.001720	28.0839	0.047649	0.002006	23.7483	20.2485	17.3775	-0.034363	0.612102	-0.521152	-0.522501	-0.020358	23.7483	-0.520509	-6.61727e+06	3.076499E-9	NaN
656	1.000000	0.623478	7.37147e+06	-44289.1	1005.82	-29776.2	0.000000	0.000000	6.622990	-0.003301	NaN	0.000000	0.001593	0.001692	28.0837	0.073850	0.001916	38.5428	163.825	-165.401	0.053255	0.622194	-0.511125	-0.512409	-0.003301	38.5428	-0.511061	-4.88867e+06	6.751910E-10	NaN
656	1.000000	0.633474	7.37147e+06	-44289.1	1005.82	-29776.2	0.000000	0.000000	6.632985	-0.029167	NaN	0.000000	0.001581	0.001689	28.0836	0.145600	0.002113	68.9067	14.563	16.7802	0.056552	0.632142	-0.501129	-0.502462	-0.029167	68.9067	-0.500812	-3.51835e+06	8.290077E-9	NaN
656	1.000000	0.643462	7.37147e+06	-44289.1	1005.82	-29776.2	0.000000	0.000000	6.642976	0.056747	NaN	0.000000	0.001595	0.001719	28.0841	0.095246	0.001989	47.8964	-23.8758	-159.292	-0.061463	0.642200	-0.491142	-0.492403	0.056747	47.8964	-0.492030	-2.65315e+06	-2.138869E-8	NaN
656	1.000000	0.653483	7.37147e+06	-44289.1	1005.82	-29776.2	0.000000	0.000000	6.652994	-0.015396	NaN	0.000000	0.001597	0.001690	28.0836	0.015729	0.001899	8.283358	145.37	13.5834	-0.071121	0.652105	-0.481121	-0.482499	-0.015396	8.283358	-0.479727	-1.78526e+06	8.624157E-9	NaN
656	1.000000	0.663490	7.37147e+06	-44289.1	1005.82	-29776.2	0.000000	0.000000	6.663002	0.009662	NaN	0.000000	0.001613	0.001683	28.0838	0.076097	0.001915	39.7335	-138.144	-164.237	0.088380	0.662203	-0.471114	-0.472401	0.009662	39.7335	-0.471296	-1.36014e+06	-7.103542E-9	NaN
656	1.000000	0.673475	7.37147e+06	-44289.1	1005.82	-29776.2	0.000000	0.000000	6.672986	-0.008935	NaN	0.000000	0.001558	0.001678	28.0826	0.086939	0.001888	46.0416	69.3949	20.0343	-0.021978	0.672191	-0.461129	-0.462413	-0.008935	46.0416	-0.460983	-974618	9.167333E-9	NaN
656	1.000000	0.683489	7.37147e+06	-44289.1	1005.82	-29776.2	0.000000	0.000000	6.683000	-0.019823	NaN	0.000000	0.001596	0.001704	28.0827	0.052579	0.001997	26.3261	129.79	-164.858	-0.049011	0.682238	-0.451114	-0.452365	-0.019823	26.3261	-0.450550	-695154	2.851610E-8	NaN
656	1.000000	0.693490	7.37147e+06	-44289.1	1005.82	-29776.2	0.000000	0.000000	6.693002	0.004766	NaN	0.000000	0.001599	0.001705	28.0825	0.032787	0.002088	15.7018	142.818	15.8758	0.083424	0.692167	-0.441114	-0.442437	0.004766	15.7018	-0.441341	-515574	-9.243142E-9	NaN
656	1.000000	0.703514	7.37147e+06	-44289.1	1005.82	-29776.2	0.000000	0.000000	6.703026	0.011642	NaN	0.000000	0.001587	0.001683	28.0825	0.047030	0.002172	21.6517	-163.974	-164.516	0.005506	0.702238	-0.431090	-0.432365	0.011642	21.6517	-0.431493	-374264	-3.110532E-8	NaN
656	1.000000	0.713496	7.37147e+06	-44289.1	1005.82	-29776.2	0.000000	0.000000	6.713011	0.083287	NaN	0.000000	0.001587	0.001693	28.0822	0.043973	0.002056	21.3841	-159.182	16.6465	0.018840	0.712166	-0.421108	-0.422437	0.083287	21.3841	-0.424029	-293444	-2.838259E-7	NaN
656	1.000000	0.723525	7.37147e+06	-44289.1	1005.82	-29776.2	0.000000	0.000000	6.723036	-0.032284	NaN	0.000000	0.001609	0.001727	28.0823	0.096201	0.001916	50.2076	64.125	-166.704	-0.101203	0.722274	-0.411078	-0.412330	-0.032284	50.2076	-0.410596	-189179	1.706547E-7	NaN
656	1.000000	0.733520	7.37147e+06	-44289.1	1005.82	-29776.2	0.000000	0.000000	6.733030	-0.048989	NaN	0.000000	0.001635	0.001720	28.0824	0.051321	0.001847	27.7865	143.872	14.876	-0.073644	0.732100	-0.401083	-0.402504	-0.048989	27.7865	-0.399761	-132613	3.694161E-7	NaN
656	1.000000	0.743506	7.37147e+06	-44289.1	1005.82	-29776.2	0.000000	0.000000	6.743016	-0.042108	NaN	0.000000	0.001569	0.001711	28.0824	0.114664	0.001948	58.8677	-57.9377	-161.886	0.030028	0.742228	-0.391098	-0.392375	-0.042108	58.8677	-0.390561	-97992.5	4.297033E-7	NaN
656	1.000000	0.753515	7.37147e+06	-44289.1	1005.82	-29776.2	0.000000	0.000000	6.753025	-0.056448	NaN	0.000000	0.001613	0.001719	28.0825	0.043950	0.001980	22.1971	-82.4228	16.2883	-0.010229	0.752220	-0.381088	-0.382384	-0.056448	22.1971	-0.379181	-67317.9	8.385242E-7	NaN
656	1.000000	0.763536	7.37147e+06	-44289.1	1005.82	-29776.2	0.000000	0.000000	6.763046	-0.056894	NaN	0.000000	0.001578	0.001706	28.0823	0.022936	0.002082	11.018	101.083	-161.583	-0.032317	0.762176	-0.371067	-0.372428	-0.056894	11.018	-0.367195	-45258.9	1.257070E-6	NaN
656	1.000000	0.773539	7.37147e+06	-44289.1	1005.82	-29776.2	0.000000	0.000000	6.773051	0.004193	NaN	0.000000	0.001584	0.001731	28.0825	0.068028	0.001965	34.62	96.362	16.9768	-0.057682	0.772177	-0.361064	-0.362426	0.004193	34.62	-0.361155	-37028.4	-1.132298E-7	NaN
656	1.000000	0.783569	7.37147e+06	-44289.1	1005.82	-29776.2	0.000000	0.000000	6.783084	0.063051	NaN	0.000000	0.001551	0.001711	28.0825	0.081816	0.002129	38.4277	76.8391	-166.261	-0.050641	0.782226	-0.351034	-0.352377	0.063051	38.4277	-0.352265	-27533.1	-2.290025E-6	NaN
656	1.000000	0.793579	7.37147e+06	-44289.1	1005.82	-29776.2	0.000000	0.000000	6.793092	0.028143	NaN	0.000000	0.001566	0.001705	28.0826	0.063313	0.001859	34.0515	-93.7417	15.4532	0.026280	0.792167	-0.341025	-0.342436	0.028143	34.0515	-0.341644	-19298.2	-1.458349E-6	NaN
656	1.000000	0.803595	7.37147e+06	-44289.1	1005.82	-29776.2	0.000000	0.000000	6.803105	-0.051627	NaN	0.000000	0.001550	0.001715	28.0822	0.133891	0.002024	66.1592	-110.4	-165.389	-0.009985	0.802230	-0.331008	-0.332374	-0.051627	66.1592	-0.330423	-13232.5	3.901536E-6	NaN
656	1.000000	0.813532	7.37147e+06	-44289.1	1005.82	-29776.2	0.000000	0.000000	6.813046	0.056070	NaN	0.000000	0.001548	0.001684	28.0835	0.087986	0.001963	44.8269	-15.6007	14.1497	0.116731	0.812207	-0.321071	-0.322396	0.056070	44.8269	-0.322009	-9958.6	-5.630302E-6	NaN
656	1.000000	0.823558	7.37147e+06	-44289.1	1005.82	-29776.2	0.000000	0.000000	6.823070	0.017411	NaN	0.000000	0.001590	0.001719	28.0836	0.062659	0.002034	30.8026	-66.4185	-164.813	0.019874	0.822223	-0.311046	-0.312380	0.017411	30.8026	-0.311470	-6962.98	-2.500545E-6	NaN
656	1.000000	0.833585	7.37147e+06	-44289.1	1005.82	-29776.2	0.000000	0.000000	6.833096	-0.019132	NaN	0.000000	0.001579	0.001729	28.0837	0.130656	0.002061	63.3915	-148.252	14.8486	-0.090552	0.832235	-0.301019	-0.302369	-0.019132	63.3915	-0.300793	-4835.38	3.956664E-6	NaN
656	1.000000	0.843588	7.37147e+06	-44289.1	1005.82	-29776.2	0.000000	0.000000	6.843102	0.035038	NaN	0.000000	0.001615	0.001691	28.0837	0.018734	0.002077	9.018613	-153.056	-164.429	0.082475	0.842229	-0.291015	-0.292374	0.035038	9.018613	-0.293929	-3820.2	-9.171721E-6	NaN
656	1.000000	0.853565	7.37147e+06	-44289.1	1005.82	-29776.2	0.000000	0.000000	6.853077	0.007064	NaN	0.000000	0.001556	0.001714	28.0842	0.085093	0.002026	41.994	-100.809	16.0752	0.076396	0.852163	-0.281038	-0.282440	0.007064	41.994	-0.281164	-2457.71	-2.874228E-6	NaN
656	1.000000	0.863566	7.37147e+06	-44289.1	1005.82	-29776.2	0.000000	0.000000	6.863079	0.025425	NaN	0.000000	0.001604	0.001697	28.0838	0.087203	0.002007	43.4599	169.842	-164.594	0.008812	0.862264	-0.271037	-0.272340	0.025425	43.4599	-0.271476	-1753.76	-1.449730E-5	NaN
656	1.000000	0.873583	7.37147e+06	-44289.1	1005.82	-29776.2	0.000000	0.000000	6.873095	-0.013482	NaN	0.000000	0.001582	0.001710	28.0839	0.027627	0.002013	13.7219	96.5578	13.8416	-0.126339	0.872262	-0.261020	-0.262341	-0.013482	13.7219	-0.260283	-1183.74	1.138898E-5	NaN
656	1.000000	0.883605	7.37147e+06	-44289.1	1005.82	-29776.2	0.000000	0.000000	6.883115	-0.040022	NaN	0.000000	0.001604	0.001679	28.0839	0.058135	0.001944	29.9001	-5.568603	-164.3	-0.006805	0.882290	-0.250998	-0.252314	-0.040022	29.9001	-0.249994	-822.012	4.868765E-5	NaN
656	1.000000	0.893562	7.37147e+06	-44289.1	1005.82	-29776.2	0.000000	0.000000	6.893074	0.007764	NaN	0.000000	0.001550	0.001701	28.0839	0.061592	0.001985	31.0292	-54.1944	14.4058	-0.021721	0.892228	-0.241041	-0.242375	0.007764	31.0292	-0.241229	-600.805	-1.292224E-5	NaN
656	1.000000	0.903596	7.37147e+06	-44289.1	1005.82	-29776.2	0.000000	0.000000	6.903109	0.018822	NaN	0.000000	0.001589	0.001703	28.0838	0.066274	0.001973	33.5876	50.1416	-161.727	-0.006583	0.902233	-0.231007	-0.232371	0.018822	33.5876	-0.231427	-421.732	-4.463088E-5	NaN
656	1.000000	0.913596	7.37147e+06	-44289.1	1005.82	-29776.2	0.000000	0.000000	6.913108	0.000657	NaN	0.000000	0.001555	0.001709	28.084	0.071548	0.001939	36.9072	-36.8749	13.4703	0.050591	0.912288	-0.221007	-0.222316	0.000657	36.9072	-0.221020	-288.385	-2.277825E-6	NaN
656	1.000000	0.923600	7.37147e+06	-44289.1	1005.82	-29776.2	0.000000	0.000000	6.923109	-0.061042	NaN	0.000000	0.001568	0.001738	28.0841	0.051656	0.002012	25.6782	-91.021	-168.126	0.002017	0.922313	-0.211004	-0.212291	-0.061042	25.6782	-0.209221	-186.292	0.000328	NaN
656	1.000000	0.933593	7.37147e+06	-44289.1	1005.82	-29776.2	0.000000	0.000000	6.933105	0.015460	NaN	0.000000	0.001609	0.001718	28.0838	0.072827	0.001879	38.7562	-54.0496	15.219	-0.006249	0.932231	-0.201011	-0.202373	0.015460	38.7562	-0.201310	-138.421	-0.000112	NaN
656	1.000000	0.943593	7.37147e+06	-44289.1	1005.82	-29776.2	0.000000	0.000000	6.943105	0.001486	NaN	0.000000	0.001567	0.001678	28.0829	0.030485	0.002112	14.4325	129.665	-167.057	0.007554	0.942293	-0.191010	-0.192311	0.001486	14.4325	-0.191087	-93.7942	-1.584151E-5	NaN
656	1.000000	0.953589	7.37147e+06	-44289.1	1005.82	-29776.2	0.000000	0.000000	6.953105	0.103892	NaN	0.000000	0.001614	0.001648	28.0827	0.111401	0.001996	55.8013	27.5688	13.6518	0.034812	0.952218	-0.181015	-0.182385	0.103892	55.8013	-0.182411	-67.0496	-0.001549	NaN
656	1.000000	0.963596	7.37147e+06	-44289.1	1005.82	-29776.2	0.000000	0.000000	6.963108	0.013565	NaN	0.000000	0.001597	0.001725	28.0831	0.064272	0.002034	31.6045	-75.2114	-162.436	-0.036745	0.962254	-0.171008	-0.172349	0.013565	31.6045	-0.171330	-43.3183	-0.000313	NaN
656	1.000000	0.973608	7.37147e+06	-44289.1	1005.82	-29776.2	0.000000	0.000000	6.973118	-0.055897	NaN	0.000000	0.001596	0.001690	28.0827	0.059420	0.001934	30.7227	121.85	15.4627	-0.043287	0.972250	-0.160995	-0.162354	-0.055897	30.7227	-0.159630	-27.0032	0.002070	NaN
656	1.000000	0.983597	7.37147e+06	-44289.1	1005.82	-29776.2	0.000000	0.000000	6.983110	0.029132	NaN	0.000000	0.001566	0.001696	28.0827	0.058104	0.001953	29.7455	-23.6717	-164.288	0.063306	0.982305	-0.151007	-0.152299	0.029132	29.7455	-0.151741	-19.4844	-0.001495	NaN
656	1.000000	0.993651	7.37147e+06	-44289.1	1005.82	-29776.2	0.000000	0.000000	6.993162	-0.009340	NaN	0.000000	0.001563	0.001722	28.0829	0.012235	0.001993	6.140676	-173.442	11.0867	0.021928	0.992266	-0.140952	-0.142338	-0.009340	6.140676	-0.139812	-11.7334	0.000796	NaN
656	1.000000	1.003635	7.37147e+06	-44289.1	1005.82	-29776.2	0.000000	0.000000	7.003147	0.006884	NaN	0.000000	0.001590	0.001705	28.0827	0.085000	0.001997	42.5548	134.29	-165.06	0.018135	1.002341	-0.130969	-0.132262	0.006884	42.5548	-0.131090	-8.000955	-0.000860	NaN
656	1.000000	1.013606	7.37147e+06	-44289.1	1005.82	-29776.2	0.000000	0.000000	7.013114	-0.077739	NaN	0.000000	0.001589	0.001670	28.0825	0.112668	0.002108	53.4594	-1.692558	13.3133	-0.078073	1.012278	-0.120998	-0.122326	-0.077739	53.4594	-0.119907	-4.810655	0.016160	NaN
656	1.000000	1.023633	7.37147e+06	-44289.1	1005.82	-29776.2	0.000000	0.000000	7.023143	-0.030437	NaN	0.000000	0.001568	0.001698	28.0826	0.059015	0.001941	30.4061	167.28	-160.509	0.004323	1.022315	-0.110971	-0.112289	-0.030437	30.4061	-0.110220	-3.037414	0.010021	NaN
656	1.000000	1.033646	7.37147e+06	-44289.1	1005.82	-29776.2	0.000000	0.000000	7.033156	-0.043211	NaN	0.000000	0.001564	0.001670	28.083	0.057273	0.001955	29.297	54.089	14.5306	-0.012814	1.032286	-0.100958	-0.102317	-0.043211	29.297	-0.099851	-1.813332	0.023830	NaN
656	1.000000	1.043611	7.37147e+06	-44289.1	1005.82	-29776.2	0.000000	0.000000	7.043122	-0.018904	NaN	0.000000	0.001565	0.001679	28.0825	0.019724	0.001913	10.3077	-44.3344	-162.719	0.050262	1.042270	-0.090992	-0.092333	-0.018904	10.3077	-0.089617	-1.058799	0.017854	NaN
656	1.000000	1.053647	7.37147e+06	-44289.1	1005.82	-29776.2	0.000000	0.000000	7.053158	-0.008660	NaN	0.000000	0.001564	0.001662	28.0827	0.025938	0.002060	12.5906	63.3442	16.1952	0.048640	1.052297	-0.080957	-0.082306	-0.008660	12.5906	-0.080441	-0.634877	0.013640	NaN
656	1.000000	1.063672	7.37147e+06	-44289.1	1005.82	-29776.2	0.000000	0.000000	7.063184	-0.006897	NaN	0.000000	0.001584	0.001660	28.0827	0.063687	0.002076	30.6828	-139.693	-167.112	0.051270	1.062342	-0.070931	-0.072262	-0.006897	30.6828	-0.070763	-0.357492	0.019294	NaN
656	1.000000	1.073669	7.37147e+06	-44289.1	1005.82	-29776.2	0.000000	0.000000	7.073181	0.015831	NaN	0.000000	0.001563	0.001687	28.0829	0.052818	0.002002	26.3782	150.637	16.8595	0.061261	1.072299	-0.060934	-0.062304	0.015831	26.3782	-0.061385	-0.197259	-0.080256	NaN
656	1.000000	1.083680	7.37147e+06	-44289.1	1005.82	-29776.2	0.000000	0.000000	7.083190	-0.051402	NaN	0.000000	0.001586	0.001671	28.0839	0.151354	0.002031	74.5176	77.9832	-166.705	-0.011457	1.082364	-0.050923	-0.052239	-0.051402	74.5176	-0.050406	-0.093866	0.547611	NaN
656	1.000000	1.093639	7.37147e+06	-44289.1	1005.82	-29776.2	0.000000	0.000000	7.093151	0.007132	NaN	0.000000	0.001579	0.001698	28.0838	0.025278	0.001948	12.9768	-90.9357	16.9769	-0.089474	1.092309	-0.040964	-0.042295	0.007132	12.9768	-0.041376	-0.049802	-0.143205	NaN
656	1.000000	1.103677	7.37147e+06	-44289.1	1005.82	-29776.2	0.000000	0.000000	7.103188	-0.038722	NaN	0.000000	0.001572	0.001708	28.0841	0.019926	0.001897	10.5064	-134.38	-165.544	-0.042832	1.102413	-0.030926	-0.032190	-0.038722	10.5064	-0.028162	-0.020481	1.890597	NaN
656	1.000000	1.113680	7.37147e+06	-44289.1	1005.82	-29776.2	0.000000	0.000000	7.113188	-0.108795	NaN	0.000000	0.001562	0.001717	28.0841	0.115905	0.002071	55.9777	178.636	16.3641	-0.058837	1.112325	-0.020923	-0.022278	-0.108795	55.9777	-0.019465	-0.012173	8.937280	NaN
656	1.000000	1.123710	7.37147e+06	-44289.1	1005.82	-29776.2	0.000000	0.000000	7.123223	0.034455	NaN	0.000000	0.001578	0.001640	28.084	0.006971	0.001888	3.693122	17.0774	-163.704	0.010869	1.122349	-0.010894	-0.012255	0.034455	3.693122	-0.017891	-0.011090	-3.106806	NaN
656	1.000000	1.133649	7.37147e+06	-44289.1	1005.82	-29776.2	0.000000	0.000000	7.133179	0.423529	NaN	0.000000	0.001600	0.001677	28.084	0.718937	0.001938	370.879	4.177079	17.2922	-0.003734	1.132306	-0.000954	-0.002297	0.423529	370.879	-0.001810	-0.001307	-323.935	NaN
656	2.000000	1.141128	7.37147e+06	-44289.1	1005.82	-29776.2	0.000000	0.000000	7.141138	12.122	NaN	0.000000	0.001573	0.001715	28.0844	9.175168	0.001536	5975.06	4.684303	-170.428	11.3684	1.140797	0.006524	0.006194	12.122	5975.06	0.005003	0.004136	2931.03	84886.5
656	2.000000	1.143591	7.37147e+06	-44289.1	1005.82	-29776.2	0.000000	0.000000	7.143860	18.4256	NaN	0.000000	0.001563	0.001695	28.0841	12.3785	0.001584	7816.32	2.903679	7.041616	17.3621	1.143226	0.008988	0.008622	18.4256	7816.32	0.007220	0.006252	2947.18	90316.8
656	2.000000	1.146109	7.37147e+06	-44289.1	1005.82	-29776.2	0.000000	0.000000	7.146551	22.6208	NaN	0.000000	0.001587	0.001689	28.084	15.4149	0.001865	8265.86	5.321334	-173.816	21.6602	1.145768	0.011506	0.011164	22.6208	8265.86	0.009453	0.008580	2636.43	81529.5
656	2.000000	1.148621	7.37147e+06	-44289.1	1005.82	-29776.2	0.000000	0.000000	7.149233	26.7536	NaN	0.000000	0.001585	0.001673	28.0842	17.7076	0.001686	10503.4	10.7109	-1.814376	26.5643	1.148182	0.014018	0.013578	26.7536	10503.4	0.012107	0.011619	2302.58	89026.4
656	2.000000	1.151010	7.37147e+06	-44289.1	1005.82	-29776.2	0.000000	0.000000	7.151889	33.2559	NaN	0.000000	0.001576	0.001717	28.0844	19.7242	0.001663	11859.7	5.028682	-177.017	31.0139	1.150696	0.016407	0.016093	33.2559	11859.7	0.014303	0.014368	2314.62	90396.3
656	2.000000	1.153558	7.37147e+06	-44289.1	1005.82	-29776.2	0.000000	0.000000	7.154607	37.3816	NaN	0.000000	0.001582	0.001688	28.0842	22.9568	0.001662	13813.4	5.437731	0.572652	35.981	1.153238	0.018955	0.018634	37.3816	13813.4	0.016925	0.017939	2083.81	94226.9
656	2.000000	1.156047	7.37147e+06	-44289.1	1005.82	-29776.2	0.000000	0.000000	7.157390	44.5536	NaN	0.000000	0.001539	0.001712	28.085	25.7875	0.001866	13819.1	4.733693	-177.111	43.8451	1.155658	0.021444	0.021054	44.5536	13819.1	0.019026	0.021034	2118.13	87053.6
656	2.000000	1.158509	7.37147e+06	-44289.1	1005.82	-29776.2	0.000000	0.000000	7.160138	51.508	NaN	0.000000	0.001556	0.001676	28.0856	27.5569	0.001827	15083.7	3.692943	3.348669	49.2401	1.158254	0.023906	0.023651	51.508	15083.7	0.021344	0.024699	2085.42	87688.1
656	2.000000	1.161030	7.37147e+06	-44289.1	1005.82	-29776.2	0.000000	0.000000	7.162957	58.7535	NaN	0.000000	0.001611	0.001653	28.0838	30.1443	0.001727	17450.6	7.121254	177.172	58.0359	1.160759	0.026426	0.026156	58.7535	17450.6	0.023901	0.029047	2022.7	93547.8
656	2.000000	1.163508	7.37147e+06	-44289.1	1005.82	-29776.2	0.000000	0.000000	7.165736	66.0844	NaN	0.000000	0.001592	0.001672	28.0827	32.2962	0.001781	18133.3	5.818630	-1.236080	63.8278	1.163176	0.028904	0.028573	66.0844	18133.3	0.026171	0.033180	1991.68	90951.8
656	2.000000	1.165993	7.37147e+06	-44289.1	1005.82	-29776.2	0.000000	0.000000	7.168423	70.9876	NaN	0.000000	0.001605	0.001686	28.0827	34.8632	0.001781	19571.9	4.121699	179.324	68.8706	1.165745	0.031390	0.031142	70.9876	19571.9	0.028669	0.038031	1866.57	91693.1
656	2.000000	1.168481	7.37147e+06	-44289.1	1005.82	-29776.2	0.000000	0.000000	7.171427	83.5366	NaN	0.000000	0.001600	0.001691	28.083	36.4042	0.001752	20781.2	6.204950	-2.338341	80.8096	1.168159	0.033878	0.033555	83.5366	20781.2	0.030863	0.042551	1963.2	92042.2
656	2.000000	1.171037	7.37147e+06	-44289.1	1005.82	-29776.2	0.000000	0.000000	7.174172	88.1457	NaN	0.000000	0.001542	0.001688	28.0829	38.7406	0.001721	22506.5	6.819476	176.175	89.0007	1.170686	0.036434	0.036082	88.1457	22506.5	0.033496	0.048303	1824.85	93560.8
656	2.000000	1.173489	7.37147e+06	-44289.1	1005.82	-29776.2	0.000000	0.000000	7.177101	99.739	NaN	0.000000	0.001582	0.001653	28.0826	41.0093	0.001743	23531.1	2.378753	-0.248909	96.3781	1.173117	0.038886	0.038514	99.739	23531.1	0.035707	0.053405	1867.59	93030.2
656	2.000000	1.176007	7.37147e+06	-44289.1	1005.82	-29776.2	0.000000	0.000000	7.179851	105.39	NaN	0.000000	0.001569	0.001682	28.0827	44.1898	0.001897	23293	4.847885	177.946	104.128	1.175641	0.041403	0.041037	105.39	23293	0.038010	0.058987	1786.68	87623.6
656	2.000000	1.178436	7.37147e+06	-44289.1	1005.82	-29776.2	0.000000	0.000000	7.182772	117.367	NaN	0.000000	0.001594	0.001678	28.0828	45.5501	0.001790	25444.4	4.522204	-2.582247	111.16	1.178129	0.043833	0.043526	117.367	25444.4	0.040373	0.064996	1805.75	91184.7
656	2.000000	1.180914	7.37147e+06	-44289.1	1005.82	-29776.2	0.000000	0.000000	7.185700	128.326	NaN	0.000000	0.001593	0.001697	28.0828	48.4348	0.001804	26851.7	8.396796	172.2	123.998	1.180663	0.046310	0.046060	128.326	26851.7	0.042726	0.071263	1800.74	91899.7
656	2.000000	1.183427	7.37147e+06	-44289.1	1005.82	-29776.2	0.000000	0.000000	7.188660	139.196	NaN	0.000000	0.001604	0.001690	28.0825	50.5824	0.001805	28018.5	2.844270	-0.987814	136.02	1.183082	0.048823	0.048479	139.196	28018.5	0.045097	0.077864	1787.68	91738
656	2.000000	1.185995	7.37147e+06	-44289.1	1005.82	-29776.2	0.000000	0.000000	7.191825	153.711	NaN	0.000000	0.001587	0.001686	28.0826	52.6775	0.001776	29669	0.054038	-179.366	152.551	1.185624	0.051391	0.051020	153.711	29669	0.047506	0.084860	1811.36	93052.1
656	2.000000	1.188456	7.37147e+06	-44289.1	1005.82	-29776.2	0.000000	0.000000	7.194811	166.474	NaN	0.000000	0.001566	0.001693	28.0825	54.3656	0.001690	32164.7	3.820083	-2.920524	165.796	1.188158	0.053853	0.053555	166.474	32164.7	0.049971	0.092324	1803.15	96715.4
656	2.000000	1.190980	7.37147e+06	-44289.1	1005.82	-29776.2	0.000000	0.000000	7.197742	176.379	NaN	0.000000	0.001589	0.001674	28.0824	56.8174	0.001815	31311.3	3.171772	176.797	175.92	1.190641	0.056376	0.056038	176.379	31311.3	0.052152	0.099180	1778.38	90837
656	2.000000	1.193479	7.37147e+06	-44289.1	1005.82	-29776.2	0.000000	0.000000	7.200884	192.037	NaN	0.000000	0.001596	0.001661	28.0835	59.1452	0.001656	35723.6	4.050566	-4.707924	191.063	1.193057	0.058875	0.058454	192.037	35723.6	0.054843	0.107970	1778.62	99329.5
656	2.000000	1.195916	7.37147e+06	-44289.1	1005.82	-29776.2	0.000000	0.000000	7.203985	208.19	NaN	0.000000	0.001609	0.001653	28.084	63.0532	0.001815	34749	5.173382	174.232	205.25	1.195647	0.061312	0.061043	208.19	34749	0.056819	0.114649	1815.89	93762.6
656	2.000000	1.198419	7.37147e+06	-44289.1	1005.82	-29776.2	0.000000	0.000000	7.206878	217.674	NaN	0.000000	0.001568	0.001723	28.0836	64.0976	0.001751	36603.7	2.118457	-4.216686	212.273	1.198154	0.063815	0.063550	217.674	36603.7	0.059355	0.123506	1762.46	95159.9
656	2.000000	1.200887	7.37147e+06	-44289.1	1005.82	-29776.2	0.000000	0.000000	7.210203	238.519	NaN	0.000000	0.001577	0.001701	28.0837	66.3579	0.001690	39276.3	5.123479	172.803	234.526	1.200607	0.066284	0.066004	238.519	39276.3	0.061729	0.132082	1805.85	98737.5
656	2.000000	1.203474	7.37147e+06	-44289.1	1005.82	-29776.2	0.000000	0.000000	7.213265	250.07	NaN	0.000000	0.001542	0.001716	28.0836	70.6124	0.001808	39063	7.830515	-9.694007	248.235	1.203136	0.068871	0.068532	250.07	39063	0.064070	0.140805	1776	95110.8
656	2.000000	1.205967	7.37147e+06	-44289.1	1005.82	-29776.2	0.000000	0.000000	7.216384	265.302	NaN	0.000000	0.001579	0.001688	28.0838	73.3591	0.001785	41087.9	5.450060	172.512	264.18	1.205664	0.071363	0.071061	265.302	41087.9	0.066521	0.150224	1766.05	96854.2
656	2.000000	1.208374	7.37147e+06	-44289.1	1005.82	-29776.2	0.000000	0.000000	7.219526	283.201	NaN	0.000000	0.001567	0.001711	28.0835	74.6352	0.001791	41680.5	1.757630	-3.973253	276.127	1.208113	0.073771	0.073509	283.201	41680.5	0.068675	0.158738	1784.08	95579.7
656	2.000000	1.211004	7.37147e+06	-44289.1	1005.82	-29776.2	0.000000	0.000000	7.222955	302.623	NaN	0.000000	0.001591	0.001720	28.0838	76.8541	0.001676	45861.6	4.575548	172.629	304.728	1.210579	0.076401	0.075975	302.623	45861.6	0.071452	0.170044	1779.67	101611
656	2.000000	1.213394	7.37147e+06	-44289.1	1005.82	-29776.2	0.000000	0.000000	7.225957	317.512	NaN	0.000000	0.001611	0.001690	28.0838	80.0695	0.001897	42207.3	0.157639	-1.890248	312.318	1.213112	0.078790	0.078508	317.512	42207.3	0.073148	0.177131	1792.53	91624.9
656	2.000000	1.215977	7.37147e+06	-44289.1	1005.82	-29776.2	0.000000	0.000000	7.229117	331.541	NaN	0.000000	0.001595	0.001658	28.0837	83.6152	0.001836	45540	7.014495	169.727	329.947	1.215697	0.081374	0.081094	331.541	45540	0.075914	0.188972	1754.45	95712.2
656	2.000000	1.218465	7.37147e+06	-44289.1	1005.82	-29776.2	0.000000	0.000000	7.232595	355.642	NaN	0.000000	0.001613	0.001678	28.0835	84.7316	0.001883	44996.8	5.282597	-8.376744	351.292	1.218063	0.083862	0.083459	355.642	44996.8	0.077934	0.197851	1797.52	92424.2
656	2.000000	1.220830	7.37147e+06	-44289.1	1005.82	-29776.2	0.000000	0.000000	7.235504	368.886	NaN	0.000000	0.001612	0.001689	28.0837	86.4191	0.001793	48184.7	2.058528	174.3	361.985	1.220631	0.086226	0.086027	368.886	48184.7	0.080484	0.209332	1762.2	96219.8
656	2.000000	1.223403	7.37147e+06	-44289.1	1005.82	-29776.2	0.000000	0.000000	7.239193	396.025	NaN	0.000000	0.001597	0.001732	28.0837	90.6117	0.001919	47230.2	6.344451	-9.235213	393.108	1.223128	0.088799	0.088524	396.025	47230.2	0.082511	0.218670	1811.07	92278.1
656	2.000000	1.225913	7.37147e+06	-44289.1	1005.82	-29776.2	0.000000	0.000000	7.242639	418.804	NaN	0.000000	0.001581	0.001692	28.0838	91.3578	0.001852	49328.9	1.170780	175.493	417.521	1.225642	0.091309	0.091038	418.804	49328.9	0.084942	0.230124	1819.91	93949.4
656	2.000000	1.228435	7.37147e+06	-44289.1	1005.82	-29776.2	0.000000	0.000000	7.246208	444.287	NaN	0.000000	0.001559	0.001683	28.0822	92.7638	0.001789	51848.8	2.702503	-6.304508	441.491	1.228009	0.093831	0.093405	444.287	51848.8	0.087405	0.242006	1835.85	96294
656	2.000000	1.230932	7.37147e+06	-44289.1	1005.82	-29776.2	0.000000	0.000000	7.249290	458.502	NaN	0.000000	0.001576	0.001732	28.0827	94.3468	0.001707	55260.4	3.580155	172.524	458.289	1.230601	0.096329	0.095998	458.502	55260.4	0.090106	0.255358	1795.53	99910.8
656	2.000000	1.233420	7.37147e+06	-44289.1	1005.82	-29776.2	0.000000	0.000000	7.252647	479.638	NaN	0.000000	0.001615	0.001700	28.0825	99.0351	0.001819	54440.4	5.775890	-10.045	475.807	1.233086	0.098817	0.098482	479.638	54440.4	0.092209	0.265986	1803.24	96441.7
656	2.000000	1.235879	7.37147e+06	-44289.1	1005.82	-29776.2	0.000000	0.000000	7.255850	497.74	NaN	0.000000	0.001608	0.001711	28.0827	100.413	0.001776	56551.5	-0.250092	175.783	495.045	1.235759	0.101276	0.101156	497.74	56551.5	0.094674	0.278703	1785.91	97869.2
656	2.000000	1.238350	7.37147e+06	-44289.1	1005.82	-29776.2	0.000000	0.000000	7.259339	522.509	NaN	0.000000	0.001607	0.001713	28.0824	102.071	0.001753	58229.5	7.202712	-11.8928	515.18	1.238036	0.103746	0.103432	522.509	58229.5	0.097016	0.291040	1795.32	98614.3
656	2.000000	1.239012	7.37147e+06	-44289.1	1005.82	-29776.2	0.000000	0.000000	7.260100	524.914	NaN	0.000000	0.001592	0.001725	28.0826	103.965	0.001870	55590.2	5.648688	170.638	526.762	1.238530	0.104409	0.103927	524.914	55590.2	0.097327	0.292696	1793.37	93877.9