File: remote_trans/data/nanoindenter/0828-1/data/Data_2025-08-06,11h17m57s/2025-07-22_16-23-58_1_476.txt
2025-07-22, 16:23:58, 1
Index	Phase	Displacement	Time	Pos X	Pos Y	Pos Z	Rot A	Rot B	Piezo Z	Force A	Force B	Gripper	Voltage A	Voltage B	Temperature	Amplitude force	Amplitude pos	Stiffness	Phase shift	Phase excitation	Force A raw	Displacement raw	HMax	HMax raw	Real Force	Real Stiffness	Contact Depth	Area	Hardness	Reduced Mod.
[#]	[#]	[um]	[s]	[um]	[um]	[um]	[m°]	[m°]	[um]	[uN]	[uN]	[V]	[V]	[V]	[°C]	[uN]	[um]	[N/m]	[°]	[°]	[uN]	[um]	[um]	[um]	[uN]	[N/m]	[um]	[um^2]	[MPa]	[MPa]
476	1.000000	0.002437	7.36971e+06	-53289.1	1005.82	-29746.7	0.000000	0.000000	6.002828	-0.031288	NaN	0.000000	0.001630	0.001789	28.0827	0.055263	0.001005	55.0038	93.9692	-166.493	-0.000753	0.001193	-1.070468	-1.071712	-0.031288	55.0038	-1.070042	-1.984947E+14	1.576252E-16	NaN
476	1.000000	0.010340	7.36971e+06	-53289.1	1005.82	-29746.7	0.000000	0.000000	6.010733	0.002944	NaN	0.000000	0.001627	0.001752	28.0825	0.090500	0.000974	92.882	157.026	-167.656	0.023262	0.009036	-1.062565	-1.063869	0.002944	92.882	-1.062589	-1.576201E+14	-1.867952E-17	NaN
476	1.000000	0.018388	7.36971e+06	-53289.1	1005.82	-29746.7	0.000000	0.000000	6.018780	-0.037805	NaN	0.000000	0.001630	0.001789	28.0826	0.059590	0.001612	36.9643	-119.387	-165.281	0.001536	0.017055	-1.054517	-1.055850	-0.037805	36.9643	-1.053750	-1.198991E+14	3.153067E-16	NaN
476	1.000000	0.026426	7.36971e+06	-53289.1	1005.82	-29746.7	0.000000	0.000000	6.026820	0.029941	NaN	0.000000	0.001647	0.001772	28.0814	0.111736	0.001915	58.3378	-122.012	-161.723	-0.059946	0.025069	-1.046479	-1.047836	0.029941	58.3378	-1.046863	-9.688327E+13	-3.090399E-16	NaN
476	1.000000	0.034403	7.36971e+06	-53289.1	1005.82	-29746.7	0.000000	0.000000	6.034797	0.044661	NaN	0.000000	0.001614	0.001783	28.0812	0.045090	0.001977	22.8098	139.567	-169.166	0.044306	0.033026	-1.038502	-1.039879	0.044661	22.8098	-1.039971	-7.826576E+13	-5.706332E-16	NaN
476	1.000000	0.042361	7.36971e+06	-53289.1	1005.82	-29746.7	0.000000	0.000000	6.042753	-0.013918	NaN	0.000000	0.001613	0.001803	28.0816	0.113077	0.001999	56.5795	-137.268	-164.116	0.082976	0.041029	-1.030544	-1.031876	-0.013918	56.5795	-1.030359	-5.811856E+13	2.394681E-16	NaN
476	1.000000	0.050372	7.36971e+06	-53289.1	1005.82	-29746.7	0.000000	0.000000	6.050765	-0.005270	NaN	0.000000	0.001609	0.001822	28.0813	0.088925	0.001948	45.6459	-7.721191	-167.47	0.043100	0.049079	-1.022533	-1.023826	-0.005270	45.6459	-1.022446	-4.548478E+13	1.158671E-16	NaN
476	1.000000	0.058358	7.36971e+06	-53289.1	1005.82	-29746.7	0.000000	0.000000	6.058750	-0.025942	NaN	0.000000	0.001626	0.001837	28.0816	0.027524	0.001921	14.3289	111.265	-163.95	-0.024400	0.057025	-1.014547	-1.015880	-0.025942	14.3289	-1.013189	-3.414267E+13	7.598197E-16	NaN
476	1.000000	0.066381	7.36971e+06	-53289.1	1005.82	-29746.7	0.000000	0.000000	6.066771	-0.081351	NaN	0.000000	0.001623	0.001803	28.0816	0.004442	0.002119	2.095847	-71.4541	-165.619	-0.035843	0.065030	-1.006523	-1.007875	-0.081351	2.095847	-0.977412	-1.126004E+13	7.224796E-15	NaN
476	1.000000	0.074370	7.36971e+06	-53289.1	1005.82	-29746.7	0.000000	0.000000	6.074760	-0.056441	NaN	0.000000	0.001619	0.001828	28.0817	0.031950	0.002118	15.0829	17.0096	-166.621	-0.107742	0.073039	-0.998535	-0.999866	-0.056441	15.0829	-0.995729	-1.987273E+13	2.840100E-15	NaN
476	1.000000	0.082360	7.36971e+06	-53289.1	1005.82	-29746.7	0.000000	0.000000	6.082751	-0.038147	NaN	0.000000	0.001611	0.001813	28.0817	0.077351	0.002023	38.2295	161.154	-168.6	0.051546	0.081023	-0.990545	-0.991882	-0.038147	38.2295	-0.989797	-1.653380E+13	2.307199E-15	NaN
476	1.000000	0.090361	7.36971e+06	-53289.1	1005.82	-29746.8	0.000000	0.000000	6.090749	-0.108192	NaN	0.000000	0.001626	0.001788	28.0814	0.101560	0.001926	52.732	-170.685	-166.328	-0.081801	0.089092	-0.982544	-0.983813	-0.108192	52.732	-0.981005	-1.258781E+13	8.594984E-15	NaN
476	1.000000	0.098392	7.36971e+06	-53289.1	1005.82	-29746.8	0.000000	0.000000	6.098785	0.010895	NaN	0.000000	0.001679	0.001778	28.0817	0.038850	0.002044	19.0067	-3.411742	-165.288	0.020449	0.097049	-0.974513	-0.975856	0.010895	19.0067	-0.974943	-1.042984E+13	-1.044607E-15	NaN
476	1.000000	0.106405	7.36971e+06	-53289.1	1005.82	-29746.8	0.000000	0.000000	6.106797	-0.014395	NaN	0.000000	0.001656	0.001766	28.0812	0.030275	0.002081	14.55	-176.074	-168.896	0.008990	0.105089	-0.966500	-0.967816	-0.014395	14.55	-0.965758	-7.843223E+12	1.835284E-15	NaN
476	1.000000	0.114386	7.36971e+06	-53289.1	1005.82	-29746.8	0.000000	0.000000	6.114777	-0.043016	NaN	0.000000	0.001682	0.001776	28.0813	0.031991	0.002026	15.7882	68.7781	-164.905	-0.051075	0.113069	-0.958519	-0.959836	-0.043016	15.7882	-0.956476	-5.879629E+12	7.316115E-15	NaN
476	1.000000	0.122376	7.36971e+06	-53289.1	1005.82	-29746.8	0.000000	0.000000	6.122770	0.032460	NaN	0.000000	0.001665	0.001816	28.0816	0.133507	0.001991	67.0524	136.213	-163.798	-0.006410	0.121072	-0.950529	-0.951833	0.032460	67.0524	-0.950892	-4.943774E+12	-6.565880E-15	NaN
476	1.000000	0.130387	7.36971e+06	-53289.1	1005.82	-29746.8	0.000000	0.000000	6.130779	-0.026619	NaN	0.000000	0.001706	0.001782	28.0813	0.099774	0.001993	50.0689	-105.166	-162.784	0.050277	0.129055	-0.942518	-0.943850	-0.026619	50.0689	-0.942119	-3.764676E+12	7.070804E-15	NaN
476	1.000000	0.138401	7.36971e+06	-53289.1	1005.82	-29746.8	0.000000	0.000000	6.138795	0.046521	NaN	0.000000	0.001685	0.001805	28.0819	0.011386	0.002084	5.462679	70.0335	-164.656	0.034630	0.137059	-0.934504	-0.935846	0.046521	5.462679	-0.940891	-3.623794E+12	-1.283769E-14	NaN
476	1.000000	0.146407	7.36971e+06	-53289.1	1005.82	-29746.8	0.000000	0.000000	6.146798	-0.037702	NaN	0.000000	0.001716	0.001790	28.0814	0.085586	0.002027	42.2211	34.7003	-164.085	-0.012868	0.145081	-0.926498	-0.927824	-0.037702	42.2211	-0.925828	-2.269290E+12	1.661409E-14	NaN
476	1.000000	0.154408	7.36971e+06	-53289.1	1005.82	-29746.8	0.000000	0.000000	6.154803	0.076606	NaN	0.000000	0.001697	0.001782	28.0817	0.102126	0.001924	53.0822	-90.3667	-168.457	0.126148	0.153097	-0.918497	-0.919808	0.076606	53.0822	-0.919580	-1.868666E+12	-4.099477E-14	NaN
476	1.000000	0.162401	7.36971e+06	-53289.1	1005.82	-29746.8	0.000000	0.000000	6.162791	-0.067188	NaN	0.000000	0.001718	0.001776	28.0829	0.040831	0.002049	19.9245	-131.448	-164.741	0.017114	0.161098	-0.910504	-0.911807	-0.067188	19.9245	-0.907975	-1.302602E+12	5.157996E-14	NaN
476	1.000000	0.170396	7.36971e+06	-53289.1	1005.82	-29746.8	0.000000	0.000000	6.170788	-0.027270	NaN	0.000000	0.001614	0.001806	28.0828	0.079012	0.001981	39.8942	-45.2117	-166.223	-0.095613	0.169103	-0.902509	-0.903802	-0.027270	39.8942	-0.901996	-1.081521E+12	2.521472E-14	NaN
476	1.000000	0.178377	7.36971e+06	-53289.1	1005.82	-29746.8	0.000000	0.000000	6.178767	-0.045516	NaN	0.000000	0.001650	0.001776	28.0833	0.097652	0.001855	52.6336	-2.020351	-171.86	0.021639	0.177119	-0.894528	-0.895786	-0.045516	52.6336	-0.893880	-8.401527E+11	5.417551E-14	NaN
476	1.000000	0.186443	7.36971e+06	-53289.1	1005.82	-29746.8	0.000000	0.000000	6.186834	-0.026720	NaN	0.000000	0.001630	0.001776	28.0829	0.065788	0.002145	30.6716	120.018	-169.155	-0.032060	0.185094	-0.886462	-0.887811	-0.026720	30.6716	-0.885809	-6.535138E+11	4.088696E-14	NaN
476	1.000000	0.194367	7.36971e+06	-53289.1	1005.82	-29746.8	0.000000	0.000000	6.194761	0.032871	NaN	0.000000	0.001596	0.001784	28.0831	0.069805	0.002061	33.8713	174.011	-168.888	0.048708	0.193134	-0.878538	-0.879771	0.032871	33.8713	-0.879266	-5.330638E+11	-6.166477E-14	NaN
476	1.000000	0.202411	7.36971e+06	-53289.1	1005.82	-29746.8	0.000000	0.000000	6.202801	-0.067367	NaN	0.000000	0.001649	0.001765	28.0829	0.079253	0.002073	38.2268	58.9991	-164.605	-0.131267	0.201123	-0.870494	-0.871782	-0.067367	38.2268	-0.869172	-3.892636E+11	1.730638E-13	NaN
476	1.000000	0.210422	7.36971e+06	-53289.1	1005.82	-29746.8	0.000000	0.000000	6.210813	-0.034569	NaN	0.000000	0.001641	0.001738	28.083	0.041358	0.001896	21.8128	154.688	-166.33	0.032274	0.209094	-0.862483	-0.863811	-0.034569	21.8128	-0.861294	-3.045374E+11	1.135147E-13	NaN
476	1.000000	0.218424	7.36971e+06	-53289.1	1005.82	-29746.8	0.000000	0.000000	6.218817	0.001901	NaN	0.000000	0.001635	0.001798	28.0831	0.097745	0.002013	48.5579	-157.716	-165.02	0.116815	0.217138	-0.854481	-0.855767	0.001901	48.5579	-0.854511	-2.464969E+11	-7.713657E-15	NaN
476	1.000000	0.226442	7.36971e+06	-53289.1	1005.82	-29746.8	0.000000	0.000000	6.226837	0.058088	NaN	0.000000	0.001646	0.001780	28.0828	0.077805	0.002105	36.968	-8.573614	-168.761	-0.006320	0.225135	-0.846463	-0.847770	0.058088	36.968	-0.847641	-1.989724E+11	-2.919383E-13	NaN
476	1.000000	0.234434	7.36971e+06	-53289.1	1005.82	-29746.8	0.000000	0.000000	6.234825	-0.044121	NaN	0.000000	0.001658	0.001784	28.0831	0.108496	0.002152	50.4082	108.578	-170.792	0.013628	0.233116	-0.838470	-0.839789	-0.044121	50.4082	-0.837814	-1.464458E+11	3.012760E-13	NaN
476	1.000000	0.242444	7.36971e+06	-53289.1	1005.82	-29746.8	0.000000	0.000000	6.242838	0.021586	NaN	0.000000	0.001635	0.001773	28.0827	0.134453	0.002030	66.2383	7.733411	-164.887	-0.032699	0.241110	-0.830461	-0.831795	0.021586	66.2383	-0.830705	-1.173113E+11	-1.840054E-13	NaN
476	1.000000	0.250420	7.36971e+06	-53289.1	1005.82	-29746.8	0.000000	0.000000	6.250810	-0.059523	NaN	0.000000	0.001586	0.001785	28.0829	0.042287	0.001948	21.704	61.3312	-165.493	-0.093061	0.249123	-0.822485	-0.823782	-0.059523	21.704	-0.820428	-8.511659E+10	6.993125E-13	NaN
476	1.000000	0.258420	7.36971e+06	-53289.1	1005.82	-29746.8	0.000000	0.000000	6.258809	-0.083894	NaN	0.000000	0.001631	0.001770	28.0829	0.107307	0.001859	57.7133	-123.784	-168.038	-0.059513	0.257131	-0.814485	-0.815774	-0.083894	57.7133	-0.813395	-6.833206E+10	1.227739E-12	NaN
476	1.000000	0.266459	7.36971e+06	-53289.1	1005.82	-29746.8	0.000000	0.000000	6.266849	-0.068046	NaN	0.000000	0.001615	0.001726	28.0828	0.081510	0.001990	40.9676	-4.911477	-165.717	-0.029831	0.265121	-0.806446	-0.807784	-0.068046	40.9676	-0.805200	-5.289858E+10	1.286349E-12	NaN
476	1.000000	0.274464	7.36971e+06	-53289.1	1005.82	-29746.8	0.000000	0.000000	6.274853	-0.068225	NaN	0.000000	0.001640	0.001759	28.0832	0.033656	0.002131	15.7907	-16.9695	-167.306	-0.068869	0.273113	-0.798441	-0.799792	-0.068225	15.7907	-0.795201	-3.869999E+10	1.762928E-12	NaN
476	1.000000	0.282477	7.36971e+06	-53289.1	1005.82	-29746.8	0.000000	0.000000	6.282869	-0.039726	NaN	0.000000	0.001637	0.001749	28.0828	0.061270	0.001974	31.0461	-103.324	-168.029	0.014637	0.281146	-0.790427	-0.791759	-0.039726	31.0461	-0.789468	-3.234859E+10	1.228071E-12	NaN
476	1.000000	0.290437	7.36971e+06	-53289.1	1005.82	-29746.8	0.000000	0.000000	6.290830	-0.008688	NaN	0.000000	0.001631	0.001741	28.083	0.066043	0.001865	35.4189	-112.928	-164.417	-0.050249	0.289106	-0.782468	-0.783799	-0.008688	35.4189	-0.782284	-2.583812E+10	3.362547E-13	NaN
476	1.000000	0.298468	7.36971e+06	-53289.1	1005.82	-29746.8	0.000000	0.000000	6.298864	0.059935	NaN	0.000000	0.001622	0.001759	28.0816	0.068371	0.001945	35.1497	-104.169	-166.966	0.089119	0.297073	-0.774437	-0.775832	0.059935	35.1497	-0.775715	-2.103786E+10	-2.848892E-12	NaN
476	1.000000	0.306483	7.36971e+06	-53289.1	1005.82	-29746.8	0.000000	0.000000	6.306874	-0.031614	NaN	0.000000	0.001619	0.001740	28.0813	0.018191	0.001982	9.176753	-45.8053	-166.66	-0.078022	0.305161	-0.766422	-0.767744	-0.031614	9.176753	-0.763838	-1.450483E+10	2.179524E-12	NaN
476	1.000000	0.314446	7.36971e+06	-53289.1	1005.82	-29746.8	0.000000	0.000000	6.314840	0.025103	NaN	0.000000	0.001633	0.001736	28.0815	0.087506	0.002067	42.329	78.4326	-163.836	-0.004511	0.313183	-0.758459	-0.759722	0.025103	42.329	-0.758903	-1.242748E+10	-2.019946E-12	NaN
476	1.000000	0.322450	7.36971e+06	-53289.1	1005.82	-29746.8	0.000000	0.000000	6.322841	-0.034955	NaN	0.000000	0.001595	0.001753	28.0816	0.054457	0.001964	27.722	-53.0818	-165.58	-0.035563	0.321193	-0.750455	-0.751712	-0.034955	27.722	-0.749510	-9.258581E+9	3.775437E-12	NaN
476	1.000000	0.330487	7.36971e+06	-53289.1	1005.82	-29746.8	0.000000	0.000000	6.330877	-0.047094	NaN	0.000000	0.001641	0.001777	28.0819	0.075238	0.001917	39.2418	-104.404	-169.2	-0.058965	0.329157	-0.742418	-0.743748	-0.047094	39.2418	-0.741518	-7.206663E+9	6.534822E-12	NaN
476	1.000000	0.338492	7.36971e+06	-53289.1	1005.82	-29746.8	0.000000	0.000000	6.338882	-0.066446	NaN	0.000000	0.001656	0.001735	28.0813	0.081038	0.001976	41.0146	33.9349	-165.395	-0.032325	0.337141	-0.734413	-0.735764	-0.066446	41.0146	-0.733198	-5.551188E+9	1.196968E-11	NaN
476	1.000000	0.346496	7.36971e+06	-53289.1	1005.82	-29746.8	0.000000	0.000000	6.346883	-0.146447	NaN	0.000000	0.001645	0.001726	28.0813	0.026048	0.002023	12.873	159.787	-166.374	-0.115751	0.345218	-0.726409	-0.727687	-0.146447	12.873	-0.717877	-3.431746E+9	4.267433E-11	NaN
476	1.000000	0.354448	7.36971e+06	-53289.1	1005.82	-29746.8	0.000000	0.000000	6.354839	-0.045212	NaN	0.000000	0.001661	0.001748	28.0814	0.075727	0.002054	36.8678	-69.3288	-163.235	0.011846	0.353166	-0.718457	-0.719738	-0.045212	36.8678	-0.717537	-3.395305E+9	1.331609E-11	NaN
476	1.000000	0.362482	7.36971e+06	-53289.1	1005.82	-29746.8	0.000000	0.000000	6.362874	-0.030948	NaN	0.000000	0.001629	0.001729	28.0814	0.080059	0.002005	39.9319	111.234	-169.481	-0.062145	0.361198	-0.710423	-0.711707	-0.030948	39.9319	-0.709842	-2.666160E+9	1.160774E-11	NaN
476	1.000000	0.370505	7.36971e+06	-53289.1	1005.82	-29746.8	0.000000	0.000000	6.370897	-0.033757	NaN	0.000000	0.001658	0.001756	28.0815	0.099210	0.002138	46.4118	-149.716	-167.955	-0.019892	0.369191	-0.702400	-0.703714	-0.033757	46.4118	-0.701854	-2.074204E+9	1.627462E-11	NaN
476	1.000000	0.378469	7.36971e+06	-53289.1	1005.82	-29746.8	0.000000	0.000000	6.378862	-0.000735	NaN	0.000000	0.001671	0.001722	28.0812	0.060400	0.001968	30.6889	153.19	-167.674	-0.015846	0.377163	-0.694436	-0.695742	-0.000735	30.6889	-0.694418	-1.641662E+9	4.478109E-13	NaN
476	1.000000	0.386473	7.36971e+06	-53289.1	1005.82	-29746.8	0.000000	0.000000	6.386863	-0.066280	NaN	0.000000	0.001638	0.001718	28.0813	0.075943	0.001983	38.2922	-58.3966	-165.796	0.017802	0.385177	-0.686431	-0.687728	-0.066280	38.2922	-0.685133	-1.225736E+9	5.407364E-11	NaN
476	1.000000	0.394469	7.36971e+06	-53289.1	1005.82	-29746.8	0.000000	0.000000	6.394860	-0.034707	NaN	0.000000	0.001640	0.001773	28.0814	0.077161	0.001913	40.3449	-60.9321	-168.96	-0.086973	0.393179	-0.678436	-0.679726	-0.034707	40.3449	-0.677791	-9.727281E+8	3.568017E-11	NaN
476	1.000000	0.402524	7.36971e+06	-53289.1	1005.82	-29746.8	0.000000	0.000000	6.402915	-0.040875	NaN	0.000000	0.001635	0.001784	28.0813	0.064955	0.002104	30.8782	-105.678	-165.957	-0.042320	0.401156	-0.670381	-0.671749	-0.040875	30.8782	-0.669388	-7.464832E+8	5.475668E-11	NaN
476	1.000000	0.410515	7.36971e+06	-53289.1	1005.82	-29746.8	0.000000	0.000000	6.410905	-0.082950	NaN	0.000000	0.001685	0.001752	28.0813	0.048427	0.002104	23.0127	-85.6071	-166.793	-0.059809	0.409214	-0.662390	-0.663691	-0.082950	23.0127	-0.659686	-5.497574E+8	1.508843E-10	NaN
476	1.000000	0.418512	7.36971e+06	-53289.1	1005.82	-29746.8	0.000000	0.000000	6.418903	-0.045663	NaN	0.000000	0.001647	0.001754	28.0816	0.093460	0.002058	45.4121	-95.7481	-166.476	0.059332	0.417230	-0.654393	-0.655675	-0.045663	45.4121	-0.653639	-4.542658E+8	1.005194E-10	NaN
476	1.000000	0.426523	7.36971e+06	-53289.1	1005.82	-29746.8	0.000000	0.000000	6.426913	-0.067073	NaN	0.000000	0.001671	0.001774	28.0818	0.060599	0.001921	31.547	79.3768	-165.721	-0.113959	0.425234	-0.646382	-0.647671	-0.067073	31.547	-0.644788	-3.435300E+8	1.952458E-10	NaN
476	1.000000	0.434573	7.36971e+06	-53289.1	1005.82	-29746.8	0.000000	0.000000	6.434966	-0.000384	NaN	0.000000	0.001659	0.001771	28.0827	0.054419	0.002036	26.7269	72.9959	-167.835	-0.056581	0.433190	-0.638332	-0.639715	-0.000384	26.7269	-0.638321	-2.800585E+8	1.369394E-12	NaN
476	1.000000	0.442546	7.36971e+06	-53289.1	1005.82	-29746.8	0.000000	0.000000	6.442938	-0.017087	NaN	0.000000	0.001651	0.001786	28.0828	0.074116	0.001988	37.2862	139.809	-164.519	-0.050062	0.441206	-0.630359	-0.631699	-0.017087	37.2862	-0.630015	-2.153907E+8	7.932980E-11	NaN
476	1.000000	0.450527	7.36971e+06	-53289.1	1005.82	-29746.8	0.000000	0.000000	6.450918	-0.035737	NaN	0.000000	0.001664	0.001756	28.0826	0.029183	0.002043	14.2834	-125.633	-167.334	-0.079510	0.449198	-0.622378	-0.623707	-0.035737	14.2834	-0.620502	-1.594147E+8	2.241763E-10	NaN
476	1.000000	0.458520	7.36971e+06	-53289.1	1005.82	-29746.8	0.000000	0.000000	6.458911	-0.040505	NaN	0.000000	0.001655	0.001757	28.0827	0.067549	0.001928	35.0419	-46.2774	-171.684	-0.001121	0.457245	-0.614385	-0.615660	-0.040505	35.0419	-0.613518	-1.277936E+8	3.169557E-10	NaN
476	1.000000	0.466511	7.36971e+06	-53289.1	1005.82	-29746.8	0.000000	0.000000	6.466902	-0.055516	NaN	0.000000	0.001660	0.001721	28.083	0.074547	0.001971	37.8257	156.806	-164.283	-0.137805	0.465224	-0.606394	-0.607681	-0.055516	37.8257	-0.605293	-9.847704E+7	5.637470E-10	NaN
476	1.000000	0.474545	7.36971e+06	-53289.1	1005.82	-29746.8	0.000000	0.000000	6.474937	-0.018249	NaN	0.000000	0.001656	0.001753	28.083	0.062287	0.001903	32.7332	-126.126	-164.925	0.023159	0.473188	-0.598360	-0.599717	-0.018249	32.7332	-0.597942	-7.800332E+7	2.339478E-10	NaN
476	1.000000	0.482548	7.36971e+06	-53289.1	1005.82	-29746.8	0.000000	0.000000	6.482936	-0.125682	NaN	0.000000	0.001666	0.001738	28.0832	0.037897	0.002005	18.9002	154.862	-169.412	-0.085593	0.481255	-0.590357	-0.591650	-0.125682	18.9002	-0.585369	-5.233696E+7	2.401404E-9	NaN
476	1.000000	0.490536	7.36971e+06	-53289.1	1005.82	-29746.8	0.000000	0.000000	6.490927	-0.049709	NaN	0.000000	0.001691	0.001744	28.0826	0.064988	0.001969	33	-71.8751	-165.29	-0.080023	0.489236	-0.582369	-0.583669	-0.049709	33	-0.581239	-4.590179E+7	1.082939E-9	NaN
476	1.000000	0.498532	7.36971e+06	-53289.1	1005.82	-29746.8	0.000000	0.000000	6.498922	-0.068812	NaN	0.000000	0.001674	0.001763	28.0829	0.030885	0.001912	16.1496	-90.1157	-165.775	-0.020861	0.497223	-0.574373	-0.575682	-0.068812	16.1496	-0.571178	-3.333519E+7	2.064248E-9	NaN
476	1.000000	0.506535	7.36971e+06	-53289.1	1005.82	-29746.8	0.000000	0.000000	6.506925	-0.054599	NaN	0.000000	0.001657	0.001769	28.0828	0.099233	0.002051	48.387	122.729	-165.745	-0.037567	0.505246	-0.566370	-0.567659	-0.054599	48.387	-0.565524	-2.784634E+7	1.960714E-9	NaN
476	1.000000	0.514555	7.36971e+06	-53289.1	1005.82	-29746.8	0.000000	0.000000	6.514946	-0.040496	NaN	0.000000	0.001648	0.001763	28.0826	0.048866	0.001984	24.6345	96.9388	-166.601	-0.036809	0.513284	-0.558350	-0.559621	-0.040496	24.6345	-0.557117	-2.130517E+7	1.900774E-9	NaN
476	1.000000	0.522557	7.36971e+06	-53289.1	1005.82	-29746.8	0.000000	0.000000	6.522952	0.048941	NaN	0.000000	0.001663	0.001764	28.083	0.097818	0.002042	47.9073	-106.282	-169.782	-0.022186	0.521240	-0.550348	-0.551665	0.048941	47.9073	-0.551114	-1.759492E+7	-2.781539E-9	NaN
476	1.000000	0.530579	7.36971e+06	-53289.1	1005.82	-29746.8	0.000000	0.000000	6.530972	0.012372	NaN	0.000000	0.001684	0.001754	28.0827	0.088104	0.002072	42.5288	-130.418	-163.288	-0.063342	0.529239	-0.542326	-0.543666	0.012372	42.5288	-0.542544	-1.338567E+7	-9.242486E-10	NaN
476	1.000000	0.538571	7.36971e+06	-53289.1	1005.82	-29746.8	0.000000	0.000000	6.538962	-0.037471	NaN	0.000000	0.001656	0.001772	28.083	0.095547	0.001949	49.0109	-124.47	-168.035	-0.068784	0.537239	-0.534334	-0.535666	-0.037471	49.0109	-0.533761	-1.011086E+7	3.706058E-9	NaN
476	1.000000	0.546577	7.36971e+06	-53289.1	1005.82	-29746.8	0.000000	0.000000	6.546967	-0.085016	NaN	0.000000	0.001613	0.001762	28.0826	0.049005	0.001843	26.5834	-93.9265	-167.082	0.038511	0.545281	-0.526328	-0.527624	-0.085016	26.5834	-0.523929	-7.3829e+06	1.151520E-8	NaN
476	1.000000	0.554579	7.36971e+06	-53289.1	1005.82	-29746.8	0.000000	0.000000	6.554972	-0.001484	NaN	0.000000	0.001629	0.001764	28.0827	0.025931	0.002031	12.7685	24.1027	-168.296	0.029679	0.553324	-0.518326	-0.519581	-0.001484	12.7685	-0.518239	-6.15318e+06	2.411652E-10	NaN
476	1.000000	0.562567	7.36971e+06	-53289.1	1005.82	-29746.8	0.000000	0.000000	6.562957	-0.061434	NaN	0.000000	0.001622	0.001746	28.0828	0.110595	0.001956	56.5409	-28.9164	-167.009	0.046816	0.561280	-0.510338	-0.511625	-0.061434	56.5409	-0.509523	-4.65342e+06	1.320185E-8	NaN
476	1.000000	0.570578	7.36971e+06	-53289.1	1005.82	-29746.8	0.000000	0.000000	6.570969	-0.060872	NaN	0.000000	0.001663	0.001790	28.082	0.074224	0.002014	36.8499	17.72	-167.698	-0.087912	0.569248	-0.502327	-0.503657	-0.060872	36.8499	-0.501088	-3.54969e+06	1.714839E-8	NaN
476	1.000000	0.578605	7.36971e+06	-53289.1	1005.82	-29746.8	0.000000	0.000000	6.578997	-0.003117	NaN	0.000000	0.001681	0.001787	28.0819	0.136148	0.002014	67.6168	134.098	-162.578	-0.041468	0.577262	-0.494300	-0.495643	-0.003117	67.6168	-0.494266	-2.85088e+06	1.093269E-9	NaN
476	1.000000	0.586602	7.36971e+06	-53289.1	1005.82	-29746.8	0.000000	0.000000	6.586990	-0.109714	NaN	0.000000	0.001644	0.001797	28.0816	0.020004	0.001873	10.679	143.026	-166.051	-0.030144	0.585271	-0.486303	-0.487634	-0.109714	10.679	-0.478598	-1.72146e+06	6.373320E-8	NaN
476	1.000000	0.594578	7.36971e+06	-53289.1	1005.82	-29746.8	0.000000	0.000000	6.594969	-0.056425	NaN	0.000000	0.001636	0.001763	28.0818	0.036553	0.001924	18.9954	76.7545	-167.422	-0.114751	0.593291	-0.478327	-0.479614	-0.056425	18.9954	-0.476099	-1.58816e+06	3.552859E-8	NaN
476	1.000000	0.602585	7.36971e+06	-53289.1	1005.82	-29746.8	0.000000	0.000000	6.602976	-0.037897	NaN	0.000000	0.001637	0.001755	28.0816	0.021147	0.002087	10.1312	-53.8967	-169.876	-0.051770	0.601327	-0.470320	-0.471578	-0.037897	10.1312	-0.467515	-1.20377e+06	3.148184E-8	NaN
476	1.000000	0.610603	7.36971e+06	-53289.1	1005.82	-29746.8	0.000000	0.000000	6.610993	-0.082492	NaN	0.000000	0.001637	0.001738	28.0815	0.141852	0.001964	72.2377	-158.15	-168.068	-0.041891	0.609294	-0.462302	-0.463611	-0.082492	72.2377	-0.461445	-989288	8.338534E-8	NaN
476	1.000000	0.618583	7.36971e+06	-53289.1	1005.82	-29746.8	0.000000	0.000000	6.618973	-0.063682	NaN	0.000000	0.001636	0.001745	28.0818	0.079562	0.001922	41.3917	68.5527	-165.489	0.045035	0.617343	-0.454322	-0.455562	-0.063682	41.3917	-0.453168	-756726	8.415444E-8	NaN
476	1.000000	0.626640	7.36971e+06	-53289.1	1005.82	-29746.8	0.000000	0.000000	6.627031	-0.037999	NaN	0.000000	0.001623	0.001732	28.0815	0.013293	0.002066	6.435494	84.3043	-167.526	-0.071119	0.625216	-0.446265	-0.447689	-0.037999	6.435494	-0.441837	-523943	7.252569E-8	NaN
476	1.000000	0.634596	7.36971e+06	-53289.1	1005.82	-29746.8	0.000000	0.000000	6.634985	-0.095288	NaN	0.000000	0.001646	0.001767	28.0819	0.051191	0.002125	24.0953	95.5477	-167.63	-0.072599	0.633326	-0.438309	-0.439579	-0.095288	24.0953	-0.435343	-424233	2.246131E-7	NaN
476	1.000000	0.642597	7.36971e+06	-53289.1	1005.82	-29746.8	0.000000	0.000000	6.642986	-0.094500	NaN	0.000000	0.001615	0.001765	28.0817	0.032602	0.002033	16.0331	144.372	-167.797	-0.133426	0.641258	-0.430308	-0.431647	-0.094500	16.0331	-0.425887	-311778	3.031013E-7	NaN
476	1.000000	0.650637	7.36971e+06	-53289.1	1005.82	-29746.8	0.000000	0.000000	6.651029	-0.017531	NaN	0.000000	0.001640	0.001804	28.0816	0.121773	0.001973	61.7142	-38.4672	-162.75	-0.025664	0.649291	-0.422268	-0.423614	-0.017531	61.7142	-0.422055	-275138	6.371876E-8	NaN
476	1.000000	0.658638	7.36971e+06	-53289.1	1005.82	-29746.8	0.000000	0.000000	6.659030	-0.016006	NaN	0.000000	0.001635	0.001823	28.0816	0.073653	0.002130	34.5767	-67.7292	-164.562	-0.007203	0.657275	-0.414267	-0.415630	-0.016006	34.5767	-0.413920	-210920	7.588473E-8	NaN
476	1.000000	0.666599	7.36971e+06	-53289.1	1005.82	-29746.8	0.000000	0.000000	6.666988	-0.087480	NaN	0.000000	0.001627	0.001787	28.0815	0.179788	0.001880	95.6478	100.91	-171.614	-0.160370	0.665333	-0.406306	-0.407571	-0.087480	95.6478	-0.405620	-160721	5.442959E-7	NaN
476	1.000000	0.674623	7.36971e+06	-53289.1	1005.82	-29746.8	0.000000	0.000000	6.675015	-0.018143	NaN	0.000000	0.001649	0.001782	28.0816	0.032260	0.001939	16.6361	-137.07	-165.006	-0.014557	0.673278	-0.398282	-0.399627	-0.018143	16.6361	-0.397464	-122975	1.475343E-7	NaN
476	1.000000	0.682607	7.36971e+06	-53289.1	1005.82	-29746.8	0.000000	0.000000	6.682997	-0.065446	NaN	0.000000	0.001659	0.001813	28.0817	0.047382	0.002028	23.3658	-50.1736	-166.99	-0.042343	0.681341	-0.390298	-0.391564	-0.065446	23.3658	-0.388197	-90650.2	7.219641E-7	NaN
476	1.000000	0.690629	7.36971e+06	-53289.1	1005.82	-29746.8	0.000000	0.000000	6.691019	-0.064542	NaN	0.000000	0.001641	0.001803	28.0818	0.077491	0.001994	38.8535	-29.1352	-169.801	-0.034441	0.689254	-0.382276	-0.383651	-0.064542	38.8535	-0.381030	-71560.7	9.019159E-7	NaN
476	1.000000	0.698624	7.36971e+06	-53289.1	1005.82	-29746.8	0.000000	0.000000	6.699018	0.041727	NaN	0.000000	0.001644	0.001826	28.0819	0.131704	0.001995	66.0071	-86.8424	-165.675	-0.047776	0.697313	-0.374281	-0.375592	0.041727	66.0071	-0.374755	-58150.8	-7.175636E-7	NaN
476	1.000000	0.706662	7.36971e+06	-53289.1	1005.82	-29746.8	0.000000	0.000000	6.707052	-0.070405	NaN	0.000000	0.001647	0.001823	28.0821	0.062578	0.002116	29.5803	131.023	-165.527	-0.130819	0.705288	-0.366243	-0.367617	-0.070405	29.5803	-0.364458	-41326.4	1.703632E-6	NaN
476	1.000000	0.714630	7.36971e+06	-53289.1	1005.82	-29746.8	0.000000	0.000000	6.715019	-0.096046	NaN	0.000000	0.001618	0.001803	28.083	0.007514	0.001894	3.966849	119.348	-165.099	-0.053426	0.713288	-0.358275	-0.359617	-0.096046	3.966849	-0.340116	-18333.2	5.238916E-6	NaN
476	1.000000	0.722653	7.36971e+06	-53289.1	1005.82	-29746.8	0.000000	0.000000	6.723044	-0.046798	NaN	0.000000	0.001626	0.001750	28.0831	0.033562	0.002141	15.6761	121.791	-166.98	-0.048123	0.721362	-0.350252	-0.351543	-0.046798	15.6761	-0.348013	-23886.5	1.959169E-6	NaN
476	1.000000	0.730660	7.36971e+06	-53289.1	1005.82	-29746.8	0.000000	0.000000	6.731051	-0.029075	NaN	0.000000	0.001651	0.001761	28.083	0.078318	0.002106	37.1894	8.565005	-167.666	0.010654	0.729343	-0.342245	-0.343562	-0.029075	37.1894	-0.341659	-19307.5	1.505881E-6	NaN
476	1.000000	0.738653	7.36971e+06	-53289.1	1005.82	-29746.8	0.000000	0.000000	6.739045	-0.021777	NaN	0.000000	0.001655	0.001768	28.0829	0.083986	0.001898	44.2533	116.483	-167.375	-0.056102	0.737380	-0.334252	-0.335525	-0.021777	44.2533	-0.333883	-14868.5	1.464616E-6	NaN
476	1.000000	0.746650	7.36971e+06	-53289.1	1005.82	-29746.8	0.000000	0.000000	6.747042	-0.034466	NaN	0.000000	0.001626	0.001795	28.0831	0.066371	0.001921	34.5421	134.034	-167.572	-0.012578	0.745358	-0.326255	-0.327547	-0.034466	34.5421	-0.325506	-11209.1	3.074879E-6	NaN
476	1.000000	0.754666	7.36971e+06	-53289.1	1005.82	-29746.8	0.000000	0.000000	6.755059	-0.010010	NaN	0.000000	0.001636	0.001822	28.0829	0.051361	0.002027	25.3432	55.4813	-169.058	-0.069647	0.753336	-0.318239	-0.319569	-0.010010	25.3432	-0.317942	-8676.32	1.153731E-6	NaN
476	1.000000	0.762648	7.36971e+06	-53289.1	1005.82	-29746.8	0.000000	0.000000	6.763043	0.044784	NaN	0.000000	0.001622	0.001811	28.083	0.079447	0.001956	40.6178	-170.683	-167.779	-0.007587	0.761352	-0.310257	-0.311553	0.044784	40.6178	-0.311084	-6872.1	-6.516839E-6	NaN
476	1.000000	0.770622	7.36971e+06	-53289.1	1005.82	-29746.8	0.000000	0.000000	6.771013	-0.030795	NaN	0.000000	0.001630	0.001816	28.0829	0.045956	0.001989	23.1102	83.0206	-167.603	-0.022594	0.769355	-0.302283	-0.303550	-0.030795	23.1102	-0.301284	-4917.41	6.262441E-6	NaN
476	1.000000	0.778654	7.36971e+06	-53289.1	1005.82	-29746.8	0.000000	0.000000	6.779044	-0.067008	NaN	0.000000	0.001615	0.001766	28.0829	0.087352	0.002028	43.0705	34.4649	-167.306	-0.059282	0.777359	-0.294251	-0.295546	-0.067008	43.0705	-0.293084	-3710.73	1.805788E-5	NaN
476	1.000000	0.786649	7.36971e+06	-53289.1	1005.82	-29746.8	0.000000	0.000000	6.787040	-0.048906	NaN	0.000000	0.001691	0.001772	28.0829	0.068550	0.002101	32.6278	146.833	-166.008	-0.089843	0.785377	-0.286256	-0.287528	-0.048906	32.6278	-0.285132	-2820	1.734257E-5	NaN
476	1.000000	0.794656	7.36971e+06	-53289.1	1005.82	-29746.8	0.000000	0.000000	6.795046	-0.072025	NaN	0.000000	0.001677	0.001805	28.0829	0.150523	0.001987	75.7669	-150.812	-164.695	-0.087570	0.793365	-0.278249	-0.279540	-0.072025	75.7669	-0.277536	-2166.54	3.324421E-5	NaN
476	1.000000	0.802666	7.36971e+06	-53289.1	1005.82	-29746.8	0.000000	0.000000	6.803056	-0.056692	NaN	0.000000	0.001682	0.001793	28.0831	0.083468	0.002002	41.6953	-117.089	-165.633	-0.075852	0.801381	-0.270239	-0.271523	-0.056692	41.6953	-0.269220	-1620.61	3.498175E-5	NaN
476	1.000000	0.810655	7.36971e+06	-53289.1	1005.82	-29746.8	0.000000	0.000000	6.811047	-0.023741	NaN	0.000000	0.001689	0.001793	28.0831	0.078315	0.001889	41.457	-179.922	-167.598	0.020817	0.809375	-0.262250	-0.263530	-0.023741	41.457	-0.261821	-1249.69	1.899776E-5	NaN
476	1.000000	0.818669	7.36971e+06	-53289.1	1005.82	-29746.8	0.000000	0.000000	6.819062	-0.003039	NaN	0.000000	0.001660	0.001765	28.0831	0.082879	0.001849	44.815	159.644	-167.511	0.064559	0.817342	-0.254236	-0.255563	-0.003039	44.815	-0.254185	-954.032	3.185101E-6	NaN
476	1.000000	0.826682	7.36971e+06	-53289.1	1005.82	-29746.8	0.000000	0.000000	6.827076	0.018213	NaN	0.000000	0.001689	0.001802	28.0831	0.095490	0.001936	49.3125	-89.9425	-166.967	-0.031677	0.825382	-0.246222	-0.247523	0.018213	49.3125	-0.246499	-725.668	-2.509848E-5	NaN
476	1.000000	0.834686	7.36971e+06	-53289.1	1005.82	-29746.8	0.000000	0.000000	6.835077	-0.032252	NaN	0.000000	0.001660	0.001801	28.0829	0.052048	0.001882	27.6579	-0.579050	-169.363	-0.034683	0.833319	-0.238219	-0.239586	-0.032252	27.6579	-0.237344	-522.415	6.173622E-5	NaN
476	1.000000	0.842690	7.36971e+06	-53289.1	1005.82	-29746.8	0.000000	0.000000	6.843081	-0.031416	NaN	0.000000	0.001688	0.001781	28.0828	0.106878	0.002080	51.3924	-32.5226	-166.349	0.012326	0.841362	-0.230215	-0.231543	-0.031416	51.3924	-0.229757	-396.898	7.915312E-5	NaN
476	1.000000	0.850668	7.36971e+06	-53289.1	1005.82	-29746.8	0.000000	0.000000	6.851060	-0.016619	NaN	0.000000	0.001693	0.001814	28.082	0.100946	0.002148	46.9972	-155.765	-167.893	-0.032836	0.849431	-0.222237	-0.223474	-0.016619	46.9972	-0.221972	-298.641	5.564972E-5	NaN
476	1.000000	0.858706	7.36971e+06	-53289.1	1005.82	-29746.8	0.000000	0.000000	6.859099	-0.007984	NaN	0.000000	0.001672	0.001766	28.082	0.142854	0.002040	70.0376	-35.93	-168.176	0.012726	0.857334	-0.214199	-0.215571	-0.007984	70.0376	-0.214113	-223.481	3.572497E-5	NaN
476	1.000000	0.866688	7.36971e+06	-53289.1	1005.82	-29746.8	0.000000	0.000000	6.867078	-0.063466	NaN	0.000000	0.001699	0.001776	28.082	0.051026	0.002049	24.9067	-26.2851	-167.783	-0.072827	0.865403	-0.206217	-0.207502	-0.063466	24.9067	-0.204306	-154.962	0.000410	NaN
476	1.000000	0.874702	7.36971e+06	-53289.1	1005.82	-29746.8	0.000000	0.000000	6.875094	-0.025955	NaN	0.000000	0.001694	0.001777	28.0818	0.098476	0.001981	49.7067	69.2688	-165.71	-0.041616	0.873404	-0.198203	-0.199501	-0.025955	49.7067	-0.197811	-121.244	0.000214	NaN
476	1.000000	0.882711	7.36971e+06	-53289.1	1005.82	-29746.8	0.000000	0.000000	6.883104	0.002586	NaN	0.000000	0.001719	0.001800	28.0818	0.089519	0.002068	43.296	-140.554	-167.365	-0.028411	0.881394	-0.190194	-0.191511	0.002586	43.296	-0.190239	-90.7845	-2.848817E-5	NaN
476	1.000000	0.890697	7.36971e+06	-53289.1	1005.82	-29746.8	0.000000	0.000000	6.891090	-0.004864	NaN	0.000000	0.001668	0.001776	28.0819	0.057309	0.001963	29.1914	75.5753	-164.041	-0.046485	0.889397	-0.182208	-0.183508	-0.004864	29.1914	-0.182083	-66.1964	7.347818E-5	NaN
476	1.000000	0.898734	7.36971e+06	-53289.1	1005.82	-29746.8	0.000000	0.000000	6.899127	-0.000971	NaN	0.000000	0.001683	0.001791	28.0822	0.060390	0.002073	29.1361	70.4055	-163.088	0.018584	0.897453	-0.174171	-0.175452	-0.000971	29.1361	-0.174146	-48.4492	2.003881E-5	NaN
476	1.000000	0.906710	7.36971e+06	-53289.1	1005.82	-29746.8	0.000000	0.000000	6.907103	0.022528	NaN	0.000000	0.001676	0.001780	28.0821	0.043862	0.002119	20.7007	87.0473	-167.593	0.023066	0.905403	-0.166195	-0.167502	0.022528	20.7007	-0.167012	-36.4376	-0.000618	NaN
476	1.000000	0.914726	7.36971e+06	-53289.1	1005.82	-29746.8	0.000000	0.000000	6.915118	-0.014577	NaN	0.000000	0.001654	0.001831	28.0821	0.027752	0.001968	14.0999	-131.024	-163.956	-0.032285	0.913430	-0.158179	-0.159475	-0.014577	14.0999	-0.157403	-24.6431	0.000592	NaN
476	1.000000	0.922745	7.36971e+06	-53289.1	1005.82	-29746.8	0.000000	0.000000	6.923135	-0.056250	NaN	0.000000	0.001658	0.001770	28.0817	0.035595	0.001997	17.8222	99.4719	-164.75	-0.047296	0.921412	-0.150160	-0.151493	-0.056250	17.8222	-0.147793	-16.5056	0.003408	NaN
476	1.000000	0.930716	7.36971e+06	-53289.1	1005.82	-29746.8	0.000000	0.000000	6.931104	-0.118379	NaN	0.000000	0.001675	0.001790	28.0819	0.016437	0.002043	8.046372	21.2983	-166.792	-0.071118	0.929426	-0.142189	-0.143479	-0.118379	8.046372	-0.131155	-8.024250	0.014753	NaN
476	1.000000	0.938709	7.36971e+06	-53289.1	1005.82	-29746.8	0.000000	0.000000	6.939101	-0.017382	NaN	0.000000	0.001669	0.001769	28.0818	0.089652	0.001796	49.9297	-32.9732	-166.428	0.038244	0.937381	-0.134196	-0.135524	-0.017382	49.9297	-0.133934	-9.076316	0.001915	NaN
476	1.000000	0.946748	7.36971e+06	-53289.1	1005.82	-29746.8	0.000000	0.000000	6.947141	0.003264	NaN	0.000000	0.001669	0.001761	28.0821	0.108537	0.001985	54.6853	-166.246	-164.306	0.012471	0.945445	-0.126157	-0.127460	0.003264	54.6853	-0.126202	-6.422738	-0.000508	NaN
476	1.000000	0.954730	7.36971e+06	-53289.1	1005.82	-29746.8	0.000000	0.000000	6.955121	-0.045700	NaN	0.000000	0.001676	0.001729	28.082	0.083849	0.002080	40.3147	-147.145	-164	0.004539	0.953440	-0.118175	-0.119465	-0.045700	40.3147	-0.117325	-4.263759	0.010718	NaN
476	1.000000	0.962739	7.36971e+06	-53289.1	1005.82	-29746.8	0.000000	0.000000	6.963130	-0.049932	NaN	0.000000	0.001670	0.001708	28.0818	0.071132	0.002052	34.6725	-7.944785	-167.998	-0.019886	0.961495	-0.110166	-0.111410	-0.049932	34.6725	-0.109086	-2.874465	0.017371	NaN
476	1.000000	0.970790	7.36971e+06	-53289.1	1005.82	-29746.8	0.000000	0.000000	6.971182	-0.014781	NaN	0.000000	0.001711	0.001733	28.0821	0.045861	0.002061	22.2558	173.702	-162.666	-0.028948	0.969431	-0.102115	-0.103474	-0.014781	22.2558	-0.101617	-1.983641	0.007452	NaN
476	1.000000	0.978731	7.36971e+06	-53289.1	1005.82	-29746.8	0.000000	0.000000	6.979126	0.046249	NaN	0.000000	0.001664	0.001699	28.082	0.111214	0.002066	53.8331	-63.3507	-168.136	0.052702	0.977455	-0.094174	-0.095450	0.046249	53.8331	-0.094818	-1.397217	-0.033100	NaN
476	1.000000	0.986735	7.36971e+06	-53289.1	1005.82	-29746.8	0.000000	0.000000	6.987128	0.012017	NaN	0.000000	0.001632	0.001780	28.0831	0.121849	0.002134	57.112	-93.3575	-168.741	0.010197	0.985404	-0.086170	-0.087501	0.012017	57.112	-0.086328	-0.884466	-0.013587	NaN
476	1.000000	0.994737	7.36971e+06	-53289.1	1005.82	-29746.8	0.000000	0.000000	6.995127	-0.081688	NaN	0.000000	0.001588	0.001780	28.0829	0.057646	0.001923	29.9745	164.835	-167.059	-0.008603	0.993473	-0.078168	-0.079432	-0.081688	29.9745	-0.076124	-0.493717	0.165455	NaN
476	1.000000	1.002765	7.36971e+06	-53289.1	1005.82	-29746.8	0.000000	0.000000	7.003158	0.015486	NaN	0.000000	0.001620	0.001785	28.083	0.050530	0.002102	24.0432	-74.6495	-166.029	0.057697	1.001434	-0.070140	-0.071471	0.015486	24.0432	-0.070623	-0.354451	-0.043691	NaN
476	1.000000	1.010759	7.36971e+06	-53289.1	1005.82	-29746.8	0.000000	0.000000	7.011153	0.039668	NaN	0.000000	0.001621	0.001776	28.0833	0.059777	0.002061	29.0062	107.66	-165.471	-0.012914	1.009440	-0.062146	-0.063465	0.039668	29.0062	-0.063172	-0.221582	-0.179022	NaN
476	1.000000	1.018746	7.36971e+06	-53289.1	1005.82	-29746.8	0.000000	0.000000	7.019135	-0.078828	NaN	0.000000	0.001574	0.001762	28.0829	0.100360	0.002013	49.8461	166.041	-165.946	-0.145528	1.017452	-0.054159	-0.055453	-0.078828	49.8461	-0.052973	-0.112102	0.703179	NaN
476	1.000000	1.026754	7.36971e+06	-53289.1	1005.82	-29746.8	0.000000	0.000000	7.027145	-0.046992	NaN	0.000000	0.001597	0.001775	28.083	0.035447	0.001858	19.0756	-169.65	-164.415	-0.130263	1.025422	-0.046151	-0.047483	-0.046992	19.0756	-0.044303	-0.061191	0.767960	NaN
476	1.000000	1.034805	7.36971e+06	-53289.1	1005.82	-29746.8	0.000000	0.000000	7.035197	0.003063	NaN	0.000000	0.001574	0.001771	28.0827	0.107832	0.001967	54.8086	75.5577	-165.484	-0.023125	1.033421	-0.038100	-0.039484	0.003063	54.8086	-0.038142	-0.039733	-0.077088	NaN
476	1.000000	1.042757	7.36971e+06	-53289.1	1005.82	-29746.8	0.000000	0.000000	7.043148	-0.043600	NaN	0.000000	0.001586	0.001809	28.0828	0.132528	0.001946	68.1187	120.164	-165.786	-0.121687	1.041467	-0.030148	-0.031438	-0.043600	68.1187	-0.029667	-0.022528	1.935368	NaN
476	1.000000	1.050754	7.36971e+06	-53289.1	1005.82	-29746.8	0.000000	0.000000	7.051144	-0.068695	NaN	0.000000	0.001604	0.001823	28.0831	0.048698	0.001896	25.6833	108.471	-165.601	-0.050047	1.049447	-0.022151	-0.023458	-0.068695	25.6833	-0.020145	-0.012668	5.422624	NaN
476	1.000000	1.058761	7.36971e+06	-53289.1	1005.82	-29746.8	0.000000	0.000000	7.059158	0.087520	NaN	0.000000	0.001654	0.001791	28.0829	0.281408	0.002040	137.941	37.626	-168.158	-0.001122	1.057413	-0.014144	-0.015492	0.087520	137.941	-0.014620	-0.009049	-9.672135	NaN
476	1.000000	1.066799	7.36971e+06	-53289.1	1005.82	-29746.8	0.000000	0.000000	7.067265	1.766818	NaN	0.000000	0.001596	0.001791	28.083	2.412710	0.001955	1234.15	24.1995	-167.753	1.286482	1.065438	-0.006106	-0.007467	1.766818	1234.15	-0.007179	-0.004747	-372.172	NaN
476	2.000000	1.074096	7.36971e+06	-53289.1	1005.82	-29746.8	0.000000	0.000000	7.074930	10.7374	NaN	0.000000	0.001596	0.001791	28.083	8.098995	0.001767	4583.67	14.2001	-174.396	9.766884	1.073385	0.001191	0.000481	10.7374	4583.67	-0.000566	-0.000418	-25665.3	NaN
476	2.000000	1.076239	7.36971e+06	-53289.1	1005.82	-29746.8	0.000000	0.000000	7.077217	14.2274	NaN	0.000000	0.001645	0.001809	28.0831	10.6218	0.001766	6014.45	13.4248	-178.428	13.5201	1.075914	0.003334	0.003009	14.2274	6014.45	0.001560	0.001202	11839.1	158513
476	2.000000	1.078246	7.36971e+06	-53289.1	1005.82	-29746.8	0.000000	0.000000	7.079510	21.1737	NaN	0.000000	0.001615	0.001775	28.0828	12.9461	0.001691	7656.42	13.3012	178.65	20.365	1.077909	0.005341	0.005004	21.1737	7656.42	0.003267	0.002606	8125.57	137034
476	2.000000	1.080192	7.36971e+06	-53289.1	1005.82	-29746.8	0.000000	0.000000	7.081725	27.7371	NaN	0.000000	0.001622	0.001787	28.083	15.2411	0.001757	8676.37	5.154889	-173.949	26.0646	1.079877	0.007287	0.006973	27.7371	8676.37	0.004889	0.004032	6878.56	124833
476	2.000000	1.082223	7.36971e+06	-53289.1	1005.82	-29746.8	0.000000	0.000000	7.084140	37.0632	NaN	0.000000	0.001616	0.001801	28.0828	17.7308	0.001761	10067.1	6.049309	-176.763	35.588	1.081868	0.009318	0.008963	37.0632	10067.1	0.006557	0.005600	6618.65	122911
476	2.000000	1.084191	7.36971e+06	-53289.1	1005.82	-29746.8	0.000000	0.000000	7.086454	45.4744	NaN	0.000000	0.001620	0.001792	28.0829	19.0227	0.001735	10962.2	5.240374	-177.543	44.2277	1.083891	0.011286	0.010986	45.4744	10962.2	0.008175	0.007223	6295.88	117846
476	2.000000	1.086169	7.36971e+06	-53289.1	1005.82	-29746.8	0.000000	0.000000	7.088886	56.5163	NaN	0.000000	0.001611	0.001773	28.0826	21.7121	0.001808	12011.4	3.972651	-176.26	55.3538	1.085852	0.013264	0.012947	56.5163	12011.4	0.009735	0.008888	6358.42	116401
476	2.000000	1.088174	7.36971e+06	-53289.1	1005.82	-29746.8	0.000000	0.000000	7.091376	68.2879	NaN	0.000000	0.001616	0.001787	28.0817	23.2933	0.001814	12841.6	7.772688	178.587	66.6196	1.087891	0.015269	0.014986	68.2879	12841.6	0.011281	0.010640	6418.07	113742
476	2.000000	1.090120	7.36971e+06	-53289.1	1005.82	-29746.8	0.000000	0.000000	7.093785	79.559	NaN	0.000000	0.001617	0.001804	28.0818	24.8531	0.001752	14187.3	5.519382	-179.854	77.6612	1.089853	0.017215	0.016948	79.559	14187.3	0.013009	0.012722	6253.87	114922
476	2.000000	1.092158	7.36971e+06	-53289.1	1005.82	-29746.8	0.000000	0.000000	7.096278	90.6221	NaN	0.000000	0.001637	0.001813	28.0819	26.3518	0.001704	15464.5	5.674410	178.959	87.9596	1.091823	0.019253	0.018918	90.6221	15464.5	0.014858	0.015096	6003.04	114995
476	2.000000	1.094124	7.36971e+06	-53289.1	1005.82	-29746.8	0.000000	0.000000	7.098764	103.252	NaN	0.000000	0.001640	0.001796	28.0817	27.9033	0.001829	15255.1	3.948578	-178.604	101.149	1.093816	0.021219	0.020911	103.252	15255.1	0.016143	0.016840	6131.34	107403
476	2.000000	1.096155	7.36971e+06	-53289.1	1005.82	-29746.8	0.000000	0.000000	7.101455	119.314	NaN	0.000000	0.001623	0.001822	28.0829	29.7462	0.001855	16037.7	2.846551	-178.862	116.919	1.095845	0.023250	0.022940	119.314	16037.7	0.017671	0.019013	6275.26	106264
476	2.000000	1.098142	7.36971e+06	-53289.1	1005.82	-29746.8	0.000000	0.000000	7.104043	133.925	NaN	0.000000	0.001642	0.001820	28.0816	31.1107	0.001647	18886.4	4.083330	178.149	132.154	1.097811	0.025237	0.024906	133.925	18886.4	0.019919	0.022415	5974.92	115254
476	2.000000	1.100156	7.36971e+06	-53289.1	1005.82	-29746.8	0.000000	0.000000	7.106965	155.986	NaN	0.000000	0.001645	0.001786	28.082	34.6193	0.001839	18829.9	3.336088	179.892	154.203	1.099805	0.027251	0.026900	155.986	18829.9	0.021038	0.024200	6445.75	110590
476	2.000000	1.102115	7.36971e+06	-53289.1	1005.82	-29746.8	0.000000	0.000000	7.109731	175.623	NaN	0.000000	0.001607	0.001788	28.0818	37.3645	0.001994	18736.3	6.489683	177.404	172.11	1.101736	0.029210	0.028831	175.623	18736.3	0.022180	0.026085	6732.81	105990
476	2.000000	1.104045	7.36971e+06	-53289.1	1005.82	-29746.8	0.000000	0.000000	7.112494	195.872	NaN	0.000000	0.001622	0.001808	28.0816	37.7021	0.001620	23268	4.117865	176.234	189.484	1.103705	0.031140	0.030800	195.872	23268	0.024826	0.030700	6380.12	121328
476	2.000000	1.106141	7.36971e+06	-53289.1	1005.82	-29746.8	0.000000	0.000000	7.115540	218.976	NaN	0.000000	0.001601	0.001800	28.0825	40.7637	0.001789	22781.7	1.521706	179.852	217.802	1.105826	0.033236	0.032921	218.976	22781.7	0.026027	0.032910	6653.82	114735
476	2.000000	1.108091	7.36971e+06	-53289.1	1005.82	-29746.8	0.000000	0.000000	7.118527	244.178	NaN	0.000000	0.001722	0.001778	28.0817	41.6986	0.001751	23811.6	2.783939	177.767	240.902	1.107834	0.035186	0.034929	244.178	23811.6	0.027495	0.035712	6837.48	115122
476	2.000000	1.110089	7.36971e+06	-53289.1	1005.82	-29746.8	0.000000	0.000000	7.121276	262.444	NaN	0.000000	0.001728	0.001835	28.0819	44.9292	0.001717	26173.1	6.283198	173.27	257.336	1.109748	0.037184	0.036843	262.444	26173.1	0.029663	0.040049	6553.12	119491
476	2.000000	1.112140	7.36971e+06	-53289.1	1005.82	-29746.8	0.000000	0.000000	7.124304	286.192	NaN	0.000000	0.001734	0.001806	28.0816	46.3283	0.001851	25025	2.723338	179.021	283.277	1.111790	0.039235	0.038885	286.192	25025	0.030658	0.042118	6795.01	111407
476	2.000000	1.114044	7.36971e+06	-53289.1	1005.82	-29746.8	0.000000	0.000000	7.127102	307.93	NaN	0.000000	0.001677	0.001786	28.0817	48.3955	0.001921	25190.6	5.432310	174.568	303.557	1.113811	0.041139	0.040906	307.93	25190.6	0.031971	0.044927	6853.96	108582
476	2.000000	1.116155	7.36971e+06	-53289.1	1005.82	-29746.8	0.000000	0.000000	7.130328	335.032	NaN	0.000000	0.001688	0.001829	28.0822	50.0525	0.001955	25606	5.850196	175.023	334.764	1.115787	0.043250	0.042882	335.032	25606	0.033437	0.048169	6955.36	106594
476	2.000000	1.118098	7.36972e+06	-53289.1	1005.82	-29746.8	0.000000	0.000000	7.133234	358.434	NaN	0.000000	0.001690	0.001812	28.0816	50.3913	0.001730	29124.4	4.197426	175.199	357.058	1.117813	0.045193	0.044908	358.434	29124.4	0.035963	0.054012	6636.15	114494
476	2.000000	1.120031	7.36972e+06	-53289.1	1005.82	-29746.8	0.000000	0.000000	7.136273	385.342	NaN	0.000000	0.001706	0.001847	28.0831	52.9028	0.001869	28310.2	1.936338	177.394	381.029	1.119767	0.047126	0.046862	385.342	28310.2	0.036917	0.056304	6843.95	109005
476	2.000000	1.122083	7.36972e+06	-53289.1	1005.82	-29746.8	0.000000	0.000000	7.139484	413.527	NaN	0.000000	0.001723	0.001839	28.0827	54.4345	0.001879	28972	3.529184	176.063	409.354	1.121742	0.049178	0.048837	413.527	28972	0.038473	0.060141	6875.9	107936
476	2.000000	1.124018	7.36972e+06	-53289.1	1005.82	-29746.8	0.000000	0.000000	7.142478	439.254	NaN	0.000000	0.001722	0.001827	28.083	55.3995	0.001843	30060.2	4.095884	174.859	432.42	1.123654	0.051113	0.050749	439.254	30060.2	0.040154	0.064427	6817.87	108201
476	2.000000	1.125990	7.36972e+06	-53289.1	1005.82	-29746.8	0.000000	0.000000	7.145198	457.454	NaN	0.000000	0.001634	0.001807	28.083	57.571	0.001905	30223	4.641512	173.715	450.046	1.125681	0.053085	0.052776	457.454	30223	0.041733	0.068584	6669.97	105438
476	2.000000	1.128070	7.36972e+06	-53289.1	1005.82	-29746.8	0.000000	0.000000	7.148662	491.089	NaN	0.000000	0.001648	0.001844	28.0828	56.7007	0.001779	31875.7	1.146711	177.754	486.283	1.127726	0.055165	0.054821	491.089	31875.7	0.043610	0.073691	6664.14	107281
476	2.000000	1.130033	7.36972e+06	-53289.1	1005.82	-29746.8	0.000000	0.000000	7.151432	510.723	NaN	0.000000	0.001641	0.001807	28.0827	57.9491	0.001723	33624.3	0.134322	177.697	505.863	1.129725	0.057128	0.056820	510.723	33624.3	0.045736	0.079691	6408.82	108824
476	2.000000	1.132162	7.36972e+06	-53289.1	1005.82	-29746.8	0.000000	0.000000	7.154423	531.668	NaN	0.000000	0.001651	0.001792	28.0826	61.0028	0.001745	34966.4	4.056902	173.449	530.758	1.131921	0.059257	0.059016	531.668	34966.4	0.047854	0.085894	6189.81	109004
476	2.000000	1.134097	7.36972e+06	-53289.1	1005.82	-29746.8	0.000000	0.000000	7.157772	566.057	NaN	0.000000	0.001635	0.001828	28.0827	61.8585	0.001857	33310.9	1.803819	176.578	563.745	1.133711	0.061192	0.060806	566.057	33310.9	0.048447	0.087674	6456.42	102784
476	2.000000	1.136021	7.36972e+06	-53289.1	1005.82	-29746.8	0.000000	0.000000	7.160586	587.705	NaN	0.000000	0.001598	0.001813	28.0827	64.3017	0.001820	35328.7	6.604742	170.451	582.583	1.135672	0.063116	0.062767	587.705	35328.7	0.050639	0.094399	6225.73	105055
476	2.000000	1.138032	7.36972e+06	-53289.1	1005.82	-29746.8	0.000000	0.000000	7.163592	611.889	NaN	0.000000	0.001625	0.001830	28.0829	64.1069	0.001772	36174.1	3.001698	174.996	608.721	1.137654	0.065127	0.064749	611.889	36174.1	0.052440	0.100105	6112.49	104458
476	2.000000	1.139945	7.36972e+06	-53289.1	1005.82	-29746.8	0.000000	0.000000	7.166531	636.84	NaN	0.000000	0.001615	0.001821	28.0827	65.4788	0.001805	36277.4	2.847977	174.541	628.153	1.139633	0.067040	0.066728	636.84	36277.4	0.053874	0.104763	6078.88	102402
476	2.000000	1.141973	7.36972e+06	-53289.1	1005.82	-29746.8	0.000000	0.000000	7.168533	636.19	NaN	0.000000	0.001639	0.001826	28.0828	66.9543	0.001740	38477	3.658460	172.838	628.727	1.141771	0.069068	0.068866	636.19	38477	0.056668	0.114131	5574.23	104057
476	2.000000	1.144000	7.36972e+06	-53289.1	1005.82	-29746.8	0.000000	0.000000	7.172454	682.246	NaN	0.000000	0.001634	0.001835	28.0827	68.4096	0.001867	36644.2	2.922658	174.859	675.405	1.143653	0.071095	0.070748	682.246	36644.2	0.057131	0.115723	5895.54	98416.8
476	2.000000	1.146081	7.36972e+06	-53289.1	1005.82	-29746.8	0.000000	0.000000	7.175746	711.698	NaN	0.000000	0.001637	0.001812	28.0832	70.9434	0.001839	38579.6	5.225426	172.708	709.992	1.145633	0.073176	0.072728	711.698	38579.6	0.059341	0.123454	5764.86	100318
476	2.000000	1.148002	7.36972e+06	-53289.1	1005.82	-29746.8	0.000000	0.000000	7.178236	725.518	NaN	0.000000	0.001650	0.001839	28.0832	71.0519	0.001771	40125.3	3.404770	173.32	720.198	1.147809	0.075097	0.074904	725.518	40125.3	0.061536	0.131376	5522.47	101143
476	2.000000	1.150108	7.36972e+06	-53289.1	1005.82	-29746.8	0.000000	0.000000	7.181635	756.958	NaN	0.000000	0.001633	0.001814	28.084	73.355	0.001824	40227.4	0.869300	175.499	755.615	1.149796	0.077203	0.076891	756.958	40227.4	0.063091	0.137124	5520.25	99252
476	2.000000	1.152098	7.36972e+06	-53289.1	1005.82	-29746.8	0.000000	0.000000	7.185260	796.719	NaN	0.000000	0.001637	0.001775	28.0829	76.2704	0.001885	40459.4	5.795593	172.324	793.862	1.151677	0.079193	0.078772	796.719	40459.4	0.064424	0.142149	5604.81	98043.9
476	2.000000	1.153955	7.36972e+06	-53289.1	1005.82	-29746.8	0.000000	0.000000	7.187686	810.543	NaN	0.000000	0.001641	0.001772	28.0814	76.4526	0.001849	41341.8	3.173410	173.128	802.961	1.153696	0.081050	0.080791	810.543	41341.8	0.066346	0.149542	5420.18	97674.5
476	2.000000	1.157023	7.36972e+06	-53289.1	1005.82	-29746.8	0.000000	0.000000	7.189380	777.141	NaN	0.000000	0.001659	0.001806	28.0816	75.4109	0.001940	38876.3	6.419044	170.139	828.863	1.156021	0.084118	0.083116	777.141	38876.3	0.069125	0.160547	4840.59	88645.6
476	2.000000	1.157861	7.36972e+06	-53289.1	1005.82	-29746.8	0.000000	0.000000	7.188338	731.437	NaN	0.000000	0.001608	0.001846	28.0815	77.6755	0.001777	43711.1	-2.121144	178.17	719.341	1.157587	0.084956	0.084682	731.437	43711.1	0.072406	0.174013	4203.35	95735.8
476	2.000000	1.159867	7.36972e+06	-53289.1	1005.82	-29746.8	0.000000	0.000000	7.192859	792.561	NaN	0.000000	0.001604	0.001845	28.0816	81.5986	0.002006	40671	3.493286	173.291	782.329	1.159606	0.086963	0.086701	792.561	40671	0.072347	0.173767	4561.06	89140.3
476	2.000000	1.162007	7.36972e+06	-53289.1	1005.82	-29746.8	0.000000	0.000000	7.195898	814.435	NaN	0.000000	0.001609	0.001833	28.0819	81.2168	0.001841	44106.6	1.075247	175.032	809.074	1.161834	0.089102	0.088929	814.435	44106.6	0.075253	0.186111	4376.06	93409.3
476	2.000000	1.163992	7.36972e+06	-53289.1	1005.82	-29746.8	0.000000	0.000000	7.199569	855.418	NaN	0.000000	0.001639	0.001873	28.0815	82.9031	0.001829	45339.2	6.764435	169.14	850.623	1.163741	0.091087	0.090836	855.418	45339.2	0.076937	0.193446	4422.01	94181.9
476	2.000000	1.165970	7.36972e+06	-53289.1	1005.82	-29746.8	0.000000	0.000000	7.202051	867.692	NaN	0.000000	0.001633	0.001903	28.0816	84.5105	0.001874	45088.7	2.306350	173.484	860.929	1.165774	0.093065	0.092869	867.692	45088.7	0.078632	0.200962	4317.69	91893.3
476	2.000000	1.168049	7.36972e+06	-53289.1	1005.82	-29746.8	0.000000	0.000000	7.205445	899.645	NaN	0.000000	0.001573	0.001875	28.0815	84.5087	0.001730	48847.6	1.663246	173.93	896.387	1.167765	0.095144	0.094860	899.645	48847.6	0.081331	0.213213	4219.48	96651.8
476	2.000000	1.170038	7.36972e+06	-53289.1	1005.82	-29746.8	0.000000	0.000000	7.208803	932.948	NaN	0.000000	0.001615	0.001854	28.0814	87.3667	0.001842	47423.8	2.769407	172.621	930.32	1.169776	0.097133	0.096871	932.948	47423.8	0.082379	0.218056	4278.49	92786.8
476	2.000000	1.171954	7.36972e+06	-53289.1	1005.82	-29746.8	0.000000	0.000000	7.211860	960.687	NaN	0.000000	0.001667	0.001837	28.0817	89.206	0.001871	47672.6	5.622783	170.157	953.635	1.171670	0.099049	0.098765	960.687	47672.6	0.083935	0.225348	4263.13	91751.9
476	2.000000	1.172521	7.36972e+06	-53289.1	1005.82	-29746.8	0.000000	0.000000	7.212796	969.664	NaN	0.000000	0.001679	0.001851	28.0817	88.5026	0.001767	50075.9	0.653030	-4.906732	964.083	1.172107	0.099616	0.099202	969.664	50075.9	0.085093	0.230845	4200.49	95222.9