File: remote_trans/data/nanoindenter/0828-1/data/Data_2025-08-06,11h17m57s/2025-07-22_16-23-58_1_216.txt
2025-07-22, 16:23:58, 1
Index	Phase	Displacement	Time	Pos X	Pos Y	Pos Z	Rot A	Rot B	Piezo Z	Force A	Force B	Gripper	Voltage A	Voltage B	Temperature	Amplitude force	Amplitude pos	Stiffness	Phase shift	Phase excitation	Force A raw	Displacement raw	HMax	HMax raw	Real Force	Real Stiffness	Contact Depth	Area	Hardness	Reduced Mod.
[#]	[#]	[um]	[s]	[um]	[um]	[um]	[m°]	[m°]	[um]	[uN]	[uN]	[V]	[V]	[V]	[°C]	[uN]	[um]	[N/m]	[°]	[°]	[uN]	[um]	[um]	[um]	[uN]	[N/m]	[um]	[um^2]	[MPa]	[MPa]
216	1.000000	0.002398	7.36716e+06	-49439.1	955.818	-29759.4	0.000000	0.000000	6.002815	0.053100	NaN	0.000000	0.001688	0.001722	28.0805	0.077366	0.001003	77.1473	162.175	-167.556	0.062876	0.001169	-1.062670	-1.063899	0.053100	77.1473	-1.063186	-1.605588E+14	-3.307204E-16	NaN
216	1.000000	0.010370	7.36716e+06	-49439.1	955.819	-29759.4	0.000000	0.000000	6.010785	-0.007242	NaN	0.000000	0.001610	0.001717	28.0804	0.130861	0.000907	144.251	139.965	-160.994	0.025777	0.009023	-1.054698	-1.056045	-0.007242	144.251	-1.054660	-1.233249E+14	5.872427E-17	NaN
216	1.000000	0.018353	7.36716e+06	-49439.1	955.819	-29759.4	0.000000	0.000000	6.018769	0.011890	NaN	0.000000	0.001629	0.001714	28.0804	0.022170	0.001677	13.2181	-85.817	-164.428	0.014695	0.016990	-1.046714	-1.048078	0.011890	13.2181	-1.047389	-9.847273E+13	-1.207483E-16	NaN
216	1.000000	0.026378	7.36716e+06	-49439.1	955.819	-29759.4	0.000000	0.000000	6.026795	0.032159	NaN	0.000000	0.001648	0.001727	28.0802	0.046689	0.001989	23.4773	148.242	-161.95	-0.061461	0.025038	-1.038690	-1.040029	0.032159	23.4773	-1.039717	-7.765356E+13	-4.141334E-16	NaN
216	1.000000	0.034352	7.36716e+06	-49439.1	955.818	-29759.4	0.000000	0.000000	6.034771	0.090181	NaN	0.000000	0.001618	0.001723	28.0803	0.087752	0.001998	43.9242	-143.939	-162.659	0.084388	0.033038	-1.030715	-1.032030	0.090181	43.9242	-1.032255	-6.163327E+13	-1.463182E-15	NaN
216	1.000000	0.042339	7.36716e+06	-49439.1	955.819	-29759.4	0.000000	0.000000	6.042752	-0.036013	NaN	0.000000	0.001664	0.001709	28.0804	0.022701	0.001896	11.9717	99.5214	-163.43	-0.043725	0.041060	-1.022729	-1.024008	-0.036013	11.9717	-1.020473	-4.278751E+13	8.416812E-16	NaN
216	1.000000	0.050334	7.36716e+06	-49439.1	955.819	-29759.4	0.000000	0.000000	6.050749	0.001684	NaN	0.000000	0.001627	0.001695	28.0802	0.090177	0.001930	46.7331	-163.605	-166.596	0.054595	0.049035	-1.014734	-1.016033	0.001684	46.7331	-1.014761	-3.584759E+13	-4.698378E-17	NaN
216	1.000000	0.058341	7.36716e+06	-49439.1	955.819	-29759.4	0.000000	0.000000	6.058758	0.060690	NaN	0.000000	0.001617	0.001733	28.0805	0.100758	0.001967	51.2296	101.212	-164.976	0.037311	0.057049	-1.006727	-1.008019	0.060690	51.2296	-1.007615	-2.872681E+13	-2.112655E-15	NaN
216	1.000000	0.066350	7.36716e+06	-49439.1	955.819	-29759.4	0.000000	0.000000	6.066766	0.035671	NaN	0.000000	0.001632	0.001734	28.0803	0.137944	0.002076	66.4363	115.723	-163.311	-0.001608	0.065049	-0.998718	-1.000019	0.035671	66.4363	-0.999121	-2.207656E+13	-1.615793E-15	NaN
216	1.000000	0.074351	7.36716e+06	-49439.1	955.818	-29759.4	0.000000	0.000000	6.074767	0.034078	NaN	0.000000	0.001607	0.001779	28.0798	0.084852	0.002061	41.1671	65.7298	-163.402	0.090227	0.073049	-0.990717	-0.992019	0.034078	41.1671	-0.991338	-1.734342E+13	-1.964896E-15	NaN
216	1.000000	0.082341	7.36716e+06	-49439.1	955.818	-29759.4	0.000000	0.000000	6.082756	-0.005176	NaN	0.000000	0.001649	0.001760	28.0804	0.170405	0.001969	86.5439	43.5243	-167.258	-0.088116	0.081098	-0.982726	-0.983970	-0.005176	86.5439	-0.982682	-1.325980E+13	3.903717E-16	NaN
216	1.000000	0.090353	7.36716e+06	-49439.1	955.819	-29759.4	0.000000	0.000000	6.090771	0.066813	NaN	0.000000	0.001647	0.001728	28.0804	0.068343	0.002030	33.6729	159.758	-166.402	0.063607	0.089105	-0.974715	-0.975963	0.066813	33.6729	-0.976203	-1.084561E+13	-6.160398E-15	NaN
216	1.000000	0.098344	7.36716e+06	-49439.1	955.819	-29759.4	0.000000	0.000000	6.098760	0.041891	NaN	0.000000	0.001654	0.001750	28.0809	0.031633	0.001967	16.0839	-53.2037	-161.299	0.026414	0.097062	-0.966724	-0.968006	0.041891	16.0839	-0.968678	-8.586977E+12	-4.878440E-15	NaN
216	1.000000	0.106349	7.36716e+06	-49439.1	955.818	-29759.4	0.000000	0.000000	6.106766	0.025140	NaN	0.000000	0.001630	0.001743	28.0804	0.075064	0.002038	36.8262	-151.196	-164.828	0.128120	0.105066	-0.958718	-0.960002	0.025140	36.8262	-0.959230	-6.404615E+12	-3.925219E-15	NaN
216	1.000000	0.114343	7.36716e+06	-49439.1	955.818	-29759.4	0.000000	0.000000	6.114761	0.065623	NaN	0.000000	0.001623	0.001726	28.0792	0.124943	0.001855	67.3454	-160.253	-165.728	-0.000238	0.113057	-0.950725	-0.952011	0.065623	67.3454	-0.951455	-5.031022E+12	-1.304367E-14	NaN
216	1.000000	0.122352	7.36716e+06	-49439.1	955.819	-29759.4	0.000000	0.000000	6.122771	0.081203	NaN	0.000000	0.001657	0.001703	28.0791	0.129358	0.002085	62.0312	23.0587	-164.821	0.037567	0.121061	-0.942716	-0.944007	0.081203	62.0312	-0.943697	-3.953818E+12	-2.053798E-14	NaN
216	1.000000	0.130357	7.36716e+06	-49439.1	955.818	-29759.4	0.000000	0.000000	6.130771	-0.008123	NaN	0.000000	0.001656	0.001716	28.079	0.067743	0.002092	32.388	165.924	-162.147	0.078363	0.129043	-0.934711	-0.936025	-0.008123	32.388	-0.934523	-2.973288E+12	2.731981E-15	NaN
216	1.000000	0.138364	7.36716e+06	-49439.1	955.819	-29759.4	0.000000	0.000000	6.138779	0.002324	NaN	0.000000	0.001646	0.001741	28.0791	0.020722	0.002003	10.3467	97.6965	-163.088	-0.030266	0.137030	-0.926704	-0.928038	0.002324	10.3467	-0.926872	-2.344113E+12	-9.914194E-16	NaN
216	1.000000	0.146352	7.36716e+06	-49439.1	955.818	-29759.4	0.000000	0.000000	6.146768	0.006330	NaN	0.000000	0.001657	0.001722	28.0789	0.016885	0.002028	8.324678	165.5	-163.129	-0.012633	0.145097	-0.918716	-0.919971	0.006330	8.324678	-0.919286	-1.851674E+12	-3.418449E-15	NaN
216	1.000000	0.154371	7.36716e+06	-49439.1	955.818	-29759.4	0.000000	0.000000	6.154789	0.083667	NaN	0.000000	0.001646	0.001787	28.0791	0.063886	0.002028	31.4996	-1.418667	-163.973	0.040687	0.153070	-0.910697	-0.911998	0.083667	31.4996	-0.912689	-1.508280E+12	-5.547178E-14	NaN
216	1.000000	0.162371	7.36716e+06	-49439.1	955.818	-29759.4	0.000000	0.000000	6.162786	0.004479	NaN	0.000000	0.001647	0.001734	28.0792	0.028029	0.002116	13.245	-3.272494	-167.538	0.094197	0.161060	-0.902697	-0.904008	0.004479	13.245	-0.902951	-1.114135E+12	-4.019722E-15	NaN
216	1.000000	0.170397	7.36716e+06	-49439.1	955.818	-29759.4	0.000000	0.000000	6.170812	-0.009742	NaN	0.000000	0.001665	0.001778	28.079	0.140066	0.002056	68.1415	-76.6992	-165.444	-0.020167	0.169023	-0.894671	-0.896045	-0.009742	68.1415	-0.894564	-8.582269E+11	1.135138E-14	NaN
216	1.000000	0.178390	7.36716e+06	-49439.1	955.819	-29759.4	0.000000	0.000000	6.178803	-0.065952	NaN	0.000000	0.001700	0.001717	28.0792	0.080673	0.001947	41.4338	-71.3452	-163.678	-0.032730	0.177103	-0.886678	-0.887965	-0.065952	41.4338	-0.885484	-6.469327E+11	1.019458E-13	NaN
216	1.000000	0.186407	7.36716e+06	-49439.1	955.818	-29759.4	0.000000	0.000000	6.186823	0.011575	NaN	0.000000	0.001690	0.001745	28.079	0.118140	0.001983	59.5749	111.01	-164.022	0.042096	0.185065	-0.878661	-0.880003	0.011575	59.5749	-0.878806	-5.254924E+11	-2.202763E-14	NaN
216	1.000000	0.194381	7.36716e+06	-49439.1	955.817	-29759.4	0.000000	0.000000	6.194797	0.038544	NaN	0.000000	0.001679	0.001737	28.0792	0.097086	0.001922	50.5197	-169.906	-167.436	0.040478	0.193054	-0.870687	-0.872014	0.038544	50.5197	-0.871259	-4.154133E+11	-9.278562E-14	NaN
216	1.000000	0.202363	7.36716e+06	-49439.1	955.818	-29759.4	0.000000	0.000000	6.202782	0.076372	NaN	0.000000	0.001651	0.001721	28.0793	0.077392	0.002092	36.9982	152.552	-165.791	-0.015502	0.201075	-0.862705	-0.863993	0.076372	36.9982	-0.864253	-3.339469E+11	-2.286965E-13	NaN
216	1.000000	0.210381	7.36716e+06	-49439.1	955.818	-29759.4	0.000000	0.000000	6.210797	0.028750	NaN	0.000000	0.001642	0.001730	28.0791	0.107636	0.001942	55.4184	101.703	-161.836	0.129021	0.209070	-0.854687	-0.855998	0.028750	55.4184	-0.855076	-2.508776E+11	-1.145975E-13	NaN
216	1.000000	0.218422	7.36716e+06	-49439.1	955.819	-29759.4	0.000000	0.000000	6.218840	0.057758	NaN	0.000000	0.001676	0.001735	28.0791	0.033438	0.001880	17.7859	-75.0138	-162.86	-0.019780	0.217088	-0.846646	-0.847980	0.057758	17.7859	-0.849081	-2.081120E+11	-2.775354E-13	NaN
216	1.000000	0.226436	7.36716e+06	-49439.1	955.818	-29759.4	0.000000	0.000000	6.226850	-0.001937	NaN	0.000000	0.001667	0.001713	28.0793	0.032495	0.002126	15.2868	174.901	-161.753	0.005328	0.225101	-0.838632	-0.839967	-0.001937	15.2868	-0.838537	-1.497879E+11	1.292866E-14	NaN
216	1.000000	0.234411	7.36716e+06	-49439.1	955.819	-29759.4	0.000000	0.000000	6.234828	0.043983	NaN	0.000000	0.001645	0.001730	28.0794	0.069457	0.002111	32.9022	-129.852	-165.441	0.118901	0.233159	-0.830657	-0.831909	0.043983	32.9022	-0.831659	-1.208577E+11	-3.639262E-13	NaN
216	1.000000	0.242422	7.36716e+06	-49439.1	955.817	-29759.4	0.000000	0.000000	6.242839	0.024324	NaN	0.000000	0.001619	0.001751	28.0792	0.012250	0.001855	6.602624	4.968339	-165.787	0.092509	0.241124	-0.822645	-0.823944	0.024324	6.602624	-0.825408	-9.943594E+10	-2.446216E-13	NaN
216	1.000000	0.250442	7.36716e+06	-49439.1	955.818	-29759.4	0.000000	0.000000	6.250858	0.016958	NaN	0.000000	0.001641	0.001730	28.0805	0.090537	0.001904	47.5487	157.823	-161.187	-0.005575	0.249104	-0.814626	-0.815964	0.016958	47.5487	-0.814893	-7.160629E+10	-2.368206E-13	NaN
216	1.000000	0.258417	7.36716e+06	-49439.1	955.818	-29759.4	0.000000	0.000000	6.258833	0.017117	NaN	0.000000	0.001647	0.001735	28.0802	0.139048	0.002063	67.3863	-152.542	-166.363	0.055947	0.257150	-0.806651	-0.807917	0.017117	67.3863	-0.806841	-5.568186E+10	-3.074055E-13	NaN
216	1.000000	0.266414	7.36716e+06	-49439.1	955.819	-29759.4	0.000000	0.000000	6.266832	0.078034	NaN	0.000000	0.001641	0.001756	28.0805	0.056619	0.002027	27.9263	115.371	-164.444	0.112659	0.265128	-0.798654	-0.799940	0.078034	27.9263	-0.800749	-4.602952E+10	-1.695313E-12	NaN
216	1.000000	0.274418	7.36716e+06	-49439.1	955.819	-29759.4	0.000000	0.000000	6.274836	0.066603	NaN	0.000000	0.001630	0.001753	28.0807	0.005590	0.001939	2.882237	13.1374	-163.017	0.044099	0.273083	-0.790650	-0.791984	0.066603	2.882237	-0.807981	-5.770072E+10	-1.154291E-12	NaN
216	1.000000	0.282444	7.36716e+06	-49439.1	955.818	-29759.4	0.000000	0.000000	6.282862	0.066316	NaN	0.000000	0.001630	0.001764	28.0804	0.031561	0.002003	15.7571	171.717	-162.717	0.084258	0.281104	-0.782624	-0.783964	0.066316	15.7571	-0.785781	-2.882508E+10	-2.300649E-12	NaN
216	1.000000	0.290443	7.36716e+06	-49439.1	955.818	-29759.4	0.000000	0.000000	6.290862	0.094400	NaN	0.000000	0.001644	0.001758	28.0805	0.062734	0.002003	31.3133	98.3773	-164.377	0.087700	0.289141	-0.774625	-0.775927	0.094400	31.3133	-0.776886	-2.182274E+10	-4.325771E-12	NaN
216	1.000000	0.298441	7.36716e+06	-49439.1	955.818	-29759.4	0.000000	0.000000	6.298860	0.101438	NaN	0.000000	0.001705	0.001757	28.0803	0.130875	0.002072	63.1571	158.419	-162.611	0.092700	0.297132	-0.766627	-0.767936	0.101438	63.1571	-0.767832	-1.643708E+10	-6.171279E-12	NaN
216	1.000000	0.306438	7.36716e+06	-49439.1	955.819	-29759.4	0.000000	0.000000	6.306853	0.000282	NaN	0.000000	0.001661	0.001717	28.0803	0.072980	0.002019	36.145	174.859	-161.272	0.027543	0.305124	-0.758630	-0.759944	0.000282	36.145	-0.758635	-1.232361E+10	-2.291601E-14	NaN
216	1.000000	0.314463	7.36716e+06	-49439.1	955.818	-29759.4	0.000000	0.000000	6.314882	0.111004	NaN	0.000000	0.001629	0.001729	28.0802	0.010696	0.001998	5.354578	157.555	-167.964	0.053540	0.313209	-0.750605	-0.751859	0.111004	5.354578	-0.766153	-1.559537E+10	-7.117755E-12	NaN
216	1.000000	0.322444	7.36716e+06	-49439.1	955.818	-29759.4	0.000000	0.000000	6.322864	0.138345	NaN	0.000000	0.001684	0.001718	28.0803	0.041229	0.001950	21.1424	-66.3869	-163.475	0.163392	0.321168	-0.742624	-0.743899	0.138345	21.1424	-0.747532	-8.702046E+9	-1.589800E-11	NaN
216	1.000000	0.330483	7.36716e+06	-49439.1	955.818	-29759.4	0.000000	0.000000	6.330896	-0.046760	NaN	0.000000	0.001640	0.001708	28.0803	0.046479	0.002010	23.128	-50.1058	-164.047	0.013973	0.329159	-0.734585	-0.735909	-0.046760	23.128	-0.733069	-5.528776E+9	8.457544E-12	NaN
216	1.000000	0.338457	7.36716e+06	-49439.1	955.818	-29759.4	0.000000	0.000000	6.338873	0.036876	NaN	0.000000	0.001660	0.001746	28.0802	0.042028	0.002008	20.9348	113.922	-164.1	0.020450	0.337128	-0.726611	-0.727940	0.036876	20.9348	-0.727932	-4.705722E+9	-7.836397E-12	NaN
216	1.000000	0.346446	7.36716e+06	-49439.1	955.819	-29759.4	0.000000	0.000000	6.346860	-0.016651	NaN	0.000000	0.001650	0.001730	28.0816	0.099216	0.001970	50.3707	126.648	-167.766	-0.041779	0.345115	-0.718622	-0.719953	-0.016651	50.3707	-0.718374	-3.485754E+9	4.776770E-12	NaN
216	1.000000	0.354452	7.36716e+06	-49439.1	955.818	-29759.4	0.000000	0.000000	6.354867	-0.001674	NaN	0.000000	0.001696	0.001733	28.0804	0.005683	0.002043	2.782174	-177.219	-166.992	0.058148	0.353140	-0.710616	-0.711928	-0.001674	2.782174	-0.710165	-2.693411E+9	6.213472E-13	NaN
216	1.000000	0.362440	7.36716e+06	-49439.1	955.818	-29759.4	0.000000	0.000000	6.362856	0.025707	NaN	0.000000	0.001654	0.001745	28.0805	0.053523	0.002082	25.7058	-169.232	-167.199	0.016267	0.361216	-0.702628	-0.703852	0.025707	25.7058	-0.703378	-2.175979E+9	-1.181399E-11	NaN
216	1.000000	0.370446	7.36716e+06	-49439.1	955.818	-29759.4	0.000000	0.000000	6.370860	-0.010572	NaN	0.000000	0.001650	0.001703	28.0806	0.086163	0.002007	42.9337	62.3835	-166.023	-0.042023	0.369134	-0.694622	-0.695934	-0.010572	42.9337	-0.694437	-1.642668E+9	6.435600E-12	NaN
216	1.000000	0.378437	7.36716e+06	-49439.1	955.818	-29759.4	0.000000	0.000000	6.378854	0.039090	NaN	0.000000	0.001661	0.001726	28.0805	0.054996	0.002029	27.1002	-46.1654	-164.438	0.020050	0.377202	-0.686631	-0.687866	0.039090	27.1002	-0.687713	-1.329408E+9	-2.940432E-11	NaN
216	1.000000	0.386483	7.36716e+06	-49439.1	955.819	-29759.4	0.000000	0.000000	6.386898	-0.008578	NaN	0.000000	0.001666	0.001712	28.0794	0.089185	0.002039	43.7423	122.718	-163.622	0.025479	0.385208	-0.678585	-0.679860	-0.008578	43.7423	-0.678437	-9.927379E+8	8.640649E-12	NaN
216	1.000000	0.394461	7.36716e+06	-49439.1	955.819	-29759.4	0.000000	0.000000	6.394878	0.048243	NaN	0.000000	0.001632	0.001720	28.0792	0.024641	0.001983	12.4273	-72.4918	-164.787	0.030799	0.393185	-0.670607	-0.671883	0.048243	12.4273	-0.673518	-8.502319E+8	-5.674153E-11	NaN
216	1.000000	0.402481	7.36716e+06	-49439.1	955.819	-29759.4	0.000000	0.000000	6.402895	-0.032223	NaN	0.000000	0.001612	0.001739	28.0793	0.075681	0.002120	35.7027	113.562	-163.459	-0.110048	0.401181	-0.662587	-0.663887	-0.032223	35.7027	-0.661910	-5.896982E+8	5.464313E-11	NaN
216	1.000000	0.410478	7.36716e+06	-49439.1	955.818	-29759.4	0.000000	0.000000	6.410895	0.056912	NaN	0.000000	0.001630	0.001762	28.0794	0.123795	0.002110	58.6628	-168.084	-162.22	0.020223	0.409207	-0.654590	-0.655861	0.056912	58.6628	-0.655318	-4.789845E+8	-1.188189E-10	NaN
216	1.000000	0.418485	7.36716e+06	-49439.1	955.819	-29759.4	0.000000	0.000000	6.418903	0.062992	NaN	0.000000	0.001610	0.001793	28.0793	0.088008	0.001905	46.1975	-7.290862	-162.895	0.057520	0.417157	-0.646583	-0.647911	0.062992	46.1975	-0.647605	-3.754953E+8	-1.677564E-10	NaN
216	1.000000	0.426477	7.36716e+06	-49439.1	955.817	-29759.4	0.000000	0.000000	6.426892	0.012989	NaN	0.000000	0.001672	0.001695	28.0794	0.042845	0.002007	21.3493	6.703851	-165.332	-0.013472	0.425158	-0.638591	-0.639910	0.012989	21.3493	-0.639048	-2.865640E+8	-4.532507E-11	NaN
216	1.000000	0.434472	7.36716e+06	-49439.1	955.819	-29759.4	0.000000	0.000000	6.434888	0.030989	NaN	0.000000	0.001665	0.001711	28.0793	0.095171	0.002041	46.6252	-143.96	-164.707	-0.036882	0.433204	-0.630596	-0.631864	0.030989	46.6252	-0.631095	-2.228731E+8	-1.390439E-10	NaN
216	1.000000	0.442508	7.36716e+06	-49439.1	955.819	-29759.4	0.000000	0.000000	6.442923	0.001631	NaN	0.000000	0.001635	0.001735	28.0793	0.052865	0.001995	26.4933	-141.183	-163.148	0.037389	0.441232	-0.622560	-0.623836	0.001631	26.4933	-0.622606	-1.703910E+8	-9.569859E-12	NaN
216	1.000000	0.450476	7.36716e+06	-49439.1	955.818	-29759.4	0.000000	0.000000	6.450893	0.038805	NaN	0.000000	0.001624	0.001777	28.0794	0.104879	0.002067	50.7325	76.5754	-160.434	0.023055	0.449204	-0.614592	-0.615864	0.038805	50.7325	-0.615165	-1.346363E+8	-2.882198E-10	NaN
216	1.000000	0.458507	7.36716e+06	-49439.1	955.818	-29759.4	0.000000	0.000000	6.458924	0.061278	NaN	0.000000	0.001684	0.001754	28.0794	0.054743	0.002069	26.4552	82.4293	-166.43	0.047890	0.457222	-0.606561	-0.607846	0.061278	26.4552	-0.608298	-1.083172E+8	-5.657242E-10	NaN
216	1.000000	0.466509	7.36716e+06	-49439.1	955.818	-29759.4	0.000000	0.000000	6.466922	-0.053140	NaN	0.000000	0.001647	0.001744	28.0796	0.019297	0.002044	9.439237	-142.535	-164.152	-0.040176	0.465190	-0.598559	-0.599878	-0.053140	9.439237	-0.594336	-6.957204E+7	7.638157E-10	NaN
216	1.000000	0.474526	7.36716e+06	-49439.1	955.819	-29759.4	0.000000	0.000000	6.474942	0.041687	NaN	0.000000	0.001679	0.001741	28.0793	0.023202	0.001929	12.0278	25.4433	-162.311	-0.005228	0.473214	-0.590542	-0.591854	0.041687	12.0278	-0.593142	-6.698429E+7	-6.223466E-10	NaN
216	1.000000	0.482487	7.36716e+06	-49439.1	955.818	-29759.4	0.000000	0.000000	6.482903	0.031959	NaN	0.000000	0.001684	0.001753	28.0794	0.101828	0.002173	46.8512	-86.9304	-165.68	0.131993	0.481247	-0.582581	-0.583821	0.031959	46.8512	-0.583093	-4.868586E+7	-6.564386E-10	NaN
216	1.000000	0.490532	7.36716e+06	-49439.1	955.819	-29759.4	0.000000	0.000000	6.490950	0.069737	NaN	0.000000	0.001683	0.001729	28.0795	0.066328	0.001993	33.2738	-10.9311	-165.015	-0.008295	0.489162	-0.574536	-0.575906	0.069737	33.2738	-0.576108	-3.899405E+7	-1.788411E-9	NaN
216	1.000000	0.498554	7.36716e+06	-49439.1	955.818	-29759.4	0.000000	0.000000	6.498971	0.055870	NaN	0.000000	0.001666	0.001736	28.0794	0.091475	0.002024	45.2056	108.887	-165.878	0.045186	0.497196	-0.566514	-0.567872	0.055870	45.2056	-0.567441	-2.959855E+7	-1.887585E-9	NaN
216	1.000000	0.506549	7.36716e+06	-49439.1	955.819	-29759.4	0.000000	0.000000	6.506965	0.033296	NaN	0.000000	0.001676	0.001791	28.0796	0.160225	0.002052	78.0641	1.096944	-162.337	0.082112	0.505218	-0.558519	-0.559850	0.033296	78.0641	-0.558839	-2.250694E+7	-1.479356E-9	NaN
216	1.000000	0.514537	7.36716e+06	-49439.1	955.819	-29759.4	0.000000	0.000000	6.514951	-0.014505	NaN	0.000000	0.001666	0.001781	28.0793	0.042590	0.002038	20.8981	149.432	-163.951	-0.040980	0.513228	-0.550531	-0.551840	-0.014505	20.8981	-0.550011	-1.698643E+7	8.539311E-10	NaN
216	1.000000	0.522541	7.36716e+06	-49439.1	955.818	-29759.4	0.000000	0.000000	6.522959	0.065532	NaN	0.000000	0.001656	0.001677	28.0807	0.119580	0.002100	56.9329	39.5475	-166.797	0.030101	0.521195	-0.542526	-0.543873	0.065532	56.9329	-0.543390	-1.375176E+7	-4.765341E-9	NaN
216	1.000000	0.530536	7.36716e+06	-49439.1	955.818	-29759.4	0.000000	0.000000	6.530953	0.058287	NaN	0.000000	0.001646	0.001708	28.0807	0.070901	0.002093	33.8719	64.6978	-168.111	0.017643	0.529248	-0.534532	-0.535820	0.058287	33.8719	-0.535823	-1.079962E+7	-5.397109E-9	NaN
216	1.000000	0.538543	7.36716e+06	-49439.1	955.819	-29759.4	0.000000	0.000000	6.538958	-0.004244	NaN	0.000000	0.001650	0.001726	28.0809	0.055151	0.002038	27.0591	-12.0808	-167.283	0.008639	0.537253	-0.526525	-0.527815	-0.004244	27.0591	-0.526407	-7.99219e+06	5.310298E-10	NaN
216	1.000000	0.546562	7.36716e+06	-49439.1	955.818	-29759.4	0.000000	0.000000	6.546979	0.058170	NaN	0.000000	0.001659	0.001734	28.0807	0.039720	0.002065	19.2347	-17.0177	-165.824	0.006394	0.545253	-0.518506	-0.519814	0.058170	19.2347	-0.520774	-6.67372e+06	-8.716233E-9	NaN
216	1.000000	0.554573	7.36716e+06	-49439.1	955.818	-29759.4	0.000000	0.000000	6.554989	0.030541	NaN	0.000000	0.001652	0.001734	28.0806	0.074318	0.002036	36.4968	-177.057	-161.869	0.075273	0.553201	-0.510495	-0.511867	0.030541	36.4968	-0.511123	-4.8984e+06	-6.234820E-9	NaN
216	1.000000	0.562561	7.36716e+06	-49439.1	955.819	-29759.4	0.000000	0.000000	6.562978	0.047669	NaN	0.000000	0.001647	0.001739	28.0804	0.044651	0.001986	22.48	-12.2073	-166.101	0.055221	0.561206	-0.502507	-0.503862	0.047669	22.48	-0.504097	-3.90983e+06	-1.219210E-8	NaN
216	1.000000	0.570591	7.36716e+06	-49439.1	955.818	-29759.4	0.000000	0.000000	6.571008	0.053821	NaN	0.000000	0.001676	0.001749	28.0804	0.079143	0.002171	36.4562	-68.8147	-166.298	0.133842	0.569284	-0.494477	-0.495784	0.053821	36.4562	-0.495584	-2.97437e+06	-1.809492E-8	NaN
216	1.000000	0.578574	7.36716e+06	-49439.1	955.818	-29759.4	0.000000	0.000000	6.578988	-0.042799	NaN	0.000000	0.001666	0.001753	28.0805	0.082747	0.001948	42.4781	70.0994	-163.392	-0.041305	0.577262	-0.486493	-0.487806	-0.042799	42.4781	-0.485738	-2.16675e+06	1.975243E-8	NaN
216	1.000000	0.586554	7.36716e+06	-49439.1	955.818	-29759.4	0.000000	0.000000	6.586971	0.035113	NaN	0.000000	0.001702	0.001744	28.0806	0.059208	0.002063	28.702	-1.784239	-164.965	0.034907	0.585347	-0.478514	-0.479721	0.035113	28.702	-0.479431	-1.76833e+06	-1.985669E-8	NaN
216	1.000000	0.594593	7.36716e+06	-49439.1	955.818	-29759.4	0.000000	0.000000	6.595009	0.020338	NaN	0.000000	0.001704	0.001736	28.0808	0.023274	0.002023	11.5055	128.747	-163.413	0.007077	0.593256	-0.470474	-0.471812	0.020338	11.5055	-0.471800	-1.38246e+06	-1.471166E-8	NaN
216	1.000000	0.602559	7.36716e+06	-49439.1	955.818	-29759.4	0.000000	0.000000	6.602975	0.039650	NaN	0.000000	0.001660	0.001708	28.0804	0.081583	0.002186	37.3206	-20.2016	-165.126	0.028347	0.601253	-0.462509	-0.463815	0.039650	37.3206	-0.463306	-1.05066e+06	-3.773851E-8	NaN
216	1.000000	0.610549	7.36716e+06	-49439.1	955.818	-29759.4	0.000000	0.000000	6.610965	0.021135	NaN	0.000000	0.001684	0.001734	28.0804	0.070853	0.002130	33.2636	-139.168	-165.453	0.016303	0.609266	-0.454519	-0.455802	0.021135	33.2636	-0.454995	-802876	-2.632373E-8	NaN
216	1.000000	0.618571	7.36716e+06	-49439.1	955.819	-29759.4	0.000000	0.000000	6.618986	0.013838	NaN	0.000000	0.001701	0.001750	28.0804	0.055935	0.001944	28.767	-143.13	-166.456	0.081534	0.617202	-0.446497	-0.447866	0.013838	28.767	-0.446858	-616711	-2.243864E-8	NaN
216	1.000000	0.626558	7.36716e+06	-49439.1	955.819	-29759.4	0.000000	0.000000	6.626975	0.026072	NaN	0.000000	0.001714	0.001772	28.0806	0.026362	0.001813	14.5432	-40.477	-165.993	0.098731	0.625252	-0.438509	-0.439816	0.026072	14.5432	-0.439854	-491250	-5.307213E-8	NaN
216	1.000000	0.634544	7.36716e+06	-49439.1	955.817	-29759.4	0.000000	0.000000	6.634960	0.015640	NaN	0.000000	0.001743	0.001703	28.0803	0.132445	0.001897	69.8193	-121.354	-166.288	0.055634	0.633230	-0.430524	-0.431838	0.015640	69.8193	-0.430692	-364629	-4.289184E-8	NaN
216	1.000000	0.642572	7.36716e+06	-49439.1	955.818	-29759.4	0.000000	0.000000	6.642988	0.010266	NaN	0.000000	0.001763	0.001690	28.0805	0.096985	0.002035	47.6479	163.006	-173.301	0.118818	0.641315	-0.422495	-0.423753	0.010266	47.6479	-0.422657	-280598	-3.658585E-8	NaN
216	1.000000	0.650564	7.36716e+06	-49439.1	955.818	-29759.4	0.000000	0.000000	6.650982	0.070063	NaN	0.000000	0.001772	0.001739	28.0807	0.025272	0.002002	12.6222	122.5	-167.213	0.086334	0.649266	-0.414503	-0.415802	0.070063	12.6222	-0.418666	-246319	-2.844388E-7	NaN
216	1.000000	0.658568	7.36716e+06	-49439.1	955.818	-29759.4	0.000000	0.000000	6.658983	-0.003184	NaN	0.000000	0.001722	0.001725	28.0793	0.049295	0.002014	24.4789	97.5236	-164.396	0.045288	0.657280	-0.406500	-0.407787	-0.003184	24.4789	-0.406402	-164896	1.930696E-8	NaN
216	1.000000	0.666567	7.36716e+06	-49439.1	955.819	-29759.4	0.000000	0.000000	6.666983	0.021445	NaN	0.000000	0.001719	0.001724	28.0795	0.067246	0.001906	35.2727	147.101	-165.918	0.047981	0.665257	-0.398501	-0.399811	0.021445	35.2727	-0.398956	-129155	-1.660408E-7	NaN
216	1.000000	0.674610	7.36716e+06	-49439.1	955.817	-29759.4	0.000000	0.000000	6.675027	0.041149	NaN	0.000000	0.001702	0.001704	28.0795	0.042057	0.001918	21.9294	-41.6182	-165.435	0.014282	0.673264	-0.390458	-0.391804	0.041149	21.9294	-0.391865	-102292	-4.022699E-7	NaN
216	1.000000	0.682588	7.36716e+06	-49439.1	955.818	-29759.4	0.000000	0.000000	6.683003	-0.024136	NaN	0.000000	0.001704	0.001720	28.0796	0.094721	0.002115	44.7824	-126.158	-161.012	-0.027521	0.681275	-0.382479	-0.383793	-0.024136	44.7824	-0.382075	-74073	3.258439E-7	NaN
216	1.000000	0.690634	7.36716e+06	-49439.1	955.819	-29759.4	0.000000	0.000000	6.691051	0.047474	NaN	0.000000	0.001649	0.001733	28.0795	0.072056	0.001972	36.5422	83.0693	-163.048	0.055527	0.689273	-0.374434	-0.375795	0.047474	36.5422	-0.375408	-59420.5	-7.989443E-7	NaN
216	1.000000	0.698597	7.36716e+06	-49439.1	955.819	-29759.4	0.000000	0.000000	6.699016	0.080199	NaN	0.000000	0.001708	0.001731	28.0794	0.044020	0.001973	22.3057	37.0521	-164.094	0.094129	0.697301	-0.366471	-0.367766	0.080199	22.3057	-0.369167	-48320.7	-1.659715E-6	NaN
216	1.000000	0.706618	7.36716e+06	-49439.1	955.818	-29759.4	0.000000	0.000000	6.707033	0.002803	NaN	0.000000	0.001687	0.001709	28.0792	0.058940	0.002091	28.1873	-29.4377	-165.965	0.022992	0.705270	-0.358450	-0.359798	0.002803	28.1873	-0.358525	-33924.4	-8.262472E-8	NaN
216	1.000000	0.714608	7.36716e+06	-49439.1	955.819	-29759.4	0.000000	0.000000	6.715024	0.042617	NaN	0.000000	0.001697	0.001701	28.0794	0.032907	0.002130	15.4509	131.215	-160.861	-0.028492	0.713276	-0.350460	-0.351792	0.042617	15.4509	-0.352529	-27777.1	-1.534235E-6	NaN
216	1.000000	0.722617	7.36716e+06	-49439.1	955.818	-29759.4	0.000000	0.000000	6.723034	0.044882	NaN	0.000000	0.001680	0.001674	28.0794	0.029195	0.002038	14.3267	105.299	-166.425	0.065902	0.721270	-0.342451	-0.343798	0.044882	14.3267	-0.344800	-21451.2	-2.092282E-6	NaN
216	1.000000	0.730621	7.36716e+06	-49439.1	955.819	-29759.4	0.000000	0.000000	6.731041	0.114359	NaN	0.000000	0.001674	0.001685	28.0793	0.046822	0.002096	22.3367	154.854	-167.528	0.111093	0.729337	-0.334447	-0.335731	0.114359	22.3367	-0.338287	-17241.2	-6.632867E-6	NaN
216	1.000000	0.738621	7.36716e+06	-49439.1	955.818	-29759.4	0.000000	0.000000	6.739039	0.071032	NaN	0.000000	0.001673	0.001706	28.0795	0.107830	0.002041	52.8299	-108.51	-165.227	0.125911	0.737290	-0.326446	-0.327778	0.071032	52.8299	-0.327455	-11971.7	-5.933307E-6	NaN
216	1.000000	0.746635	7.36716e+06	-49439.1	955.817	-29759.4	0.000000	0.000000	6.747053	0.059503	NaN	0.000000	0.001677	0.001662	28.0795	0.066002	0.001944	33.957	-75.573	-161.485	0.082345	0.745308	-0.318432	-0.319760	0.059503	33.957	-0.319747	-9223.8	-6.451083E-6	NaN
216	1.000000	0.754629	7.36716e+06	-49439.1	955.818	-29759.4	0.000000	0.000000	6.755045	0.017169	NaN	0.000000	0.001657	0.001682	28.0797	0.053579	0.001987	26.9598	169.492	-163.481	0.007636	0.753320	-0.310439	-0.311748	0.017169	26.9598	-0.310917	-6833.09	-2.512606E-6	NaN
216	1.000000	0.762587	7.36716e+06	-49439.1	955.818	-29759.4	0.000000	0.000000	6.763003	0.029857	NaN	0.000000	0.001673	0.001662	28.0797	0.044556	0.002058	21.6516	-121.505	-165.592	0.062014	0.761326	-0.302481	-0.303742	0.029857	21.6516	-0.303515	-5307.75	-5.625191E-6	NaN
216	1.000000	0.770624	7.36716e+06	-49439.1	955.819	-29759.4	0.000000	0.000000	6.771042	0.069010	NaN	0.000000	0.001716	0.001693	28.0795	0.113482	0.001896	59.8665	123.726	-167.28	0.078732	0.769327	-0.294444	-0.295741	0.069010	59.8665	-0.295309	-4005.89	-1.722724E-5	NaN
216	1.000000	0.778631	7.36716e+06	-49439.1	955.818	-29759.4	0.000000	0.000000	6.779048	0.051259	NaN	0.000000	0.001708	0.001694	28.0795	0.113210	0.002062	54.8985	-143.922	-163.799	0.012023	0.777322	-0.286437	-0.287746	0.051259	54.8985	-0.287137	-3022.51	-1.695893E-5	NaN
216	1.000000	0.786614	7.36716e+06	-49439.1	955.819	-29759.4	0.000000	0.000000	6.787030	0.005675	NaN	0.000000	0.001710	0.001674	28.0797	0.133680	0.002011	66.4776	-156.121	-161.275	0.112588	0.785299	-0.278453	-0.279768	0.005675	66.4776	-0.278517	-2241.77	-2.531304E-6	NaN
216	1.000000	0.794655	7.36716e+06	-49439.1	955.818	-29759.4	0.000000	0.000000	6.795073	0.067793	NaN	0.000000	0.001726	0.001640	28.0808	0.058723	0.001949	30.1324	-3.645846	-167.744	0.093542	0.793359	-0.270413	-0.271708	0.067793	30.1324	-0.272100	-1792.43	-3.782186E-5	NaN
216	1.000000	0.802684	7.36716e+06	-49439.1	955.818	-29759.4	0.000000	0.000000	6.803099	0.001101	NaN	0.000000	0.001696	0.001689	28.0809	0.096124	0.002033	47.2874	-85.3546	-165.675	0.016415	0.801358	-0.262384	-0.263710	0.001101	47.2874	-0.262401	-1275.5	-8.629039E-7	NaN
216	1.000000	0.810643	7.36716e+06	-49439.1	955.819	-29759.4	0.000000	0.000000	6.811060	0.064002	NaN	0.000000	0.001692	0.001660	28.0808	0.090777	0.001987	45.6934	-87.2663	-165.406	0.084236	0.809339	-0.254425	-0.255729	0.064002	45.6934	-0.255476	-998.709	-6.408523E-5	NaN
216	1.000000	0.818642	7.36716e+06	-49439.1	955.819	-29759.4	0.000000	0.000000	6.819058	0.032226	NaN	0.000000	0.001697	0.001665	28.081	0.093269	0.001956	47.684	50.3701	-164.217	0.070915	0.817366	-0.246426	-0.247702	0.032226	47.684	-0.246933	-736.985	-4.372652E-5	NaN
216	1.000000	0.826652	7.36716e+06	-49439.1	955.818	-29759.4	0.000000	0.000000	6.827068	0.026975	NaN	0.000000	0.001698	0.001669	28.0808	0.092866	0.001993	46.596	-155.394	-164.532	0.005155	0.825331	-0.238416	-0.239737	0.026975	46.596	-0.238850	-551.549	-4.890833E-5	NaN
216	1.000000	0.834656	7.36716e+06	-49439.1	955.82	-29759.4	0.000000	0.000000	6.835072	0.019309	NaN	0.000000	0.001706	0.001687	28.0809	0.060845	0.001976	30.7909	-145.352	-164.121	0.080519	0.833346	-0.230412	-0.231722	0.019309	30.7909	-0.230882	-413.464	-4.670120E-5	NaN
216	1.000000	0.842668	7.36716e+06	-49439.1	955.818	-29759.4	0.000000	0.000000	6.843086	0.081087	NaN	0.000000	0.001711	0.001639	28.081	0.027894	0.002063	13.5221	83.1992	-166.085	0.059307	0.841374	-0.222400	-0.223694	0.081087	13.5221	-0.226897	-357.633	-0.000227	NaN
216	1.000000	0.850660	7.36716e+06	-49439.1	955.819	-29759.4	0.000000	0.000000	6.851074	-0.008097	NaN	0.000000	0.001696	0.001657	28.0807	0.050723	0.002006	25.281	-159.054	-163.083	0.040938	0.849400	-0.214408	-0.215668	-0.008097	25.281	-0.214168	-223.936	3.615873E-5	NaN
216	1.000000	0.858686	7.36716e+06	-49439.1	955.818	-29759.4	0.000000	0.000000	6.859104	0.062949	NaN	0.000000	0.001702	0.001685	28.081	0.076449	0.002049	37.3021	149.478	-162.491	-0.025155	0.857377	-0.206382	-0.207690	0.062949	37.3021	-0.207647	-175.654	-0.000358	NaN
216	1.000000	0.866647	7.36716e+06	-49439.1	955.817	-29759.4	0.000000	0.000000	6.867064	0.051806	NaN	0.000000	0.001670	0.001668	28.0808	0.076688	0.002013	38.0999	26.128	-167.05	0.105236	0.865337	-0.198421	-0.199731	0.051806	38.0999	-0.199441	-128.974	-0.000402	NaN
216	1.000000	0.874697	7.36716e+06	-49439.1	955.818	-29759.4	0.000000	0.000000	6.875114	0.048154	NaN	0.000000	0.001690	0.001713	28.0808	0.030835	0.001937	15.921	-86.4655	-167.731	0.131040	0.873339	-0.190370	-0.191729	0.048154	15.921	-0.192639	-99.5434	-0.000484	NaN
216	1.000000	0.882702	7.36716e+06	-49439.1	955.819	-29759.4	0.000000	0.000000	6.883120	0.065845	NaN	0.000000	0.001728	0.001681	28.0807	0.121719	0.002062	59.0303	127.385	-163.501	0.002107	0.881363	-0.182366	-0.183705	0.065845	59.0303	-0.183202	-69.1486	-0.000952	NaN
216	1.000000	0.890685	7.36716e+06	-49439.1	955.818	-29759.4	0.000000	0.000000	6.891103	0.059170	NaN	0.000000	0.001748	0.001681	28.0807	0.074003	0.002004	36.924	39.3606	-163.278	-0.002597	0.889368	-0.174382	-0.175700	0.059170	36.924	-0.175584	-51.2877	-0.001154	NaN
216	1.000000	0.898717	7.36716e+06	-49439.1	955.818	-29759.4	0.000000	0.000000	6.899134	0.045524	NaN	0.000000	0.001756	0.001665	28.0813	0.055901	0.002004	27.8923	143.184	-165.082	0.011533	0.897374	-0.166351	-0.167694	0.045524	27.8923	-0.167575	-37.2722	-0.001221	NaN
216	1.000000	0.906688	7.36716e+06	-49439.1	955.819	-29759.4	0.000000	0.000000	6.907108	0.127428	NaN	0.000000	0.001738	0.001698	28.0807	0.113048	0.001942	58.2236	33.016	-169.462	0.150286	0.905383	-0.158380	-0.159684	0.127428	58.2236	-0.160021	-27.4388	-0.004644	NaN
216	1.000000	0.914710	7.36716e+06	-49439.1	955.818	-29759.4	0.000000	0.000000	6.915127	0.052308	NaN	0.000000	0.001722	0.001699	28.0808	0.110686	0.002097	52.7877	-103.678	-164.965	0.077565	0.913387	-0.150358	-0.151681	0.052308	52.7877	-0.151101	-18.9695	-0.002757	NaN
216	1.000000	0.922669	7.36716e+06	-49439.1	955.819	-29759.4	0.000000	0.000000	6.923085	0.023892	NaN	0.000000	0.001730	0.001700	28.0807	0.069088	0.001979	34.9018	92.0501	-164.625	0.000240	0.921382	-0.142399	-0.143686	0.023892	34.9018	-0.142912	-13.4097	-0.001782	NaN
216	1.000000	0.930707	7.36716e+06	-49439.1	955.819	-29759.4	0.000000	0.000000	6.931123	0.037740	NaN	0.000000	0.001700	0.001672	28.0795	0.036339	0.001941	18.7211	-154.995	-164.923	0.038470	0.929430	-0.134361	-0.135638	0.037740	18.7211	-0.135873	-9.883963	-0.003818	NaN
216	1.000000	0.938696	7.36716e+06	-49439.1	955.819	-29759.4	0.000000	0.000000	6.939113	0.036111	NaN	0.000000	0.001699	0.001667	28.0798	0.037554	0.001997	18.8086	-10.5109	-166.074	0.127223	0.937392	-0.126372	-0.127676	0.036111	18.8086	-0.127811	-6.907676	-0.005228	NaN
216	1.000000	0.946721	7.36716e+06	-49439.1	955.818	-29759.4	0.000000	0.000000	6.947136	-0.007912	NaN	0.000000	0.001643	0.001654	28.0796	0.026261	0.002035	12.9027	-172.878	-165.917	6.921297E-5	0.945360	-0.118346	-0.119708	-0.007912	12.9027	-0.117887	-4.377641	0.001807	NaN
216	1.000000	0.954699	7.36716e+06	-49439.1	955.818	-29759.4	0.000000	0.000000	6.955118	0.096476	NaN	0.000000	0.001659	0.001666	28.0798	0.017077	0.001985	8.602711	-117.937	-164.116	0.060868	0.953393	-0.110369	-0.111675	0.096476	8.602711	-0.118780	-4.564473	-0.021136	NaN
216	1.000000	0.962730	7.36716e+06	-49439.1	955.819	-29759.4	0.000000	0.000000	6.963147	0.042717	NaN	0.000000	0.001644	0.001718	28.0797	0.037300	0.002034	18.3373	-19.0758	-163.994	0.106572	0.961364	-0.102337	-0.103704	0.042717	18.3373	-0.104085	-2.245711	-0.019022	NaN
216	1.000000	0.970717	7.36716e+06	-49439.1	955.82	-29759.4	0.000000	0.000000	6.971135	0.077610	NaN	0.000000	0.001647	0.001699	28.0794	0.014145	0.002097	6.744280	59.2702	-165.326	0.111469	0.969390	-0.094351	-0.095678	0.077610	6.744280	-0.102982	-2.124975	-0.036523	NaN
216	1.000000	0.978714	7.36716e+06	-49439.1	955.819	-29759.4	0.000000	0.000000	6.979128	-0.030914	NaN	0.000000	0.001667	0.001697	28.0796	0.062981	0.002106	29.9111	-28.5118	-164.968	-0.059194	0.977399	-0.086353	-0.087669	-0.030914	29.9111	-0.085578	-0.848496	0.036434	NaN
216	1.000000	0.986714	7.36716e+06	-49439.1	955.818	-29759.4	0.000000	0.000000	6.987130	0.043920	NaN	0.000000	0.001666	0.001687	28.0795	0.046538	0.001944	23.9406	-175.473	-166.515	0.080428	0.985415	-0.078354	-0.079653	0.043920	23.9406	-0.079730	-0.609444	-0.072066	NaN
216	1.000000	0.994753	7.36716e+06	-49439.1	955.819	-29759.4	0.000000	0.000000	6.995170	0.044678	NaN	0.000000	0.001683	0.001718	28.0798	0.059518	0.001872	31.7885	168.845	-162.844	0.053304	0.993406	-0.070315	-0.071662	0.044678	31.7885	-0.071369	-0.371008	-0.120423	NaN
216	1.000000	1.002733	7.36716e+06	-49439.1	955.818	-29759.4	0.000000	0.000000	7.003151	0.066363	NaN	0.000000	0.001701	0.001661	28.0796	0.040860	0.001989	20.5455	-11.1729	-167.303	0.107687	1.001463	-0.062335	-0.063605	0.066363	20.5455	-0.064758	-0.245386	-0.270443	NaN
216	1.000000	1.010739	7.36716e+06	-49439.1	955.819	-29759.4	0.000000	0.000000	7.011155	0.029929	NaN	0.000000	0.001690	0.001701	28.0794	0.010942	0.001859	5.886383	-114.904	-165	0.096059	1.009444	-0.054329	-0.055624	0.029929	5.886383	-0.058142	-0.159181	-0.188021	NaN
216	1.000000	1.018719	7.36716e+06	-49439.1	955.819	-29759.4	0.000000	0.000000	7.019133	-0.047892	NaN	0.000000	0.001714	0.001715	28.0794	0.042868	0.001898	22.5899	-174.99	-161.886	-0.002205	1.017481	-0.046348	-0.047587	-0.047892	22.5899	-0.044758	-0.063184	0.757986	NaN
216	1.000000	1.026756	7.36716e+06	-49439.1	955.819	-29759.4	0.000000	0.000000	7.027174	0.068903	NaN	0.000000	0.001732	0.001682	28.0794	0.042209	0.001946	21.6863	-106.756	-161.029	0.097272	1.025382	-0.038312	-0.039686	0.068903	21.6863	-0.040695	-0.047475	-1.451338	NaN
216	1.000000	1.034754	7.36716e+06	-49439.1	955.819	-29759.4	0.000000	0.000000	7.035168	-0.015370	NaN	0.000000	0.001700	0.001734	28.0795	0.081708	0.002099	38.9186	-73.6515	-163.588	-0.001025	1.033461	-0.030314	-0.031607	-0.015370	38.9186	-0.030018	-0.023039	0.667133	NaN
216	1.000000	1.042761	7.36716e+06	-49439.1	955.818	-29759.4	0.000000	0.000000	7.043177	0.038032	NaN	0.000000	0.001678	0.001729	28.0792	0.140993	0.001933	72.9273	-60.7478	-164.241	0.067664	1.041412	-0.022307	-0.023656	0.038032	72.9273	-0.022698	-0.014712	-2.585036	NaN
216	1.000000	1.050744	7.36716e+06	-49439.1	955.819	-29759.4	0.000000	0.000000	7.051160	0.034306	NaN	0.000000	0.001653	0.001697	28.0795	0.036279	0.002039	17.7902	-114.409	-163.76	0.065948	1.049447	-0.014324	-0.015621	0.034306	17.7902	-0.015770	-0.009742	-3.521493	NaN
216	1.000000	1.058757	7.36716e+06	-49439.1	955.819	-29759.4	0.000000	0.000000	7.059173	0.018618	NaN	0.000000	0.001661	0.001744	28.0794	0.054983	0.002139	25.6998	49.3137	-165.542	0.039808	1.057459	-0.006310	-0.007609	0.018618	25.6998	-0.006854	-0.004553	-4.089191	NaN
216	1.000000	1.066722	7.36716e+06	-49439.1	955.819	-29759.4	0.000000	0.000000	7.067209	1.767633	NaN	0.000000	0.001693	0.001735	28.0805	2.585019	0.001964	1316.46	7.030041	-165.934	0.536303	1.065468	0.001654	0.000400	1.767633	1316.46	0.000647	0.000490	3611.01	54362.7
216	2.000000	1.072370	7.36716e+06	-49439.1	955.818	-29759.4	0.000000	0.000000	7.073174	9.446886	NaN	0.000000	0.001690	0.001729	28.0806	9.609724	0.001542	6232.51	13.5126	-178.833	9.299348	1.072025	0.007303	0.006957	9.446886	6232.51	0.006166	0.005223	1808.85	78794
216	2.000000	1.074343	7.36716e+06	-49439.1	955.819	-29759.4	0.000000	0.000000	7.075248	11.912	NaN	0.000000	0.001688	0.001713	28.0806	12.3951	0.001795	6905.69	9.783458	-173.498	12.0196	1.074038	0.009275	0.008970	11.912	6905.69	0.007981	0.007023	1696.07	75285.1
216	2.000000	1.076305	7.36716e+06	-49439.1	955.82	-29759.4	0.000000	0.000000	7.077384	16.1392	NaN	0.000000	0.001703	0.001697	28.0808	13.8015	0.001599	8628.91	6.026180	-173.261	15.2639	1.076005	0.011238	0.010937	16.1392	8628.91	0.009835	0.008998	1793.56	83108.7
216	2.000000	1.078291	7.36716e+06	-49439.1	955.819	-29759.4	0.000000	0.000000	7.079428	17.5702	NaN	0.000000	0.001650	0.001682	28.0805	16.3426	0.001722	9488.7	8.185934	-176.015	16.7182	1.078010	0.013223	0.012942	17.5702	9488.7	0.011834	0.011292	1556.03	81583.1
216	2.000000	1.080341	7.36716e+06	-49439.1	955.819	-29759.4	0.000000	0.000000	7.081654	21.8517	NaN	0.000000	0.001676	0.001697	28.0806	18.5656	0.001788	10381.4	7.355058	-173.472	21.6155	1.079964	0.015273	0.014896	21.8517	10381.4	0.013694	0.013584	1608.69	81381.4
216	2.000000	1.082281	7.36716e+06	-49439.1	955.82	-29759.4	0.000000	0.000000	7.083778	26.3024	NaN	0.000000	0.001688	0.001742	28.0809	20.7681	0.001807	11495.1	4.811484	-174.92	26.1481	1.081966	0.017213	0.016898	26.3024	11495.1	0.015497	0.015954	1648.64	83147.8
216	2.000000	1.084247	7.36716e+06	-49439.1	955.819	-29759.4	0.000000	0.000000	7.085929	30.8242	NaN	0.000000	0.001692	0.001714	28.0804	23.2869	0.001771	13147.6	6.403102	-177.969	29.9268	1.083983	0.019179	0.018916	30.8242	13147.6	0.017421	0.018650	1652.76	87958.7
216	2.000000	1.086311	7.36716e+06	-49439.1	955.82	-29759.4	0.000000	0.000000	7.088164	34.9515	NaN	0.000000	0.001671	0.001693	28.0805	24.8606	0.001790	13886.4	7.142627	-178.278	36.3818	1.085967	0.021244	0.020900	34.9515	13886.4	0.019356	0.021540	1622.62	86444.4
216	2.000000	1.088228	7.36716e+06	-49439.1	955.819	-29759.4	0.000000	0.000000	7.090249	39.065	NaN	0.000000	0.001654	0.001700	28.0805	27.5801	0.001810	15234.8	7.180921	179.635	37.5688	1.087989	0.023160	0.022921	39.065	15234.8	0.021237	0.024524	1592.96	88882.6
216	2.000000	1.090249	7.36716e+06	-49439.1	955.821	-29759.4	0.000000	0.000000	7.092580	46.5913	NaN	0.000000	0.001670	0.001718	28.0809	28.7307	0.001779	16148.4	5.706291	-177.943	45.7226	1.089877	0.025181	0.024809	46.5913	16148.4	0.023017	0.027507	1693.81	88957.5
216	2.000000	1.092238	7.36716e+06	-49439.1	955.818	-29759.4	0.000000	0.000000	7.094699	49.7417	NaN	0.000000	0.001671	0.001701	28.0807	30.6127	0.001785	17148.6	5.732154	-179.27	48.291	1.091852	0.027170	0.026784	49.7417	17148.6	0.024995	0.031006	1604.24	88976.5
216	2.000000	1.094252	7.36716e+06	-49439.1	955.819	-29759.4	0.000000	0.000000	7.096978	56.2049	NaN	0.000000	0.001688	0.001712	28.0806	33.3366	0.001807	18449.2	4.395207	-179.495	57.2372	1.094012	0.029184	0.028944	56.2049	18449.2	0.026899	0.034561	1626.23	90668.1
216	2.000000	1.096236	7.36716e+06	-49439.1	955.82	-29759.4	0.000000	0.000000	7.099244	63.0512	NaN	0.000000	0.001662	0.001682	28.0808	34.5691	0.001721	20083.3	5.662932	178.561	61.3239	1.095867	0.031168	0.030799	63.0512	20083.3	0.028814	0.038320	1645.37	93733.3
216	2.000000	1.098254	7.36716e+06	-49439.1	955.82	-29759.4	0.000000	0.000000	7.101470	68.1142	NaN	0.000000	0.001686	0.001684	28.0805	37.8627	0.001837	20613	7.771532	177.136	68.9542	1.097865	0.033186	0.032797	68.1142	20613	0.030708	0.042223	1613.2	91651.7
216	2.000000	1.100211	7.36716e+06	-49439.1	955.819	-29759.4	0.000000	0.000000	7.103680	74.2585	NaN	0.000000	0.001664	0.001711	28.0807	39.1545	0.001796	21798	4.310350	179.919	70.92	1.099852	0.035143	0.034784	74.2585	21798	0.032588	0.046279	1604.57	92575.4
216	2.000000	1.102217	7.36716e+06	-49439.1	955.82	-29759.4	0.000000	0.000000	7.105798	77.0068	NaN	0.000000	0.001728	0.001714	28.0805	40.8368	0.001912	21357.2	3.619412	-179.948	75.291	1.101964	0.037149	0.036896	77.0068	21357.2	0.034444	0.050460	1526.09	86864.8
216	2.000000	1.104239	7.36716e+06	-49439.1	955.82	-29759.4	0.000000	0.000000	7.108262	87.7393	NaN	0.000000	0.001700	0.001721	28.0795	43.4238	0.001867	23259.6	7.365110	175.9	87.8887	1.103974	0.039171	0.038906	87.7393	23259.6	0.036342	0.054917	1597.67	90682.3
216	2.000000	1.106181	7.36716e+06	-49439.1	955.82	-29759.4	0.000000	0.000000	7.110635	98.2301	NaN	0.000000	0.001702	0.001693	28.0809	43.7428	0.001776	24634	3.747262	179.494	96.4957	1.105861	0.041113	0.040793	98.2301	24634	0.038123	0.059266	1657.43	92449.2
216	2.000000	1.108182	7.36716e+06	-49439.1	955.82	-29759.4	0.000000	0.000000	7.112971	106.362	NaN	0.000000	0.001661	0.001683	28.0794	46.7982	0.001811	25838.3	4.602853	178.544	104.125	1.107817	0.043114	0.042749	106.362	25838.3	0.040027	0.064098	1659.35	93242.4
216	2.000000	1.110155	7.36716e+06	-49439.1	955.82	-29759.4	0.000000	0.000000	7.115232	113.378	NaN	0.000000	0.001653	0.001666	28.0795	49.0733	0.001785	27486.5	4.462102	176.883	108.739	1.109857	0.045087	0.044789	113.378	27486.5	0.041994	0.069282	1636.48	95407.6
216	2.000000	1.112210	7.36716e+06	-49439.1	955.819	-29759.4	0.000000	0.000000	7.117586	120.659	NaN	0.000000	0.001652	0.001696	28.0793	51.272	0.001845	27786.3	10.6235	172.779	121.965	1.111857	0.047142	0.046789	120.659	27786.3	0.043885	0.074454	1620.59	93038.1
216	2.000000	1.114165	7.36716e+06	-49439.1	955.82	-29759.4	0.000000	0.000000	7.119960	130.84	NaN	0.000000	0.001704	0.001706	28.0793	52.4579	0.001811	28973.7	2.147868	179.636	127.094	1.113788	0.049097	0.048721	130.84	28973.7	0.045710	0.079616	1643.38	93816.1
216	2.000000	1.116091	7.36716e+06	-49439.1	955.819	-29759.4	0.000000	0.000000	7.122377	142.77	NaN	0.000000	0.001734	0.001677	28.0802	52.7423	0.001710	30843.9	3.073099	177.864	137.824	1.115868	0.051023	0.050801	142.77	30843.9	0.047552	0.084997	1679.71	96658.9
216	2.000000	1.118133	7.36716e+06	-49439.1	955.819	-29759.4	0.000000	0.000000	7.124657	148.563	NaN	0.000000	0.001769	0.001664	28.0791	55.6951	0.001789	31136.7	4.674532	176.183	144.946	1.117916	0.053066	0.052848	148.563	31136.7	0.049487	0.090834	1635.54	94388.7
216	2.000000	1.120204	7.36716e+06	-49439.1	955.819	-29759.4	0.000000	0.000000	7.126990	154.945	NaN	0.000000	0.001772	0.001702	28.0793	58.6251	0.001843	31812.4	4.697871	175.944	153.66	1.119993	0.055136	0.054925	154.945	31812.4	0.051483	0.097053	1596.49	93296.2
216	2.000000	1.122225	7.36716e+06	-49439.1	955.821	-29759.4	0.000000	0.000000	7.129563	168.389	NaN	0.000000	0.001751	0.001686	28.0794	59.2001	0.001724	34332.3	3.427777	176.945	168.079	1.121860	0.057157	0.056792	168.389	34332.3	0.053478	0.103466	1627.47	97516.1
216	2.000000	1.124148	7.36716e+06	-49439.1	955.819	-29759.4	0.000000	0.000000	7.131849	177.207	NaN	0.000000	0.001744	0.001683	28.0795	62.4581	0.001767	35338.6	4.563060	175.307	174.594	1.123860	0.059080	0.058792	177.207	35338.6	0.055319	0.109560	1617.45	97543.2
216	2.000000	1.126198	7.36716e+06	-49439.1	955.82	-29759.4	0.000000	0.000000	7.134347	188.094	NaN	0.000000	0.001762	0.001673	28.0796	62.7886	0.001763	35611.2	2.667576	176.947	186.807	1.125971	0.061130	0.060903	188.094	35611.2	0.057168	0.115851	1623.59	95589.5
216	2.000000	1.128178	7.36716e+06	-49439.1	955.819	-29759.4	0.000000	0.000000	7.136821	200.108	NaN	0.000000	0.001752	0.001735	28.0794	64.8189	0.001759	36844.3	0.310744	179.497	197.874	1.127900	0.063110	0.062833	200.108	36844.3	0.059037	0.122376	1635.19	96226.7
216	2.000000	1.130151	7.36716e+06	-49439.1	955.819	-29759.4	0.000000	0.000000	7.139406	214.99	NaN	0.000000	0.001674	0.001693	28.0795	67.859	0.001928	35193.2	3.645915	176.994	211.365	1.129820	0.065083	0.064752	214.99	35193.2	0.060501	0.127611	1684.73	90009.2
216	2.000000	1.132165	7.36716e+06	-49439.1	955.819	-29759.4	0.000000	0.000000	7.141728	222.488	NaN	0.000000	0.001711	0.001669	28.0793	69.9125	0.001744	40086.7	4.736551	174.492	221.796	1.131856	0.067097	0.066789	222.488	40086.7	0.062934	0.136541	1629.46	99115.8
216	2.000000	1.134229	7.36716e+06	-49439.1	955.819	-29759.4	0.000000	0.000000	7.144173	231.742	NaN	0.000000	0.001692	0.001676	28.0794	72.3003	0.001761	41054.2	3.335873	174.661	232.132	1.133908	0.069161	0.068840	231.742	41054.2	0.064927	0.144067	1608.57	98820.7
216	2.000000	1.136109	7.36716e+06	-49439.1	955.819	-29759.4	0.000000	0.000000	7.146648	246.208	NaN	0.000000	0.001694	0.001700	28.0795	73.515	0.001786	41158.9	3.781433	174.631	241.234	1.135794	0.071042	0.070726	246.208	41158.9	0.066555	0.150358	1637.48	96978.1
216	2.000000	1.138248	7.36716e+06	-49439.1	955.82	-29759.4	0.000000	0.000000	7.148999	251.378	NaN	0.000000	0.001657	0.001691	28.0802	75.578	0.001790	42233.6	3.950148	174.675	255.984	1.137887	0.073180	0.072819	251.378	42233.6	0.068716	0.158902	1581.96	96797.9
216	2.000000	1.140191	7.36716e+06	-49439.1	955.82	-29759.4	0.000000	0.000000	7.151579	266.854	NaN	0.000000	0.001680	0.001688	28.0808	78.098	0.001951	40036.1	6.897327	173.5	264.976	1.139804	0.075124	0.074736	266.854	40036.1	0.070125	0.164595	1621.28	90160.7
216	2.000000	1.142180	7.36716e+06	-49439.1	955.819	-29759.4	0.000000	0.000000	7.154122	280.346	NaN	0.000000	0.001644	0.001743	28.0806	79.0364	0.001782	44363.7	7.123775	171.473	280.949	1.141856	0.077112	0.076788	280.346	44363.7	0.072372	0.173871	1612.38	97204.6
216	2.000000	1.144135	7.36716e+06	-49439.1	955.819	-29759.4	0.000000	0.000000	7.156546	291.729	NaN	0.000000	0.001688	0.001707	28.0806	80.9223	0.001676	48283.8	3.498868	173.898	290.558	1.143954	0.079067	0.078886	291.729	48283.8	0.074536	0.183027	1593.91	103114
216	2.000000	1.146094	7.36716e+06	-49439.1	955.819	-29759.4	0.000000	0.000000	7.158921	301.852	NaN	0.000000	0.001679	0.001725	28.0808	82.014	0.001729	47435	8.033827	169.701	297.01	1.145770	0.081026	0.080702	301.852	47435	0.076253	0.190452	1584.93	99307
216	2.000000	1.148074	7.36716e+06	-49439.1	955.819	-29759.4	0.000000	0.000000	7.161196	309.034	NaN	0.000000	0.001652	0.001694	28.0808	84.7014	0.001788	47374.5	3.087318	174.222	303.212	1.147858	0.083006	0.082790	309.034	47374.5	0.078114	0.198652	1555.66	97111.7
216	2.000000	1.150191	7.36716e+06	-49439.1	955.819	-29759.4	0.000000	0.000000	7.164251	331.853	NaN	0.000000	0.001666	0.001712	28.0807	86.6446	0.001900	45607	5.470106	173.645	331.735	1.149747	0.085123	0.084679	331.853	45607	0.079666	0.205614	1613.96	91892.1
216	2.000000	1.152189	7.36716e+06	-49439.1	955.819	-29759.4	0.000000	0.000000	7.166547	339.105	NaN	0.000000	0.001671	0.001708	28.0806	87.5972	0.001744	50214.4	1.685012	175.586	339.449	1.151943	0.087121	0.086875	339.105	50214.4	0.082056	0.216559	1565.88	98585.6
216	2.000000	1.154192	7.36716e+06	-49439.1	955.819	-29759.4	0.000000	0.000000	7.169097	352.389	NaN	0.000000	0.001678	0.001699	28.0806	91.4378	0.001935	47248.1	4.772442	173.91	353.308	1.153775	0.089124	0.088707	352.389	47248.1	0.083531	0.223442	1577.1	91322
216	2.000000	1.156213	7.36716e+06	-49439.1	955.82	-29759.4	0.000000	0.000000	7.171787	368.67	NaN	0.000000	0.001658	0.001702	28.0807	92.2312	0.001806	51068.4	5.834990	171.874	369.89	1.155793	0.091145	0.090725	368.67	51068.4	0.085731	0.233901	1576.18	96473.6
216	2.000000	1.158066	7.36716e+06	-49439.1	955.818	-29759.4	0.000000	0.000000	7.174325	385.331	NaN	0.000000	0.001669	0.001711	28.0809	92.9448	0.001785	52082.4	5.205856	172.165	380.937	1.157791	0.092998	0.092723	385.331	52082.4	0.087449	0.242223	1590.82	96684.6
216	2.000000	1.160188	7.36717e+06	-49439.1	955.819	-29759.4	0.000000	0.000000	7.176780	393.426	NaN	0.000000	0.001692	0.001721	28.0808	95.2528	0.001801	52880.7	3.506558	173.256	393.078	1.159868	0.095121	0.094800	393.426	52880.7	0.089541	0.252537	1557.89	96140.9
216	2.000000	1.162058	7.36717e+06	-49439.1	955.819	-29759.4	0.000000	0.000000	7.179331	409.969	NaN	0.000000	0.001690	0.001705	28.0808	95.8396	0.001766	54276.3	2.892952	173.878	403.007	1.161806	0.096990	0.096739	409.969	54276.3	0.091325	0.261497	1567.78	96972.7
216	2.000000	1.164192	7.36717e+06	-49439.1	955.819	-29759.4	0.000000	0.000000	7.181908	420.761	NaN	0.000000	0.001659	0.001731	28.0806	98.6578	0.001848	53400.6	3.008721	174.156	422.312	1.163932	0.099124	0.098864	420.761	53400.6	0.093215	0.271140	1551.82	93696.3
216	2.000000	1.166007	7.36717e+06	-49439.1	955.819	-29759.4	0.000000	0.000000	7.184228	433.028	NaN	0.000000	0.001686	0.001708	28.0809	99.6789	0.001779	56017	5.780090	170.587	425.982	1.165880	0.100939	0.100812	433.028	56017	0.095142	0.281145	1540.23	96522.4
216	2.000000	1.168118	7.36717e+06	-49439.1	955.819	-29759.4	0.000000	0.000000	7.187313	456.706	NaN	0.000000	0.001693	0.001708	28.0807	102.837	0.001871	54977	5.580399	171.389	453.642	1.167652	0.103051	0.102584	456.706	54977	0.096820	0.289997	1574.87	93273.4
216	2.000000	1.170199	7.36717e+06	-49439.1	955.819	-29759.4	0.000000	0.000000	7.190275	478.135	NaN	0.000000	0.001701	0.001685	28.0806	104.227	0.001781	58533	5.430145	171.58	477.874	1.169830	0.105131	0.104762	478.135	58533	0.099005	0.301712	1584.74	97359.5