File: remote_trans/data/nanoindenter/0828-1/data/Data_2025-08-06,11h17m57s/2025-07-22_16-23-58_1_276.txt
2025-07-22, 16:23:58, 1
Index	Phase	Displacement	Time	Pos X	Pos Y	Pos Z	Rot A	Rot B	Piezo Z	Force A	Force B	Gripper	Voltage A	Voltage B	Temperature	Amplitude force	Amplitude pos	Stiffness	Phase shift	Phase excitation	Force A raw	Displacement raw	HMax	HMax raw	Real Force	Real Stiffness	Contact Depth	Area	Hardness	Reduced Mod.
[#]	[#]	[um]	[s]	[um]	[um]	[um]	[m°]	[m°]	[um]	[uN]	[uN]	[V]	[V]	[V]	[°C]	[uN]	[um]	[N/m]	[°]	[°]	[uN]	[um]	[um]	[um]	[uN]	[N/m]	[um]	[um^2]	[MPa]	[MPa]
276	1.000000	0.003042	7.36775e+06	-52439.1	955.819	-29749.5	0.000000	0.000000	6.002800	0.033947	NaN	0.000000	0.001620	0.001707	28.0806	0.081368	0.001077	75.5846	117.439	-164.689	-0.076124	0.001826	-1.087811	-1.089027	0.033947	75.5846	-1.088148	-3.474931E+14	-9.769239E-17	NaN
276	1.000000	0.013111	7.36775e+06	-52439.1	955.818	-29749.5	0.000000	0.000000	6.012872	0.087645	NaN	0.000000	0.001597	0.001731	28.0809	0.050241	0.001228	40.8993	17.6461	19.1197	0.090072	0.011687	-1.077742	-1.079166	0.087645	40.8993	-1.079349	-2.647156E+14	-3.310920E-16	NaN
276	1.000000	0.022991	7.36775e+06	-52439.1	955.818	-29749.5	0.000000	0.000000	6.022752	0.101281	NaN	0.000000	0.001652	0.001709	28.0809	0.104752	0.001700	61.6163	-132.674	-163.908	0.083018	0.021679	-1.067862	-1.069174	0.101281	61.6163	-1.069095	-1.927649E+14	-5.254108E-16	NaN
276	1.000000	0.033007	7.36775e+06	-52439.1	955.818	-29749.5	0.000000	0.000000	6.032762	-0.065895	NaN	0.000000	0.001648	0.001712	28.0808	0.020119	0.002013	9.995074	109.294	11.0926	-0.043250	0.031596	-1.057846	-1.059257	-0.065895	9.995074	-1.052901	-1.167917E+14	5.642068E-16	NaN
276	1.000000	0.043024	7.36775e+06	-52439.1	955.818	-29749.5	0.000000	0.000000	6.042783	0.048599	NaN	0.000000	0.001625	0.001719	28.0813	0.174864	0.001861	93.9534	-118.298	-162.078	0.100511	0.041655	-1.047829	-1.049198	0.048599	93.9534	-1.048217	-1.010292E+14	-4.810365E-16	NaN
276	1.000000	0.053012	7.36775e+06	-52439.1	955.819	-29749.5	0.000000	0.000000	6.052772	0.055455	NaN	0.000000	0.001620	0.001704	28.0811	0.110645	0.002020	54.7819	-101.531	16.6106	-0.001859	0.051601	-1.037841	-1.039252	0.055455	54.7819	-1.038600	-7.501330E+13	-7.392691E-16	NaN
276	1.000000	0.062990	7.36775e+06	-52439.1	955.818	-29749.5	0.000000	0.000000	6.062749	0.063771	NaN	0.000000	0.001668	0.001697	28.081	0.049585	0.001921	25.8074	-47.1382	-162.177	0.061967	0.061681	-1.027863	-1.029172	0.063771	25.8074	-1.029717	-5.697293E+13	-1.119323E-15	NaN
276	1.000000	0.073014	7.36775e+06	-52439.1	955.818	-29749.5	0.000000	0.000000	6.072770	-0.027700	NaN	0.000000	0.001637	0.001712	28.0807	0.068302	0.001975	34.5779	136.816	18.4891	0.008043	0.071601	-1.017839	-1.019252	-0.027700	34.5779	-1.017238	-3.870690E+13	7.156411E-16	NaN
276	1.000000	0.083031	7.36775e+06	-52439.1	955.818	-29749.5	0.000000	0.000000	6.082792	0.105393	NaN	0.000000	0.001613	0.001715	28.0809	0.023759	0.001945	12.2184	-117.832	-164.213	0.114703	0.081728	-1.007822	-1.009125	0.105393	12.2184	-1.014292	-3.532969E+13	-2.983131E-15	NaN
276	1.000000	0.093019	7.36775e+06	-52439.1	955.818	-29749.5	0.000000	0.000000	6.092779	0.086513	NaN	0.000000	0.001606	0.001690	28.0804	0.067751	0.001898	35.6938	-134.447	14.0379	0.135255	0.091686	-0.997834	-0.999167	0.086513	35.6938	-0.999652	-2.244334E+13	-3.854740E-15	NaN
276	1.000000	0.103020	7.36775e+06	-52439.1	955.818	-29749.5	0.000000	0.000000	6.102777	0.010907	NaN	0.000000	0.001609	0.001713	28.0803	0.024339	0.001931	12.6017	57.0149	-161.723	0.052769	0.101678	-0.987833	-0.989175	0.010907	12.6017	-0.988483	-1.587358E+13	-6.871309E-16	NaN
276	1.000000	0.113017	7.36776e+06	-52439.1	955.819	-29749.5	0.000000	0.000000	6.112777	0.061555	NaN	0.000000	0.001588	0.001692	28.0806	0.084427	0.001920	43.9688	46.6829	15.9841	0.011966	0.111648	-0.977836	-0.979205	0.061555	43.9688	-0.978886	-1.178693E+13	-5.222325E-15	NaN
276	1.000000	0.123034	7.36776e+06	-52439.1	955.819	-29749.5	0.000000	0.000000	6.122794	0.052594	NaN	0.000000	0.001557	0.001683	28.0805	0.107879	0.002118	50.9256	117.73	-166.42	0.056299	0.121734	-0.967819	-0.969119	0.052594	50.9256	-0.968593	-8.564498E+12	-6.140989E-15	NaN
276	1.000000	0.133022	7.36776e+06	-52439.1	955.818	-29749.5	0.000000	0.000000	6.132778	-0.034053	NaN	0.000000	0.001650	0.001676	28.079	0.118682	0.002104	56.4036	176.92	14.0659	0.054395	0.131605	-0.957831	-0.959248	-0.034053	56.4036	-0.957378	-6.046675E+12	5.631721E-15	NaN
276	1.000000	0.143052	7.36776e+06	-52439.1	955.818	-29749.5	0.000000	0.000000	6.142813	0.087619	NaN	0.000000	0.001625	0.001751	28.079	0.021917	0.002122	10.3299	45.9152	-165.972	0.061217	0.141762	-0.947801	-0.949091	0.087619	10.3299	-0.954162	-5.472123E+12	-1.601194E-14	NaN
276	1.000000	0.153048	7.36776e+06	-52439.1	955.818	-29749.5	0.000000	0.000000	6.152809	0.089570	NaN	0.000000	0.001635	0.001726	28.0793	0.076332	0.001982	38.5166	21.2806	20.5125	0.043278	0.151715	-0.937805	-0.939138	0.089570	38.5166	-0.939549	-3.475815E+12	-2.576945E-14	NaN
276	1.000000	0.163013	7.36776e+06	-52439.1	955.818	-29749.5	0.000000	0.000000	6.162773	0.055745	NaN	0.000000	0.001653	0.001739	28.0795	0.077436	0.002071	37.3898	112.198	-164.629	0.001202	0.161703	-0.927840	-0.929150	0.055745	37.3898	-0.928958	-2.501116E+12	-2.228817E-14	NaN
276	1.000000	0.173029	7.36776e+06	-52439.1	955.817	-29749.5	0.000000	0.000000	6.172789	0.072148	NaN	0.000000	0.001642	0.001774	28.0791	0.138172	0.002012	68.6607	132.519	14.9542	0.120626	0.171671	-0.917824	-0.919182	0.072148	68.6607	-0.918612	-1.813297E+12	-3.978838E-14	NaN
276	1.000000	0.183042	7.36776e+06	-52439.1	955.818	-29749.5	0.000000	0.000000	6.182800	0.020329	NaN	0.000000	0.001622	0.001717	28.0792	0.038945	0.002033	19.1566	154.361	-165.986	0.032010	0.181763	-0.907811	-0.909090	0.020329	19.1566	-0.908607	-1.328449E+12	-1.530300E-14	NaN
276	1.000000	0.193055	7.36776e+06	-52439.1	955.818	-29749.5	0.000000	0.000000	6.192814	0.044709	NaN	0.000000	0.001631	0.001695	28.0793	0.044071	0.001986	22.1923	-48.5654	13.978	0.073400	0.191753	-0.897798	-0.899100	0.044709	22.1923	-0.899309	-9.947773E+11	-4.494354E-14	NaN
276	1.000000	0.203050	7.36776e+06	-52439.1	955.818	-29749.5	0.000000	0.000000	6.202809	0.036406	NaN	0.000000	0.001634	0.001796	28.0792	0.171425	0.001898	90.3003	-149.437	-163.357	0.063062	0.201704	-0.887803	-0.889149	0.036406	90.3003	-0.888105	-7.019390E+11	-5.186534E-14	NaN
276	1.000000	0.213058	7.36776e+06	-52439.1	955.818	-29749.5	0.000000	0.000000	6.212814	-0.015030	NaN	0.000000	0.001656	0.001714	28.0793	0.047233	0.001993	23.7047	-162.271	14.6088	0.052328	0.211672	-0.877795	-0.879181	-0.015030	23.7047	-0.877319	-5.017140E+11	2.995772E-14	NaN
276	1.000000	0.223065	7.36776e+06	-52439.1	955.819	-29749.5	0.000000	0.000000	6.222825	0.062487	NaN	0.000000	0.001653	0.001722	28.0793	0.027793	0.002125	13.0797	42.3733	-165.352	0.010530	0.221807	-0.867788	-0.869046	0.062487	13.0797	-0.871371	-4.168610E+11	-1.499001E-13	NaN
276	1.000000	0.233095	7.36776e+06	-52439.1	955.818	-29749.5	0.000000	0.000000	6.232855	0.066734	NaN	0.000000	0.001705	0.001744	28.0795	0.072427	0.001893	38.2653	-154.708	13.5768	0.014729	0.231720	-0.857758	-0.859133	0.066734	38.2653	-0.859066	-2.841030E+11	-2.348953E-13	NaN
276	1.000000	0.243112	7.36776e+06	-52439.1	955.818	-29749.5	0.000000	0.000000	6.242872	0.080532	NaN	0.000000	0.001615	0.001724	28.0794	0.095498	0.001940	49.2236	87.2975	-165.534	0.012363	0.241805	-0.847741	-0.849048	0.080532	49.2236	-0.848968	-2.073790E+11	-3.883335E-13	NaN
276	1.000000	0.253056	7.36776e+06	-52439.1	955.819	-29749.5	0.000000	0.000000	6.252813	0.011301	NaN	0.000000	0.001623	0.001744	28.0797	0.039665	0.002065	19.2077	-126.545	16.2757	0.045970	0.251716	-0.837797	-0.839137	0.011301	19.2077	-0.838238	-1.483975E+11	-7.615093E-14	NaN
276	1.000000	0.263110	7.36776e+06	-52439.1	955.818	-29749.5	0.000000	0.000000	6.262871	0.103236	NaN	0.000000	0.001611	0.001712	28.0792	0.035032	0.001951	17.9533	135.67	-167.513	0.125283	0.261774	-0.827743	-0.829079	0.103236	17.9533	-0.832056	-1.223620E+11	-8.436890E-13	NaN
276	1.000000	0.273049	7.36776e+06	-52439.1	955.819	-29749.5	0.000000	0.000000	6.272808	0.043560	NaN	0.000000	0.001587	0.001666	28.0808	0.059614	0.002012	29.6325	128.424	17.9311	0.011848	0.271725	-0.817804	-0.819128	0.043560	29.6325	-0.818906	-8.116673E+10	-5.366744E-13	NaN
276	1.000000	0.283108	7.36776e+06	-52439.1	955.818	-29749.5	0.000000	0.000000	6.282869	0.103836	NaN	0.000000	0.001598	0.001696	28.0804	0.098625	0.001977	49.8745	-49.1873	-164.008	0.070707	0.281783	-0.807745	-0.809070	0.103836	49.8745	-0.809307	-6.014028E+10	-1.726557E-12	NaN
276	1.000000	0.293087	7.36776e+06	-52439.1	955.819	-29749.5	0.000000	0.000000	6.292847	0.072428	NaN	0.000000	0.001603	0.001704	28.0807	0.054635	0.002041	26.7699	-65.5379	15.0668	0.058513	0.291777	-0.797766	-0.799076	0.072428	26.7699	-0.799796	-4.467732E+10	-1.621135E-12	NaN
276	1.000000	0.303098	7.36776e+06	-52439.1	955.817	-29749.5	0.000000	0.000000	6.302858	0.068080	NaN	0.000000	0.001616	0.001702	28.0806	0.073575	0.001959	37.5647	119.668	-166.902	0.091347	0.301719	-0.787755	-0.789134	0.068080	37.5647	-0.789114	-3.199258E+10	-2.127993E-12	NaN
276	1.000000	0.313115	7.36776e+06	-52439.1	955.818	-29749.5	0.000000	0.000000	6.312870	-0.048754	NaN	0.000000	0.001567	0.001739	28.0808	0.046560	0.002116	22.0011	-54.7954	12.0251	-0.039245	0.311723	-0.777738	-0.779130	-0.048754	22.0011	-0.776076	-2.127678E+10	2.291411E-12	NaN
276	1.000000	0.323095	7.36776e+06	-52439.1	955.819	-29749.5	0.000000	0.000000	6.322855	0.083874	NaN	0.000000	0.001586	0.001713	28.0803	0.039036	0.001938	20.1379	46.5619	-167.125	-0.014010	0.321778	-0.767758	-0.769075	0.083874	20.1379	-0.770882	-1.808416E+10	-4.637964E-12	NaN
276	1.000000	0.333115	7.36776e+06	-52439.1	955.818	-29749.5	0.000000	0.000000	6.332873	0.035767	NaN	0.000000	0.001603	0.001689	28.0806	0.131510	0.001977	66.5101	174.996	13.5227	-0.015261	0.331775	-0.757738	-0.759078	0.035767	66.5101	-0.758142	-1.213447E+10	-2.947528E-12	NaN
276	1.000000	0.343150	7.36776e+06	-52439.1	955.818	-29749.5	0.000000	0.000000	6.342911	0.102397	NaN	0.000000	0.001571	0.001724	28.0805	0.025543	0.002000	12.7691	-102.7	-163.053	0.107634	0.341841	-0.747703	-0.749012	0.102397	12.7691	-0.753718	-1.056384E+10	-9.693197E-12	NaN
276	1.000000	0.353145	7.36776e+06	-52439.1	955.818	-29749.5	0.000000	0.000000	6.352905	0.062461	NaN	0.000000	0.001609	0.001679	28.0804	0.079095	0.002025	39.0609	-69.4579	11.771	-0.012360	0.351769	-0.737708	-0.739084	0.062461	39.0609	-0.738907	-6.640052E+9	-9.406706E-12	NaN
276	1.000000	0.363153	7.36776e+06	-52439.1	955.817	-29749.5	0.000000	0.000000	6.362910	0.005664	NaN	0.000000	0.001521	0.001705	28.0801	0.013753	0.002097	6.556906	2.939416	-160.933	-0.030649	0.361790	-0.727700	-0.729063	0.005664	6.556906	-0.728348	-4.767551E+9	-1.187935E-12	NaN
276	1.000000	0.373121	7.36776e+06	-52439.1	955.819	-29749.5	0.000000	0.000000	6.372879	0.016275	NaN	0.000000	0.001593	0.001748	28.0805	0.109983	0.002000	54.9794	-22.5479	15.0988	-0.056663	0.371789	-0.717732	-0.719064	0.016275	54.9794	-0.717954	-3.440056E+9	-4.731066E-12	NaN
276	1.000000	0.383149	7.36776e+06	-52439.1	955.818	-29749.5	0.000000	0.000000	6.382907	0.028288	NaN	0.000000	0.001587	0.001735	28.0806	0.077903	0.001933	40.3042	109.602	-162.682	0.009617	0.381808	-0.707704	-0.709045	0.028288	40.3042	-0.708230	-2.534517E+9	-1.116107E-11	NaN
276	1.000000	0.393143	7.36776e+06	-52439.1	955.817	-29749.5	0.000000	0.000000	6.392902	0.034335	NaN	0.000000	0.001564	0.001710	28.0802	0.075195	0.002061	36.4866	49.3501	13.4952	0.023211	0.391786	-0.697710	-0.699067	0.034335	36.4866	-0.698416	-1.861622E+9	-1.844367E-11	NaN
276	1.000000	0.403142	7.36776e+06	-52439.1	955.819	-29749.5	0.000000	0.000000	6.402902	0.069310	NaN	0.000000	0.001586	0.001748	28.0799	0.007967	0.001928	4.131646	-19.2719	-165.925	0.041145	0.401882	-0.687711	-0.688971	0.069310	4.131646	-0.700293	-1.974828E+9	-3.509664E-11	NaN
276	1.000000	0.413145	7.36776e+06	-52439.1	955.818	-29749.5	0.000000	0.000000	6.412903	0.015004	NaN	0.000000	0.001595	0.001748	28.079	0.031043	0.001992	15.5823	-114.012	16.5568	0.019139	0.411810	-0.677708	-0.679043	0.015004	15.5823	-0.678430	-9.925091E+8	-1.511690E-11	NaN
276	1.000000	0.423154	7.36776e+06	-52439.1	955.819	-29749.5	0.000000	0.000000	6.422911	-0.007612	NaN	0.000000	0.001596	0.001732	28.0794	0.068884	0.002051	33.5933	-145.806	-167.946	-0.012243	0.421876	-0.667699	-0.668977	-0.007612	33.5933	-0.667529	-7.039881E+8	1.081210E-11	NaN
276	1.000000	0.433153	7.36776e+06	-52439.1	955.819	-29749.5	0.000000	0.000000	6.432911	0.032883	NaN	0.000000	0.001617	0.001693	28.079	0.106632	0.002131	50.0437	-96.2467	17.7537	0.025572	0.431791	-0.657700	-0.659062	0.032883	50.0437	-0.658193	-5.244618E+8	-6.269818E-11	NaN
276	1.000000	0.443162	7.36776e+06	-52439.1	955.818	-29749.5	0.000000	0.000000	6.442921	0.051757	NaN	0.000000	0.001562	0.001722	28.0789	0.111336	0.001923	57.9009	3.160342	-166.59	0.142615	0.441867	-0.647691	-0.648986	0.051757	57.9009	-0.648361	-3.845674E+8	-1.345855E-10	NaN
276	1.000000	0.453156	7.36776e+06	-52439.1	955.819	-29749.5	0.000000	0.000000	6.452915	0.030007	NaN	0.000000	0.001570	0.001723	28.0792	0.059757	0.002079	28.7363	-174.498	19.7945	-0.027951	0.451805	-0.637697	-0.639048	0.030007	28.7363	-0.638480	-2.814683E+8	-1.066075E-10	NaN
276	1.000000	0.463163	7.36776e+06	-52439.1	955.818	-29749.5	0.000000	0.000000	6.462920	0.017217	NaN	0.000000	0.001558	0.001724	28.0791	0.121662	0.002026	60.0388	-159.976	-166.33	-0.036916	0.461899	-0.627690	-0.628954	0.017217	60.0388	-0.627905	-2.014914E+8	-8.544928E-11	NaN
276	1.000000	0.473199	7.36776e+06	-52439.1	955.819	-29749.5	0.000000	0.000000	6.472958	0.062830	NaN	0.000000	0.001598	0.001696	28.079	0.045608	0.001906	23.9345	159.038	16.884	0.010170	0.471798	-0.617654	-0.619055	0.062830	23.9345	-0.619623	-1.550426E+8	-4.052444E-10	NaN
276	1.000000	0.483187	7.36776e+06	-52439.1	955.818	-29749.5	0.000000	0.000000	6.482948	0.096263	NaN	0.000000	0.001571	0.001695	28.079	0.031125	0.002003	15.5424	173.541	-165.236	0.087871	0.481875	-0.607666	-0.608978	0.096263	15.5424	-0.612311	-1.229997E+8	-7.826309E-10	NaN
276	1.000000	0.493167	7.36776e+06	-52439.1	955.818	-29749.5	0.000000	0.000000	6.492921	-0.081987	NaN	0.000000	0.001529	0.001749	28.0789	0.095811	0.002008	47.7077	-158.844	13.6559	-0.036558	0.491792	-0.597686	-0.599061	-0.081987	47.7077	-0.596397	-7.427231E+7	1.103876E-9	NaN
276	1.000000	0.503176	7.36776e+06	-52439.1	955.817	-29749.5	0.000000	0.000000	6.502934	0.021247	NaN	0.000000	0.001597	0.001715	28.0793	0.039510	0.002058	19.2006	22.7682	-167.231	0.025722	0.501915	-0.587677	-0.588938	0.021247	19.2006	-0.588506	-5.781945E+7	-3.674669E-10	NaN
276	1.000000	0.513177	7.36776e+06	-52439.1	955.818	-29749.5	0.000000	0.000000	6.512939	0.125028	NaN	0.000000	0.001593	0.001701	28.0791	0.144389	0.001905	75.7883	66.38	13.9343	0.019530	0.511839	-0.577676	-0.579014	0.125028	75.7883	-0.578914	-4.263151E+7	-2.932750E-9	NaN
276	1.000000	0.523201	7.36776e+06	-52439.1	955.818	-29749.5	0.000000	0.000000	6.522962	0.078683	NaN	0.000000	0.001587	0.001677	28.0792	0.090043	0.002003	44.9503	18.059	-161.572	0.062122	0.521904	-0.567651	-0.568949	0.078683	44.9503	-0.568964	-3.106855E+7	-2.532577E-9	NaN
276	1.000000	0.533213	7.36776e+06	-52439.1	955.818	-29749.5	0.000000	0.000000	6.532972	0.052038	NaN	0.000000	0.001592	0.001680	28.0789	0.074893	0.002125	35.2477	154.291	16.922	0.166722	0.531818	-0.557640	-0.559035	0.052038	35.2477	-0.558748	-2.244148E+7	-2.318851E-9	NaN
276	1.000000	0.543187	7.36776e+06	-52439.1	955.818	-29749.5	0.000000	0.000000	6.542943	-0.014131	NaN	0.000000	0.001605	0.001687	28.0812	0.030004	0.002025	14.8153	73.2022	-167.74	0.001620	0.541852	-0.547666	-0.549001	-0.014131	14.8153	-0.546951	-1.540693E+7	9.172023E-10	NaN
276	1.000000	0.553181	7.36776e+06	-52439.1	955.817	-29749.5	0.000000	0.000000	6.552938	0.009206	NaN	0.000000	0.001579	0.001699	28.0803	0.121777	0.001999	60.9131	-119.836	19.8895	0.025562	0.551849	-0.537672	-0.539004	0.009206	60.9131	-0.537786	-1.149850E+7	-8.006642E-10	NaN
276	1.000000	0.563202	7.36776e+06	-52439.1	955.818	-29749.5	0.000000	0.000000	6.562961	0.061747	NaN	0.000000	0.001648	0.001723	28.0805	0.019959	0.002023	9.863973	131.109	-162.47	0.006470	0.561893	-0.527651	-0.528960	0.061747	9.863973	-0.532346	-9.66389e+06	-6.389460E-9	NaN
276	1.000000	0.573215	7.36776e+06	-52439.1	955.819	-29749.5	0.000000	0.000000	6.572974	0.049947	NaN	0.000000	0.001633	0.001750	28.0804	0.052832	0.001907	27.7014	-145.639	16.8982	0.059851	0.571813	-0.517638	-0.519040	0.049947	27.7014	-0.518990	-6.30302e+06	-7.924315E-9	NaN
276	1.000000	0.583199	7.36776e+06	-52439.1	955.818	-29749.5	0.000000	0.000000	6.582956	-0.016267	NaN	0.000000	0.001648	0.001767	28.0807	0.083176	0.001878	44.285	109.998	-165.617	0.026315	0.581908	-0.507654	-0.508945	-0.016267	44.285	-0.507378	-4.34401e+06	3.744749E-9	NaN
276	1.000000	0.593209	7.36776e+06	-52439.1	955.818	-29749.5	0.000000	0.000000	6.592971	0.109656	NaN	0.000000	0.001665	0.001718	28.0804	0.077694	0.001897	40.9541	-25.5731	17	0.011201	0.591795	-0.497644	-0.499058	0.109656	40.9541	-0.499652	-3.38973e+06	-3.234946E-8	NaN
276	1.000000	0.603186	7.36776e+06	-52439.1	955.817	-29749.5	0.000000	0.000000	6.602944	0.010483	NaN	0.000000	0.001638	0.001691	28.0803	0.027331	0.002034	13.4387	148.807	-164.719	0.001107	0.601886	-0.487667	-0.488967	0.010483	13.4387	-0.488252	-2.34942e+06	-4.461835E-9	NaN
276	1.000000	0.613228	7.36776e+06	-52439.1	955.819	-29749.5	0.000000	0.000000	6.612987	0.063057	NaN	0.000000	0.001650	0.001718	28.081	0.157184	0.002118	74.2028	-23.0986	19.147	0.035149	0.611859	-0.477625	-0.478994	0.063057	74.2028	-0.478263	-1.70295e+06	-3.702824E-8	NaN
276	1.000000	0.623236	7.36776e+06	-52439.1	955.816	-29749.5	0.000000	0.000000	6.622994	0.008333	NaN	0.000000	0.001669	0.001719	28.0805	0.101896	0.001956	52.1047	-136.735	-164.548	0.068019	0.621946	-0.467617	-0.468907	0.008333	52.1047	-0.467737	-1.21243e+06	-6.872770E-9	NaN
276	1.000000	0.633242	7.36776e+06	-52439.1	955.818	-29749.5	0.000000	0.000000	6.632999	0.012246	NaN	0.000000	0.001649	0.001685	28.0807	0.086431	0.002014	42.922	-70.6721	11.8333	0.014022	0.631876	-0.457611	-0.458977	0.012246	42.922	-0.457825	-879938	-1.391734E-8	NaN
276	1.000000	0.643242	7.36776e+06	-52439.1	955.818	-29749.5	0.000000	0.000000	6.643002	0.084319	NaN	0.000000	0.001653	0.001677	28.0806	0.056778	0.001900	29.8905	-63.9394	-162.842	0.083912	0.641937	-0.447611	-0.448916	0.084319	29.8905	-0.449727	-676859	-1.245739E-7	NaN
276	1.000000	0.653244	7.36776e+06	-52439.1	955.818	-29749.5	0.000000	0.000000	6.653002	0.021693	NaN	0.000000	0.001591	0.001678	28.0807	0.068221	0.002012	33.9117	106.08	16.51	0.068978	0.651908	-0.437609	-0.438945	0.021693	33.9117	-0.438088	-463851	-4.676824E-8	NaN
276	1.000000	0.663231	7.36776e+06	-52439.1	955.819	-29749.5	0.000000	0.000000	6.662990	0.054465	NaN	0.000000	0.001560	0.001663	28.0804	0.034857	0.002100	16.5991	-178.554	-165.388	0.062891	0.661925	-0.427622	-0.428928	0.054465	16.5991	-0.430083	-357465	-1.523648E-7	NaN
276	1.000000	0.673245	7.36776e+06	-52439.1	955.818	-29749.5	0.000000	0.000000	6.673006	0.103920	NaN	0.000000	0.001574	0.001678	28.0803	0.118304	0.002039	58.0139	143.577	15.5962	0.191829	0.671906	-0.417608	-0.418947	0.103920	58.0139	-0.418952	-248625	-4.179800E-7	NaN
276	1.000000	0.683232	7.36776e+06	-52439.1	955.818	-29749.5	0.000000	0.000000	6.682991	0.056195	NaN	0.000000	0.001639	0.001691	28.0791	0.092075	0.001996	46.1249	90.7398	-166.864	0.056026	0.681907	-0.407621	-0.408946	0.056195	46.1249	-0.408535	-176833	-3.177862E-7	NaN
276	1.000000	0.693223	7.36776e+06	-52439.1	955.819	-29749.5	0.000000	0.000000	6.692982	0.042271	NaN	0.000000	0.001666	0.001695	28.0793	0.099902	0.001962	50.9117	172.007	15.3852	0.041049	0.691913	-0.397630	-0.398940	0.042271	50.9117	-0.398253	-126203	-3.349449E-7	NaN
276	1.000000	0.703261	7.36776e+06	-52439.1	955.818	-29749.5	0.000000	0.000000	6.703021	0.080870	NaN	0.000000	0.001624	0.001716	28.0791	0.023105	0.001995	11.5826	93.6342	-162.464	0.093256	0.701983	-0.387592	-0.388870	0.080870	11.5826	-0.392829	-105588	-7.659077E-7	NaN
276	1.000000	0.713283	7.36776e+06	-52439.1	955.818	-29749.5	0.000000	0.000000	6.713041	0.026266	NaN	0.000000	0.001659	0.001706	28.0792	0.030877	0.001831	16.8609	-57.5686	16.7778	0.030909	0.711950	-0.377570	-0.378903	0.026266	16.8609	-0.378739	-66341	-3.959168E-7	NaN
276	1.000000	0.723279	7.36776e+06	-52439.1	955.818	-29749.5	0.000000	0.000000	6.723037	0.019444	NaN	0.000000	0.001635	0.001703	28.0795	0.070243	0.002064	34.0357	24.868	-165.472	0.145987	0.721945	-0.367574	-0.368908	0.019444	34.0357	-0.368002	-46488.8	-4.182452E-7	NaN
276	1.000000	0.733286	7.36776e+06	-52439.1	955.818	-29749.5	0.000000	0.000000	6.733045	0.049844	NaN	0.000000	0.001677	0.001672	28.0797	0.060075	0.001998	30.0603	71.1852	16.0977	0.108113	0.731909	-0.357567	-0.358944	0.049844	30.0603	-0.358811	-34249.3	-1.455332E-6	NaN
276	1.000000	0.743251	7.36776e+06	-52439.1	955.818	-29749.5	0.000000	0.000000	6.743009	0.015433	NaN	0.000000	0.001670	0.001699	28.0795	0.171568	0.001944	88.2582	74.4517	-163.455	0.014270	0.741981	-0.347602	-0.348872	0.015433	88.2582	-0.347733	-23664	-6.521573E-7	NaN
276	1.000000	0.753285	7.36776e+06	-52439.1	955.818	-29749.5	0.000000	0.000000	6.753044	0.061167	NaN	0.000000	0.001593	0.001713	28.0795	0.086475	0.002038	42.4347	166.51	13.8628	0.013317	0.751915	-0.337568	-0.338938	0.061167	42.4347	-0.338649	-17452.6	-3.504763E-6	NaN
276	1.000000	0.763310	7.36776e+06	-52439.1	955.819	-29749.5	0.000000	0.000000	6.763069	0.038692	NaN	0.000000	0.001622	0.001685	28.0792	0.110884	0.002002	55.3926	114.692	-165.279	0.036644	0.761960	-0.327543	-0.328893	0.038692	55.3926	-0.328067	-12221.5	-3.165855E-6	NaN
276	1.000000	0.773299	7.36776e+06	-52439.1	955.818	-29749.5	0.000000	0.000000	6.773054	-0.038665	NaN	0.000000	0.001651	0.001713	28.0798	0.035975	0.002087	17.235	101.412	11.8922	-0.019576	0.771922	-0.317554	-0.318931	-0.038665	17.235	-0.315872	-8087.43	4.780925E-6	NaN
276	1.000000	0.783292	7.36776e+06	-52439.1	955.818	-29749.5	0.000000	0.000000	6.783053	0.100262	NaN	0.000000	0.001613	0.001703	28.0797	0.040771	0.001967	20.7294	118.171	-165.495	0.174571	0.782020	-0.307561	-0.308833	0.100262	20.7294	-0.311188	-6896.63	-1.453781E-5	NaN
276	1.000000	0.793319	7.36776e+06	-52439.1	955.818	-29749.5	0.000000	0.000000	6.793079	0.073899	NaN	0.000000	0.001610	0.001701	28.0796	0.041713	0.001951	21.3843	18.3727	13.8846	0.143796	0.791993	-0.297534	-0.298860	0.073899	21.3843	-0.300126	-4726.14	-1.563613E-5	NaN
276	1.000000	0.803303	7.36776e+06	-52439.1	955.817	-29749.5	0.000000	0.000000	6.803063	0.083390	NaN	0.000000	0.001589	0.001707	28.0794	0.083848	0.002164	38.7434	-83.1014	-167.954	0.073093	0.801992	-0.287550	-0.288861	0.083390	38.7434	-0.289164	-3241.75	-2.572389E-5	NaN
276	1.000000	0.813320	7.36776e+06	-52439.1	955.819	-29749.5	0.000000	0.000000	6.813079	0.039426	NaN	0.000000	0.001607	0.001708	28.0804	0.070601	0.002047	34.483	159.118	11.487	0.033916	0.811960	-0.277533	-0.278893	0.039426	34.483	-0.278390	-2231.87	-1.766499E-5	NaN
276	1.000000	0.823309	7.36776e+06	-52439.1	955.819	-29749.5	0.000000	0.000000	6.823065	-0.033393	NaN	0.000000	0.001592	0.001661	28.0805	0.089992	0.002008	44.8257	35.8853	-165.326	0.004586	0.821995	-0.267544	-0.268857	-0.033393	44.8257	-0.266985	-1498.53	2.228396E-5	NaN
276	1.000000	0.833336	7.36776e+06	-52439.1	955.818	-29749.5	0.000000	0.000000	6.833096	0.053515	NaN	0.000000	0.001563	0.001648	28.0806	0.025287	0.001963	12.8826	-58.0408	12.8622	0.089016	0.831988	-0.257517	-0.258865	0.053515	12.8826	-0.260632	-1198.41	-4.465488E-5	NaN
276	1.000000	0.843334	7.36776e+06	-52439.1	955.819	-29749.5	0.000000	0.000000	6.843095	0.093398	NaN	0.000000	0.001622	0.001693	28.0806	0.088592	0.001862	47.5791	9.776554	-166.286	0.084274	0.842035	-0.247519	-0.248818	0.093398	47.5791	-0.248991	-793.156	-0.000118	NaN
276	1.000000	0.853351	7.36776e+06	-52439.1	955.818	-29749.5	0.000000	0.000000	6.853107	-0.016141	NaN	0.000000	0.001605	0.001704	28.0808	0.040869	0.002120	19.2801	146.239	15.2606	-0.062974	0.851953	-0.237502	-0.238900	-0.016141	19.2801	-0.236874	-513.631	3.142584E-5	NaN
276	1.000000	0.863337	7.36776e+06	-52439.1	955.818	-29749.5	0.000000	0.000000	6.863093	-0.035578	NaN	0.000000	0.001560	0.001708	28.0802	0.019005	0.002046	9.287215	-175.711	-164.03	-0.074798	0.862060	-0.227516	-0.228793	-0.035578	9.287215	-0.224643	-329.351	0.000108	NaN
276	1.000000	0.873318	7.36776e+06	-52439.1	955.818	-29749.5	0.000000	0.000000	6.873078	0.060731	NaN	0.000000	0.001596	0.001737	28.0803	0.010777	0.002091	5.153807	120.574	11.4566	0.145303	0.871930	-0.217535	-0.218923	0.060731	5.153807	-0.226372	-350.845	-0.000173	NaN
276	1.000000	0.883335	7.36776e+06	-52439.1	955.818	-29749.5	0.000000	0.000000	6.883096	0.082866	NaN	0.000000	0.001578	0.001731	28.0807	0.045662	0.002015	22.6614	111.413	-165.018	0.097338	0.882025	-0.207518	-0.208828	0.082866	22.6614	-0.210260	-193.658	-0.000428	NaN
276	1.000000	0.893338	7.36776e+06	-52439.1	955.818	-29749.5	0.000000	0.000000	6.893098	0.059693	NaN	0.000000	0.001570	0.001696	28.0804	0.087496	0.002071	42.2555	135.162	14.4608	-0.008479	0.891955	-0.197515	-0.198898	0.059693	42.2555	-0.198574	-124.808	-0.000478	NaN
276	1.000000	0.903339	7.36776e+06	-52439.1	955.818	-29749.5	0.000000	0.000000	6.903097	0.020587	NaN	0.000000	0.001559	0.001671	28.0802	0.088036	0.002111	41.7006	-164.099	-167.46	0.058361	0.902041	-0.187514	-0.188812	0.020587	41.7006	-0.187884	-82.9115	-0.000248	NaN
276	1.000000	0.913371	7.36776e+06	-52439.1	955.818	-29749.5	0.000000	0.000000	6.913130	0.050062	NaN	0.000000	0.001556	0.001709	28.0805	0.019696	0.002098	9.386233	24.8241	16.0663	0.118495	0.911981	-0.177482	-0.178872	0.050062	9.386233	-0.181482	-64.6617	-0.000774	NaN
276	1.000000	0.923363	7.36776e+06	-52439.1	955.817	-29749.5	0.000000	0.000000	6.923124	0.080816	NaN	0.000000	0.001562	0.001698	28.0806	0.036368	0.001979	18.3792	-118.876	-161.306	0.022844	0.922055	-0.167490	-0.168798	0.080816	18.3792	-0.170787	-42.3912	-0.001906	NaN
276	1.000000	0.933370	7.36776e+06	-52439.1	955.817	-29749.5	0.000000	0.000000	6.933126	-0.019683	NaN	0.000000	0.001542	0.001716	28.0804	0.092178	0.001915	48.1293	-12.8098	12.6821	0.013451	0.931959	-0.157483	-0.158894	-0.019683	48.1293	-0.157176	-24.4135	0.000806	NaN
276	1.000000	0.943381	7.36776e+06	-52439.1	955.819	-29749.5	0.000000	0.000000	6.943138	-0.006503	NaN	0.000000	0.001546	0.001727	28.0806	0.087733	0.001943	45.1423	1.551178	-167.165	0.085486	0.942065	-0.147472	-0.148788	-0.006503	45.1423	-0.147364	-16.2089	0.000401	NaN
276	1.000000	0.953377	7.36776e+06	-52439.1	955.817	-29749.5	0.000000	0.000000	6.953135	0.026234	NaN	0.000000	0.001578	0.001693	28.0793	0.018364	0.001907	9.629203	-111.649	15.2112	0.050343	0.951976	-0.137476	-0.138877	0.026234	9.629203	-0.139519	-11.5858	-0.002264	NaN
276	1.000000	0.963364	7.36776e+06	-52439.1	955.817	-29749.5	0.000000	0.000000	6.963125	0.103011	NaN	0.000000	0.001542	0.001648	28.0795	0.080685	0.002061	39.1518	19.0849	-165.175	0.098803	0.962106	-0.127489	-0.128747	0.103011	39.1518	-0.129463	-7.439842	-0.013846	NaN
276	1.000000	0.973384	7.36776e+06	-52439.1	955.819	-29749.5	0.000000	0.000000	6.973142	0.020645	NaN	0.000000	0.001554	0.001689	28.0794	0.026614	0.001984	13.4121	-48.3459	16.2084	0.042256	0.972002	-0.117469	-0.118851	0.020645	13.4121	-0.118623	-4.531222	-0.004556	NaN
276	1.000000	0.983407	7.36776e+06	-52439.1	955.818	-29749.5	0.000000	0.000000	6.983166	0.048838	NaN	0.000000	0.001538	0.001676	28.0795	0.053210	0.001968	27.0344	-114.993	-167.255	-0.008868	0.982086	-0.107446	-0.108767	0.048838	27.0344	-0.108801	-2.834807	-0.017228	NaN
276	1.000000	0.993406	7.36776e+06	-52439.1	955.818	-29749.5	0.000000	0.000000	6.993164	0.033976	NaN	0.000000	0.001618	0.001725	28.0793	0.055632	0.002047	27.1793	124.734	15.7768	0.085523	0.992014	-0.097447	-0.098839	0.033976	27.1793	-0.098385	-1.681941	-0.020200	NaN
276	1.000000	1.003391	7.36776e+06	-52439.1	955.818	-29749.5	0.000000	0.000000	7.003152	0.108991	NaN	0.000000	0.001589	0.001702	28.0794	0.071442	0.002010	35.5479	-135.885	-164.995	0.105953	1.002092	-0.087462	-0.088761	0.108991	35.5479	-0.089762	-1.067153	-0.102132	NaN
276	1.000000	1.013401	7.36776e+06	-52439.1	955.818	-29749.5	0.000000	0.000000	7.013160	0.047698	NaN	0.000000	0.001555	0.001700	28.0792	0.032501	0.001988	16.3484	100.588	13.4925	0.004180	1.012019	-0.077452	-0.078834	0.047698	16.3484	-0.079641	-0.606302	-0.078671	NaN
276	1.000000	1.023388	7.36776e+06	-52439.1	955.818	-29749.5	0.000000	0.000000	7.023148	0.069549	NaN	0.000000	0.001571	0.001707	28.0794	0.087768	0.002084	42.1126	147.826	-166.559	0.107888	1.022135	-0.067465	-0.068718	0.069549	42.1126	-0.068704	-0.314778	-0.220947	NaN
276	1.000000	1.033417	7.36776e+06	-52439.1	955.817	-29749.5	0.000000	0.000000	7.033175	0.029208	NaN	0.000000	0.001558	0.001693	28.0792	0.050457	0.001919	26.298	-74.2878	12.9264	0.060511	1.032059	-0.057436	-0.058794	0.029208	26.298	-0.058269	-0.160533	-0.181945	NaN
276	1.000000	1.043432	7.36776e+06	-52439.1	955.819	-29749.5	0.000000	0.000000	7.043190	0.012306	NaN	0.000000	0.001561	0.001702	28.0796	0.035802	0.002034	17.5989	26.7318	-165.87	0.026995	1.042077	-0.047421	-0.048776	0.012306	17.5989	-0.047945	-0.079048	-0.155683	NaN
276	1.000000	1.053404	7.36776e+06	-52439.1	955.818	-29749.5	0.000000	0.000000	7.053160	-0.021083	NaN	0.000000	0.001558	0.001740	28.0795	0.049335	0.002002	24.6435	-55.8484	14.8429	-0.003681	1.052067	-0.037449	-0.038786	-0.021083	24.6435	-0.036807	-0.036233	0.581862	NaN
276	1.000000	1.063386	7.36776e+06	-52439.1	955.817	-29749.5	0.000000	0.000000	7.063144	0.005977	NaN	0.000000	0.001521	0.001707	28.0794	0.036083	0.002024	17.8233	-62.9168	-167.98	-0.005592	1.062095	-0.027467	-0.028757	0.005977	17.8233	-0.027718	-0.019922	-0.300017	NaN
276	1.000000	1.073411	7.36776e+06	-52439.1	955.817	-29749.5	0.000000	0.000000	7.073169	0.020572	NaN	0.000000	0.001536	0.001677	28.0795	0.075896	0.001960	38.7273	-84.397	9.918837	-0.026310	1.072043	-0.017442	-0.018810	0.020572	38.7273	-0.017841	-0.011057	-1.860605	NaN
276	1.000000	1.083420	7.36776e+06	-52439.1	955.817	-29749.5	0.000000	0.000000	7.083177	-0.006297	NaN	0.000000	0.001557	0.001684	28.0792	0.030759	0.001999	15.3875	53.9594	-168.323	0.007102	1.082039	-0.007433	-0.008814	-0.006297	15.3875	-0.007126	-0.004716	1.335339	NaN
276	1.000000	1.093385	7.36776e+06	-52439.1	955.818	-29749.5	0.000000	0.000000	7.093200	1.398676	NaN	0.000000	0.001524	0.001704	28.0803	2.097055	0.001949	1075.72	10.9986	10.6053	0.462550	1.092104	0.002533	0.001251	1.398676	1075.72	0.001557	0.001200	1165.56	28371.5
276	2.000000	1.101145	7.36776e+06	-52439.1	955.819	-29749.5	0.000000	0.000000	7.101254	8.556119	NaN	0.000000	0.001511	0.001674	28.0805	9.120282	0.001641	5556.15	9.274844	-174.136	8.968337	1.100818	0.010293	0.009965	8.556119	5556.15	0.009138	0.008239	1038.53	55926.5
276	2.000000	1.103561	7.36776e+06	-52439.1	955.817	-29749.5	0.000000	0.000000	7.103788	11.4294	NaN	0.000000	0.001570	0.001690	28.0808	12.2008	0.001784	6838.91	9.752284	2.522663	10.2143	1.103231	0.012708	0.012378	11.4294	6838.91	0.011454	0.010843	1054.11	60005.5
276	2.000000	1.106075	7.36776e+06	-52439.1	955.818	-29749.5	0.000000	0.000000	7.106487	15.9214	NaN	0.000000	0.001569	0.001720	28.0803	15.3155	0.001743	8785.62	5.492080	-175.098	14.9028	1.105779	0.015222	0.014926	15.9214	8785.62	0.013863	0.013799	1153.85	68332.9
276	2.000000	1.108600	7.36776e+06	-52439.1	955.818	-29749.5	0.000000	0.000000	7.109213	20.8175	NaN	0.000000	0.001549	0.001700	28.0805	17.5271	0.001798	9747.19	4.924734	5.768194	19.6308	1.108177	0.017747	0.017324	20.8175	9747.19	0.016145	0.016843	1235.99	68619.1
276	2.000000	1.111046	7.36776e+06	-52439.1	955.816	-29749.5	0.000000	0.000000	7.111874	26.0515	NaN	0.000000	0.001539	0.001688	28.0803	20.3199	0.001790	11352.9	7.814695	-179.895	24.7702	1.110734	0.020193	0.019881	26.0515	11352.9	0.018472	0.020197	1289.85	72985.2
276	2.000000	1.113464	7.36776e+06	-52439.1	955.816	-29749.5	0.000000	0.000000	7.114553	32.4045	NaN	0.000000	0.001553	0.001684	28.0806	22.2084	0.001629	13636.7	-0.661087	5.040886	28.0158	1.113167	0.022611	0.022314	32.4045	13636.7	0.020828	0.023861	1358.06	80656.6
276	2.000000	1.116067	7.36776e+06	-52439.1	955.817	-29749.5	0.000000	0.000000	7.117135	31.8964	NaN	0.000000	0.001596	0.001696	28.0804	25.9978	0.001914	13583.5	7.558127	178.97	31.9282	1.115734	0.025214	0.024881	31.8964	13583.5	0.023452	0.028260	1128.66	73823.8
276	2.000000	1.118559	7.36776e+06	-52439.1	955.817	-29749.5	0.000000	0.000000	7.120117	43.7829	NaN	0.000000	0.001534	0.001706	28.0804	27.7294	0.001844	15040.6	9.242650	-2.793232	44.2288	1.118097	0.027706	0.027244	43.7829	15040.6	0.025523	0.031974	1369.32	76848.8
276	2.000000	1.121044	7.36776e+06	-52439.1	955.818	-29749.5	0.000000	0.000000	7.123014	53.8054	NaN	0.000000	0.001575	0.001684	28.0806	29.5671	0.001807	16365.9	2.984705	-178.3	53.6596	1.120619	0.030191	0.029766	53.8054	16365.9	0.027725	0.036160	1487.98	78631.8
276	2.000000	1.123457	7.36776e+06	-52439.1	955.817	-29749.5	0.000000	0.000000	7.125496	55.4963	NaN	0.000000	0.001594	0.001689	28.0805	32.0301	0.001835	17454.2	4.530980	-0.134384	51.4635	1.123019	0.032604	0.032166	55.4963	17454.2	0.030219	0.041199	1347.04	78565.3
276	2.000000	1.125988	7.36776e+06	-52439.1	955.818	-29749.5	0.000000	0.000000	7.128255	61.0064	NaN	0.000000	0.001555	0.001681	28.0805	34.897	0.001828	19091.7	4.429394	178.313	58.6344	1.125808	0.035135	0.034955	61.0064	19091.7	0.032739	0.046612	1308.81	80792
276	2.000000	1.128486	7.36776e+06	-52439.1	955.817	-29749.5	0.000000	0.000000	7.130874	63.9591	NaN	0.000000	0.001546	0.001708	28.0803	36.8261	0.001802	20435.6	5.995857	-3.219382	60.189	1.128207	0.037633	0.037354	63.9591	20435.6	0.035286	0.052414	1220.27	81552.6
276	2.000000	1.130982	7.36776e+06	-52439.1	955.817	-29749.5	0.000000	0.000000	7.133927	77.5097	NaN	0.000000	0.001570	0.001741	28.08	39.4519	0.001854	21275.2	6.434901	176.108	77.1827	1.130692	0.040129	0.039839	77.5097	21275.2	0.037396	0.057473	1348.62	81080
276	2.000000	1.133533	7.36776e+06	-52439.1	955.817	-29749.5	0.000000	0.000000	7.136908	87.9553	NaN	0.000000	0.001585	0.001708	28.0795	42.0759	0.001848	22765.1	7.883515	-6.349747	89.4747	1.133173	0.042680	0.042320	87.9553	22765.1	0.039783	0.063468	1385.82	82559.2
276	2.000000	1.135902	7.36776e+06	-52439.1	955.817	-29749.5	0.000000	0.000000	7.139673	97.5981	NaN	0.000000	0.001569	0.001705	28.0794	44.2412	0.001741	25416	5.281142	175.451	92.1452	1.135605	0.045049	0.044752	97.5981	25416	0.042169	0.069754	1399.18	87922
276	2.000000	1.138477	7.36776e+06	-52439.1	955.817	-29749.5	0.000000	0.000000	7.142838	111.943	NaN	0.000000	0.001566	0.001718	28.0792	46.023	0.001784	25796.2	6.271356	-4.261979	109.587	1.138184	0.047624	0.047331	111.943	25796.2	0.044369	0.075807	1476.7	85600.3
276	2.000000	1.140970	7.36776e+06	-52439.1	955.819	-29749.5	0.000000	0.000000	7.145768	122.57	NaN	0.000000	0.001534	0.001701	28.0793	48.1071	0.001818	26461	4.708045	176.149	122.265	1.140613	0.050117	0.049760	122.57	26461	0.046643	0.082319	1488.95	84261.3
276	2.000000	1.143480	7.36776e+06	-52439.1	955.819	-29749.5	0.000000	0.000000	7.148618	130.825	NaN	0.000000	0.001600	0.001729	28.0791	51.0442	0.001864	27387.3	4.408011	-2.681016	131.855	1.143050	0.052627	0.052197	130.825	27387.3	0.049045	0.089483	1462.01	83647.4
276	2.000000	1.145929	7.36776e+06	-52439.1	955.818	-29749.5	0.000000	0.000000	7.151351	137.725	NaN	0.000000	0.001560	0.001707	28.079	53.2488	0.001838	28967	2.591658	176.603	134.388	1.145819	0.055076	0.054966	137.725	28967	0.051511	0.097139	1417.81	84914
276	2.000000	1.148507	7.36776e+06	-52439.1	955.817	-29749.5	0.000000	0.000000	7.154615	154.427	NaN	0.000000	0.001574	0.001695	28.0791	54.1057	0.001701	31811.3	4.354814	-5.002588	153.153	1.148146	0.057654	0.057293	154.427	31811.3	0.054013	0.105220	1467.66	89599.3
276	2.000000	1.150995	7.36776e+06	-52439.1	955.816	-29749.5	0.000000	0.000000	7.157497	164.013	NaN	0.000000	0.001550	0.001705	28.0795	55.9072	0.001855	30137.4	2.292489	178.324	164.15	1.150647	0.060142	0.059794	164.013	30137.4	0.056060	0.112061	1463.61	82253
276	2.000000	1.153467	7.36776e+06	-52439.1	955.817	-29749.5	0.000000	0.000000	7.160717	182.188	NaN	0.000000	0.001579	0.001670	28.0793	59.4056	0.001774	33494.2	8.888491	-9.657117	179.717	1.153026	0.062614	0.062173	182.188	33494.2	0.058535	0.120606	1510.6	88116.8
276	2.000000	1.155931	7.36776e+06	-52439.1	955.817	-29749.5	0.000000	0.000000	7.163470	189.194	NaN	0.000000	0.001555	0.001667	28.0793	62.4665	0.001768	35332.3	6.056303	172.317	187.592	1.155676	0.065078	0.064823	189.194	35332.3	0.061062	0.129645	1459.33	89653.4
276	2.000000	1.158401	7.36776e+06	-52439.1	955.818	-29749.5	0.000000	0.000000	7.166594	205.107	NaN	0.000000	0.001562	0.001667	28.0795	63.28	0.001779	35573.1	6.572794	-7.828729	198.943	1.157998	0.067548	0.067145	205.107	35573.1	0.063224	0.137621	1490.38	87609.9
276	2.000000	1.161017	7.36776e+06	-52439.1	955.816	-29749.5	0.000000	0.000000	7.169536	213.036	NaN	0.000000	0.001585	0.001682	28.0795	66.2643	0.001732	38248.8	6.465095	170.774	216.559	1.160644	0.070164	0.069791	213.036	38248.8	0.065987	0.148148	1438	90791
276	2.000000	1.163375	7.36776e+06	-52439.1	955.816	-29749.5	0.000000	0.000000	7.172719	233.107	NaN	0.000000	0.001560	0.001659	28.0794	69.4346	0.001828	37982.4	5.942347	-8.576482	227.538	1.163037	0.072522	0.072184	233.107	37982.4	0.067919	0.155724	1496.92	87938.3
276	2.000000	1.165958	7.36776e+06	-52439.1	955.817	-29749.5	0.000000	0.000000	7.176132	253.269	NaN	0.000000	0.001550	0.001672	28.0806	71.8571	0.001849	38870.3	8.444512	169.522	253.364	1.165744	0.075105	0.074891	253.269	38870.3	0.070219	0.164978	1535.17	87433.4
276	2.000000	1.168479	7.36776e+06	-52439.1	955.817	-29749.5	0.000000	0.000000	7.179349	270.196	NaN	0.000000	0.001574	0.001687	28.0809	72.8785	0.001807	40336.6	4.546269	-6.363807	269.009	1.168058	0.077626	0.077205	270.196	40336.6	0.072602	0.174835	1545.43	88137.1
276	2.000000	1.170943	7.36776e+06	-52439.1	955.816	-29749.5	0.000000	0.000000	7.182161	278.669	NaN	0.000000	0.001557	0.001682	28.0806	75.2019	0.001840	40874.4	3.120409	173.993	276.877	1.170738	0.080090	0.079885	278.669	40874.4	0.074977	0.184919	1506.98	86842.7
276	2.000000	1.173449	7.36776e+06	-52439.1	955.817	-29749.5	0.000000	0.000000	7.185711	304.049	NaN	0.000000	0.001553	0.001684	28.0809	76.9331	0.001780	43230	3.367075	-6.227699	301.339	1.173084	0.082596	0.082231	304.049	43230	0.077321	0.195136	1558.13	89410.6
276	2.000000	1.175955	7.36776e+06	-52439.1	955.816	-29749.5	0.000000	0.000000	7.188812	318.524	NaN	0.000000	0.001589	0.001734	28.0807	80.8533	0.001813	44601.8	4.071967	172.242	317.304	1.175611	0.085102	0.084758	318.524	44601.8	0.079746	0.205977	1546.4	89787.5
276	2.000000	1.178415	7.36776e+06	-52439.1	955.817	-29749.5	0.000000	0.000000	7.191889	333.512	NaN	0.000000	0.001559	0.001706	28.081	81.6184	0.001712	47688	5.311128	-9.646305	329.929	1.178248	0.087563	0.087395	333.512	47688	0.082317	0.217771	1531.48	93364.7
276	2.000000	1.181036	7.36776e+06	-52439.1	955.817	-29749.5	0.000000	0.000000	7.195079	347.359	NaN	0.000000	0.001578	0.001734	28.0805	83.1717	0.001694	49105.8	6.251838	169.635	353.266	1.180614	0.090183	0.089761	347.359	49105.8	0.084878	0.229820	1511.44	93586.3
276	2.000000	1.183538	7.36776e+06	-52439.1	955.817	-29749.5	0.000000	0.000000	7.198106	360.113	NaN	0.000000	0.001531	0.001712	28.0805	86.5023	0.001799	48074.5	2.743030	-6.800015	361.693	1.183194	0.092685	0.092341	360.113	48074.5	0.087067	0.240360	1498.22	89589.5
276	2.000000	1.185877	7.36776e+06	-52439.1	955.816	-29749.5	0.000000	0.000000	7.201321	381.43	NaN	0.000000	0.001566	0.001719	28.0805	88.7759	0.001763	50361.1	3.858960	171.703	376.743	1.185533	0.095024	0.094680	381.43	50361.1	0.089344	0.251557	1516.28	91738.3
276	2.000000	1.188453	7.36776e+06	-52439.1	955.817	-29749.5	0.000000	0.000000	7.204774	402.751	NaN	0.000000	0.001573	0.001709	28.0811	89.3858	0.001711	52232	1.349097	-5.572993	401.618	1.188060	0.097600	0.097207	402.751	52232	0.091817	0.263990	1525.63	92878.7
276	2.000000	1.190897	7.36776e+06	-52439.1	955.816	-29749.5	0.000000	0.000000	7.207793	416.718	NaN	0.000000	0.001613	0.001724	28.0805	92.3295	0.001817	50820.4	1.768409	173.413	414.58	1.190607	0.100044	0.099754	416.718	50820.4	0.093894	0.274650	1517.27	88597.4
276	2.000000	1.193425	7.36776e+06	-52439.1	955.817	-29749.5	0.000000	0.000000	7.211256	439.44	NaN	0.000000	0.001620	0.001747	28.0806	95.9521	0.001803	53207.5	0.742658	-5.632013	438.008	1.193036	0.102572	0.102183	439.44	53207.5	0.096378	0.287653	1527.67	90638.2
276	2.000000	1.195935	7.36776e+06	-52439.1	955.816	-29749.5	0.000000	0.000000	7.214526	457.937	NaN	0.000000	0.001580	0.001741	28.0806	99.7606	0.001848	53981	5.779923	169.263	458.176	1.195579	0.105082	0.104726	457.937	53981	0.098720	0.300170	1525.59	90018.2
276	2.000000	1.198416	7.36776e+06	-52439.1	955.817	-29749.5	0.000000	0.000000	7.217574	471.709	NaN	0.000000	0.001561	0.001718	28.0808	101.421	0.001905	53229.3	5.968269	-10.6269	468.195	1.198174	0.107563	0.107321	471.709	53229.3	0.100917	0.312142	1511.2	87045.8
276	2.000000	1.198899	7.36776e+06	-52439.1	955.817	-29749.5	0.000000	0.000000	7.218287	477.315	NaN	0.000000	0.001590	0.001713	28.0802	102.961	0.001855	55516.3	7.015231	167.369	475.233	1.198582	0.108046	0.107729	477.315	55516.3	0.101598	0.315894	1511	90245