File: remote_trans/data/nanoindenter/0828-1/data/Data_2025-08-06,11h17m57s/2025-07-22_16-23-58_1_789.txt
2025-07-22, 16:23:58, 1
Index	Phase	Displacement	Time	Pos X	Pos Y	Pos Z	Rot A	Rot B	Piezo Z	Force A	Force B	Gripper	Voltage A	Voltage B	Temperature	Amplitude force	Amplitude pos	Stiffness	Phase shift	Phase excitation	Force A raw	Displacement raw	HMax	HMax raw	Real Force	Real Stiffness	Contact Depth	Area	Hardness	Reduced Mod.
[#]	[#]	[um]	[s]	[um]	[um]	[um]	[m°]	[m°]	[um]	[uN]	[uN]	[V]	[V]	[V]	[°C]	[uN]	[um]	[N/m]	[°]	[°]	[uN]	[um]	[um]	[um]	[uN]	[N/m]	[um]	[um^2]	[MPa]	[MPa]
789	1.000000	0.002755	7.37277e+06	-39589.1	1055.82	-29793.3	0.000000	0.000000	6.002766	-0.054173	NaN	0.000000	0.001550	0.001744	28.0825	0.117028	0.000880	132.936	38.0719	-170.828	-0.081051	0.001581	-1.073803	-1.074977	-0.054173	132.936	-1.073498	-2.208910E+14	2.452472E-16	NaN
789	1.000000	0.010744	7.37277e+06	-39589.1	1055.82	-29793.3	0.000000	0.000000	6.010757	-0.001979	NaN	0.000000	0.001570	0.001720	28.0825	0.083360	0.000906	91.9797	58.5388	-156.738	0.080949	0.009506	-1.065814	-1.067052	-0.001979	91.9797	-1.065798	-1.740734E+14	1.137054E-17	NaN
789	1.000000	0.018701	7.37277e+06	-39589.1	1055.82	-29793.3	0.000000	0.000000	6.018714	-0.022109	NaN	0.000000	0.001583	0.001681	28.0825	0.017819	0.001814	9.822082	-162.753	-170.993	-0.009362	0.017343	-1.057857	-1.059215	-0.022109	9.822082	-1.056169	-1.292199E+14	1.710969E-16	NaN
789	1.000000	0.026745	7.37277e+06	-39589.1	1055.82	-29793.3	0.000000	0.000000	6.026756	-0.069001	NaN	0.000000	0.001546	0.001676	28.0811	0.068636	0.001929	35.5765	-30.4815	-163.191	-0.004944	0.025453	-1.049813	-1.051105	-0.069001	35.5765	-1.048358	-1.014720E+14	6.800041E-16	NaN
789	1.000000	0.034721	7.37277e+06	-39589.1	1055.82	-29793.3	0.000000	0.000000	6.034732	-0.078512	NaN	0.000000	0.001585	0.001697	28.0809	0.064068	0.001956	32.7477	-138.258	-167.09	-0.125016	0.033439	-1.041837	-1.043119	-0.078512	32.7477	-1.040039	-7.843118E+13	1.001035E-15	NaN
789	1.000000	0.042717	7.37277e+06	-39589.1	1055.82	-29793.3	0.000000	0.000000	6.042731	0.017382	NaN	0.000000	0.001591	0.001780	28.0812	0.052650	0.001959	26.8817	-143.15	-169.483	0.044201	0.041428	-1.033841	-1.035130	0.017382	26.8817	-1.034326	-6.571534E+13	-2.644990E-16	NaN
789	1.000000	0.050720	7.37277e+06	-39589.1	1055.82	-29793.3	0.000000	0.000000	6.050734	0.009408	NaN	0.000000	0.001587	0.001744	28.0809	0.033722	0.001971	17.1055	101.479	-169.198	0.083468	0.049447	-1.025838	-1.027111	0.009408	17.1055	-1.026251	-5.117348E+13	-1.838487E-16	NaN
789	1.000000	0.058717	7.37277e+06	-39589.1	1055.82	-29793.3	0.000000	0.000000	6.058726	-0.094166	NaN	0.000000	0.001611	0.001710	28.0811	0.099800	0.002099	47.5374	146.229	-165.581	-0.052793	0.057398	-1.017841	-1.019160	-0.094166	47.5374	-1.016356	-3.766317E+13	2.500217E-15	NaN
789	1.000000	0.066746	7.37277e+06	-39589.1	1055.82	-29793.3	0.000000	0.000000	6.066760	0.007109	NaN	0.000000	0.001546	0.001719	28.0809	0.072819	0.001899	38.3381	176.004	-167.576	-0.033417	0.065438	-1.009812	-1.011120	0.007109	38.3381	-1.009951	-3.088324E+13	-2.301819E-16	NaN
789	1.000000	0.074732	7.37277e+06	-39589.1	1055.82	-29793.3	0.000000	0.000000	6.074745	-0.034405	NaN	0.000000	0.001538	0.001714	28.0806	0.067230	0.001979	33.9802	137.736	-161.215	-0.098838	0.073461	-1.001826	-1.003097	-0.034405	33.9802	-1.001066	-2.344897E+13	1.467208E-15	NaN
789	1.000000	0.082763	7.37277e+06	-39589.1	1055.82	-29793.3	0.000000	0.000000	6.082774	-0.070808	NaN	0.000000	0.001541	0.001723	28.081	0.022553	0.001930	11.6854	-75.8776	-166.787	-0.051526	0.081443	-0.993795	-0.995115	-0.070808	11.6854	-0.989250	-1.625594E+13	4.355810E-15	NaN
789	1.000000	0.090771	7.37277e+06	-39589.1	1055.82	-29793.3	0.000000	0.000000	6.090784	-0.019322	NaN	0.000000	0.001557	0.001707	28.0808	0.058838	0.001891	31.1126	-39.5068	-170.971	0.000903	0.089485	-0.985787	-0.987073	-0.019322	31.1126	-0.985321	-1.439109E+13	1.342632E-15	NaN
789	1.000000	0.098737	7.37277e+06	-39589.1	1055.82	-29793.3	0.000000	0.000000	6.098748	-0.057259	NaN	0.000000	0.001571	0.001686	28.081	0.075368	0.001906	39.5449	24.9826	-168.703	0.000407	0.097440	-0.977821	-0.979118	-0.057259	39.5449	-0.976735	-1.102608E+13	5.193008E-15	NaN
789	1.000000	0.106752	7.37277e+06	-39589.1	1055.82	-29793.3	0.000000	0.000000	6.106764	-0.056747	NaN	0.000000	0.001556	0.001703	28.081	0.020432	0.002079	9.829645	-26.2932	-168.238	0.011361	0.105443	-0.969806	-0.971115	-0.056747	9.829645	-0.965476	-7.774723E+12	7.298957E-15	NaN
789	1.000000	0.114726	7.37277e+06	-39589.1	1055.82	-29793.3	0.000000	0.000000	6.114740	0.000654	NaN	0.000000	0.001533	0.001710	28.0809	0.089177	0.001921	46.4291	-90.2537	-167.787	-0.034370	0.113448	-0.961832	-0.963110	0.000654	46.4291	-0.961842	-6.945544E+12	-9.415979E-17	NaN
789	1.000000	0.122762	7.37277e+06	-39589.1	1055.82	-29793.3	0.000000	0.000000	6.122776	0.015849	NaN	0.000000	0.001561	0.001727	28.0809	0.011393	0.002006	5.679095	-45.8106	-167.126	0.078970	0.121468	-0.953796	-0.955090	0.015849	5.679095	-0.955889	-5.773573E+12	-2.745017E-15	NaN
789	1.000000	0.130762	7.37277e+06	-39589.1	1055.82	-29793.3	0.000000	0.000000	6.130772	-0.077792	NaN	0.000000	0.001574	0.001710	28.0809	0.075552	0.002065	36.5921	-90.073	-162.663	-0.191278	0.129425	-0.945796	-0.947133	-0.077792	36.5921	-0.944202	-4.016268E+12	1.936932E-14	NaN
789	1.000000	0.138775	7.37277e+06	-39589.1	1055.82	-29793.3	0.000000	0.000000	6.138785	-0.088863	NaN	0.000000	0.001592	0.001709	28.0812	0.124141	0.002051	60.5126	-132.083	-164.049	-0.054617	0.137515	-0.937783	-0.939043	-0.088863	60.5126	-0.936682	-3.179556E+12	2.794814E-14	NaN
789	1.000000	0.146765	7.37277e+06	-39589.1	1055.82	-29793.3	0.000000	0.000000	6.146776	-0.051138	NaN	0.000000	0.001568	0.001721	28.0808	0.092388	0.001976	46.7511	149.391	-165.24	0.006228	0.145510	-0.929793	-0.931048	-0.051138	46.7511	-0.928973	-2.502269E+12	2.043685E-14	NaN
789	1.000000	0.154779	7.37277e+06	-39589.1	1055.82	-29793.3	0.000000	0.000000	6.154790	-0.054351	NaN	0.000000	0.001544	0.001739	28.081	0.074203	0.001980	37.4813	29.9438	-164.757	-0.098635	0.153489	-0.921779	-0.923069	-0.054351	37.4813	-0.920692	-1.934405E+12	2.809688E-14	NaN
789	1.000000	0.162762	7.37277e+06	-39589.1	1055.82	-29793.3	0.000000	0.000000	6.162775	-0.013055	NaN	0.000000	0.001559	0.001720	28.0821	0.027842	0.001971	14.1275	-36.5302	-165.07	-0.041277	0.161502	-0.913796	-0.915056	-0.013055	14.1275	-0.913103	-1.527816E+12	8.545134E-15	NaN
789	1.000000	0.170823	7.37277e+06	-39589.1	1055.82	-29793.3	0.000000	0.000000	6.170836	-0.013199	NaN	0.000000	0.001554	0.001698	28.0822	0.080732	0.002151	37.524	30.4065	-165.85	-0.037160	0.169484	-0.905735	-0.907074	-0.013199	37.524	-0.905471	-1.205004E+12	1.095362E-14	NaN
789	1.000000	0.178792	7.37277e+06	-39589.1	1055.82	-29793.3	0.000000	0.000000	6.178808	0.062435	NaN	0.000000	0.001548	0.001714	28.0822	0.093535	0.001999	46.7978	-63.2949	-165.16	0.034586	0.177470	-0.897766	-0.899088	0.062435	46.7978	-0.898767	-9.781394E+11	-6.383062E-14	NaN
789	1.000000	0.186788	7.37277e+06	-39589.1	1055.82	-29793.3	0.000000	0.000000	6.186800	-0.038042	NaN	0.000000	0.001549	0.001745	28.0821	0.041496	0.001934	21.4563	-98.5856	-165.655	-0.034324	0.185466	-0.889770	-0.891092	-0.038042	21.4563	-0.888440	-7.092931E+11	5.363407E-14	NaN
789	1.000000	0.194804	7.37277e+06	-39589.1	1055.82	-29793.3	0.000000	0.000000	6.194812	-0.132793	NaN	0.000000	0.001533	0.001735	28.0823	0.075048	0.001926	38.9615	114.716	-165.085	-0.073406	0.193480	-0.881754	-0.883078	-0.132793	38.9615	-0.879197	-5.319309E+11	2.496433E-13	NaN
789	1.000000	0.202782	7.37277e+06	-39589.1	1055.82	-29793.3	0.000000	0.000000	6.202792	-0.090785	NaN	0.000000	0.001522	0.001741	28.0821	0.033930	0.002007	16.9073	103.318	-166.994	-0.053151	0.201520	-0.873776	-0.875038	-0.090785	16.9073	-0.869749	-3.963206E+11	2.290707E-13	NaN
789	1.000000	0.210785	7.37277e+06	-39589.1	1055.82	-29793.3	0.000000	0.000000	6.210797	-0.033504	NaN	0.000000	0.001566	0.001720	28.0824	0.084922	0.001921	44.2032	107.92	-164.027	-0.055608	0.209507	-0.865773	-0.867051	-0.033504	44.2032	-0.865204	-3.439970E+11	9.739645E-14	NaN
789	1.000000	0.218820	7.37277e+06	-39589.1	1055.82	-29793.3	0.000000	0.000000	6.218832	-0.036535	NaN	0.000000	0.001581	0.001688	28.0824	0.009125	0.002008	4.544920	-5.454072	-167.4	-0.111815	0.217506	-0.857738	-0.859052	-0.036535	4.544920	-0.851709	-2.258831E+11	1.617416E-13	NaN
789	1.000000	0.226786	7.37277e+06	-39589.1	1055.82	-29793.3	0.000000	0.000000	6.226795	-0.104081	NaN	0.000000	0.001545	0.001690	28.0823	0.130099	0.001889	68.8545	54.0326	-165.015	-0.068111	0.225460	-0.849773	-0.851098	-0.104081	68.8545	-0.848639	-2.052601E+11	5.070710E-13	NaN
789	1.000000	0.234808	7.37277e+06	-39589.1	1055.82	-29793.3	0.000000	0.000000	6.234821	0.000681	NaN	0.000000	0.001591	0.001722	28.0823	0.061679	0.002030	30.3847	83.3999	-164.192	0.002724	0.233513	-0.841750	-0.843045	0.000681	30.3847	-0.841767	-1.656656E+11	-4.108151E-15	NaN
789	1.000000	0.242812	7.37277e+06	-39589.1	1055.82	-29793.3	0.000000	0.000000	6.242823	-0.062211	NaN	0.000000	0.001567	0.001729	28.0821	0.056090	0.001885	29.7493	95.0315	-165.864	0.023242	0.241479	-0.833746	-0.835079	-0.062211	29.7493	-0.832178	-1.228289E+11	5.064858E-13	NaN
789	1.000000	0.250815	7.37277e+06	-39589.1	1055.82	-29793.3	0.000000	0.000000	6.250825	-0.079200	NaN	0.000000	0.001543	0.001710	28.0823	0.026278	0.001971	13.332	-142.053	-163.332	-0.116800	0.249475	-0.825743	-0.827083	-0.079200	13.332	-0.821288	-8.743267E+10	9.058394E-13	NaN
789	1.000000	0.258818	7.37277e+06	-39589.1	1055.82	-29793.3	0.000000	0.000000	6.258831	-0.033468	NaN	0.000000	0.001561	0.001699	28.0823	0.103002	0.002079	49.5364	53.6419	-168.842	-0.021235	0.257585	-0.817740	-0.818973	-0.033468	49.5364	-0.817233	-7.703439E+10	4.344615E-13	NaN
789	1.000000	0.266832	7.37277e+06	-39589.1	1055.82	-29793.3	0.000000	0.000000	6.266845	-0.032395	NaN	0.000000	0.001573	0.001714	28.0824	0.072191	0.001842	39.1955	-126.101	-165.321	0.019430	0.265499	-0.809726	-0.811059	-0.032395	39.1955	-0.809106	-5.976387E+10	5.420504E-13	NaN
789	1.000000	0.274818	7.37277e+06	-39589.1	1055.82	-29793.3	0.000000	0.000000	6.274830	-0.040023	NaN	0.000000	0.001560	0.001728	28.0824	0.002759	0.001850	1.491592	21.9992	-165.525	-0.040589	0.273501	-0.801740	-0.803057	-0.040023	1.491592	-0.781615	-2.530367E+10	1.581720E-12	NaN
789	1.000000	0.282836	7.37277e+06	-39589.1	1055.82	-29793.3	0.000000	0.000000	6.282845	-0.109069	NaN	0.000000	0.001571	0.001722	28.0823	0.071757	0.001947	36.8616	109.842	-164.474	-0.122912	0.281526	-0.793722	-0.795032	-0.109069	36.8616	-0.791503	-3.447451E+10	3.163759E-12	NaN
789	1.000000	0.290859	7.37277e+06	-39589.1	1055.82	-29793.3	0.000000	0.000000	6.290872	-0.016744	NaN	0.000000	0.001620	0.001735	28.0826	0.097058	0.001913	50.7368	173.34	-164.326	0.020894	0.289499	-0.785699	-0.787059	-0.016744	50.7368	-0.785452	-2.853017E+10	5.868797E-13	NaN
789	1.000000	0.298851	7.37277e+06	-39589.1	1055.82	-29793.3	0.000000	0.000000	6.298862	-0.067311	NaN	0.000000	0.001593	0.001719	28.0814	0.047251	0.002003	23.5875	-59.474	-164.549	-0.054527	0.297512	-0.777707	-0.779046	-0.067311	23.5875	-0.775566	-2.093995E+10	3.214455E-12	NaN
789	1.000000	0.306835	7.37277e+06	-39589.1	1055.82	-29793.3	0.000000	0.000000	6.306845	-0.092388	NaN	0.000000	0.001566	0.001717	28.0813	0.073577	0.002022	36.3899	-85.3211	-165.324	-0.032527	0.305525	-0.769723	-0.771033	-0.092388	36.3899	-0.767818	-1.643019E+10	5.623036E-12	NaN
789	1.000000	0.314871	7.37277e+06	-39589.1	1055.82	-29793.3	0.000000	0.000000	6.314883	-0.030249	NaN	0.000000	0.001579	0.001707	28.0812	0.063592	0.002034	31.2683	84.0495	-168.375	-0.011533	0.313539	-0.761687	-0.763019	-0.030249	31.2683	-0.760962	-1.325516E+10	2.282091E-12	NaN
789	1.000000	0.322835	7.37277e+06	-39589.1	1055.82	-29793.3	0.000000	0.000000	6.322846	-0.064659	NaN	0.000000	0.001580	0.001727	28.0812	0.054045	0.002052	26.3433	-172.434	-163.958	-0.052826	0.321553	-0.753723	-0.755005	-0.064659	26.3433	-0.751883	-9.973437E+9	6.483149E-12	NaN
789	1.000000	0.330831	7.37277e+06	-39589.1	1055.82	-29793.3	0.000000	0.000000	6.330844	-0.020764	NaN	0.000000	0.001573	0.001735	28.0814	0.044701	0.002110	21.1875	147.152	-167.478	0.023209	0.329506	-0.745727	-0.747052	-0.020764	21.1875	-0.744992	-8.035922E+9	2.583848E-12	NaN
789	1.000000	0.338887	7.37277e+06	-39589.1	1055.82	-29793.3	0.000000	0.000000	6.338900	-0.023140	NaN	0.000000	0.001603	0.001740	28.081	0.147037	0.002122	69.2804	-87.3132	-166.002	-0.018222	0.337547	-0.737671	-0.739011	-0.023140	69.2804	-0.737420	-6.337493E+9	3.651242E-12	NaN
789	1.000000	0.346848	7.37277e+06	-39589.1	1055.82	-29793.3	0.000000	0.000000	6.346861	-0.002529	NaN	0.000000	0.001641	0.001688	28.0811	0.036239	0.001967	18.426	-49.8662	-165.117	-0.068548	0.345598	-0.729710	-0.730960	-0.002529	18.426	-0.729607	-4.959668E+9	5.099540E-13	NaN
789	1.000000	0.354847	7.37277e+06	-39589.1	1055.82	-29793.3	0.000000	0.000000	6.354862	0.033201	NaN	0.000000	0.001671	0.001666	28.081	0.114515	0.002014	56.8543	-71.0959	-165.962	0.130141	0.353566	-0.721711	-0.722992	0.033201	56.8543	-0.722149	-3.924401E+9	-8.460249E-12	NaN
789	1.000000	0.362870	7.37277e+06	-39589.1	1055.82	-29793.3	0.000000	0.000000	6.362882	-0.037105	NaN	0.000000	0.001641	0.001677	28.0811	0.099585	0.002020	49.2965	153.903	-166.246	-0.011527	0.361594	-0.713688	-0.714964	-0.037105	49.2965	-0.713123	-2.955753E+9	1.255352E-11	NaN
789	1.000000	0.370891	7.37277e+06	-39589.1	1055.82	-29793.3	0.000000	0.000000	6.370904	-0.019585	NaN	0.000000	0.001603	0.001727	28.0812	0.059785	0.002031	29.4388	40.116	-168.256	-0.182528	0.369587	-0.705667	-0.706971	-0.019585	29.4388	-0.705168	-2.301941E+9	8.508194E-12	NaN
789	1.000000	0.378842	7.37277e+06	-39589.1	1055.82	-29793.3	0.000000	0.000000	6.378855	9.977320E-5	NaN	0.000000	0.001586	0.001694	28.0809	0.049430	0.002052	24.089	160.83	-164.791	-0.016082	0.377568	-0.697716	-0.698991	9.977320E-5	24.089	-0.697719	-1.821312E+9	-5.478095E-14	NaN
789	1.000000	0.386831	7.37277e+06	-39589.1	1055.82	-29793.3	0.000000	0.000000	6.386843	-0.043591	NaN	0.000000	0.001606	0.001687	28.0812	0.040638	0.001951	20.8275	-108.022	-166.251	-0.045850	0.385534	-0.689727	-0.691024	-0.043591	20.8275	-0.688157	-1.348134E+9	3.233434E-11	NaN
789	1.000000	0.394904	7.37277e+06	-39589.1	1055.82	-29793.3	0.000000	0.000000	6.394919	0.023146	NaN	0.000000	0.001568	0.001671	28.0809	0.142235	0.002016	70.5543	-154.985	-164.292	0.036724	0.393546	-0.681654	-0.683012	0.023146	70.5543	-0.681900	-1.107091E+9	-2.090676E-11	NaN
789	1.000000	0.402852	7.37277e+06	-39589.1	1055.82	-29793.3	0.000000	0.000000	6.402864	-0.056152	NaN	0.000000	0.001623	0.001670	28.0809	0.091364	0.001957	46.6798	147.49	-165.614	-0.082472	0.401618	-0.673706	-0.674940	-0.056152	46.6798	-0.672803	-8.312961E+8	6.754728E-11	NaN
789	1.000000	0.410889	7.37277e+06	-39589.1	1055.82	-29793.3	0.000000	0.000000	6.410900	-0.057792	NaN	0.000000	0.001624	0.001653	28.0808	0.008801	0.002104	4.183519	145.377	-167.723	-0.122367	0.409619	-0.665669	-0.666939	-0.057792	4.183519	-0.655308	-4.788437E+8	1.206901E-10	NaN
789	1.000000	0.418899	7.37277e+06	-39589.1	1055.82	-29793.3	0.000000	0.000000	6.418912	-0.021299	NaN	0.000000	0.001587	0.001702	28.0809	0.049104	0.002153	22.8117	-16.7444	-169.287	0.002065	0.417594	-0.657659	-0.658964	-0.021299	22.8117	-0.656958	-5.044314E+8	4.222337E-11	NaN
789	1.000000	0.426887	7.37277e+06	-39589.1	1055.82	-29793.3	0.000000	0.000000	6.426901	0.000336	NaN	0.000000	0.001590	0.001703	28.0809	0.053450	0.002049	26.0828	66.9973	-165.751	0.005469	0.425560	-0.649671	-0.650999	0.000336	26.0828	-0.649680	-4.009163E+8	-8.376390E-13	NaN
789	1.000000	0.434915	7.37277e+06	-39589.1	1055.82	-29793.3	0.000000	0.000000	6.434929	-0.007543	NaN	0.000000	0.001579	0.001725	28.0822	0.067334	0.001980	34.0017	-99.8249	-165.122	0.060939	0.433639	-0.641643	-0.642919	-0.007543	34.0017	-0.641476	-3.094178E+8	2.437683E-11	NaN
789	1.000000	0.442876	7.37277e+06	-39589.1	1055.82	-29793.3	0.000000	0.000000	6.442891	0.048731	NaN	0.000000	0.001600	0.001720	28.0824	0.083585	0.001987	42.0562	-156.653	-163.132	0.024033	0.441592	-0.633682	-0.634966	0.048731	42.0562	-0.634551	-2.486075E+8	-1.960163E-10	NaN
789	1.000000	0.450919	7.37277e+06	-39589.1	1055.82	-29793.3	0.000000	0.000000	6.450932	-0.028077	NaN	0.000000	0.001624	0.001702	28.0821	0.112233	0.001910	58.7709	-91.8179	-167.124	-0.040870	0.449651	-0.625639	-0.626907	-0.028077	58.7709	-0.625280	-1.854371E+8	1.514121E-10	NaN
789	1.000000	0.458932	7.37277e+06	-39589.1	1055.82	-29793.3	0.000000	0.000000	6.458945	-0.009024	NaN	0.000000	0.001625	0.001744	28.0821	0.037420	0.002123	17.6285	-46.2332	-165.094	-0.000413	0.457568	-0.617626	-0.618990	-0.009024	17.6285	-0.617242	-1.437872E+8	6.275618E-11	NaN
789	1.000000	0.466913	7.37277e+06	-39589.1	1055.82	-29793.3	0.000000	0.000000	6.466925	-0.038022	NaN	0.000000	0.001637	0.001735	28.0822	0.054986	0.001983	27.7344	-145.507	-171.009	-0.108497	0.465628	-0.609645	-0.610930	-0.038022	27.7344	-0.608617	-1.094171E+8	3.474920E-10	NaN
789	1.000000	0.474899	7.37277e+06	-39589.1	1055.82	-29793.3	0.000000	0.000000	6.474912	-0.013402	NaN	0.000000	0.001634	0.001676	28.0821	0.050219	0.001952	25.7269	56.0952	-169.821	-0.056797	0.473583	-0.601659	-0.602975	-0.013402	25.7269	-0.601269	-8.668288E+7	1.546093E-10	NaN
789	1.000000	0.482896	7.37277e+06	-39589.1	1055.82	-29793.3	0.000000	0.000000	6.482908	-0.045882	NaN	0.000000	0.001649	0.001707	28.0825	0.023704	0.002063	11.4888	-14.0052	-165.127	-0.059573	0.481610	-0.593662	-0.594948	-0.045882	11.4888	-0.590667	-6.192344E+7	7.409543E-10	NaN
789	1.000000	0.490892	7.37278e+06	-39589.1	1055.82	-29793.3	0.000000	0.000000	6.490906	0.004539	NaN	0.000000	0.001631	0.001746	28.082	0.004664	0.001979	2.357180	52.4667	-167.455	-0.073591	0.489584	-0.585666	-0.586974	0.004539	2.357180	-0.587110	-5.531231E+7	-8.206236E-11	NaN
789	1.000000	0.498929	7.37278e+06	-39589.1	1055.82	-29793.3	0.000000	0.000000	6.498943	0.015399	NaN	0.000000	0.001646	0.001690	28.0822	0.038104	0.001926	19.7885	5.273254	-165.755	-0.026083	0.497595	-0.577629	-0.578963	0.015399	19.7885	-0.578213	-4.169241E+7	-3.693496E-10	NaN
789	1.000000	0.506924	7.37278e+06	-39589.1	1055.82	-29793.3	0.000000	0.000000	6.506933	-0.123403	NaN	0.000000	0.001595	0.001747	28.0822	0.022410	0.002109	10.6281	-108.339	-167.397	-0.100616	0.505567	-0.569634	-0.570991	-0.123403	10.6281	-0.560925	-2.405343E+7	5.130388E-9	NaN
789	1.000000	0.514932	7.37278e+06	-39589.1	1055.82	-29793.3	0.000000	0.000000	6.514948	0.038786	NaN	0.000000	0.001622	0.001709	28.0824	0.073932	0.001935	38.2002	-20.542	-165.178	-0.017421	0.513599	-0.561626	-0.562959	0.038786	38.2002	-0.562387	-2.519976E+7	-1.539145E-9	NaN
789	1.000000	0.522909	7.37278e+06	-39589.1	1055.82	-29793.3	0.000000	0.000000	6.522920	-0.048345	NaN	0.000000	0.001618	0.001719	28.0824	0.032872	0.002054	16.0031	124.184	-166.134	0.008604	0.521635	-0.553649	-0.554923	-0.048345	16.0031	-0.551384	-1.774671E+7	2.724182E-9	NaN
789	1.000000	0.530918	7.37278e+06	-39589.1	1055.82	-29793.3	0.000000	0.000000	6.530931	-0.028250	NaN	0.000000	0.001585	0.001720	28.0822	0.038432	0.002092	18.3697	143.562	-167.544	-0.052520	0.529597	-0.545640	-0.546961	-0.028250	18.3697	-0.544486	-1.424170E+7	1.983629E-9	NaN
789	1.000000	0.538955	7.37278e+06	-39589.1	1055.82	-29793.3	0.000000	0.000000	6.538967	-0.026904	NaN	0.000000	0.001626	0.001675	28.0827	0.031469	0.002028	15.5166	-15.2361	-165.338	-0.102780	0.537661	-0.537604	-0.538897	-0.026904	15.5166	-0.536303	-1.096662E+7	2.453305E-9	NaN
789	1.000000	0.546959	7.37278e+06	-39589.1	1055.82	-29793.3	0.000000	0.000000	6.546971	-0.037478	NaN	0.000000	0.001630	0.001694	28.0823	0.042733	0.002057	20.7709	52.7687	-168.534	0.015188	0.545582	-0.529599	-0.530976	-0.037478	20.7709	-0.528246	-8.47647e+06	4.421405E-9	NaN
789	1.000000	0.554965	7.37278e+06	-39589.1	1055.82	-29793.3	0.000000	0.000000	6.554976	-0.056340	NaN	0.000000	0.001594	0.001734	28.0823	0.079872	0.002041	39.1387	94.1453	-166.257	-0.056734	0.553671	-0.521593	-0.522887	-0.056340	39.1387	-0.520514	-6.61823e+06	8.512879E-9	NaN
789	1.000000	0.562932	7.37278e+06	-39589.1	1055.82	-29793.3	0.000000	0.000000	6.562950	0.112940	NaN	0.000000	0.001589	0.001692	28.0823	0.133677	0.001870	71.4695	136.512	-170.226	0.096047	0.561615	-0.513626	-0.514943	0.112940	71.4695	-0.514811	-5.51321e+06	-2.048537E-8	NaN
789	1.000000	0.570950	7.37278e+06	-39589.1	1055.82	-29793.3	0.000000	0.000000	6.570963	-0.010796	NaN	0.000000	0.001599	0.001699	28.0813	0.027338	0.001780	15.3571	31.6994	-166.719	-0.065787	0.569654	-0.505608	-0.506904	-0.010796	15.3571	-0.505081	-4.03522e+06	2.675325E-9	NaN
789	1.000000	0.578988	7.37278e+06	-39589.1	1055.82	-29793.3	0.000000	0.000000	6.579001	-0.010383	NaN	0.000000	0.001585	0.001711	28.0813	0.061548	0.001997	30.8138	72.8287	-167.308	0.016714	0.577707	-0.497570	-0.498851	-0.010383	30.8138	-0.497317	-3.14475e+06	3.301802E-9	NaN
789	1.000000	0.586954	7.37278e+06	-39589.1	1055.82	-29793.3	0.000000	0.000000	6.586965	-0.050101	NaN	0.000000	0.001600	0.001716	28.0812	0.081684	0.002067	39.5123	28.1868	-166.53	-0.080095	0.585590	-0.489604	-0.490968	-0.050101	39.5123	-0.488653	-2.37997e+06	2.105128E-8	NaN
789	1.000000	0.594956	7.37278e+06	-39589.1	1055.82	-29793.3	0.000000	0.000000	6.594970	0.003492	NaN	0.000000	0.001590	0.001676	28.0813	0.073873	0.001877	39.3516	-17.3856	-168.522	0.116664	0.593642	-0.481602	-0.482916	0.003492	39.3516	-0.481669	-1.90058e+06	-1.837173E-9	NaN
789	1.000000	0.602945	7.37278e+06	-39589.1	1055.82	-29793.3	0.000000	0.000000	6.602957	-0.025311	NaN	0.000000	0.001567	0.001720	28.0811	0.009870	0.002229	4.428335	-93.058	-164.867	-0.085453	0.601696	-0.473613	-0.474862	-0.025311	4.428335	-0.469326	-1.27632e+06	1.983103E-8	NaN
789	1.000000	0.610978	7.37278e+06	-39589.1	1055.82	-29793.3	0.000000	0.000000	6.610993	0.051510	NaN	0.000000	0.001564	0.001781	28.0809	0.059039	0.002096	28.1622	-36.859	-165.732	0.011588	0.609660	-0.465580	-0.466898	0.051510	28.1622	-0.466952	-1.18209e+06	-4.357557E-8	NaN
789	1.000000	0.618990	7.37278e+06	-39589.1	1055.82	-29793.3	0.000000	0.000000	6.619005	0.037728	NaN	0.000000	0.001581	0.001806	28.0811	0.056787	0.002015	28.1801	-144.454	-167.773	0.116589	0.617657	-0.457568	-0.458901	0.037728	28.1801	-0.458572	-901466	-4.185166E-8	NaN
789	1.000000	0.626959	7.37278e+06	-39589.1	1055.82	-29793.3	0.000000	0.000000	6.626968	-0.107448	NaN	0.000000	0.001624	0.001727	28.081	0.069029	0.001963	35.1655	-172.305	-167.649	-0.082821	0.625662	-0.449599	-0.450896	-0.107448	35.1655	-0.447308	-625772	1.717054E-7	NaN
789	1.000000	0.634986	7.37278e+06	-39589.1	1055.82	-29793.3	0.000000	0.000000	6.634999	-0.015390	NaN	0.000000	0.001588	0.001752	28.0814	0.115380	0.002115	54.5447	-149.048	-167.074	-0.021008	0.633689	-0.441572	-0.442869	-0.015390	54.5447	-0.441360	-515895	2.983191E-8	NaN
789	1.000000	0.642979	7.37278e+06	-39589.1	1055.82	-29793.3	0.000000	0.000000	6.642994	0.033030	NaN	0.000000	0.001615	0.001705	28.0811	0.091368	0.001985	46.0404	178.913	-167.12	0.027754	0.641693	-0.433579	-0.434865	0.033030	46.0404	-0.434117	-407640	-8.102800E-8	NaN
789	1.000000	0.650993	7.37278e+06	-39589.1	1055.82	-29793.3	0.000000	0.000000	6.651005	-0.022602	NaN	0.000000	0.001659	0.001743	28.0811	0.080629	0.002067	39.0154	-144.402	-166.578	0.068544	0.649711	-0.425565	-0.426847	-0.022602	39.0154	-0.425131	-304185	7.430439E-8	NaN
789	1.000000	0.658971	7.37278e+06	-39589.1	1055.82	-29793.3	0.000000	0.000000	6.658981	-0.071451	NaN	0.000000	0.001602	0.001711	28.0811	0.041209	0.001975	20.8696	153.749	-167.326	-0.048763	0.657683	-0.417587	-0.418875	-0.071451	20.8696	-0.415020	-218643	3.267909E-7	NaN
789	1.000000	0.666960	7.37278e+06	-39589.1	1055.82	-29793.3	0.000000	0.000000	6.666970	-0.090205	NaN	0.000000	0.001615	0.001709	28.0817	0.077051	0.002007	38.3902	97.8332	-165.939	-0.126253	0.665707	-0.409598	-0.410851	-0.090205	38.3902	-0.407835	-172826	5.219434E-7	NaN
789	1.000000	0.674969	7.37278e+06	-39589.1	1055.82	-29793.3	0.000000	0.000000	6.674981	-0.032764	NaN	0.000000	0.001596	0.001746	28.0813	0.009386	0.002008	4.675125	-151.117	-163.775	-0.003971	0.673661	-0.401589	-0.402897	-0.032764	4.675125	-0.396333	-118487	2.765183E-7	NaN
789	1.000000	0.682998	7.37278e+06	-39589.1	1055.82	-29793.3	0.000000	0.000000	6.683008	-0.085600	NaN	0.000000	0.001641	0.001674	28.0811	0.051120	0.001828	27.9663	-8.220127	-163.733	-0.113405	0.681697	-0.393560	-0.394861	-0.085600	27.9663	-0.391264	-100289	8.535375E-7	NaN
789	1.000000	0.691018	7.37278e+06	-39589.1	1055.82	-29793.3	0.000000	0.000000	6.691032	0.010004	NaN	0.000000	0.001622	0.001715	28.0814	0.132138	0.001904	69.4032	62.6903	-165.559	-0.016338	0.689712	-0.385540	-0.386846	0.010004	69.4032	-0.385648	-83343.3	-1.200316E-7	NaN
789	1.000000	0.699008	7.37278e+06	-39589.1	1055.82	-29793.3	0.000000	0.000000	6.699022	0.007560	NaN	0.000000	0.001609	0.001661	28.081	0.062549	0.001920	32.5807	-27.5713	-167.101	-0.080013	0.697734	-0.377550	-0.378825	0.007560	32.5807	-0.377724	-64152.8	-1.178463E-7	NaN
789	1.000000	0.707054	7.37278e+06	-39589.1	1055.82	-29793.3	0.000000	0.000000	6.707066	-0.036031	NaN	0.000000	0.001633	0.001694	28.0819	0.050950	0.002029	25.1103	162.305	-167.832	0.055492	0.705752	-0.369504	-0.370806	-0.036031	25.1103	-0.368428	-47149.6	7.641771E-7	NaN
789	1.000000	0.715008	7.37278e+06	-39589.1	1055.82	-29793.3	0.000000	0.000000	6.715020	-0.026508	NaN	0.000000	0.001613	0.001730	28.0823	0.062228	0.001957	31.7941	114.141	-168.868	0.005804	0.713713	-0.361550	-0.362845	-0.026508	31.7941	-0.360925	-36746.3	7.213649E-7	NaN
789	1.000000	0.723039	7.37278e+06	-39589.1	1055.82	-29793.3	0.000000	0.000000	6.723049	-0.082402	NaN	0.000000	0.001650	0.001706	28.0823	0.017266	0.001969	8.769493	23.2642	-162.875	-0.144537	0.721683	-0.353519	-0.354875	-0.082402	8.769493	-0.346472	-22685.9	3.632298E-6	NaN
789	1.000000	0.731016	7.37278e+06	-39589.1	1055.82	-29793.3	0.000000	0.000000	6.731028	-0.055714	NaN	0.000000	0.001616	0.001709	28.0825	0.069378	0.002013	34.4719	-109.599	-165.549	-0.033682	0.729685	-0.345542	-0.346873	-0.055714	34.4719	-0.344330	-21115.6	2.638522E-6	NaN
789	1.000000	0.739033	7.37278e+06	-39589.1	1055.82	-29793.3	0.000000	0.000000	6.739046	-0.019788	NaN	0.000000	0.001616	0.001714	28.0824	0.039833	0.002110	18.8799	113.595	-163.99	-0.073386	0.737721	-0.337525	-0.338837	-0.019788	18.8799	-0.336739	-16367.4	1.208974E-6	NaN
789	1.000000	0.746997	7.37278e+06	-39589.1	1055.82	-29793.3	0.000000	0.000000	6.747012	0.032567	NaN	0.000000	0.001611	0.001741	28.0829	0.045710	0.001982	23.0598	32.4137	-163.395	0.061579	0.745691	-0.329561	-0.330867	0.032567	23.0598	-0.330620	-13321	-2.444764E-6	NaN
789	1.000000	0.755045	7.37278e+06	-39589.1	1055.82	-29793.3	0.000000	0.000000	6.755057	-0.043074	NaN	0.000000	0.001613	0.001750	28.0825	0.061152	0.001965	31.1258	179.46	-166.112	0.043589	0.753704	-0.321513	-0.322854	-0.043074	31.1258	-0.320475	-9454.34	4.556035E-6	NaN
789	1.000000	0.763049	7.37278e+06	-39589.1	1055.82	-29793.3	0.000000	0.000000	6.763065	0.057496	NaN	0.000000	0.001583	0.001731	28.0825	0.071749	0.002016	35.5855	-40.3994	-163.42	-0.002333	0.761776	-0.313509	-0.314782	0.057496	35.5855	-0.314720	-7777.13	-7.392894E-6	NaN
789	1.000000	0.771029	7.37278e+06	-39589.1	1055.82	-29793.3	0.000000	0.000000	6.771040	-0.081061	NaN	0.000000	0.001554	0.001743	28.0824	0.027655	0.002034	13.5957	-8.032729	-168.116	-0.057140	0.769719	-0.305529	-0.306839	-0.081061	13.5957	-0.301057	-4879.39	1.661300E-5	NaN
789	1.000000	0.779050	7.37278e+06	-39589.1	1055.82	-29793.3	0.000000	0.000000	6.779060	-0.072952	NaN	0.000000	0.001575	0.001754	28.082	0.046526	0.001956	23.7902	103.998	-164.534	-0.058655	0.777676	-0.297508	-0.298882	-0.072952	23.7902	-0.295209	-3992.11	1.827406E-5	NaN
789	1.000000	0.787055	7.37278e+06	-39589.1	1055.82	-29793.3	0.000000	0.000000	6.787070	0.035957	NaN	0.000000	0.001595	0.001717	28.0827	0.084095	0.002041	41.2042	-46.6399	-165.009	0.014804	0.785752	-0.289503	-0.290806	0.035957	41.2042	-0.290158	-3354.8	-1.071801E-5	NaN
789	1.000000	0.795027	7.37278e+06	-39589.1	1055.82	-29793.3	0.000000	0.000000	6.795040	-0.003617	NaN	0.000000	0.001560	0.001728	28.0823	0.031427	0.001934	16.2523	-147.884	-163.55	-0.027906	0.793755	-0.281531	-0.282803	-0.003617	16.2523	-0.281364	-2474.8	1.461628E-6	NaN
789	1.000000	0.803024	7.37278e+06	-39589.1	1055.82	-29793.3	0.000000	0.000000	6.803034	-0.091999	NaN	0.000000	0.001604	0.001691	28.0825	0.098983	0.001888	52.4138	-31.6733	-163.022	-0.090400	0.801737	-0.273534	-0.274821	-0.091999	52.4138	-0.272217	-1799.79	5.111626E-5	NaN
789	1.000000	0.811045	7.37278e+06	-39589.1	1055.82	-29793.3	0.000000	0.000000	6.811057	-0.041698	NaN	0.000000	0.001583	0.001749	28.0824	0.057137	0.001880	30.3954	-173.364	-169.239	-0.076045	0.809766	-0.265513	-0.266792	-0.041698	30.3954	-0.264484	-1372.5	3.038100E-5	NaN
789	1.000000	0.819082	7.37278e+06	-39589.1	1055.82	-29793.3	0.000000	0.000000	6.819094	-0.032092	NaN	0.000000	0.001572	0.001751	28.0823	0.068022	0.002037	33.3932	12.114	-167.375	0.001428	0.817708	-0.257476	-0.258850	-0.032092	33.3932	-0.256756	-1045.01	3.071005E-5	NaN
789	1.000000	0.827054	7.37278e+06	-39589.1	1055.82	-29793.3	0.000000	0.000000	6.827067	-0.023009	NaN	0.000000	0.001607	0.001747	28.0825	0.053469	0.002117	25.2584	-26.0449	-164.404	0.002857	0.825790	-0.249504	-0.250768	-0.023009	25.2584	-0.248820	-788.338	2.918627E-5	NaN
789	1.000000	0.835054	7.37278e+06	-39589.1	1055.82	-29793.3	0.000000	0.000000	6.835065	-0.059908	NaN	0.000000	0.001591	0.001712	28.0824	0.067114	0.002010	33.3971	-104.502	-168.814	-0.071327	0.833805	-0.241504	-0.242753	-0.059908	33.3971	-0.240159	-578.145	0.000104	NaN
789	1.000000	0.843052	7.37278e+06	-39589.1	1055.82	-29793.3	0.000000	0.000000	6.843062	-0.080225	NaN	0.000000	0.001616	0.001752	28.082	0.112613	0.002014	55.9199	-0.271124	-169.994	-0.081723	0.841744	-0.233506	-0.234814	-0.080225	55.9199	-0.232430	-437.355	0.000183	NaN
789	1.000000	0.851088	7.37278e+06	-39589.1	1055.82	-29793.3	0.000000	0.000000	6.851100	-0.039968	NaN	0.000000	0.001651	0.001705	28.0812	0.030020	0.001945	15.4334	61.1573	-164.742	-0.104293	0.849760	-0.225470	-0.226798	-0.039968	15.4334	-0.223528	-316.177	0.000126	NaN
789	1.000000	0.859062	7.37278e+06	-39589.1	1055.82	-29793.3	0.000000	0.000000	6.859077	0.034679	NaN	0.000000	0.001578	0.001756	28.0811	0.082809	0.002112	39.2019	-175.501	-166.506	-0.029060	0.857782	-0.217496	-0.218776	0.034679	39.2019	-0.218159	-259.553	-0.000134	NaN
789	1.000000	0.867078	7.37278e+06	-39589.1	1055.82	-29793.3	0.000000	0.000000	6.867088	-0.099224	NaN	0.000000	0.001580	0.001743	28.0813	0.105272	0.002044	51.5106	-120.442	-166.511	-0.150736	0.865758	-0.209480	-0.210800	-0.099224	51.5106	-0.208035	-178.22	0.000557	NaN
789	1.000000	0.875066	7.37278e+06	-39589.1	1055.82	-29793.3	0.000000	0.000000	6.875077	-0.051550	NaN	0.000000	0.001585	0.001719	28.0812	0.065961	0.002013	32.7745	179.868	-166.224	-0.022778	0.873775	-0.201492	-0.202783	-0.051550	32.7745	-0.200312	-133.301	0.000387	NaN
789	1.000000	0.883118	7.37278e+06	-39589.1	1055.82	-29793.3	0.000000	0.000000	6.883133	0.031318	NaN	0.000000	0.001643	0.001703	28.0811	0.082223	0.001870	43.9672	43.8244	-165.413	0.006984	0.881741	-0.193440	-0.194817	0.031318	43.9672	-0.193974	-104.76	-0.000299	NaN
789	1.000000	0.891085	7.37278e+06	-39589.1	1055.82	-29793.3	0.000000	0.000000	6.891098	-0.007089	NaN	0.000000	0.001640	0.001699	28.0811	0.109205	0.001943	56.1935	-8.511911	-165.254	-0.069050	0.889804	-0.185473	-0.186754	-0.007089	56.1935	-0.185379	-75.2515	9.420360E-5	NaN
789	1.000000	0.899081	7.37278e+06	-39589.1	1055.82	-29793.3	0.000000	0.000000	6.899093	-0.039712	NaN	0.000000	0.001591	0.001694	28.0814	0.098468	0.001950	50.4974	33.7366	-165.773	-0.049748	0.897720	-0.177477	-0.178838	-0.039712	50.4974	-0.176887	-53.9932	0.000735	NaN
789	1.000000	0.907103	7.37278e+06	-39589.1	1055.82	-29793.3	0.000000	0.000000	6.907115	-0.048909	NaN	0.000000	0.001562	0.001717	28.0815	0.032767	0.002058	15.9205	143.668	-167.651	-0.097579	0.905776	-0.169455	-0.170782	-0.048909	15.9205	-0.167151	-36.6421	0.001335	NaN
789	1.000000	0.915078	7.37278e+06	-39589.1	1055.82	-29793.3	0.000000	0.000000	6.915089	-0.071800	NaN	0.000000	0.001564	0.001742	28.0812	0.140571	0.002029	69.2748	131.455	-168.179	-0.047918	0.913820	-0.161480	-0.162738	-0.071800	69.2748	-0.160703	-28.2139	0.002545	NaN
789	1.000000	0.923076	7.37278e+06	-39589.1	1055.82	-29793.3	0.000000	0.000000	6.923084	-0.130944	NaN	0.000000	0.001608	0.001703	28.081	0.107796	0.001979	54.4636	-25.5964	-165.593	-0.066746	0.921726	-0.153482	-0.154832	-0.130944	54.4636	-0.151679	-19.4339	0.006738	NaN
789	1.000000	0.931077	7.37278e+06	-39589.1	1055.82	-29793.3	0.000000	0.000000	6.931087	-0.078182	NaN	0.000000	0.001603	0.001735	28.0809	0.121098	0.001937	62.5209	29.5704	-165.73	-0.085382	0.929773	-0.145481	-0.146785	-0.078182	62.5209	-0.144543	-14.3786	0.005437	NaN
789	1.000000	0.939103	7.37278e+06	-39589.1	1055.82	-29793.3	0.000000	0.000000	6.939117	0.020760	NaN	0.000000	0.001600	0.001724	28.0812	0.056587	0.001947	29.0656	1.386744	-167.333	0.087782	0.937775	-0.137455	-0.138783	0.020760	29.0656	-0.137991	-10.8419	-0.001915	NaN
789	1.000000	0.947121	7.37278e+06	-39589.1	1055.82	-29793.3	0.000000	0.000000	6.947134	-0.032009	NaN	0.000000	0.001579	0.001735	28.081	0.036531	0.002011	18.1615	173.576	-161.981	-0.048281	0.945847	-0.129437	-0.130711	-0.032009	18.1615	-0.128115	-7.002774	0.004571	NaN
789	1.000000	0.955099	7.37278e+06	-39589.1	1055.82	-29793.3	0.000000	0.000000	6.955110	-0.071207	NaN	0.000000	0.001565	0.001702	28.0808	0.024974	0.002086	11.9735	-74.822	-165.34	-0.092693	0.953840	-0.121459	-0.122718	-0.071207	11.9735	-0.116999	-4.198869	0.016959	NaN
789	1.000000	0.963113	7.37278e+06	-39589.1	1055.82	-29793.3	0.000000	0.000000	6.963125	-0.021355	NaN	0.000000	0.001589	0.001686	28.081	0.178684	0.002009	88.9377	147.146	-164.703	-0.085736	0.961834	-0.113446	-0.114724	-0.021355	88.9377	-0.113265	-3.517320	0.006071	NaN
789	1.000000	0.971137	7.37278e+06	-39589.1	1055.82	-29793.3	0.000000	0.000000	6.971151	-0.001064	NaN	0.000000	0.001564	0.001668	28.0809	0.096917	0.001894	51.167	-134.463	-165.463	-0.001892	0.969849	-0.105421	-0.106709	-0.001064	51.167	-0.105405	-2.398369	0.000444	NaN
789	1.000000	0.979158	7.37278e+06	-39589.1	1055.82	-29793.3	0.000000	0.000000	6.979171	-0.014077	NaN	0.000000	0.001603	0.001686	28.0811	0.013305	0.002053	6.482317	83.4749	-168.21	0.084897	0.977807	-0.097400	-0.098751	-0.014077	6.482317	-0.095772	-1.468781	0.009584	NaN
789	1.000000	0.987105	7.37278e+06	-39589.1	1055.82	-29793.3	0.000000	0.000000	6.987121	0.053182	NaN	0.000000	0.001587	0.001702	28.0821	0.117922	0.001971	59.8269	93.0662	-165.072	0.004529	0.985821	-0.089453	-0.090737	0.053182	59.8269	-0.090119	-1.087966	-0.048882	NaN
789	1.000000	0.995131	7.37278e+06	-39589.1	1055.82	-29793.3	0.000000	0.000000	6.995144	-0.011048	NaN	0.000000	0.001586	0.001674	28.0824	0.103871	0.002008	51.7275	-140.329	-163.09	0.017194	0.993793	-0.081427	-0.082765	-0.011048	51.7275	-0.081267	-0.665634	0.016597	NaN
789	1.000000	1.003134	7.37278e+06	-39589.1	1055.82	-29793.3	0.000000	0.000000	7.003148	0.012271	NaN	0.000000	0.001621	0.001686	28.0822	0.129816	0.001996	65.0299	57.8517	-163.215	-0.004971	1.001760	-0.073424	-0.074798	0.012271	65.0299	-0.073566	-0.423873	-0.028950	NaN
789	1.000000	1.011143	7.37278e+06	-39589.1	1055.82	-29793.3	0.000000	0.000000	7.011156	-0.008755	NaN	0.000000	0.001597	0.001728	28.0824	0.091718	0.001944	47.1919	-77.101	-168.591	0.092150	1.009802	-0.065415	-0.066756	-0.008755	47.1919	-0.065276	-0.253647	0.034518	NaN
789	1.000000	1.019130	7.37278e+06	-39589.1	1055.82	-29793.3	0.000000	0.000000	7.019144	0.011561	NaN	0.000000	0.001600	0.001714	28.0821	0.088148	0.001928	45.7114	87.2737	-164.16	-0.011971	1.017781	-0.057428	-0.058777	0.011561	45.7114	-0.057617	-0.153686	-0.075225	NaN
789	1.000000	1.027139	7.37278e+06	-39589.1	1055.82	-29793.3	0.000000	0.000000	7.027155	0.042923	NaN	0.000000	0.001597	0.001721	28.0822	0.092851	0.002050	45.2966	-113.867	-167.189	0.081892	1.025797	-0.049419	-0.050761	0.042923	45.2966	-0.050129	-0.092077	-0.466169	NaN
789	1.000000	1.035124	7.37278e+06	-39589.1	1055.82	-29793.3	0.000000	0.000000	7.035140	0.068539	NaN	0.000000	0.001613	0.001742	28.0822	0.107706	0.002096	51.3942	-40.4067	-166.152	0.019567	1.033786	-0.041434	-0.042772	0.068539	51.3942	-0.042435	-0.053647	-1.277588	NaN
789	1.000000	1.043143	7.37278e+06	-39589.1	1055.82	-29793.3	0.000000	0.000000	7.043158	0.028317	NaN	0.000000	0.001664	0.001722	28.0822	0.043843	0.002010	21.8155	-66.5245	-168.092	0.075956	1.041876	-0.033415	-0.034682	0.028317	21.8155	-0.034389	-0.030727	-0.921551	NaN
789	1.000000	1.051125	7.37278e+06	-39589.1	1055.82	-29793.3	0.000000	0.000000	7.051139	0.004052	NaN	0.000000	0.001655	0.001682	28.0824	0.099600	0.001907	52.2224	-46.7248	-168.089	0.076268	1.049893	-0.025433	-0.026665	0.004052	52.2224	-0.025491	-0.017378	-0.233180	NaN
789	1.000000	1.059159	7.37278e+06	-39589.1	1055.82	-29793.3	0.000000	0.000000	7.059173	0.018042	NaN	0.000000	0.001636	0.001759	28.0823	0.022842	0.001930	11.8337	117.512	-166.111	0.008284	1.057844	-0.017399	-0.018714	0.018042	11.8337	-0.018542	-0.011528	-1.565015	NaN
789	1.000000	1.067146	7.37278e+06	-39589.1	1055.82	-29793.3	0.000000	0.000000	7.067162	0.072221	NaN	0.000000	0.001582	0.001715	28.0823	0.017286	0.002000	8.642219	-154.766	-168.254	0.030212	1.065840	-0.009412	-0.010718	0.072221	8.642219	-0.015680	-0.009687	-7.455861	NaN
789	1.000000	1.075151	7.37278e+06	-39589.1	1055.82	-29793.3	0.000000	0.000000	7.075183	0.434076	NaN	0.000000	0.001665	0.001721	28.0821	0.658726	0.001873	351.631	13.6599	-169.174	0.032694	1.073842	-0.001407	-0.002716	0.434076	351.631	-0.002333	-0.001669	-260.136	NaN
789	2.000000	1.082667	7.37278e+06	-39589.1	1055.82	-29793.3	0.000000	0.000000	7.083065	9.370965	NaN	0.000000	0.001619	0.001704	28.0821	8.341431	0.001809	4611.21	11.0812	-173.837	7.496436	1.081829	0.006109	0.005271	9.370965	4611.21	0.004584	0.003757	2494.08	68730.7
789	2.000000	1.084860	7.37278e+06	-39589.1	1055.82	-29793.3	0.000000	0.000000	7.085400	12.7914	NaN	0.000000	0.001628	0.001715	28.082	9.810606	0.001643	5969.66	6.181163	-175.037	12.1672	1.084532	0.008302	0.007974	12.7914	5969.66	0.006695	0.005734	2230.63	72023.9
789	2.000000	1.086792	7.37278e+06	-39589.1	1055.82	-29793.3	0.000000	0.000000	7.087505	17.0038	NaN	0.000000	0.001653	0.001704	28.0822	12.7222	0.001794	7093.27	5.060092	-174.784	15.7793	1.086540	0.010234	0.009982	17.0038	7093.27	0.008436	0.007495	2268.69	74857.3
789	2.000000	1.088854	7.37278e+06	-39589.1	1055.82	-29793.3	0.000000	0.000000	7.089808	22.8751	NaN	0.000000	0.001622	0.001723	28.0822	15.2515	0.001822	8369.85	13.5335	-179.912	24.5671	1.088495	0.012296	0.011937	22.8751	8369.85	0.010246	0.009457	2418.97	78636.6
789	2.000000	1.090739	7.37278e+06	-39589.1	1055.82	-29793.3	0.000000	0.000000	7.091853	26.7734	NaN	0.000000	0.001661	0.001717	28.0817	15.8995	0.001703	9336.25	1.273546	-172.585	25.0992	1.090495	0.014181	0.013937	26.7734	9336.25	0.012030	0.011526	2322.77	79450.7
789	2.000000	1.092811	7.37278e+06	-39589.1	1055.82	-29793.3	0.000000	0.000000	7.094004	28.6976	NaN	0.000000	0.001642	0.001705	28.0809	18.5201	0.001858	9968.37	3.117994	-174.999	27.9451	1.092465	0.016253	0.015907	28.6976	9968.37	0.014094	0.014096	2035.88	76709.7
789	2.000000	1.094777	7.37278e+06	-39589.1	1055.82	-29793.3	0.000000	0.000000	7.096331	37.4824	NaN	0.000000	0.001575	0.001726	28.081	20.0369	0.001814	11047.9	2.873155	-175.79	36.6619	1.094461	0.018219	0.017903	37.4824	11047.9	0.015674	0.016195	2314.4	79315.4
789	2.000000	1.096795	7.37278e+06	-39589.1	1055.82	-29793.3	0.000000	0.000000	7.098447	39.8743	NaN	0.000000	0.001608	0.001686	28.0811	21.7166	0.001779	12209.6	8.515556	178.561	40.3799	1.096473	0.020236	0.019914	39.8743	12209.6	0.017787	0.019184	2078.56	80539.9
789	2.000000	1.098869	7.37278e+06	-39589.1	1055.82	-29793.3	0.000000	0.000000	7.100824	47.2554	NaN	0.000000	0.001607	0.001699	28.0811	23.3714	0.001949	11991.7	10.7976	179.037	50.298	1.098424	0.022311	0.021866	47.2554	11991.7	0.019355	0.021540	2193.89	74651.1
789	2.000000	1.100724	7.37278e+06	-39589.1	1055.82	-29793.3	0.000000	0.000000	7.102768	49.4128	NaN	0.000000	0.001586	0.001682	28.081	24.6201	0.001759	13994	3.399038	-178.264	48.3231	1.100519	0.024166	0.023961	49.4128	13994	0.021518	0.024983	1977.83	80889
789	2.000000	1.102743	7.37278e+06	-39589.1	1055.82	-29793.3	0.000000	0.000000	7.104956	53.522	NaN	0.000000	0.001603	0.001690	28.0809	26.9302	0.001979	13606.8	3.741607	-176.711	52.0409	1.102434	0.026185	0.025876	53.522	13606.8	0.023235	0.027882	1919.59	74450.6
789	2.000000	1.104772	7.37278e+06	-39589.1	1055.82	-29793.3	0.000000	0.000000	7.107370	62.8847	NaN	0.000000	0.001604	0.001675	28.0809	28.3282	0.001855	15270.5	4.188129	-179.484	63.1566	1.104405	0.028214	0.027847	62.8847	15270.5	0.025126	0.031245	2012.64	78929
789	2.000000	1.106726	7.37278e+06	-39589.1	1055.82	-29793.3	0.000000	0.000000	7.109638	70.536	NaN	0.000000	0.001564	0.001704	28.081	30.9183	0.001859	16629.8	4.633078	178.91	68.5701	1.106513	0.030168	0.029955	70.536	16629.8	0.026987	0.034730	2030.98	81528.1
789	2.000000	1.108769	7.37278e+06	-39589.1	1055.82	-29793.3	0.000000	0.000000	7.111945	76.9461	NaN	0.000000	0.001609	0.001682	28.0812	32.3858	0.001927	16809.2	5.178448	179.848	76.8768	1.108385	0.032211	0.031827	76.9461	16809.2	0.028778	0.038249	2011.72	78525.6
789	2.000000	1.110768	7.37278e+06	-39589.1	1055.82	-29793.3	0.000000	0.000000	7.114235	84.0451	NaN	0.000000	0.001611	0.001708	28.0812	33.8976	0.001798	18852.2	2.848909	-179.639	85.324	1.110449	0.034210	0.033891	84.0451	18852.2	0.030866	0.042558	1974.83	83491.8
789	2.000000	1.112719	7.37278e+06	-39589.1	1055.82	-29793.3	0.000000	0.000000	7.116564	93.2293	NaN	0.000000	0.001607	0.001699	28.0809	36.6278	0.001827	20051.1	6.643567	176.434	90.8301	1.112450	0.036161	0.035892	93.2293	20051.1	0.032674	0.046468	2006.32	84983.8
789	2.000000	1.114707	7.37278e+06	-39589.1	1055.82	-29793.3	0.000000	0.000000	7.119039	105.093	NaN	0.000000	0.001595	0.001693	28.0809	37.9461	0.001806	21016.1	8.683288	173.57	103.969	1.114292	0.038149	0.037734	105.093	21016.1	0.034398	0.050354	2087.09	85567.6
789	2.000000	1.116686	7.37278e+06	-39589.1	1055.82	-29793.3	0.000000	0.000000	7.121365	113.531	NaN	0.000000	0.001617	0.001712	28.0813	39.6321	0.001733	22865.6	1.934577	179.339	109.654	1.116357	0.040128	0.039799	113.531	22865.6	0.036404	0.055065	2061.76	89026
789	2.000000	1.118757	7.37278e+06	-39589.1	1055.82	-29793.3	0.000000	0.000000	7.123881	124.35	NaN	0.000000	0.001587	0.001697	28.081	42.2005	0.001867	22607.3	5.162458	176.922	122.521	1.118418	0.042199	0.041860	124.35	22607.3	0.038074	0.059145	2102.48	84930.8
789	2.000000	1.120684	7.37278e+06	-39589.1	1055.82	-29793.3	0.000000	0.000000	7.126212	134.186	NaN	0.000000	0.001590	0.001691	28.081	43.8141	0.001824	24021.6	4.039239	177.071	132.824	1.120362	0.044126	0.043804	134.186	24021.6	0.039936	0.063864	2101.14	86845.6
789	2.000000	1.122802	7.37278e+06	-39589.1	1055.82	-29793.3	0.000000	0.000000	7.128679	142.687	NaN	0.000000	0.001639	0.001695	28.081	46.1562	0.001852	24927.2	5.317001	175.684	145.136	1.122450	0.046244	0.045892	142.687	24927.2	0.041951	0.069166	2062.95	86596.4
789	2.000000	1.124640	7.37278e+06	-39589.1	1055.82	-29793.3	0.000000	0.000000	7.131177	158.751	NaN	0.000000	0.001557	0.001663	28.0808	45.973	0.001738	26449.2	1.596934	178.357	155.85	1.124351	0.048082	0.047793	158.751	26449.2	0.043580	0.073608	2156.71	89068.3
789	2.000000	1.126659	7.37278e+06	-39589.1	1055.82	-29793.3	0.000000	0.000000	7.133226	159.493	NaN	0.000000	0.001552	0.001705	28.0822	49.034	0.001873	26172.9	4.165955	175.699	155.673	1.126390	0.050101	0.049832	159.493	26172.9	0.045530	0.079100	2016.36	85023.2
789	2.000000	1.128701	7.37278e+06	-39589.1	1055.82	-29793.3	0.000000	0.000000	7.136174	181.517	NaN	0.000000	0.001579	0.001713	28.082	50.3159	0.001894	26568.1	4.046111	176.886	180.407	1.128388	0.052143	0.051830	181.517	26568.1	0.047019	0.083422	2175.9	84041.6
789	2.000000	1.130680	7.37278e+06	-39589.1	1055.82	-29793.3	0.000000	0.000000	7.138553	191.255	NaN	0.000000	0.001556	0.001684	28.0821	51.9663	0.001748	29732.7	5.062029	174.155	189.172	1.130292	0.054122	0.053734	191.255	29732.7	0.049297	0.090253	2119.09	90422.5
789	2.000000	1.132742	7.37278e+06	-39589.1	1055.82	-29793.3	0.000000	0.000000	7.140930	198.913	NaN	0.000000	0.001599	0.001700	28.0821	54.193	0.001801	30089.1	4.726968	174.143	197.676	1.132472	0.056184	0.055914	198.913	30089.1	0.051226	0.096239	2066.85	88614.6
789	2.000000	1.134653	7.37278e+06	-39589.1	1055.82	-29793.3	0.000000	0.000000	7.143532	215.724	NaN	0.000000	0.001624	0.001708	28.082	54.8645	0.001828	30010	4.406486	175.475	213.92	1.134396	0.058095	0.057838	215.724	30010	0.052704	0.100954	2136.86	86293.4
789	2.000000	1.136591	7.37278e+06	-39589.1	1055.82	-29793.3	0.000000	0.000000	7.146009	228.838	NaN	0.000000	0.001615	0.001718	28.0826	57.2209	0.001815	31526.7	2.930159	176.039	223.324	1.136375	0.060033	0.059817	228.838	31526.7	0.054589	0.107125	2136.18	88004.8
789	2.000000	1.138737	7.37278e+06	-39589.1	1055.82	-29793.3	0.000000	0.000000	7.148534	238.096	NaN	0.000000	0.001598	0.001701	28.082	59.3249	0.001836	32304.5	5.457864	173.547	239.757	1.138360	0.062179	0.061802	238.096	32304.5	0.056651	0.114073	2087.22	87386.4
789	2.000000	1.140711	7.37278e+06	-39589.1	1055.82	-29793.3	0.000000	0.000000	7.151159	253.904	NaN	0.000000	0.001577	0.001660	28.0823	59.664	0.001754	34017.4	4.737173	174.66	252.135	1.140299	0.064153	0.063741	253.904	34017.4	0.058555	0.120679	2103.97	89466.2
789	2.000000	1.142737	7.37278e+06	-39589.1	1055.82	-29793.3	0.000000	0.000000	7.153490	261.337	NaN	0.000000	0.001601	0.001704	28.0822	63.1106	0.001872	33716.9	3.984365	174.108	262.409	1.142443	0.066179	0.065885	261.337	33716.9	0.060366	0.127123	2055.79	86399.1
789	2.000000	1.144660	7.37278e+06	-39589.1	1055.82	-29793.3	0.000000	0.000000	7.156266	282.101	NaN	0.000000	0.001583	0.001685	28.0821	65.0007	0.001889	34417.6	7.092847	171.037	279.168	1.144301	0.068102	0.067743	282.101	34417.6	0.061955	0.132911	2122.49	86252.8
789	2.000000	1.146658	7.37278e+06	-39589.1	1055.82	-29793.3	0.000000	0.000000	7.158807	295.308	NaN	0.000000	0.001586	0.001716	28.0821	66.2694	0.001675	39555	2.182108	174.776	294.122	1.146366	0.070100	0.069808	295.308	39555	0.064501	0.142440	2073.21	95754.3
789	2.000000	1.148755	7.37278e+06	-39589.1	1055.82	-29793.3	0.000000	0.000000	7.161616	312.649	NaN	0.000000	0.001585	0.001649	28.0821	69.6834	0.001783	39075.4	7.199020	171.07	312.311	1.148306	0.072197	0.071748	312.649	39075.4	0.066196	0.148958	2098.91	92500.7
789	2.000000	1.150670	7.37278e+06	-39589.1	1055.82	-29793.3	0.000000	0.000000	7.164191	328.71	NaN	0.000000	0.001589	0.001646	28.0823	70.1396	0.001766	39722.9	4.215312	173.453	327.216	1.150284	0.074112	0.073726	328.71	39722.9	0.067905	0.155672	2111.55	91983.2
789	2.000000	1.152704	7.37278e+06	-39589.1	1055.82	-29793.3	0.000000	0.000000	7.166768	341.915	NaN	0.000000	0.001590	0.001693	28.0821	73.29	0.001781	41139.9	5.739174	171.799	341.212	1.152326	0.076146	0.075768	341.915	41139.9	0.069913	0.163733	2088.25	92889.8
789	2.000000	1.154608	7.37278e+06	-39589.1	1055.82	-29793.3	0.000000	0.000000	7.169342	358.218	NaN	0.000000	0.001577	0.001718	28.0822	73.9715	0.001851	39967.2	5.091457	172.354	353.155	1.154317	0.078050	0.077759	358.218	39967.2	0.071328	0.169532	2112.99	88685.4
789	2.000000	1.156618	7.37278e+06	-39589.1	1055.82	-29793.3	0.000000	0.000000	7.172013	374.301	NaN	0.000000	0.001594	0.001677	28.0823	76.3253	0.001820	41937.9	5.117036	172.555	371.057	1.156315	0.080060	0.079757	374.301	41937.9	0.073366	0.178048	2102.24	90805.4
789	2.000000	1.158604	7.37278e+06	-39589.1	1055.82	-29793.3	0.000000	0.000000	7.174593	388.746	NaN	0.000000	0.001538	0.001707	28.0823	77.8056	0.001796	43315.1	5.244050	171.301	383.336	1.158345	0.082046	0.081787	388.746	43315.1	0.075315	0.186379	2085.78	91667.2
789	2.000000	1.160627	7.37278e+06	-39589.1	1055.82	-29793.3	0.000000	0.000000	7.177518	410.689	NaN	0.000000	0.001528	0.001709	28.0812	79.8063	0.001799	44364.4	6.352746	170.002	407.156	1.160214	0.084069	0.083656	410.689	44364.4	0.077126	0.194279	2113.92	91959.1
789	2.000000	1.162717	7.37278e+06	-39589.1	1055.82	-29793.3	0.000000	0.000000	7.179902	417.858	NaN	0.000000	0.001578	0.001723	28.0811	82.205	0.001926	42692.3	3.125045	173.238	419.769	1.162494	0.086159	0.085936	417.858	42692.3	0.078818	0.201796	2070.69	86829.3
789	2.000000	1.164612	7.37278e+06	-39589.1	1055.82	-29793.3	0.000000	0.000000	7.182917	445.098	NaN	0.000000	0.001597	0.001766	28.0809	83.2805	0.001705	48835.9	6.793769	168.802	439.915	1.164248	0.088054	0.087690	445.098	48835.9	0.081219	0.212695	2092.66	96746.3
789	2.000000	1.166645	7.37278e+06	-39589.1	1055.82	-29793.3	0.000000	0.000000	7.185481	458.041	NaN	0.000000	0.001584	0.001747	28.0807	85.1685	0.001751	48650.7	3.721285	172.669	455.593	1.166187	0.090087	0.089629	458.041	48650.7	0.083026	0.221073	2071.9	94535.4
789	2.000000	1.168670	7.37278e+06	-39589.1	1055.82	-29793.3	0.000000	0.000000	7.188089	472.222	NaN	0.000000	0.001610	0.001747	28.0808	87.6679	0.001814	48326.2	4.773571	171.042	469.606	1.168368	0.092112	0.091810	472.222	48326.2	0.084784	0.229371	2058.77	92190.6
789	2.000000	1.170590	7.37278e+06	-39589.1	1055.82	-29793.3	0.000000	0.000000	7.190664	488.176	NaN	0.000000	0.001588	0.001716	28.0809	88.0671	0.001836	47954.5	2.699404	173.494	483.519	1.170290	0.094032	0.093732	488.176	47954.5	0.086397	0.237111	2058.85	89976.1
789	2.000000	1.172681	7.37278e+06	-39589.1	1055.82	-29793.3	0.000000	0.000000	7.193540	507.28	NaN	0.000000	0.001614	0.001744	28.081	91.6845	0.001765	51942	5.302069	169.823	508.809	1.172369	0.096123	0.095811	507.28	51942	0.088798	0.248852	2038.48	95130.9
789	2.000000	1.174644	7.37278e+06	-39589.1	1055.82	-29793.3	0.000000	0.000000	7.196410	529.338	NaN	0.000000	0.001610	0.001740	28.0812	91.2746	0.001791	50963.3	2.064758	173.596	525.517	1.174321	0.098086	0.097763	529.338	50963.3	0.090296	0.256313	2065.21	91969.9
789	2.000000	1.176660	7.37278e+06	-39589.1	1055.82	-29793.3	0.000000	0.000000	7.199159	547.181	NaN	0.000000	0.001555	0.001730	28.081	95.0472	0.001897	50107.3	6.273287	169.385	546.555	1.176302	0.100102	0.099744	547.181	50107.3	0.091912	0.264473	2068.95	89019.2
789	2.000000	1.178714	7.37278e+06	-39589.1	1055.82	-29793.3	0.000000	0.000000	7.201798	561.426	NaN	0.000000	0.001538	0.001745	28.0808	96.0112	0.001866	51457.3	4.929415	171.196	562.626	1.178371	0.102156	0.101813	561.426	51457.3	0.093973	0.275057	2041.13	89641.5
789	2.000000	1.180538	7.37278e+06	-39589.1	1055.82	-29793.3	0.000000	0.000000	7.204486	582.422	NaN	0.000000	0.001527	0.001783	28.0809	97.1621	0.001832	53028.3	3.964748	171.346	575.654	1.180295	0.103980	0.103737	582.422	53028.3	0.095743	0.284301	2048.61	90863.9
789	2.000000	1.181154	7.37278e+06	-39589.1	1055.82	-29793.3	0.000000	0.000000	7.205360	588.709	NaN	0.000000	0.001542	0.001788	28.081	96.3589	0.001767	54528.5	0.629601	-5.164455	585.99	1.180688	0.104596	0.104129	588.709	54528.5	0.096499	0.288294	2042.04	92785.3