File: remote_trans/data/nanoindenter/0828-1/data/Data_2025-08-06,11h17m57s/2025-07-22_16-23-58_1_805.txt
2025-07-22, 16:23:58, 1
Index	Phase	Displacement	Time	Pos X	Pos Y	Pos Z	Rot A	Rot B	Piezo Z	Force A	Force B	Gripper	Voltage A	Voltage B	Temperature	Amplitude force	Amplitude pos	Stiffness	Phase shift	Phase excitation	Force A raw	Displacement raw	HMax	HMax raw	Real Force	Real Stiffness	Contact Depth	Area	Hardness	Reduced Mod.
[#]	[#]	[um]	[s]	[um]	[um]	[um]	[m°]	[m°]	[um]	[uN]	[uN]	[V]	[V]	[V]	[°C]	[uN]	[um]	[N/m]	[°]	[°]	[uN]	[um]	[um]	[um]	[uN]	[N/m]	[um]	[um^2]	[MPa]	[MPa]
805	1.000000	0.002665	7.37293e+06	-40389.1	1055.82	-29790.1	0.000000	0.000000	6.002792	0.067596	NaN	0.000000	0.001594	0.001723	28.0812	0.038327	0.000882	43.4351	109.584	-160.205	0.041106	0.001429	-1.097550	-1.098786	0.067596	43.4351	-1.098717	-4.817738E+14	-1.403073E-16	NaN
805	1.000000	0.012760	7.37293e+06	-40389.1	1055.82	-29790.1	0.000000	0.000000	6.012885	0.007905	NaN	0.000000	0.001573	0.001706	28.0811	0.078397	0.001330	58.962	-143.935	16.0365	0.055291	0.011238	-1.087454	-1.088976	0.007905	58.962	-1.087555	-3.411762E+14	-2.317087E-17	NaN
805	1.000000	0.022612	7.37293e+06	-40389.1	1055.82	-29790.1	0.000000	0.000000	6.022741	0.087845	NaN	0.000000	0.001565	0.001697	28.081	0.056915	0.001767	32.2054	-149.323	-169.465	0.070959	0.021274	-1.077602	-1.078940	0.087845	32.2054	-1.079648	-2.671712E+14	-3.287954E-16	NaN
805	1.000000	0.032646	7.37293e+06	-40389.1	1055.82	-29790.1	0.000000	0.000000	6.032772	0.004000	NaN	0.000000	0.001592	0.001725	28.081	0.091573	0.002005	45.6814	92.4287	13.2836	0.053947	0.031262	-1.067568	-1.068953	0.004000	45.6814	-1.067634	-1.842447E+14	-2.170769E-17	NaN
805	1.000000	0.042632	7.37293e+06	-40389.1	1055.82	-29790.1	0.000000	0.000000	6.042759	0.038254	NaN	0.000000	0.001552	0.001745	28.0811	0.160285	0.001913	83.777	86.0602	-165.95	0.016026	0.041277	-1.057582	-1.058937	0.038254	83.777	-1.057924	-1.364353E+14	-2.803851E-16	NaN
805	1.000000	0.052621	7.37293e+06	-40389.1	1055.82	-29790.1	0.000000	0.000000	6.052750	0.097646	NaN	0.000000	0.001547	0.001766	28.0809	0.025652	0.001839	13.9513	-61.2718	13.4717	0.119552	0.051243	-1.047593	-1.048972	0.097646	13.9513	-1.052843	-1.165808E+14	-8.375833E-16	NaN
805	1.000000	0.062618	7.37293e+06	-40389.1	1055.82	-29790.1	0.000000	0.000000	6.062743	-0.006215	NaN	0.000000	0.001590	0.001760	28.0809	0.082994	0.002009	41.316	113.244	-168.574	0.010488	0.061323	-1.037596	-1.038891	-0.006215	41.316	-1.037483	-7.246446E+13	8.576367E-17	NaN
805	1.000000	0.072650	7.37293e+06	-40389.1	1055.82	-29790.1	0.000000	0.000000	6.072776	0.034128	NaN	0.000000	0.001565	0.001728	28.0813	0.121782	0.001986	61.3328	0.701843	11.5122	0.151386	0.071244	-1.027565	-1.028970	0.034128	61.3328	-1.027982	-5.399293E+13	-6.320737E-16	NaN
805	1.000000	0.082667	7.37293e+06	-40389.1	1055.82	-29790.1	0.000000	0.000000	6.082794	0.037878	NaN	0.000000	0.001656	0.001723	28.081	0.043161	0.001954	22.0848	-100.872	-165.773	0.061948	0.081355	-1.017547	-1.018859	0.037878	22.0848	-1.018833	-4.066812E+13	-9.313877E-16	NaN
805	1.000000	0.092648	7.37293e+06	-40389.1	1055.82	-29790.1	0.000000	0.000000	6.092774	0.025294	NaN	0.000000	0.001646	0.001718	28.081	0.056252	0.002058	27.332	-23.754	10.5674	-0.004684	0.091271	-1.007567	-1.008943	0.025294	27.332	-1.008261	-2.930717E+13	-8.630740E-16	NaN
805	1.000000	0.102607	7.37293e+06	-40389.1	1055.82	-29790.1	0.000000	0.000000	6.102735	0.058411	NaN	0.000000	0.001650	0.001719	28.0811	0.012117	0.001990	6.087713	-54.4853	-166.46	0.185822	0.101276	-0.997607	-0.998938	0.058411	6.087713	-1.004803	-2.632882E+13	-2.218511E-15	NaN
805	1.000000	0.112646	7.37293e+06	-40389.1	1055.82	-29790.1	0.000000	0.000000	6.112775	0.091964	NaN	0.000000	0.001634	0.001712	28.0809	0.129626	0.001888	68.6474	-165.17	15.2779	0.002473	0.111303	-0.987568	-0.988911	0.091964	68.6474	-0.988573	-1.591794E+13	-5.777405E-15	NaN
805	1.000000	0.122668	7.37293e+06	-40389.1	1055.82	-29790.1	0.000000	0.000000	6.122796	0.067671	NaN	0.000000	0.001630	0.001739	28.0798	0.010550	0.002146	4.915368	67.1052	-165.543	0.038229	0.121364	-0.977546	-0.978851	0.067671	4.915368	-0.987872	-1.557578E+13	-4.344649E-15	NaN
805	1.000000	0.132626	7.37293e+06	-40389.1	1055.82	-29790.1	0.000000	0.000000	6.132751	-0.007271	NaN	0.000000	0.001650	0.001759	28.0797	0.101300	0.001909	53.0639	-66.6259	13.0932	0.072059	0.131293	-0.967588	-0.968922	-0.007271	53.0639	-0.967486	-8.275137E+12	8.786251E-16	NaN
805	1.000000	0.142675	7.37293e+06	-40389.1	1055.82	-29790.1	0.000000	0.000000	6.142801	0.015028	NaN	0.000000	0.001647	0.001711	28.08	0.037255	0.002053	18.1455	-158.668	-166.136	0.100285	0.141337	-0.957539	-0.958878	0.015028	18.1455	-0.958160	-6.195322E+12	-2.425772E-15	NaN
805	1.000000	0.152690	7.37293e+06	-40389.1	1055.82	-29790.1	0.000000	0.000000	6.152818	0.071535	NaN	0.000000	0.001597	0.001733	28.0798	0.070402	0.001993	35.3308	120.656	12.6039	0.052879	0.151295	-0.947524	-0.948919	0.071535	35.3308	-0.949043	-4.667871E+12	-1.532487E-14	NaN
805	1.000000	0.162670	7.37293e+06	-40389.1	1055.82	-29790.1	0.000000	0.000000	6.162796	0.023828	NaN	0.000000	0.001652	0.001711	28.0796	0.061945	0.002002	30.934	178.56	-164.906	-0.040417	0.161346	-0.937545	-0.938868	0.023828	30.934	-0.938122	-3.325093E+12	-7.166005E-15	NaN
805	1.000000	0.172664	7.37293e+06	-40389.1	1055.82	-29790.1	0.000000	0.000000	6.172789	0.001623	NaN	0.000000	0.001654	0.001719	28.0797	0.103349	0.001988	51.9863	60.6251	12.4638	-0.001216	0.171360	-0.927550	-0.928854	0.001623	51.9863	-0.927573	-2.395775E+12	-6.776241E-16	NaN
805	1.000000	0.182702	7.37293e+06	-40389.1	1055.82	-29790.1	0.000000	0.000000	6.182828	0.026894	NaN	0.000000	0.001647	0.001702	28.0799	0.072410	0.002106	34.3874	-74.3087	-167.517	0.012122	0.181360	-0.917512	-0.918854	0.026894	34.3874	-0.918099	-1.784579E+12	-1.507012E-14	NaN
805	1.000000	0.192689	7.37293e+06	-40389.1	1055.82	-29790.1	0.000000	0.000000	6.192815	0.013061	NaN	0.000000	0.001660	0.001682	28.0797	0.030189	0.001965	15.3671	106.774	12.3205	0.112575	0.191295	-0.907525	-0.908919	0.013061	15.3671	-0.908163	-1.310220E+12	-9.968278E-15	NaN
805	1.000000	0.202680	7.37293e+06	-40389.1	1055.82	-29790.1	0.000000	0.000000	6.202809	0.098872	NaN	0.000000	0.001615	0.001671	28.0796	0.019780	0.002072	9.546481	-95.4536	-163.651	0.142782	0.201336	-0.897535	-0.898878	0.098872	9.546481	-0.905302	-1.198689E+12	-8.248321E-14	NaN
805	1.000000	0.212688	7.37293e+06	-40389.1	1055.82	-29790.1	0.000000	0.000000	6.212817	0.076955	NaN	0.000000	0.001616	0.001725	28.0797	0.029708	0.002127	13.9684	-174.506	13.7462	0.021741	0.211331	-0.887526	-0.888883	0.076955	13.9684	-0.891658	-7.840123E+11	-9.815522E-14	NaN
805	1.000000	0.222682	7.37293e+06	-40389.1	1055.82	-29790.1	0.000000	0.000000	6.222810	0.066759	NaN	0.000000	0.001636	0.001730	28.0798	0.123034	0.002010	61.2149	89.8154	-164.689	0.092433	0.221378	-0.877532	-0.878836	0.066759	61.2149	-0.878350	-5.180729E+11	-1.288608E-13	NaN
805	1.000000	0.232709	7.37293e+06	-40389.1	1055.82	-29790.1	0.000000	0.000000	6.232836	0.041647	NaN	0.000000	0.001592	0.001745	28.0798	0.026706	0.001937	13.7854	50.3909	14.4521	-0.018366	0.231297	-0.867505	-0.868917	0.041647	13.7854	-0.869771	-3.965950E+11	-1.050116E-13	NaN
805	1.000000	0.242691	7.37293e+06	-40389.1	1055.82	-29790.1	0.000000	0.000000	6.242818	0.048377	NaN	0.000000	0.001598	0.001723	28.0807	0.068008	0.001954	34.7977	-6.029982	-164.514	0.032632	0.241399	-0.857523	-0.858815	0.048377	34.7977	-0.858566	-2.797098E+11	-1.729550E-13	NaN
805	1.000000	0.252694	7.37293e+06	-40389.1	1055.82	-29790.1	0.000000	0.000000	6.252822	0.048001	NaN	0.000000	0.001604	0.001756	28.0811	0.102932	0.002059	50.0028	144.223	13.5335	0.024482	0.251328	-0.847520	-0.848886	0.048001	50.0028	-0.848240	-2.027221E+11	-2.367838E-13	NaN
805	1.000000	0.262730	7.37293e+06	-40389.1	1055.82	-29790.1	0.000000	0.000000	6.262855	0.012483	NaN	0.000000	0.001577	0.001750	28.0811	0.081537	0.001895	43.0384	-150.086	-164.867	0.005819	0.261415	-0.837485	-0.838799	0.012483	43.0384	-0.837702	-1.459353E+11	-8.553885E-14	NaN
805	1.000000	0.272761	7.37293e+06	-40389.1	1055.82	-29790.1	0.000000	0.000000	6.272889	0.055602	NaN	0.000000	0.001607	0.001775	28.0809	0.071320	0.001997	35.7088	-83.6466	15.4304	0.104874	0.271364	-0.827453	-0.828850	0.055602	35.7088	-0.828621	-1.099228E+11	-5.058282E-13	NaN
805	1.000000	0.282727	7.37293e+06	-40389.1	1055.82	-29790.1	0.000000	0.000000	6.282854	0.062490	NaN	0.000000	0.001612	0.001697	28.081	0.068762	0.002032	33.8332	52.1717	-167.188	0.059782	0.281390	-0.817488	-0.818824	0.062490	33.8332	-0.818873	-8.108241E+10	-7.706971E-13	NaN
805	1.000000	0.292721	7.37293e+06	-40389.1	1055.82	-29790.1	0.000000	0.000000	6.292848	0.044181	NaN	0.000000	0.001633	0.001704	28.081	0.134013	0.002100	63.8078	63.1022	13.3383	0.045950	0.291387	-0.807493	-0.808828	0.044181	63.8078	-0.808013	-5.775710E+10	-7.649531E-13	NaN
805	1.000000	0.302722	7.37293e+06	-40389.1	1055.82	-29790.1	0.000000	0.000000	6.302848	0.015516	NaN	0.000000	0.001595	0.001755	28.0812	0.063775	0.002040	31.2603	-22.1699	-169.299	0.046177	0.301428	-0.797492	-0.798786	0.015516	31.2603	-0.797864	-4.205985E+10	-3.688925E-13	NaN
805	1.000000	0.312750	7.37293e+06	-40389.1	1055.82	-29790.1	0.000000	0.000000	6.312876	0.012060	NaN	0.000000	0.001582	0.001738	28.081	0.109920	0.002111	52.0745	-56.7798	12.698	0.002396	0.311399	-0.787464	-0.788815	0.012060	52.0745	-0.787638	-3.054906E+10	-3.947786E-13	NaN
805	1.000000	0.322736	7.37293e+06	-40389.1	1055.82	-29790.1	0.000000	0.000000	6.322865	0.091006	NaN	0.000000	0.001605	0.001759	28.0811	0.092122	0.001849	49.8224	107.955	-167.91	0.018273	0.321417	-0.777478	-0.778797	0.091006	49.8224	-0.778848	-2.320504E+10	-3.921826E-12	NaN
805	1.000000	0.332741	7.37293e+06	-40389.1	1055.82	-29790.1	0.000000	0.000000	6.332866	0.013281	NaN	0.000000	0.001563	0.001753	28.081	0.044369	0.001989	22.3092	115.953	15.3513	0.011996	0.331385	-0.767473	-0.768829	0.013281	22.3092	-0.767920	-1.648247E+10	-8.057942E-13	NaN
805	1.000000	0.342744	7.37293e+06	-40389.1	1055.82	-29790.1	0.000000	0.000000	6.342868	-0.036240	NaN	0.000000	0.001629	0.001749	28.0811	0.025730	0.001919	13.4071	135.234	-170.072	0.020130	0.341472	-0.757470	-0.758742	-0.036240	13.4071	-0.755443	-1.115046E+10	3.250130E-12	NaN
805	1.000000	0.352748	7.37293e+06	-40389.1	1055.82	-29790.1	0.000000	0.000000	6.352873	0.017999	NaN	0.000000	0.001675	0.001743	28.0811	0.073661	0.002063	35.7096	-0.015571	11.8832	0.004376	0.351385	-0.747467	-0.748829	0.017999	35.7096	-0.747845	-8.787800E+9	-2.048191E-12	NaN
805	1.000000	0.362747	7.37293e+06	-40389.1	1055.82	-29790.1	0.000000	0.000000	6.362875	0.062968	NaN	0.000000	0.001620	0.001713	28.0811	0.077806	0.001975	39.4025	78.657	-163.781	-0.038402	0.361443	-0.737467	-0.738771	0.062968	39.4025	-0.738666	-6.589899E+9	-9.555274E-12	NaN
805	1.000000	0.372753	7.37293e+06	-40389.1	1055.82	-29790.1	0.000000	0.000000	6.372881	0.066266	NaN	0.000000	0.001645	0.001739	28.081	0.099946	0.001847	54.1069	169.723	13.026	0.054678	0.371341	-0.727461	-0.728874	0.066266	54.1069	-0.728379	-4.772205E+9	-1.388579E-11	NaN
805	1.000000	0.382752	7.37293e+06	-40389.1	1055.82	-29790.1	0.000000	0.000000	6.382877	0.007081	NaN	0.000000	0.001644	0.001719	28.0798	0.069240	0.002084	33.2279	-15.5166	-169.211	0.021028	0.381486	-0.717463	-0.718728	0.007081	33.2279	-0.717622	-3.404438E+9	-2.079801E-12	NaN
805	1.000000	0.392784	7.37293e+06	-40389.1	1055.82	-29790.1	0.000000	0.000000	6.392913	0.094202	NaN	0.000000	0.001672	0.001735	28.0798	0.053433	0.002061	25.9281	-113.488	11.2504	0.082399	0.391341	-0.707430	-0.708873	0.094202	25.9281	-0.710155	-2.692572E+9	-3.498589E-11	NaN
805	1.000000	0.402787	7.37293e+06	-40389.1	1055.82	-29790.1	0.000000	0.000000	6.402915	0.080579	NaN	0.000000	0.001627	0.001762	28.08	0.052294	0.001884	27.7589	-2.550555	-166.284	0.099532	0.401447	-0.697427	-0.698767	0.080579	27.7589	-0.699604	-1.932546E+9	-4.169567E-11	NaN
805	1.000000	0.412796	7.37293e+06	-40389.1	1055.82	-29790.1	0.000000	0.000000	6.412920	-0.016134	NaN	0.000000	0.001623	0.001727	28.0797	0.065316	0.001973	33.1062	-60.9142	14.3981	-0.013083	0.411411	-0.687418	-0.688803	-0.016134	33.1062	-0.687053	-1.302082E+9	1.239129E-11	NaN
805	1.000000	0.422786	7.37293e+06	-40389.1	1055.82	-29790.1	0.000000	0.000000	6.422911	0.009508	NaN	0.000000	0.001631	0.001731	28.0797	0.059370	0.001932	30.7351	52.8359	-167.805	-0.034482	0.421426	-0.677429	-0.678788	0.009508	30.7351	-0.677661	-9.687428E+8	-9.815126E-12	NaN
805	1.000000	0.432768	7.37293e+06	-40389.1	1055.82	-29790.1	0.000000	0.000000	6.432894	0.030700	NaN	0.000000	0.001621	0.001752	28.0799	0.086138	0.001914	44.996	124.646	12.2726	0.018819	0.431476	-0.667446	-0.668738	0.030700	44.996	-0.667958	-7.135776E+8	-4.302265E-11	NaN
805	1.000000	0.442785	7.37293e+06	-40389.1	1055.82	-29790.1	0.000000	0.000000	6.442909	-0.028544	NaN	0.000000	0.001641	0.001723	28.0799	0.048279	0.001962	24.612	116.922	-164.684	-0.008287	0.441478	-0.657429	-0.658737	-0.028544	24.612	-0.656559	-4.981198E+8	5.730443E-11	NaN
805	1.000000	0.452787	7.37293e+06	-40389.1	1055.82	-29790.1	0.000000	0.000000	6.452913	0.004467	NaN	0.000000	0.001606	0.001765	28.0798	0.054835	0.001979	27.7088	134.6	13.0889	-0.048744	0.451438	-0.647427	-0.648776	0.004467	27.7088	-0.647548	-3.748135E+8	-1.191861E-11	NaN
805	1.000000	0.462768	7.37293e+06	-40389.1	1055.82	-29790.1	0.000000	0.000000	6.462893	-0.018616	NaN	0.000000	0.001622	0.001728	28.08	0.071432	0.002016	35.4351	-44.8289	-166.714	0.042864	0.461474	-0.637446	-0.638740	-0.018616	35.4351	-0.637052	-2.690521E+8	6.919188E-11	NaN
805	1.000000	0.472798	7.37293e+06	-40389.1	1055.82	-29790.1	0.000000	0.000000	6.472926	0.076049	NaN	0.000000	0.001690	0.001705	28.0799	0.099768	0.001940	51.4276	-48.3011	7.700801	0.031143	0.471446	-0.627416	-0.628768	0.076049	51.4276	-0.628525	-2.054809E+8	-3.701016E-10	NaN
805	1.000000	0.482787	7.37293e+06	-40389.1	1055.82	-29790.1	0.000000	0.000000	6.482913	0.010207	NaN	0.000000	0.001710	0.001695	28.0799	0.030620	0.001957	15.6438	57.4298	-164.905	0.079331	0.481484	-0.617427	-0.618730	0.010207	15.6438	-0.617916	-1.468883E+8	-6.949049E-11	NaN
805	1.000000	0.492793	7.37293e+06	-40389.1	1055.82	-29790.1	0.000000	0.000000	6.492920	0.039919	NaN	0.000000	0.001659	0.001697	28.0796	0.044479	0.001956	22.7392	27.9622	11.4277	0.112450	0.491431	-0.607421	-0.608783	0.039919	22.7392	-0.608738	-1.098373E+8	-3.634337E-10	NaN
805	1.000000	0.502823	7.37293e+06	-40389.1	1055.82	-29790.1	0.000000	0.000000	6.502953	0.115323	NaN	0.000000	0.001589	0.001725	28.0805	0.052173	0.002057	25.3637	-100.83	-167.038	0.063072	0.501507	-0.597391	-0.598707	0.115323	25.3637	-0.600801	-8.540641E+7	-1.350287E-9	NaN
805	1.000000	0.512835	7.37293e+06	-40389.1	1055.82	-29790.1	0.000000	0.000000	6.512964	0.097484	NaN	0.000000	0.001620	0.001705	28.0798	0.145422	0.002051	70.9089	-144.444	14.4312	0.095174	0.511455	-0.587379	-0.588759	0.097484	70.9089	-0.588410	-5.764274E+7	-1.691170E-9	NaN
805	1.000000	0.522822	7.37293e+06	-40389.1	1055.82	-29790.1	0.000000	0.000000	6.522947	0.009253	NaN	0.000000	0.001610	0.001729	28.081	0.040215	0.001956	20.5608	47.9411	-169.947	0.020933	0.521557	-0.577392	-0.578658	0.009253	20.5608	-0.577730	-4.105730E+7	-2.253650E-10	NaN
805	1.000000	0.532790	7.37293e+06	-40389.1	1055.82	-29790.1	0.000000	0.000000	6.532916	0.024702	NaN	0.000000	0.001585	0.001734	28.0809	0.090223	0.001900	47.494	102.486	14.3887	0.017572	0.531490	-0.567424	-0.568724	0.024702	47.494	-0.567814	-2.995188E+7	-8.247392E-10	NaN
805	1.000000	0.542851	7.37293e+06	-40389.1	1055.82	-29790.1	0.000000	0.000000	6.542975	-0.025171	NaN	0.000000	0.001610	0.001737	28.0813	0.089875	0.001790	50.2004	-9.559935	-165.52	0.038568	0.541539	-0.557364	-0.558675	-0.025171	50.2004	-0.556988	-2.121768E+7	1.186343E-9	NaN
805	1.000000	0.552833	7.37293e+06	-40389.1	1055.82	-29790.1	0.000000	0.000000	6.552958	-0.004982	NaN	0.000000	0.001607	0.001751	28.0811	0.095573	0.001987	48.108	123.952	13.4846	0.051061	0.551476	-0.547381	-0.548738	-0.004982	48.108	-0.547303	-1.558115E+7	3.197395E-10	NaN
805	1.000000	0.562839	7.37293e+06	-40389.1	1055.82	-29790.1	0.000000	0.000000	6.562964	-0.012314	NaN	0.000000	0.001635	0.001733	28.0811	0.079016	0.002021	39.1006	-102.534	-165.194	-0.068202	0.561545	-0.537375	-0.538669	-0.012314	39.1006	-0.537139	-1.126330E+7	1.093277E-9	NaN
805	1.000000	0.572869	7.37293e+06	-40389.1	1055.82	-29790.1	0.000000	0.000000	6.572993	-0.024602	NaN	0.000000	0.001668	0.001712	28.0812	0.094174	0.001969	47.839	160.033	16.9855	0.051175	0.571517	-0.527345	-0.528697	-0.024602	47.839	-0.526960	-8.13472e+06	3.024318E-9	NaN
805	1.000000	0.582818	7.37293e+06	-40389.1	1055.82	-29790.1	0.000000	0.000000	6.582944	0.020185	NaN	0.000000	0.001698	0.001741	28.081	0.049599	0.002034	24.3822	111.574	-166.022	0.093023	0.581586	-0.517396	-0.518628	0.020185	24.3822	-0.518017	-6.10959e+06	-3.303857E-9	NaN
805	1.000000	0.592846	7.37293e+06	-40389.1	1055.82	-29790.1	0.000000	0.000000	6.592973	0.035684	NaN	0.000000	0.001664	0.001702	28.0808	0.086082	0.002067	41.6436	172.576	15.446	0.027037	0.591513	-0.507368	-0.508701	0.035684	41.6436	-0.508011	-4.43306e+06	-8.049432E-9	NaN
805	1.000000	0.602861	7.37293e+06	-40389.1	1055.82	-29790.1	0.000000	0.000000	6.602988	0.046879	NaN	0.000000	0.001655	0.001711	28.081	0.123987	0.001986	62.4261	-13.4232	-168.089	0.009188	0.601547	-0.497353	-0.498667	0.046879	62.4261	-0.497916	-3.20586e+06	-1.462304E-8	NaN
805	1.000000	0.612838	7.37293e+06	-40389.1	1055.82	-29790.1	0.000000	0.000000	6.612966	0.072894	NaN	0.000000	0.001735	0.001718	28.0811	0.078785	0.002091	37.6849	124.243	14.6135	0.033047	0.611511	-0.487376	-0.488703	0.072894	37.6849	-0.488827	-2.39329e+06	-3.045765E-8	NaN
805	1.000000	0.622850	7.37293e+06	-40389.1	1055.82	-29790.1	0.000000	0.000000	6.622980	0.119868	NaN	0.000000	0.001673	0.001759	28.0809	0.029701	0.002148	13.8251	175.496	-167.173	0.083470	0.621633	-0.477364	-0.478581	0.119868	13.8251	-0.483867	-2.04006e+06	-5.875724E-8	NaN
805	1.000000	0.632880	7.37293e+06	-40389.1	1055.82	-29790.1	0.000000	0.000000	6.633008	0.063835	NaN	0.000000	0.001707	0.001793	28.0807	0.065186	0.002023	32.2268	7.769326	12.4275	0.047631	0.631474	-0.467334	-0.468740	0.063835	32.2268	-0.468819	-1.25559e+06	-5.084094E-8	NaN
805	1.000000	0.642870	7.37293e+06	-40389.1	1055.82	-29790.1	0.000000	0.000000	6.642997	0.058812	NaN	0.000000	0.001692	0.001782	28.0808	0.050099	0.001912	26.1984	161.539	-163.894	0.111140	0.641582	-0.457344	-0.458632	0.058812	26.1984	-0.459028	-914867	-6.428521E-8	NaN
805	1.000000	0.652877	7.37293e+06	-40389.1	1055.82	-29790.1	0.000000	0.000000	6.653005	0.071270	NaN	0.000000	0.001664	0.001745	28.0798	0.038252	0.002024	18.8964	44.6919	15.3918	-0.010315	0.651547	-0.447337	-0.448667	0.071270	18.8964	-0.450166	-686555	-1.038088E-7	NaN
805	1.000000	0.662896	7.37293e+06	-40389.1	1055.82	-29790.1	0.000000	0.000000	6.663024	0.060416	NaN	0.000000	0.001669	0.001753	28.0796	0.123886	0.002179	56.8581	-147.744	-167.415	0.035900	0.661613	-0.437318	-0.438601	0.060416	56.8581	-0.438115	-464250	-1.301365E-7	NaN
805	1.000000	0.672868	7.37293e+06	-40389.1	1055.82	-29790.1	0.000000	0.000000	6.672994	0.031909	NaN	0.000000	0.001708	0.001768	28.0795	0.079301	0.001980	40.0554	-7.684818	15.0957	0.132258	0.671585	-0.427346	-0.428630	0.031909	40.0554	-0.427944	-333398	-9.570733E-8	NaN
805	1.000000	0.682910	7.37293e+06	-40389.1	1055.82	-29790.1	0.000000	0.000000	6.683035	-0.010322	NaN	0.000000	0.001690	0.001741	28.0799	0.079558	0.002018	39.4258	-77.0044	-165.52	-0.015328	0.681540	-0.417304	-0.418674	-0.010322	39.4258	-0.417108	-234090	4.409551E-8	NaN
805	1.000000	0.692883	7.37293e+06	-40389.1	1055.82	-29790.1	0.000000	0.000000	6.693008	-0.003673	NaN	0.000000	0.001700	0.001748	28.0797	0.077505	0.002080	37.255	-42.7623	14.6521	0.086672	0.691459	-0.407331	-0.408755	-0.003673	37.255	-0.407257	-169583	2.166043E-8	NaN
805	1.000000	0.702869	7.37293e+06	-40389.1	1055.82	-29790.1	0.000000	0.000000	6.702996	0.034738	NaN	0.000000	0.001715	0.001766	28.0797	0.061360	0.002017	30.4263	95.3162	-165.061	-0.009002	0.701611	-0.397345	-0.398604	0.034738	30.4263	-0.398201	-125991	-2.757214E-7	NaN
805	1.000000	0.712875	7.37293e+06	-40389.1	1055.82	-29790.1	0.000000	0.000000	6.713003	0.062114	NaN	0.000000	0.001652	0.001722	28.0796	0.101045	0.002104	48.0189	-78.198	14.2097	0.083773	0.711531	-0.387339	-0.388683	0.062114	48.0189	-0.388309	-90985.1	-6.826869E-7	NaN
805	1.000000	0.722899	7.37293e+06	-40389.1	1055.82	-29790.1	0.000000	0.000000	6.723024	0.000882	NaN	0.000000	0.001691	0.001754	28.0798	0.014613	0.002013	7.257342	129.366	-164.813	0.018026	0.721625	-0.377316	-0.378589	0.000882	7.257342	-0.377407	-63482.9	-1.389962E-8	NaN
805	1.000000	0.732901	7.37293e+06	-40389.1	1055.82	-29790.1	0.000000	0.000000	6.733027	0.028703	NaN	0.000000	0.001699	0.001776	28.0796	0.204093	0.001979	103.111	171.348	16.1554	-0.037782	0.731567	-0.367314	-0.368648	0.028703	103.111	-0.367522	-45754.1	-6.273405E-7	NaN
805	1.000000	0.742899	7.37293e+06	-40389.1	1055.82	-29790.1	0.000000	0.000000	6.743026	0.055822	NaN	0.000000	0.001703	0.001744	28.0795	0.079982	0.001993	40.1297	94.8082	-166.03	0.082023	0.741602	-0.357316	-0.358612	0.055822	40.1297	-0.358359	-33737.7	-1.654596E-6	NaN
805	1.000000	0.752910	7.37293e+06	-40389.1	1055.82	-29790.1	0.000000	0.000000	6.753039	0.100015	NaN	0.000000	0.001710	0.001720	28.0798	0.047671	0.001914	24.9048	87.9346	13.7911	0.073093	0.751528	-0.347304	-0.348686	0.100015	24.9048	-0.350316	-25798.2	-3.876826E-6	NaN
805	1.000000	0.762944	7.37293e+06	-40389.1	1055.82	-29790.1	0.000000	0.000000	6.763070	0.010032	NaN	0.000000	0.001728	0.001735	28.0795	0.114430	0.002065	55.4169	127.303	-165.366	-0.071390	0.761655	-0.337270	-0.338559	0.010032	55.4169	-0.337406	-16738.4	-5.993329E-7	NaN
805	1.000000	0.772934	7.37293e+06	-40389.1	1055.82	-29790.1	0.000000	0.000000	6.773062	0.057445	NaN	0.000000	0.001709	0.001742	28.0797	0.082058	0.002044	40.1423	98.4931	13.6065	0.123154	0.771602	-0.327280	-0.328612	0.057445	40.1423	-0.328353	-12340.4	-4.655035E-6	NaN
805	1.000000	0.782940	7.37293e+06	-40389.1	1055.82	-29790.1	0.000000	0.000000	6.783069	0.100661	NaN	0.000000	0.001711	0.001737	28.0793	0.059679	0.002046	29.1757	-178.133	-166.656	0.054282	0.781578	-0.317274	-0.318637	0.100661	29.1757	-0.319862	-9259.9	-1.087062E-5	NaN
805	1.000000	0.792946	7.37293e+06	-40389.1	1055.82	-29790.1	0.000000	0.000000	6.793070	-0.022414	NaN	0.000000	0.001697	0.001730	28.0811	0.060312	0.002001	30.1411	-177.562	15.6158	0.027986	0.791581	-0.307268	-0.308634	-0.022414	30.1411	-0.306710	-5920.07	3.786036E-6	NaN
805	1.000000	0.802951	7.37293e+06	-40389.1	1055.82	-29790.1	0.000000	0.000000	6.803077	0.032613	NaN	0.000000	0.001735	0.001798	28.0807	0.105990	0.001997	53.0718	-79.7151	-167.76	0.110111	0.801646	-0.297263	-0.298568	0.032613	53.0718	-0.297724	-4352.47	-7.492982E-6	NaN
805	1.000000	0.812935	7.37293e+06	-40389.1	1055.82	-29790.1	0.000000	0.000000	6.813061	0.034717	NaN	0.000000	0.001716	0.001769	28.0808	0.072631	0.001992	36.4615	-6.697274	14.403	0.022491	0.811552	-0.287279	-0.288662	0.034717	36.4615	-0.287994	-3113.31	-1.115115E-5	NaN
805	1.000000	0.822941	7.37293e+06	-40389.1	1055.82	-29790.1	0.000000	0.000000	6.823067	0.004526	NaN	0.000000	0.001748	0.001799	28.0808	0.085300	0.002106	40.5049	-26.7719	-166.616	-0.063464	0.821666	-0.277273	-0.278548	0.004526	40.5049	-0.277357	-2153.06	-2.101997E-6	NaN
805	1.000000	0.832931	7.37293e+06	-40389.1	1055.82	-29790.1	0.000000	0.000000	6.833059	0.069244	NaN	0.000000	0.001683	0.001827	28.081	0.081892	0.001890	43.3355	-148.627	14.4517	0.096669	0.831609	-0.267283	-0.268606	0.069244	43.3355	-0.268482	-1579.25	-4.384634E-5	NaN
805	1.000000	0.842951	7.37293e+06	-40389.1	1055.82	-29790.1	0.000000	0.000000	6.843077	0.019021	NaN	0.000000	0.001671	0.001803	28.0808	0.060440	0.002102	28.7517	136.425	-165.949	0.081792	0.841673	-0.257263	-0.258541	0.019021	28.7517	-0.257759	-1082.78	-1.756673E-5	NaN
805	1.000000	0.852945	7.37293e+06	-40389.1	1055.82	-29790.1	0.000000	0.000000	6.853066	-0.100788	NaN	0.000000	0.001652	0.001778	28.0811	0.088988	0.002028	43.8731	-25.9828	12.99	-0.044369	0.851594	-0.247269	-0.248620	-0.100788	43.8731	-0.245546	-701.346	0.000144	NaN
805	1.000000	0.862965	7.37293e+06	-40389.1	1055.82	-29790.1	0.000000	0.000000	6.863090	0.005200	NaN	0.000000	0.001657	0.001798	28.0809	0.149851	0.001888	79.357	-17.395	-164.557	0.097908	0.861645	-0.237249	-0.238570	0.005200	79.357	-0.237298	-521.546	-9.970362E-6	NaN
805	1.000000	0.872962	7.37293e+06	-40389.1	1055.82	-29790.1	0.000000	0.000000	6.873090	0.071705	NaN	0.000000	0.001654	0.001777	28.0809	0.072436	0.002034	35.616	143.953	14.0317	0.102756	0.871600	-0.227253	-0.228615	0.071705	35.616	-0.228763	-382.794	-0.000187	NaN
805	1.000000	0.882944	7.37293e+06	-40389.1	1055.82	-29790.1	0.000000	0.000000	6.883073	0.080547	NaN	0.000000	0.001649	0.001798	28.0808	0.077302	0.002100	36.8166	-69.4059	-159.789	0.070589	0.881679	-0.217270	-0.218535	0.080547	36.8166	-0.218911	-266.845	-0.000302	NaN
805	1.000000	0.892958	7.37293e+06	-40389.1	1055.82	-29790.1	0.000000	0.000000	6.893084	0.006317	NaN	0.000000	0.001640	0.001737	28.0809	0.136553	0.001995	68.4448	140.784	15.0956	0.014356	0.891634	-0.207256	-0.208581	0.006317	68.4448	-0.207325	-173.547	-3.639840E-5	NaN
805	1.000000	0.902995	7.37293e+06	-40389.1	1055.82	-29790.1	0.000000	0.000000	6.903121	0.010403	NaN	0.000000	0.001663	0.001756	28.081	0.120198	0.002043	58.8237	-99.3258	-164.875	0.097068	0.901651	-0.197219	-0.198564	0.010403	58.8237	-0.197352	-119.148	-8.730810E-5	NaN
805	1.000000	0.912960	7.37293e+06	-40389.1	1055.82	-29790.1	0.000000	0.000000	6.913086	0.016348	NaN	0.000000	0.001614	0.001770	28.081	0.037401	0.001994	18.7576	27.4197	13.8823	0.036735	0.911653	-0.187254	-0.188561	0.016348	18.7576	-0.187908	-82.9868	-0.000197	NaN
805	1.000000	0.922988	7.37293e+06	-40389.1	1055.82	-29790.1	0.000000	0.000000	6.923116	0.063177	NaN	0.000000	0.001674	0.001759	28.0807	0.029915	0.001947	15.3641	175.094	-164.26	0.158929	0.921684	-0.177226	-0.178531	0.063177	15.3641	-0.180310	-61.7641	-0.001023	NaN
805	1.000000	0.932970	7.37293e+06	-40389.1	1055.82	-29790.1	0.000000	0.000000	6.933096	0.019292	NaN	0.000000	0.001665	0.001761	28.08	0.069770	0.001992	35.0215	129.9	15.3139	0.096465	0.931605	-0.167244	-0.168609	0.019292	35.0215	-0.167657	-37.3958	-0.000516	NaN
805	1.000000	0.942988	7.37293e+06	-40389.1	1055.82	-29790.1	0.000000	0.000000	6.943115	0.052165	NaN	0.000000	0.001635	0.001747	28.0797	0.163758	0.002012	81.3832	-48.6438	-166.141	0.072216	0.941725	-0.157226	-0.158489	0.052165	81.3832	-0.157707	-24.9531	-0.002091	NaN
805	1.000000	0.952995	7.37293e+06	-40389.1	1055.82	-29790.1	0.000000	0.000000	6.953124	0.100823	NaN	0.000000	0.001735	0.001727	28.08	0.039657	0.002003	19.7956	137.513	13.6403	0.045383	0.951651	-0.147219	-0.148563	0.100823	19.7956	-0.151039	-18.9203	-0.005329	NaN
805	1.000000	0.962998	7.37293e+06	-40389.1	1055.82	-29790.1	0.000000	0.000000	6.963126	0.070629	NaN	0.000000	0.001715	0.001775	28.0799	0.029990	0.002006	14.9495	-159.426	-165.375	0.061927	0.961698	-0.137216	-0.138516	0.070629	14.9495	-0.140759	-12.224	-0.005778	NaN
805	1.000000	0.973020	7.37293e+06	-40389.1	1055.82	-29790.1	0.000000	0.000000	6.973151	0.139574	NaN	0.000000	0.001659	0.001756	28.0802	0.046021	0.002014	22.846	-177.838	12.069	0.170075	0.971621	-0.127195	-0.128593	0.139574	22.846	-0.131777	-8.249219	-0.016920	NaN
805	1.000000	0.983000	7.37293e+06	-40389.1	1055.82	-29790.1	0.000000	0.000000	6.983127	0.057976	NaN	0.000000	0.001634	0.001783	28.0797	0.173099	0.002022	85.5956	47.2917	-163.89	0.029940	0.981737	-0.117214	-0.118477	0.057976	85.5956	-0.117722	-4.344049	-0.013346	NaN
805	1.000000	0.993000	7.37293e+06	-40389.1	1055.82	-29790.1	0.000000	0.000000	6.993129	0.092808	NaN	0.000000	0.001653	0.001780	28.0799	0.139360	0.002057	67.7653	-30.2859	16.7651	0.018728	0.991633	-0.107214	-0.108581	0.092808	67.7653	-0.108241	-2.758218	-0.033648	NaN
805	1.000000	1.003018	7.37293e+06	-40389.1	1055.82	-29790.1	0.000000	0.000000	7.003152	0.196839	NaN	0.000000	0.001641	0.001727	28.08	0.006817	0.002003	3.404060	40.6411	-161.686	0.229744	1.001698	-0.097196	-0.098517	0.196839	3.404060	-0.140564	-12.1216	-0.016239	NaN
805	1.000000	1.013009	7.37293e+06	-40389.1	1055.82	-29790.1	0.000000	0.000000	7.013139	0.118022	NaN	0.000000	0.001691	0.001751	28.0797	0.074811	0.001924	38.8931	-26.1285	16.1639	0.113664	1.011667	-0.087206	-0.088547	0.118022	38.8931	-0.089481	-1.051069	-0.112287	NaN
805	1.000000	1.023044	7.37293e+06	-40389.1	1055.82	-29790.1	0.000000	0.000000	7.023178	0.204033	NaN	0.000000	0.001659	0.001758	28.0798	0.218646	0.001898	115.189	24.111	-165.221	0.265422	1.021733	-0.077170	-0.078482	0.204033	115.189	-0.078499	-0.567481	-0.359542	NaN
805	1.000000	1.033020	7.37293e+06	-40389.1	1055.82	-29790.1	0.000000	0.000000	7.033154	0.207927	NaN	0.000000	0.001627	0.001725	28.0793	0.264613	0.002119	124.897	8.453533	14.8716	0.115823	1.031729	-0.067194	-0.068485	0.207927	124.897	-0.068443	-0.309705	-0.671371	NaN
805	1.000000	1.042992	7.37293e+06	-40389.1	1055.82	-29790.1	0.000000	0.000000	7.043142	0.603744	NaN	0.000000	0.001639	0.001747	28.08	0.519842	0.001863	278.98	13.731	-167.225	0.597517	1.041750	-0.057222	-0.058464	0.603744	278.98	-0.058845	-0.166819	-3.619157	NaN
805	1.000000	1.053041	7.37293e+06	-40389.1	1055.82	-29790.1	0.000000	0.000000	7.053204	0.939120	NaN	0.000000	0.001648	0.001770	28.0796	0.602705	0.002061	292.464	27.93	13.0508	0.938974	1.051651	-0.047173	-0.048564	0.939120	292.464	-0.049582	-0.088630	-10.596	NaN
805	1.000000	1.063046	7.37293e+06	-40389.1	1055.82	-29790.1	0.000000	0.000000	7.063220	1.200477	NaN	0.000000	0.001653	0.001765	28.0807	0.570705	0.001949	292.808	35.0483	-165.365	1.152142	1.061771	-0.037168	-0.038443	1.200477	292.808	-0.040243	-0.045998	-26.0986	NaN
805	1.000000	1.073050	7.37293e+06	-40389.1	1055.82	-29790.1	0.000000	0.000000	7.073229	1.319965	NaN	0.000000	0.001630	0.001729	28.0811	0.614002	0.002033	302.05	18.1446	20.4477	1.344363	1.071732	-0.027165	-0.028482	1.319965	302.05	-0.030442	-0.023677	-55.7492	NaN
805	1.000000	1.083033	7.37293e+06	-40389.1	1055.82	-29790.1	0.000000	0.000000	7.083217	1.434521	NaN	0.000000	0.001664	0.001727	28.0809	0.710601	0.001947	365.061	23.4869	-165.183	1.385929	1.081808	-0.017182	-0.018406	1.434521	365.061	-0.020129	-0.012656	-113.347	NaN
805	1.000000	1.093055	7.37293e+06	-40389.1	1055.82	-29790.1	0.000000	0.000000	7.093238	1.401965	NaN	0.000000	0.001639	0.001765	28.0806	0.672657	0.002032	331.062	22.726	15.8037	1.417785	1.091710	-0.007159	-0.008504	1.401965	331.062	-0.010335	-0.006579	-213.097	NaN
805	1.000000	1.103049	7.37293e+06	-40389.1	1055.82	-29790.1	0.000000	0.000000	7.103368	4.712916	NaN	0.000000	0.001622	0.001745	28.081	4.917032	0.001899	2589.01	16.7203	-173.211	3.647127	1.101700	0.002835	0.001486	4.712916	2589.01	0.001470	0.001130	4168.99	70352.2
805	2.000000	1.108165	7.37293e+06	-40389.1	1055.82	-29790.1	0.000000	0.000000	7.108694	9.827621	NaN	0.000000	0.001688	0.001672	28.0808	9.375655	0.001669	5616.41	6.081744	10.8099	9.523082	1.107812	0.007951	0.007598	9.827621	5616.41	0.006638	0.005679	1730.59	68093.4
805	2.000000	1.110662	7.37293e+06	-40389.1	1055.82	-29790.1	0.000000	0.000000	7.111353	13.7703	NaN	0.000000	0.001652	0.001736	28.081	12.5196	0.001764	7098.82	7.478569	-173.842	14.0282	1.110280	0.010448	0.010065	13.7703	7098.82	0.008993	0.008084	1703.43	72135.7
805	2.000000	1.113116	7.37293e+06	-40389.1	1055.82	-29790.1	0.000000	0.000000	7.114121	21.4329	NaN	0.000000	0.001646	0.001722	28.0807	15.0931	0.001700	8878.45	6.546357	5.771237	20.7368	1.112816	0.012901	0.012602	21.4329	8878.45	0.011091	0.010419	2057.09	79468.7
805	2.000000	1.115601	7.37293e+06	-40389.1	1055.82	-29790.1	0.000000	0.000000	7.116806	26.2808	NaN	0.000000	0.001665	0.001721	28.0813	16.9447	0.001561	10851.8	1.240348	-172.567	24.8278	1.115224	0.015387	0.015010	26.2808	10851.8	0.013571	0.013426	1957.39	85564.8
805	2.000000	1.118079	7.37293e+06	-40389.1	1055.82	-29790.1	0.000000	0.000000	7.119386	28.7791	NaN	0.000000	0.001669	0.001733	28.0808	19.8901	0.001691	11764.4	7.027413	1.686781	27.6497	1.117779	0.017864	0.017565	28.7791	11764.4	0.016030	0.016683	1725.07	83215.9
805	2.000000	1.120625	7.37293e+06	-40389.1	1055.82	-29790.1	0.000000	0.000000	7.122309	37.9432	NaN	0.000000	0.001671	0.001742	28.0812	23.0284	0.001808	12733.7	7.170854	-178.521	38.8368	1.120233	0.020411	0.020019	37.9432	12733.7	0.018176	0.019756	1920.56	82770.2
805	2.000000	1.123046	7.37293e+06	-40389.1	1055.82	-29790.1	0.000000	0.000000	7.124997	44.4124	NaN	0.000000	0.001689	0.001734	28.0807	24.6659	0.001740	14175	7.024478	1.187334	42.2717	1.122730	0.022832	0.022516	44.4124	14175	0.020482	0.023306	1905.64	84832.6
805	2.000000	1.125594	7.37293e+06	-40389.1	1055.82	-29790.1	0.000000	0.000000	7.127912	53.3658	NaN	0.000000	0.001644	0.001726	28.0818	27.1796	0.001698	16003.8	5.758520	-178.781	55.2535	1.125231	0.025380	0.025016	53.3658	16003.8	0.022879	0.027269	1956.99	88543.7
805	2.000000	1.128058	7.37293e+06	-40389.1	1055.82	-29790.1	0.000000	0.000000	7.130668	60.4695	NaN	0.000000	0.001685	0.001802	28.0808	30.1733	0.001828	16508.7	7.993422	-0.652133	61.2622	1.127753	0.027844	0.027539	60.4695	16508.7	0.025096	0.031191	1938.67	85402.2
805	2.000000	1.130523	7.37293e+06	-40389.1	1055.82	-29790.1	0.000000	0.000000	7.133599	71.7962	NaN	0.000000	0.001669	0.001777	28.0805	32.8657	0.001856	17706.6	5.893496	178.756	70.529	1.130282	0.030309	0.030068	71.7962	17706.6	0.027268	0.035270	2035.59	86139.7
805	2.000000	1.133101	7.37293e+06	-40389.1	1055.82	-29790.1	0.000000	0.000000	7.136467	78.8844	NaN	0.000000	0.001672	0.001786	28.0798	34.5167	0.001840	18755	6.450680	-0.315335	79.5895	1.132696	0.032886	0.032481	78.8844	18755	0.029732	0.040190	1962.81	85473.9
805	2.000000	1.135550	7.37293e+06	-40389.1	1055.82	-29790.1	0.000000	0.000000	7.139155	84.6846	NaN	0.000000	0.001674	0.001750	28.0801	36.2834	0.001797	20190	4.476506	179.89	84.8671	1.135260	0.035336	0.035046	84.6846	20190	0.032190	0.045405	1865.08	86567.7
805	2.000000	1.137970	7.37293e+06	-40389.1	1055.82	-29790.1	0.000000	0.000000	7.141943	93.6374	NaN	0.000000	0.001639	0.001769	28.0793	38.6175	0.001818	21241.1	3.703383	0.093848	90.5577	1.137688	0.037755	0.037474	93.6374	21241.1	0.034449	0.050471	1855.27	86383.2
805	2.000000	1.140513	7.37293e+06	-40389.1	1055.82	-29790.1	0.000000	0.000000	7.144962	105.209	NaN	0.000000	0.001653	0.001758	28.0807	41.4985	0.001917	21650.1	5.459949	178.413	102.963	1.140229	0.040299	0.040015	105.209	21650.1	0.036654	0.055668	1889.94	83835.9
805	2.000000	1.143043	7.37293e+06	-40389.1	1055.82	-29790.1	0.000000	0.000000	7.147923	115.715	NaN	0.000000	0.001640	0.001759	28.0797	42.181	0.001797	23470.2	5.331433	-1.571785	114.36	1.142629	0.042829	0.042415	115.715	23470.2	0.039131	0.061801	1872.38	86256.4
805	2.000000	1.145431	7.37293e+06	-40389.1	1055.82	-29790.1	0.000000	0.000000	7.151014	132.818	NaN	0.000000	0.001644	0.001773	28.0801	43.4796	0.001642	26487.6	1.965941	179.62	127.393	1.145135	0.045216	0.044921	132.818	26487.6	0.041456	0.067844	1957.7	92909.4
805	2.000000	1.147984	7.37293e+06	-40389.1	1055.82	-29790.1	0.000000	0.000000	7.153875	140.317	NaN	0.000000	0.001646	0.001735	28.0794	48.4317	0.001741	27820	6.127995	-4.214465	137.441	1.147625	0.047770	0.047411	140.317	27820	0.043987	0.074737	1877.47	92974.1
805	2.000000	1.150528	7.37293e+06	-40389.1	1055.82	-29790.1	0.000000	0.000000	7.156751	148.399	NaN	0.000000	0.001681	0.001766	28.0802	51.6713	0.001942	26612	6.010942	176.784	149.219	1.150227	0.050313	0.050012	148.399	26612	0.046131	0.080831	1835.92	85518.8
805	2.000000	1.152980	7.37293e+06	-40389.1	1055.82	-29790.1	0.000000	0.000000	7.159904	165.442	NaN	0.000000	0.001671	0.001798	28.0797	52.7617	0.001827	28875	6.006476	-4.000933	161.448	1.152610	0.052766	0.052395	165.442	28875	0.048468	0.087738	1885.64	89064
805	2.000000	1.155474	7.37293e+06	-40389.1	1055.82	-29790.1	0.000000	0.000000	7.162994	179.949	NaN	0.000000	0.001656	0.001708	28.08	54.2452	0.001886	28765	4.549909	178.545	177.985	1.155076	0.055260	0.054862	179.949	28765	0.050568	0.094177	1910.74	85637.6
805	2.000000	1.157932	7.37293e+06	-40389.1	1055.82	-29790.1	0.000000	0.000000	7.165730	186.709	NaN	0.000000	0.001651	0.001769	28.0795	57.5579	0.001813	31743.2	5.861419	-5.163730	181.969	1.157600	0.057717	0.057385	186.709	31743.2	0.053306	0.102905	1814.37	90407.5
805	2.000000	1.160557	7.37293e+06	-40389.1	1055.82	-29790.1	0.000000	0.000000	7.168831	198.303	NaN	0.000000	0.001628	0.001787	28.0797	60.4181	0.001912	31597.2	5.828748	175.294	201.382	1.160200	0.060342	0.059986	198.303	31597.2	0.055635	0.110624	1792.58	86795.4
805	2.000000	1.163006	7.37293e+06	-40389.1	1055.82	-29790.1	0.000000	0.000000	7.172070	217.494	NaN	0.000000	0.001613	0.001723	28.0797	60.4343	0.001758	34370.3	4.247339	-2.690851	214.766	1.162650	0.062792	0.062436	217.494	34370.3	0.058046	0.118896	1829.29	91069.6
805	2.000000	1.165469	7.37293e+06	-40389.1	1055.82	-29790.1	0.000000	0.000000	7.175100	231.325	NaN	0.000000	0.001621	0.001739	28.0809	62.3186	0.001838	33902	6.158595	174.79	229.836	1.165102	0.065255	0.064888	231.325	33902	0.060137	0.126301	1831.53	87155.6
805	2.000000	1.167908	7.37293e+06	-40389.1	1055.82	-29790.1	0.000000	0.000000	7.178083	244.544	NaN	0.000000	0.001660	0.001718	28.0811	65.2632	0.001756	37160.1	4.943479	-5.572812	239.916	1.167650	0.067694	0.067436	244.544	37160.1	0.062759	0.135886	1799.63	92100.8
805	2.000000	1.170489	7.37293e+06	-40389.1	1055.82	-29790.1	0.000000	0.000000	7.181287	259.715	NaN	0.000000	0.001642	0.001780	28.0807	67.7856	0.001775	38189.4	1.962242	178.272	259.186	1.170092	0.070274	0.069878	259.715	38189.4	0.065174	0.145012	1790.99	91624.9
805	2.000000	1.173061	7.37293e+06	-40389.1	1055.82	-29790.1	0.000000	0.000000	7.184001	263.155	NaN	0.000000	0.001632	0.001799	28.0812	69.2203	0.001691	40927.7	1.693106	-2.727124	264.307	1.172874	0.072847	0.072660	263.155	40927.7	0.068025	0.156146	1685.31	94629.2
805	2.000000	1.175439	7.37293e+06	-40389.1	1055.82	-29790.1	0.000000	0.000000	7.187399	287.975	NaN	0.000000	0.001607	0.001745	28.0807	71.7218	0.001698	42228	2.548857	175.645	286.085	1.175282	0.075225	0.075068	287.975	42228	0.070110	0.164537	1750.21	95113.4
805	2.000000	1.177947	7.37293e+06	-40389.1	1055.82	-29790.1	0.000000	0.000000	7.190410	300.241	NaN	0.000000	0.001627	0.001759	28.0809	74.2501	0.001765	42068	2.645563	-4.157562	295.376	1.177583	0.077733	0.077369	300.241	42068	0.072380	0.173903	1726.48	92165.9
805	2.000000	1.180475	7.37293e+06	-40389.1	1055.82	-29790.1	0.000000	0.000000	7.193438	312.393	NaN	0.000000	0.001670	0.001809	28.0809	78.22	0.001883	41543.8	4.076364	174.669	311.641	1.180283	0.080261	0.080069	312.393	41543.8	0.074621	0.183392	1703.42	88631.7
805	2.000000	1.182848	7.37293e+06	-40389.1	1055.82	-29790.1	0.000000	0.000000	7.196775	335.866	NaN	0.000000	0.001646	0.001747	28.0808	78.3518	0.001770	44260	2.368043	-3.927329	326.751	1.182627	0.082633	0.082412	335.866	44260	0.076942	0.193468	1736.03	91934.7
805	2.000000	1.185474	7.37293e+06	-40389.1	1055.82	-29790.1	0.000000	0.000000	7.200103	352.918	NaN	0.000000	0.001606	0.001747	28.0807	80.6051	0.001778	45333.2	5.999576	173.18	352.139	1.185026	0.085260	0.084812	352.918	45333.2	0.079421	0.204510	1725.67	91586.5
805	2.000000	1.187865	7.37293e+06	-40389.1	1055.82	-29790.1	0.000000	0.000000	7.203365	374.127	NaN	0.000000	0.001630	0.001770	28.0807	83.0564	0.001860	44660.3	6.056642	-7.572609	366.219	1.187517	0.087650	0.087303	374.127	44660.3	0.081368	0.213379	1753.35	88332.4
805	2.000000	1.190357	7.37294e+06	-40389.1	1055.82	-29790.1	0.000000	0.000000	7.206415	387.71	NaN	0.000000	0.001596	0.001775	28.0808	84.4355	0.001782	47384.2	3.839761	174.504	380.787	1.189989	0.090142	0.089775	387.71	47384.2	0.084006	0.225682	1717.95	91129.4
805	2.000000	1.192913	7.37294e+06	-40389.1	1055.82	-29790.1	0.000000	0.000000	7.209897	410.228	NaN	0.000000	0.001595	0.001749	28.0809	85.9625	0.001779	48308.3	2.439335	-3.934380	403.651	1.192507	0.092699	0.092293	410.228	48308.3	0.086330	0.236787	1732.47	90701.7
805	2.000000	1.195449	7.37294e+06	-40389.1	1055.82	-29790.1	0.000000	0.000000	7.213062	425.548	NaN	0.000000	0.001615	0.001748	28.0808	89.5142	0.001805	49585.3	7.016556	171.441	423.633	1.195088	0.095234	0.094873	425.548	49585.3	0.088798	0.248851	1710.05	90814.8
805	2.000000	1.197867	7.37294e+06	-40389.1	1055.82	-29790.1	0.000000	0.000000	7.216150	441.855	NaN	0.000000	0.001579	0.001758	28.0797	91.372	0.001791	51027	3.559034	-6.056022	435.116	1.197594	0.097652	0.097380	441.855	51027	0.091158	0.260650	1695.2	91315.5
805	2.000000	1.200408	7.37294e+06	-40389.1	1055.82	-29790.1	0.000000	0.000000	7.219514	461.872	NaN	0.000000	0.001602	0.001755	28.0797	94.3869	0.001864	50628	4.763006	172.769	458.327	1.200180	0.100194	0.099966	461.872	50628	0.093352	0.271848	1699.01	88715.7
805	2.000000	1.202911	7.37294e+06	-40389.1	1055.82	-29790.1	0.000000	0.000000	7.223159	489.669	NaN	0.000000	0.001611	0.001778	28.0795	95.9943	0.001751	54820.8	5.348875	-7.784672	484.901	1.202438	0.102696	0.102223	489.669	54820.8	0.095997	0.285641	1714.28	93714.8
805	2.000000	1.204993	7.37294e+06	-40389.1	1055.82	-29790.1	0.000000	0.000000	7.225830	503.994	NaN	0.000000	0.001590	0.001731	28.0796	97.8613	0.001748	55970.1	6.866085	-9.602991	502.568	1.204501	0.104779	0.104287	503.994	55970.1	0.098025	0.296432	1700.2	93921.9