File: remote_trans/data/nanoindenter/0828-1/data/Data_2025-08-06,11h17m57s/2025-07-22_16-23-58_1_791.txt
2025-07-22, 16:23:58, 1
Index	Phase	Displacement	Time	Pos X	Pos Y	Pos Z	Rot A	Rot B	Piezo Z	Force A	Force B	Gripper	Voltage A	Voltage B	Temperature	Amplitude force	Amplitude pos	Stiffness	Phase shift	Phase excitation	Force A raw	Displacement raw	HMax	HMax raw	Real Force	Real Stiffness	Contact Depth	Area	Hardness	Reduced Mod.
[#]	[#]	[um]	[s]	[um]	[um]	[um]	[m°]	[m°]	[um]	[uN]	[uN]	[V]	[V]	[V]	[°C]	[uN]	[um]	[N/m]	[°]	[°]	[uN]	[um]	[um]	[um]	[uN]	[N/m]	[um]	[um^2]	[MPa]	[MPa]
791	1.000000	0.002559	7.37279e+06	-39689.1	1055.82	-29792.8	0.000000	0.000000	6.002804	-0.050174	NaN	0.000000	0.001574	0.001695	28.0833	0.069048	0.000956	72.2625	101.977	-162.904	0.002722	0.001264	-1.166731	-1.168025	-0.050174	72.2625	-1.166210	-3.873443E+15	1.295331E-17	NaN
791	1.000000	0.012630	7.37279e+06	-39689.1	1055.82	-29792.8	0.000000	0.000000	6.012873	-0.095454	NaN	0.000000	0.001646	0.001682	28.0835	0.015707	0.001245	12.6116	-62.9405	20.2789	0.019917	0.011175	-1.156660	-1.158114	-0.095454	12.6116	-1.150983	-2.421040E+15	3.942667E-17	NaN
791	1.000000	0.022515	7.37279e+06	-39689.1	1055.82	-29792.8	0.000000	0.000000	6.022760	-0.084579	NaN	0.000000	0.001604	0.001723	28.0835	0.008935	0.001710	5.226356	-93.1688	-165.849	-0.162331	0.021154	-1.146774	-1.148135	-0.084579	5.226356	-1.134637	-1.461544E+15	5.786972E-17	NaN
791	1.000000	0.032483	7.37279e+06	-39689.1	1055.82	-29792.8	0.000000	0.000000	6.032730	-0.018612	NaN	0.000000	0.001638	0.001677	28.0834	0.069292	0.001871	37.0253	-80.2436	14.994	0.048737	0.031103	-1.136806	-1.138186	-0.018612	37.0253	-1.136429	-1.544731E+15	1.204865E-17	NaN
791	1.000000	0.042480	7.37279e+06	-39689.1	1055.82	-29792.8	0.000000	0.000000	6.042726	-0.034135	NaN	0.000000	0.001616	0.001709	28.0836	0.078141	0.002040	38.3013	-111.28	-168.232	-0.042943	0.041223	-1.126810	-1.128066	-0.034135	38.3013	-1.126141	-1.124245E+15	3.036230E-17	NaN
791	1.000000	0.052485	7.37279e+06	-39689.1	1055.82	-29792.8	0.000000	0.000000	6.052730	-0.083242	NaN	0.000000	0.001682	0.001753	28.0835	0.030592	0.001807	16.9255	-68.5923	12.8402	-0.079759	0.051192	-1.116804	-1.118098	-0.083242	16.9255	-1.113115	-7.517849E+14	1.107262E-16	NaN
791	1.000000	0.062493	7.37279e+06	-39689.1	1055.82	-29792.8	0.000000	0.000000	6.062740	-0.011179	NaN	0.000000	0.001689	0.001686	28.0837	0.027038	0.001907	14.175	13.6233	-171.107	-0.027712	0.061210	-1.106796	-1.108079	-0.011179	14.175	-1.106205	-6.072297E+14	1.840906E-17	NaN
791	1.000000	0.072504	7.37279e+06	-39689.1	1055.82	-29792.8	0.000000	0.000000	6.072752	-0.010529	NaN	0.000000	0.001682	0.001704	28.0822	0.152580	0.002017	75.6619	125.376	12.1167	-0.016945	0.071150	-1.096785	-1.098139	-0.010529	75.6619	-1.096681	-4.523836E+14	2.327360E-17	NaN
791	1.000000	0.082535	7.37279e+06	-39689.1	1055.82	-29792.8	0.000000	0.000000	6.082780	-0.059769	NaN	0.000000	0.001653	0.001711	28.0824	0.087505	0.001872	46.7402	-135.735	-167.483	-0.028440	0.081186	-1.086755	-1.088103	-0.059769	46.7402	-1.085796	-3.231121E+14	1.849786E-16	NaN
791	1.000000	0.092520	7.37279e+06	-39689.1	1055.82	-29792.8	0.000000	0.000000	6.092766	-0.037731	NaN	0.000000	0.001669	0.001687	28.0823	0.065436	0.001895	34.5279	-18.8994	10.3973	-0.010194	0.091118	-1.076770	-1.078172	-0.037731	34.5279	-1.075950	-2.382982E+14	1.583369E-16	NaN
791	1.000000	0.102546	7.37279e+06	-39689.1	1055.82	-29792.8	0.000000	0.000000	6.102789	-0.116540	NaN	0.000000	0.001690	0.001705	28.0824	0.090442	0.002091	43.2459	140.933	-165.265	-0.089104	0.101218	-1.066743	-1.068071	-0.116540	43.2459	-1.064722	-1.683751E+14	6.921449E-16	NaN
791	1.000000	0.112532	7.37279e+06	-39689.1	1055.82	-29792.8	0.000000	0.000000	6.112781	0.027149	NaN	0.000000	0.001654	0.001700	28.0822	0.054638	0.001970	27.729	116.231	11.5217	-0.003975	0.111208	-1.056758	-1.058081	0.027149	27.729	-1.057492	-1.346222E+14	-2.016714E-16	NaN
791	1.000000	0.122525	7.37279e+06	-39689.1	1055.82	-29792.8	0.000000	0.000000	6.122773	0.003601	NaN	0.000000	0.001653	0.001716	28.0825	0.121825	0.002057	59.2258	-136.145	-167.351	0.056147	0.121261	-1.046764	-1.048028	0.003601	59.2258	-1.046810	-9.672166E+13	-3.722877E-17	NaN
791	1.000000	0.132518	7.37279e+06	-39689.1	1055.82	-29792.8	0.000000	0.000000	6.132764	-0.046925	NaN	0.000000	0.001694	0.001701	28.0821	0.054363	0.002025	26.84	1.907905	10.4615	-0.105835	0.131190	-1.036771	-1.038099	-0.046925	26.84	-1.035460	-6.806296E+13	6.894372E-16	NaN
791	1.000000	0.142522	7.37279e+06	-39689.1	1055.82	-29792.8	0.000000	0.000000	6.142768	-0.040310	NaN	0.000000	0.001651	0.001685	28.0823	0.027336	0.002097	13.0341	126.57	-164.586	0.049743	0.141227	-1.026767	-1.028062	-0.040310	13.0341	-1.024448	-4.839412E+13	8.329586E-16	NaN
791	1.000000	0.152536	7.37279e+06	-39689.1	1055.82	-29792.8	0.000000	0.000000	6.152781	-0.076079	NaN	0.000000	0.001688	0.001701	28.0822	0.149803	0.002196	68.2283	-129.779	12.4553	-0.109574	0.151183	-1.016753	-1.018107	-0.076079	68.2283	-1.015917	-3.715477E+13	2.047626E-15	NaN
791	1.000000	0.162520	7.37279e+06	-39689.1	1055.82	-29792.8	0.000000	0.000000	6.162763	-0.098510	NaN	0.000000	0.001679	0.001671	28.0825	0.036302	0.001785	20.34	-38.3158	-163.668	-0.079348	0.161215	-1.006770	-1.008074	-0.098510	20.34	-1.003137	-2.500391E+13	3.939791E-15	NaN
791	1.000000	0.172575	7.37279e+06	-39689.1	1055.82	-29792.8	0.000000	0.000000	6.172821	-0.049905	NaN	0.000000	0.001621	0.001773	28.0824	0.098622	0.001938	50.878	-129.302	16.0781	-0.106957	0.171190	-0.996714	-0.998100	-0.049905	50.878	-0.995978	-2.002716E+13	2.491849E-15	NaN
791	1.000000	0.182579	7.37279e+06	-39689.1	1055.82	-29792.8	0.000000	0.000000	6.182825	-0.037739	NaN	0.000000	0.001595	0.001730	28.0823	0.048250	0.001994	24.1993	143.325	-168.73	-0.013113	0.181247	-0.986711	-0.988042	-0.037739	24.1993	-0.985541	-1.448948E+13	2.604585E-15	NaN
791	1.000000	0.192576	7.37279e+06	-39689.1	1055.82	-29792.8	0.000000	0.000000	6.192825	0.041158	NaN	0.000000	0.001621	0.001726	28.0827	0.123865	0.001976	62.69	-85.2521	12.5385	0.045275	0.191183	-0.976714	-0.978107	0.041158	62.69	-0.977206	-1.118835E+13	-3.678633E-15	NaN
791	1.000000	0.202546	7.37279e+06	-39689.1	1055.82	-29792.8	0.000000	0.000000	6.202793	-0.015160	NaN	0.000000	0.001609	0.001738	28.0828	0.028793	0.002142	13.4437	-84.333	-163.647	-0.022080	0.201185	-0.966744	-0.968104	-0.015160	13.4437	-0.965898	-7.877302E+12	1.924563E-15	NaN
791	1.000000	0.212592	7.37279e+06	-39689.1	1055.82	-29792.8	0.000000	0.000000	6.212837	-0.055562	NaN	0.000000	0.001602	0.001727	28.0839	0.062176	0.002153	28.8756	-35.1426	11.2524	-0.025796	0.211249	-0.956698	-0.958040	-0.055562	28.8756	-0.955255	-5.660938E+12	9.814964E-15	NaN
791	1.000000	0.222558	7.37279e+06	-39689.1	1055.82	-29792.8	0.000000	0.000000	6.222806	0.010310	NaN	0.000000	0.001640	0.001713	28.0839	0.043034	0.001906	22.5793	-56.3143	-165.831	0.055323	0.221215	-0.946731	-0.948075	0.010310	22.5793	-0.947074	-4.390961E+12	-2.348062E-15	NaN
791	1.000000	0.232575	7.37279e+06	-39689.1	1055.82	-29792.8	0.000000	0.000000	6.232820	-0.066820	NaN	0.000000	0.001613	0.001772	28.084	0.064152	0.002010	31.9189	-88.2174	12.4918	-0.055688	0.231213	-0.936715	-0.938077	-0.066820	31.9189	-0.935145	-3.031281E+12	2.204340E-14	NaN
791	1.000000	0.242593	7.37279e+06	-39689.1	1055.82	-29792.8	0.000000	0.000000	6.242842	0.013466	NaN	0.000000	0.001637	0.001784	28.0836	0.015157	0.002165	7.001633	-65.8949	-166.67	0.030544	0.241276	-0.926696	-0.928014	0.013466	7.001633	-0.928139	-2.438231E+12	-5.522938E-15	NaN
791	1.000000	0.252599	7.37279e+06	-39689.1	1055.82	-29792.8	0.000000	0.000000	6.252849	0.042932	NaN	0.000000	0.001640	0.001723	28.084	0.090912	0.001953	46.5509	16.8831	12.3984	0.040671	0.251193	-0.916690	-0.918097	0.042932	46.5509	-0.917382	-1.745230E+12	-2.459977E-14	NaN
791	1.000000	0.262624	7.37279e+06	-39689.1	1055.82	-29792.8	0.000000	0.000000	6.262869	-0.073294	NaN	0.000000	0.001639	0.001710	28.0836	0.087913	0.002058	42.7116	171.703	-170.477	-0.124327	0.261244	-0.906666	-0.908046	-0.073294	42.7116	-0.905379	-1.201535E+12	6.100009E-14	NaN
791	1.000000	0.272598	7.37279e+06	-39689.1	1055.82	-29792.8	0.000000	0.000000	6.272845	-0.008208	NaN	0.000000	0.001615	0.001656	28.0838	0.026742	0.002053	13.0263	135.301	17.2515	-0.039644	0.271233	-0.896691	-0.898056	-0.008208	13.0263	-0.896219	-9.035858E+11	9.084003E-15	NaN
791	1.000000	0.282591	7.37279e+06	-39689.1	1055.82	-29792.8	0.000000	0.000000	6.282837	-0.023408	NaN	0.000000	0.001615	0.001703	28.0835	0.140925	0.001919	73.4275	98.3597	-168.913	-0.105886	0.281280	-0.886699	-0.888009	-0.023408	73.4275	-0.886460	-6.668900E+11	3.510091E-14	NaN
791	1.000000	0.292606	7.37279e+06	-39689.1	1055.82	-29792.8	0.000000	0.000000	6.292852	-0.054775	NaN	0.000000	0.001604	0.001738	28.0834	0.104897	0.002075	50.5646	-137.331	13.7003	-0.146621	0.291219	-0.876683	-0.878070	-0.054775	50.5646	-0.875871	-4.795808E+11	1.142138E-13	NaN
791	1.000000	0.302617	7.37279e+06	-39689.1	1055.82	-29792.8	0.000000	0.000000	6.302862	-0.069026	NaN	0.000000	0.001626	0.001709	28.0836	0.022380	0.002023	11.0641	-121.303	-168.273	-0.071766	0.301291	-0.866672	-0.867999	-0.069026	11.0641	-0.861993	-3.112398E+11	2.217766E-13	NaN
791	1.000000	0.312655	7.37279e+06	-39689.1	1055.82	-29792.8	0.000000	0.000000	6.312901	-0.051823	NaN	0.000000	0.001600	0.001701	28.0838	0.027859	0.002092	13.3169	-108.871	12.7775	-0.032006	0.311255	-0.856634	-0.858034	-0.051823	13.3169	-0.853716	-2.404642E+11	2.155135E-13	NaN
791	1.000000	0.322613	7.37279e+06	-39689.1	1055.82	-29792.8	0.000000	0.000000	6.322859	-0.053986	NaN	0.000000	0.001604	0.001695	28.0835	0.057670	0.001943	29.6736	129.223	-165.771	-0.066960	0.321330	-0.846676	-0.847960	-0.053986	29.6736	-0.845312	-1.850310E+11	2.917654E-13	NaN
791	1.000000	0.332600	7.37279e+06	-39689.1	1055.82	-29792.8	0.000000	0.000000	6.332846	-0.040424	NaN	0.000000	0.001652	0.001717	28.0836	0.108271	0.001932	56.0426	16.2316	13.8872	-0.094641	0.331265	-0.836690	-0.838025	-0.040424	56.0426	-0.836149	-1.390314E+11	2.907530E-13	NaN
791	1.000000	0.342590	7.37279e+06	-39689.1	1055.82	-29792.8	0.000000	0.000000	6.342839	0.015107	NaN	0.000000	0.001711	0.001683	28.0823	0.057497	0.001925	29.8721	141.918	-166.501	0.016668	0.341306	-0.826699	-0.827983	0.015107	29.8721	-0.827078	-1.047566E+11	-1.442102E-13	NaN
791	1.000000	0.352620	7.37279e+06	-39689.1	1055.82	-29792.8	0.000000	0.000000	6.352865	-0.078041	NaN	0.000000	0.001706	0.001671	28.0822	0.034019	0.002044	16.6437	-92.4696	13.3474	-0.070390	0.351290	-0.816669	-0.818000	-0.078041	16.6437	-0.813152	-6.781663E+10	1.150767E-12	NaN
791	1.000000	0.362636	7.37279e+06	-39689.1	1055.82	-29792.8	0.000000	0.000000	6.362880	-0.074516	NaN	0.000000	0.001641	0.001703	28.0819	0.091230	0.002059	44.3085	-67.3684	-166.652	-0.015224	0.361300	-0.806654	-0.807990	-0.074516	44.3085	-0.805392	-5.321711E+10	1.400218E-12	NaN
791	1.000000	0.372618	7.37279e+06	-39689.1	1055.82	-29792.8	0.000000	0.000000	6.372861	-0.099632	NaN	0.000000	0.001697	0.001685	28.0825	0.022673	0.001950	11.6256	100.434	9.284226	0.014625	0.371278	-0.796672	-0.798011	-0.099632	11.6256	-0.790244	-3.314371E+10	3.006070E-12	NaN
791	1.000000	0.382628	7.37279e+06	-39689.1	1055.82	-29792.8	0.000000	0.000000	6.382874	-0.034143	NaN	0.000000	0.001646	0.001706	28.0821	0.065909	0.001946	33.8623	-78.31	-165.628	-0.014812	0.381311	-0.786662	-0.787978	-0.034143	33.8623	-0.785905	-2.893792E+10	1.179882E-12	NaN
791	1.000000	0.392656	7.37279e+06	-39689.1	1055.82	-29792.8	0.000000	0.000000	6.392902	-0.031621	NaN	0.000000	0.001664	0.001709	28.0821	0.083644	0.001968	42.4923	-121.074	15.8733	-0.068665	0.391331	-0.776634	-0.777958	-0.031621	42.4923	-0.776076	-2.127647E+10	1.486191E-12	NaN
791	1.000000	0.402644	7.37279e+06	-39689.1	1055.82	-29792.8	0.000000	0.000000	6.402891	-0.024100	NaN	0.000000	0.001680	0.001708	28.082	0.063481	0.002080	30.5209	44.571	-168.679	0.013293	0.401335	-0.766645	-0.767954	-0.024100	30.5209	-0.766053	-1.554656E+10	1.550152E-12	NaN
791	1.000000	0.412663	7.37279e+06	-39689.1	1055.82	-29792.8	0.000000	0.000000	6.412910	-0.009481	NaN	0.000000	0.001689	0.001760	28.0823	0.073758	0.002058	35.8477	97.2785	15.1735	-0.002080	0.411306	-0.756627	-0.757983	-0.009481	35.8477	-0.756428	-1.150030E+10	8.243736E-13	NaN
791	1.000000	0.422672	7.37279e+06	-39689.1	1055.82	-29792.8	0.000000	0.000000	6.422918	-0.041251	NaN	0.000000	0.001634	0.001693	28.0821	0.088190	0.002171	40.6164	11.7076	-167.557	-0.044802	0.421355	-0.746618	-0.747935	-0.041251	40.6164	-0.745856	-8.256632E+9	4.996141E-12	NaN
791	1.000000	0.432640	7.37279e+06	-39689.1	1055.82	-29792.8	0.000000	0.000000	6.432887	-0.020920	NaN	0.000000	0.001653	0.001722	28.0821	0.045266	0.001842	24.5736	-52.6898	15.1253	-0.025528	0.431330	-0.736650	-0.737959	-0.020920	24.5736	-0.736011	-6.063452E+9	3.450146E-12	NaN
791	1.000000	0.442683	7.37279e+06	-39689.1	1055.82	-29792.8	0.000000	0.000000	6.442925	-0.120506	NaN	0.000000	0.001619	0.001742	28.0821	0.021839	0.001970	11.0882	-39.7073	-164.053	-0.094537	0.441325	-0.726607	-0.727965	-0.120506	11.0882	-0.718456	-3.494717E+9	3.448246E-11	NaN
791	1.000000	0.452650	7.37279e+06	-39689.1	1055.82	-29792.8	0.000000	0.000000	6.452895	-0.053889	NaN	0.000000	0.001680	0.001707	28.0823	0.024453	0.002188	11.1777	-36.4016	15.1428	-0.101479	0.451272	-0.716640	-0.718017	-0.053889	11.1777	-0.713024	-2.946525E+9	1.828910E-11	NaN
791	1.000000	0.462671	7.37279e+06	-39689.1	1055.82	-29792.8	0.000000	0.000000	6.462916	-0.064870	NaN	0.000000	0.001701	0.001688	28.0821	0.044006	0.002048	21.4924	30.6539	-164.715	-0.103555	0.461372	-0.706619	-0.707918	-0.064870	21.4924	-0.704355	-2.243865E+9	2.890983E-11	NaN
791	1.000000	0.472682	7.37279e+06	-39689.1	1055.82	-29792.8	0.000000	0.000000	6.472929	-0.021839	NaN	0.000000	0.001660	0.001707	28.082	0.073578	0.002153	34.1771	30.1676	12.7145	-0.015403	0.471266	-0.696607	-0.698024	-0.021839	34.1771	-0.696128	-1.732395E+9	1.260606E-11	NaN
791	1.000000	0.482675	7.37279e+06	-39689.1	1055.82	-29792.8	0.000000	0.000000	6.482920	-0.063313	NaN	0.000000	0.001680	0.001715	28.0834	0.083779	0.001823	45.9644	112.957	-168.542	-0.030686	0.481393	-0.686614	-0.687896	-0.063313	45.9644	-0.685581	-1.243134E+9	5.093000E-11	NaN
791	1.000000	0.492691	7.37279e+06	-39689.1	1055.82	-29792.8	0.000000	0.000000	6.492933	-0.140153	NaN	0.000000	0.001655	0.001712	28.0835	0.003669	0.001954	1.877611	-166.267	12.4456	-0.164358	0.491341	-0.676598	-0.677948	-0.140153	1.877611	-0.620615	-1.599871E+8	8.760265E-10	NaN
791	1.000000	0.502712	7.37279e+06	-39689.1	1055.82	-29792.8	0.000000	0.000000	6.502957	-0.077494	NaN	0.000000	0.001646	0.001716	28.0832	0.036681	0.001865	19.67	-145.124	-167.679	-0.067470	0.501361	-0.666577	-0.667928	-0.077494	19.67	-0.663622	-6.224093E+8	1.245059E-10	NaN
791	1.000000	0.512686	7.37279e+06	-39689.1	1055.82	-29792.8	0.000000	0.000000	6.512934	-0.005397	NaN	0.000000	0.001682	0.001728	28.0832	0.025938	0.002027	12.7931	149.754	13.9747	0.046477	0.511361	-0.656603	-0.657929	-0.005397	12.7931	-0.656287	-4.938539E+8	1.092795E-11	NaN
791	1.000000	0.522681	7.37279e+06	-39689.1	1055.82	-29792.8	0.000000	0.000000	6.522927	-0.049539	NaN	0.000000	0.001648	0.001696	28.0837	0.060270	0.001984	30.3818	37.5743	-163.816	0.023713	0.521436	-0.646608	-0.647853	-0.049539	30.3818	-0.645385	-3.500777E+8	1.415084E-10	NaN
791	1.000000	0.532708	7.37279e+06	-39689.1	1055.82	-29792.8	0.000000	0.000000	6.532953	-0.068206	NaN	0.000000	0.001613	0.001708	28.0833	0.103379	0.002010	51.4276	61.6481	16.5988	-0.115105	0.531319	-0.636582	-0.637971	-0.068206	51.4276	-0.635587	-2.568801E+8	2.655170E-10	NaN
791	1.000000	0.542717	7.37279e+06	-39689.1	1055.82	-29792.8	0.000000	0.000000	6.542964	-0.037389	NaN	0.000000	0.001686	0.001688	28.0835	0.139551	0.002003	69.6875	29.6617	-166.224	-0.020190	0.541357	-0.626572	-0.627932	-0.037389	69.6875	-0.626170	-1.907275E+8	1.960329E-10	NaN
791	1.000000	0.552716	7.37279e+06	-39689.1	1055.82	-29792.8	0.000000	0.000000	6.552965	0.026572	NaN	0.000000	0.001686	0.001780	28.0834	0.031579	0.001936	16.3114	146.914	13.0775	-0.064426	0.551363	-0.616573	-0.617927	0.026572	16.3114	-0.617795	-1.463250E+8	-1.815976E-10	NaN
791	1.000000	0.562725	7.37279e+06	-39689.1	1055.82	-29792.8	0.000000	0.000000	6.562970	-0.078115	NaN	0.000000	0.001723	0.001701	28.0835	0.142490	0.001953	72.9647	-135.178	-165.385	-0.003941	0.561417	-0.606564	-0.607872	-0.078115	72.9647	-0.605761	-9.994952E+7	7.815469E-10	NaN
791	1.000000	0.572716	7.37279e+06	-39689.1	1055.82	-29792.8	0.000000	0.000000	6.572961	-0.071373	NaN	0.000000	0.001582	0.001737	28.0834	0.043670	0.002008	21.7468	-136.123	16.2388	-0.096927	0.571391	-0.596573	-0.597898	-0.071373	21.7468	-0.594111	-6.907752E+7	1.033238E-9	NaN
791	1.000000	0.582735	7.37279e+06	-39689.1	1055.82	-29792.8	0.000000	0.000000	6.582981	-0.043460	NaN	0.000000	0.001647	0.001739	28.0833	0.050458	0.001970	25.6088	5.824970	-166.815	-0.024652	0.581398	-0.586554	-0.587891	-0.043460	25.6088	-0.585281	-5.219078E+7	8.327057E-10	NaN
791	1.000000	0.592735	7.37279e+06	-39689.1	1055.82	-29792.8	0.000000	0.000000	6.592982	-0.000831	NaN	0.000000	0.001623	0.001685	28.0832	0.086686	0.001899	45.6458	133.64	9.581776	-0.029003	0.591362	-0.576555	-0.577928	-0.000831	45.6458	-0.576541	-3.953478E+7	2.101243E-11	NaN
791	1.000000	0.602732	7.37279e+06	-39689.1	1055.82	-29792.8	0.000000	0.000000	6.602978	-0.049492	NaN	0.000000	0.001657	0.001689	28.0835	0.034297	0.001995	17.1878	-156.545	-166.711	0.020739	0.601376	-0.566557	-0.567913	-0.049492	17.1878	-0.564397	-2.686542E+7	1.842216E-9	NaN
791	1.000000	0.612712	7.37279e+06	-39689.1	1055.82	-29792.8	0.000000	0.000000	6.612956	-0.079964	NaN	0.000000	0.001620	0.001680	28.0827	0.024285	0.001927	12.6024	-177.407	15.8201	0.042982	0.611357	-0.556578	-0.557933	-0.079964	12.6024	-0.551819	-1.799478E+7	4.443738E-9	NaN
791	1.000000	0.622739	7.37279e+06	-39689.1	1055.82	-29792.8	0.000000	0.000000	6.622986	-0.024592	NaN	0.000000	0.001619	0.001694	28.0821	0.046578	0.002060	22.6122	73.8518	-164.439	-0.055676	0.621490	-0.546550	-0.547800	-0.024592	22.6122	-0.545735	-1.482042E+7	1.659361E-9	NaN
791	1.000000	0.632737	7.37279e+06	-39689.1	1055.82	-29792.8	0.000000	0.000000	6.632982	-0.085826	NaN	0.000000	0.001631	0.001687	28.0823	0.041523	0.002039	20.3666	-57.5423	11.7445	-0.069009	0.631383	-0.536552	-0.537906	-0.085826	20.3666	-0.533392	-9.99231e+06	8.589194E-9	NaN
791	1.000000	0.642762	7.37279e+06	-39689.1	1055.82	-29792.8	0.000000	0.000000	6.643005	-0.099855	NaN	0.000000	0.001659	0.001713	28.0821	0.085420	0.001890	45.2019	121.963	-169.215	-0.151224	0.641404	-0.526528	-0.527886	-0.099855	45.2019	-0.524871	-7.60878e+06	1.312368E-8	NaN
791	1.000000	0.652752	7.37279e+06	-39689.1	1055.82	-29792.8	0.000000	0.000000	6.652996	-0.086255	NaN	0.000000	0.001610	0.001718	28.0821	0.131983	0.001951	67.6491	-133.557	11.5626	-0.023768	0.651377	-0.516537	-0.517913	-0.086255	67.6491	-0.515581	-5.65094e+06	1.526388E-8	NaN
791	1.000000	0.662762	7.37279e+06	-39689.1	1055.82	-29792.8	0.000000	0.000000	6.663007	-0.071378	NaN	0.000000	0.001616	0.001744	28.0821	0.022936	0.001959	11.7089	-84.1666	-164.906	0.027744	0.661479	-0.506527	-0.507810	-0.071378	11.7089	-0.501955	-3.65e+06	1.955556E-8	NaN
791	1.000000	0.672762	7.37279e+06	-39689.1	1055.82	-29792.8	0.000000	0.000000	6.673008	-0.041475	NaN	0.000000	0.001558	0.001754	28.0824	0.104366	0.002059	50.6938	-164.026	13.5149	0.033782	0.671393	-0.496527	-0.497896	-0.041475	50.6938	-0.495913	-3.00599e+06	1.379732E-8	NaN
791	1.000000	0.682750	7.37279e+06	-39689.1	1055.82	-29792.8	0.000000	0.000000	6.682997	-0.012823	NaN	0.000000	0.001593	0.001661	28.082	0.100658	0.001976	50.9302	131.844	-161.457	-0.064864	0.681499	-0.486540	-0.487790	-0.012823	50.9302	-0.486351	-2.20994e+06	5.802233E-9	NaN
791	1.000000	0.692786	7.37279e+06	-39689.1	1055.82	-29792.8	0.000000	0.000000	6.693032	-0.062201	NaN	0.000000	0.001613	0.001696	28.0819	0.050053	0.002137	23.4247	-8.941536	13.3324	-0.027101	0.691382	-0.476503	-0.477907	-0.062201	23.4247	-0.474511	-1.50888e+06	4.122359E-8	NaN
791	1.000000	0.702798	7.37279e+06	-39689.1	1055.82	-29792.8	0.000000	0.000000	6.703042	-0.091204	NaN	0.000000	0.001598	0.001695	28.082	0.088508	0.002058	43.014	-156.096	-167.32	-0.044048	0.701461	-0.466491	-0.467829	-0.091204	43.014	-0.464901	-1.10627e+06	8.244320E-8	NaN
791	1.000000	0.712804	7.3728e+06	-39689.1	1055.82	-29792.8	0.000000	0.000000	6.713050	-0.040172	NaN	0.000000	0.001599	0.001685	28.0824	0.069417	0.001803	38.4909	-23.9682	13.6456	-0.054070	0.711446	-0.456485	-0.457844	-0.040172	38.4909	-0.455703	-821485	4.890211E-8	NaN
791	1.000000	0.722839	7.3728e+06	-39689.1	1055.82	-29792.8	0.000000	0.000000	6.723084	-0.064595	NaN	0.000000	0.001606	0.001690	28.0821	0.129463	0.002128	60.8334	86.609	-168.239	-0.064964	0.721555	-0.446451	-0.447735	-0.064595	60.8334	-0.445654	-593085	1.089133E-7	NaN
791	1.000000	0.732788	7.3728e+06	-39689.1	1055.82	-29792.8	0.000000	0.000000	6.733034	-0.055089	NaN	0.000000	0.001583	0.001710	28.0821	0.072370	0.002099	34.4845	49.6422	12.533	-0.114862	0.731417	-0.436501	-0.437872	-0.055089	34.4845	-0.435303	-423676	1.300254E-7	NaN
791	1.000000	0.742776	7.3728e+06	-39689.1	1055.82	-29792.8	0.000000	0.000000	6.743022	-0.031573	NaN	0.000000	0.001604	0.001672	28.0822	0.039693	0.002047	19.3955	-31.0968	-163.934	0.003515	0.741537	-0.426513	-0.427752	-0.031573	19.3955	-0.425292	-305792	1.032497E-7	NaN
791	1.000000	0.752775	7.3728e+06	-39689.1	1055.82	-29792.8	0.000000	0.000000	6.753019	-0.085420	NaN	0.000000	0.001598	0.001670	28.0834	0.134505	0.002010	66.9101	-5.895924	12.8285	-0.123454	0.751437	-0.416514	-0.417853	-0.085420	66.9101	-0.415557	-222517	3.838796E-7	NaN
791	1.000000	0.762822	7.3728e+06	-39689.1	1055.82	-29792.8	0.000000	0.000000	6.763067	-0.065171	NaN	0.000000	0.001587	0.001708	28.0835	0.108725	0.002033	53.4692	-55.1928	-166.226	0.016820	0.761514	-0.406467	-0.407776	-0.065171	53.4692	-0.405553	-160370	4.063815E-7	NaN
791	1.000000	0.772827	7.3728e+06	-39689.1	1055.82	-29792.8	0.000000	0.000000	6.773072	-0.063025	NaN	0.000000	0.001593	0.001702	28.0833	0.028690	0.001968	14.5749	-147.074	12.4764	-0.024335	0.771470	-0.396462	-0.397819	-0.063025	14.5749	-0.393219	-106953	5.892819E-7	NaN
791	1.000000	0.782789	7.3728e+06	-39689.1	1055.82	-29792.8	0.000000	0.000000	6.783034	-0.064802	NaN	0.000000	0.001617	0.001727	28.0833	0.068012	0.001988	34.2192	-60.0297	-169.5	-0.210760	0.781474	-0.386500	-0.387815	-0.064802	34.2192	-0.385080	-81795.3	7.922462E-7	NaN
791	1.000000	0.792815	7.3728e+06	-39689.1	1055.82	-29792.8	0.000000	0.000000	6.793063	0.002148	NaN	0.000000	0.001633	0.001683	28.0832	0.112271	0.002166	51.8353	-77.5591	14.7875	-0.013715	0.791462	-0.376474	-0.377827	0.002148	51.8353	-0.376505	-61617.9	-3.486430E-8	NaN
791	1.000000	0.802796	7.3728e+06	-39689.1	1055.82	-29792.8	0.000000	0.000000	6.803040	-0.103692	NaN	0.000000	0.001531	0.001725	28.0832	0.147787	0.001948	75.8728	178.935	-164.81	-0.087465	0.801466	-0.366493	-0.367823	-0.103692	75.8728	-0.365468	-42737.1	2.426272E-6	NaN
791	1.000000	0.812826	7.3728e+06	-39689.1	1055.82	-29792.8	0.000000	0.000000	6.813074	0.023138	NaN	0.000000	0.001624	0.001697	28.0835	0.082446	0.002100	39.2573	-155.756	13.9702	0.020202	0.811483	-0.356464	-0.357806	0.023138	39.2573	-0.356906	-32143.3	-7.198254E-7	NaN
791	1.000000	0.822834	7.3728e+06	-39689.1	1055.82	-29792.8	0.000000	0.000000	6.823080	-0.064159	NaN	0.000000	0.001610	0.001685	28.0834	0.055920	0.002012	27.7868	-44.123	-163.147	-0.068290	0.821532	-0.346455	-0.347757	-0.064159	27.7868	-0.344723	-21395.9	2.998640E-6	NaN
791	1.000000	0.832847	7.3728e+06	-39689.1	1055.82	-29792.8	0.000000	0.000000	6.833091	-0.084795	NaN	0.000000	0.001636	0.001686	28.0834	0.033455	0.002019	16.5708	-85.3689	12.4431	-0.037382	0.831502	-0.336443	-0.337787	-0.084795	16.5708	-0.332605	-14242.1	5.953835E-6	NaN
791	1.000000	0.842842	7.3728e+06	-39689.1	1055.82	-29792.8	0.000000	0.000000	6.843087	-0.063956	NaN	0.000000	0.001624	0.001694	28.0832	0.024497	0.001992	12.2994	13.0885	-166.359	0.002038	0.841597	-0.326447	-0.327692	-0.063956	12.2994	-0.322547	-10141.6	6.306344E-6	NaN
791	1.000000	0.852848	7.3728e+06	-39689.1	1055.82	-29792.8	0.000000	0.000000	6.853091	-0.102387	NaN	0.000000	0.001640	0.001704	28.0836	0.087589	0.002082	42.0749	-28.197	11.8303	-0.085964	0.851450	-0.316442	-0.317839	-0.102387	42.0749	-0.314617	-7749.75	1.321162E-5	NaN
791	1.000000	0.862859	7.3728e+06	-39689.1	1055.82	-29792.8	0.000000	0.000000	6.863106	-0.004680	NaN	0.000000	0.001639	0.001685	28.0831	0.116140	0.002025	57.3666	107.628	-167.74	0.026980	0.861534	-0.306431	-0.307756	-0.004680	57.3666	-0.306369	-5851.57	7.997387E-7	NaN
791	1.000000	0.872878	7.3728e+06	-39689.1	1055.82	-29792.8	0.000000	0.000000	6.873122	-0.100014	NaN	0.000000	0.001647	0.001696	28.0834	0.006048	0.002077	2.912152	156.533	12.6558	-0.098599	0.871431	-0.296411	-0.297858	-0.100014	2.912152	-0.270653	-1704.01	5.869321E-5	NaN
791	1.000000	0.882863	7.3728e+06	-39689.1	1055.82	-29792.8	0.000000	0.000000	6.883110	-0.015601	NaN	0.000000	0.001621	0.001697	28.083	0.059133	0.001865	31.7036	-126.539	-167.865	-0.076427	0.881560	-0.286427	-0.287729	-0.015601	31.7036	-0.286058	-2911.8	5.357745E-6	NaN
791	1.000000	0.892842	7.3728e+06	-39689.1	1055.82	-29792.8	0.000000	0.000000	6.893088	-0.038560	NaN	0.000000	0.001579	0.001690	28.0825	0.042614	0.002047	20.817	-39.5361	11.5856	-0.069497	0.891476	-0.276448	-0.277814	-0.038560	20.817	-0.275058	-1987.4	1.940237E-5	NaN
791	1.000000	0.902842	7.3728e+06	-39689.1	1055.82	-29792.8	0.000000	0.000000	6.903088	-0.042336	NaN	0.000000	0.001640	0.001741	28.082	0.096347	0.002093	46.0374	-120.98	-163.527	-0.037452	0.901613	-0.266447	-0.267676	-0.042336	46.0374	-0.265757	-1435.3	2.949647E-5	NaN
791	1.000000	0.912880	7.3728e+06	-39689.1	1055.82	-29792.8	0.000000	0.000000	6.913124	-0.080354	NaN	0.000000	0.001629	0.001727	28.082	0.066271	0.002029	32.6601	165.444	17.0625	0.019231	0.911535	-0.256409	-0.257754	-0.080354	32.6601	-0.254564	-966.953	8.310063E-5	NaN
791	1.000000	0.922862	7.3728e+06	-39689.1	1055.82	-29792.8	0.000000	0.000000	6.923111	0.020491	NaN	0.000000	0.001584	0.001729	28.082	0.043145	0.001980	21.7881	25.6889	-164.639	0.045727	0.921564	-0.246427	-0.247725	0.020491	21.7881	-0.247133	-742.268	-2.760549E-5	NaN
791	1.000000	0.932876	7.3728e+06	-39689.1	1055.82	-29792.8	0.000000	0.000000	6.933123	-0.009767	NaN	0.000000	0.001590	0.001740	28.0821	0.019033	0.001976	9.630183	-40.6924	15.559	-0.006973	0.931489	-0.236413	-0.237800	-0.009767	9.630183	-0.235653	-491.469	1.987289E-5	NaN
791	1.000000	0.942891	7.3728e+06	-39689.1	1055.82	-29792.8	0.000000	0.000000	6.943136	-0.070830	NaN	0.000000	0.001617	0.001751	28.0821	0.043418	0.001993	21.7799	-134.776	-164.027	-0.037666	0.941571	-0.226399	-0.227718	-0.070830	21.7799	-0.223959	-321.216	0.000221	NaN
791	1.000000	0.952881	7.3728e+06	-39689.1	1055.82	-29792.8	0.000000	0.000000	6.953128	-0.005893	NaN	0.000000	0.001728	0.001715	28.0821	0.061440	0.001889	32.5194	171.086	14.1779	-0.022913	0.951541	-0.216409	-0.217748	-0.005893	32.5194	-0.216273	-242.087	2.434451E-5	NaN
791	1.000000	0.962888	7.3728e+06	-39689.1	1055.82	-29792.8	0.000000	0.000000	6.963135	-0.035360	NaN	0.000000	0.001722	0.001692	28.0823	0.035640	0.001994	17.8724	-1.238103	-169.246	-0.033302	0.961572	-0.206401	-0.207717	-0.035360	17.8724	-0.204917	-158.566	0.000223	NaN
791	1.000000	0.972871	7.3728e+06	-39689.1	1055.82	-29792.8	0.000000	0.000000	6.973116	-0.061222	NaN	0.000000	0.001657	0.001704	28.0824	0.083055	0.002043	40.6444	78.0783	13.7611	-0.066613	0.971563	-0.196418	-0.197726	-0.061222	40.6444	-0.195289	-110.15	0.000556	NaN
791	1.000000	0.982899	7.3728e+06	-39689.1	1055.82	-29792.8	0.000000	0.000000	6.983144	-0.066590	NaN	0.000000	0.001641	0.001681	28.0822	0.148984	0.001961	75.9794	-169.695	-164.655	-0.053965	0.981560	-0.186391	-0.187730	-0.066590	75.9794	-0.185733	-76.293	0.000873	NaN
791	1.000000	0.992899	7.3728e+06	-39689.1	1055.82	-29792.8	0.000000	0.000000	6.993145	-0.037529	NaN	0.000000	0.001625	0.001691	28.0818	0.024337	0.001965	12.3826	52.2376	15.7876	-0.052598	0.991501	-0.176390	-0.177788	-0.037529	12.3826	-0.174117	-48.3944	0.000775	NaN
791	1.000000	1.002881	7.3728e+06	-39689.1	1055.82	-29792.8	0.000000	0.000000	7.003126	-0.050934	NaN	0.000000	0.001590	0.001682	28.0824	0.020844	0.001984	10.506	-31.1237	-165.503	-0.110500	1.001585	-0.166409	-0.167704	-0.050934	10.506	-0.162773	-30.6966	0.001659	NaN
791	1.000000	1.012885	7.3728e+06	-39689.1	1055.82	-29792.8	0.000000	0.000000	7.013128	-0.133049	NaN	0.000000	0.001638	0.001717	28.0822	0.055095	0.001921	28.6877	-102.838	11.4575	-0.101717	1.011497	-0.156404	-0.157793	-0.133049	28.6877	-0.152926	-20.4714	0.006499	NaN
791	1.000000	1.022900	7.3728e+06	-39689.1	1055.82	-29792.8	0.000000	0.000000	7.023146	-0.035288	NaN	0.000000	0.001636	0.001663	28.083	0.115154	0.001950	59.0444	54.2252	-164.949	-0.078144	1.021590	-0.146389	-0.147699	-0.035288	59.0444	-0.145941	-15.2601	0.002312	NaN
791	1.000000	1.032909	7.3728e+06	-39689.1	1055.82	-29792.8	0.000000	0.000000	7.033156	-0.031263	NaN	0.000000	0.001638	0.001741	28.0836	0.025498	0.002044	12.4735	-112.106	15.4591	-0.058171	1.031551	-0.136380	-0.137738	-0.031263	12.4735	-0.134500	-9.305592	0.003360	NaN
791	1.000000	1.042923	7.3728e+06	-39689.1	1055.82	-29792.8	0.000000	0.000000	7.043164	-0.151157	NaN	0.000000	0.001604	0.001769	28.0835	0.101034	0.002091	48.3153	-179.171	-166.843	-0.129943	1.041615	-0.126367	-0.127674	-0.151157	48.3153	-0.124020	-5.815277	0.025993	NaN
791	1.000000	1.052902	7.3728e+06	-39689.1	1055.82	-29792.8	0.000000	0.000000	7.053150	0.011812	NaN	0.000000	0.001617	0.001767	28.0834	0.072050	0.001969	36.5985	-160.053	15.3213	0.047200	1.051550	-0.116388	-0.117739	0.011812	36.5985	-0.116630	-4.126503	-0.002862	NaN
791	1.000000	1.062908	7.3728e+06	-39689.1	1055.82	-29792.8	0.000000	0.000000	7.063154	-0.038972	NaN	0.000000	0.001601	0.001771	28.0834	0.121513	0.001952	62.2428	-179.284	-161.84	-0.020552	1.061592	-0.106382	-0.107697	-0.038972	62.2428	-0.105912	-2.459401	0.015846	NaN
791	1.000000	1.072930	7.3728e+06	-39689.1	1055.82	-29792.8	0.000000	0.000000	7.073175	-0.047004	NaN	0.000000	0.001620	0.001785	28.0834	0.073483	0.001985	37.0273	-142.939	12.9636	-0.111131	1.071528	-0.096360	-0.097761	-0.047004	37.0273	-0.095408	-1.441102	0.032617	NaN
791	1.000000	1.082942	7.3728e+06	-39689.1	1055.82	-29792.8	0.000000	0.000000	7.083187	-0.052326	NaN	0.000000	0.001621	0.001748	28.0833	0.093772	0.001961	47.8205	-35.7588	-168.747	0.027047	1.081585	-0.086348	-0.087705	-0.052326	47.8205	-0.085527	-0.846088	0.061845	NaN
791	1.000000	1.092949	7.3728e+06	-39689.1	1055.82	-29792.8	0.000000	0.000000	7.093194	-0.061637	NaN	0.000000	0.001636	0.001778	28.0831	0.112918	0.002055	54.9381	64.0753	12.0314	-0.111613	1.091539	-0.076341	-0.077751	-0.061637	54.9381	-0.075499	-0.475793	0.129546	NaN
791	1.000000	1.102897	7.3728e+06	-39689.1	1055.82	-29792.8	0.000000	0.000000	7.103147	0.051573	NaN	0.000000	0.001629	0.001771	28.0834	0.087612	0.002085	42.0129	104.279	-168.659	0.027388	1.101608	-0.066392	-0.067681	0.051573	42.0129	-0.067313	-0.288546	-0.178734	NaN
791	1.000000	1.112911	7.3728e+06	-39689.1	1055.82	-29792.8	0.000000	0.000000	7.113160	0.016251	NaN	0.000000	0.001616	0.001751	28.0836	0.051276	0.001832	27.9924	-111.718	15.5573	0.045427	1.111592	-0.056378	-0.057697	0.016251	27.9924	-0.056813	-0.145602	-0.111612	NaN
791	1.000000	1.122931	7.3728e+06	-39689.1	1055.82	-29792.8	0.000000	0.000000	7.123175	-0.092314	NaN	0.000000	0.001631	0.001740	28.0837	0.063085	0.001984	31.8018	-26.5169	-165.699	-0.031844	1.121631	-0.046358	-0.047658	-0.092314	31.8018	-0.044181	-0.060666	1.521664	NaN
791	1.000000	1.132938	7.3728e+06	-39689.1	1055.82	-29792.8	0.000000	0.000000	7.133186	0.017063	NaN	0.000000	0.001591	0.001749	28.0834	0.127860	0.002022	63.2303	-137.61	17.1226	-0.054670	1.131652	-0.036352	-0.037638	0.017063	63.2303	-0.036554	-0.035608	-0.479189	NaN
791	1.000000	1.142955	7.3728e+06	-39689.1	1055.82	-29792.8	0.000000	0.000000	7.143198	-0.105093	NaN	0.000000	0.001667	0.001758	28.0841	0.036238	0.002083	17.3989	-143.621	-166.55	-0.085244	1.141605	-0.026335	-0.027684	-0.105093	17.3989	-0.021804	-0.013960	7.528164	NaN
791	1.000000	1.152950	7.3728e+06	-39689.1	1055.82	-29792.8	0.000000	0.000000	7.153196	-0.032532	NaN	0.000000	0.001666	0.001777	28.0834	0.020693	0.002031	10.1877	115.853	13.8998	-0.037224	1.151536	-0.016340	-0.017754	-0.032532	10.1877	-0.013945	-0.008651	3.760455	NaN
791	1.000000	1.162972	7.3728e+06	-39689.1	1055.82	-29792.8	0.000000	0.000000	7.163218	-0.057803	NaN	0.000000	0.001689	0.001728	28.0826	0.013559	0.002011	6.743004	75.2789	-163.766	-0.029532	1.161701	-0.006317	-0.007589	-0.057803	6.743004	0.000112	8.398878E-5	-688.222	672.227
791	1.000000	1.172927	7.3728e+06	-39689.1	1055.82	-29792.8	0.000000	0.000000	7.173354	4.368096	NaN	0.000000	0.001633	0.001763	28.0821	4.914150	0.001832	2681.87	14.846	9.702310	3.117849	1.171633	0.003637	0.002344	4.368096	2681.87	0.002416	0.001894	2306.63	56305.9
791	2.000000	1.178535	7.3728e+06	-39689.1	1055.82	-29792.8	0.000000	0.000000	7.179296	12.481	NaN	0.000000	0.001619	0.001773	28.0837	10.0518	0.001532	6561.52	5.645841	-173.08	11.7211	1.178173	0.009246	0.008884	12.481	6561.52	0.007819	0.006857	1820.24	72396.3
791	2.000000	1.180982	7.3728e+06	-39689.1	1055.82	-29792.8	0.000000	0.000000	7.181845	14.9803	NaN	0.000000	0.001628	0.001740	28.0821	13.6308	0.001719	7927.22	5.090348	6.047205	13.3399	1.180623	0.011692	0.011334	14.9803	7927.22	0.010275	0.009489	1578.73	74351.1
791	2.000000	1.183485	7.3728e+06	-39689.1	1055.82	-29792.8	0.000000	0.000000	7.184608	21.3159	NaN	0.000000	0.001606	0.001717	28.0822	16.5472	0.001836	9014.86	7.361152	-174.482	22.221	1.183134	0.014195	0.013845	21.3159	9014.86	0.012422	0.011999	1776.44	75189.3
791	2.000000	1.185986	7.3728e+06	-39689.1	1055.82	-29792.8	0.000000	0.000000	7.187248	24.6742	NaN	0.000000	0.001645	0.001757	28.082	18.91	0.001698	11139.2	8.296636	-0.024433	24.5726	1.185574	0.016697	0.016285	24.6742	11139.2	0.015035	0.015333	1609.27	82190.5
791	2.000000	1.188434	7.3728e+06	-39689.1	1055.82	-29792.8	0.000000	0.000000	7.189936	30.5124	NaN	0.000000	0.001633	0.001701	28.0827	20.578	0.001746	11788.9	5.366091	-175.196	30.7667	1.188126	0.019145	0.018837	30.5124	11788.9	0.017203	0.018337	1664	79539.9
791	2.000000	1.190901	7.3728e+06	-39689.1	1055.82	-29792.9	0.000000	0.000000	7.192863	41.7079	NaN	0.000000	0.001603	0.001694	28.0819	24.3063	0.001701	14290.8	10.1006	-3.582192	39.4466	1.190513	0.021612	0.021224	41.7079	14290.8	0.019423	0.021644	1927.01	88748.9
791	2.000000	1.193402	7.3728e+06	-39689.1	1055.82	-29792.9	0.000000	0.000000	7.195490	44.759	NaN	0.000000	0.001609	0.001756	28.0821	27.7961	0.001814	15326.4	5.639574	179.772	43.045	1.193112	0.024113	0.023823	44.759	15326.4	0.021923	0.025654	1744.71	87424.6
791	2.000000	1.195935	7.3728e+06	-39689.1	1055.82	-29792.9	0.000000	0.000000	7.198467	55.5912	NaN	0.000000	0.001621	0.001719	28.0818	30.0662	0.001785	16843.8	8.654319	-3.789653	54.6041	1.195565	0.026645	0.026276	55.5912	16843.8	0.024170	0.029523	1883	89564.4
791	2.000000	1.198359	7.3728e+06	-39689.1	1055.82	-29792.9	0.000000	0.000000	7.201262	64.6129	NaN	0.000000	0.001642	0.001731	28.0822	32.7072	0.001740	18794.6	5.508828	177.476	63.3763	1.198135	0.029070	0.028846	64.6129	18794.6	0.026491	0.033784	1912.5	93421.5
791	2.000000	1.200904	7.3728e+06	-39689.1	1055.82	-29792.9	0.000000	0.000000	7.204085	71.3791	NaN	0.000000	0.001582	0.001785	28.082	35.4761	0.001870	18971.2	8.769690	-4.081243	72.5096	1.200513	0.031615	0.031223	71.3791	18971.2	0.028793	0.038278	1864.73	88591.3
791	2.000000	1.203407	7.3728e+06	-39689.1	1055.82	-29792.9	0.000000	0.000000	7.206903	79.051	NaN	0.000000	0.001619	0.001775	28.082	38.1481	0.001777	21471.3	8.893252	172.936	77.6853	1.203082	0.034117	0.033793	79.051	21471.3	0.031356	0.043601	1813.06	93947.1
791	2.000000	1.205875	7.3728e+06	-39689.1	1055.82	-29792.9	0.000000	0.000000	7.209880	91.4454	NaN	0.000000	0.001641	0.001772	28.0821	39.8762	0.001805	22087.4	11.0065	-7.763097	88.6424	1.205446	0.036585	0.036157	91.4454	22087.4	0.033480	0.048266	1894.62	91854
791	2.000000	1.208363	7.3728e+06	-39689.1	1055.82	-29792.9	0.000000	0.000000	7.212673	98.843	NaN	0.000000	0.001605	0.001766	28.0834	41.8614	0.001756	23843.7	4.669469	178.012	97.4247	1.208051	0.039074	0.038762	98.843	23843.7	0.035965	0.054016	1829.89	93731.4
791	2.000000	1.210795	7.3728e+06	-39689.1	1055.82	-29792.9	0.000000	0.000000	7.215673	112.685	NaN	0.000000	0.001576	0.001750	28.083	43.5231	0.001720	25305.6	2.638373	-1.782145	107.15	1.210464	0.041505	0.041174	112.685	25305.6	0.038165	0.059373	1897.9	94884.1
791	2.000000	1.213346	7.3728e+06	-39689.1	1055.82	-29792.9	0.000000	0.000000	7.218796	126.607	NaN	0.000000	0.001597	0.001755	28.0833	47.5061	0.001797	26431.2	5.195702	175.251	124.164	1.213071	0.044056	0.043782	126.607	26431.2	0.040464	0.065232	1940.87	94549.7
791	2.000000	1.215896	7.3728e+06	-39689.1	1055.82	-29792.9	0.000000	0.000000	7.221598	132.722	NaN	0.000000	0.001595	0.001771	28.0835	49.5492	0.001759	28172	6.389727	-5.005397	133.347	1.215457	0.046607	0.046168	132.722	28172	0.043073	0.072212	1837.95	95782.5
791	2.000000	1.218286	7.3728e+06	-39689.1	1055.82	-29792.9	0.000000	0.000000	7.224543	146.223	NaN	0.000000	0.001640	0.001752	28.0833	51.2506	0.001732	29597.8	2.506461	176.979	141.919	1.217998	0.048997	0.048709	146.223	29597.8	0.045291	0.078417	1864.69	96566.6
791	2.000000	1.220785	7.3728e+06	-39689.1	1055.82	-29792.9	0.000000	0.000000	7.227334	153.335	NaN	0.000000	0.001654	0.001731	28.0832	53.6151	0.001735	30896.6	3.153526	-4.087149	147.61	1.220603	0.051495	0.051313	153.335	30896.6	0.047773	0.085655	1790.16	96451.3
791	2.000000	1.223355	7.3728e+06	-39689.1	1055.82	-29792.9	0.000000	0.000000	7.230456	166.772	NaN	0.000000	0.001605	0.001736	28.0834	57.0341	0.001777	32096.9	2.314280	176.759	165.563	1.223096	0.054066	0.053807	166.772	32096.9	0.050169	0.092936	1794.47	96193.2
791	2.000000	1.225900	7.3728e+06	-39689.1	1055.82	-29792.9	0.000000	0.000000	7.233556	180.272	NaN	0.000000	0.001586	0.001800	28.0837	58.5035	0.001709	34238	5.883870	-7.598913	179.42	1.225509	0.056611	0.056219	180.272	34238	0.052662	0.100818	1788.1	98517.5
791	2.000000	1.228364	7.3728e+06	-39689.1	1055.82	-29792.9	0.000000	0.000000	7.236459	190.95	NaN	0.000000	0.001626	0.001709	28.0833	60.7008	0.001721	35262.5	6.013683	171.973	190.82	1.228020	0.059075	0.058731	190.95	35262.5	0.055014	0.108538	1759.3	97790.4
791	2.000000	1.230777	7.3728e+06	-39689.1	1055.82	-29792.9	0.000000	0.000000	7.239532	207.011	NaN	0.000000	0.001613	0.001732	28.0833	63.5123	0.001798	35333.2	4.542090	-5.986382	201.523	1.230403	0.061488	0.061114	207.011	35333.2	0.057094	0.115594	1790.85	94948.5
791	2.000000	1.233348	7.3728e+06	-39689.1	1055.82	-29792.9	0.000000	0.000000	7.242733	222.35	NaN	0.000000	0.001644	0.001716	28.0833	67.4285	0.001873	35992.8	7.940129	170.003	220.893	1.233093	0.064059	0.063804	222.35	35992.8	0.059425	0.123756	1796.68	93477.3
791	2.000000	1.235862	7.3728e+06	-39689.1	1055.82	-29792.9	0.000000	0.000000	7.245864	237.357	NaN	0.000000	0.001631	0.001740	28.0831	66.8405	0.001823	36663.9	1.527812	-2.935684	234.879	1.235545	0.066573	0.066255	237.357	36663.9	0.061718	0.132039	1797.62	92185
791	2.000000	1.238304	7.3728e+06	-39689.1	1055.82	-29792.9	0.000000	0.000000	7.248721	247.449	NaN	0.000000	0.001653	0.001766	28.0834	69.331	0.001682	41219.6	1.768385	174.954	244.832	1.238103	0.069015	0.068814	247.449	41219.6	0.064512	0.142485	1736.67	99768.2
791	2.000000	1.240846	7.3728e+06	-39689.1	1055.82	-29792.9	0.000000	0.000000	7.252078	267.293	NaN	0.000000	0.001653	0.001732	28.0824	72.9317	0.001841	39611.5	6.479700	-8.886802	265.442	1.240468	0.071556	0.071179	267.293	39611.5	0.066496	0.150125	1780.47	93404.6
791	2.000000	1.243357	7.3728e+06	-39689.1	1055.82	-29792.9	0.000000	0.000000	7.255143	280.776	NaN	0.000000	0.001648	0.001729	28.0822	74.8846	0.001752	42734.7	5.561251	171.116	281.356	1.243182	0.074067	0.073893	280.776	42734.7	0.069140	0.160605	1748.23	97425.7
791	2.000000	1.245887	7.3728e+06	-39689.1	1055.82	-29792.9	0.000000	0.000000	7.258446	299.599	NaN	0.000000	0.001648	0.001737	28.0821	76.2281	0.001744	43713.9	4.003265	-7.496414	297.9	1.245518	0.076597	0.076229	299.599	43713.9	0.071457	0.170065	1761.67	96846.7
791	2.000000	1.248315	7.3728e+06	-39689.1	1055.82	-29792.9	0.000000	0.000000	7.261611	317.509	NaN	0.000000	0.001635	0.001763	28.082	77.5273	0.001712	45284	3.338965	173.141	318.537	1.247997	0.079026	0.078708	317.509	45284	0.073767	0.179749	1766.4	97585.5
791	2.000000	1.250918	7.3728e+06	-39689.1	1055.82	-29792.9	0.000000	0.000000	7.264730	330.064	NaN	0.000000	0.001639	0.001753	28.0823	81.2994	0.001831	44390.5	2.265342	-5.533784	332.117	1.250518	0.081629	0.081228	330.064	44390.5	0.076052	0.189577	1741.06	93147.5
791	2.000000	1.253295	7.3728e+06	-39689.1	1055.82	-29792.9	0.000000	0.000000	7.267965	350.95	NaN	0.000000	0.001647	0.001734	28.082	84.7077	0.001806	46900.3	3.796759	172.541	348.418	1.252982	0.084006	0.083693	350.95	46900.3	0.078394	0.199899	1755.63	95839.3
791	2.000000	1.255853	7.3728e+06	-39689.1	1055.82	-29792.9	0.000000	0.000000	7.270997	362.506	NaN	0.000000	0.001594	0.001784	28.0823	85.5602	0.001795	47671.7	0.692975	-4.259698	361.795	1.255647	0.086564	0.086358	362.506	47671.7	0.080860	0.211051	1717.62	94806.9
791	2.000000	1.258346	7.3728e+06	-39689.1	1055.82	-29792.9	0.000000	0.000000	7.274271	381.488	NaN	0.000000	0.001655	0.001724	28.0817	89.2882	0.001791	49855.5	5.378248	170.146	382.066	1.258123	0.089057	0.088834	381.488	49855.5	0.083318	0.222442	1715	96577.9
791	2.000000	1.260874	7.3728e+06	-39689.1	1055.82	-29792.9	0.000000	0.000000	7.277427	396.76	NaN	0.000000	0.001618	0.001692	28.0824	92.2003	0.001865	49427.1	5.951039	-10.2306	397.749	1.260620	0.091585	0.091331	396.76	49427.1	0.085565	0.233103	1702.08	93532.9
791	2.000000	1.263293	7.3728e+06	-39689.1	1055.82	-29792.9	0.000000	0.000000	7.280442	411.289	NaN	0.000000	0.001598	0.001697	28.082	92.85	0.001697	54699.6	3.073464	171.856	409.483	1.263127	0.094004	0.093837	411.289	54699.6	0.088364	0.246712	1667.09	100615
791	2.000000	1.265833	7.3728e+06	-39689.1	1055.82	-29792.9	0.000000	0.000000	7.284022	436.594	NaN	0.000000	0.001612	0.001711	28.0825	94.8358	0.001780	53268	4.026275	-8.576893	434.148	1.265562	0.096544	0.096272	436.594	53268	0.090397	0.256817	1700.02	96034.6
791	2.000000	1.268234	7.3728e+06	-39689.1	1055.82	-29792.9	0.000000	0.000000	7.287449	461.547	NaN	0.000000	0.001614	0.001701	28.0818	96.8617	0.001788	54158.8	3.939213	171.661	457.723	1.267967	0.098945	0.098678	461.547	54158.8	0.092553	0.267747	1723.82	95626.9
791	2.000000	1.270830	7.3728e+06	-39689.1	1055.82	-29792.9	0.000000	0.000000	7.290603	475.151	NaN	0.000000	0.001583	0.001736	28.0826	100.805	0.001829	55111.6	7.052099	-12.0328	472.405	1.270493	0.101540	0.101204	475.151	55111.6	0.095074	0.280792	1692.18	95022
791	2.000000	1.273269	7.3728e+06	-39689.1	1055.82	-29792.9	0.000000	0.000000	7.293963	497.547	NaN	0.000000	0.001578	0.001736	28.0817	103.49	0.001759	58830.9	7.246702	167.599	495.072	1.272966	0.103980	0.103676	497.547	58830.9	0.097637	0.294352	1690.31	99070.7
791	2.000000	1.275426	7.3728e+06	-39689.1	1055.82	-29792.9	0.000000	0.000000	7.296803	514.177	NaN	0.000000	0.001633	0.001742	28.0832	103.745	0.001724	60165.8	6.138322	168.711	519.257	1.274962	0.106136	0.105673	514.177	60165.8	0.099727	0.305631	1682.35	99431.6