File: remote_trans/data/nanoindenter/0828-1/data/Data_2025-08-06,11h17m57s/2025-07-22_16-23-58_1_773.txt
2025-07-22, 16:23:58, 1
Index	Phase	Displacement	Time	Pos X	Pos Y	Pos Z	Rot A	Rot B	Piezo Z	Force A	Force B	Gripper	Voltage A	Voltage B	Temperature	Amplitude force	Amplitude pos	Stiffness	Phase shift	Phase excitation	Force A raw	Displacement raw	HMax	HMax raw	Real Force	Real Stiffness	Contact Depth	Area	Hardness	Reduced Mod.
[#]	[#]	[um]	[s]	[um]	[um]	[um]	[m°]	[m°]	[um]	[uN]	[uN]	[V]	[V]	[V]	[°C]	[uN]	[um]	[N/m]	[°]	[°]	[uN]	[um]	[um]	[um]	[uN]	[N/m]	[um]	[um^2]	[MPa]	[MPa]
773	1.000000	0.002481	7.37262e+06	-38789.1	1055.82	-29796.2	0.000000	0.000000	6.002796	-0.012569	NaN	0.000000	0.001549	0.001746	28.0808	0.035595	0.000913	38.9718	93.3535	-166.544	0.001033	0.001192	-1.128728	-1.130018	-0.012569	38.9718	-1.128486	-1.208694E+15	1.039881E-17	NaN
773	1.000000	0.012540	7.37262e+06	-38789.1	1055.82	-29796.2	0.000000	0.000000	6.012858	0.081665	NaN	0.000000	0.001553	0.001735	28.081	0.170342	0.001237	137.752	-153.424	17.5715	0.022163	0.011159	-1.118670	-1.120050	0.081665	137.752	-1.119115	-9.048826E+14	-9.024982E-17	NaN
773	1.000000	0.022420	7.37262e+06	-38789.1	1055.82	-29796.2	0.000000	0.000000	6.022734	-0.020274	NaN	0.000000	0.001558	0.001775	28.081	0.094975	0.001773	53.5715	-86.0274	-163.657	0.016548	0.021075	-1.108789	-1.110134	-0.020274	53.5715	-1.108506	-6.519768E+14	3.109572E-17	NaN
773	1.000000	0.032449	7.37262e+06	-38789.1	1055.82	-29796.2	0.000000	0.000000	6.032766	0.057868	NaN	0.000000	0.001561	0.001792	28.0811	0.080820	0.001995	40.5176	-95.305	16.133	0.092866	0.031023	-1.098760	-1.100186	0.057868	40.5176	-1.099832	-4.986640E+14	-1.160466E-16	NaN
773	1.000000	0.042451	7.37262e+06	-38789.1	1055.82	-29796.2	0.000000	0.000000	6.042768	0.061027	NaN	0.000000	0.001633	0.001758	28.0811	0.034275	0.002004	17.1063	153.066	-164.289	-0.017955	0.041128	-1.088759	-1.090081	0.061027	17.1063	-1.091434	-3.846532E+14	-1.586545E-16	NaN
773	1.000000	0.052447	7.37262e+06	-38789.1	1055.82	-29796.2	0.000000	0.000000	6.052762	0.007953	NaN	0.000000	0.001630	0.001754	28.0809	0.047828	0.001940	24.657	-112.203	15.272	-0.013294	0.051082	-1.078763	-1.080128	0.007953	24.657	-1.079005	-2.619105E+14	-3.036688E-17	NaN
773	1.000000	0.062464	7.37262e+06	-38789.1	1055.82	-29796.2	0.000000	0.000000	6.062776	-0.068358	NaN	0.000000	0.001618	0.001768	28.0807	0.069467	0.001904	36.4865	-28.5448	-163.098	-0.029535	0.061118	-1.068745	-1.070092	-0.068358	36.4865	-1.067340	-1.825792E+14	3.743992E-16	NaN
773	1.000000	0.072428	7.37262e+06	-38789.1	1055.82	-29796.2	0.000000	0.000000	6.072743	0.003534	NaN	0.000000	0.001580	0.001737	28.0808	0.062825	0.002018	31.1325	-76.712	15.1567	0.017804	0.071114	-1.058781	-1.060096	0.003534	31.1325	-1.058866	-1.404711E+14	-2.516098E-17	NaN
773	1.000000	0.082436	7.37262e+06	-38789.1	1055.82	-29796.2	0.000000	0.000000	6.082751	0.016405	NaN	0.000000	0.001606	0.001763	28.0807	0.064476	0.002104	30.6488	137.738	-164.292	0.028275	0.081106	-1.048774	-1.050103	0.016405	30.6488	-1.049175	-1.040704E+14	-1.576349E-16	NaN
773	1.000000	0.092451	7.37262e+06	-38789.1	1055.82	-29796.2	0.000000	0.000000	6.092768	0.043323	NaN	0.000000	0.001617	0.001768	28.082	0.045219	0.002001	22.5955	50.7276	15.037	-0.020538	0.091052	-1.038758	-1.040158	0.043323	22.5955	-1.040196	-7.881460E+13	-5.496884E-16	NaN
773	1.000000	0.102452	7.37262e+06	-38789.1	1055.82	-29796.2	0.000000	0.000000	6.102769	0.039088	NaN	0.000000	0.001602	0.001736	28.0818	0.074621	0.002064	36.1505	33.5673	-164.838	0.012996	0.101145	-1.028757	-1.030064	0.039088	36.1505	-1.029568	-5.671148E+13	-6.892346E-16	NaN
773	1.000000	0.112435	7.37262e+06	-38789.1	1055.82	-29796.2	0.000000	0.000000	6.112749	-0.020158	NaN	0.000000	0.001597	0.001761	28.0825	0.115038	0.001940	59.3012	-120.751	17.2327	0.002990	0.111084	-1.018775	-1.020125	-0.020158	59.3012	-1.018520	-4.027476E+13	5.005007E-16	NaN
773	1.000000	0.122456	7.37262e+06	-38789.1	1055.82	-29796.2	0.000000	0.000000	6.122770	-0.025374	NaN	0.000000	0.001604	0.001770	28.0819	0.042891	0.001938	22.1291	167.354	-163.481	-0.112176	0.121110	-1.008753	-1.010099	-0.025374	22.1291	-1.007893	-2.897529E+13	8.757205E-16	NaN
773	1.000000	0.132461	7.37262e+06	-38789.1	1055.82	-29796.2	0.000000	0.000000	6.132776	-0.010714	NaN	0.000000	0.001614	0.001789	28.0823	0.096930	0.002063	46.9805	9.881030	12.3809	0.023634	0.131010	-0.998748	-1.000200	-0.010714	46.9805	-0.998577	-2.170756E+13	4.935444E-16	NaN
773	1.000000	0.142464	7.37262e+06	-38789.1	1055.82	-29796.2	0.000000	0.000000	6.142779	0.018826	NaN	0.000000	0.001632	0.001747	28.082	0.005044	0.001947	2.590393	-86.6158	-160.838	0.023994	0.141149	-0.988745	-0.990061	0.018826	2.590393	-0.994196	-1.895051E+13	-9.934122E-16	NaN
773	1.000000	0.152484	7.37262e+06	-38789.1	1055.82	-29796.2	0.000000	0.000000	6.152801	0.049178	NaN	0.000000	0.001612	0.001748	28.0823	0.012512	0.002148	5.823414	-127.912	15.5982	0.045520	0.151112	-0.978726	-0.980097	0.049178	5.823414	-0.985059	-1.427463E+13	-3.445166E-15	NaN
773	1.000000	0.162496	7.37262e+06	-38789.1	1055.82	-29796.2	0.000000	0.000000	6.162811	-0.007465	NaN	0.000000	0.001632	0.001755	28.0817	0.091468	0.001958	46.7187	141.131	-162.471	0.019002	0.161177	-0.968713	-0.970033	-0.007465	46.7187	-0.968593	-8.564555E+12	8.716317E-16	NaN
773	1.000000	0.172488	7.37262e+06	-38789.1	1055.82	-29796.2	0.000000	0.000000	6.172804	0.018277	NaN	0.000000	0.001613	0.001791	28.0822	0.110936	0.001928	57.5446	135.582	14.8632	-0.036552	0.171118	-0.958721	-0.960092	0.018277	57.5446	-0.958959	-6.350979E+12	-2.877873E-15	NaN
773	1.000000	0.182467	7.37262e+06	-38789.1	1055.82	-29796.2	0.000000	0.000000	6.182783	0.021513	NaN	0.000000	0.001639	0.001742	28.0823	0.012497	0.002005	6.232427	159.55	-164.985	0.036152	0.181151	-0.948742	-0.950058	0.021513	6.232427	-0.951331	-5.011625E+12	-4.292698E-15	NaN
773	1.000000	0.192486	7.37262e+06	-38789.1	1055.82	-29796.2	0.000000	0.000000	6.192804	0.064863	NaN	0.000000	0.001617	0.001763	28.0823	0.110913	0.001902	58.3102	-71.4104	16.4824	0.067419	0.191134	-0.938723	-0.940076	0.064863	58.3102	-0.939558	-3.476711E+12	-1.865654E-14	NaN
773	1.000000	0.202516	7.37262e+06	-38789.1	1055.82	-29796.2	0.000000	0.000000	6.202830	-0.016575	NaN	0.000000	0.001618	0.001760	28.0821	0.034220	0.002085	16.4155	31.7392	-166.352	0.060046	0.201164	-0.928694	-0.930045	-0.016575	16.4155	-0.927937	-2.422966E+12	6.840646E-15	NaN
773	1.000000	0.212520	7.37262e+06	-38789.1	1055.82	-29796.2	0.000000	0.000000	6.212837	0.033844	NaN	0.000000	0.001581	0.001777	28.0821	0.120212	0.002019	59.549	-119.972	17.969	0.077547	0.211127	-0.918689	-0.920082	0.033844	59.549	-0.919115	-1.841877E+12	-1.837482E-14	NaN
773	1.000000	0.222534	7.37262e+06	-38789.1	1055.82	-29796.2	0.000000	0.000000	6.222850	0.030219	NaN	0.000000	0.001599	0.001771	28.0813	0.091935	0.002043	44.9911	142.067	-164.627	-0.039395	0.221150	-0.908675	-0.910060	0.030219	44.9911	-0.909179	-1.352302E+12	-2.234664E-14	NaN
773	1.000000	0.232519	7.37262e+06	-38789.1	1055.82	-29796.2	0.000000	0.000000	6.232832	-0.033085	NaN	0.000000	0.001588	0.001748	28.0805	0.027364	0.001904	14.3727	-137.569	16.8295	0.036099	0.231182	-0.898691	-0.900027	-0.033085	14.3727	-0.896964	-9.247907E+11	3.577527E-14	NaN
773	1.000000	0.242514	7.37262e+06	-38789.1	1055.82	-29796.2	0.000000	0.000000	6.242830	0.020962	NaN	0.000000	0.001551	0.001758	28.0805	0.047032	0.001986	23.6829	-166.567	-162.724	-0.025127	0.241219	-0.888695	-0.889990	0.020962	23.6829	-0.889359	-7.298816E+11	-2.871987E-14	NaN
773	1.000000	0.252509	7.37262e+06	-38789.1	1055.82	-29796.2	0.000000	0.000000	6.252825	0.037345	NaN	0.000000	0.001590	0.001758	28.0807	0.119709	0.001933	61.9372	134.373	17.9686	0.088186	0.251142	-0.878701	-0.880068	0.037345	61.9372	-0.879153	-5.311952E+11	-7.030427E-14	NaN
773	1.000000	0.262497	7.37262e+06	-38789.1	1055.82	-29796.2	0.000000	0.000000	6.262811	-0.010807	NaN	0.000000	0.001592	0.001733	28.0804	0.077384	0.001986	38.9705	-27.641	-162.952	-0.031688	0.261174	-0.868713	-0.870036	-0.010807	38.9705	-0.868505	-3.812510E+11	2.834565E-14	NaN
773	1.000000	0.272489	7.37262e+06	-38789.1	1055.82	-29796.2	0.000000	0.000000	6.272805	0.033892	NaN	0.000000	0.001587	0.001717	28.0804	0.100839	0.002035	49.5641	-142.098	13.8665	-0.005329	0.271178	-0.858721	-0.860032	0.033892	49.5641	-0.859234	-2.855947E+11	-1.186727E-13	NaN
773	1.000000	0.282540	7.37262e+06	-38789.1	1055.82	-29796.2	0.000000	0.000000	6.282852	-0.065539	NaN	0.000000	0.001598	0.001753	28.0807	0.108097	0.001829	59.1086	-48.1657	-162.277	0.027976	0.281178	-0.848669	-0.850031	-0.065539	59.1086	-0.847837	-2.001942E+11	3.273771E-13	NaN
773	1.000000	0.292537	7.37262e+06	-38789.1	1055.82	-29796.2	0.000000	0.000000	6.292852	0.008271	NaN	0.000000	0.001582	0.001737	28.0808	0.037769	0.002103	17.9619	56.0026	18.2905	0.054352	0.291174	-0.838673	-0.840035	0.008271	17.9619	-0.839018	-1.520511E+11	-5.439471E-14	NaN
773	1.000000	0.302506	7.37262e+06	-38789.1	1055.82	-29796.2	0.000000	0.000000	6.302820	-0.022195	NaN	0.000000	0.001540	0.001722	28.0806	0.140692	0.002115	66.5163	-41.3926	-164.962	-0.025265	0.301214	-0.828703	-0.829996	-0.022195	66.5163	-0.828453	-1.093496E+11	2.029748E-13	NaN
773	1.000000	0.312542	7.37262e+06	-38789.1	1055.82	-29796.2	0.000000	0.000000	6.312859	0.045248	NaN	0.000000	0.001536	0.001767	28.0803	0.074818	0.001935	38.6739	-170.288	14.0116	0.067160	0.311129	-0.818667	-0.820080	0.045248	38.6739	-0.819545	-8.280194E+10	-5.464652E-13	NaN
773	1.000000	0.322570	7.37262e+06	-38789.1	1055.82	-29796.2	0.000000	0.000000	6.322885	0.000779	NaN	0.000000	0.001556	0.001766	28.0806	0.109815	0.002062	53.2459	-35.9618	-165.361	-0.002762	0.321230	-0.808640	-0.809979	0.000779	53.2459	-0.808651	-5.892002E+10	-1.322384E-14	NaN
773	1.000000	0.332587	7.37262e+06	-38789.1	1055.82	-29796.2	0.000000	0.000000	6.332904	0.072337	NaN	0.000000	0.001562	0.001718	28.0803	0.087469	0.002042	42.8348	55.3572	16.7651	0.020921	0.331229	-0.798623	-0.799981	0.072337	42.8348	-0.799889	-4.480834E+10	-1.614360E-12	NaN
773	1.000000	0.342554	7.37262e+06	-38789.1	1055.82	-29796.2	0.000000	0.000000	6.342874	0.132302	NaN	0.000000	0.001559	0.001721	28.0804	0.114518	0.002042	56.0713	-37.9721	-162.724	0.053382	0.341224	-0.788655	-0.789985	0.132302	56.0713	-0.790425	-3.333148E+10	-3.969276E-12	NaN
773	1.000000	0.352563	7.37262e+06	-38789.1	1055.82	-29796.2	0.000000	0.000000	6.352877	-0.009389	NaN	0.000000	0.001565	0.001746	28.0805	0.043851	0.002053	21.3637	7.801795	12.8314	0.020168	0.351172	-0.778646	-0.780037	-0.009389	21.3637	-0.778317	-2.282227E+10	4.114119E-13	NaN
773	1.000000	0.362554	7.37262e+06	-38789.1	1055.82	-29796.2	0.000000	0.000000	6.362869	0.006357	NaN	0.000000	0.001598	0.001732	28.0819	0.143971	0.001912	75.3165	142.844	-162.138	-0.141561	0.361307	-0.768655	-0.769903	0.006357	75.3165	-0.768719	-1.689989E+10	-3.761579E-13	NaN
773	1.000000	0.372588	7.37262e+06	-38789.1	1055.82	-29796.2	0.000000	0.000000	6.372905	0.041144	NaN	0.000000	0.001572	0.001739	28.0814	0.058434	0.001803	32.4075	-64.533	13.1441	0.007897	0.371161	-0.758621	-0.760049	0.041144	32.4075	-0.759573	-1.269112E+10	-3.241951E-12	NaN
773	1.000000	0.382595	7.37262e+06	-38789.1	1055.82	-29796.2	0.000000	0.000000	6.382909	-0.001827	NaN	0.000000	0.001565	0.001751	28.0813	0.154115	0.001994	77.2921	71.2838	-162.371	0.019358	0.381218	-0.748615	-0.749991	-0.001827	77.2921	-0.748597	-8.997535E+9	2.030927E-13	NaN
773	1.000000	0.392583	7.37262e+06	-38789.1	1055.82	-29796.2	0.000000	0.000000	6.392898	0.017462	NaN	0.000000	0.001580	0.001775	28.0814	0.059588	0.002080	28.6429	165.86	14.2396	0.068613	0.391178	-0.738626	-0.740031	0.017462	28.6429	-0.739084	-6.676888E+9	-2.615299E-12	NaN
773	1.000000	0.402573	7.37262e+06	-38789.1	1055.82	-29796.2	0.000000	0.000000	6.402891	0.070356	NaN	0.000000	0.001566	0.001783	28.0818	0.067633	0.001964	34.4348	-131.94	-168.626	0.051489	0.401282	-0.728636	-0.729927	0.070356	34.4348	-0.730169	-5.047863E+9	-1.393769E-11	NaN
773	1.000000	0.412589	7.37262e+06	-38789.1	1055.82	-29796.2	0.000000	0.000000	6.412904	0.026234	NaN	0.000000	0.001599	0.001765	28.0816	0.056569	0.001873	30.2063	128.598	13.7508	0.086610	0.411289	-0.718621	-0.719920	0.026234	30.2063	-0.719272	-3.585493E+9	-7.316589E-12	NaN
773	1.000000	0.422602	7.37262e+06	-38789.1	1055.82	-29796.2	0.000000	0.000000	6.422914	-0.058737	NaN	0.000000	0.001593	0.001772	28.0817	0.192578	0.002050	93.9244	166.683	-164.163	-0.016980	0.421282	-0.708608	-0.709928	-0.058737	93.9244	-0.708139	-2.527248E+9	2.324156E-11	NaN
773	1.000000	0.432602	7.37262e+06	-38789.1	1055.82	-29796.2	0.000000	0.000000	6.432916	-0.010973	NaN	0.000000	0.001587	0.001738	28.0814	0.077420	0.001942	39.8715	-40.5326	16.044	0.008469	0.431238	-0.698608	-0.699971	-0.010973	39.8715	-0.698401	-1.860792E+9	5.896809E-12	NaN
773	1.000000	0.442606	7.37262e+06	-38789.1	1055.82	-29796.2	0.000000	0.000000	6.442923	0.042968	NaN	0.000000	0.001624	0.001734	28.0816	0.086895	0.002039	42.6256	-178.438	-165.761	0.100268	0.441291	-0.688603	-0.689919	0.042968	42.6256	-0.689359	-1.400107E+9	-3.068928E-11	NaN
773	1.000000	0.452619	7.37262e+06	-38789.1	1055.82	-29796.2	0.000000	0.000000	6.452935	0.041730	NaN	0.000000	0.001603	0.001751	28.0815	0.091547	0.002000	45.7726	-162.517	16.7558	0.001289	0.451216	-0.678590	-0.679993	0.041730	45.7726	-0.679274	-1.019247E+9	-4.094202E-11	NaN
773	1.000000	0.462621	7.37262e+06	-38789.1	1055.82	-29796.2	0.000000	0.000000	6.462935	-0.024358	NaN	0.000000	0.001561	0.001778	28.0816	0.087849	0.002028	43.3172	-39.8789	-164.898	-0.015944	0.461315	-0.668588	-0.669895	-0.024358	43.3172	-0.668167	-7.182806E+8	3.391206E-11	NaN
773	1.000000	0.472634	7.37262e+06	-38789.1	1055.82	-29796.2	0.000000	0.000000	6.472950	0.039459	NaN	0.000000	0.001597	0.001785	28.0816	0.093029	0.002013	46.206	163.23	16.2302	0.092789	0.471243	-0.658575	-0.659966	0.039459	46.206	-0.659216	-5.416602E+8	-7.284905E-11	NaN
773	1.000000	0.482616	7.37262e+06	-38789.1	1055.82	-29796.2	0.000000	0.000000	6.482934	0.074964	NaN	0.000000	0.001588	0.001788	28.0815	0.021149	0.001900	11.1318	100.338	-166.895	0.011941	0.481301	-0.648593	-0.649908	0.074964	11.1318	-0.653644	-4.543454E+8	-1.649940E-10	NaN
773	1.000000	0.492618	7.37262e+06	-38789.1	1055.82	-29796.2	0.000000	0.000000	6.492933	0.014230	NaN	0.000000	0.001559	0.001751	28.0815	0.082704	0.002106	39.2766	156.634	11.9275	0.028000	0.491254	-0.638592	-0.639956	0.014230	39.2766	-0.638864	-2.849023E+8	-4.994724E-11	NaN
773	1.000000	0.502645	7.37262e+06	-38789.1	1055.82	-29796.2	0.000000	0.000000	6.502963	0.071001	NaN	0.000000	0.001559	0.001777	28.0802	0.064737	0.002019	32.0688	120.904	-159.207	0.034286	0.501305	-0.628564	-0.629905	0.071001	32.0688	-0.630225	-2.168260E+8	-3.274543E-10	NaN
773	1.000000	0.512655	7.37262e+06	-38789.1	1055.82	-29796.2	0.000000	0.000000	6.512969	-0.015063	NaN	0.000000	0.001609	0.001757	28.0804	0.064818	0.002031	31.9103	156.627	16.1885	-0.117699	0.511254	-0.618555	-0.619956	-0.015063	31.9103	-0.618201	-1.482184E+8	1.016255E-10	NaN
773	1.000000	0.522605	7.37262e+06	-38789.1	1055.82	-29796.2	0.000000	0.000000	6.522920	0.007258	NaN	0.000000	0.001584	0.001797	28.0803	0.048734	0.001838	26.5176	-42.636	-163.321	-0.072454	0.521256	-0.608604	-0.609953	0.007258	26.5176	-0.608809	-1.100860E+8	-6.593478E-11	NaN
773	1.000000	0.532630	7.37262e+06	-38789.1	1055.82	-29796.2	0.000000	0.000000	6.532945	0.009686	NaN	0.000000	0.001616	0.001783	28.0806	0.058661	0.002049	28.6349	-174.344	17.81	-0.019917	0.531336	-0.598579	-0.599873	0.009686	28.6349	-0.598833	-8.023930E+7	-1.207146E-10	NaN
773	1.000000	0.542635	7.37262e+06	-38789.1	1055.82	-29796.2	0.000000	0.000000	6.542952	0.048930	NaN	0.000000	0.001586	0.001786	28.0805	0.060546	0.001972	30.7044	2.594094	-164.468	0.119354	0.541313	-0.588575	-0.589896	0.048930	30.7044	-0.589770	-6.018569E+7	-8.129885E-10	NaN
773	1.000000	0.552658	7.37262e+06	-38789.1	1055.82	-29796.2	0.000000	0.000000	6.552975	0.046110	NaN	0.000000	0.001595	0.001767	28.0806	0.092386	0.001917	48.1861	164.355	18.1637	0.114629	0.551304	-0.578551	-0.579905	0.046110	48.1861	-0.579269	-4.311553E+7	-1.069462E-9	NaN
773	1.000000	0.562660	7.37262e+06	-38789.1	1055.82	-29796.2	0.000000	0.000000	6.562976	0.030765	NaN	0.000000	0.001646	0.001764	28.0803	0.056329	0.001919	29.3563	-74.2534	-165.846	0.006165	0.561346	-0.568549	-0.569863	0.030765	29.3563	-0.569335	-3.143759E+7	-9.786132E-10	NaN
773	1.000000	0.572671	7.37262e+06	-38789.1	1055.82	-29796.2	0.000000	0.000000	6.572984	-0.036946	NaN	0.000000	0.001640	0.001761	28.0805	0.099892	0.002002	49.9085	-131.313	16.269	-0.040173	0.571290	-0.558539	-0.559920	-0.036946	49.9085	-0.557983	-2.190168E+7	1.686916E-9	NaN
773	1.000000	0.582641	7.37262e+06	-38789.1	1055.82	-29796.2	0.000000	0.000000	6.582957	0.037025	NaN	0.000000	0.001657	0.001788	28.0805	0.065231	0.002004	32.5427	-24.9466	-168.325	0.079561	0.581377	-0.548568	-0.549832	0.037025	32.5427	-0.549422	-1.667037E+7	-2.221029E-9	NaN
773	1.000000	0.592662	7.37262e+06	-38789.1	1055.82	-29796.2	0.000000	0.000000	6.592979	0.073674	NaN	0.000000	0.001651	0.001733	28.0804	0.076507	0.002102	36.3916	-124.702	17.4674	0.063206	0.591300	-0.538548	-0.539909	0.073674	36.3916	-0.540066	-1.236729E+7	-5.957202E-9	NaN
773	1.000000	0.602689	7.37262e+06	-38789.1	1055.82	-29796.2	0.000000	0.000000	6.603005	0.028802	NaN	0.000000	0.001657	0.001737	28.0803	0.056778	0.001960	28.9694	-41.5494	-163.829	0.030722	0.601366	-0.528520	-0.529843	0.028802	28.9694	-0.529266	-8.75745e+06	-3.288870E-9	NaN
773	1.000000	0.612660	7.37262e+06	-38789.1	1055.82	-29796.2	0.000000	0.000000	6.612974	-0.014366	NaN	0.000000	0.001663	0.001736	28.0804	0.079001	0.002071	38.1423	-153.972	12.0725	-0.062344	0.611353	-0.518549	-0.519856	-0.014366	38.1423	-0.518267	-6.15869e+06	2.332593E-9	NaN
773	1.000000	0.622675	7.37262e+06	-38789.1	1055.82	-29796.2	0.000000	0.000000	6.622989	-0.010541	NaN	0.000000	0.001644	0.001730	28.0804	0.048443	0.002012	24.0734	104.603	-163.735	0.002319	0.621333	-0.508535	-0.509876	-0.010541	24.0734	-0.508206	-4.46097e+06	2.362957E-9	NaN
773	1.000000	0.632718	7.37262e+06	-38789.1	1055.82	-29796.2	0.000000	0.000000	6.633036	0.074814	NaN	0.000000	0.001639	0.001742	28.0813	0.139920	0.002074	67.4607	75.8917	13.4969	0.028851	0.631383	-0.498492	-0.499826	0.074814	67.4607	-0.499323	-3.35412e+06	-2.230501E-8	NaN
773	1.000000	0.642650	7.37262e+06	-38789.1	1055.82	-29796.2	0.000000	0.000000	6.642963	-0.041993	NaN	0.000000	0.001590	0.001755	28.0816	0.066705	0.001899	35.1283	95.1245	-165.414	-0.081871	0.641367	-0.488560	-0.489843	-0.041993	35.1283	-0.487663	-2.3053e+06	1.821580E-8	NaN
773	1.000000	0.652677	7.37262e+06	-38789.1	1055.82	-29796.2	0.000000	0.000000	6.652993	0.027454	NaN	0.000000	0.001572	0.001775	28.0829	0.032343	0.001959	16.5117	149.998	11.1913	0.003253	0.651334	-0.478533	-0.479875	0.027454	16.5117	-0.479780	-1.78831e+06	-1.535201E-8	NaN
773	1.000000	0.662684	7.37262e+06	-38789.1	1055.82	-29796.2	0.000000	0.000000	6.663003	0.088215	NaN	0.000000	0.001617	0.001761	28.0819	0.054006	0.001927	28.025	152.372	-167.183	-0.005405	0.661340	-0.468525	-0.469870	0.088215	28.025	-0.470886	-1.34224e+06	-6.572182E-8	NaN
773	1.000000	0.672706	7.37262e+06	-38789.1	1055.82	-29796.2	0.000000	0.000000	6.673021	0.019043	NaN	0.000000	0.001646	0.001759	28.0816	0.046845	0.001984	23.612	151.207	15.2398	-0.034416	0.671339	-0.458504	-0.459871	0.019043	23.612	-0.459109	-917255	-2.076078E-8	NaN
773	1.000000	0.682709	7.37262e+06	-38789.1	1055.82	-29796.2	0.000000	0.000000	6.683026	0.055861	NaN	0.000000	0.001621	0.001823	28.0818	0.077724	0.001989	39.0771	64.6477	-162.731	0.044418	0.681440	-0.448501	-0.449770	0.055861	39.0771	-0.449573	-673487	-8.294349E-8	NaN
773	1.000000	0.692709	7.37262e+06	-38789.1	1055.82	-29796.2	0.000000	0.000000	6.693025	0.024105	NaN	0.000000	0.001594	0.001762	28.0822	0.079937	0.001979	40.3891	-39.0816	15.6544	0.033595	0.691368	-0.438501	-0.439841	0.024105	40.3891	-0.438948	-476998	-5.053413E-8	NaN
773	1.000000	0.702721	7.37262e+06	-38789.1	1055.82	-29796.2	0.000000	0.000000	6.703038	0.058851	NaN	0.000000	0.001580	0.001788	28.0817	0.027399	0.002051	13.3566	89.3361	-162.035	0.049167	0.701432	-0.428488	-0.429777	0.058851	13.3566	-0.431793	-377937	-1.557167E-7	NaN
773	1.000000	0.712712	7.37262e+06	-38789.1	1055.82	-29796.2	0.000000	0.000000	6.713028	0.043778	NaN	0.000000	0.001615	0.001793	28.0821	0.147612	0.002124	69.5117	-156.269	16.3397	0.010271	0.711331	-0.418498	-0.419878	0.043778	69.5117	-0.418970	-248776	-1.759741E-7	NaN
773	1.000000	0.722696	7.37262e+06	-38789.1	1055.82	-29796.2	0.000000	0.000000	6.723015	0.087774	NaN	0.000000	0.001611	0.001768	28.0817	0.032565	0.002003	16.2563	54.484	-163.205	-0.002437	0.721390	-0.408513	-0.409820	0.087774	16.2563	-0.412563	-201759	-4.350427E-7	NaN
773	1.000000	0.732738	7.37262e+06	-38789.1	1055.82	-29796.2	0.000000	0.000000	6.733051	-0.037152	NaN	0.000000	0.001587	0.001783	28.0819	0.110833	0.002110	52.5195	-93.9816	16.9675	-0.027764	0.731379	-0.398471	-0.399830	-0.037152	52.5195	-0.397941	-124916	2.974196E-7	NaN
773	1.000000	0.742707	7.37262e+06	-38789.1	1055.82	-29796.2	0.000000	0.000000	6.743024	0.048772	NaN	0.000000	0.001597	0.001826	28.0818	0.085220	0.001862	45.7663	-18.4726	-165.148	-0.011554	0.741391	-0.388502	-0.389819	0.048772	45.7663	-0.389302	-94010.4	-5.187929E-7	NaN
773	1.000000	0.752735	7.37262e+06	-38789.1	1055.82	-29796.2	0.000000	0.000000	6.753052	0.043577	NaN	0.000000	0.001663	0.001757	28.082	0.039739	0.002076	19.144	-52.474	20.9704	0.066233	0.751363	-0.378474	-0.379847	0.043577	19.144	-0.380181	-69581	-6.262724E-7	NaN
773	1.000000	0.762748	7.37262e+06	-38789.1	1055.82	-29796.2	0.000000	0.000000	6.763064	0.018218	NaN	0.000000	0.001697	0.001768	28.0819	0.117050	0.001940	60.3299	98.1526	-163.575	0.011162	0.761400	-0.368461	-0.369809	0.018218	60.3299	-0.368688	-47558.2	-3.830723E-7	NaN
773	1.000000	0.772725	7.37262e+06	-38789.1	1055.82	-29796.2	0.000000	0.000000	6.773040	0.011711	NaN	0.000000	0.001685	0.001776	28.0806	0.067467	0.002079	32.4505	-30.6393	13.2679	-0.047070	0.771416	-0.358485	-0.359793	0.011711	32.4505	-0.358755	-34186.1	-3.425669E-7	NaN
773	1.000000	0.782728	7.37262e+06	-38789.1	1055.82	-29796.2	0.000000	0.000000	6.783043	-0.009713	NaN	0.000000	0.001653	0.001775	28.0805	0.164409	0.001898	86.6245	-83.0755	-166.239	0.037139	0.781404	-0.348481	-0.349806	-0.009713	86.6245	-0.348397	-24195.3	4.014486E-7	NaN
773	1.000000	0.792767	7.37262e+06	-38789.1	1055.82	-29796.2	0.000000	0.000000	6.793083	0.036577	NaN	0.000000	0.001589	0.001797	28.0805	0.025061	0.001993	12.5754	-34.007	16.1752	0.084580	0.791421	-0.338442	-0.339788	0.036577	12.5754	-0.340624	-18648.7	-1.961389E-6	NaN
773	1.000000	0.802763	7.37262e+06	-38789.1	1055.82	-29796.2	0.000000	0.000000	6.803075	-0.061491	NaN	0.000000	0.001579	0.001762	28.0807	0.058699	0.002091	28.075	56.0989	-166.741	-0.036166	0.801515	-0.328447	-0.329695	-0.061491	28.075	-0.326804	-11711.5	5.250468E-6	NaN
773	1.000000	0.812734	7.37262e+06	-38789.1	1055.82	-29796.2	0.000000	0.000000	6.813047	-0.046444	NaN	0.000000	0.001590	0.001740	28.0805	0.110055	0.001986	55.4167	-53.6452	14.6583	-0.010282	0.811343	-0.318476	-0.319867	-0.046444	55.4167	-0.317847	-8648.35	5.370317E-6	NaN
773	1.000000	0.822732	7.37262e+06	-38789.1	1055.82	-29796.2	0.000000	0.000000	6.823044	-0.072009	NaN	0.000000	0.001591	0.001754	28.0806	0.083484	0.002089	39.9659	72.3995	-167.81	-0.062617	0.821486	-0.308477	-0.309723	-0.072009	39.9659	-0.307126	-6004.64	1.199226E-5	NaN
773	1.000000	0.832761	7.37262e+06	-38789.1	1055.82	-29796.2	0.000000	0.000000	6.833077	0.012031	NaN	0.000000	0.001580	0.001815	28.0803	0.057020	0.001995	28.585	-16.3114	18.2685	0.054762	0.831366	-0.298448	-0.299844	0.012031	28.585	-0.298764	-4510.52	-2.667266E-6	NaN
773	1.000000	0.842759	7.37262e+06	-38789.1	1055.82	-29796.2	0.000000	0.000000	6.843073	-0.022629	NaN	0.000000	0.001569	0.001771	28.0804	0.078366	0.001942	40.3549	140.491	-164.671	0.069979	0.841485	-0.288450	-0.289725	-0.022629	40.3549	-0.288030	-3117.2	7.259400E-6	NaN
773	1.000000	0.852736	7.37262e+06	-38789.1	1055.82	-29796.2	0.000000	0.000000	6.853051	-0.008206	NaN	0.000000	0.001597	0.001792	28.0804	0.024253	0.001989	12.1953	-161.548	15.2011	0.054726	0.851436	-0.278473	-0.279774	-0.008206	12.1953	-0.277968	-2199.36	3.731282E-6	NaN
773	1.000000	0.862790	7.37262e+06	-38789.1	1055.82	-29796.2	0.000000	0.000000	6.863105	0.014579	NaN	0.000000	0.001578	0.001764	28.0804	0.037150	0.001910	19.4454	87.685	-163.2	-0.003150	0.861439	-0.268420	-0.269771	0.014579	19.4454	-0.268982	-1607.19	-9.071039E-6	NaN
773	1.000000	0.872764	7.37262e+06	-38789.1	1055.82	-29796.2	0.000000	0.000000	6.873078	-0.012553	NaN	0.000000	0.001585	0.001737	28.0805	0.045116	0.001956	23.0678	15.6598	12.0478	-0.006357	0.871419	-0.258446	-0.259791	-0.012553	23.0678	-0.258038	-1093.49	1.147938E-5	NaN
773	1.000000	0.882797	7.37262e+06	-38789.1	1055.82	-29796.2	0.000000	0.000000	6.883111	-0.031215	NaN	0.000000	0.001625	0.001753	28.0803	0.145271	0.002110	68.8456	10.1421	-164.733	0.015923	0.881479	-0.248412	-0.249731	-0.031215	68.8456	-0.248072	-767.582	4.066702E-5	NaN
773	1.000000	0.892743	7.37262e+06	-38789.1	1055.82	-29796.2	0.000000	0.000000	6.893056	-0.019511	NaN	0.000000	0.001553	0.001755	28.0804	0.042721	0.002132	20.0376	76.3116	13.4287	-0.012932	0.891412	-0.238467	-0.239797	-0.019511	20.0376	-0.237737	-529.856	3.682242E-5	NaN
773	1.000000	0.902816	7.37262e+06	-38789.1	1055.82	-29796.2	0.000000	0.000000	6.903131	-0.005771	NaN	0.000000	0.001602	0.001757	28.0803	0.083112	0.002003	41.5024	-93.2585	-164.554	0.022392	0.901467	-0.228393	-0.229742	-0.005771	41.5024	-0.228289	-376.243	1.533903E-5	NaN
773	1.000000	0.912794	7.37262e+06	-38789.1	1055.82	-29796.2	0.000000	0.000000	6.913109	0.009971	NaN	0.000000	0.001587	0.001752	28.0819	0.070779	0.001868	37.8893	100.093	13.9593	-0.032191	0.911495	-0.218416	-0.219714	0.009971	37.8893	-0.218613	-263.932	-3.777853E-5	NaN
773	1.000000	0.922831	7.37262e+06	-38789.1	1055.82	-29796.2	0.000000	0.000000	6.923146	0.023259	NaN	0.000000	0.001602	0.001753	28.0819	0.057639	0.001981	29.099	-166.686	-166.963	0.044245	0.921465	-0.208379	-0.209745	0.023259	29.099	-0.208978	-184.612	-0.000126	NaN
773	1.000000	0.932837	7.37262e+06	-38789.1	1055.82	-29796.2	0.000000	0.000000	6.933153	0.027929	NaN	0.000000	0.001623	0.001760	28.082	0.067019	0.001986	33.7464	39.747	17.3176	0.028642	0.931447	-0.198372	-0.199763	0.027929	33.7464	-0.198993	-126.804	-0.000220	NaN
773	1.000000	0.942828	7.37262e+06	-38789.1	1055.82	-29796.2	0.000000	0.000000	6.943141	-0.025905	NaN	0.000000	0.001595	0.001788	28.082	0.059365	0.002039	29.1211	-64.6525	-163.857	-0.021239	0.941483	-0.188382	-0.189726	-0.025905	29.1211	-0.187715	-82.3707	0.000314	NaN
773	1.000000	0.952821	7.37262e+06	-38789.1	1055.82	-29796.2	0.000000	0.000000	6.953138	0.043268	NaN	0.000000	0.001592	0.001792	28.0817	0.100116	0.002120	47.2208	99.3081	13.6318	0.072254	0.951495	-0.178388	-0.179715	0.043268	47.2208	-0.179075	-58.8464	-0.000735	NaN
773	1.000000	0.962798	7.37262e+06	-38789.1	1055.82	-29796.2	0.000000	0.000000	6.963115	0.060959	NaN	0.000000	0.001603	0.001763	28.0818	0.046341	0.001987	23.3206	17.3552	-166.102	0.020122	0.961499	-0.168411	-0.169711	0.060959	23.3206	-0.170372	-41.6935	-0.001462	NaN
773	1.000000	0.972810	7.37262e+06	-38789.1	1055.82	-29796.2	0.000000	0.000000	6.973126	0.047831	NaN	0.000000	0.001593	0.001792	28.0817	0.028885	0.001952	14.8013	4.301594	11.0575	0.107008	0.971471	-0.158400	-0.159739	0.047831	14.8013	-0.160823	-28.3532	-0.001687	NaN
773	1.000000	0.982830	7.37262e+06	-38789.1	1055.82	-29796.2	0.000000	0.000000	6.983147	0.068810	NaN	0.000000	0.001571	0.001724	28.082	0.070081	0.002052	34.1481	-57.9491	-161.633	0.084600	0.981544	-0.148380	-0.149665	0.068810	34.1481	-0.149891	-18.0308	-0.003816	NaN
773	1.000000	0.992825	7.37262e+06	-38789.1	1055.82	-29796.2	0.000000	0.000000	6.993139	-0.007053	NaN	0.000000	0.001577	0.001771	28.0817	0.093055	0.002072	44.9125	57.7938	13.5305	0.022573	0.991456	-0.138385	-0.139753	-0.007053	44.9125	-0.138267	-10.9729	0.000643	NaN
773	1.000000	1.002854	7.37262e+06	-38789.1	1055.82	-29796.2	0.000000	0.000000	7.003169	0.010702	NaN	0.000000	0.001569	0.001778	28.0819	0.063926	0.001917	33.3494	0.457029	-164.076	0.102800	1.001542	-0.128356	-0.129667	0.010702	33.3494	-0.128597	-7.156175	-0.001496	NaN
773	1.000000	1.012867	7.37262e+06	-38789.1	1055.82	-29796.2	0.000000	0.000000	7.013182	0.012454	NaN	0.000000	0.001543	0.001716	28.0819	0.082500	0.002028	40.6777	161.942	15.4011	-0.012459	1.011451	-0.118343	-0.119758	0.012454	40.6777	-0.118573	-4.520502	-0.002755	NaN
773	1.000000	1.022831	7.37262e+06	-38789.1	1055.82	-29796.2	0.000000	0.000000	7.023145	-0.018504	NaN	0.000000	0.001575	0.001744	28.0819	0.077907	0.002003	38.9041	97.5921	-163.167	0.018554	1.021490	-0.108378	-0.109720	-0.018504	38.9041	-0.108021	-2.728702	0.006781	NaN
773	1.000000	1.032862	7.37262e+06	-38789.1	1055.82	-29796.2	0.000000	0.000000	7.033176	-0.000878	NaN	0.000000	0.001572	0.001726	28.0819	0.010024	0.001976	5.071864	7.000484	13.8457	-0.062469	1.031471	-0.098348	-0.099739	-0.000878	5.071864	-0.098218	-1.667563	0.000527	NaN
773	1.000000	1.042847	7.37262e+06	-38789.1	1055.82	-29796.2	0.000000	0.000000	7.043160	-0.043815	NaN	0.000000	0.001601	0.001758	28.0807	0.094223	0.002024	46.5504	-163.585	-165.554	-0.011569	1.041503	-0.088363	-0.089707	-0.043815	46.5504	-0.087657	-0.951579	0.046045	NaN
773	1.000000	1.052851	7.37262e+06	-38789.1	1055.82	-29796.2	0.000000	0.000000	7.053166	0.000476	NaN	0.000000	0.001594	0.001769	28.0809	0.050846	0.002046	24.8483	129.698	16.7398	-0.040795	1.051478	-0.078358	-0.079732	0.000476	24.8483	-0.078373	-0.563343	-0.000845	NaN
773	1.000000	1.062844	7.37262e+06	-38789.1	1055.82	-29796.2	0.000000	0.000000	7.063158	-0.008861	NaN	0.000000	0.001598	0.001778	28.0807	0.051498	0.002083	24.7252	96.9065	-165.666	-0.031528	1.061579	-0.068366	-0.069630	-0.008861	24.7252	-0.068097	-0.303087	0.029236	NaN
773	1.000000	1.072861	7.37262e+06	-38789.1	1055.82	-29796.2	0.000000	0.000000	7.073176	0.010116	NaN	0.000000	0.001632	0.001774	28.0807	0.038951	0.001924	20.2408	39.673	14.5352	0.037386	1.071485	-0.058348	-0.059724	0.010116	20.2408	-0.058723	-0.165469	-0.061136	NaN
773	1.000000	1.082812	7.37262e+06	-38789.1	1055.82	-29796.2	0.000000	0.000000	7.083127	-0.000842	NaN	0.000000	0.001656	0.001755	28.0807	0.047876	0.002050	23.3541	73.6442	-166.453	0.032372	1.081556	-0.048397	-0.049654	-0.000842	23.3541	-0.048370	-0.081436	0.010334	NaN
773	1.000000	1.092848	7.37262e+06	-38789.1	1055.82	-29796.2	0.000000	0.000000	7.093163	-0.001340	NaN	0.000000	0.001625	0.001764	28.0806	0.090678	0.002045	44.3311	102.68	13.0132	-0.003807	1.091465	-0.038362	-0.039744	-0.001340	44.3311	-0.038339	-0.040279	0.033269	NaN
773	1.000000	1.102889	7.37262e+06	-38789.1	1055.82	-29796.2	0.000000	0.000000	7.103210	0.147403	NaN	0.000000	0.001640	0.001736	28.0805	0.195741	0.002074	94.3954	30.3658	-162.235	0.074635	1.101534	-0.028320	-0.029676	0.147403	94.3954	-0.029491	-0.022276	-6.617019	NaN
773	1.000000	1.112876	7.37262e+06	-38789.1	1055.82	-29796.2	0.000000	0.000000	7.113263	1.755906	NaN	0.000000	0.001639	0.001736	28.0806	1.124856	0.001970	571.053	13.2454	13.8365	1.609796	1.111518	-0.018333	-0.019691	1.755906	571.053	-0.020639	-0.013040	-134.657	NaN
773	1.000000	1.122859	7.37262e+06	-38789.1	1055.82	-29796.2	0.000000	0.000000	7.123244	1.707833	NaN	0.000000	0.001598	0.001776	28.0807	1.065728	0.002014	529.053	22.4832	-170.836	1.754264	1.121546	-0.008350	-0.009664	1.707833	529.053	-0.010771	-0.006828	-250.133	NaN
773	1.000000	1.132858	7.37262e+06	-38789.1	1055.82	-29796.2	0.000000	0.000000	7.133391	5.306766	NaN	0.000000	0.001590	0.001774	28.0805	4.669558	0.001798	2597.29	8.259093	13.001	3.777650	1.131482	0.001649	0.000272	5.306766	2597.29	0.000116	8.723643E-5	60832	254065
773	2.000000	1.138427	7.37262e+06	-38789.1	1055.82	-29796.2	0.000000	0.000000	7.139273	12.9445	NaN	0.000000	0.001606	0.001753	28.0805	10.3612	0.001637	6329.97	10.9875	-175.183	13.2303	1.138024	0.007217	0.006815	12.9445	6329.97	0.005683	0.004766	2716.18	83774.5
773	2.000000	1.140890	7.37262e+06	-38789.1	1055.82	-29796.2	0.000000	0.000000	7.141884	16.517	NaN	0.000000	0.001603	0.001766	28.0808	13.43	0.001646	8161.6	7.216339	2.995846	15.8912	1.140533	0.009681	0.009324	16.517	8161.6	0.008163	0.007211	2290.64	87813.7
773	2.000000	1.143347	7.37262e+06	-38789.1	1055.82	-29796.2	0.000000	0.000000	7.144429	18.6741	NaN	0.000000	0.001589	0.001791	28.0806	16.305	0.001829	8916.09	4.075769	-173.742	17.3186	1.143091	0.012137	0.011882	18.6741	8916.09	0.010567	0.009818	1902.03	82212.3
773	2.000000	1.145906	7.37262e+06	-38789.1	1055.82	-29796.2	0.000000	0.000000	7.147269	25.5179	NaN	0.000000	0.001575	0.001759	28.0808	19.2851	0.001735	11117.4	10.1538	-0.420003	27.5195	1.145572	0.014696	0.014362	25.5179	11117.4	0.012975	0.012679	2012.63	90205.8
773	2.000000	1.148320	7.37262e+06	-38789.1	1055.82	-29796.2	0.000000	0.000000	7.149829	29.0807	NaN	0.000000	0.001528	0.001777	28.0817	21.3831	0.001737	12307.3	2.070106	-174.859	28.0758	1.148043	0.017110	0.016834	29.0807	12307.3	0.015338	0.015739	1847.69	89628.9
773	2.000000	1.150853	7.37262e+06	-38789.1	1055.82	-29796.2	0.000000	0.000000	7.152489	32.1524	NaN	0.000000	0.001563	0.001818	28.0824	23.9199	0.001858	12871.7	4.289288	3.331493	31.0993	1.150611	0.019643	0.019401	32.1524	12871.7	0.017770	0.019159	1678.22	84962.7
773	2.000000	1.153406	7.37262e+06	-38789.1	1055.82	-29796.2	0.000000	0.000000	7.155559	44.7422	NaN	0.000000	0.001564	0.001776	28.0819	26.9215	0.001833	14683.7	6.996249	-179.213	46.5426	1.152979	0.022196	0.021770	44.7422	14683.7	0.019911	0.022403	1997.16	89630.8
773	2.000000	1.155862	7.37262e+06	-38789.1	1055.82	-29796.2	0.000000	0.000000	7.158295	51.5423	NaN	0.000000	0.001543	0.001806	28.0826	29.6053	0.001753	16890.3	9.367278	-2.992967	51.2893	1.155421	0.024653	0.024212	51.5423	16890.3	0.022364	0.026394	1952.78	94985
773	2.000000	1.158386	7.37262e+06	-38789.1	1055.82	-29796.2	0.000000	0.000000	7.160958	54.9335	NaN	0.000000	0.001609	0.001799	28.0817	32.4359	0.001690	19190.8	5.220894	179.047	58.4811	1.158051	0.027177	0.026841	54.9335	19190.8	0.025030	0.031070	1768.04	99470.6
773	2.000000	1.160819	7.37262e+06	-38789.1	1055.82	-29796.2	0.000000	0.000000	7.163945	68.4082	NaN	0.000000	0.001578	0.001787	28.083	36.585	0.001801	20318.6	6.869742	-4.198273	66.609	1.160473	0.029609	0.029264	68.4082	20318.6	0.027084	0.034917	1959.18	99345.8
773	2.000000	1.163296	7.37262e+06	-38789.1	1055.82	-29796.2	0.000000	0.000000	7.166674	74.5534	NaN	0.000000	0.001644	0.001776	28.0817	38.9262	0.001843	21123.8	4.544165	179.228	74.1525	1.162919	0.032086	0.031709	74.5534	21123.8	0.029439	0.039590	1883.14	96995.6
773	2.000000	1.165852	7.37262e+06	-38789.1	1055.82	-29796.2	0.000000	0.000000	7.169416	79.0896	NaN	0.000000	0.001600	0.001795	28.0822	40.7945	0.001751	23295.4	5.616683	-2.555126	79.0205	1.165492	0.034642	0.034283	79.0896	23295.4	0.032096	0.045200	1749.78	100110
773	2.000000	1.168367	7.37262e+06	-38789.1	1055.82	-29796.2	0.000000	0.000000	7.172525	93.5454	NaN	0.000000	0.001571	0.001756	28.0818	42.9333	0.001723	24921.9	5.391782	176.473	96.1715	1.167934	0.037157	0.036725	93.5454	24921.9	0.034342	0.050225	1862.51	101600
773	2.000000	1.170742	7.37262e+06	-38789.1	1055.82	-29796.2	0.000000	0.000000	7.175558	109.535	NaN	0.000000	0.001585	0.001780	28.0831	47.0232	0.001722	27307.6	5.980692	-5.876457	105.235	1.170350	0.039533	0.039141	109.535	27307.6	0.036524	0.055355	1978.79	106043
773	2.000000	1.173318	7.37262e+06	-38789.1	1055.82	-29796.2	0.000000	0.000000	7.178405	116.136	NaN	0.000000	0.001571	0.001751	28.0819	50.4237	0.001818	27729	4.849413	176.504	116.797	1.172943	0.042108	0.041733	116.136	27729	0.038967	0.061386	1891.89	102252
773	2.000000	1.175709	7.37262e+06	-38789.1	1055.82	-29796.2	0.000000	0.000000	7.181627	136.366	NaN	0.000000	0.001592	0.001785	28.082	52.0523	0.001752	29714.5	4.984244	-4.923892	129.781	1.175389	0.044499	0.044179	136.366	29714.5	0.041057	0.066789	2041.73	105048
773	2.000000	1.178261	7.37262e+06	-38789.1	1055.82	-29796.2	0.000000	0.000000	7.184806	151.608	NaN	0.000000	0.001611	0.001755	28.0819	54.9069	0.001788	30708.8	8.339951	172.867	149.723	1.177837	0.047052	0.046628	151.608	30708.8	0.043349	0.072970	2077.68	103864
773	2.000000	1.180800	7.37262e+06	-38789.1	1055.82	-29796.2	0.000000	0.000000	7.187871	164.424	NaN	0.000000	0.001603	0.001765	28.0823	57.5254	0.001734	33180	5.382057	-5.744004	165.042	1.180484	0.049590	0.049275	164.424	33180	0.045874	0.080087	2053.07	107120
773	2.000000	1.183248	7.37262e+06	-38789.1	1055.82	-29796.2	0.000000	0.000000	7.190992	180.795	NaN	0.000000	0.001618	0.001801	28.0806	60.1358	0.001785	33689.3	2.642193	176.823	179.751	1.182988	0.052039	0.051779	180.795	33689.3	0.048014	0.086373	2093.19	104731
773	2.000000	1.185877	7.37262e+06	-38789.1	1055.82	-29796.2	0.000000	0.000000	7.194420	200.238	NaN	0.000000	0.001576	0.001794	28.0806	62.57	0.001754	35680.4	4.749970	-5.573647	201.109	1.185557	0.054667	0.054348	200.238	35680.4	0.050458	0.093835	2133.93	106419
773	2.000000	1.188228	7.37262e+06	-38789.1	1055.82	-29796.2	0.000000	0.000000	7.197617	220.84	NaN	0.000000	0.001626	0.001780	28.0807	62.9595	0.001678	37528.6	-1.371067	-179.869	216.386	1.187852	0.057018	0.056643	220.84	37528.6	0.052605	0.100634	2194.49	108084
773	2.000000	1.190746	7.37262e+06	-38789.1	1055.82	-29796.2	0.000000	0.000000	7.200477	229.165	NaN	0.000000	0.001630	0.001782	28.0808	68.0545	0.001889	36024.5	2.858974	-4.254717	227.308	1.190537	0.059536	0.059328	229.165	36024.5	0.054765	0.107709	2127.62	100287
773	2.000000	1.193274	7.37262e+06	-38789.1	1055.82	-29796.2	0.000000	0.000000	7.203945	252.037	NaN	0.000000	0.001632	0.001770	28.0806	71.6244	0.001815	39470	5.523364	173.065	252.255	1.192950	0.062064	0.061740	252.037	39470	0.057275	0.116218	2168.65	105780
773	2.000000	1.195723	7.37262e+06	-38789.1	1055.82	-29796.2	0.000000	0.000000	7.207330	274.815	NaN	0.000000	0.001662	0.001767	28.0805	72.434	0.001858	38978.6	5.878046	-7.902062	268.149	1.195305	0.064513	0.064096	274.815	38978.6	0.059225	0.123046	2233.44	101524
773	2.000000	1.198408	7.37262e+06	-38789.1	1055.82	-29796.2	0.000000	0.000000	7.210267	280.942	NaN	0.000000	0.001632	0.001791	28.0808	75.7393	0.001805	41960.6	5.407483	172.377	289.895	1.198010	0.067198	0.066801	280.942	41960.6	0.062177	0.133729	2100.83	104834
773	2.000000	1.200768	7.37262e+06	-38789.1	1055.82	-29796.2	0.000000	0.000000	7.213961	313.398	NaN	0.000000	0.001622	0.001808	28.0807	77.9462	0.001899	41037.2	4.167225	-6.038138	311.269	1.200398	0.069559	0.069188	313.398	41037.2	0.063831	0.139904	2240.1	100239
773	2.000000	1.203186	7.37262e+06	-38789.1	1055.82	-29796.2	0.000000	0.000000	7.217120	331.434	NaN	0.000000	0.001629	0.001815	28.0806	78.7342	0.001773	44398.1	2.538118	175.374	326.338	1.202799	0.071976	0.071589	331.434	44398.1	0.066377	0.149665	2214.51	104852
773	2.000000	1.205766	7.37262e+06	-38789.1	1055.82	-29796.2	0.000000	0.000000	7.220580	352.845	NaN	0.000000	0.001683	0.001790	28.0807	81.7179	0.001805	45264.2	4.106640	-7.833496	349.057	1.205525	0.074556	0.074316	352.845	45264.2	0.068710	0.158880	2220.83	103751
773	2.000000	1.208148	7.37262e+06	-38789.1	1055.82	-29796.2	0.000000	0.000000	7.224301	385.423	NaN	0.000000	0.001600	0.001782	28.0808	83.1743	0.001834	45361.4	0.916398	176.12	379.579	1.207871	0.076939	0.076662	385.423	45361.4	0.070566	0.166398	2316.26	101598
773	2.000000	1.210653	7.37262e+06	-38789.1	1055.82	-29796.2	0.000000	0.000000	7.228091	416.712	NaN	0.000000	0.001616	0.001779	28.0805	86.7287	0.001859	46661.9	4.348505	-7.542815	409.987	1.210248	0.079444	0.079038	416.712	46661.9	0.072746	0.175437	2375.28	101783
773	2.000000	1.213146	7.37262e+06	-38789.1	1055.82	-29796.2	0.000000	0.000000	7.231724	444.446	NaN	0.000000	0.001647	0.001814	28.0803	88.6347	0.001710	51826.2	5.878397	170.11	439.081	1.212835	0.081937	0.081626	444.446	51826.2	0.075505	0.187201	2374.17	109438
773	2.000000	1.215640	7.37262e+06	-38789.1	1055.82	-29796.2	0.000000	0.000000	7.234674	455.553	NaN	0.000000	0.001665	0.001830	28.0817	88.7994	0.001686	52669.5	-0.207109	-3.833466	445.645	1.215405	0.084430	0.084195	455.553	52669.5	0.077944	0.197894	2302.01	108172
773	2.000000	1.218159	7.37262e+06	-38789.1	1055.82	-29796.2	0.000000	0.000000	7.238525	487.975	NaN	0.000000	0.001751	0.001797	28.0821	92.6261	0.001769	52364.9	5.645594	169.894	481.834	1.217860	0.086949	0.086650	487.975	52364.9	0.079960	0.206948	2357.96	105168
773	2.000000	1.220607	7.37262e+06	-38789.1	1055.82	-29796.2	0.000000	0.000000	7.241970	512.237	NaN	0.000000	0.001684	0.001847	28.0817	93.7485	0.001788	52431.8	1.302732	-5.576170	502.084	1.220410	0.089397	0.089201	512.237	52431.8	0.082070	0.216624	2364.63	102924
773	2.000000	1.223147	7.37262e+06	-38789.1	1055.82	-29796.2	0.000000	0.000000	7.245588	538.447	NaN	0.000000	0.001667	0.001829	28.0816	97.6077	0.001813	53841.5	6.293190	168.938	533.763	1.222943	0.091938	0.091733	538.447	53841.5	0.084437	0.227724	2364.47	103083
773	2.000000	1.225696	7.37262e+06	-38789.1	1055.82	-29796.2	0.000000	0.000000	7.249064	561.018	NaN	0.000000	0.001691	0.001775	28.0815	99.4157	0.001791	55511.6	5.670812	-9.903799	555.451	1.225278	0.094486	0.094068	561.018	55511.6	0.086906	0.239580	2341.67	103617
773	2.000000	1.228157	7.37262e+06	-38789.1	1055.82	-29796.2	0.000000	0.000000	7.252599	587.16	NaN	0.000000	0.001582	0.001768	28.0816	100.854	0.001876	53751.6	5.685163	170.075	581.401	1.227778	0.096948	0.096568	587.16	53751.6	0.088755	0.248639	2361.5	98487.3
773	2.000000	1.230620	7.37262e+06	-38789.1	1055.82	-29796.2	0.000000	0.000000	7.256489	621.88	NaN	0.000000	0.001620	0.001775	28.0816	103.491	0.001915	54048.8	5.637951	-10.0769	614.382	1.230200	0.099410	0.098991	621.88	54048.8	0.090781	0.258749	2403.41	97077.9
773	2.000000	1.233108	7.37262e+06	-38789.1	1055.82	-29796.2	0.000000	0.000000	7.259777	641.351	NaN	0.000000	0.001629	0.001807	28.0816	104.447	0.001799	58067.9	4.629059	170.586	636.283	1.232854	0.101898	0.101644	641.351	58067.9	0.093615	0.273204	2347.52	101500
773	2.000000	1.235092	7.37262e+06	-38789.1	1055.82	-29796.2	0.000000	0.000000	7.262586	661.425	NaN	0.000000	0.001644	0.001810	28.0821	105.514	0.001936	54499.5	4.366537	171.809	655.002	1.234816	0.103883	0.103607	661.425	54499.5	0.094781	0.279258	2368.51	94224.4