File: remote_trans/data/nanoindenter/0828-1/data/Data_2025-08-06,11h17m57s/2025-07-22_16-23-58_1_436.txt
2025-07-22, 16:23:58, 1
Index	Phase	Displacement	Time	Pos X	Pos Y	Pos Z	Rot A	Rot B	Piezo Z	Force A	Force B	Gripper	Voltage A	Voltage B	Temperature	Amplitude force	Amplitude pos	Stiffness	Phase shift	Phase excitation	Force A raw	Displacement raw	HMax	HMax raw	Real Force	Real Stiffness	Contact Depth	Area	Hardness	Reduced Mod.
[#]	[#]	[um]	[s]	[um]	[um]	[um]	[m°]	[m°]	[um]	[uN]	[uN]	[V]	[V]	[V]	[°C]	[uN]	[um]	[N/m]	[°]	[°]	[uN]	[um]	[um]	[um]	[uN]	[N/m]	[um]	[um^2]	[MPa]	[MPa]
436	1.000000	0.002695	7.36932e+06	-55289.1	1005.82	-29742	0.000000	0.000000	6.002801	0.058079	NaN	0.000000	0.001584	0.001701	28.0795	0.092207	0.000925	99.7046	98.2916	-167.22	0.022331	0.001402	-1.095644	-1.096938	0.058079	99.7046	-1.096081	-4.440785E+14	-1.307844E-16	NaN
436	1.000000	0.012746	7.36932e+06	-55289.1	1005.82	-29742	0.000000	0.000000	6.012852	0.083623	NaN	0.000000	0.001574	0.001670	28.0794	0.033017	0.001299	25.4136	-31.2265	16.79	0.006306	0.011335	-1.085594	-1.087005	0.083623	25.4136	-1.088061	-3.465623E+14	-2.412940E-16	NaN
436	1.000000	0.022636	7.36932e+06	-55289.1	1005.82	-29742	0.000000	0.000000	6.022737	-0.053253	NaN	0.000000	0.001595	0.001706	28.0792	0.030730	0.001831	16.7858	15.044	-161.767	-0.008181	0.021328	-1.075703	-1.077012	-0.053253	16.7858	-1.073324	-2.197068E+14	2.423828E-16	NaN
436	1.000000	0.032666	7.36932e+06	-55289.1	1005.82	-29742	0.000000	0.000000	6.032770	0.019572	NaN	0.000000	0.001612	0.001732	28.0794	0.071455	0.001789	39.9443	-156.038	10.9969	0.071429	0.031298	-1.065674	-1.067042	0.019572	39.9443	-1.066041	-1.753875E+14	-1.115950E-16	NaN
436	1.000000	0.042643	7.36932e+06	-55289.1	1005.82	-29742	0.000000	0.000000	6.042745	-0.017654	NaN	0.000000	0.001585	0.001750	28.0797	0.060319	0.002052	29.3947	156.629	-164.161	0.048526	0.041354	-1.055696	-1.056985	-0.017654	29.3947	-1.055246	-1.255823E+14	1.405770E-16	NaN
436	1.000000	0.052625	7.36932e+06	-55289.1	1005.82	-29742	0.000000	0.000000	6.052729	0.037013	NaN	0.000000	0.001582	0.001710	28.0807	0.170434	0.001994	85.4712	57.7018	12.9806	0.014309	0.051332	-1.045715	-1.047008	0.037013	85.4712	-1.046039	-9.444278E+13	-3.919112E-16	NaN
436	1.000000	0.062658	7.36932e+06	-55289.1	1005.82	-29742	0.000000	0.000000	6.062760	-0.007576	NaN	0.000000	0.001595	0.001737	28.0806	0.036660	0.002014	18.1998	-157.897	-166.467	0.050279	0.061353	-1.035682	-1.036987	-0.007576	18.1998	-1.035370	-6.787332E+13	1.116156E-16	NaN
436	1.000000	0.072650	7.36932e+06	-55289.1	1005.82	-29742	0.000000	0.000000	6.072754	0.006771	NaN	0.000000	0.001576	0.001723	28.0807	0.070086	0.001918	36.5364	164.194	11.6171	-0.027638	0.071303	-1.025689	-1.027036	0.006771	36.5364	-1.025828	-5.050840E+13	-1.340597E-16	NaN
436	1.000000	0.082641	7.36932e+06	-55289.1	1005.82	-29742	0.000000	0.000000	6.082743	-0.001766	NaN	0.000000	0.001606	0.001689	28.0805	0.045287	0.002078	21.7976	-101.359	-164.333	-0.081907	0.081312	-1.015699	-1.017028	-0.001766	21.7976	-1.015638	-3.683510E+13	4.794791E-17	NaN
436	1.000000	0.092672	7.36932e+06	-55289.1	1005.82	-29742	0.000000	0.000000	6.092776	0.017490	NaN	0.000000	0.001597	0.001676	28.0805	0.052011	0.002005	25.9381	-135.909	14.9392	0.032604	0.091297	-1.005667	-1.007043	0.017490	25.9381	-1.006173	-2.747073E+13	-6.366857E-16	NaN
436	1.000000	0.102672	7.36932e+06	-55289.1	1005.82	-29742	0.000000	0.000000	6.102775	0.012448	NaN	0.000000	0.001599	0.001636	28.0802	0.022312	0.001882	11.8547	173.706	-164.907	0.044376	0.101317	-0.995668	-0.997023	0.012448	11.8547	-0.996456	-2.032575E+13	-6.124321E-16	NaN
436	1.000000	0.112664	7.36932e+06	-55289.1	1005.82	-29742	0.000000	0.000000	6.112767	-0.004823	NaN	0.000000	0.001576	0.001711	28.0805	0.093460	0.002014	46.4126	67.0119	14.2127	-0.000212	0.111332	-0.985675	-0.987007	-0.004823	46.4126	-0.985597	-1.451490E+13	3.322685E-16	NaN
436	1.000000	0.122670	7.36932e+06	-55289.1	1005.82	-29742	0.000000	0.000000	6.122771	-0.037567	NaN	0.000000	0.001602	0.001691	28.0802	0.033020	0.001958	16.8619	137.236	-165.833	-0.016757	0.121316	-0.975670	-0.977024	-0.037567	16.8619	-0.973999	-1.012869E+13	3.708950E-15	NaN
436	1.000000	0.132688	7.36932e+06	-55289.1	1005.82	-29742	0.000000	0.000000	6.132789	-0.022188	NaN	0.000000	0.001602	0.001674	28.0805	0.057583	0.001889	30.4775	-174.634	14.3688	-0.093912	0.131348	-0.965652	-0.966992	-0.022188	30.4775	-0.965106	-7.686037E+12	2.886779E-15	NaN
436	1.000000	0.142673	7.36932e+06	-55289.1	1005.82	-29742	0.000000	0.000000	6.142776	0.010566	NaN	0.000000	0.001614	0.001711	28.0804	0.105132	0.002153	48.8367	-105.174	-169.598	-0.047904	0.141391	-0.955667	-0.956949	0.010566	48.8367	-0.955829	-5.762816E+12	-1.833501E-15	NaN
436	1.000000	0.152699	7.36932e+06	-55289.1	1005.82	-29742	0.000000	0.000000	6.152802	0.004400	NaN	0.000000	0.001555	0.001700	28.0809	0.089268	0.002101	42.4846	-72.0654	14.2947	-0.059006	0.151299	-0.945641	-0.947041	0.004400	42.4846	-0.945718	-4.209949E+12	-1.045231E-15	NaN
436	1.000000	0.162694	7.36932e+06	-55289.1	1005.82	-29742	0.000000	0.000000	6.162798	0.029091	NaN	0.000000	0.001589	0.001731	28.0805	0.091429	0.001811	50.4954	96.9057	-162.631	0.008594	0.161429	-0.935646	-0.936911	0.029091	50.4954	-0.936078	-3.120459E+12	-9.322812E-15	NaN
436	1.000000	0.172718	7.36932e+06	-55289.1	1005.82	-29742	0.000000	0.000000	6.172821	-0.013411	NaN	0.000000	0.001602	0.001721	28.0806	0.052206	0.001889	27.6403	82.3258	11.3565	-0.020023	0.171378	-0.925621	-0.926961	-0.013411	27.6403	-0.925257	-2.229376E+12	6.015577E-15	NaN
436	1.000000	0.182644	7.36932e+06	-55289.1	1005.82	-29742	0.000000	0.000000	6.182746	-0.006589	NaN	0.000000	0.001582	0.001746	28.0804	0.098304	0.002059	47.7349	-8.965806	-166.134	0.050737	0.181368	-0.915696	-0.916972	-0.006589	47.7349	-0.915592	-1.650778E+12	3.991641E-15	NaN
436	1.000000	0.192717	7.36932e+06	-55289.1	1005.82	-29742	0.000000	0.000000	6.192822	0.047821	NaN	0.000000	0.001610	0.001768	28.0797	0.040738	0.002077	19.6163	-169.323	15.7042	0.027870	0.191340	-0.905623	-0.907000	0.047821	19.6163	-0.907451	-1.281548E+12	-3.731500E-14	NaN
436	1.000000	0.202701	7.36932e+06	-55289.1	1005.82	-29742	0.000000	0.000000	6.202801	-0.061419	NaN	0.000000	0.001600	0.001740	28.0793	0.076980	0.001864	41.2973	-53.3169	-168.038	0.059670	0.201428	-0.895639	-0.896912	-0.061419	41.2973	-0.894523	-8.571443E+11	7.165525E-14	NaN
436	1.000000	0.212714	7.36932e+06	-55289.1	1005.82	-29742	0.000000	0.000000	6.212817	-0.001525	NaN	0.000000	0.001623	0.001738	28.0796	0.083941	0.002076	40.4374	167.79	12.8808	0.059930	0.211311	-0.885625	-0.887029	-0.001525	40.4374	-0.885597	-6.492175E+11	2.348337E-15	NaN
436	1.000000	0.222733	7.36932e+06	-55289.1	1005.82	-29742	0.000000	0.000000	6.222838	0.034279	NaN	0.000000	0.001623	0.001744	28.0799	0.107022	0.001940	55.1693	-9.299359	-166.1	0.115511	0.221407	-0.875606	-0.876933	0.034279	55.1693	-0.876072	-4.825985E+11	-7.102931E-14	NaN
436	1.000000	0.232722	7.36932e+06	-55289.1	1005.82	-29742	0.000000	0.000000	6.232823	-0.040822	NaN	0.000000	0.001604	0.001743	28.0795	0.025037	0.001966	12.7342	-175.006	11.5912	0.021931	0.231378	-0.865618	-0.866962	-0.040822	12.7342	-0.863213	-3.233045E+11	1.262646E-13	NaN
436	1.000000	0.242734	7.36932e+06	-55289.1	1005.82	-29742	0.000000	0.000000	6.242837	0.003578	NaN	0.000000	0.001615	0.001767	28.0797	0.037441	0.002169	17.2652	-100.994	-170.684	-0.043050	0.241419	-0.855606	-0.856920	0.003578	17.2652	-0.855761	-2.562949E+11	-1.395863E-14	NaN
436	1.000000	0.252700	7.36932e+06	-55289.1	1005.82	-29742	0.000000	0.000000	6.252803	0.001993	NaN	0.000000	0.001594	0.001731	28.0798	0.030036	0.002147	13.9903	-99.8544	14.1832	-0.032138	0.251404	-0.845640	-0.846935	0.001993	13.9903	-0.845747	-1.875587E+11	-1.062609E-14	NaN
436	1.000000	0.262717	7.36932e+06	-55289.1	1005.82	-29742	0.000000	0.000000	6.262821	0.030435	NaN	0.000000	0.001627	0.001737	28.0798	0.101099	0.002021	50.0338	-178.521	-164.742	-0.009852	0.261472	-0.835623	-0.836867	0.030435	50.0338	-0.836079	-1.387282E+11	-2.193869E-13	NaN
436	1.000000	0.272730	7.36932e+06	-55289.1	1005.82	-29742	0.000000	0.000000	6.272834	0.021489	NaN	0.000000	0.001637	0.001743	28.0795	0.010365	0.001934	5.358729	-68.3641	14.6879	0.032012	0.271429	-0.825609	-0.826910	0.021489	5.358729	-0.828617	-1.099106E+11	-1.955169E-13	NaN
436	1.000000	0.282758	7.36932e+06	-55289.1	1005.82	-29742	0.000000	0.000000	6.282857	-0.087242	NaN	0.000000	0.001614	0.001728	28.0795	0.081603	0.001996	40.8845	-143.72	-164.434	0.064877	0.281411	-0.815582	-0.816928	-0.087242	40.8845	-0.813982	-6.959613E+10	1.253548E-12	NaN
436	1.000000	0.292772	7.36932e+06	-55289.1	1005.82	-29742	0.000000	0.000000	6.292874	-0.022836	NaN	0.000000	0.001614	0.001723	28.0798	0.131608	0.002016	65.2822	47.818	13.5282	-0.060860	0.291319	-0.805568	-0.807021	-0.022836	65.2822	-0.805305	-5.307270E+10	4.302763E-13	NaN
436	1.000000	0.302761	7.36932e+06	-55289.1	1005.82	-29742	0.000000	0.000000	6.302868	0.103702	NaN	0.000000	0.001603	0.001689	28.0792	0.039761	0.001983	20.0473	27.8502	-163.097	-0.059523	0.301409	-0.795579	-0.796931	0.103702	20.0473	-0.799458	-4.420889E+10	-2.345716E-12	NaN
436	1.000000	0.312750	7.36932e+06	-55289.1	1005.82	-29742	0.000000	0.000000	6.312852	0.000832	NaN	0.000000	0.001615	0.001710	28.0794	0.145265	0.002021	71.8862	140.885	14.2365	-0.002847	0.311356	-0.785590	-0.786984	0.000832	71.8862	-0.785599	-2.866171E+10	-2.901811E-14	NaN
436	1.000000	0.322788	7.36932e+06	-55289.1	1005.82	-29742	0.000000	0.000000	6.322889	-0.046890	NaN	0.000000	0.001598	0.001724	28.0806	0.089548	0.001905	46.9977	-152.714	-162.07	0.011845	0.321469	-0.775552	-0.776871	-0.046890	46.9977	-0.774803	-2.044586E+10	2.293377E-12	NaN
436	1.000000	0.332757	7.36932e+06	-55289.1	1005.82	-29742	0.000000	0.000000	6.332860	-0.008943	NaN	0.000000	0.001610	0.001691	28.0807	0.094249	0.001940	48.5925	27.4797	12.3528	0.070047	0.331401	-0.765582	-0.766939	-0.008943	48.5925	-0.765444	-1.525302E+10	5.863115E-13	NaN
436	1.000000	0.342814	7.36932e+06	-55289.1	1005.82	-29742	0.000000	0.000000	6.342918	0.028625	NaN	0.000000	0.001592	0.001715	28.0805	0.036755	0.002104	17.4687	-69.4992	-166.804	-0.006137	0.341492	-0.755526	-0.756848	0.028625	17.4687	-0.756755	-1.161851E+10	-2.463716E-12	NaN
436	1.000000	0.352782	7.36932e+06	-55289.1	1005.82	-29742	0.000000	0.000000	6.352884	-0.007326	NaN	0.000000	0.001588	0.001720	28.0804	0.147297	0.001892	77.839	90.0758	15.4325	-0.059072	0.351443	-0.745558	-0.746897	-0.007326	77.839	-0.745487	-8.161740E+9	8.976552E-13	NaN
436	1.000000	0.362771	7.36932e+06	-55289.1	1005.82	-29742	0.000000	0.000000	6.362873	-0.005184	NaN	0.000000	0.001563	0.001700	28.0805	0.073446	0.002076	35.3789	141.552	-167.658	-0.017502	0.361536	-0.735569	-0.736804	-0.005184	35.3789	-0.735459	-5.959355E+9	8.698624E-13	NaN
436	1.000000	0.372787	7.36932e+06	-55289.1	1005.82	-29742	0.000000	0.000000	6.372888	-0.024135	NaN	0.000000	0.001582	0.001728	28.0805	0.046660	0.002097	22.2515	143.456	13.7602	0.015733	0.371428	-0.725553	-0.726912	-0.024135	22.2515	-0.724740	-4.256972E+9	5.669493E-12	NaN
436	1.000000	0.382794	7.36932e+06	-55289.1	1005.82	-29742	0.000000	0.000000	6.382898	0.011921	NaN	0.000000	0.001558	0.001723	28.0805	0.042834	0.002014	21.2703	167.611	-164.945	0.005653	0.381505	-0.715545	-0.716835	0.011921	21.2703	-0.715966	-3.231807E+9	-3.688789E-12	NaN
436	1.000000	0.392788	7.36932e+06	-55289.1	1005.82	-29742	0.000000	0.000000	6.392888	-0.058138	NaN	0.000000	0.001574	0.001700	28.0805	0.108088	0.001913	56.5011	79.9812	12.1679	-0.006796	0.391411	-0.705552	-0.706928	-0.058138	56.5011	-0.704780	-2.274055E+9	2.556563E-11	NaN
436	1.000000	0.402823	7.36932e+06	-55289.1	1005.82	-29742	0.000000	0.000000	6.402925	-0.017792	NaN	0.000000	0.001609	0.001728	28.0807	0.037275	0.002003	18.6083	121.873	-165.787	-0.028413	0.401424	-0.695517	-0.696916	-0.017792	18.6083	-0.694799	-1.661487E+9	1.070861E-11	NaN
436	1.000000	0.412805	7.36933e+06	-55289.1	1005.82	-29742	0.000000	0.000000	6.412904	-0.082625	NaN	0.000000	0.001617	0.001684	28.0805	0.053996	0.002036	26.5187	-75.0132	13.5399	-0.006541	0.411445	-0.685535	-0.686895	-0.082625	26.5187	-0.683198	-1.153282E+9	7.164373E-11	NaN
436	1.000000	0.422789	7.36933e+06	-55289.1	1005.82	-29742	0.000000	0.000000	6.422892	0.021598	NaN	0.000000	0.001583	0.001701	28.0806	0.113015	0.001896	59.6103	-90.521	-165.197	-0.009429	0.421433	-0.675551	-0.676906	0.021598	59.6103	-0.675823	-9.142575E+8	-2.362361E-11	NaN
436	1.000000	0.432816	7.36933e+06	-55289.1	1005.82	-29742	0.000000	0.000000	6.432921	0.047950	NaN	0.000000	0.001594	0.001719	28.0805	0.102876	0.002002	51.3881	-105.045	13.312	-0.025588	0.431432	-0.665524	-0.666908	0.047950	51.3881	-0.666224	-6.756103E+8	-7.097329E-11	NaN
436	1.000000	0.442819	7.36933e+06	-55289.1	1005.82	-29742	0.000000	0.000000	6.442920	-0.051500	NaN	0.000000	0.001599	0.001740	28.0808	0.059587	0.002144	27.7982	-132.368	-166.428	-0.057769	0.441501	-0.655521	-0.656839	-0.051500	27.7982	-0.654131	-4.613818E+8	1.116210E-10	NaN
436	1.000000	0.452817	7.36933e+06	-55289.1	1005.82	-29742	0.000000	0.000000	6.452921	0.038504	NaN	0.000000	0.001628	0.001690	28.0803	0.043200	0.001922	22.476	-20.6495	14.1611	0.015319	0.451453	-0.645523	-0.646886	0.038504	22.476	-0.646807	-3.661545E+8	-1.051574E-10	NaN
436	1.000000	0.462824	7.36933e+06	-55289.1	1005.82	-29742	0.000000	0.000000	6.462927	0.007449	NaN	0.000000	0.001618	0.001717	28.0792	0.055228	0.001979	27.9009	-67.9079	-165.798	-0.042149	0.461559	-0.635516	-0.636781	0.007449	27.9009	-0.635716	-2.579310E+8	-2.887820E-11	NaN
436	1.000000	0.472820	7.36933e+06	-55289.1	1005.82	-29742	0.000000	0.000000	6.472922	-0.021573	NaN	0.000000	0.001619	0.001697	28.0793	0.008355	0.001883	4.435757	-121.535	16.9142	-0.037917	0.471478	-0.625520	-0.626861	-0.021573	4.435757	-0.621872	-1.664810E+8	1.295816E-10	NaN
436	1.000000	0.482851	7.36933e+06	-55289.1	1005.82	-29742	0.000000	0.000000	6.482954	0.005764	NaN	0.000000	0.001626	0.001702	28.0793	0.109944	0.002046	53.7399	74.0758	-170.5	0.064198	0.481502	-0.615488	-0.616838	0.005764	53.7399	-0.615569	-1.363679E+8	-4.226551E-11	NaN
436	1.000000	0.492856	7.36933e+06	-55289.1	1005.82	-29742	0.000000	0.000000	6.492961	0.047674	NaN	0.000000	0.001589	0.001716	28.0791	0.083422	0.002042	40.8624	-8.109418	14.1107	0.049565	0.491447	-0.605483	-0.606893	0.047674	40.8624	-0.606358	-1.018591E+8	-4.680358E-10	NaN
436	1.000000	0.502841	7.36933e+06	-55289.1	1005.82	-29742	0.000000	0.000000	6.502942	-0.029540	NaN	0.000000	0.001624	0.001706	28.0792	0.033507	0.001923	17.42	-63.8046	-164.135	0.040802	0.501541	-0.595499	-0.596799	-0.029540	17.42	-0.594227	-6.933196E+7	4.260590E-10	NaN
436	1.000000	0.512835	7.36933e+06	-55289.1	1005.82	-29742	0.000000	0.000000	6.512936	-0.047231	NaN	0.000000	0.001613	0.001695	28.0793	0.035256	0.002030	17.3663	110.456	16.0948	0.027541	0.511464	-0.585505	-0.586875	-0.047231	17.3663	-0.583465	-4.926510E+7	9.587206E-10	NaN
436	1.000000	0.522837	7.36933e+06	-55289.1	1005.82	-29742	0.000000	0.000000	6.522941	0.032151	NaN	0.000000	0.001659	0.001680	28.0792	0.085916	0.002051	41.8848	-135.152	-166.176	0.005387	0.521532	-0.575502	-0.576808	0.032151	41.8848	-0.576078	-3.895707E+7	-8.253046E-10	NaN
436	1.000000	0.532847	7.36933e+06	-55289.1	1005.82	-29742	0.000000	0.000000	6.532952	0.059199	NaN	0.000000	0.001692	0.001720	28.0792	0.013799	0.002060	6.698181	-125.676	13.2072	0.015996	0.531482	-0.565493	-0.566858	0.059199	6.698181	-0.572122	-3.435128E+7	-1.723346E-9	NaN
436	1.000000	0.542842	7.36933e+06	-55289.1	1005.82	-29742	0.000000	0.000000	6.542944	-0.022386	NaN	0.000000	0.001632	0.001728	28.0796	0.068303	0.002012	33.9491	126.355	-165.139	0.007066	0.541551	-0.555498	-0.556788	-0.022386	33.9491	-0.555003	-1.991744E+7	1.123942E-9	NaN
436	1.000000	0.552852	7.36933e+06	-55289.1	1005.82	-29742	0.000000	0.000000	6.552956	0.016802	NaN	0.000000	0.001640	0.001699	28.0792	0.051208	0.001817	28.1899	-70.2459	13.8267	0.055836	0.551554	-0.545488	-0.546786	0.016802	28.1899	-0.545935	-1.491530E+7	-1.126501E-9	NaN
436	1.000000	0.562874	7.36933e+06	-55289.1	1005.82	-29742	0.000000	0.000000	6.562974	-0.050916	NaN	0.000000	0.001636	0.001686	28.0795	0.098463	0.001995	49.3537	-172.926	-164.597	-0.079329	0.561560	-0.535466	-0.536780	-0.050916	49.3537	-0.534692	-1.041644E+7	4.888071E-9	NaN
436	1.000000	0.572860	7.36933e+06	-55289.1	1005.82	-29742	0.000000	0.000000	6.572964	0.045270	NaN	0.000000	0.001646	0.001723	28.0793	0.086280	0.002169	39.7783	-44.5041	15.8065	0.054506	0.571521	-0.525480	-0.526819	0.045270	39.7783	-0.526334	-7.97342e+06	-5.677636E-9	NaN
436	1.000000	0.582890	7.36933e+06	-55289.1	1005.82	-29742	0.000000	0.000000	6.582995	0.042737	NaN	0.000000	0.001622	0.001710	28.0799	0.046302	0.002111	21.9309	36.4163	-166.767	0.031535	0.581537	-0.515449	-0.516802	0.042737	21.9309	-0.516911	-5.89689e+06	-7.247321E-9	NaN
436	1.000000	0.592863	7.36933e+06	-55289.1	1005.82	-29742	0.000000	0.000000	6.592966	0.011324	NaN	0.000000	0.001591	0.001686	28.0795	0.096054	0.002014	47.6926	104.086	14.1695	-0.010612	0.591544	-0.505477	-0.506796	0.011324	47.6926	-0.505655	-4.11026e+06	-2.754969E-9	NaN
436	1.000000	0.602862	7.36933e+06	-55289.1	1005.82	-29742	0.000000	0.000000	6.602963	-0.022602	NaN	0.000000	0.001589	0.001733	28.0806	0.095874	0.001889	50.7614	124.286	-167.484	0.004962	0.601573	-0.495478	-0.496767	-0.022602	50.7614	-0.495144	-2.93256e+06	7.707186E-9	NaN
436	1.000000	0.612867	7.36933e+06	-55289.1	1005.82	-29742	0.000000	0.000000	6.612969	-0.026487	NaN	0.000000	0.001582	0.001678	28.0806	0.076866	0.002055	37.4051	-168.382	12.1145	-0.021298	0.611577	-0.485472	-0.486763	-0.026487	37.4051	-0.484941	-2.11188e+06	1.254197E-8	NaN
436	1.000000	0.622897	7.36933e+06	-55289.1	1005.82	-29742	0.000000	0.000000	6.623002	0.061532	NaN	0.000000	0.001613	0.001694	28.0807	0.094085	0.001927	48.8148	-85.508	-166.065	0.050935	0.621544	-0.475443	-0.476796	0.061532	48.8148	-0.476388	-1.60306e+06	-3.838377E-8	NaN
436	1.000000	0.632898	7.36933e+06	-55289.1	1005.82	-29742	0.000000	0.000000	6.632998	-0.056584	NaN	0.000000	0.001599	0.001760	28.0804	0.093967	0.001862	50.4747	-121.518	9.896280	-0.023339	0.631561	-0.465442	-0.466779	-0.056584	50.4747	-0.464601	-1.0956e+06	5.164680E-8	NaN
436	1.000000	0.642881	7.36933e+06	-55289.1	1005.82	-29742	0.000000	0.000000	6.642986	0.054945	NaN	0.000000	0.001645	0.001721	28.0807	0.059310	0.002114	28.0611	157.574	-165.912	0.081741	0.641557	-0.455459	-0.456783	0.054945	28.0611	-0.456927	-854715	-6.428447E-8	NaN
436	1.000000	0.652885	7.36933e+06	-55289.1	1005.82	-29742	0.000000	0.000000	6.652990	0.052938	NaN	0.000000	0.001611	0.001754	28.0808	0.090812	0.002135	42.5322	81.7445	11.552	0.060458	0.651520	-0.445455	-0.446820	0.052938	42.5322	-0.446389	-607385	-8.715654E-8	NaN
436	1.000000	0.662920	7.36933e+06	-55289.1	1005.82	-29742	0.000000	0.000000	6.663024	0.047307	NaN	0.000000	0.001617	0.001716	28.0805	0.109248	0.001832	59.6413	70.9034	-164.914	0.051939	0.661583	-0.435420	-0.436756	0.047307	59.6413	-0.436015	-433605	-1.091005E-7	NaN
436	1.000000	0.672876	7.36933e+06	-55289.1	1005.82	-29742	0.000000	0.000000	6.672976	-0.062851	NaN	0.000000	0.001605	0.001701	28.0806	0.056447	0.002077	27.1808	38.0508	12.7948	-0.021581	0.671550	-0.425464	-0.426790	-0.062851	27.1808	-0.423730	-290595	2.162839E-7	NaN
436	1.000000	0.682931	7.36933e+06	-55289.1	1005.82	-29742	0.000000	0.000000	6.683034	0.010171	NaN	0.000000	0.001634	0.001699	28.0805	0.133466	0.002045	65.2641	95.6214	-163.804	0.019663	0.681572	-0.415409	-0.416767	0.010171	65.2641	-0.415525	-222288	-4.575549E-8	NaN
436	1.000000	0.692948	7.36933e+06	-55289.1	1005.82	-29742	0.000000	0.000000	6.693053	0.064429	NaN	0.000000	0.001636	0.001707	28.0809	0.127722	0.002020	63.2396	-85.0572	13.8367	-0.021738	0.691572	-0.405392	-0.406768	0.064429	63.2396	-0.406156	-163570	-3.938890E-7	NaN
436	1.000000	0.702932	7.36933e+06	-55289.1	1005.82	-29742	0.000000	0.000000	6.703036	0.033759	NaN	0.000000	0.001642	0.001732	28.0806	0.066991	0.001917	34.9479	32.8104	-165.539	-0.013563	0.701577	-0.395408	-0.396763	0.033759	34.9479	-0.396132	-117708	-2.868068E-7	NaN
436	1.000000	0.712926	7.36933e+06	-55289.1	1005.82	-29742	0.000000	0.000000	6.713030	0.030200	NaN	0.000000	0.001637	0.001705	28.0808	0.135306	0.002125	63.6814	-81.6242	13.2165	0.052180	0.711545	-0.385413	-0.386795	0.030200	63.6814	-0.385769	-83676.2	-3.609177E-7	NaN
436	1.000000	0.722933	7.36933e+06	-55289.1	1005.82	-29742	0.000000	0.000000	6.723038	0.042957	NaN	0.000000	0.001603	0.001692	28.0809	0.034479	0.002011	17.1461	-108.431	-166.37	0.041723	0.721625	-0.375407	-0.376715	0.042957	17.1461	-0.377286	-63229.1	-6.793913E-7	NaN
436	1.000000	0.732944	7.36933e+06	-55289.1	1005.82	-29742	0.000000	0.000000	6.733048	0.023948	NaN	0.000000	0.001606	0.001674	28.0793	0.041147	0.002209	18.6237	-4.424388	14.8702	-0.000328	0.731587	-0.365395	-0.366753	0.023948	18.6237	-0.366360	-44022	-5.439920E-7	NaN
436	1.000000	0.742951	7.36933e+06	-55289.1	1005.82	-29742	0.000000	0.000000	6.743054	0.001423	NaN	0.000000	0.001645	0.001697	28.0794	0.107242	0.002060	52.0638	97.2238	-163.263	0.054067	0.741636	-0.355388	-0.356704	0.001423	52.0638	-0.355409	-30578.5	-4.652635E-8	NaN
436	1.000000	0.752913	7.36933e+06	-55289.1	1005.82	-29742	0.000000	0.000000	6.753017	0.022252	NaN	0.000000	0.001627	0.001679	28.0794	0.066052	0.001774	37.2385	164.235	12.469	0.026654	0.751635	-0.345426	-0.346705	0.022252	37.2385	-0.345874	-22236.9	-1.000685E-6	NaN
436	1.000000	0.762942	7.36933e+06	-55289.1	1005.82	-29742	0.000000	0.000000	6.763039	-0.146054	NaN	0.000000	0.001604	0.001676	28.0796	0.061163	0.001928	31.7185	103.012	-167.581	-0.086126	0.761665	-0.335397	-0.336675	-0.146054	31.7185	-0.331944	-13928.5	1.048593E-5	NaN
436	1.000000	0.772966	7.36933e+06	-55289.1	1005.82	-29742	0.000000	0.000000	6.773070	0.038918	NaN	0.000000	0.001623	0.001707	28.0793	0.054505	0.002049	26.5954	-140.74	14.3385	0.043880	0.771572	-0.325374	-0.326768	0.038918	26.5954	-0.326471	-11580.6	-3.360587E-6	NaN
436	1.000000	0.782932	7.36933e+06	-55289.1	1005.82	-29742	0.000000	0.000000	6.783036	0.039563	NaN	0.000000	0.001610	0.001707	28.0794	0.061253	0.002147	28.5238	10.6055	-165.548	0.029545	0.781657	-0.315408	-0.316683	0.039563	28.5238	-0.316448	-8247.32	-4.797052E-6	NaN
436	1.000000	0.792949	7.36933e+06	-55289.1	1005.82	-29742	0.000000	0.000000	6.793053	0.036928	NaN	0.000000	0.001572	0.001729	28.0795	0.079538	0.002095	37.9714	58.7567	14.9817	0.004082	0.791598	-0.305391	-0.306742	0.036928	37.9714	-0.306121	-5802.03	-6.364733E-6	NaN
436	1.000000	0.802941	7.36933e+06	-55289.1	1005.82	-29742	0.000000	0.000000	6.803044	0.001827	NaN	0.000000	0.001577	0.001720	28.0795	0.087313	0.001973	44.2433	139.866	-165.467	-0.067339	0.801650	-0.295399	-0.296690	0.001827	44.2433	-0.295430	-4022.58	-4.541029E-7	NaN
436	1.000000	0.812986	7.36933e+06	-55289.1	1005.82	-29742	0.000000	0.000000	6.813092	0.062013	NaN	0.000000	0.001593	0.001683	28.0795	0.045176	0.001959	23.0547	13.2381	12.55	0.046312	0.811597	-0.285353	-0.286743	0.062013	23.0547	-0.287371	-3047.01	-2.035202E-5	NaN
436	1.000000	0.822991	7.36933e+06	-55289.1	1005.82	-29742	0.000000	0.000000	6.823095	0.031280	NaN	0.000000	0.001593	0.001701	28.0794	0.056104	0.002025	27.7096	165.783	-166.413	0.118776	0.821657	-0.275349	-0.276682	0.031280	27.7096	-0.276196	-2067.75	-1.512740E-5	NaN
436	1.000000	0.832967	7.36933e+06	-55289.1	1005.82	-29742	0.000000	0.000000	6.833071	0.032278	NaN	0.000000	0.001581	0.001720	28.0796	0.045440	0.002059	22.0699	-35.5086	15.9861	-0.032868	0.831633	-0.265373	-0.266706	0.032278	22.0699	-0.266470	-1471.65	-2.193304E-5	NaN
436	1.000000	0.842996	7.36933e+06	-55289.1	1005.82	-29742	0.000000	0.000000	6.843097	-0.048232	NaN	0.000000	0.001575	0.001706	28.0794	0.068022	0.002012	33.8015	18.4699	-165.699	-0.012953	0.841689	-0.255344	-0.256651	-0.048232	33.8015	-0.254274	-957.045	5.039702E-5	NaN
436	1.000000	0.852988	7.36933e+06	-55289.1	1005.82	-29742	0.000000	0.000000	6.853089	-0.041728	NaN	0.000000	0.001572	0.001672	28.0794	0.068068	0.002098	32.4445	33.9213	12.4607	-0.025009	0.851623	-0.245352	-0.246716	-0.041728	32.4445	-0.244387	-672.859	6.201623E-5	NaN
436	1.000000	0.862969	7.36933e+06	-55289.1	1005.82	-29742	0.000000	0.000000	6.863074	0.067076	NaN	0.000000	0.001582	0.001719	28.0794	0.035453	0.002016	17.5817	-55.7631	-165.726	-0.011543	0.861632	-0.235371	-0.236707	0.067076	17.5817	-0.238232	-539.407	-0.000124	NaN
436	1.000000	0.872986	7.36933e+06	-55289.1	1005.82	-29742	0.000000	0.000000	6.873091	0.044685	NaN	0.000000	0.001625	0.001667	28.0809	0.028516	0.001984	14.3754	-10.3818	14.7459	0.026243	0.871621	-0.225353	-0.226719	0.044685	14.3754	-0.227685	-368.053	-0.000121	NaN
436	1.000000	0.882977	7.36933e+06	-55289.1	1005.82	-29742	0.000000	0.000000	6.883079	-0.016112	NaN	0.000000	0.001611	0.001704	28.0805	0.065089	0.001980	32.8653	-54.0838	-164.75	0.015144	0.881723	-0.215363	-0.216616	-0.016112	32.8653	-0.214995	-230.905	6.977629E-5	NaN
436	1.000000	0.892976	7.36933e+06	-55289.1	1005.82	-29742	0.000000	0.000000	6.893080	0.026342	NaN	0.000000	0.001626	0.001718	28.0807	0.114648	0.001910	60.0216	77.4455	13.478	0.028962	0.891667	-0.205363	-0.206673	0.026342	60.0216	-0.205693	-163.249	-0.000161	NaN
436	1.000000	0.903014	7.36933e+06	-55289.1	1005.82	-29742	0.000000	0.000000	6.903117	0.008257	NaN	0.000000	0.001593	0.001705	28.0806	0.071930	0.001949	36.9093	-29.3218	-167.397	0.089917	0.901691	-0.195326	-0.196649	0.008257	36.9093	-0.195494	-111.015	-7.437676E-5	NaN
436	1.000000	0.913012	7.36933e+06	-55289.1	1005.82	-29742	0.000000	0.000000	6.913118	0.080676	NaN	0.000000	0.001625	0.001724	28.0806	0.126174	0.001974	63.9021	154.308	11.0916	0.118645	0.911607	-0.185328	-0.186732	0.080676	63.9021	-0.186275	-77.9099	-0.001036	NaN
436	1.000000	0.923031	7.36933e+06	-55289.1	1005.82	-29742	0.000000	0.000000	6.923135	0.035088	NaN	0.000000	0.001661	0.001685	28.0806	0.052577	0.002076	25.3303	67.9636	-168.625	-0.032982	0.921690	-0.175309	-0.176650	0.035088	25.3303	-0.176348	-52.858	-0.000664	NaN
436	1.000000	0.933010	7.36933e+06	-55289.1	1005.82	-29742	0.000000	0.000000	6.933113	-0.004507	NaN	0.000000	0.001706	0.001700	28.0805	0.028923	0.002088	13.849	78.2522	10.5083	-0.061596	0.931694	-0.165329	-0.166646	-0.004507	13.849	-0.165085	-33.7136	0.000134	NaN
436	1.000000	0.943015	7.36933e+06	-55289.1	1005.82	-29742	0.000000	0.000000	6.943118	0.006335	NaN	0.000000	0.001681	0.001713	28.0807	0.008949	0.002039	4.388743	78.909	-160.947	-0.029549	0.941694	-0.155325	-0.156646	0.006335	4.388743	-0.156407	-23.6515	-0.000268	NaN
436	1.000000	0.952997	7.36933e+06	-55289.1	1005.82	-29742	0.000000	0.000000	6.953100	0.012481	NaN	0.000000	0.001674	0.001649	28.0805	0.050170	0.001977	25.3734	-160.614	16.9119	-0.041118	0.951682	-0.145343	-0.146658	0.012481	25.3734	-0.145712	-15.1121	-0.000826	NaN
436	1.000000	0.963055	7.36933e+06	-55289.1	1005.82	-29742	0.000000	0.000000	6.963155	-0.054529	NaN	0.000000	0.001713	0.001667	28.0807	0.089719	0.001947	46.0912	51.9612	-167.889	0.012898	0.961756	-0.135285	-0.136584	-0.054529	46.0912	-0.134398	-9.263660	0.005886	NaN
436	1.000000	0.973027	7.36933e+06	-55289.1	1005.82	-29742	0.000000	0.000000	6.973130	0.002182	NaN	0.000000	0.001686	0.001693	28.0805	0.061175	0.001913	31.9781	11.2127	15.6567	0.009551	0.971657	-0.125313	-0.126683	0.002182	31.9781	-0.125364	-6.182912	-0.000353	NaN
436	1.000000	0.983025	7.36933e+06	-55289.1	1005.82	-29742	0.000000	0.000000	6.983128	0.002034	NaN	0.000000	0.001673	0.001692	28.0808	0.103045	0.001979	52.0735	28.3509	-165.982	-0.020434	0.981734	-0.115315	-0.116605	0.002034	52.0735	-0.115344	-3.883273	-0.000524	NaN
436	1.000000	0.993054	7.36933e+06	-55289.1	1005.82	-29742	0.000000	0.000000	6.993159	0.036567	NaN	0.000000	0.001710	0.001681	28.0806	0.061282	0.001940	31.581	141.64	13.4063	-0.043657	0.991698	-0.105285	-0.106641	0.036567	31.581	-0.106154	-2.489018	-0.014691	NaN
436	1.000000	1.003076	7.36933e+06	-55289.1	1005.82	-29742	0.000000	0.000000	7.003180	0.042763	NaN	0.000000	0.001614	0.001686	28.0802	0.068190	0.002069	32.963	32.6253	-168.014	0.047722	1.001747	-0.095264	-0.096592	0.042763	32.963	-0.096237	-1.504862	-0.028416	NaN
436	1.000000	1.013038	7.36933e+06	-55289.1	1005.82	-29742	0.000000	0.000000	7.013145	0.103642	NaN	0.000000	0.001642	0.001701	28.0792	0.042530	0.002028	20.9675	116.901	13.0592	0.037051	1.011661	-0.085302	-0.086679	0.103642	20.9675	-0.089009	-1.024474	-0.101166	NaN
436	1.000000	1.023038	7.36933e+06	-55289.1	1005.82	-29742	0.000000	0.000000	7.023136	-0.122118	NaN	0.000000	0.001625	0.001694	28.0793	0.151218	0.001969	76.7989	143.853	-172.362	-0.121484	1.021776	-0.075302	-0.076564	-0.122118	76.7989	-0.074109	-0.437925	0.278856	NaN
436	1.000000	1.033067	7.36933e+06	-55289.1	1005.82	-29742	0.000000	0.000000	7.033175	0.108637	NaN	0.000000	0.001610	0.001658	28.079	0.087880	0.002169	40.5145	-95.8295	14.0415	0.113665	1.031701	-0.065272	-0.066639	0.108637	40.5145	-0.067283	-0.288019	-0.377186	NaN
436	1.000000	1.043067	7.36933e+06	-55289.1	1005.82	-29742	0.000000	0.000000	7.043171	0.016893	NaN	0.000000	0.001661	0.001682	28.0794	0.017257	0.001996	8.648017	-6.141124	-162.042	0.010861	1.041708	-0.055273	-0.056632	0.016893	8.648017	-0.056738	-0.144862	-0.116618	NaN
436	1.000000	1.053057	7.36933e+06	-55289.1	1005.82	-29742	0.000000	0.000000	7.053160	0.002139	NaN	0.000000	0.001635	0.001648	28.0792	0.041996	0.002080	20.1887	-81.8625	14.4105	0.008180	1.051757	-0.045283	-0.046583	0.002139	20.1887	-0.045362	-0.065928	-0.032439	NaN
436	1.000000	1.063049	7.36933e+06	-55289.1	1005.82	-29742	0.000000	0.000000	7.063158	0.144849	NaN	0.000000	0.001650	0.001659	28.0792	0.042378	0.002121	19.9837	-21.1406	-169.496	0.135013	1.061754	-0.035290	-0.036586	0.144849	19.9837	-0.040726	-0.047582	-3.044213	NaN
436	1.000000	1.073083	7.36933e+06	-55289.1	1005.82	-29742	0.000000	0.000000	7.073201	0.382545	NaN	0.000000	0.001605	0.001673	28.079	0.395866	0.001924	205.797	33.5082	14.9704	0.370183	1.071746	-0.025257	-0.026594	0.382545	205.797	-0.026651	-0.018650	-20.5117	NaN
436	1.000000	1.083094	7.36933e+06	-55289.1	1005.82	-29742	0.000000	0.000000	7.083228	0.762523	NaN	0.000000	0.001631	0.001679	28.0792	0.646966	0.001985	325.949	35.2544	-164.373	0.758448	1.081751	-0.015246	-0.016588	0.762523	325.949	-0.017000	-0.010511	-72.5475	NaN
436	1.000000	1.093072	7.36933e+06	-55289.1	1005.82	-29742	0.000000	0.000000	7.093211	0.861904	NaN	0.000000	0.001625	0.001662	28.0792	0.938026	0.001928	486.43	29.3978	14.2685	0.849026	1.091682	-0.005267	-0.006657	0.861904	486.43	-0.006596	-0.004398	-195.966	NaN
436	1.000000	1.103074	7.36933e+06	-55289.1	1005.82	-29742	0.000000	0.000000	7.103264	2.122825	NaN	0.000000	0.001615	0.001683	28.0796	2.584839	0.001978	1306.99	29.5049	-168.317	1.891435	1.101712	0.004735	0.003372	2.122825	1306.99	0.003516	0.002819	752.978	22489.5
436	2.000000	1.112150	7.36933e+06	-55289.1	1005.82	-29742	0.000000	0.000000	7.112570	7.714858	NaN	0.000000	0.001616	0.001672	28.0791	8.602017	0.001720	5001.2	15.3749	5.625693	7.707197	1.111557	0.013810	0.013217	7.714858	5001.2	0.012653	0.012282	628.151	41230.2
436	2.000000	1.114635	7.36933e+06	-55289.1	1005.82	-29742	0.000000	0.000000	7.115221	11.742	NaN	0.000000	0.001633	0.001670	28.08	12.4595	0.001725	7224	10.0977	-174.457	10.7912	1.114324	0.016295	0.015984	11.742	7224	0.015076	0.015387	763.104	53207.3
436	2.000000	1.117140	7.36933e+06	-55289.1	1005.82	-29742	0.000000	0.000000	7.118075	20.246	NaN	0.000000	0.001632	0.001656	28.0791	16.2436	0.001681	9660.78	5.973981	7.026965	18.1214	1.116778	0.018800	0.018438	20.246	9660.78	0.017228	0.018372	1101.98	65118.1
436	2.000000	1.119575	7.36933e+06	-55289.1	1005.82	-29742	0.000000	0.000000	7.121028	32.8213	NaN	0.000000	0.001659	0.001675	28.0806	20.0351	0.001547	12948	3.377794	-175.983	31.3453	1.119330	0.021236	0.020990	32.8213	12948	0.019334	0.021507	1526.06	80664.8
436	2.000000	1.122067	7.36933e+06	-55289.1	1005.82	-29742	0.000000	0.000000	7.124152	48.1999	NaN	0.000000	0.001611	0.001703	28.0804	24.2482	0.001710	14177.5	4.334873	1.970275	46.0263	1.121744	0.023727	0.023404	48.1999	14177.5	0.021177	0.024426	1973.32	82879.5
436	2.000000	1.124571	7.36933e+06	-55289.1	1005.82	-29742	0.000000	0.000000	7.127223	61.9629	NaN	0.000000	0.001595	0.001702	28.081	27.9584	0.001730	16164.6	7.121466	178.004	61.74	1.124308	0.026231	0.025968	61.9629	16164.6	0.023356	0.028093	2205.62	88112.3
436	2.000000	1.127045	7.36933e+06	-55289.1	1005.82	-29742	0.000000	0.000000	7.130423	79.6231	NaN	0.000000	0.001629	0.001724	28.0803	29.903	0.001593	18767.6	5.531238	-1.359717	77.2452	1.126722	0.028705	0.028382	79.6231	18767.6	0.025523	0.031975	2490.18	95891
436	2.000000	1.129608	7.36933e+06	-55289.1	1005.82	-29742	0.000000	0.000000	7.133506	92.2629	NaN	0.000000	0.001633	0.001712	28.0806	32.6285	0.001640	19900.6	3.401447	179.444	92.1033	1.129300	0.031268	0.030961	92.2629	19900.6	0.027791	0.036289	2542.45	95444.8
436	2.000000	1.132084	7.36933e+06	-55289.1	1005.82	-29742	0.000000	0.000000	7.136712	109.992	NaN	0.000000	0.001632	0.001690	28.0803	36.203	0.001819	19897.8	2.751061	1.483702	108.367	1.131650	0.033745	0.033310	109.992	19897.8	0.029599	0.039916	2755.56	90991.8
436	2.000000	1.134565	7.36933e+06	-55289.1	1005.82	-29742	0.000000	0.000000	7.139893	127.003	NaN	0.000000	0.001609	0.001694	28.0811	38.4544	0.001583	24299	3.273825	177.203	125.09	1.134193	0.036226	0.035854	127.003	24299	0.032306	0.045659	2781.58	103896
436	2.000000	1.137109	7.36933e+06	-55289.1	1005.82	-29742	0.000000	0.000000	7.143183	145.158	NaN	0.000000	0.001626	0.001676	28.0802	41.1094	0.001754	23437.9	5.183818	-3.076466	142.473	1.136628	0.038769	0.038288	145.158	23437.9	0.034124	0.049726	2919.18	96028.9
436	2.000000	1.139569	7.36933e+06	-55289.1	1005.82	-29742	0.000000	0.000000	7.146461	165.037	NaN	0.000000	0.001711	0.001676	28.0808	43.6642	0.001761	24800.1	5.711428	175.595	164.867	1.139217	0.041230	0.040877	165.037	24800.1	0.036239	0.054670	3018.8	96906.5
436	2.000000	1.142064	7.36933e+06	-55289.1	1005.82	-29742	0.000000	0.000000	7.149782	185.11	NaN	0.000000	0.001689	0.001646	28.0803	46.75	0.001840	25412.6	4.856993	-3.441491	184.879	1.141693	0.043724	0.043353	185.11	25412.6	0.038261	0.059612	3105.26	95094.7
436	2.000000	1.144508	7.36933e+06	-55289.1	1005.82	-29742	0.000000	0.000000	7.153093	206.202	NaN	0.000000	0.001698	0.001727	28.0803	48.4431	0.001912	25337.3	-0.145926	-178.186	203.98	1.144248	0.046168	0.045908	206.202	25337.3	0.040065	0.064196	3212.08	91365.1
436	2.000000	1.147025	7.36933e+06	-55289.1	1005.82	-29742	0.000000	0.000000	7.156074	217.458	NaN	0.000000	0.001675	0.001704	28.0803	50.1156	0.001837	27282	3.167433	-2.500283	214.791	1.146776	0.048686	0.048436	217.458	27282	0.042708	0.071213	3053.62	93405
436	2.000000	1.149516	7.36933e+06	-55289.1	1005.82	-29742	0.000000	0.000000	7.159325	235.942	NaN	0.000000	0.001597	0.001680	28.0801	51.6931	0.001726	29954.6	1.985690	177.596	233.867	1.149313	0.051177	0.050973	235.942	29954.6	0.045269	0.078353	3011.27	97770.7
436	2.000000	1.151955	7.36933e+06	-55289.1	1005.82	-29742	0.000000	0.000000	7.162359	250.405	NaN	0.000000	0.001579	0.001692	28.0804	54.9935	0.001874	29338	3.661103	-3.340252	243.436	1.151634	0.053615	0.053294	250.405	29338	0.047214	0.083996	2981.15	92485.8
436	2.000000	1.154448	7.36933e+06	-55289.1	1005.82	-29742	0.000000	0.000000	7.165553	267.454	NaN	0.000000	0.001610	0.001699	28.0792	57.145	0.001853	30834.7	5.046701	174.301	262.061	1.154169	0.056108	0.055829	267.454	30834.7	0.049603	0.091189	2932.96	93291.3
436	2.000000	1.157025	7.36933e+06	-55289.1	1005.82	-29742	0.000000	0.000000	7.168956	287.531	NaN	0.000000	0.001612	0.001676	28.0791	58.9261	0.001908	30876.6	7.303156	-6.755682	282.513	1.156609	0.058685	0.058269	287.531	30876.6	0.051701	0.097743	2941.69	90231.5
436	2.000000	1.159459	7.36933e+06	-55289.1	1005.82	-29742	0.000000	0.000000	7.172104	304.884	NaN	0.000000	0.001610	0.001711	28.0791	59.9138	0.001795	33377	3.886035	175.086	301.667	1.159120	0.061119	0.060781	304.884	33377	0.054269	0.106062	2874.57	93635.5
436	2.000000	1.161984	7.36933e+06	-55289.1	1005.82	-29742	0.000000	0.000000	7.175329	321.9	NaN	0.000000	0.001632	0.001718	28.0793	62.3499	0.001843	33825.6	4.995930	-5.878550	318.883	1.161598	0.063645	0.063258	321.9	33825.6	0.056507	0.113583	2834.06	91698.6
436	2.000000	1.164446	7.36933e+06	-55289.1	1005.82	-29742	0.000000	0.000000	7.178583	341.16	NaN	0.000000	0.001647	0.001697	28.0789	63.759	0.001805	35326.5	2.006441	176.325	336.228	1.164123	0.066106	0.065783	341.16	35326.5	0.058863	0.121762	2801.85	92494.8
436	2.000000	1.167049	7.36933e+06	-55289.1	1005.82	-29742	0.000000	0.000000	7.181686	353.296	NaN	0.000000	0.001620	0.001705	28.0789	64.9466	0.001870	34729.4	0.865123	-2.043733	351.715	1.166728	0.068710	0.068388	353.296	34729.4	0.061080	0.129709	2723.75	88101.7
436	2.000000	1.169602	7.36933e+06	-55289.1	1005.82	-29742	0.000000	0.000000	7.185026	372.436	NaN	0.000000	0.001633	0.001683	28.079	68.0416	0.001951	34879.9	10.3513	169.906	377.041	1.169248	0.071262	0.070908	372.436	34879.9	0.063254	0.137734	2704.02	85867.2
436	2.000000	1.171943	7.36933e+06	-55289.1	1005.82	-29742	0.000000	0.000000	7.188317	395.528	NaN	0.000000	0.001602	0.001711	28.0788	70.4752	0.001831	38486	6.598300	-8.777471	388.595	1.171568	0.073603	0.073228	395.528	38486	0.065895	0.147792	2676.25	91464
436	2.000000	1.174429	7.36933e+06	-55289.1	1005.82	-29742	0.000000	0.000000	7.191581	414.457	NaN	0.000000	0.001630	0.001710	28.079	71.3955	0.001696	42084.4	0.035409	176.966	409.987	1.174269	0.076089	0.075929	414.457	42084.4	0.068703	0.158851	2609.1	96471.6
436	2.000000	1.177043	7.36933e+06	-55289.1	1005.82	-29742	0.000000	0.000000	7.194836	430.048	NaN	0.000000	0.001644	0.001703	28.079	73.8587	0.001825	40478.9	3.102010	-5.240606	428.885	1.176703	0.078703	0.078363	430.048	40478.9	0.070735	0.167090	2573.75	90474.6
436	2.000000	1.179465	7.36933e+06	-55289.1	1005.82	-29742	0.000000	0.000000	7.198445	458.895	NaN	0.000000	0.001619	0.001678	28.0794	75.8416	0.001773	42775.6	7.245424	170.734	456.378	1.179096	0.081125	0.080756	458.895	42775.6	0.073079	0.176840	2594.98	92935
436	2.000000	1.181945	7.36933e+06	-55289.1	1005.82	-29742	0.000000	0.000000	7.201737	478.624	NaN	0.000000	0.001618	0.001676	28.0797	78.2842	0.001709	45800.2	5.326227	-8.721236	473.793	1.181647	0.083605	0.083307	478.624	45800.2	0.075767	0.188336	2541.32	96421.3
436	2.000000	1.184671	7.36933e+06	-55289.1	1005.82	-29742	0.000000	0.000000	7.203177	447.357	NaN	0.000000	0.001610	0.001702	28.0792	81.9788	0.001906	43017.7	3.602932	173.187	452.346	1.184658	0.086331	0.086319	447.357	43017.7	0.078532	0.200515	2231.04	87770.2
436	2.000000	1.187139	7.36933e+06	-55289.1	1005.82	-29742	0.000000	0.000000	7.207304	487.7	NaN	0.000000	0.001606	0.001717	28.0801	84.3842	0.001877	44955.5	9.094209	-11.5462	491.906	1.186669	0.088799	0.088329	487.7	44955.5	0.080663	0.210147	2320.75	89597.1
436	2.000000	1.189472	7.36933e+06	-55289.1	1005.82	-29742	0.000000	0.000000	7.210823	516.534	NaN	0.000000	0.001587	0.001679	28.0808	85.2858	0.001849	46119.1	4.034276	172.766	513.148	1.189137	0.091132	0.090797	516.534	46119.1	0.082732	0.219702	2351.07	89895.2
436	2.000000	1.192141	7.36933e+06	-55289.1	1005.82	-29742	0.000000	0.000000	7.213640	520.139	NaN	0.000000	0.001598	0.001665	28.0805	89.9673	0.001838	48941.2	5.104331	-9.152863	525.784	1.191938	0.093801	0.093599	520.139	48941.2	0.085830	0.234377	2219.24	92361.4
436	2.000000	1.194487	7.36933e+06	-55289.1	1005.82	-29742	0.000000	0.000000	7.217637	560.257	NaN	0.000000	0.001568	0.001680	28.0803	92.35	0.001953	47296	6.309572	170.177	557.455	1.194149	0.096147	0.095809	560.257	47296	0.087263	0.241314	2321.69	87964.3
436	2.000000	1.196804	7.36933e+06	-55289.1	1005.82	-29742	0.000000	0.000000	7.219527	549.852	NaN	0.000000	0.001614	0.001671	28.081	91.5733	0.001722	53165.1	-2.001945	-2.291915	536.715	1.196618	0.098465	0.098278	549.852	53165.1	0.090708	0.258381	2128.07	95558.6
436	2.000000	1.199305	7.36933e+06	-55289.1	1005.82	-29742	0.000000	0.000000	7.223660	589.53	NaN	0.000000	0.001591	0.001678	28.0806	93.8693	0.001732	54188.8	2.809787	172.577	580.293	1.199091	0.100965	0.100752	589.53	54188.8	0.092806	0.269042	2191.22	95449.3
436	2.000000	1.201771	7.36933e+06	-55289.1	1005.82	-29742	0.000000	0.000000	7.226999	610.766	NaN	0.000000	0.001583	0.001724	28.0809	96.1502	0.001801	53394.1	3.326652	-7.421000	597.251	1.201415	0.103432	0.103076	610.766	53394.1	0.094853	0.279633	2184.17	92251.3
436	2.000000	1.204386	7.36933e+06	-55289.1	1005.82	-29742	0.000000	0.000000	7.230906	642.158	NaN	0.000000	0.001563	0.001724	28.0803	98.9184	0.001832	53983.6	2.432474	173.49	636.038	1.203996	0.106047	0.105656	642.158	53983.6	0.097125	0.291619	2202.04	91332.8
436	2.000000	1.206882	7.36933e+06	-55289.1	1005.82	-29742	0.000000	0.000000	7.234082	658.699	NaN	0.000000	0.001596	0.001716	28.0809	100.705	0.001784	56439.5	3.504346	-7.924737	650.102	1.206636	0.108542	0.108296	658.699	56439.5	0.099789	0.305969	2152.83	93221.7
436	2.000000	1.209496	7.36933e+06	-55289.1	1005.82	-29742	0.000000	0.000000	7.238105	692.962	NaN	0.000000	0.001553	0.001703	28.0807	103.546	0.001755	58999.2	4.565086	170.426	693.534	1.209137	0.111156	0.110798	692.962	58999.2	0.102347	0.320052	2165.15	95281.6
436	2.000000	1.210459	7.36933e+06	-55289.1	1005.82	-29742	0.000000	0.000000	7.239453	702.334	NaN	0.000000	0.001566	0.001679	28.0805	104.336	0.001793	58199	2.453326	173.234	699.371	1.210097	0.112119	0.111757	702.334	58199	0.103068	0.324075	2167.2	93404.1