File: remote_trans/data/nanoindenter/0828-1/data/Data_2025-08-06,11h17m57s/2025-07-22_16-23-58_1_627.txt
2025-07-22, 16:23:58, 1
Index	Phase	Displacement	Time	Pos X	Pos Y	Pos Z	Rot A	Rot B	Piezo Z	Force A	Force B	Gripper	Voltage A	Voltage B	Temperature	Amplitude force	Amplitude pos	Stiffness	Phase shift	Phase excitation	Force A raw	Displacement raw	HMax	HMax raw	Real Force	Real Stiffness	Contact Depth	Area	Hardness	Reduced Mod.
[#]	[#]	[um]	[s]	[um]	[um]	[um]	[m°]	[m°]	[um]	[uN]	[uN]	[V]	[V]	[V]	[°C]	[uN]	[um]	[N/m]	[°]	[°]	[uN]	[um]	[um]	[um]	[uN]	[N/m]	[um]	[um^2]	[MPa]	[MPa]
627	1.000000	0.002482	7.37118e+06	-45739.1	1005.82	-29771.4	0.000000	0.000000	6.002806	-0.039757	NaN	0.000000	0.001634	0.001634	28.0815	0.102958	0.001044	98.5836	150.289	-163.02	-0.022190	0.001206	-1.153130	-1.154406	-0.039757	98.5836	-1.152828	-2.562889E+15	1.551240E-17	NaN
627	1.000000	0.012538	7.37118e+06	-45739.1	1005.82	-29771.4	0.000000	0.000000	6.012867	0.076758	NaN	0.000000	0.001641	0.001699	28.0809	0.021441	0.001219	17.5941	112.371	15.2233	0.038022	0.011108	-1.143074	-1.144504	0.076758	17.5941	-1.146346	-2.098128E+15	-3.658392E-17	NaN
627	1.000000	0.022437	7.37118e+06	-45739.1	1005.82	-29771.4	0.000000	0.000000	6.022763	0.005722	NaN	0.000000	0.001635	0.001722	28.0812	0.050750	0.001679	30.227	-111.532	-163.466	0.022845	0.021061	-1.133175	-1.134551	0.005722	30.227	-1.133317	-1.403172E+15	-4.078152E-18	NaN
627	1.000000	0.032409	7.37118e+06	-45739.1	1005.82	-29771.4	0.000000	0.000000	6.032735	0.010647	NaN	0.000000	0.001628	0.001686	28.0809	0.152223	0.001871	81.36	-129.22	15.9644	-0.047055	0.031040	-1.123203	-1.124572	0.010647	81.36	-1.123301	-1.029821E+15	-1.033832E-17	NaN
627	1.000000	0.042414	7.37118e+06	-45739.1	1005.82	-29771.4	0.000000	0.000000	6.042739	0.002598	NaN	0.000000	0.001652	0.001656	28.0813	0.042349	0.001990	21.2803	34.9328	-167.323	0.067981	0.041083	-1.113199	-1.114529	0.002598	21.2803	-1.113290	-7.558588E+14	-3.437505E-18	NaN
627	1.000000	0.052426	7.37118e+06	-45739.1	1005.82	-29771.4	0.000000	0.000000	6.052753	0.022468	NaN	0.000000	0.001674	0.001680	28.0814	0.050903	0.001938	26.2633	-61.2437	15.6849	-0.055428	0.051103	-1.103186	-1.104509	0.022468	26.2633	-1.103827	-5.642120E+14	-3.982167E-17	NaN
627	1.000000	0.062438	7.37118e+06	-45739.1	1005.82	-29771.4	0.000000	0.000000	6.062763	-0.015840	NaN	0.000000	0.001649	0.001642	28.0812	0.046407	0.001917	24.2106	-161.83	-164.955	0.052364	0.061137	-1.093174	-1.094475	-0.015840	24.2106	-1.092683	-3.997970E+14	3.961940E-17	NaN
627	1.000000	0.072431	7.37118e+06	-45739.1	1005.82	-29771.4	0.000000	0.000000	6.072757	0.014533	NaN	0.000000	0.001637	0.001658	28.0817	0.016088	0.002161	7.443964	61.8511	13.6519	0.067644	0.070993	-1.083181	-1.084619	0.014533	7.443964	-1.084645	-3.118221E+14	-4.660517E-17	NaN
627	1.000000	0.082408	7.37118e+06	-45739.1	1005.82	-29771.4	0.000000	0.000000	6.082736	0.048445	NaN	0.000000	0.001654	0.001668	28.0825	0.077012	0.001950	39.4932	127.284	-170.68	0.022243	0.081122	-1.073204	-1.074490	0.048445	39.4932	-1.074124	-2.252131E+14	-2.151089E-16	NaN
627	1.000000	0.092451	7.37118e+06	-45739.1	1005.82	-29771.4	0.000000	0.000000	6.092779	0.053698	NaN	0.000000	0.001681	0.001691	28.0823	0.125924	0.002106	59.7888	149.818	14.5141	0.028370	0.091026	-1.063162	-1.064586	0.053698	59.7888	-1.063835	-1.638168E+14	-3.277905E-16	NaN
627	1.000000	0.102449	7.37118e+06	-45739.1	1005.82	-29771.4	0.000000	0.000000	6.102779	0.096356	NaN	0.000000	0.001605	0.001685	28.0821	0.017928	0.001955	9.168617	93.0009	-165.813	0.052622	0.101178	-1.053163	-1.054434	0.096356	9.168617	-1.061045	-1.502673E+14	-6.412281E-16	NaN
627	1.000000	0.112430	7.37118e+06	-45739.1	1005.82	-29771.4	0.000000	0.000000	6.112754	-0.044259	NaN	0.000000	0.001638	0.001621	28.0821	0.022791	0.001997	11.411	-137.903	12.9859	-0.103089	0.111101	-1.043182	-1.044511	-0.044259	11.411	-1.040273	-7.900235E+13	5.602184E-16	NaN
627	1.000000	0.122444	7.37118e+06	-45739.1	1005.82	-29771.4	0.000000	0.000000	6.122771	0.045422	NaN	0.000000	0.001654	0.001647	28.0823	0.044574	0.001951	22.8435	-64.5227	-166.509	0.023393	0.121128	-1.033168	-1.034485	0.045422	22.8435	-1.034660	-6.639754E+13	-6.840948E-16	NaN
627	1.000000	0.132436	7.37118e+06	-45739.1	1005.82	-29771.4	0.000000	0.000000	6.132761	-0.011781	NaN	0.000000	0.001653	0.001615	28.0821	0.164955	0.001906	86.5663	-168.416	14.0567	-0.034019	0.131108	-1.023176	-1.024504	-0.011781	86.5663	-1.023074	-4.637805E+13	2.540134E-16	NaN
627	1.000000	0.142454	7.37118e+06	-45739.1	1005.82	-29771.4	0.000000	0.000000	6.142778	-0.023366	NaN	0.000000	0.001657	0.001650	28.0822	0.127872	0.001873	68.2804	-114.323	-166.963	-0.089120	0.141125	-1.013159	-1.014487	-0.023366	68.2804	-1.012902	-3.384056E+13	6.904858E-16	NaN
627	1.000000	0.152474	7.37118e+06	-45739.1	1005.82	-29771.4	0.000000	0.000000	6.152802	0.050016	NaN	0.000000	0.001632	0.001658	28.0821	0.084694	0.001981	42.7495	150.233	14.0533	0.111246	0.151112	-1.003138	-1.004500	0.050016	42.7495	-1.004016	-2.569389E+13	-1.946622E-15	NaN
627	1.000000	0.162440	7.37118e+06	-45739.1	1005.82	-29771.4	0.000000	0.000000	6.162769	0.064397	NaN	0.000000	0.001660	0.001620	28.082	0.058719	0.002024	29.0084	150.421	-166.208	0.028434	0.161186	-0.993172	-0.994426	0.064397	29.0084	-0.994837	-1.933086E+13	-3.331284E-15	NaN
627	1.000000	0.172460	7.37118e+06	-45739.1	1005.82	-29771.4	0.000000	0.000000	6.172789	0.064165	NaN	0.000000	0.001627	0.001655	28.082	0.077730	0.002181	35.6389	-159.674	12.1851	0.039885	0.171124	-0.983152	-0.984488	0.064165	35.6389	-0.984502	-1.403006E+13	-4.573424E-15	NaN
627	1.000000	0.182473	7.37118e+06	-45739.1	1005.82	-29771.4	0.000000	0.000000	6.182799	0.002849	NaN	0.000000	0.001634	0.001676	28.082	0.060113	0.002028	29.6361	-0.978185	-166.008	-0.049121	0.181217	-0.973139	-0.974395	0.002849	29.6361	-0.973211	-9.884124E+12	-2.882897E-16	NaN
627	1.000000	0.192504	7.37118e+06	-45739.1	1005.82	-29771.4	0.000000	0.000000	6.192832	0.051157	NaN	0.000000	0.001646	0.001622	28.0822	0.127707	0.001935	65.9974	-136.315	16.3845	0.071287	0.191094	-0.963108	-0.964518	0.051157	65.9974	-0.963690	-7.355443E+12	-6.954959E-15	NaN
627	1.000000	0.202475	7.37118e+06	-45739.1	1005.82	-29771.4	0.000000	0.000000	6.202801	0.005134	NaN	0.000000	0.001647	0.001662	28.0821	0.045964	0.001933	23.7783	57.4996	-165.008	-0.011476	0.201191	-0.953137	-0.954421	0.005134	23.7783	-0.953299	-5.327405E+12	-9.637206E-16	NaN
627	1.000000	0.212493	7.37118e+06	-45739.1	1005.82	-29771.4	0.000000	0.000000	6.212820	0.020469	NaN	0.000000	0.001669	0.001650	28.0809	0.044202	0.001997	22.1327	24.8155	14.3447	0.081273	0.211158	-0.943119	-0.944454	0.020469	22.1327	-0.943813	-3.967986E+12	-5.158603E-15	NaN
627	1.000000	0.222464	7.37118e+06	-45739.1	1005.82	-29771.4	0.000000	0.000000	6.222789	-0.021969	NaN	0.000000	0.001653	0.001697	28.081	0.062462	0.002055	30.3995	63.8109	-165.543	-0.003360	0.221145	-0.933148	-0.934467	-0.021969	30.3995	-0.932606	-2.801352E+12	7.842168E-15	NaN
627	1.000000	0.232510	7.37118e+06	-45739.1	1005.82	-29771.4	0.000000	0.000000	6.232837	0.029145	NaN	0.000000	0.001597	0.001664	28.081	0.051808	0.002065	25.087	-143.107	19.1235	-0.036709	0.231117	-0.923102	-0.924495	0.029145	25.087	-0.923974	-2.142172E+12	-1.360539E-14	NaN
627	1.000000	0.242529	7.37118e+06	-45739.1	1005.82	-29771.4	0.000000	0.000000	6.242854	-0.030022	NaN	0.000000	0.001626	0.001708	28.0808	0.109937	0.001956	56.2049	169.77	-166.849	-0.086585	0.241193	-0.913083	-0.914420	-0.030022	56.2049	-0.912683	-1.507975E+12	1.990899E-14	NaN
627	1.000000	0.252505	7.37119e+06	-45739.1	1005.82	-29771.4	0.000000	0.000000	6.252831	0.005216	NaN	0.000000	0.001637	0.001708	28.0809	0.113849	0.002020	56.3672	120.621	17.0346	0.047295	0.251131	-0.903107	-0.904482	0.005216	56.3672	-0.903176	-1.121978E+12	-4.648549E-15	NaN
627	1.000000	0.262507	7.37119e+06	-45739.1	1005.82	-29771.4	0.000000	0.000000	6.262833	0.008747	NaN	0.000000	0.001662	0.001654	28.0812	0.132459	0.002070	63.9751	-104.634	-167.306	0.031122	0.261181	-0.893105	-0.894431	0.008747	63.9751	-0.893208	-8.227695E+11	-1.063136E-14	NaN
627	1.000000	0.272500	7.37119e+06	-45739.1	1005.82	-29771.4	0.000000	0.000000	6.272826	-0.014822	NaN	0.000000	0.001664	0.001708	28.081	0.039912	0.002057	19.4024	-175.239	14.2086	0.048082	0.271159	-0.883112	-0.884453	-0.014822	19.4024	-0.882539	-5.902560E+11	2.511061E-14	NaN
627	1.000000	0.282528	7.37119e+06	-45739.1	1005.82	-29771.4	0.000000	0.000000	6.282853	-0.025651	NaN	0.000000	0.001644	0.001671	28.0811	0.047676	0.002082	22.9029	-24.1619	-165.075	0.018796	0.281220	-0.873084	-0.874392	-0.025651	22.9029	-0.872244	-4.283576E+11	5.988258E-14	NaN
627	1.000000	0.292513	7.37119e+06	-45739.1	1005.82	-29771.4	0.000000	0.000000	6.292838	-0.007552	NaN	0.000000	0.001669	0.001718	28.081	0.047346	0.001935	24.4667	-62.9731	16.4002	-0.040110	0.291216	-0.863100	-0.864396	-0.007552	24.4667	-0.862868	-3.198447E+11	2.360991E-14	NaN
627	1.000000	0.302541	7.37119e+06	-45739.1	1005.82	-29771.4	0.000000	0.000000	6.302869	0.044400	NaN	0.000000	0.001684	0.001630	28.0814	0.080656	0.002011	40.1172	-37.5127	-165.644	0.028074	0.301183	-0.853071	-0.854429	0.044400	40.1172	-0.853901	-2.418548E+11	-1.835813E-13	NaN
627	1.000000	0.312540	7.37119e+06	-45739.1	1005.82	-29771.4	0.000000	0.000000	6.312869	0.066089	NaN	0.000000	0.001695	0.001660	28.081	0.048447	0.001967	24.6325	-79.8773	13.5302	0.031208	0.311172	-0.843072	-0.844440	0.066089	24.6325	-0.845084	-1.837240E+11	-3.597184E-13	NaN
627	1.000000	0.322530	7.37119e+06	-45739.1	1005.82	-29771.4	0.000000	0.000000	6.322857	0.011983	NaN	0.000000	0.001668	0.001681	28.0809	0.034482	0.001921	17.9543	6.138117	-164.343	-0.094005	0.321246	-0.833082	-0.834366	0.011983	17.9543	-0.833582	-1.283326E+11	-9.337239E-14	NaN
627	1.000000	0.332511	7.37119e+06	-45739.1	1005.82	-29771.4	0.000000	0.000000	6.332835	-0.035123	NaN	0.000000	0.001660	0.001693	28.081	0.044731	0.001975	22.6454	-162.843	15.3508	-0.047564	0.331218	-0.823101	-0.824395	-0.035123	22.6454	-0.821938	-8.922541E+10	3.936393E-13	NaN
627	1.000000	0.342551	7.37119e+06	-45739.1	1005.82	-29771.4	0.000000	0.000000	6.342879	0.057568	NaN	0.000000	0.001642	0.001688	28.0814	0.087355	0.002038	42.8644	-177.65	-165.436	0.051653	0.341219	-0.813061	-0.814394	0.057568	42.8644	-0.814068	-6.978491E+10	-8.249287E-13	NaN
627	1.000000	0.352530	7.37119e+06	-45739.1	1005.82	-29771.4	0.000000	0.000000	6.352856	0.000571	NaN	0.000000	0.001653	0.001681	28.0821	0.021527	0.002059	10.4559	-128.424	16.5264	-0.033252	0.351195	-0.803082	-0.804417	0.000571	10.4559	-0.803123	-4.957372E+10	-1.152361E-14	NaN
627	1.000000	0.362554	7.37119e+06	-45739.1	1005.82	-29771.4	0.000000	0.000000	6.362879	-0.028254	NaN	0.000000	0.001677	0.001701	28.0824	0.012389	0.001998	6.199342	-141.447	-167.762	-0.086277	0.361238	-0.793058	-0.794374	-0.028254	6.199342	-0.789640	-3.252321E+10	8.687488E-13	NaN
627	1.000000	0.372553	7.37119e+06	-45739.1	1005.82	-29771.4	0.000000	0.000000	6.372877	-0.038819	NaN	0.000000	0.001693	0.001679	28.0825	0.049716	0.002006	24.7807	-67.3875	11.7955	-0.077937	0.371192	-0.783059	-0.784421	-0.038819	24.7807	-0.781884	-2.551731E+10	1.521269E-12	NaN
627	1.000000	0.382549	7.37119e+06	-45739.1	1005.82	-29771.4	0.000000	0.000000	6.382875	-0.014378	NaN	0.000000	0.001668	0.001703	28.0826	0.102621	0.001875	54.7199	88.3559	-163.079	0.042910	0.381255	-0.773063	-0.774357	-0.014378	54.7199	-0.772866	-1.924263E+10	7.471843E-13	NaN
627	1.000000	0.392565	7.37119e+06	-45739.1	1005.82	-29771.4	0.000000	0.000000	6.392893	0.063017	NaN	0.000000	0.001737	0.001695	28.0822	0.045999	0.002033	22.6224	-140.538	14.4969	-0.014763	0.391238	-0.763048	-0.764374	0.063017	22.6224	-0.765137	-1.510683E+10	-4.171456E-12	NaN
627	1.000000	0.402577	7.37119e+06	-45739.1	1005.82	-29771.4	0.000000	0.000000	6.402903	0.020591	NaN	0.000000	0.001701	0.001709	28.0823	0.082670	0.002054	40.2561	-97.8108	-170.75	0.091278	0.401268	-0.753035	-0.754344	0.020591	40.2561	-0.753419	-1.046543E+10	-1.967494E-12	NaN
627	1.000000	0.412530	7.37119e+06	-45739.1	1005.82	-29771.4	0.000000	0.000000	6.412857	0.011538	NaN	0.000000	0.001707	0.001691	28.0827	0.054119	0.002037	26.5638	35.884	15.6814	0.097177	0.411194	-0.743082	-0.744418	0.011538	26.5638	-0.743408	-7.646529E+9	-1.508949E-12	NaN
627	1.000000	0.422558	7.37119e+06	-45739.1	1005.82	-29771.4	0.000000	0.000000	6.422879	-0.107801	NaN	0.000000	0.001716	0.001695	28.0823	0.046318	0.001939	23.8905	-113.165	-166.767	-0.100735	0.421226	-0.733054	-0.734386	-0.107801	23.8905	-0.729670	-4.969493E+9	2.169248E-11	NaN
627	1.000000	0.432589	7.37119e+06	-45739.1	1005.82	-29771.4	0.000000	0.000000	6.432915	0.020612	NaN	0.000000	0.001719	0.001699	28.0826	0.134260	0.002028	66.2054	-172.628	13.6283	-0.040681	0.431212	-0.723023	-0.724401	0.020612	66.2054	-0.723257	-4.063372E+9	-5.072737E-12	NaN
627	1.000000	0.442602	7.37119e+06	-45739.1	1005.82	-29771.4	0.000000	0.000000	6.442927	-0.018583	NaN	0.000000	0.001681	0.001707	28.0827	0.117721	0.002083	56.5171	-85.7373	-164.21	0.008696	0.441277	-0.713010	-0.714336	-0.018583	56.5171	-0.712763	-2.922498E+9	6.358493E-12	NaN
627	1.000000	0.452623	7.37119e+06	-45739.1	1005.82	-29771.4	0.000000	0.000000	6.452951	0.035708	NaN	0.000000	0.001666	0.001658	28.0827	0.117440	0.002013	58.3282	-179.608	15.2617	0.107358	0.451229	-0.702989	-0.704384	0.035708	58.3282	-0.703448	-2.180772E+9	-1.637412E-11	NaN
627	1.000000	0.462583	7.37119e+06	-45739.1	1005.82	-29771.4	0.000000	0.000000	6.462907	-0.044540	NaN	0.000000	0.001654	0.001683	28.0823	0.140676	0.002040	68.9446	-103.82	-165.479	-0.056522	0.461279	-0.693029	-0.694333	-0.044540	68.9446	-0.692545	-1.547713E+9	2.877763E-11	NaN
627	1.000000	0.472579	7.37119e+06	-45739.1	1005.82	-29771.4	0.000000	0.000000	6.472903	-0.048038	NaN	0.000000	0.001681	0.001639	28.0825	0.045527	0.002096	21.7223	-70.1657	16.9675	0.046633	0.471249	-0.683033	-0.684363	-0.048038	21.7223	-0.681375	-1.088951E+9	4.411414E-11	NaN
627	1.000000	0.482622	7.37119e+06	-45739.1	1005.82	-29771.4	0.000000	0.000000	6.482948	0.013208	NaN	0.000000	0.001672	0.001679	28.0816	0.012880	0.001987	6.481377	28.8816	-168.478	-0.002032	0.481310	-0.672991	-0.674302	0.013208	6.481377	-0.674519	-8.774655E+8	-1.505274E-11	NaN
627	1.000000	0.492626	7.37119e+06	-45739.1	1005.82	-29771.4	0.000000	0.000000	6.492952	0.002315	NaN	0.000000	0.001612	0.001695	28.0813	0.025593	0.001874	13.6553	54.7855	15.5165	0.007613	0.491267	-0.662986	-0.664345	0.002315	13.6553	-0.663114	-6.125073E+8	-3.778764E-12	NaN
627	1.000000	0.502621	7.37119e+06	-45739.1	1005.82	-29771.4	0.000000	0.000000	6.502948	0.026837	NaN	0.000000	0.001616	0.001665	28.0818	0.033998	0.001921	17.7011	155.537	-163.732	0.026678	0.501304	-0.652991	-0.654308	0.026837	17.7011	-0.654128	-4.613331E+8	-5.817190E-11	NaN
627	1.000000	0.512607	7.37119e+06	-45739.1	1005.82	-29771.4	0.000000	0.000000	6.512935	0.039547	NaN	0.000000	0.001606	0.001721	28.0812	0.047804	0.002181	21.9189	77.4425	14.9018	0.018354	0.511299	-0.643005	-0.644313	0.039547	21.9189	-0.644358	-3.389006E+8	-1.166920E-10	NaN
627	1.000000	0.522583	7.37119e+06	-45739.1	1005.82	-29771.4	0.000000	0.000000	6.522911	0.037211	NaN	0.000000	0.001585	0.001692	28.0811	0.108756	0.001938	56.1273	-90.5217	-168.356	0.031649	0.521349	-0.633029	-0.634264	0.037211	56.1273	-0.633526	-2.406780E+8	-1.546094E-10	NaN
627	1.000000	0.532626	7.37119e+06	-45739.1	1005.82	-29771.4	0.000000	0.000000	6.532952	0.004753	NaN	0.000000	0.001592	0.001688	28.0813	0.046652	0.002041	22.8602	-83.2315	15.2365	0.045194	0.531285	-0.622986	-0.624327	0.004753	22.8602	-0.623142	-1.733049E+8	-2.742618E-11	NaN
627	1.000000	0.542624	7.37119e+06	-45739.1	1005.82	-29771.4	0.000000	0.000000	6.542950	0.009771	NaN	0.000000	0.001586	0.001735	28.0812	0.064626	0.002031	31.812	44.5264	-164.595	-0.094965	0.541260	-0.612989	-0.614353	0.009771	31.812	-0.613219	-1.265887E+8	-7.718785E-11	NaN
627	1.000000	0.552647	7.37119e+06	-45739.1	1005.82	-29771.4	0.000000	0.000000	6.552973	0.001850	NaN	0.000000	0.001629	0.001708	28.0812	0.020591	0.002058	10.0047	-17.4705	14.0231	-0.018461	0.551261	-0.602965	-0.604351	0.001850	10.0047	-0.603104	-9.187569E+7	-2.013206E-11	NaN
627	1.000000	0.562613	7.37119e+06	-45739.1	1005.82	-29771.4	0.000000	0.000000	6.562941	0.042395	NaN	0.000000	0.001654	0.001699	28.0813	0.102729	0.002006	51.1982	-168.355	-165.014	0.029531	0.561290	-0.592999	-0.594322	0.042395	51.1982	-0.593620	-6.800875E+7	-6.233736E-10	NaN
627	1.000000	0.572621	7.37119e+06	-45739.1	1005.82	-29771.4	0.000000	0.000000	6.572949	0.040852	NaN	0.000000	0.001650	0.001739	28.0811	0.091816	0.002073	44.3004	139.747	15.4859	-0.067227	0.571300	-0.582991	-0.584313	0.040852	44.3004	-0.583682	-4.960652E+7	-8.235180E-10	NaN
627	1.000000	0.582652	7.37119e+06	-45739.1	1005.82	-29771.4	0.000000	0.000000	6.582977	-0.023246	NaN	0.000000	0.001637	0.001656	28.0811	0.072589	0.001967	36.9002	168.49	-170.583	-0.027809	0.581343	-0.572960	-0.574269	-0.023246	36.9002	-0.572487	-3.475309E+7	6.688934E-10	NaN
627	1.000000	0.592636	7.37119e+06	-45739.1	1005.82	-29771.4	0.000000	0.000000	6.592965	0.079663	NaN	0.000000	0.001647	0.001674	28.0812	0.079465	0.002123	37.4335	151.07	11.9969	-0.022116	0.591266	-0.562976	-0.564346	0.079663	37.4335	-0.564572	-2.701511E+7	-2.948827E-9	NaN
627	1.000000	0.602644	7.37119e+06	-45739.1	1005.82	-29771.4	0.000000	0.000000	6.602970	0.008997	NaN	0.000000	0.001590	0.001698	28.0812	0.071557	0.001894	37.7842	67.5948	-164.382	0.082975	0.601316	-0.552969	-0.554296	0.008997	37.7842	-0.553147	-1.877324E+7	-4.792543E-10	NaN
627	1.000000	0.612658	7.37119e+06	-45739.1	1005.82	-29771.4	0.000000	0.000000	6.612984	0.006566	NaN	0.000000	0.001629	0.001694	28.081	0.085009	0.001969	43.1824	-81.0192	13.1486	-0.055118	0.611281	-0.542954	-0.544331	0.006566	43.1824	-0.543068	-1.361121E+7	-4.823822E-10	NaN
627	1.000000	0.622656	7.37119e+06	-45739.1	1005.82	-29771.4	0.000000	0.000000	6.622985	0.075386	NaN	0.000000	0.001654	0.001645	28.0823	0.123744	0.001977	62.5933	179.538	-165.223	0.072152	0.621359	-0.532956	-0.534253	0.075386	62.5933	-0.533859	-1.014279E+7	-7.432454E-9	NaN
627	1.000000	0.632681	7.37119e+06	-45739.1	1005.82	-29771.4	0.000000	0.000000	6.633009	0.042338	NaN	0.000000	0.001642	0.001675	28.0823	0.036656	0.001910	19.1867	31.9036	13.0868	0.042040	0.631322	-0.522931	-0.524290	0.042338	19.1867	-0.524586	-7.53979e+06	-5.615287E-9	NaN
627	1.000000	0.642666	7.37119e+06	-45739.1	1005.82	-29771.4	0.000000	0.000000	6.642993	0.037625	NaN	0.000000	0.001671	0.001677	28.0823	0.077712	0.002001	38.8339	-143.734	-167.426	0.041802	0.641326	-0.512947	-0.514286	0.037625	38.8339	-0.513673	-5.31574e+06	-7.078089E-9	NaN
627	1.000000	0.652704	7.37119e+06	-45739.1	1005.82	-29771.4	0.000000	0.000000	6.653028	-0.029832	NaN	0.000000	0.001647	0.001687	28.0822	0.064602	0.001900	33.9932	-74.5161	16.9313	0.034302	0.651372	-0.502908	-0.504240	-0.029832	33.9932	-0.502250	-3.68473e+06	8.096234E-9	NaN
627	1.000000	0.662686	7.37119e+06	-45739.1	1005.82	-29771.4	0.000000	0.000000	6.663011	-0.036775	NaN	0.000000	0.001663	0.001641	28.0822	0.041733	0.002101	19.8594	133.085	-164.545	-0.031390	0.661361	-0.492926	-0.494252	-0.036775	19.8594	-0.491537	-2.61137e+06	1.408281E-8	NaN
627	1.000000	0.672678	7.37119e+06	-45739.1	1005.82	-29771.4	0.000000	0.000000	6.673005	0.013018	NaN	0.000000	0.001661	0.001709	28.0824	0.075026	0.001991	37.69	-103.714	14.658	-0.000909	0.671309	-0.482934	-0.484303	0.013018	37.69	-0.483193	-1.99623e+06	-6.521304E-9	NaN
627	1.000000	0.682695	7.37119e+06	-45739.1	1005.82	-29771.4	0.000000	0.000000	6.683022	0.028274	NaN	0.000000	0.001657	0.001690	28.0824	0.130674	0.002044	63.9454	-127.597	-167.034	0.023187	0.681403	-0.472917	-0.474210	0.028274	63.9454	-0.473249	-1.44865e+06	-1.951761E-8	NaN
627	1.000000	0.692686	7.37119e+06	-45739.1	1005.82	-29771.4	0.000000	0.000000	6.693013	0.032365	NaN	0.000000	0.001653	0.001643	28.0821	0.129507	0.001928	67.163	131.28	11.6278	0.046527	0.691359	-0.462926	-0.464253	0.032365	67.163	-0.463287	-1.05003e+06	-3.082312E-8	NaN
627	1.000000	0.702710	7.37119e+06	-45739.1	1005.82	-29771.4	0.000000	0.000000	6.703037	0.010844	NaN	0.000000	0.001637	0.001660	28.0822	0.082814	0.001951	42.4448	141.165	-165.766	0.005482	0.701366	-0.452902	-0.454246	0.010844	42.4448	-0.453094	-754905	-1.436525E-8	NaN
627	1.000000	0.712686	7.37119e+06	-45739.1	1005.82	-29771.4	0.000000	0.000000	6.713011	-0.021458	NaN	0.000000	0.001646	0.001690	28.0823	0.031956	0.002064	15.4819	-158.146	14.9573	-0.061561	0.711298	-0.442926	-0.444315	-0.021458	15.4819	-0.441886	-524784	4.088876E-8	NaN
627	1.000000	0.722708	7.37119e+06	-45739.1	1005.82	-29771.4	0.000000	0.000000	6.723036	0.031996	NaN	0.000000	0.001645	0.001631	28.0823	0.118561	0.001955	60.6315	-125.035	-164.263	0.018811	0.721323	-0.432904	-0.434289	0.031996	60.6315	-0.433299	-396936	-8.060682E-8	NaN
627	1.000000	0.732728	7.37119e+06	-45739.1	1005.82	-29771.4	0.000000	0.000000	6.733055	0.034187	NaN	0.000000	0.001615	0.001692	28.0824	0.089674	0.001966	45.617	-125.187	10.9826	0.005067	0.731345	-0.422884	-0.424267	0.034187	45.617	-0.423447	-287922	-1.187366E-7	NaN
627	1.000000	0.742721	7.37119e+06	-45739.1	1005.82	-29771.4	0.000000	0.000000	6.743050	0.063781	NaN	0.000000	0.001642	0.001651	28.0823	0.105292	0.002021	52.0864	-66.3007	-166.694	0.051989	0.741409	-0.412891	-0.414203	0.063781	52.0864	-0.413809	-210158	-3.034900E-7	NaN
627	1.000000	0.752719	7.37119e+06	-45739.1	1005.82	-29771.4	0.000000	0.000000	6.753046	0.042346	NaN	0.000000	0.001651	0.001681	28.0826	0.012301	0.001885	6.524487	-153.527	10.2041	0.068257	0.751335	-0.402894	-0.404277	0.042346	6.524487	-0.407761	-172407	-2.456137E-7	NaN
627	1.000000	0.762725	7.37119e+06	-45739.1	1005.82	-29771.4	0.000000	0.000000	6.763049	-0.038637	NaN	0.000000	0.001632	0.001697	28.0811	0.025894	0.002050	12.6323	-165.184	-166.675	-0.050106	0.761434	-0.392887	-0.394178	-0.038637	12.6323	-0.390593	-98096.6	3.938643E-7	NaN
627	1.000000	0.772708	7.37119e+06	-45739.1	1005.82	-29771.4	0.000000	0.000000	6.773036	0.066814	NaN	0.000000	0.001671	0.001638	28.0813	0.115438	0.001960	58.8952	7.039854	15.4138	0.049511	0.771389	-0.382904	-0.384223	0.066814	58.8952	-0.383755	-78297.2	-8.533399E-7	NaN
627	1.000000	0.782736	7.37119e+06	-45739.1	1005.82	-29771.4	0.000000	0.000000	6.783062	-0.005119	NaN	0.000000	0.001658	0.001657	28.0811	0.166566	0.001927	86.454	21.3728	-163.009	0.014987	0.781399	-0.372876	-0.374213	-0.005119	86.454	-0.372831	-54561	9.382588E-8	NaN
627	1.000000	0.792711	7.37119e+06	-45739.1	1005.82	-29771.4	0.000000	0.000000	6.793038	0.025424	NaN	0.000000	0.001657	0.001681	28.0811	0.103941	0.002059	50.4739	51.0967	15.8574	0.072643	0.791343	-0.362901	-0.364269	0.025424	50.4739	-0.363279	-39739.2	-6.397819E-7	NaN
627	1.000000	0.802743	7.37119e+06	-45739.1	1005.82	-29771.4	0.000000	0.000000	6.803070	0.022809	NaN	0.000000	0.001673	0.001665	28.0811	0.120150	0.002014	59.666	94.8486	-168.595	0.058365	0.801437	-0.352869	-0.354175	0.022809	59.666	-0.353156	-28364.7	-8.041385E-7	NaN
627	1.000000	0.812737	7.37119e+06	-45739.1	1005.82	-29771.4	0.000000	0.000000	6.813062	-0.007820	NaN	0.000000	0.001680	0.001666	28.081	0.037189	0.002064	18.0183	111.778	11.0225	0.037294	0.811431	-0.342875	-0.344181	-0.007820	18.0183	-0.342550	-19893	3.930803E-7	NaN
627	1.000000	0.822741	7.37119e+06	-45739.1	1005.82	-29771.4	0.000000	0.000000	6.823069	0.037584	NaN	0.000000	0.001672	0.001687	28.0812	0.083750	0.001877	44.6137	-47.6586	-164.405	0.003154	0.821371	-0.332871	-0.334241	0.037584	44.6137	-0.333503	-14679.2	-2.560336E-6	NaN
627	1.000000	0.832753	7.37119e+06	-45739.1	1005.82	-29771.4	0.000000	0.000000	6.833077	-0.027568	NaN	0.000000	0.001623	0.001642	28.0809	0.138915	0.002097	66.2598	164.803	17.7835	0.026002	0.831412	-0.322859	-0.324201	-0.027568	66.2598	-0.322547	-10141.6	2.718274E-6	NaN
627	1.000000	0.842759	7.37119e+06	-45739.1	1005.82	-29771.4	0.000000	0.000000	6.843085	-0.001115	NaN	0.000000	0.001638	0.001630	28.0811	0.012088	0.002089	5.786846	-109.024	-168.036	-0.045376	0.841407	-0.312853	-0.314205	-0.001115	5.786846	-0.312708	-7262.8	1.535881E-7	NaN
627	1.000000	0.852751	7.37119e+06	-45739.1	1005.82	-29771.4	0.000000	0.000000	6.853076	-0.013111	NaN	0.000000	0.001676	0.001626	28.081	0.070849	0.001936	36.5999	-125.487	14.3976	0.004443	0.851411	-0.302861	-0.304201	-0.013111	36.5999	-0.302593	-5142.81	2.549458E-6	NaN
627	1.000000	0.862749	7.37119e+06	-45739.1	1005.82	-29771.4	0.000000	0.000000	6.863074	-0.019784	NaN	0.000000	0.001678	0.001641	28.0814	0.069083	0.002057	33.591	-94.2133	-167.032	0.031260	0.861454	-0.292863	-0.294158	-0.019784	33.591	-0.292422	-3627.05	5.454690E-6	NaN
627	1.000000	0.872751	7.37119e+06	-45739.1	1005.82	-29771.4	0.000000	0.000000	6.873077	0.003367	NaN	0.000000	0.001649	0.001657	28.0811	0.070160	0.001903	36.866	-86.3545	15.8946	-0.077168	0.871398	-0.282861	-0.284214	0.003367	36.866	-0.282929	-2612.85	-1.288638E-6	NaN
627	1.000000	0.882810	7.37119e+06	-45739.1	1005.82	-29771.4	0.000000	0.000000	6.883137	0.033320	NaN	0.000000	0.001677	0.001610	28.0811	0.042322	0.002088	20.2717	-7.153534	-163.123	0.006530	0.881409	-0.272802	-0.274203	0.033320	20.2717	-0.274035	-1917.7	-1.737518E-5	NaN
627	1.000000	0.892778	7.37119e+06	-45739.1	1005.82	-29771.4	0.000000	0.000000	6.893104	0.020900	NaN	0.000000	0.001671	0.001705	28.0818	0.063280	0.001940	32.6162	123.991	13.8002	0.023466	0.891404	-0.262834	-0.264208	0.020900	32.6162	-0.263315	-1317.21	-1.586677E-5	NaN
627	1.000000	0.902757	7.37119e+06	-45739.1	1005.82	-29771.4	0.000000	0.000000	6.903081	-0.045066	NaN	0.000000	0.001660	0.001656	28.0825	0.051289	0.002011	25.5078	-156.553	-168.356	-0.020394	0.901466	-0.252855	-0.254146	-0.045066	25.5078	-0.251530	-868.173	5.190849E-5	NaN
627	1.000000	0.912792	7.37119e+06	-45739.1	1005.82	-29771.4	0.000000	0.000000	6.913116	-0.040807	NaN	0.000000	0.001632	0.001690	28.0822	0.048338	0.002025	23.8651	63.8572	14.1386	-0.017896	0.911418	-0.242820	-0.244194	-0.040807	23.8651	-0.241538	-607.505	6.717161E-5	NaN
627	1.000000	0.922793	7.37119e+06	-45739.1	1005.82	-29771.4	0.000000	0.000000	6.923120	0.025271	NaN	0.000000	0.001656	0.001691	28.0822	0.039868	0.001944	20.5062	6.797046	-167.747	0.061967	0.921502	-0.232819	-0.234110	0.025271	20.5062	-0.233743	-458.668	-5.509736E-5	NaN
627	1.000000	0.932795	7.37119e+06	-45739.1	1005.82	-29771.4	0.000000	0.000000	6.933121	-0.008940	NaN	0.000000	0.001589	0.001710	28.0824	0.067687	0.001986	34.083	123.127	12.4342	0.000376	0.931397	-0.222817	-0.224215	-0.008940	34.083	-0.222620	-305.833	2.923150E-5	NaN
627	1.000000	0.942771	7.37119e+06	-45739.1	1005.82	-29771.4	0.000000	0.000000	6.943094	-0.076573	NaN	0.000000	0.001608	0.001719	28.0825	0.157765	0.001936	81.4828	64.3142	-166.57	-0.062946	0.941464	-0.212841	-0.214148	-0.076573	81.4828	-0.212136	-207.666	0.000369	NaN
627	1.000000	0.952770	7.37119e+06	-45739.1	1005.82	-29771.4	0.000000	0.000000	6.953097	0.023841	NaN	0.000000	0.001638	0.001689	28.0824	0.063895	0.002133	29.9609	32.2625	12.9352	-0.011844	0.951440	-0.202842	-0.204172	0.023841	29.9609	-0.203439	-149.99	-0.000159	NaN
627	1.000000	0.962784	7.37119e+06	-45739.1	1005.82	-29771.4	0.000000	0.000000	6.963110	0.006462	NaN	0.000000	0.001669	0.001706	28.0824	0.103241	0.002074	49.7756	-94.0637	-166.336	0.034451	0.961491	-0.192828	-0.194121	0.006462	49.7756	-0.192925	-100.641	-6.420789E-5	NaN
627	1.000000	0.972813	7.37119e+06	-45739.1	1005.82	-29771.4	0.000000	0.000000	6.973140	0.024614	NaN	0.000000	0.001650	0.001666	28.0825	0.008549	0.001993	4.290191	-43.4021	18.6341	0.075129	0.971459	-0.182799	-0.184153	0.024614	4.290191	-0.187102	-80.4441	-0.000306	NaN
627	1.000000	0.982840	7.37119e+06	-45739.1	1005.82	-29771.4	0.000000	0.000000	6.983168	0.045228	NaN	0.000000	0.001644	0.001705	28.0823	0.028051	0.001992	14.0847	157.844	-161.194	-0.027564	0.981557	-0.172772	-0.174055	0.045228	14.0847	-0.175181	-50.4759	-0.000896	NaN
627	1.000000	0.992803	7.37119e+06	-45739.1	1005.82	-29771.4	0.000000	0.000000	6.993128	-0.034537	NaN	0.000000	0.001591	0.001684	28.0823	0.087848	0.002038	43.1097	29.9181	14.5748	-0.024798	0.991415	-0.162809	-0.164198	-0.034537	43.1097	-0.162208	-29.9999	0.001151	NaN
627	1.000000	1.002830	7.37119e+06	-45739.1	1005.82	-29771.4	0.000000	0.000000	7.003156	0.008998	NaN	0.000000	0.001602	0.001680	28.0823	0.064047	0.001872	34.2081	-151.618	-164.865	0.037855	1.001502	-0.152783	-0.154110	0.008998	34.2081	-0.152980	-20.5178	-0.000439	NaN
627	1.000000	1.012838	7.37119e+06	-45739.1	1005.82	-29771.4	0.000000	0.000000	7.013168	0.101900	NaN	0.000000	0.001569	0.001644	28.0824	0.034119	0.001907	17.8884	159.793	13.3856	0.013729	1.011477	-0.142775	-0.144135	0.101900	17.8884	-0.147047	-15.9927	-0.006372	NaN
627	1.000000	1.022836	7.37119e+06	-45739.1	1005.82	-29771.4	0.000000	0.000000	7.023162	-0.012603	NaN	0.000000	0.001614	0.001663	28.0823	0.072130	0.001981	36.4138	-66.6897	-165.163	-0.033483	1.021506	-0.132776	-0.134107	-0.012603	36.4138	-0.132516	-8.524574	0.001478	NaN
627	1.000000	1.032817	7.37119e+06	-45739.1	1005.82	-29771.4	0.000000	0.000000	7.033144	0.033181	NaN	0.000000	0.001570	0.001649	28.0811	0.075149	0.002117	35.4903	-136.472	15.4263	-0.059920	1.031477	-0.122795	-0.124136	0.033181	35.4903	-0.123496	-5.677420	-0.005844	NaN
627	1.000000	1.042827	7.37119e+06	-45739.1	1005.82	-29771.4	0.000000	0.000000	7.043153	0.007216	NaN	0.000000	0.001598	0.001665	28.0812	0.099849	0.001925	51.8652	156.987	-170.241	0.078220	1.041491	-0.112786	-0.114121	0.007216	51.8652	-0.112890	-3.454665	-0.002089	NaN
627	1.000000	1.052858	7.37119e+06	-45739.1	1005.82	-29771.4	0.000000	0.000000	7.053181	-0.063908	NaN	0.000000	0.001550	0.001697	28.0814	0.072694	0.001868	38.9079	61.5428	12.5469	-0.021044	1.051522	-0.102754	-0.104090	-0.063908	38.9079	-0.101522	-1.974148	0.032372	NaN
627	1.000000	1.062875	7.37119e+06	-45739.1	1005.82	-29771.4	0.000000	0.000000	7.063199	-0.029956	NaN	0.000000	0.001570	0.001668	28.0811	0.081430	0.002019	40.3277	-42.9045	-163.739	0.016774	1.061557	-0.092737	-0.094055	-0.029956	40.3277	-0.092180	-1.215185	0.024651	NaN
627	1.000000	1.072828	7.37119e+06	-45739.1	1005.82	-29771.4	0.000000	0.000000	7.073152	-0.033811	NaN	0.000000	0.001550	0.001677	28.0813	0.103132	0.002104	49.0114	128.84	17.3708	-0.038594	1.071477	-0.082784	-0.084135	-0.033811	49.0114	-0.082267	-0.704603	0.047986	NaN
627	1.000000	1.082855	7.37119e+06	-45739.1	1005.82	-29771.4	0.000000	0.000000	7.083179	-0.034910	NaN	0.000000	0.001582	0.001649	28.0811	0.084155	0.002036	41.3427	36.9304	-167.559	-0.034799	1.081547	-0.072757	-0.074065	-0.034910	41.3427	-0.072124	-0.388475	0.089865	NaN
627	1.000000	1.092878	7.37119e+06	-45739.1	1005.82	-29771.4	0.000000	0.000000	7.093204	0.018521	NaN	0.000000	0.001529	0.001678	28.0813	0.060023	0.001978	30.3416	102.612	12.737	-0.004663	1.091556	-0.062735	-0.064056	0.018521	30.3416	-0.063192	-0.221882	-0.083474	NaN
627	1.000000	1.102835	7.37119e+06	-45739.1	1005.82	-29771.4	0.000000	0.000000	7.103162	0.015016	NaN	0.000000	0.001574	0.001656	28.0812	0.044612	0.001950	22.8821	-42.1185	-163.574	0.060604	1.101597	-0.052777	-0.054015	0.015016	22.8821	-0.053269	-0.114404	-0.131251	NaN
627	1.000000	1.112871	7.37119e+06	-45739.1	1005.82	-29771.4	0.000000	0.000000	7.113195	-0.040108	NaN	0.000000	0.001561	0.001664	28.0813	0.085495	0.002086	40.9811	-114.756	17.4156	-0.076645	1.111467	-0.042741	-0.044145	-0.040108	40.9811	-0.042007	-0.052057	0.770452	NaN
627	1.000000	1.122851	7.37119e+06	-45739.1	1005.82	-29771.4	0.000000	0.000000	7.123176	-0.018745	NaN	0.000000	0.001585	0.001677	28.0815	0.111124	0.001953	56.9099	-79.6985	-162.869	0.048962	1.121537	-0.032762	-0.034075	-0.018745	56.9099	-0.032515	-0.027111	0.691413	NaN
627	1.000000	1.132875	7.37119e+06	-45739.1	1005.82	-29771.4	0.000000	0.000000	7.133198	-0.053522	NaN	0.000000	0.001549	0.001661	28.0813	0.136688	0.002019	67.7135	-56.5284	13.1396	-0.055580	1.131507	-0.022738	-0.024105	-0.053522	67.7135	-0.022145	-0.014242	3.758138	NaN
627	1.000000	1.142859	7.37119e+06	-45739.1	1005.82	-29771.4	0.000000	0.000000	7.143185	0.004570	NaN	0.000000	0.001592	0.001654	28.0811	0.054022	0.002001	27.0026	107.335	-167.225	-0.046076	1.141616	-0.012753	-0.013996	0.004570	27.0026	-0.012880	-0.008033	-0.568951	NaN
627	1.000000	1.152860	7.37119e+06	-45739.1	1005.82	-29771.4	0.000000	0.000000	7.153223	0.895011	NaN	0.000000	0.001609	0.001668	28.0813	1.360914	0.001990	683.79	10.2727	10.2721	0.210032	1.151489	-0.002752	-0.004123	0.895011	683.79	-0.003734	-0.002606	-343.475	NaN
627	2.000000	1.161435	7.37119e+06	-45739.1	1005.82	-29771.4	0.000000	0.000000	7.162147	9.407265	NaN	0.000000	0.001619	0.001640	28.0814	9.320763	0.001608	5798.24	4.604877	-168.602	10.0215	1.161038	0.005823	0.005426	9.407265	5798.24	0.004606	0.003776	2491.06	86204.5
627	2.000000	1.163950	7.37119e+06	-45739.1	1005.82	-29771.4	0.000000	0.000000	7.164802	12.8045	NaN	0.000000	0.001571	0.001632	28.0825	11.5959	0.001640	7072.6	10.9398	4.201585	12.717	1.163537	0.008338	0.007925	12.8045	7072.6	0.006980	0.006014	2129.12	83324.1
627	2.000000	1.166349	7.37119e+06	-45739.1	1005.82	-29771.4	0.000000	0.000000	7.167298	15.1579	NaN	0.000000	0.001587	0.001692	28.0823	14.3276	0.001654	8660.39	8.047569	-175.598	15.2021	1.166114	0.010737	0.010502	15.1579	8660.39	0.009424	0.008548	1773.2	85579.7
627	2.000000	1.168890	7.37119e+06	-45739.1	1005.82	-29771.4	0.000000	0.000000	7.170014	19.4009	NaN	0.000000	0.001598	0.001686	28.0825	17.3532	0.001828	9491.84	6.881803	6.099184	19.7153	1.168504	0.013278	0.012892	19.4009	9491.84	0.011745	0.011186	1734.33	81993.3
627	2.000000	1.171394	7.37119e+06	-45739.1	1005.82	-29771.4	0.000000	0.000000	7.172687	23.5483	NaN	0.000000	0.001640	0.001634	28.0825	19.6283	0.001685	11646.1	6.066142	-176.839	24.6115	1.171079	0.015781	0.015467	23.5483	11646.1	0.014265	0.014318	1644.7	88923.6
627	2.000000	1.173851	7.37119e+06	-45739.1	1005.82	-29771.4	0.000000	0.000000	7.175446	30.8674	NaN	0.000000	0.001577	0.001644	28.0824	21.4765	0.001789	12007.6	3.695947	6.630064	29.8622	1.173464	0.018239	0.017852	30.8674	12007.6	0.016311	0.017074	1807.91	83959.1
627	2.000000	1.176346	7.37119e+06	-45739.1	1005.82	-29771.4	0.000000	0.000000	7.178063	33.8347	NaN	0.000000	0.001584	0.001668	28.0822	24.0744	0.001744	13803.5	4.664895	-177.981	33.4888	1.176047	0.020734	0.020435	33.8347	13803.5	0.018896	0.020836	1623.82	87367.6
627	2.000000	1.178864	7.37119e+06	-45739.1	1005.82	-29771.4	0.000000	0.000000	7.180730	37.4566	NaN	0.000000	0.001595	0.001658	28.0825	27.1465	0.001871	14506.6	3.753046	2.978264	37.2675	1.178487	0.023252	0.022875	37.4566	14506.6	0.021315	0.024651	1519.45	84414.6
627	2.000000	1.181349	7.37119e+06	-45739.1	1005.82	-29771.4	0.000000	0.000000	7.183639	47.7949	NaN	0.000000	0.001586	0.001677	28.0824	29.6416	0.001863	15914.3	4.860098	-178.747	48.0473	1.181016	0.025737	0.025404	47.7949	15914.3	0.023484	0.028316	1687.93	86406.6
627	2.000000	1.183840	7.37119e+06	-45739.1	1005.82	-29771.4	0.000000	0.000000	7.186445	55.4521	NaN	0.000000	0.001608	0.001658	28.0822	31.6289	0.001845	17139.6	5.431610	0.730209	54.0349	1.183485	0.028228	0.027872	55.4521	17139.6	0.025801	0.032490	1706.77	86876.6
627	2.000000	1.186289	7.37119e+06	-45739.1	1005.82	-29771.4	0.000000	0.000000	7.189206	63.0526	NaN	0.000000	0.001583	0.001665	28.0822	34.479	0.001886	18281.1	6.775690	178.875	62.3467	1.185984	0.030677	0.030372	63.0526	18281.1	0.028090	0.036877	1709.79	86975.2
627	2.000000	1.188766	7.37119e+06	-45739.1	1005.82	-29771.4	0.000000	0.000000	7.191943	69.3536	NaN	0.000000	0.001578	0.001659	28.0827	37.0359	0.001844	20081.2	4.863587	-0.495357	66.4882	1.188492	0.033154	0.032880	69.3536	20081.2	0.030563	0.041919	1654.45	89609.6
627	2.000000	1.191266	7.37119e+06	-45739.1	1005.82	-29771.4	0.000000	0.000000	7.194813	78.3643	NaN	0.000000	0.001611	0.001651	28.0822	39.6402	0.001730	22914.1	5.965815	177.122	77.462	1.191069	0.035654	0.035457	78.3643	22914.1	0.033089	0.047389	1653.63	96169.4
627	2.000000	1.193868	7.37119e+06	-45739.1	1005.82	-29771.4	0.000000	0.000000	7.197883	89.7339	NaN	0.000000	0.001588	0.001619	28.0823	41.7098	0.001892	22049.7	7.685931	-3.524482	88.843	1.193461	0.038256	0.037848	89.7339	22049.7	0.035204	0.052222	1718.31	88155.1
627	2.000000	1.196246	7.37119e+06	-45739.1	1005.82	-29771.4	0.000000	0.000000	7.200675	99.8261	NaN	0.000000	0.001582	0.001613	28.0813	44.1487	0.001811	24381.1	3.180578	179.364	96.6215	1.195929	0.040634	0.040317	99.8261	24381.1	0.037563	0.057882	1724.66	92588.2
627	2.000000	1.198791	7.37119e+06	-45739.1	1005.82	-29771.4	0.000000	0.000000	7.203558	108.053	NaN	0.000000	0.001547	0.001670	28.0815	46.101	0.001797	25660.3	-0.753083	2.121979	104.894	1.198471	0.043179	0.042859	108.053	25660.3	0.040020	0.064081	1686.2	92612.4
627	2.000000	1.201349	7.37119e+06	-45739.1	1005.82	-29771.4	0.000000	0.000000	7.206522	117.904	NaN	0.000000	0.001583	0.001667	28.0811	49.784	0.001886	26395.3	4.993119	176.555	119.556	1.200935	0.045737	0.045323	117.904	26395.3	0.042387	0.070343	1676.14	90926.4
627	2.000000	1.203859	7.37119e+06	-45739.1	1005.82	-29771.4	0.000000	0.000000	7.209495	129.175	NaN	0.000000	0.001624	0.001640	28.0811	50.8437	0.001716	29624.7	7.129014	-5.884219	132.027	1.203413	0.048247	0.047801	129.175	29624.7	0.044977	0.077522	1666.3	97210.7
627	2.000000	1.206234	7.37119e+06	-45739.1	1005.82	-29771.4	0.000000	0.000000	7.212329	140.349	NaN	0.000000	0.001578	0.001630	28.0811	51.9911	0.001712	30368.7	0.503441	179.579	137.651	1.205982	0.050622	0.050370	140.349	30368.7	0.047156	0.083824	1674.32	95832.9
627	2.000000	1.208747	7.37119e+06	-45739.1	1005.82	-29771.4	0.000000	0.000000	7.215379	153.387	NaN	0.000000	0.001617	0.001609	28.0814	55.6447	0.001757	31677.5	2.426269	-2.605752	150.206	1.208433	0.053135	0.052821	153.387	31677.5	0.049504	0.090885	1687.71	96001.5
627	2.000000	1.211261	7.37119e+06	-45739.1	1005.82	-29771.4	0.000000	0.000000	7.218578	170.081	NaN	0.000000	0.001615	0.001633	28.0807	59.1695	0.001869	31651.3	4.249780	176.363	170.019	1.210850	0.055648	0.055237	170.081	31651.3	0.051618	0.097481	1744.76	92620.1
627	2.000000	1.213729	7.37119e+06	-45739.1	1005.82	-29771.4	0.000000	0.000000	7.221510	181.344	NaN	0.000000	0.001588	0.001653	28.0811	60.9418	0.001803	33795.3	6.375585	-6.436999	176.21	1.213348	0.058117	0.057736	181.344	33795.3	0.054093	0.105482	1719.2	95069.4
627	2.000000	1.216322	7.37119e+06	-45739.1	1005.82	-29771.4	0.000000	0.000000	7.224590	193.189	NaN	0.000000	0.001578	0.001657	28.0811	61.943	0.001656	37398.1	2.075070	176.864	194.411	1.216056	0.060710	0.060444	193.189	37398.1	0.056836	0.114707	1684.19	100885
627	2.000000	1.218761	7.37119e+06	-45739.1	1005.82	-29771.4	0.000000	0.000000	7.227705	209.646	NaN	0.000000	0.001572	0.001751	28.0815	65.8924	0.001743	37794	7.396207	-9.017242	207.656	1.218440	0.063148	0.062828	209.646	37794	0.058988	0.122205	1715.53	98776.2
627	2.000000	1.221279	7.37119e+06	-45739.1	1005.82	-29771.4	0.000000	0.000000	7.230734	222.081	NaN	0.000000	0.001596	0.001676	28.0811	67.9747	0.001799	37776.9	2.685623	176.328	222.693	1.221002	0.065667	0.065390	222.081	37776.9	0.061258	0.130356	1703.65	95594.7
627	2.000000	1.223775	7.37119e+06	-45739.1	1005.82	-29771.4	0.000000	0.000000	7.234051	242.031	NaN	0.000000	0.001599	0.001673	28.081	69.5662	0.001770	39301.9	4.337695	-5.202684	239.813	1.223272	0.068163	0.067659	242.031	39301.9	0.063544	0.138824	1743.43	96372.7
627	2.000000	1.226221	7.37119e+06	-45739.1	1005.82	-29771.4	0.000000	0.000000	7.236998	254.247	NaN	0.000000	0.001602	0.001649	28.081	71.5133	0.001790	39947.8	2.752977	175.74	252.305	1.225936	0.070609	0.070324	254.247	39947.8	0.065835	0.147561	1722.99	95012.3
627	2.000000	1.228710	7.37119e+06	-45739.1	1005.82	-29771.4	0.000000	0.000000	7.240092	268.948	NaN	0.000000	0.001613	0.001674	28.0812	75.0491	0.001869	40145.3	3.054691	-4.232066	265.017	1.228353	0.073098	0.072741	268.948	40145.3	0.068074	0.156341	1720.27	92762.4
627	2.000000	1.231281	7.37119e+06	-45739.1	1005.82	-29771.4	0.000000	0.000000	7.243023	277.717	NaN	0.000000	0.001595	0.001637	28.0823	78.2855	0.001874	41785.4	7.777837	170.443	280.997	1.231008	0.075669	0.075396	277.717	41785.4	0.070684	0.166883	1664.14	93452.6
627	2.000000	1.233763	7.37119e+06	-45739.1	1005.82	-29771.4	0.000000	0.000000	7.246488	301.614	NaN	0.000000	0.001598	0.001648	28.0823	78.6255	0.001815	43329.5	4.040178	-5.329457	299.171	1.233463	0.078151	0.077851	301.614	43329.5	0.072930	0.176213	1711.65	94305.7
627	2.000000	1.236303	7.37119e+06	-45739.1	1005.82	-29771.4	0.000000	0.000000	7.249559	314.55	NaN	0.000000	0.001600	0.001641	28.0824	81.8235	0.001752	46700.8	5.444999	171.669	316.345	1.235934	0.080691	0.080322	314.55	46700.8	0.075639	0.187780	1675.1	98462.8
627	2.000000	1.238692	7.37119e+06	-45739.1	1005.82	-29771.4	0.000000	0.000000	7.252716	333.227	NaN	0.000000	0.001600	0.001657	28.0822	83.9336	0.001883	44570.1	3.229233	-5.513080	327.808	1.238416	0.083080	0.082804	333.227	44570.1	0.077473	0.195807	1701.81	92024.2
627	2.000000	1.241258	7.37119e+06	-45739.1	1005.82	-29771.4	0.000000	0.000000	7.256096	353.044	NaN	0.000000	0.001559	0.001655	28.0825	86.0436	0.001933	44510.1	2.328449	175.758	352.676	1.240946	0.085645	0.085333	353.044	44510.1	0.079697	0.205754	1715.86	89651.5
627	2.000000	1.243662	7.37119e+06	-45739.1	1005.82	-29771.4	0.000000	0.000000	7.259269	371.736	NaN	0.000000	0.001560	0.001640	28.0823	86.7411	0.001836	47238.4	1.981466	-4.436933	365.557	1.243391	0.088050	0.087779	371.736	47238.4	0.082148	0.216983	1713.2	92652.1
627	2.000000	1.246317	7.37119e+06	-45739.1	1005.82	-29771.4	0.000000	0.000000	7.262771	392.327	NaN	0.000000	0.001604	0.001642	28.0825	89.104	0.001714	51995	7.300137	169.295	395.91	1.245827	0.090705	0.090215	392.327	51995	0.085046	0.230620	1701.19	98920.5
627	2.000000	1.248821	7.37119e+06	-45739.1	1005.82	-29771.4	0.000000	0.000000	7.266282	416.824	NaN	0.000000	0.001581	0.001649	28.0823	90.5494	0.001664	54416.6	4.075634	-7.143982	418.963	1.248276	0.093209	0.092664	416.824	54416.6	0.087464	0.242297	1720.3	101002
627	2.000000	1.251270	7.37119e+06	-45739.1	1005.82	-29771.4	0.000000	0.000000	7.269208	428.437	NaN	0.000000	0.001600	0.001655	28.0825	94.36	0.001796	52551.1	4.080484	172.453	430.18	1.250996	0.095658	0.095384	428.437	52551.1	0.089543	0.252550	1696.44	95539.2
627	2.000000	1.253702	7.37119e+06	-45739.1	1005.82	-29771.4	0.000000	0.000000	7.272870	458.358	NaN	0.000000	0.001564	0.001644	28.0823	95.5971	0.001857	51483.1	2.437790	-5.415827	452.105	1.253381	0.098089	0.097769	458.358	51483.1	0.091412	0.261936	1749.88	91905.1
627	2.000000	1.256221	7.37119e+06	-45739.1	1005.82	-29771.4	0.000000	0.000000	7.276248	479.247	NaN	0.000000	0.001568	0.001628	28.0827	98.8948	0.001798	54987.8	5.244951	171.533	479.812	1.255845	0.100609	0.100233	479.247	54987.8	0.094073	0.275574	1739.08	95701.8
627	2.000000	1.258812	7.37119e+06	-45739.1	1005.82	-29771.4	0.000000	0.000000	7.279127	486.255	NaN	0.000000	0.001593	0.001613	28.0822	101.94	0.001874	54401.3	3.622312	-6.998788	488.577	1.258545	0.103200	0.102933	486.255	54401.3	0.096496	0.288277	1686.76	92571.5
627	2.000000	1.259175	7.37119e+06	-45739.1	1005.82	-29771.4	0.000000	0.000000	7.279665	490.512	NaN	0.000000	0.001621	0.001597	28.0823	102.389	0.001774	57706.3	6.666885	169.064	487.026	1.258963	0.103563	0.103351	490.512	57706.3	0.097187	0.291952	1680.12	97575.5