File: remote_trans/data/nanoindenter/0828-1/data/Data_2025-08-06,11h17m57s/2025-07-22_16-23-58_1_1024.txt
2025-07-22, 16:23:58, 1
Index	Phase	Displacement	Time	Pos X	Pos Y	Pos Z	Rot A	Rot B	Piezo Z	Force A	Force B	Gripper	Voltage A	Voltage B	Temperature	Amplitude force	Amplitude pos	Stiffness	Phase shift	Phase excitation	Force A raw	Displacement raw	HMax	HMax raw	Real Force	Real Stiffness	Contact Depth	Area	Hardness	Reduced Mod.
[#]	[#]	[um]	[s]	[um]	[um]	[um]	[m°]	[m°]	[um]	[uN]	[uN]	[V]	[V]	[V]	[°C]	[uN]	[um]	[N/m]	[°]	[°]	[uN]	[um]	[um]	[um]	[uN]	[N/m]	[um]	[um^2]	[MPa]	[MPa]
1024	1.000000	0.002347	7.37506e+06	-51339.1	1055.82	-29752.5	0.000000	0.000000	6.002773	-0.009612	NaN	0.000000	0.001671	0.001659	28.084	0.059605	0.000885	67.3547	-44.0692	-156.578	0.016607	0.001128	-1.138656	-1.139875	-0.009612	67.3547	-1.138549	-1.649237E+15	5.828358E-18	NaN
1024	1.000000	0.012410	7.37506e+06	-51339.1	1055.82	-29752.5	0.000000	0.000000	6.012838	0.028384	NaN	0.000000	0.001628	0.001670	28.0839	0.033729	0.001218	27.6986	-20.7363	7.691844	0.094553	0.010963	-1.128593	-1.130040	0.028384	27.6986	-1.129361	-1.241812E+15	-2.285722E-17	NaN
1024	1.000000	0.022315	7.37506e+06	-51339.1	1055.82	-29752.5	0.000000	0.000000	6.022742	0.012743	NaN	0.000000	0.001610	0.001626	28.0839	0.073127	0.001787	40.9206	165.828	-163.682	0.025038	0.020983	-1.118688	-1.120020	0.012743	40.9206	-1.118921	-8.994959E+14	-1.416731E-17	NaN
1024	1.000000	0.032334	7.37506e+06	-51339.1	1055.82	-29752.5	0.000000	0.000000	6.032760	-0.002841	NaN	0.000000	0.001613	0.001611	28.0836	0.067372	0.001837	36.6735	27.9937	14.2837	0.003110	0.030952	-1.108669	-1.110051	-0.002841	36.6735	-1.108611	-6.540977E+14	4.342738E-18	NaN
1024	1.000000	0.042307	7.37506e+06	-51339.1	1055.82	-29752.5	0.000000	0.000000	6.042734	0.022088	NaN	0.000000	0.001607	0.001601	28.0838	0.090997	0.001978	45.9976	173.687	-165.261	0.063604	0.040958	-1.098696	-1.100045	0.022088	45.9976	-1.099056	-4.868551E+14	-4.536822E-17	NaN
1024	1.000000	0.052331	7.37506e+06	-51339.1	1055.82	-29752.5	0.000000	0.000000	6.052757	0.010635	NaN	0.000000	0.001661	0.001612	28.0834	0.062603	0.001990	31.4525	-78.0586	14.4429	0.009222	0.050938	-1.088672	-1.090065	0.010635	31.4525	-1.088926	-3.559509E+14	-2.987683E-17	NaN
1024	1.000000	0.062305	7.37506e+06	-51339.1	1055.82	-29752.5	0.000000	0.000000	6.062732	0.006956	NaN	0.000000	0.001638	0.001608	28.0834	0.092227	0.001987	46.416	119.378	-164.876	0.015483	0.061007	-1.078698	-1.079997	0.006956	46.416	-1.078811	-2.603414E+14	-2.671739E-17	NaN
1024	1.000000	0.072300	7.37506e+06	-51339.1	1055.82	-29752.5	0.000000	0.000000	6.072726	-0.010195	NaN	0.000000	0.001617	0.001634	28.0833	0.058678	0.002092	28.0501	-3.919434	15.4605	-0.001990	0.070947	-1.068703	-1.070056	-0.010195	28.0501	-1.068430	-1.888435E+14	5.398556E-17	NaN
1024	1.000000	0.082353	7.37506e+06	-51339.1	1055.82	-29752.5	0.000000	0.000000	6.082778	-0.018296	NaN	0.000000	0.001617	0.001646	28.0836	0.159228	0.002002	79.5375	53.1105	-164.779	0.013847	0.081009	-1.058651	-1.059995	-0.018296	79.5375	-1.058478	-1.387934E+14	1.318210E-16	NaN
1024	1.000000	0.092335	7.37506e+06	-51339.1	1055.82	-29752.5	0.000000	0.000000	6.092763	0.028122	NaN	0.000000	0.001612	0.001607	28.0841	0.067623	0.001912	35.3684	-139.409	17.1816	0.059896	0.090935	-1.048668	-1.050068	0.028122	35.3684	-1.049264	-1.043573E+14	-2.694793E-16	NaN
1024	1.000000	0.102354	7.37506e+06	-51339.1	1055.82	-29752.5	0.000000	0.000000	6.102780	-0.013147	NaN	0.000000	0.001586	0.001641	28.0847	0.032501	0.001951	16.6628	-135.496	-163.979	0.011629	0.101075	-1.038649	-1.039928	-0.013147	16.6628	-1.038058	-7.376440E+13	1.782265E-16	NaN
1024	1.000000	0.112354	7.37506e+06	-51339.1	1055.82	-29752.5	0.000000	0.000000	6.112778	-0.075419	NaN	0.000000	0.001604	0.001637	28.0848	0.118560	0.001893	62.6325	-43.7675	15.7147	0.025989	0.111011	-1.028649	-1.029992	-0.075419	62.6325	-1.027746	-5.359906E+13	1.407090E-15	NaN
1024	1.000000	0.122353	7.37506e+06	-51339.1	1055.82	-29752.5	0.000000	0.000000	6.122781	0.028633	NaN	0.000000	0.001617	0.001659	28.0849	0.036405	0.002012	18.0954	31.9326	-166.696	-0.041576	0.121102	-1.018650	-1.019901	0.028633	18.0954	-1.019836	-4.195189E+13	-6.825092E-16	NaN
1024	1.000000	0.132344	7.37506e+06	-51339.1	1055.82	-29752.5	0.000000	0.000000	6.132768	-0.034125	NaN	0.000000	0.001573	0.001673	28.0848	0.063407	0.002043	31.0411	-146.37	16.5815	-0.086464	0.130992	-1.008660	-1.010012	-0.034125	31.0411	-1.007835	-2.892297E+13	1.179874E-15	NaN
1024	1.000000	0.142360	7.37506e+06	-51339.1	1055.82	-29752.5	0.000000	0.000000	6.142784	-0.066397	NaN	0.000000	0.001611	0.001588	28.0848	0.057122	0.001994	28.6508	-111.801	-162.252	0.005300	0.141006	-0.998643	-0.999997	-0.066397	28.6508	-0.996905	-2.061078E+13	3.221450E-15	NaN
1024	1.000000	0.152355	7.37506e+06	-51339.1	1055.82	-29752.5	0.000000	0.000000	6.152783	0.039793	NaN	0.000000	0.001593	0.001604	28.0847	0.048765	0.001950	25.011	-9.518853	11.5901	0.079831	0.151028	-0.988648	-0.989975	0.039793	25.011	-0.989841	-1.655668E+13	-2.403436E-15	NaN
1024	1.000000	0.162344	7.37506e+06	-51339.1	1055.82	-29752.5	0.000000	0.000000	6.162767	-0.083605	NaN	0.000000	0.001622	0.001621	28.0848	0.077798	0.001960	39.689	-15.629	-166.419	0.033662	0.161032	-0.978659	-0.979971	-0.083605	39.689	-0.977079	-1.114437E+13	7.501980E-15	NaN
1024	1.000000	0.172377	7.37506e+06	-51339.1	1055.82	-29752.5	0.000000	0.000000	6.172800	-0.068949	NaN	0.000000	0.001660	0.001584	28.0848	0.053250	0.002057	25.8872	-112.135	15.8552	-0.056360	0.170999	-0.968626	-0.970004	-0.068949	25.8872	-0.966629	-8.057916E+12	8.556644E-15	NaN
1024	1.000000	0.182376	7.37506e+06	-51339.1	1055.82	-29752.5	0.000000	0.000000	6.182804	0.024175	NaN	0.000000	0.001631	0.001625	28.085	0.089829	0.002155	41.678	-137.658	-163.945	0.005057	0.181038	-0.958627	-0.959965	0.024175	41.678	-0.959062	-6.371191E+12	-3.794369E-15	NaN
1024	1.000000	0.192371	7.37506e+06	-51339.1	1055.82	-29752.5	0.000000	0.000000	6.192797	0.000503	NaN	0.000000	0.001614	0.001650	28.0848	0.122779	0.002023	60.6821	-22.0776	16.5938	-0.055032	0.190989	-0.948632	-0.950014	0.000503	60.6821	-0.948639	-4.609642E+12	-1.092254E-16	NaN
1024	1.000000	0.202370	7.37506e+06	-51339.1	1055.82	-29752.5	0.000000	0.000000	6.202799	0.068922	NaN	0.000000	0.001635	0.001617	28.0847	0.080033	0.001964	40.751	-178.463	-165.161	0.003730	0.201057	-0.938633	-0.939946	0.068922	40.751	-0.939902	-3.514096E+12	-1.961311E-14	NaN
1024	1.000000	0.212391	7.37507e+06	-51339.1	1055.82	-29752.5	0.000000	0.000000	6.212821	0.084520	NaN	0.000000	0.001646	0.001627	28.0848	0.055693	0.001965	28.3489	-134.168	15.3979	0.016682	0.211011	-0.928612	-0.929992	0.084520	28.3489	-0.930848	-2.652414E+12	-3.186524E-14	NaN
1024	1.000000	0.222429	7.37507e+06	-51339.1	1055.82	-29752.5	0.000000	0.000000	6.222855	-0.004345	NaN	0.000000	0.001602	0.001642	28.0849	0.074779	0.002025	36.9338	74.2118	-162.406	0.022538	0.221059	-0.918574	-0.919944	-0.004345	36.9338	-0.918486	-1.806190E+12	2.405840E-15	NaN
1024	1.000000	0.232379	7.37507e+06	-51339.1	1055.82	-29752.5	0.000000	0.000000	6.232804	-0.034067	NaN	0.000000	0.001591	0.001642	28.0837	0.081866	0.001946	42.059	-10.9187	15.9166	-0.010366	0.231010	-0.908624	-0.909993	-0.034067	42.059	-0.908017	-1.304280E+12	2.611926E-14	NaN
1024	1.000000	0.242407	7.37507e+06	-51339.1	1055.82	-29752.5	0.000000	0.000000	6.242835	0.051501	NaN	0.000000	0.001570	0.001641	28.0834	0.073213	0.001981	36.9627	-75.6548	-164.286	0.043162	0.241101	-0.898597	-0.899902	0.051501	36.9627	-0.899642	-1.005131E+12	-5.123796E-14	NaN
1024	1.000000	0.252398	7.37507e+06	-51339.1	1055.82	-29752.5	0.000000	0.000000	6.252827	0.060000	NaN	0.000000	0.001635	0.001661	28.0835	0.157044	0.002040	76.9818	-142.196	17.9438	0.028496	0.251066	-0.888605	-0.889938	0.060000	76.9818	-0.889189	-7.260368E+11	-8.264078E-14	NaN
1024	1.000000	0.262382	7.37507e+06	-51339.1	1055.82	-29752.5	0.000000	0.000000	6.262810	0.053176	NaN	0.000000	0.001603	0.001634	28.0838	0.044044	0.002011	21.9033	169.191	-167.388	0.063637	0.261044	-0.878621	-0.879959	0.053176	21.9033	-0.880442	-5.529531E+11	-9.616667E-14	NaN
1024	1.000000	0.272407	7.37507e+06	-51339.1	1055.82	-29752.5	0.000000	0.000000	6.272837	0.085300	NaN	0.000000	0.001589	0.001644	28.0837	0.039278	0.002049	19.1701	85.3778	16.9273	0.102237	0.271026	-0.868596	-0.869977	0.085300	19.1701	-0.871933	-4.242303E+11	-2.010710E-13	NaN
1024	1.000000	0.282411	7.37507e+06	-51339.1	1055.82	-29752.5	0.000000	0.000000	6.282839	0.044892	NaN	0.000000	0.001680	0.001659	28.0836	0.015125	0.001956	7.732814	20.752	-163.123	0.071314	0.281094	-0.858592	-0.859909	0.044892	7.732814	-0.862946	-3.206250E+11	-1.400149E-13	NaN
1024	1.000000	0.292424	7.37507e+06	-51339.1	1055.82	-29752.5	0.000000	0.000000	6.292850	-0.005513	NaN	0.000000	0.001658	0.001647	28.0836	0.091633	0.001973	46.4504	18.2053	15.8886	0.040407	0.291110	-0.848579	-0.849893	-0.005513	46.4504	-0.848490	-2.043107E+11	2.698176E-14	NaN
1024	1.000000	0.302423	7.37507e+06	-51339.1	1055.82	-29752.5	0.000000	0.000000	6.302849	-0.004622	NaN	0.000000	0.001655	0.001627	28.0839	0.110519	0.001906	57.9713	134.438	-162.879	-0.058433	0.301137	-0.838580	-0.839866	-0.004622	57.9713	-0.838520	-1.497085E+11	3.087227E-14	NaN
1024	1.000000	0.312446	7.37507e+06	-51339.1	1055.82	-29752.5	0.000000	0.000000	6.312871	-0.018040	NaN	0.000000	0.001590	0.001624	28.0835	0.037376	0.002073	18.0332	131.226	12.125	-0.019363	0.311070	-0.828557	-0.829933	-0.018040	18.0332	-0.827807	-1.071667E+11	1.683317E-13	NaN
1024	1.000000	0.322455	7.37507e+06	-51339.1	1055.82	-29752.5	0.000000	0.000000	6.322882	0.040898	NaN	0.000000	0.001606	0.001652	28.0836	0.025998	0.001880	13.8291	-22.9346	-168.448	0.148781	0.321101	-0.818549	-0.819902	0.040898	13.8291	-0.820767	-8.602180E+10	-4.754396E-13	NaN
1024	1.000000	0.332450	7.37507e+06	-51339.1	1055.82	-29752.5	0.000000	0.000000	6.332877	0.018809	NaN	0.000000	0.001590	0.001654	28.0836	0.047252	0.001912	24.7178	-76.3692	15.1625	-0.059480	0.331120	-0.808553	-0.809883	0.018809	24.7178	-0.809124	-5.979700E+10	-3.145526E-13	NaN
1024	1.000000	0.342425	7.37507e+06	-51339.1	1055.82	-29752.5	0.000000	0.000000	6.342851	0.013436	NaN	0.000000	0.001605	0.001629	28.0836	0.143420	0.002076	69.0733	-149.406	-165.455	-0.004453	0.341150	-0.798579	-0.799853	0.013436	69.0733	-0.798724	-4.320636E+10	-3.109716E-13	NaN
1024	1.000000	0.352431	7.37507e+06	-51339.1	1055.82	-29752.5	0.000000	0.000000	6.352856	-0.038543	NaN	0.000000	0.001618	0.001622	28.0837	0.035664	0.002043	17.4575	23.7136	13.1175	-0.047953	0.351096	-0.788572	-0.789907	-0.038543	17.4575	-0.786916	-2.986713E+10	1.290477E-12	NaN
1024	1.000000	0.362463	7.37507e+06	-51339.1	1055.82	-29752.5	0.000000	0.000000	6.362889	0.003237	NaN	0.000000	0.001633	0.001662	28.0836	0.041602	0.002048	20.3174	-138.266	-165.703	-0.062530	0.361105	-0.778540	-0.779898	0.003237	20.3174	-0.778660	-2.306848E+10	-1.403304E-13	NaN
1024	1.000000	0.372428	7.37507e+06	-51339.1	1055.82	-29752.5	0.000000	0.000000	6.372855	0.032884	NaN	0.000000	0.001635	0.001659	28.0852	0.022438	0.002117	10.5967	112.547	16.511	0.013798	0.371126	-0.768575	-0.769877	0.032884	10.5967	-0.770903	-1.809595E+10	-1.817204E-12	NaN
1024	1.000000	0.382495	7.37507e+06	-51339.1	1055.82	-29752.5	0.000000	0.000000	6.382924	0.064796	NaN	0.000000	0.001610	0.001599	28.0849	0.091493	0.001942	47.1122	-56.9101	-160.768	0.158217	0.381123	-0.758508	-0.759880	0.064796	47.1122	-0.759539	-1.267753E+10	-5.111091E-12	NaN
1024	1.000000	0.392470	7.37507e+06	-51339.1	1055.82	-29752.5	0.000000	0.000000	6.392896	-0.011470	NaN	0.000000	0.001593	0.001618	28.085	0.076954	0.001989	38.6932	38.8444	15.8762	0.024958	0.391108	-0.748533	-0.749896	-0.011470	38.6932	-0.748310	-8.917025E+9	1.286271E-12	NaN
1024	1.000000	0.402475	7.37507e+06	-51339.1	1055.82	-29752.5	0.000000	0.000000	6.402899	-0.046822	NaN	0.000000	0.001588	0.001609	28.0848	0.020918	0.001974	10.5987	-130.173	-163.351	-0.007827	0.401159	-0.738528	-0.739844	-0.046822	10.5987	-0.735215	-5.913817E+9	7.917471E-12	NaN
1024	1.000000	0.412498	7.37507e+06	-51339.1	1055.82	-29752.5	0.000000	0.000000	6.412925	0.026294	NaN	0.000000	0.001631	0.001678	28.0852	0.094926	0.002060	46.0911	-175.157	17.9474	0.010604	0.411106	-0.728506	-0.729897	0.026294	46.0911	-0.728933	-4.855905E+9	-5.414811E-12	NaN
1024	1.000000	0.422496	7.37507e+06	-51339.1	1055.82	-29752.5	0.000000	0.000000	6.422925	0.051143	NaN	0.000000	0.001599	0.001674	28.0848	0.037665	0.001915	19.6685	29.0121	-166.995	0.035114	0.421146	-0.718507	-0.719857	0.051143	19.6685	-0.720457	-3.721410E+9	-1.374301E-11	NaN
1024	1.000000	0.432497	7.37507e+06	-51339.1	1055.82	-29752.5	0.000000	0.000000	6.432921	-0.064798	NaN	0.000000	0.001597	0.001664	28.0851	0.048542	0.002062	23.5398	-176.049	18.3826	-0.066419	0.431104	-0.708506	-0.709899	-0.064798	23.5398	-0.706441	-2.395960E+9	2.704478E-11	NaN
1024	1.000000	0.442467	7.37507e+06	-51339.1	1055.82	-29752.5	0.000000	0.000000	6.442891	-0.053462	NaN	0.000000	0.001619	0.001686	28.085	0.028190	0.001934	14.5786	-138.607	-168.43	-0.035816	0.441203	-0.698537	-0.699800	-0.053462	14.5786	-0.695786	-1.713864E+9	3.119410E-11	NaN
1024	1.000000	0.452497	7.37507e+06	-51339.1	1055.82	-29752.5	0.000000	0.000000	6.452926	0.059030	NaN	0.000000	0.001608	0.001654	28.0854	0.031757	0.001870	16.984	-151.779	15.0149	0.031255	0.451111	-0.688506	-0.689892	0.059030	16.984	-0.691113	-1.479543E+9	-3.989760E-11	NaN
1024	1.000000	0.462506	7.37507e+06	-51339.1	1055.82	-29752.5	0.000000	0.000000	6.462933	0.009946	NaN	0.000000	0.001607	0.001636	28.085	0.055814	0.001969	28.348	-135.044	-167.152	0.024312	0.461105	-0.678497	-0.679898	0.009946	28.348	-0.678760	-1.002878E+9	-9.917211E-12	NaN
1024	1.000000	0.472496	7.37507e+06	-51339.1	1055.82	-29752.5	0.000000	0.000000	6.472917	-0.113462	NaN	0.000000	0.001613	0.001655	28.0849	0.057384	0.001947	29.4729	-24.5901	15.1291	-0.066384	0.471128	-0.668507	-0.669875	-0.113462	29.4729	-0.665620	-6.628789E+8	1.711656E-10	NaN
1024	1.000000	0.482527	7.37507e+06	-51339.1	1055.82	-29752.5	0.000000	0.000000	6.482953	-0.018339	NaN	0.000000	0.001633	0.001691	28.085	0.129680	0.002032	63.8291	-113.784	-162.814	0.041790	0.481179	-0.658476	-0.659824	-0.018339	63.8291	-0.658261	-5.255823E+8	3.489236E-11	NaN
1024	1.000000	0.492519	7.37507e+06	-51339.1	1055.82	-29752.5	0.000000	0.000000	6.492944	-0.018773	NaN	0.000000	0.001642	0.001702	28.0851	0.075843	0.002097	36.1593	35.064	15.1802	0.017144	0.491120	-0.648485	-0.649883	-0.018773	36.1593	-0.648095	-3.813493E+8	4.922869E-11	NaN
1024	1.000000	0.502531	7.37507e+06	-51339.1	1055.82	-29752.5	0.000000	0.000000	6.502956	-0.033374	NaN	0.000000	0.001597	0.001698	28.0838	0.145135	0.001938	74.8956	-65.401	-166.102	-0.044336	0.501197	-0.638472	-0.639807	-0.033374	74.8956	-0.638138	-2.784431E+8	1.198601E-10	NaN
1024	1.000000	0.512518	7.37507e+06	-51339.1	1055.82	-29752.5	0.000000	0.000000	6.512943	-0.016360	NaN	0.000000	0.001648	0.001699	28.0838	0.051564	0.002089	24.6894	122.222	12.0162	-0.040922	0.511169	-0.628486	-0.629835	-0.016360	24.6894	-0.627989	-2.020225E+8	8.098312E-11	NaN
1024	1.000000	0.522510	7.37507e+06	-51339.1	1055.82	-29752.5	0.000000	0.000000	6.522933	-0.070398	NaN	0.000000	0.001583	0.001707	28.0839	0.053070	0.001898	27.9642	-152.675	-167.49	0.003549	0.521216	-0.618493	-0.619787	-0.070398	27.9642	-0.616605	-1.409171E+8	4.995696E-10	NaN
1024	1.000000	0.532561	7.37507e+06	-51339.1	1055.82	-29752.5	0.000000	0.000000	6.532988	0.002659	NaN	0.000000	0.001586	0.001666	28.0838	0.043848	0.002047	21.4229	133.519	14.4575	0.059133	0.531124	-0.608442	-0.609880	0.002659	21.4229	-0.608535	-1.091329E+8	-2.436298E-11	NaN
1024	1.000000	0.542539	7.37507e+06	-51339.1	1055.82	-29752.5	0.000000	0.000000	6.542967	0.031563	NaN	0.000000	0.001620	0.001696	28.0837	0.062509	0.001890	33.0756	178.034	-165.091	-0.030792	0.541210	-0.598464	-0.599793	0.031563	33.0756	-0.599180	-8.112597E+7	-3.890606E-10	NaN
1024	1.000000	0.552548	7.37507e+06	-51339.1	1055.82	-29752.5	0.000000	0.000000	6.552976	0.043557	NaN	0.000000	0.001615	0.001699	28.0837	0.099636	0.001974	50.4614	5.001798	11.9177	0.003550	0.551190	-0.588456	-0.589813	0.043557	50.4614	-0.589103	-5.892502E+7	-7.391887E-10	NaN
1024	1.000000	0.562541	7.37507e+06	-51339.1	1055.82	-29752.5	0.000000	0.000000	6.562966	-0.036250	NaN	0.000000	0.001661	0.001709	28.0841	0.073903	0.002102	35.151	-141.199	-165.66	-0.137049	0.561219	-0.578462	-0.579784	-0.036250	35.151	-0.577688	-4.100330E+7	8.840778E-10	NaN
1024	1.000000	0.572568	7.37507e+06	-51339.1	1055.82	-29752.5	0.000000	0.000000	6.572996	0.035523	NaN	0.000000	0.001639	0.001671	28.0837	0.102235	0.002179	46.9099	32.9215	13.8688	-0.100614	0.571133	-0.568435	-0.569870	0.035523	46.9099	-0.569003	-3.110671E+7	-1.141976E-9	NaN
1024	1.000000	0.582529	7.37507e+06	-51339.1	1055.82	-29752.5	0.000000	0.000000	6.582958	0.066273	NaN	0.000000	0.001619	0.001715	28.0837	0.164771	0.002050	80.3946	-6.187719	-165.233	0.076080	0.581240	-0.558474	-0.559763	0.066273	80.3946	-0.559093	-2.268955E+7	-2.920868E-9	NaN
1024	1.000000	0.592540	7.37507e+06	-51339.1	1055.82	-29752.5	0.000000	0.000000	6.592970	0.095878	NaN	0.000000	0.001638	0.001709	28.0836	0.094845	0.001961	48.3653	121.622	14.4608	0.072905	0.591214	-0.548463	-0.549789	0.095878	48.3653	-0.549950	-1.695380E+7	-5.655263E-9	NaN
1024	1.000000	0.602531	7.37507e+06	-51339.1	1055.82	-29752.5	0.000000	0.000000	6.602955	-0.041142	NaN	0.000000	0.001580	0.001694	28.0841	0.117397	0.002085	56.3176	43.889	-164.047	-0.030880	0.601253	-0.538472	-0.539750	-0.041142	56.3176	-0.537924	-1.154959E+7	3.562200E-9	NaN
1024	1.000000	0.612535	7.37507e+06	-51339.1	1055.82	-29752.5	0.000000	0.000000	6.612961	-0.004778	NaN	0.000000	0.001681	0.001700	28.0834	0.123397	0.002014	61.2804	-151.874	15.9444	0.007786	0.611218	-0.528468	-0.529785	-0.004778	61.2804	-0.528409	-8.52086e+06	5.607548E-10	NaN
1024	1.000000	0.622573	7.37507e+06	-51339.1	1055.82	-29752.5	0.000000	0.000000	6.622996	-0.087281	NaN	0.000000	0.001645	0.001674	28.0837	0.067461	0.001995	33.8125	-116.087	-165.262	-0.023911	0.621228	-0.518430	-0.519775	-0.087281	33.8125	-0.516494	-5.81864e+06	1.500025E-8	NaN
1024	1.000000	0.632552	7.37507e+06	-51339.1	1055.82	-29752.5	0.000000	0.000000	6.632979	0.014652	NaN	0.000000	0.001628	0.001709	28.0836	0.015747	0.001957	8.046124	-11.3513	16.3454	0.016548	0.631221	-0.508451	-0.509782	0.014652	8.046124	-0.509817	-4.6975e+06	-3.119110E-9	NaN
1024	1.000000	0.642566	7.37507e+06	-51339.1	1055.82	-29752.5	0.000000	0.000000	6.642994	0.042185	NaN	0.000000	0.001632	0.001686	28.0857	0.047249	0.002011	23.4911	-61.4386	-160.642	0.115860	0.641267	-0.498437	-0.499736	0.042185	23.4911	-0.499784	-3.40415e+06	-1.239225E-8	NaN
1024	1.000000	0.652575	7.37507e+06	-51339.1	1055.82	-29752.5	0.000000	0.000000	6.653002	0.011985	NaN	0.000000	0.001621	0.001669	28.0846	0.060605	0.002039	29.718	119.251	13.967	-0.066735	0.651209	-0.488428	-0.489794	0.011985	29.718	-0.488731	-2.38592e+06	-5.023053E-9	NaN
1024	1.000000	0.662562	7.37507e+06	-51339.1	1055.82	-29752.5	0.000000	0.000000	6.662986	-0.058029	NaN	0.000000	0.001607	0.001675	28.0848	0.054003	0.002086	25.8856	-110.156	-166.21	0.014350	0.661297	-0.478441	-0.479707	-0.058029	25.8856	-0.476760	-1.6224e+06	3.576742E-8	NaN
1024	1.000000	0.672597	7.37507e+06	-51339.1	1055.82	-29752.5	0.000000	0.000000	6.673022	-0.052265	NaN	0.000000	0.001650	0.001694	28.0849	0.047684	0.001952	24.426	-58.2992	17.4107	-0.083337	0.671263	-0.468406	-0.469741	-0.052265	24.426	-0.466801	-1.17632e+06	4.443076E-8	NaN
1024	1.000000	0.682575	7.37507e+06	-51339.1	1055.82	-29752.5	0.000000	0.000000	6.683000	-0.051100	NaN	0.000000	0.001620	0.001678	28.0848	0.201053	0.001992	100.915	16.8768	-164.855	-0.014234	0.681267	-0.458428	-0.459736	-0.051100	100.915	-0.458048	-886299	5.765519E-8	NaN
1024	1.000000	0.692595	7.37507e+06	-51339.1	1055.82	-29752.5	0.000000	0.000000	6.693019	-0.061349	NaN	0.000000	0.001643	0.001703	28.0846	0.003760	0.001903	1.975928	-104.102	14.0658	-0.118351	0.691184	-0.448408	-0.449819	-0.061349	1.975928	-0.425122	-304092	2.017461E-7	NaN
1024	1.000000	0.702623	7.37507e+06	-51339.1	1055.82	-29752.5	0.000000	0.000000	6.703050	0.007254	NaN	0.000000	0.001649	0.001689	28.0847	0.086510	0.001980	43.7013	102.522	-163.862	0.017410	0.701241	-0.438380	-0.439762	0.007254	43.7013	-0.438504	-470164	-1.542927E-8	NaN
1024	1.000000	0.712609	7.37507e+06	-51339.1	1055.82	-29752.5	0.000000	0.000000	6.713035	0.007432	NaN	0.000000	0.001653	0.001690	28.085	0.101797	0.002037	49.9728	-11.9842	11.4396	-0.030441	0.711260	-0.428395	-0.429743	0.007432	49.9728	-0.428506	-339565	-2.188722E-8	NaN
1024	1.000000	0.722615	7.37507e+06	-51339.1	1055.82	-29752.5	0.000000	0.000000	6.723040	-0.025875	NaN	0.000000	0.001670	0.001690	28.0847	0.021535	0.002027	10.6251	69.9823	-164.473	-0.109923	0.721236	-0.418388	-0.419767	-0.025875	10.6251	-0.416562	-229946	1.125264E-7	NaN
1024	1.000000	0.732598	7.37507e+06	-51339.1	1055.82	-29752.5	0.000000	0.000000	6.733022	-0.050506	NaN	0.000000	0.001656	0.001688	28.0847	0.053340	0.001928	27.6685	-62.3359	9.946448	0.010902	0.731289	-0.408405	-0.409714	-0.050506	27.6685	-0.407036	-168357	2.999949E-7	NaN
1024	1.000000	0.742612	7.37507e+06	-51339.1	1055.82	-29752.5	0.000000	0.000000	6.743040	0.024322	NaN	0.000000	0.001651	0.001685	28.0846	0.064914	0.002114	30.7026	-100.353	-165.048	-0.022954	0.741354	-0.398391	-0.399649	0.024322	30.7026	-0.398985	-129275	-1.881444E-7	NaN
1024	1.000000	0.752641	7.37507e+06	-51339.1	1055.82	-29752.5	0.000000	0.000000	6.753067	-0.014223	NaN	0.000000	0.001635	0.001679	28.0848	0.048305	0.002062	23.4273	-138.009	17.4006	0.079105	0.751234	-0.388362	-0.389769	-0.014223	23.4273	-0.387907	-89787.4	1.584112E-7	NaN
1024	1.000000	0.762634	7.37507e+06	-51339.1	1055.82	-29752.5	0.000000	0.000000	6.763063	0.075239	NaN	0.000000	0.001620	0.001700	28.0846	0.021627	0.001986	10.8921	24.7283	-164.13	0.062321	0.761291	-0.378369	-0.379713	0.075239	10.8921	-0.383550	-77769.1	-9.674711E-7	NaN
1024	1.000000	0.772612	7.37507e+06	-51339.1	1055.82	-29752.5	0.000000	0.000000	6.773035	-0.091671	NaN	0.000000	0.001609	0.001685	28.0846	0.069267	0.002029	34.1324	-173.461	18.8881	-0.017081	0.771261	-0.368391	-0.369743	-0.091671	34.1324	-0.366377	-44046.3	2.081234E-6	NaN
1024	1.000000	0.782617	7.37507e+06	-51339.1	1055.82	-29752.5	0.000000	0.000000	6.783043	0.009208	NaN	0.000000	0.001628	0.001660	28.0834	0.151326	0.001879	80.5488	162.512	-161.981	-0.025109	0.781316	-0.358386	-0.359688	0.009208	80.5488	-0.358472	-33865	-2.719153E-7	NaN
1024	1.000000	0.792619	7.37507e+06	-51339.1	1055.82	-29752.5	0.000000	0.000000	6.793044	-0.017732	NaN	0.000000	0.001658	0.001697	28.0835	0.034054	0.002089	16.2985	94.5976	12.8965	-0.077083	0.791266	-0.348385	-0.349738	-0.017732	16.2985	-0.347569	-23534	7.534590E-7	NaN
1024	1.000000	0.802631	7.37507e+06	-51339.1	1055.82	-29752.5	0.000000	0.000000	6.803053	-0.094372	NaN	0.000000	0.001660	0.001708	28.0835	0.045066	0.002054	21.9372	92.0532	-166.613	-0.061230	0.801370	-0.338372	-0.339633	-0.094372	21.9372	-0.335146	-15513.8	6.083113E-6	NaN
1024	1.000000	0.812640	7.37507e+06	-51339.1	1055.82	-29752.5	0.000000	0.000000	6.813066	0.006334	NaN	0.000000	0.001651	0.001720	28.0835	0.129607	0.002022	64.1034	173.493	10.4648	0.034172	0.811296	-0.328363	-0.329707	0.006334	64.1034	-0.328437	-12375.4	-5.118312E-7	NaN
1024	1.000000	0.822677	7.37507e+06	-51339.1	1055.82	-29752.5	0.000000	0.000000	6.823105	0.032690	NaN	0.000000	0.001654	0.001682	28.0837	0.147184	0.001916	76.811	121.568	-166.745	0.025529	0.821314	-0.318326	-0.319689	0.032690	76.811	-0.318645	-8885.73	-3.678895E-6	NaN
1024	1.000000	0.832677	7.37507e+06	-51339.1	1055.82	-29752.5	0.000000	0.000000	6.833102	-0.020075	NaN	0.000000	0.001660	0.001676	28.0836	0.010923	0.002006	5.446441	75.114	14.4927	-0.005742	0.831317	-0.308326	-0.309686	-0.020075	5.446441	-0.305562	-5692.33	3.526708E-6	NaN
1024	1.000000	0.842644	7.37507e+06	-51339.1	1055.82	-29752.5	0.000000	0.000000	6.843069	-0.032895	NaN	0.000000	0.001640	0.001659	28.0835	0.048860	0.001995	24.4903	-42.8759	-166.653	-0.052006	0.841333	-0.298359	-0.299670	-0.032895	24.4903	-0.297352	-4297.18	7.655035E-6	NaN
1024	1.000000	0.852681	7.37507e+06	-51339.1	1055.82	-29752.5	0.000000	0.000000	6.853110	0.056461	NaN	0.000000	0.001606	0.001700	28.0839	0.073008	0.001994	36.6158	43.027	15.2921	0.014351	0.851269	-0.288322	-0.289734	0.056461	36.6158	-0.289478	-3277.06	-1.722904E-5	NaN
1024	1.000000	0.862672	7.37507e+06	-51339.1	1055.82	-29752.5	0.000000	0.000000	6.863100	0.056711	NaN	0.000000	0.001596	0.001705	28.0838	0.084990	0.001972	43.0932	113.284	-164.476	0.100403	0.861320	-0.278331	-0.279683	0.056711	43.0932	-0.279318	-2305.08	-2.460245E-5	NaN
1024	1.000000	0.872656	7.37507e+06	-51339.1	1055.82	-29752.5	0.000000	0.000000	6.873085	0.057187	NaN	0.000000	0.001638	0.001704	28.0838	0.029265	0.001956	14.965	-29.6647	11.4879	0.051061	0.871237	-0.268347	-0.269766	0.057187	14.965	-0.271213	-1737.69	-3.290983E-5	NaN
1024	1.000000	0.882705	7.37507e+06	-51339.1	1055.82	-29752.5	0.000000	0.000000	6.883131	-0.014456	NaN	0.000000	0.001612	0.001719	28.0838	0.028330	0.002040	13.8863	-154.383	-167.424	0.028255	0.881343	-0.258298	-0.259660	-0.014456	13.8863	-0.257517	-1073.55	1.346578E-5	NaN
1024	1.000000	0.892653	7.37507e+06	-51339.1	1055.82	-29752.5	0.000000	0.000000	6.893080	0.017425	NaN	0.000000	0.001583	0.001724	28.0841	0.058820	0.001810	32.4996	144.132	12.5027	-0.000918	0.891336	-0.248350	-0.249667	0.017425	32.4996	-0.248752	-786.427	-2.215773E-5	NaN
1024	1.000000	0.902667	7.37507e+06	-51339.1	1055.82	-29752.5	0.000000	0.000000	6.903092	-0.022132	NaN	0.000000	0.001602	0.001727	28.0836	0.070946	0.002056	34.5048	82.1883	-165.224	-0.034161	0.901395	-0.238337	-0.239608	-0.022132	34.5048	-0.237855	-532.131	4.159162E-5	NaN
1024	1.000000	0.912683	7.37507e+06	-51339.1	1055.82	-29752.5	0.000000	0.000000	6.913109	0.002609	NaN	0.000000	0.001639	0.001730	28.0849	0.055804	0.002019	27.637	124.006	15.4125	-0.046910	0.911343	-0.228320	-0.229660	0.002609	27.637	-0.228391	-377.651	-6.909645E-6	NaN
1024	1.000000	0.922682	7.37507e+06	-51339.1	1055.82	-29752.5	0.000000	0.000000	6.923108	-0.006579	NaN	0.000000	0.001622	0.001717	28.0849	0.073995	0.001925	38.4485	-95.4991	-168.585	-0.046702	0.921364	-0.218321	-0.219639	-0.006579	38.4485	-0.218193	-259.876	2.531453E-5	NaN
1024	1.000000	0.932687	7.37507e+06	-51339.1	1055.82	-29752.5	0.000000	0.000000	6.933115	0.026412	NaN	0.000000	0.001628	0.001700	28.0853	0.082624	0.002002	41.2744	-166.562	13.628	-0.004914	0.931340	-0.208316	-0.209663	0.026412	41.2744	-0.208796	-183.359	-0.000144	NaN
1024	1.000000	0.942714	7.37507e+06	-51339.1	1055.82	-29752.5	0.000000	0.000000	6.943141	0.021886	NaN	0.000000	0.001585	0.001699	28.0847	0.050011	0.002127	23.5167	-80.8964	-163.755	0.007848	0.941396	-0.198289	-0.199607	0.021886	23.5167	-0.198987	-126.777	-0.000173	NaN
1024	1.000000	0.952678	7.37507e+06	-51339.1	1055.82	-29752.5	0.000000	0.000000	6.953106	0.042999	NaN	0.000000	0.001621	0.001717	28.0858	0.070970	0.002154	32.9552	-131.497	13.5744	0.020258	0.951347	-0.188325	-0.189656	0.042999	32.9552	-0.189303	-87.5754	-0.000491	NaN
1024	1.000000	0.962720	7.37507e+06	-51339.1	1055.82	-29752.5	0.000000	0.000000	6.963150	0.079098	NaN	0.000000	0.001616	0.001709	28.0851	0.034504	0.001960	17.6081	7.739265	-168.48	0.036550	0.961335	-0.178283	-0.179668	0.079098	17.6081	-0.181652	-65.0925	-0.001215	NaN
1024	1.000000	0.972743	7.37507e+06	-51339.1	1055.82	-29752.5	0.000000	0.000000	6.973169	-0.010234	NaN	0.000000	0.001625	0.001726	28.085	0.047679	0.001892	25.2048	-124.307	14.2814	0.023738	0.971377	-0.168260	-0.169627	-0.010234	25.2048	-0.167956	-37.8474	0.000270	NaN
1024	1.000000	0.982742	7.37507e+06	-51339.1	1055.82	-29752.5	0.000000	0.000000	6.983170	0.021830	NaN	0.000000	0.001600	0.001716	28.085	0.030222	0.001814	16.6565	-77.4426	-166.377	0.032713	0.981390	-0.158261	-0.159613	0.021830	16.6565	-0.159244	-26.5787	-0.000821	NaN
1024	1.000000	0.992715	7.37507e+06	-51339.1	1055.82	-29752.5	0.000000	0.000000	6.993143	0.030382	NaN	0.000000	0.001575	0.001705	28.0851	0.128192	0.002026	63.2708	-111.678	12.346	-0.070302	0.991306	-0.148288	-0.149698	0.030382	63.2708	-0.148648	-17.1121	-0.001775	NaN
1024	1.000000	1.002683	7.37507e+06	-51339.1	1055.82	-29752.5	0.000000	0.000000	7.003110	0.014492	NaN	0.000000	0.001567	0.001740	28.0852	0.063997	0.002015	31.758	137.842	-168.614	0.040713	1.001409	-0.138320	-0.139594	0.014492	31.758	-0.138662	-11.163	-0.001298	NaN
1024	1.000000	1.012723	7.37507e+06	-51339.1	1055.82	-29752.5	0.000000	0.000000	7.013149	-0.000377	NaN	0.000000	0.001590	0.001683	28.0849	0.071801	0.001960	36.6257	-138.403	13.0942	0.048988	1.011288	-0.128281	-0.129715	-0.000377	36.6257	-0.128273	-7.052753	5.342859E-5	NaN
1024	1.000000	1.022700	7.37507e+06	-51339.1	1055.82	-29752.5	0.000000	0.000000	7.023125	-0.024683	NaN	0.000000	0.001616	0.001664	28.0849	0.108435	0.002022	53.6196	-105.962	-165.275	0.018806	1.021406	-0.118304	-0.119597	-0.024683	53.6196	-0.117958	-4.392415	0.005619	NaN
1024	1.000000	1.032702	7.37507e+06	-51339.1	1055.82	-29752.5	0.000000	0.000000	7.033126	-0.073814	NaN	0.000000	0.001621	0.001688	28.085	0.128554	0.002004	64.142	176.513	14.33	-0.002825	1.031368	-0.108301	-0.109636	-0.073814	64.142	-0.107438	-2.651643	0.027837	NaN
1024	1.000000	1.042724	7.37507e+06	-51339.1	1055.82	-29752.5	0.000000	0.000000	7.043151	0.019208	NaN	0.000000	0.001599	0.001680	28.0852	0.111194	0.002065	53.8497	41.4962	-162.148	-0.032452	1.041395	-0.098279	-0.099608	0.019208	53.8497	-0.098546	-1.696004	-0.011326	NaN
1024	1.000000	1.052717	7.37507e+06	-51339.1	1055.82	-29752.5	0.000000	0.000000	7.053143	-0.002682	NaN	0.000000	0.001613	0.001680	28.0836	0.063048	0.002129	29.62	-37.4998	15.215	0.018597	1.051378	-0.088286	-0.089625	-0.002682	29.62	-0.088218	-0.981244	0.002733	NaN
1024	1.000000	1.062751	7.37507e+06	-51339.1	1055.82	-29752.5	0.000000	0.000000	7.063176	-0.024408	NaN	0.000000	0.001616	0.001707	28.0838	0.124803	0.002028	61.5316	161.267	-164.406	0.013881	1.061449	-0.078252	-0.079554	-0.024408	61.5316	-0.077955	-0.549787	0.044395	NaN
1024	1.000000	1.072762	7.37507e+06	-51339.1	1055.82	-29752.5	0.000000	0.000000	7.073187	-0.030292	NaN	0.000000	0.001599	0.001698	28.0837	0.056205	0.001987	28.2916	149.246	17.6962	-0.066424	1.071424	-0.068241	-0.069579	-0.030292	28.2916	-0.067438	-0.290827	0.104158	NaN
1024	1.000000	1.082729	7.37507e+06	-51339.1	1055.82	-29752.5	0.000000	0.000000	7.083152	-0.076847	NaN	0.000000	0.001583	0.001690	28.0836	0.089156	0.001953	45.6577	-92.2592	-165.852	-0.151771	1.081473	-0.058274	-0.059530	-0.076847	45.6577	-0.057012	-0.147559	0.520790	NaN
1024	1.000000	1.092746	7.37507e+06	-51339.1	1055.82	-29752.5	0.000000	0.000000	7.093172	-0.010972	NaN	0.000000	0.001551	0.001692	28.0835	0.074819	0.001963	38.1075	134.437	13.6847	0.021565	1.091394	-0.048257	-0.049610	-0.010972	38.1075	-0.048041	-0.079579	0.137871	NaN
1024	1.000000	1.102754	7.37507e+06	-51339.1	1055.82	-29752.5	0.000000	0.000000	7.103181	0.021261	NaN	0.000000	0.001593	0.001719	28.0839	0.113282	0.001921	58.9765	165.998	-163.487	-0.102754	1.101477	-0.038249	-0.039526	0.021261	58.9765	-0.038520	-0.040787	-0.521263	NaN
1024	1.000000	1.112763	7.37507e+06	-51339.1	1055.82	-29752.5	0.000000	0.000000	7.113187	-0.039107	NaN	0.000000	0.001584	0.001703	28.0837	0.174752	0.001868	93.5574	-168.843	9.690730	-0.004808	1.111391	-0.028240	-0.029612	-0.039107	93.5574	-0.027927	-0.020183	1.937626	NaN
1024	1.000000	1.122714	7.37507e+06	-51339.1	1055.82	-29752.5	0.000000	0.000000	7.123142	0.040647	NaN	0.000000	0.001580	0.001728	28.0836	0.069402	0.002078	33.4023	-23.0209	-163.216	0.061038	1.121504	-0.018289	-0.019499	0.040647	33.4023	-0.019202	-0.011986	-3.391167	NaN
1024	1.000000	1.132756	7.37507e+06	-51339.1	1055.82	-29752.5	0.000000	0.000000	7.133181	-0.027936	NaN	0.000000	0.001596	0.001683	28.0834	0.025998	0.002012	12.9239	-162.314	14.6811	-0.049815	1.131398	-0.008247	-0.009606	-0.027936	12.9239	-0.006626	-0.004416	6.325907	NaN
1024	1.000000	1.142763	7.37507e+06	-51339.1	1055.82	-29752.5	0.000000	0.000000	7.143343	3.741960	NaN	0.000000	0.001579	0.001649	28.0839	4.579200	0.001846	2479.94	15.5556	-173.064	2.853658	1.141451	0.001760	0.000448	3.741960	2479.94	0.000628	0.000475	7874.18	103936
1024	2.000000	1.149763	7.37507e+06	-51339.1	1055.82	-29752.5	0.000000	0.000000	7.150580	9.499853	NaN	0.000000	0.001594	0.001681	28.0836	10.3774	0.001537	6752.57	7.095807	5.972428	8.674001	1.149417	0.008760	0.008414	9.499853	6752.57	0.007704	0.006740	1409.45	75146.4
1024	2.000000	1.152218	7.37507e+06	-51339.1	1055.82	-29752.5	0.000000	0.000000	7.153169	12.7503	NaN	0.000000	0.001596	0.001691	28.0841	13.4031	0.001800	7444.6	3.142669	-170.965	11.6791	1.151988	0.011215	0.010985	12.7503	7444.6	0.009931	0.009105	1400.42	71282.6
1024	2.000000	1.154750	7.37507e+06	-51339.1	1055.82	-29752.5	0.000000	0.000000	7.155808	15.3698	NaN	0.000000	0.001593	0.001693	28.0837	15.5825	0.001912	8148.89	6.978540	6.819757	14.847	1.154398	0.013747	0.013394	15.3698	8148.89	0.012332	0.011890	1292.66	68277.7
1024	2.000000	1.157227	7.37507e+06	-51339.1	1055.82	-29752.5	0.000000	0.000000	7.158525	21.2009	NaN	0.000000	0.001610	0.001730	28.0847	17.8314	0.001754	10167.3	7.440809	-175.337	21.6513	1.156844	0.016224	0.015841	21.2009	10167.3	0.014660	0.014834	1429.17	76268.1
1024	2.000000	1.159648	7.37507e+06	-51339.1	1055.82	-29752.5	0.000000	0.000000	7.161190	27.124	NaN	0.000000	0.001608	0.001712	28.0849	21.245	0.001926	11032.9	7.211390	2.240998	25.5566	1.159366	0.018645	0.018363	27.124	11032.9	0.016801	0.017762	1527.06	75633.2
1024	2.000000	1.162170	7.37507e+06	-51339.1	1055.82	-29752.5	0.000000	0.000000	7.163877	31.1507	NaN	0.000000	0.001616	0.001718	28.085	22.7059	0.001757	12920.8	5.577571	-178.296	30.1525	1.161931	0.021167	0.020928	31.1507	12920.8	0.019359	0.021545	1445.87	80425
1024	2.000000	1.164680	7.37507e+06	-51339.1	1055.82	-29752.5	0.000000	0.000000	7.166871	42.9204	NaN	0.000000	0.001620	0.001705	28.0848	25.5583	0.001746	14640.9	9.224290	-1.969693	41.2057	1.164283	0.023677	0.023280	42.9204	14640.9	0.021478	0.024918	1722.44	84738.6
1024	2.000000	1.167157	7.37507e+06	-51339.1	1055.82	-29752.5	0.000000	0.000000	7.169618	49.4775	NaN	0.000000	0.001613	0.001724	28.0853	27.7708	0.001748	15890.3	7.186608	179.161	48.4428	1.166801	0.026153	0.025798	49.4775	15890.3	0.023818	0.028901	1711.99	85398.8
1024	2.000000	1.169674	7.37507e+06	-51339.1	1055.82	-29752.5	0.000000	0.000000	7.172411	56.1784	NaN	0.000000	0.001605	0.001751	28.0848	31.2896	0.001907	16403.7	5.794066	0.206624	54.9562	1.169328	0.028671	0.028324	56.1784	16403.7	0.026102	0.033052	1699.72	82436.2
1024	2.000000	1.172106	7.37507e+06	-51339.1	1055.82	-29752.5	0.000000	0.000000	7.175315	67.6567	NaN	0.000000	0.001586	0.001720	28.085	33.2837	0.001733	19207.6	2.393418	-178.415	66.0203	1.171846	0.031103	0.030843	67.6567	19207.6	0.028461	0.037615	1798.68	90483
1024	2.000000	1.174662	7.37507e+06	-51339.1	1055.82	-29752.5	0.000000	0.000000	7.178325	78.7213	NaN	0.000000	0.001610	0.001696	28.0847	34.9751	0.001693	20657.9	1.925263	1.566254	76.43	1.174284	0.033659	0.033281	78.7213	20657.9	0.030801	0.042419	1855.79	91638.5
1024	2.000000	1.177114	7.37507e+06	-51339.1	1055.82	-29752.5	0.000000	0.000000	7.180988	83.8477	NaN	0.000000	0.001600	0.001680	28.0851	38.0887	0.001668	22839.2	3.839226	177.682	81.2639	1.176868	0.036111	0.035865	83.8477	22839.2	0.033357	0.047990	1747.19	95253.1
1024	2.000000	1.179655	7.37507e+06	-51339.1	1055.82	-29752.5	0.000000	0.000000	7.184207	100.336	NaN	0.000000	0.001585	0.001673	28.0847	40.7763	0.001653	24666.4	0.572209	0.717379	98.8379	1.179279	0.038651	0.038275	100.336	24666.4	0.035601	0.053154	1887.66	97749.2
1024	2.000000	1.182157	7.37507e+06	-51339.1	1055.82	-29752.5	0.000000	0.000000	7.187249	113.459	NaN	0.000000	0.001595	0.001653	28.0851	45.3354	0.001818	24934	6.378348	174.887	112.648	1.181862	0.041154	0.040859	113.459	24934	0.037741	0.058320	1945.45	94331.4
1024	2.000000	1.184629	7.37507e+06	-51339.1	1055.82	-29752.5	0.000000	0.000000	7.190430	130.717	NaN	0.000000	0.001635	0.001705	28.0848	46.5613	0.001754	26551	6.441402	-5.352539	127.055	1.184171	0.043625	0.043168	130.717	26551	0.039933	0.063855	2047.09	95996.9
1024	2.000000	1.187174	7.37507e+06	-51339.1	1055.82	-29752.5	0.000000	0.000000	7.193422	141.566	NaN	0.000000	0.001629	0.001670	28.0852	48.2847	0.001753	27542.3	3.229912	177.144	141.13	1.186775	0.046171	0.045772	141.566	27542.3	0.042316	0.070150	2018.05	95007.9
1024	2.000000	1.189635	7.37507e+06	-51339.1	1055.82	-29752.5	0.000000	0.000000	7.196301	151.732	NaN	0.000000	0.001662	0.001690	28.0847	52.0158	0.001802	28868.6	3.346976	-3.400493	150.66	1.189311	0.048632	0.048308	151.732	28868.6	0.044690	0.076709	1978.03	95230.9
1024	2.000000	1.192100	7.37507e+06	-51339.1	1055.82	-29752.5	0.000000	0.000000	7.199466	168.747	NaN	0.000000	0.001621	0.001703	28.0836	55.5369	0.001795	30947.3	5.297619	174.277	166.662	1.191807	0.051097	0.050803	168.747	30947.3	0.047008	0.083389	2023.62	97913.6
1024	2.000000	1.194614	7.37507e+06	-51339.1	1055.82	-29752.5	0.000000	0.000000	7.202635	184.666	NaN	0.000000	0.001623	0.001701	28.0833	57.1678	0.001789	31955.5	3.116956	-3.905292	180.205	1.194308	0.053611	0.053305	184.666	31955.5	0.049277	0.090192	2047.49	97215.7
1024	2.000000	1.197044	7.37507e+06	-51339.1	1055.82	-29752.5	0.000000	0.000000	7.205700	200.131	NaN	0.000000	0.001626	0.001740	28.0833	60.6978	0.001898	31975	4.005200	174.559	196.623	1.196851	0.056040	0.055848	200.131	31975	0.051346	0.096619	2071.33	93983.6
1024	2.000000	1.199535	7.37507e+06	-51339.1	1055.82	-29752.5	0.000000	0.000000	7.208531	208.376	NaN	0.000000	0.001612	0.001697	28.0834	61.6812	0.001766	34935.7	2.624132	-4.456960	203.988	1.199291	0.058532	0.058288	208.376	34935.7	0.054059	0.105370	1977.56	98329.6
1024	2.000000	1.202136	7.37507e+06	-51339.1	1055.82	-29752.5	0.000000	0.000000	7.211979	228.989	NaN	0.000000	0.001650	0.001722	28.0835	64.7748	0.001745	37128.4	3.081363	174.408	228.209	1.201805	0.061133	0.060802	228.989	37128.4	0.056507	0.113582	2016.07	100653
1024	2.000000	1.204529	7.37507e+06	-51339.1	1055.82	-29752.5	0.000000	0.000000	7.215096	246.6	NaN	0.000000	0.001638	0.001704	28.0837	66.5814	0.001804	36915.6	5.188983	-7.382836	239.325	1.204182	0.063526	0.063179	246.6	36915.6	0.058516	0.120540	2045.8	97144.5
1024	2.000000	1.207066	7.37507e+06	-51339.1	1055.82	-29752.5	0.000000	0.000000	7.218391	265.022	NaN	0.000000	0.001584	0.001721	28.0833	69.183	0.001841	37582.3	8.316062	169.38	263.362	1.206888	0.066063	0.065885	265.022	37582.3	0.060774	0.128598	2060.86	95750.2
1024	2.000000	1.209482	7.37507e+06	-51339.1	1055.82	-29752.5	0.000000	0.000000	7.221618	284.759	NaN	0.000000	0.001647	0.001702	28.0834	71.39	0.001797	39737.9	5.189377	-8.289502	277.337	1.209274	0.068478	0.068271	284.759	39737.9	0.063104	0.137173	2075.91	98026.4
1024	2.000000	1.212080	7.37507e+06	-51339.1	1055.82	-29752.5	0.000000	0.000000	7.225046	304.925	NaN	0.000000	0.001710	0.001680	28.0833	74.0008	0.001839	40234.8	6.109179	171.082	302.56	1.211774	0.071077	0.070771	304.925	40234.8	0.065393	0.145855	2090.61	96253.2
1024	2.000000	1.214509	7.37507e+06	-51339.1	1055.82	-29752.5	0.000000	0.000000	7.228432	328.201	NaN	0.000000	0.001678	0.001668	28.0836	74.8531	0.001785	41944.4	4.862087	-7.246977	320.036	1.214146	0.073506	0.073142	328.201	41944.4	0.067637	0.154609	2122.78	97460.9
1024	2.000000	1.217084	7.37507e+06	-51339.1	1055.82	-29752.5	0.000000	0.000000	7.231731	345.815	NaN	0.000000	0.001693	0.001682	28.0834	77.8469	0.001701	45768.5	5.851618	170.227	344.298	1.216744	0.076081	0.075740	345.815	45768.5	0.070414	0.165775	2086.05	102702
1024	2.000000	1.219552	7.37507e+06	-51339.1	1055.82	-29752.5	0.000000	0.000000	7.235060	366.748	NaN	0.000000	0.001670	0.001662	28.0836	80.4743	0.001881	42787.9	3.897109	-6.988876	361.031	1.219178	0.078549	0.078175	366.748	42787.9	0.072120	0.172820	2122.15	94036.8
1024	2.000000	1.222097	7.37507e+06	-51339.1	1055.82	-29752.5	0.000000	0.000000	7.238240	382.175	NaN	0.000000	0.001665	0.001694	28.0836	83.1509	0.001752	47471.2	4.384513	171.656	382.433	1.221752	0.081094	0.080749	382.175	47471.2	0.075056	0.185260	2062.91	100766
1024	2.000000	1.224598	7.37507e+06	-51339.1	1055.82	-29752.5	0.000000	0.000000	7.241791	407.718	NaN	0.000000	0.001635	0.001678	28.0843	84.7529	0.001838	46119.4	4.818812	-8.159116	404.448	1.224158	0.083595	0.083155	407.718	46119.4	0.076965	0.193567	2106.34	95772.6
1024	2.000000	1.226913	7.37507e+06	-51339.1	1055.82	-29752.5	0.000000	0.000000	7.244626	420.359	NaN	0.000000	0.001576	0.001661	28.0848	85.1704	0.001738	48991.9	-0.277416	176.081	412.394	1.226688	0.085910	0.085685	420.359	48991.9	0.079475	0.204751	2053.03	98920.1
1024	2.000000	1.229679	7.37507e+06	-51339.1	1055.82	-29752.5	0.000000	0.000000	7.248114	437.895	NaN	0.000000	0.001611	0.001693	28.0845	89.9949	0.001856	48490.4	6.133994	-9.837071	441.765	1.229236	0.088676	0.088233	437.895	48490.4	0.081903	0.215851	2028.69	95356.8
1024	2.000000	1.232106	7.37507e+06	-51339.1	1055.82	-29752.5	0.000000	0.000000	7.251411	459.065	NaN	0.000000	0.001640	0.001644	28.0848	92.3694	0.001837	50276.3	5.789357	169.595	459.595	1.231760	0.091103	0.090757	459.065	50276.3	0.084255	0.226860	2023.56	96440
1024	2.000000	1.234579	7.37507e+06	-51339.1	1055.82	-29752.5	0.000000	0.000000	7.254548	475.218	NaN	0.000000	0.001604	0.001673	28.0851	93.9629	0.001892	49660.7	4.959403	-9.266079	473.044	1.234324	0.093575	0.093320	475.218	49660.7	0.086398	0.237118	2004.15	93176
1024	2.000000	1.236988	7.37507e+06	-51339.1	1055.82	-29752.5	0.000000	0.000000	7.257889	497.876	NaN	0.000000	0.001590	0.001706	28.0848	96.0633	0.001802	53309.3	8.037741	167.059	492.198	1.236633	0.095985	0.095630	497.876	53309.3	0.088980	0.249753	1993.47	97458.7
1024	2.000000	1.239517	7.37507e+06	-51339.1	1055.82	-29752.5	0.000000	0.000000	7.261439	522.702	NaN	0.000000	0.001614	0.001673	28.0853	98.5385	0.001822	54096.2	7.913597	-12.5667	518.35	1.239137	0.098514	0.098133	522.702	54096.2	0.091267	0.261204	2001.13	96705.3
1024	2.000000	1.242092	7.37507e+06	-51339.1	1055.82	-29752.5	0.000000	0.000000	7.264733	540.188	NaN	0.000000	0.001583	0.001688	28.0851	100.83	0.001937	52065.4	4.573092	171.035	540.13	1.241717	0.101089	0.100714	540.188	52065.4	0.093307	0.271618	1988.78	91273.3
1024	2.000000	1.244583	7.37507e+06	-51339.1	1055.82	-29752.5	0.000000	0.000000	7.268340	567.321	NaN	0.000000	0.001620	0.001644	28.085	101.984	0.001851	55107.4	3.842348	-8.665131	565.896	1.244206	0.103580	0.103203	567.321	55107.4	0.095859	0.284913	1991.2	94325.1
1024	2.000000	1.246917	7.37507e+06	-51339.1	1055.82	-29752.5	0.000000	0.000000	7.271314	582.896	NaN	0.000000	0.001618	0.001692	28.0847	103.452	0.001728	59876.1	3.990419	170.378	573.836	1.246619	0.105914	0.105616	582.896	59876.1	0.098612	0.299591	1945.64	99945.4