File: remote_trans/data/nanoindenter/0828-1/data/Data_2025-08-06,11h17m57s/2025-07-22_16-23-58_1_510.txt
2025-07-22, 16:23:58, 1
Index	Phase	Displacement	Time	Pos X	Pos Y	Pos Z	Rot A	Rot B	Piezo Z	Force A	Force B	Gripper	Voltage A	Voltage B	Temperature	Amplitude force	Amplitude pos	Stiffness	Phase shift	Phase excitation	Force A raw	Displacement raw	HMax	HMax raw	Real Force	Real Stiffness	Contact Depth	Area	Hardness	Reduced Mod.
[#]	[#]	[um]	[s]	[um]	[um]	[um]	[m°]	[m°]	[um]	[uN]	[uN]	[V]	[V]	[V]	[°C]	[uN]	[um]	[N/m]	[°]	[°]	[uN]	[um]	[um]	[um]	[uN]	[N/m]	[um]	[um^2]	[MPa]	[MPa]
510	1.000000	0.003080	7.37004e+06	-51589.1	1005.82	-29751.8	0.000000	0.000000	6.002785	0.092756	NaN	0.000000	0.001568	0.001793	28.0807	0.009810	0.001053	9.318036	87.3149	-163.018	0.177808	0.001901	-1.120709	-1.121888	0.092756	9.318036	-1.128175	-1.197122E+15	-7.748241E-17	NaN
510	1.000000	0.013172	7.37004e+06	-51589.1	1005.82	-29751.8	0.000000	0.000000	6.012875	0.019449	NaN	0.000000	0.001637	0.001802	28.0811	0.028779	0.001174	24.5043	42.1007	17.3562	0.016160	0.011707	-1.110617	-1.112082	0.019449	24.5043	-1.111212	-7.088462E+14	-2.743702E-17	NaN
510	1.000000	0.023045	7.37004e+06	-51589.1	1005.82	-29751.8	0.000000	0.000000	6.022745	-0.020507	NaN	0.000000	0.001579	0.001737	28.0818	0.061930	0.001840	33.6627	-145.742	-166.242	0.024718	0.021812	-1.100744	-1.101977	-0.020507	33.6627	-1.100288	-5.057414E+14	4.054853E-17	NaN
510	1.000000	0.033047	7.37004e+06	-51589.1	1005.82	-29751.8	0.000000	0.000000	6.032750	0.052787	NaN	0.000000	0.001550	0.001750	28.0817	0.082776	0.001847	44.8132	-111.153	14.8025	-0.009442	0.031729	-1.090742	-1.092060	0.052787	44.8132	-1.091626	-3.869381E+14	-1.364233E-16	NaN
510	1.000000	0.043053	7.37004e+06	-51589.1	1005.82	-29751.8	0.000000	0.000000	6.042754	-0.005403	NaN	0.000000	0.001558	0.001726	28.0815	0.073602	0.001888	38.982	28.6191	-165.319	-0.029594	0.041757	-1.080737	-1.082032	-0.005403	38.982	-1.080633	-2.754333E+14	1.961455E-17	NaN
510	1.000000	0.053049	7.37004e+06	-51589.1	1005.82	-29751.8	0.000000	0.000000	6.052751	0.032634	NaN	0.000000	0.001595	0.001772	28.0814	0.049156	0.002051	23.9725	58.9198	16.1985	0.100185	0.051698	-1.070741	-1.072092	0.032634	23.9725	-1.071762	-2.093419E+14	-1.558905E-16	NaN
510	1.000000	0.063061	7.37004e+06	-51589.1	1005.82	-29751.8	0.000000	0.000000	6.062764	0.039831	NaN	0.000000	0.001624	0.001779	28.0814	0.147466	0.002002	73.6676	149.204	-164.325	0.013940	0.061723	-1.060728	-1.062066	0.039831	73.6676	-1.061133	-1.506787E+14	-2.643420E-16	NaN
510	1.000000	0.073069	7.37004e+06	-51589.1	1005.82	-29751.8	0.000000	0.000000	6.072771	0.004550	NaN	0.000000	0.001604	0.001791	28.0816	0.124476	0.001922	64.7674	120.648	16.1919	-0.024459	0.071656	-1.050720	-1.052134	0.004550	64.7674	-1.050773	-1.093452E+14	-4.161415E-17	NaN
510	1.000000	0.083044	7.37004e+06	-51589.1	1005.82	-29751.8	0.000000	0.000000	6.082745	-0.007099	NaN	0.000000	0.001631	0.001777	28.0814	0.061883	0.002024	30.5793	-86.2777	-167.276	-0.005723	0.081816	-1.040745	-1.041973	-0.007099	30.5793	-1.040571	-7.973504E+13	8.902814E-17	NaN
510	1.000000	0.093088	7.37004e+06	-51589.1	1005.82	-29751.8	0.000000	0.000000	6.092789	-0.009308	NaN	0.000000	0.001573	0.001780	28.0814	0.082904	0.002193	37.8022	34.0619	15.485	0.051705	0.091710	-1.030701	-1.032079	-0.009308	37.8022	-1.030516	-5.840169E+13	1.593747E-16	NaN
510	1.000000	0.103058	7.37004e+06	-51589.1	1005.82	-29751.8	0.000000	0.000000	6.102762	0.053371	NaN	0.000000	0.001621	0.001799	28.0813	0.067303	0.002082	32.3245	-105.198	-165.848	-0.005042	0.101777	-1.020731	-1.022012	0.053371	32.3245	-1.021969	-4.481729E+13	-1.190866E-15	NaN
510	1.000000	0.113075	7.37004e+06	-51589.1	1005.82	-29751.8	0.000000	0.000000	6.112775	-0.042578	NaN	0.000000	0.001607	0.001780	28.0815	0.027693	0.002075	13.3457	-116.151	16.4094	0.017329	0.111714	-1.010714	-1.012076	-0.042578	13.3457	-1.008321	-2.936197E+13	1.450121E-15	NaN
510	1.000000	0.123084	7.37004e+06	-51589.1	1005.82	-29751.8	0.000000	0.000000	6.122783	-0.054741	NaN	0.000000	0.001630	0.001782	28.0814	0.127135	0.001957	64.9809	174.603	-161.057	-0.031757	0.121753	-1.000706	-1.002036	-0.054741	64.9809	-1.000074	-2.273850E+13	2.407437E-15	NaN
510	1.000000	0.133101	7.37004e+06	-51589.1	1005.82	-29751.8	0.000000	0.000000	6.132802	0.010522	NaN	0.000000	0.001631	0.001778	28.0815	0.021866	0.001956	11.1797	-36.9016	16.5283	-0.008617	0.131703	-0.990689	-0.992086	0.010522	11.1797	-0.991394	-1.737367E+13	-6.056570E-16	NaN
510	1.000000	0.143076	7.37004e+06	-51589.1	1005.82	-29751.8	0.000000	0.000000	6.142776	-0.021154	NaN	0.000000	0.001629	0.001755	28.0814	0.020851	0.002013	10.3566	-133.952	-165.087	-0.097121	0.141766	-0.980713	-0.982023	-0.021154	10.3566	-0.979181	-1.189545E+13	1.778326E-15	NaN
510	1.000000	0.153088	7.37004e+06	-51589.1	1005.82	-29751.8	0.000000	0.000000	6.152791	0.036833	NaN	0.000000	0.001648	0.001746	28.0802	0.067695	0.001972	34.3362	-109.408	17.2228	0.020217	0.151731	-0.970701	-0.972059	0.036833	34.3362	-0.971506	-9.374723E+12	-3.928926E-15	NaN
510	1.000000	0.163078	7.37004e+06	-51589.1	1005.82	-29751.8	0.000000	0.000000	6.162782	0.051131	NaN	0.000000	0.001661	0.001766	28.0802	0.043844	0.001969	22.2672	-166.881	-162.868	0.068161	0.161803	-0.960711	-0.961986	0.051131	22.2672	-0.962433	-7.074084E+12	-7.227915E-15	NaN
510	1.000000	0.173085	7.37004e+06	-51589.1	1005.82	-29751.8	0.000000	0.000000	6.172785	-0.019258	NaN	0.000000	0.001641	0.001777	28.08	0.011692	0.001982	5.898867	-127.012	15.5344	0.071064	0.171719	-0.950705	-0.952070	-0.019258	5.898867	-0.948256	-4.555189E+12	4.227756E-15	NaN
510	1.000000	0.183098	7.37004e+06	-51589.1	1005.82	-29751.8	0.000000	0.000000	6.182800	0.029699	NaN	0.000000	0.001628	0.001790	28.0804	0.118747	0.002084	56.9791	64.0539	-167.34	0.088407	0.181771	-0.940691	-0.942018	0.029699	56.9791	-0.941082	-3.645341E+12	-8.147068E-15	NaN
510	1.000000	0.193099	7.37004e+06	-51589.1	1005.82	-29751.8	0.000000	0.000000	6.192799	-0.042187	NaN	0.000000	0.001604	0.001772	28.0802	0.043376	0.001929	22.484	-129.464	15.9469	-0.027958	0.191739	-0.930690	-0.932050	-0.042187	22.484	-0.929283	-2.526502E+12	1.669793E-14	NaN
510	1.000000	0.203123	7.37004e+06	-51589.1	1005.82	-29751.8	0.000000	0.000000	6.202824	-0.000453	NaN	0.000000	0.001620	0.001772	28.0802	0.027983	0.001995	14.03	-7.500438	-163.252	0.047520	0.201760	-0.920666	-0.922029	-0.000453	14.03	-0.920642	-1.931404E+12	2.347465E-16	NaN
510	1.000000	0.213091	7.37004e+06	-51589.1	1005.82	-29751.8	0.000000	0.000000	6.212793	0.009762	NaN	0.000000	0.001630	0.001778	28.0802	0.064204	0.002074	30.9569	-40.8532	17.9017	0.032428	0.211724	-0.910698	-0.912066	0.009762	30.9569	-0.910934	-1.428176E+12	-6.835270E-15	NaN
510	1.000000	0.223097	7.37004e+06	-51589.1	1005.82	-29751.8	0.000000	0.000000	6.222797	-0.031113	NaN	0.000000	0.001613	0.001806	28.0806	0.027881	0.001909	14.6034	-92.1668	-161.25	-0.010143	0.221840	-0.900692	-0.901950	-0.031113	14.6034	-0.899094	-9.881522E+11	3.148625E-14	NaN
510	1.000000	0.233120	7.37004e+06	-51589.1	1005.82	-29751.8	0.000000	0.000000	6.232823	0.055345	NaN	0.000000	0.001576	0.001781	28.0802	0.063565	0.001880	33.8093	-140.994	14.6108	-0.007810	0.231759	-0.890670	-0.892030	0.055345	33.8093	-0.891897	-7.898802E+11	-7.006698E-14	NaN
510	1.000000	0.243120	7.37004e+06	-51589.1	1005.82	-29751.8	0.000000	0.000000	6.242822	-0.006515	NaN	0.000000	0.001597	0.001749	28.0802	0.044358	0.002038	21.7641	-81.0129	-165.096	0.022451	0.241831	-0.880669	-0.881958	-0.006515	21.7641	-0.880444	-5.529876E+11	1.178091E-14	NaN
510	1.000000	0.253143	7.37004e+06	-51589.1	1005.82	-29751.8	0.000000	0.000000	6.252845	0.016909	NaN	0.000000	0.001635	0.001758	28.0801	0.049327	0.002107	23.4068	160.13	14.8095	-0.019919	0.251784	-0.870647	-0.872005	0.016909	23.4068	-0.871188	-4.144970E+11	-4.079339E-14	NaN
510	1.000000	0.263120	7.37004e+06	-51589.1	1005.82	-29751.8	0.000000	0.000000	6.262821	-0.001975	NaN	0.000000	0.001573	0.001748	28.0805	0.063890	0.001949	32.7821	-47.3651	-163.048	0.022637	0.261839	-0.860669	-0.861950	-0.001975	32.7821	-0.860624	-2.982392E+11	6.620739E-15	NaN
510	1.000000	0.273153	7.37004e+06	-51589.1	1005.82	-29751.8	0.000000	0.000000	6.272856	0.026327	NaN	0.000000	0.001591	0.001773	28.0801	0.101107	0.001889	53.5127	-101.633	11.8047	0.020108	0.271779	-0.850636	-0.852010	0.026327	53.5127	-0.851005	-2.209749E+11	-1.191387E-13	NaN
510	1.000000	0.283120	7.37004e+06	-51589.1	1005.82	-29751.8	0.000000	0.000000	6.282823	0.031607	NaN	0.000000	0.001568	0.001744	28.0802	0.034931	0.002021	17.2846	124.558	-165.227	0.042568	0.281865	-0.840669	-0.841924	0.031607	17.2846	-0.842040	-1.670831E+11	-1.891672E-13	NaN
510	1.000000	0.293151	7.37004e+06	-51589.1	1005.82	-29751.8	0.000000	0.000000	6.292853	0.009259	NaN	0.000000	0.001569	0.001745	28.0812	0.100427	0.002018	49.7671	-83.2248	13.9701	0.080007	0.291742	-0.830638	-0.832047	0.009259	49.7671	-0.830778	-1.175773E+11	-7.874615E-14	NaN
510	1.000000	0.303163	7.37004e+06	-51589.1	1005.82	-29751.8	0.000000	0.000000	6.302865	0.037072	NaN	0.000000	0.001597	0.001751	28.0816	0.043169	0.002002	21.5615	171.169	-162.758	0.041324	0.301836	-0.820627	-0.821953	0.037072	21.5615	-0.821916	-8.916467E+10	-4.157705E-13	NaN
510	1.000000	0.313142	7.37004e+06	-51589.1	1005.82	-29751.8	0.000000	0.000000	6.312843	0.007691	NaN	0.000000	0.001624	0.001742	28.0812	0.044277	0.002024	21.8731	132.783	15.7701	0.037582	0.311832	-0.810648	-0.811957	0.007691	21.8731	-0.810911	-6.323189E+10	-1.216351E-13	NaN
510	1.000000	0.323173	7.37004e+06	-51589.1	1005.82	-29751.8	0.000000	0.000000	6.322875	0.001878	NaN	0.000000	0.001589	0.001760	28.0812	0.018145	0.001973	9.196899	-55.9832	-164.841	0.051700	0.321887	-0.800616	-0.801902	0.001878	9.196899	-0.800769	-4.605749E+10	-4.077425E-14	NaN
510	1.000000	0.333181	7.37004e+06	-51589.1	1005.82	-29751.8	0.000000	0.000000	6.332884	0.033363	NaN	0.000000	0.001564	0.001796	28.0813	0.033582	0.002082	16.1267	26.3338	18.4367	0.010203	0.331771	-0.790608	-0.792018	0.033363	16.1267	-0.792160	-3.518979E+10	-9.480828E-13	NaN
510	1.000000	0.343163	7.37004e+06	-51589.1	1005.82	-29751.8	0.000000	0.000000	6.342864	0.014150	NaN	0.000000	0.001582	0.001780	28.0814	0.079850	0.002030	39.3272	89.3205	-162.27	0.037732	0.341835	-0.780627	-0.781955	0.014150	39.3272	-0.780896	-2.474079E+10	-5.719146E-13	NaN
510	1.000000	0.353175	7.37004e+06	-51589.1	1005.82	-29751.8	0.000000	0.000000	6.352877	0.008040	NaN	0.000000	0.001617	0.001789	28.0812	0.114693	0.002017	56.867	-139.459	12.6419	-0.015874	0.351810	-0.770614	-0.771980	0.008040	56.867	-0.770720	-1.799281E+10	-4.468565E-13	NaN
510	1.000000	0.363175	7.37004e+06	-51589.1	1005.82	-29751.8	0.000000	0.000000	6.362877	0.009885	NaN	0.000000	0.001596	0.001797	28.0814	0.094705	0.002081	45.5058	107.777	-166.831	-0.034494	0.361931	-0.760614	-0.761858	0.009885	45.5058	-0.760777	-1.317867E+10	-7.500589E-13	NaN
510	1.000000	0.373173	7.37004e+06	-51589.1	1005.82	-29751.8	0.000000	0.000000	6.372873	-0.033550	NaN	0.000000	0.001557	0.001783	28.0814	0.146568	0.001934	75.7695	46.1869	10.4175	0.015935	0.371791	-0.750616	-0.751998	-0.033550	75.7695	-0.750284	-9.486124E+9	3.536766E-12	NaN
510	1.000000	0.383227	7.37004e+06	-51589.1	1005.82	-29751.8	0.000000	0.000000	6.382929	0.010035	NaN	0.000000	0.001587	0.001778	28.0812	0.064815	0.002002	32.3781	15.1374	-164.003	-0.047936	0.381857	-0.740562	-0.741932	0.010035	32.3781	-0.740795	-7.044990E+9	-1.424358E-12	NaN
510	1.000000	0.393183	7.37004e+06	-51589.1	1005.82	-29751.8	0.000000	0.000000	6.392885	0.019896	NaN	0.000000	0.001550	0.001829	28.0812	0.119862	0.002024	59.2314	161.365	19.2538	-0.050904	0.391797	-0.730606	-0.731992	0.019896	59.2314	-0.730858	-5.158217E+9	-3.857185E-12	NaN
510	1.000000	0.403193	7.37004e+06	-51589.1	1005.82	-29751.8	0.000000	0.000000	6.402892	-0.038962	NaN	0.000000	0.001551	0.001772	28.0814	0.170653	0.001975	86.3926	19.1412	-165.69	-0.087761	0.401882	-0.720596	-0.721907	-0.038962	86.3926	-0.720258	-3.698239E+9	1.053522E-11	NaN
510	1.000000	0.413179	7.37004e+06	-51589.1	1005.82	-29751.8	0.000000	0.000000	6.412880	-0.017978	NaN	0.000000	0.001567	0.001724	28.0817	0.040758	0.002005	20.333	150.514	11.9777	-0.009780	0.411815	-0.710610	-0.711974	-0.017978	20.333	-0.709947	-2.674990E+9	6.720838E-12	NaN
510	1.000000	0.423212	7.37004e+06	-51589.1	1005.82	-29751.8	0.000000	0.000000	6.422916	0.068771	NaN	0.000000	0.001536	0.001770	28.0807	0.043199	0.001892	22.8286	-89.0741	-164.443	0.009399	0.421925	-0.700577	-0.701864	0.068771	22.8286	-0.702836	-2.139260E+9	-3.214691E-11	NaN
510	1.000000	0.433202	7.37004e+06	-51589.1	1005.82	-29751.8	0.000000	0.000000	6.432907	0.074325	NaN	0.000000	0.001515	0.001794	28.0802	0.063793	0.001977	32.2598	-158.024	18.45	0.049706	0.431829	-0.690587	-0.691960	0.074325	32.2598	-0.692315	-1.536567E+9	-4.837106E-11	NaN
510	1.000000	0.443232	7.37004e+06	-51589.1	1005.82	-29751.8	0.000000	0.000000	6.442932	-0.033648	NaN	0.000000	0.001575	0.001811	28.0805	0.096016	0.002051	46.8118	168.795	-163.801	0.009654	0.441911	-0.680557	-0.681878	-0.033648	46.8118	-0.680018	-1.043398E+9	3.224815E-11	NaN
510	1.000000	0.453223	7.37004e+06	-51589.1	1005.82	-29751.8	0.000000	0.000000	6.452925	0.006721	NaN	0.000000	0.001524	0.001798	28.0805	0.070795	0.001932	36.6523	-92.2867	13.3833	0.049503	0.451926	-0.670566	-0.671864	0.006721	36.6523	-0.670704	-7.780773E+8	-8.638489E-12	NaN
510	1.000000	0.463240	7.37004e+06	-51589.1	1005.82	-29751.8	0.000000	0.000000	6.462940	-0.016640	NaN	0.000000	0.001556	0.001781	28.0802	0.044578	0.002096	21.2658	-79.0901	-161.353	0.038609	0.461951	-0.660549	-0.661839	-0.016640	21.2658	-0.659963	-5.545702E+8	3.000516E-11	NaN
510	1.000000	0.473208	7.37004e+06	-51589.1	1005.82	-29751.8	0.000000	0.000000	6.472908	-0.034675	NaN	0.000000	0.001577	0.001752	28.0804	0.070739	0.001908	37.084	-111.265	14.6486	-0.053600	0.471847	-0.650581	-0.651942	-0.034675	37.084	-0.649880	-4.034513E+8	8.594588E-11	NaN
510	1.000000	0.483228	7.37004e+06	-51589.1	1005.82	-29751.8	0.000000	0.000000	6.482926	-0.069043	NaN	0.000000	0.001591	0.001784	28.0805	0.059429	0.002211	26.8727	-88.0801	-165.183	-0.020770	0.481941	-0.640562	-0.641848	-0.069043	26.8727	-0.638635	-2.828500E+8	2.440970E-10	NaN
510	1.000000	0.493217	7.37004e+06	-51589.1	1005.82	-29751.8	0.000000	0.000000	6.492918	0.003978	NaN	0.000000	0.001592	0.001757	28.0802	0.103842	0.002179	47.6628	-146.716	14.8947	0.050094	0.491868	-0.630572	-0.631921	0.003978	47.6628	-0.630635	-2.196564E+8	-1.811160E-11	NaN
510	1.000000	0.503251	7.37004e+06	-51589.1	1005.82	-29751.8	0.000000	0.000000	6.502948	-0.081328	NaN	0.000000	0.001620	0.001794	28.0803	0.054007	0.001950	27.6948	-40.1454	-164.001	-0.017995	0.501908	-0.620539	-0.621881	-0.081328	27.6948	-0.618336	-1.488547E+8	5.463607E-10	NaN
510	1.000000	0.513236	7.37004e+06	-51589.1	1005.82	-29751.8	0.000000	0.000000	6.512938	0.008625	NaN	0.000000	0.001579	0.001757	28.0802	0.045252	0.001996	22.6698	-30.7536	17.2887	0.005615	0.511858	-0.610553	-0.611931	0.008625	22.6698	-0.610838	-1.173946E+8	-7.346919E-11	NaN
510	1.000000	0.523236	7.37004e+06	-51589.1	1005.82	-29751.8	0.000000	0.000000	6.522939	0.047875	NaN	0.000000	0.001613	0.001757	28.0802	0.131571	0.002048	64.2479	11.164	-163.247	-0.050796	0.521944	-0.600553	-0.601846	0.047875	64.2479	-0.601112	-8.625401E+7	-5.550464E-10	NaN
510	1.000000	0.533237	7.37004e+06	-51589.1	1005.82	-29751.8	0.000000	0.000000	6.532938	-0.002161	NaN	0.000000	0.001573	0.001761	28.08	0.091968	0.001861	49.4173	-159.882	13.3772	0.036713	0.531876	-0.590552	-0.591913	-0.002161	49.4173	-0.590520	-6.163514E+7	3.506025E-11	NaN
510	1.000000	0.543243	7.37004e+06	-51589.1	1005.82	-29751.8	0.000000	0.000000	6.542947	0.061340	NaN	0.000000	0.001585	0.001790	28.08	0.131972	0.001794	73.579	-19.6115	-166.672	0.051314	0.541926	-0.580546	-0.581864	0.061340	73.579	-0.581171	-4.580237E+7	-1.339236E-9	NaN
510	1.000000	0.553254	7.37004e+06	-51589.1	1005.82	-29751.8	0.000000	0.000000	6.552959	0.093495	NaN	0.000000	0.001633	0.001735	28.0803	0.061155	0.002070	29.5404	161.765	11.8551	0.035935	0.551889	-0.570535	-0.571900	0.093495	29.5404	-0.572909	-3.522257E+7	-2.654415E-9	NaN
510	1.000000	0.563263	7.37004e+06	-51589.1	1005.82	-29751.8	0.000000	0.000000	6.562964	-0.006475	NaN	0.000000	0.001599	0.001782	28.0819	0.011019	0.001895	5.814200	33.3159	-163.488	-0.017134	0.561910	-0.560526	-0.561879	-0.006475	5.814200	-0.559691	-2.312605E+7	2.799965E-10	NaN
510	1.000000	0.573277	7.37004e+06	-51589.1	1005.82	-29751.8	0.000000	0.000000	6.572981	0.062841	NaN	0.000000	0.001618	0.001775	28.0818	0.088828	0.002147	41.37	88.2908	15.8264	0.023973	0.571909	-0.550512	-0.551880	0.062841	41.37	-0.551652	-1.789907E+7	-3.510868E-9	NaN
510	1.000000	0.583288	7.37004e+06	-51589.1	1005.82	-29751.8	0.000000	0.000000	6.582989	-0.017721	NaN	0.000000	0.001576	0.001751	28.0816	0.094987	0.002031	46.7727	126.697	-163.812	-0.008915	0.581995	-0.540501	-0.541794	-0.017721	46.7727	-0.540217	-1.242698E+7	1.426042E-9	NaN
510	1.000000	0.593319	7.37004e+06	-51589.1	1005.82	-29751.8	0.000000	0.000000	6.593018	-0.060155	NaN	0.000000	0.001576	0.001777	28.0818	0.116772	0.002013	58.0069	-64.5108	14.9848	-0.029690	0.591899	-0.530470	-0.531890	-0.060155	58.0069	-0.529692	-8.87777e+06	6.775905E-9	NaN
510	1.000000	0.603252	7.37004e+06	-51589.1	1005.82	-29751.8	0.000000	0.000000	6.602956	0.047402	NaN	0.000000	0.001593	0.001798	28.0815	0.108002	0.002003	53.9325	52.1527	-165.28	-0.044530	0.601957	-0.520537	-0.521832	0.047402	53.9325	-0.521196	-6.76441e+06	-7.007628E-9	NaN
510	1.000000	0.613291	7.37004e+06	-51589.1	1005.82	-29751.8	0.000000	0.000000	6.612993	0.026548	NaN	0.000000	0.001599	0.001771	28.0815	0.080855	0.001972	40.9945	65.3987	16.5272	-0.066382	0.611932	-0.510498	-0.511857	0.026548	40.9945	-0.510984	-4.87661e+06	-5.443902E-9	NaN
510	1.000000	0.623269	7.37004e+06	-51589.1	1005.82	-29751.8	0.000000	0.000000	6.622969	-0.023529	NaN	0.000000	0.001555	0.001765	28.0814	0.044724	0.001939	23.0633	-128.951	-161.418	0.003555	0.621982	-0.500521	-0.501807	-0.023529	23.0633	-0.499756	-3.401e+06	6.918361E-9	NaN
510	1.000000	0.633297	7.37004e+06	-51589.1	1005.82	-29751.8	0.000000	0.000000	6.632997	-0.034541	NaN	0.000000	0.001564	0.001774	28.0815	0.055673	0.001944	28.6337	106.232	15.5283	-0.071153	0.631918	-0.490492	-0.491871	-0.034541	28.6337	-0.489587	-2.45259e+06	1.408345E-8	NaN
510	1.000000	0.643294	7.37004e+06	-51589.1	1005.82	-29751.8	0.000000	0.000000	6.642994	-0.036421	NaN	0.000000	0.001530	0.001759	28.0814	0.071741	0.002035	35.2492	-6.768328	-163.532	-0.036839	0.641943	-0.480495	-0.481846	-0.036421	35.2492	-0.479720	-1.78489e+06	2.040536E-8	NaN
510	1.000000	0.653317	7.37004e+06	-51589.1	1005.82	-29751.8	0.000000	0.000000	6.653018	-0.024127	NaN	0.000000	0.001533	0.001805	28.0813	0.045089	0.001975	22.8292	-60.548	15.8479	-0.015527	0.651997	-0.470472	-0.471792	-0.024127	22.8292	-0.469679	-1.29094e+06	1.868961E-8	NaN
510	1.000000	0.663287	7.37004e+06	-51589.1	1005.82	-29751.8	0.000000	0.000000	6.662984	-0.104551	NaN	0.000000	0.001563	0.001761	28.0817	0.103664	0.002009	51.5886	0.878058	-160.775	-0.083310	0.661990	-0.460502	-0.461799	-0.104551	51.5886	-0.458982	-913515	1.144496E-7	NaN
510	1.000000	0.673303	7.37004e+06	-51589.1	1005.82	-29751.8	0.000000	0.000000	6.673007	0.068330	NaN	0.000000	0.001579	0.001770	28.0813	0.006057	0.002051	2.952556	91.9706	14.4237	-0.010869	0.671965	-0.450486	-0.451825	0.068330	2.952556	-0.467843	-1.2166e+06	-5.616433E-8	NaN
510	1.000000	0.683316	7.37004e+06	-51589.1	1005.82	-29751.8	0.000000	0.000000	6.683018	0.023549	NaN	0.000000	0.001556	0.001769	28.0814	0.078076	0.001899	41.1246	15.9011	-164	-0.015237	0.682030	-0.440474	-0.441759	0.023549	41.1246	-0.440903	-508287	-4.633108E-8	NaN
510	1.000000	0.693290	7.37004e+06	-51589.1	1005.82	-29751.8	0.000000	0.000000	6.692991	-0.003409	NaN	0.000000	0.001579	0.001787	28.0812	0.079081	0.002074	38.1299	-104.161	15.962	0.092377	0.691996	-0.430499	-0.431793	-0.003409	38.1299	-0.430432	-361558	9.428159E-9	NaN
510	1.000000	0.703335	7.37004e+06	-51589.1	1005.82	-29751.8	0.000000	0.000000	6.703035	-0.049960	NaN	0.000000	0.001593	0.001756	28.0801	0.039338	0.001932	20.3607	60.0405	-161.974	-0.000967	0.701972	-0.420454	-0.421818	-0.049960	20.3607	-0.418614	-245894	2.031760E-7	NaN
510	1.000000	0.713319	7.37004e+06	-51589.1	1005.82	-29751.8	0.000000	0.000000	6.713019	-0.021385	NaN	0.000000	0.001599	0.001740	28.0803	0.091058	0.001964	46.3745	-138.104	16.976	0.008121	0.711951	-0.410471	-0.411838	-0.021385	46.3745	-0.410125	-186284	1.147956E-7	NaN
510	1.000000	0.723336	7.37004e+06	-51589.1	1005.82	-29751.8	0.000000	0.000000	6.723036	-0.035308	NaN	0.000000	0.001569	0.001795	28.0801	0.159800	0.001922	83.1485	117.765	-163.338	-0.028038	0.722045	-0.400453	-0.401744	-0.035308	83.1485	-0.400135	-134250	2.629990E-7	NaN
510	1.000000	0.733344	7.37004e+06	-51589.1	1005.82	-29751.8	0.000000	0.000000	6.733047	0.048786	NaN	0.000000	0.001566	0.001818	28.08	0.018070	0.001950	9.266240	-78.675	11.5712	0.061824	0.731978	-0.390445	-0.391811	0.048786	9.266240	-0.394394	-111167	-4.388583E-7	NaN
510	1.000000	0.743347	7.37004e+06	-51589.1	1005.82	-29751.8	0.000000	0.000000	6.743050	0.053427	NaN	0.000000	0.001604	0.001762	28.0801	0.021203	0.002010	10.5484	109.478	-164.524	0.027944	0.742092	-0.380442	-0.381698	0.053427	10.5484	-0.384241	-79562.9	-6.715036E-7	NaN
510	1.000000	0.753338	7.37004e+06	-51589.1	1005.82	-29751.8	0.000000	0.000000	6.753039	-0.000112	NaN	0.000000	0.001564	0.001755	28.0801	0.061568	0.002130	28.9018	70.8609	14.6977	0.058902	0.751984	-0.370451	-0.371805	-0.000112	28.9018	-0.370448	-50417.7	2.223125E-9	NaN
510	1.000000	0.763362	7.37004e+06	-51589.1	1005.82	-29751.8	0.000000	0.000000	6.763063	0.002770	NaN	0.000000	0.001589	0.001752	28.08	0.109354	0.001949	56.0999	136.603	-166.277	0.019332	0.762086	-0.360427	-0.361703	0.002770	56.0999	-0.360464	-36187.4	-7.654178E-8	NaN
510	1.000000	0.773330	7.37004e+06	-51589.1	1005.82	-29751.8	0.000000	0.000000	6.773030	-0.031418	NaN	0.000000	0.001584	0.001716	28.0801	0.031678	0.001969	16.0857	37.6411	15.4682	-0.090341	0.771972	-0.350459	-0.351817	-0.031418	16.0857	-0.348994	-24683.1	1.272840E-6	NaN
510	1.000000	0.783344	7.37004e+06	-51589.1	1005.82	-29751.8	0.000000	0.000000	6.783044	-0.028034	NaN	0.000000	0.001534	0.001778	28.0803	0.027810	0.001905	14.5988	13.1547	-161.915	0.063391	0.782049	-0.340446	-0.341740	-0.028034	14.5988	-0.339005	-17662.5	1.587178E-6	NaN
510	1.000000	0.793386	7.37004e+06	-51589.1	1005.82	-29751.8	0.000000	0.000000	6.793084	-0.087201	NaN	0.000000	0.001566	0.001788	28.0801	0.087429	0.001988	43.9727	73.8385	15.0541	-0.087731	0.792032	-0.330403	-0.331757	-0.087201	43.9727	-0.328915	-12576.6	6.933613E-6	NaN
510	1.000000	0.803371	7.37004e+06	-51589.1	1005.82	-29751.8	0.000000	0.000000	6.803070	-0.041634	NaN	0.000000	0.001568	0.001792	28.0804	0.112912	0.001910	59.1146	162.956	-166.162	-0.028527	0.802034	-0.320418	-0.321756	-0.041634	59.1146	-0.319890	-9268.76	4.491836E-6	NaN
510	1.000000	0.813324	7.37004e+06	-51589.1	1005.82	-29751.8	0.000000	0.000000	6.813023	-0.049674	NaN	0.000000	0.001574	0.001744	28.08	0.026325	0.002072	12.7035	-134.944	16.1857	0.001896	0.811976	-0.310465	-0.311813	-0.049674	12.7035	-0.307532	-6088.5	8.158662E-6	NaN
510	1.000000	0.823356	7.37004e+06	-51589.1	1005.82	-29751.8	0.000000	0.000000	6.823057	-0.006606	NaN	0.000000	0.001533	0.001773	28.0811	0.086810	0.001998	43.446	159.415	-163.417	-0.076532	0.822077	-0.300433	-0.301712	-0.006606	43.446	-0.300319	-4757.59	1.388479E-6	NaN
510	1.000000	0.833408	7.37004e+06	-51589.1	1005.82	-29751.8	0.000000	0.000000	6.833110	0.019318	NaN	0.000000	0.001545	0.001758	28.081	0.103319	0.002080	49.6675	-24.7692	17.333	0.001453	0.831997	-0.290381	-0.291792	0.019318	49.6675	-0.290673	-3414.9	-5.656905E-6	NaN
510	1.000000	0.843390	7.37004e+06	-51589.1	1005.82	-29751.8	0.000000	0.000000	6.843092	0.005149	NaN	0.000000	0.001578	0.001767	28.0818	0.061038	0.001957	31.1832	-102.86	-164.512	0.071571	0.842080	-0.280399	-0.281710	0.005149	31.1832	-0.280523	-2403.57	-2.142290E-6	NaN
510	1.000000	0.853399	7.37004e+06	-51589.1	1005.82	-29751.8	0.000000	0.000000	6.853100	-0.019980	NaN	0.000000	0.001582	0.001759	28.0814	0.073871	0.002011	36.7311	19.1099	12.9661	0.053337	0.851999	-0.270390	-0.271790	-0.019980	36.7311	-0.269982	-1664.46	1.200397E-5	NaN
510	1.000000	0.863397	7.37004e+06	-51589.1	1005.82	-29751.8	0.000000	0.000000	6.863100	0.042921	NaN	0.000000	0.001573	0.001763	28.0819	0.048804	0.001909	25.5659	109.912	-162.288	0.042265	0.862154	-0.260392	-0.261636	0.042921	25.5659	-0.261651	-1242.24	-3.455156E-5	NaN
510	1.000000	0.873366	7.37004e+06	-51589.1	1005.82	-29751.8	0.000000	0.000000	6.873067	-0.006082	NaN	0.000000	0.001567	0.001783	28.0814	0.051658	0.001945	26.5662	-115.607	14.3528	-0.030693	0.871982	-0.250423	-0.251807	-0.006082	26.5662	-0.250251	-829.568	7.331485E-6	NaN
510	1.000000	0.883419	7.37004e+06	-51589.1	1005.82	-29751.8	0.000000	0.000000	6.883122	0.045719	NaN	0.000000	0.001584	0.001815	28.0815	0.074589	0.002051	36.3683	62.1654	-162.39	0.062492	0.882065	-0.240370	-0.241724	0.045719	36.3683	-0.241313	-602.628	-7.586637E-5	NaN
510	1.000000	0.893390	7.37004e+06	-51589.1	1005.82	-29751.8	0.000000	0.000000	6.893092	0.015820	NaN	0.000000	0.001560	0.001775	28.0814	0.045019	0.001922	23.4265	97.1955	15.6179	-0.034712	0.892075	-0.230399	-0.231715	0.015820	23.4265	-0.230905	-413.814	-3.822926E-5	NaN
510	1.000000	0.903406	7.37004e+06	-51589.1	1005.82	-29751.8	0.000000	0.000000	6.903107	0.014101	NaN	0.000000	0.001578	0.001815	28.0816	0.155593	0.002094	74.3111	-88.6068	-165.766	-0.043926	0.902147	-0.220384	-0.221642	0.014101	74.3111	-0.220526	-283.19	-4.979342E-5	NaN
510	1.000000	0.913382	7.37004e+06	-51589.1	1005.82	-29751.8	0.000000	0.000000	6.913085	0.031340	NaN	0.000000	0.001564	0.001765	28.0813	0.004376	0.002127	2.057107	-122.547	15.8232	-0.006299	0.912057	-0.210407	-0.211732	0.031340	2.057107	-0.221833	-297.127	-0.000105	NaN
510	1.000000	0.923401	7.37004e+06	-51589.1	1005.82	-29751.8	0.000000	0.000000	6.923099	-0.079294	NaN	0.000000	0.001533	0.001762	28.0815	0.083100	0.001974	42.0913	100.339	-165.249	-0.060115	0.922076	-0.200389	-0.201714	-0.079294	42.0913	-0.198976	-126.722	0.000626	NaN
510	1.000000	0.933439	7.37004e+06	-51589.1	1005.82	-29751.8	0.000000	0.000000	6.933139	-0.037842	NaN	0.000000	0.001605	0.001766	28.0815	0.006408	0.001972	3.249497	-26.2899	13.9462	0.021903	0.932037	-0.190350	-0.191753	-0.037842	3.249497	-0.181616	-64.9996	0.000582	NaN
510	1.000000	0.943430	7.37004e+06	-51589.1	1005.82	-29751.8	0.000000	0.000000	6.943133	0.064325	NaN	0.000000	0.001564	0.001778	28.0815	0.076406	0.002009	38.0403	-13.177	-164.061	-0.005655	0.942074	-0.180360	-0.181715	0.064325	38.0403	-0.181628	-65.031	-0.000989	NaN
510	1.000000	0.953452	7.37004e+06	-51589.1	1005.82	-29751.8	0.000000	0.000000	6.953153	-0.013411	NaN	0.000000	0.001569	0.001790	28.081	0.119750	0.002099	57.0628	-155.698	11.5322	0.008918	0.952058	-0.170337	-0.171731	-0.013411	57.0628	-0.170161	-41.343	0.000324	NaN
510	1.000000	0.963428	7.37004e+06	-51589.1	1005.82	-29751.8	0.000000	0.000000	6.963129	-0.020620	NaN	0.000000	0.001588	0.001816	28.0813	0.103892	0.001936	53.6749	-43.734	-164.535	-0.049077	0.962090	-0.160361	-0.161700	-0.020620	53.6749	-0.160073	-27.4966	0.000750	NaN
510	1.000000	0.973433	7.37004e+06	-51589.1	1005.82	-29751.8	0.000000	0.000000	6.973133	-0.049489	NaN	0.000000	0.001579	0.001745	28.0802	0.087921	0.001939	45.3389	-86.3625	15.7854	-0.009452	0.972026	-0.150356	-0.151764	-0.049489	45.3389	-0.149537	-17.7648	0.002786	NaN
510	1.000000	0.983425	7.37004e+06	-51589.1	1005.82	-29751.8	0.000000	0.000000	6.983126	-0.021403	NaN	0.000000	0.001581	0.001806	28.0802	0.055964	0.001974	28.3538	-105.195	-165.852	0.028575	0.982172	-0.140364	-0.141617	-0.021403	28.3538	-0.139798	-11.7264	0.001825	NaN
510	1.000000	0.993454	7.37004e+06	-51589.1	1005.82	-29751.8	0.000000	0.000000	6.993153	-0.058581	NaN	0.000000	0.001599	0.001722	28.08	0.007017	0.001929	3.636901	140.189	13.9697	-0.017209	0.992089	-0.130335	-0.131700	-0.058581	3.636901	-0.118254	-4.453742	0.013153	NaN
510	1.000000	1.003447	7.37004e+06	-51589.1	1005.82	-29751.8	0.000000	0.000000	7.003149	0.008425	NaN	0.000000	0.001639	0.001785	28.0801	0.078804	0.002001	39.3735	13.9147	-162.055	0.003168	1.002118	-0.120342	-0.121671	0.008425	39.3735	-0.120503	-4.945560	-0.001704	NaN
510	1.000000	1.013484	7.37004e+06	-51589.1	1005.82	-29751.8	0.000000	0.000000	7.013189	0.082767	NaN	0.000000	0.001586	0.001780	28.0803	0.111171	0.002013	55.2343	33.8967	16.0612	0.039748	1.012108	-0.110305	-0.111681	0.082767	55.2343	-0.111429	-3.220340	-0.025701	NaN
510	1.000000	1.023473	7.37005e+06	-51589.1	1005.82	-29751.8	0.000000	0.000000	7.023173	-0.026024	NaN	0.000000	0.001559	0.001758	28.0802	0.082474	0.002163	38.1333	-93.2478	-166.712	-0.006325	1.022158	-0.100316	-0.101631	-0.026024	38.1333	-0.099804	-1.808972	0.014386	NaN
510	1.000000	1.033462	7.37005e+06	-51589.1	1005.82	-29751.8	0.000000	0.000000	7.033163	-0.010313	NaN	0.000000	0.001586	0.001746	28.0801	0.038400	0.001951	19.679	109.77	16.2956	0.008841	1.032087	-0.090327	-0.091702	-0.010313	19.679	-0.089934	-1.077118	0.009575	NaN
510	1.000000	1.043461	7.37005e+06	-51589.1	1005.82	-29751.8	0.000000	0.000000	7.043161	-0.036459	NaN	0.000000	0.001623	0.001754	28.0802	0.049418	0.001968	25.1136	158.688	-165.192	-0.068140	1.042156	-0.080328	-0.081633	-0.036459	25.1136	-0.079239	-0.592402	0.061544	NaN
510	1.000000	1.053476	7.37005e+06	-51589.1	1005.82	-29751.8	0.000000	0.000000	7.053177	-0.010002	NaN	0.000000	0.001606	0.001749	28.0801	0.128180	0.002001	64.0684	-151.156	14.8738	-0.026872	1.052075	-0.070313	-0.071715	-0.010002	64.0684	-0.070196	-0.345254	0.028970	NaN
510	1.000000	1.063484	7.37005e+06	-51589.1	1005.82	-29751.8	0.000000	0.000000	7.063184	-0.045283	NaN	0.000000	0.001591	0.001788	28.0801	0.090914	0.001983	45.8446	32.5773	-162.945	0.020608	1.062213	-0.060305	-0.061576	-0.045283	45.8446	-0.059564	-0.174977	0.258794	NaN
510	1.000000	1.073464	7.37005e+06	-51589.1	1005.82	-29751.8	0.000000	0.000000	7.073165	0.003612	NaN	0.000000	0.001592	0.001779	28.0805	0.055305	0.002058	26.872	27.0387	13.53	-0.001938	1.072080	-0.050325	-0.051709	0.003612	26.872	-0.050426	-0.093997	-0.038428	NaN
510	1.000000	1.083484	7.37005e+06	-51589.1	1005.82	-29751.8	0.000000	0.000000	7.083191	0.133774	NaN	0.000000	0.001579	0.001710	28.0809	0.263388	0.001920	137.197	26.5793	-163.095	0.095841	1.082197	-0.040305	-0.041592	0.133774	137.197	-0.041036	-0.048626	-2.751076	NaN
510	1.000000	1.093496	7.37005e+06	-51589.1	1005.82	-29751.8	0.000000	0.000000	7.093245	1.157046	NaN	0.000000	0.001567	0.001784	28.0804	0.991401	0.001930	513.806	21.9587	15.0524	0.901041	1.092067	-0.030293	-0.031722	1.157046	513.806	-0.031982	-0.026176	-44.2033	NaN
510	1.000000	1.103478	7.37005e+06	-51589.1	1005.82	-29751.8	0.000000	0.000000	7.103291	2.724056	NaN	0.000000	0.001552	0.001791	28.0801	1.731554	0.001866	927.784	20.0667	-170.072	2.518083	1.102127	-0.020312	-0.021662	2.724056	927.784	-0.022514	-0.014553	-187.176	NaN
510	1.000000	1.113456	7.37005e+06	-51589.1	1005.82	-29751.8	0.000000	0.000000	7.113333	4.266074	NaN	0.000000	0.001606	0.001778	28.0817	2.654799	0.001910	1389.85	17.7263	13.9027	3.785364	1.112140	-0.010333	-0.011649	4.266074	1389.85	-0.012635	-0.007892	-540.544	NaN
510	1.000000	1.123483	7.37005e+06	-51589.1	1005.82	-29751.8	0.000000	0.000000	7.123447	6.382078	NaN	0.000000	0.001572	0.001765	28.0817	3.971646	0.001916	2073.13	17.3462	-166.443	5.853779	1.122156	-0.000306	-0.001633	6.382078	2073.13	-0.002615	-0.001861	-3429.26	NaN
510	2.000000	1.130602	7.37005e+06	-51589.1	1005.82	-29751.8	0.000000	0.000000	7.130650	8.429122	NaN	0.000000	0.001590	0.001819	28.082	6.912740	0.001851	3734.46	13.9538	8.957216	8.501023	1.130218	0.006813	0.006428	8.429122	3734.46	0.005120	0.004243	1986.51	52378.7
510	2.000000	1.132991	7.37005e+06	-51589.1	1005.82	-29751.8	0.000000	0.000000	7.133151	11.1523	NaN	0.000000	0.001584	0.001782	28.0815	9.312856	0.001832	5083.76	11.1049	-171.076	10.7054	1.132661	0.009202	0.008872	11.1523	5083.76	0.007557	0.006590	1692.22	57214.1
510	2.000000	1.135502	7.37005e+06	-51589.1	1005.82	-29751.8	0.000000	0.000000	7.135775	13.9081	NaN	0.000000	0.001615	0.001790	28.0816	11.9018	0.001789	6651.37	11.2143	5.290527	13.6334	1.135147	0.011713	0.011358	13.9081	6651.37	0.010144	0.009342	1488.73	62872.1
510	2.000000	1.137998	7.37005e+06	-51589.1	1005.82	-29751.8	0.000000	0.000000	7.138426	17.6708	NaN	0.000000	0.001607	0.001791	28.0818	15.2128	0.001903	7993.54	11.728	-174.606	18.2649	1.137583	0.014209	0.013794	17.6708	7993.54	0.012551	0.012156	1453.63	66238.5
510	2.000000	1.140481	7.37005e+06	-51589.1	1005.82	-29751.8	0.000000	0.000000	7.141119	22.7607	NaN	0.000000	0.001604	0.001757	28.0816	17.4613	0.001679	10400	7.514113	6.288608	21.5814	1.140090	0.016692	0.016301	22.7607	10400	0.015051	0.015353	1482.5	76684.9
510	2.000000	1.142961	7.37005e+06	-51589.1	1005.82	-29751.8	0.000000	0.000000	7.143739	26.167	NaN	0.000000	0.001610	0.001771	28.0815	20.1225	0.001846	10899.8	6.969288	-174.513	26.2418	1.142654	0.019172	0.018865	26.167	10899.8	0.017372	0.018579	1408.41	73059.6
510	2.000000	1.145446	7.37005e+06	-51589.1	1005.82	-29751.8	0.000000	0.000000	7.146507	33.078	NaN	0.000000	0.001576	0.001759	28.0816	22.6548	0.001704	13295.5	6.687558	3.537911	31.4828	1.145087	0.021656	0.021298	33.078	13295.5	0.019791	0.022214	1489.05	81501.2
510	2.000000	1.147911	7.37005e+06	-51589.1	1005.82	-29751.8	0.000000	0.000000	7.149243	39.6354	NaN	0.000000	0.001612	0.001729	28.0817	26.4451	0.001781	14848.8	5.729450	-176.077	38.8729	1.147714	0.024122	0.023925	39.6354	14848.8	0.022120	0.025984	1525.37	84161.2
510	2.000000	1.150408	7.37005e+06	-51589.1	1005.82	-29751.8	0.000000	0.000000	7.152046	47.085	NaN	0.000000	0.001571	0.001767	28.082	28.76	0.001609	17870.6	7.605093	-0.513696	44.1173	1.150087	0.026619	0.026298	47.085	17870.6	0.024643	0.030369	1550.43	93690.9
510	2.000000	1.152977	7.37005e+06	-51589.1	1005.82	-29751.8	0.000000	0.000000	7.154855	52.9313	NaN	0.000000	0.001588	0.001721	28.0817	32.1775	0.001741	18485.8	10.57	176.617	54.2893	1.152623	0.029188	0.028834	52.9313	18485.8	0.027040	0.034832	1519.6	90494
510	2.000000	1.155419	7.37005e+06	-51589.1	1005.82	-29751.8	0.000000	0.000000	7.157572	59.6184	NaN	0.000000	0.001574	0.001743	28.0828	33.8904	0.001676	20221.8	6.051972	-0.775077	57.6705	1.155108	0.031630	0.031319	59.6184	20221.8	0.029418	0.039547	1507.53	92904.4
510	2.000000	1.157918	7.37005e+06	-51589.1	1005.82	-29751.8	0.000000	0.000000	7.160534	70.8686	NaN	0.000000	0.001568	0.001735	28.0805	37.6881	0.001709	22051	6.596096	177.799	71.0754	1.157600	0.034129	0.033811	70.8686	22051	0.031718	0.044381	1596.82	95631.9
510	2.000000	1.160418	7.37005e+06	-51589.1	1005.82	-29751.8	0.000000	0.000000	7.163460	81.2161	NaN	0.000000	0.001541	0.001772	28.0806	39.8818	0.001795	22216.8	9.186767	-3.511894	80.178	1.160033	0.036629	0.036244	81.2161	22216.8	0.033887	0.049187	1651.17	91522.9
510	2.000000	1.162869	7.37005e+06	-51589.1	1005.82	-29751.8	0.000000	0.000000	7.166239	89.1905	NaN	0.000000	0.001551	0.001738	28.0804	41.879	0.001689	24797.3	8.750583	174.334	86.3644	1.162569	0.039080	0.038780	89.1905	24797.3	0.036383	0.055014	1621.22	96591.6
510	2.000000	1.165417	7.37005e+06	-51589.1	1005.82	-29751.8	0.000000	0.000000	7.169037	95.2811	NaN	0.000000	0.001527	0.001766	28.0816	45.8363	0.001693	27077.9	5.017585	-2.102228	94.1964	1.165117	0.041628	0.041327	95.2811	27077.9	0.038989	0.061441	1550.78	99806.7
510	2.000000	1.167891	7.37005e+06	-51589.1	1005.82	-29751.8	0.000000	0.000000	7.172183	111.629	NaN	0.000000	0.001588	0.001751	28.0804	50.3213	0.001872	26883.1	5.072430	178.497	110.422	1.167550	0.044102	0.043761	111.629	26883.1	0.040987	0.066605	1675.98	95169.4
510	2.000000	1.170371	7.37005e+06	-51589.1	1005.82	-29751.8	0.000000	0.000000	7.175167	123.89	NaN	0.000000	0.001558	0.001735	28.0809	51.8865	0.001685	30796.2	5.104755	-3.704301	120.504	1.170031	0.046582	0.046242	123.89	30796.2	0.043564	0.073564	1684.1	103738
510	2.000000	1.172897	7.37005e+06	-51589.1	1005.82	-29751.8	0.000000	0.000000	7.178341	139.646	NaN	0.000000	0.001573	0.001714	28.0805	53.9498	0.001728	31226.5	1.342940	-179.31	138.209	1.172581	0.049108	0.048792	139.646	31226.5	0.045754	0.079741	1751.25	101031
510	2.000000	1.175397	7.37005e+06	-51589.1	1005.82	-29751.8	0.000000	0.000000	7.181352	152.066	NaN	0.000000	0.001530	0.001748	28.0813	56.802	0.001685	33701.7	4.894579	-3.630490	150.536	1.175091	0.051608	0.051302	152.066	33701.7	0.048224	0.087002	1747.85	104390
510	2.000000	1.177856	7.37005e+06	-51589.1	1005.82	-29751.8	0.000000	0.000000	7.184720	174.163	NaN	0.000000	0.001606	0.001739	28.0803	61.4464	0.001731	35502	5.100148	175.175	172.559	1.177590	0.054067	0.053801	174.163	35502	0.050388	0.093616	1860.41	106011
510	2.000000	1.180399	7.37005e+06	-51589.1	1005.82	-29751.8	0.000000	0.000000	7.188007	192.256	NaN	0.000000	0.001578	0.001725	28.0807	64.3655	0.001748	36823.4	11.7417	-11.3531	191.08	1.179927	0.056610	0.056138	192.256	36823.4	0.052694	0.100921	1905.01	105902
510	2.000000	1.182867	7.37005e+06	-51589.1	1005.82	-29751.8	0.000000	0.000000	7.191204	209.98	NaN	0.000000	0.001585	0.001767	28.0806	64.8154	0.001747	37101	3.558927	176.447	208.425	1.182522	0.059078	0.058732	209.98	37101	0.054833	0.107936	1945.41	103175
510	2.000000	1.185335	7.37005e+06	-51589.1	1005.82	-29751.8	0.000000	0.000000	7.194403	227.76	NaN	0.000000	0.001591	0.001737	28.0808	68.5703	0.001712	40049.9	4.503009	-4.949228	222.277	1.184954	0.061546	0.061164	227.76	40049.9	0.057281	0.116239	1959.4	107324
510	2.000000	1.187868	7.37005e+06	-51589.1	1005.82	-29751.8	0.000000	0.000000	7.197675	245.729	NaN	0.000000	0.001553	0.001789	28.0805	72.1518	0.001663	43374.8	4.291625	174.153	242.89	1.187537	0.064079	0.063748	245.729	43374.8	0.059830	0.125200	1962.69	111997
510	2.000000	1.190337	7.37005e+06	-51589.1	1005.82	-29751.8	0.000000	0.000000	7.201110	269.215	NaN	0.000000	0.001574	0.001787	28.0805	74.2481	0.001810	41017.5	4.512697	-4.533593	264.804	1.189976	0.066548	0.066187	269.215	41017.5	0.061626	0.131702	2044.12	103263
510	2.000000	1.192778	7.37005e+06	-51589.1	1005.82	-29751.8	0.000000	0.000000	7.204356	288.804	NaN	0.000000	0.001551	0.001748	28.0818	76.7853	0.001608	47743.4	1.837203	176.236	284.642	1.192417	0.068989	0.068628	288.804	47743.4	0.064452	0.142255	2030.18	115652
510	2.000000	1.195284	7.37005e+06	-51589.1	1005.82	-29751.8	0.000000	0.000000	7.207579	306.243	NaN	0.000000	0.001592	0.001740	28.0818	81.1098	0.001785	45436.8	2.874437	-4.272772	299.879	1.195005	0.071495	0.071216	306.243	45436.8	0.066440	0.149908	2042.88	107218
510	2.000000	1.197849	7.37005e+06	-51589.1	1005.82	-29751.8	0.000000	0.000000	7.210982	326.612	NaN	0.000000	0.001582	0.001763	28.0816	84.0506	0.001766	47580.7	0.903563	177.091	325.157	1.197507	0.074060	0.073718	326.612	47580.7	0.068912	0.159688	2045.31	108785
510	2.000000	1.200346	7.37005e+06	-51589.1	1005.82	-29751.8	0.000000	0.000000	7.214236	345.021	NaN	0.000000	0.001542	0.001752	28.0816	86.4958	0.001743	49634.2	5.274639	-7.375546	340.419	1.199871	0.076557	0.076081	345.021	49634.2	0.071343	0.169595	2034.38	110115
510	2.000000	1.202829	7.37005e+06	-51589.1	1005.82	-29751.8	0.000000	0.000000	7.217710	369.111	NaN	0.000000	0.001574	0.001694	28.0819	88.0764	0.001742	50549.5	6.085147	171.355	367.607	1.202519	0.079040	0.078730	369.111	50549.5	0.073563	0.178884	2063.41	109195
510	2.000000	1.205336	7.37005e+06	-51589.1	1005.82	-29751.8	0.000000	0.000000	7.221026	388.791	NaN	0.000000	0.001542	0.001760	28.0817	91.3399	0.001710	53429	6.223146	-9.398152	386.24	1.205057	0.081546	0.081268	388.791	53429	0.076089	0.189735	2049.13	112067
510	2.000000	1.207898	7.37005e+06	-51589.1	1005.82	-29751.8	0.000000	0.000000	7.224258	405.071	NaN	0.000000	0.001582	0.001659	28.0817	95.7535	0.001863	51399.5	4.605681	172.77	407.335	1.207682	0.084109	0.083893	405.071	51399.5	0.078198	0.199027	2035.26	105263
510	2.000000	1.210399	7.37005e+06	-51589.1	1005.82	-29751.8	0.000000	0.000000	7.228012	435.549	NaN	0.000000	0.001542	0.001711	28.0819	96.4226	0.001758	54859.2	4.096835	-7.130071	434.858	1.210095	0.086610	0.086306	435.549	54859.2	0.080655	0.210113	2072.92	109344
510	2.000000	1.212824	7.37005e+06	-51589.1	1005.82	-29751.8	0.000000	0.000000	7.231456	460.328	NaN	0.000000	0.001536	0.001674	28.0817	98.7905	0.001814	54470.1	4.403770	172.553	457.909	1.212545	0.089034	0.088755	460.328	54470.1	0.082696	0.219534	2096.84	106214
510	2.000000	1.215289	7.37005e+06	-51589.1	1005.82	-29751.8	0.000000	0.000000	7.235185	491.05	NaN	0.000000	0.001576	0.001703	28.0817	102.123	0.001819	56144.4	5.735383	-8.945853	484.903	1.214917	0.091500	0.091128	491.05	56144.4	0.084940	0.230116	2133.92	106932
510	2.000000	1.217799	7.37005e+06	-51589.1	1005.82	-29751.8	0.000000	0.000000	7.239005	522.916	NaN	0.000000	0.001587	0.001698	28.0818	104.353	0.001833	56917.7	4.150496	172.844	519.866	1.217532	0.094010	0.093743	522.916	56917.7	0.087119	0.240615	2173.25	106013
510	2.000000	1.220368	7.37005e+06	-51589.1	1005.82	-29751.8	0.000000	0.000000	7.242735	551.137	NaN	0.000000	0.001582	0.001720	28.082	106.965	0.001811	59064.3	7.792573	-11.6988	548.922	1.220008	0.096579	0.096219	551.137	59064.3	0.089581	0.252737	2180.68	107341
510	2.000000	1.222823	7.37005e+06	-51589.1	1005.82	-29751.8	0.000000	0.000000	7.246517	583.4	NaN	0.000000	0.001604	0.001706	28.0817	107.753	0.001796	59993.6	4.182069	172.34	580.667	1.222390	0.099034	0.098601	583.4	59993.6	0.091741	0.263604	2213.17	106758
510	2.000000	1.225263	7.37005e+06	-51589.1	1005.82	-29751.8	0.000000	0.000000	7.250352	617.337	NaN	0.000000	0.001581	0.001757	28.0818	110.758	0.001777	62331.1	4.440471	-8.531604	611.098	1.224912	0.101474	0.101123	617.337	62331.1	0.094045	0.275433	2241.33	108510
510	2.000000	1.227819	7.37005e+06	-51589.1	1005.82	-29751.8	0.000000	0.000000	7.253954	642.764	NaN	0.000000	0.001572	0.001702	28.0804	113.511	0.001717	66094.3	5.705123	170.003	640.252	1.227512	0.104029	0.103723	642.764	66094.3	0.096736	0.289549	2219.88	112222