File: remote_trans/data/nanoindenter/0828-1/data/Data_2025-08-06,11h17m57s/2025-07-22_16-23-58_1_340.txt
2025-07-22, 16:23:58, 1
Index	Phase	Displacement	Time	Pos X	Pos Y	Pos Z	Rot A	Rot B	Piezo Z	Force A	Force B	Gripper	Voltage A	Voltage B	Temperature	Amplitude force	Amplitude pos	Stiffness	Phase shift	Phase excitation	Force A raw	Displacement raw	HMax	HMax raw	Real Force	Real Stiffness	Contact Depth	Area	Hardness	Reduced Mod.
[#]	[#]	[um]	[s]	[um]	[um]	[um]	[m°]	[m°]	[um]	[uN]	[uN]	[V]	[V]	[V]	[°C]	[uN]	[um]	[N/m]	[°]	[°]	[uN]	[um]	[um]	[um]	[uN]	[N/m]	[um]	[um^2]	[MPa]	[MPa]
340	1.000000	0.002534	7.36839e+06	-55639.1	955.818	-29741.5	0.000000	0.000000	6.002771	0.008702	NaN	0.000000	0.001515	0.001707	28.0788	0.055941	0.000975	57.3966	178.45	-163.606	-0.123609	0.001320	-0.991362	-0.992577	0.008702	57.3966	-0.991476	-1.741747E+13	-4.996209E-16	NaN
340	1.000000	0.010530	7.36839e+06	-55639.1	955.82	-29741.5	0.000000	0.000000	6.010768	0.046396	NaN	0.000000	0.001518	0.001694	28.0786	0.077320	0.000857	90.225	111.733	-160.341	-0.008110	0.009210	-0.983366	-0.984686	0.046396	90.225	-0.983752	-1.370740E+13	-3.384770E-15	NaN
340	1.000000	0.018491	7.36839e+06	-55639.1	955.819	-29741.5	0.000000	0.000000	6.018727	-0.004355	NaN	0.000000	0.001479	0.001671	28.0785	0.152802	0.001662	91.9348	-162.737	-164.842	-0.047446	0.017278	-0.975405	-0.976618	-0.004355	91.9348	-0.975370	-1.056873E+13	4.120956E-16	NaN
340	1.000000	0.026529	7.36839e+06	-55639.1	955.817	-29741.5	0.000000	0.000000	6.026764	-0.022250	NaN	0.000000	0.001485	0.001692	28.0785	0.076115	0.001872	40.6652	124.558	-165.483	-0.024419	0.025244	-0.967367	-0.968652	-0.022250	40.6652	-0.966957	-8.140484E+12	2.733294E-15	NaN
340	1.000000	0.034519	7.36839e+06	-55639.1	955.819	-29741.5	0.000000	0.000000	6.034759	0.072614	NaN	0.000000	0.001535	0.001690	28.0788	0.045802	0.002007	22.8189	14.4486	-162.115	0.111955	0.033222	-0.959377	-0.960674	0.072614	22.8189	-0.961763	-6.928525E+12	-1.048051E-14	NaN
340	1.000000	0.042523	7.36839e+06	-55639.1	955.818	-29741.5	0.000000	0.000000	6.042759	-0.013800	NaN	0.000000	0.001529	0.001732	28.0789	0.065643	0.002014	32.595	63.4822	-163.92	0.029255	0.041177	-0.951373	-0.952719	-0.013800	32.595	-0.951055	-4.968923E+12	2.777225E-15	NaN
340	1.000000	0.050544	7.36839e+06	-55639.1	955.819	-29741.5	0.000000	0.000000	6.050781	0.001205	NaN	0.000000	0.001492	0.001699	28.079	0.064892	0.001899	34.1708	30.7542	-163.243	0.029872	0.049221	-0.943352	-0.944675	0.001205	34.1708	-0.943379	-3.914865E+12	-3.077564E-16	NaN
340	1.000000	0.058544	7.36839e+06	-55639.1	955.817	-29741.5	0.000000	0.000000	6.058779	-0.038309	NaN	0.000000	0.001503	0.001727	28.0798	0.062047	0.002095	29.6179	-74.9113	-163.997	-0.029381	0.057224	-0.935352	-0.936672	-0.038309	29.6179	-0.934382	-2.960258E+12	1.294113E-14	NaN
340	1.000000	0.066490	7.36839e+06	-55639.1	955.82	-29741.5	0.000000	0.000000	6.066724	-0.057579	NaN	0.000000	0.001469	0.001707	28.0802	0.050454	0.001917	26.3185	-117.029	-166.48	-0.022814	0.065232	-0.927406	-0.928664	-0.057579	26.3185	-0.925765	-2.264829E+12	2.542322E-14	NaN
340	1.000000	0.074499	7.36839e+06	-55639.1	955.817	-29741.5	0.000000	0.000000	6.074734	-0.026198	NaN	0.000000	0.001498	0.001708	28.0801	0.122657	0.001863	65.8281	129.657	-164.489	-0.036857	0.073183	-0.919397	-0.920713	-0.026198	65.8281	-0.919099	-1.840929E+12	1.423060E-14	NaN
340	1.000000	0.082497	7.36839e+06	-55639.1	955.818	-29741.5	0.000000	0.000000	6.082733	-0.005929	NaN	0.000000	0.001465	0.001680	28.0803	0.105693	0.001978	53.4276	45.379	-163.071	0.040166	0.081151	-0.911399	-0.912745	-0.005929	53.4276	-0.911316	-1.445237E+12	4.102476E-15	NaN
340	1.000000	0.090503	7.36839e+06	-55639.1	955.818	-29741.5	0.000000	0.000000	6.090742	0.061311	NaN	0.000000	0.001484	0.001718	28.08	0.011471	0.001904	6.024795	-63.7883	-163.077	0.082042	0.089259	-0.903393	-0.904637	0.061311	6.024795	-0.911025	-1.432230E+12	-4.280796E-14	NaN
340	1.000000	0.098527	7.36839e+06	-55639.1	955.819	-29741.5	0.000000	0.000000	6.098764	0.020578	NaN	0.000000	0.001461	0.001714	28.0801	0.071516	0.002069	34.563	-95.1567	-163.604	0.030686	0.097180	-0.895369	-0.896716	0.020578	34.563	-0.895816	-8.923287E+11	-2.306150E-14	NaN
340	1.000000	0.106531	7.36839e+06	-55639.1	955.819	-29741.5	0.000000	0.000000	6.106767	-0.024833	NaN	0.000000	0.001490	0.001711	28.0799	0.054281	0.002016	26.9247	-20.7211	-165.483	-0.002929	0.105253	-0.887365	-0.888643	-0.024833	26.9247	-0.886673	-6.713360E+11	3.698974E-14	NaN
340	1.000000	0.114542	7.36839e+06	-55639.1	955.818	-29741.5	0.000000	0.000000	6.114779	0.009892	NaN	0.000000	0.001479	0.001680	28.0799	0.014263	0.001992	7.160563	165.132	-165.693	-0.033221	0.113227	-0.879354	-0.880670	0.009892	7.160563	-0.880390	-5.520566E+11	-1.791841E-14	NaN
340	1.000000	0.122539	7.36839e+06	-55639.1	955.818	-29741.5	0.000000	0.000000	6.122777	0.042056	NaN	0.000000	0.001463	0.001709	28.08	0.089937	0.001881	47.8175	125.371	-164.743	0.056944	0.121272	-0.871357	-0.872624	0.042056	47.8175	-0.872017	-4.253293E+11	-9.887754E-14	NaN
340	1.000000	0.130561	7.36839e+06	-55639.1	955.818	-29741.5	0.000000	0.000000	6.130800	0.063490	NaN	0.000000	0.001470	0.001654	28.08	0.093574	0.001958	47.7839	-93.6047	-166.645	0.040916	0.129219	-0.863335	-0.864677	0.063490	47.7839	-0.864332	-3.347691E+11	-1.896522E-13	NaN
340	1.000000	0.138561	7.36839e+06	-55639.1	955.818	-29741.5	0.000000	0.000000	6.138800	0.035978	NaN	0.000000	0.001484	0.001700	28.0801	0.076607	0.001932	39.6612	-110.359	-161.634	0.082643	0.137245	-0.855335	-0.856651	0.035978	39.6612	-0.856015	-2.583309E+11	-1.392696E-13	NaN
340	1.000000	0.146538	7.36839e+06	-55639.1	955.818	-29741.5	0.000000	0.000000	6.146774	-0.006788	NaN	0.000000	0.001464	0.001715	28.0798	0.093675	0.002100	44.6089	-16.5212	-165.135	-0.000392	0.145224	-0.847358	-0.848672	-0.006788	44.6089	-0.847244	-1.965235E+11	3.454051E-14	NaN
340	1.000000	0.154563	7.36839e+06	-55639.1	955.819	-29741.5	0.000000	0.000000	6.154802	0.050430	NaN	0.000000	0.001507	0.001682	28.0799	0.029067	0.002124	13.683	-133.929	-160.581	-0.056384	0.153258	-0.839333	-0.840638	0.050430	13.683	-0.842097	-1.673788E+11	-3.012899E-13	NaN
340	1.000000	0.162539	7.36839e+06	-55639.1	955.818	-29741.5	0.000000	0.000000	6.162775	-0.007274	NaN	0.000000	0.001527	0.001728	28.0801	0.045194	0.002017	22.405	72.2615	-165.838	-0.060995	0.161239	-0.831358	-0.832657	-0.007274	22.405	-0.831114	-1.188183E+11	6.122280E-14	NaN
340	1.000000	0.170546	7.36839e+06	-55639.1	955.818	-29741.5	0.000000	0.000000	6.170783	0.005110	NaN	0.000000	0.001578	0.001672	28.08	0.088369	0.002076	42.5664	155.289	-165.478	-0.025026	0.169235	-0.823350	-0.824661	0.005110	42.5664	-0.823440	-9.350833E+10	-5.465180E-14	NaN
340	1.000000	0.178564	7.36839e+06	-55639.1	955.818	-29741.5	0.000000	0.000000	6.178802	0.032780	NaN	0.000000	0.001547	0.001686	28.0799	0.206510	0.001975	104.548	90.34	-164.307	-0.104019	0.177296	-0.815332	-0.816600	0.032780	104.548	-0.815567	-7.313017E+10	-4.482394E-13	NaN
340	1.000000	0.186525	7.36839e+06	-55639.1	955.818	-29741.5	0.000000	0.000000	6.186761	-0.012475	NaN	0.000000	0.001561	0.001687	28.0797	0.024080	0.001962	12.2715	-78.1227	-156.834	-0.047334	0.185249	-0.807371	-0.808647	-0.012475	12.2715	-0.806609	-5.527906E+10	2.256697E-13	NaN
340	1.000000	0.194547	7.36839e+06	-55639.1	955.818	-29741.5	0.000000	0.000000	6.194785	0.030025	NaN	0.000000	0.001589	0.001722	28.0794	0.099448	0.002104	47.2749	-132.479	-167.185	0.065376	0.193247	-0.799349	-0.800649	0.030025	47.2749	-0.799826	-4.471922E+10	-6.714225E-13	NaN
340	1.000000	0.202568	7.36839e+06	-55639.1	955.819	-29741.5	0.000000	0.000000	6.202807	0.067827	NaN	0.000000	0.001591	0.001707	28.0785	0.094858	0.001916	49.5047	-68.9223	-164.102	0.069501	0.201258	-0.791328	-0.792638	0.067827	49.5047	-0.792356	-3.540608E+10	-1.915680E-12	NaN
340	1.000000	0.210575	7.36839e+06	-55639.1	955.819	-29741.5	0.000000	0.000000	6.210811	-0.014421	NaN	0.000000	0.001546	0.001694	28.0784	0.029672	0.002050	14.4773	-164.936	-165.492	0.091767	0.209257	-0.783321	-0.784639	-0.014421	14.4773	-0.782574	-2.607385E+10	5.530716E-13	NaN
340	1.000000	0.218597	7.36839e+06	-55639.1	955.818	-29741.5	0.000000	0.000000	6.218835	0.034516	NaN	0.000000	0.001524	0.001713	28.0785	0.052696	0.002191	24.0503	171.933	-164.239	0.022304	0.217261	-0.775299	-0.776635	0.034516	24.0503	-0.776375	-2.147698E+10	-1.607139E-12	NaN
340	1.000000	0.226540	7.36839e+06	-55639.1	955.818	-29741.5	0.000000	0.000000	6.226776	-0.015946	NaN	0.000000	0.001552	0.001690	28.0782	0.087072	0.001972	44.1626	-52.1598	-163.783	-0.023810	0.225244	-0.767356	-0.768652	-0.015946	44.1626	-0.767086	-1.605749E+10	9.930585E-13	NaN
340	1.000000	0.234554	7.36839e+06	-55639.1	955.818	-29741.5	0.000000	0.000000	6.234791	-0.002547	NaN	0.000000	0.001468	0.001724	28.0786	0.108655	0.001901	57.1428	50.5285	-165.105	-0.039831	0.233287	-0.759342	-0.760609	-0.002547	57.1428	-0.759309	-1.258623E+10	2.023595E-13	NaN
340	1.000000	0.242615	7.36839e+06	-55639.1	955.819	-29741.5	0.000000	0.000000	6.242851	-0.014759	NaN	0.000000	0.001474	0.001714	28.0784	0.059918	0.002083	28.7682	67.4606	-167.175	-0.006283	0.241306	-0.751281	-0.752590	-0.014759	28.7682	-0.750896	-9.669785E+9	1.526302E-12	NaN
340	1.000000	0.250581	7.36839e+06	-55639.1	955.818	-29741.5	0.000000	0.000000	6.250818	-7.910846E-5	NaN	0.000000	0.001520	0.001723	28.0785	0.055835	0.001955	28.5564	80.3065	-163.264	-0.051136	0.249258	-0.743315	-0.744638	-7.910846E-5	28.5564	-0.743313	-7.623894E+9	1.037639E-14	NaN
340	1.000000	0.258596	7.36839e+06	-55639.1	955.818	-29741.5	0.000000	0.000000	6.258835	0.055939	NaN	0.000000	0.001524	0.001686	28.0782	0.018928	0.002011	9.411596	71.0063	-166.546	0.039333	0.257291	-0.735300	-0.736605	0.055939	9.411596	-0.739757	-6.819479E+9	-8.202759E-12	NaN
340	1.000000	0.266591	7.36839e+06	-55639.1	955.818	-29741.5	0.000000	0.000000	6.266827	-0.013518	NaN	0.000000	0.001492	0.001642	28.0784	0.078416	0.001979	39.6284	158.232	-165.896	0.002116	0.265322	-0.727305	-0.728574	-0.013518	39.6284	-0.727049	-4.577078E+9	2.953337E-12	NaN
340	1.000000	0.274609	7.36839e+06	-55639.1	955.818	-29741.5	0.000000	0.000000	6.274846	-0.006254	NaN	0.000000	0.001472	0.001658	28.0785	0.147725	0.001991	74.2084	-171.73	-164.847	-0.035069	0.273306	-0.719287	-0.720590	-0.006254	74.2084	-0.719223	-3.579992E+9	1.747013E-12	NaN
340	1.000000	0.282622	7.36839e+06	-55639.1	955.819	-29741.5	0.000000	0.000000	6.282859	-0.005143	NaN	0.000000	0.001485	0.001664	28.0783	0.076385	0.001862	41.0254	-54.9614	-164.843	0.010227	0.281317	-0.711274	-0.712579	-0.005143	41.0254	-0.711180	-2.780654E+9	1.849454E-12	NaN
340	1.000000	0.290633	7.36839e+06	-55639.1	955.819	-29741.5	0.000000	0.000000	6.290869	-0.026287	NaN	0.000000	0.001481	0.001666	28.0785	0.009376	0.001913	4.900264	172.825	-162.33	-0.076127	0.289285	-0.703263	-0.704611	-0.026287	4.900264	-0.699240	-1.910495E+9	1.375915E-11	NaN
340	1.000000	0.298610	7.36839e+06	-55639.1	955.818	-29741.5	0.000000	0.000000	6.298850	0.071451	NaN	0.000000	0.001431	0.001686	28.0783	0.106146	0.001981	53.5754	-105.713	-163.742	0.034704	0.297253	-0.695286	-0.696643	0.071451	53.5754	-0.696286	-1.741026E+9	-4.103974E-11	NaN
340	1.000000	0.306621	7.36839e+06	-55639.1	955.819	-29741.5	0.000000	0.000000	6.306858	0.024822	NaN	0.000000	0.001502	0.001704	28.0784	0.062873	0.002084	30.1649	-82.4199	-163.57	0.072790	0.305349	-0.687275	-0.688547	0.024822	30.1649	-0.687892	-1.336941E+9	-1.856606E-11	NaN
340	1.000000	0.314639	7.36839e+06	-55639.1	955.818	-29741.5	0.000000	0.000000	6.314876	0.009627	NaN	0.000000	0.001454	0.001654	28.0788	0.049822	0.002140	23.2777	-21.2707	-168.064	-0.038255	0.313323	-0.679257	-0.680573	0.009627	23.2777	-0.679567	-1.028704E+9	-9.358507E-12	NaN
340	1.000000	0.322613	7.36839e+06	-55639.1	955.818	-29741.5	0.000000	0.000000	6.322847	-0.050874	NaN	0.000000	0.001467	0.001692	28.0784	0.089270	0.001951	45.756	177.582	-165.643	-0.053000	0.321367	-0.671283	-0.672529	-0.050874	45.756	-0.670449	-7.718628E+8	6.591038E-11	NaN
340	1.000000	0.330638	7.36839e+06	-55639.1	955.819	-29741.5	0.000000	0.000000	6.330875	0.022969	NaN	0.000000	0.001390	0.001675	28.0788	0.018153	0.001953	9.296579	164.766	-166.014	-0.040596	0.329307	-0.663258	-0.664589	0.022969	9.296579	-0.665111	-6.523326E+8	-3.521053E-11	NaN
340	1.000000	0.338624	7.36839e+06	-55639.1	955.819	-29741.5	0.000000	0.000000	6.338859	-0.051355	NaN	0.000000	0.001427	0.001645	28.0795	0.146100	0.002021	72.2824	-65.2938	-166.83	-0.014704	0.337356	-0.655272	-0.656540	-0.051355	72.2824	-0.654739	-4.703120E+8	1.091937E-10	NaN
340	1.000000	0.346627	7.36839e+06	-55639.1	955.819	-29741.5	0.000000	0.000000	6.346864	-0.004730	NaN	0.000000	0.001433	0.001685	28.0796	0.096199	0.002068	46.5136	-41.98	-165.255	0.009095	0.345344	-0.647269	-0.648552	-0.004730	46.5136	-0.647193	-3.706348E+8	1.276072E-11	NaN
340	1.000000	0.354638	7.36839e+06	-55639.1	955.819	-29741.5	0.000000	0.000000	6.354876	0.037306	NaN	0.000000	0.001431	0.001656	28.0798	0.117613	0.002049	57.4121	129.327	-169.479	0.072189	0.353374	-0.639258	-0.640522	0.037306	57.4121	-0.639745	-2.929490E+8	-1.273458E-10	NaN
340	1.000000	0.362624	7.36839e+06	-55639.1	955.819	-29741.5	0.000000	0.000000	6.362863	0.043331	NaN	0.000000	0.001411	0.001655	28.0797	0.105206	0.001982	53.0707	-124.871	-165.75	0.077736	0.361351	-0.631272	-0.632545	0.043331	53.0707	-0.631884	-2.285054E+8	-1.896301E-10	NaN
340	1.000000	0.370647	7.36839e+06	-55639.1	955.819	-29741.5	0.000000	0.000000	6.370883	-0.025152	NaN	0.000000	0.001422	0.001669	28.0798	0.006122	0.002039	3.002795	111.563	-167.956	-0.012646	0.369387	-0.623249	-0.624509	-0.025152	3.002795	-0.616966	-1.425372E+8	1.764618E-10	NaN
340	1.000000	0.378625	7.36839e+06	-55639.1	955.819	-29741.5	0.000000	0.000000	6.378861	-0.027831	NaN	0.000000	0.001446	0.001714	28.0797	0.053328	0.001888	28.2518	161.331	-162.917	-0.086688	0.377349	-0.615271	-0.616547	-0.027831	28.2518	-0.614532	-1.319625E+8	2.108977E-10	NaN
340	1.000000	0.386690	7.36839e+06	-55639.1	955.818	-29741.5	0.000000	0.000000	6.386927	-0.002250	NaN	0.000000	0.001457	0.001677	28.0797	0.069575	0.001914	36.3435	40.9558	-161.141	0.011428	0.385292	-0.607206	-0.608604	-0.002250	36.3435	-0.607160	-1.044788E+8	2.153901E-11	NaN
340	1.000000	0.394640	7.36839e+06	-55639.1	955.818	-29741.5	0.000000	0.000000	6.394878	0.034209	NaN	0.000000	0.001416	0.001662	28.0796	0.033487	0.001979	16.9211	-29.846	-164.453	0.024933	0.393353	-0.599256	-0.600543	0.034209	16.9211	-0.600772	-8.532857E+7	-4.009073E-10	NaN
340	1.000000	0.402638	7.36839e+06	-55639.1	955.818	-29741.5	0.000000	0.000000	6.402874	-0.032028	NaN	0.000000	0.001381	0.001740	28.0796	0.015290	0.001974	7.746075	48.1568	-166.734	-0.054682	0.401330	-0.591258	-0.592566	-0.032028	7.746075	-0.588157	-5.718061E+7	5.601206E-10	NaN
340	1.000000	0.410646	7.36839e+06	-55639.1	955.818	-29741.5	0.000000	0.000000	6.410882	-0.032123	NaN	0.000000	0.001412	0.001671	28.0799	0.058894	0.001932	30.4878	57.545	-165.604	-0.043472	0.409328	-0.583250	-0.584568	-0.032123	30.4878	-0.582460	-4.771626E+7	6.731982E-10	NaN
340	1.000000	0.418677	7.36839e+06	-55639.1	955.818	-29741.5	0.000000	0.000000	6.418913	-0.033890	NaN	0.000000	0.001423	0.001709	28.0796	0.167511	0.002035	82.3081	110.368	-167.016	-0.008730	0.417366	-0.575219	-0.576530	-0.033890	82.3081	-0.574910	-3.753639E+7	9.028615E-10	NaN
340	1.000000	0.426686	7.36839e+06	-55639.1	955.819	-29741.5	0.000000	0.000000	6.426923	0.028364	NaN	0.000000	0.001426	0.001709	28.0796	0.112679	0.002041	55.2204	171.293	-165.126	0.037691	0.425328	-0.567211	-0.568568	0.028364	55.2204	-0.567596	-2.974453E+7	-9.535727E-10	NaN
340	1.000000	0.434665	7.36839e+06	-55639.1	955.818	-29741.5	0.000000	0.000000	6.434898	-0.089598	NaN	0.000000	0.001486	0.001655	28.0796	0.049609	0.002184	22.7124	40.8743	-166.146	-0.114984	0.433399	-0.559231	-0.560497	-0.089598	22.7124	-0.556272	-2.073926E+7	4.320219E-9	NaN
340	1.000000	0.442701	7.36839e+06	-55639.1	955.818	-29741.5	0.000000	0.000000	6.442940	0.052662	NaN	0.000000	0.001488	0.001692	28.0797	0.148048	0.001926	76.8838	41.3116	-163.429	-0.022501	0.441322	-0.551195	-0.552574	0.052662	76.8838	-0.551708	-1.793147E+7	-2.936866E-9	NaN
340	1.000000	0.450685	7.36839e+06	-55639.1	955.818	-29741.5	0.000000	0.000000	6.450918	-0.067790	NaN	0.000000	0.001454	0.001659	28.0802	0.032188	0.001863	17.2809	45.0455	-168.009	-0.034426	0.449389	-0.543211	-0.544507	-0.067790	17.2809	-0.540269	-1.244780E+7	5.445904E-9	NaN
340	1.000000	0.458681	7.36839e+06	-55639.1	955.817	-29741.5	0.000000	0.000000	6.458917	-0.012713	NaN	0.000000	0.001440	0.001661	28.0799	0.031949	0.001833	17.4272	146.911	-167.895	0.004423	0.457388	-0.535215	-0.536508	-0.012713	17.4272	-0.534668	-1.040823E+7	1.221459E-9	NaN
340	1.000000	0.466711	7.36839e+06	-55639.1	955.818	-29741.5	0.000000	0.000000	6.466947	-0.030725	NaN	0.000000	0.001474	0.001651	28.0797	0.134741	0.002070	65.0842	-139.165	-164.553	-0.019408	0.465397	-0.527185	-0.528499	-0.030725	65.0842	-0.526831	-8.1012e+06	3.792674E-9	NaN
340	1.000000	0.474709	7.36839e+06	-55639.1	955.819	-29741.5	0.000000	0.000000	6.474948	0.041434	NaN	0.000000	0.001470	0.001626	28.0783	0.119669	0.002066	57.9287	-44.3139	-165.112	-0.016432	0.473378	-0.519187	-0.520518	0.041434	57.9287	-0.519723	-6.45278e+06	-6.421084E-9	NaN
340	1.000000	0.482697	7.36839e+06	-55639.1	955.818	-29741.5	0.000000	0.000000	6.482936	0.077400	NaN	0.000000	0.001484	0.001643	28.0785	0.093387	0.001982	47.1187	122.758	-162.793	0.074304	0.481330	-0.511200	-0.512566	0.077400	47.1187	-0.512432	-5.10831e+06	-1.515171E-8	NaN
340	1.000000	0.490701	7.36839e+06	-55639.1	955.819	-29741.5	0.000000	0.000000	6.490937	-0.012064	NaN	0.000000	0.001455	0.001680	28.0785	0.072462	0.002009	36.0668	-118.238	-163.849	0.007263	0.489404	-0.503195	-0.504492	-0.012064	36.0668	-0.502944	-3.76779e+06	3.201812E-9	NaN
340	1.000000	0.498706	7.36839e+06	-55639.1	955.818	-29741.5	0.000000	0.000000	6.498944	0.036265	NaN	0.000000	0.001469	0.001669	28.0782	0.097514	0.002091	46.6418	47.9728	-166.37	-0.027866	0.497443	-0.495190	-0.496453	0.036265	46.6418	-0.495773	-2.99244e+06	-1.211904E-8	NaN
340	1.000000	0.506698	7.36839e+06	-55639.1	955.819	-29741.5	0.000000	0.000000	6.506936	0.025965	NaN	0.000000	0.001456	0.001681	28.0787	0.078199	0.002057	38.0102	27.5433	-168.47	0.035580	0.505399	-0.487198	-0.488497	0.025965	38.0102	-0.487710	-2.3088e+06	-1.124620E-8	NaN
340	1.000000	0.514692	7.36839e+06	-55639.1	955.818	-29741.5	0.000000	0.000000	6.514931	0.049074	NaN	0.000000	0.001499	0.001675	28.0784	0.020528	0.001976	10.3908	-90.7238	-162.396	0.032976	0.513409	-0.479204	-0.480487	0.049074	10.3908	-0.482746	-1.96771e+06	-2.493967E-8	NaN
340	1.000000	0.522695	7.36839e+06	-55639.1	955.818	-29741.5	0.000000	0.000000	6.522932	-0.002106	NaN	0.000000	0.001471	0.001675	28.0784	0.099247	0.002186	45.3917	-157.743	-165.069	0.031520	0.521341	-0.471201	-0.472555	-0.002106	45.3917	-0.471166	-1.35443e+06	1.555176E-9	NaN
340	1.000000	0.530726	7.36839e+06	-55639.1	955.818	-29741.5	0.000000	0.000000	6.530964	0.039936	NaN	0.000000	0.001489	0.001663	28.0784	0.126059	0.002113	59.6708	6.686849	-166.694	0.069048	0.529415	-0.463170	-0.464481	0.039936	59.6708	-0.463672	-1.06317e+06	-3.756329E-8	NaN
340	1.000000	0.538748	7.36839e+06	-55639.1	955.819	-29741.5	0.000000	0.000000	6.538985	0.007756	NaN	0.000000	0.001473	0.001656	28.0782	0.039509	0.001946	20.3027	-18.0731	-163.546	-0.030681	0.537428	-0.455148	-0.456468	0.007756	20.3027	-0.455434	-814381	-9.523618E-9	NaN
340	1.000000	0.546707	7.36839e+06	-55639.1	955.819	-29741.5	0.000000	0.000000	6.546944	0.009363	NaN	0.000000	0.001502	0.001668	28.0786	0.033487	0.002086	16.0538	-4.277110	-167.006	0.010815	0.545404	-0.447189	-0.448492	0.009363	16.0538	-0.447626	-632276	-1.480798E-8	NaN
340	1.000000	0.554737	7.36839e+06	-55639.1	955.817	-29741.5	0.000000	0.000000	6.554975	0.020513	NaN	0.000000	0.001469	0.001692	28.0784	0.074459	0.001962	37.9586	58.2556	-166.792	0.056720	0.553363	-0.439159	-0.440533	0.020513	37.9586	-0.439564	-486645	-4.215187E-8	NaN
340	1.000000	0.562734	7.36839e+06	-55639.1	955.818	-29741.5	0.000000	0.000000	6.562970	-0.003764	NaN	0.000000	0.001476	0.001682	28.0785	0.010032	0.001948	5.149866	-70.1339	-165.291	0.056968	0.561409	-0.431162	-0.432487	-0.003764	5.149866	-0.430614	-363706	1.034846E-8	NaN
340	1.000000	0.570742	7.36839e+06	-55639.1	955.817	-29741.5	0.000000	0.000000	6.570979	-0.007374	NaN	0.000000	0.001522	0.001695	28.0784	0.092266	0.002089	44.1646	-101.412	-165.283	0.042298	0.569442	-0.423154	-0.424454	-0.007374	44.1646	-0.423028	-284020	2.596354E-8	NaN
340	1.000000	0.578742	7.36839e+06	-55639.1	955.818	-29741.5	0.000000	0.000000	6.578979	-0.006807	NaN	0.000000	0.001461	0.001675	28.0781	0.073441	0.001959	37.4917	-146.649	-161.019	0.025605	0.577365	-0.415154	-0.416531	-0.006807	37.4917	-0.415018	-218628	3.113548E-8	NaN
340	1.000000	0.586751	7.36839e+06	-55639.1	955.818	-29741.5	0.000000	0.000000	6.586990	0.057509	NaN	0.000000	0.001476	0.001640	28.0783	0.036640	0.001912	19.1582	101.935	-166.27	5.879353E-5	0.585459	-0.407145	-0.408437	0.057509	19.1582	-0.409397	-181895	-3.161671E-7	NaN
340	1.000000	0.594767	7.36839e+06	-55639.1	955.819	-29741.5	0.000000	0.000000	6.595006	0.064084	NaN	0.000000	0.001492	0.001697	28.0783	0.075894	0.002065	36.7508	42.96	-163.876	0.037654	0.593455	-0.399129	-0.400441	0.064084	36.7508	-0.400437	-135589	-4.726300E-7	NaN
340	1.000000	0.602739	7.36839e+06	-55639.1	955.818	-29741.5	0.000000	0.000000	6.602976	0.021196	NaN	0.000000	0.001460	0.001643	28.0785	0.109627	0.001967	55.7204	31.6858	-165.325	-0.031580	0.601393	-0.391157	-0.392503	0.021196	55.7204	-0.391443	-100878	-2.101189E-7	NaN
340	1.000000	0.610752	7.36839e+06	-55639.1	955.818	-29741.5	0.000000	0.000000	6.610989	0.032736	NaN	0.000000	0.001476	0.001682	28.0795	0.063919	0.001950	32.7853	28.3972	-165.712	0.013976	0.609445	-0.383145	-0.384451	0.032736	32.7853	-0.383893	-78655.3	-4.161917E-7	NaN
340	1.000000	0.618740	7.36839e+06	-55639.1	955.819	-29741.5	0.000000	0.000000	6.618978	0.033066	NaN	0.000000	0.001492	0.001679	28.0793	0.156259	0.002045	76.4103	19.8908	-164.06	0.097827	0.617494	-0.375156	-0.376402	0.033066	76.4103	-0.375481	-59563.3	-5.551396E-7	NaN
340	1.000000	0.626741	7.36839e+06	-55639.1	955.819	-29741.5	0.000000	0.000000	6.626978	0.007499	NaN	0.000000	0.001510	0.001665	28.0796	0.099956	0.002065	48.4052	142.295	-167.275	-0.007797	0.625469	-0.367155	-0.368427	0.007499	48.4052	-0.367272	-45374.7	-1.652602E-7	NaN
340	1.000000	0.634797	7.36839e+06	-55639.1	955.82	-29741.5	0.000000	0.000000	6.635036	0.070953	NaN	0.000000	0.001492	0.001675	28.0794	0.069570	0.001993	34.9132	-103.221	-166.685	0.079988	0.633461	-0.359099	-0.360435	0.070953	34.9132	-0.360623	-36379.4	-1.950360E-6	NaN
340	1.000000	0.642776	7.36839e+06	-55639.1	955.819	-29741.5	0.000000	0.000000	6.643009	-0.075875	NaN	0.000000	0.001487	0.001692	28.0793	0.011568	0.002058	5.620505	24.5766	-166.353	-0.013894	0.641447	-0.351120	-0.352449	-0.075875	5.620505	-0.340995	-18882.6	4.018250E-6	NaN
340	1.000000	0.650781	7.36839e+06	-55639.1	955.819	-29741.5	0.000000	0.000000	6.651020	0.042532	NaN	0.000000	0.001461	0.001681	28.0795	0.079365	0.002094	37.8925	-53.7147	-168.821	0.045838	0.649452	-0.343115	-0.344444	0.042532	37.8925	-0.343956	-20853.4	-2.039596E-6	NaN
340	1.000000	0.658739	7.36839e+06	-55639.1	955.818	-29741.5	0.000000	0.000000	6.658978	0.072942	NaN	0.000000	0.001503	0.001693	28.0794	0.086525	0.002025	42.7221	106.792	-163.689	0.023204	0.657446	-0.335157	-0.336450	0.072942	42.7221	-0.336438	-16202.8	-4.501841E-6	NaN
340	1.000000	0.666755	7.36839e+06	-55639.1	955.818	-29741.5	0.000000	0.000000	6.666994	0.045866	NaN	0.000000	0.001495	0.001663	28.0795	0.096610	0.001972	48.9919	-150.656	-163.669	0.011284	0.665497	-0.327141	-0.328399	0.045866	48.9919	-0.327843	-12129.6	-3.781359E-6	NaN
340	1.000000	0.674764	7.36839e+06	-55639.1	955.819	-29741.5	0.000000	0.000000	6.675001	-0.005472	NaN	0.000000	0.001476	0.001679	28.0793	0.122823	0.002077	59.1433	179.505	-166.365	-0.050749	0.673485	-0.319132	-0.320411	-0.005472	59.1433	-0.319062	-9012.21	6.071559E-7	NaN
340	1.000000	0.682794	7.36839e+06	-55639.1	955.818	-29741.5	0.000000	0.000000	6.683031	0.019847	NaN	0.000000	0.001536	0.001650	28.0793	0.071999	0.001949	36.9396	-58.0215	-163.325	0.062109	0.681465	-0.311102	-0.312431	0.019847	36.9396	-0.311505	-6971.39	-2.846975E-6	NaN
340	1.000000	0.690796	7.36839e+06	-55639.1	955.818	-29741.5	0.000000	0.000000	6.691031	-0.037344	NaN	0.000000	0.001489	0.001682	28.0793	0.062686	0.001863	33.6548	151.299	-163.276	-0.015429	0.689428	-0.303100	-0.304468	-0.037344	33.6548	-0.302268	-5085.92	7.342713E-6	NaN
340	1.000000	0.698790	7.36839e+06	-55639.1	955.819	-29741.5	0.000000	0.000000	6.699028	0.019100	NaN	0.000000	0.001479	0.001701	28.0798	0.034243	0.001922	17.8169	157.796	-167.474	-0.062870	0.697465	-0.295106	-0.296431	0.019100	17.8169	-0.295910	-4089.48	-4.670621E-6	NaN
340	1.000000	0.706811	7.36839e+06	-55639.1	955.818	-29741.5	0.000000	0.000000	6.707048	0.016168	NaN	0.000000	0.001505	0.001696	28.0798	0.088593	0.002021	43.8422	151.095	-165.505	-0.056079	0.705446	-0.287085	-0.288450	0.016168	43.8422	-0.287362	-3046.1	-5.307726E-6	NaN
340	1.000000	0.714789	7.36839e+06	-55639.1	955.818	-29741.5	0.000000	0.000000	6.715025	-0.006151	NaN	0.000000	0.001502	0.001633	28.0795	0.119518	0.001909	62.5962	74.8976	-161.551	-0.019971	0.713475	-0.279107	-0.280421	-0.006151	62.5962	-0.279033	-2282.35	2.695163E-6	NaN
340	1.000000	0.722783	7.36839e+06	-55639.1	955.817	-29741.5	0.000000	0.000000	6.723019	-0.015962	NaN	0.000000	0.001516	0.001706	28.0794	0.129000	0.001885	68.4404	-143.799	-162.963	-0.011698	0.721534	-0.271113	-0.272362	-0.015962	68.4404	-0.270938	-1721.07	9.274487E-6	NaN
340	1.000000	0.730814	7.36839e+06	-55639.1	955.818	-29741.5	0.000000	0.000000	6.731051	-0.001739	NaN	0.000000	0.001496	0.001681	28.0793	0.089773	0.002048	43.8265	14.1476	-164.317	0.025283	0.729461	-0.263082	-0.264435	-0.001739	43.8265	-0.263052	-1305.08	1.332508E-6	NaN
340	1.000000	0.738810	7.36839e+06	-55639.1	955.819	-29741.5	0.000000	0.000000	6.739047	0.010105	NaN	0.000000	0.001493	0.001717	28.0796	0.085385	0.001854	46.0522	-125.5	-159.695	-0.006217	0.737452	-0.255086	-0.256444	0.010105	46.0522	-0.255251	-990.783	-1.019944E-5	NaN
340	1.000000	0.746842	7.36839e+06	-55639.1	955.818	-29741.5	0.000000	0.000000	6.747077	-0.044589	NaN	0.000000	0.001495	0.001697	28.0782	0.068625	0.002000	34.3063	125.185	-162.083	-0.012816	0.745521	-0.247054	-0.248375	-0.044589	34.3063	-0.246079	-714.845	6.237565E-5	NaN
340	1.000000	0.754826	7.36839e+06	-55639.1	955.818	-29741.5	0.000000	0.000000	6.755064	0.023085	NaN	0.000000	0.001524	0.001676	28.0783	0.052622	0.001964	26.7932	-163.678	-162.744	0.003223	0.753507	-0.239070	-0.240389	0.023085	26.7932	-0.239716	-569.01	-4.057045E-5	NaN
340	1.000000	0.762821	7.36839e+06	-55639.1	955.818	-29741.5	0.000000	0.000000	6.763058	0.022344	NaN	0.000000	0.001525	0.001711	28.0785	0.090011	0.002062	43.644	154.879	-165.573	0.006871	0.761524	-0.231075	-0.232372	0.022344	43.644	-0.231459	-422.219	-5.291931E-5	NaN
340	1.000000	0.770802	7.36839e+06	-55639.1	955.818	-29741.5	0.000000	0.000000	6.771038	-0.010974	NaN	0.000000	0.001552	0.001704	28.0782	0.048980	0.001950	25.1179	-128.326	-164.145	0.007891	0.769540	-0.223094	-0.224356	-0.010974	25.1179	-0.222767	-307.48	3.569017E-5	NaN
340	1.000000	0.778817	7.36839e+06	-55639.1	955.819	-29741.5	0.000000	0.000000	6.779056	0.073290	NaN	0.000000	0.001527	0.001664	28.0781	0.017972	0.002008	8.948587	5.854328	-162.981	0.031319	0.777569	-0.215079	-0.216327	0.073290	8.948587	-0.221222	-290.528	-0.000252	NaN
340	1.000000	0.786813	7.36839e+06	-55639.1	955.818	-29741.5	0.000000	0.000000	6.787049	0.002282	NaN	0.000000	0.001613	0.001698	28.078	0.098013	0.002080	47.1155	-106.384	-163.419	0.051652	0.785487	-0.207083	-0.208409	0.002282	47.1155	-0.207120	-172.218	-1.324994E-5	NaN
340	1.000000	0.794821	7.36839e+06	-55639.1	955.818	-29741.5	0.000000	0.000000	6.795055	-0.048101	NaN	0.000000	0.001559	0.001687	28.0782	0.016656	0.002051	8.121326	8.839437	-166.67	-0.075170	0.793580	-0.199075	-0.200316	-0.048101	8.121326	-0.194633	-107.429	0.000448	NaN
340	1.000000	0.802831	7.36839e+06	-55639.1	955.818	-29741.5	0.000000	0.000000	6.803066	-0.047238	NaN	0.000000	0.001612	0.001675	28.0784	0.013076	0.001999	6.540572	-107.71	-162.877	-0.021568	0.801569	-0.191065	-0.192327	-0.047238	6.540572	-0.185648	-76.0416	0.000621	NaN
340	1.000000	0.810824	7.36839e+06	-55639.1	955.818	-29741.5	0.000000	0.000000	6.811059	-0.034382	NaN	0.000000	0.001604	0.001687	28.0782	0.061350	0.002020	30.3742	19.1508	-164.761	-0.019162	0.809518	-0.183072	-0.184378	-0.034382	30.3742	-0.182224	-66.5604	0.000517	NaN
340	1.000000	0.818827	7.36839e+06	-55639.1	955.818	-29741.5	0.000000	0.000000	6.819062	-0.039712	NaN	0.000000	0.001573	0.001640	28.0782	0.027133	0.002105	12.8907	37.8844	-165.928	-0.043296	0.817539	-0.175069	-0.176357	-0.039712	12.8907	-0.172758	-45.8534	0.000866	NaN
340	1.000000	0.826844	7.36839e+06	-55639.1	955.818	-29741.5	0.000000	0.000000	6.827081	0.008963	NaN	0.000000	0.001506	0.001653	28.0781	0.011623	0.002058	5.646953	-66.874	-164.49	-0.023668	0.825549	-0.167052	-0.168347	0.008963	5.646953	-0.168243	-38.2862	-0.000234	NaN
340	1.000000	0.834830	7.36839e+06	-55639.1	955.818	-29741.5	0.000000	0.000000	6.835068	0.038418	NaN	0.000000	0.001532	0.001652	28.0783	0.122768	0.002006	61.2067	138.02	-167.765	0.000388	0.833525	-0.159066	-0.160371	0.038418	61.2067	-0.159537	-26.9002	-0.001428	NaN
340	1.000000	0.842856	7.36839e+06	-55639.1	955.819	-29741.5	0.000000	0.000000	6.843090	-0.074365	NaN	0.000000	0.001531	0.001673	28.0782	0.084928	0.001940	43.767	150.539	-167.459	-0.057936	0.841495	-0.151040	-0.152401	-0.074365	43.767	-0.149765	-17.936	0.004146	NaN
340	1.000000	0.850844	7.36839e+06	-55639.1	955.818	-29741.5	0.000000	0.000000	6.851081	0.014107	NaN	0.000000	0.001517	0.001683	28.0783	0.077894	0.001843	42.2543	107.925	-161.805	-0.010910	0.849525	-0.143053	-0.144371	0.014107	42.2543	-0.143303	-13.6362	-0.001035	NaN
340	1.000000	0.858881	7.36839e+06	-55639.1	955.819	-29741.5	0.000000	0.000000	6.859118	0.009845	NaN	0.000000	0.001503	0.001708	28.0785	0.096618	0.001998	48.3581	-107.939	-164.269	0.024290	0.857592	-0.135015	-0.136304	0.009845	48.3581	-0.135168	-9.582712	-0.001027	NaN
340	1.000000	0.866868	7.36839e+06	-55639.1	955.818	-29741.5	0.000000	0.000000	6.867106	0.033832	NaN	0.000000	0.001533	0.001702	28.0782	0.021828	0.001793	12.1731	-154.227	-164.239	0.001879	0.865557	-0.127028	-0.128339	0.033832	12.1731	-0.129112	-7.323811	-0.004619	NaN
340	1.000000	0.874835	7.36839e+06	-55639.1	955.82	-29741.5	0.000000	0.000000	6.875071	-0.000247	NaN	0.000000	0.001520	0.001705	28.0782	0.086760	0.002056	42.1914	-12.4115	-164.641	0.009897	0.873554	-0.119061	-0.120342	-0.000247	42.1914	-0.119057	-4.623921	5.339600E-5	NaN
340	1.000000	0.882874	7.36839e+06	-55639.1	955.818	-29741.5	0.000000	0.000000	6.883111	-0.008991	NaN	0.000000	0.001550	0.001711	28.0794	0.075506	0.001945	38.8295	-130.866	-165.358	-0.007400	0.881513	-0.111022	-0.112383	-0.008991	38.8295	-0.110848	-3.131244	0.002871	NaN
340	1.000000	0.890849	7.36839e+06	-55639.1	955.819	-29741.5	0.000000	0.000000	6.891086	-0.000870	NaN	0.000000	0.001534	0.001684	28.0794	0.079078	0.002045	38.6599	-118.081	-164.627	-0.069985	0.889595	-0.103047	-0.104302	-0.000870	38.6599	-0.103030	-2.130155	0.000408	NaN
340	1.000000	0.898864	7.36839e+06	-55639.1	955.818	-29741.5	0.000000	0.000000	6.899101	0.010300	NaN	0.000000	0.001543	0.001666	28.0797	0.095423	0.001939	49.2014	-91.3933	-165.831	-0.036617	0.897576	-0.095033	-0.096320	0.010300	49.2014	-0.095190	-1.424725	-0.007230	NaN
340	1.000000	0.906852	7.36839e+06	-55639.1	955.819	-29741.5	0.000000	0.000000	6.907090	0.028420	NaN	0.000000	0.001583	0.001692	28.0795	0.012640	0.002011	6.286392	-125.937	-164.602	0.014094	0.905606	-0.087044	-0.088290	0.028420	6.286392	-0.090434	-1.106615	-0.025682	NaN
340	1.000000	0.914857	7.36839e+06	-55639.1	955.819	-29741.5	0.000000	0.000000	6.915094	0.011231	NaN	0.000000	0.001607	0.001672	28.0795	0.055213	0.002068	26.6938	82.6951	-162.885	0.007349	0.913582	-0.079039	-0.080314	0.011231	26.6938	-0.079355	-0.596370	-0.018833	NaN
340	1.000000	0.922904	7.36839e+06	-55639.1	955.819	-29741.5	0.000000	0.000000	6.923144	0.086694	NaN	0.000000	0.001588	0.001657	28.0796	0.074215	0.002025	36.6557	-0.965906	-165.58	0.042023	0.921551	-0.070992	-0.072345	0.086694	36.6557	-0.072766	-0.403891	-0.214648	NaN
340	1.000000	0.930877	7.36839e+06	-55639.1	955.819	-29741.5	0.000000	0.000000	6.931115	0.046413	NaN	0.000000	0.001605	0.001636	28.0796	0.074023	0.001979	37.4122	-65.8979	-167.151	0.078819	0.929555	-0.063019	-0.064341	0.046413	37.4122	-0.063950	-0.232989	-0.199205	NaN
340	1.000000	0.938859	7.36839e+06	-55639.1	955.818	-29741.5	0.000000	0.000000	6.939098	0.050643	NaN	0.000000	0.001500	0.001692	28.0794	0.067221	0.002032	33.0756	15.5247	-163.311	0.004003	0.937581	-0.055037	-0.056315	0.050643	33.0756	-0.056185	-0.139561	-0.362876	NaN
340	1.000000	0.946920	7.36839e+06	-55639.1	955.818	-29741.5	0.000000	0.000000	6.947155	-0.044522	NaN	0.000000	0.001531	0.001681	28.0795	0.052994	0.001913	27.7065	133.02	-164.773	-0.000798	0.945585	-0.046976	-0.048311	-0.044522	27.7065	-0.045771	-0.067852	0.656167	NaN
340	1.000000	0.954885	7.36839e+06	-55639.1	955.819	-29741.5	0.000000	0.000000	6.955120	-0.037942	NaN	0.000000	0.001491	0.001689	28.0795	0.041245	0.001990	20.727	87.9667	-159.935	-0.042737	0.953584	-0.039011	-0.040312	-0.037942	20.727	-0.037639	-0.038371	0.988834	NaN
340	1.000000	0.962894	7.36839e+06	-55639.1	955.819	-29741.5	0.000000	0.000000	6.963131	0.000501	NaN	0.000000	0.001531	0.001670	28.0794	0.065614	0.001959	33.4913	74.2729	-164.896	-0.006914	0.961541	-0.031002	-0.032355	0.000501	33.4913	-0.031013	-0.024569	-0.020388	NaN
340	1.000000	0.970916	7.36839e+06	-55639.1	955.819	-29741.5	0.000000	0.000000	6.971154	0.033464	NaN	0.000000	0.001508	0.001620	28.0795	0.175011	0.001896	92.3172	139.465	-163.369	-0.038109	0.969608	-0.022980	-0.024288	0.033464	92.3172	-0.023252	-0.015201	-2.201434	NaN
340	1.000000	0.978890	7.36839e+06	-55639.1	955.819	-29741.5	0.000000	0.000000	6.979127	0.017558	NaN	0.000000	0.001510	0.001646	28.0794	0.057693	0.002023	28.5235	-24.269	-164.305	0.002169	0.977562	-0.015006	-0.016334	0.017558	28.5235	-0.015468	-0.009557	-1.837134	NaN
340	1.000000	0.986901	7.36839e+06	-55639.1	955.82	-29741.5	0.000000	0.000000	6.987138	0.000998	NaN	0.000000	0.001501	0.001669	28.0793	0.085613	0.001991	42.9903	-26.7561	-165.296	-0.027785	0.985590	-0.006995	-0.008306	0.000998	42.9903	-0.007012	-0.004648	-0.214635	NaN
340	1.000000	0.994868	7.36839e+06	-55639.1	955.819	-29741.5	0.000000	0.000000	6.995127	0.547769	NaN	0.000000	0.001517	0.001646	28.0795	0.962772	0.002051	469.344	9.127723	-166.618	0.081393	0.993593	0.000972	-0.000303	0.547769	469.344	9.695728E-5	7.259326E-5	7545.72	50328.8
340	1.000000	1.002807	7.36839e+06	-55639.1	955.819	-29741.5	0.000000	0.000000	7.003374	8.034021	NaN	0.000000	0.001498	0.001677	28.0793	8.192736	0.001697	4827.42	9.662805	-170.379	7.130614	1.001618	0.008910	0.007722	8.034021	4827.42	0.007662	0.006697	1199.59	53893.8
340	2.000000	1.005453	7.36839e+06	-55639.1	955.818	-29741.5	0.000000	0.000000	7.006148	11.1409	NaN	0.000000	0.001499	0.001662	28.0802	10.7145	0.001501	7137.16	5.464660	-172.071	10.2304	1.005145	0.011557	0.011249	11.1409	7137.16	0.010386	0.009614	1158.86	66504.9
340	2.000000	1.007472	7.36839e+06	-55639.1	955.819	-29741.5	0.000000	0.000000	7.008294	14.23	NaN	0.000000	0.001468	0.001649	28.0781	13.855	0.001787	7752.33	5.426403	-174.682	13.5007	1.007141	0.013576	0.013245	14.23	7752.33	0.012199	0.011729	1213.2	65398.5
340	2.000000	1.009494	7.36839e+06	-55639.1	955.82	-29741.5	0.000000	0.000000	7.010362	15.3471	NaN	0.000000	0.001490	0.001653	28.0782	15.4258	0.001849	8341.35	6.493890	-173.861	14.8306	1.009106	0.015598	0.015210	15.3471	8341.35	0.014218	0.014257	1076.47	63826
340	2.000000	1.011412	7.36839e+06	-55639.1	955.819	-29741.5	0.000000	0.000000	7.012398	18.2133	NaN	0.000000	0.001466	0.001683	28.0784	17.1734	0.001828	9394.81	6.494089	-175.945	16.9136	1.011086	0.017516	0.017190	18.2133	9394.81	0.016062	0.016728	1088.8	66365.2
340	2.000000	1.013470	7.36839e+06	-55639.1	955.82	-29741.5	0.000000	0.000000	7.014444	17.9187	NaN	0.000000	0.001512	0.001681	28.0781	18.3852	0.001695	10844.4	6.891912	-176.529	18.9713	1.013234	0.019574	0.019338	17.9187	10844.4	0.018335	0.019993	896.27	70072.1
340	2.000000	1.015418	7.36839e+06	-55639.1	955.819	-29741.5	0.000000	0.000000	7.016720	25.9016	NaN	0.000000	0.001515	0.001692	28.0786	20.6367	0.001824	11312.1	2.995221	-172.835	25.6094	1.015061	0.021522	0.021165	25.9016	11312.1	0.019804	0.022236	1164.87	69309.5
340	2.000000	1.017416	7.36839e+06	-55639.1	955.819	-29741.5	0.000000	0.000000	7.018670	24.7268	NaN	0.000000	0.001554	0.001703	28.0781	22.5179	0.001953	11528.8	5.478217	-174.417	24.6336	1.017110	0.023520	0.023214	24.7268	11528.8	0.021912	0.025636	964.546	65786.3
340	2.000000	1.019464	7.36839e+06	-55639.1	955.82	-29741.5	0.000000	0.000000	7.020973	30.9196	NaN	0.000000	0.001571	0.001698	28.0782	24.0817	0.001677	14363	1.857250	-173.931	31.6473	1.019097	0.025568	0.025201	30.9196	14363	0.023954	0.029140	1061.07	76873.1
340	2.000000	1.021407	7.36839e+06	-55639.1	955.82	-29741.5	0.000000	0.000000	7.023121	35.9178	NaN	0.000000	0.001590	0.001680	28.0781	26.1658	0.001694	15442.8	4.196516	-177.477	35.8724	1.021095	0.027511	0.027199	35.9178	15442.8	0.025766	0.032424	1107.74	78354.4
340	2.000000	1.023364	7.36839e+06	-55639.1	955.82	-29741.5	0.000000	0.000000	7.025346	42.4289	NaN	0.000000	0.001604	0.001706	28.0781	28.9294	0.001815	15938.3	4.202059	-176.671	40.9913	1.023051	0.029468	0.029155	42.4289	15938.3	0.027472	0.035666	1189.6	77105.5
340	2.000000	1.025373	7.36839e+06	-55639.1	955.821	-29741.5	0.000000	0.000000	7.027496	45.8571	NaN	0.000000	0.001569	0.001688	28.0791	30.5988	0.001737	17611.1	8.569664	177.972	45.5165	1.025011	0.031477	0.031115	45.8571	17611.1	0.029524	0.039762	1153.29	80691.2
340	2.000000	1.027421	7.36839e+06	-55639.1	955.82	-29741.5	0.000000	0.000000	7.029740	50.6249	NaN	0.000000	0.001507	0.001660	28.0782	32.0918	0.001721	18650.3	3.493086	-178.372	50.915	1.027081	0.033525	0.033185	50.6249	18650.3	0.031489	0.043887	1153.52	81337.4
340	2.000000	1.029436	7.36839e+06	-55639.1	955.821	-29741.5	0.000000	0.000000	7.031805	51.8243	NaN	0.000000	0.001497	0.001696	28.0793	34.8238	0.001834	18990.5	7.943612	177.978	52.6951	1.029077	0.035540	0.035181	51.8243	18990.5	0.033493	0.048296	1073.06	78950.7
340	2.000000	1.031365	7.36839e+06	-55639.1	955.82	-29741.5	0.000000	0.000000	7.034119	61.1897	NaN	0.000000	0.001530	0.001679	28.0781	36.0755	0.001857	19422.4	7.685663	177.612	60.3016	1.031063	0.037469	0.037167	61.1897	19422.4	0.035106	0.051994	1176.86	77821.6
340	2.000000	1.033349	7.36839e+06	-55639.1	955.82	-29741.5	0.000000	0.000000	7.036212	63.8616	NaN	0.000000	0.001510	0.001671	28.0781	38.9317	0.001810	21514.7	8.369936	175.456	62.9775	1.033034	0.039453	0.039138	63.8616	21514.7	0.037226	0.057057	1119.26	82291.3
340	2.000000	1.035377	7.36839e+06	-55639.1	955.82	-29741.5	0.000000	0.000000	7.038418	68.1625	NaN	0.000000	0.001531	0.001670	28.0782	38.8572	0.001713	22689	4.987260	178.288	67.6199	1.035095	0.041481	0.041198	68.1625	22689	0.039228	0.062048	1098.55	83219.6
340	2.000000	1.037386	7.36839e+06	-55639.1	955.82	-29741.5	0.000000	0.000000	7.040750	76.0266	NaN	0.000000	0.001512	0.001658	28.0781	40.9064	0.001772	23087.2	6.169686	177.982	76.3584	1.037036	0.043490	0.043140	76.0266	23087.2	0.041020	0.066691	1139.98	81679.1
340	2.000000	1.039378	7.36839e+06	-55639.1	955.821	-29741.5	0.000000	0.000000	7.042934	80.6849	NaN	0.000000	0.001551	0.001673	28.0784	43.1799	0.001864	23167.8	2.157465	-178.377	79.5251	1.039094	0.045482	0.045198	80.6849	23167.8	0.042870	0.071656	1126	79073.5
340	2.000000	1.041383	7.36839e+06	-55639.1	955.819	-29741.5	0.000000	0.000000	7.045229	87.7244	NaN	0.000000	0.001480	0.001662	28.0794	45.6613	0.001832	24923	8.230640	175.012	87.8325	1.041042	0.047487	0.047146	87.7244	24923	0.044847	0.077154	1137	81977.3
340	2.000000	1.043336	7.36839e+06	-55639.1	955.82	-29741.5	0.000000	0.000000	7.047559	96.9211	NaN	0.000000	0.001518	0.001688	28.0796	46.9194	0.001724	27222.6	3.844965	177.834	94.477	1.043106	0.049440	0.049210	96.9211	27222.6	0.046769	0.082690	1172.1	86492.3
340	2.000000	1.045366	7.36839e+06	-55639.1	955.821	-29741.5	0.000000	0.000000	7.049936	105.344	NaN	0.000000	0.001495	0.001630	28.0804	48.1097	0.001654	29085.2	5.773432	175.407	104.992	1.045057	0.051470	0.051161	105.344	29085.2	0.048754	0.088599	1188.99	89275
340	2.000000	1.047369	7.36839e+06	-55639.1	955.821	-29741.5	0.000000	0.000000	7.052235	112.533	NaN	0.000000	0.001548	0.001606	28.0796	51.8469	0.001810	28640.1	6.643080	174.94	111.829	1.047128	0.053473	0.053231	112.533	28640.1	0.050526	0.094046	1196.57	85325.2
340	2.000000	1.049405	7.36839e+06	-55639.1	955.82	-29741.5	0.000000	0.000000	7.054487	117.803	NaN	0.000000	0.001522	0.001627	28.08	53.5777	0.001835	29205.2	8.888769	172.921	117.858	1.049090	0.055509	0.055194	117.803	29205.2	0.052483	0.100243	1175.17	84276.3
340	2.000000	1.051277	7.36839e+06	-55639.1	955.821	-29741.5	0.000000	0.000000	7.056842	129.518	NaN	0.000000	0.001507	0.001668	28.0795	54.1201	0.001693	31976.1	4.728332	175.575	125.482	1.051001	0.057381	0.057105	129.518	31976.1	0.054343	0.106310	1218.31	89601
340	2.000000	1.053272	7.36839e+06	-55639.1	955.821	-29741.5	0.000000	0.000000	7.059150	137.127	NaN	0.000000	0.001522	0.001654	28.0794	58.1867	0.001882	30913.9	6.524826	174.391	133.594	1.053037	0.059376	0.059141	137.127	30913.9	0.056049	0.112023	1224.1	84386.7
340	2.000000	1.055309	7.36839e+06	-55639.1	955.821	-29741.5	0.000000	0.000000	7.061381	141.857	NaN	0.000000	0.001526	0.001641	28.0797	58.6133	0.001759	33327.2	4.849969	175.162	141.273	1.055072	0.061413	0.061176	141.857	33327.2	0.058220	0.119503	1187.06	88080.9
340	2.000000	1.057341	7.36839e+06	-55639.1	955.821	-29741.5	0.000000	0.000000	7.063918	154.12	NaN	0.000000	0.001574	0.001672	28.0794	60.1719	0.001799	33452.5	3.586384	176.993	153.413	1.056971	0.063445	0.063075	154.12	33452.5	0.059989	0.125771	1225.41	86181.2
340	2.000000	1.059338	7.36839e+06	-55639.1	955.821	-29741.5	0.000000	0.000000	7.066538	169.257	NaN	0.000000	0.001542	0.001663	28.0799	61.8963	0.001885	32830.5	4.380747	176.59	166.415	1.058864	0.065442	0.064968	169.257	32830.5	0.061576	0.131519	1286.94	82710
340	2.000000	1.061332	7.36839e+06	-55639.1	955.82	-29741.5	0.000000	0.000000	7.068304	163.726	NaN	0.000000	0.001530	0.001668	28.0794	63.1402	0.001643	38436.3	1.780541	176.896	161.571	1.061075	0.067436	0.067179	163.726	38436.3	0.064241	0.141453	1157.46	93370.3
340	2.000000	1.063311	7.36839e+06	-55639.1	955.821	-29741.5	0.000000	0.000000	7.070883	178.305	NaN	0.000000	0.001512	0.001658	28.0795	65.9617	0.001751	37669.6	3.918190	175.672	176.063	1.062940	0.069415	0.069044	178.305	37669.6	0.065865	0.147676	1207.41	89559
340	2.000000	1.065308	7.36839e+06	-55639.1	955.822	-29741.5	0.000000	0.000000	7.073251	187.312	NaN	0.000000	0.001563	0.001682	28.0798	67.2138	0.001845	36421.1	6.983742	172.315	185.095	1.064943	0.071412	0.071047	187.312	36421.1	0.067555	0.154284	1214.07	84716.1
340	2.000000	1.067278	7.36839e+06	-55639.1	955.82	-29741.5	0.000000	0.000000	7.075325	189.851	NaN	0.000000	0.001551	0.001703	28.0794	69.6495	0.001803	38637.8	5.470300	173.576	186.85	1.067076	0.073382	0.073180	189.851	38637.8	0.069697	0.162856	1165.76	87475
340	2.000000	1.069418	7.36839e+06	-55639.1	955.821	-29741.5	0.000000	0.000000	7.078168	206.945	NaN	0.000000	0.001518	0.001703	28.0798	71.0583	0.001826	38909.6	7.604495	171.936	208.983	1.068994	0.075522	0.075098	206.945	38909.6	0.071533	0.170378	1214.62	86123.8
340	2.000000	1.071357	7.36839e+06	-55639.1	955.821	-29741.5	0.000000	0.000000	7.080617	219.34	NaN	0.000000	0.001503	0.001707	28.0793	72.808	0.001788	40722.6	7.298275	171.802	221.534	1.071034	0.077461	0.077138	219.34	40722.6	0.073421	0.178282	1230.3	88116.2
340	2.000000	1.073243	7.36839e+06	-55639.1	955.821	-29741.5	0.000000	0.000000	7.082933	229.792	NaN	0.000000	0.001517	0.001705	28.0794	74.0031	0.001785	41451	3.088224	175.439	225.27	1.072963	0.079347	0.079067	229.792	41451	0.075189	0.185834	1236.54	87850.8
340	2.000000	1.075318	7.36839e+06	-55639.1	955.82	-29741.5	0.000000	0.000000	7.085402	239.373	NaN	0.000000	0.001507	0.001714	28.078	75.0038	0.001679	44663.9	7.526490	171.192	239.01	1.074951	0.081421	0.081055	239.373	44663.9	0.077402	0.195495	1224.45	92291.8
340	2.000000	1.077302	7.36839e+06	-55639.1	955.82	-29741.5	0.000000	0.000000	7.087779	248.932	NaN	0.000000	0.001548	0.001751	28.0781	78.5404	0.001840	42676.9	4.197091	174.273	247.25	1.076968	0.083406	0.083072	248.932	42676.9	0.079031	0.202753	1227.76	86593
340	2.000000	1.079399	7.36839e+06	-55639.1	955.821	-29741.5	0.000000	0.000000	7.090129	255.075	NaN	0.000000	0.001551	0.001688	28.0784	79.8836	0.001733	46099.5	1.265913	176.824	258.325	1.078983	0.085503	0.085087	255.075	46099.5	0.081353	0.213311	1195.79	91193.2
340	2.000000	1.081344	7.36839e+06	-55639.1	955.82	-29741.5	0.000000	0.000000	7.092578	267.341	NaN	0.000000	0.001548	0.001674	28.0782	82.0976	0.001815	45244.5	7.952812	170.131	267.896	1.080997	0.087447	0.087101	267.341	45244.5	0.083016	0.221028	1209.53	87925.7
340	2.000000	1.083295	7.36839e+06	-55639.1	955.821	-29741.5	0.000000	0.000000	7.095132	281.969	NaN	0.000000	0.001533	0.001685	28.0784	84.8177	0.001812	46818.9	6.371936	172.116	279.805	1.082911	0.089399	0.089015	281.969	46818.9	0.084882	0.229841	1226.8	89223.8
340	2.000000	1.085228	7.36839e+06	-55639.1	955.821	-29741.5	0.000000	0.000000	7.097964	303.838	NaN	0.000000	0.001519	0.001675	28.0782	84.9601	0.001714	49573.9	4.232028	173.02	298.411	1.084922	0.091332	0.091026	303.838	49573.9	0.086735	0.238749	1272.63	92694.9
340	2.000000	1.087197	7.36839e+06	-55639.1	955.822	-29741.5	0.000000	0.000000	7.099550	294.52	NaN	0.000000	0.001499	0.001686	28.0782	87.7185	0.001759	49862	-0.070486	177.015	286.284	1.086974	0.093301	0.093078	294.52	49862	0.088871	0.249213	1181.8	91255.3
340	2.000000	1.089424	7.36839e+06	-55639.1	955.821	-29741.5	0.000000	0.000000	7.102494	311.936	NaN	0.000000	0.001554	0.001685	28.0782	90.4475	0.001745	51840.2	3.375457	173.987	317.994	1.089033	0.095528	0.095137	311.936	51840.2	0.091015	0.259931	1200.07	92899.1
340	2.000000	1.091277	7.36839e+06	-55639.1	955.821	-29741.5	0.000000	0.000000	7.105351	336.35	NaN	0.000000	0.001529	0.001703	28.078	91.8342	0.001784	51476	4.577211	172.617	336.227	1.090884	0.097381	0.096988	336.35	51476	0.092481	0.267375	1257.97	90953.1
340	2.000000	1.093294	7.36839e+06	-55639.1	955.821	-29741.5	0.000000	0.000000	7.107224	332.869	NaN	0.000000	0.001580	0.001685	28.0784	93.3329	0.001778	52493.8	1.576445	175.145	331.298	1.093198	0.099398	0.099302	332.869	52493.8	0.094642	0.278534	1195.08	90874.6
340	2.000000	1.095159	7.36839e+06	-55639.1	955.821	-29741.5	0.000000	0.000000	7.110222	360.409	NaN	0.000000	0.001532	0.001681	28.0781	94.4615	0.001803	52383	4.733945	172.953	353.687	1.094851	0.101263	0.100955	360.409	52383	0.096103	0.286199	1259.29	89460
340	2.000000	1.097307	7.36839e+06	-55639.1	955.821	-29741.5	0.000000	0.000000	7.112503	363.641	NaN	0.000000	0.001587	0.001670	28.078	97.8243	0.001913	51136.6	4.817269	172.341	364.198	1.097039	0.103411	0.103143	363.641	51136.6	0.098077	0.296711	1225.57	85770.5
340	2.000000	1.099437	7.36839e+06	-55639.1	955.821	-29741.5	0.000000	0.000000	7.115221	377.943	NaN	0.000000	0.001571	0.001682	28.0784	98.7895	0.001786	55302.9	2.118155	174.666	386.491	1.099241	0.105541	0.105345	377.943	55302.9	0.100415	0.309388	1221.58	90838.3
340	2.000000	1.101317	7.36839e+06	-55639.1	955.821	-29741.5	0.000000	0.000000	7.117966	398.952	NaN	0.000000	0.001568	0.001665	28.0781	101.29	0.001820	55656.4	8.727257	167.837	399.52	1.101002	0.107421	0.107106	398.952	55656.4	0.102045	0.318371	1253.11	90120.2
340	2.000000	1.102258	7.36839e+06	-55639.1	955.821	-29741.5	0.000000	0.000000	7.119346	409.624	NaN	0.000000	0.001579	0.001673	28.0782	99.3536	0.001828	54338.1	1.446211	175.879	404.745	1.101931	0.108362	0.108035	409.624	54338.1	0.102708	0.322065	1271.87	87479.4