File: remote_trans/data/nanoindenter/0828-1/data/Data_2025-08-06,11h17m57s/2025-07-22_16-23-58_1_560.txt
2025-07-22, 16:23:58, 1
Index	Phase	Displacement	Time	Pos X	Pos Y	Pos Z	Rot A	Rot B	Piezo Z	Force A	Force B	Gripper	Voltage A	Voltage B	Temperature	Amplitude force	Amplitude pos	Stiffness	Phase shift	Phase excitation	Force A raw	Displacement raw	HMax	HMax raw	Real Force	Real Stiffness	Contact Depth	Area	Hardness	Reduced Mod.
[#]	[#]	[um]	[s]	[um]	[um]	[um]	[m°]	[m°]	[um]	[uN]	[uN]	[V]	[V]	[V]	[°C]	[uN]	[um]	[N/m]	[°]	[°]	[uN]	[um]	[um]	[um]	[uN]	[N/m]	[um]	[um^2]	[MPa]	[MPa]
560	1.000000	0.002619	7.37053e+06	-49089.1	1005.82	-29760.1	0.000000	0.000000	6.002792	0.072709	NaN	0.000000	0.001571	0.001785	28.0822	0.092645	0.000920	100.706	34.7367	-163.018	0.054520	0.001400	-1.117625	-1.118844	0.072709	100.706	-1.118167	-8.787653E+14	-8.273955E-17	NaN
560	1.000000	0.012710	7.37053e+06	-49089.1	1005.82	-29760.1	0.000000	0.000000	6.012881	0.041821	NaN	0.000000	0.001554	0.001765	28.0822	0.113205	0.001257	90.0269	95.1052	16.0053	0.066459	0.011254	-1.107534	-1.108990	0.041821	90.0269	-1.107882	-6.395417E+14	-6.539173E-17	NaN
560	1.000000	0.022582	7.37053e+06	-49089.1	1005.82	-29760.1	0.000000	0.000000	6.022750	-0.033937	NaN	0.000000	0.001556	0.001798	28.0822	0.038324	0.001617	23.7056	155.253	-164.205	-0.062939	0.021275	-1.097662	-1.098969	-0.033937	23.7056	-1.096589	-4.510976E+14	7.523152E-17	NaN
560	1.000000	0.032610	7.37053e+06	-49089.1	1005.82	-29760.1	0.000000	0.000000	6.032781	0.025001	NaN	0.000000	0.001557	0.001783	28.082	0.078226	0.001835	42.6274	158.929	12.2791	0.015559	0.031160	-1.087634	-1.089084	0.025001	42.6274	-1.088073	-3.466914E+14	-7.211217E-17	NaN
560	1.000000	0.042576	7.37053e+06	-49089.1	1005.82	-29760.1	0.000000	0.000000	6.042745	-0.029288	NaN	0.000000	0.001540	0.001781	28.0823	0.047678	0.002030	23.4814	64.4777	-163.941	-0.035798	0.041275	-1.077668	-1.078969	-0.029288	23.4814	-1.076732	-2.441344E+14	1.199677E-16	NaN
560	1.000000	0.052562	7.37053e+06	-49089.1	1005.82	-29760.1	0.000000	0.000000	6.052731	0.000393	NaN	0.000000	0.001579	0.001731	28.0821	0.029465	0.001990	14.8099	-159.484	16.6482	0.024223	0.051265	-1.067682	-1.068979	0.000393	14.8099	-1.067702	-1.846362E+14	-2.130726E-18	NaN
560	1.000000	0.062561	7.37053e+06	-49089.1	1005.82	-29760.1	0.000000	0.000000	6.062729	-0.042047	NaN	0.000000	0.001567	0.001740	28.0809	0.050169	0.001780	28.192	127.173	-167.392	-0.009644	0.061311	-1.057683	-1.058933	-0.042047	28.192	-1.056564	-1.308112E+14	3.214314E-16	NaN
560	1.000000	0.072608	7.37053e+06	-49089.1	1005.82	-29760.1	0.000000	0.000000	6.072776	-0.048057	NaN	0.000000	0.001599	0.001771	28.0809	0.119968	0.002145	55.9299	132.456	14.0017	-0.012463	0.071232	-1.047636	-1.049011	-0.048057	55.9299	-1.046991	-9.726763E+13	4.940686E-16	NaN
560	1.000000	0.082594	7.37053e+06	-49089.1	1005.82	-29760.1	0.000000	0.000000	6.082762	-0.042542	NaN	0.000000	0.001583	0.001784	28.0809	0.033582	0.001971	17.0367	-54.1931	-166.082	0.057256	0.081279	-1.037650	-1.038965	-0.042542	17.0367	-1.035777	-6.873595E+13	6.189127E-16	NaN
560	1.000000	0.092584	7.37053e+06	-49089.1	1005.82	-29760.1	0.000000	0.000000	6.092755	0.040254	NaN	0.000000	0.001548	0.001768	28.0808	0.090338	0.002090	43.2289	-116.706	14.7251	-0.024145	0.091239	-1.027660	-1.029005	0.040254	43.2289	-1.028358	-5.462590E+13	-7.368990E-16	NaN
560	1.000000	0.102601	7.37053e+06	-49089.1	1005.82	-29760.1	0.000000	0.000000	6.102772	0.016378	NaN	0.000000	0.001595	0.001750	28.0808	0.126078	0.002041	61.7628	158.144	-166.766	-0.008295	0.101276	-1.017643	-1.018968	0.016378	61.7628	-1.017841	-3.943746E+13	-4.152986E-16	NaN
560	1.000000	0.112605	7.37053e+06	-49089.1	1005.82	-29760.1	0.000000	0.000000	6.112774	-0.039046	NaN	0.000000	0.001568	0.001762	28.0808	0.116810	0.002082	56.1108	44.595	12.5735	-0.103739	0.111218	-1.007638	-1.009026	-0.039046	56.1108	-1.007117	-2.828601E+13	1.380406E-15	NaN
560	1.000000	0.122617	7.37053e+06	-49089.1	1005.82	-29760.1	0.000000	0.000000	6.122786	-0.020798	NaN	0.000000	0.001599	0.001753	28.0808	0.180230	0.001912	94.2839	27.1578	-167.173	-0.027849	0.121315	-0.997627	-0.998929	-0.020798	94.2839	-0.997461	-2.096934E+13	9.918111E-16	NaN
560	1.000000	0.132629	7.37053e+06	-49089.1	1005.82	-29760.1	0.000000	0.000000	6.132800	0.041495	NaN	0.000000	0.001596	0.001770	28.0808	0.042271	0.001826	23.1535	16.2864	12.212	0.008777	0.131299	-0.987615	-0.988945	0.041495	23.1535	-0.988959	-1.611006E+13	-2.575690E-15	NaN
560	1.000000	0.142610	7.37053e+06	-49089.1	1005.82	-29760.1	0.000000	0.000000	6.142779	-0.008441	NaN	0.000000	0.001567	0.001779	28.0809	0.035686	0.002058	17.3406	83.4944	-166.005	-0.032953	0.141289	-0.977634	-0.978955	-0.008441	17.3406	-0.977269	-1.121035E+13	7.529202E-16	NaN
560	1.000000	0.152583	7.37053e+06	-49089.1	1005.82	-29760.1	0.000000	0.000000	6.152750	-0.063623	NaN	0.000000	0.001556	0.001761	28.081	0.100696	0.001992	50.5551	-71.9368	13.9305	-0.068045	0.151302	-0.967661	-0.968941	-0.063623	50.5551	-0.966717	-8.080018E+12	7.874080E-15	NaN
560	1.000000	0.162640	7.37053e+06	-49089.1	1005.82	-29760.1	0.000000	0.000000	6.162811	0.025352	NaN	0.000000	0.001579	0.001763	28.0808	0.073326	0.002037	36.0011	136.002	-167.562	0.032825	0.161327	-0.957604	-0.958917	0.025352	36.0011	-0.958132	-6.189854E+12	-4.095785E-15	NaN
560	1.000000	0.172633	7.37053e+06	-49089.1	1005.82	-29760.1	0.000000	0.000000	6.172802	-0.008656	NaN	0.000000	0.001632	0.001752	28.0809	0.098873	0.001965	50.31	117.826	9.955651	-0.002252	0.171213	-0.947611	-0.949030	-0.008656	50.31	-0.947482	-4.446960E+12	1.946600E-15	NaN
560	1.000000	0.182636	7.37053e+06	-49089.1	1005.82	-29760.1	0.000000	0.000000	6.182807	0.037593	NaN	0.000000	0.001652	0.001725	28.081	0.054588	0.001981	27.5623	-57.4327	-163.064	-0.084650	0.181329	-0.937608	-0.938915	0.037593	27.5623	-0.938631	-3.378053E+12	-1.112866E-14	NaN
560	1.000000	0.192640	7.37053e+06	-49089.1	1005.82	-29760.1	0.000000	0.000000	6.192807	-0.054726	NaN	0.000000	0.001662	0.001742	28.0821	0.020339	0.002035	9.994998	86.3568	14.441	-0.079440	0.191276	-0.927604	-0.928968	-0.054726	9.994998	-0.923498	-2.110712E+12	2.592763E-14	NaN
560	1.000000	0.202631	7.37053e+06	-49089.1	1005.82	-29760.1	0.000000	0.000000	6.202802	0.026347	NaN	0.000000	0.001546	0.001692	28.0824	0.025391	0.002000	12.6924	147.584	-165.725	-0.014061	0.201321	-0.917613	-0.918923	0.026347	12.6924	-0.919170	-1.844986E+12	-1.428040E-14	NaN
560	1.000000	0.212609	7.37053e+06	-49089.1	1005.82	-29760.1	0.000000	0.000000	6.212776	-0.073166	NaN	0.000000	0.001557	0.001726	28.082	0.040445	0.001894	21.3529	35.1757	13.2473	-0.084128	0.211235	-0.907635	-0.909009	-0.073166	21.3529	-0.905065	-1.189861E+12	6.149108E-14	NaN
560	1.000000	0.222660	7.37053e+06	-49089.1	1005.82	-29760.1	0.000000	0.000000	6.222832	0.046437	NaN	0.000000	0.001559	0.001722	28.0828	0.029770	0.001844	16.147	-179.546	-166.954	0.086174	0.221338	-0.897583	-0.898906	0.046437	16.147	-0.899740	-1.008227E+12	-4.605775E-14	NaN
560	1.000000	0.232653	7.37053e+06	-49089.1	1005.82	-29760.1	0.000000	0.000000	6.232822	-0.015700	NaN	0.000000	0.001569	0.001702	28.0821	0.087622	0.002052	42.6992	155.416	13.1712	-0.007710	0.231252	-0.887591	-0.888992	-0.015700	42.6992	-0.887315	-6.848859E+11	2.292423E-14	NaN
560	1.000000	0.242667	7.37053e+06	-49089.1	1005.82	-29760.1	0.000000	0.000000	6.242833	-0.078021	NaN	0.000000	0.001574	0.001711	28.0825	0.076055	0.002056	36.9884	-130.44	-167.576	-0.110677	0.241373	-0.877577	-0.878871	-0.078021	36.9884	-0.875995	-4.814431E+11	1.620575E-13	NaN
560	1.000000	0.252668	7.37053e+06	-49089.1	1005.82	-29760.1	0.000000	0.000000	6.252839	0.019616	NaN	0.000000	0.001587	0.001728	28.0824	0.002558	0.002074	1.233372	54.4368	11.0641	0.017145	0.251331	-0.867576	-0.868913	0.019616	1.233372	-0.879504	-5.370328E+11	-3.652623E-14	NaN
560	1.000000	0.262637	7.37053e+06	-49089.1	1005.82	-29760.1	0.000000	0.000000	6.262806	-0.034059	NaN	0.000000	0.001585	0.001697	28.0827	0.014106	0.002004	7.038589	25.5418	-165.805	0.010041	0.261326	-0.857607	-0.858918	-0.034059	7.038589	-0.853977	-2.424334E+11	1.404901E-13	NaN
560	1.000000	0.272697	7.37053e+06	-49089.1	1005.82	-29760.1	0.000000	0.000000	6.272869	0.054494	NaN	0.000000	0.001561	0.001698	28.0823	0.082147	0.002048	40.1146	-101.016	14.0302	-0.025580	0.271324	-0.847547	-0.848920	0.054494	40.1146	-0.848566	-2.047922E+11	-2.660938E-13	NaN
560	1.000000	0.282661	7.37053e+06	-49089.1	1005.82	-29760.1	0.000000	0.000000	6.282832	0.018286	NaN	0.000000	0.001580	0.001738	28.0824	0.058563	0.001948	30.0595	-69.3626	-167.401	0.040774	0.281356	-0.837583	-0.838888	0.018286	30.0595	-0.838039	-1.474769E+11	-1.239898E-13	NaN
560	1.000000	0.292678	7.37053e+06	-49089.1	1005.82	-29760.1	0.000000	0.000000	6.292849	0.041017	NaN	0.000000	0.001606	0.001730	28.0824	0.130354	0.001928	67.6175	72.0441	10.4925	0.063606	0.291375	-0.827566	-0.828869	0.041017	67.6175	-0.828021	-1.078857E+11	-3.801876E-13	NaN
560	1.000000	0.302686	7.37053e+06	-49089.1	1005.82	-29760.1	0.000000	0.000000	6.302853	-0.066000	NaN	0.000000	0.001610	0.001768	28.0822	0.069392	0.002032	34.1535	140.771	-167.159	0.008400	0.301342	-0.817558	-0.818902	-0.066000	34.1535	-0.816109	-7.437649E+10	8.873732E-13	NaN
560	1.000000	0.312703	7.37053e+06	-49089.1	1005.82	-29760.1	0.000000	0.000000	6.312870	-0.050583	NaN	0.000000	0.001619	0.001744	28.0821	0.046385	0.001998	23.215	26.0658	14.6971	-0.036773	0.311366	-0.807541	-0.808877	-0.050583	23.215	-0.805907	-5.407976E+10	9.353430E-13	NaN
560	1.000000	0.322699	7.37053e+06	-49089.1	1005.82	-29760.1	0.000000	0.000000	6.322868	-0.019242	NaN	0.000000	0.001656	0.001751	28.0824	0.143218	0.001962	72.9846	-1.722299	-163.774	-0.039645	0.321358	-0.797544	-0.798886	-0.019242	72.9846	-0.797347	-4.138503E+10	4.649550E-13	NaN
560	1.000000	0.332692	7.37053e+06	-49089.1	1005.82	-29760.1	0.000000	0.000000	6.332862	0.001942	NaN	0.000000	0.001636	0.001728	28.0809	0.014580	0.002021	7.213570	-9.406994	14.3168	-0.022263	0.331310	-0.787552	-0.788934	0.001942	7.213570	-0.787754	-3.066039E+10	-6.334981E-14	NaN
560	1.000000	0.342680	7.37053e+06	-49089.1	1005.82	-29760.1	0.000000	0.000000	6.342849	-0.018477	NaN	0.000000	0.001647	0.001756	28.0811	0.113421	0.001966	57.6909	87.3621	-165.801	-0.046951	0.341441	-0.777564	-0.778803	-0.018477	57.6909	-0.777324	-2.212399E+10	8.351564E-13	NaN
560	1.000000	0.352683	7.37053e+06	-49089.1	1005.82	-29760.1	0.000000	0.000000	6.352855	0.057393	NaN	0.000000	0.001652	0.001727	28.0808	0.051699	0.001991	25.9638	-13.1019	13.3726	-0.004130	0.351388	-0.767561	-0.768856	0.057393	25.9638	-0.769219	-1.716656E+10	-3.343295E-12	NaN
560	1.000000	0.362734	7.37053e+06	-49089.1	1005.82	-29760.1	0.000000	0.000000	6.362906	0.045033	NaN	0.000000	0.001629	0.001735	28.0811	0.043897	0.001967	22.3195	45.2825	-164.334	0.052884	0.361346	-0.757510	-0.758898	0.045033	22.3195	-0.759023	-1.247410E+10	-3.610082E-12	NaN
560	1.000000	0.372698	7.37053e+06	-49089.1	1005.82	-29760.1	0.000000	0.000000	6.372869	0.026695	NaN	0.000000	0.001627	0.001753	28.0807	0.075876	0.002059	36.8566	-144.308	16.1437	0.004313	0.371359	-0.747545	-0.748885	0.026695	36.8566	-0.748089	-8.855237E+9	-3.014576E-12	NaN
560	1.000000	0.382712	7.37053e+06	-49089.1	1005.82	-29760.1	0.000000	0.000000	6.382884	0.043791	NaN	0.000000	0.001655	0.001703	28.0809	0.041073	0.002057	19.9627	116.321	-166.423	0.084904	0.381376	-0.737531	-0.738868	0.043791	19.9627	-0.739177	-6.696393E+9	-6.539520E-12	NaN
560	1.000000	0.392735	7.37053e+06	-49089.1	1005.82	-29760.1	0.000000	0.000000	6.392906	0.033705	NaN	0.000000	0.001648	0.001738	28.0809	0.075903	0.002069	36.6876	37.5314	12.5124	0.007081	0.391323	-0.727509	-0.728921	0.033705	36.6876	-0.728198	-4.745109E+9	-7.103159E-12	NaN
560	1.000000	0.402727	7.37053e+06	-49089.1	1005.82	-29760.1	0.000000	0.000000	6.402899	0.043912	NaN	0.000000	0.001646	0.001709	28.0811	0.045119	0.001881	23.9849	92.8064	-164.347	0.025451	0.401440	-0.717516	-0.718804	0.043912	23.9849	-0.718890	-3.542655E+9	-1.239523E-11	NaN
560	1.000000	0.412731	7.37053e+06	-49089.1	1005.82	-29760.1	0.000000	0.000000	6.412899	-0.040896	NaN	0.000000	0.001642	0.001738	28.0808	0.035104	0.002142	16.3911	-63.4874	15.5824	-0.004720	0.411311	-0.707513	-0.708933	-0.040896	16.3911	-0.705642	-2.336505E+9	1.750288E-11	NaN
560	1.000000	0.422749	7.37053e+06	-49089.1	1005.82	-29760.1	0.000000	0.000000	6.422920	0.015484	NaN	0.000000	0.001603	0.001707	28.0809	0.066288	0.002199	30.1456	92.2245	-166.95	-0.032551	0.421401	-0.697495	-0.698843	0.015484	30.1456	-0.697880	-1.830525E+9	-8.458901E-12	NaN
560	1.000000	0.432717	7.37053e+06	-49089.1	1005.82	-29760.1	0.000000	0.000000	6.432885	-0.027361	NaN	0.000000	0.001568	0.001699	28.0807	0.066101	0.002031	32.5503	64.7403	16.1113	0.071223	0.431382	-0.687527	-0.688862	-0.027361	32.5503	-0.686897	-1.295701E+9	2.111694E-11	NaN
560	1.000000	0.442743	7.37053e+06	-49089.1	1005.82	-29760.1	0.000000	0.000000	6.442914	0.044543	NaN	0.000000	0.001607	0.001697	28.0805	0.058789	0.001939	30.3129	-45.5245	-163.939	-0.044244	0.441382	-0.677501	-0.678862	0.044543	30.3129	-0.678603	-9.979276E+8	-4.463548E-11	NaN
560	1.000000	0.452747	7.37053e+06	-49089.1	1005.82	-29760.1	0.000000	0.000000	6.452918	0.018739	NaN	0.000000	0.001565	0.001730	28.0806	0.061800	0.001951	31.6687	144.176	15.1845	0.038380	0.451350	-0.667496	-0.668894	0.018739	31.6687	-0.667940	-7.131757E+8	-2.627476E-11	NaN
560	1.000000	0.462748	7.37053e+06	-49089.1	1005.82	-29760.1	0.000000	0.000000	6.462914	-0.110941	NaN	0.000000	0.001576	0.001723	28.0806	0.081419	0.001828	44.5503	-117.21	-168.214	-0.008121	0.461412	-0.657495	-0.658832	-0.110941	44.5503	-0.655628	-4.836921E+8	2.293626E-10	NaN
560	1.000000	0.472757	7.37053e+06	-49089.1	1005.82	-29760.1	0.000000	0.000000	6.472926	-0.033357	NaN	0.000000	0.001595	0.001714	28.0821	0.037529	0.002103	17.8489	3.747931	13.7284	-0.047880	0.471373	-0.647486	-0.648871	-0.033357	17.8489	-0.646085	-3.578944E+8	9.320348E-11	NaN
560	1.000000	0.482780	7.37053e+06	-49089.1	1005.82	-29760.1	0.000000	0.000000	6.482950	0.004509	NaN	0.000000	0.001569	0.001708	28.0817	0.092843	0.002110	43.9982	-12.3122	-166.718	-0.066903	0.481486	-0.637464	-0.638758	0.004509	43.9982	-0.637540	-2.732366E+8	-1.650301E-11	NaN
560	1.000000	0.492754	7.37053e+06	-49089.1	1005.82	-29760.1	0.000000	0.000000	6.492924	0.001268	NaN	0.000000	0.001570	0.001678	28.0818	0.078960	0.001944	40.6082	37.4854	13.7042	0.000147	0.491373	-0.627490	-0.628871	0.001268	40.6082	-0.627513	-1.990057E+8	-6.372681E-12	NaN
560	1.000000	0.502793	7.37053e+06	-49089.1	1005.82	-29760.1	0.000000	0.000000	6.502964	0.034540	NaN	0.000000	0.001604	0.001710	28.0818	0.066394	0.002023	32.8189	-106.87	-163.872	-0.017992	0.501464	-0.617451	-0.618780	0.034540	32.8189	-0.618240	-1.484031E+8	-2.327449E-10	NaN
560	1.000000	0.512803	7.37053e+06	-49089.1	1005.82	-29760.1	0.000000	0.000000	6.512970	-0.072468	NaN	0.000000	0.001593	0.001762	28.0819	0.081085	0.001916	42.3091	-139.66	15.9356	-0.075994	0.511392	-0.607441	-0.608852	-0.072468	42.3091	-0.606156	-1.012089E+8	7.160235E-10	NaN
560	1.000000	0.522768	7.37053e+06	-49089.1	1005.82	-29760.1	0.000000	0.000000	6.522938	0.002919	NaN	0.000000	0.001555	0.001709	28.0817	0.057148	0.002024	28.2285	8.048120	-169.192	-0.033730	0.521434	-0.597476	-0.598810	0.002919	28.2285	-0.597554	-7.704876E+7	-3.788637E-11	NaN
560	1.000000	0.532788	7.37053e+06	-49089.1	1005.82	-29760.1	0.000000	0.000000	6.532958	0.013662	NaN	0.000000	0.001577	0.001724	28.0819	0.100261	0.002005	50.0148	-143.441	17.1944	0.010462	0.531430	-0.587456	-0.588814	0.013662	50.0148	-0.587661	-5.628799E+7	-2.427150E-10	NaN
560	1.000000	0.542797	7.37053e+06	-49089.1	1005.82	-29760.1	0.000000	0.000000	6.542966	-0.021089	NaN	0.000000	0.001628	0.001723	28.082	0.026179	0.002054	12.7461	179.774	-164.657	-0.001338	0.541457	-0.577447	-0.578787	-0.021089	12.7461	-0.576206	-3.911537E+7	5.391523E-10	NaN
560	1.000000	0.552787	7.37053e+06	-49089.1	1005.82	-29760.1	0.000000	0.000000	6.552958	0.032863	NaN	0.000000	0.001662	0.001744	28.082	0.032257	0.002009	16.0578	-57.3542	13.55	0.000121	0.551378	-0.567457	-0.568866	0.032863	16.0578	-0.568992	-3.109569E+7	-1.056844E-9	NaN
560	1.000000	0.562823	7.37053e+06	-49089.1	1005.82	-29760.1	0.000000	0.000000	6.562994	0.018959	NaN	0.000000	0.001645	0.001719	28.0818	0.083652	0.002117	39.5087	62.4124	-168.79	0.067239	0.561523	-0.557421	-0.558721	0.018959	39.5087	-0.557781	-2.176060E+7	-8.712555E-10	NaN
560	1.000000	0.572788	7.37053e+06	-49089.1	1005.82	-29760.1	0.000000	0.000000	6.572960	0.057136	NaN	0.000000	0.001627	0.001705	28.0818	0.081565	0.002025	40.2841	1.082333	11.8198	0.101480	0.571443	-0.547456	-0.548800	0.057136	40.2841	-0.548519	-1.619738E+7	-3.527462E-9	NaN
560	1.000000	0.582817	7.37053e+06	-49089.1	1005.82	-29760.1	0.000000	0.000000	6.582986	-0.016169	NaN	0.000000	0.001651	0.001684	28.082	0.068300	0.001965	34.7594	-166.142	-166.307	0.008054	0.581494	-0.537427	-0.538750	-0.016169	34.7594	-0.537078	-1.124148E+7	1.438293E-9	NaN
560	1.000000	0.592821	7.37053e+06	-49089.1	1005.82	-29760.1	0.000000	0.000000	6.592991	-0.001698	NaN	0.000000	0.001642	0.001695	28.0819	0.068644	0.002088	32.8791	85.1874	11.4603	0.037353	0.591456	-0.527423	-0.528788	-0.001698	32.8791	-0.527384	-8.24583e+06	2.059081E-10	NaN
560	1.000000	0.602796	7.37053e+06	-49089.1	1005.82	-29760.1	0.000000	0.000000	6.602967	0.015302	NaN	0.000000	0.001622	0.001681	28.0805	0.059010	0.002019	29.2315	-17.0218	-168.523	-0.094267	0.601448	-0.517448	-0.518796	0.015302	29.2315	-0.517840	-6.07512e+06	-2.518831E-9	NaN
560	1.000000	0.612813	7.37053e+06	-49089.1	1005.82	-29760.1	0.000000	0.000000	6.612983	-0.006144	NaN	0.000000	0.001599	0.001690	28.0809	0.027356	0.002031	13.472	68.0141	15.033	-0.044394	0.611496	-0.507431	-0.508747	-0.006144	13.472	-0.507089	-4.30384e+06	1.427676E-9	NaN
560	1.000000	0.622847	7.37053e+06	-49089.1	1005.82	-29760.1	0.000000	0.000000	6.623016	-0.035144	NaN	0.000000	0.001614	0.001659	28.0805	0.057319	0.001958	29.27	-39.8956	-166.297	-0.109686	0.621521	-0.497396	-0.498722	-0.035144	29.27	-0.496496	-3.06281e+06	1.147454E-8	NaN
560	1.000000	0.632859	7.37053e+06	-49089.1	1005.82	-29760.1	0.000000	0.000000	6.633028	-0.027681	NaN	0.000000	0.001573	0.001731	28.0805	0.056294	0.001908	29.5057	-61.8543	13.9276	-0.009014	0.631514	-0.487385	-0.488730	-0.027681	29.5057	-0.486681	-2.23357e+06	1.239312E-8	NaN
560	1.000000	0.642838	7.37053e+06	-49089.1	1005.82	-29760.1	0.000000	0.000000	6.643006	-0.044631	NaN	0.000000	0.001576	0.001664	28.0808	0.121031	0.002038	59.3816	109.692	-169.983	-0.003086	0.641541	-0.477406	-0.478703	-0.044631	59.3816	-0.476842	-1.62669e+06	2.743694E-8	NaN
560	1.000000	0.652837	7.37053e+06	-49089.1	1005.82	-29760.1	0.000000	0.000000	6.653004	-0.063616	NaN	0.000000	0.001607	0.001689	28.0807	0.026947	0.002063	13.0618	161.023	16.1829	-0.061508	0.651467	-0.467407	-0.468777	-0.063616	13.0618	-0.463754	-1.066e+06	5.967772E-8	NaN
560	1.000000	0.662825	7.37053e+06	-49089.1	1005.82	-29760.1	0.000000	0.000000	6.662996	0.022245	NaN	0.000000	0.001607	0.001650	28.0806	0.015534	0.001848	8.403978	146.599	-167.877	-0.031431	0.661490	-0.457419	-0.458754	0.022245	8.403978	-0.459404	-926057	-2.402071E-8	NaN
560	1.000000	0.672801	7.37053e+06	-49089.1	1005.82	-29760.1	0.000000	0.000000	6.672968	-0.056271	NaN	0.000000	0.001609	0.001685	28.0805	0.134557	0.001995	67.4532	-91.2095	10.2242	-0.075667	0.671441	-0.447443	-0.448803	-0.056271	67.4532	-0.446817	-615895	9.136511E-8	NaN
560	1.000000	0.682844	7.37053e+06	-49089.1	1005.82	-29760.1	0.000000	0.000000	6.683013	-0.029502	NaN	0.000000	0.001589	0.001674	28.0808	0.099617	0.002026	49.1781	-130.903	-164.186	0.045179	0.681504	-0.437400	-0.438740	-0.029502	49.1781	-0.436950	-446991	6.600178E-8	NaN
560	1.000000	0.692850	7.37053e+06	-49089.1	1005.82	-29760.1	0.000000	0.000000	6.693017	-0.047407	NaN	0.000000	0.001600	0.001655	28.0805	0.084882	0.002104	40.3387	-74.3152	15.2134	0.053935	0.691502	-0.427394	-0.428742	-0.047407	40.3387	-0.426513	-318204	1.489832E-7	NaN
560	1.000000	0.702868	7.37053e+06	-49089.1	1005.82	-29760.1	0.000000	0.000000	6.703036	-0.035743	NaN	0.000000	0.001576	0.001640	28.0808	0.030230	0.001967	15.37	80.4536	-167.759	0.031637	0.701550	-0.417376	-0.418694	-0.035743	15.37	-0.415632	-223064	1.602368E-7	NaN
560	1.000000	0.712854	7.37053e+06	-49089.1	1005.82	-29760.1	0.000000	0.000000	6.713022	-0.036280	NaN	0.000000	0.001562	0.001648	28.0805	0.085659	0.002250	38.0787	-108.39	11.3253	-0.076606	0.711440	-0.407390	-0.408803	-0.036280	38.0787	-0.406675	-166380	2.180554E-7	NaN
560	1.000000	0.722867	7.37053e+06	-49089.1	1005.82	-29760.1	0.000000	0.000000	6.723036	-0.017771	NaN	0.000000	0.001568	0.001677	28.0808	0.028783	0.002022	14.2334	-62.9071	-165.625	-0.005888	0.721506	-0.397377	-0.398738	-0.017771	14.2334	-0.396440	-118905	1.494542E-7	NaN
560	1.000000	0.732873	7.37053e+06	-49089.1	1005.82	-29760.1	0.000000	0.000000	6.733041	-0.059857	NaN	0.000000	0.001564	0.001661	28.0806	0.060946	0.001925	31.6619	-137.959	16.316	-0.109849	0.731491	-0.387370	-0.388753	-0.059857	31.6619	-0.385953	-84184.4	7.110206E-7	NaN
560	1.000000	0.742890	7.37053e+06	-49089.1	1005.82	-29760.1	0.000000	0.000000	6.743057	-0.070683	NaN	0.000000	0.001523	0.001610	28.082	0.137534	0.002092	65.754	177.749	-167.007	-0.031015	0.741594	-0.377354	-0.378649	-0.070683	65.754	-0.376547	-61703.7	1.145516E-6	NaN
560	1.000000	0.752873	7.37053e+06	-49089.1	1005.82	-29760.1	0.000000	0.000000	6.753043	-0.003464	NaN	0.000000	0.001557	0.001675	28.0821	0.122832	0.001913	64.2139	-102.497	13.6215	-0.039760	0.751555	-0.367371	-0.368689	-0.003464	64.2139	-0.367330	-45463.1	7.619193E-8	NaN
560	1.000000	0.762863	7.37053e+06	-49089.1	1005.82	-29760.1	0.000000	0.000000	6.763031	-0.052821	NaN	0.000000	0.001591	0.001654	28.0819	0.085308	0.001974	43.216	129.769	-168.753	-0.050293	0.761571	-0.357381	-0.358673	-0.052821	43.216	-0.356464	-31673.4	1.667688E-6	NaN
560	1.000000	0.772891	7.37053e+06	-49089.1	1005.82	-29760.1	0.000000	0.000000	6.773062	0.037248	NaN	0.000000	0.001567	0.001627	28.0819	0.045725	0.001973	23.1786	-177.746	13.7066	0.012630	0.771514	-0.347353	-0.348730	0.037248	23.1786	-0.348558	-24326	-1.531206E-6	NaN
560	1.000000	0.782902	7.37053e+06	-49089.1	1005.82	-29760.1	0.000000	0.000000	6.783072	0.002963	NaN	0.000000	0.001559	0.001653	28.0819	0.091346	0.002045	44.6591	-24.3095	-168.201	0.038504	0.781580	-0.337342	-0.338664	0.002963	44.6591	-0.337392	-16730.6	-1.771226E-7	NaN
560	1.000000	0.792887	7.37053e+06	-49089.1	1005.82	-29760.1	0.000000	0.000000	6.793056	-0.015371	NaN	0.000000	0.001548	0.001649	28.0819	0.019270	0.002092	9.210079	84.6	12.5754	0.025777	0.791518	-0.327357	-0.328726	-0.015371	9.210079	-0.326106	-11438.3	1.343830E-6	NaN
560	1.000000	0.802892	7.37053e+06	-49089.1	1005.82	-29760.1	0.000000	0.000000	6.803059	-0.056401	NaN	0.000000	0.001540	0.001700	28.0821	0.042864	0.001999	21.4476	3.642284	-169.292	-0.077822	0.801592	-0.317352	-0.318652	-0.056401	21.4476	-0.315380	-7953.3	7.091564E-6	NaN
560	1.000000	0.812900	7.37053e+06	-49089.1	1005.82	-29760.1	0.000000	0.000000	6.813069	-0.019739	NaN	0.000000	0.001550	0.001637	28.082	0.115306	0.002083	55.359	-18.5417	15.0907	-0.034889	0.811538	-0.307344	-0.308706	-0.019739	55.359	-0.307077	-5994.54	3.292783E-6	NaN
560	1.000000	0.822900	7.37053e+06	-49089.1	1005.82	-29760.1	0.000000	0.000000	6.823067	-0.081481	NaN	0.000000	0.001547	0.001673	28.0822	0.068572	0.002015	34.0269	6.532574	-163.008	-0.061367	0.821574	-0.297343	-0.298669	-0.081481	34.0269	-0.295547	-4038.89	2.017415E-5	NaN
560	1.000000	0.832927	7.37053e+06	-49089.1	1005.82	-29760.1	0.000000	0.000000	6.833097	0.014282	NaN	0.000000	0.001528	0.001684	28.0818	0.045220	0.002022	22.3667	-139.256	11.5818	0.089336	0.831502	-0.287317	-0.288742	0.014282	22.3667	-0.287796	-3092.16	-4.618846E-6	NaN
560	1.000000	0.842910	7.37053e+06	-49089.1	1005.82	-29760.1	0.000000	0.000000	6.843077	-0.053832	NaN	0.000000	0.001531	0.001617	28.0822	0.029006	0.001949	14.8822	-130.324	-162.747	-0.001588	0.841587	-0.277334	-0.278657	-0.053832	14.8822	-0.274621	-1957.33	2.750264E-5	NaN
560	1.000000	0.852935	7.37053e+06	-49089.1	1005.82	-29760.1	0.000000	0.000000	6.853105	0.007681	NaN	0.000000	0.001559	0.001627	28.0819	0.018727	0.001960	9.555034	41.9841	11.8588	-0.072165	0.851568	-0.267309	-0.268676	0.007681	9.555034	-0.267912	-1548.04	-4.961754E-6	NaN
560	1.000000	0.862926	7.37053e+06	-49089.1	1005.82	-29760.1	0.000000	0.000000	6.863095	-0.028847	NaN	0.000000	0.001553	0.001654	28.082	0.125108	0.001964	63.6854	-143.993	-164.847	-0.095968	0.861601	-0.257318	-0.258643	-0.028847	63.6854	-0.256978	-1053.26	2.738842E-5	NaN
560	1.000000	0.872892	7.37053e+06	-49089.1	1005.82	-29760.1	0.000000	0.000000	6.873058	-0.073234	NaN	0.000000	0.001545	0.001688	28.0817	0.023980	0.001977	12.1299	-57.343	11.2418	-0.038980	0.871550	-0.247352	-0.248694	-0.073234	12.1299	-0.242824	-636.211	0.000115	NaN
560	1.000000	0.882913	7.37053e+06	-49089.1	1005.82	-29760.1	0.000000	0.000000	6.883082	-0.018439	NaN	0.000000	0.001573	0.001640	28.0807	0.015517	0.002166	7.163001	51.1936	-168.481	0.004694	0.881578	-0.237331	-0.238666	-0.018439	7.163001	-0.235400	-487.001	3.786170E-5	NaN
560	1.000000	0.892927	7.37053e+06	-49089.1	1005.82	-29760.1	0.000000	0.000000	6.893096	-0.020971	NaN	0.000000	0.001565	0.001652	28.0809	0.028437	0.002016	14.1084	38.8017	11.5241	-0.032298	0.891575	-0.227317	-0.228669	-0.020971	14.1084	-0.226202	-348.67	6.014459E-5	NaN
560	1.000000	0.902934	7.37053e+06	-49089.1	1005.82	-29760.1	0.000000	0.000000	6.903103	-0.022707	NaN	0.000000	0.001543	0.001648	28.0809	0.099958	0.001916	52.1753	-47.9378	-165.718	0.059511	0.901610	-0.217310	-0.218634	-0.022707	52.1753	-0.216983	-248.528	9.136487E-5	NaN
560	1.000000	0.912964	7.37053e+06	-49089.1	1005.82	-29760.1	0.000000	0.000000	6.913131	-0.053402	NaN	0.000000	0.001544	0.001683	28.0807	0.062617	0.001870	33.4817	-39.5098	18.9073	-0.021260	0.911573	-0.207280	-0.208671	-0.053402	33.4817	-0.206084	-165.661	0.000322	NaN
560	1.000000	0.922955	7.37053e+06	-49089.1	1005.82	-29760.1	0.000000	0.000000	6.923125	0.004283	NaN	0.000000	0.001539	0.001661	28.0811	0.094569	0.002042	46.3073	28.1829	-167.007	0.028381	0.921670	-0.197289	-0.198574	0.004283	46.3073	-0.197358	-119.177	-3.593894E-5	NaN
560	1.000000	0.932953	7.37053e+06	-49089.1	1005.82	-29760.1	0.000000	0.000000	6.933123	0.018915	NaN	0.000000	0.001553	0.001704	28.0809	0.049385	0.002128	23.2063	43.7013	13.0385	0.000230	0.931598	-0.187291	-0.188646	0.018915	23.2063	-0.187902	-82.9704	-0.000228	NaN
560	1.000000	0.942928	7.37053e+06	-49089.1	1005.82	-29760.1	0.000000	0.000000	6.943097	-0.013403	NaN	0.000000	0.001539	0.001682	28.081	0.146036	0.002102	69.477	-35.7602	-166.144	0.105599	0.941668	-0.177316	-0.178576	-0.013403	69.477	-0.177171	-54.6017	0.000245	NaN
560	1.000000	0.952951	7.37053e+06	-49089.1	1005.82	-29760.1	0.000000	0.000000	6.953120	-0.001092	NaN	0.000000	0.001542	0.001677	28.0812	0.088936	0.002048	43.4198	31.878	13.466	0.054530	0.951607	-0.167293	-0.168637	-0.001092	43.4198	-0.167274	-36.8248	2.965686E-5	NaN
560	1.000000	0.962973	7.37053e+06	-49089.1	1005.82	-29760.1	0.000000	0.000000	6.963142	-0.022852	NaN	0.000000	0.001578	0.001659	28.0812	0.037531	0.001979	18.9605	168.802	-166.724	-0.053573	0.961661	-0.157271	-0.158583	-0.022852	18.9605	-0.156367	-23.6118	0.000968	NaN
560	1.000000	0.972966	7.37053e+06	-49089.1	1005.82	-29760.1	0.000000	0.000000	6.973135	-0.000881	NaN	0.000000	0.001559	0.001695	28.0813	0.076623	0.002077	36.8998	-130.575	9.817859	0.067537	0.971665	-0.147278	-0.148579	-0.000881	36.8998	-0.147260	-16.1379	5.461319E-5	NaN
560	1.000000	0.982980	7.37053e+06	-49089.1	1005.82	-29760.1	0.000000	0.000000	6.983147	-0.059175	NaN	0.000000	0.001546	0.001676	28.0809	0.157229	0.002044	76.9353	-88.0253	-164.831	-0.032200	0.981681	-0.137264	-0.138563	-0.059175	76.9353	-0.136687	-10.2427	0.005777	NaN
560	1.000000	0.992961	7.37053e+06	-49089.1	1005.82	-29760.1	0.000000	0.000000	6.993130	-0.018678	NaN	0.000000	0.001586	0.001685	28.0812	0.064061	0.001987	32.2333	-151.977	12.7564	-0.016658	0.991570	-0.127282	-0.128673	-0.018678	32.2333	-0.126848	-6.613494	0.002824	NaN
560	1.000000	1.002952	7.37053e+06	-49089.1	1005.82	-29760.1	0.000000	0.000000	7.003122	0.000903	NaN	0.000000	0.001563	0.001679	28.0811	0.079225	0.002003	39.5446	149.025	-167.279	-0.010516	1.001667	-0.117292	-0.118577	0.000903	39.5446	-0.117309	-4.260547	-0.000212	NaN
560	1.000000	1.012992	7.37053e+06	-49089.1	1005.82	-29760.1	0.000000	0.000000	7.013160	-0.056119	NaN	0.000000	0.001561	0.001643	28.0821	0.100176	0.001950	51.3806	-66.729	12.6903	-0.022692	1.011583	-0.107252	-0.108661	-0.056119	51.3806	-0.106432	-2.523522	0.022238	NaN
560	1.000000	1.022973	7.37053e+06	-49089.1	1005.82	-29760.1	0.000000	0.000000	7.023146	0.081539	NaN	0.000000	0.001575	0.001674	28.0821	0.052760	0.001981	26.6366	-142.754	-167.532	0.107743	1.021668	-0.097271	-0.098576	0.081539	26.6366	-0.099566	-1.787111	-0.045626	NaN
560	1.000000	1.032973	7.37053e+06	-49089.1	1005.82	-29760.1	0.000000	0.000000	7.033139	-0.073780	NaN	0.000000	0.001580	0.001698	28.0821	0.050756	0.002093	24.2504	157.875	6.920916	-0.079133	1.031587	-0.087271	-0.088656	-0.073780	24.2504	-0.084989	-0.821148	0.089850	NaN
560	1.000000	1.042971	7.37053e+06	-49089.1	1005.82	-29760.1	0.000000	0.000000	7.043142	0.012648	NaN	0.000000	0.001552	0.001676	28.0825	0.070908	0.001958	36.2145	37.5715	-168.719	0.076959	1.041638	-0.077273	-0.078606	0.012648	36.2145	-0.077534	-0.536439	-0.023578	NaN
560	1.000000	1.052994	7.37053e+06	-49089.1	1005.82	-29760.1	0.000000	0.000000	7.053167	0.076570	NaN	0.000000	0.001578	0.001642	28.0821	0.119609	0.002007	59.5819	114.467	12.2469	0.140132	1.051616	-0.067250	-0.068628	0.076570	59.5819	-0.068213	-0.305302	-0.250802	NaN
560	1.000000	1.062999	7.37053e+06	-49089.1	1005.82	-29760.1	0.000000	0.000000	7.063172	0.069590	NaN	0.000000	0.001573	0.001668	28.0821	0.152257	0.001878	81.0694	162.574	-167.591	0.035279	1.061709	-0.057245	-0.058535	0.069590	81.0694	-0.057889	-0.156505	-0.444648	NaN
560	1.000000	1.072973	7.37053e+06	-49089.1	1005.82	-29760.1	0.000000	0.000000	7.073143	0.011892	NaN	0.000000	0.001559	0.001716	28.0821	0.051863	0.001960	26.4564	-23.457	13.7395	-0.033647	1.071671	-0.047271	-0.048573	0.011892	26.4564	-0.047608	-0.077200	-0.154043	NaN
560	1.000000	1.083002	7.37053e+06	-49089.1	1005.82	-29760.1	0.000000	0.000000	7.083173	0.027568	NaN	0.000000	0.001594	0.001687	28.0822	0.112586	0.002091	53.8485	42.4874	-167.827	-0.036096	1.081692	-0.037242	-0.038552	0.027568	53.8485	-0.037626	-0.038336	-0.719117	NaN
560	1.000000	1.093011	7.37053e+06	-49089.1	1005.82	-29760.1	0.000000	0.000000	7.093180	-0.006512	NaN	0.000000	0.001572	0.001719	28.0819	0.043437	0.002041	21.2872	-168.423	16.5138	0.106802	1.091621	-0.027233	-0.028623	-0.006512	21.2872	-0.027004	-0.019060	0.341667	NaN
560	1.000000	1.103012	7.37053e+06	-49089.1	1005.82	-29760.1	0.000000	0.000000	7.103180	-0.018399	NaN	0.000000	0.001551	0.001700	28.0821	0.055165	0.002127	25.9397	4.647216	-166.715	-0.067801	1.101668	-0.017232	-0.018576	-0.018399	25.9397	-0.016700	-0.010320	1.782782	NaN
560	1.000000	1.113025	7.37053e+06	-49089.1	1005.82	-29760.1	0.000000	0.000000	7.113196	0.019804	NaN	0.000000	0.001579	0.001659	28.0821	0.058567	0.001986	29.4902	-120.443	13.9683	0.041527	1.111684	-0.007219	-0.008560	0.019804	29.4902	-0.007722	-0.005069	-3.907252	NaN
560	1.000000	1.123022	7.37053e+06	-49089.1	1005.82	-29760.1	0.000000	0.000000	7.123295	2.533743	NaN	0.000000	0.001557	0.001658	28.082	3.434104	0.001770	1940.21	9.971504	-169.851	1.239902	1.121681	0.002778	0.001437	2.533743	1940.21	0.001798	0.001392	1819.75	47505.7
560	2.000000	1.130069	7.37053e+06	-49089.1	1005.82	-29760.1	0.000000	0.000000	7.130666	10.379	NaN	0.000000	0.001634	0.001684	28.0819	9.777891	0.001707	5728.64	6.661716	9.506943	10.8733	1.129639	0.009825	0.009395	10.379	5728.64	0.008466	0.007526	1379.01	60329.5
560	2.000000	1.132509	7.37053e+06	-49089.1	1005.82	-29760.1	0.000000	0.000000	7.133242	13.7167	NaN	0.000000	0.001635	0.001672	28.082	12.2562	0.001632	7511.5	6.042578	-175.562	13.7057	1.132190	0.012265	0.011946	13.7167	7511.5	0.010895	0.010193	1345.64	67973.4
560	2.000000	1.134998	7.37053e+06	-49089.1	1005.82	-29760.1	0.000000	0.000000	7.135907	17.9668	NaN	0.000000	0.001640	0.001687	28.0808	15.0357	0.001884	7981.52	8.633936	3.523149	18.1657	1.134597	0.014754	0.014353	17.9668	7981.52	0.013066	0.012792	1404.52	64474.4
560	2.000000	1.137429	7.37053e+06	-49089.1	1005.82	-29760.1	0.000000	0.000000	7.138386	19.1516	NaN	0.000000	0.001556	0.001669	28.0809	17.5993	0.001811	9718.33	7.056183	-177.794	17.9997	1.137140	0.017185	0.016896	19.1516	9718.33	0.015707	0.016240	1179.29	69674.4
560	2.000000	1.139972	7.37053e+06	-49089.1	1005.82	-29760.1	0.000000	0.000000	7.141208	25.9329	NaN	0.000000	0.001574	0.001672	28.0807	19.1688	0.001816	10556.5	9.460320	1.521646	24.7341	1.139520	0.019728	0.019276	25.9329	10556.5	0.017885	0.019328	1341.74	69374.9
560	2.000000	1.142400	7.37053e+06	-49089.1	1005.82	-29760.1	0.000000	0.000000	7.143821	30.4271	NaN	0.000000	0.001575	0.001680	28.0811	21.6943	0.001792	12104.8	5.288189	-178.19	28.6647	1.142085	0.022156	0.021842	30.4271	12104.8	0.020271	0.022970	1324.65	72971
560	2.000000	1.144956	7.37053e+06	-49089.1	1005.82	-29760.1	0.000000	0.000000	7.146509	33.6485	NaN	0.000000	0.001548	0.001706	28.0808	24.7703	0.001883	13157.3	6.709250	0.460667	33.7779	1.144568	0.024712	0.024324	33.6485	13157.3	0.022794	0.027124	1240.56	72990.4
560	2.000000	1.147405	7.37053e+06	-49089.1	1005.82	-29760.1	0.000000	0.000000	7.149209	39.7513	NaN	0.000000	0.001586	0.001660	28.0809	26.8861	0.001776	15140.8	6.374341	179.045	38.8044	1.147112	0.027161	0.026868	39.7513	15140.8	0.025192	0.031366	1267.33	78107.4
560	2.000000	1.149915	7.37053e+06	-49089.1	1005.82	-29760.1	0.000000	0.000000	7.152050	47.8165	NaN	0.000000	0.001533	0.001659	28.0809	28.7555	0.001857	15482.7	7.196450	-1.075926	46.5945	1.149585	0.029671	0.029341	47.8165	15482.7	0.027354	0.035439	1349.27	75141.6
560	2.000000	1.152393	7.37053e+06	-49089.1	1005.82	-29760.1	0.000000	0.000000	7.154903	56.9173	NaN	0.000000	0.001544	0.001677	28.0813	30.8517	0.001821	16945	6.132597	178.9	56.2918	1.152117	0.032150	0.031873	56.9173	16945	0.029630	0.039981	1423.61	77426.1
560	2.000000	1.154919	7.37053e+06	-49089.1	1005.82	-29760.1	0.000000	0.000000	7.157573	60.414	NaN	0.000000	0.001567	0.001681	28.0807	32.7406	0.001690	19372.7	6.624801	-2.392692	60.2985	1.154507	0.034675	0.034263	60.414	19372.7	0.032336	0.045726	1321.23	82771.7
560	2.000000	1.157415	7.37053e+06	-49089.1	1005.82	-29760.1	0.000000	0.000000	7.160401	68.4946	NaN	0.000000	0.001544	0.001659	28.081	36.4921	0.001718	21237.7	5.725908	175.958	69.0458	1.157133	0.037171	0.036889	68.4946	21237.7	0.034752	0.051170	1338.56	85777.4
560	2.000000	1.159895	7.37053e+06	-49089.1	1005.82	-29760.1	0.000000	0.000000	7.163388	80.8219	NaN	0.000000	0.001558	0.001698	28.081	38.4426	0.001683	22847.9	7.797319	-5.581624	78.8546	1.159516	0.039651	0.039272	80.8219	22847.9	0.036998	0.056501	1430.44	87819.5
560	2.000000	1.162369	7.37053e+06	-49089.1	1005.82	-29760.1	0.000000	0.000000	7.166095	86.4956	NaN	0.000000	0.001530	0.001678	28.0809	41.1144	0.001922	21388.8	5.941836	176.817	84.1581	1.162119	0.042125	0.041875	86.4956	21388.8	0.039092	0.061703	1401.82	78669.7
560	2.000000	1.164839	7.37053e+06	-49089.1	1005.82	-29760.1	0.000000	0.000000	7.168857	93.607	NaN	0.000000	0.001543	0.001687	28.0809	43.014	0.001682	25575.6	3.764953	-2.947735	89.7984	1.164576	0.044595	0.044332	93.607	25575.6	0.041850	0.068897	1358.66	89022.3
560	2.000000	1.167400	7.37053e+06	-49089.1	1005.82	-29760.1	0.000000	0.000000	7.171800	102.885	NaN	0.000000	0.001570	0.001688	28.0815	47.5034	0.001945	24421.1	5.851109	175.406	102.456	1.167120	0.047156	0.046876	102.885	24421.1	0.043996	0.074763	1376.14	81600.9
560	2.000000	1.169923	7.37053e+06	-49089.1	1005.82	-29760.1	0.000000	0.000000	7.174780	114.002	NaN	0.000000	0.001535	0.001653	28.0823	48.4995	0.001791	27072.4	4.499963	-3.360233	114.03	1.169506	0.049679	0.049262	114.002	27072.4	0.046521	0.081963	1390.89	86395.1
560	2.000000	1.172389	7.37053e+06	-49089.1	1005.82	-29760.1	0.000000	0.000000	7.177676	124.476	NaN	0.000000	0.001572	0.001625	28.0821	50.5257	0.001755	28783	6.790014	173.053	125.63	1.172042	0.052145	0.051798	124.476	28783	0.048901	0.089047	1397.86	88124.9
560	2.000000	1.174786	7.37053e+06	-49089.1	1005.82	-29760.1	0.000000	0.000000	7.180499	134.813	NaN	0.000000	0.001565	0.001700	28.082	53.084	0.001967	26985.7	5.849592	-4.383982	130.26	1.174488	0.054543	0.054244	134.813	26985.7	0.050796	0.094889	1420.75	80038.5
560	2.000000	1.177351	7.37053e+06	-49089.1	1005.82	-29760.1	0.000000	0.000000	7.183611	148.112	NaN	0.000000	0.001569	0.001728	28.0821	53.4159	0.001702	31376.6	1.019168	177.873	146.076	1.177070	0.057108	0.056826	148.112	31376.6	0.053567	0.103757	1427.48	88995.8
560	2.000000	1.179898	7.37053e+06	-49089.1	1005.82	-29760.1	0.000000	0.000000	7.186603	158.959	NaN	0.000000	0.001668	0.001736	28.0821	56.2508	0.001689	33311.6	7.451357	-8.502100	158.355	1.179514	0.059654	0.059270	158.959	33311.6	0.056075	0.112111	1417.86	90895.8
560	2.000000	1.182320	7.37053e+06	-49089.1	1005.82	-29760.1	0.000000	0.000000	7.189453	169.343	NaN	0.000000	0.001651	0.001733	28.0823	58.2264	0.001742	33426.9	6.171709	172.417	165.712	1.182044	0.062076	0.061800	169.343	33426.9	0.058277	0.119701	1414.72	88271.5
560	2.000000	1.184902	7.37053e+06	-49089.1	1005.82	-29760.1	0.000000	0.000000	7.192532	181.432	NaN	0.000000	0.001663	0.001736	28.0821	60.8188	0.001711	35539.9	1.909526	-4.534651	179.824	1.184530	0.064659	0.064286	181.432	35539.9	0.060830	0.128801	1408.62	90475.3
560	2.000000	1.187310	7.37053e+06	-49089.1	1005.82	-29760.1	0.000000	0.000000	7.195696	199.828	NaN	0.000000	0.001657	0.001732	28.0825	64.5814	0.001802	35843.1	6.913010	171.69	196.721	1.187002	0.067066	0.066758	199.828	35843.1	0.062885	0.136356	1465.49	88683.5
560	2.000000	1.189790	7.37053e+06	-49089.1	1005.82	-29760.1	0.000000	0.000000	7.198576	209.533	NaN	0.000000	0.001641	0.001729	28.082	66.2691	0.001897	34939.9	8.893192	-10.224	203.957	1.189509	0.069547	0.069265	209.533	34939.9	0.065049	0.144533	1449.73	83967.6
560	2.000000	1.192333	7.37053e+06	-49089.1	1005.82	-29760.1	0.000000	0.000000	7.201564	220.368	NaN	0.000000	0.001651	0.001750	28.0824	68.6123	0.001794	38246	7.934983	170.018	219.534	1.191995	0.072089	0.071751	220.368	38246	0.067768	0.155127	1420.57	88718.8
560	2.000000	1.194820	7.37053e+06	-49089.1	1005.82	-29760.1	0.000000	0.000000	7.204588	233.432	NaN	0.000000	0.001654	0.001749	28.0823	71.9332	0.001826	39390.1	5.999136	-8.312451	229.968	1.194408	0.074576	0.074164	233.432	39390.1	0.070131	0.164623	1417.98	88698.4
560	2.000000	1.197344	7.37053e+06	-49089.1	1005.82	-29760.1	0.000000	0.000000	7.207820	250.676	NaN	0.000000	0.001620	0.001756	28.0824	74.0497	0.001812	40858.2	5.471574	171.878	250.176	1.196937	0.077100	0.076693	250.676	40858.2	0.072498	0.174399	1437.37	89388.2
560	2.000000	1.199811	7.37053e+06	-49089.1	1005.82	-29760.1	0.000000	0.000000	7.211055	269.339	NaN	0.000000	0.001616	0.001753	28.0822	74.821	0.001753	42675.1	1.686091	-4.063116	264.469	1.199383	0.079567	0.079140	269.339	42675.1	0.074834	0.184305	1461.37	90819.4
560	2.000000	1.202476	7.37053e+06	-49089.1	1005.82	-29760.1	0.000000	0.000000	7.214409	286.084	NaN	0.000000	0.001611	0.001711	28.0811	76.9695	0.001836	41914.1	9.028346	169.904	291.973	1.201902	0.082232	0.081658	286.084	41914.1	0.077113	0.194222	1472.98	86893
560	2.000000	1.204840	7.37053e+06	-49089.1	1005.82	-29760.1	0.000000	0.000000	7.217168	295.719	NaN	0.000000	0.001560	0.001700	28.081	79.1564	0.001723	45938.6	1.337803	-4.935095	291.827	1.204505	0.084596	0.084261	295.719	45938.6	0.079768	0.206076	1435	92456.5
560	2.000000	1.207340	7.37053e+06	-49089.1	1005.82	-29760.1	0.000000	0.000000	7.220523	316.499	NaN	0.000000	0.001560	0.001719	28.081	82.9535	0.001777	46691.1	3.863050	172.519	315.675	1.207015	0.087096	0.086771	316.499	46691.1	0.082012	0.216354	1462.88	91711.7
560	2.000000	1.209863	7.37053e+06	-49089.1	1005.82	-29760.1	0.000000	0.000000	7.223624	330.56	NaN	0.000000	0.001589	0.001744	28.0808	84.8023	0.001846	45949.5	4.394904	-8.216329	329.878	1.209622	0.089619	0.089378	330.56	45949.5	0.084223	0.226711	1458.06	88169.2
560	2.000000	1.212283	7.37053e+06	-49089.1	1005.82	-29760.1	0.000000	0.000000	7.226717	346.899	NaN	0.000000	0.001593	0.001754	28.0814	86.0343	0.001862	46196.8	2.332753	173.689	344.146	1.212017	0.092039	0.091773	346.899	46196.8	0.086408	0.237162	1462.71	86668.7
560	2.000000	1.214805	7.37053e+06	-49089.1	1005.82	-29760.1	0.000000	0.000000	7.230201	370.316	NaN	0.000000	0.001544	0.001733	28.0809	88.9244	0.001781	49943.3	3.143231	-7.395430	367.213	1.214395	0.094561	0.094151	370.316	49943.3	0.089000	0.249851	1482.15	91287.1
560	2.000000	1.217301	7.37053e+06	-49089.1	1005.82	-29760.1	0.000000	0.000000	7.233297	384.908	NaN	0.000000	0.001561	0.001774	28.081	92.6047	0.001946	47582.2	3.925362	173.021	382.403	1.216844	0.097057	0.096601	384.908	47582.2	0.090990	0.259801	1481.55	85289.9
560	2.000000	1.219718	7.37053e+06	-49089.1	1005.82	-29760.1	0.000000	0.000000	7.236510	404.264	NaN	0.000000	0.001531	0.001721	28.0808	94.3051	0.001888	49961.5	6.925034	-10.5972	396.016	1.219407	0.099475	0.099163	404.264	49961.5	0.093406	0.272126	1485.57	87503.1
560	2.000000	1.222196	7.37053e+06	-49089.1	1005.82	-29760.1	0.000000	0.000000	7.239743	422.633	NaN	0.000000	0.001570	0.001733	28.0809	95.5565	0.001890	50560.1	4.329047	171.734	414.605	1.221924	0.101952	0.101680	422.633	50560.1	0.095683	0.283986	1488.22	86682.8
560	2.000000	1.224742	7.37053e+06	-49089.1	1005.82	-29760.1	0.000000	0.000000	7.243097	442.281	NaN	0.000000	0.001572	0.001756	28.0812	97.3641	0.001767	55108.2	5.210471	-9.302591	433.213	1.224401	0.104498	0.104157	442.281	55108.2	0.098479	0.298871	1479.84	92097.5
560	2.000000	1.227322	7.37053e+06	-49089.1	1005.82	-29760.1	0.000000	0.000000	7.246208	455.191	NaN	0.000000	0.001597	0.001705	28.0808	100.582	0.001721	58449.5	4.159791	170.699	453.255	1.227072	0.107079	0.106828	455.191	58449.5	0.101238	0.313908	1450.08	95313.1