File: remote_trans/data/nanoindenter/0828-1/data/Data_2025-08-06,11h17m57s/2025-07-22_16-23-58_1_645.txt
2025-07-22, 16:23:58, 1
Index	Phase	Displacement	Time	Pos X	Pos Y	Pos Z	Rot A	Rot B	Piezo Z	Force A	Force B	Gripper	Voltage A	Voltage B	Temperature	Amplitude force	Amplitude pos	Stiffness	Phase shift	Phase excitation	Force A raw	Displacement raw	HMax	HMax raw	Real Force	Real Stiffness	Contact Depth	Area	Hardness	Reduced Mod.
[#]	[#]	[um]	[s]	[um]	[um]	[um]	[m°]	[m°]	[um]	[uN]	[uN]	[V]	[V]	[V]	[°C]	[uN]	[um]	[N/m]	[°]	[°]	[uN]	[um]	[um]	[um]	[uN]	[N/m]	[um]	[um^2]	[MPa]	[MPa]
645	1.000000	0.002909	7.37136e+06	-44839.1	1005.82	-29774.5	0.000000	0.000000	6.002814	0.074538	NaN	0.000000	0.001638	0.001715	28.0833	0.085152	0.001027	82.9411	-72.5413	-163.827	0.062693	0.001638	-1.158840	-1.160110	0.074538	82.9411	-1.159514	-3.150276E+15	-2.366070E-17	NaN
645	1.000000	0.012950	7.37136e+06	-44839.1	1005.82	-29774.5	0.000000	0.000000	6.012855	0.065415	NaN	0.000000	0.001598	0.001750	28.0832	0.060032	0.001241	48.3556	-151.511	27.7299	0.036067	0.011525	-1.148798	-1.150223	0.065415	48.3556	-1.149813	-2.335110E+15	-2.801370E-17	NaN
645	1.000000	0.022808	7.37136e+06	-44839.1	1005.82	-29774.5	0.000000	0.000000	6.022717	0.178622	NaN	0.000000	0.001624	0.001751	28.0831	0.055027	0.001704	32.2966	-111.461	-161.038	0.129964	0.021529	-1.138941	-1.140219	0.178622	32.2966	-1.143089	-1.897378E+15	-9.414154E-17	NaN
645	1.000000	0.032866	7.37136e+06	-44839.1	1005.82	-29774.5	0.000000	0.000000	6.032768	0.008505	NaN	0.000000	0.001673	0.001745	28.0831	0.043032	0.001817	23.6837	-49.4278	18.8999	0.022354	0.031475	-1.128882	-1.130273	0.008505	23.6837	-1.129152	-1.233796E+15	-6.893185E-18	NaN
645	1.000000	0.042846	7.37136e+06	-44839.1	1005.82	-29774.5	0.000000	0.000000	6.042750	0.051140	NaN	0.000000	0.001654	0.001730	28.0831	0.056250	0.002064	27.2585	21.7115	-164.518	0.069157	0.041567	-1.118902	-1.120181	0.051140	27.2585	-1.120310	-9.389132E+14	-5.446769E-17	NaN
645	1.000000	0.052864	7.37136e+06	-44839.1	1005.82	-29774.5	0.000000	0.000000	6.052766	0.001391	NaN	0.000000	0.001642	0.001728	28.0831	0.105355	0.002011	52.3997	175.631	17.6162	0.036016	0.051491	-1.108884	-1.110257	0.001391	52.3997	-1.108904	-6.600538E+14	-2.108096E-18	NaN
645	1.000000	0.062843	7.37136e+06	-44839.1	1005.82	-29774.5	0.000000	0.000000	6.062748	0.075429	NaN	0.000000	0.001599	0.001740	28.0829	0.008953	0.002087	4.290731	-92.8672	-164.743	0.051220	0.061531	-1.098905	-1.100218	0.075429	4.290731	-1.112090	-7.283427E+14	-1.035630E-16	NaN
645	1.000000	0.072850	7.37136e+06	-44839.1	1005.82	-29774.5	0.000000	0.000000	6.072755	0.062453	NaN	0.000000	0.001604	0.001690	28.083	0.072635	0.002020	35.9577	77.0548	18.5896	0.024543	0.071491	-1.088898	-1.090258	0.062453	35.9577	-1.090201	-3.702646E+14	-1.686723E-16	NaN
645	1.000000	0.082862	7.37136e+06	-44839.1	1005.82	-29774.5	0.000000	0.000000	6.082768	0.103012	NaN	0.000000	0.001619	0.001712	28.0829	0.085148	0.002020	42.1624	-115.273	-162.065	0.056079	0.081575	-1.078887	-1.080173	0.103012	42.1624	-1.080719	-2.761699E+14	-3.730026E-16	NaN
645	1.000000	0.092832	7.37136e+06	-44839.1	1005.82	-29774.5	0.000000	0.000000	6.092736	0.042247	NaN	0.000000	0.001600	0.001731	28.0828	0.038098	0.001977	19.2683	-140.969	13.2053	0.070617	0.091540	-1.068917	-1.070208	0.042247	19.2683	-1.070561	-2.017093E+14	-2.094439E-16	NaN
645	1.000000	0.102852	7.37136e+06	-44839.1	1005.82	-29774.5	0.000000	0.000000	6.102757	0.063472	NaN	0.000000	0.001614	0.001739	28.0827	0.145199	0.002104	69.0089	-1.043236	-166.083	0.038463	0.101508	-1.058896	-1.060241	0.063472	69.0089	-1.059586	-1.436330E+14	-4.419045E-16	NaN
645	1.000000	0.112915	7.37136e+06	-44839.1	1005.82	-29774.5	0.000000	0.000000	6.112819	0.066397	NaN	0.000000	0.001627	0.001729	28.083	0.027975	0.001900	14.7242	150.217	15.4874	0.095386	0.111490	-1.048834	-1.050258	0.066397	14.7242	-1.052216	-1.143409E+14	-5.806949E-16	NaN
645	1.000000	0.122858	7.37136e+06	-44839.1	1005.82	-29774.5	0.000000	0.000000	6.122762	0.040759	NaN	0.000000	0.001623	0.001750	28.0841	0.056061	0.002014	27.8351	-96.9383	-163.044	0.070855	0.121562	-1.038891	-1.040186	0.040759	27.8351	-1.039989	-7.830991E+13	-5.204810E-16	NaN
645	1.000000	0.132864	7.37136e+06	-44839.1	1005.82	-29774.5	0.000000	0.000000	6.132765	-0.027566	NaN	0.000000	0.001623	0.001733	28.0841	0.089587	0.002094	42.7928	-130.119	16.575	0.036230	0.131515	-1.028884	-1.030234	-0.027566	42.7928	-1.028401	-5.469815E+13	5.039714E-16	NaN
645	1.000000	0.142844	7.37136e+06	-44839.1	1005.82	-29774.5	0.000000	0.000000	6.142748	0.047238	NaN	0.000000	0.001636	0.001715	28.0844	0.053940	0.001943	27.7584	-46.8569	-166.556	-0.016808	0.141578	-1.018904	-1.020170	0.047238	27.7584	-1.020180	-4.240130E+13	-1.114059E-15	NaN
645	1.000000	0.152887	7.37136e+06	-44839.1	1005.82	-29774.5	0.000000	0.000000	6.152790	0.031173	NaN	0.000000	0.001612	0.001692	28.0841	0.084850	0.001974	42.9918	109.026	16.8625	0.043439	0.151551	-1.008861	-1.010197	0.031173	42.9918	-1.009405	-3.036524E+13	-1.026586E-15	NaN
645	1.000000	0.162880	7.37136e+06	-44839.1	1005.82	-29774.5	0.000000	0.000000	6.162786	0.086162	NaN	0.000000	0.001642	0.001726	28.0841	0.054527	0.002015	27.0584	-61.6037	-169.331	0.104585	0.161574	-0.998868	-1.000174	0.086162	27.0584	-1.001257	-2.358785E+13	-3.652804E-15	NaN
645	1.000000	0.172899	7.37136e+06	-44839.1	1005.82	-29774.5	0.000000	0.000000	6.172809	0.185172	NaN	0.000000	0.001651	0.001700	28.0842	0.074705	0.001940	38.5037	-50.1846	18.6623	0.125964	0.171525	-0.988849	-0.990224	0.185172	38.5037	-0.992456	-1.795519E+13	-1.031301E-14	NaN
645	1.000000	0.182915	7.37136e+06	-44839.1	1005.82	-29774.5	0.000000	0.000000	6.182818	0.020853	NaN	0.000000	0.001643	0.001727	28.0844	0.055852	0.002164	25.8051	-155.081	-164.893	0.018418	0.181598	-0.978833	-0.980150	0.020853	25.8051	-0.979439	-1.199103E+13	-1.739040E-15	NaN
645	1.000000	0.192876	7.37136e+06	-44839.1	1005.82	-29774.5	0.000000	0.000000	6.192781	0.057561	NaN	0.000000	0.001620	0.001759	28.0841	0.072564	0.002052	35.3609	135.831	17.0112	0.063989	0.191590	-0.968872	-0.970158	0.057561	35.3609	-0.970093	-8.972606E+12	-6.415219E-15	NaN
645	1.000000	0.202893	7.37136e+06	-44839.1	1005.82	-29774.5	0.000000	0.000000	6.202796	0.029550	NaN	0.000000	0.001655	0.001713	28.0843	0.086407	0.001874	46.1149	-159.013	-165.994	-0.017484	0.201613	-0.958855	-0.960136	0.029550	46.1149	-0.959336	-6.425613E+12	-4.598849E-15	NaN
645	1.000000	0.212902	7.37136e+06	-44839.1	1005.82	-29774.5	0.000000	0.000000	6.212805	0.010261	NaN	0.000000	0.001643	0.001733	28.0844	0.062182	0.001943	32.0089	-91.0156	17.0852	0.108884	0.211550	-0.948846	-0.950198	0.010261	32.0089	-0.949086	-4.674188E+12	-2.195208E-15	NaN
645	1.000000	0.222911	7.37136e+06	-44839.1	1005.82	-29774.5	0.000000	0.000000	6.222812	-0.007771	NaN	0.000000	0.001655	0.001717	28.0844	0.050583	0.002007	25.1991	144.236	-161.259	-0.073222	0.221601	-0.938838	-0.940147	-0.007771	25.1991	-0.938606	-3.375480E+12	2.302086E-15	NaN
645	1.000000	0.232911	7.37136e+06	-44839.1	1005.82	-29774.5	0.000000	0.000000	6.232813	-0.002628	NaN	0.000000	0.001637	0.001675	28.0842	0.068068	0.002046	33.276	-108.384	13.7465	0.057378	0.231548	-0.928838	-0.930201	-0.002628	33.276	-0.928778	-2.487187E+12	1.056585E-15	NaN
645	1.000000	0.242942	7.37136e+06	-44839.1	1005.82	-29774.5	0.000000	0.000000	6.242844	0.010592	NaN	0.000000	0.001628	0.001700	28.0842	0.056751	0.002104	26.975	151.806	-162.964	-0.019317	0.241590	-0.918806	-0.920158	0.010592	26.975	-0.919101	-1.841056E+12	-5.753179E-15	NaN
645	1.000000	0.252912	7.37136e+06	-44839.1	1005.82	-29774.5	0.000000	0.000000	6.252814	0.000855	NaN	0.000000	0.001638	0.001713	28.0833	0.021025	0.001910	11.0077	17.4111	14.7975	0.024060	0.251565	-0.908836	-0.910183	0.000855	11.0077	-0.908894	-1.340386E+12	-6.379595E-16	NaN
645	1.000000	0.262948	7.37136e+06	-44839.1	1005.82	-29774.5	0.000000	0.000000	6.262852	0.056159	NaN	0.000000	0.001619	0.001712	28.0829	0.103090	0.002046	50.3823	127.906	-164.045	-0.015354	0.261600	-0.898801	-0.900148	0.056159	50.3823	-0.899637	-1.004979E+12	-5.588125E-14	NaN
645	1.000000	0.272924	7.37136e+06	-44839.1	1005.82	-29774.5	0.000000	0.000000	6.272826	-0.012107	NaN	0.000000	0.001675	0.001686	28.083	0.083847	0.002015	41.6122	172.504	15.7776	-0.042423	0.271570	-0.888824	-0.890178	-0.012107	41.6122	-0.888606	-7.129637E+11	1.698112E-14	NaN
645	1.000000	0.282955	7.37136e+06	-44839.1	1005.82	-29774.5	0.000000	0.000000	6.282856	-0.046536	NaN	0.000000	0.001647	0.001686	28.0832	0.055587	0.001985	28.0066	16.2769	-165.666	-0.072189	0.281627	-0.878793	-0.880121	-0.046536	28.0066	-0.877547	-5.052768E+11	9.210096E-14	NaN
645	1.000000	0.292931	7.37136e+06	-44839.1	1005.82	-29774.5	0.000000	0.000000	6.292835	0.057271	NaN	0.000000	0.001714	0.001723	28.0829	0.087199	0.001992	43.7738	-1.404154	10.8815	0.050330	0.291603	-0.868817	-0.870146	0.057271	43.7738	-0.869799	-3.969356E+11	-1.442833E-13	NaN
645	1.000000	0.302926	7.37136e+06	-44839.1	1005.82	-29774.5	0.000000	0.000000	6.302830	0.041367	NaN	0.000000	0.001643	0.001674	28.083	0.157955	0.002000	78.9908	-71.5961	-163.786	0.034829	0.301672	-0.858822	-0.860077	0.041367	78.9908	-0.859215	-2.854247E+11	-1.449310E-13	NaN
645	1.000000	0.312965	7.37136e+06	-44839.1	1005.82	-29774.5	0.000000	0.000000	6.312869	0.049209	NaN	0.000000	0.001669	0.001713	28.0832	0.094285	0.001998	47.1893	126.942	18.4556	0.087230	0.311596	-0.848784	-0.850153	0.049209	47.1893	-0.849566	-2.112806E+11	-2.329096E-13	NaN
645	1.000000	0.322966	7.37136e+06	-44839.1	1005.82	-29774.5	0.000000	0.000000	6.322868	-0.007138	NaN	0.000000	0.001683	0.001690	28.0835	0.044835	0.001990	22.5258	-153.493	-165.388	-0.012582	0.321685	-0.838782	-0.840063	-0.007138	22.5258	-0.838545	-1.498227E+11	4.764310E-14	NaN
645	1.000000	0.333001	7.37136e+06	-44839.1	1005.82	-29774.5	0.000000	0.000000	6.332905	0.051906	NaN	0.000000	0.001660	0.001758	28.0831	0.135451	0.001996	67.8445	-30.1732	15.2284	0.032249	0.331593	-0.828748	-0.830155	0.051906	67.8445	-0.829321	-1.123534E+11	-4.619872E-13	NaN
645	1.000000	0.342969	7.37136e+06	-44839.1	1005.82	-29774.5	0.000000	0.000000	6.342873	0.049906	NaN	0.000000	0.001675	0.001670	28.0831	0.086232	0.002069	41.6751	108.314	-164.015	0.009001	0.341685	-0.818779	-0.820064	0.049906	41.6751	-0.819677	-8.314530E+10	-6.002261E-13	NaN
645	1.000000	0.352947	7.37136e+06	-44839.1	1005.82	-29774.5	0.000000	0.000000	6.352847	-0.034897	NaN	0.000000	0.001663	0.001701	28.0831	0.078730	0.002053	38.3529	65.571	17.0769	-0.012939	0.351565	-0.808802	-0.810183	-0.034897	38.3529	-0.808119	-5.795032E+10	6.021810E-13	NaN
645	1.000000	0.362976	7.37136e+06	-44839.1	1005.82	-29774.5	0.000000	0.000000	6.362877	-0.019082	NaN	0.000000	0.001675	0.001680	28.0829	0.033359	0.002008	16.6123	33.3654	-162.15	0.085042	0.361629	-0.798773	-0.800119	-0.019082	16.6123	-0.797911	-4.212172E+10	4.530151E-13	NaN
645	1.000000	0.372965	7.37136e+06	-44839.1	1005.82	-29774.5	0.000000	0.000000	6.372867	0.002790	NaN	0.000000	0.001625	0.001697	28.083	0.034411	0.002030	16.949	-83.7519	10.0385	0.020638	0.371566	-0.788783	-0.790182	0.002790	16.949	-0.788907	-3.178608E+10	-8.776493E-14	NaN
645	1.000000	0.383008	7.37136e+06	-44839.1	1005.82	-29774.5	0.000000	0.000000	6.382909	-0.039596	NaN	0.000000	0.001663	0.001694	28.0828	0.119952	0.001976	60.6958	-139.338	-168.951	-0.060752	0.381699	-0.778740	-0.780050	-0.039596	60.6958	-0.778251	-2.277506E+10	1.738559E-12	NaN
645	1.000000	0.392997	7.37136e+06	-44839.1	1005.82	-29774.5	0.000000	0.000000	6.392898	-0.025467	NaN	0.000000	0.001646	0.001686	28.0844	0.042039	0.001875	22.4168	-8.891125	16.8601	-0.033768	0.391653	-0.768751	-0.770096	-0.025467	22.4168	-0.767899	-1.647174E+10	1.546105E-12	NaN
645	1.000000	0.403012	7.37136e+06	-44839.1	1005.82	-29774.5	0.000000	0.000000	6.402914	-0.009899	NaN	0.000000	0.001578	0.001685	28.0841	0.117856	0.002090	56.3938	-74.455	-162.904	0.100484	0.401692	-0.758736	-0.760056	-0.009899	56.3938	-0.758605	-1.231173E+10	8.040500E-13	NaN
645	1.000000	0.413000	7.37136e+06	-44839.1	1005.82	-29774.5	0.000000	0.000000	6.412905	0.069435	NaN	0.000000	0.001567	0.001712	28.0844	0.066270	0.002046	32.39	13.2277	17.6191	0.104774	0.411650	-0.748748	-0.750098	0.069435	32.39	-0.750356	-9.507429E+9	-7.303185E-12	NaN
645	1.000000	0.423000	7.37136e+06	-44839.1	1005.82	-29774.5	0.000000	0.000000	6.422903	0.025588	NaN	0.000000	0.001569	0.001703	28.0842	0.045707	0.001879	24.3266	-41.9243	-162.575	-0.013082	0.421773	-0.738748	-0.739975	0.025588	24.3266	-0.739537	-6.772514E+9	-3.778252E-12	NaN
645	1.000000	0.432990	7.37136e+06	-44839.1	1005.82	-29774.5	0.000000	0.000000	6.432895	0.074473	NaN	0.000000	0.001549	0.001684	28.0842	0.153509	0.002030	75.6125	57.7937	14.6243	0.025221	0.431703	-0.728758	-0.730046	0.074473	75.6125	-0.729497	-4.942572E+9	-1.506772E-11	NaN
645	1.000000	0.443013	7.37136e+06	-44839.1	1005.82	-29774.5	0.000000	0.000000	6.442919	0.099211	NaN	0.000000	0.001586	0.001698	28.0838	0.061699	0.001938	31.8313	-99.7681	-165.84	0.005293	0.441707	-0.718735	-0.720041	0.099211	31.8313	-0.721073	-3.794075E+9	-2.614891E-11	NaN
645	1.000000	0.453030	7.37136e+06	-44839.1	1005.82	-29774.5	0.000000	0.000000	6.452934	0.044184	NaN	0.000000	0.001567	0.001714	28.0845	0.044861	0.001983	22.6234	155.512	16.4483	0.006726	0.451620	-0.708719	-0.710128	0.044184	22.6234	-0.710183	-2.694961E+9	-1.639514E-11	NaN
645	1.000000	0.462995	7.37136e+06	-44839.1	1005.82	-29774.5	0.000000	0.000000	6.462899	0.038782	NaN	0.000000	0.001586	0.001662	28.0844	0.107586	0.001958	54.9433	105.866	-166.354	0.034300	0.461736	-0.698753	-0.700013	0.038782	54.9433	-0.699282	-1.913067E+9	-2.027241E-11	NaN
645	1.000000	0.473026	7.37136e+06	-44839.1	1005.82	-29774.5	0.000000	0.000000	6.472931	0.057181	NaN	0.000000	0.001575	0.001727	28.0843	0.038048	0.001997	19.0516	-124.191	11.7972	0.058504	0.471677	-0.688722	-0.690071	0.057181	19.0516	-0.690973	-1.473057E+9	-3.881796E-11	NaN
645	1.000000	0.483007	7.37136e+06	-44839.1	1005.82	-29774.5	0.000000	0.000000	6.482909	0.008477	NaN	0.000000	0.001596	0.001711	28.0842	0.065941	0.001834	35.9554	-143.181	-163.841	0.047451	0.481704	-0.678742	-0.680045	0.008477	35.9554	-0.678918	-1.007892E+9	-8.410958E-12	NaN
645	1.000000	0.493045	7.37136e+06	-44839.1	1005.82	-29774.5	0.000000	0.000000	6.492947	0.021197	NaN	0.000000	0.001608	0.001724	28.0845	0.080740	0.002097	38.5086	-164.256	14.5072	0.081328	0.491660	-0.668704	-0.670089	0.021197	38.5086	-0.669117	-7.401170E+8	-2.864000E-11	NaN
645	1.000000	0.503026	7.37136e+06	-44839.1	1005.82	-29774.5	0.000000	0.000000	6.502931	0.084624	NaN	0.000000	0.001599	0.001703	28.0838	0.136267	0.002003	68.036	-22.2016	-164.793	0.066420	0.501680	-0.658723	-0.660069	0.084624	68.036	-0.659656	-5.492267E+8	-1.540777E-10	NaN
645	1.000000	0.513055	7.37136e+06	-44839.1	1005.82	-29774.5	0.000000	0.000000	6.512958	0.015038	NaN	0.000000	0.001589	0.001688	28.0843	0.078191	0.002086	37.4844	163.633	14.8026	-0.071624	0.511737	-0.648693	-0.650011	0.015038	37.4844	-0.648994	-3.923235E+8	-3.833030E-11	NaN
645	1.000000	0.523055	7.37136e+06	-44839.1	1005.82	-29774.5	0.000000	0.000000	6.522958	0.025184	NaN	0.000000	0.001602	0.001701	28.0841	0.106771	0.001909	55.9406	166.775	-165.209	0.032323	0.521727	-0.638693	-0.640022	0.025184	55.9406	-0.639031	-2.864143E+8	-8.792917E-11	NaN
645	1.000000	0.533044	7.37136e+06	-44839.1	1005.82	-29774.5	0.000000	0.000000	6.532947	0.025682	NaN	0.000000	0.001706	0.001704	28.0831	0.028888	0.002110	13.6936	-5.997778	14.3512	0.016086	0.531719	-0.628704	-0.630029	0.025682	13.6936	-0.630111	-2.160443E+8	-1.188724E-10	NaN
645	1.000000	0.543046	7.37136e+06	-44839.1	1005.82	-29774.5	0.000000	0.000000	6.542949	0.021708	NaN	0.000000	0.001685	0.001711	28.0827	0.058557	0.002036	28.7644	-24.6828	-164.514	-0.011553	0.541735	-0.618703	-0.620013	0.021708	28.7644	-0.619269	-1.533135E+8	-1.415908E-10	NaN
645	1.000000	0.553057	7.37136e+06	-44839.1	1005.82	-29774.5	0.000000	0.000000	6.552960	0.021072	NaN	0.000000	0.001706	0.001723	28.083	0.057470	0.001970	29.1716	89.4787	12.7363	0.054895	0.551710	-0.608691	-0.610039	0.021072	29.1716	-0.609233	-1.115732E+8	-1.888656E-10	NaN
645	1.000000	0.563061	7.37136e+06	-44839.1	1005.82	-29774.5	0.000000	0.000000	6.562963	0.000376	NaN	0.000000	0.001701	0.001718	28.0828	0.115394	0.002087	55.2831	-44.8074	-164.675	-0.010452	0.561738	-0.598688	-0.600010	0.000376	55.2831	-0.598693	-7.988348E+7	-4.711298E-12	NaN
645	1.000000	0.573045	7.37136e+06	-44839.1	1005.82	-29774.5	0.000000	0.000000	6.572950	0.063804	NaN	0.000000	0.001636	0.001699	28.083	0.103875	0.002057	50.5011	-174.152	12.8115	0.083098	0.571740	-0.588703	-0.590009	0.063804	50.5011	-0.589651	-5.995840E+7	-1.064138E-9	NaN
645	1.000000	0.583090	7.37136e+06	-44839.1	1005.82	-29774.5	0.000000	0.000000	6.582996	0.090978	NaN	0.000000	0.001628	0.001712	28.0829	0.131509	0.001890	69.5932	-20.0646	-165.686	0.071406	0.581799	-0.578659	-0.579950	0.090978	69.5932	-0.579639	-4.362591E+7	-2.085412E-9	NaN
645	1.000000	0.593065	7.37136e+06	-44839.1	1005.82	-29774.5	0.000000	0.000000	6.592967	0.003412	NaN	0.000000	0.001600	0.001716	28.0831	0.149650	0.001972	75.8752	168.181	15.7767	-0.064130	0.591740	-0.568684	-0.570008	0.003412	75.8752	-0.568717	-3.082531E+7	-1.106871E-10	NaN
645	1.000000	0.603061	7.37136e+06	-44839.1	1005.82	-29774.5	0.000000	0.000000	6.602966	0.073739	NaN	0.000000	0.001610	0.001662	28.0832	0.049141	0.002081	23.6185	41.8534	-166.076	0.094861	0.601790	-0.558688	-0.559959	0.073739	23.6185	-0.561029	-2.413326E+7	-3.055509E-9	NaN
645	1.000000	0.613062	7.37136e+06	-44839.1	1005.82	-29774.5	0.000000	0.000000	6.612964	0.010796	NaN	0.000000	0.001644	0.001687	28.083	0.031541	0.001996	15.8021	6.764350	16.8841	0.014066	0.611753	-0.548687	-0.549995	0.010796	15.8021	-0.549199	-1.655238E+7	-6.522487E-10	NaN
645	1.000000	0.623091	7.37136e+06	-44839.1	1005.82	-29774.5	0.000000	0.000000	6.622992	-0.016317	NaN	0.000000	0.001622	0.001707	28.0832	0.074999	0.001950	38.4604	-29.0524	-162.506	0.045822	0.621787	-0.538658	-0.539961	-0.016317	38.4604	-0.538340	-1.170384E+7	1.394119E-9	NaN
645	1.000000	0.633102	7.37136e+06	-44839.1	1005.82	-29774.5	0.000000	0.000000	6.633006	0.053323	NaN	0.000000	0.001629	0.001698	28.0833	0.040742	0.002079	19.5927	105.714	16.5293	-0.004636	0.631698	-0.528647	-0.530050	0.053323	19.5927	-0.530688	-9.16493e+06	-5.818137E-9	NaN
645	1.000000	0.643090	7.37136e+06	-44839.1	1005.82	-29774.5	0.000000	0.000000	6.642994	0.064641	NaN	0.000000	0.001624	0.001743	28.0834	0.085692	0.001881	45.5507	5.955590	-165.272	0.101451	0.641818	-0.518659	-0.519930	0.064641	45.5507	-0.519723	-6.45277e+06	-1.001753E-8	NaN
645	1.000000	0.653107	7.37136e+06	-44839.1	1005.82	-29774.5	0.000000	0.000000	6.653009	-0.005976	NaN	0.000000	0.001633	0.001735	28.0833	0.047580	0.001973	24.1205	-128.243	12.6626	-0.031718	0.651786	-0.508642	-0.509963	-0.005976	24.1205	-0.508456	-4.4968e+06	1.329048E-9	NaN
645	1.000000	0.663109	7.37136e+06	-44839.1	1005.82	-29774.5	0.000000	0.000000	6.663012	0.010559	NaN	0.000000	0.001629	0.001711	28.0843	0.067567	0.002048	32.9914	133.463	-162.364	-0.003050	0.661824	-0.498639	-0.499925	0.010559	32.9914	-0.498879	-3.30657e+06	-3.193316E-9	NaN
645	1.000000	0.673105	7.37136e+06	-44839.1	1005.82	-29774.5	0.000000	0.000000	6.673006	-0.033535	NaN	0.000000	0.001608	0.001694	28.0846	0.119806	0.001955	61.2921	-109.104	16.7506	-0.034293	0.671710	-0.488643	-0.490038	-0.033535	61.2921	-0.488233	-2.34799e+06	1.428255E-8	NaN
645	1.000000	0.683109	7.37136e+06	-44839.1	1005.82	-29774.5	0.000000	0.000000	6.683012	0.040524	NaN	0.000000	0.001662	0.001699	28.0843	0.031501	0.002098	15.0162	78.3034	-162.565	0.036344	0.681763	-0.478640	-0.479985	0.040524	15.0162	-0.480664	-1.84001e+06	-2.202379E-8	NaN
645	1.000000	0.693125	7.37136e+06	-44839.1	1005.82	-29774.5	0.000000	0.000000	6.693027	-0.003985	NaN	0.000000	0.001634	0.001697	28.0843	0.028107	0.001965	14.303	-106.281	17.7682	0.041696	0.691705	-0.468624	-0.470043	-0.003985	14.303	-0.468415	-1.23928e+06	3.215900E-9	NaN
645	1.000000	0.703120	7.37136e+06	-44839.1	1005.82	-29774.5	0.000000	0.000000	6.703026	0.088268	NaN	0.000000	0.001562	0.001703	28.0845	0.103944	0.002027	51.2862	-36.1592	-163.344	0.080414	0.701824	-0.458628	-0.459924	0.088268	51.2862	-0.459919	-941626	-9.373989E-8	NaN
645	1.000000	0.713085	7.37136e+06	-44839.1	1005.82	-29774.5	0.000000	0.000000	6.712989	0.038576	NaN	0.000000	0.001580	0.001723	28.0845	0.124948	0.002209	56.5577	-134.295	17.1123	0.000206	0.711769	-0.448663	-0.449979	0.038576	56.5577	-0.449175	-664846	-5.802194E-8	NaN
645	1.000000	0.723133	7.37136e+06	-44839.1	1005.82	-29774.5	0.000000	0.000000	6.723039	0.087528	NaN	0.000000	0.001617	0.001760	28.0846	0.051142	0.001959	26.1049	-44.6416	-163.476	0.084449	0.721830	-0.438615	-0.439918	0.087528	26.1049	-0.441130	-512045	-1.709378E-7	NaN
645	1.000000	0.733146	7.37136e+06	-44839.1	1005.82	-29774.5	0.000000	0.000000	6.733049	0.040858	NaN	0.000000	0.001600	0.001754	28.0843	0.059327	0.001840	32.2421	-159.96	14.1295	0.056783	0.731795	-0.428603	-0.429954	0.040858	32.2421	-0.429553	-351349	-1.162903E-7	NaN
645	1.000000	0.743173	7.37136e+06	-44839.1	1005.82	-29774.5	0.000000	0.000000	6.743075	0.009848	NaN	0.000000	0.001601	0.001724	28.0848	0.069658	0.001936	35.9879	-15.1843	-164.527	-0.026266	0.741872	-0.418576	-0.419877	0.009848	35.9879	-0.418781	-247241	-3.983147E-8	NaN
645	1.000000	0.753143	7.37136e+06	-44839.1	1005.82	-29774.5	0.000000	0.000000	6.753046	0.013347	NaN	0.000000	0.001610	0.001678	28.0844	0.169791	0.001953	86.9537	-154.414	16.5854	0.114637	0.751759	-0.408605	-0.409990	0.013347	86.9537	-0.408720	-177908	-7.502162E-8	NaN
645	1.000000	0.763112	7.37136e+06	-44839.1	1005.82	-29774.5	0.000000	0.000000	6.763011	-0.062621	NaN	0.000000	0.001629	0.001713	28.0849	0.105569	0.002004	52.6698	139.611	-167.128	-0.013318	0.761832	-0.398636	-0.399917	-0.062621	52.6698	-0.397745	-124114	5.045445E-7	NaN
645	1.000000	0.773125	7.37136e+06	-44839.1	1005.82	-29774.5	0.000000	0.000000	6.773027	0.007187	NaN	0.000000	0.001600	0.001740	28.0844	0.066258	0.002020	32.7951	-120.65	16.5028	-0.042675	0.771797	-0.388624	-0.389952	0.007187	32.7951	-0.388788	-92432.7	-7.775794E-8	NaN
645	1.000000	0.783174	7.37136e+06	-44839.1	1005.82	-29774.5	0.000000	0.000000	6.783079	0.064266	NaN	0.000000	0.001580	0.001716	28.0848	0.068884	0.001945	35.4175	128.274	-166.021	0.080908	0.781781	-0.378574	-0.379967	0.064266	35.4175	-0.379935	-69016.7	-9.311606E-7	NaN
645	1.000000	0.793167	7.37136e+06	-44839.1	1005.82	-29774.5	0.000000	0.000000	6.793071	0.043503	NaN	0.000000	0.001591	0.001729	28.0845	0.135121	0.002057	65.681	174.771	13.3012	0.086458	0.791803	-0.368581	-0.369946	0.043503	65.681	-0.369078	-48177.4	-9.029724E-7	NaN
645	1.000000	0.803166	7.37136e+06	-44839.1	1005.82	-29774.5	0.000000	0.000000	6.803071	0.066318	NaN	0.000000	0.001679	0.001728	28.0831	0.037855	0.002056	18.4112	-37.7828	-165.607	0.142496	0.801853	-0.358582	-0.359895	0.066318	18.4112	-0.361284	-37187.5	-1.783335E-6	NaN
645	1.000000	0.813161	7.37136e+06	-44839.1	1005.82	-29774.5	0.000000	0.000000	6.813060	-0.082600	NaN	0.000000	0.001712	0.001691	28.0832	0.044108	0.001981	22.2669	49.9295	11.7106	-0.102623	0.811764	-0.348587	-0.349984	-0.082600	22.2669	-0.345805	-22185.3	3.723192E-6	NaN
645	1.000000	0.823165	7.37136e+06	-44839.1	1005.82	-29774.5	0.000000	0.000000	6.823067	0.005693	NaN	0.000000	0.001662	0.001781	28.0831	0.110267	0.001866	59.0897	1.728597	-162.357	0.070287	0.821801	-0.338584	-0.339947	0.005693	59.0897	-0.338656	-17456.5	-3.261169E-7	NaN
645	1.000000	0.833186	7.37136e+06	-44839.1	1005.82	-29774.5	0.000000	0.000000	6.833089	0.020286	NaN	0.000000	0.001707	0.001741	28.0833	0.057768	0.001883	30.6845	20.3122	14.4248	0.022622	0.831854	-0.328562	-0.329895	0.020286	30.6845	-0.329058	-12637.2	-1.605247E-6	NaN
645	1.000000	0.843196	7.37136e+06	-44839.1	1005.82	-29774.5	0.000000	0.000000	6.843098	-0.004133	NaN	0.000000	0.001680	0.001734	28.0832	0.107757	0.001948	55.3175	-137.657	-166.74	0.019820	0.841870	-0.318553	-0.319878	-0.004133	55.3175	-0.318497	-8841.02	4.675272E-7	NaN
645	1.000000	0.853191	7.37136e+06	-44839.1	1005.82	-29774.5	0.000000	0.000000	6.853093	-0.004695	NaN	0.000000	0.001679	0.001732	28.0836	0.115179	0.002043	56.3706	160.814	14.9909	0.051024	0.851827	-0.308558	-0.309921	-0.004695	56.3706	-0.308495	-6291.82	7.462236E-7	NaN
645	1.000000	0.863197	7.37136e+06	-44839.1	1005.82	-29774.5	0.000000	0.000000	6.863098	-0.024612	NaN	0.000000	0.001672	0.001736	28.0832	0.073821	0.002106	35.0448	-76.4494	-163.303	2.613171E-6	0.861863	-0.298552	-0.299886	-0.024612	35.0448	-0.298025	-4397.61	5.596756E-6	NaN
645	1.000000	0.873207	7.37136e+06	-44839.1	1005.82	-29774.5	0.000000	0.000000	6.873113	0.083465	NaN	0.000000	0.001648	0.001744	28.0833	0.024861	0.001959	12.6887	-55.5277	16.6079	0.043004	0.871812	-0.288541	-0.289936	0.083465	12.6887	-0.293474	-3760.92	-2.219261E-5	NaN
645	1.000000	0.883188	7.37136e+06	-44839.1	1005.82	-29774.5	0.000000	0.000000	6.883093	0.054652	NaN	0.000000	0.001655	0.001734	28.0834	0.023468	0.001929	12.1649	-103.509	-164.782	0.065474	0.881881	-0.278560	-0.279867	0.054652	12.1649	-0.281930	-2523.83	-2.165448E-5	NaN
645	1.000000	0.893189	7.37136e+06	-44839.1	1005.82	-29774.5	0.000000	0.000000	6.893094	0.086524	NaN	0.000000	0.001645	0.001753	28.0833	0.086516	0.002072	41.7509	-128.877	18.1222	0.142520	0.891846	-0.268560	-0.269903	0.086524	41.7509	-0.270114	-1672.17	-5.174332E-5	NaN
645	1.000000	0.903224	7.37136e+06	-44839.1	1005.82	-29774.5	0.000000	0.000000	6.903129	0.056975	NaN	0.000000	0.001647	0.001753	28.0833	0.089552	0.002075	43.1621	-8.369350	-163.881	0.105336	0.901850	-0.258524	-0.259898	0.056975	43.1621	-0.259514	-1152.04	-4.945577E-5	NaN
645	1.000000	0.913212	7.37136e+06	-44839.1	1005.82	-29774.5	0.000000	0.000000	6.913116	0.039754	NaN	0.000000	0.001665	0.001705	28.0833	0.072153	0.002053	35.1474	-146.13	16.8612	0.101186	0.911843	-0.248537	-0.249905	0.039754	35.1474	-0.249385	-804.36	-4.942340E-5	NaN
645	1.000000	0.923203	7.37136e+06	-44839.1	1005.82	-29774.5	0.000000	0.000000	6.923104	-0.011316	NaN	0.000000	0.001619	0.001742	28.0836	0.074255	0.001964	37.8022	-81.6016	-166.071	0.058829	0.921908	-0.238546	-0.239841	-0.011316	37.8022	-0.238321	-541.137	2.091232E-5	NaN
645	1.000000	0.933213	7.37136e+06	-44839.1	1005.82	-29774.5	0.000000	0.000000	6.933116	0.034297	NaN	0.000000	0.001656	0.001726	28.0833	0.064406	0.001864	34.547	-119.267	17.8302	0.088600	0.931815	-0.228536	-0.229934	0.034297	34.547	-0.229280	-390.073	-8.792509E-5	NaN
645	1.000000	0.943230	7.37136e+06	-44839.1	1005.82	-29774.5	0.000000	0.000000	6.943133	0.007642	NaN	0.000000	0.001640	0.001758	28.0845	0.053233	0.002058	25.8685	-123.776	-166.907	-0.009584	0.941883	-0.218518	-0.219865	0.007642	25.8685	-0.218740	-265.166	-2.881854E-5	NaN
645	1.000000	0.953218	7.37136e+06	-44839.1	1005.82	-29774.5	0.000000	0.000000	6.953124	0.101797	NaN	0.000000	0.001625	0.001744	28.0846	0.064611	0.002072	31.1863	93.8254	13.879	0.073949	0.951845	-0.208531	-0.209903	0.101797	31.1863	-0.210979	-198.911	-0.000512	NaN
645	1.000000	0.963224	7.37136e+06	-44839.1	1005.82	-29774.5	0.000000	0.000000	6.963130	0.093174	NaN	0.000000	0.001647	0.001716	28.0846	0.049234	0.001803	27.3065	-12.513	-166.77	0.031579	0.961951	-0.198525	-0.199798	0.093174	27.3065	-0.201084	-137.245	-0.000679	NaN
645	1.000000	0.973236	7.37136e+06	-44839.1	1005.82	-29774.5	0.000000	0.000000	6.973140	0.068908	NaN	0.000000	0.001623	0.001710	28.0848	0.104868	0.002055	51.0269	147.171	16.5315	-0.038870	0.971864	-0.188513	-0.189884	0.068908	51.0269	-0.189526	-88.3286	-0.000780	NaN
645	1.000000	0.983247	7.37136e+06	-44839.1	1005.82	-29774.5	0.000000	0.000000	6.983149	-0.004975	NaN	0.000000	0.001658	0.001726	28.0846	0.050008	0.001990	25.124	-13.4983	-166.92	0.007732	0.981943	-0.178501	-0.179806	-0.004975	25.124	-0.178353	-57.1997	8.698411E-5	NaN
645	1.000000	0.993228	7.37136e+06	-44839.1	1005.82	-29774.5	0.000000	0.000000	6.993128	-0.044176	NaN	0.000000	0.001659	0.001708	28.0851	0.046147	0.002054	22.4669	8.129829	17.133	-0.052625	0.991890	-0.168521	-0.169859	-0.044176	22.4669	-0.167046	-36.4879	0.001211	NaN
645	1.000000	1.003269	7.37136e+06	-44839.1	1005.82	-29774.5	0.000000	0.000000	7.003172	0.013516	NaN	0.000000	0.001673	0.001706	28.0845	0.109037	0.001959	55.6729	-87.2203	-166.616	-0.047954	1.001926	-0.158479	-0.159823	0.013516	55.6729	-0.158662	-25.9515	-0.000521	NaN
645	1.000000	1.013206	7.37136e+06	-44839.1	1005.82	-29774.5	0.000000	0.000000	7.013107	-0.010264	NaN	0.000000	0.001630	0.001725	28.0849	0.047112	0.002061	22.8626	156.495	18.0351	-2.853823E-5	1.011856	-0.148543	-0.149892	-0.010264	22.8626	-0.148206	-16.7959	0.000611	NaN
645	1.000000	1.023240	7.37136e+06	-44839.1	1005.82	-29774.5	0.000000	0.000000	7.023146	0.081383	NaN	0.000000	0.001645	0.001682	28.0846	0.027170	0.001958	13.8772	149.333	-164.023	0.033855	1.021942	-0.138508	-0.139806	0.081383	13.8772	-0.142906	-13.4065	-0.006070	NaN
645	1.000000	1.033254	7.37136e+06	-44839.1	1005.82	-29774.5	0.000000	0.000000	7.033157	0.046718	NaN	0.000000	0.001678	0.001687	28.0849	0.140067	0.001998	70.1027	-94.5344	14.6812	0.077204	1.031901	-0.128495	-0.129847	0.046718	70.1027	-0.128995	-7.285329	-0.006413	NaN
645	1.000000	1.043238	7.37136e+06	-44839.1	1005.82	-29774.5	0.000000	0.000000	7.043145	0.132126	NaN	0.000000	0.001721	0.001665	28.0847	0.069448	0.001977	35.1191	-38.5777	-164.103	0.097434	1.041960	-0.118511	-0.119788	0.132126	35.1191	-0.121332	-5.139271	-0.025709	NaN
645	1.000000	1.053256	7.37136e+06	-44839.1	1005.82	-29774.5	0.000000	0.000000	7.053159	0.034771	NaN	0.000000	0.001705	0.001725	28.0846	0.061441	0.002024	30.3598	106.31	16.2903	-0.020179	1.051884	-0.108493	-0.109864	0.034771	30.3598	-0.109352	-2.911966	-0.011941	NaN
645	1.000000	1.063244	7.37136e+06	-44839.1	1005.82	-29774.5	0.000000	0.000000	7.063146	-0.002286	NaN	0.000000	0.001719	0.001733	28.0849	0.098795	0.002073	47.6613	115.278	-166.382	0.008141	1.062017	-0.098505	-0.099731	-0.002286	47.6613	-0.098469	-1.689224	0.001353	NaN
645	1.000000	1.073241	7.37136e+06	-44839.1	1005.82	-29774.5	0.000000	0.000000	7.073145	0.050231	NaN	0.000000	0.001713	0.001710	28.0835	0.044781	0.001924	23.2749	-66.0974	15.4189	0.014741	1.071904	-0.088507	-0.089844	0.050231	23.2749	-0.090126	-1.088348	-0.046153	NaN
645	1.000000	1.083268	7.37136e+06	-44839.1	1005.82	-29774.5	0.000000	0.000000	7.083171	0.025396	NaN	0.000000	0.001670	0.001697	28.0832	0.031861	0.002049	15.5486	121.615	-162.834	0.083001	1.081951	-0.078480	-0.079798	0.025396	15.5486	-0.079705	-0.608568	-0.041731	NaN
645	1.000000	1.093275	7.37136e+06	-44839.1	1005.82	-29774.5	0.000000	0.000000	7.093178	0.025827	NaN	0.000000	0.001712	0.001714	28.0835	0.042088	0.002157	19.5116	-130.028	12.1455	0.047501	1.091882	-0.068473	-0.069866	0.025827	19.5116	-0.069466	-0.330035	-0.078256	NaN
645	1.000000	1.103272	7.37136e+06	-44839.1	1005.82	-29774.5	0.000000	0.000000	7.103176	0.035494	NaN	0.000000	0.001713	0.001698	28.0832	0.191804	0.002086	91.9673	-170.103	-163.376	-0.024127	1.101956	-0.058476	-0.059793	0.035494	91.9673	-0.058765	-0.165936	-0.213903	NaN
645	1.000000	1.113291	7.37136e+06	-44839.1	1005.82	-29774.5	0.000000	0.000000	7.113195	0.044475	NaN	0.000000	0.001755	0.001680	28.0832	0.045988	0.001884	24.4123	-112.724	15.2222	0.121301	1.111923	-0.048458	-0.049825	0.044475	24.4123	-0.049824	-0.090138	-0.493404	NaN
645	1.000000	1.123294	7.37136e+06	-44839.1	1005.82	-29774.5	0.000000	0.000000	7.123196	-0.001933	NaN	0.000000	0.001741	0.001686	28.0832	0.097292	0.002098	46.3712	123.031	-164.049	-0.010448	1.121999	-0.038454	-0.039749	-0.001933	46.3712	-0.038423	-0.040514	0.047708	NaN
645	1.000000	1.133264	7.37136e+06	-44839.1	1005.82	-29774.5	0.000000	0.000000	7.133168	0.066518	NaN	0.000000	0.001735	0.001685	28.0835	0.072661	0.001964	36.9987	53.4392	14.4941	0.040328	1.131912	-0.028485	-0.029836	0.066518	36.9987	-0.029833	-0.022768	-2.921558	NaN
645	1.000000	1.143262	7.37136e+06	-44839.1	1005.82	-29774.5	0.000000	0.000000	7.143162	-0.041329	NaN	0.000000	0.001723	0.001662	28.0834	0.038732	0.002063	18.774	95.8147	-165.263	0.044061	1.141979	-0.018486	-0.019769	-0.041329	18.774	-0.016835	-0.010406	3.971735	NaN
645	1.000000	1.153306	7.37136e+06	-44839.1	1005.82	-29774.5	0.000000	0.000000	7.153209	0.025092	NaN	0.000000	0.001737	0.001650	28.0835	0.041563	0.001864	22.3014	146.741	12.4855	-0.014505	1.151975	-0.008442	-0.009774	0.025092	22.3014	-0.009286	-0.005978	-4.197416	NaN
645	1.000000	1.163274	7.37136e+06	-44839.1	1005.82	-29774.5	0.000000	0.000000	7.163309	3.241329	NaN	0.000000	0.001744	0.001694	28.0835	4.027578	0.001834	2195.49	7.152816	-166.944	1.700049	1.162015	0.001525	0.000267	3.241329	2195.49	0.000418	0.000315	10295.9	113051
645	2.000000	1.169428	7.37136e+06	-44839.1	1005.82	-29774.5	0.000000	0.000000	7.169680	8.526776	NaN	0.000000	0.001745	0.001663	28.0835	8.853379	0.001569	5643.11	5.090062	10.7534	8.067802	1.169031	0.007679	0.007283	8.526776	5643.11	0.006546	0.005589	1525.64	68964.5
645	2.000000	1.171852	7.37136e+06	-44839.1	1005.82	-29774.5	0.000000	0.000000	7.172259	12.2674	NaN	0.000000	0.001741	0.001652	28.0834	11.6638	0.001705	6841.22	6.470044	-172.614	11.5675	1.171585	0.010104	0.009836	12.2674	6841.22	0.008759	0.007835	1565.78	70614.8
645	2.000000	1.174311	7.37136e+06	-44839.1	1005.82	-29774.5	0.000000	0.000000	7.174891	16.4893	NaN	0.000000	0.001625	0.001674	28.0831	14.5062	0.001794	8084.26	6.976387	6.089457	15.0592	1.173982	0.012563	0.012233	16.4893	8084.26	0.011033	0.010352	1592.8	72592.6
645	2.000000	1.176843	7.37136e+06	-44839.1	1005.82	-29774.5	0.000000	0.000000	7.177599	20.7957	NaN	0.000000	0.001643	0.001643	28.0834	17.0657	0.001784	9565.91	5.932640	-174.62	20.2411	1.176516	0.015094	0.014767	20.7957	9565.91	0.013464	0.013291	1564.64	75808.9
645	2.000000	1.179319	7.37136e+06	-44839.1	1005.82	-29774.5	0.000000	0.000000	7.180317	26.6593	NaN	0.000000	0.001642	0.001671	28.0843	19.2444	0.001808	10642.1	6.365278	4.865026	25.7404	1.178923	0.017571	0.017174	26.6593	10642.1	0.015692	0.016219	1643.73	76346.5
645	2.000000	1.181793	7.37136e+06	-44839.1	1005.82	-29774.5	0.000000	0.000000	7.183018	32.1864	NaN	0.000000	0.001673	0.001641	28.0843	21.5583	0.001708	12623.4	7.554479	-177.986	31.3917	1.181435	0.020045	0.019686	32.1864	12623.4	0.018133	0.019692	1634.46	82186.3
645	2.000000	1.184256	7.37136e+06	-44839.1	1005.82	-29774.5	0.000000	0.000000	7.185702	37.5446	NaN	0.000000	0.001630	0.001677	28.0846	24.2703	0.001861	13039.8	6.066113	2.782923	35.5993	1.183925	0.022508	0.022176	37.5446	13039.8	0.020348	0.023093	1625.82	78398.2
645	2.000000	1.186776	7.37136e+06	-44839.1	1005.82	-29774.5	0.000000	0.000000	7.188581	46.3003	NaN	0.000000	0.001631	0.001717	28.0846	26.4183	0.001843	14333.6	3.199395	-175.351	44.7974	1.186497	0.025027	0.024749	46.3003	14333.6	0.022605	0.026802	1727.5	79992.1
645	2.000000	1.189294	7.37136e+06	-44839.1	1005.82	-29774.5	0.000000	0.000000	7.191454	54.9399	NaN	0.000000	0.001634	0.001632	28.0845	29.334	0.001783	16447.8	11.6186	-4.828594	53.2072	1.188884	0.027546	0.027136	54.9399	16447.8	0.025040	0.031089	1767.18	85226.9
645	2.000000	1.191761	7.37136e+06	-44839.1	1005.82	-29774.5	0.000000	0.000000	7.194228	62.3952	NaN	0.000000	0.001685	0.001657	28.0846	31.1696	0.001835	16984.6	5.235797	-178.476	60.524	1.191485	0.030012	0.029736	62.3952	16984.6	0.027257	0.035250	1770.06	82650.7
645	2.000000	1.194228	7.37136e+06	-44839.1	1005.82	-29774.5	0.000000	0.000000	7.197170	73.9509	NaN	0.000000	0.001680	0.001644	28.0849	33.4955	0.001779	18824.2	4.500260	1.326059	70.6448	1.193906	0.032480	0.032157	73.9509	18824.2	0.029533	0.039782	1858.9	86227.4
645	2.000000	1.196795	7.37136e+06	-44839.1	1005.82	-29774.5	0.000000	0.000000	7.200009	80.5709	NaN	0.000000	0.001663	0.001649	28.0846	37.441	0.001905	19652	5.691621	178.853	79.3681	1.196522	0.035047	0.034773	80.5709	19652	0.031972	0.044930	1793.27	84706.1
645	2.000000	1.199293	7.37136e+06	-44839.1	1005.82	-29774.5	0.000000	0.000000	7.202870	89.3962	NaN	0.000000	0.001650	0.001661	28.0847	39.3468	0.001762	22324.5	8.525479	-4.299129	89.0461	1.198890	0.037545	0.037141	89.3962	22324.5	0.034541	0.050683	1763.82	90599
645	2.000000	1.201831	7.37136e+06	-44839.1	1005.82	-29774.5	0.000000	0.000000	7.205908	101.564	NaN	0.000000	0.001672	0.001669	28.0848	41.6482	0.001778	23419.2	6.744147	177.089	103.944	1.201497	0.040083	0.039749	101.564	23419.2	0.036830	0.056094	1810.61	90341.9
645	2.000000	1.204237	7.37136e+06	-44839.1	1005.82	-29774.5	0.000000	0.000000	7.208610	108.78	NaN	0.000000	0.001614	0.001640	28.0854	43.1603	0.001722	25064.4	6.816626	-5.094573	105.16	1.203998	0.042488	0.042250	108.78	25064.4	0.039233	0.062062	1752.77	91921.8
645	2.000000	1.206816	7.37136e+06	-44839.1	1005.82	-29774.5	0.000000	0.000000	7.211631	119.524	NaN	0.000000	0.001645	0.001656	28.0847	46.328	0.001767	26217.2	4.947301	177.496	120.798	1.206465	0.045068	0.044717	119.524	26217.2	0.041649	0.068358	1748.49	91614.4
645	2.000000	1.209247	7.37136e+06	-44839.1	1005.82	-29774.5	0.000000	0.000000	7.214410	128.004	NaN	0.000000	0.001620	0.001670	28.0849	48.0653	0.001808	26582.7	4.689452	-2.050185	125.876	1.208890	0.047498	0.047142	128.004	26582.7	0.043887	0.074458	1719.13	89005.1
645	2.000000	1.211749	7.37137e+06	-44839.1	1005.82	-29774.5	0.000000	0.000000	7.217391	139.626	NaN	0.000000	0.001624	0.001645	28.0844	51.2695	0.001803	28436	8.713378	171.868	138.786	1.211429	0.050001	0.049680	139.626	28436	0.046318	0.081374	1715.85	91074.7
645	2.000000	1.214257	7.37137e+06	-44839.1	1005.82	-29774.5	0.000000	0.000000	7.220440	152.81	NaN	0.000000	0.001608	0.001690	28.0843	53.2807	0.001904	27982.8	4.720704	-3.463059	150.069	1.213831	0.052509	0.052083	152.81	27982.8	0.048413	0.087571	1745	86394.3
645	2.000000	1.216758	7.37137e+06	-44839.1	1005.82	-29774.5	0.000000	0.000000	7.223314	161.878	NaN	0.000000	0.001653	0.001645	28.0832	55.0446	0.001823	30192.9	4.641043	176.391	162.137	1.216438	0.055010	0.054690	161.878	30192.9	0.050989	0.095493	1695.19	89267.2
645	2.000000	1.219295	7.37137e+06	-44839.1	1005.82	-29774.5	0.000000	0.000000	7.226478	177.108	NaN	0.000000	0.001658	0.001694	28.0836	56.5764	0.001881	30078.7	5.492641	-3.553278	178.519	1.218868	0.057547	0.057120	177.108	30078.7	0.053131	0.102336	1730.66	85905.1
645	2.000000	1.221733	7.37137e+06	-44839.1	1005.82	-29774.5	0.000000	0.000000	7.229541	192.339	NaN	0.000000	0.001653	0.001632	28.0831	57.5317	0.001771	32486.8	4.591490	175.251	189.236	1.221454	0.059985	0.059705	192.339	32486.8	0.055544	0.110317	1743.52	89363.2
645	2.000000	1.224177	7.37137e+06	-44839.1	1005.82	-29774.5	0.000000	0.000000	7.232638	208.196	NaN	0.000000	0.001685	0.001652	28.0836	60.9377	0.001812	33629.4	6.052942	-6.072878	201.988	1.223837	0.062429	0.062088	208.196	33629.4	0.057786	0.117989	1764.54	89448.3
645	2.000000	1.226705	7.37137e+06	-44839.1	1005.82	-29774.5	0.000000	0.000000	7.235658	220.17	NaN	0.000000	0.001647	0.001669	28.083	62.3472	0.001749	35638	2.718484	176.898	217.453	1.226470	0.064957	0.064722	220.17	35638	0.060323	0.126971	1734.02	91376.6
645	2.000000	1.229216	7.37137e+06	-44839.1	1005.82	-29774.5	0.000000	0.000000	7.238794	235.384	NaN	0.000000	0.001661	0.001697	28.0833	65.0661	0.001755	37065.4	6.336154	-6.977067	229.792	1.228783	0.067468	0.067034	235.384	37065.4	0.062705	0.135687	1734.76	91933.3
645	2.000000	1.231646	7.37137e+06	-44839.1	1005.82	-29774.5	0.000000	0.000000	7.241826	250.029	NaN	0.000000	0.001667	0.001648	28.083	66.7635	0.001740	38380.7	5.078932	174.05	244.207	1.231345	0.069898	0.069596	250.029	38380.7	0.065012	0.144391	1731.61	92281.7
645	2.000000	1.234177	7.37137e+06	-44839.1	1005.82	-29774.5	0.000000	0.000000	7.245036	266.554	NaN	0.000000	0.001661	0.001665	28.0833	69.7342	0.001786	39053.3	3.460183	-4.147738	261.57	1.233825	0.072429	0.072077	266.554	39053.3	0.067310	0.153317	1738.59	91124.8
645	2.000000	1.236617	7.37137e+06	-44839.1	1005.82	-29774.5	0.000000	0.000000	7.248282	286.16	NaN	0.000000	0.001646	0.001699	28.083	73.6096	0.001785	41248.8	9.330987	168.965	280.966	1.236307	0.074868	0.074559	286.16	41248.8	0.069665	0.162729	1758.51	93422.6
645	2.000000	1.239186	7.37137e+06	-44839.1	1005.82	-29774.5	0.000000	0.000000	7.251590	304.126	NaN	0.000000	0.001665	0.001678	28.083	74.533	0.001803	41329.1	5.093494	-5.627556	300.178	1.238825	0.077438	0.077077	304.126	41329.1	0.071919	0.171981	1768.37	91051.9
645	2.000000	1.241696	7.37137e+06	-44839.1	1005.82	-29774.5	0.000000	0.000000	7.254733	319.524	NaN	0.000000	0.001647	0.001691	28.0832	76.4583	0.001741	43928	3.443320	175.408	318.004	1.241385	0.079948	0.079637	319.524	43928	0.074493	0.182842	1747.54	93859.2
645	2.000000	1.244138	7.37137e+06	-44839.1	1005.82	-29774.5	0.000000	0.000000	7.257718	332.752	NaN	0.000000	0.001653	0.001693	28.083	80.1615	0.001896	42274.7	4.549196	-5.339500	327.022	1.243793	0.082390	0.082044	332.752	42274.7	0.076487	0.191471	1737.87	88267.8
645	2.000000	1.246687	7.37137e+06	-44839.1	1005.82	-29774.5	0.000000	0.000000	7.261034	351.42	NaN	0.000000	0.001662	0.001669	28.0844	82.6077	0.001815	45506.2	3.791858	174.238	350.206	1.246442	0.084938	0.084694	351.42	45506.2	0.079146	0.203271	1728.83	92216
645	2.000000	1.249181	7.37137e+06	-44839.1	1005.82	-29774.5	0.000000	0.000000	7.264364	371.731	NaN	0.000000	0.001609	0.001672	28.0844	83.4471	0.001730	48244.2	4.046188	-6.463161	366.219	1.248879	0.087433	0.087130	371.731	48244.2	0.081654	0.214699	1731.4	95126.7
645	2.000000	1.251773	7.37137e+06	-44839.1	1005.82	-29774.5	0.000000	0.000000	7.267273	379.449	NaN	0.000000	0.001647	0.001671	28.0845	86.7018	0.001817	47724.1	6.708432	170.173	382.317	1.251500	0.090025	0.089751	379.449	47724.1	0.084061	0.225945	1679.39	91729.6
645	2.000000	1.254151	7.37137e+06	-44839.1	1005.82	-29774.5	0.000000	0.000000	7.270397	397.621	NaN	0.000000	0.001673	0.001645	28.0843	88.7239	0.001786	49687.9	3.822332	-6.833228	393.343	1.253908	0.092402	0.092160	397.621	49687.9	0.086400	0.237128	1676.82	93225.1
645	2.000000	1.256605	7.37137e+06	-44839.1	1005.82	-29774.5	0.000000	0.000000	7.273957	424.51	NaN	0.000000	0.001693	0.001685	28.0841	91.9285	0.001755	52382.9	4.006754	172.75	420.373	1.256390	0.094857	0.094642	424.51	52382.9	0.088779	0.248757	1706.52	95956.6
645	2.000000	1.259224	7.37137e+06	-44839.1	1005.82	-29774.5	0.000000	0.000000	7.277525	447.59	NaN	0.000000	0.001667	0.001660	28.0842	94.575	0.001764	53608.7	6.129744	-8.905022	446.412	1.258809	0.097476	0.097060	447.59	53608.7	0.091214	0.260932	1715.35	95883.6
645	2.000000	1.261746	7.37137e+06	-44839.1	1005.82	-29774.5	0.000000	0.000000	7.280829	466.632	NaN	0.000000	0.001643	0.001694	28.0842	96.7027	0.001834	52718.2	6.906167	169.644	467.521	1.261404	0.099997	0.099656	466.632	52718.2	0.093359	0.271883	1716.3	92372.4
645	2.000000	1.264112	7.37137e+06	-44839.1	1005.82	-29774.5	0.000000	0.000000	7.284049	487.405	NaN	0.000000	0.001621	0.001698	28.0842	99.2588	0.001815	54693.7	5.498813	-8.657557	480.668	1.263847	0.102364	0.102099	487.405	54693.7	0.095680	0.283970	1716.4	93772.3
645	2.000000	1.266598	7.37137e+06	-44839.1	1005.82	-29774.5	0.000000	0.000000	7.287264	505.139	NaN	0.000000	0.001654	0.001697	28.0842	103.246	0.001841	56080	5.786788	170.15	498.118	1.266397	0.104850	0.104649	505.139	56080	0.098094	0.296803	1701.93	94047.6