File: remote_trans/data/nanoindenter/0828-1/data/Data_2025-08-06,11h17m57s/2025-07-22_16-23-58_1_651.txt
2025-07-22, 16:23:58, 1
Index	Phase	Displacement	Time	Pos X	Pos Y	Pos Z	Rot A	Rot B	Piezo Z	Force A	Force B	Gripper	Voltage A	Voltage B	Temperature	Amplitude force	Amplitude pos	Stiffness	Phase shift	Phase excitation	Force A raw	Displacement raw	HMax	HMax raw	Real Force	Real Stiffness	Contact Depth	Area	Hardness	Reduced Mod.
[#]	[#]	[um]	[s]	[um]	[um]	[um]	[m°]	[m°]	[um]	[uN]	[uN]	[V]	[V]	[V]	[°C]	[uN]	[um]	[N/m]	[°]	[°]	[uN]	[um]	[um]	[um]	[uN]	[N/m]	[um]	[um^2]	[MPa]	[MPa]
651	1.000000	0.002397	7.37142e+06	-44539.1	1005.82	-29775.5	0.000000	0.000000	6.002810	-0.036874	NaN	0.000000	0.001651	0.001746	28.0823	0.133389	0.000932	143.072	156.932	-164.351	-0.110015	0.001117	-1.138940	-1.140219	-0.036874	143.072	-1.138746	-1.659308E+15	2.222273E-17	NaN
651	1.000000	0.012457	7.37142e+06	-44539.1	1005.82	-29775.5	0.000000	0.000000	6.012872	-0.010120	NaN	0.000000	0.001637	0.001736	28.0822	0.069824	0.001266	55.1336	136.213	13.5228	0.026093	0.011019	-1.128879	-1.130317	-0.010120	55.1336	-1.128741	-1.218263E+15	8.306927E-18	NaN
651	1.000000	0.022318	7.37142e+06	-44539.1	1005.82	-29775.5	0.000000	0.000000	6.022729	-0.092036	NaN	0.000000	0.001647	0.001735	28.0822	0.106844	0.001701	62.8249	64.2729	-167.307	-0.153510	0.021041	-1.119019	-1.120296	-0.092036	62.8249	-1.117920	-8.720916E+14	1.055348E-16	NaN
651	1.000000	0.032334	7.37142e+06	-44539.1	1005.82	-29775.5	0.000000	0.000000	6.032750	0.021193	NaN	0.000000	0.001635	0.001767	28.0821	0.088194	0.001743	50.6046	142.598	13.155	-0.008044	0.030909	-1.109003	-1.110427	0.021193	50.6046	-1.109317	-6.685259E+14	-3.170060E-17	NaN
651	1.000000	0.042328	7.37142e+06	-44539.1	1005.82	-29775.5	0.000000	0.000000	6.042743	-0.020321	NaN	0.000000	0.001669	0.001757	28.0824	0.115777	0.002051	56.4574	-29.3361	-162.534	-0.005327	0.041031	-1.099008	-1.100306	-0.020321	56.4574	-1.098738	-4.820900E+14	4.215216E-17	NaN
651	1.000000	0.052307	7.37142e+06	-44539.1	1005.82	-29775.5	0.000000	0.000000	6.052722	-0.014787	NaN	0.000000	0.001635	0.001757	28.0821	0.041071	0.002042	20.1136	177.147	16.598	-0.043299	0.050990	-1.089029	-1.090347	-0.014787	20.1136	-1.088478	-3.510508E+14	4.212222E-17	NaN
651	1.000000	0.062300	7.37142e+06	-44539.1	1005.82	-29775.5	0.000000	0.000000	6.062716	0.005336	NaN	0.000000	0.001640	0.001734	28.0819	0.029056	0.002024	14.3582	-68.2707	-166.211	0.005116	0.061033	-1.079036	-1.080303	0.005336	14.3582	-1.079315	-2.644329E+14	-2.017750E-17	NaN
651	1.000000	0.072349	7.37142e+06	-44539.1	1005.82	-29775.5	0.000000	0.000000	6.072762	-0.054820	NaN	0.000000	0.001647	0.001731	28.0833	0.084223	0.001997	42.1835	-171.242	14.706	-0.040229	0.070980	-1.068988	-1.070357	-0.054820	42.1835	-1.068013	-1.864201E+14	2.940693E-16	NaN
651	1.000000	0.082344	7.37142e+06	-44539.1	1005.82	-29775.5	0.000000	0.000000	6.082761	0.043869	NaN	0.000000	0.001628	0.001730	28.0832	0.067429	0.002132	31.6201	55.0362	-165.572	-0.029692	0.080992	-1.058993	-1.060345	0.043869	31.6201	-1.060033	-1.456364E+14	-3.012216E-16	NaN
651	1.000000	0.092330	7.37142e+06	-44539.1	1005.82	-29775.5	0.000000	0.000000	6.092745	-0.010463	NaN	0.000000	0.001592	0.001744	28.083	0.095915	0.002009	47.7392	-89.2493	14.9459	-0.028933	0.091009	-1.049006	-1.050328	-0.010463	47.7392	-1.048842	-1.030016E+14	1.015810E-16	NaN
651	1.000000	0.102334	7.37142e+06	-44539.1	1005.82	-29775.5	0.000000	0.000000	6.102751	0.040112	NaN	0.000000	0.001609	0.001707	28.0831	0.131286	0.001886	69.5933	-173.446	-162.164	-0.102902	0.101020	-1.039002	-1.040316	0.040112	69.5933	-1.039434	-7.697719E+13	-5.210948E-16	NaN
651	1.000000	0.112379	7.37142e+06	-44539.1	1005.82	-29775.5	0.000000	0.000000	6.112792	-0.058111	NaN	0.000000	0.001577	0.001751	28.0833	0.067078	0.002063	32.5192	102.587	16.1696	-0.024848	0.110983	-1.028957	-1.030353	-0.058111	32.5192	-1.027617	-5.338586E+13	1.088514E-15	NaN
651	1.000000	0.122347	7.37142e+06	-44539.1	1005.82	-29775.5	0.000000	0.000000	6.122761	-0.007043	NaN	0.000000	0.001631	0.001752	28.0832	0.024876	0.001979	12.5713	-54.9398	-162.153	-0.056270	0.121031	-1.018990	-1.020305	-0.007043	12.5713	-1.018570	-4.033746E+13	1.746109E-16	NaN
651	1.000000	0.132369	7.37142e+06	-44539.1	1005.82	-29775.5	0.000000	0.000000	6.132782	-0.047507	NaN	0.000000	0.001640	0.001763	28.0832	0.087128	0.002077	41.9408	-128.151	15.7754	-0.098622	0.131034	-1.008967	-1.010302	-0.047507	41.9408	-1.008118	-2.917736E+13	1.628216E-15	NaN
651	1.000000	0.142355	7.37142e+06	-44539.1	1005.82	-29775.5	0.000000	0.000000	6.142769	-0.036517	NaN	0.000000	0.001634	0.001757	28.0834	0.063737	0.002012	31.675	-27.3751	-167.431	-0.040939	0.141086	-0.998982	-1.000250	-0.036517	31.675	-0.998117	-2.140004E+13	1.706381E-15	NaN
651	1.000000	0.152374	7.37142e+06	-44539.1	1005.82	-29775.5	0.000000	0.000000	6.152792	0.075461	NaN	0.000000	0.001630	0.001722	28.0835	0.029447	0.001916	15.3651	96.4462	16.7903	0.039480	0.151016	-0.988963	-0.990321	0.075461	15.3651	-0.992646	-1.806130E+13	-4.178059E-15	NaN
651	1.000000	0.162398	7.37142e+06	-44539.1	1005.82	-29775.5	0.000000	0.000000	6.162811	-0.041707	NaN	0.000000	0.001596	0.001712	28.0831	0.104230	0.001972	52.8574	178.733	-162.013	-0.027807	0.161047	-0.978939	-0.980289	-0.041707	52.8574	-0.978347	-1.159156E+13	3.598086E-15	NaN
651	1.000000	0.172386	7.37142e+06	-44539.1	1005.82	-29775.5	0.000000	0.000000	6.172799	-0.049962	NaN	0.000000	0.001616	0.001740	28.0832	0.079962	0.002011	39.7661	-23.3282	17.0662	-0.054438	0.171058	-0.968950	-0.970278	-0.049962	39.7661	-0.968008	-8.410395E+12	5.940476E-15	NaN
651	1.000000	0.182382	7.37142e+06	-44539.1	1005.82	-29775.5	0.000000	0.000000	6.182797	0.008903	NaN	0.000000	0.001597	0.001752	28.0834	0.004417	0.001905	2.318937	158.386	-166.247	0.008755	0.181053	-0.958955	-0.960283	0.008903	2.318937	-0.961834	-6.943847E+12	-1.282183E-15	NaN
651	1.000000	0.192409	7.37142e+06	-44539.1	1005.82	-29775.5	0.000000	0.000000	6.192826	0.033848	NaN	0.000000	0.001596	0.001719	28.083	0.034350	0.002118	16.2213	-129.146	14.1391	0.053750	0.191054	-0.948927	-0.950283	0.033848	16.2213	-0.950492	-4.882775E+12	-6.932188E-15	NaN
651	1.000000	0.202400	7.37142e+06	-44539.1	1005.82	-29775.5	0.000000	0.000000	6.202815	0.011369	NaN	0.000000	0.001651	0.001743	28.083	0.036863	0.001904	19.3634	-160.484	-165.967	0.016198	0.201094	-0.938937	-0.940242	0.011369	19.3634	-0.939377	-3.457252E+12	-3.288346E-15	NaN
651	1.000000	0.212398	7.37142e+06	-44539.1	1005.82	-29775.5	0.000000	0.000000	6.212810	-0.055919	NaN	0.000000	0.001625	0.001724	28.0822	0.065946	0.002005	32.8957	-134.143	16.3629	-0.062578	0.211072	-0.928939	-0.930265	-0.055919	32.8957	-0.927664	-2.402523E+12	2.327522E-14	NaN
651	1.000000	0.222434	7.37142e+06	-44539.1	1005.82	-29775.5	0.000000	0.000000	6.222849	-0.010452	NaN	0.000000	0.001594	0.001697	28.082	0.030385	0.002075	14.6435	-138.558	-162.544	0.032145	0.221114	-0.918902	-0.920223	-0.010452	14.6435	-0.918367	-1.799531E+12	5.808003E-15	NaN
651	1.000000	0.232395	7.37142e+06	-44539.1	1005.82	-29775.5	0.000000	0.000000	6.232809	-0.031062	NaN	0.000000	0.001576	0.001702	28.0817	0.097327	0.001961	49.6332	-45.5976	18.5219	-0.129594	0.231070	-0.908941	-0.910267	-0.031062	49.6332	-0.908472	-1.322884E+12	2.348041E-14	NaN
651	1.000000	0.242375	7.37142e+06	-44539.1	1005.82	-29775.5	0.000000	0.000000	6.242787	-0.055184	NaN	0.000000	0.001591	0.001736	28.0816	0.078364	0.001982	39.5295	-104.675	-161.75	-0.044137	0.241140	-0.898962	-0.900196	-0.055184	39.5295	-0.897915	-9.525557E+11	5.793265E-14	NaN
651	1.000000	0.252391	7.37142e+06	-44539.1	1005.82	-29775.5	0.000000	0.000000	6.252804	-0.065481	NaN	0.000000	0.001680	0.001711	28.082	0.088801	0.002035	43.6385	-151.941	15.5899	-0.095150	0.251031	-0.888945	-0.890305	-0.065481	43.6385	-0.887820	-6.957284E+11	9.411821E-14	NaN
651	1.000000	0.262401	7.37142e+06	-44539.1	1005.82	-29775.5	0.000000	0.000000	6.262815	-0.028686	NaN	0.000000	0.001693	0.001735	28.0816	0.070509	0.001799	39.1833	-39.2805	-166.706	-0.048471	0.261134	-0.878935	-0.880203	-0.028686	39.1833	-0.878386	-5.186609E+11	5.530841E-14	NaN
651	1.000000	0.272392	7.37142e+06	-44539.1	1005.82	-29775.5	0.000000	0.000000	6.272808	0.031525	NaN	0.000000	0.001704	0.001715	28.0818	0.098949	0.002078	47.615	113.494	12.0424	0.062926	0.271046	-0.868945	-0.870291	0.031525	47.615	-0.869441	-3.925415E+11	-8.031049E-14	NaN
651	1.000000	0.282418	7.37142e+06	-44539.1	1005.82	-29775.5	0.000000	0.000000	6.282833	-0.004405	NaN	0.000000	0.001711	0.001696	28.0818	0.092135	0.002048	44.9936	43.0853	-165.42	0.015068	0.281149	-0.858918	-0.860188	-0.004405	44.9936	-0.858845	-2.821551E+11	1.561201E-14	NaN
651	1.000000	0.292469	7.37142e+06	-44539.1	1005.82	-29775.5	0.000000	0.000000	6.292881	-0.066118	NaN	0.000000	0.001714	0.001684	28.082	0.104750	0.002082	50.3174	-173.671	14.9152	-0.003381	0.291047	-0.848868	-0.850289	-0.066118	50.3174	-0.847882	-2.004748E+11	3.298067E-13	NaN
651	1.000000	0.302432	7.37142e+06	-44539.1	1005.82	-29775.5	0.000000	0.000000	6.302848	0.015928	NaN	0.000000	0.001725	0.001692	28.0818	0.064118	0.001982	32.3491	42.4809	-165.267	0.022209	0.301130	-0.838905	-0.840206	0.015928	32.3491	-0.839274	-1.532698E+11	-1.039201E-13	NaN
651	1.000000	0.312450	7.37142e+06	-44539.1	1005.82	-29775.5	0.000000	0.000000	6.312868	0.057619	NaN	0.000000	0.001712	0.001677	28.0819	0.083479	0.002061	40.5085	107.996	19.4062	0.066636	0.311047	-0.828886	-0.830289	0.057619	40.5085	-0.829953	-1.145899E+11	-5.028305E-13	NaN
651	1.000000	0.322470	7.37142e+06	-44539.1	1005.82	-29775.5	0.000000	0.000000	6.322888	0.066655	NaN	0.000000	0.001638	0.001696	28.0821	0.048673	0.002018	24.1135	155.636	-165.727	0.064235	0.321137	-0.818867	-0.820199	0.066655	24.1135	-0.820940	-8.648829E+10	-7.706777E-13	NaN
651	1.000000	0.332434	7.37142e+06	-44539.1	1005.82	-29775.5	0.000000	0.000000	6.332851	0.045294	NaN	0.000000	0.001640	0.001709	28.0817	0.030951	0.001999	15.4799	53.0639	14.4367	0.044918	0.331100	-0.808903	-0.810236	0.045294	15.4799	-0.811097	-6.359968E+10	-7.121664E-13	NaN
651	1.000000	0.342451	7.37142e+06	-44539.1	1005.82	-29775.5	0.000000	0.000000	6.342866	-0.008573	NaN	0.000000	0.001652	0.001650	28.0831	0.041248	0.002011	20.5087	-13.3346	-164.59	-0.006371	0.341154	-0.798886	-0.800183	-0.008573	20.5087	-0.798572	-4.300098E+10	1.993789E-13	NaN
651	1.000000	0.352485	7.37142e+06	-44539.1	1005.82	-29775.5	0.000000	0.000000	6.352900	-9.866223E-5	NaN	0.000000	0.001639	0.001709	28.0831	0.029080	0.001856	15.6645	126.331	14.5361	0.024148	0.351116	-0.788852	-0.790220	-9.866223E-5	15.6645	-0.788847	-3.172687E+10	3.109737E-15	NaN
651	1.000000	0.362477	7.37142e+06	-44539.1	1005.82	-29775.5	0.000000	0.000000	6.362891	-0.029509	NaN	0.000000	0.001635	0.001706	28.0834	0.033215	0.002086	15.9249	145.194	-164.312	-0.030406	0.361179	-0.778860	-0.780158	-0.029509	15.9249	-0.777470	-2.222533E+10	1.327711E-12	NaN
651	1.000000	0.372459	7.37142e+06	-44539.1	1005.82	-29775.5	0.000000	0.000000	6.372875	0.037677	NaN	0.000000	0.001607	0.001732	28.0831	0.039465	0.001923	20.5241	172.436	14.5864	0.069790	0.371128	-0.768878	-0.770209	0.037677	20.5241	-0.770255	-1.773244E+10	-2.124747E-12	NaN
651	1.000000	0.382491	7.37142e+06	-44539.1	1005.82	-29775.5	0.000000	0.000000	6.382906	-0.002697	NaN	0.000000	0.001660	0.001702	28.0831	0.060301	0.002022	29.8239	157.881	-167.14	0.001631	0.381203	-0.758846	-0.760133	-0.002697	29.8239	-0.758778	-1.237875E+10	2.178851E-13	NaN
651	1.000000	0.392461	7.37142e+06	-44539.1	1005.82	-29775.5	0.000000	0.000000	6.392876	-0.003833	NaN	0.000000	0.001642	0.001717	28.0828	0.088135	0.001989	44.3153	133.244	15.3181	-0.005116	0.391133	-0.748875	-0.750203	-0.003833	44.3153	-0.748811	-9.057916E+9	4.231948E-13	NaN
651	1.000000	0.402464	7.37142e+06	-44539.1	1005.82	-29775.5	0.000000	0.000000	6.402881	0.046929	NaN	0.000000	0.001603	0.001666	28.083	0.102814	0.002066	49.7706	92.439	-164.702	0.074010	0.401183	-0.738873	-0.740154	0.046929	49.7706	-0.739580	-6.781587E+9	-6.920009E-12	NaN
651	1.000000	0.412490	7.37142e+06	-44539.1	1005.82	-29775.5	0.000000	0.000000	6.412904	-0.032606	NaN	0.000000	0.001737	0.001690	28.0829	0.106231	0.002103	50.5085	177.988	18.1755	-0.027579	0.411140	-0.728846	-0.730196	-0.032606	50.5085	-0.728362	-4.769605E+9	6.836157E-12	NaN
651	1.000000	0.422465	7.37142e+06	-44539.1	1005.82	-29775.5	0.000000	0.000000	6.422880	-0.008564	NaN	0.000000	0.001712	0.001703	28.0829	0.098980	0.001961	50.4796	145.141	-166.191	0.015294	0.421210	-0.718871	-0.720126	-0.008564	50.4796	-0.718744	-3.526522E+9	2.428558E-12	NaN
651	1.000000	0.432494	7.37142e+06	-44539.1	1005.82	-29775.5	0.000000	0.000000	6.432908	-0.022347	NaN	0.000000	0.001693	0.001698	28.0831	0.109209	0.002000	54.6032	12.0997	15.9724	-0.122254	0.431115	-0.708842	-0.710221	-0.022347	54.6032	-0.708535	-2.558945E+9	8.732979E-12	NaN
651	1.000000	0.442477	7.37142e+06	-44539.1	1005.82	-29775.5	0.000000	0.000000	6.442894	0.033461	NaN	0.000000	0.001724	0.001744	28.0829	0.026901	0.001918	14.024	-71.7908	-167.448	0.031859	0.441209	-0.698859	-0.700128	0.033461	14.024	-0.700649	-1.997066E+9	-1.675526E-11	NaN
651	1.000000	0.452546	7.37142e+06	-44539.1	1005.82	-29775.5	0.000000	0.000000	6.452961	0.001176	NaN	0.000000	0.001688	0.001718	28.083	0.073125	0.002127	34.3862	-108.908	15.5031	-0.048804	0.451135	-0.688791	-0.690201	0.001176	34.3862	-0.688816	-1.376386E+9	-8.547102E-13	NaN
651	1.000000	0.462465	7.37142e+06	-44539.1	1005.82	-29775.5	0.000000	0.000000	6.462882	0.041578	NaN	0.000000	0.001733	0.001705	28.0832	0.043523	0.001996	21.8013	-134.431	-162.522	-0.006036	0.461148	-0.678871	-0.680188	0.041578	21.8013	-0.680302	-1.052767E+9	-3.949385E-11	NaN
651	1.000000	0.472532	7.37142e+06	-44539.1	1005.82	-29775.5	0.000000	0.000000	6.472944	-0.077928	NaN	0.000000	0.001705	0.001736	28.0834	0.018218	0.002098	8.684654	-46.4004	14.8415	-0.007291	0.471115	-0.668805	-0.670222	-0.077928	8.684654	-0.662075	-5.927709E+8	1.314633E-10	NaN
651	1.000000	0.482503	7.37142e+06	-44539.1	1005.82	-29775.5	0.000000	0.000000	6.482918	0.014540	NaN	0.000000	0.001753	0.001731	28.0818	0.101693	0.002070	49.1356	47.9936	-162.962	0.053047	0.481175	-0.658834	-0.660161	0.014540	49.1356	-0.659056	-5.389330E+8	-2.697892E-11	NaN
651	1.000000	0.492539	7.37142e+06	-44539.1	1005.82	-29775.5	0.000000	0.000000	6.492954	-0.002556	NaN	0.000000	0.001669	0.001706	28.0819	0.012980	0.002155	6.024191	-110.656	18.5234	0.031115	0.491149	-0.648797	-0.650187	-0.002556	6.024191	-0.648479	-3.859958E+8	6.622265E-12	NaN
651	1.000000	0.502532	7.37142e+06	-44539.1	1005.82	-29775.5	0.000000	0.000000	6.502947	0.004994	NaN	0.000000	0.001672	0.001705	28.0818	0.002793	0.001997	1.398947	-148.156	-165.712	-0.052731	0.501222	-0.638805	-0.640114	0.004994	1.398947	-0.641482	-3.094727E+8	-1.613643E-11	NaN
651	1.000000	0.512555	7.37142e+06	-44539.1	1005.82	-29775.5	0.000000	0.000000	6.512968	-0.028822	NaN	0.000000	0.001646	0.001722	28.0819	0.012669	0.002044	6.199383	117.422	15.2265	0.000390	0.511159	-0.628782	-0.630178	-0.028822	6.199383	-0.625295	-1.855233E+8	1.553559E-10	NaN
651	1.000000	0.522518	7.37142e+06	-44539.1	1005.82	-29775.5	0.000000	0.000000	6.522930	-0.058268	NaN	0.000000	0.001660	0.001681	28.0819	0.079708	0.002059	38.7139	136.083	-164.657	-0.050430	0.521216	-0.618819	-0.620121	-0.058268	38.7139	-0.617690	-1.458400E+8	3.995358E-10	NaN
651	1.000000	0.532543	7.37142e+06	-44539.1	1005.82	-29775.5	0.000000	0.000000	6.532961	0.059716	NaN	0.000000	0.001644	0.001720	28.0819	0.078411	0.001996	39.2824	-166.444	16.0271	0.084923	0.531173	-0.608793	-0.610163	0.059716	39.2824	-0.609933	-1.140772E+8	-5.234722E-10	NaN
651	1.000000	0.542541	7.37142e+06	-44539.1	1005.82	-29775.5	0.000000	0.000000	6.542956	0.003382	NaN	0.000000	0.001625	0.001702	28.0821	0.070687	0.002034	34.7506	136.861	-162.271	-0.043742	0.541172	-0.598796	-0.600165	0.003382	34.7506	-0.598869	-8.033098E+7	-4.210634E-11	NaN
651	1.000000	0.552553	7.37142e+06	-44539.1	1005.82	-29775.5	0.000000	0.000000	6.552967	-0.019551	NaN	0.000000	0.001619	0.001733	28.082	0.115997	0.001984	58.4547	-130.607	15.0859	-0.006110	0.551221	-0.588784	-0.590115	-0.019551	58.4547	-0.588533	-5.786814E+7	3.378518E-10	NaN
651	1.000000	0.562547	7.37142e+06	-44539.1	1005.82	-29775.5	0.000000	0.000000	6.562962	-0.015015	NaN	0.000000	0.001605	0.001752	28.082	0.011401	0.002039	5.591918	83.6191	-165.739	-0.012918	0.561218	-0.578789	-0.580118	-0.015015	5.591918	-0.576775	-3.983025E+7	3.769847E-10	NaN
651	1.000000	0.572541	7.37142e+06	-44539.1	1005.82	-29775.5	0.000000	0.000000	6.572956	0.003504	NaN	0.000000	0.001631	0.001720	28.0819	0.082066	0.002006	40.9058	8.237919	16.8853	-0.069141	0.571238	-0.568796	-0.570098	0.003504	40.9058	-0.568860	-3.096574E+7	-1.131511E-10	NaN
651	1.000000	0.582582	7.37142e+06	-44539.1	1005.82	-29775.5	0.000000	0.000000	6.582998	0.034130	NaN	0.000000	0.001637	0.001732	28.082	0.086564	0.002108	41.071	49.9611	-166.765	0.054610	0.581255	-0.558755	-0.560082	0.034130	41.071	-0.559378	-2.289656E+7	-1.490617E-9	NaN
651	1.000000	0.592548	7.37142e+06	-44539.1	1005.82	-29775.5	0.000000	0.000000	6.592966	0.059734	NaN	0.000000	0.001617	0.001705	28.0817	0.074880	0.001831	40.8913	-128.093	13.4189	-0.008460	0.591216	-0.548788	-0.550120	0.059734	40.8913	-0.549884	-1.691796E+7	-3.530826E-9	NaN
651	1.000000	0.602543	7.37142e+06	-44539.1	1005.82	-29775.5	0.000000	0.000000	6.602957	-0.010432	NaN	0.000000	0.001622	0.001708	28.0819	0.069385	0.002000	34.6879	179.172	-168.797	-0.049495	0.601252	-0.538794	-0.540084	-0.010432	34.6879	-0.538568	-1.178956E+7	8.848929E-10	NaN
651	1.000000	0.612577	7.37142e+06	-44539.1	1005.82	-29775.5	0.000000	0.000000	6.612993	0.038900	NaN	0.000000	0.001613	0.001687	28.0822	0.086226	0.002141	40.2681	-97.1774	15.2132	-0.005639	0.611211	-0.528760	-0.530126	0.038900	40.2681	-0.529484	-8.81887e+06	-4.411014E-9	NaN
651	1.000000	0.622546	7.37142e+06	-44539.1	1005.82	-29775.5	0.000000	0.000000	6.622962	0.014901	NaN	0.000000	0.001608	0.001709	28.083	0.036921	0.001971	18.7314	-161.347	-166.904	0.027641	0.621259	-0.518790	-0.520078	0.014901	18.7314	-0.519387	-6.38363e+06	-2.334192E-9	NaN
651	1.000000	0.632577	7.37142e+06	-44539.1	1005.82	-29775.5	0.000000	0.000000	6.632994	0.040427	NaN	0.000000	0.001599	0.001665	28.0829	0.085929	0.002080	41.3181	-105.857	12.3939	-0.068106	0.631231	-0.508759	-0.510106	0.040427	41.3181	-0.509493	-4.64896e+06	-8.695846E-9	NaN
651	1.000000	0.642593	7.37142e+06	-44539.1	1005.82	-29775.5	0.000000	0.000000	6.643008	0.001038	NaN	0.000000	0.001673	0.001741	28.0831	0.036141	0.002029	17.8087	-175.56	-167.833	0.009907	0.641308	-0.498743	-0.500029	0.001038	17.8087	-0.498787	-3.29682e+06	-3.148094E-10	NaN
651	1.000000	0.652587	7.37142e+06	-44539.1	1005.82	-29775.5	0.000000	0.000000	6.653000	-0.050479	NaN	0.000000	0.001648	0.001727	28.0832	0.074424	0.002069	35.9696	-4.443665	17.8144	-0.032771	0.651212	-0.488750	-0.490125	-0.050479	35.9696	-0.487697	-2.30783e+06	2.187302E-8	NaN
651	1.000000	0.662593	7.37142e+06	-44539.1	1005.82	-29775.5	0.000000	0.000000	6.663008	0.004626	NaN	0.000000	0.001691	0.001702	28.083	0.058555	0.001994	29.3584	144.367	-163.138	0.000418	0.661251	-0.478743	-0.480085	0.004626	29.3584	-0.478862	-1.73616e+06	-2.664299E-9	NaN
651	1.000000	0.672576	7.37142e+06	-44539.1	1005.82	-29775.5	0.000000	0.000000	6.672990	-0.022131	NaN	0.000000	0.001655	0.001728	28.0832	0.009111	0.001974	4.615261	119.665	13.6594	-0.082108	0.671233	-0.468760	-0.470104	-0.022131	4.615261	-0.465164	-1.1157e+06	1.983611E-8	NaN
651	1.000000	0.682588	7.37142e+06	-44539.1	1005.82	-29775.5	0.000000	0.000000	6.683007	0.112694	NaN	0.000000	0.001668	0.001711	28.0833	0.069125	0.002006	34.4523	-122.084	-163.72	0.109934	0.681267	-0.458749	-0.460070	0.112694	34.4523	-0.461202	-981545	-1.148129E-7	NaN
651	1.000000	0.692592	7.37142e+06	-44539.1	1005.82	-29775.5	0.000000	0.000000	6.693007	0.001445	NaN	0.000000	0.001598	0.001728	28.0834	0.159038	0.002151	73.9282	-2.123662	12.6198	0.006131	0.691277	-0.448745	-0.450060	0.001445	73.9282	-0.448760	-655951	-2.202755E-9	NaN
651	1.000000	0.702616	7.37142e+06	-44539.1	1005.82	-29775.5	0.000000	0.000000	6.703032	0.019982	NaN	0.000000	0.001603	0.001720	28.083	0.097308	0.001958	49.6909	78.231	-164.382	-0.083981	0.701259	-0.438720	-0.440077	0.019982	49.6909	-0.439022	-478143	-4.179126E-8	NaN
651	1.000000	0.712628	7.37142e+06	-44539.1	1005.82	-29775.5	0.000000	0.000000	6.713045	0.033516	NaN	0.000000	0.001560	0.001720	28.0832	0.077364	0.002006	38.5667	83.4222	15.1604	0.015007	0.711290	-0.428708	-0.430046	0.033516	38.5667	-0.429360	-349146	-9.599553E-8	NaN
651	1.000000	0.722606	7.37142e+06	-44539.1	1005.82	-29775.5	0.000000	0.000000	6.723022	0.030273	NaN	0.000000	0.001613	0.001723	28.0832	0.082106	0.001855	44.2552	29.3342	-165.841	-0.048167	0.721330	-0.418731	-0.420006	0.030273	44.2552	-0.419244	-251010	-1.206030E-7	NaN
651	1.000000	0.732629	7.37142e+06	-44539.1	1005.82	-29775.5	0.000000	0.000000	6.733043	-0.033035	NaN	0.000000	0.001616	0.001709	28.0832	0.036990	0.001987	18.6183	26.8637	17.6815	-0.085768	0.731263	-0.408708	-0.410073	-0.033035	18.6183	-0.407377	-170249	1.940395E-7	NaN
651	1.000000	0.742624	7.37142e+06	-44539.1	1005.82	-29775.5	0.000000	0.000000	6.743037	-0.044360	NaN	0.000000	0.001602	0.001738	28.0831	0.064099	0.002044	31.3625	55.1074	-167.687	-0.026109	0.741377	-0.398713	-0.399960	-0.044360	31.3625	-0.397652	-123736	3.585092E-7	NaN
651	1.000000	0.752620	7.37142e+06	-44539.1	1005.82	-29775.5	0.000000	0.000000	6.753038	0.089829	NaN	0.000000	0.001589	0.001772	28.0819	0.049576	0.002035	24.3591	119.751	15.1868	0.166490	0.751275	-0.388717	-0.390061	0.089829	24.3591	-0.391483	-101012	-8.892941E-7	NaN
651	1.000000	0.762646	7.37142e+06	-44539.1	1005.82	-29775.5	0.000000	0.000000	6.763061	0.000336	NaN	0.000000	0.001578	0.001744	28.082	0.038370	0.001917	20.011	115.359	-167.131	0.067457	0.761348	-0.378691	-0.379989	0.000336	20.011	-0.378703	-66263.8	-5.070368E-9	NaN
651	1.000000	0.772620	7.37142e+06	-44539.1	1005.82	-29775.5	0.000000	0.000000	6.773034	-0.013672	NaN	0.000000	0.001568	0.001715	28.0819	0.154753	0.002078	74.4709	-169.928	13.5504	0.062423	0.771229	-0.368717	-0.370108	-0.013672	74.4709	-0.368579	-47386.9	2.885177E-7	NaN
651	1.000000	0.782635	7.37142e+06	-44539.1	1005.82	-29775.5	0.000000	0.000000	6.783048	-0.062342	NaN	0.000000	0.001653	0.001679	28.0822	0.090208	0.002011	44.8591	-56.195	-162.355	-0.048640	0.781306	-0.358701	-0.360031	-0.062342	44.8591	-0.357659	-32960.1	1.891455E-6	NaN
651	1.000000	0.792667	7.37142e+06	-44539.1	1005.82	-29775.5	0.000000	0.000000	6.793080	-0.054162	NaN	0.000000	0.001595	0.001755	28.082	0.057163	0.002019	28.3071	-79.8589	14.5969	0.007957	0.791330	-0.348669	-0.350007	-0.054162	28.3071	-0.347234	-23272.1	2.327338E-6	NaN
651	1.000000	0.802636	7.37142e+06	-44539.1	1005.82	-29775.5	0.000000	0.000000	6.803054	0.075873	NaN	0.000000	0.001640	0.001724	28.0821	0.020244	0.002015	10.048	-136.816	-165.825	0.006548	0.801330	-0.338700	-0.340006	0.075873	10.048	-0.344364	-21139.7	-3.589134E-6	NaN
651	1.000000	0.812650	7.37142e+06	-44539.1	1005.82	-29775.5	0.000000	0.000000	6.813067	0.036212	NaN	0.000000	0.001646	0.001761	28.0817	0.063388	0.001912	33.1608	-42.7158	12.6529	0.001817	0.811263	-0.328686	-0.330073	0.036212	33.1608	-0.329505	-12829.3	-2.822560E-6	NaN
651	1.000000	0.822654	7.37142e+06	-44539.1	1005.82	-29775.5	0.000000	0.000000	6.823072	0.052246	NaN	0.000000	0.001655	0.001754	28.0818	0.107081	0.002042	52.4464	133.25	-165.615	0.001625	0.821343	-0.318682	-0.319994	0.052246	52.4464	-0.319429	-9125.06	-5.725509E-6	NaN
651	1.000000	0.832693	7.37142e+06	-44539.1	1005.82	-29775.5	0.000000	0.000000	6.833106	-0.051110	NaN	0.000000	0.001643	0.001753	28.0818	0.030815	0.002052	15.0201	-130.253	14.729	-0.060481	0.831336	-0.308644	-0.310001	-0.051110	15.0201	-0.306092	-5796.28	8.817653E-6	NaN
651	1.000000	0.842645	7.37142e+06	-44539.1	1005.82	-29775.5	0.000000	0.000000	6.843062	0.046467	NaN	0.000000	0.001677	0.001719	28.0817	0.050847	0.002105	24.1502	-40.7638	-165.942	0.038146	0.841364	-0.298692	-0.299972	0.046467	24.1502	-0.300135	-4727.62	-9.828818E-6	NaN
651	1.000000	0.852704	7.37142e+06	-44539.1	1005.82	-29775.5	0.000000	0.000000	6.853118	-0.021221	NaN	0.000000	0.001676	0.001718	28.0817	0.027852	0.002074	13.4312	108.853	14.1431	0.053821	0.851339	-0.288633	-0.289997	-0.021221	13.4312	-0.287448	-3055.17	6.946008E-6	NaN
651	1.000000	0.862693	7.37142e+06	-44539.1	1005.82	-29775.5	0.000000	0.000000	6.863108	-0.003862	NaN	0.000000	0.001685	0.001750	28.0819	0.040560	0.001956	20.7376	-80.3386	-162.877	-0.010230	0.861440	-0.278643	-0.279897	-0.003862	20.7376	-0.278504	-2240.69	1.723699E-6	NaN
651	1.000000	0.872678	7.37142e+06	-44539.1	1005.82	-29775.5	0.000000	0.000000	6.873096	0.077015	NaN	0.000000	0.001654	0.001752	28.0819	0.060324	0.001981	30.4487	92.3271	13.8071	0.049641	0.871342	-0.268659	-0.269995	0.077015	30.4487	-0.270556	-1698.21	-4.535056E-5	NaN
651	1.000000	0.882690	7.37142e+06	-44539.1	1005.82	-29775.5	0.000000	0.000000	6.883106	0.034535	NaN	0.000000	0.001685	0.001672	28.0822	0.073859	0.002139	34.5216	-125.526	-164.824	0.059772	0.881362	-0.258647	-0.259975	0.034535	34.5216	-0.259397	-1147.3	-3.010122E-5	NaN
651	1.000000	0.892649	7.37142e+06	-44539.1	1005.82	-29775.5	0.000000	0.000000	6.893065	0.032189	NaN	0.000000	0.001653	0.001718	28.0829	0.109522	0.001969	55.6184	-21.1675	13.5931	0.030572	0.891343	-0.248688	-0.249994	0.032189	55.6184	-0.249122	-796.86	-4.039456E-5	NaN
651	1.000000	0.902661	7.37142e+06	-44539.1	1005.82	-29775.5	0.000000	0.000000	6.903074	-0.045886	NaN	0.000000	0.001685	0.001702	28.0832	0.036145	0.001991	18.1543	-122.558	-165.262	0.059642	0.901394	-0.238675	-0.239942	-0.045886	18.1543	-0.236780	-511.881	8.964243E-5	NaN
651	1.000000	0.912690	7.37142e+06	-44539.1	1005.82	-29775.5	0.000000	0.000000	6.913101	-0.079215	NaN	0.000000	0.001632	0.001675	28.0832	0.155078	0.002162	71.7373	42.872	14.7477	0.005247	0.911321	-0.228647	-0.230016	-0.079215	71.7373	-0.227819	-369.853	0.000214	NaN
651	1.000000	0.922653	7.37142e+06	-44539.1	1005.82	-29775.5	0.000000	0.000000	6.923068	0.005285	NaN	0.000000	0.001626	0.001678	28.0834	0.042138	0.001933	21.7962	-143.438	-165.512	0.008177	0.921391	-0.218684	-0.219945	0.005285	21.7962	-0.218866	-266.4	-1.983908E-5	NaN
651	1.000000	0.932734	7.37142e+06	-44539.1	1005.82	-29775.5	0.000000	0.000000	6.933149	-0.020731	NaN	0.000000	0.001698	0.001671	28.0832	0.047061	0.001981	23.7607	-87.8791	16.7	-0.021508	0.931330	-0.208602	-0.210006	-0.020731	23.7607	-0.207948	-177.638	0.000117	NaN
651	1.000000	0.942694	7.37142e+06	-44539.1	1005.82	-29775.5	0.000000	0.000000	6.943110	0.023671	NaN	0.000000	0.001672	0.001672	28.0834	0.023862	0.002029	11.7619	-97.2526	-164.383	0.024261	0.941410	-0.198643	-0.199927	0.023671	11.7619	-0.200152	-132.494	-0.000179	NaN
651	1.000000	0.952691	7.37142e+06	-44539.1	1005.82	-29775.5	0.000000	0.000000	6.953107	0.015869	NaN	0.000000	0.001695	0.001678	28.0831	0.049221	0.002129	23.1187	78.4934	15.6109	0.005856	0.951332	-0.188646	-0.190005	0.015869	23.1187	-0.189160	-87.0949	-0.000182	NaN
651	1.000000	0.962698	7.37142e+06	-44539.1	1005.82	-29775.5	0.000000	0.000000	6.963111	-0.035055	NaN	0.000000	0.001698	0.001725	28.0832	0.032479	0.001889	17.1913	-86.5166	-165.752	-0.073087	0.961397	-0.178639	-0.179939	-0.035055	17.1913	-0.177109	-54.4691	0.000644	NaN
651	1.000000	0.972739	7.37142e+06	-44539.1	1005.82	-29775.5	0.000000	0.000000	6.973154	0.005858	NaN	0.000000	0.001642	0.001733	28.0831	0.189288	0.002030	93.2275	92.1589	15.0967	0.055762	0.971349	-0.168598	-0.169988	0.005858	93.2275	-0.168645	-38.9086	-0.000151	NaN
651	1.000000	0.982700	7.37142e+06	-44539.1	1005.82	-29775.5	0.000000	0.000000	6.983117	0.059938	NaN	0.000000	0.001685	0.001743	28.0833	0.085128	0.002069	41.1397	-118.489	-163.937	0.085864	0.981441	-0.158637	-0.159895	0.059938	41.1397	-0.159730	-27.1131	-0.002211	NaN
651	1.000000	0.992712	7.37142e+06	-44539.1	1005.82	-29775.5	0.000000	0.000000	6.993125	-0.041665	NaN	0.000000	0.001601	0.001712	28.0832	0.066143	0.001932	34.2312	66.2136	9.255319	-0.076599	0.991360	-0.148624	-0.149976	-0.041665	34.2312	-0.147712	-16.4488	0.002533	NaN
651	1.000000	1.002725	7.37142e+06	-44539.1	1005.82	-29775.5	0.000000	0.000000	7.003142	0.035806	NaN	0.000000	0.001618	0.001684	28.0834	0.074491	0.002118	35.1718	-80.0266	-165.195	0.009358	1.001409	-0.138611	-0.139927	0.035806	35.1718	-0.139375	-11.5136	-0.003110	NaN
651	1.000000	1.012716	7.37142e+06	-44539.1	1005.82	-29775.5	0.000000	0.000000	7.013132	0.029213	NaN	0.000000	0.001576	0.001679	28.0833	0.076803	0.002101	36.5571	5.036165	14.1516	-0.046048	1.011323	-0.128621	-0.130013	0.029213	36.5571	-0.129220	-7.359358	-0.003970	NaN
651	1.000000	1.022742	7.37142e+06	-44539.1	1005.82	-29775.5	0.000000	0.000000	7.023157	0.002728	NaN	0.000000	0.001618	0.001740	28.0827	0.056696	0.002257	25.1223	127.625	-162.06	-0.002318	1.021432	-0.118594	-0.119905	0.002728	25.1223	-0.118676	-4.542357	-0.000601	NaN
651	1.000000	1.032733	7.37142e+06	-44539.1	1005.82	-29775.5	0.000000	0.000000	7.033149	0.036768	NaN	0.000000	0.001593	0.001701	28.0819	0.121046	0.001992	60.7593	178.625	16.0691	0.023203	1.031406	-0.108604	-0.109931	0.036768	60.7593	-0.109057	-2.870487	-0.012809	NaN
651	1.000000	1.042747	7.37142e+06	-44539.1	1005.82	-29775.5	0.000000	0.000000	7.043161	-0.009918	NaN	0.000000	0.001577	0.001668	28.0822	0.188227	0.001860	101.188	-4.875323	-162.71	0.057815	1.041404	-0.098590	-0.099932	-0.009918	101.188	-0.098516	-1.693388	0.005857	NaN
651	1.000000	1.052780	7.37142e+06	-44539.1	1005.82	-29775.5	0.000000	0.000000	7.053191	-0.092562	NaN	0.000000	0.001596	0.001726	28.0822	0.084208	0.002016	41.769	154.55	16.8676	-0.044557	1.051426	-0.088556	-0.089910	-0.092562	41.769	-0.086894	-0.912541	0.101433	NaN
651	1.000000	1.062750	7.37142e+06	-44539.1	1005.82	-29775.5	0.000000	0.000000	7.063164	-0.035896	NaN	0.000000	0.001628	0.001703	28.082	0.086235	0.002045	42.178	157.968	-165.532	-0.023358	1.061460	-0.078587	-0.079876	-0.035896	42.178	-0.077948	-0.549573	0.065316	NaN
651	1.000000	1.072788	7.37142e+06	-44539.1	1005.82	-29775.5	0.000000	0.000000	7.073203	-0.018194	NaN	0.000000	0.001621	0.001633	28.082	0.106213	0.001920	55.3293	-30.9495	13.1682	-0.128061	1.071363	-0.068548	-0.069973	-0.018194	55.3293	-0.068302	-0.306988	0.059265	NaN
651	1.000000	1.082774	7.37142e+06	-44539.1	1005.82	-29775.5	0.000000	0.000000	7.083191	0.049840	NaN	0.000000	0.001609	0.001702	28.0821	0.035439	0.002105	16.8371	-76.1362	-163.307	0.089045	1.081500	-0.058563	-0.059837	0.049840	16.8371	-0.060783	-0.189624	-0.262838	NaN
651	1.000000	1.092770	7.37142e+06	-44539.1	1005.82	-29775.5	0.000000	0.000000	7.093186	0.036165	NaN	0.000000	0.001637	0.001710	28.0819	0.036650	0.002041	17.9575	108.422	16.3614	0.068238	1.091366	-0.048567	-0.049970	0.036165	17.9575	-0.050077	-0.091742	-0.394199	NaN
651	1.000000	1.102736	7.37142e+06	-44539.1	1005.82	-29775.5	0.000000	0.000000	7.103150	-0.021048	NaN	0.000000	0.001649	0.001697	28.0819	0.046877	0.001957	23.9483	-84.7445	-166.547	-0.029493	1.101412	-0.038601	-0.039925	-0.021048	23.9483	-0.037942	-0.039184	0.537151	NaN
651	1.000000	1.112742	7.37142e+06	-44539.1	1005.82	-29775.5	0.000000	0.000000	7.113159	0.051471	NaN	0.000000	0.001587	0.001693	28.082	0.090851	0.002039	44.5618	-18.5022	15.3192	0.019770	1.111421	-0.028595	-0.029916	0.051471	44.5618	-0.029461	-0.022233	-2.315001	NaN
651	1.000000	1.122775	7.37142e+06	-44539.1	1005.82	-29775.5	0.000000	0.000000	7.123193	0.090938	NaN	0.000000	0.001572	0.001723	28.082	0.081024	0.002057	39.3959	-9.977351	-161.854	0.043410	1.121457	-0.018562	-0.019879	0.090938	39.3959	-0.020293	-0.012778	-7.116557	NaN
651	1.000000	1.132750	7.37142e+06	-44539.1	1005.82	-29775.5	0.000000	0.000000	7.133166	0.001772	NaN	0.000000	0.001610	0.001675	28.0821	0.041765	0.002018	20.6916	58.4626	17.7427	-0.009138	1.131415	-0.008586	-0.009921	0.001772	20.6916	-0.008650	-0.005611	-0.315877	NaN
651	1.000000	1.142620	7.37142e+06	-44539.1	1005.82	-29775.5	0.000000	0.000000	7.143345	7.548486	NaN	0.000000	0.001616	0.001685	28.0819	7.168102	0.001538	4661.67	6.710302	-168.598	5.649558	1.141463	0.001283	0.000127	7.548486	4661.67	6.875148E-5	5.144706E-5	146723	593793
651	2.000000	1.145911	7.37142e+06	-44539.1	1005.82	-29775.5	0.000000	0.000000	7.146824	12.1217	NaN	0.000000	0.001624	0.001700	28.0822	11.0075	0.001562	7045.77	7.200772	5.341859	11.0031	1.145514	0.004574	0.004178	12.1217	7045.77	0.003284	0.002620	4625.75	125751
651	2.000000	1.148362	7.37142e+06	-44539.1	1005.82	-29775.5	0.000000	0.000000	7.149448	16.3045	NaN	0.000000	0.001634	0.001689	28.0832	14.7619	0.001766	8360.4	7.269006	-174.177	16.4281	1.148115	0.007026	0.006778	16.3045	8360.4	0.005563	0.004653	3504	111977
651	2.000000	1.150836	7.37142e+06	-44539.1	1005.82	-29775.5	0.000000	0.000000	7.152210	23.3359	NaN	0.000000	0.001628	0.001664	28.0834	17.3344	0.001741	9957.87	6.846207	2.988008	21.0154	1.150483	0.009500	0.009146	23.3359	9957.87	0.007742	0.006778	3442.73	110504
651	2.000000	1.153373	7.37142e+06	-44539.1	1005.82	-29775.5	0.000000	0.000000	7.154972	28.8124	NaN	0.000000	0.001629	0.001674	28.0833	19.8058	0.001581	12524	6.061383	-178.247	28.4586	1.153012	0.012036	0.011676	28.8124	12524	0.010311	0.009529	3023.71	117218
651	2.000000	1.155898	7.37142e+06	-44539.1	1005.82	-29775.5	0.000000	0.000000	7.157691	33.5188	NaN	0.000000	0.001618	0.001670	28.0833	23.0631	0.001721	13401.7	4.147474	3.418197	33.6366	1.155503	0.014562	0.014166	33.5188	13401.7	0.012686	0.012322	2720.19	110303
651	2.000000	1.158337	7.37142e+06	-44539.1	1005.82	-29775.5	0.000000	0.000000	7.160372	39.4251	NaN	0.000000	0.001569	0.001703	28.0833	25.7604	0.001822	14141.3	4.534804	-177.035	39.6303	1.158053	0.017000	0.016717	39.4251	14141.3	0.014909	0.015164	2599.85	104918
651	2.000000	1.160811	7.37142e+06	-44539.1	1005.82	-29775.5	0.000000	0.000000	7.163235	48.8876	NaN	0.000000	0.001586	0.001681	28.0834	27.7971	0.001782	15597.3	5.582632	1.834032	46.7481	1.160421	0.019474	0.019085	48.8876	15597.3	0.017123	0.018222	2682.86	105566
651	2.000000	1.163300	7.37142e+06	-44539.1	1005.82	-29775.5	0.000000	0.000000	7.165979	55.0841	NaN	0.000000	0.001608	0.001693	28.0836	29.1154	0.001737	16758.5	5.135107	-178.8	53.0177	1.162928	0.021963	0.021592	55.0841	16758.5	0.019498	0.021759	2531.52	103797
651	2.000000	1.165826	7.37142e+06	-44539.1	1005.82	-29775.5	0.000000	0.000000	7.168759	61.2674	NaN	0.000000	0.001633	0.001658	28.0834	32.3665	0.001836	17624.9	5.786830	-0.348482	59.1587	1.165450	0.024489	0.024114	61.2674	17624.9	0.021882	0.025586	2394.55	100670
651	2.000000	1.168307	7.37142e+06	-44539.1	1005.82	-29775.5	0.000000	0.000000	7.171543	68.6167	NaN	0.000000	0.001633	0.001640	28.0833	34.4374	0.001729	19917.7	2.184193	-177.701	67.5723	1.168023	0.026971	0.026687	68.6167	19917.7	0.024387	0.029909	2294.15	105222
651	2.000000	1.170831	7.37142e+06	-44539.1	1005.82	-29775.5	0.000000	0.000000	7.174486	78.8339	NaN	0.000000	0.001610	0.001694	28.0834	36.0344	0.001636	22031.9	4.575734	-0.737189	76.4381	1.170470	0.029494	0.029133	78.8339	22031.9	0.026811	0.034392	2292.19	108541
651	2.000000	1.173290	7.37142e+06	-44539.1	1005.82	-29775.5	0.000000	0.000000	7.177227	85.6789	NaN	0.000000	0.001617	0.001649	28.0836	38.9369	0.001788	21779.1	4.602641	179.326	83.7792	1.172979	0.031954	0.031642	85.6789	21779.1	0.029003	0.038703	2213.76	101144
651	2.000000	1.175768	7.37142e+06	-44539.1	1005.82	-29775.5	0.000000	0.000000	7.180064	94.4197	NaN	0.000000	0.001606	0.001636	28.0834	41.7155	0.001886	22116.9	7.887937	-3.969188	92.5929	1.175440	0.034432	0.034103	94.4197	22116.9	0.031230	0.043331	2179.02	97072.7
651	2.000000	1.178287	7.37142e+06	-44539.1	1005.82	-29775.5	0.000000	0.000000	7.183033	105.36	NaN	0.000000	0.001605	0.001690	28.0834	43.5887	0.001739	25067.4	3.421319	178.488	105.946	1.178077	0.036951	0.036740	105.36	25067.4	0.033799	0.048986	2150.85	103478
651	2.000000	1.180824	7.37142e+06	-44539.1	1005.82	-29775.5	0.000000	0.000000	7.186094	118.107	NaN	0.000000	0.001588	0.001664	28.0833	46.2665	0.001832	25260.3	7.591981	-4.734933	116.447	1.180406	0.039487	0.039070	118.107	25260.3	0.035981	0.054054	2184.98	99265.2
651	2.000000	1.183315	7.37142e+06	-44539.1	1005.82	-29775.5	0.000000	0.000000	7.188956	127.119	NaN	0.000000	0.001611	0.001691	28.0821	48.2589	0.001755	27498.8	6.152520	175.164	126.923	1.183026	0.041979	0.041690	127.119	27498.8	0.038512	0.060239	2110.26	102365
651	2.000000	1.185801	7.37142e+06	-44539.1	1005.82	-29775.5	0.000000	0.000000	7.191976	140.123	NaN	0.000000	0.001551	0.001694	28.0818	50.2254	0.001832	27418	3.454077	-1.580629	138.703	1.185413	0.044465	0.044076	140.123	27418	0.040632	0.065671	2133.7	97750.8
651	2.000000	1.188263	7.37142e+06	-44539.1	1005.82	-29775.5	0.000000	0.000000	7.194630	144.8	NaN	0.000000	0.001570	0.001689	28.0818	52.8715	0.001762	30011.5	4.098451	175.884	143.312	1.188127	0.046927	0.046791	144.8	30011.5	0.043308	0.072857	1987.44	101584
651	2.000000	1.190806	7.37142e+06	-44539.1	1005.82	-29775.5	0.000000	0.000000	7.197968	164.136	NaN	0.000000	0.001633	0.001691	28.0818	54.5204	0.001801	30269.1	6.886907	-5.557138	160.894	1.190393	0.049470	0.049057	164.136	30269.1	0.045403	0.078736	2084.64	98556.7
651	2.000000	1.193276	7.37142e+06	-44539.1	1005.82	-29775.5	0.000000	0.000000	7.200731	171.28	NaN	0.000000	0.001584	0.001684	28.0821	56.7183	0.001695	33467.3	2.196172	177.738	170.303	1.193105	0.051939	0.051768	171.28	33467.3	0.048101	0.086634	1977.06	103885
651	2.000000	1.195705	7.37142e+06	-44539.1	1005.82	-29775.5	0.000000	0.000000	7.203856	188.204	NaN	0.000000	0.001574	0.001687	28.0818	59.2159	0.001768	33495.6	0.705479	-0.997082	182.587	1.195396	0.054368	0.054060	188.204	33495.6	0.050154	0.092891	2026.07	100409
651	2.000000	1.198280	7.37142e+06	-44539.1	1005.82	-29775.5	0.000000	0.000000	7.206791	196.946	NaN	0.000000	0.001616	0.001675	28.0818	62.388	0.001717	36331.8	4.086063	175.4	197.132	1.197946	0.056944	0.056609	196.946	36331.8	0.052878	0.101516	1940.05	104182
651	2.000000	1.200778	7.37142e+06	-44539.1	1005.82	-29775.5	0.000000	0.000000	7.209916	212.229	NaN	0.000000	0.001596	0.001650	28.0818	64.8833	0.001909	33987.7	6.646112	-6.325750	208.833	1.200338	0.059441	0.059001	212.229	33987.7	0.054758	0.107685	1970.84	94627.4
651	2.000000	1.203343	7.37142e+06	-44539.1	1005.82	-29775.5	0.000000	0.000000	7.212745	218.643	NaN	0.000000	0.001588	0.001697	28.082	67.4413	0.002004	33649.6	6.031096	174.266	223.91	1.202951	0.062006	0.061614	218.643	33649.6	0.057133	0.115728	1889.28	90372
651	2.000000	1.205736	7.37142e+06	-44539.1	1005.82	-29775.5	0.000000	0.000000	7.216006	239.745	NaN	0.000000	0.001588	0.001707	28.0818	69.0264	0.001907	36198.4	7.772848	-7.501649	234.583	1.205409	0.064400	0.064072	239.745	36198.4	0.059433	0.123782	1936.84	94001.5
651	2.000000	1.208254	7.37142e+06	-44539.1	1005.82	-29775.5	0.000000	0.000000	7.219145	254.864	NaN	0.000000	0.001601	0.001705	28.0816	70.8922	0.001835	38639.1	6.502584	172.387	255.46	1.207936	0.066918	0.066599	254.864	38639.1	0.061971	0.132970	1916.71	96810.9
651	2.000000	1.210768	7.37142e+06	-44539.1	1005.82	-29775.5	0.000000	0.000000	7.222158	267.004	NaN	0.000000	0.001588	0.001687	28.082	70.9912	0.001794	39565.5	1.301097	-2.660987	265.086	1.210487	0.069431	0.069150	267.004	39565.5	0.064370	0.141943	1881.07	95947.3
651	2.000000	1.213187	7.37142e+06	-44539.1	1005.82	-29775.5	0.000000	0.000000	7.225327	285.245	NaN	0.000000	0.001559	0.001669	28.0817	74.0737	0.001817	40775.5	4.787368	173.763	281.553	1.212877	0.071850	0.071541	285.245	40775.5	0.066604	0.150548	1894.71	96014.1
651	2.000000	1.215701	7.37142e+06	-44539.1	1005.82	-29775.5	0.000000	0.000000	7.228420	299.321	NaN	0.000000	0.001576	0.001690	28.0825	76.5502	0.001769	43283.6	5.424833	-7.037376	294.533	1.215310	0.074365	0.073973	299.321	43283.6	0.069178	0.160762	1861.89	98629.2
651	2.000000	1.218223	7.37142e+06	-44539.1	1005.82	-29775.5	0.000000	0.000000	7.231555	314.228	NaN	0.000000	0.001628	0.001700	28.0828	79.2217	0.001809	43798.2	1.604998	176.095	311.995	1.217928	0.076887	0.076591	314.228	43798.2	0.071506	0.170268	1845.49	96975.7
651	2.000000	1.220763	7.37142e+06	-44539.1	1005.82	-29775.5	0.000000	0.000000	7.234858	332.809	NaN	0.000000	0.001602	0.001715	28.0833	80.1751	0.001724	46496.6	1.453702	-3.520949	330.55	1.220380	0.079427	0.079044	332.809	46496.6	0.074058	0.180988	1838.85	99855
651	2.000000	1.223341	7.37142e+06	-44539.1	1005.82	-29775.5	0.000000	0.000000	7.237850	342.888	NaN	0.000000	0.001565	0.001714	28.083	83.9687	0.001718	48875.9	6.942567	169.873	349.18	1.223028	0.082004	0.081691	342.888	48875.9	0.076743	0.192593	1780.38	101753
651	2.000000	1.225649	7.37142e+06	-44539.1	1005.82	-29775.5	0.000000	0.000000	7.240807	358.682	NaN	0.000000	0.001589	0.001715	28.083	86.2196	0.001823	47306.8	4.632531	-7.426577	351.003	1.225374	0.084312	0.084038	358.682	47306.8	0.078626	0.200935	1785.07	96420.4
651	2.000000	1.228268	7.37142e+06	-44539.1	1005.82	-29775.5	0.000000	0.000000	7.243897	370.114	NaN	0.000000	0.001620	0.001668	28.0832	88.0033	0.001706	51598	1.361840	175.037	371.473	1.228134	0.086931	0.086798	370.114	51598	0.081552	0.214227	1727.67	101852
651	2.000000	1.230727	7.37142e+06	-44539.1	1005.82	-29775.5	0.000000	0.000000	7.247809	405.458	NaN	0.000000	0.001670	0.001725	28.0834	90.2802	0.001796	50274.7	3.920101	-6.539244	402.28	1.230386	0.089391	0.089049	405.458	50274.7	0.083342	0.222557	1821.82	97364.7
651	2.000000	1.233293	7.37142e+06	-44539.1	1005.82	-29775.5	0.000000	0.000000	7.250983	420.276	NaN	0.000000	0.001593	0.001718	28.0831	93.5809	0.001844	50752.9	6.671446	170.344	421.782	1.232864	0.091956	0.091527	420.276	50752.9	0.085746	0.233973	1796.26	95863.1
651	2.000000	1.235751	7.37142e+06	-44539.1	1005.82	-29775.5	0.000000	0.000000	7.254021	434.383	NaN	0.000000	0.001621	0.001681	28.0831	96.0512	0.001840	52209.8	5.500270	-8.404718	434.298	1.235317	0.094414	0.093981	434.383	52209.8	0.088174	0.245775	1767.4	96218
651	2.000000	1.238192	7.37142e+06	-44539.1	1005.82	-29775.5	0.000000	0.000000	7.257230	453.049	NaN	0.000000	0.001624	0.001726	28.0834	97.6634	0.001710	57108.4	2.909906	172.873	450.896	1.238053	0.096856	0.096717	453.049	57108.4	0.090906	0.259379	1746.67	102449
651	2.000000	1.240638	7.37142e+06	-44539.1	1005.82	-29775.5	0.000000	0.000000	7.260856	481.768	NaN	0.000000	0.001580	0.001707	28.0834	99.8071	0.001758	56764.6	4.845576	-9.076594	472.393	1.240321	0.099301	0.098985	481.768	56764.6	0.092936	0.269708	1786.26	99862.8
651	2.000000	1.242274	7.37142e+06	-44539.1	1005.82	-29775.5	0.000000	0.000000	7.262802	489.288	NaN	0.000000	0.001532	0.001724	28.0832	101.08	0.001651	61226.5	2.775756	172.866	492.219	1.241993	0.100938	0.100657	489.288	61226.5	0.094944	0.280113	1746.75	105693