File: remote_trans/data/nanoindenter/0828-1/data/Data_2025-08-06,11h17m57s/2025-07-22_16-23-58_1_1077.txt
2025-07-22, 16:23:58, 1
Index	Phase	Displacement	Time	Pos X	Pos Y	Pos Z	Rot A	Rot B	Piezo Z	Force A	Force B	Gripper	Voltage A	Voltage B	Temperature	Amplitude force	Amplitude pos	Stiffness	Phase shift	Phase excitation	Force A raw	Displacement raw	HMax	HMax raw	Real Force	Real Stiffness	Contact Depth	Area	Hardness	Reduced Mod.
[#]	[#]	[um]	[s]	[um]	[um]	[um]	[m°]	[m°]	[um]	[uN]	[uN]	[V]	[V]	[V]	[°C]	[uN]	[um]	[N/m]	[°]	[°]	[uN]	[um]	[um]	[um]	[uN]	[N/m]	[um]	[um^2]	[MPa]	[MPa]
1077	1.000000	0.002112	7.37558e+06	-53989.1	1055.82	-29744.7	0.000000	0.000000	6.002805	-0.015934	NaN	0.000000	0.001611	0.001674	28.0832	0.057754	0.000934	61.8579	-25.7127	-164.406	0.113367	0.000829	-1.156668	-1.157951	-0.015934	61.8579	-1.156475	-2.868248E+15	5.555413E-18	NaN
1077	1.000000	0.012153	7.37558e+06	-53989.1	1055.82	-29744.7	0.000000	0.000000	6.012847	0.018291	NaN	0.000000	0.001601	0.001660	28.0839	0.046864	0.001220	38.4007	177.858	18.9281	-0.058358	0.010682	-1.146627	-1.148098	0.018291	38.4007	-1.146984	-2.139861E+15	-8.547812E-18	NaN
1077	1.000000	0.022068	7.37558e+06	-53989.1	1055.82	-29744.7	0.000000	0.000000	6.022762	0.004598	NaN	0.000000	0.001598	0.001637	28.0835	0.056930	0.001702	33.4402	101.365	-164.166	0.014544	0.020744	-1.136711	-1.138035	0.004598	33.4402	-1.136814	-1.563198E+15	-2.941634E-18	NaN
1077	1.000000	0.032059	7.37558e+06	-53989.1	1055.82	-29744.7	0.000000	0.000000	6.032753	0.006213	NaN	0.000000	0.001607	0.001661	28.0838	0.068760	0.001842	37.3295	86.5854	13.4679	0.027961	0.030707	-1.126721	-1.128073	0.006213	37.3295	-1.126846	-1.148971E+15	-5.407146E-18	NaN
1077	1.000000	0.042070	7.37558e+06	-53989.1	1055.82	-29744.6	0.000000	0.000000	6.042764	0.014255	NaN	0.000000	0.001645	0.001691	28.0836	0.068716	0.002067	33.242	72.146	-167.076	-0.047612	0.040757	-1.116710	-1.118022	0.014255	33.242	-1.117031	-8.484751E+14	-1.680021E-17	NaN
1077	1.000000	0.052055	7.37558e+06	-53989.1	1055.82	-29744.6	0.000000	0.000000	6.052749	-0.011221	NaN	0.000000	0.001634	0.001668	28.0841	0.057453	0.001987	28.911	-135.166	14.1765	0.030358	0.050689	-1.106724	-1.108090	-0.011221	28.911	-1.106433	-6.115267E+14	1.834957E-17	NaN
1077	1.000000	0.062059	7.37558e+06	-53989.1	1055.82	-29744.6	0.000000	0.000000	6.062755	0.040311	NaN	0.000000	0.001646	0.001650	28.0836	0.009402	0.001985	4.736311	151.213	-165.498	0.022295	0.060744	-1.096720	-1.098036	0.040311	4.736311	-1.103103	-5.517300E+14	-7.306242E-17	NaN
1077	1.000000	0.072058	7.37558e+06	-53989.1	1055.82	-29744.6	0.000000	0.000000	6.072754	0.059545	NaN	0.000000	0.001671	0.001658	28.0838	0.053292	0.002041	26.1153	92.4391	12.839	0.065852	0.070723	-1.086722	-1.088057	0.059545	26.1153	-1.088432	-3.505516E+14	-1.698597E-16	NaN
1077	1.000000	0.082035	7.37558e+06	-53989.1	1055.82	-29744.6	0.000000	0.000000	6.082731	0.036047	NaN	0.000000	0.001631	0.001675	28.0835	0.153950	0.002115	72.7847	-2.096789	-162.323	0.042835	0.080782	-1.076744	-1.077997	0.036047	72.7847	-1.077115	-2.470439E+14	-1.459113E-16	NaN
1077	1.000000	0.092073	7.37559e+06	-53989.1	1055.82	-29744.6	0.000000	0.000000	6.092768	0.036157	NaN	0.000000	0.001657	0.001678	28.0839	0.094334	0.002061	45.7676	-40.278	14.9039	0.018712	0.090676	-1.066707	-1.068104	0.036157	45.7676	-1.067299	-1.823498E+14	-1.982816E-16	NaN
1077	1.000000	0.102079	7.37559e+06	-53989.1	1055.82	-29744.6	0.000000	0.000000	6.102771	-0.045836	NaN	0.000000	0.001596	0.001668	28.0839	0.025535	0.002003	12.7513	95.3567	-163.625	-0.003260	0.100716	-1.056700	-1.058063	-0.045836	12.7513	-1.054004	-1.208476E+14	3.792909E-16	NaN
1077	1.000000	0.112103	7.37559e+06	-53989.1	1055.82	-29744.6	0.000000	0.000000	6.112794	-0.060072	NaN	0.000000	0.001646	0.001639	28.0837	0.116042	0.001910	60.7671	-102.216	18.1934	0.009276	0.110729	-1.046677	-1.048050	-0.060072	60.7671	-1.045935	-9.413899E+13	6.381168E-16	NaN
1077	1.000000	0.122068	7.37559e+06	-53989.1	1055.82	-29744.6	0.000000	0.000000	6.122764	0.039450	NaN	0.000000	0.001623	0.001657	28.084	0.100512	0.001997	50.3401	159.648	-164.14	0.134042	0.120754	-1.036711	-1.038025	0.039450	50.3401	-1.037299	-7.205189E+13	-5.475217E-16	NaN
1077	1.000000	0.132095	7.37559e+06	-53989.1	1055.82	-29744.6	0.000000	0.000000	6.132790	0.031438	NaN	0.000000	0.001599	0.001677	28.0833	0.116513	0.002123	54.8896	-139.342	17.1879	0.025681	0.130767	-1.026685	-1.028012	0.031438	54.8896	-1.027114	-5.256107E+13	-5.981208E-16	NaN
1077	1.000000	0.142130	7.37559e+06	-53989.1	1055.82	-29744.6	0.000000	0.000000	6.142825	0.023295	NaN	0.000000	0.001597	0.001624	28.0826	0.092123	0.001960	47.0109	81.2993	-165.969	-0.022438	0.140780	-1.016650	-1.017999	0.023295	47.0109	-1.017021	-3.844774E+13	-6.058997E-16	NaN
1077	1.000000	0.152111	7.37559e+06	-53989.1	1055.82	-29744.6	0.000000	0.000000	6.152804	-0.022703	NaN	0.000000	0.001609	0.001630	28.0823	0.043256	0.001877	23.0412	35.3454	17.9779	-0.057185	0.150724	-1.006669	-1.008056	-0.022703	23.0412	-1.005930	-2.726445E+13	8.326926E-16	NaN
1077	1.000000	0.162076	7.37559e+06	-53989.1	1055.82	-29744.6	0.000000	0.000000	6.162772	0.056673	NaN	0.000000	0.001584	0.001673	28.0824	0.035541	0.002026	17.5442	-142.211	-162.716	0.061291	0.160767	-0.996704	-0.998012	0.056673	17.5442	-0.999126	-2.208047E+13	-2.566635E-15	NaN
1077	1.000000	0.172130	7.37559e+06	-53989.1	1055.82	-29744.6	0.000000	0.000000	6.172822	-0.046529	NaN	0.000000	0.001574	0.001625	28.0825	0.050268	0.002092	24.0246	19.3725	14.11	-0.010567	0.170744	-0.986650	-0.988035	-0.046529	24.0246	-0.985197	-1.433575E+13	3.245629E-15	NaN
1077	1.000000	0.182082	7.37559e+06	-53989.1	1055.82	-29744.6	0.000000	0.000000	6.182778	0.056867	NaN	0.000000	0.001642	0.001660	28.0826	0.075417	0.002112	35.7007	-138.49	-162.312	-0.002083	0.180809	-0.976698	-0.977970	0.056867	35.7007	-0.977892	-1.142915E+13	-4.975620E-15	NaN
1077	1.000000	0.192108	7.37559e+06	-53989.1	1055.82	-29744.6	0.000000	0.000000	6.192801	-0.020627	NaN	0.000000	0.001626	0.001696	28.0826	0.021488	0.001914	11.2285	-136.683	15.9773	-0.085581	0.190763	-0.966671	-0.968016	-0.020627	11.2285	-0.965294	-7.730882E+12	2.668074E-15	NaN
1077	1.000000	0.202126	7.37559e+06	-53989.1	1055.82	-29744.6	0.000000	0.000000	6.202820	0.010231	NaN	0.000000	0.001645	0.001681	28.0824	0.068346	0.001968	34.7259	-65.9743	-167.79	-0.040786	0.200870	-0.956654	-0.957909	0.010231	34.7259	-0.956875	-5.952932E+12	-1.718640E-15	NaN
1077	1.000000	0.212106	7.37559e+06	-53989.1	1055.82	-29744.6	0.000000	0.000000	6.212802	0.056995	NaN	0.000000	0.001605	0.001705	28.0826	0.039710	0.001871	21.2274	92.085	17.3159	0.096587	0.210797	-0.946674	-0.947982	0.056995	21.2274	-0.948688	-4.616654E+12	-1.234562E-14	NaN
1077	1.000000	0.222133	7.37559e+06	-53989.1	1055.82	-29744.6	0.000000	0.000000	6.222833	0.144613	NaN	0.000000	0.001621	0.001682	28.0824	0.124854	0.001981	63.0383	104.26	-165.999	0.146039	0.220806	-0.936646	-0.937974	0.144613	63.0383	-0.938367	-3.350461E+12	-4.316207E-14	NaN
1077	1.000000	0.232124	7.37559e+06	-53989.1	1055.82	-29744.6	0.000000	0.000000	6.232818	0.020569	NaN	0.000000	0.001603	0.001705	28.0824	0.042497	0.001913	22.2168	179.42	17.2487	-0.013894	0.230768	-0.926656	-0.928011	0.020569	22.2168	-0.927350	-2.379213E+12	-8.645305E-15	NaN
1077	1.000000	0.242126	7.37559e+06	-53989.1	1055.82	-29744.6	0.000000	0.000000	6.242818	-0.068257	NaN	0.000000	0.001611	0.001644	28.0828	0.096135	0.001994	48.214	-146.352	-165.141	0.011398	0.240822	-0.916653	-0.917957	-0.068257	48.214	-0.915591	-1.650723E+12	4.134952E-14	NaN
1077	1.000000	0.252176	7.37559e+06	-53989.1	1055.82	-29744.6	0.000000	0.000000	6.252871	0.025620	NaN	0.000000	0.001660	0.001649	28.083	0.107502	0.001931	55.6773	-65.36	15.3243	-0.070004	0.250806	-0.906604	-0.907973	0.025620	55.6773	-0.906949	-1.261675E+12	-2.030618E-14	NaN
1077	1.000000	0.262129	7.37559e+06	-53989.1	1055.82	-29744.6	0.000000	0.000000	6.262828	0.121432	NaN	0.000000	0.001647	0.001659	28.0824	0.038330	0.002086	18.3744	122.585	-163.609	0.049483	0.260817	-0.896650	-0.897962	0.121432	18.3744	-0.901607	-1.068513E+12	-1.136462E-13	NaN
1077	1.000000	0.272155	7.37559e+06	-53989.1	1055.82	-29744.6	0.000000	0.000000	6.272851	0.047363	NaN	0.000000	0.001666	0.001656	28.0824	0.051561	0.002066	24.9526	-31.4735	15.9678	0.001214	0.270756	-0.886625	-0.888023	0.047363	24.9526	-0.888048	-7.006958E+11	-6.759402E-14	NaN
1077	1.000000	0.282144	7.37559e+06	-53989.1	1055.82	-29744.6	0.000000	0.000000	6.282839	0.027342	NaN	0.000000	0.001656	0.001641	28.0838	0.069523	0.002038	34.1178	-3.222598	-163.147	-0.016075	0.280843	-0.876635	-0.877936	0.027342	34.1178	-0.877236	-5.004158E+11	-5.463864E-14	NaN
1077	1.000000	0.292144	7.37559e+06	-53989.1	1055.82	-29744.6	0.000000	0.000000	6.292840	0.038844	NaN	0.000000	0.001612	0.001655	28.0837	0.033613	0.001985	16.9353	8.769220	13.3057	0.023774	0.290780	-0.866635	-0.867999	0.038844	16.9353	-0.868356	-3.794854E+11	-1.023590E-13	NaN
1077	1.000000	0.302163	7.37559e+06	-53989.1	1055.82	-29744.6	0.000000	0.000000	6.302857	0.004183	NaN	0.000000	0.001546	0.001657	28.084	0.028564	0.002019	14.1443	117.702	-162.773	0.002682	0.300878	-0.856616	-0.857901	0.004183	14.1443	-0.856838	-2.650468E+11	-1.578117E-14	NaN
1077	1.000000	0.312171	7.37559e+06	-53989.1	1055.82	-29744.6	0.000000	0.000000	6.312863	-0.040838	NaN	0.000000	0.001569	0.001656	28.0836	0.101488	0.001976	51.3524	138.692	14.5535	-0.058478	0.310769	-0.846609	-0.848010	-0.040838	51.3524	-0.846012	-1.891172E+11	2.159409E-13	NaN
1077	1.000000	0.322189	7.37559e+06	-53989.1	1055.82	-29744.6	0.000000	0.000000	6.322885	0.064515	NaN	0.000000	0.001584	0.001672	28.0842	0.076796	0.002073	37.0431	87.975	-164.949	0.069171	0.320849	-0.836591	-0.837930	0.064515	37.0431	-0.837897	-1.468256E+11	-4.393972E-13	NaN
1077	1.000000	0.332175	7.37559e+06	-53989.1	1055.82	-29744.6	0.000000	0.000000	6.332871	0.047076	NaN	0.000000	0.001562	0.001647	28.0834	0.084309	0.002062	40.8774	47.4379	10.3006	0.075310	0.330785	-0.826605	-0.827995	0.047076	40.8774	-0.827468	-1.060398E+11	-4.439445E-13	NaN
1077	1.000000	0.342196	7.37559e+06	-53989.1	1055.82	-29744.6	0.000000	0.000000	6.342890	0.008653	NaN	0.000000	0.001572	0.001677	28.0842	0.055487	0.002056	26.9843	35.1214	-165.965	0.070985	0.340941	-0.816583	-0.817838	0.008653	26.9843	-0.816824	-7.605667E+10	-1.137664E-13	NaN
1077	1.000000	0.352189	7.37559e+06	-53989.1	1055.82	-29744.6	0.000000	0.000000	6.352887	0.099812	NaN	0.000000	0.001556	0.001686	28.0836	0.039272	0.002036	19.2899	77.4591	12.077	-0.042402	0.350829	-0.806591	-0.807951	0.099812	19.2899	-0.810471	-6.236880E+10	-1.600352E-12	NaN
1077	1.000000	0.362198	7.37559e+06	-53989.1	1055.82	-29744.6	0.000000	0.000000	6.362893	0.012651	NaN	0.000000	0.001570	0.001668	28.084	0.026719	0.001997	13.3778	-115.616	-163.52	0.003062	0.360860	-0.796581	-0.797919	0.012651	13.3778	-0.797290	-4.131212E+10	-3.062333E-13	NaN
1077	1.000000	0.372177	7.37559e+06	-53989.1	1055.82	-29744.6	0.000000	0.000000	6.372871	0.004362	NaN	0.000000	0.001587	0.001654	28.0836	0.058053	0.002148	27.0299	118.701	14.2964	0.073713	0.370881	-0.786603	-0.787898	0.004362	27.0299	-0.786724	-2.968815E+10	-1.469247E-13	NaN
1077	1.000000	0.382192	7.37559e+06	-53989.1	1055.82	-29744.6	0.000000	0.000000	6.382887	0.016400	NaN	0.000000	0.001571	0.001626	28.084	0.094694	0.001964	48.2243	-113.59	-163.929	0.001142	0.380938	-0.776587	-0.777841	0.016400	48.2243	-0.776842	-2.179304E+10	-7.525484E-13	NaN
1077	1.000000	0.392199	7.37559e+06	-53989.1	1055.82	-29744.6	0.000000	0.000000	6.392896	0.068389	NaN	0.000000	0.001568	0.001612	28.0838	0.049280	0.001912	25.7697	171.117	12.3717	0.058049	0.390818	-0.766581	-0.767961	0.068389	25.7697	-0.768571	-1.682187E+10	-4.065467E-12	NaN
1077	1.000000	0.402224	7.37559e+06	-53989.1	1055.82	-29744.6	0.000000	0.000000	6.402918	0.010564	NaN	0.000000	0.001527	0.001637	28.0842	0.070417	0.001996	35.2727	-165.427	-165.538	-0.011632	0.400879	-0.756556	-0.757900	0.010564	35.2727	-0.756780	-1.162774E+10	-9.085362E-13	NaN
1077	1.000000	0.412198	7.37559e+06	-53989.1	1055.82	-29744.6	0.000000	0.000000	6.412891	-0.019369	NaN	0.000000	0.001563	0.001652	28.083	0.079947	0.002043	39.1281	-167.957	14.741	-0.060437	0.410806	-0.746582	-0.747974	-0.019369	39.1281	-0.746210	-8.348891E+9	2.319974E-12	NaN
1077	1.000000	0.422206	7.37559e+06	-53989.1	1055.82	-29744.6	0.000000	0.000000	6.422901	0.016934	NaN	0.000000	0.001587	0.001670	28.0826	0.049652	0.001909	26.0029	130.112	-164.186	0.049913	0.420946	-0.736573	-0.737833	0.016934	26.0029	-0.737062	-6.266577E+9	-2.702246E-12	NaN
1077	1.000000	0.432201	7.37559e+06	-53989.1	1055.82	-29744.6	0.000000	0.000000	6.432895	0.015645	NaN	0.000000	0.001600	0.001632	28.0824	0.048655	0.002090	23.2778	96.0715	14.6173	0.056128	0.430844	-0.726579	-0.727935	0.015645	23.2778	-0.727083	-4.581905E+9	-3.414474E-12	NaN
1077	1.000000	0.442193	7.37559e+06	-53989.1	1055.82	-29744.6	0.000000	0.000000	6.442885	-0.033622	NaN	0.000000	0.001579	0.001619	28.0825	0.107946	0.001979	54.5441	-133.328	-164.734	0.023017	0.440861	-0.716587	-0.717919	-0.033622	54.5441	-0.716124	-3.247961E+9	1.035181E-11	NaN
1077	1.000000	0.452235	7.37559e+06	-53989.1	1055.82	-29744.6	0.000000	0.000000	6.452930	0.040280	NaN	0.000000	0.001611	0.001623	28.0825	0.086912	0.002022	42.9755	69.6403	13.2796	-0.009953	0.450857	-0.706545	-0.707922	0.040280	42.9755	-0.707247	-2.457431E+9	-1.639115E-11	NaN
1077	1.000000	0.462225	7.37559e+06	-53989.1	1055.82	-29744.6	0.000000	0.000000	6.462919	0.000754	NaN	0.000000	0.001599	0.001633	28.0822	0.082592	0.001946	42.4391	88.591	-164.902	0.000974	0.460953	-0.696555	-0.697826	0.000754	42.4391	-0.696568	-1.756530E+9	-4.292296E-13	NaN
1077	1.000000	0.472215	7.37559e+06	-53989.1	1055.82	-29744.6	0.000000	0.000000	6.472909	0.009054	NaN	0.000000	0.001606	0.001639	28.0825	0.060722	0.001863	32.5872	12.3892	17.3449	0.034743	0.470900	-0.686565	-0.687880	0.009054	32.5872	-0.686773	-1.290666E+9	-7.014777E-12	NaN
1077	1.000000	0.482239	7.37559e+06	-53989.1	1055.82	-29744.6	0.000000	0.000000	6.482931	-0.044570	NaN	0.000000	0.001583	0.001654	28.0823	0.030990	0.002059	15.0514	107.124	-163.307	-0.031704	0.480979	-0.676541	-0.677800	-0.044570	15.0514	-0.674320	-8.719811E+8	5.111313E-11	NaN
1077	1.000000	0.492242	7.37559e+06	-53989.1	1055.82	-29744.6	0.000000	0.000000	6.492936	-0.006923	NaN	0.000000	0.001582	0.001669	28.0826	0.088848	0.002118	41.9429	-164.57	15.2385	0.088718	0.490892	-0.666537	-0.667887	-0.006923	41.9429	-0.666414	-6.796697E+8	1.018556E-11	NaN
1077	1.000000	0.502242	7.37559e+06	-53989.1	1055.82	-29744.6	0.000000	0.000000	6.502936	0.007375	NaN	0.000000	0.001598	0.001657	28.0825	0.047554	0.001749	27.1815	-6.746145	-165.616	-0.023456	0.500911	-0.656537	-0.657869	0.007375	27.1815	-0.656741	-5.009785E+8	-1.472206E-11	NaN
1077	1.000000	0.512261	7.37559e+06	-53989.1	1055.82	-29744.6	0.000000	0.000000	6.512959	0.116030	NaN	0.000000	0.001567	0.001676	28.0827	0.063975	0.001989	32.1661	-152.292	17.5734	0.009660	0.510868	-0.646519	-0.647912	0.116030	32.1661	-0.649224	-3.951844E+8	-2.936108E-10	NaN
1077	1.000000	0.522228	7.37559e+06	-53989.1	1055.82	-29744.6	0.000000	0.000000	6.522922	-0.007293	NaN	0.000000	0.001558	0.001684	28.0827	0.034961	0.001907	18.3341	-143.298	-168.364	-0.012419	0.520923	-0.636551	-0.637856	-0.007293	18.3341	-0.636253	-2.623443E+8	2.780032E-11	NaN
1077	1.000000	0.532237	7.37559e+06	-53989.1	1055.82	-29744.6	0.000000	0.000000	6.532929	-0.030050	NaN	0.000000	0.001559	0.001681	28.0825	0.138518	0.001963	70.5583	-97.616	17.1597	0.037412	0.530970	-0.626543	-0.627809	-0.030050	70.5583	-0.626223	-1.910515E+8	1.572876E-10	NaN
1077	1.000000	0.542260	7.37559e+06	-53989.1	1055.82	-29744.6	0.000000	0.000000	6.542953	-0.019248	NaN	0.000000	0.001584	0.001704	28.0825	0.111280	0.001980	56.2145	67.3932	-163.129	-0.051632	0.540942	-0.616520	-0.617837	-0.019248	56.2145	-0.616263	-1.393980E+8	1.380783E-10	NaN
1077	1.000000	0.552265	7.37559e+06	-53989.1	1055.82	-29744.6	0.000000	0.000000	6.552959	0.013609	NaN	0.000000	0.001580	0.001707	28.0839	0.025686	0.001955	13.1392	100.229	12.1821	0.023444	0.550919	-0.606515	-0.607860	0.013609	13.1392	-0.607291	-1.049162E+8	-1.297105E-10	NaN
1077	1.000000	0.562275	7.37559e+06	-53989.1	1055.82	-29744.6	0.000000	0.000000	6.562971	0.052550	NaN	0.000000	0.001580	0.001688	28.0837	0.072864	0.002025	35.9832	-130.972	-164.908	0.050555	0.560952	-0.596505	-0.597827	0.052550	35.9832	-0.597600	-7.716176E+7	-6.810387E-10	NaN
1077	1.000000	0.572272	7.37559e+06	-53989.1	1055.82	-29744.6	0.000000	0.000000	6.572964	-0.047132	NaN	0.000000	0.001607	0.001696	28.0839	0.029650	0.002064	14.3685	30.2636	15.7575	0.018419	0.570953	-0.586507	-0.587827	-0.047132	14.3685	-0.584047	-5.018473E+7	9.391758E-10	NaN
1077	1.000000	0.582304	7.37559e+06	-53989.1	1055.82	-29744.6	0.000000	0.000000	6.582994	-0.089402	NaN	0.000000	0.001585	0.001634	28.0839	0.131498	0.001949	67.4686	69.9311	-166.642	-0.028248	0.580961	-0.576475	-0.577819	-0.089402	67.4686	-0.575482	-3.822501E+7	2.338828E-9	NaN
1077	1.000000	0.592294	7.37559e+06	-53989.1	1055.82	-29744.6	0.000000	0.000000	6.592989	0.028667	NaN	0.000000	0.001552	0.001641	28.084	0.109562	0.002068	52.9677	-97.371	17.5202	0.048428	0.590930	-0.566485	-0.567849	0.028667	52.9677	-0.566891	-2.908517E+7	-9.856130E-10	NaN
1077	1.000000	0.602320	7.37559e+06	-53989.1	1055.82	-29744.6	0.000000	0.000000	6.603015	0.026393	NaN	0.000000	0.001594	0.001638	28.0839	0.034395	0.001934	17.7822	35.3466	-161.646	0.032878	0.600995	-0.556460	-0.557785	0.026393	17.7822	-0.557573	-2.161707E+7	-1.220923E-9	NaN
1077	1.000000	0.612259	7.37559e+06	-53989.1	1055.82	-29744.6	0.000000	0.000000	6.612954	0.025924	NaN	0.000000	0.001568	0.001635	28.0839	0.061982	0.002041	30.3753	137.015	12.3504	-0.081917	0.610927	-0.546520	-0.547852	0.025924	30.3753	-0.547161	-1.551031E+7	-1.671375E-9	NaN
1077	1.000000	0.622297	7.37559e+06	-53989.1	1055.82	-29744.6	0.000000	0.000000	6.622992	0.028562	NaN	0.000000	0.001585	0.001665	28.084	0.183710	0.001910	96.1585	90.2054	-168.773	0.008605	0.620970	-0.536482	-0.537809	0.028562	96.1585	-0.536705	-1.110827E+7	-2.571249E-9	NaN
1077	1.000000	0.632294	7.37559e+06	-53989.1	1055.82	-29744.6	0.000000	0.000000	6.632988	0.009115	NaN	0.000000	0.001580	0.001639	28.0838	0.108289	0.002044	52.983	41.8841	12.5905	-0.092409	0.630924	-0.526485	-0.527855	0.009115	52.983	-0.526614	-8.04538e+06	-1.132953E-9	NaN
1077	1.000000	0.642293	7.37559e+06	-53989.1	1055.82	-29744.6	0.000000	0.000000	6.642989	0.040429	NaN	0.000000	0.001583	0.001626	28.0835	0.042520	0.001951	21.7954	30.6963	-164.243	0.050604	0.641042	-0.516486	-0.517737	0.040429	21.7954	-0.517877	-6.08235e+06	-6.646978E-9	NaN
1077	1.000000	0.652308	7.37559e+06	-53989.1	1055.82	-29744.6	0.000000	0.000000	6.653005	0.093823	NaN	0.000000	0.001572	0.001665	28.084	0.019871	0.001990	9.987906	-156.916	11.9416	0.034630	0.650909	-0.506472	-0.507870	0.093823	9.987906	-0.513517	-5.28919e+06	-1.773861E-8	NaN
1077	1.000000	0.662333	7.37559e+06	-53989.1	1055.82	-29744.6	0.000000	0.000000	6.663030	0.095913	NaN	0.000000	0.001598	0.001648	28.0838	0.085834	0.002058	41.7101	-89.4448	-165.396	0.068248	0.661054	-0.496447	-0.497725	0.095913	41.7101	-0.498171	-3.23225e+06	-2.967387E-8	NaN
1077	1.000000	0.672284	7.37559e+06	-53989.1	1055.82	-29744.6	0.000000	0.000000	6.672976	-0.044105	NaN	0.000000	0.001613	0.001667	28.0839	0.025430	0.002083	12.2089	-17.8371	12.8736	-0.027052	0.670974	-0.486496	-0.487805	-0.044105	12.2089	-0.483786	-2.03475e+06	2.167609E-8	NaN
1077	1.000000	0.682289	7.37559e+06	-53989.1	1055.82	-29744.6	0.000000	0.000000	6.682983	0.007208	NaN	0.000000	0.001593	0.001638	28.0836	0.036524	0.001912	19.1044	8.442906	-165.646	0.029539	0.681015	-0.476490	-0.477765	0.007208	19.1044	-0.476773	-1.6231e+06	-4.440993E-9	NaN
1077	1.000000	0.692350	7.37559e+06	-53989.1	1055.82	-29744.6	0.000000	0.000000	6.693043	-0.007440	NaN	0.000000	0.001630	0.001674	28.0827	0.093357	0.001935	48.238	103.747	14.8228	0.011416	0.690948	-0.466430	-0.467831	-0.007440	48.238	-0.466314	-1.15796e+06	6.425318E-9	NaN
1077	1.000000	0.702337	7.37559e+06	-53989.1	1055.82	-29744.6	0.000000	0.000000	6.703030	-0.024294	NaN	0.000000	0.001618	0.001693	28.0824	0.128620	0.001912	67.2862	104.505	-165.551	-0.077359	0.700984	-0.456442	-0.457796	-0.024294	67.2862	-0.456172	-834057	2.912785E-8	NaN
1077	1.000000	0.712343	7.37559e+06	-53989.1	1055.82	-29744.6	0.000000	0.000000	6.713036	-0.007785	NaN	0.000000	0.001597	0.001641	28.0826	0.078553	0.002036	38.587	112.18	13.0488	-0.010712	0.710978	-0.446437	-0.447801	-0.007785	38.587	-0.446285	-605353	1.286044E-8	NaN
1077	1.000000	0.722370	7.37559e+06	-53989.1	1055.82	-29744.6	0.000000	0.000000	6.723066	0.046223	NaN	0.000000	0.001583	0.001638	28.0823	0.092091	0.002007	45.8942	-96.4081	-166.389	-0.004647	0.721026	-0.436410	-0.437753	0.046223	45.8942	-0.437165	-450130	-1.026889E-7	NaN
1077	1.000000	0.732346	7.37559e+06	-53989.1	1055.82	-29744.6	0.000000	0.000000	6.733041	0.016567	NaN	0.000000	0.001591	0.001633	28.0826	0.116868	0.001978	59.087	-82.9985	15.587	0.004720	0.730921	-0.426433	-0.427858	0.016567	59.087	-0.426644	-319566	-5.184299E-8	NaN
1077	1.000000	0.742358	7.37559e+06	-53989.1	1055.82	-29744.6	0.000000	0.000000	6.743055	0.082364	NaN	0.000000	0.001565	0.001662	28.0824	0.073426	0.002063	35.5973	-116.561	-165.557	-0.025273	0.741004	-0.416422	-0.417776	0.082364	35.5973	-0.418157	-242253	-3.399933E-7	NaN
1077	1.000000	0.752347	7.37559e+06	-53989.1	1055.82	-29744.6	0.000000	0.000000	6.753043	0.034889	NaN	0.000000	0.001573	0.001650	28.0824	0.068392	0.001989	34.3856	54.0052	14.6745	0.026215	0.750951	-0.406432	-0.407829	0.034889	34.3856	-0.407193	-169227	-2.061642E-7	NaN
1077	1.000000	0.762380	7.37559e+06	-53989.1	1055.82	-29744.6	0.000000	0.000000	6.763074	0.008673	NaN	0.000000	0.001590	0.001640	28.0823	0.070014	0.002029	34.499	51.0257	-163.528	-0.018014	0.761123	-0.396399	-0.397656	0.008673	34.499	-0.396588	-119484	-7.259065E-8	NaN
1077	1.000000	0.772348	7.37559e+06	-53989.1	1055.82	-29744.6	0.000000	0.000000	6.773041	-0.007878	NaN	0.000000	0.001597	0.001631	28.0826	0.076504	0.002071	36.9395	157.018	16.7675	-0.101331	0.770976	-0.386432	-0.387804	-0.007878	36.9395	-0.386272	-85075.4	9.260022E-8	NaN
1077	1.000000	0.782362	7.37559e+06	-53989.1	1055.82	-29744.6	0.000000	0.000000	6.783057	0.014609	NaN	0.000000	0.001553	0.001674	28.0824	0.066834	0.002057	32.4971	22.8177	-167.624	-0.001374	0.781046	-0.376417	-0.377734	0.014609	32.4971	-0.376754	-62127.4	-2.351448E-7	NaN
1077	1.000000	0.792390	7.37559e+06	-53989.1	1055.82	-29744.6	0.000000	0.000000	6.793081	-0.054450	NaN	0.000000	0.001577	0.001625	28.0824	0.143469	0.001963	73.105	125.758	15.8497	0.015745	0.791047	-0.366390	-0.367732	-0.054450	73.105	-0.365831	-43255.8	1.258786E-6	NaN
1077	1.000000	0.802361	7.37559e+06	-53989.1	1055.82	-29744.6	0.000000	0.000000	6.803055	-0.001536	NaN	0.000000	0.001569	0.001616	28.0823	0.025918	0.001981	13.0804	-119.217	-164.91	-0.033340	0.801029	-0.356418	-0.357750	-0.001536	13.0804	-0.356330	-31532.6	4.872723E-8	NaN
1077	1.000000	0.812356	7.37559e+06	-53989.1	1055.82	-29744.6	0.000000	0.000000	6.813049	-0.019299	NaN	0.000000	0.001580	0.001610	28.0825	0.095627	0.002059	46.4407	-95.5568	15.9316	-0.025885	0.811063	-0.346424	-0.347716	-0.019299	46.4407	-0.346112	-22414.5	8.610143E-7	NaN
1077	1.000000	0.822382	7.37559e+06	-53989.1	1055.82	-29744.6	0.000000	0.000000	6.823076	0.018869	NaN	0.000000	0.001587	0.001627	28.0839	0.087639	0.002016	43.4732	6.778397	-166.399	0.072140	0.821099	-0.336398	-0.337680	0.018869	43.4732	-0.336723	-16358.9	-1.153453E-6	NaN
1077	1.000000	0.832386	7.37559e+06	-53989.1	1055.82	-29744.6	0.000000	0.000000	6.833079	-0.032956	NaN	0.000000	0.001624	0.001609	28.0838	0.029398	0.002055	14.3047	-41.2995	13.594	-0.072477	0.831044	-0.326393	-0.327735	-0.032956	14.3047	-0.324665	-10894.8	3.024894E-6	NaN
1077	1.000000	0.842376	7.37559e+06	-53989.1	1055.82	-29744.6	0.000000	0.000000	6.843070	0.022132	NaN	0.000000	0.001606	0.001591	28.0843	0.070808	0.002031	34.8668	45.1856	-166.073	-0.042735	0.841099	-0.316404	-0.317681	0.022132	34.8668	-0.316880	-8369.05	-2.644472E-6	NaN
1077	1.000000	0.852377	7.37559e+06	-53989.1	1055.82	-29744.6	0.000000	0.000000	6.853070	-0.034903	NaN	0.000000	0.001581	0.001571	28.0841	0.069047	0.002133	32.3742	-100.806	17.675	-0.072831	0.851087	-0.306402	-0.307692	-0.034903	32.3742	-0.305594	-5698.56	6.124956E-6	NaN
1077	1.000000	0.862425	7.37559e+06	-53989.1	1055.82	-29744.6	0.000000	0.000000	6.863122	0.064621	NaN	0.000000	0.001572	0.001605	28.0842	0.074481	0.002195	33.9347	68.3423	-164.951	0.022544	0.861108	-0.296354	-0.297671	0.064621	33.9347	-0.297782	-4361.15	-1.481743E-5	NaN
1077	1.000000	0.872385	7.37559e+06	-53989.1	1055.82	-29744.6	0.000000	0.000000	6.873082	0.055349	NaN	0.000000	0.001566	0.001629	28.0837	0.072882	0.001835	39.7071	53.275	19.2768	-0.003051	0.871037	-0.286394	-0.287742	0.055349	39.7071	-0.287439	-3054.27	-1.812181E-5	NaN
1077	1.000000	0.882399	7.37559e+06	-53989.1	1055.82	-29744.6	0.000000	0.000000	6.883094	0.034029	NaN	0.000000	0.001575	0.001592	28.0842	0.099374	0.001957	50.7915	85.2675	-163.877	-0.124509	0.881061	-0.276381	-0.277718	0.034029	50.7915	-0.276883	-2117.84	-1.606773E-5	NaN
1077	1.000000	0.892390	7.37559e+06	-53989.1	1055.82	-29744.6	0.000000	0.000000	6.893084	0.021565	NaN	0.000000	0.001587	0.001652	28.0841	0.023969	0.001915	12.519	-50.2728	13.9852	0.069729	0.891039	-0.266390	-0.267740	0.021565	12.519	-0.267682	-1535.58	-1.404369E-5	NaN
1077	1.000000	0.902412	7.37559e+06	-53989.1	1055.82	-29744.6	0.000000	0.000000	6.903104	-0.043313	NaN	0.000000	0.001587	0.001629	28.084	0.077891	0.001962	39.7077	93.2864	-165.662	-0.055469	0.901109	-0.256368	-0.257670	-0.043313	39.7077	-0.255550	-1001.32	4.325578E-5	NaN
1077	1.000000	0.912379	7.37559e+06	-53989.1	1055.82	-29744.6	0.000000	0.000000	6.913072	-0.019081	NaN	0.000000	0.001571	0.001599	28.0839	0.101381	0.001929	52.5625	-111.111	13.1355	-0.014750	0.911006	-0.246401	-0.247774	-0.019081	52.5625	-0.246128	-716.11	2.664570E-5	NaN
1077	1.000000	0.922395	7.37559e+06	-53989.1	1055.82	-29744.6	0.000000	0.000000	6.923089	-0.007588	NaN	0.000000	0.001536	0.001587	28.0843	0.033871	0.001939	17.4652	-96.4333	-164.982	-0.069014	0.921145	-0.236384	-0.237635	-0.007588	17.4652	-0.236058	-498.719	1.521434E-5	NaN
1077	1.000000	0.932472	7.37559e+06	-53989.1	1055.82	-29744.6	0.000000	0.000000	6.933166	-0.003971	NaN	0.000000	0.001560	0.001581	28.084	0.063258	0.001956	32.3451	128.373	13.2944	-0.080056	0.931012	-0.226307	-0.227768	-0.003971	32.3451	-0.226215	-348.834	1.138409E-5	NaN
1077	1.000000	0.942433	7.37559e+06	-53989.1	1055.82	-29744.6	0.000000	0.000000	6.943127	0.003475	NaN	0.000000	0.001508	0.001596	28.0839	0.069991	0.001996	35.0582	-128.851	-164.857	-0.016501	0.941155	-0.216346	-0.217625	0.003475	35.0582	-0.216420	-243.411	-1.427524E-5	NaN
1077	1.000000	0.952439	7.37559e+06	-53989.1	1055.82	-29744.6	0.000000	0.000000	6.953133	-0.015774	NaN	0.000000	0.001590	0.001604	28.0836	0.105809	0.002065	51.245	-56.1164	13.3391	0.010932	0.951059	-0.206340	-0.207720	-0.015774	51.245	-0.206109	-165.819	9.512890E-5	NaN
1077	1.000000	0.962445	7.37559e+06	-53989.1	1055.82	-29744.6	0.000000	0.000000	6.963138	-0.011419	NaN	0.000000	0.001561	0.001622	28.0831	0.119512	0.002138	55.8983	22.647	-161.226	0.012370	0.961137	-0.196335	-0.197643	-0.011419	55.8983	-0.196181	-113.96	0.000100	NaN
1077	1.000000	0.972410	7.37559e+06	-53989.1	1055.82	-29744.6	0.000000	0.000000	6.973105	0.046151	NaN	0.000000	0.001553	0.001653	28.0828	0.089574	0.001869	47.9179	80.9257	12.6279	0.125336	0.971071	-0.186370	-0.187708	0.046151	47.9179	-0.187092	-80.4132	-0.000574	NaN
1077	1.000000	0.982436	7.37559e+06	-53989.1	1055.82	-29744.6	0.000000	0.000000	6.983129	-0.019334	NaN	0.000000	0.001560	0.001676	28.0829	0.043389	0.002058	21.0832	107.718	-166.156	-0.108519	0.981140	-0.176343	-0.177639	-0.019334	21.0832	-0.175656	-51.4324	0.000376	NaN
1077	1.000000	0.992431	7.37559e+06	-53989.1	1055.82	-29744.6	0.000000	0.000000	6.993124	-0.011194	NaN	0.000000	0.001558	0.001694	28.0828	0.077013	0.001923	40.0481	-162.163	17.0475	-0.035851	0.991026	-0.166348	-0.167754	-0.011194	40.0481	-0.166139	-35.1785	0.000318	NaN
1077	1.000000	1.002441	7.37559e+06	-53989.1	1055.82	-29744.6	0.000000	0.000000	7.003135	0.009608	NaN	0.000000	0.001520	0.001685	28.083	0.057721	0.001997	28.9005	151.465	-163.061	0.067688	1.001103	-0.156339	-0.157677	0.009608	28.9005	-0.156588	-23.8286	-0.000403	NaN
1077	1.000000	1.012442	7.37559e+06	-53989.1	1055.82	-29744.6	0.000000	0.000000	7.013136	0.000116	NaN	0.000000	0.001545	0.001707	28.0828	0.113032	0.001911	59.1599	122.91	16.6252	0.070454	1.011093	-0.146337	-0.147686	0.000116	59.1599	-0.146339	-15.5198	-7.477433E-6	NaN
1077	1.000000	1.022440	7.37559e+06	-53989.1	1055.82	-29744.6	0.000000	0.000000	7.023133	-0.022261	NaN	0.000000	0.001542	0.001709	28.0829	0.079775	0.001903	41.9252	-88.1426	-164.283	-0.006724	1.021116	-0.136339	-0.137663	-0.022261	41.9252	-0.135941	-9.913504	0.002246	NaN
1077	1.000000	1.032469	7.37559e+06	-53989.1	1055.82	-29744.6	0.000000	0.000000	7.033163	-0.013503	NaN	0.000000	0.001563	0.001689	28.0829	0.026907	0.002023	13.3031	-94.849	13.3954	0.003151	1.031115	-0.126310	-0.127664	-0.013503	13.3031	-0.125549	-6.235111	0.002166	NaN
1077	1.000000	1.042478	7.37559e+06	-53989.1	1055.82	-29744.6	0.000000	0.000000	7.043172	-0.004670	NaN	0.000000	0.001561	0.001691	28.0828	0.084673	0.001936	43.7252	148.227	-166.47	-0.045774	1.041142	-0.116302	-0.117637	-0.004670	43.7252	-0.116221	-4.047786	0.001154	NaN
1077	1.000000	1.052468	7.37559e+06	-53989.1	1055.82	-29744.6	0.000000	0.000000	7.053162	-0.004565	NaN	0.000000	0.001564	0.001708	28.083	0.110865	0.002010	55.1632	51.607	13.3566	0.041713	1.051099	-0.106311	-0.107680	-0.004565	55.1632	-0.106249	-2.500764	0.001826	NaN
1077	1.000000	1.062468	7.37559e+06	-53989.1	1055.82	-29744.6	0.000000	0.000000	7.063161	-0.021688	NaN	0.000000	0.001578	0.001699	28.0825	0.094273	0.002128	44.309	16.968	-164.319	-0.001128	1.061202	-0.096312	-0.097577	-0.021688	44.309	-0.095945	-1.482110	0.014633	NaN
1077	1.000000	1.072498	7.37559e+06	-53989.1	1055.82	-29744.6	0.000000	0.000000	7.073194	0.048062	NaN	0.000000	0.001580	0.001722	28.0829	0.079061	0.002074	38.1132	59.7926	12.5269	0.009556	1.071051	-0.086281	-0.087728	0.048062	38.1132	-0.087227	-0.929393	-0.051713	NaN
1077	1.000000	1.082466	7.37559e+06	-53989.1	1055.82	-29744.6	0.000000	0.000000	7.083160	0.011518	NaN	0.000000	0.001601	0.001694	28.0827	0.094253	0.001926	48.9435	-3.830378	-168.272	0.019917	1.081221	-0.076314	-0.077559	0.011518	48.9435	-0.076490	-0.504519	-0.022830	NaN
1077	1.000000	1.092472	7.37559e+06	-53989.1	1055.82	-29744.6	0.000000	0.000000	7.093166	0.001314	NaN	0.000000	0.001540	0.001693	28.0829	0.044678	0.001972	22.6514	65.9326	17.3613	-0.054737	1.091119	-0.066308	-0.067660	0.001314	22.6514	-0.066351	-0.271569	-0.004838	NaN
1077	1.000000	1.102534	7.37559e+06	-53989.1	1055.82	-29744.6	0.000000	0.000000	7.103227	-0.018462	NaN	0.000000	0.001582	0.001694	28.0839	0.048677	0.002005	24.275	158.242	-165.288	-0.081656	1.101179	-0.056245	-0.057601	-0.018462	24.275	-0.055675	-0.134820	0.136940	NaN
1077	1.000000	1.112499	7.37559e+06	-53989.1	1055.82	-29744.6	0.000000	0.000000	7.113193	0.016087	NaN	0.000000	0.001566	0.001738	28.0843	0.070205	0.002062	34.0396	23.2234	14.5011	-0.007548	1.111120	-0.046281	-0.047660	0.016087	34.0396	-0.046635	-0.072104	-0.223105	NaN
1077	1.000000	1.122484	7.37559e+06	-53989.1	1055.82	-29744.6	0.000000	0.000000	7.123177	-0.020483	NaN	0.000000	0.001580	0.001673	28.0841	0.075575	0.001916	39.4488	119.925	-165.438	0.052792	1.121146	-0.036296	-0.037634	-0.020483	39.4488	-0.035906	-0.034063	0.601335	NaN
1077	1.000000	1.132508	7.37559e+06	-53989.1	1055.82	-29744.6	0.000000	0.000000	7.133201	-0.015659	NaN	0.000000	0.001573	0.001693	28.084	0.082305	0.001960	41.9995	-156.899	12.499	0.016353	1.131183	-0.026272	-0.027596	-0.015659	41.9995	-0.025992	-0.017914	0.874124	NaN
1077	1.000000	1.142521	7.37559e+06	-53989.1	1055.82	-29744.6	0.000000	0.000000	7.143212	-0.076490	NaN	0.000000	0.001571	0.001710	28.0842	0.026191	0.002147	12.1964	-62.38	-167.108	-0.012764	1.141179	-0.016259	-0.017600	-0.076490	12.1964	-0.011555	-0.007274	10.5148	NaN
1077	1.000000	1.152515	7.37559e+06	-53989.1	1055.82	-29744.6	0.000000	0.000000	7.153208	-0.022473	NaN	0.000000	0.001593	0.001721	28.0839	0.036975	0.001928	19.1811	-32.6015	13.5538	0.046401	1.151160	-0.006264	-0.007619	-0.022473	19.1811	-0.005385	-0.003657	6.144430	NaN
1077	1.000000	1.162510	7.37559e+06	-53989.1	1055.82	-29744.6	0.000000	0.000000	7.163386	4.431301	NaN	0.000000	0.001561	0.001665	28.0838	5.592787	0.001829	3058.45	12.4245	-170.038	3.128815	1.161152	0.003731	0.002373	4.431301	3058.45	0.002644	0.002082	2127.9	61232.8
1077	2.000000	1.167596	7.37559e+06	-53989.1	1055.82	-29744.6	0.000000	0.000000	7.168733	10.7639	NaN	0.000000	0.001595	0.001659	28.0843	10.6674	0.001711	6234.43	6.928988	7.178805	9.093986	1.167246	0.008817	0.008467	10.7639	6234.43	0.007522	0.006555	1642.04	70352.1
1077	2.000000	1.170095	7.37559e+06	-53989.1	1055.82	-29744.6	0.000000	0.000000	7.171356	13.7856	NaN	0.000000	0.001600	0.001703	28.0838	13.0253	0.001720	7570.9	6.938014	-173.202	13.6324	1.169754	0.011315	0.010975	13.7856	7570.9	0.009950	0.009126	1510.66	72408.8
1077	2.000000	1.172565	7.37559e+06	-53989.1	1055.82	-29744.6	0.000000	0.000000	7.173970	17.2875	NaN	0.000000	0.001541	0.001721	28.0838	15.8876	0.001765	9000.57	6.438075	4.543727	16.2405	1.172257	0.013786	0.013478	17.2875	9000.57	0.012345	0.011906	1451.99	75363
1077	2.000000	1.175067	7.37559e+06	-53989.1	1055.82	-29744.6	0.000000	0.000000	7.176616	20.7945	NaN	0.000000	0.001553	0.001676	28.0838	18.3293	0.001742	10522.1	5.332046	-175.008	20.9743	1.174752	0.016288	0.015972	20.7945	10522.1	0.014806	0.015027	1383.81	78422.3
1077	2.000000	1.177558	7.37559e+06	-53989.1	1055.82	-29744.6	0.000000	0.000000	7.179400	27.8964	NaN	0.000000	0.001545	0.001697	28.084	21.2151	0.001768	11999.9	10.0239	-0.311701	26.2961	1.177146	0.018779	0.018367	27.8964	11999.9	0.017035	0.018096	1541.57	81500.3
1077	2.000000	1.180019	7.37559e+06	-53989.1	1055.82	-29744.6	0.000000	0.000000	7.182065	32.855	NaN	0.000000	0.001529	0.001714	28.0839	23.2227	0.001898	12232.3	8.529593	-178.228	32.2871	1.179730	0.021240	0.020950	32.855	12232.3	0.019226	0.021340	1539.61	76504
1077	2.000000	1.182463	7.37559e+06	-53989.1	1055.82	-29744.6	0.000000	0.000000	7.184762	39.0175	NaN	0.000000	0.001540	0.001705	28.0829	25.6675	0.001809	14187.7	3.966503	3.429963	36.647	1.182144	0.023684	0.023365	39.0175	14187.7	0.021621	0.025154	1551.11	81729.3
1077	2.000000	1.185044	7.37559e+06	-53989.1	1055.82	-29744.6	0.000000	0.000000	7.187630	45.9961	NaN	0.000000	0.001529	0.001694	28.0825	29.0339	0.001893	15336.8	7.911705	-179.877	46.4897	1.184694	0.026265	0.025914	45.9961	15336.8	0.024015	0.029249	1572.59	81932.5
1077	2.000000	1.187510	7.37559e+06	-53989.1	1055.82	-29744.6	0.000000	0.000000	7.190495	55.7035	NaN	0.000000	0.001527	0.001708	28.0832	30.6788	0.001808	16964.2	6.809328	0.157353	54.5624	1.187134	0.028731	0.028354	55.7035	16964.2	0.026268	0.033363	1669.61	84854
1077	2.000000	1.189983	7.37559e+06	-53989.1	1055.82	-29744.6	0.000000	0.000000	7.193212	61.6345	NaN	0.000000	0.001564	0.001712	28.0825	33.0194	0.001768	18679.5	5.404698	179.819	61.0608	1.189704	0.031204	0.030924	61.6345	18679.5	0.028729	0.038150	1615.56	87375.4
1077	2.000000	1.192483	7.37559e+06	-53989.1	1055.82	-29744.6	0.000000	0.000000	7.196093	70.907	NaN	0.000000	0.001540	0.001690	28.0829	36.0202	0.001818	19808.9	8.120006	-4.132075	69.0091	1.192119	0.033704	0.033340	70.907	19808.9	0.031019	0.042882	1653.53	87396.7
1077	2.000000	1.195002	7.37559e+06	-53989.1	1055.82	-29744.6	0.000000	0.000000	7.198925	78.5059	NaN	0.000000	0.001569	0.001716	28.0835	37.6418	0.001696	22193.6	2.972505	-179.986	77.6842	1.194679	0.036223	0.035900	78.5059	22193.6	0.033570	0.048468	1619.74	92103
1077	2.000000	1.197520	7.37559e+06	-53989.1	1055.82	-29744.6	0.000000	0.000000	7.201983	91.6256	NaN	0.000000	0.001556	0.001685	28.083	39.6464	0.001767	22438	0.907563	2.980005	89.5223	1.197097	0.038741	0.038318	91.6256	22438	0.035678	0.053337	1717.88	88765.7
1077	2.000000	1.199948	7.37559e+06	-53989.1	1055.82	-29744.6	0.000000	0.000000	7.204740	99.6295	NaN	0.000000	0.001519	0.001743	28.0825	41.861	0.001864	22456.8	4.692841	-179.924	97.7852	1.199622	0.041169	0.040843	99.6295	22456.8	0.037842	0.058569	1701.06	84778.8
1077	2.000000	1.202457	7.37559e+06	-53989.1	1055.82	-29744.6	0.000000	0.000000	7.207616	108.568	NaN	0.000000	0.001566	0.001703	28.0827	44.091	0.001692	26056.8	-0.138782	1.834965	107.006	1.202131	0.043677	0.043352	108.568	26056.8	0.040553	0.065464	1658.43	93045
1077	2.000000	1.205029	7.37559e+06	-53989.1	1055.82	-29744.6	0.000000	0.000000	7.210442	114.714	NaN	0.000000	0.001518	0.001697	28.0827	48.6823	0.001855	26249.4	5.553287	176.276	115.318	1.204742	0.046250	0.045962	114.714	26249.4	0.042972	0.071935	1594.69	89417.2
1077	2.000000	1.207516	7.37559e+06	-53989.1	1055.82	-29744.6	0.000000	0.000000	7.213282	123.312	NaN	0.000000	0.001506	0.001704	28.0828	49.0593	0.001731	28349.3	1.234767	0.063627	122.779	1.207271	0.048736	0.048491	123.312	28349.3	0.045474	0.078939	1562.12	92186.9
1077	2.000000	1.209934	7.37559e+06	-53989.1	1055.82	-29744.6	0.000000	0.000000	7.216403	140.407	NaN	0.000000	0.001504	0.001679	28.0825	51.2761	0.001794	28588.9	3.499889	177.494	139.623	1.209634	0.051155	0.050855	140.407	28588.9	0.047471	0.084757	1656.58	89718.7
1077	2.000000	1.212446	7.37559e+06	-53989.1	1055.82	-29744.6	0.000000	0.000000	7.219374	151.557	NaN	0.000000	0.001513	0.001691	28.0826	54.4744	0.001797	30321.2	6.089495	-5.089152	149.685	1.212059	0.053666	0.053280	151.557	30321.2	0.049918	0.092158	1644.52	91253.9
1077	2.000000	1.214953	7.37559e+06	-53989.1	1055.82	-29744.6	0.000000	0.000000	7.222249	160.523	NaN	0.000000	0.001520	0.001692	28.0826	57.0553	0.001881	30328.8	5.475898	175.548	160.03	1.214625	0.056173	0.055846	160.523	30328.8	0.052204	0.099346	1615.8	87913.1
1077	2.000000	1.217426	7.37559e+06	-53989.1	1055.82	-29744.6	0.000000	0.000000	7.225406	177.141	NaN	0.000000	0.001567	0.001693	28.0839	58.8289	0.001870	31460.4	5.124107	-4.290251	174.313	1.216986	0.058646	0.058207	177.141	31460.4	0.054423	0.106574	1662.14	88046.4
1077	2.000000	1.219868	7.37559e+06	-53989.1	1055.82	-29744.6	0.000000	0.000000	7.228253	186.982	NaN	0.000000	0.001562	0.001707	28.0836	60.2992	0.001848	32637.4	4.003809	176.599	182.236	1.219543	0.061088	0.060763	186.982	32637.4	0.056792	0.114555	1632.24	88101
1077	2.000000	1.222425	7.37559e+06	-53989.1	1055.82	-29744.6	0.000000	0.000000	7.231397	201.25	NaN	0.000000	0.001586	0.001695	28.0838	62.3785	0.001819	34286.9	4.877487	-4.686845	197.824	1.222066	0.063646	0.063286	201.25	34286.9	0.059243	0.123109	1634.73	89280.3
1077	2.000000	1.224990	7.37559e+06	-53989.1	1055.82	-29744.6	0.000000	0.000000	7.234462	213.409	NaN	0.000000	0.001565	0.001659	28.084	65.4919	0.001753	37361.8	2.458907	176.736	216.464	1.224640	0.066210	0.065861	213.409	37361.8	0.061926	0.132806	1606.92	93668.2
1077	2.000000	1.227423	7.37559e+06	-53989.1	1055.82	-29744.6	0.000000	0.000000	7.237718	233.406	NaN	0.000000	0.001573	0.001637	28.084	66.8591	0.001814	36863.9	6.249921	-5.858001	231.525	1.226970	0.068644	0.068190	233.406	36863.9	0.063895	0.140145	1665.46	89967.4
1077	2.000000	1.229916	7.37559e+06	-53989.1	1055.82	-29744.6	0.000000	0.000000	7.240581	242.431	NaN	0.000000	0.001559	0.001688	28.0838	69.3306	0.001793	38665.6	10.2568	168.562	241.664	1.229647	0.071136	0.070867	242.431	38665.6	0.066434	0.149885	1617.45	91247.1
1077	2.000000	1.232466	7.37559e+06	-53989.1	1055.82	-29744.6	0.000000	0.000000	7.243759	257.673	NaN	0.000000	0.001556	0.001696	28.0838	72.2665	0.001755	41168	4.561238	-6.026353	257.016	1.232090	0.073687	0.073310	257.673	41168	0.068993	0.160014	1610.31	94027.3
1077	2.000000	1.234983	7.37559e+06	-53989.1	1055.82	-29744.6	0.000000	0.000000	7.246866	272.029	NaN	0.000000	0.001526	0.001658	28.084	74.8534	0.001723	43446.3	3.628569	174.077	272.946	1.234686	0.076203	0.075907	272.029	43446.3	0.071507	0.170273	1597.61	96195.1
1077	2.000000	1.237432	7.37559e+06	-53989.1	1055.82	-29744.6	0.000000	0.000000	7.250128	291.779	NaN	0.000000	0.001552	0.001686	28.084	76.1624	0.001760	43262.1	6.886134	-8.034310	287.13	1.237089	0.078653	0.078310	291.779	43262.1	0.073595	0.179017	1629.89	93418.5
1077	2.000000	1.239961	7.37559e+06	-53989.1	1055.82	-29744.6	0.000000	0.000000	7.253057	301.506	NaN	0.000000	0.001554	0.001676	28.084	78.0473	0.001757	44412.3	1.857631	176.143	301.199	1.239684	0.081182	0.080904	301.506	44412.3	0.076090	0.189740	1589.05	93153.2
1077	2.000000	1.242321	7.37559e+06	-53989.1	1055.82	-29744.6	0.000000	0.000000	7.256193	320.371	NaN	0.000000	0.001537	0.001662	28.0841	81.1367	0.001888	42985.1	3.065009	-4.185409	312.993	1.242084	0.083542	0.083304	320.371	42985.1	0.077952	0.197931	1618.6	88274.2
1077	2.000000	1.244942	7.37559e+06	-53989.1	1055.82	-29744.6	0.000000	0.000000	7.259428	335.3	NaN	0.000000	0.001561	0.001669	28.0845	84.8996	0.001834	46284	7.466983	170.549	337.416	1.244599	0.086163	0.085820	335.3	46284	0.080730	0.210453	1593.23	92177.8
1077	2.000000	1.247453	7.37559e+06	-53989.1	1055.82	-29744.6	0.000000	0.000000	7.262763	355.32	NaN	0.000000	0.001562	0.001674	28.084	86.3523	0.001886	45787.3	5.601162	-7.200936	352.136	1.247131	0.088674	0.088351	355.32	45787.3	0.082854	0.220270	1613.11	89133.4
1077	2.000000	1.249943	7.37559e+06	-53989.1	1055.82	-29744.6	0.000000	0.000000	7.265926	371.692	NaN	0.000000	0.001561	0.001713	28.0842	88.5438	0.001775	49888.5	6.978049	170.26	375.112	1.249674	0.091164	0.090895	371.692	49888.5	0.085576	0.233156	1594.18	94395.3
1077	2.000000	1.252422	7.37559e+06	-53989.1	1055.82	-29744.6	0.000000	0.000000	7.269339	394.399	NaN	0.000000	0.001536	0.001669	28.0826	90.6557	0.001779	50953.5	4.600084	-6.691392	391.871	1.251966	0.093643	0.093187	394.399	50953.5	0.087838	0.244124	1615.57	94219.7
1077	2.000000	1.254865	7.37559e+06	-53989.1	1055.82	-29744.6	0.000000	0.000000	7.272184	404.203	NaN	0.000000	0.001569	0.001685	28.083	94.065	0.001766	53254.6	4.886998	171.494	400.947	1.254709	0.096085	0.095930	404.203	53254.6	0.090393	0.256796	1574.03	96014.3
1077	2.000000	1.257389	7.37559e+06	-53989.1	1055.82	-29744.6	0.000000	0.000000	7.275854	432.032	NaN	0.000000	0.001557	0.001658	28.0827	96.1105	0.001835	52374.5	7.719725	-10.8897	428.372	1.257086	0.098610	0.098306	432.032	52374.5	0.092423	0.267080	1617.61	92591.7
1077	2.000000	1.259897	7.37559e+06	-53989.1	1055.82	-29744.6	0.000000	0.000000	7.278961	446.608	NaN	0.000000	0.001564	0.001715	28.0831	98.3121	0.001888	52064.4	5.783601	171.048	445.14	1.259653	0.101118	0.100874	446.608	52064.4	0.094684	0.278755	1602.15	90095.3
1077	2.000000	1.262438	7.37559e+06	-53989.1	1055.82	-29744.6	0.000000	0.000000	7.282272	465.343	NaN	0.000000	0.001570	0.001666	28.0828	99.4336	0.001811	54904.7	2.514709	-5.765028	462.854	1.262022	0.103658	0.103242	465.343	54904.7	0.097302	0.292560	1590.59	92741.8
1077	2.000000	1.264509	7.37559e+06	-53989.1	1055.82	-29744.6	0.000000	0.000000	7.284556	470.499	NaN	0.000000	0.001578	0.001662	28.0828	102.642	0.001793	57237.3	6.606386	-9.467381	474.254	1.263920	0.105730	0.105141	470.499	57237.3	0.099565	0.304749	1543.89	94728.6