File: remote_trans/data/nanoindenter/0828-1/data/Data_2025-08-06,11h17m57s/2025-07-22_16-23-58_1_235.txt
2025-07-22, 16:23:58, 1
Index	Phase	Displacement	Time	Pos X	Pos Y	Pos Z	Rot A	Rot B	Piezo Z	Force A	Force B	Gripper	Voltage A	Voltage B	Temperature	Amplitude force	Amplitude pos	Stiffness	Phase shift	Phase excitation	Force A raw	Displacement raw	HMax	HMax raw	Real Force	Real Stiffness	Contact Depth	Area	Hardness	Reduced Mod.
[#]	[#]	[um]	[s]	[um]	[um]	[um]	[m°]	[m°]	[um]	[uN]	[uN]	[V]	[V]	[V]	[°C]	[uN]	[um]	[N/m]	[°]	[°]	[uN]	[um]	[um]	[um]	[uN]	[N/m]	[um]	[um^2]	[MPa]	[MPa]
235	1.000000	0.002716	7.36734e+06	-50389.1	955.818	-29756.1	0.000000	0.000000	6.002810	0.063293	NaN	0.000000	0.001613	0.001623	28.0773	0.065283	0.001016	64.28	-13.9948	-166.075	-0.007843	0.001423	-1.154492	-1.155785	0.063293	64.28	-1.155230	-2.760150E+15	-2.293099E-17	NaN
235	1.000000	0.012780	7.36734e+06	-50389.1	955.818	-29756.1	0.000000	0.000000	6.012873	0.036105	NaN	0.000000	0.001558	0.001590	28.0771	0.065995	0.001155	57.1183	-170.609	18.3638	0.046024	0.011313	-1.144427	-1.145894	0.036105	57.1183	-1.144901	-2.006603E+15	-1.799299E-17	NaN
235	1.000000	0.022662	7.36734e+06	-50389.1	955.818	-29756.1	0.000000	0.000000	6.022754	-0.012153	NaN	0.000000	0.001575	0.001594	28.0771	0.061100	0.001716	35.6039	-19.5533	-164.804	0.007328	0.021329	-1.134545	-1.135878	-0.012153	35.6039	-1.134289	-1.445929E+15	8.404910E-18	NaN
235	1.000000	0.032668	7.36734e+06	-50389.1	955.819	-29756.1	0.000000	0.000000	6.032762	0.058485	NaN	0.000000	0.001559	0.001591	28.0781	0.024920	0.002052	12.1444	44.0503	12.9513	-0.004997	0.031294	-1.124540	-1.125913	0.058485	12.1444	-1.128151	-1.196259E+15	-4.888956E-17	NaN
235	1.000000	0.042657	7.36734e+06	-50389.1	955.818	-29756.1	0.000000	0.000000	6.042752	0.088635	NaN	0.000000	0.001593	0.001614	28.079	0.052908	0.001867	28.334	-124.999	-165.4	0.067082	0.041365	-1.114551	-1.115842	0.088635	28.334	-1.116897	-8.449616E+14	-1.048986E-16	NaN
235	1.000000	0.052672	7.36734e+06	-50389.1	955.818	-29756.1	0.000000	0.000000	6.052762	-0.050626	NaN	0.000000	0.001587	0.001610	28.0787	0.077134	0.001826	42.2431	-148.514	13.1644	0.022971	0.051290	-1.104535	-1.105917	-0.050626	42.2431	-1.103636	-5.608935E+14	9.025931E-17	NaN
235	1.000000	0.062662	7.36734e+06	-50389.1	955.818	-29756.1	0.000000	0.000000	6.062756	0.044446	NaN	0.000000	0.001616	0.001611	28.0789	0.098470	0.002077	47.4176	65.1949	-170.614	0.014974	0.061397	-1.094545	-1.095811	0.044446	47.4176	-1.095248	-4.327845E+14	-1.026986E-16	NaN
235	1.000000	0.072639	7.36734e+06	-50389.1	955.818	-29756.1	0.000000	0.000000	6.072731	0.014610	NaN	0.000000	0.001630	0.001580	28.0786	0.036019	0.002103	17.128	-150.83	11.8847	-0.070459	0.071309	-1.084568	-1.085898	0.014610	17.128	-1.085208	-3.172953E+14	-4.604510E-17	NaN
235	1.000000	0.082680	7.36734e+06	-50389.1	955.818	-29756.1	0.000000	0.000000	6.082773	0.052806	NaN	0.000000	0.001607	0.001610	28.0787	0.109579	0.001967	55.6949	-40.5307	-168.004	0.044313	0.081341	-1.074528	-1.075866	0.052806	55.6949	-1.075239	-2.331127E+14	-2.265255E-16	NaN
235	1.000000	0.092721	7.36734e+06	-50389.1	955.818	-29756.1	0.000000	0.000000	6.092812	-0.016717	NaN	0.000000	0.001624	0.001619	28.0785	0.055305	0.002001	27.6366	-111.352	16.2772	0.041823	0.091327	-1.064486	-1.065880	-0.016717	27.6366	-1.064032	-1.648187E+14	1.014292E-16	NaN
235	1.000000	0.102655	7.36734e+06	-50389.1	955.818	-29756.1	0.000000	0.000000	6.102747	0.011612	NaN	0.000000	0.001593	0.001584	28.0786	0.032700	0.001999	16.3578	-8.643420	-168.78	-0.018927	0.101394	-1.054552	-1.055813	0.011612	16.3578	-1.055085	-1.249568E+14	-9.293145E-17	NaN
235	1.000000	0.112669	7.36734e+06	-50389.1	955.818	-29756.1	0.000000	0.000000	6.112764	0.082265	NaN	0.000000	0.001586	0.001593	28.0786	0.059689	0.002041	29.2411	-73.567	13.2361	0.141071	0.111352	-1.044538	-1.045855	0.082265	29.2411	-1.046648	-9.624061E+13	-8.547852E-16	NaN
235	1.000000	0.122655	7.36734e+06	-50389.1	955.819	-29756.1	0.000000	0.000000	6.122748	0.019614	NaN	0.000000	0.001617	0.001582	28.0786	0.102808	0.001966	52.3052	-7.933569	-164.262	0.052165	0.121383	-1.034552	-1.035824	0.019614	52.3052	-1.034833	-6.675567E+13	-2.938203E-16	NaN
235	1.000000	0.132698	7.36734e+06	-50389.1	955.82	-29756.1	0.000000	0.000000	6.132793	0.077351	NaN	0.000000	0.001618	0.001617	28.0785	0.037891	0.002092	18.1152	-179.124	12.4878	0.138391	0.131381	-1.024509	-1.025826	0.077351	18.1152	-1.027712	-5.354282E+13	-1.444660E-15	NaN
235	1.000000	0.142686	7.36734e+06	-50389.1	955.817	-29756.1	0.000000	0.000000	6.142780	0.055316	NaN	0.000000	0.001614	0.001576	28.0786	0.090971	0.002141	42.4854	-96.7471	-165.984	0.048925	0.141393	-1.014521	-1.015814	0.055316	42.4854	-1.015497	-3.667458E+13	-1.508290E-15	NaN
235	1.000000	0.152708	7.36734e+06	-50389.1	955.817	-29756.1	0.000000	0.000000	6.152805	0.115588	NaN	0.000000	0.001591	0.001575	28.0787	0.113537	0.001945	58.3632	136.92	10.2837	0.221948	0.151377	-1.004499	-1.005831	0.115588	58.3632	-1.005984	-2.731074E+13	-4.232331E-15	NaN
235	1.000000	0.162727	7.36734e+06	-50389.1	955.817	-29756.1	0.000000	0.000000	6.162820	0.036787	NaN	0.000000	0.001619	0.001595	28.0788	0.028921	0.001989	14.5395	-120.675	-167.388	-0.087273	0.161394	-0.994480	-0.995814	0.036787	14.5395	-0.996378	-2.027688E+13	-1.814231E-15	NaN
235	1.000000	0.172699	7.36734e+06	-50389.1	955.818	-29756.1	0.000000	0.000000	6.172791	-0.001494	NaN	0.000000	0.001605	0.001599	28.0772	0.016542	0.002007	8.240382	117.349	13.4564	0.001586	0.171349	-0.984508	-0.985858	-0.001494	8.240382	-0.984372	-1.397369E+13	1.068955E-16	NaN
235	1.000000	0.182684	7.36734e+06	-50389.1	955.819	-29756.1	0.000000	0.000000	6.182777	0.029708	NaN	0.000000	0.001605	0.001584	28.0773	0.064894	0.001956	33.1801	-159.567	-166.668	-0.014031	0.181395	-0.974524	-0.975812	0.029708	33.1801	-0.975195	-1.051167E+13	-2.826183E-15	NaN
235	1.000000	0.192741	7.36734e+06	-50389.1	955.819	-29756.1	0.000000	0.000000	6.192835	0.071737	NaN	0.000000	0.001591	0.001603	28.0773	0.059459	0.002034	29.2275	-142.822	13.5053	0.100723	0.191314	-0.964467	-0.965893	0.071737	29.2275	-0.966308	-7.978046E+12	-8.991775E-15	NaN
235	1.000000	0.202705	7.36734e+06	-50389.1	955.819	-29756.1	0.000000	0.000000	6.202797	-0.008653	NaN	0.000000	0.001598	0.001616	28.0771	0.098237	0.002077	47.2894	22.0418	-166.117	-0.003343	0.201422	-0.954502	-0.955785	-0.008653	47.2894	-0.954365	-5.506667E+12	1.571452E-15	NaN
235	1.000000	0.212743	7.36734e+06	-50389.1	955.817	-29756.1	0.000000	0.000000	6.212837	0.049965	NaN	0.000000	0.001596	0.001613	28.0768	0.101925	0.001974	51.6272	123.483	14.1813	0.028195	0.211367	-0.944464	-0.945840	0.049965	51.6272	-0.945190	-4.141479E+12	-1.206445E-14	NaN
235	1.000000	0.222735	7.36734e+06	-50389.1	955.818	-29756.1	0.000000	0.000000	6.222828	0.027432	NaN	0.000000	0.001655	0.001599	28.0771	0.058057	0.002072	28.024	148.089	-164.226	0.032943	0.221389	-0.934472	-0.935818	0.027432	28.024	-0.935206	-3.037085E+12	-9.032397E-15	NaN
235	1.000000	0.232753	7.36734e+06	-50389.1	955.818	-29756.1	0.000000	0.000000	6.232846	0.016978	NaN	0.000000	0.001677	0.001620	28.0773	0.035469	0.001946	18.2234	106.033	14.6259	0.073482	0.231390	-0.924454	-0.925818	0.016978	18.2234	-0.925153	-2.222117E+12	-7.640570E-15	NaN
235	1.000000	0.242739	7.36734e+06	-50389.1	955.819	-29756.1	0.000000	0.000000	6.242834	0.078427	NaN	0.000000	0.001647	0.001639	28.0771	0.177573	0.002070	85.7885	150.997	-166.84	-0.011415	0.241446	-0.914468	-0.915761	0.078427	85.7885	-0.915154	-1.628442E+12	-4.816075E-14	NaN
235	1.000000	0.252740	7.36734e+06	-50389.1	955.819	-29756.1	0.000000	0.000000	6.252836	0.106753	NaN	0.000000	0.001664	0.001608	28.0772	0.063059	0.002054	30.7059	81.9966	10.3225	0.061563	0.251362	-0.904468	-0.905845	0.106753	30.7059	-0.907075	-1.266640E+12	-8.428061E-14	NaN
235	1.000000	0.262736	7.36734e+06	-50389.1	955.819	-29756.1	0.000000	0.000000	6.262829	0.030450	NaN	0.000000	0.001658	0.001642	28.0771	0.040911	0.002066	19.7988	-163.443	-163.814	-0.037091	0.261419	-0.894471	-0.895789	0.030450	19.7988	-0.895624	-8.870242E+11	-3.432776E-14	NaN
235	1.000000	0.272716	7.36734e+06	-50389.1	955.819	-29756.1	0.000000	0.000000	6.272808	0.018476	NaN	0.000000	0.001683	0.001597	28.0773	0.075059	0.002102	35.7152	1.247495	13.9382	-0.012031	0.271411	-0.884492	-0.885796	0.018476	35.7152	-0.884880	-6.348779E+11	-2.910118E-14	NaN
235	1.000000	0.282752	7.36734e+06	-50389.1	955.819	-29756.1	0.000000	0.000000	6.282846	0.056922	NaN	0.000000	0.001634	0.001600	28.0771	0.057678	0.001980	29.1302	-73.364	-169.932	0.008017	0.281451	-0.874456	-0.875756	0.056922	29.1302	-0.875921	-4.803337E+11	-1.185049E-13	NaN
235	1.000000	0.292751	7.36734e+06	-50389.1	955.819	-29756.1	0.000000	0.000000	6.292845	0.068640	NaN	0.000000	0.001643	0.001584	28.0771	0.055605	0.001890	29.4275	-2.890369	13.9123	0.065307	0.291334	-0.864457	-0.865873	0.068640	29.4275	-0.866206	-3.549014E+11	-1.934046E-13	NaN
235	1.000000	0.302739	7.36734e+06	-50389.1	955.818	-29756.1	0.000000	0.000000	6.302830	-0.011325	NaN	0.000000	0.001649	0.001602	28.0773	0.053172	0.002071	25.6761	178.791	-163.389	-0.142253	0.301436	-0.854468	-0.855771	-0.011325	25.6761	-0.854137	-2.436438E+11	4.648224E-14	NaN
235	1.000000	0.312780	7.36734e+06	-50389.1	955.818	-29756.1	0.000000	0.000000	6.312871	-0.002367	NaN	0.000000	0.001651	0.001623	28.0785	0.033498	0.001974	16.969	-175.084	16.2169	-0.010957	0.311396	-0.844428	-0.845811	-0.002367	16.969	-0.844323	-1.794133E+11	1.319393E-14	NaN
235	1.000000	0.322771	7.36734e+06	-50389.1	955.82	-29756.1	0.000000	0.000000	6.322863	0.024867	NaN	0.000000	0.001675	0.001644	28.0784	0.138694	0.002098	66.102	-31.2086	-165.093	0.025963	0.321479	-0.834436	-0.835729	0.024867	66.102	-0.834719	-1.329637E+11	-1.870230E-13	NaN
235	1.000000	0.332786	7.36734e+06	-50389.1	955.818	-29756.1	0.000000	0.000000	6.332881	0.082299	NaN	0.000000	0.001611	0.001625	28.0784	0.036864	0.002194	16.8051	-155.831	12.9519	0.079101	0.331373	-0.824421	-0.825835	0.082299	16.8051	-0.828094	-1.081311E+11	-7.611061E-13	NaN
235	1.000000	0.342787	7.36734e+06	-50389.1	955.818	-29756.1	0.000000	0.000000	6.342878	-0.005203	NaN	0.000000	0.001632	0.001611	28.0788	0.082068	0.002066	39.723	100.241	-167.267	0.052777	0.341477	-0.814420	-0.815730	-0.005203	39.723	-0.814322	-7.034048E+10	7.397518E-14	NaN
235	1.000000	0.352793	7.36735e+06	-50389.1	955.819	-29756.1	0.000000	0.000000	6.352887	0.063866	NaN	0.000000	0.001625	0.001637	28.0784	0.035457	0.001908	18.5859	20.8216	11.1666	0.028136	0.351389	-0.804414	-0.805818	0.063866	18.5859	-0.806991	-5.594320E+10	-1.141627E-12	NaN
235	1.000000	0.362796	7.36735e+06	-50389.1	955.819	-29756.1	0.000000	0.000000	6.362884	-0.091677	NaN	0.000000	0.001672	0.001610	28.0783	0.051210	0.002108	24.2922	-97.3384	-166.777	-0.059510	0.361491	-0.794411	-0.795716	-0.091677	24.2922	-0.791581	-3.455849E+10	2.652815E-12	NaN
235	1.000000	0.372791	7.36735e+06	-50389.1	955.818	-29756.1	0.000000	0.000000	6.372885	0.051994	NaN	0.000000	0.001638	0.001609	28.0785	0.098656	0.002035	48.4709	-118.732	13.2639	0.087309	0.371435	-0.784416	-0.785773	0.051994	48.4709	-0.785220	-2.832449E+10	-1.835652E-12	NaN
235	1.000000	0.382799	7.36735e+06	-50389.1	955.818	-29756.1	0.000000	0.000000	6.382890	-0.015055	NaN	0.000000	0.001643	0.001590	28.0786	0.069256	0.002004	34.5585	-159.94	-168.243	0.001699	0.381471	-0.774408	-0.775736	-0.015055	34.5585	-0.774081	-1.998889E+10	7.531868E-13	NaN
235	1.000000	0.392815	7.36735e+06	-50389.1	955.818	-29756.1	0.000000	0.000000	6.392908	0.044006	NaN	0.000000	0.001614	0.001629	28.0785	0.051752	0.001970	26.2677	-102.812	15.4848	0.023974	0.391452	-0.764393	-0.765755	0.044006	26.2677	-0.765649	-1.535122E+10	-2.866642E-12	NaN
235	1.000000	0.402827	7.36735e+06	-50389.1	955.819	-29756.1	0.000000	0.000000	6.402921	0.057221	NaN	0.000000	0.001621	0.001577	28.0784	0.049703	0.002115	23.5023	60.9756	-167.357	0.106256	0.401482	-0.754381	-0.755726	0.057221	23.5023	-0.756207	-1.142065E+10	-5.010275E-12	NaN
235	1.000000	0.412816	7.36735e+06	-50389.1	955.818	-29756.1	0.000000	0.000000	6.412914	0.143063	NaN	0.000000	0.001553	0.001577	28.0787	0.047586	0.001856	25.6389	-90.9038	14.6033	0.100294	0.411506	-0.744391	-0.745702	0.143063	25.6389	-0.748576	-8.991536E+9	-1.591081E-11	NaN
235	1.000000	0.422804	7.36735e+06	-50389.1	955.818	-29756.1	0.000000	0.000000	6.422896	-0.007766	NaN	0.000000	0.001605	0.001586	28.0783	0.069638	0.001923	36.2105	120.247	-168.33	-0.014319	0.421507	-0.734403	-0.735700	-0.007766	36.2105	-0.734242	-5.736107E+9	1.353852E-12	NaN
235	1.000000	0.432822	7.36735e+06	-50389.1	955.818	-29756.1	0.000000	0.000000	6.432915	0.049911	NaN	0.000000	0.001570	0.001599	28.0784	0.088438	0.001912	46.2468	89.4139	12.5863	0.091122	0.431435	-0.724386	-0.725772	0.049911	46.2468	-0.725195	-4.318278E+9	-1.155797E-11	NaN
235	1.000000	0.442808	7.36735e+06	-50389.1	955.819	-29756.1	0.000000	0.000000	6.442899	-0.001470	NaN	0.000000	0.001600	0.001611	28.0775	0.065365	0.002042	32.0121	-163.812	-166.826	-0.066356	0.441552	-0.714399	-0.715656	-0.001470	32.0121	-0.714365	-3.073324E+9	4.782864E-13	NaN
235	1.000000	0.452812	7.36735e+06	-50389.1	955.818	-29756.1	0.000000	0.000000	6.452906	0.061149	NaN	0.000000	0.001579	0.001646	28.0773	0.087726	0.002109	41.5987	-110.081	13.2094	0.057063	0.451504	-0.704396	-0.705703	0.061149	41.5987	-0.705498	-2.325951E+9	-2.628972E-11	NaN
235	1.000000	0.462821	7.36735e+06	-50389.1	955.819	-29756.1	0.000000	0.000000	6.462912	-0.020637	NaN	0.000000	0.001597	0.001605	28.0772	0.104559	0.002152	48.5877	-95.7859	-166.257	0.006486	0.461497	-0.694386	-0.695711	-0.020637	48.5877	-0.694068	-1.623675E+9	1.270997E-11	NaN
235	1.000000	0.472830	7.36735e+06	-50389.1	955.819	-29756.1	0.000000	0.000000	6.472924	0.050350	NaN	0.000000	0.001612	0.001593	28.0771	0.119043	0.002059	57.8193	132.379	11.063	-0.013288	0.471465	-0.684377	-0.685742	0.050350	57.8193	-0.685030	-1.221772E+9	-4.121037E-11	NaN
235	1.000000	0.482820	7.36735e+06	-50389.1	955.819	-29756.1	0.000000	0.000000	6.482913	0.038567	NaN	0.000000	0.001586	0.001601	28.0774	0.039404	0.001991	19.7869	-49.0468	-165.458	-0.032638	0.481550	-0.674388	-0.675658	0.038567	19.7869	-0.675850	-9.150263E+8	-4.214814E-11	NaN
235	1.000000	0.492862	7.36735e+06	-50389.1	955.818	-29756.1	0.000000	0.000000	6.492953	-0.008870	NaN	0.000000	0.001551	0.001540	28.0773	0.058418	0.001990	29.3608	163.045	15.3947	0.036604	0.491494	-0.664346	-0.665713	-0.008870	29.3608	-0.664119	-6.322381E+8	1.402898E-11	NaN
235	1.000000	0.502848	7.36735e+06	-50389.1	955.819	-29756.1	0.000000	0.000000	6.502942	0.063513	NaN	0.000000	0.001599	0.001571	28.0772	0.118292	0.002146	55.117	-79.3959	-164.39	0.064941	0.501548	-0.654360	-0.655659	0.063513	55.117	-0.655224	-4.775658E+8	-1.329929E-10	NaN
235	1.000000	0.512839	7.36735e+06	-50389.1	955.818	-29756.1	0.000000	0.000000	6.512934	0.070055	NaN	0.000000	0.001552	0.001599	28.0771	0.131217	0.002007	65.38	33.4124	15.2816	0.090221	0.511490	-0.644368	-0.645717	0.070055	65.38	-0.645172	-3.477205E+8	-2.014702E-10	NaN
235	1.000000	0.522864	7.36735e+06	-50389.1	955.819	-29756.1	0.000000	0.000000	6.522952	-0.091219	NaN	0.000000	0.001556	0.001591	28.0777	0.035696	0.001944	18.3637	-120.468	-166.38	-0.087709	0.521522	-0.634343	-0.635685	-0.091219	18.3637	-0.630618	-2.195351E+8	4.155115E-10	NaN
235	1.000000	0.532866	7.36735e+06	-50389.1	955.819	-29756.1	0.000000	0.000000	6.532958	0.028285	NaN	0.000000	0.001565	0.001584	28.077	0.025008	0.001996	12.5276	2.045168	11.6421	0.003670	0.531488	-0.624342	-0.625719	0.028285	12.5276	-0.626035	-1.899165E+8	-1.489346E-10	NaN
235	1.000000	0.542868	7.36735e+06	-50389.1	955.818	-29756.1	0.000000	0.000000	6.542962	0.060083	NaN	0.000000	0.001587	0.001614	28.0773	0.047717	0.001934	24.6755	158.04	-166.989	0.073930	0.541553	-0.614339	-0.615654	0.060083	24.6755	-0.616166	-1.389690E+8	-4.323459E-10	NaN
235	1.000000	0.552860	7.36735e+06	-50389.1	955.819	-29756.1	0.000000	0.000000	6.552952	0.006522	NaN	0.000000	0.001597	0.001586	28.0771	0.062203	0.002004	31.0368	9.680977	13.7508	0.098832	0.551526	-0.604347	-0.605681	0.006522	31.0368	-0.604505	-9.604859E+7	-6.790183E-11	NaN
235	1.000000	0.562876	7.36735e+06	-50389.1	955.818	-29756.1	0.000000	0.000000	6.562968	0.011100	NaN	0.000000	0.001566	0.001585	28.0773	0.050990	0.002018	25.2665	-63.5403	-164.06	0.017877	0.561541	-0.594331	-0.595666	0.011100	25.2665	-0.594661	-7.029230E+7	-1.579185E-10	NaN
235	1.000000	0.572885	7.36735e+06	-50389.1	955.819	-29756.1	0.000000	0.000000	6.572979	0.040904	NaN	0.000000	0.001607	0.001569	28.0775	0.121521	0.002002	60.7091	138.57	13.1368	0.015789	0.571514	-0.584322	-0.585694	0.040904	60.7091	-0.584827	-5.144363E+7	-7.951307E-10	NaN
235	1.000000	0.582881	7.36735e+06	-50389.1	955.819	-29756.1	0.000000	0.000000	6.582973	0.009037	NaN	0.000000	0.001554	0.001586	28.0785	0.016410	0.001962	8.365743	113.656	-166.739	0.034535	0.581556	-0.574326	-0.575652	0.009037	8.365743	-0.575136	-3.780742E+7	-2.390181E-10	NaN
235	1.000000	0.592898	7.36735e+06	-50389.1	955.819	-29756.1	0.000000	0.000000	6.592991	0.038842	NaN	0.000000	0.001589	0.001636	28.0784	0.106142	0.002086	50.8818	153.984	15.729	0.017682	0.591512	-0.564309	-0.565696	0.038842	50.8818	-0.564882	-2.728285E+7	-1.423680E-9	NaN
235	1.000000	0.602871	7.36735e+06	-50389.1	955.819	-29756.1	0.000000	0.000000	6.602962	0.001047	NaN	0.000000	0.001592	0.001588	28.0786	0.016956	0.001900	8.923098	87.2029	-168.23	0.014804	0.601654	-0.554336	-0.555553	0.001047	8.923098	-0.554424	-1.955335E+7	-5.352188E-11	NaN
235	1.000000	0.612885	7.36735e+06	-50389.1	955.819	-29756.1	0.000000	0.000000	6.612979	0.042823	NaN	0.000000	0.001587	0.001555	28.0783	0.044989	0.001894	23.7599	-61.2539	17.8017	0.044810	0.611528	-0.544322	-0.545679	0.042823	23.7599	-0.545674	-1.479172E+7	-2.895067E-9	NaN
235	1.000000	0.622893	7.36735e+06	-50389.1	955.818	-29756.1	0.000000	0.000000	6.622984	-0.010368	NaN	0.000000	0.001586	0.001613	28.0785	0.087320	0.001973	44.2484	87.3075	-168.26	0.013214	0.621570	-0.534314	-0.535637	-0.010368	44.2484	-0.534139	-1.023378E+7	1.013101E-9	NaN
235	1.000000	0.632893	7.36735e+06	-50389.1	955.818	-29756.1	0.000000	0.000000	6.632984	-0.015997	NaN	0.000000	0.001601	0.001586	28.0787	0.096932	0.001868	51.8989	89.5978	14.7025	-0.076979	0.631475	-0.524314	-0.525732	-0.015997	51.8989	-0.524083	-7.41934e+06	2.156149E-9	NaN
235	1.000000	0.642893	7.36735e+06	-50389.1	955.819	-29756.1	0.000000	0.000000	6.642986	0.030723	NaN	0.000000	0.001606	0.001566	28.0784	0.136622	0.002039	66.9895	-80.3082	-164.849	-0.035067	0.641602	-0.514314	-0.515606	0.030723	66.9895	-0.514658	-5.48625e+06	-5.600072E-9	NaN
235	1.000000	0.652906	7.36735e+06	-50389.1	955.818	-29756.1	0.000000	0.000000	6.652999	0.024434	NaN	0.000000	0.001577	0.001555	28.0784	0.074961	0.002072	36.1836	-100.724	14.054	0.028810	0.651537	-0.504301	-0.505671	0.024434	36.1836	-0.504808	-4.00005e+06	-6.108524E-9	NaN
235	1.000000	0.662940	7.36735e+06	-50389.1	955.819	-29756.1	0.000000	0.000000	6.663031	-0.031765	NaN	0.000000	0.001566	0.001622	28.0785	0.050294	0.001980	25.4054	45.2588	-166.082	-0.097232	0.661611	-0.494267	-0.495596	-0.031765	25.4054	-0.493329	-2.76633e+06	1.148255E-8	NaN
235	1.000000	0.672921	7.36735e+06	-50389.1	955.818	-29756.1	0.000000	0.000000	6.673016	0.064206	NaN	0.000000	0.001580	0.001587	28.0783	0.091383	0.002012	45.4086	26.6282	14.6366	0.096342	0.671541	-0.484286	-0.485666	0.064206	45.4086	-0.485346	-2.13962e+06	-3.000813E-8	NaN
235	1.000000	0.682921	7.36735e+06	-50389.1	955.818	-29756.1	0.000000	0.000000	6.683013	0.014132	NaN	0.000000	0.001590	0.001598	28.0785	0.065285	0.002084	31.3231	77.4958	-166.012	0.063535	0.681610	-0.474287	-0.475598	0.014132	31.3231	-0.474625	-1.51442e+06	-9.331669E-9	NaN
235	1.000000	0.692917	7.36735e+06	-50389.1	955.819	-29756.1	0.000000	0.000000	6.693010	0.043061	NaN	0.000000	0.001607	0.001590	28.0784	0.066426	0.002148	30.9252	78.7065	13.8548	0.031744	0.691534	-0.464290	-0.465673	0.043061	30.9252	-0.465335	-1.12187e+06	-3.838316E-8	NaN
235	1.000000	0.702929	7.36735e+06	-50389.1	955.819	-29756.1	0.000000	0.000000	6.703022	0.048298	NaN	0.000000	0.001606	0.001580	28.0785	0.138506	0.002032	68.1577	-40.7483	-165.412	0.010747	0.701578	-0.454279	-0.455629	0.048298	68.1577	-0.454810	-798079	-6.051758E-8	NaN
235	1.000000	0.712946	7.36735e+06	-50389.1	955.818	-29756.1	0.000000	0.000000	6.713038	0.017044	NaN	0.000000	0.001614	0.001577	28.0783	0.102456	0.002045	50.101	145.333	14.7854	-0.003467	0.711560	-0.444262	-0.445647	0.017044	50.101	-0.444517	-571582	-2.981887E-8	NaN
235	1.000000	0.722927	7.36735e+06	-50389.1	955.819	-29756.1	0.000000	0.000000	6.723017	-0.027040	NaN	0.000000	0.001629	0.001595	28.0772	0.037425	0.001992	18.7908	21.4483	-167.164	-0.058162	0.721638	-0.434281	-0.435570	-0.027040	18.7908	-0.433201	-395672	6.833904E-8	NaN
235	1.000000	0.732967	7.36735e+06	-50389.1	955.818	-29756.1	0.000000	0.000000	6.733057	-0.037792	NaN	0.000000	0.001580	0.001592	28.0771	0.124937	0.001867	66.9069	168.024	15.4213	0.024660	0.731567	-0.424240	-0.425640	-0.037792	66.9069	-0.423817	-291419	1.296817E-7	NaN
235	1.000000	0.742942	7.36735e+06	-50389.1	955.818	-29756.1	0.000000	0.000000	6.743035	0.018316	NaN	0.000000	0.001613	0.001573	28.0776	0.048666	0.001981	24.5607	76.0671	-167.23	-0.034349	0.741640	-0.414265	-0.415567	0.018316	24.5607	-0.414824	-217249	-8.430791E-8	NaN
235	1.000000	0.752940	7.36735e+06	-50389.1	955.819	-29756.1	0.000000	0.000000	6.753030	-0.033577	NaN	0.000000	0.001568	0.001587	28.0773	0.081209	0.001778	45.6634	-160.602	15.5469	-0.010342	0.751649	-0.404267	-0.405558	-0.033577	45.6634	-0.403716	-150992	2.223741E-7	NaN
235	1.000000	0.762986	7.36735e+06	-50389.1	955.819	-29756.1	0.000000	0.000000	6.763080	0.060558	NaN	0.000000	0.001523	0.001589	28.0772	0.052719	0.002132	24.7239	-36.7255	-163.448	0.123321	0.761637	-0.394221	-0.395571	0.060558	24.7239	-0.396058	-117421	-5.157302E-7	NaN
235	1.000000	0.772962	7.36735e+06	-50389.1	955.818	-29756.1	0.000000	0.000000	6.773053	-0.014177	NaN	0.000000	0.001587	0.001557	28.0772	0.077667	0.002029	38.2718	158.02	18.7401	0.044040	0.771602	-0.384245	-0.385605	-0.014177	38.2718	-0.383967	-78847.8	1.798019E-7	NaN
235	1.000000	0.782967	7.36735e+06	-50389.1	955.818	-29756.1	0.000000	0.000000	6.783061	0.059172	NaN	0.000000	0.001563	0.001638	28.0773	0.109128	0.001915	56.9736	54.6312	-165.441	0.055907	0.781690	-0.374240	-0.375517	0.059172	56.9736	-0.375019	-58660.3	-1.008717E-6	NaN
235	1.000000	0.792964	7.36735e+06	-50389.1	955.819	-29756.1	0.000000	0.000000	6.793061	0.127284	NaN	0.000000	0.001605	0.001581	28.0773	0.105777	0.001942	54.4803	-54.4987	16.1741	0.083438	0.791590	-0.364243	-0.365618	0.127284	54.4803	-0.365995	-43491.9	-2.926614E-6	NaN
235	1.000000	0.802982	7.36735e+06	-50389.1	955.817	-29756.1	0.000000	0.000000	6.803075	0.013479	NaN	0.000000	0.001602	0.001604	28.077	0.088644	0.001952	45.4062	126.374	-166.111	0.052508	0.801634	-0.354225	-0.355573	0.013479	45.4062	-0.354447	-29613.7	-4.551676E-7	NaN
235	1.000000	0.812978	7.36735e+06	-50389.1	955.819	-29756.1	0.000000	0.000000	6.813069	-0.017104	NaN	0.000000	0.001577	0.001589	28.0773	0.062205	0.001927	32.2746	-151.964	15.2921	0.010820	0.811665	-0.344230	-0.345542	-0.017104	32.2746	-0.343832	-20766.6	8.236431E-7	NaN
235	1.000000	0.823003	7.36735e+06	-50389.1	955.818	-29756.1	0.000000	0.000000	6.823094	-0.013647	NaN	0.000000	0.001550	0.001576	28.0773	0.057254	0.002097	27.3092	-136.706	-164.386	0.064533	0.821658	-0.334204	-0.335549	-0.013647	27.3092	-0.333829	-14841.6	9.194777E-7	NaN
235	1.000000	0.832986	7.36735e+06	-50389.1	955.819	-29756.1	0.000000	0.000000	6.833081	0.080087	NaN	0.000000	0.001586	0.001617	28.0772	0.131434	0.002082	63.1251	-135.231	16.5487	0.042465	0.831602	-0.324221	-0.325606	0.080087	63.1251	-0.325173	-11083.3	-7.225873E-6	NaN
235	1.000000	0.842973	7.36735e+06	-50389.1	955.819	-29756.1	0.000000	0.000000	6.843064	-0.026902	NaN	0.000000	0.001599	0.001612	28.0771	0.040699	0.001812	22.4553	-59.3803	-167.803	-0.020372	0.841673	-0.314234	-0.315534	-0.026902	22.4553	-0.313336	-7419.49	3.625904E-6	NaN
235	1.000000	0.853025	7.36735e+06	-50389.1	955.818	-29756.1	0.000000	0.000000	6.853117	0.010903	NaN	0.000000	0.001547	0.001612	28.0783	0.036436	0.001948	18.7007	147.962	13.1579	-0.011374	0.851654	-0.304183	-0.305553	0.010903	18.7007	-0.304620	-5512.04	-1.977983E-6	NaN
235	1.000000	0.862972	7.36735e+06	-50389.1	955.817	-29756.1	0.000000	0.000000	6.863062	-0.027062	NaN	0.000000	0.001543	0.001601	28.0784	0.060110	0.001969	30.5305	-104.892	-166.311	-0.042663	0.861751	-0.294236	-0.295456	-0.027062	30.5305	-0.293571	-3773.44	7.171688E-6	NaN
235	1.000000	0.872997	7.36735e+06	-50389.1	955.818	-29756.1	0.000000	0.000000	6.873089	0.009903	NaN	0.000000	0.001559	0.001628	28.0783	0.075425	0.001988	37.932	-145.832	14.1405	0.002103	0.871650	-0.284210	-0.285557	0.009903	37.932	-0.284406	-2750.01	-3.601032E-6	NaN
235	1.000000	0.882990	7.36735e+06	-50389.1	955.818	-29756.1	0.000000	0.000000	6.883081	-0.004089	NaN	0.000000	0.001570	0.001594	28.0786	0.040427	0.002106	19.1994	-40.7541	-166.704	-0.030770	0.881725	-0.274217	-0.275483	-0.004089	19.1994	-0.274058	-1919.23	2.130534E-6	NaN
235	1.000000	0.893007	7.36735e+06	-50389.1	955.819	-29756.1	0.000000	0.000000	6.893099	0.018229	NaN	0.000000	0.001581	0.001573	28.0789	0.038848	0.002098	18.5187	170.482	8.992310	-0.009116	0.891645	-0.264200	-0.265562	0.018229	18.5187	-0.264939	-1394.61	-1.307125E-5	NaN
235	1.000000	0.903016	7.36735e+06	-50389.1	955.818	-29756.1	0.000000	0.000000	6.903109	0.030377	NaN	0.000000	0.001575	0.001591	28.0785	0.099753	0.001938	51.4598	-9.794154	-164.919	0.036152	0.901644	-0.254191	-0.255563	0.030377	51.4598	-0.254634	-969.341	-3.133756E-5	NaN
235	1.000000	0.913034	7.36735e+06	-50389.1	955.818	-29756.1	0.000000	0.000000	6.913130	0.098905	NaN	0.000000	0.001552	0.001590	28.0786	0.063150	0.001951	32.3675	-150.562	14.976	0.064016	0.911667	-0.244173	-0.245540	0.098905	32.3675	-0.246465	-724.765	-0.000136	NaN
235	1.000000	0.923004	7.36735e+06	-50389.1	955.819	-29756.1	0.000000	0.000000	6.923100	0.097945	NaN	0.000000	0.001542	0.001592	28.0784	0.059523	0.002002	29.7291	-49.2648	-163.614	0.137857	0.921722	-0.234203	-0.235485	0.097945	29.7291	-0.236674	-509.927	-0.000192	NaN
235	1.000000	0.933019	7.36735e+06	-50389.1	955.818	-29756.1	0.000000	0.000000	6.933113	0.049642	NaN	0.000000	0.001588	0.001553	28.0786	0.046499	0.002122	21.9082	145.227	13.8717	-0.062421	0.931662	-0.224188	-0.225545	0.049642	21.9082	-0.225887	-344.685	-0.000144	NaN
235	1.000000	0.943034	7.36735e+06	-50389.1	955.818	-29756.1	0.000000	0.000000	6.943128	0.050390	NaN	0.000000	0.001578	0.001554	28.0784	0.072404	0.001976	36.636	-116.108	-168.407	0.000474	0.941751	-0.214173	-0.215456	0.050390	36.636	-0.215204	-232.704	-0.000217	NaN
235	1.000000	0.953019	7.36735e+06	-50389.1	955.819	-29756.1	0.000000	0.000000	6.953111	0.014507	NaN	0.000000	0.001612	0.001588	28.0786	0.021217	0.002027	10.4682	79.7685	16.552	0.071913	0.951708	-0.204188	-0.205499	0.014507	10.4682	-0.205228	-160.425	-9.043131E-5	NaN
235	1.000000	0.963046	7.36735e+06	-50389.1	955.818	-29756.1	0.000000	0.000000	6.963140	0.057974	NaN	0.000000	0.001629	0.001606	28.0783	0.169138	0.001933	87.4918	-154.45	-166.258	0.034254	0.961775	-0.194162	-0.195432	0.057974	87.4918	-0.194658	-107.533	-0.000539	NaN
235	1.000000	0.973059	7.36735e+06	-50389.1	955.818	-29756.1	0.000000	0.000000	6.973148	-0.054987	NaN	0.000000	0.001607	0.001617	28.0786	0.099828	0.001892	52.7563	109.036	17.3006	0.016464	0.971653	-0.184148	-0.185555	-0.054987	52.7563	-0.183367	-69.5921	0.000790	NaN
235	1.000000	0.983041	7.36735e+06	-50389.1	955.818	-29756.1	0.000000	0.000000	6.983132	-0.019377	NaN	0.000000	0.001558	0.001614	28.0786	0.029922	0.001976	15.1437	115.107	-169.209	-0.066203	0.981796	-0.174167	-0.175411	-0.019377	15.1437	-0.173207	-46.6779	0.000415	NaN
235	1.000000	0.993054	7.36735e+06	-50389.1	955.819	-29756.1	0.000000	0.000000	6.993151	0.130346	NaN	0.000000	0.001558	0.001611	28.0772	0.035676	0.001941	18.3757	131.402	14.2168	0.109338	0.991671	-0.164154	-0.165536	0.130346	18.3757	-0.169474	-40.2225	-0.003241	NaN
235	1.000000	1.003045	7.36735e+06	-50389.1	955.819	-29756.1	0.000000	0.000000	7.003140	0.070162	NaN	0.000000	0.001582	0.001571	28.0772	0.126256	0.001973	64.0015	-85.721	-168.094	0.099509	1.001767	-0.154162	-0.155441	0.070162	64.0015	-0.154984	-22.2996	-0.003146	NaN
235	1.000000	1.013065	7.36735e+06	-50389.1	955.819	-29756.1	0.000000	0.000000	7.013159	0.073114	NaN	0.000000	0.001591	0.001640	28.0772	0.110555	0.001938	57.0481	-150.473	17.1258	0.114496	1.011758	-0.144142	-0.145449	0.073114	57.0481	-0.145104	-14.726	-0.004965	NaN
235	1.000000	1.023076	7.36735e+06	-50389.1	955.819	-29756.1	0.000000	0.000000	7.023166	-0.046345	NaN	0.000000	0.001593	0.001609	28.0775	0.059351	0.001918	30.9436	-100.185	-161.738	-0.064974	1.021819	-0.134131	-0.135388	-0.046345	30.9436	-0.133008	-8.712138	0.005320	NaN
235	1.000000	1.033095	7.36735e+06	-50389.1	955.819	-29756.1	0.000000	0.000000	7.033189	0.070204	NaN	0.000000	0.001604	0.001675	28.0772	0.058058	0.002103	27.6006	-68.1926	12.0584	0.073186	1.031765	-0.124113	-0.125442	0.070204	27.6006	-0.126020	-6.370089	-0.011021	NaN
235	1.000000	1.043059	7.36735e+06	-50389.1	955.82	-29756.1	0.000000	0.000000	7.043152	0.028796	NaN	0.000000	0.001612	0.001632	28.0773	0.085269	0.001948	43.7679	-10.3477	-163.77	-0.034995	1.041813	-0.114148	-0.115394	0.028796	43.7679	-0.114641	-3.755816	-0.007667	NaN
235	1.000000	1.053096	7.36735e+06	-50389.1	955.819	-29756.1	0.000000	0.000000	7.053189	0.023187	NaN	0.000000	0.001621	0.001651	28.0771	0.027934	0.002085	13.3974	129.507	16.5717	0.050402	1.051708	-0.104111	-0.105500	0.023187	13.3974	-0.105409	-2.398822	-0.009666	NaN
235	1.000000	1.063071	7.36735e+06	-50389.1	955.819	-29756.1	0.000000	0.000000	7.063163	0.012479	NaN	0.000000	0.001567	0.001624	28.0773	0.094342	0.002031	46.4408	-92.3443	-165.986	0.013727	1.061755	-0.094136	-0.095452	0.012479	46.4408	-0.094338	-1.362380	-0.009160	NaN
235	1.000000	1.073090	7.36735e+06	-50389.1	955.819	-29756.1	0.000000	0.000000	7.073183	0.029395	NaN	0.000000	0.001604	0.001639	28.0772	0.032867	0.002073	15.8509	29.7088	13.4031	0.020288	1.071706	-0.084117	-0.085501	0.029395	15.8509	-0.085508	-0.845205	-0.034778	NaN
235	1.000000	1.083092	7.36735e+06	-50389.1	955.819	-29756.1	0.000000	0.000000	7.083185	0.031644	NaN	0.000000	0.001617	0.001605	28.0774	0.018649	0.001943	9.597747	22.8805	-164.025	0.013706	1.081753	-0.074115	-0.075454	0.031644	9.597747	-0.076588	-0.507441	-0.062361	NaN
235	1.000000	1.093094	7.36735e+06	-50389.1	955.818	-29756.1	0.000000	0.000000	7.093190	0.094441	NaN	0.000000	0.001621	0.001612	28.0771	0.039598	0.001990	19.8948	5.603513	11.6855	0.010077	1.091688	-0.064113	-0.065519	0.094441	19.8948	-0.067673	-0.295157	-0.319969	NaN
235	1.000000	1.103085	7.36735e+06	-50389.1	955.819	-29756.1	0.000000	0.000000	7.103181	0.093896	NaN	0.000000	0.001651	0.001624	28.0772	0.010835	0.002136	5.071824	66.9263	-165.163	0.109624	1.101808	-0.054122	-0.055399	0.093896	5.071824	-0.068007	-0.301386	-0.311548	NaN
235	1.000000	1.113130	7.36735e+06	-50389.1	955.82	-29756.1	0.000000	0.000000	7.113223	0.036798	NaN	0.000000	0.001618	0.001566	28.0771	0.034212	0.001941	17.6257	93.7735	13.3262	0.030512	1.111780	-0.044078	-0.045427	0.036798	17.6257	-0.045643	-0.067246	-0.547220	NaN
235	1.000000	1.123124	7.36735e+06	-50389.1	955.82	-29756.1	0.000000	0.000000	7.123216	0.005346	NaN	0.000000	0.001628	0.001615	28.0776	0.048777	0.001981	24.6266	47.2868	-167.171	-0.005769	1.121783	-0.034083	-0.035425	0.005346	24.6266	-0.034246	-0.030433	-0.175649	NaN
235	1.000000	1.133101	7.36735e+06	-50389.1	955.82	-29756.1	0.000000	0.000000	7.133196	0.059283	NaN	0.000000	0.001582	0.001614	28.0784	0.038781	0.002015	19.2455	23.6635	15.703	0.020549	1.131707	-0.024106	-0.025501	0.059283	19.2455	-0.026416	-0.018384	-3.224789	NaN
235	1.000000	1.143117	7.36735e+06	-50389.1	955.819	-29756.1	0.000000	0.000000	7.143210	0.021821	NaN	0.000000	0.001619	0.001618	28.0786	0.069434	0.002042	34.0076	-8.415455	-164.455	0.028455	1.141784	-0.014090	-0.015423	0.021821	34.0076	-0.014571	-0.009020	-2.419222	NaN
235	1.000000	1.153121	7.36735e+06	-50389.1	955.82	-29756.1	0.000000	0.000000	7.153212	-0.011729	NaN	0.000000	0.001630	0.001632	28.0786	0.005710	0.002075	2.751653	-42.2472	13.9571	-0.115890	1.151744	-0.004086	-0.005463	-0.011729	2.751653	-0.000889	-0.000653	17.9483	NaN
235	1.000000	1.163086	7.36735e+06	-50389.1	955.82	-29756.1	0.000000	0.000000	7.163252	1.794710	NaN	0.000000	0.001598	0.001624	28.0789	2.495048	0.001929	1293.35	9.273929	-167.868	0.692352	1.161836	0.005879	0.004629	1.794710	1293.35	0.004838	0.003986	450.231	18715.9
235	2.000000	1.172158	7.36735e+06	-50389.1	955.82	-29756.1	0.000000	0.000000	7.172629	9.239782	NaN	0.000000	0.001582	0.001623	28.0785	9.736628	0.001632	5966.28	11.2636	5.002384	9.269584	1.171532	0.014951	0.014325	9.239782	5966.28	0.013789	0.013704	674.217	46563.5
235	2.000000	1.174638	7.36735e+06	-50389.1	955.82	-29756.1	0.000000	0.000000	7.175252	12.7196	NaN	0.000000	0.001596	0.001651	28.0788	11.3306	0.001446	7834.26	8.562181	-174.844	13.0016	1.174315	0.017431	0.017108	12.7196	7834.26	0.016213	0.016937	751.005	54999
235	2.000000	1.177114	7.36735e+06	-50389.1	955.821	-29756.1	0.000000	0.000000	7.177866	16.0701	NaN	0.000000	0.001604	0.001668	28.0785	14.8829	0.001795	8292.89	5.073447	6.002314	14.6182	1.176740	0.019906	0.019532	16.0701	8292.89	0.018453	0.020169	796.761	53349.9
235	2.000000	1.179618	7.36735e+06	-50389.1	955.82	-29756.1	0.000000	0.000000	7.180475	18.6159	NaN	0.000000	0.001586	0.001627	28.0789	17.0436	0.001770	9627.89	7.474215	-177.405	18.273	1.179315	0.022410	0.022108	18.6159	9627.89	0.020960	0.024074	773.293	56693.6
235	2.000000	1.182137	7.36735e+06	-50389.1	955.82	-29756.1	0.000000	0.000000	7.183279	25.5542	NaN	0.000000	0.001628	0.001591	28.0784	19.7715	0.001731	11424.3	3.805387	5.312542	23.8385	1.181751	0.024930	0.024544	25.5542	11424.3	0.023252	0.027912	915.523	62474.8
235	2.000000	1.184543	7.36735e+06	-50389.1	955.819	-29756.1	0.000000	0.000000	7.185801	28.3653	NaN	0.000000	0.001597	0.001556	28.0786	21.6521	0.001702	12721.6	2.972386	-175.453	26.8566	1.184324	0.027336	0.027117	28.3653	12721.6	0.025664	0.032234	879.972	64737.5
235	2.000000	1.187062	7.36735e+06	-50389.1	955.819	-29756.1	0.000000	0.000000	7.188615	35.553	NaN	0.000000	0.001572	0.001590	28.0786	24.7257	0.001776	13920.5	6.371079	-0.228731	33.1253	1.186752	0.029854	0.029545	35.553	13920.5	0.027939	0.036580	971.93	66497.9
235	2.000000	1.189567	7.36735e+06	-50389.1	955.819	-29756.1	0.000000	0.000000	7.191293	39.7404	NaN	0.000000	0.001559	0.001579	28.0786	27.8324	0.002026	13736.5	7.621749	-178.364	39.2722	1.189256	0.032360	0.032049	39.7404	13736.5	0.030190	0.041139	966.001	61876.2
235	2.000000	1.192087	7.36735e+06	-50389.1	955.819	-29756.1	0.000000	0.000000	7.194073	46.0665	NaN	0.000000	0.001560	0.001578	28.0783	29.2507	0.001756	16659.9	8.369279	-2.533954	46.0275	1.191772	0.034880	0.034565	46.0665	16659.9	0.032806	0.046761	985.145	70388.9
235	2.000000	1.194531	7.36735e+06	-50389.1	955.82	-29756.1	0.000000	0.000000	7.196865	54.5253	NaN	0.000000	0.001593	0.001581	28.0772	30.8059	0.001741	17697.8	3.180157	-178.231	53.4573	1.194268	0.037324	0.037061	54.5253	17697.8	0.035013	0.051776	1053.09	71060.4
235	2.000000	1.197054	7.36735e+06	-50389.1	955.821	-29756.1	0.000000	0.000000	7.199595	59.5665	NaN	0.000000	0.001588	0.001556	28.0773	33.4275	0.001729	19329.1	4.092899	-0.264111	57.8417	1.196758	0.039847	0.039551	59.5665	19329.1	0.037535	0.057814	1030.3	73445.9
235	2.000000	1.199546	7.36735e+06	-50389.1	955.82	-29756.1	0.000000	0.000000	7.202585	71.6835	NaN	0.000000	0.001580	0.001525	28.0771	36.2181	0.001864	19433.7	5.822959	178.902	71.0861	1.199249	0.042338	0.042041	71.6835	19433.7	0.039572	0.062927	1139.16	70780.1
235	2.000000	1.202056	7.36735e+06	-50389.1	955.821	-29756.1	0.000000	0.000000	7.205362	78.1752	NaN	0.000000	0.001597	0.001561	28.0771	37.9415	0.001720	22056.5	5.234084	-2.459863	76.3641	1.201614	0.044848	0.044407	78.1752	22056.5	0.042190	0.069811	1119.81	76269.2
235	2.000000	1.204538	7.36735e+06	-50389.1	955.82	-29756.1	0.000000	0.000000	7.208183	86.4113	NaN	0.000000	0.001598	0.001548	28.0771	39.8324	0.001779	22386.3	2.869667	179.373	85.4543	1.204199	0.047331	0.046992	86.4113	22386.3	0.044436	0.075993	1137.09	74193.8
235	2.000000	1.207017	7.36735e+06	-50389.1	955.82	-29756.1	0.000000	0.000000	7.211136	97.9439	NaN	0.000000	0.001565	0.001528	28.0773	44.0917	0.001873	23536.9	5.138105	-3.228465	94.7156	1.206663	0.049809	0.049456	97.9439	23536.9	0.046689	0.082453	1187.88	74889.3
235	2.000000	1.209525	7.36735e+06	-50389.1	955.819	-29756.1	0.000000	0.000000	7.214123	109.578	NaN	0.000000	0.001593	0.001561	28.077	46.1118	0.001877	24561.5	2.048909	-179.498	109.632	1.209197	0.052318	0.051990	109.578	24561.5	0.048972	0.089262	1227.59	75109.4
235	2.000000	1.212053	7.36735e+06	-50389.1	955.82	-29756.1	0.000000	0.000000	7.217319	125.823	NaN	0.000000	0.001571	0.001564	28.0771	48.6272	0.001873	25967.2	7.519646	-4.679424	126.079	1.211599	0.054846	0.054392	125.823	25967.2	0.051212	0.096196	1308	76492.7
235	2.000000	1.214600	7.36735e+06	-50389.1	955.82	-29756.1	0.000000	0.000000	7.220170	133.212	NaN	0.000000	0.001598	0.001613	28.0772	50.9618	0.001839	27712	8.686798	173.312	135.341	1.214181	0.057393	0.056974	133.212	27712	0.053788	0.104480	1275.01	78329.5
235	2.000000	1.217039	7.36735e+06	-50389.1	955.82	-29756.1	0.000000	0.000000	7.223114	145.497	NaN	0.000000	0.001571	0.001608	28.0773	53.2184	0.001868	28494.3	4.340882	-3.031551	142.707	1.216616	0.059832	0.059408	145.497	28494.3	0.056002	0.111863	1300.67	77837.3
235	2.000000	1.219498	7.36735e+06	-50389.1	955.819	-29756.1	0.000000	0.000000	7.225973	155.219	NaN	0.000000	0.001565	0.001595	28.0771	54.7424	0.001759	31120.6	2.764191	177.26	152.033	1.219266	0.062291	0.062058	155.219	31120.6	0.058550	0.120662	1286.39	81853.4
235	2.000000	1.222012	7.36735e+06	-50389.1	955.821	-29756.1	0.000000	0.000000	7.229157	171.524	NaN	0.000000	0.001515	0.001558	28.077	56.9502	0.001720	33114.2	5.323375	-5.005709	169	1.221725	0.064805	0.064518	171.524	33114.2	0.060920	0.129128	1328.33	84193.1
235	2.000000	1.224506	7.36735e+06	-50389.1	955.821	-29756.1	0.000000	0.000000	7.232431	190.498	NaN	0.000000	0.001555	0.001553	28.0774	58.3522	0.001819	32085.7	3.424479	177.092	189.053	1.224157	0.067299	0.066950	190.498	32085.7	0.062846	0.136211	1398.55	79428.9
235	2.000000	1.227033	7.36735e+06	-50389.1	955.82	-29756.1	0.000000	0.000000	7.235451	202.491	NaN	0.000000	0.001545	0.001559	28.0774	61.6695	0.001769	34867.2	6.437595	-6.559573	202.719	1.226603	0.069826	0.069396	202.491	34867.2	0.065470	0.146150	1385.5	83328
235	2.000000	1.229474	7.36735e+06	-50389.1	955.821	-29756.1	0.000000	0.000000	7.238202	210.025	NaN	0.000000	0.001547	0.001557	28.0785	64.5928	0.001771	36469.5	4.563383	174.443	206.849	1.229241	0.072267	0.072034	210.025	36469.5	0.067947	0.155839	1347.71	84404.4
235	2.000000	1.232145	7.36735e+06	-50389.1	955.82	-29756.1	0.000000	0.000000	7.241561	226.772	NaN	0.000000	0.001517	0.001557	28.0783	67.2508	0.001811	37141.3	13.7299	-13.1958	234.68	1.231497	0.074937	0.074289	226.772	37141.3	0.070358	0.165548	1369.82	83400.5
235	2.000000	1.234496	7.36735e+06	-50389.1	955.82	-29756.1	0.000000	0.000000	7.244600	243.481	NaN	0.000000	0.001513	0.001587	28.0785	68.6935	0.001750	39261.4	6.612770	172.103	244.459	1.234099	0.077289	0.076892	243.481	39261.4	0.072637	0.174982	1391.46	85751.6
235	2.000000	1.236917	7.36735e+06	-50389.1	955.82	-29756.1	0.000000	0.000000	7.247527	255.809	NaN	0.000000	0.001558	0.001596	28.0785	70.0111	0.001738	40274.1	1.329608	-2.392353	249.317	1.236608	0.079709	0.079400	255.809	40274.1	0.074946	0.184786	1384.35	85598.3
235	2.000000	1.239466	7.36735e+06	-50389.1	955.821	-29756.1	0.000000	0.000000	7.250909	276.027	NaN	0.000000	0.001592	0.001611	28.0787	73.9206	0.001766	41861	2.414004	175.918	273.818	1.239205	0.082259	0.081998	276.027	41861	0.077314	0.195105	1414.77	86586.3
235	2.000000	1.241984	7.36735e+06	-50389.1	955.82	-29756.1	0.000000	0.000000	7.253869	286.805	NaN	0.000000	0.001533	0.001622	28.0785	75.7021	0.001717	44091.5	1.769369	-3.881777	284.235	1.241710	0.084777	0.084502	286.805	44091.5	0.079898	0.206666	1387.77	88612.1
235	2.000000	1.244406	7.36735e+06	-50389.1	955.82	-29756.1	0.000000	0.000000	7.257329	312.041	NaN	0.000000	0.001545	0.001623	28.0789	77.1611	0.001756	43951.4	2.252246	176.255	307.03	1.243996	0.087199	0.086789	312.041	43951.4	0.081874	0.215716	1446.54	86458
235	2.000000	1.246947	7.36735e+06	-50389.1	955.821	-29756.1	0.000000	0.000000	7.260433	325.722	NaN	0.000000	0.001517	0.001645	28.0786	79.6918	0.001782	44723.1	0.105560	-2.482624	321.793	1.246725	0.089739	0.089517	325.722	44723.1	0.084277	0.226966	1435.12	85768
235	2.000000	1.249555	7.36735e+06	-50389.1	955.821	-29756.1	0.000000	0.000000	7.263541	337.874	NaN	0.000000	0.001555	0.001623	28.0789	83.9654	0.001804	46553.5	8.062428	169.692	342.418	1.249165	0.092348	0.091958	337.874	46553.5	0.086905	0.239572	1410.32	86897.5
235	2.000000	1.252007	7.36735e+06	-50389.1	955.82	-29756.1	0.000000	0.000000	7.266833	358.31	NaN	0.000000	0.001531	0.001599	28.0784	85.9206	0.001935	44393.4	7.597348	-9.938808	356.017	1.251618	0.094800	0.094411	358.31	44393.4	0.088747	0.248598	1441.32	81347.2
235	2.000000	1.254498	7.36735e+06	-50389.1	955.82	-29756.1	0.000000	0.000000	7.270148	378.353	NaN	0.000000	0.001540	0.001598	28.079	86.3892	0.001758	49149	3.281023	173.674	377.501	1.254075	0.097291	0.096867	378.353	49149	0.091518	0.262471	1441.51	87649
235	2.000000	1.256938	7.36735e+06	-50389.1	955.822	-29756.1	0.000000	0.000000	7.273034	389.196	NaN	0.000000	0.001506	0.001587	28.0783	88.832	0.001720	51654.6	3.529102	-6.979460	386.175	1.256643	0.099731	0.099436	389.196	51654.6	0.094080	0.275612	1412.12	89894.4
235	2.000000	1.259445	7.36735e+06	-50389.1	955.821	-29756.1	0.000000	0.000000	7.276540	413.504	NaN	0.000000	0.001526	0.001602	28.0785	92.1641	0.001849	49832.6	3.776686	173.407	411.855	1.259150	0.102237	0.101942	413.504	49832.6	0.096014	0.285729	1447.19	85174.5
235	2.000000	1.261920	7.36735e+06	-50389.1	955.82	-29756.1	0.000000	0.000000	7.279788	432.299	NaN	0.000000	0.001559	0.001600	28.0785	93.6626	0.001821	51444.7	3.611811	-6.681667	426.722	1.261651	0.104713	0.104444	432.299	51444.7	0.098410	0.298502	1448.23	86027.9
235	2.000000	1.264513	7.36735e+06	-50389.1	955.82	-29756.1	0.000000	0.000000	7.282538	436.095	NaN	0.000000	0.001564	0.001625	28.0773	96.2277	0.001910	50368.2	2.983354	173.676	437.505	1.264313	0.107306	0.107105	436.095	50368.2	0.100812	0.311568	1399.68	82442.9
235	2.000000	1.266892	7.36735e+06	-50389.1	955.82	-29756.1	0.000000	0.000000	7.286005	462.559	NaN	0.000000	0.001550	0.001649	28.0773	97.6063	0.001837	53137.4	2.505491	-5.569874	456.29	1.266592	0.109685	0.109385	462.559	53137.4	0.103156	0.324569	1425.15	85215.8
235	2.000000	1.269377	7.36735e+06	-50389.1	955.82	-29756.1	0.000000	0.000000	7.289359	483.687	NaN	0.000000	0.001530	0.001664	28.0772	100.444	0.001781	56384.1	5.740782	170.843	477.775	1.269017	0.112170	0.111810	483.687	56384.1	0.105736	0.339166	1426.11	88455.2
235	2.000000	1.270515	7.36735e+06	-50389.1	955.82	-29756.1	0.000000	0.000000	7.290563	485.298	NaN	0.000000	0.001534	0.001647	28.0771	100.204	0.001677	59761.2	3.153090	172.455	486.407	1.270143	0.113308	0.112936	485.298	59761.2	0.107217	0.347684	1395.8	92597.7