File: remote_trans/data/nanoindenter/0828-1/data/Data_2025-08-06,11h17m57s/2025-07-22_16-23-58_1_719.txt
2025-07-22, 16:23:58, 1
Index	Phase	Displacement	Time	Pos X	Pos Y	Pos Z	Rot A	Rot B	Piezo Z	Force A	Force B	Gripper	Voltage A	Voltage B	Temperature	Amplitude force	Amplitude pos	Stiffness	Phase shift	Phase excitation	Force A raw	Displacement raw	HMax	HMax raw	Real Force	Real Stiffness	Contact Depth	Area	Hardness	Reduced Mod.
[#]	[#]	[um]	[s]	[um]	[um]	[um]	[m°]	[m°]	[um]	[uN]	[uN]	[V]	[V]	[V]	[°C]	[uN]	[um]	[N/m]	[°]	[°]	[uN]	[um]	[um]	[um]	[uN]	[N/m]	[um]	[um^2]	[MPa]	[MPa]
719	1.000000	0.002627	7.37209e+06	-41139.1	1005.82	-29787.1	0.000000	0.000000	6.002818	-0.006987	NaN	0.000000	0.001629	0.001714	28.0826	0.042484	0.000864	49.154	128.358	-164.774	-0.054456	0.001327	-1.195034	-1.196333	-0.006987	49.154	-1.194927	-9.393155E+15	7.438586E-19	NaN
719	1.000000	0.012682	7.37209e+06	-41139.1	1005.82	-29787.1	0.000000	0.000000	6.012876	0.027592	NaN	0.000000	0.001574	0.001739	28.0829	0.066799	0.001336	49.9966	140.652	17.9133	0.040588	0.011280	-1.184978	-1.186380	0.027592	49.9966	-1.185391	-6.999969E+15	-3.941690E-18	NaN
719	1.000000	0.022572	7.37209e+06	-41139.1	1005.82	-29787.1	0.000000	0.000000	6.022766	0.050086	NaN	0.000000	0.001606	0.001756	28.0824	0.025350	0.001728	14.6694	-108.709	-162.526	-0.024299	0.021256	-1.175088	-1.176405	0.050086	14.6694	-1.177649	-5.512832E+15	-9.085386E-18	NaN
719	1.000000	0.032558	7.37209e+06	-41139.1	1005.82	-29787.1	0.000000	0.000000	6.032748	-0.035154	NaN	0.000000	0.001568	0.001777	28.0825	0.051225	0.001937	26.4505	-95.8726	16.8982	-0.010343	0.031199	-1.165102	-1.166461	-0.035154	26.4505	-1.164106	-3.629893E+15	9.684633E-18	NaN
719	1.000000	0.042550	7.37209e+06	-41139.1	1005.82	-29787.1	0.000000	0.000000	6.042743	0.016693	NaN	0.000000	0.001587	0.001764	28.0823	0.178646	0.002054	86.9556	70.2443	-161.928	0.076340	0.041282	-1.155110	-1.156378	0.016693	86.9556	-1.155254	-2.762151E+15	-6.043653E-18	NaN
719	1.000000	0.052556	7.37209e+06	-41139.1	1005.82	-29787.1	0.000000	0.000000	6.052746	-0.050200	NaN	0.000000	0.001638	0.001712	28.0835	0.050815	0.002050	24.7833	71.1711	15.8782	-0.077867	0.051194	-1.145104	-1.146466	-0.050200	24.7833	-1.143585	-1.926682E+15	2.605492E-17	NaN
719	1.000000	0.062564	7.37209e+06	-41139.1	1005.82	-29787.1	0.000000	0.000000	6.062755	-0.026493	NaN	0.000000	0.001614	0.001718	28.0834	0.056076	0.002014	27.8469	21.4351	-164.327	-0.006516	0.061251	-1.135096	-1.136409	-0.026493	27.8469	-1.134383	-1.450120E+15	1.826969E-17	NaN
719	1.000000	0.072569	7.37209e+06	-41139.1	1005.82	-29787.1	0.000000	0.000000	6.072761	0.020218	NaN	0.000000	0.001617	0.001692	28.0835	0.057136	0.001936	29.5099	-70.6349	17.8429	-0.064353	0.071199	-1.125091	-1.126461	0.020218	29.5099	-1.125605	-1.105789E+15	-1.828394E-17	NaN
719	1.000000	0.082549	7.37209e+06	-41139.1	1005.82	-29787.1	0.000000	0.000000	6.082739	-0.046020	NaN	0.000000	0.001627	0.001721	28.0836	0.041826	0.002032	20.5812	131.238	-164.966	-0.041145	0.081253	-1.115111	-1.116407	-0.046020	20.5812	-1.113434	-7.592271E+14	6.061404E-17	NaN
719	1.000000	0.092536	7.37209e+06	-41139.1	1005.82	-29787.1	0.000000	0.000000	6.092726	-0.051457	NaN	0.000000	0.001711	0.001671	28.0835	0.055817	0.002054	27.173	-141.322	14.8618	-0.136971	0.091187	-1.105124	-1.106473	-0.051457	27.173	-1.103703	-5.620533E+14	9.155106E-17	NaN
719	1.000000	0.102567	7.37209e+06	-41139.1	1005.82	-29787.1	0.000000	0.000000	6.102758	-0.029166	NaN	0.000000	0.001688	0.001712	28.0834	0.051907	0.001956	26.5389	-134.865	-162.311	-0.038722	0.101255	-1.095093	-1.096405	-0.029166	26.5389	-1.094269	-4.198794E+14	6.946253E-17	NaN
719	1.000000	0.112596	7.37209e+06	-41139.1	1005.82	-29787.1	0.000000	0.000000	6.112786	-0.040342	NaN	0.000000	0.001691	0.001709	28.0835	0.140582	0.002036	69.0385	-49.358	15.5821	-0.033657	0.111207	-1.085064	-1.086453	-0.040342	69.0385	-1.084626	-3.116343E+14	1.294518E-16	NaN
719	1.000000	0.122556	7.37209e+06	-41139.1	1005.82	-29787.1	0.000000	0.000000	6.122746	-0.052538	NaN	0.000000	0.001690	0.001716	28.0838	0.029807	0.002001	14.8974	-54.6683	-164.534	-0.046817	0.121335	-1.075104	-1.076325	-0.052538	14.8974	-1.072459	-2.139076E+14	2.456090E-16	NaN
719	1.000000	0.132573	7.37209e+06	-41139.1	1005.82	-29787.1	0.000000	0.000000	6.132766	0.019534	NaN	0.000000	0.001641	0.001691	28.0835	0.043286	0.002075	20.8589	-97.2699	15.217	-0.009546	0.131168	-1.065087	-1.066492	0.019534	20.8589	-1.065790	-1.740278E+14	-1.122477E-16	NaN
719	1.000000	0.142583	7.37209e+06	-41139.1	1005.82	-29787.1	0.000000	0.000000	6.142775	-0.006895	NaN	0.000000	0.001654	0.001680	28.0834	0.115914	0.002112	54.8853	-31.8013	-165.127	0.054498	0.141277	-1.055077	-1.056383	-0.006895	54.8853	-1.054983	-1.245629E+14	5.535579E-17	NaN
719	1.000000	0.152566	7.37209e+06	-41139.1	1005.82	-29787.1	0.000000	0.000000	6.152757	-0.029405	NaN	0.000000	0.001679	0.001740	28.0835	0.023948	0.001919	12.482	-67.6305	14.5948	-0.015784	0.151220	-1.045094	-1.046441	-0.029405	12.482	-1.043327	-8.683696E+13	3.386221E-16	NaN
719	1.000000	0.162550	7.37209e+06	-41139.1	1005.82	-29787.1	0.000000	0.000000	6.162739	-0.065474	NaN	0.000000	0.001652	0.001757	28.0837	0.012447	0.001862	6.684446	42.4221	-163.704	0.001318	0.161270	-1.035110	-1.036390	-0.065474	6.684446	-1.027764	-5.362948E+13	1.220851E-15	NaN
719	1.000000	0.172617	7.37209e+06	-41139.1	1005.82	-29787.1	0.000000	0.000000	6.172809	0.008113	NaN	0.000000	0.001640	0.001765	28.0833	0.040365	0.002087	19.3382	138.539	14.7857	-0.071700	0.171239	-1.025043	-1.026421	0.008113	19.3382	-1.025358	-4.977769E+13	-1.629778E-16	NaN
719	1.000000	0.182616	7.37209e+06	-41139.1	1005.82	-29787.1	0.000000	0.000000	6.182807	-0.024192	NaN	0.000000	0.001688	0.001709	28.0835	0.054829	0.002170	25.2623	78.7705	-164.895	-0.030059	0.181305	-1.015044	-1.016355	-0.024192	25.2623	-1.014326	-3.536748E+13	6.840076E-16	NaN
719	1.000000	0.192588	7.37209e+06	-41139.1	1005.82	-29787.1	0.000000	0.000000	6.192781	0.026234	NaN	0.000000	0.001681	0.001741	28.0823	0.040773	0.002004	20.3413	-137.575	11.7578	0.005804	0.191246	-1.005072	-1.006414	0.026234	20.3413	-1.006039	-2.735733E+13	-9.589513E-16	NaN
719	1.000000	0.202624	7.37209e+06	-41139.1	1005.82	-29787.1	0.000000	0.000000	6.202817	0.022839	NaN	0.000000	0.001665	0.001740	28.0824	0.047107	0.002127	22.1434	31.2013	-165.008	0.008761	0.201300	-0.995036	-0.996360	0.022839	22.1434	-0.995810	-1.992266E+13	-1.146392E-15	NaN
719	1.000000	0.212594	7.37209e+06	-41139.1	1005.82	-29787.1	0.000000	0.000000	6.212789	0.060436	NaN	0.000000	0.001661	0.001695	28.0821	0.106216	0.001976	53.7529	-80.5268	13.156	-0.019846	0.211248	-0.985066	-0.986412	0.060436	53.7529	-0.985909	-1.465591E+13	-4.123654E-15	NaN
719	1.000000	0.222626	7.37209e+06	-41139.1	1005.82	-29787.1	0.000000	0.000000	6.222817	-0.017256	NaN	0.000000	0.001698	0.001754	28.0822	0.087425	0.001929	45.3263	177.27	-163.027	0.018454	0.221282	-0.975034	-0.976378	-0.017256	45.3263	-0.974749	-1.036703E+13	1.664548E-15	NaN
719	1.000000	0.232669	7.37209e+06	-41139.1	1005.82	-29787.1	0.000000	0.000000	6.232862	0.012404	NaN	0.000000	0.001684	0.001751	28.0824	0.070982	0.001969	36.0414	21.2941	13.5904	0.003969	0.231266	-0.964991	-0.966394	0.012404	36.0414	-0.965249	-7.720219E+12	-1.606721E-15	NaN
719	1.000000	0.242612	7.37209e+06	-41139.1	1005.82	-29787.1	0.000000	0.000000	6.242802	-0.038312	NaN	0.000000	0.001609	0.001708	28.0821	0.080343	0.002036	39.4604	-53.4705	-164.138	-0.051083	0.241335	-0.955048	-0.956325	-0.038312	39.4604	-0.954320	-5.499041E+12	6.967122E-15	NaN
719	1.000000	0.252625	7.37209e+06	-41139.1	1005.82	-29787.1	0.000000	0.000000	6.252817	0.010320	NaN	0.000000	0.001608	0.001722	28.0823	0.088387	0.002052	43.0759	34.9783	14.6564	-0.020332	0.251292	-0.945035	-0.946368	0.010320	43.0759	-0.945215	-4.144677E+12	-2.489836E-15	NaN
719	1.000000	0.262641	7.37209e+06	-41139.1	1005.82	-29787.1	0.000000	0.000000	6.262834	0.016761	NaN	0.000000	0.001594	0.001721	28.0822	0.034202	0.001845	18.5363	179.474	-163.943	0.002008	0.261279	-0.935019	-0.936381	0.016761	18.5363	-0.935697	-3.083774E+12	-5.435113E-15	NaN
719	1.000000	0.272639	7.37209e+06	-41139.1	1005.82	-29787.1	0.000000	0.000000	6.272830	-0.040490	NaN	0.000000	0.001610	0.001699	28.0823	0.083298	0.002009	41.4676	-151.341	14.8077	-0.069606	0.271278	-0.925021	-0.926383	-0.040490	41.4676	-0.924288	-2.163220E+12	1.871769E-14	NaN
719	1.000000	0.282666	7.37209e+06	-41139.1	1005.82	-29787.1	0.000000	0.000000	6.282857	-0.023728	NaN	0.000000	0.001597	0.001732	28.0822	0.058610	0.002026	28.9232	-50.9989	-165.272	-0.102166	0.281313	-0.914994	-0.916347	-0.023728	28.9232	-0.914379	-1.589643E+12	1.492690E-14	NaN
719	1.000000	0.292654	7.37209e+06	-41139.1	1005.82	-29787.1	0.000000	0.000000	6.292846	-0.021525	NaN	0.000000	0.001557	0.001755	28.082	0.060061	0.002076	28.9293	-29.6829	14.687	0.022220	0.291242	-0.905006	-0.906418	-0.021525	28.9293	-0.904448	-1.167233E+12	1.844120E-14	NaN
719	1.000000	0.302672	7.37209e+06	-41139.1	1005.82	-29787.1	0.000000	0.000000	6.302863	-0.022340	NaN	0.000000	0.001563	0.001767	28.0825	0.014439	0.001926	7.497681	27.9582	-161.008	-0.104848	0.301345	-0.894989	-0.896315	-0.022340	7.497681	-0.892754	-8.112205E+11	2.753900E-14	NaN
719	1.000000	0.312667	7.37209e+06	-41139.1	1005.82	-29787.1	0.000000	0.000000	6.312857	-0.050181	NaN	0.000000	0.001575	0.001725	28.0823	0.047355	0.001927	24.5762	-29.6481	18.3023	0.021282	0.311351	-0.884993	-0.886309	-0.050181	24.5762	-0.883462	-6.074672E+11	8.260738E-14	NaN
719	1.000000	0.322650	7.37209e+06	-41139.1	1005.82	-29787.1	0.000000	0.000000	6.322844	0.058297	NaN	0.000000	0.001609	0.001720	28.0833	0.069685	0.002008	34.7108	-127.102	-163.301	-0.065632	0.321337	-0.875010	-0.876323	0.058297	34.7108	-0.876270	-4.855814E+11	-1.200566E-13	NaN
719	1.000000	0.332673	7.37209e+06	-41139.1	1005.82	-29787.1	0.000000	0.000000	6.332866	0.007158	NaN	0.000000	0.001591	0.001750	28.0834	0.041517	0.001916	21.6658	-175.714	14.5839	0.005795	0.331305	-0.864987	-0.866355	0.007158	21.6658	-0.865234	-3.443204E+11	-2.078754E-14	NaN
719	1.000000	0.342695	7.37209e+06	-41139.1	1005.82	-29787.1	0.000000	0.000000	6.342885	-0.059853	NaN	0.000000	0.001610	0.001756	28.0835	0.067884	0.002008	33.8093	165.026	-164.141	-0.044979	0.341415	-0.854965	-0.856245	-0.059853	33.8093	-0.853637	-2.398737E+11	2.495206E-13	NaN
719	1.000000	0.352686	7.37209e+06	-41139.1	1005.82	-29787.1	0.000000	0.000000	6.352876	-0.049734	NaN	0.000000	0.001603	0.001730	28.0833	0.097613	0.002053	47.5469	18.4376	12.6228	0.040392	0.351295	-0.844974	-0.846365	-0.049734	47.5469	-0.844189	-1.786658E+11	2.783645E-13	NaN
719	1.000000	0.362684	7.37209e+06	-41139.1	1005.82	-29787.1	0.000000	0.000000	6.362878	0.039338	NaN	0.000000	0.001595	0.001717	28.0834	0.059390	0.002065	28.7554	-119.166	-165.075	-0.016038	0.361342	-0.834976	-0.836318	0.039338	28.7554	-0.836002	-1.383946E+11	-2.842419E-13	NaN
719	1.000000	0.372694	7.37209e+06	-41139.1	1005.82	-29787.1	0.000000	0.000000	6.372889	0.063066	NaN	0.000000	0.001618	0.001730	28.0833	0.023924	0.001963	12.1869	-159.49	14.918	-0.063657	0.371336	-0.824966	-0.826324	0.063066	12.1869	-0.828847	-1.107026E+11	-5.696852E-13	NaN
719	1.000000	0.382708	7.37209e+06	-41139.1	1005.82	-29787.1	0.000000	0.000000	6.382899	-0.031380	NaN	0.000000	0.001597	0.001756	28.0833	0.016315	0.001941	8.405411	-7.028167	-168.102	-0.082064	0.381369	-0.814952	-0.816291	-0.031380	8.405411	-0.812152	-6.573072E+10	4.773997E-13	NaN
719	1.000000	0.392685	7.37209e+06	-41139.1	1005.82	-29787.1	0.000000	0.000000	6.392875	-0.046312	NaN	0.000000	0.001580	0.001714	28.0835	0.101129	0.002056	49.1874	18.4771	16.7235	0.060465	0.391394	-0.804975	-0.806266	-0.046312	49.1874	-0.804269	-5.138112E+10	9.013418E-13	NaN
719	1.000000	0.402695	7.37209e+06	-41139.1	1005.82	-29787.1	0.000000	0.000000	6.402886	-0.009217	NaN	0.000000	0.001581	0.001728	28.0833	0.059481	0.001975	30.1244	-29.1583	-164.65	0.016117	0.401429	-0.794965	-0.796231	-0.009217	30.1244	-0.794736	-3.814120E+10	2.416499E-13	NaN
719	1.000000	0.412720	7.37209e+06	-41139.1	1005.82	-29787.1	0.000000	0.000000	6.412912	-0.012080	NaN	0.000000	0.001596	0.001717	28.0835	0.040628	0.001806	22.5011	-158.937	16.7473	-0.003003	0.411356	-0.784940	-0.786304	-0.012080	22.5011	-0.784537	-2.772539E+10	4.357034E-13	NaN
719	1.000000	0.422702	7.37209e+06	-41139.1	1005.82	-29787.1	0.000000	0.000000	6.422894	0.006246	NaN	0.000000	0.001580	0.001756	28.0833	0.063796	0.002106	30.2869	-148.353	-163.11	0.037650	0.421390	-0.774958	-0.776270	0.006246	30.2869	-0.775113	-2.064504E+10	-3.025404E-13	NaN
719	1.000000	0.432744	7.37209e+06	-41139.1	1005.82	-29787.1	0.000000	0.000000	6.432932	-0.104287	NaN	0.000000	0.001590	0.001759	28.0835	0.061445	0.002038	30.1503	13.3708	11.5752	-0.151549	0.431379	-0.764916	-0.766281	-0.104287	30.1503	-0.762322	-1.383210E+10	7.539482E-12	NaN
719	1.000000	0.442740	7.37209e+06	-41139.1	1005.82	-29787.1	0.000000	0.000000	6.442932	-0.013956	NaN	0.000000	0.001596	0.001759	28.0836	0.067140	0.001975	33.9866	-15.3429	-165.738	-0.010049	0.441394	-0.754920	-0.756266	-0.013956	33.9866	-0.754612	-1.086391E+10	1.284607E-12	NaN
719	1.000000	0.452715	7.37209e+06	-41139.1	1005.82	-29787.1	0.000000	0.000000	6.452906	-0.042130	NaN	0.000000	0.001598	0.001741	28.0837	0.044446	0.001974	22.5143	54.2161	12.8693	-0.047955	0.451338	-0.744945	-0.746322	-0.042130	22.5143	-0.743541	-7.678630E+9	5.486676E-12	NaN
719	1.000000	0.462704	7.37209e+06	-41139.1	1005.82	-29787.1	0.000000	0.000000	6.462894	-0.038870	NaN	0.000000	0.001615	0.001791	28.0823	0.112477	0.002020	55.6698	45.4912	-162.542	-0.122477	0.461458	-0.734956	-0.736202	-0.038870	55.6698	-0.734432	-5.770460E+9	6.736058E-12	NaN
719	1.000000	0.472755	7.37209e+06	-41139.1	1005.82	-29787.1	0.000000	0.000000	6.472947	0.005545	NaN	0.000000	0.001553	0.001769	28.0824	0.045143	0.001905	23.7015	-87.3796	13.3387	0.105196	0.471376	-0.724906	-0.726284	0.005545	23.7015	-0.725081	-4.302849E+9	-1.288790E-12	NaN
719	1.000000	0.482728	7.37209e+06	-41139.1	1005.82	-29787.1	0.000000	0.000000	6.482915	-0.107251	NaN	0.000000	0.001576	0.001771	28.0826	0.115413	0.001885	61.2272	-83.0433	-165.454	-0.089024	0.481428	-0.714932	-0.716232	-0.107251	61.2272	-0.713619	-3.002112E+9	3.572517E-11	NaN
719	1.000000	0.492756	7.37209e+06	-41139.1	1005.82	-29787.1	0.000000	0.000000	6.492945	-0.073237	NaN	0.000000	0.001574	0.001769	28.0823	0.097775	0.001980	49.3892	44.5249	14.2275	-0.085033	0.491439	-0.704904	-0.706221	-0.073237	49.3892	-0.703792	-2.204505E+9	3.322145E-11	NaN
719	1.000000	0.502736	7.37209e+06	-41139.1	1005.82	-29787.1	0.000000	0.000000	6.502929	0.031846	NaN	0.000000	0.001574	0.001771	28.0825	0.036081	0.002088	17.2768	67.7573	-166.137	-0.006014	0.501405	-0.694924	-0.696255	0.031846	17.2768	-0.696307	-1.742156E+9	-1.827940E-11	NaN
719	1.000000	0.512702	7.37209e+06	-41139.1	1005.82	-29787.1	0.000000	0.000000	6.512894	-0.022082	NaN	0.000000	0.001580	0.001747	28.0825	0.065556	0.002028	32.3253	-49.9542	14.8291	0.015017	0.511345	-0.684958	-0.686315	-0.022082	32.3253	-0.684445	-1.199472E+9	1.840979E-11	NaN
719	1.000000	0.522713	7.37209e+06	-41139.1	1005.82	-29787.1	0.000000	0.000000	6.522904	-0.019823	NaN	0.000000	0.001604	0.001729	28.0826	0.083052	0.002018	41.1569	98.0088	-166.936	-0.006145	0.521527	-0.674947	-0.676133	-0.019823	41.1569	-0.674586	-8.793142E+8	2.254326E-11	NaN
719	1.000000	0.532753	7.37209e+06	-41139.1	1005.82	-29787.1	0.000000	0.000000	6.532948	0.073658	NaN	0.000000	0.001593	0.001744	28.0822	0.027649	0.001958	14.1243	107.582	11.423	0.002097	0.531296	-0.664907	-0.666364	0.073658	14.1243	-0.668818	-7.331808E+8	-1.004638E-10	NaN
719	1.000000	0.542741	7.37209e+06	-41139.1	1005.82	-29787.1	0.000000	0.000000	6.542931	-0.052623	NaN	0.000000	0.001602	0.001728	28.0823	0.073966	0.002014	36.7172	61.2564	-162.419	-0.004309	0.541429	-0.654919	-0.656231	-0.052623	36.7172	-0.653844	-4.572253E+8	1.150914E-10	NaN
719	1.000000	0.552757	7.37209e+06	-41139.1	1005.82	-29787.1	0.000000	0.000000	6.552950	0.019183	NaN	0.000000	0.001612	0.001737	28.0823	0.060207	0.001878	32.0583	-100.811	14.4988	0.008643	0.551413	-0.644903	-0.646248	0.019183	32.0583	-0.645351	-3.497012E+8	-5.485566E-11	NaN
719	1.000000	0.562815	7.37209e+06	-41139.1	1005.82	-29787.1	0.000000	0.000000	6.563006	-0.026475	NaN	0.000000	0.001582	0.001731	28.0823	0.006532	0.001999	3.267187	-80.0415	-162.916	0.043434	0.561443	-0.634845	-0.636217	-0.026475	3.267187	-0.628768	-2.070636E+8	1.278592E-10	NaN
719	1.000000	0.572771	7.37209e+06	-41139.1	1005.82	-29787.1	0.000000	0.000000	6.572961	-0.037950	NaN	0.000000	0.001599	0.001753	28.0822	0.051625	0.001923	26.8485	-177.69	15.4579	-0.085237	0.571498	-0.624889	-0.626162	-0.037950	26.8485	-0.623829	-1.771165E+8	2.142649E-10	NaN
719	1.000000	0.582788	7.37209e+06	-41139.1	1005.82	-29787.1	0.000000	0.000000	6.582980	0.004959	NaN	0.000000	0.001583	0.001745	28.0825	0.046921	0.002018	23.2459	-55.4892	-166.592	0.066597	0.581454	-0.614872	-0.616206	0.004959	23.2459	-0.615032	-1.340699E+8	-3.698558E-11	NaN
719	1.000000	0.592772	7.37209e+06	-41139.1	1005.82	-29787.1	0.000000	0.000000	6.592963	-0.027472	NaN	0.000000	0.001572	0.001787	28.0828	0.052773	0.001995	26.4486	109.797	15.9663	0.024368	0.591452	-0.604888	-0.606208	-0.027472	26.4486	-0.604109	-9.485112E+7	2.896290E-10	NaN
719	1.000000	0.602786	7.37209e+06	-41139.1	1005.82	-29787.1	0.000000	0.000000	6.602980	0.031468	NaN	0.000000	0.001561	0.001764	28.0839	0.054979	0.002125	25.874	133.952	-162.542	0.024787	0.601491	-0.594874	-0.596169	0.031468	25.874	-0.595786	-7.284643E+7	-4.319789E-10	NaN
719	1.000000	0.612785	7.37209e+06	-41139.1	1005.82	-29787.1	0.000000	0.000000	6.612975	-0.031572	NaN	0.000000	0.001556	0.001736	28.0836	0.098487	0.002094	47.0371	129.276	11.1375	-0.084053	0.611390	-0.584875	-0.586270	-0.031572	47.0371	-0.584372	-5.070505E+7	6.226666E-10	NaN
719	1.000000	0.622781	7.37209e+06	-41139.1	1005.82	-29787.1	0.000000	0.000000	6.622970	-0.062514	NaN	0.000000	0.001578	0.001762	28.0838	0.054839	0.002122	25.8403	35.0485	-165.636	-0.073006	0.621565	-0.574879	-0.576095	-0.062514	25.8403	-0.573065	-3.539731E+7	1.766079E-9	NaN
719	1.000000	0.632793	7.37209e+06	-41139.1	1005.82	-29787.1	0.000000	0.000000	6.632984	-0.010831	NaN	0.000000	0.001551	0.001810	28.0837	0.025941	0.001949	13.3122	-37.7936	15.2912	-0.077795	0.631459	-0.564867	-0.566201	-0.010831	13.3122	-0.564257	-2.674575E+7	4.049707E-10	NaN
719	1.000000	0.642793	7.37209e+06	-41139.1	1005.82	-29787.1	0.000000	0.000000	6.642981	-0.097319	NaN	0.000000	0.001565	0.001799	28.0838	0.049418	0.001986	24.8851	-100.891	-165.265	-0.138035	0.641476	-0.554867	-0.556184	-0.097319	24.8851	-0.551934	-1.806113E+7	5.388335E-9	NaN
719	1.000000	0.652776	7.37209e+06	-41139.1	1005.82	-29787.1	0.000000	0.000000	6.652967	-0.015947	NaN	0.000000	0.001583	0.001742	28.0841	0.133025	0.002047	65.0011	141.978	16.1418	-0.035637	0.651429	-0.544884	-0.546231	-0.015947	65.0011	-0.544700	-1.433913E+7	1.112133E-9	NaN
719	1.000000	0.662822	7.37209e+06	-41139.1	1005.82	-29787.1	0.000000	0.000000	6.663012	-0.069808	NaN	0.000000	0.001573	0.001759	28.0842	0.013768	0.001948	7.066754	-42.8453	-165.632	-0.033303	0.661459	-0.534838	-0.536201	-0.069808	7.066754	-0.527429	-8.25771e+06	8.453686E-9	NaN
719	1.000000	0.672805	7.37209e+06	-41139.1	1005.82	-29787.1	0.000000	0.000000	6.672998	0.003370	NaN	0.000000	0.001576	0.001747	28.0837	0.069394	0.002052	33.8112	-177.45	15.4204	-0.032137	0.671454	-0.524855	-0.526206	0.003370	33.8112	-0.524929	-7.62308e+06	-4.420351E-10	NaN
719	1.000000	0.682863	7.37209e+06	-41139.1	1005.82	-29787.1	0.000000	0.000000	6.683053	-0.046712	NaN	0.000000	0.001570	0.001743	28.0838	0.004024	0.002056	1.957189	-175.957	-166.021	0.014670	0.681516	-0.514797	-0.516145	-0.046712	1.957189	-0.496897	-3.10253e+06	1.505619E-8	NaN
719	1.000000	0.692857	7.37209e+06	-41139.1	1005.82	-29787.1	0.000000	0.000000	6.693047	-0.055327	NaN	0.000000	0.001584	0.001757	28.0834	0.025192	0.002106	11.9607	67.0025	14.644	-0.048945	0.691556	-0.504803	-0.506104	-0.055327	11.9607	-0.501333	-3.57781e+06	1.546390E-8	NaN
719	1.000000	0.702813	7.37209e+06	-41139.1	1005.82	-29787.1	0.000000	0.000000	6.703004	-0.029084	NaN	0.000000	0.001592	0.001750	28.084	0.039749	0.001957	20.3159	-49.5984	-167.366	-0.053791	0.701540	-0.494847	-0.496120	-0.029084	20.3159	-0.493773	-2.80609e+06	1.036447E-8	NaN
719	1.000000	0.712809	7.37209e+06	-41139.1	1005.82	-29787.1	0.000000	0.000000	6.712998	-0.074965	NaN	0.000000	0.001612	0.001734	28.0837	0.099040	0.002010	49.2827	-80.0129	15.0184	-0.045834	0.711540	-0.484851	-0.486120	-0.074965	49.2827	-0.483710	-2.0298e+06	3.693224E-8	NaN
719	1.000000	0.722820	7.37209e+06	-41139.1	1005.82	-29787.1	0.000000	0.000000	6.723011	-0.028290	NaN	0.000000	0.001617	0.001772	28.0838	0.047476	0.001995	23.7945	-18.6113	-162.916	0.024881	0.721584	-0.474840	-0.476076	-0.028290	23.7945	-0.473948	-1.48172e+06	1.909281E-8	NaN
719	1.000000	0.732836	7.37209e+06	-41139.1	1005.82	-29787.1	0.000000	0.000000	6.733026	-0.066276	NaN	0.000000	0.001574	0.001733	28.0827	0.073163	0.001982	36.9123	87.675	16.8884	0.025503	0.731457	-0.464824	-0.466203	-0.066276	36.9123	-0.463477	-1.05649e+06	6.273278E-8	NaN
719	1.000000	0.742857	7.37209e+06	-41139.1	1005.82	-29787.1	0.000000	0.000000	6.743049	-0.006251	NaN	0.000000	0.001568	0.001792	28.0825	0.047313	0.002082	22.7219	-144.618	-162.109	-0.031886	0.741545	-0.454803	-0.456115	-0.006251	22.7219	-0.454597	-792587	7.887391E-9	NaN
719	1.000000	0.752827	7.37209e+06	-41139.1	1005.82	-29787.1	0.000000	0.000000	6.753015	-0.075074	NaN	0.000000	0.001581	0.001753	28.0823	0.095115	0.002047	46.4567	-120.806	18.2442	-0.097603	0.751507	-0.444834	-0.446153	-0.075074	46.4567	-0.443622	-555208	1.352178E-7	NaN
719	1.000000	0.762853	7.37209e+06	-41139.1	1005.82	-29787.1	0.000000	0.000000	6.763042	-0.078833	NaN	0.000000	0.001589	0.001741	28.0823	0.060035	0.002079	28.8764	-121.661	-167.022	-0.018296	0.761548	-0.434807	-0.436113	-0.078833	28.8764	-0.432759	-390019	2.021254E-7	NaN
719	1.000000	0.772846	7.37209e+06	-41139.1	1005.82	-29787.1	0.000000	0.000000	6.773037	-0.020034	NaN	0.000000	0.001579	0.001715	28.0823	0.078785	0.002123	37.1133	35.5484	16.4476	-0.044089	0.771505	-0.424814	-0.426155	-0.020034	37.1133	-0.424409	-297106	6.743032E-8	NaN
719	1.000000	0.782875	7.37209e+06	-41139.1	1005.82	-29787.1	0.000000	0.000000	6.783065	-0.046536	NaN	0.000000	0.001566	0.001753	28.0824	0.013757	0.001883	7.307521	-75.4981	-162.955	-0.085542	0.781629	-0.414785	-0.416031	-0.046536	7.307521	-0.410009	-185577	2.507616E-7	NaN
719	1.000000	0.792851	7.37209e+06	-41139.1	1005.82	-29787.1	0.000000	0.000000	6.793040	-0.067412	NaN	0.000000	0.001594	0.001749	28.0824	0.154045	0.002036	75.6513	-167.099	12.8245	-0.080917	0.791418	-0.404809	-0.406242	-0.067412	75.6513	-0.404141	-153114	4.402702E-7	NaN
719	1.000000	0.802873	7.37209e+06	-41139.1	1005.82	-29787.1	0.000000	0.000000	6.803065	0.005401	NaN	0.000000	0.001581	0.001751	28.0828	0.009446	0.001957	4.826481	27.8461	-167.825	0.016466	0.801491	-0.394787	-0.396169	0.005401	4.826481	-0.395626	-115765	-4.665398E-8	NaN
719	1.000000	0.812888	7.37209e+06	-41139.1	1005.82	-29787.1	0.000000	0.000000	6.813076	-0.086145	NaN	0.000000	0.001592	0.001768	28.0824	0.060954	0.001953	31.2148	178.635	15.1806	0.019427	0.811520	-0.384772	-0.386140	-0.086145	31.2148	-0.382702	-75623.3	1.139134E-6	NaN
719	1.000000	0.822905	7.37209e+06	-41139.1	1005.82	-29787.1	0.000000	0.000000	6.823096	-0.015878	NaN	0.000000	0.001552	0.001757	28.0824	0.140814	0.001982	71.0523	-128.842	-165.097	0.010460	0.821568	-0.374755	-0.376092	-0.015878	71.0523	-0.374588	-57828.8	2.745741E-7	NaN
719	1.000000	0.832876	7.37209e+06	-41139.1	1005.82	-29787.1	0.000000	0.000000	6.833067	-0.028852	NaN	0.000000	0.001534	0.001761	28.0825	0.085989	0.002002	42.9456	-170.146	15.3371	-0.001424	0.831539	-0.364784	-0.366121	-0.028852	42.9456	-0.364280	-41083	7.022916E-7	NaN
719	1.000000	0.842903	7.37209e+06	-41139.1	1005.82	-29787.1	0.000000	0.000000	6.843090	-0.129253	NaN	0.000000	0.001538	0.001773	28.0827	0.082006	0.002044	40.115	115.785	-162.134	-0.093762	0.841541	-0.354757	-0.356119	-0.129253	40.115	-0.352340	-27602.6	4.682630E-6	NaN
719	1.000000	0.852918	7.37209e+06	-41139.1	1005.82	-29787.1	0.000000	0.000000	6.853105	-0.101211	NaN	0.000000	0.001552	0.001759	28.0825	0.093480	0.002017	46.3506	145.502	16.1734	-0.085942	0.851568	-0.344743	-0.346092	-0.101211	46.3506	-0.343105	-20266.6	4.993968E-6	NaN
719	1.000000	0.862902	7.37209e+06	-41139.1	1005.82	-29787.1	0.000000	0.000000	6.863093	-0.013886	NaN	0.000000	0.001558	0.001759	28.0825	0.077795	0.002050	37.9466	-87.7196	-165.975	0.020338	0.861587	-0.334758	-0.336073	-0.013886	37.9466	-0.334484	-15172.2	9.152117E-7	NaN
719	1.000000	0.872915	7.37209e+06	-41139.1	1005.82	-29787.1	0.000000	0.000000	6.873105	-0.040824	NaN	0.000000	0.001563	0.001776	28.0842	0.013196	0.002078	6.350911	126.563	12.3024	-0.022205	0.871576	-0.324745	-0.326084	-0.040824	6.350911	-0.319924	-9279.4	4.399405E-6	NaN
719	1.000000	0.882906	7.37209e+06	-41139.1	1005.82	-29787.1	0.000000	0.000000	6.883096	-0.044165	NaN	0.000000	0.001567	0.001757	28.0839	0.056519	0.002037	27.7462	-171.118	-168.462	-0.028713	0.881593	-0.314754	-0.316067	-0.044165	27.7462	-0.313560	-7476.32	5.907308E-6	NaN
719	1.000000	0.892896	7.37209e+06	-41139.1	1005.82	-29787.1	0.000000	0.000000	6.893086	-0.033996	NaN	0.000000	0.001599	0.001792	28.0838	0.082588	0.002028	40.7245	21.8582	15.7463	-0.067533	0.891578	-0.304764	-0.306082	-0.033996	40.7245	-0.304138	-5422.05	6.269902E-6	NaN
719	1.000000	0.902900	7.37209e+06	-41139.1	1005.82	-29787.1	0.000000	0.000000	6.903092	0.012698	NaN	0.000000	0.001580	0.001776	28.0836	0.031653	0.002030	15.5892	64.5734	-163.851	0.034173	0.901610	-0.294760	-0.296050	0.012698	15.5892	-0.295371	-4014.47	-3.163122E-6	NaN
719	1.000000	0.912922	7.37209e+06	-41139.1	1005.82	-29787.1	0.000000	0.000000	6.913114	-0.000914	NaN	0.000000	0.001590	0.001772	28.084	0.024955	0.002102	11.8742	161.958	16.8901	-0.023632	0.911543	-0.284738	-0.286117	-0.000914	11.8742	-0.284681	-2776.3	3.293190E-7	NaN
719	1.000000	0.922903	7.37209e+06	-41139.1	1005.82	-29787.1	0.000000	0.000000	6.923094	-0.023556	NaN	0.000000	0.001608	0.001772	28.0836	0.093031	0.001898	49.0187	105.766	-167.489	-0.059225	0.921572	-0.274757	-0.276088	-0.023556	49.0187	-0.274397	-1942.06	1.212925E-5	NaN
719	1.000000	0.932921	7.37209e+06	-41139.1	1005.82	-29787.1	0.000000	0.000000	6.933111	-0.049095	NaN	0.000000	0.001582	0.001777	28.0841	0.022467	0.001929	11.649	55.0197	17.9467	-0.037264	0.931540	-0.264739	-0.266120	-0.049095	11.649	-0.261578	-1239.06	3.962275E-5	NaN
719	1.000000	0.942959	7.37209e+06	-41139.1	1005.82	-29787.1	0.000000	0.000000	6.943149	-0.044860	NaN	0.000000	0.001584	0.001762	28.0842	0.078471	0.001883	41.6761	48.2618	-165.97	-0.106213	0.941602	-0.254701	-0.256058	-0.044860	41.6761	-0.253894	-944.241	4.750856E-5	NaN
719	1.000000	0.952941	7.37209e+06	-41139.1	1005.82	-29787.1	0.000000	0.000000	6.953134	0.007930	NaN	0.000000	0.001585	0.001757	28.084	0.001429	0.002077	0.687854	-162.107	14.6944	-0.033997	0.951600	-0.244719	-0.246060	0.007930	0.687854	-0.253365	-926.677	-8.557226E-6	NaN
719	1.000000	0.962928	7.37209e+06	-41139.1	1005.82	-29787.1	0.000000	0.000000	6.963118	-0.029164	NaN	0.000000	0.001594	0.001767	28.0838	0.122423	0.002042	59.9442	166.554	-161.899	-0.034266	0.961622	-0.234732	-0.236038	-0.029164	59.9442	-0.234368	-469.153	6.216282E-5	NaN
719	1.000000	0.972969	7.37209e+06	-41139.1	1005.82	-29787.1	0.000000	0.000000	6.973160	-0.035204	NaN	0.000000	0.001580	0.001753	28.0841	0.048033	0.001999	24.024	-153.422	20.5493	0.032443	0.971581	-0.224691	-0.226079	-0.035204	24.024	-0.223592	-316.921	0.000111	NaN
719	1.000000	0.982951	7.37209e+06	-41139.1	1005.82	-29787.1	0.000000	0.000000	6.983140	-0.066477	NaN	0.000000	0.001595	0.001743	28.0839	0.068883	0.002135	32.2599	46.8153	-165.893	-0.020422	0.981628	-0.214709	-0.216032	-0.066477	32.2599	-0.213164	-215.746	0.000308	NaN
719	1.000000	0.992937	7.37209e+06	-41139.1	1005.82	-29787.1	0.000000	0.000000	6.993131	0.027971	NaN	0.000000	0.001583	0.001764	28.0838	0.089750	0.001920	46.7462	19.4557	18.5954	-0.067635	0.991574	-0.204723	-0.206086	0.027971	46.7462	-0.205171	-160.086	-0.000175	NaN
719	1.000000	1.002943	7.37209e+06	-41139.1	1005.82	-29787.1	0.000000	0.000000	7.003135	-0.011041	NaN	0.000000	0.001582	0.001777	28.0834	0.072124	0.002030	35.5337	-1.212134	-163.892	-0.057227	1.001617	-0.194717	-0.196043	-0.011041	35.5337	-0.194484	-106.819	0.000103	NaN
719	1.000000	1.012945	7.37209e+06	-41139.1	1005.82	-29787.1	0.000000	0.000000	7.013136	-0.030713	NaN	0.000000	0.001545	0.001755	28.0826	0.067512	0.001913	35.2847	-140.898	16.16	-0.042720	1.011589	-0.184715	-0.186071	-0.030713	35.2847	-0.184062	-71.5007	0.000430	NaN
719	1.000000	1.022946	7.37209e+06	-41139.1	1005.82	-29787.1	0.000000	0.000000	7.023137	-0.014177	NaN	0.000000	0.001585	0.001788	28.0824	0.103856	0.001967	52.7864	111.112	-163.509	-0.010554	1.021652	-0.174714	-0.176009	-0.014177	52.7864	-0.174513	-49.1586	0.000288	NaN
719	1.000000	1.032961	7.37209e+06	-41139.1	1005.82	-29787.1	0.000000	0.000000	7.033152	-0.043769	NaN	0.000000	0.001609	0.001793	28.0825	0.031981	0.001985	16.1078	174.723	10.7989	-0.044956	1.031632	-0.164699	-0.166028	-0.043769	16.1078	-0.162661	-30.5572	0.001432	NaN
719	1.000000	1.042944	7.37209e+06	-41139.1	1005.82	-29787.1	0.000000	0.000000	7.043133	-0.085361	NaN	0.000000	0.001671	0.001800	28.0822	0.120742	0.002055	58.7662	0.324049	-164.83	-0.094073	1.041625	-0.154716	-0.156036	-0.085361	58.7662	-0.153626	-21.0773	0.004050	NaN
719	1.000000	1.052951	7.37209e+06	-41139.1	1005.82	-29787.1	0.000000	0.000000	7.053141	-0.069341	NaN	0.000000	0.001609	0.001773	28.0827	0.074859	0.002082	35.9588	-10.9751	16.071	-0.040483	1.051584	-0.144709	-0.146076	-0.069341	35.9588	-0.143262	-13.6125	0.005094	NaN
719	1.000000	1.062988	7.37209e+06	-41139.1	1005.82	-29787.1	0.000000	0.000000	7.063176	-0.087687	NaN	0.000000	0.001635	0.001827	28.0821	0.099742	0.002028	49.1843	-86.1795	-166.236	-0.019171	1.061658	-0.134673	-0.136002	-0.087687	49.1843	-0.133335	-8.839372	0.009920	NaN
719	1.000000	1.072972	7.37209e+06	-41139.1	1005.82	-29787.1	0.000000	0.000000	7.073163	-0.011644	NaN	0.000000	0.001633	0.001805	28.0823	0.047542	0.001969	24.1441	131.096	13.8825	-0.053391	1.071565	-0.124688	-0.126095	-0.011644	24.1441	-0.124327	-5.897327	0.001974	NaN
719	1.000000	1.082990	7.37209e+06	-41139.1	1005.82	-29787.1	0.000000	0.000000	7.083179	-0.076182	NaN	0.000000	0.001634	0.001783	28.0823	0.095342	0.002015	47.3271	-176.829	-165.278	-0.074645	1.081627	-0.114670	-0.116033	-0.076182	47.3271	-0.113463	-3.550668	0.021456	NaN
719	1.000000	1.092991	7.37209e+06	-41139.1	1005.82	-29787.1	0.000000	0.000000	7.093184	0.015044	NaN	0.000000	0.001624	0.001793	28.0825	0.082365	0.002054	40.0907	-80.8625	13.1319	-0.090304	1.091578	-0.104669	-0.106082	0.015044	40.0907	-0.104950	-2.344776	-0.006416	NaN
719	1.000000	1.102980	7.37209e+06	-41139.1	1005.82	-29787.1	0.000000	0.000000	7.103171	-0.025510	NaN	0.000000	0.001609	0.001791	28.0822	0.164040	0.001927	85.1481	-13.7431	-163.687	-0.014663	1.101679	-0.094680	-0.095981	-0.025510	85.1481	-0.094456	-1.370857	0.018609	NaN
719	1.000000	1.113006	7.37209e+06	-41139.1	1005.82	-29787.1	0.000000	0.000000	7.113194	-0.087695	NaN	0.000000	0.001589	0.001800	28.0822	0.073996	0.001936	38.2296	134.751	17.4106	-0.101007	1.111671	-0.084655	-0.085989	-0.087695	38.2296	-0.082934	-0.731723	0.119847	NaN
719	1.000000	1.122980	7.37209e+06	-41139.1	1005.82	-29787.1	0.000000	0.000000	7.123170	-0.055846	NaN	0.000000	0.001659	0.001814	28.0823	0.056397	0.001968	28.657	162.228	-165.676	-0.035476	1.121728	-0.074680	-0.075932	-0.055846	28.657	-0.073218	-0.415082	0.134542	NaN
719	1.000000	1.132977	7.37209e+06	-41139.1	1005.82	-29787.1	0.000000	0.000000	7.133168	-0.012952	NaN	0.000000	0.001636	0.001782	28.0824	0.069749	0.001938	35.9877	9.728801	12.6222	0.019862	1.131693	-0.064683	-0.065967	-0.012952	35.9877	-0.064413	-0.240034	0.053959	NaN
719	1.000000	1.143015	7.37209e+06	-41139.1	1005.82	-29787.1	0.000000	0.000000	7.143205	-0.042626	NaN	0.000000	0.001608	0.001804	28.0835	0.098551	0.001920	51.3217	-167.679	-168.939	-0.022450	1.141699	-0.054645	-0.055961	-0.042626	51.3217	-0.054022	-0.120465	0.353846	NaN
719	1.000000	1.153010	7.37209e+06	-41139.1	1005.82	-29787.1	0.000000	0.000000	7.153199	-0.058008	NaN	0.000000	0.001607	0.001788	28.0836	0.145578	0.001895	76.8248	88.745	14.0862	-0.010458	1.151640	-0.044650	-0.046020	-0.058008	76.8248	-0.044084	-0.060254	0.962734	NaN
719	1.000000	1.163030	7.37209e+06	-41139.1	1005.82	-29787.1	0.000000	0.000000	7.163222	0.013868	NaN	0.000000	0.001663	0.001758	28.0838	0.080100	0.002054	38.997	39.2129	-165.84	0.039141	1.161619	-0.034630	-0.036041	0.013868	38.997	-0.034897	-0.031801	-0.436087	NaN
719	1.000000	1.173035	7.37209e+06	-41139.1	1005.82	-29787.1	0.000000	0.000000	7.173229	0.049262	NaN	0.000000	0.001651	0.001778	28.0836	0.093711	0.002179	42.9978	55.0805	14.3706	0.012686	1.171632	-0.024625	-0.026028	0.049262	42.9978	-0.025484	-0.017370	-2.835964	NaN
719	1.000000	1.183034	7.37209e+06	-41139.1	1005.82	-29787.1	0.000000	0.000000	7.183237	0.273470	NaN	0.000000	0.001645	0.001786	28.0837	0.300406	0.002017	148.912	46.3644	-166.168	0.243517	1.181699	-0.014626	-0.015961	0.273470	148.912	-0.016004	-0.009885	-27.6643	NaN
719	1.000000	1.193028	7.37209e+06	-41139.1	1005.82	-29787.1	0.000000	0.000000	7.193231	0.279825	NaN	0.000000	0.001688	0.001750	28.0837	0.492635	0.001955	252.037	33.2357	17.6799	0.430426	1.191675	-0.004632	-0.005985	0.279825	252.037	-0.005465	-0.003707	-75.487	NaN
719	1.000000	1.202907	7.37209e+06	-41139.1	1005.82	-29787.1	0.000000	0.000000	7.203401	7.336092	NaN	0.000000	0.001684	0.001759	28.0839	7.614841	0.001693	4498.42	14.2194	-173.743	5.975020	1.201683	0.005247	0.004023	7.336092	4498.42	0.004024	0.003260	2250.34	71982
719	2.000000	1.206223	7.37209e+06	-41139.1	1005.82	-29787.1	0.000000	0.000000	7.206836	10.2372	NaN	0.000000	0.001674	0.001784	28.0837	10.5791	0.001674	6319.45	9.473994	6.908161	9.878348	1.205807	0.008563	0.008147	10.2372	6319.45	0.007348	0.006381	1604.39	72279.7
719	2.000000	1.208593	7.37209e+06	-41139.1	1005.82	-29787.1	0.000000	0.000000	7.209322	13.0662	NaN	0.000000	0.001595	0.001793	28.084	12.8995	0.001751	7366.62	5.431457	-170.41	12.4465	1.208341	0.010933	0.010680	13.0662	7366.62	0.009602	0.008743	1494.48	71980.1
719	2.000000	1.211136	7.37209e+06	-41139.1	1005.82	-29787.1	0.000000	0.000000	7.212020	16.8378	NaN	0.000000	0.001619	0.001763	28.0841	16.0382	0.001901	8436.34	8.498425	5.366963	16.3736	1.210813	0.013476	0.013153	16.8378	8436.34	0.011979	0.011465	1468.65	71985.3
719	2.000000	1.213628	7.37209e+06	-41139.1	1005.82	-29787.1	0.000000	0.000000	7.214775	23.2286	NaN	0.000000	0.001625	0.001781	28.0838	18.622	0.001823	10212.2	7.901472	-176.384	22.7637	1.213318	0.015968	0.015658	23.2286	10212.2	0.014262	0.014314	1622.81	77985.8
719	2.000000	1.216128	7.37209e+06	-41139.1	1005.82	-29787.1	0.000000	0.000000	7.217558	30.1172	NaN	0.000000	0.001577	0.001749	28.0837	20.3011	0.001730	11732.7	9.282122	1.548784	29.789	1.215721	0.018468	0.018061	30.1172	11732.7	0.016543	0.017398	1731.04	81267.6
719	2.000000	1.218605	7.37209e+06	-41139.1	1005.82	-29787.1	0.000000	0.000000	7.220206	34.2835	NaN	0.000000	0.001574	0.001771	28.0837	22.3228	0.001736	12859.6	7.973640	-178.507	33.8027	1.218268	0.020945	0.020608	34.2835	12859.6	0.018945	0.020912	1639.43	81246.3
719	2.000000	1.221109	7.37209e+06	-41139.1	1005.82	-29787.1	0.000000	0.000000	7.222890	38.667	NaN	0.000000	0.001590	0.001778	28.0839	25.1366	0.001786	14074.2	8.660605	0.580869	40.4527	1.220682	0.023449	0.023022	38.667	14074.2	0.021389	0.024772	1560.93	81699.5
719	2.000000	1.223585	7.37209e+06	-41139.1	1005.82	-29787.1	0.000000	0.000000	7.225663	45.8896	NaN	0.000000	0.001606	0.001781	28.0825	27.8425	0.001900	14653.5	7.873120	-179.96	46.5542	1.223240	0.025925	0.025580	45.8896	14653.5	0.023576	0.028476	1611.52	79336.7
719	2.000000	1.226073	7.37209e+06	-41139.1	1005.82	-29787.1	0.000000	0.000000	7.228484	54.005	NaN	0.000000	0.001613	0.001762	28.0826	29.9983	0.001689	17756.1	5.265969	0.436377	52.8243	1.225638	0.028413	0.027978	54.005	17756.1	0.026132	0.033107	1631.23	89158
719	2.000000	1.228537	7.37209e+06	-41139.1	1005.82	-29787.1	0.000000	0.000000	7.231125	58.3063	NaN	0.000000	0.001601	0.001736	28.0828	31.5652	0.001839	17165.4	8.245588	178.48	58.656	1.228292	0.030877	0.030632	58.3063	17165.4	0.028330	0.037353	1560.97	81146
719	2.000000	1.231053	7.37209e+06	-41139.1	1005.82	-29787.1	0.000000	0.000000	7.233953	65.8813	NaN	0.000000	0.001620	0.001757	28.0826	33.4819	0.001770	18915.9	5.263904	0.819907	64.928	1.230585	0.033393	0.032925	65.8813	18915.9	0.030781	0.042378	1554.6	83951.4
719	2.000000	1.233544	7.37209e+06	-41139.1	1005.82	-29787.1	0.000000	0.000000	7.236707	72.2804	NaN	0.000000	0.001584	0.001779	28.0825	35.9756	0.001651	21792.5	3.608521	-179.84	70.772	1.233321	0.035884	0.035661	72.2804	21792.5	0.033397	0.048078	1503.39	90804.3
719	2.000000	1.236062	7.37209e+06	-41139.1	1005.82	-29787.1	0.000000	0.000000	7.239627	82.0802	NaN	0.000000	0.001579	0.001767	28.0826	37.9558	0.001765	21509.7	7.426562	-2.358472	80.1495	1.235717	0.038402	0.038057	82.0802	21509.7	0.035540	0.053011	1548.35	85353.8
719	2.000000	1.238482	7.37209e+06	-41139.1	1005.82	-29787.1	0.000000	0.000000	7.242450	91.8836	NaN	0.000000	0.001611	0.001789	28.0828	39.5799	0.001616	24486.9	0.779175	-178.006	88.3452	1.238217	0.040822	0.040557	91.8836	24486.9	0.038008	0.058981	1557.85	92119.5
719	2.000000	1.241104	7.37209e+06	-41139.1	1005.82	-29787.1	0.000000	0.000000	7.245402	99.9306	NaN	0.000000	0.001608	0.001750	28.0828	43.58	0.001805	24139.6	4.466030	-0.645093	99.8854	1.240605	0.043444	0.042945	99.9306	24139.6	0.040339	0.064907	1539.6	86568.1
719	2.000000	1.243474	7.37209e+06	-41139.1	1005.82	-29787.1	0.000000	0.000000	7.248301	112.779	NaN	0.000000	0.001616	0.001751	28.0827	46.2787	0.001802	25683.8	5.770291	176.941	110.17	1.243212	0.045814	0.045552	112.779	25683.8	0.042521	0.070705	1595.06	88248.4
719	2.000000	1.246063	7.37209e+06	-41139.1	1005.82	-29787.1	0.000000	0.000000	7.251587	129.739	NaN	0.000000	0.001623	0.001756	28.0825	48.7797	0.001813	26900.2	5.090695	-2.173503	128.34	1.245637	0.048403	0.047977	129.739	26900.2	0.044786	0.076980	1685.36	88580.7
719	2.000000	1.248488	7.37209e+06	-41139.1	1005.82	-29787.1	0.000000	0.000000	7.254477	141.065	NaN	0.000000	0.001580	0.001744	28.0828	51.421	0.001754	29312.4	4.826852	176.697	138.147	1.248144	0.050828	0.050484	141.065	29312.4	0.047218	0.084010	1679.15	92397.5
719	2.000000	1.251039	7.37209e+06	-41139.1	1005.82	-29787.1	0.000000	0.000000	7.257414	150.458	NaN	0.000000	0.001587	0.001751	28.0826	53.3612	0.001713	31150.2	5.643157	-5.015832	149.027	1.250599	0.053379	0.052939	150.458	31150.2	0.049756	0.091661	1641.46	94002.9
719	2.000000	1.253520	7.37209e+06	-41139.1	1005.82	-29787.1	0.000000	0.000000	7.260549	166.363	NaN	0.000000	0.001562	0.001721	28.0825	57.1682	0.001828	31272.8	7.533242	173.15	165.557	1.253267	0.055860	0.055607	166.363	31272.8	0.051870	0.098281	1692.73	91139.1
719	2.000000	1.256005	7.37209e+06	-41139.1	1005.82	-29787.1	0.000000	0.000000	7.263490	177.454	NaN	0.000000	0.001596	0.001756	28.0829	58.091	0.001639	35439.2	3.714881	-3.846992	173.904	1.255776	0.058345	0.058116	177.454	35439.2	0.054590	0.107126	1656.49	98925.7
719	2.000000	1.258491	7.37209e+06	-41139.1	1005.82	-29787.1	0.000000	0.000000	7.266604	192.741	NaN	0.000000	0.001598	0.001781	28.0841	60.701	0.001753	34621.3	3.874055	175.236	189.585	1.258283	0.060831	0.060623	192.741	34621.3	0.056656	0.114089	1689.39	93647
719	2.000000	1.260972	7.37209e+06	-41139.1	1005.82	-29787.1	0.000000	0.000000	7.270016	215.388	NaN	0.000000	0.001601	0.001800	28.0837	64.8029	0.001773	36550.4	4.141042	-4.438289	211.725	1.260640	0.063312	0.062980	215.388	36550.4	0.058892	0.121866	1767.41	95658.5
719	2.000000	1.263485	7.37209e+06	-41139.1	1005.82	-29787.1	0.000000	0.000000	7.273164	230.846	NaN	0.000000	0.001631	0.001807	28.084	67.8102	0.001838	36898.7	3.616297	176.575	227.793	1.263126	0.065825	0.065466	230.846	36898.7	0.061133	0.129902	1777.08	93535.8
719	2.000000	1.265986	7.37209e+06	-41139.1	1005.82	-29787.1	0.000000	0.000000	7.276270	245.579	NaN	0.000000	0.001634	0.001780	28.0839	69.5798	0.001887	36872	3.890782	-3.348853	240.799	1.265657	0.068326	0.067997	245.579	36872	0.063330	0.138021	1779.28	90677
719	2.000000	1.268522	7.37209e+06	-41139.1	1005.82	-29787.1	0.000000	0.000000	7.279250	256.386	NaN	0.000000	0.001637	0.001759	28.0842	72.7525	0.001787	40708.4	7.457928	171.066	254.989	1.268273	0.070862	0.070613	256.386	40708.4	0.066138	0.148734	1723.79	96438.9
719	2.000000	1.270931	7.37209e+06	-41139.1	1005.82	-29787.1	0.000000	0.000000	7.282721	282.207	NaN	0.000000	0.001664	0.001737	28.0838	75.2939	0.001859	40509.2	5.458323	-6.816563	275.725	1.270590	0.073271	0.072930	282.207	40509.2	0.068046	0.156229	1806.37	93636.7
719	2.000000	1.273399	7.37209e+06	-41139.1	1005.82	-29787.1	0.000000	0.000000	7.285899	299.484	NaN	0.000000	0.001649	0.001733	28.084	77.0616	0.001810	42566.8	2.067212	176.147	294.552	1.273204	0.075739	0.075544	299.484	42566.8	0.070462	0.165974	1804.41	95460.6
719	2.000000	1.275927	7.37209e+06	-41139.1	1005.82	-29787.1	0.000000	0.000000	7.289067	315.057	NaN	0.000000	0.001642	0.001758	28.0837	80.4984	0.001806	44564.2	9.864758	-11.3502	307.915	1.275600	0.078267	0.077940	315.057	44564.2	0.072965	0.176358	1786.46	96953.2
719	2.000000	1.278463	7.37209e+06	-41139.1	1005.82	-29787.1	0.000000	0.000000	7.292317	332.438	NaN	0.000000	0.001652	0.001741	28.0842	81.1436	0.001636	49594.5	1.926753	175.446	329.631	1.278092	0.080802	0.080432	332.438	49594.5	0.075775	0.188371	1764.8	104400
719	2.000000	1.280947	7.37209e+06	-41139.1	1005.82	-29787.1	0.000000	0.000000	7.295763	355.849	NaN	0.000000	0.001612	0.001729	28.0837	85.6974	0.001732	49471.2	8.449922	-10.5252	351.981	1.280521	0.083287	0.082861	355.849	49471.2	0.077892	0.197666	1800.25	101662
719	2.000000	1.283457	7.37209e+06	-41139.1	1005.82	-29787.1	0.000000	0.000000	7.299022	374.081	NaN	0.000000	0.001695	0.001763	28.084	88.1755	0.001792	49216.2	3.732613	173.931	369.932	1.283242	0.085797	0.085582	374.081	49216.2	0.080096	0.207565	1802.23	98696.9
719	2.000000	1.285962	7.37209e+06	-41139.1	1005.82	-29787.1	0.000000	0.000000	7.302633	400.975	NaN	0.000000	0.001699	0.001742	28.0838	89.5983	0.001786	50178.4	6.432459	-8.409665	396.277	1.285543	0.088302	0.087882	400.975	50178.4	0.082308	0.217730	1841.62	98249.8
719	2.000000	1.288588	7.37209e+06	-41139.1	1005.82	-29787.1	0.000000	0.000000	7.305756	413.069	NaN	0.000000	0.001706	0.001750	28.0838	93.6346	0.001813	51649	7.049935	169.892	418.839	1.288279	0.090928	0.090619	413.069	51649	0.084930	0.230067	1795.43	98380.2
719	2.000000	1.291046	7.37209e+06	-41139.1	1005.82	-29787.1	0.000000	0.000000	7.309413	442.238	NaN	0.000000	0.001711	0.001738	28.0825	95.8325	0.001811	52906.1	5.057881	-7.825837	441.767	1.290563	0.093386	0.092903	442.238	52906.1	0.087117	0.240605	1838.03	98543.2
719	2.000000	1.293490	7.37209e+06	-41139.1	1005.82	-29787.1	0.000000	0.000000	7.312880	467.155	NaN	0.000000	0.001668	0.001723	28.0825	98.3879	0.001765	55731.7	8.043653	169.072	464.07	1.293008	0.095830	0.095348	467.155	55731.7	0.089543	0.252548	1849.76	101322
719	2.000000	1.295969	7.37209e+06	-41139.1	1005.82	-29787.1	0.000000	0.000000	7.316210	487.839	NaN	0.000000	0.001667	0.001704	28.0828	101.477	0.001875	54133	8.424722	-10.9054	482.609	1.295484	0.098309	0.097824	487.839	54133	0.091550	0.262636	1857.47	96506.9
719	2.000000	1.298452	7.37209e+06	-41139.1	1005.82	-29787.1	0.000000	0.000000	7.319125	498.355	NaN	0.000000	0.001608	0.001729	28.0826	102.226	0.001790	57125	1.840536	174.459	495.62	1.298264	0.100792	0.100604	498.355	57125	0.094249	0.276490	1802.44	99256.7
719	2.000000	1.300905	7.37209e+06	-41139.1	1005.82	-29787.1	0.000000	0.000000	7.322958	531.937	NaN	0.000000	0.001566	0.001766	28.0825	105.923	0.001854	57135	6.078785	-9.799435	525.394	1.300531	0.103245	0.102871	531.937	57135	0.096262	0.287042	1853.17	97432.2
719	2.000000	1.302446	7.37209e+06	-41139.1	1005.82	-29787.1	0.000000	0.000000	7.324857	540.642	NaN	0.000000	0.001571	0.001716	28.0824	105.476	0.001830	57642.7	2.504025	174.018	538.459	1.302170	0.104786	0.104510	540.642	57642.7	0.097751	0.294964	1832.91	96969