File: remote_trans/data/nanoindenter/0828-1/data/Data_2025-08-06,11h17m57s/2025-07-22_16-23-58_1_1090.txt
2025-07-22, 16:23:58, 1
Index	Phase	Displacement	Time	Pos X	Pos Y	Pos Z	Rot A	Rot B	Piezo Z	Force A	Force B	Gripper	Voltage A	Voltage B	Temperature	Amplitude force	Amplitude pos	Stiffness	Phase shift	Phase excitation	Force A raw	Displacement raw	HMax	HMax raw	Real Force	Real Stiffness	Contact Depth	Area	Hardness	Reduced Mod.
[#]	[#]	[um]	[s]	[um]	[um]	[um]	[m°]	[m°]	[um]	[uN]	[uN]	[V]	[V]	[V]	[°C]	[uN]	[um]	[N/m]	[°]	[°]	[uN]	[um]	[um]	[um]	[uN]	[N/m]	[um]	[um^2]	[MPa]	[MPa]
1090	1.000000	0.002638	7.37571e+06	-54639.1	1055.82	-29743.2	0.000000	0.000000	6.002800	0.083363	NaN	0.000000	0.001575	0.001626	28.0834	0.192187	0.001055	182.13	176.228	-172.363	0.021087	0.001320	-1.018653	-1.019970	0.083363	182.13	-1.018996	-4.087354E+13	-2.039540E-15	NaN
1090	1.000000	0.010603	7.37571e+06	-54639.1	1055.82	-29743.2	0.000000	0.000000	6.010765	0.082862	NaN	0.000000	0.001566	0.001633	28.0833	0.087480	0.000963	90.7972	-168.237	-164.33	0.052197	0.009268	-1.010687	-1.012023	0.082862	90.7972	-1.011372	-3.227342E+13	-2.567510E-15	NaN
1090	1.000000	0.018596	7.37571e+06	-54639.1	1055.82	-29743.2	0.000000	0.000000	6.018756	0.036422	NaN	0.000000	0.001553	0.001615	28.0834	0.047561	0.001768	26.9013	116.286	-165.394	-0.051981	0.017248	-1.002694	-1.004042	0.036422	26.9013	-1.003709	-2.545111E+13	-1.431073E-15	NaN
1090	1.000000	0.026600	7.37571e+06	-54639.1	1055.82	-29743.2	0.000000	0.000000	6.026761	0.065068	NaN	0.000000	0.001599	0.001637	28.0837	0.018050	0.001857	9.719939	-126.627	-165.544	0.122936	0.025324	-0.994690	-0.995966	0.065068	9.719939	-0.999711	-2.248413E+13	-2.893974E-15	NaN
1090	1.000000	0.034605	7.37571e+06	-54639.1	1055.82	-29743.2	0.000000	0.000000	6.034763	5.088134E-6	NaN	0.000000	0.001618	0.001681	28.0835	0.019944	0.001954	10.2085	-164.206	-165.936	0.056190	0.033259	-0.986686	-0.988031	5.088134E-6	10.2085	-0.986686	-1.501339E+13	-3.389065E-19	NaN
1090	1.000000	0.042600	7.37572e+06	-54639.1	1055.82	-29743.2	0.000000	0.000000	6.042761	0.050514	NaN	0.000000	0.001566	0.001637	28.0824	0.069119	0.002060	33.546	151.119	-168.781	0.069601	0.041285	-0.978690	-0.980006	0.050514	33.546	-0.979820	-1.213331E+13	-4.163291E-15	NaN
1090	1.000000	0.050605	7.37572e+06	-54639.1	1055.82	-29743.2	0.000000	0.000000	6.050763	0.000172	NaN	0.000000	0.001616	0.001630	28.0823	0.020420	0.001976	10.3315	-78.9875	-164.831	-0.022294	0.049320	-0.970686	-0.971970	0.000172	10.3315	-0.970698	-9.142665E+12	-1.876573E-17	NaN
1090	1.000000	0.058582	7.37572e+06	-54639.1	1055.82	-29743.2	0.000000	0.000000	6.058742	0.051216	NaN	0.000000	0.001629	0.001631	28.0822	0.023214	0.002092	11.0955	-65.1289	-165.26	0.034534	0.057220	-0.962709	-0.964070	0.051216	11.0955	-0.966170	-7.944177E+12	-6.446945E-15	NaN
1090	1.000000	0.066604	7.37572e+06	-54639.1	1055.82	-29743.2	0.000000	0.000000	6.066765	0.052340	NaN	0.000000	0.001576	0.001631	28.0823	0.033191	0.002023	16.4089	83.7394	-166.87	0.077689	0.065261	-0.954686	-0.956029	0.052340	16.4089	-0.957079	-5.990790E+12	-8.736751E-15	NaN
1090	1.000000	0.074576	7.37572e+06	-54639.1	1055.82	-29743.2	0.000000	0.000000	6.074734	-0.009599	NaN	0.000000	0.001574	0.001643	28.0822	0.062521	0.002122	29.4573	-60.6674	-167.207	-0.002188	0.073272	-0.946714	-0.948018	-0.009599	29.4573	-0.946470	-4.309387E+12	2.227436E-15	NaN
1090	1.000000	0.082593	7.37572e+06	-54639.1	1055.82	-29743.2	0.000000	0.000000	6.082753	0.026662	NaN	0.000000	0.001576	0.001644	28.0822	0.070358	0.002050	34.3154	178.693	-165.302	-0.019891	0.081344	-0.938697	-0.939946	0.026662	34.3154	-0.939280	-3.446872E+12	-7.735060E-15	NaN
1090	1.000000	0.090595	7.37572e+06	-54639.1	1055.82	-29743.2	0.000000	0.000000	6.090755	0.029335	NaN	0.000000	0.001556	0.001646	28.0819	0.138159	0.002053	67.2959	-97.2572	-165.329	0.004598	0.089253	-0.930696	-0.932038	0.029335	67.2959	-0.931023	-2.666842E+12	-1.099985E-14	NaN
1090	1.000000	0.098621	7.37572e+06	-54639.1	1055.82	-29743.2	0.000000	0.000000	6.098783	0.084369	NaN	0.000000	0.001599	0.001631	28.0821	0.044317	0.002000	22.1572	21.7185	-165.298	0.048576	0.097312	-0.922669	-0.923978	0.084369	22.1572	-0.925525	-2.247996E+12	-3.753079E-14	NaN
1090	1.000000	0.106587	7.37572e+06	-54639.1	1055.82	-29743.2	0.000000	0.000000	6.106744	-0.033901	NaN	0.000000	0.001597	0.001610	28.0821	0.087527	0.002041	42.8921	-31.6842	-164.782	0.004290	0.105317	-0.914704	-0.915973	-0.033901	42.8921	-0.914111	-1.576466E+12	2.150437E-14	NaN
1090	1.000000	0.114624	7.37572e+06	-54639.1	1055.82	-29743.2	0.000000	0.000000	6.114785	0.042054	NaN	0.000000	0.001583	0.001646	28.082	0.076887	0.002125	36.1827	116.507	-166.01	0.039413	0.113363	-0.906666	-0.907927	0.042054	36.1827	-0.907538	-1.284995E+12	-3.272677E-14	NaN
1090	1.000000	0.122608	7.37572e+06	-54639.1	1055.82	-29743.2	0.000000	0.000000	6.122767	0.021980	NaN	0.000000	0.001570	0.001657	28.082	0.073469	0.001942	37.8346	12.8489	-166.559	0.076432	0.121297	-0.898683	-0.899993	0.021980	37.8346	-0.899118	-9.889055E+11	-2.222620E-14	NaN
1090	1.000000	0.130621	7.37572e+06	-54639.1	1055.82	-29743.2	0.000000	0.000000	6.130780	0.010970	NaN	0.000000	0.001580	0.001623	28.0819	0.089817	0.001953	45.9784	-50.2313	-165.148	0.102519	0.129257	-0.890670	-0.892033	0.010970	45.9784	-0.890849	-7.645159E+11	-1.434869E-14	NaN
1090	1.000000	0.138636	7.37572e+06	-54639.1	1055.82	-29743.2	0.000000	0.000000	6.138796	0.041147	NaN	0.000000	0.001574	0.001671	28.0823	0.138731	0.001840	75.3839	-156.751	-167.621	0.006478	0.137325	-0.882654	-0.883966	0.041147	75.3839	-0.883064	-5.999825E+11	-6.858101E-14	NaN
1090	1.000000	0.146665	7.37572e+06	-54639.1	1055.82	-29743.2	0.000000	0.000000	6.146827	0.083386	NaN	0.000000	0.001552	0.001657	28.0819	0.006581	0.002089	3.150243	-81.7832	-165.041	0.046877	0.145277	-0.874626	-0.876013	0.083386	3.150243	-0.894478	-8.559350E+11	-9.742124E-14	NaN
1090	1.000000	0.154615	7.37572e+06	-54639.1	1055.82	-29743.2	0.000000	0.000000	6.154776	0.056980	NaN	0.000000	0.001555	0.001621	28.0817	0.101619	0.001920	52.9283	62.1468	-164.871	0.152453	0.153326	-0.866675	-0.867964	0.056980	52.9283	-0.867483	-3.693052E+11	-1.542887E-13	NaN
1090	1.000000	0.162654	7.37572e+06	-54639.1	1055.82	-29743.2	0.000000	0.000000	6.162813	-0.000298	NaN	0.000000	0.001576	0.001685	28.0816	0.089122	0.001941	45.9228	-134.311	-167.075	-2.075751E-5	0.161329	-0.858636	-0.859962	-0.000298	45.9228	-0.858631	-2.802802E+11	1.063964E-15	NaN
1090	1.000000	0.170654	7.37572e+06	-54639.1	1055.82	-29743.2	0.000000	0.000000	6.170814	0.028055	NaN	0.000000	0.001569	0.001664	28.0818	0.034563	0.002053	16.8394	-66.4481	-168.072	0.112211	0.169323	-0.850636	-0.851967	0.028055	16.8394	-0.851886	-2.271277E+11	-1.235207E-13	NaN
1090	1.000000	0.178632	7.37572e+06	-54639.1	1055.82	-29743.2	0.000000	0.000000	6.178796	0.120190	NaN	0.000000	0.001529	0.001618	28.0834	0.105136	0.001991	52.8126	-126.168	-163.758	0.113956	0.177344	-0.842658	-0.843946	0.120190	52.8126	-0.844365	-1.796475E+11	-6.690299E-13	NaN
1090	1.000000	0.186640	7.37572e+06	-54639.1	1055.82	-29743.2	0.000000	0.000000	6.186803	0.100599	NaN	0.000000	0.001564	0.001614	28.083	0.069950	0.002065	33.8737	-41.1148	-166.403	0.074299	0.185397	-0.834650	-0.835893	0.100599	33.8737	-0.836878	-1.422288E+11	-7.073068E-13	NaN
1090	1.000000	0.194651	7.37572e+06	-54639.1	1055.82	-29743.2	0.000000	0.000000	6.194809	0.001497	NaN	0.000000	0.001551	0.001594	28.0831	0.021045	0.002042	10.3045	10.5522	-168.612	0.000748	0.193378	-0.826640	-0.827912	0.001497	10.3045	-0.826748	-1.036836E+11	-1.443570E-14	NaN
1090	1.000000	0.202637	7.37572e+06	-54639.1	1055.82	-29743.2	0.000000	0.000000	6.202798	0.044131	NaN	0.000000	0.001555	0.001578	28.083	0.051617	0.002034	25.3797	-77.7414	-166.084	0.033225	0.201309	-0.818653	-0.819981	0.044131	25.3797	-0.819957	-8.387440E+10	-5.261586E-13	NaN
1090	1.000000	0.210641	7.37572e+06	-54639.1	1055.82	-29743.2	0.000000	0.000000	6.210802	0.062478	NaN	0.000000	0.001639	0.001597	28.0831	0.116784	0.001840	63.474	112.114	-166.591	-0.030157	0.209366	-0.810650	-0.811924	0.062478	63.474	-0.811388	-6.417990E+10	-9.734841E-13	NaN
1090	1.000000	0.218647	7.37572e+06	-54639.1	1055.82	-29743.2	0.000000	0.000000	6.218807	0.037096	NaN	0.000000	0.001668	0.001581	28.0832	0.030345	0.001961	15.4743	145.876	-163.755	0.034822	0.217359	-0.802644	-0.803931	0.037096	15.4743	-0.804442	-5.165908E+10	-7.180834E-13	NaN
1090	1.000000	0.226676	7.37572e+06	-54639.1	1055.82	-29743.2	0.000000	0.000000	6.226835	0.013164	NaN	0.000000	0.001650	0.001590	28.0829	0.128852	0.001969	65.4351	9.898348	-164.5	-0.019201	0.225337	-0.794615	-0.795954	0.013164	65.4351	-0.794766	-3.817672E+10	-3.448121E-13	NaN
1090	1.000000	0.234631	7.37572e+06	-54639.1	1055.82	-29743.2	0.000000	0.000000	6.234793	0.074977	NaN	0.000000	0.001671	0.001566	28.0835	0.076085	0.001975	38.5212	63.6256	-166.884	0.011585	0.233370	-0.786659	-0.787920	0.074977	38.5212	-0.788119	-3.101232E+10	-2.417657E-12	NaN
1090	1.000000	0.242658	7.37572e+06	-54639.1	1055.82	-29743.2	0.000000	0.000000	6.242821	0.118578	NaN	0.000000	0.001638	0.001610	28.0829	0.100576	0.002045	49.188	37.1359	-166.742	0.125409	0.241307	-0.778632	-0.779983	0.118578	49.188	-0.780440	-2.439031E+10	-4.861676E-12	NaN
1090	1.000000	0.250682	7.37572e+06	-54639.1	1055.82	-29743.2	0.000000	0.000000	6.250844	0.076506	NaN	0.000000	0.001658	0.001615	28.0836	0.030637	0.002009	15.2465	-6.395327	-163.608	0.034259	0.249341	-0.770608	-0.771949	0.076506	15.2465	-0.774371	-2.017127E+10	-3.792831E-12	NaN
1090	1.000000	0.258686	7.37572e+06	-54639.1	1055.82	-29743.2	0.000000	0.000000	6.258846	0.051204	NaN	0.000000	0.001665	0.001619	28.083	0.079103	0.002069	38.2319	162.961	-162.424	0.052218	0.257325	-0.762605	-0.763965	0.051204	38.2319	-0.763609	-1.440120E+10	-3.555546E-12	NaN
1090	1.000000	0.266691	7.37572e+06	-54639.1	1055.82	-29743.2	0.000000	0.000000	6.266848	-0.039919	NaN	0.000000	0.001674	0.001604	28.083	0.069324	0.001974	35.1253	-8.827861	-167.319	-0.003899	0.265287	-0.754599	-0.756003	-0.039919	35.1253	-0.753747	-1.057339E+10	3.775386E-12	NaN
1090	1.000000	0.274682	7.37572e+06	-54639.1	1055.82	-29743.2	0.000000	0.000000	6.274843	0.062157	NaN	0.000000	0.001622	0.001613	28.0834	0.078581	0.002022	38.8663	24.2015	-168.203	0.081712	0.273357	-0.746608	-0.747933	0.062157	38.8663	-0.747808	-8.777664E+9	-7.081293E-12	NaN
1090	1.000000	0.282688	7.37572e+06	-54639.1	1055.82	-29743.2	0.000000	0.000000	6.282851	0.088124	NaN	0.000000	0.001607	0.001557	28.083	0.075293	0.002015	37.3671	-23.629	-166.738	0.053540	0.281344	-0.738602	-0.739946	0.088124	37.3671	-0.740371	-6.951933E+9	-1.267626E-11	NaN
1090	1.000000	0.290708	7.37572e+06	-54639.1	1055.82	-29743.2	0.000000	0.000000	6.290868	0.026462	NaN	0.000000	0.001577	0.001599	28.0835	0.075233	0.002079	36.1874	-91.6808	-167.199	0.102318	0.289393	-0.730582	-0.731897	0.026462	36.1874	-0.731130	-5.202501E+9	-5.086377E-12	NaN
1090	1.000000	0.298673	7.37572e+06	-54639.1	1055.82	-29743.2	0.000000	0.000000	6.298834	0.066060	NaN	0.000000	0.001585	0.001611	28.0829	0.063760	0.001999	31.893	-94.0389	-166.534	0.010806	0.297379	-0.722618	-0.723912	0.066060	31.893	-0.724171	-4.181692E+9	-1.579751E-11	NaN
1090	1.000000	0.306676	7.37572e+06	-54639.1	1055.82	-29743.2	0.000000	0.000000	6.306838	0.079627	NaN	0.000000	0.001602	0.001614	28.0829	0.079387	0.002024	39.2182	38.9608	-166.598	0.016140	0.305404	-0.714614	-0.715887	0.079627	39.2182	-0.716137	-3.249241E+9	-2.450639E-11	NaN
1090	1.000000	0.314715	7.37572e+06	-54639.1	1055.82	-29743.2	0.000000	0.000000	6.314874	-0.007220	NaN	0.000000	0.001593	0.001618	28.0817	0.163088	0.002097	77.7702	-17.5978	-163.637	0.012806	0.313369	-0.706575	-0.707921	-0.007220	77.7702	-0.706505	-2.400779E+9	3.007502E-12	NaN
1090	1.000000	0.322677	7.37572e+06	-54639.1	1055.82	-29743.2	0.000000	0.000000	6.322835	-0.028842	NaN	0.000000	0.001619	0.001626	28.0816	0.066701	0.002075	32.1482	-142.799	-168.56	-0.040235	0.321365	-0.698613	-0.699925	-0.028842	32.1482	-0.697940	-1.834008E+9	1.572595E-11	NaN
1090	1.000000	0.330722	7.37572e+06	-54639.1	1055.82	-29743.2	0.000000	0.000000	6.330881	0.015288	NaN	0.000000	0.001599	0.001625	28.0818	0.031513	0.002019	15.6073	0.928219	-166.135	-0.010547	0.329409	-0.690568	-0.691881	0.015288	15.6073	-0.691303	-1.488411E+9	-1.027112E-11	NaN
1090	1.000000	0.338718	7.37572e+06	-54639.1	1055.82	-29743.2	0.000000	0.000000	6.338878	0.036366	NaN	0.000000	0.001636	0.001691	28.0817	0.021277	0.001928	11.0331	130.164	-165.626	-0.038680	0.337421	-0.682572	-0.683869	0.036366	11.0331	-0.685044	-1.222310E+9	-2.975169E-11	NaN
1090	1.000000	0.346711	7.37572e+06	-54639.1	1055.82	-29743.2	0.000000	0.000000	6.346871	0.027745	NaN	0.000000	0.001612	0.001659	28.0818	0.018084	0.002032	8.898731	87.5062	-162.839	-0.006398	0.345431	-0.674579	-0.675859	0.027745	8.898731	-0.676917	-9.463244E+8	-2.931820E-11	NaN
1090	1.000000	0.354679	7.37572e+06	-54639.1	1055.82	-29743.2	0.000000	0.000000	6.354839	0.025752	NaN	0.000000	0.001595	0.001678	28.0819	0.084603	0.002031	41.6622	82.1459	-169.491	0.109260	0.353411	-0.666611	-0.667879	0.025752	41.6622	-0.667075	-6.939832E+8	-3.710717E-11	NaN
1090	1.000000	0.362699	7.37572e+06	-54639.1	1055.82	-29743.2	0.000000	0.000000	6.362855	-0.039404	NaN	0.000000	0.001609	0.001654	28.0818	0.091133	0.001976	46.1115	32.1595	-166.124	-0.029298	0.361386	-0.658592	-0.659904	-0.039404	46.1115	-0.657951	-5.204734E+8	7.570788E-11	NaN
1090	1.000000	0.370685	7.37572e+06	-54639.1	1055.82	-29743.2	0.000000	0.000000	6.370849	0.132037	NaN	0.000000	0.001633	0.001640	28.0817	0.099851	0.002075	48.1102	-82.7152	-163.122	0.154723	0.369382	-0.650605	-0.651908	0.132037	48.1102	-0.652664	-4.405005E+8	-2.997425E-10	NaN
1090	1.000000	0.378739	7.37572e+06	-54639.1	1055.82	-29743.2	0.000000	0.000000	6.378899	0.052248	NaN	0.000000	0.001614	0.001655	28.0816	0.041638	0.001913	21.7672	-92.8717	-166.484	-0.005282	0.377402	-0.642552	-0.643888	0.052248	21.7672	-0.644352	-3.388350E+8	-1.541999E-10	NaN
1090	1.000000	0.386713	7.37572e+06	-54639.1	1055.82	-29743.2	0.000000	0.000000	6.386873	0.038573	NaN	0.000000	0.001598	0.001647	28.0818	0.076904	0.002007	38.327	-7.329832	-165.473	0.019752	0.385424	-0.634578	-0.635866	0.038573	38.327	-0.635332	-2.548204E+8	-1.513738E-10	NaN
1090	1.000000	0.394746	7.37572e+06	-54639.1	1055.82	-29743.2	0.000000	0.000000	6.394908	0.085597	NaN	0.000000	0.001588	0.001692	28.0818	0.050344	0.002132	23.6183	-57.6279	-164.18	0.121880	0.393391	-0.626544	-0.627899	0.085597	23.6183	-0.629262	-2.103252E+8	-4.069735E-10	NaN
1090	1.000000	0.402733	7.37572e+06	-54639.1	1055.82	-29743.2	0.000000	0.000000	6.402893	0.037652	NaN	0.000000	0.001591	0.001682	28.0818	0.111310	0.001966	56.6259	-0.387326	-167.936	0.021546	0.401413	-0.618557	-0.619877	0.037652	56.6259	-0.619056	-1.522859E+8	-2.472452E-10	NaN
1090	1.000000	0.410760	7.37572e+06	-54639.1	1055.82	-29743.2	0.000000	0.000000	6.410922	0.085087	NaN	0.000000	0.001634	0.001657	28.0817	0.076160	0.002063	36.9143	60.5483	-167.998	0.112224	0.409490	-0.610530	-0.611800	0.085087	36.9143	-0.612259	-1.227981E+8	-6.929018E-10	NaN
1090	1.000000	0.418741	7.37572e+06	-54639.1	1055.82	-29743.2	0.000000	0.000000	6.418905	0.118065	NaN	0.000000	0.001625	0.001637	28.0821	0.052892	0.002082	25.4054	13.6679	-165.575	0.040255	0.417451	-0.602549	-0.603839	0.118065	25.4054	-0.606034	-1.008193E+8	-1.171058E-9	NaN
1090	1.000000	0.426736	7.37572e+06	-54639.1	1055.82	-29743.2	0.000000	0.000000	6.426898	0.087977	NaN	0.000000	0.001587	0.001657	28.0817	0.087937	0.001973	44.568	2.201746	-166.65	0.082155	0.425434	-0.594554	-0.595857	0.087977	44.568	-0.596035	-7.342378E+7	-1.198206E-9	NaN
1090	1.000000	0.434732	7.37572e+06	-54639.1	1055.82	-29743.2	0.000000	0.000000	6.434893	0.061884	NaN	0.000000	0.001590	0.001662	28.0816	0.014970	0.001923	7.785883	59.6675	-167.639	0.148190	0.433445	-0.586558	-0.587846	0.061884	7.785883	-0.592519	-6.567444E+7	-9.422783E-10	NaN
1090	1.000000	0.442739	7.37572e+06	-54639.1	1055.82	-29743.2	0.000000	0.000000	6.442898	0.004593	NaN	0.000000	0.001578	0.001644	28.0819	0.103668	0.002079	49.8574	-68.9714	-165.287	-0.024291	0.441408	-0.578551	-0.579883	0.004593	49.8574	-0.578620	-4.223609E+7	-1.087530E-10	NaN
1090	1.000000	0.450743	7.37572e+06	-54639.1	1055.82	-29743.2	0.000000	0.000000	6.450903	0.041252	NaN	0.000000	0.001575	0.001694	28.0832	0.040692	0.001964	20.7172	-1.987793	-169.494	0.092434	0.449459	-0.570548	-0.571831	0.041252	20.7172	-0.572041	-3.426334E+7	-1.203966E-9	NaN
1090	1.000000	0.458787	7.37572e+06	-54639.1	1055.82	-29743.2	0.000000	0.000000	6.458948	0.065846	NaN	0.000000	0.001595	0.001670	28.0829	0.077996	0.001930	40.418	142.609	-166.146	0.063570	0.457420	-0.562504	-0.563870	0.065846	40.418	-0.563726	-2.629690E+7	-2.503950E-9	NaN
1090	1.000000	0.466786	7.37572e+06	-54639.1	1055.82	-29743.2	0.000000	0.000000	6.466948	0.090785	NaN	0.000000	0.001567	0.001649	28.0829	0.033824	0.001962	17.2372	-128.151	-168.77	0.052447	0.465437	-0.554505	-0.555853	0.090785	17.2372	-0.558455	-2.223308E+7	-4.083341E-9	NaN
1090	1.000000	0.474771	7.37572e+06	-54639.1	1055.82	-29743.2	0.000000	0.000000	6.474933	0.084883	NaN	0.000000	0.001570	0.001649	28.0829	0.068205	0.002080	32.7918	-19.0363	-167.51	0.116585	0.473466	-0.546520	-0.547824	0.084883	32.7918	-0.548461	-1.616738E+7	-5.250286E-9	NaN
1090	1.000000	0.482775	7.37572e+06	-54639.1	1055.82	-29743.2	0.000000	0.000000	6.482937	0.085009	NaN	0.000000	0.001601	0.001683	28.083	0.171108	0.002014	84.9384	-161.867	-164.014	0.025382	0.481497	-0.538515	-0.539794	0.085009	84.9384	-0.539266	-1.205530E+7	-7.051598E-9	NaN
1090	1.000000	0.490775	7.37572e+06	-54639.1	1055.82	-29743.2	0.000000	0.000000	6.490935	0.039070	NaN	0.000000	0.001611	0.001640	28.0831	0.030568	0.001993	15.3348	-1.577745	-168.119	0.047786	0.489488	-0.530515	-0.531803	0.039070	15.3348	-0.532426	-9.68867e+06	-4.032577E-9	NaN
1090	1.000000	0.498776	7.37572e+06	-54639.1	1055.82	-29743.2	0.000000	0.000000	6.498937	0.063945	NaN	0.000000	0.001605	0.001687	28.0832	0.132042	0.002043	64.6351	-141.609	-166.616	0.014846	0.497484	-0.522515	-0.523806	0.063945	64.6351	-0.523257	-7.22568e+06	-8.849688E-9	NaN
1090	1.000000	0.506742	7.37572e+06	-54639.1	1055.82	-29743.2	0.000000	0.000000	6.506903	0.062576	NaN	0.000000	0.001600	0.001691	28.0828	0.026656	0.002009	13.2692	-133	-167.396	0.070286	0.505492	-0.514548	-0.515799	0.062576	13.2692	-0.518085	-6.12302e+06	-1.021982E-8	NaN
1090	1.000000	0.514763	7.37572e+06	-54639.1	1055.82	-29743.2	0.000000	0.000000	6.514922	0.028368	NaN	0.000000	0.001587	0.001658	28.083	0.140035	0.001999	70.0448	9.873698	-164.128	0.006347	0.513464	-0.506528	-0.507826	0.028368	70.0448	-0.506831	-4.26844e+06	-6.646052E-9	NaN
1090	1.000000	0.522785	7.37572e+06	-54639.1	1055.82	-29743.2	0.000000	0.000000	6.522944	0.009924	NaN	0.000000	0.001575	0.001668	28.083	0.121300	0.002065	58.7457	92.0442	-170.866	-0.037203	0.521491	-0.498506	-0.499799	0.009924	58.7457	-0.498632	-3.28046e+06	-3.025173E-9	NaN
1090	1.000000	0.530789	7.37572e+06	-54639.1	1055.82	-29743.2	0.000000	0.000000	6.530949	0.038099	NaN	0.000000	0.001610	0.001649	28.0828	0.137638	0.001984	69.3726	-111.919	-166.278	0.038679	0.529494	-0.490502	-0.491797	0.038099	69.3726	-0.490913	-2.55951e+06	-1.488510E-8	NaN
1090	1.000000	0.538807	7.37572e+06	-54639.1	1055.82	-29743.2	0.000000	0.000000	6.538967	0.042743	NaN	0.000000	0.001630	0.001675	28.0832	0.031969	0.002033	15.7212	32.9155	-166.264	-0.027369	0.537474	-0.482484	-0.483816	0.042743	15.7212	-0.484523	-2.0836e+06	-2.051423E-8	NaN
1090	1.000000	0.546801	7.37572e+06	-54639.1	1055.82	-29743.2	0.000000	0.000000	6.546960	0.004444	NaN	0.000000	0.001611	0.001662	28.0832	0.091755	0.001963	46.7477	87.7642	-166.189	0.012736	0.545492	-0.474489	-0.475798	0.004444	46.7477	-0.474560	-1.51126e+06	-2.940589E-9	NaN
1090	1.000000	0.554799	7.37572e+06	-54639.1	1055.82	-29743.2	0.000000	0.000000	6.554960	0.047379	NaN	0.000000	0.001604	0.001679	28.0832	0.086384	0.001942	44.472	170.62	-167.968	0.103909	0.553469	-0.466491	-0.467821	0.047379	44.472	-0.467290	-1.19506e+06	-3.964559E-8	NaN
1090	1.000000	0.562810	7.37572e+06	-54639.1	1055.82	-29743.2	0.000000	0.000000	6.562971	0.051042	NaN	0.000000	0.001599	0.001665	28.0833	0.048890	0.001961	24.9263	-9.759309	-165.899	0.023528	0.561518	-0.458480	-0.459772	0.051042	24.9263	-0.460016	-944590	-5.403603E-8	NaN
1090	1.000000	0.570815	7.37572e+06	-54639.1	1055.82	-29743.2	0.000000	0.000000	6.570977	0.096072	NaN	0.000000	0.001557	0.001662	28.0832	0.068089	0.002057	33.1053	22.1913	-165.223	0.054130	0.569468	-0.450476	-0.451823	0.096072	33.1053	-0.452652	-744186	-1.290968E-7	NaN
1090	1.000000	0.578814	7.37572e+06	-54639.1	1055.82	-29743.2	0.000000	0.000000	6.578976	0.085654	NaN	0.000000	0.001590	0.001656	28.0832	0.004416	0.002148	2.055650	147.382	-168.488	0.021398	0.577467	-0.442477	-0.443824	0.085654	2.055650	-0.473727	-1.47117e+06	-5.822128E-8	NaN
1090	1.000000	0.586814	7.37572e+06	-54639.1	1055.82	-29743.2	0.000000	0.000000	6.586974	0.032772	NaN	0.000000	0.001605	0.001676	28.082	0.080865	0.001961	41.2459	-68.1308	-167.164	-0.036215	0.585493	-0.434476	-0.435797	0.032772	41.2459	-0.435072	-420504	-7.793572E-8	NaN
1090	1.000000	0.594821	7.37572e+06	-54639.1	1055.82	-29743.2	0.000000	0.000000	6.594982	0.058585	NaN	0.000000	0.001593	0.001679	28.0821	0.070044	0.001969	35.5736	-92.0419	-164.588	0.061950	0.593501	-0.426469	-0.427790	0.058585	35.5736	-0.427704	-330807	-1.770956E-7	NaN
1090	1.000000	0.602818	7.37572e+06	-54639.1	1055.82	-29743.2	0.000000	0.000000	6.602980	0.073196	NaN	0.000000	0.001596	0.001688	28.0819	0.079741	0.002149	37.0996	78.3931	-165.366	-0.057388	0.601470	-0.418472	-0.419820	0.073196	37.0996	-0.419952	-256881	-2.849410E-7	NaN
1090	1.000000	0.610841	7.37572e+06	-54639.1	1055.82	-29743.2	0.000000	0.000000	6.611000	0.017318	NaN	0.000000	0.001612	0.001674	28.0819	0.034603	0.001863	18.5765	-72.1005	-166.684	0.019832	0.609492	-0.410450	-0.411799	0.017318	18.5765	-0.411149	-192635	-8.989942E-8	NaN
1090	1.000000	0.618796	7.37572e+06	-54639.1	1055.82	-29743.2	0.000000	0.000000	6.618958	0.081430	NaN	0.000000	0.001656	0.001663	28.0822	0.088774	0.002063	43.0401	-106.394	-164.508	0.072302	0.617472	-0.402495	-0.403818	0.081430	43.0401	-0.403914	-151976	-5.358112E-7	NaN
1090	1.000000	0.626854	7.37572e+06	-54639.1	1055.82	-29743.2	0.000000	0.000000	6.627016	0.091353	NaN	0.000000	0.001628	0.001673	28.0823	0.038003	0.001988	19.1177	-123.717	-166.784	0.095040	0.625495	-0.394436	-0.395795	0.091353	19.1177	-0.398020	-125242	-7.294127E-7	NaN
1090	1.000000	0.634854	7.37572e+06	-54639.1	1055.82	-29743.2	0.000000	0.000000	6.635015	0.046859	NaN	0.000000	0.001654	0.001683	28.0822	0.202965	0.001896	107.042	174.672	-168.946	0.185081	0.633571	-0.386436	-0.387720	0.046859	107.042	-0.386765	-86469.1	-5.419171E-7	NaN
1090	1.000000	0.642814	7.37572e+06	-54639.1	1055.82	-29743.2	0.000000	0.000000	6.642976	0.076512	NaN	0.000000	0.001655	0.001693	28.0822	0.044548	0.001934	23.0314	-141.851	-167.735	0.051510	0.641552	-0.378476	-0.379739	0.076512	23.0314	-0.380968	-71412.3	-1.071409E-6	NaN
1090	1.000000	0.650833	7.37572e+06	-54639.1	1055.82	-29743.2	0.000000	0.000000	6.650994	0.067288	NaN	0.000000	0.001663	0.001731	28.0818	0.121340	0.001944	62.4154	156.787	-169.406	0.065543	0.649562	-0.370457	-0.371729	0.067288	62.4154	-0.371266	-51802.7	-1.298920E-6	NaN
1090	1.000000	0.658852	7.37572e+06	-54639.1	1055.82	-29743.2	0.000000	0.000000	6.659012	0.040835	NaN	0.000000	0.001622	0.001731	28.0818	0.086723	0.002067	41.95	-91.3879	-167.005	0.038848	0.657582	-0.362438	-0.363709	0.040835	41.95	-0.363168	-39592.8	-1.031384E-6	NaN
1090	1.000000	0.666810	7.37572e+06	-54639.1	1055.82	-29743.2	0.000000	0.000000	6.666970	0.031704	NaN	0.000000	0.001670	0.001706	28.0819	0.088706	0.002029	43.7104	-41.3057	-166.284	0.006206	0.665510	-0.354480	-0.355780	0.031704	43.7104	-0.355024	-30189.1	-1.050180E-6	NaN
1090	1.000000	0.674855	7.37572e+06	-54639.1	1055.82	-29743.2	0.000000	0.000000	6.675013	-0.004974	NaN	0.000000	0.001667	0.001690	28.0819	0.115674	0.001968	58.7775	-64.6781	-165.792	0.018976	0.673542	-0.346436	-0.347748	-0.004974	58.7775	-0.346372	-22610.5	2.199887E-7	NaN
1090	1.000000	0.682867	7.37572e+06	-54639.1	1055.82	-29743.2	0.000000	0.000000	6.683026	0.030741	NaN	0.000000	0.001696	0.001723	28.0821	0.062692	0.001956	32.048	131.846	-164.403	0.037147	0.681504	-0.338424	-0.339786	0.030741	32.048	-0.339143	-17744.4	-1.732429E-6	NaN
1090	1.000000	0.690849	7.37572e+06	-54639.1	1055.82	-29743.2	0.000000	0.000000	6.691009	0.046775	NaN	0.000000	0.001702	0.001657	28.0821	0.087026	0.001901	45.7837	-157.416	-165.902	0.028816	0.689575	-0.330442	-0.331716	0.046775	45.7837	-0.331208	-13587.4	-3.442499E-6	NaN
1090	1.000000	0.698866	7.37572e+06	-54639.1	1055.82	-29743.2	0.000000	0.000000	6.699025	0.008205	NaN	0.000000	0.001706	0.001701	28.0818	0.140246	0.001955	71.7357	-54.0726	-163.445	0.012078	0.697542	-0.322425	-0.323748	0.008205	71.7357	-0.322510	-10129	-8.100777E-7	NaN
1090	1.000000	0.706861	7.37572e+06	-54639.1	1055.82	-29743.2	0.000000	0.000000	6.707022	0.066939	NaN	0.000000	0.001713	0.001699	28.0822	0.075909	0.002009	37.7911	22.1454	-162.306	0.078776	0.705524	-0.314430	-0.315766	0.066939	37.7911	-0.315758	-8056.24	-8.308918E-6	NaN
1090	1.000000	0.714868	7.37572e+06	-54639.1	1055.82	-29743.2	0.000000	0.000000	6.715030	0.077535	NaN	0.000000	0.001693	0.001732	28.0819	0.096643	0.002090	46.2351	54.5157	-166.772	0.117149	0.713588	-0.306422	-0.307703	0.077535	46.2351	-0.307680	-6119.25	-1.267074E-5	NaN
1090	1.000000	0.722884	7.37572e+06	-54639.1	1055.82	-29743.2	0.000000	0.000000	6.723043	0.011243	NaN	0.000000	0.001659	0.001697	28.0832	0.019744	0.002039	9.685328	105.969	-169.833	-0.001551	0.721570	-0.298407	-0.299720	0.011243	9.685328	-0.299277	-4590.65	-2.449077E-6	NaN
1090	1.000000	0.730874	7.37572e+06	-54639.1	1055.82	-29743.2	0.000000	0.000000	6.731037	0.091247	NaN	0.000000	0.001671	0.001675	28.0833	0.016965	0.001908	8.890814	155.54	-165.697	0.059123	0.729540	-0.290416	-0.291750	0.091247	8.890814	-0.298113	-4410.95	-2.068638E-5	NaN
1090	1.000000	0.738868	7.37572e+06	-54639.1	1055.82	-29743.2	0.000000	0.000000	6.739032	0.148589	NaN	0.000000	0.001690	0.001701	28.0833	0.011296	0.001898	5.952265	-9.519489	-166.433	0.171096	0.737587	-0.282423	-0.283703	0.148589	5.952265	-0.301145	-4894.15	-3.036061E-5	NaN
1090	1.000000	0.746870	7.37572e+06	-54639.1	1055.82	-29743.2	0.000000	0.000000	6.747032	0.101418	NaN	0.000000	0.001646	0.001663	28.0833	0.055899	0.001874	29.8226	-68.7116	-166.052	0.021954	0.745584	-0.274421	-0.275706	0.101418	29.8226	-0.276971	-2124.35	-4.774057E-5	NaN
1090	1.000000	0.754881	7.37572e+06	-54639.1	1055.82	-29743.2	0.000000	0.000000	6.755040	0.030928	NaN	0.000000	0.001672	0.001738	28.0831	0.007583	0.002031	3.733887	155.164	-165.993	0.069774	0.753569	-0.266410	-0.267721	0.030928	3.733887	-0.272622	-1825.42	-1.694317E-5	NaN
1090	1.000000	0.762911	7.37572e+06	-54639.1	1055.82	-29743.2	0.000000	0.000000	6.763071	0.028542	NaN	0.000000	0.001679	0.001749	28.0831	0.039325	0.002086	18.8542	-20.0068	-164.453	-0.046059	0.761547	-0.258379	-0.259744	0.028542	18.8542	-0.259515	-1152.06	-2.477459E-5	NaN
1090	1.000000	0.770909	7.37572e+06	-54639.1	1055.82	-29743.2	0.000000	0.000000	6.771071	0.081119	NaN	0.000000	0.001673	0.001726	28.0832	0.024495	0.002156	11.3636	-29.2724	-166.469	0.096938	0.769561	-0.250381	-0.251729	0.081119	11.3636	-0.255735	-1007.93	-8.048085E-5	NaN
1090	1.000000	0.778914	7.37572e+06	-54639.1	1055.82	-29743.2	0.000000	0.000000	6.779074	0.035772	NaN	0.000000	0.001667	0.001701	28.0831	0.114227	0.001975	57.8466	121.576	-167.643	0.092347	0.777557	-0.242376	-0.243733	0.035772	57.8466	-0.242840	-636.575	-5.619382E-5	NaN
1090	1.000000	0.786883	7.37572e+06	-54639.1	1055.82	-29743.2	0.000000	0.000000	6.787042	0.011835	NaN	0.000000	0.001650	0.001683	28.0831	0.107692	0.002082	51.732	44.3222	-164.869	0.019881	0.785580	-0.234408	-0.235711	0.011835	51.732	-0.234579	-472.762	-2.503386E-5	NaN
1090	1.000000	0.794909	7.37572e+06	-54639.1	1055.82	-29743.2	0.000000	0.000000	6.795068	0.017673	NaN	0.000000	0.001618	0.001697	28.083	0.010269	0.001971	5.209252	165.488	-166.641	0.010036	0.793590	-0.226381	-0.227700	0.017673	5.209252	-0.228926	-385.077	-4.589559E-5	NaN
1090	1.000000	0.802908	7.37572e+06	-54639.1	1055.82	-29743.2	0.000000	0.000000	6.803068	0.023687	NaN	0.000000	0.001606	0.001696	28.0832	0.082815	0.002079	39.8336	114.26	-167.174	0.102155	0.801606	-0.218382	-0.219684	0.023687	39.8336	-0.218828	-266.034	-8.903930E-5	NaN
1090	1.000000	0.810893	7.37572e+06	-54639.1	1055.82	-29743.2	0.000000	0.000000	6.811052	0.022657	NaN	0.000000	0.001651	0.001719	28.0834	0.112067	0.002031	55.1829	-122.226	-165.07	0.072537	0.809612	-0.210397	-0.211678	0.022657	55.1829	-0.210705	-196.896	-0.000115	NaN
1090	1.000000	0.818927	7.37572e+06	-54639.1	1055.82	-29743.2	0.000000	0.000000	6.819086	0.024372	NaN	0.000000	0.001637	0.001724	28.0834	0.125665	0.001982	63.3973	-58.6307	-164.888	-0.052702	0.817638	-0.202364	-0.203652	0.024372	63.3973	-0.202652	-145.612	-0.000167	NaN
1090	1.000000	0.826914	7.37572e+06	-54639.1	1055.82	-29743.2	0.000000	0.000000	6.827074	0.045097	NaN	0.000000	0.001651	0.001700	28.0831	0.028217	0.002031	13.8939	-133.089	-166.226	0.056378	0.825620	-0.194377	-0.195671	0.045097	13.8939	-0.196811	-116.723	-0.000386	NaN
1090	1.000000	0.834935	7.37572e+06	-54639.1	1055.82	-29743.2	0.000000	0.000000	6.835096	0.053211	NaN	0.000000	0.001677	0.001691	28.0831	0.094169	0.002040	46.167	-140.137	-165.946	0.137454	0.833605	-0.186355	-0.187685	0.053211	46.167	-0.187220	-80.8102	-0.000658	NaN
1090	1.000000	0.842907	7.37572e+06	-54639.1	1055.82	-29743.2	0.000000	0.000000	6.843070	0.087113	NaN	0.000000	0.001641	0.001694	28.0833	0.115606	0.001996	57.9203	-7.841648	-166.477	0.103627	0.841556	-0.178383	-0.179735	0.087113	57.9203	-0.179511	-59.8608	-0.001455	NaN
1090	1.000000	0.850924	7.37572e+06	-54639.1	1055.82	-29743.2	0.000000	0.000000	6.851083	0.014316	NaN	0.000000	0.001669	0.001682	28.0832	0.090783	0.001920	47.2743	173.374	-166.295	0.016271	0.849584	-0.170367	-0.171707	0.014316	47.2743	-0.170594	-42.0646	-0.000340	NaN
1090	1.000000	0.858886	7.37572e+06	-54639.1	1055.82	-29743.2	0.000000	0.000000	6.859049	0.100101	NaN	0.000000	0.001648	0.001638	28.082	0.102854	0.001863	55.2104	84.0183	-166.365	0.037149	0.857592	-0.162404	-0.163698	0.100101	55.2104	-0.163764	-31.9569	-0.003132	NaN
1090	1.000000	0.866943	7.37572e+06	-54639.1	1055.82	-29743.2	0.000000	0.000000	6.867101	-0.002117	NaN	0.000000	0.001664	0.001677	28.0819	0.085592	0.002058	41.5837	-156.915	-166.882	0.011396	0.865563	-0.154348	-0.155728	-0.002117	41.5837	-0.154309	-21.6841	9.764701E-5	NaN
1090	1.000000	0.874950	7.37572e+06	-54639.1	1055.82	-29743.2	0.000000	0.000000	6.875110	0.029684	NaN	0.000000	0.001628	0.001678	28.082	0.066326	0.001987	33.3749	-56.6197	-166.133	0.058746	0.873590	-0.146340	-0.147700	0.029684	33.3749	-0.147007	-15.966	-0.001859	NaN
1090	1.000000	0.882916	7.37572e+06	-54639.1	1055.82	-29743.2	0.000000	0.000000	6.883075	0.023758	NaN	0.000000	0.001675	0.001696	28.0818	0.039764	0.001950	20.3949	68.4774	-166.738	0.008023	0.881660	-0.138375	-0.139630	0.023758	20.3949	-0.139248	-11.4506	-0.002075	NaN
1090	1.000000	0.890961	7.37572e+06	-54639.1	1055.82	-29743.2	0.000000	0.000000	6.891119	-0.003798	NaN	0.000000	0.001684	0.001716	28.0818	0.040890	0.002109	19.3926	-60.4201	-164.801	-0.037218	0.889601	-0.130329	-0.131690	-0.003798	19.3926	-0.130182	-7.683388	0.000494	NaN
1090	1.000000	0.898937	7.37572e+06	-54639.1	1055.82	-29743.2	0.000000	0.000000	6.899098	0.039483	NaN	0.000000	0.001667	0.001642	28.082	0.006247	0.002108	2.962995	-174.745	-166.516	0.132816	0.897672	-0.122353	-0.123619	0.039483	2.962995	-0.132347	-8.460753	-0.004667	NaN
1090	1.000000	0.906941	7.37572e+06	-54639.1	1055.82	-29743.2	0.000000	0.000000	6.907104	0.111895	NaN	0.000000	0.001652	0.001664	28.0815	0.038925	0.001949	19.9693	28.5982	-167.815	0.056230	0.905583	-0.114350	-0.115707	0.111895	19.9693	-0.118552	-4.516235	-0.024776	NaN
1090	1.000000	0.914929	7.37572e+06	-54639.1	1055.82	-29743.2	0.000000	0.000000	6.915088	0.020087	NaN	0.000000	0.001673	0.001679	28.0821	0.103241	0.001882	54.8612	175.426	-167.68	0.054516	0.913647	-0.106361	-0.107644	0.020087	54.8612	-0.106636	-2.549004	-0.007880	NaN
1090	1.000000	0.922932	7.37572e+06	-54639.1	1055.82	-29743.2	0.000000	0.000000	6.923094	0.092318	NaN	0.000000	0.001645	0.001687	28.0819	0.027349	0.002005	13.6424	117.071	-164.015	0.005103	0.921687	-0.098359	-0.099603	0.092318	13.6424	-0.103434	-2.173748	-0.042470	NaN
1090	1.000000	0.930942	7.37572e+06	-54639.1	1055.82	-29743.2	0.000000	0.000000	6.931103	0.057187	NaN	0.000000	0.001663	0.001666	28.0816	0.084511	0.002015	41.9319	-140.445	-166.622	0.036047	0.929666	-0.090348	-0.091624	0.057187	41.9319	-0.091371	-1.163742	-0.049140	NaN
1090	1.000000	0.938946	7.37572e+06	-54639.1	1055.82	-29743.2	0.000000	0.000000	6.939106	0.038642	NaN	0.000000	0.001662	0.001673	28.082	0.027449	0.001981	13.8535	-48.6316	-167.004	0.063691	0.937667	-0.082344	-0.083623	0.038642	13.8535	-0.084436	-0.796179	-0.048534	NaN
1090	1.000000	0.946963	7.37572e+06	-54639.1	1055.82	-29743.2	0.000000	0.000000	6.947125	0.072794	NaN	0.000000	0.001681	0.001670	28.0819	0.083115	0.001968	42.2402	-111.783	-163.694	0.087610	0.945622	-0.074327	-0.075669	0.072794	42.2402	-0.075620	-0.479197	-0.151908	NaN
1090	1.000000	0.954963	7.37572e+06	-54639.1	1055.82	-29743.2	0.000000	0.000000	6.955122	0.016602	NaN	0.000000	0.001632	0.001652	28.0825	0.129279	0.002057	62.8349	163.715	-165.435	0.047930	0.953638	-0.066328	-0.067653	0.016602	62.8349	-0.066526	-0.274588	-0.060462	NaN
1090	1.000000	0.962948	7.37572e+06	-54639.1	1055.82	-29743.2	0.000000	0.000000	6.963110	0.083858	NaN	0.000000	0.001658	0.001653	28.0818	0.116281	0.001971	58.9942	143.688	-168.031	0.039143	0.961654	-0.058342	-0.059637	0.083858	58.9942	-0.059408	-0.173175	-0.484237	NaN
1090	1.000000	0.970962	7.37572e+06	-54639.1	1055.82	-29743.2	0.000000	0.000000	6.971120	-0.016705	NaN	0.000000	0.001663	0.001655	28.0819	0.175104	0.001954	89.6185	-137.438	-167.145	0.007001	0.969632	-0.050328	-0.051659	-0.016705	89.6185	-0.050189	-0.092456	0.180678	NaN
1090	1.000000	0.978947	7.37572e+06	-54639.1	1055.82	-29743.2	0.000000	0.000000	6.979106	0.019507	NaN	0.000000	0.001644	0.001652	28.0819	0.058814	0.002015	29.1846	-147.995	-167.54	0.005219	0.977718	-0.042344	-0.043572	0.019507	29.1846	-0.042845	-0.055219	-0.353262	NaN
1090	1.000000	0.986965	7.37572e+06	-54639.1	1055.82	-29743.2	0.000000	0.000000	6.987128	0.099159	NaN	0.000000	0.001652	0.001657	28.0818	0.032971	0.002070	15.93	74.8505	-166.883	0.062720	0.985625	-0.034325	-0.035666	0.099159	15.93	-0.038993	-0.042154	-2.352308	NaN
1090	1.000000	0.995010	7.37572e+06	-54639.1	1055.82	-29743.2	0.000000	0.000000	6.995168	-0.029222	NaN	0.000000	0.001605	0.001662	28.0831	0.026419	0.002033	12.9939	-177.372	-163.739	0.002278	0.993661	-0.026280	-0.027629	-0.029222	12.9939	-0.024593	-0.016464	1.774915	NaN
1090	1.000000	1.002974	7.37572e+06	-54639.1	1055.82	-29743.2	0.000000	0.000000	7.003134	0.040996	NaN	0.000000	0.001609	0.001646	28.0831	0.141869	0.001969	72.0606	-76.4452	-166.186	-0.056110	1.001627	-0.018317	-0.019663	0.040996	72.0606	-0.018743	-0.011666	-3.514025	NaN
1090	1.000000	1.011010	7.37572e+06	-54639.1	1055.82	-29743.2	0.000000	0.000000	7.011174	0.119622	NaN	0.000000	0.001630	0.001608	28.0833	0.132765	0.001916	69.3067	-154.149	-163.59	-0.026636	1.009674	-0.010280	-0.011616	0.119622	69.3067	-0.011574	-0.007286	-16.4189	NaN
1090	1.000000	1.018987	7.37572e+06	-54639.1	1055.82	-29743.2	0.000000	0.000000	7.019145	-0.010383	NaN	0.000000	0.001625	0.001607	28.0832	0.075508	0.001971	38.3158	-164.887	-169.151	0.059806	1.017693	-0.002303	-0.003598	-0.010383	38.3158	-0.002100	-0.001508	6.882725	NaN
1090	1.000000	1.026960	7.37572e+06	-54639.1	1055.82	-29743.2	0.000000	0.000000	7.027223	2.541296	NaN	0.000000	0.001652	0.001633	28.0831	3.149202	0.001829	1722.18	7.118183	-167.124	1.209270	1.025647	0.005670	0.004356	2.541296	1722.18	0.004563	0.003738	679.848	25735.4
1090	2.000000	1.033578	7.37572e+06	-54639.1	1055.82	-29743.2	0.000000	0.000000	7.034055	7.737845	NaN	0.000000	0.001603	0.001592	28.0832	8.378072	0.001642	5100.96	9.966454	-173.278	7.904857	1.033236	0.012288	0.011946	7.737845	5100.96	0.011150	0.010488	737.781	45507.1
1090	2.000000	1.035597	7.37572e+06	-54639.1	1055.82	-29743.2	0.000000	0.000000	7.036169	10.0581	NaN	0.000000	0.001592	0.001596	28.0831	10.9407	0.001813	6033.36	8.970226	-174.921	9.841819	1.035290	0.014306	0.014000	10.0581	6033.36	0.013056	0.012780	787.033	48760.9
1090	2.000000	1.037568	7.37572e+06	-54639.1	1055.82	-29743.2	0.000000	0.000000	7.038233	12.312	NaN	0.000000	0.001608	0.001619	28.0844	12.267	0.001798	6821.86	7.148565	-175.118	11.2791	1.037246	0.016278	0.015956	12.312	6821.86	0.014924	0.015184	810.837	50580
1090	2.000000	1.039548	7.37572e+06	-54639.1	1055.82	-29743.2	0.000000	0.000000	7.040305	14.5469	NaN	0.000000	0.001642	0.001629	28.0831	14.7565	0.001879	7854.39	11.3897	-178.347	13.7297	1.039248	0.018258	0.017957	14.5469	7854.39	0.016869	0.017859	814.548	53698.1
1090	2.000000	1.041576	7.37572e+06	-54639.1	1055.82	-29743.2	0.000000	0.000000	7.042425	16.7883	NaN	0.000000	0.001647	0.001647	28.0833	16.3849	0.001735	9441.32	9.115112	-178.025	17.9329	1.041242	0.020285	0.019952	16.7883	9441.32	0.018952	0.020922	802.435	59635.9
1090	2.000000	1.043525	7.37572e+06	-54639.1	1055.82	-29743.2	0.000000	0.000000	7.044625	22.9016	NaN	0.000000	0.001617	0.001618	28.0833	18.1287	0.001605	11295	3.408050	-176.105	22.4083	1.043177	0.022234	0.021886	22.9016	11295	0.020714	0.023676	967.288	67066.1
1090	2.000000	1.045513	7.37572e+06	-54639.1	1055.82	-29743.2	0.000000	0.000000	7.046709	25.2251	NaN	0.000000	0.001660	0.001662	28.0829	20.4536	0.001817	11254.1	6.945225	-177.375	24.4549	1.045243	0.024222	0.023953	25.2251	11254.1	0.022541	0.026694	944.964	62932.8
1090	2.000000	1.047502	7.37572e+06	-54639.1	1055.82	-29743.2	0.000000	0.000000	7.048830	28.4452	NaN	0.000000	0.001653	0.001628	28.0836	21.7596	0.001732	12560.6	5.915243	-177.636	28.6425	1.047201	0.026211	0.025911	28.4452	12560.6	0.024513	0.030136	943.905	66106.1
1090	2.000000	1.049493	7.37572e+06	-54639.1	1055.82	-29743.2	0.000000	0.000000	7.051023	33.3379	NaN	0.000000	0.001609	0.001636	28.0832	24.7359	0.001847	13393.4	11.2938	176.286	33.1314	1.049220	0.028202	0.027930	33.3379	13393.4	0.026335	0.033490	995.457	66866.1
1090	2.000000	1.051511	7.37572e+06	-54639.1	1055.82	-29743.2	0.000000	0.000000	7.053153	36.0469	NaN	0.000000	0.001587	0.001651	28.0834	26.961	0.001938	13913.1	8.053780	178.293	35.1776	1.051206	0.030221	0.029915	36.0469	13913.1	0.028278	0.037250	967.703	65862.1
1090	2.000000	1.053511	7.37572e+06	-54639.1	1055.82	-29743.2	0.000000	0.000000	7.055486	44.1639	NaN	0.000000	0.001544	0.001639	28.0832	28.0002	0.001724	16245	4.161592	-178.855	43.8109	1.053111	0.032221	0.031821	44.1639	16245	0.030182	0.041121	1074	73191.6
1090	2.000000	1.055506	7.37572e+06	-54639.1	1055.82	-29743.2	0.000000	0.000000	7.057655	48.3871	NaN	0.000000	0.001577	0.001691	28.0831	31.0586	0.001879	16529.1	5.942660	179.467	48.0716	1.055179	0.034216	0.033888	48.3871	16529.1	0.032020	0.045035	1074.43	71161.6
1090	2.000000	1.057463	7.37572e+06	-54639.1	1055.82	-29743.2	0.000000	0.000000	7.059841	53.9468	NaN	0.000000	0.001588	0.001641	28.0827	31.4998	0.001758	17920.2	4.308713	-179.035	54.5841	1.057126	0.036173	0.035836	53.9468	17920.2	0.033915	0.049250	1095.36	73775.3
1090	2.000000	1.059453	7.37572e+06	-54639.1	1055.82	-29743.2	0.000000	0.000000	7.062148	61.6575	NaN	0.000000	0.001569	0.001665	28.0818	35.0982	0.001758	19964.7	7.741108	175.481	59.7472	1.059150	0.038162	0.037859	61.6575	19964.7	0.035846	0.053735	1147.44	78687.9
1090	2.000000	1.061516	7.37572e+06	-54639.1	1055.82	-29743.2	0.000000	0.000000	7.064366	65.4253	NaN	0.000000	0.001543	0.001666	28.0821	37.4378	0.001847	20266.7	9.177526	173.972	65.6062	1.061110	0.040226	0.039820	65.4253	20266.7	0.037805	0.058478	1118.81	76570.6
1090	2.000000	1.063441	7.37572e+06	-54639.1	1055.82	-29743.2	0.000000	0.000000	7.066615	73.3011	NaN	0.000000	0.001552	0.001615	28.0819	37.7481	0.001747	21613	2.044069	179.942	72.0183	1.063205	0.042151	0.041915	73.3011	21613	0.039607	0.063017	1163.19	78660.8
1090	2.000000	1.065453	7.37572e+06	-54639.1	1055.82	-29743.2	0.000000	0.000000	7.069016	82.7582	NaN	0.000000	0.001528	0.001632	28.082	41.3681	0.001786	23156.9	5.796897	175.311	79.7119	1.065046	0.044163	0.043756	82.7582	23156.9	0.041482	0.067915	1218.55	81183.8
1090	2.000000	1.067477	7.37572e+06	-54639.1	1055.82	-29743.2	0.000000	0.000000	7.071144	85.2789	NaN	0.000000	0.001560	0.001613	28.082	42.2323	0.001736	24329.9	5.127107	176.341	86.7798	1.067207	0.046187	0.045917	85.2789	24329.9	0.043558	0.073547	1159.52	81965.5
1090	2.000000	1.069424	7.37572e+06	-54639.1	1055.82	-29743.2	0.000000	0.000000	7.073477	94.6772	NaN	0.000000	0.001536	0.001643	28.0818	44.5183	0.001708	26067.9	5.351107	175.222	91.1155	1.069069	0.048134	0.047779	94.6772	26067.9	0.045410	0.078755	1202.17	84867.1
1090	2.000000	1.071507	7.37572e+06	-54639.1	1055.82	-29743.2	0.000000	0.000000	7.075950	104.156	NaN	0.000000	0.001558	0.001662	28.0822	47.3416	0.001779	26612.1	8.594473	172.848	104.997	1.071094	0.050217	0.049803	104.156	26612.1	0.047281	0.084195	1237.08	83793.5
1090	2.000000	1.073395	7.37572e+06	-54639.1	1055.82	-29743.2	0.000000	0.000000	7.078132	111.307	NaN	0.000000	0.001579	0.001654	28.0819	48.4481	0.001791	27051.1	3.232417	177.06	108.733	1.073161	0.052105	0.051870	111.307	27051.1	0.049019	0.089404	1244.99	82657.2
1090	2.000000	1.075462	7.37572e+06	-54639.1	1055.82	-29743.2	0.000000	0.000000	7.080357	115.138	NaN	0.000000	0.001551	0.001637	28.0823	51.1034	0.001714	29820.1	6.839787	172.832	116.899	1.075169	0.054172	0.053879	115.138	29820.1	0.051276	0.096397	1194.41	87750.5
1090	2.000000	1.077404	7.37572e+06	-54639.1	1055.82	-29743.2	0.000000	0.000000	7.082967	131.361	NaN	0.000000	0.001582	0.001656	28.082	50.7953	0.001709	29720.6	-0.332638	179.441	128.642	1.077111	0.056114	0.055820	131.361	29720.6	0.052799	0.101262	1297.24	85331.5
1090	2.000000	1.079382	7.37572e+06	-54639.1	1055.82	-29743.2	0.000000	0.000000	7.085249	138.784	NaN	0.000000	0.001575	0.001669	28.0821	53.9189	0.001849	29165.5	4.700108	175.735	136.212	1.079026	0.058092	0.057736	138.784	29165.5	0.054523	0.106904	1298.22	81497.8
1090	2.000000	1.081457	7.37572e+06	-54639.1	1055.82	-29743.2	0.000000	0.000000	7.087678	147.374	NaN	0.000000	0.001591	0.001635	28.082	55.8888	0.001775	31478.7	6.099808	174.104	146.511	1.081090	0.060167	0.059799	147.374	31478.7	0.056655	0.114089	1291.75	85147
1090	2.000000	1.083392	7.37572e+06	-54639.1	1055.82	-29743.2	0.000000	0.000000	7.089907	154.539	NaN	0.000000	0.001582	0.001617	28.0819	56.8478	0.001757	32345.9	2.425716	176.164	152.638	1.083151	0.062102	0.061861	154.539	32345.9	0.058518	0.120549	1281.97	85116
1090	2.000000	1.085470	7.37572e+06	-54639.1	1055.82	-29743.2	0.000000	0.000000	7.092428	165.276	NaN	0.000000	0.001597	0.001621	28.0821	59.8975	0.001845	32456	4.990537	174.203	165.086	1.085192	0.064180	0.063901	165.276	32456	0.060361	0.127105	1300.31	83173.8
1090	2.000000	1.087403	7.37572e+06	-54639.1	1055.82	-29743.2	0.000000	0.000000	7.094645	172.2	NaN	0.000000	0.001608	0.001622	28.082	60.9071	0.001771	34395.2	4.490934	173.256	170.086	1.087218	0.066113	0.065928	172.2	34395.2	0.062358	0.134398	1281.26	85718.5
1090	2.000000	1.089352	7.37572e+06	-54639.1	1055.82	-29743.2	0.000000	0.000000	7.097062	183.573	NaN	0.000000	0.001600	0.001615	28.0821	63.5671	0.001828	34775.7	6.017129	172.006	177.546	1.088988	0.068062	0.067697	183.573	34775.7	0.064103	0.140930	1302.58	84634.4
1090	2.000000	1.091438	7.37572e+06	-54639.1	1055.82	-29743.2	0.000000	0.000000	7.099581	194.088	NaN	0.000000	0.001598	0.001625	28.0824	64.6747	0.001625	39808	3.865006	173.109	193.231	1.091142	0.070148	0.069852	194.088	39808	0.066491	0.150108	1292.99	93873.1
1090	2.000000	1.093345	7.37572e+06	-54639.1	1055.82	-29743.2	0.000000	0.000000	7.101902	204.157	NaN	0.000000	0.001568	0.001624	28.0832	66.325	0.001742	38071.9	4.478347	172.961	198.534	1.093029	0.072055	0.071738	204.157	38071.9	0.068033	0.156180	1307.19	88016.7
1090	2.000000	1.095359	7.37572e+06	-54639.1	1055.82	-29743.2	0.000000	0.000000	7.104413	216.247	NaN	0.000000	0.001634	0.001671	28.0833	69.3827	0.001701	40785.5	4.297081	172.518	211.234	1.095124	0.074068	0.073834	216.247	40785.5	0.070092	0.164461	1314.88	91885.4
1090	2.000000	1.097462	7.37572e+06	-54639.1	1055.82	-29743.2	0.000000	0.000000	7.106907	225.764	NaN	0.000000	0.001620	0.001613	28.0833	70.6708	0.001792	39446.6	6.807694	171.401	227.788	1.097033	0.076171	0.075743	225.764	39446.6	0.071879	0.171815	1313.99	86946.6
1090	2.000000	1.099326	7.37572e+06	-54639.1	1055.82	-29743.2	0.000000	0.000000	7.109370	240.303	NaN	0.000000	0.001584	0.001644	28.0837	72.2034	0.001815	39780.5	2.403481	175.468	234.451	1.099043	0.078036	0.077753	240.303	39780.5	0.073505	0.178639	1345.19	85991.6
1090	2.000000	1.101356	7.37572e+06	-54639.1	1055.82	-29743.2	0.000000	0.000000	7.111743	248.666	NaN	0.000000	0.001610	0.001640	28.0835	74.9833	0.001803	41587	4.012751	173.093	243.733	1.101096	0.080066	0.079806	248.666	41587	0.075581	0.187529	1326.01	87739.7
1090	2.000000	1.103481	7.37572e+06	-54639.1	1055.82	-29743.2	0.000000	0.000000	7.114196	256.628	NaN	0.000000	0.001602	0.001605	28.0832	75.8231	0.001683	45060.2	1.326506	175.086	259.424	1.103148	0.082190	0.081858	256.628	45060.2	0.077919	0.197785	1297.51	92569.9
1090	2.000000	1.105325	7.37572e+06	-54639.1	1055.82	-29743.2	0.000000	0.000000	7.116685	272.314	NaN	0.000000	0.001608	0.001625	28.0831	79.3741	0.001786	44439.5	0.901636	175.416	266.781	1.105070	0.084035	0.083780	272.314	44439.5	0.079439	0.204590	1331.02	89763.6
1090	2.000000	1.107426	7.37572e+06	-54639.1	1055.82	-29743.2	0.000000	0.000000	7.119177	281.815	NaN	0.000000	0.001615	0.001637	28.083	80.8467	0.001804	44826.3	6.465445	170.424	282.334	1.107015	0.086136	0.085724	281.815	44826.3	0.081421	0.213625	1319.2	88609.5
1090	2.000000	1.109375	7.37572e+06	-54639.1	1055.82	-29743.2	0.000000	0.000000	7.121687	295.437	NaN	0.000000	0.001584	0.001612	28.0833	83.6189	0.001861	44926.6	6.002492	170.713	292.688	1.109116	0.088085	0.087826	295.437	44926.6	0.083153	0.221669	1332.78	87181.5
1090	2.000000	1.111449	7.37572e+06	-54639.1	1055.82	-29743.2	0.000000	0.000000	7.124355	309.898	NaN	0.000000	0.001613	0.001614	28.0836	85.2743	0.001919	44441.6	6.419747	171.65	309.624	1.110968	0.090158	0.089678	309.898	44441.6	0.084928	0.230060	1347.03	84653
1090	2.000000	1.113351	7.37572e+06	-54639.1	1055.82	-29743.2	0.000000	0.000000	7.126939	326.477	NaN	0.000000	0.001637	0.001645	28.0833	86.4836	0.001704	50751.2	6.261333	169.042	323.283	1.112975	0.092060	0.091685	326.477	50751.2	0.087236	0.241181	1353.66	94416.5
1090	2.000000	1.115481	7.37572e+06	-54639.1	1055.82	-29743.2	0.000000	0.000000	7.129463	336.043	NaN	0.000000	0.001612	0.001616	28.0829	89.867	0.001836	48947.1	4.754686	171.643	338.9	1.115063	0.094191	0.093773	336.043	48947.1	0.089042	0.250059	1343.85	89428.9
1090	2.000000	1.117546	7.37572e+06	-54639.1	1055.82	-29743.2	0.000000	0.000000	7.132121	350.463	NaN	0.000000	0.001609	0.001618	28.083	91.0245	0.001861	48923.3	4.932221	171.138	356.678	1.117022	0.096255	0.095732	350.463	48923.3	0.090883	0.259262	1351.77	87784.9
1090	2.000000	1.119377	7.37572e+06	-54639.1	1055.82	-29743.2	0.000000	0.000000	7.134702	368.698	NaN	0.000000	0.001592	0.001647	28.0831	92.8196	0.001856	50006.2	5.332944	170.868	365.658	1.118965	0.098087	0.097674	368.698	50006.2	0.092557	0.267765	1376.95	88291.6
1090	2.000000	1.121401	7.37572e+06	-54639.1	1055.82	-29743.2	0.000000	0.000000	7.137323	383.202	NaN	0.000000	0.001609	0.001625	28.0833	94.0272	0.001638	57419.6	3.070366	172.054	383.011	1.121057	0.100111	0.099766	383.202	57419.6	0.095106	0.280957	1363.92	98972.3
1090	2.000000	1.123533	7.37572e+06	-54639.1	1055.82	-29743.2	0.000000	0.000000	7.139935	394.886	NaN	0.000000	0.001598	0.001644	28.0831	95.1591	0.001788	53210.6	5.189067	170.406	403.299	1.123064	0.102242	0.101773	394.886	53210.6	0.096677	0.289235	1365.28	90395.3
1090	2.000000	1.125366	7.37572e+06	-54639.1	1055.82	-29743.2	0.000000	0.000000	7.142564	414.245	NaN	0.000000	0.001604	0.001668	28.083	97.4209	0.001881	51790	2.083776	173.639	410.8	1.125137	0.104075	0.103847	414.245	51790	0.098076	0.296706	1396.14	86867.2
1090	2.000000	1.127418	7.37572e+06	-54639.1	1055.82	-29743.2	0.000000	0.000000	7.144932	421.906	NaN	0.000000	0.001564	0.001687	28.0819	98.3298	0.001788	54997.3	3.919367	171.129	424.298	1.127020	0.106128	0.105730	421.906	54997.3	0.100374	0.309164	1364.67	90369.2
1090	2.000000	1.129394	7.37572e+06	-54639.1	1055.82	-29743.2	0.000000	0.000000	7.147795	443.462	NaN	0.000000	0.001566	0.001640	28.0822	100.136	0.001661	60274.6	4.149151	170.507	444.558	1.129104	0.108104	0.107814	443.462	60274.6	0.102586	0.321382	1379.86	97139.7
1090	2.000000	1.131455	7.37572e+06	-54639.1	1055.82	-29743.2	0.000000	0.000000	7.150478	458.59	NaN	0.000000	0.001578	0.001624	28.0818	103.639	0.001749	59272.8	6.630126	168.34	460.389	1.131030	0.110165	0.109740	458.59	59272.8	0.104362	0.331356	1383.98	94076.5