File: remote_trans/data/nanoindenter/0828-1/data/Data_2025-08-06,11h17m57s/2025-07-22_16-23-58_1_692.txt
2025-07-22, 16:23:58, 1
Index	Phase	Displacement	Time	Pos X	Pos Y	Pos Z	Rot A	Rot B	Piezo Z	Force A	Force B	Gripper	Voltage A	Voltage B	Temperature	Amplitude force	Amplitude pos	Stiffness	Phase shift	Phase excitation	Force A raw	Displacement raw	HMax	HMax raw	Real Force	Real Stiffness	Contact Depth	Area	Hardness	Reduced Mod.
[#]	[#]	[um]	[s]	[um]	[um]	[um]	[m°]	[m°]	[um]	[uN]	[uN]	[V]	[V]	[V]	[°C]	[uN]	[um]	[N/m]	[°]	[°]	[uN]	[um]	[um]	[um]	[uN]	[N/m]	[um]	[um^2]	[MPa]	[MPa]
692	1.000000	0.002584	7.37182e+06	-42489.1	1005.82	-29782.6	0.000000	0.000000	6.002805	-0.103423	NaN	0.000000	0.001781	0.001690	28.0829	0.039689	0.000983	40.3713	-25.0474	-163.651	-0.055532	0.001362	-1.026598	-1.027820	-0.103423	40.3713	-1.024677	-4.873823E+13	2.122009E-15	NaN
692	1.000000	0.010560	7.37182e+06	-42489.1	1005.82	-29782.6	0.000000	0.000000	6.010780	-0.127962	NaN	0.000000	0.001798	0.001679	28.0829	0.089000	0.000878	101.342	-82.4184	-165.068	-0.108759	0.009250	-1.018622	-1.019931	-0.127962	101.342	-1.017675	-3.923436E+13	3.261475E-15	NaN
692	1.000000	0.018530	7.37182e+06	-42489.1	1005.82	-29782.6	0.000000	0.000000	6.018751	-0.120113	NaN	0.000000	0.001795	0.001694	28.0818	0.077786	0.001672	46.5168	83.0964	-166.792	-0.106332	0.017211	-1.010651	-1.011971	-0.120113	46.5168	-1.008715	-2.972222E+13	4.041201E-15	NaN
692	1.000000	0.026569	7.37182e+06	-42489.1	1005.82	-29782.6	0.000000	0.000000	6.026792	-0.046095	NaN	0.000000	0.001817	0.001668	28.0818	0.109304	0.001730	63.1722	-40.3387	-162.315	-0.068447	0.025258	-1.002613	-1.003923	-0.046095	63.1722	-1.002065	-2.418671E+13	1.905815E-15	NaN
692	1.000000	0.034549	7.37182e+06	-42489.1	1005.82	-29782.6	0.000000	0.000000	6.034772	-0.053826	NaN	0.000000	0.001809	0.001672	28.0815	0.052163	0.001807	28.8622	-100.931	-165.366	-0.043371	0.033268	-0.994633	-0.995913	-0.053826	28.8622	-0.993234	-1.839345E+13	2.926373E-15	NaN
692	1.000000	0.042554	7.37182e+06	-42489.1	1005.82	-29782.6	0.000000	0.000000	6.042777	-0.051459	NaN	0.000000	0.001769	0.001685	28.0818	0.037237	0.001918	19.4116	-10.2177	-166.117	-0.057471	0.041294	-0.986627	-0.987887	-0.051459	19.4116	-0.984639	-1.408983E+13	3.652216E-15	NaN
692	1.000000	0.050562	7.37182e+06	-42489.1	1005.82	-29782.6	0.000000	0.000000	6.050785	-0.065652	NaN	0.000000	0.001765	0.001663	28.0816	0.096132	0.001960	49.0393	42.1013	-166.233	-0.055951	0.049266	-0.978619	-0.979915	-0.065652	49.0393	-0.977615	-1.133127E+13	5.793854E-15	NaN
692	1.000000	0.058573	7.37182e+06	-42489.1	1005.82	-29782.6	0.000000	0.000000	6.058799	0.008876	NaN	0.000000	0.001779	0.001676	28.082	0.072303	0.002020	35.7914	166.775	-167.424	0.003381	0.057273	-0.970608	-0.971908	0.008876	35.7914	-0.970794	-9.169965E+12	-9.679469E-16	NaN
692	1.000000	0.066538	7.37182e+06	-42489.1	1005.82	-29782.6	0.000000	0.000000	6.066764	0.013521	NaN	0.000000	0.001782	0.001685	28.0815	0.102293	0.002010	50.8805	57.2136	-162.765	-0.056707	0.065273	-0.962644	-0.963908	0.013521	50.8805	-0.962843	-7.164710E+12	-1.887111E-15	NaN
692	1.000000	0.074566	7.37182e+06	-42489.1	1005.82	-29782.6	0.000000	0.000000	6.074786	-0.119289	NaN	0.000000	0.001718	0.001646	28.0815	0.091133	0.001969	46.2759	54.0517	-165.132	-0.100606	0.073331	-0.954616	-0.955851	-0.119289	46.2759	-0.952682	-5.226391E+12	2.282433E-14	NaN
692	1.000000	0.082559	7.37182e+06	-42489.1	1005.82	-29782.6	0.000000	0.000000	6.082783	-0.031548	NaN	0.000000	0.001713	0.001682	28.0819	0.096872	0.001912	50.6641	-9.733464	-164.68	0.050695	0.081301	-0.946622	-0.947881	-0.031548	50.6641	-0.946155	-4.267495E+12	7.392555E-15	NaN
692	1.000000	0.090571	7.37182e+06	-42489.1	1005.82	-29782.6	0.000000	0.000000	6.090793	-0.082650	NaN	0.000000	0.001701	0.001671	28.0818	0.099379	0.001946	51.0619	36.4503	-166.482	-0.131484	0.089246	-0.938611	-0.939935	-0.082650	51.0619	-0.937397	-3.250992E+12	2.542315E-14	NaN
692	1.000000	0.098582	7.37182e+06	-42489.1	1005.82	-29782.6	0.000000	0.000000	6.098806	-0.044602	NaN	0.000000	0.001665	0.001674	28.0821	0.074810	0.001816	41.2031	-35.173	-172.38	-0.081864	0.097213	-0.930599	-0.931969	-0.044602	41.2031	-0.929787	-2.566396E+12	1.737918E-14	NaN
692	1.000000	0.106578	7.37182e+06	-42489.1	1005.82	-29782.6	0.000000	0.000000	6.106798	-0.123790	NaN	0.000000	0.001735	0.001675	28.0817	0.031754	0.002091	15.185	-40.0985	-164.935	-0.109905	0.105274	-0.922604	-0.923907	-0.123790	15.185	-0.916489	-1.697481E+12	7.292587E-14	NaN
692	1.000000	0.114587	7.37182e+06	-42489.1	1005.82	-29782.6	0.000000	0.000000	6.114808	-0.110744	NaN	0.000000	0.001713	0.001659	28.0818	0.090972	0.002044	44.5068	-89.4501	-164.396	-0.078323	0.113242	-0.914595	-0.915939	-0.110744	44.5068	-0.912729	-1.510136E+12	7.333359E-14	NaN
692	1.000000	0.122573	7.37182e+06	-42489.1	1005.82	-29782.6	0.000000	0.000000	6.122796	-0.067957	NaN	0.000000	0.001717	0.001679	28.0816	0.099826	0.001979	50.4417	17.469	-167.191	-0.054536	0.121221	-0.906609	-0.907960	-0.067957	50.4417	-0.905598	-1.209767E+12	5.617393E-14	NaN
692	1.000000	0.130568	7.37182e+06	-42489.1	1005.82	-29782.6	0.000000	0.000000	6.130790	-0.078635	NaN	0.000000	0.001722	0.001620	28.0817	0.097943	0.002002	48.9224	48.0093	-164.632	-0.084480	0.129235	-0.898613	-0.899947	-0.078635	48.9224	-0.897408	-9.376481E+11	8.386450E-14	NaN
692	1.000000	0.138586	7.37182e+06	-42489.1	1005.82	-29782.6	0.000000	0.000000	6.138808	-0.093399	NaN	0.000000	0.001717	0.001666	28.0818	0.036130	0.002006	18.0072	-15.4135	-168.135	-0.172461	0.137341	-0.890595	-0.891841	-0.093399	18.0072	-0.886705	-6.720034E+11	1.389865E-13	NaN
692	1.000000	0.146630	7.37182e+06	-42489.1	1005.82	-29782.6	0.000000	0.000000	6.146849	-0.156216	NaN	0.000000	0.001714	0.001647	28.0816	0.074181	0.001950	38.0354	64.3693	-163.477	-0.222779	0.145293	-0.882551	-0.883888	-0.156216	38.0354	-0.879471	-5.364828E+11	2.911859E-13	NaN
692	1.000000	0.154623	7.37182e+06	-42489.1	1005.82	-29782.6	0.000000	0.000000	6.154845	-0.095469	NaN	0.000000	0.001703	0.001660	28.0825	0.066207	0.002090	31.6817	-48.3706	-164.387	-0.082455	0.153295	-0.874558	-0.875886	-0.095469	31.6817	-0.872298	-4.290781E+11	2.224975E-13	NaN
692	1.000000	0.162592	7.37182e+06	-42489.1	1005.82	-29782.6	0.000000	0.000000	6.162813	-0.097737	NaN	0.000000	0.001709	0.001658	28.0829	0.045901	0.001950	23.5354	61.3699	-166.928	-0.101123	0.161253	-0.866590	-0.867929	-0.097737	23.5354	-0.863475	-3.259510E+11	2.998506E-13	NaN
692	1.000000	0.170597	7.37182e+06	-42489.1	1005.82	-29782.6	0.000000	0.000000	6.170820	-0.060343	NaN	0.000000	0.001732	0.001654	28.0829	0.138787	0.002035	68.1886	1.358202	-169.869	-0.061965	0.169300	-0.858585	-0.859881	-0.060343	68.1886	-0.857921	-2.741430E+11	2.201168E-13	NaN
692	1.000000	0.178605	7.37182e+06	-42489.1	1005.82	-29782.6	0.000000	0.000000	6.178827	-0.101434	NaN	0.000000	0.001731	0.001668	28.0827	0.031995	0.002074	15.4274	-26.4097	-165.292	-0.050084	0.177282	-0.850576	-0.851899	-0.101434	15.4274	-0.845645	-1.869635E+11	5.425346E-13	NaN
692	1.000000	0.186607	7.37182e+06	-42489.1	1005.82	-29782.6	0.000000	0.000000	6.186829	-0.076703	NaN	0.000000	0.001710	0.001666	28.0828	0.011620	0.002059	5.643240	168.293	-163.696	-0.115360	0.185307	-0.842574	-0.843874	-0.076703	5.643240	-0.832380	-1.236082E+11	6.205321E-13	NaN
692	1.000000	0.194597	7.37182e+06	-42489.1	1005.82	-29782.6	0.000000	0.000000	6.194817	-0.130550	NaN	0.000000	0.001690	0.001651	28.0833	0.196657	0.001935	101.634	18.6356	-166.815	-0.107996	0.193274	-0.834584	-0.835907	-0.130550	101.634	-0.833621	-1.284868E+11	1.016056E-12	NaN
692	1.000000	0.202624	7.37182e+06	-42489.1	1005.82	-29782.6	0.000000	0.000000	6.202846	-0.089231	NaN	0.000000	0.001761	0.001666	28.0829	0.014643	0.001933	7.574423	-163.007	-166.554	-0.191159	0.201332	-0.826558	-0.827850	-0.089231	7.574423	-0.817722	-7.822050E+10	1.140762E-12	NaN
692	1.000000	0.210634	7.37182e+06	-42489.1	1005.82	-29782.6	0.000000	0.000000	6.210857	-0.053895	NaN	0.000000	0.001779	0.001675	28.0829	0.123313	0.002011	61.3088	-38.8046	-167.757	-0.071928	0.209332	-0.818548	-0.819849	-0.053895	61.3088	-0.817889	-7.862819E+10	6.854475E-13	NaN
692	1.000000	0.218635	7.37182e+06	-42489.1	1005.82	-29782.6	0.000000	0.000000	6.218856	-0.106020	NaN	0.000000	0.001789	0.001630	28.0828	0.089965	0.001974	45.5799	-13.5478	-164.879	-0.101398	0.217274	-0.810546	-0.811908	-0.106020	45.5799	-0.808802	-5.919902E+10	1.790905E-12	NaN
692	1.000000	0.226605	7.37182e+06	-42489.1	1005.82	-29782.6	0.000000	0.000000	6.226825	-0.133260	NaN	0.000000	0.001784	0.001633	28.083	0.055150	0.001986	27.7709	20.0777	-166.505	-0.095280	0.225336	-0.802577	-0.803846	-0.133260	27.7709	-0.798978	-4.355009E+10	3.059928E-12	NaN
692	1.000000	0.234634	7.37182e+06	-42489.1	1005.82	-29782.6	0.000000	0.000000	6.234855	-0.101722	NaN	0.000000	0.001777	0.001698	28.0833	0.114632	0.002010	57.0384	60.0545	-167.957	-0.046160	0.233357	-0.794548	-0.795825	-0.101722	57.0384	-0.793210	-3.636473E+10	2.797280E-12	NaN
692	1.000000	0.242647	7.37182e+06	-42489.1	1005.82	-29782.6	0.000000	0.000000	6.242869	-0.091504	NaN	0.000000	0.001690	0.001668	28.0832	0.073399	0.001842	39.8536	7.733651	-169.358	-0.093233	0.241318	-0.786535	-0.787863	-0.091504	39.8536	-0.784813	-2.796533E+10	3.272048E-12	NaN
692	1.000000	0.250625	7.37182e+06	-42489.1	1005.82	-29782.6	0.000000	0.000000	6.250845	-0.131998	NaN	0.000000	0.001696	0.001653	28.0834	0.147311	0.001890	77.9371	-0.682076	-164.269	-0.064157	0.249354	-0.778557	-0.779828	-0.131998	77.9371	-0.777286	-2.209805E+10	5.973285E-12	NaN
692	1.000000	0.258623	7.37182e+06	-42489.1	1005.82	-29782.6	0.000000	0.000000	6.258844	-0.115820	NaN	0.000000	0.001710	0.001685	28.0831	0.054963	0.002010	27.3475	47.2019	-167.223	-0.107904	0.257352	-0.770558	-0.771829	-0.115820	27.3475	-0.767382	-1.620710E+10	7.146263E-12	NaN
692	1.000000	0.266621	7.37182e+06	-42489.1	1005.82	-29782.6	0.000000	0.000000	6.266843	-0.089608	NaN	0.000000	0.001697	0.001699	28.0829	0.125010	0.001969	63.4754	116.081	-165.453	-0.125207	0.265279	-0.762560	-0.763902	-0.089608	63.4754	-0.761501	-1.348117E+10	6.646933E-12	NaN
692	1.000000	0.274651	7.37182e+06	-42489.1	1005.82	-29782.6	0.000000	0.000000	6.274870	-0.156366	NaN	0.000000	0.001790	0.001683	28.083	0.077625	0.002004	38.734	-173.123	-165.475	-0.170668	0.273335	-0.754530	-0.755846	-0.156366	38.734	-0.751503	-9.855340E+9	1.586609E-11	NaN
692	1.000000	0.282652	7.37182e+06	-42489.1	1005.82	-29782.6	0.000000	0.000000	6.282872	-0.137687	NaN	0.000000	0.001757	0.001678	28.083	0.078209	0.001982	39.4607	30.5834	-168.21	-0.100565	0.281323	-0.746529	-0.747858	-0.137687	39.4607	-0.743912	-7.768549E+9	1.772366E-11	NaN
692	1.000000	0.290632	7.37182e+06	-42489.1	1005.82	-29782.6	0.000000	0.000000	6.290853	-0.123395	NaN	0.000000	0.001818	0.001691	28.0832	0.067509	0.001992	33.8919	-35.7858	-166.915	-0.105839	0.289305	-0.738549	-0.739877	-0.123395	33.8919	-0.735818	-6.026889E+9	2.047408E-11	NaN
692	1.000000	0.298650	7.37182e+06	-42489.1	1005.82	-29782.6	0.000000	0.000000	6.298870	-0.129351	NaN	0.000000	0.001779	0.001704	28.0818	0.053455	0.001958	27.3042	41.0645	-166.022	-0.120601	0.297293	-0.730531	-0.731888	-0.129351	27.3042	-0.726978	-4.566869E+9	2.832383E-11	NaN
692	1.000000	0.306656	7.37182e+06	-42489.1	1005.82	-29782.6	0.000000	0.000000	6.306878	-0.092717	NaN	0.000000	0.001790	0.001701	28.0816	0.040678	0.001949	20.8732	167.407	-165.38	-0.165263	0.305381	-0.722525	-0.723801	-0.092717	20.8732	-0.719194	-3.576647E+9	2.592284E-11	NaN
692	1.000000	0.314683	7.37182e+06	-42489.1	1005.82	-29782.6	0.000000	0.000000	6.314901	-0.170900	NaN	0.000000	0.001732	0.001686	28.0817	0.094000	0.002092	44.9403	70.5409	-167.033	-0.201809	0.313354	-0.714499	-0.715828	-0.170900	44.9403	-0.711647	-2.821770E+9	6.056485E-11	NaN
692	1.000000	0.322648	7.37182e+06	-42489.1	1005.82	-29782.6	0.000000	0.000000	6.322869	-0.087045	NaN	0.000000	0.001737	0.001661	28.0817	0.141843	0.002042	69.4797	45.0864	-167.108	-0.149678	0.321393	-0.706534	-0.707788	-0.087045	69.4797	-0.705594	-2.333001E+9	3.731018E-11	NaN
692	1.000000	0.330656	7.37182e+06	-42489.1	1005.82	-29782.6	0.000000	0.000000	6.330874	-0.184021	NaN	0.000000	0.001743	0.001656	28.0818	0.083109	0.001963	42.336	19.5155	-167.868	-0.183136	0.329300	-0.698525	-0.699881	-0.184021	42.336	-0.695265	-1.685995E+9	1.091468E-10	NaN
692	1.000000	0.338663	7.37182e+06	-42489.1	1005.82	-29782.6	0.000000	0.000000	6.338882	-0.152562	NaN	0.000000	0.001712	0.001631	28.0814	0.035496	0.001850	19.1846	-170.054	-167.543	-0.250757	0.337361	-0.690519	-0.691820	-0.152562	19.1846	-0.684555	-1.203606E+9	1.267540E-10	NaN
692	1.000000	0.346689	7.37182e+06	-42489.1	1005.82	-29782.6	0.000000	0.000000	6.346910	-0.108303	NaN	0.000000	0.001745	0.001696	28.0815	0.076477	0.002063	37.0703	152.77	-167.716	-0.135596	0.345398	-0.682492	-0.683784	-0.108303	37.0703	-0.680301	-1.052749E+9	1.028762E-10	NaN
692	1.000000	0.354673	7.37182e+06	-42489.1	1005.82	-29782.6	0.000000	0.000000	6.354890	-0.205545	NaN	0.000000	0.001711	0.001654	28.0816	0.102061	0.002003	50.963	48.2761	-167.965	-0.149619	0.353352	-0.674509	-0.675829	-0.205545	50.963	-0.671484	-7.974450E+8	2.577539E-10	NaN
692	1.000000	0.362696	7.37182e+06	-42489.1	1005.82	-29782.6	0.000000	0.000000	6.362913	-0.199415	NaN	0.000000	0.001693	0.001619	28.0815	0.076020	0.001979	38.4095	-49.0301	-168.69	-0.145903	0.361407	-0.666485	-0.667774	-0.199415	38.4095	-0.662592	-6.025076E+8	3.309750E-10	NaN
692	1.000000	0.370656	7.37182e+06	-42489.1	1005.82	-29782.6	0.000000	0.000000	6.370875	-0.165783	NaN	0.000000	0.001695	0.001713	28.0817	0.113899	0.002079	54.7831	76.2146	-166.348	-0.150371	0.369355	-0.658526	-0.659826	-0.165783	54.7831	-0.656256	-4.933747E+8	3.360180E-10	NaN
692	1.000000	0.378702	7.37182e+06	-42489.1	1005.82	-29782.6	0.000000	0.000000	6.378920	-0.188701	NaN	0.000000	0.001636	0.001642	28.0816	0.092460	0.001980	46.6931	-165.769	-165.147	-0.269174	0.377331	-0.650479	-0.651850	-0.188701	46.6931	-0.647448	-3.736381E+8	5.050358E-10	NaN
692	1.000000	0.386698	7.37182e+06	-42489.1	1005.82	-29782.6	0.000000	0.000000	6.386917	-0.154196	NaN	0.000000	0.001602	0.001668	28.0821	0.056051	0.001985	28.238	64.7591	-168.249	-0.120272	0.385363	-0.642484	-0.643818	-0.154196	28.238	-0.638388	-2.806541E+8	5.494159E-10	NaN
692	1.000000	0.394701	7.37182e+06	-42489.1	1005.82	-29782.6	0.000000	0.000000	6.394919	-0.188158	NaN	0.000000	0.001644	0.001681	28.0816	0.049241	0.001948	25.2719	143.682	-166.364	-0.097406	0.393367	-0.634481	-0.635815	-0.188158	25.2719	-0.628897	-2.079078E+8	9.050049E-10	NaN
692	1.000000	0.402685	7.37182e+06	-42489.1	1005.82	-29782.6	0.000000	0.000000	6.402906	-0.113462	NaN	0.000000	0.001682	0.001665	28.0817	0.043696	0.001957	22.3256	45.6846	-167.417	-0.057232	0.401353	-0.626496	-0.627828	-0.113462	22.3256	-0.622685	-1.708171E+8	6.642290E-10	NaN
692	1.000000	0.410709	7.37182e+06	-42489.1	1005.82	-29782.6	0.000000	0.000000	6.410930	-0.104454	NaN	0.000000	0.001644	0.001666	28.0818	0.160116	0.001947	82.2446	34.0811	-168.21	-0.077740	0.409373	-0.618472	-0.619808	-0.104454	82.2446	-0.617520	-1.450575E+8	7.200893E-10	NaN
692	1.000000	0.418709	7.37182e+06	-42489.1	1005.82	-29782.6	0.000000	0.000000	6.418930	-0.117865	NaN	0.000000	0.001672	0.001677	28.0816	0.014352	0.002081	6.896090	148.705	-166.559	-0.139486	0.417447	-0.610472	-0.611735	-0.117865	6.896090	-0.597654	-7.729328E+7	1.524908E-9	NaN
692	1.000000	0.426710	7.37182e+06	-42489.1	1005.82	-29782.6	0.000000	0.000000	6.426935	-0.016557	NaN	0.000000	0.001622	0.001643	28.082	0.036678	0.002032	18.0522	69.0576	-167.401	-0.020745	0.425394	-0.602471	-0.603787	-0.016557	18.0522	-0.601783	-8.810883E+7	1.879157E-10	NaN
692	1.000000	0.434752	7.37182e+06	-42489.1	1005.82	-29782.6	0.000000	0.000000	6.434979	0.033780	NaN	0.000000	0.001671	0.001696	28.0828	0.065770	0.001954	33.6649	2.963712	-166.074	-0.010983	0.433393	-0.594429	-0.595788	0.033780	33.6649	-0.595182	-7.146351E+7	-4.726899E-10	NaN
692	1.000000	0.442729	7.37182e+06	-42489.1	1005.82	-29782.6	0.000000	0.000000	6.442954	-0.012408	NaN	0.000000	0.001642	0.001686	28.083	0.150412	0.001968	76.4191	11.4278	-163.433	0.013049	0.441403	-0.586453	-0.587778	-0.012408	76.4191	-0.586331	-5.395982E+7	2.299452E-10	NaN
692	1.000000	0.450714	7.37182e+06	-42489.1	1005.82	-29782.6	0.000000	0.000000	6.450940	0.004285	NaN	0.000000	0.001672	0.001683	28.0828	0.048085	0.001970	24.413	-139.25	-163.027	0.067450	0.449361	-0.578468	-0.579821	0.004285	24.413	-0.578599	-4.220755E+7	-1.015162E-10	NaN
692	1.000000	0.458709	7.37182e+06	-42489.1	1005.82	-29782.6	0.000000	0.000000	6.458938	0.079111	NaN	0.000000	0.001670	0.001649	28.0828	0.033792	0.001953	17.299	-90.6012	-168.736	0.087970	0.457469	-0.570472	-0.571713	0.079111	17.299	-0.573902	-3.635257E+7	-2.176212E-9	NaN
692	1.000000	0.466728	7.37182e+06	-42489.1	1005.82	-29782.6	0.000000	0.000000	6.466955	0.023387	NaN	0.000000	0.001705	0.001623	28.083	0.117279	0.001854	63.2661	7.893115	-165.46	-0.045060	0.465427	-0.562453	-0.563754	0.023387	63.2661	-0.562730	-2.547658E+7	-9.179847E-10	NaN
692	1.000000	0.474742	7.37182e+06	-42489.1	1005.82	-29782.6	0.000000	0.000000	6.474965	-0.072686	NaN	0.000000	0.001662	0.001704	28.0828	0.116478	0.001963	59.3489	-134.297	-164.968	-0.067256	0.473407	-0.554439	-0.555775	-0.072686	59.3489	-0.553520	-1.899794E+7	3.825975E-9	NaN
692	1.000000	0.482726	7.37182e+06	-42489.1	1005.82	-29782.6	0.000000	0.000000	6.482950	-0.025658	NaN	0.000000	0.001683	0.001650	28.0833	0.052971	0.002141	24.7449	-39.5446	-167.754	0.005487	0.481422	-0.546456	-0.547759	-0.025658	24.7449	-0.545678	-1.479375E+7	1.734355E-9	NaN
692	1.000000	0.490726	7.37182e+06	-42489.1	1005.82	-29782.6	0.000000	0.000000	6.490953	0.029717	NaN	0.000000	0.001695	0.001657	28.0829	0.032536	0.002060	15.7917	-25.8377	-167.189	-0.039480	0.489405	-0.538455	-0.539776	0.029717	15.7917	-0.539867	-1.228882E+7	-2.418219E-9	NaN
692	1.000000	0.498748	7.37182e+06	-42489.1	1005.82	-29782.6	0.000000	0.000000	6.498971	-0.067770	NaN	0.000000	0.001699	0.001649	28.0829	0.141570	0.002010	70.4374	74.242	-167.264	-0.092952	0.497475	-0.530433	-0.531707	-0.067770	70.4374	-0.529712	-8.8832e+06	7.628976E-9	NaN
692	1.000000	0.506739	7.37182e+06	-42489.1	1005.82	-29782.6	0.000000	0.000000	6.506964	-0.027560	NaN	0.000000	0.001695	0.001646	28.0832	0.071524	0.002032	35.1924	-46.1533	-169.867	-0.048025	0.505485	-0.522442	-0.523696	-0.027560	35.1924	-0.521855	-6.90863e+06	3.989285E-9	NaN
692	1.000000	0.514739	7.37182e+06	-42489.1	1005.82	-29782.6	0.000000	0.000000	6.514961	-0.091055	NaN	0.000000	0.001697	0.001654	28.0829	0.053483	0.002058	25.9882	179.869	-168.967	-0.057772	0.513404	-0.514442	-0.515778	-0.091055	25.9882	-0.511814	-5.00822e+06	1.818111E-8	NaN
692	1.000000	0.522745	7.37182e+06	-42489.1	1005.82	-29782.6	0.000000	0.000000	6.522969	-0.043583	NaN	0.000000	0.001706	0.001635	28.0832	0.055538	0.001989	27.9225	-61.5567	-166.094	-0.002570	0.521449	-0.506436	-0.507732	-0.043583	27.9225	-0.505265	-4.05924e+06	1.073667E-8	NaN
692	1.000000	0.530762	7.37182e+06	-42489.1	1005.82	-29782.6	0.000000	0.000000	6.530986	-0.040136	NaN	0.000000	0.001696	0.001644	28.083	0.062476	0.002073	30.1307	47.9991	-166.946	0.025380	0.529432	-0.498419	-0.499750	-0.040136	30.1307	-0.497420	-3.15513e+06	1.272102E-8	NaN
692	1.000000	0.538764	7.37182e+06	-42489.1	1005.82	-29782.6	0.000000	0.000000	6.538986	-0.068391	NaN	0.000000	0.001621	0.001655	28.0829	0.138034	0.001932	71.4406	-21.2498	-168.986	-0.097290	0.537467	-0.490418	-0.491715	-0.068391	71.4406	-0.489700	-2.46149e+06	2.778443E-8	NaN
692	1.000000	0.546775	7.37182e+06	-42489.1	1005.82	-29782.6	0.000000	0.000000	6.546999	-0.041188	NaN	0.000000	0.001660	0.001612	28.083	0.113021	0.001935	58.4166	131.98	-167.123	-0.049645	0.545456	-0.482406	-0.483725	-0.041188	58.4166	-0.481877	-1.91338e+06	2.152630E-8	NaN
692	1.000000	0.554780	7.37182e+06	-42489.1	1005.82	-29782.6	0.000000	0.000000	6.555002	-0.094885	NaN	0.000000	0.001641	0.001676	28.083	0.138409	0.002093	66.1323	-7.678724	-166.376	-0.091262	0.553469	-0.474401	-0.475713	-0.094885	66.1323	-0.473325	-1.4522e+06	6.533884E-8	NaN
692	1.000000	0.562772	7.37182e+06	-42489.1	1005.82	-29782.6	0.000000	0.000000	6.562995	-0.058551	NaN	0.000000	0.001630	0.001658	28.0832	0.025389	0.001981	12.8189	-84.7641	-166.03	-0.082630	0.561461	-0.466409	-0.467720	-0.058551	12.8189	-0.462983	-1.03975e+06	5.631243E-8	NaN
692	1.000000	0.570747	7.37182e+06	-42489.1	1005.82	-29782.6	0.000000	0.000000	6.570969	-0.082838	NaN	0.000000	0.001596	0.001677	28.0816	0.106902	0.001966	54.3685	83.5191	-166.976	-0.123495	0.569498	-0.458435	-0.459683	-0.082838	54.3685	-0.457292	-864876	9.577989E-8	NaN
692	1.000000	0.578793	7.37182e+06	-42489.1	1005.82	-29782.6	0.000000	0.000000	6.579016	-0.045273	NaN	0.000000	0.001658	0.001654	28.0821	0.104010	0.002049	50.752	-4.700690	-162.607	-0.029057	0.577457	-0.450389	-0.451725	-0.045273	50.752	-0.449720	-676702	6.690299E-8	NaN
692	1.000000	0.586770	7.37182e+06	-42489.1	1005.82	-29782.6	0.000000	0.000000	6.586994	-0.049244	NaN	0.000000	0.001648	0.001661	28.0818	0.073240	0.001925	38.0525	20.4444	-168.243	-0.035281	0.585467	-0.442411	-0.443715	-0.049244	38.0525	-0.441441	-517244	9.520490E-8	NaN
692	1.000000	0.594777	7.37182e+06	-42489.1	1005.82	-29782.6	0.000000	0.000000	6.595002	-0.020438	NaN	0.000000	0.001675	0.001642	28.082	0.081959	0.001938	42.2823	121.533	-168.365	-0.060226	0.593465	-0.434405	-0.435717	-0.020438	42.2823	-0.434042	-406646	5.025908E-8	NaN
692	1.000000	0.602814	7.37182e+06	-42489.1	1005.82	-29782.6	0.000000	0.000000	6.603041	0.036299	NaN	0.000000	0.001745	0.001682	28.082	0.053581	0.002010	26.6594	-163.589	-166.095	-0.014922	0.601518	-0.426367	-0.427663	0.036299	26.6594	-0.427389	-327420	-1.108637E-7	NaN
692	1.000000	0.610775	7.37182e+06	-42489.1	1005.82	-29782.6	0.000000	0.000000	6.611000	-0.023012	NaN	0.000000	0.001678	0.001668	28.0819	0.082642	0.002080	39.7366	0.657896	-165.591	-0.019265	0.609488	-0.418406	-0.419694	-0.023012	39.7366	-0.417972	-240792	9.556665E-8	NaN
692	1.000000	0.618814	7.37182e+06	-42489.1	1005.82	-29782.6	0.000000	0.000000	6.619038	-0.030369	NaN	0.000000	0.001685	0.001634	28.0821	0.092758	0.001993	46.5351	82.5629	-167.016	-0.003802	0.617471	-0.410368	-0.411711	-0.030369	46.5351	-0.409878	-184786	1.643472E-7	NaN
692	1.000000	0.626799	7.37182e+06	-42489.1	1005.82	-29782.6	0.000000	0.000000	6.627026	0.036370	NaN	0.000000	0.001733	0.001647	28.0817	0.092137	0.002003	45.9897	32.2946	-167.063	0.037330	0.625559	-0.402383	-0.403623	0.036370	45.9897	-0.402976	-147373	-2.467906E-7	NaN
692	1.000000	0.634820	7.37182e+06	-42489.1	1005.82	-29782.6	0.000000	0.000000	6.635044	-0.049792	NaN	0.000000	0.001722	0.001695	28.0817	0.092812	0.001987	46.7196	-43.7709	-161.912	-0.023285	0.633483	-0.394361	-0.395698	-0.049792	46.7196	-0.393562	-108165	4.603318E-7	NaN
692	1.000000	0.642818	7.37182e+06	-42489.1	1005.82	-29782.6	0.000000	0.000000	6.643042	-0.028975	NaN	0.000000	0.001634	0.001652	28.0815	0.131054	0.002054	63.8137	0.091485	-170.168	0.063623	0.641531	-0.386363	-0.387650	-0.028975	63.8137	-0.386023	-84379.8	3.433882E-7	NaN
692	1.000000	0.650765	7.37182e+06	-42489.1	1005.82	-29782.6	0.000000	0.000000	6.650989	-0.040581	NaN	0.000000	0.001629	0.001650	28.0817	0.121026	0.001868	64.8003	41.6497	-164.759	-0.105482	0.649487	-0.378416	-0.379694	-0.040581	64.8003	-0.377946	-64625.7	6.279344E-7	NaN
692	1.000000	0.658801	7.37182e+06	-42489.1	1005.82	-29782.6	0.000000	0.000000	6.659025	-0.029568	NaN	0.000000	0.001673	0.001666	28.0815	0.023006	0.002026	11.3572	-107.245	-165.693	-0.035047	0.657537	-0.370380	-0.371644	-0.029568	11.3572	-0.368428	-47149.5	6.271145E-7	NaN
692	1.000000	0.666797	7.37182e+06	-42489.1	1005.82	-29782.6	0.000000	0.000000	6.667021	-0.041299	NaN	0.000000	0.001663	0.001635	28.0815	0.096966	0.002009	48.2699	32.4329	-165.683	-0.051166	0.665511	-0.362384	-0.363671	-0.041299	48.2699	-0.361743	-37759.5	1.093746E-6	NaN
692	1.000000	0.674842	7.37182e+06	-42489.1	1005.82	-29782.6	0.000000	0.000000	6.675068	0.002671	NaN	0.000000	0.001683	0.001693	28.0817	0.088387	0.002027	43.5951	142.036	-169.19	-0.037774	0.673513	-0.354339	-0.355668	0.002671	43.5951	-0.354385	-29552	-9.039748E-8	NaN
692	1.000000	0.682832	7.37182e+06	-42489.1	1005.82	-29782.6	0.000000	0.000000	6.683052	-0.109909	NaN	0.000000	0.001704	0.001635	28.0816	0.173174	0.002021	85.6665	66.357	-162.916	-0.064688	0.681464	-0.346350	-0.347717	-0.109909	85.6665	-0.345388	-21877.4	5.023844E-6	NaN
692	1.000000	0.690833	7.37182e+06	-42489.1	1005.82	-29782.6	0.000000	0.000000	6.691057	-0.038781	NaN	0.000000	0.001684	0.001635	28.0817	0.059614	0.002020	29.5065	-19.9517	-168.561	-0.060672	0.689495	-0.338348	-0.339686	-0.038781	29.5065	-0.337363	-16714.3	2.320205E-6	NaN
692	1.000000	0.698832	7.37182e+06	-42489.1	1005.82	-29782.6	0.000000	0.000000	6.699051	-0.164119	NaN	0.000000	0.001689	0.001664	28.0819	0.080692	0.001996	40.4246	127.886	-168.549	-0.122232	0.697511	-0.330349	-0.331670	-0.164119	40.4246	-0.327304	-11910.9	1.377890E-5	NaN
692	1.000000	0.706844	7.37182e+06	-42489.1	1005.82	-29782.6	0.000000	0.000000	6.707061	-0.201084	NaN	0.000000	0.001652	0.001648	28.0831	0.025508	0.002060	12.3844	154.841	-165.181	-0.176863	0.705539	-0.322338	-0.323642	-0.201084	12.3844	-0.310160	-6659.29	3.019599E-5	NaN
692	1.000000	0.714823	7.37182e+06	-42489.1	1005.82	-29782.6	0.000000	0.000000	6.715044	-0.116285	NaN	0.000000	0.001627	0.001673	28.0832	0.124558	0.002033	61.2774	20.4727	-168.738	-0.188313	0.713552	-0.314358	-0.315630	-0.116285	61.2774	-0.312935	-7319.05	1.588795E-5	NaN
692	1.000000	0.722845	7.37182e+06	-42489.1	1005.82	-29782.6	0.000000	0.000000	6.723067	-0.090436	NaN	0.000000	0.001641	0.001674	28.0829	0.082836	0.001850	44.7732	128.481	-169.298	-0.169049	0.721534	-0.306336	-0.307648	-0.090436	44.7732	-0.304821	-5550.15	1.629431E-5	NaN
692	1.000000	0.730829	7.37182e+06	-42489.1	1005.82	-29782.6	0.000000	0.000000	6.731049	-0.123511	NaN	0.000000	0.001637	0.001665	28.0828	0.055578	0.001949	28.5141	-97.8096	-165.645	-0.169964	0.729523	-0.298353	-0.299658	-0.123511	28.5141	-0.295104	-3977.81	3.105003E-5	NaN
692	1.000000	0.738833	7.37182e+06	-42489.1	1005.82	-29782.6	0.000000	0.000000	6.739054	-0.103218	NaN	0.000000	0.001646	0.001661	28.083	0.029709	0.001988	14.9441	-72.4051	-167.517	-0.062444	0.737523	-0.290349	-0.291658	-0.103218	14.9441	-0.285169	-2823.58	3.655568E-5	NaN
692	1.000000	0.746836	7.37182e+06	-42489.1	1005.82	-29782.6	0.000000	0.000000	6.747059	-0.062985	NaN	0.000000	0.001660	0.001691	28.083	0.089629	0.002015	44.4834	23.7152	-165.857	-0.073801	0.745523	-0.282346	-0.283658	-0.062985	44.4834	-0.281284	-2467.9	2.552181E-5	NaN
692	1.000000	0.754828	7.37182e+06	-42489.1	1005.82	-29782.6	0.000000	0.000000	6.755052	-0.042891	NaN	0.000000	0.001662	0.001706	28.0833	0.135325	0.001937	69.861	37.5803	-166.473	-0.140210	0.753579	-0.274353	-0.275603	-0.042891	69.861	-0.273893	-1908.2	2.247740E-5	NaN
692	1.000000	0.762835	7.37182e+06	-42489.1	1005.82	-29782.6	0.000000	0.000000	6.763059	-0.056622	NaN	0.000000	0.001668	0.001665	28.0829	0.058792	0.002132	27.5776	67.7203	-166.473	-0.131277	0.761589	-0.266346	-0.267592	-0.056622	27.5776	-0.264806	-1388.12	4.079056E-5	NaN
692	1.000000	0.770837	7.37182e+06	-42489.1	1005.82	-29782.6	0.000000	0.000000	6.771062	-0.018858	NaN	0.000000	0.001660	0.001670	28.0829	0.073229	0.001965	37.2752	34.0584	-167.704	-0.018816	0.769521	-0.258344	-0.259660	-0.018858	37.2752	-0.257965	-1090.69	1.728985E-5	NaN
692	1.000000	0.778860	7.37182e+06	-42489.1	1005.82	-29782.6	0.000000	0.000000	6.779081	-0.094206	NaN	0.000000	0.001661	0.001705	28.0831	0.128521	0.002037	63.1048	-23.3469	-164.543	-0.015963	0.777553	-0.250322	-0.251628	-0.094206	63.1048	-0.249202	-799.142	0.000118	NaN
692	1.000000	0.786840	7.37182e+06	-42489.1	1005.82	-29782.6	0.000000	0.000000	6.787066	0.032335	NaN	0.000000	0.001691	0.001678	28.0826	0.076414	0.002023	37.776	-32.265	-167.821	0.083481	0.785550	-0.242342	-0.243631	0.032335	37.776	-0.242984	-639.862	-5.053396E-5	NaN
692	1.000000	0.794866	7.37182e+06	-42489.1	1005.82	-29782.6	0.000000	0.000000	6.795086	-0.131867	NaN	0.000000	0.001647	0.001661	28.0832	0.037069	0.001975	18.7657	-66.5765	-166.902	-0.051399	0.793547	-0.234315	-0.235635	-0.131867	18.7657	-0.229045	-386.752	0.000341	NaN
692	1.000000	0.802850	7.37182e+06	-42489.1	1005.82	-29782.6	0.000000	0.000000	6.803075	0.000797	NaN	0.000000	0.001628	0.001663	28.0829	0.119217	0.002085	57.1879	143.177	-168.301	-0.019640	0.801542	-0.226332	-0.227639	0.000797	57.1879	-0.226342	-350.461	-2.275014E-6	NaN
692	1.000000	0.810869	7.37182e+06	-42489.1	1005.82	-29782.6	0.000000	0.000000	6.811092	-0.057491	NaN	0.000000	0.001668	0.001652	28.0856	0.029785	0.001840	16.1876	-26.4368	-168.747	-0.152547	0.809578	-0.218312	-0.219604	-0.057491	16.1876	-0.215648	-236.559	0.000243	NaN
692	1.000000	0.818894	7.37182e+06	-42489.1	1005.82	-29782.6	0.000000	0.000000	6.819119	-0.018043	NaN	0.000000	0.001637	0.001643	28.0864	0.150926	0.001979	76.2775	25.0541	-165.67	0.003978	0.817584	-0.210287	-0.211598	-0.018043	76.2775	-0.210110	-192.576	9.369075E-5	NaN
692	1.000000	0.826876	7.37182e+06	-42489.1	1005.82	-29782.6	0.000000	0.000000	6.827097	-0.092140	NaN	0.000000	0.001640	0.001682	28.0836	0.031249	0.001991	15.6923	-98.6574	-166.763	-0.066130	0.825542	-0.202306	-0.203640	-0.092140	15.6923	-0.197902	-121.664	0.000757	NaN
692	1.000000	0.834911	7.37182e+06	-42489.1	1005.82	-29782.6	0.000000	0.000000	6.835136	0.004806	NaN	0.000000	0.001622	0.001678	28.0834	0.032479	0.001968	16.5022	-22.8319	-163.54	0.052066	0.833529	-0.194271	-0.195653	0.004806	16.5022	-0.194489	-106.841	-4.498327E-5	NaN
692	1.000000	0.842901	7.37182e+06	-42489.1	1005.82	-29782.6	0.000000	0.000000	6.843125	-0.035317	NaN	0.000000	0.001638	0.001660	28.0816	0.075776	0.001947	38.9141	40.3377	-167.905	-0.005405	0.841572	-0.186280	-0.187610	-0.035317	38.9141	-0.185600	-75.8989	0.000465	NaN
692	1.000000	0.850899	7.37182e+06	-42489.1	1005.82	-29782.6	0.000000	0.000000	6.851123	-0.028428	NaN	0.000000	0.001607	0.001676	28.0816	0.015556	0.002028	7.671255	69.6632	-165.329	-0.047874	0.849608	-0.178282	-0.179573	-0.028428	7.671255	-0.175503	-51.1234	0.000556	NaN
692	1.000000	0.858936	7.37182e+06	-42489.1	1005.82	-29782.6	0.000000	0.000000	6.859163	0.052496	NaN	0.000000	0.001669	0.001753	28.0818	0.100624	0.001947	51.6855	-65.1333	-168.607	0.025364	0.857598	-0.170246	-0.171583	0.052496	51.6855	-0.171008	-42.7655	-0.001228	NaN
692	1.000000	0.866908	7.37182e+06	-42489.1	1005.82	-29782.6	0.000000	0.000000	6.867131	-0.061964	NaN	0.000000	0.001688	0.001736	28.0818	0.033908	0.001985	17.0828	61.9818	-163.417	-0.040589	0.865619	-0.162273	-0.163563	-0.061964	17.0828	-0.159553	-26.9176	0.002302	NaN
692	1.000000	0.874907	7.37182e+06	-42489.1	1005.82	-29782.6	0.000000	0.000000	6.875135	0.058255	NaN	0.000000	0.001703	0.001707	28.0818	0.058089	0.001951	29.7675	-38.2312	-165.639	0.064505	0.873532	-0.154275	-0.155649	0.058255	29.7675	-0.155742	-23.0106	-0.002532	NaN
692	1.000000	0.882907	7.37182e+06	-42489.1	1005.82	-29782.6	0.000000	0.000000	6.883131	-0.038883	NaN	0.000000	0.001739	0.001730	28.0818	0.040696	0.002081	19.5568	-58.7206	-167.586	-0.001382	0.881581	-0.146275	-0.147601	-0.038883	19.5568	-0.144784	-14.5266	0.002677	NaN
692	1.000000	0.890919	7.37182e+06	-42489.1	1005.82	-29782.6	0.000000	0.000000	6.891144	0.011541	NaN	0.000000	0.001736	0.001757	28.0815	0.039017	0.001998	19.5234	130.457	-168.255	0.000465	0.889600	-0.138263	-0.139582	0.011541	19.5234	-0.138706	-11.1845	-0.001032	NaN
692	1.000000	0.898895	7.37182e+06	-42489.1	1005.82	-29782.6	0.000000	0.000000	6.899124	0.084409	NaN	0.000000	0.001724	0.001711	28.0817	0.059546	0.002026	29.3911	41.0518	-169.588	0.016366	0.897583	-0.130287	-0.131598	0.084409	29.3911	-0.132441	-8.496099	-0.009935	NaN
692	1.000000	0.906911	7.37182e+06	-42489.1	1005.82	-29782.6	0.000000	0.000000	6.907139	0.065830	NaN	0.000000	0.001722	0.001749	28.0818	0.119869	0.001951	61.4298	-52.1015	-166.07	0.040204	0.905627	-0.122270	-0.123555	0.065830	61.4298	-0.123074	-5.568561	-0.011822	NaN
692	1.000000	0.914916	7.37182e+06	-42489.1	1005.82	-29782.6	0.000000	0.000000	6.915144	0.051907	NaN	0.000000	0.001744	0.001763	28.0816	0.140154	0.001996	70.2005	16.0699	-166.935	-0.020161	0.913636	-0.114265	-0.115545	0.051907	70.2005	-0.114820	-3.787790	-0.013704	NaN
692	1.000000	0.922872	7.37182e+06	-42489.1	1005.82	-29782.6	0.000000	0.000000	6.923097	-0.005388	NaN	0.000000	0.001719	0.001747	28.0817	0.105038	0.001942	54.0977	21.914	-164.287	-0.050468	0.921629	-0.106310	-0.107553	-0.005388	54.0977	-0.106235	-2.499012	0.002156	NaN
692	1.000000	0.930932	7.37182e+06	-42489.1	1005.82	-29782.6	0.000000	0.000000	6.931155	-0.057286	NaN	0.000000	0.001729	0.001728	28.0817	0.066237	0.001964	33.7266	75.2407	-166.846	-0.015186	0.929668	-0.098249	-0.099513	-0.057286	33.7266	-0.096975	-1.563769	0.036633	NaN
692	1.000000	0.938941	7.37182e+06	-42489.1	1005.82	-29782.6	0.000000	0.000000	6.939169	0.043521	NaN	0.000000	0.001677	0.001734	28.0817	0.126281	0.001908	66.1837	54.1541	-168.736	0.045571	0.937597	-0.090240	-0.091584	0.043521	66.1837	-0.090733	-1.124566	-0.038701	NaN
692	1.000000	0.946943	7.37182e+06	-42489.1	1005.82	-29782.6	0.000000	0.000000	6.947169	0.003784	NaN	0.000000	0.001664	0.001739	28.0815	0.093868	0.001953	48.0511	30.1218	-166.968	-0.031217	0.945655	-0.082238	-0.083526	0.003784	48.0511	-0.082297	-0.705823	-0.005361	NaN
692	1.000000	0.954933	7.37182e+06	-42489.1	1005.82	-29782.6	0.000000	0.000000	6.955160	0.029546	NaN	0.000000	0.001634	0.001759	28.0814	0.131172	0.001847	71.0124	-12.5626	-171.896	0.052022	0.953628	-0.074248	-0.075553	0.029546	71.0124	-0.074560	-0.449914	-0.065670	NaN
692	1.000000	0.962920	7.37182e+06	-42489.1	1005.82	-29782.6	0.000000	0.000000	6.963143	-0.047975	NaN	0.000000	0.001640	0.001733	28.0814	0.006823	0.002092	3.261454	97.2593	-161.744	-0.029963	0.961638	-0.066262	-0.067543	-0.047975	3.261454	-0.055229	-0.130803	0.366775	NaN
692	1.000000	0.970969	7.37182e+06	-42489.1	1005.82	-29782.6	0.000000	0.000000	6.971193	-0.037225	NaN	0.000000	0.001602	0.001715	28.0815	0.056965	0.002052	27.7644	-45.3642	-166.005	0.005698	0.969644	-0.058212	-0.059538	-0.037225	27.7644	-0.057207	-0.149506	0.248985	NaN
692	1.000000	0.978946	7.37182e+06	-42489.1	1005.82	-29782.6	0.000000	0.000000	6.979170	-0.026638	NaN	0.000000	0.001661	0.001699	28.0826	0.037055	0.002089	17.7399	59.802	-168.323	-0.002664	0.977614	-0.050236	-0.051567	-0.026638	17.7399	-0.049109	-0.085756	0.310624	NaN
692	1.000000	0.986930	7.37182e+06	-42489.1	1005.82	-29782.6	0.000000	0.000000	6.987157	0.039932	NaN	0.000000	0.001633	0.001722	28.0827	0.110494	0.001869	59.1182	48.781	-170.029	0.007906	0.985602	-0.042251	-0.043580	0.039932	59.1182	-0.042758	-0.054882	-0.727596	NaN
692	1.000000	0.994928	7.37182e+06	-42489.1	1005.82	-29782.6	0.000000	0.000000	6.995154	0.032482	NaN	0.000000	0.001629	0.001715	28.0825	0.082572	0.001998	41.3275	-77.6353	-164.599	0.052154	0.993606	-0.034254	-0.035575	0.032482	41.3275	-0.034843	-0.031686	-1.025126	NaN
692	1.000000	1.002963	7.37182e+06	-42489.1	1005.82	-29782.6	0.000000	0.000000	7.003190	0.029911	NaN	0.000000	0.001616	0.001748	28.0826	0.083398	0.001983	42.0566	40.8231	-166.31	0.019546	1.001649	-0.026218	-0.027532	0.029911	42.0566	-0.026752	-0.018766	-1.593898	NaN
692	1.000000	1.010943	7.37182e+06	-42489.1	1005.82	-29782.6	0.000000	0.000000	7.011167	-0.042313	NaN	0.000000	0.001614	0.001753	28.0827	0.108684	0.002061	52.7411	64.7845	-166.621	0.012569	1.009695	-0.018238	-0.019487	-0.042313	52.7411	-0.017637	-0.010923	3.873894	NaN
692	1.000000	1.018974	7.37182e+06	-42489.1	1005.82	-29782.6	0.000000	0.000000	7.019197	-0.052059	NaN	0.000000	0.001625	0.001749	28.0826	0.130224	0.002036	63.9753	25.7352	-167.255	-0.012526	1.017667	-0.010208	-0.011514	-0.052059	63.9753	-0.009597	-0.006157	8.455542	NaN
692	1.000000	1.026941	7.37182e+06	-42489.1	1005.82	-29782.6	0.000000	0.000000	7.027193	0.639813	NaN	0.000000	0.001612	0.001723	28.0828	1.096350	0.001928	568.572	17.9334	-168.533	0.266645	1.025591	-0.002240	-0.003590	0.639813	568.572	-0.003084	-0.002177	-293.946	NaN
692	2.000000	1.034342	7.37182e+06	-42489.1	1005.82	-29782.6	0.000000	0.000000	7.034949	9.273177	NaN	0.000000	0.001599	0.001773	28.0827	8.714565	0.001638	5321.55	10.3917	-174.693	8.540456	1.033558	0.005161	0.004376	9.273177	5321.55	0.003854	0.003111	2980.59	87166.2
692	2.000000	1.036511	7.37182e+06	-42489.1	1005.82	-29782.6	0.000000	0.000000	7.037211	11.5443	NaN	0.000000	0.001648	0.001743	28.0829	11.4463	0.001760	6505.07	7.814602	-173.487	11.5048	1.036267	0.007330	0.007086	11.5443	6505.07	0.005999	0.005063	2279.98	83523.2
692	2.000000	1.038462	7.37182e+06	-42489.1	1005.82	-29782.6	0.000000	0.000000	7.039337	15.7939	NaN	0.000000	0.001606	0.001744	28.0826	12.8091	0.001688	7589.92	1.942347	-169.174	15.3404	1.038121	0.009281	0.008939	15.7939	7589.92	0.007720	0.006756	2337.71	84364.8
692	2.000000	1.040454	7.37182e+06	-42489.1	1005.82	-29782.6	0.000000	0.000000	7.041416	17.9148	NaN	0.000000	0.001600	0.001731	28.0826	15.4331	0.001843	8374.11	6.455242	-172.783	17.7581	1.040161	0.011272	0.010980	17.9148	8374.11	0.009668	0.008815	2032.36	81490.3
692	2.000000	1.042490	7.37182e+06	-42489.1	1005.82	-29782.6	0.000000	0.000000	7.043570	20.7971	NaN	0.000000	0.001630	0.001723	28.0829	17.8362	0.001794	9943.52	11.0768	179.773	20.9768	1.042107	0.013309	0.012926	20.7971	9943.52	0.011740	0.011180	1860.17	85918.7
692	2.000000	1.044460	7.37182e+06	-42489.1	1005.82	-29782.6	0.000000	0.000000	7.045650	23.4678	NaN	0.000000	0.001615	0.001750	28.0827	19.1081	0.001660	11509.4	5.302360	-177.118	23.5281	1.044148	0.015279	0.014967	23.4678	11509.4	0.013750	0.013654	1718.74	89989.7
692	2.000000	1.046404	7.37182e+06	-42489.1	1005.82	-29782.6	0.000000	0.000000	7.047809	28.7004	NaN	0.000000	0.001617	0.001716	28.0829	22.2144	0.001795	12372.9	5.530498	-177.677	27.65	1.046144	0.017223	0.016962	28.7004	12372.9	0.015483	0.015935	1801.08	89550.1
692	2.000000	1.048402	7.37182e+06	-42489.1	1005.82	-29782.6	0.000000	0.000000	7.049952	32.2188	NaN	0.000000	0.001554	0.001740	28.0828	22.5058	0.001656	13590.3	1.751325	-175.479	31.4053	1.048122	0.019221	0.018941	32.2188	13590.3	0.017443	0.018682	1724.62	90843.2
692	2.000000	1.050390	7.37182e+06	-42489.1	1005.82	-29782.6	0.000000	0.000000	7.052038	34.5958	NaN	0.000000	0.001600	0.001720	28.0832	25.3599	0.001931	13132.6	5.958791	-177.734	33.7012	1.050082	0.021209	0.020901	34.5958	13132.6	0.019233	0.021352	1620.29	82112.5
692	2.000000	1.052413	7.37182e+06	-42489.1	1005.82	-29782.6	0.000000	0.000000	7.054233	38.781	NaN	0.000000	0.001608	0.001727	28.083	26.8958	0.001869	14391.2	3.251403	-176.878	36.898	1.052147	0.023232	0.022966	38.781	14391.2	0.021211	0.024480	1584.16	84035.2
692	2.000000	1.054361	7.37182e+06	-42489.1	1005.82	-29782.6	0.000000	0.000000	7.056433	44.9301	NaN	0.000000	0.001589	0.001706	28.0816	28.3282	0.001833	15455.7	4.921784	-179.607	43.4306	1.054009	0.025179	0.024828	44.9301	15455.7	0.022999	0.027476	1635.26	85189.4
692	2.000000	1.056389	7.37182e+06	-42489.1	1005.82	-29782.6	0.000000	0.000000	7.058688	50.4579	NaN	0.000000	0.001582	0.001732	28.0818	31.1095	0.001771	17563	6.505656	177.732	49.8921	1.056071	0.027208	0.026890	50.4579	17563	0.025053	0.031112	1621.82	90972.4
692	2.000000	1.058394	7.37182e+06	-42489.1	1005.82	-29782.6	0.000000	0.000000	7.060803	53.1175	NaN	0.000000	0.001605	0.001711	28.0817	31.4061	0.001905	16485.7	3.423272	-177.815	53.188	1.058108	0.029213	0.028927	53.1175	16485.7	0.026796	0.034365	1545.71	81250.5
692	2.000000	1.060372	7.37182e+06	-42489.1	1005.82	-29782.6	0.000000	0.000000	7.063168	62.5278	NaN	0.000000	0.001594	0.001741	28.082	33.8688	0.001651	20516.1	3.416643	178.342	60.7525	1.060068	0.031191	0.030887	62.5278	20516.1	0.028905	0.038505	1623.89	95523.2
692	2.000000	1.062413	7.37182e+06	-42489.1	1005.82	-29782.6	0.000000	0.000000	7.065422	67.7266	NaN	0.000000	0.001618	0.001727	28.0817	36.4854	0.002039	17896.4	5.919130	179.716	68.2879	1.062126	0.033232	0.032944	67.7266	17896.4	0.030394	0.041564	1629.47	80201.6
692	2.000000	1.064405	7.37182e+06	-42489.1	1005.82	-29782.6	0.000000	0.000000	7.067631	73.0156	NaN	0.000000	0.001615	0.001723	28.0817	38.4477	0.001963	19583.1	5.767293	177.501	71.5956	1.064067	0.035223	0.034885	73.0156	19583.1	0.032427	0.045924	1589.92	83490.1
692	2.000000	1.066368	7.37182e+06	-42489.1	1005.82	-29782.6	0.000000	0.000000	7.069848	79.2009	NaN	0.000000	0.001599	0.001747	28.082	38.4269	0.001736	22131.4	2.476948	179.562	77.7253	1.066008	0.037186	0.036826	79.2009	22131.4	0.034502	0.050594	1565.43	89894.8
692	2.000000	1.068403	7.37182e+06	-42489.1	1005.82	-29782.6	0.000000	0.000000	7.072179	86.3816	NaN	0.000000	0.001611	0.001714	28.0819	39.8116	0.001838	21663.9	4.695925	177.984	86.373	1.068070	0.039222	0.038889	86.3816	21663.9	0.036231	0.054651	1580.59	84666.1
692	2.000000	1.070383	7.37182e+06	-42489.1	1005.82	-29782.6	0.000000	0.000000	7.074458	93.66	NaN	0.000000	0.001619	0.001730	28.0825	41.4276	0.001908	21714.2	3.413128	179.765	94.594	1.070012	0.041202	0.040830	93.66	21714.2	0.037967	0.058879	1590.72	81759.4
692	2.000000	1.072447	7.37182e+06	-42489.1	1005.82	-29782.6	0.000000	0.000000	7.076618	96.007	NaN	0.000000	0.001568	0.001733	28.0818	43.7685	0.001808	24212.8	5.519535	175.421	98.0061	1.072083	0.043265	0.042901	96.007	24212.8	0.040291	0.064784	1481.97	86913.3
692	2.000000	1.074376	7.37182e+06	-42489.1	1005.82	-29782.6	0.000000	0.000000	7.078991	106.797	NaN	0.000000	0.001567	0.001745	28.0816	44.8267	0.001751	25593.9	6.068370	175.224	106.076	1.074071	0.045195	0.044889	106.797	25593.9	0.042065	0.069474	1537.21	88715
692	2.000000	1.076331	7.37182e+06	-42489.1	1005.82	-29782.6	0.000000	0.000000	7.081310	115.636	NaN	0.000000	0.001601	0.001764	28.082	47.4562	0.001781	26646.5	3.122287	177.352	112.55	1.076064	0.047150	0.046882	115.636	26646.5	0.043895	0.074482	1552.54	89204.7
692	2.000000	1.078315	7.37182e+06	-42489.1	1005.82	-29782.6	0.000000	0.000000	7.083671	124.847	NaN	0.000000	0.001612	0.001770	28.0817	48.3069	0.001793	26942.4	4.579905	176.497	121.852	1.077941	0.049133	0.048759	124.847	26942.4	0.045658	0.079466	1571.06	87321
692	2.000000	1.080392	7.37182e+06	-42489.1	1005.82	-29782.6	0.000000	0.000000	7.086046	132.084	NaN	0.000000	0.001602	0.001799	28.0822	51.4373	0.001957	26290.2	4.426572	175.986	131.922	1.080015	0.051211	0.050834	132.084	26290.2	0.047443	0.084673	1559.93	82545.7
692	2.000000	1.082339	7.37182e+06	-42489.1	1005.82	-29782.6	0.000000	0.000000	7.088323	140.103	NaN	0.000000	0.001633	0.001737	28.0818	52.7434	0.001796	29366.4	5.038854	174.053	138.65	1.082075	0.053158	0.052894	140.103	29366.4	0.049580	0.091118	1537.6	88883.7
692	2.000000	1.084304	7.37182e+06	-42489.1	1005.82	-29782.6	0.000000	0.000000	7.090939	155.929	NaN	0.000000	0.001618	0.001717	28.0818	53.6713	0.001803	29760	6.462941	173.518	155.218	1.084019	0.055123	0.054838	155.929	29760	0.051193	0.096137	1621.94	87691.9
692	2.000000	1.086370	7.37182e+06	-42489.1	1005.82	-29782.6	0.000000	0.000000	7.093278	162.586	NaN	0.000000	0.001643	0.001748	28.0821	56.4867	0.001720	32837.1	3.652298	175.374	162.033	1.085961	0.057188	0.056780	162.586	32837.1	0.053475	0.103456	1571.55	93274
692	2.000000	1.088314	7.37182e+06	-42489.1	1005.82	-29782.6	0.000000	0.000000	7.095738	175.133	NaN	0.000000	0.001687	0.001720	28.0831	57.3791	0.001879	30540.1	4.708877	174.761	171.143	1.088095	0.059133	0.058913	175.133	30540.1	0.054832	0.107932	1622.62	84931.6
692	2.000000	1.090295	7.37182e+06	-42489.1	1005.82	-29782.6	0.000000	0.000000	7.098087	184.106	NaN	0.000000	0.001666	0.001698	28.0832	59.7076	0.001862	32062	4.815152	174.958	183.343	1.090009	0.061114	0.060828	184.106	32062	0.056807	0.114608	1606.4	86527.8
692	2.000000	1.092349	7.37182e+06	-42489.1	1005.82	-29782.6	0.000000	0.000000	7.100663	196.816	NaN	0.000000	0.001677	0.001715	28.0829	60.9905	0.001708	35704.3	7.556678	171.165	195.456	1.091964	0.063167	0.062783	196.816	35704.3	0.059033	0.122363	1608.46	93254.3
692	2.000000	1.094314	7.37182e+06	-42489.1	1005.82	-29782.6	0.000000	0.000000	7.102999	205.828	NaN	0.000000	0.001610	0.001710	28.0833	63.1547	0.001752	36042.8	6.849710	171.345	202.703	1.094024	0.065133	0.064843	205.828	36042.8	0.060850	0.128873	1597.14	91730
692	2.000000	1.096311	7.37182e+06	-42489.1	1005.82	-29782.6	0.000000	0.000000	7.105159	209.795	NaN	0.000000	0.001637	0.001730	28.083	65.5497	0.001838	35661.9	2.257929	175.34	208.047	1.096206	0.067130	0.067024	209.795	35661.9	0.062717	0.135732	1545.65	88437.4
692	2.000000	1.098270	7.37182e+06	-42489.1	1005.82	-29782.6	0.000000	0.000000	7.107871	228.108	NaN	0.000000	0.001625	0.001723	28.0832	66.2413	0.001800	36801.9	-0.024205	178.307	224.561	1.098077	0.069089	0.068896	228.108	36801.9	0.064440	0.142209	1604.03	89161.9
692	2.000000	1.100365	7.37182e+06	-42489.1	1005.82	-29782.6	0.000000	0.000000	7.110357	237.613	NaN	0.000000	0.001624	0.001718	28.0834	68.2821	0.001785	38247.9	4.669627	173.318	241.129	1.100047	0.071184	0.070866	237.613	38247.9	0.066525	0.150239	1581.57	90154.9
692	2.000000	1.102287	7.37182e+06	-42489.1	1005.82	-29782.6	0.000000	0.000000	7.112999	255.131	NaN	0.000000	0.001620	0.001723	28.0843	70.418	0.001749	40265.4	7.731785	169.466	251.519	1.102006	0.073106	0.072824	255.131	40265.4	0.068354	0.157455	1620.34	92710.1
692	2.000000	1.104260	7.37182e+06	-42489.1	1005.82	-29782.6	0.000000	0.000000	7.115495	267.877	NaN	0.000000	0.001692	0.001704	28.0833	71.0181	0.001876	37863.8	4.923720	173.073	263.128	1.103955	0.075078	0.074774	267.877	37863.8	0.069772	0.163163	1641.78	85642.1
692	2.000000	1.106247	7.37182e+06	-42489.1	1005.82	-29782.6	0.000000	0.000000	7.117637	271.626	NaN	0.000000	0.001669	0.001693	28.083	72.5981	0.001666	43582	1.475029	174.989	267.25	1.106084	0.077066	0.076902	271.626	43582	0.072391	0.173952	1561.5	95469.7
692	2.000000	1.108313	7.37182e+06	-42489.1	1005.82	-29782.6	0.000000	0.000000	7.120499	291.025	NaN	0.000000	0.001709	0.001714	28.083	74.4408	0.001683	44229	7.588630	168.49	289.179	1.107976	0.079131	0.078794	291.025	44229	0.074196	0.181576	1602.77	94831.2
692	2.000000	1.110434	7.37182e+06	-42489.1	1005.82	-29782.6	0.000000	0.000000	7.122622	291.041	NaN	0.000000	0.001689	0.001693	28.083	76.8645	0.001744	44072.7	2.789006	174.262	298.418	1.110058	0.081253	0.080877	291.041	44072.7	0.076300	0.190656	1526.52	92218.3
692	2.000000	1.112343	7.37182e+06	-42489.1	1005.82	-29782.6	0.000000	0.000000	7.125323	310.342	NaN	0.000000	0.001689	0.001709	28.0828	77.7195	0.001760	44161.1	-0.585260	177.61	307.982	1.112087	0.083161	0.082906	310.342	44161.1	0.077891	0.197659	1570.08	90751.5
692	2.000000	1.114353	7.37183e+06	-42489.1	1005.82	-29782.6	0.000000	0.000000	7.127948	325.317	NaN	0.000000	0.001672	0.001703	28.0831	80.2092	0.001763	45497.9	3.010832	173.782	327.782	1.113979	0.085171	0.084798	325.317	45497.9	0.079808	0.206260	1577.22	91528.6
692	2.000000	1.116228	7.37183e+06	-42489.1	1005.82	-29782.6	0.000000	0.000000	7.130225	335.077	NaN	0.000000	0.001659	0.001728	28.0828	83.2398	0.001847	45075.6	3.625955	172.671	328.474	1.115964	0.087046	0.086782	335.077	45075.6	0.081471	0.213856	1566.84	89054.1
692	2.000000	1.118256	7.37183e+06	-42489.1	1005.82	-29782.6	0.000000	0.000000	7.132949	352.025	NaN	0.000000	0.001670	0.001730	28.0829	84.3364	0.001738	48519.4	4.866386	171.116	347.62	1.117864	0.089074	0.088683	352.025	48519.4	0.083633	0.223922	1572.09	93678.6
692	2.000000	1.120206	7.37183e+06	-42489.1	1005.82	-29782.6	0.000000	0.000000	7.135384	363.81	NaN	0.000000	0.001686	0.001740	28.083	86.2436	0.001840	46864.4	3.409276	172.955	356.378	1.119890	0.091024	0.090708	363.81	46864.4	0.085202	0.231367	1572.44	89015.5
692	2.000000	1.122192	7.37183e+06	-42489.1	1005.82	-29782.6	0.000000	0.000000	7.138231	384.76	NaN	0.000000	0.001662	0.001758	28.0815	87.8999	0.001770	49648.9	2.272039	174.144	377.09	1.121858	0.093011	0.092677	384.76	49648.9	0.087199	0.241002	1596.5	92400.2
692	2.000000	1.124215	7.37183e+06	-42489.1	1005.82	-29782.6	0.000000	0.000000	7.140604	393.263	NaN	0.000000	0.001683	0.001729	28.0819	89.6313	0.001750	51232.1	6.755249	168.535	387.265	1.123905	0.095034	0.094724	393.263	51232.1	0.089277	0.251225	1565.38	93386.4
692	2.000000	1.126257	7.37183e+06	-42489.1	1005.82	-29782.6	0.000000	0.000000	7.143461	413.096	NaN	0.000000	0.001623	0.001737	28.0819	93.3866	0.001843	50679.3	3.947796	172.177	409.157	1.125933	0.097076	0.096751	413.096	50679.3	0.090963	0.259664	1590.89	90865.4
692	2.000000	1.128310	7.37183e+06	-42489.1	1005.82	-29782.6	0.000000	0.000000	7.145622	415.733	NaN	0.000000	0.001640	0.001739	28.0821	94.3543	0.001794	52602.1	6.150980	168.791	413.905	1.128063	0.099128	0.098881	415.733	52602.1	0.093201	0.271070	1533.67	92307.1
692	2.000000	1.130369	7.37183e+06	-42489.1	1005.82	-29782.6	0.000000	0.000000	7.148540	436.642	NaN	0.000000	0.001632	0.001751	28.0823	96.4754	0.001789	53926.8	4.420995	170.941	439.157	1.129949	0.101187	0.100767	436.642	53926.8	0.095115	0.281004	1553.86	92944.2
692	2.000000	1.132309	7.37183e+06	-42489.1	1005.82	-29782.6	0.000000	0.000000	7.151583	463.475	NaN	0.000000	0.001657	0.001749	28.0819	98.5897	0.001816	54291.5	7.509198	168.064	461.377	1.131970	0.103127	0.102788	463.475	54291.5	0.096725	0.289489	1601.01	92191
692	2.000000	1.132813	7.37183e+06	-42489.1	1005.82	-29782.6	0.000000	0.000000	7.152124	464.373	NaN	0.000000	0.001670	0.001728	28.0819	99.5335	0.001827	54487	6.069524	-10.8487	463.131	1.132511	0.103632	0.103330	464.373	54487	0.097240	0.292231	1589.06	92088