File: remote_trans/data/nanoindenter/0828-1/data/Data_2025-08-06,11h17m57s/2025-07-22_16-23-58_1_1174.txt
2025-07-22, 16:23:58, 1
Index	Phase	Displacement	Time	Pos X	Pos Y	Pos Z	Rot A	Rot B	Piezo Z	Force A	Force B	Gripper	Voltage A	Voltage B	Temperature	Amplitude force	Amplitude pos	Stiffness	Phase shift	Phase excitation	Force A raw	Displacement raw	HMax	HMax raw	Real Force	Real Stiffness	Contact Depth	Area	Hardness	Reduced Mod.
[#]	[#]	[um]	[s]	[um]	[um]	[um]	[m°]	[m°]	[um]	[uN]	[uN]	[V]	[V]	[V]	[°C]	[uN]	[um]	[N/m]	[°]	[°]	[uN]	[um]	[um]	[um]	[uN]	[N/m]	[um]	[um^2]	[MPa]	[MPa]
1174	1.000000	0.002190	7.37653e+06	-56889.1	1105.82	-29737.8	0.000000	0.000000	6.002808	0.061355	NaN	0.000000	0.001640	0.001694	28.0807	0.129561	0.000950	136.338	-98.5526	-163.026	0.050247	0.000943	-1.025797	-1.027044	0.061355	136.338	-1.026134	-5.098915E+13	-1.203293E-15	NaN
1174	1.000000	0.010152	7.37653e+06	-56889.1	1105.82	-29737.8	0.000000	0.000000	6.010766	-0.048196	NaN	0.000000	0.001610	0.001689	28.0807	0.026782	0.001016	26.3682	52.1231	-169.284	-0.036815	0.008830	-1.017834	-1.019156	-0.048196	26.3682	-1.016464	-3.778912E+13	1.275400E-15	NaN
1174	1.000000	0.018123	7.37653e+06	-56889.1	1105.82	-29737.8	0.000000	0.000000	6.018737	-0.049485	NaN	0.000000	0.001602	0.001688	28.0805	0.052274	0.001839	28.4288	93.6739	-162.09	-0.051631	0.016848	-1.009863	-1.011139	-0.049485	28.4288	-1.008558	-2.957821E+13	1.673035E-15	NaN
1174	1.000000	0.026134	7.37653e+06	-56889.1	1105.82	-29737.8	0.000000	0.000000	6.026751	0.034545	NaN	0.000000	0.001619	0.001661	28.0807	0.073744	0.001896	38.9028	146.79	-168.589	-0.006631	0.024845	-1.001852	-1.003141	0.034545	38.9028	-1.002518	-2.452866E+13	-1.408353E-15	NaN
1174	1.000000	0.034167	7.37653e+06	-56889.1	1105.82	-29737.8	0.000000	0.000000	6.034780	-0.050024	NaN	0.000000	0.001597	0.001640	28.0805	0.011718	0.001900	6.166874	-54.8145	-165.723	-0.054794	0.032816	-0.993820	-0.995170	-0.050024	6.166874	-0.987736	-1.551032E+13	3.225183E-15	NaN
1174	1.000000	0.042148	7.37653e+06	-56889.1	1105.82	-29737.8	0.000000	0.000000	6.042765	0.028595	NaN	0.000000	0.001609	0.001651	28.0805	0.064867	0.001967	32.9725	159.006	-165.197	-0.052245	0.040880	-0.985838	-0.987107	0.028595	32.9725	-0.986489	-1.492166E+13	-1.916331E-15	NaN
1174	1.000000	0.050142	7.37653e+06	-56889.1	1105.82	-29737.8	0.000000	0.000000	6.050757	-0.035446	NaN	0.000000	0.001591	0.001686	28.0811	0.053842	0.001981	27.1813	7.349343	-163.66	-0.057658	0.048842	-0.977844	-0.979144	-0.035446	27.1813	-0.976866	-1.107097E+13	3.201724E-15	NaN
1174	1.000000	0.058128	7.37653e+06	-56889.1	1105.82	-29737.8	0.000000	0.000000	6.058744	0.018319	NaN	0.000000	0.001612	0.001691	28.0806	0.083193	0.001937	42.9522	148.043	-170.121	0.034735	0.056819	-0.969858	-0.971168	0.018319	42.9522	-0.970178	-8.996350E+12	-2.036323E-15	NaN
1174	1.000000	0.066129	7.37653e+06	-56889.1	1105.82	-29737.8	0.000000	0.000000	6.066746	0.034655	NaN	0.000000	0.001616	0.001683	28.0808	0.099915	0.002016	49.5665	-16.9216	-164.938	0.027268	0.064792	-0.961857	-0.963194	0.034655	49.5665	-0.962382	-7.062773E+12	-4.906742E-15	NaN
1174	1.000000	0.074135	7.37653e+06	-56889.1	1105.82	-29737.8	0.000000	0.000000	6.074749	-0.044454	NaN	0.000000	0.001624	0.001700	28.0808	0.088601	0.002034	43.5632	38.6967	-166.222	-0.055178	0.072810	-0.953851	-0.955177	-0.044454	43.5632	-0.953086	-5.292245E+12	8.399900E-15	NaN
1174	1.000000	0.082125	7.37653e+06	-56889.1	1105.82	-29737.8	0.000000	0.000000	6.082739	-0.066034	NaN	0.000000	0.001606	0.001659	28.0805	0.122750	0.002011	61.0375	7.541073	-166.986	0.010674	0.080868	-0.945861	-0.947119	-0.066034	61.0375	-0.945050	-4.123410E+12	1.601443E-14	NaN
1174	1.000000	0.090136	7.37653e+06	-56889.1	1105.82	-29737.8	0.000000	0.000000	6.090754	0.041710	NaN	0.000000	0.001623	0.001635	28.0815	0.067544	0.001983	34.0647	-126.471	-169.876	0.081982	0.088826	-0.937850	-0.939160	0.041710	34.0647	-0.938768	-3.392513E+12	-1.229467E-14	NaN
1174	1.000000	0.098133	7.37653e+06	-56889.1	1105.82	-29737.8	0.000000	0.000000	6.098746	-0.076305	NaN	0.000000	0.001597	0.001676	28.0807	0.070896	0.001926	36.8179	-168.157	-164.102	-0.029245	0.096841	-0.929853	-0.931145	-0.076305	36.8179	-0.928299	-2.450405E+12	3.113957E-14	NaN
1174	1.000000	0.106130	7.37653e+06	-56889.1	1105.82	-29737.8	0.000000	0.000000	6.106748	0.051353	NaN	0.000000	0.001648	0.001637	28.0806	0.059575	0.001897	31.3995	12.5061	-165.448	-0.071357	0.104844	-0.921856	-0.923143	0.051353	31.3995	-0.923083	-2.083663E+12	-2.464567E-14	NaN
1174	1.000000	0.114155	7.37653e+06	-56889.1	1105.82	-29737.8	0.000000	0.000000	6.114769	-0.034694	NaN	0.000000	0.001557	0.001629	28.0807	0.069132	0.001943	35.5773	-87.1198	-166.508	0.013695	0.112813	-0.913832	-0.915174	-0.034694	35.5773	-0.913100	-1.527697E+12	2.271025E-14	NaN
1174	1.000000	0.122161	7.37653e+06	-56889.1	1105.82	-29737.8	0.000000	0.000000	6.122777	0.013466	NaN	0.000000	0.001551	0.001696	28.082	0.097999	0.002003	48.9267	-61.7785	-163.79	-0.005900	0.120869	-0.905826	-0.907117	0.013466	48.9267	-0.906032	-1.226210E+12	-1.098196E-14	NaN
1174	1.000000	0.130178	7.37653e+06	-56889.1	1105.82	-29737.8	0.000000	0.000000	6.130793	-0.019158	NaN	0.000000	0.001509	0.001684	28.0822	0.048168	0.002024	23.8018	-92.3813	-169.502	-0.011356	0.128879	-0.897808	-0.899107	-0.019158	23.8018	-0.897205	-9.317329E+11	2.056164E-14	NaN
1174	1.000000	0.138155	7.37653e+06	-56889.1	1105.82	-29737.8	0.000000	0.000000	6.138765	-0.131558	NaN	0.000000	0.001546	0.001680	28.0823	0.038335	0.001895	20.232	-35.3182	-165.806	-0.061750	0.136895	-0.889832	-0.891091	-0.131558	20.232	-0.884955	-6.363684E+11	2.067326E-13	NaN
1174	1.000000	0.146168	7.37653e+06	-56889.1	1105.82	-29737.8	0.000000	0.000000	6.146783	-0.025316	NaN	0.000000	0.001542	0.001682	28.0823	0.046500	0.002070	22.4662	41.3042	-167.432	-0.028054	0.144823	-0.881818	-0.883163	-0.025316	22.4662	-0.880973	-5.621724E+11	4.503228E-14	NaN
1174	1.000000	0.154161	7.37653e+06	-56889.1	1105.82	-29737.8	0.000000	0.000000	6.154778	0.031524	NaN	0.000000	0.001538	0.001680	28.0821	0.127659	0.002121	60.1787	-4.814774	-168.548	-0.013308	0.152821	-0.873826	-0.875165	0.031524	60.1787	-0.874218	-4.555235E+11	-6.920432E-14	NaN
1174	1.000000	0.162151	7.37653e+06	-56889.1	1105.82	-29737.8	0.000000	0.000000	6.162767	0.001911	NaN	0.000000	0.001525	0.001692	28.0823	0.151534	0.001979	76.578	-4.824284	-168.179	0.001910	0.160832	-0.865835	-0.867154	0.001911	76.578	-0.865854	-3.510309E+11	-5.443234E-15	NaN
1174	1.000000	0.170169	7.37653e+06	-56889.1	1105.82	-29737.8	0.000000	0.000000	6.170783	-0.039888	NaN	0.000000	0.001531	0.001680	28.0819	0.056272	0.001933	29.1114	-55.2306	-167.026	-0.019809	0.168959	-0.857818	-0.859027	-0.039888	29.1114	-0.856790	-2.646496E+11	1.507204E-13	NaN
1174	1.000000	0.178209	7.37653e+06	-56889.1	1105.82	-29737.8	0.000000	0.000000	6.178826	0.042725	NaN	0.000000	0.001543	0.001719	28.0823	0.022149	0.002005	11.0482	55.0948	-165.203	0.027544	0.176849	-0.849777	-0.851137	0.042725	11.0482	-0.852678	-2.328072E+11	-1.835204E-13	NaN
1174	1.000000	0.186176	7.37653e+06	-56889.1	1105.82	-29737.8	0.000000	0.000000	6.186790	-0.036249	NaN	0.000000	0.001539	0.001695	28.0822	0.107213	0.002013	53.2475	-176.432	-167.089	-0.004122	0.184923	-0.841811	-0.843063	-0.036249	53.2475	-0.841300	-1.632702E+11	2.220210E-13	NaN
1174	1.000000	0.194181	7.37653e+06	-56889.1	1105.82	-29737.8	0.000000	0.000000	6.194794	-0.059130	NaN	0.000000	0.001549	0.001640	28.0822	0.047320	0.001894	24.9889	-7.227400	-164.59	-0.059132	0.192876	-0.833805	-0.835110	-0.059130	24.9889	-0.832031	-1.222664E+11	4.836168E-13	NaN
1174	1.000000	0.202184	7.37653e+06	-56889.1	1105.82	-29737.8	0.000000	0.000000	6.202800	0.006577	NaN	0.000000	0.001534	0.001667	28.0823	0.075825	0.002012	37.6801	102.555	-164.931	-7.490000E-5	0.200863	-0.825803	-0.827123	0.006577	37.6801	-0.825933	-1.010791E+11	-6.506731E-14	NaN
1174	1.000000	0.210201	7.37653e+06	-56889.1	1105.82	-29737.8	0.000000	0.000000	6.210817	0.014183	NaN	0.000000	0.001535	0.001652	28.082	0.095902	0.001952	49.1395	18.5083	-164.582	0.031822	0.208915	-0.817786	-0.819071	0.014183	49.1395	-0.818002	-7.890737E+10	-1.797401E-13	NaN
1174	1.000000	0.218222	7.37653e+06	-56889.1	1105.82	-29737.8	0.000000	0.000000	6.218840	0.045403	NaN	0.000000	0.001591	0.001699	28.082	0.072971	0.002262	32.2557	-112.336	-165.52	0.013000	0.216909	-0.809764	-0.811077	0.045403	32.2557	-0.810820	-6.305197E+10	-7.200891E-13	NaN
1174	1.000000	0.226179	7.37653e+06	-56889.1	1105.82	-29737.8	0.000000	0.000000	6.226796	0.010365	NaN	0.000000	0.001574	0.001713	28.0826	0.060602	0.001943	31.1835	-97.1846	-164.026	0.063817	0.224879	-0.801807	-0.803107	0.010365	31.1835	-0.802056	-4.794849E+10	-2.161661E-13	NaN
1174	1.000000	0.234212	7.37653e+06	-56889.1	1105.82	-29737.8	0.000000	0.000000	6.234826	-0.057735	NaN	0.000000	0.001602	0.001694	28.0822	0.141560	0.001994	70.9831	-131.481	-167.562	0.008972	0.232929	-0.793774	-0.795057	-0.057735	70.9831	-0.793164	-3.631233E+10	1.589950E-12	NaN
1174	1.000000	0.242189	7.37653e+06	-56889.1	1105.82	-29737.8	0.000000	0.000000	6.242803	-0.024146	NaN	0.000000	0.001548	0.001689	28.0823	0.042923	0.002038	21.058	32.144	-168.842	0.014934	0.240951	-0.785798	-0.787036	-0.024146	21.058	-0.784938	-2.807511E+10	8.600558E-13	NaN
1174	1.000000	0.250210	7.37653e+06	-56889.1	1105.82	-29737.8	0.000000	0.000000	6.250824	-0.050922	NaN	0.000000	0.001579	0.001657	28.082	0.087285	0.002032	42.9648	25.3213	-167.75	-0.040091	0.248911	-0.777776	-0.779075	-0.050922	42.9648	-0.776887	-2.182362E+10	2.333337E-12	NaN
1174	1.000000	0.258202	7.37653e+06	-56889.1	1105.82	-29737.8	0.000000	0.000000	6.258819	0.014856	NaN	0.000000	0.001562	0.001660	28.081	0.067101	0.001997	33.5967	41.5575	-170.354	-0.080956	0.256880	-0.769784	-0.771106	0.014856	33.5967	-0.770116	-1.765546E+10	-8.414555E-13	NaN
1174	1.000000	0.266215	7.37653e+06	-56889.1	1105.82	-29737.8	0.000000	0.000000	6.266827	-0.093044	NaN	0.000000	0.001550	0.001652	28.0809	0.189724	0.001897	100.013	-143.638	-167.382	-0.091552	0.264904	-0.761772	-0.763082	-0.093044	100.013	-0.761074	-1.330183E+10	6.994818E-12	NaN
1174	1.000000	0.274243	7.37653e+06	-56889.1	1105.82	-29737.8	0.000000	0.000000	6.274857	-0.043315	NaN	0.000000	0.001543	0.001675	28.0809	0.032619	0.001967	16.5813	125.462	-164.893	-0.105507	0.272938	-0.753743	-0.755048	-0.043315	16.5813	-0.751784	-9.942600E+9	4.356552E-12	NaN
1174	1.000000	0.282222	7.37653e+06	-56889.1	1105.82	-29737.8	0.000000	0.000000	6.282836	-0.031199	NaN	0.000000	0.001567	0.001668	28.0808	0.046574	0.001941	24	133.895	-166.509	-0.031231	0.280933	-0.745765	-0.747054	-0.031199	24	-0.744790	-7.985220E+9	3.907085E-12	NaN
1174	1.000000	0.290224	7.37653e+06	-56889.1	1105.82	-29737.8	0.000000	0.000000	6.290839	-0.029924	NaN	0.000000	0.001555	0.001668	28.0808	0.049063	0.002094	23.4272	95.2816	-163.485	-0.043205	0.288965	-0.737762	-0.739021	-0.029924	23.4272	-0.736804	-6.216215E+9	4.813843E-12	NaN
1174	1.000000	0.298251	7.37653e+06	-56889.1	1105.82	-29737.8	0.000000	0.000000	6.298866	-0.025499	NaN	0.000000	0.001537	0.001643	28.0814	0.066322	0.002025	32.7595	-3.403459	-166.702	0.017944	0.296890	-0.729735	-0.731096	-0.025499	32.7595	-0.729152	-4.889275E+9	5.215261E-12	NaN
1174	1.000000	0.306220	7.37653e+06	-56889.1	1105.82	-29737.8	0.000000	0.000000	6.306836	0.005976	NaN	0.000000	0.001588	0.001675	28.0812	0.016168	0.002058	7.855466	-49.1287	-168.792	-0.004352	0.304938	-0.721767	-0.723048	0.005976	7.855466	-0.722337	-3.947719E+9	-1.513781E-12	NaN
1174	1.000000	0.314230	7.37653e+06	-56889.1	1105.82	-29737.8	0.000000	0.000000	6.314845	-0.032265	NaN	0.000000	0.001603	0.001699	28.0812	0.131460	0.002032	64.6797	-36.9423	-165.108	-0.020908	0.312956	-0.713756	-0.715031	-0.032265	64.6797	-0.713382	-2.979879E+9	1.082752E-11	NaN
1174	1.000000	0.322235	7.37653e+06	-56889.1	1105.82	-29737.8	0.000000	0.000000	6.322851	0.005095	NaN	0.000000	0.001556	0.001703	28.0813	0.081574	0.001938	42.1003	62.9976	-163.963	-0.029480	0.320940	-0.705751	-0.707046	0.005095	42.1003	-0.705842	-2.351216E+9	-2.166866E-12	NaN
1174	1.000000	0.330246	7.37653e+06	-56889.1	1105.82	-29737.8	0.000000	0.000000	6.330861	-0.017090	NaN	0.000000	0.001547	0.001666	28.0808	0.059950	0.002042	29.3557	150.233	-165.267	-0.005396	0.328970	-0.697740	-0.699016	-0.017090	29.3557	-0.697304	-1.797663E+9	9.506524E-12	NaN
1174	1.000000	0.338267	7.37653e+06	-56889.1	1105.82	-29737.8	0.000000	0.000000	6.338882	-0.006770	NaN	0.000000	0.001475	0.001658	28.0813	0.074906	0.001963	38.1585	-15.5033	-169.084	-0.066033	0.336927	-0.689720	-0.691059	-0.006770	38.1585	-0.689587	-1.410165E+9	4.800755E-12	NaN
1174	1.000000	0.346252	7.37653e+06	-56889.1	1105.82	-29737.8	0.000000	0.000000	6.346867	-0.025325	NaN	0.000000	0.001529	0.001667	28.0808	0.082508	0.001964	42.004	-56.5725	-166.248	-0.041134	0.344959	-0.681734	-0.683028	-0.025325	42.004	-0.681282	-1.085762E+9	2.332506E-11	NaN
1174	1.000000	0.354263	7.37653e+06	-56889.1	1105.82	-29737.8	0.000000	0.000000	6.354880	0.027659	NaN	0.000000	0.001486	0.001666	28.0805	0.042692	0.001962	21.7563	-59.3704	-169.468	0.029401	0.352934	-0.673723	-0.675053	0.027659	21.7563	-0.674677	-8.818344E+8	-3.136566E-11	NaN
1174	1.000000	0.362242	7.37653e+06	-56889.1	1105.82	-29737.8	0.000000	0.000000	6.362855	-0.049584	NaN	0.000000	0.001502	0.001671	28.0807	0.082308	0.001952	42.1621	-82.9142	-168.252	-0.088994	0.360917	-0.665745	-0.667069	-0.049584	42.1621	-0.664863	-6.472377E+8	7.660796E-11	NaN
1174	1.000000	0.370261	7.37653e+06	-56889.1	1105.82	-29737.8	0.000000	0.000000	6.370879	0.048706	NaN	0.000000	0.001553	0.001674	28.0807	0.160019	0.002111	75.7909	-66.4685	-166.919	-0.006377	0.368950	-0.657725	-0.659036	0.048706	75.7909	-0.658207	-5.246940E+8	-9.282742E-11	NaN
1174	1.000000	0.378253	7.37653e+06	-56889.1	1105.82	-29737.8	0.000000	0.000000	6.378865	-0.072334	NaN	0.000000	0.001550	0.001655	28.081	0.061399	0.002088	29.4057	96.8166	-165.194	-0.080718	0.376992	-0.649734	-0.650995	-0.072334	29.4057	-0.647889	-3.788720E+8	1.909182E-10	NaN
1174	1.000000	0.386256	7.37653e+06	-56889.1	1105.82	-29737.8	0.000000	0.000000	6.386871	-0.021350	NaN	0.000000	0.001565	0.001658	28.0808	0.033510	0.001979	16.9368	27.7738	-165.778	0.019922	0.384976	-0.641731	-0.643011	-0.021350	16.9368	-0.640785	-3.027366E+8	7.052231E-11	NaN
1174	1.000000	0.394307	7.37653e+06	-56889.1	1105.82	-29737.8	0.000000	0.000000	6.394925	0.053275	NaN	0.000000	0.001548	0.001656	28.082	0.084350	0.002045	41.2503	-163.621	-165.984	0.029992	0.392993	-0.633679	-0.634993	0.053275	41.2503	-0.634648	-2.493654E+8	-2.136428E-10	NaN
1174	1.000000	0.402259	7.37653e+06	-56889.1	1105.82	-29737.8	0.000000	0.000000	6.402873	-0.061276	NaN	0.000000	0.001537	0.001654	28.082	0.181587	0.002008	90.4128	28.5462	-165.164	-0.085877	0.400985	-0.625727	-0.627002	-0.061276	90.4128	-0.625219	-1.850756E+8	3.310876E-10	NaN
1174	1.000000	0.410292	7.37653e+06	-56889.1	1105.82	-29737.8	0.000000	0.000000	6.410906	-0.039558	NaN	0.000000	0.001534	0.001647	28.082	0.059107	0.002072	28.5229	-38.4951	-168.458	-0.056037	0.408915	-0.617694	-0.619072	-0.039558	28.5229	-0.616654	-1.411350E+8	2.802813E-10	NaN
1174	1.000000	0.418274	7.37653e+06	-56889.1	1105.82	-29737.8	0.000000	0.000000	6.418889	-0.017199	NaN	0.000000	0.001510	0.001664	28.0823	0.076844	0.001960	39.2028	-28.6148	-167.931	-0.026505	0.417003	-0.609713	-0.610984	-0.017199	39.2028	-0.609384	-1.121078E+8	1.534152E-10	NaN
1174	1.000000	0.426289	7.37653e+06	-56889.1	1105.82	-29737.8	0.000000	0.000000	6.426905	0.018685	NaN	0.000000	0.001524	0.001728	28.0821	0.076361	0.002104	36.2867	-58.8422	-166.07	-0.009047	0.424956	-0.601697	-0.603030	0.018685	36.2867	-0.602084	-8.895168E+7	-2.100583E-10	NaN
1174	1.000000	0.434267	7.37653e+06	-56889.1	1105.82	-29737.8	0.000000	0.000000	6.434884	0.038769	NaN	0.000000	0.001491	0.001701	28.0823	0.090665	0.001995	45.4494	-129.331	-167.991	0.039753	0.432987	-0.593720	-0.594999	0.038769	45.4494	-0.594360	-6.962357E+7	-5.568392E-10	NaN
1174	1.000000	0.442316	7.37653e+06	-56889.1	1105.82	-29737.8	0.000000	0.000000	6.442930	-0.035332	NaN	0.000000	0.001509	0.001705	28.0822	0.084959	0.002066	41.1232	68.4726	-166.99	0.024154	0.440988	-0.585671	-0.586998	-0.035332	41.1232	-0.585026	-5.176994E+7	6.824773E-10	NaN
1174	1.000000	0.450302	7.37653e+06	-56889.1	1105.82	-29737.8	0.000000	0.000000	6.450916	-0.049198	NaN	0.000000	0.001516	0.001710	28.0821	0.074510	0.001870	39.8455	-18.3134	-168.791	-0.019789	0.448990	-0.577684	-0.578996	-0.049198	39.8455	-0.576758	-3.980852E+7	1.235854E-9	NaN
1174	1.000000	0.458320	7.37653e+06	-56889.1	1105.82	-29737.8	0.000000	0.000000	6.458934	-0.033297	NaN	0.000000	0.001509	0.001723	28.0817	0.072137	0.001951	36.9672	-175.768	-167.492	-0.067438	0.457038	-0.569667	-0.570948	-0.033297	36.9672	-0.568991	-3.109510E+7	1.070797E-9	NaN
1174	1.000000	0.466304	7.37653e+06	-56889.1	1105.82	-29737.8	0.000000	0.000000	6.466917	-0.072878	NaN	0.000000	0.001528	0.001699	28.082	0.093822	0.002011	46.6434	78.6237	-166.748	-0.026557	0.464985	-0.561682	-0.563002	-0.072878	46.6434	-0.560510	-2.373756E+7	3.070176E-9	NaN
1174	1.000000	0.474335	7.37653e+06	-56889.1	1105.82	-29737.8	0.000000	0.000000	6.474950	-0.015247	NaN	0.000000	0.001547	0.001704	28.0819	0.043011	0.002163	19.8839	-109.531	-166.98	-0.002580	0.473017	-0.553651	-0.554970	-0.015247	19.8839	-0.553076	-1.873081E+7	8.139953E-10	NaN
1174	1.000000	0.482310	7.37653e+06	-56889.1	1105.82	-29737.8	0.000000	0.000000	6.482925	-0.001001	NaN	0.000000	0.001571	0.001687	28.082	0.036669	0.001990	18.4293	158.264	-167.65	0.025897	0.480966	-0.545677	-0.547020	-0.001001	18.4293	-0.545636	-1.477382E+7	6.777850E-11	NaN
1174	1.000000	0.490339	7.37653e+06	-56889.1	1105.82	-29737.8	0.000000	0.000000	6.490955	0.022407	NaN	0.000000	0.001539	0.001686	28.0825	0.088598	0.001852	47.8319	107.019	-165.078	-0.032112	0.489008	-0.537648	-0.538978	0.022407	47.8319	-0.537999	-1.157719E+7	-1.935483E-9	NaN
1174	1.000000	0.498352	7.37653e+06	-56889.1	1105.82	-29737.8	0.000000	0.000000	6.498967	-0.015558	NaN	0.000000	0.001540	0.001672	28.0821	0.115602	0.002067	55.9147	112.554	-163.666	0.106218	0.496942	-0.529635	-0.531044	-0.015558	55.9147	-0.529426	-8.80244e+06	1.767515E-9	NaN
1174	1.000000	0.506331	7.37653e+06	-56889.1	1105.82	-29737.8	0.000000	0.000000	6.506945	-0.050371	NaN	0.000000	0.001532	0.001691	28.0821	0.092752	0.002066	44.8881	48.1113	-166.225	-0.089655	0.505032	-0.521656	-0.522954	-0.050371	44.8881	-0.520814	-6.68216e+06	7.538166E-9	NaN
1174	1.000000	0.514340	7.37653e+06	-56889.1	1105.82	-29737.8	0.000000	0.000000	6.514954	-0.058669	NaN	0.000000	0.001556	0.001679	28.082	0.166086	0.002012	82.5452	-129.968	-167.423	0.014029	0.513010	-0.513646	-0.514976	-0.058669	82.5452	-0.513113	-5.22117e+06	1.123666E-8	NaN
1174	1.000000	0.522335	7.37653e+06	-56889.1	1105.82	-29737.8	0.000000	0.000000	6.522949	-0.049379	NaN	0.000000	0.001534	0.001685	28.0821	0.122015	0.001950	62.5594	16.1603	-169.24	0.024501	0.521030	-0.505651	-0.506957	-0.049379	62.5594	-0.505059	-4.03244e+06	1.224544E-8	NaN
1174	1.000000	0.530323	7.37653e+06	-56889.1	1105.82	-29737.8	0.000000	0.000000	6.530935	-0.080615	NaN	0.000000	0.001538	0.001712	28.0814	0.093226	0.001944	47.952	-120.6	-165.599	-0.065345	0.529041	-0.497664	-0.498945	-0.080615	47.952	-0.496403	-3.05366e+06	2.639928E-8	NaN
1174	1.000000	0.538348	7.37653e+06	-56889.1	1105.82	-29737.8	0.000000	0.000000	6.538965	0.039800	NaN	0.000000	0.001527	0.001692	28.0807	0.076580	0.001987	38.5461	-39.1054	-167.673	0.044535	0.537050	-0.489639	-0.490937	0.039800	38.5461	-0.490413	-2.51864e+06	-1.580222E-8	NaN
1174	1.000000	0.546324	7.37653e+06	-56889.1	1105.82	-29737.8	0.000000	0.000000	6.546940	-0.001540	NaN	0.000000	0.001520	0.001660	28.0812	0.029100	0.002034	14.3096	-44.0683	-166.33	0.024278	0.545050	-0.481662	-0.482936	-0.001540	14.3096	-0.481581	-1.89524e+06	8.127908E-10	NaN
1174	1.000000	0.554334	7.37653e+06	-56889.1	1105.82	-29737.8	0.000000	0.000000	6.554950	-0.015302	NaN	0.000000	0.001514	0.001669	28.0806	0.061792	0.001905	32.4376	-94.5581	-165.979	-0.016667	0.553033	-0.473652	-0.474953	-0.015302	32.4376	-0.473298	-1.45094e+06	1.054654E-8	NaN
1174	1.000000	0.562357	7.37653e+06	-56889.1	1105.82	-29737.8	0.000000	0.000000	6.562975	0.038252	NaN	0.000000	0.001506	0.001672	28.0806	0.033017	0.002021	16.3372	-158.187	-166.712	0.046987	0.561017	-0.465629	-0.466969	0.038252	16.3372	-0.467385	-1.19874e+06	-3.191056E-8	NaN
1174	1.000000	0.570346	7.37653e+06	-56889.1	1105.82	-29737.8	0.000000	0.000000	6.570961	-0.036980	NaN	0.000000	0.001512	0.001661	28.0807	0.120300	0.002048	58.7326	176.822	-166.686	0.016122	0.569061	-0.457640	-0.458925	-0.036980	58.7326	-0.457168	-861403	4.293042E-8	NaN
1174	1.000000	0.578329	7.37653e+06	-56889.1	1105.82	-29737.8	0.000000	0.000000	6.578944	-0.025450	NaN	0.000000	0.001491	0.001641	28.0806	0.072708	0.002036	35.717	-173.113	-166	-0.078455	0.577065	-0.449657	-0.450921	-0.025450	35.717	-0.449123	-663722	3.834398E-8	NaN
1174	1.000000	0.586344	7.37653e+06	-56889.1	1105.82	-29737.8	0.000000	0.000000	6.586962	0.058426	NaN	0.000000	0.001525	0.001675	28.0811	0.090844	0.002060	44.0982	-33.6499	-167.606	0.027211	0.585010	-0.441642	-0.442976	0.058426	44.0982	-0.442636	-537717	-1.086565E-7	NaN
1174	1.000000	0.594377	7.37653e+06	-56889.1	1105.82	-29737.8	0.000000	0.000000	6.594993	0.012935	NaN	0.000000	0.001536	0.001699	28.0805	0.104224	0.001847	56.4145	-25.9938	-162.969	-0.004280	0.593080	-0.433610	-0.434907	0.012935	56.4145	-0.433782	-403215	-3.207967E-8	NaN
1174	1.000000	0.602352	7.37653e+06	-56889.1	1105.82	-29737.8	0.000000	0.000000	6.602968	0.002788	NaN	0.000000	0.001540	0.001711	28.0803	0.090166	0.001909	47.2255	-81.7386	-165.87	-0.032168	0.601013	-0.425635	-0.426974	0.002788	47.2255	-0.425679	-309669	-9.003220E-9	NaN
1174	1.000000	0.610372	7.37653e+06	-56889.1	1105.82	-29737.8	0.000000	0.000000	6.610989	0.045448	NaN	0.000000	0.001574	0.001722	28.0808	0.104652	0.002123	49.2936	-141.712	-164.229	-0.024665	0.609052	-0.417615	-0.418934	0.045448	49.2936	-0.418306	-243437	-1.866932E-7	NaN
1174	1.000000	0.618371	7.37653e+06	-56889.1	1105.82	-29737.8	0.000000	0.000000	6.618982	-0.104565	NaN	0.000000	0.001569	0.001675	28.0803	0.017554	0.002033	8.634214	-29.4534	-164.109	-0.050625	0.617076	-0.409616	-0.410911	-0.104565	8.634214	-0.400533	-136016	7.687667E-7	NaN
1174	1.000000	0.626360	7.37653e+06	-56889.1	1105.82	-29737.8	0.000000	0.000000	6.626974	-0.032525	NaN	0.000000	0.001563	0.001666	28.0809	0.040843	0.001976	20.6654	152.205	-164.84	-0.098759	0.625056	-0.401627	-0.402931	-0.032525	20.6654	-0.400446	-135630	2.398060E-7	NaN
1174	1.000000	0.634398	7.37653e+06	-56889.1	1105.82	-29737.8	0.000000	0.000000	6.635013	-0.031846	NaN	0.000000	0.001545	0.001698	28.0804	0.064690	0.001955	33.0938	-19.2281	-166.902	0.001355	0.633045	-0.393588	-0.394942	-0.031846	33.0938	-0.392866	-105718	3.012364E-7	NaN
1174	1.000000	0.642352	7.37653e+06	-56889.1	1105.82	-29737.8	0.000000	0.000000	6.642968	0.015256	NaN	0.000000	0.001572	0.001728	28.0804	0.012201	0.002061	5.921360	-16.6991	-165.444	0.035434	0.641105	-0.385635	-0.386882	0.015256	5.921360	-0.387567	-88787	-1.718294E-7	NaN
1174	1.000000	0.650399	7.37653e+06	-56889.1	1105.82	-29737.8	0.000000	0.000000	6.651011	-0.090967	NaN	0.000000	0.001547	0.001635	28.0803	0.030933	0.002018	15.3311	-84.3141	-167.209	0.022790	0.649086	-0.377587	-0.378900	-0.090967	15.3311	-0.373137	-55116.1	1.650454E-6	NaN
1174	1.000000	0.658402	7.37653e+06	-56889.1	1105.82	-29737.8	0.000000	0.000000	6.659016	-0.033720	NaN	0.000000	0.001543	0.001677	28.0804	0.026728	0.002218	12.0496	33.0697	-167.826	-0.038394	0.657113	-0.369584	-0.370873	-0.033720	12.0496	-0.367485	-45698.1	7.378947E-7	NaN
1174	1.000000	0.666379	7.37653e+06	-56889.1	1105.82	-29737.8	0.000000	0.000000	6.666995	-0.011289	NaN	0.000000	0.001546	0.001692	28.0812	0.095154	0.002115	44.9984	166.833	-165.406	-0.038757	0.665092	-0.361607	-0.362894	-0.011289	44.9984	-0.361419	-37355.2	3.022150E-7	NaN
1174	1.000000	0.674386	7.37653e+06	-56889.1	1105.82	-29737.8	0.000000	0.000000	6.675001	-0.023467	NaN	0.000000	0.001524	0.001673	28.0817	0.047992	0.002006	23.9196	67.2593	-168.966	-0.102290	0.673069	-0.353600	-0.354917	-0.023467	23.9196	-0.352865	-28090.1	8.354149E-7	NaN
1174	1.000000	0.682401	7.37653e+06	-56889.1	1105.82	-29737.8	0.000000	0.000000	6.683016	-0.009033	NaN	0.000000	0.001598	0.001692	28.0821	0.108516	0.002046	53.0298	67.8476	-167.215	-0.027054	0.681109	-0.345586	-0.346877	-0.009033	53.0298	-0.345458	-21928.8	4.119025E-7	NaN
1174	1.000000	0.690405	7.37653e+06	-56889.1	1105.82	-29737.8	0.000000	0.000000	6.691020	-0.025117	NaN	0.000000	0.001592	0.001703	28.0818	0.045749	0.002008	22.7862	49.1827	-166.077	-0.105456	0.689023	-0.337581	-0.338963	-0.025117	22.7862	-0.336754	-16375.9	1.533785E-6	NaN
1174	1.000000	0.698421	7.37654e+06	-56889.1	1105.82	-29737.8	0.000000	0.000000	6.699035	-0.037895	NaN	0.000000	0.001517	0.001720	28.0819	0.033018	0.001996	16.5407	-25.9486	-165.217	0.069423	0.697117	-0.329565	-0.330869	-0.037895	16.5407	-0.327847	-12131.3	3.123784E-6	NaN
1174	1.000000	0.706402	7.37654e+06	-56889.1	1105.82	-29737.8	0.000000	0.000000	6.707018	0.007094	NaN	0.000000	0.001493	0.001672	28.0821	0.029257	0.002079	14.0714	-56.0605	-164.114	0.001209	0.705093	-0.321585	-0.322894	0.007094	14.0714	-0.321963	-9942.85	-7.134380E-7	NaN
1174	1.000000	0.714402	7.37654e+06	-56889.1	1105.82	-29737.8	0.000000	0.000000	6.715015	-0.072622	NaN	0.000000	0.001495	0.001667	28.0819	0.015143	0.001919	7.891770	48.4838	-167.211	-0.018691	0.713154	-0.313584	-0.314832	-0.072622	7.891770	-0.306683	-5914.45	1.227876E-5	NaN
1174	1.000000	0.722405	7.37654e+06	-56889.1	1105.82	-29737.8	0.000000	0.000000	6.723021	0.003256	NaN	0.000000	0.001536	0.001717	28.0822	0.075373	0.001999	37.7107	-152.797	-165.585	-0.024500	0.721093	-0.305582	-0.306893	0.003256	37.7107	-0.305647	-5708.85	-5.702988E-7	NaN
1174	1.000000	0.730430	7.37654e+06	-56889.1	1105.82	-29737.8	0.000000	0.000000	6.731041	-0.117187	NaN	0.000000	0.001524	0.001721	28.082	0.077801	0.002021	38.5013	178.374	-166.751	-0.046578	0.729119	-0.297557	-0.298867	-0.117187	38.5013	-0.295274	-4001.1	2.928856E-5	NaN
1174	1.000000	0.738434	7.37654e+06	-56889.1	1105.82	-29737.8	0.000000	0.000000	6.739050	0.022180	NaN	0.000000	0.001532	0.001706	28.0819	0.014937	0.002032	7.350044	45.7719	-166.062	-0.006588	0.737121	-0.289553	-0.290865	0.022180	7.350044	-0.291816	-3552.17	-6.244055E-6	NaN
1174	1.000000	0.746453	7.37654e+06	-56889.1	1105.82	-29737.8	0.000000	0.000000	6.747069	-0.011812	NaN	0.000000	0.001530	0.001673	28.082	0.051138	0.002013	25.4005	102.296	-167.717	-0.005607	0.745135	-0.281533	-0.282851	-0.011812	25.4005	-0.281184	-2459.39	4.802614E-6	NaN
1174	1.000000	0.754450	7.37654e+06	-56889.1	1105.82	-29737.8	0.000000	0.000000	6.755065	-0.010901	NaN	0.000000	0.001548	0.001727	28.082	0.084697	0.001995	42.4517	-118.457	-161.421	0.033422	0.753134	-0.273536	-0.274852	-0.010901	42.4517	-0.273344	-1872.01	5.823139E-6	NaN
1174	1.000000	0.762405	7.37654e+06	-56889.1	1105.82	-29737.8	0.000000	0.000000	6.763021	0.001638	NaN	0.000000	0.001572	0.001674	28.0823	0.078910	0.002081	37.9172	-75.1352	-166.989	-0.083640	0.761142	-0.265581	-0.266844	0.001638	37.9172	-0.265614	-1428.08	-1.146676E-6	NaN
1174	1.000000	0.770403	7.37654e+06	-56889.1	1105.82	-29737.8	0.000000	0.000000	6.771016	-0.074081	NaN	0.000000	0.001578	0.001688	28.0821	0.037956	0.001977	19.2026	147.693	-167.563	-0.056287	0.769160	-0.257583	-0.258827	-0.074081	19.2026	-0.254690	-971.277	7.627163E-5	NaN
1174	1.000000	0.778456	7.37654e+06	-56889.1	1105.82	-29737.8	0.000000	0.000000	6.779071	-0.016494	NaN	0.000000	0.001618	0.001674	28.082	0.105647	0.001932	54.6719	100.19	-167.308	0.018804	0.777168	-0.249530	-0.250819	-0.016494	54.6719	-0.249304	-802.044	2.056473E-5	NaN
1174	1.000000	0.786474	7.37654e+06	-56889.1	1105.82	-29737.8	0.000000	0.000000	6.787087	-0.067114	NaN	0.000000	0.001608	0.001713	28.0818	0.136373	0.002005	68.016	-102.165	-165.424	-0.084857	0.785104	-0.241513	-0.242882	-0.067114	68.016	-0.240773	-591.041	0.000114	NaN
1174	1.000000	0.794437	7.37654e+06	-56889.1	1105.82	-29737.8	0.000000	0.000000	6.795052	-0.015560	NaN	0.000000	0.001630	0.001726	28.082	0.065946	0.001899	34.7333	-113.197	-167.582	0.050441	0.793154	-0.233550	-0.234833	-0.015560	34.7333	-0.233214	-449.959	3.458164E-5	NaN
1174	1.000000	0.802418	7.37654e+06	-56889.1	1105.82	-29737.8	0.000000	0.000000	6.803035	0.021205	NaN	0.000000	0.001631	0.001671	28.082	0.069059	0.002051	33.6663	143.775	-161.034	0.062130	0.801190	-0.225568	-0.226796	0.021205	33.6663	-0.226041	-346.619	-6.117764E-5	NaN
1174	1.000000	0.810418	7.37654e+06	-56889.1	1105.82	-29737.8	0.000000	0.000000	6.811033	-0.014773	NaN	0.000000	0.001583	0.001718	28.0809	0.043144	0.001971	21.8869	-178.667	-167.02	0.025008	0.809096	-0.217568	-0.218891	-0.014773	21.8869	-0.217062	-249.251	5.927042E-5	NaN
1174	1.000000	0.818435	7.37654e+06	-56889.1	1105.82	-29737.8	0.000000	0.000000	6.819051	0.005646	NaN	0.000000	0.001577	0.001736	28.0812	0.014710	0.002070	7.105160	99.8684	-165.058	0.072504	0.817163	-0.209552	-0.210824	0.005646	7.105160	-0.210148	-192.846	-2.927865E-5	NaN
1174	1.000000	0.826462	7.37654e+06	-56889.1	1105.82	-29737.8	0.000000	0.000000	6.827078	0.019429	NaN	0.000000	0.001575	0.001731	28.0808	0.043817	0.002095	20.9103	-32.3954	-162.9	-0.012480	0.825178	-0.201525	-0.202809	0.019429	20.9103	-0.202222	-143.268	-0.000136	NaN
1174	1.000000	0.834463	7.37654e+06	-56889.1	1105.82	-29737.8	0.000000	0.000000	6.835077	-0.048133	NaN	0.000000	0.001586	0.001733	28.0804	0.080291	0.002080	38.6046	-102.426	-166.139	-0.147612	0.833152	-0.193524	-0.194834	-0.048133	38.6046	-0.192589	-99.3516	0.000484	NaN
1174	1.000000	0.842442	7.37654e+06	-56889.1	1105.82	-29737.8	0.000000	0.000000	6.843057	-0.002871	NaN	0.000000	0.001579	0.001739	28.0806	0.076268	0.002038	37.4169	-149.587	-167.376	-0.049065	0.841129	-0.185545	-0.186858	-0.002871	37.4169	-0.185487	-75.5679	3.799657E-5	NaN
1174	1.000000	0.850464	7.37654e+06	-56889.1	1105.82	-29737.8	0.000000	0.000000	6.851076	-0.082679	NaN	0.000000	0.001583	0.001726	28.0808	0.088324	0.002002	44.1147	-49.7506	-165.112	-0.060611	0.849177	-0.177522	-0.178809	-0.082679	44.1147	-0.176117	-52.3779	0.001579	NaN
1174	1.000000	0.858486	7.37654e+06	-56889.1	1105.82	-29737.8	0.000000	0.000000	6.859099	-0.078833	NaN	0.000000	0.001593	0.001703	28.0812	0.075446	0.002012	37.5001	9.066290	-166.963	-0.065112	0.857101	-0.169500	-0.170886	-0.078833	37.5001	-0.167923	-37.7979	0.002086	NaN
1174	1.000000	0.866473	7.37654e+06	-56889.1	1105.82	-29737.8	0.000000	0.000000	6.867089	0.004014	NaN	0.000000	0.001605	0.001751	28.0809	0.040816	0.001987	20.5458	126.3	-168.587	-0.030161	0.865187	-0.161513	-0.162800	0.004014	20.5458	-0.161659	-29.337	-0.000137	NaN
1174	1.000000	0.874456	7.37654e+06	-56889.1	1105.82	-29737.8	0.000000	0.000000	6.875072	0.002241	NaN	0.000000	0.001587	0.001674	28.081	0.023828	0.001928	12.3609	47.8013	-166.144	0.106976	0.873157	-0.153531	-0.154829	0.002241	12.3609	-0.153667	-21.1127	-0.000106	NaN
1174	1.000000	0.882481	7.37654e+06	-56889.1	1105.82	-29737.8	0.000000	0.000000	6.883096	-0.021754	NaN	0.000000	0.001610	0.001730	28.0809	0.050618	0.002042	24.794	6.385392	-168.749	0.064719	0.881136	-0.145505	-0.146850	-0.021754	24.794	-0.144847	-14.5659	0.001493	NaN
1174	1.000000	0.890474	7.37654e+06	-56889.1	1105.82	-29737.8	0.000000	0.000000	6.891090	-0.004224	NaN	0.000000	0.001599	0.001708	28.0809	0.125710	0.002129	59.055	115.272	-168.474	-0.068903	0.889191	-0.137512	-0.138795	-0.004224	59.055	-0.137459	-10.5934	0.000399	NaN
1174	1.000000	0.898488	7.37654e+06	-56889.1	1105.82	-29737.8	0.000000	0.000000	6.899102	-0.037660	NaN	0.000000	0.001625	0.001716	28.0807	0.097523	0.002001	48.7352	-85.5754	-165.839	-0.009670	0.897188	-0.129499	-0.130798	-0.037660	48.7352	-0.128919	-7.260667	0.005187	NaN
1174	1.000000	0.906501	7.37654e+06	-56889.1	1105.82	-29737.8	0.000000	0.000000	6.907114	-0.058446	NaN	0.000000	0.001577	0.001698	28.0808	0.049340	0.002026	24.3517	-121.401	-164.564	0.058213	0.905241	-0.121486	-0.122746	-0.058446	24.3517	-0.119686	-4.761378	0.012275	NaN
1174	1.000000	0.914504	7.37654e+06	-56889.1	1105.82	-29737.8	0.000000	0.000000	6.915122	0.064171	NaN	0.000000	0.001586	0.001709	28.0808	0.073548	0.001936	37.9942	-87.3168	-169.667	0.022705	0.913194	-0.113483	-0.114792	0.064171	37.9942	-0.114749	-3.775181	-0.016998	NaN
1174	1.000000	0.922475	7.37654e+06	-56889.1	1105.82	-29737.8	0.000000	0.000000	6.923090	-0.016837	NaN	0.000000	0.001584	0.001699	28.0808	0.089824	0.001948	46.1018	-131.863	-166.242	-0.061469	0.921138	-0.105511	-0.106848	-0.016837	46.1018	-0.105237	-2.378445	0.007079	NaN
1174	1.000000	0.930492	7.37654e+06	-56889.1	1105.82	-29737.8	0.000000	0.000000	6.931109	0.023839	NaN	0.000000	0.001595	0.001720	28.0814	0.079983	0.002034	39.3292	61.2383	-170.299	-0.048065	0.929191	-0.097494	-0.098795	0.023839	39.3292	-0.097949	-1.644585	-0.014496	NaN
1174	1.000000	0.938505	7.37654e+06	-56889.1	1105.82	-29737.8	0.000000	0.000000	6.939123	0.052833	NaN	0.000000	0.001584	0.001686	28.0809	0.041037	0.002048	20.0339	-179.348	-169.302	-0.041644	0.937176	-0.089482	-0.090810	0.052833	20.0339	-0.091459	-1.169262	-0.045185	NaN
1174	1.000000	0.946492	7.37654e+06	-56889.1	1105.82	-29737.8	0.000000	0.000000	6.947105	-0.067394	NaN	0.000000	0.001600	0.001706	28.082	0.064070	0.001909	33.5609	61.1124	-167.529	-0.008542	0.945173	-0.081495	-0.082813	-0.067394	33.5609	-0.079989	-0.618586	0.108948	NaN
1174	1.000000	0.954545	7.37654e+06	-56889.1	1105.82	-29737.8	0.000000	0.000000	6.955160	-0.030170	NaN	0.000000	0.001610	0.001708	28.0824	0.082149	0.002070	39.6849	9.895623	-167.586	0.019567	0.953170	-0.073441	-0.074817	-0.030170	39.6849	-0.072871	-0.406479	0.074222	NaN
1174	1.000000	0.962519	7.37654e+06	-56889.1	1105.82	-29737.8	0.000000	0.000000	6.963133	-0.065333	NaN	0.000000	0.001583	0.001720	28.0821	0.053053	0.001938	27.3774	85.5685	-166.578	-0.014760	0.961222	-0.065467	-0.066765	-0.065333	27.3774	-0.063677	-0.228935	0.285379	NaN
1174	1.000000	0.970535	7.37654e+06	-56889.1	1105.82	-29737.8	0.000000	0.000000	6.971153	0.054925	NaN	0.000000	0.001604	0.001668	28.0822	0.057983	0.001994	29.0732	71.1969	-166.107	0.057553	0.969206	-0.057451	-0.058781	0.054925	29.0732	-0.058868	-0.167074	-0.328747	NaN
1174	1.000000	0.978499	7.37654e+06	-56889.1	1105.82	-29737.8	0.000000	0.000000	6.979114	-0.007101	NaN	0.000000	0.001594	0.001704	28.0822	0.066274	0.001938	34.2007	111.705	-165.772	-0.092866	0.977233	-0.049488	-0.050753	-0.007101	34.2007	-0.049332	-0.087098	0.081528	NaN
1174	1.000000	0.986541	7.37654e+06	-56889.1	1105.82	-29737.8	0.000000	0.000000	6.987156	-0.036320	NaN	0.000000	0.001599	0.001692	28.0821	0.017855	0.002040	8.750667	179.579	-167.992	0.037077	0.985183	-0.041445	-0.042803	-0.036320	8.750667	-0.038332	-0.040260	0.902147	NaN
1174	1.000000	0.994544	7.37654e+06	-56889.1	1105.82	-29737.8	0.000000	0.000000	6.995159	-0.004852	NaN	0.000000	0.001600	0.001659	28.0825	0.055912	0.002007	27.8612	-104.722	-171.369	-0.062814	0.993214	-0.033443	-0.034772	-0.004852	27.8612	-0.033312	-0.028586	0.169747	NaN
1174	1.000000	1.002496	7.37654e+06	-56889.1	1105.82	-29737.8	0.000000	0.000000	7.003111	-0.009035	NaN	0.000000	0.001608	0.001689	28.0821	0.009809	0.002005	4.892664	-114.271	-165.976	0.060831	1.001232	-0.025491	-0.026754	-0.009035	4.892664	-0.024106	-0.015991	0.564993	NaN
1174	1.000000	1.010538	7.37654e+06	-56889.1	1105.82	-29737.8	0.000000	0.000000	7.011154	-0.005903	NaN	0.000000	0.001611	0.001719	28.0823	0.095686	0.002020	47.3677	-170.497	-166.222	-0.024206	1.009236	-0.017448	-0.018750	-0.005903	47.3677	-0.017355	-0.010739	0.549716	NaN
1174	1.000000	1.018522	7.37654e+06	-56889.1	1105.82	-29737.8	0.000000	0.000000	7.019140	0.063793	NaN	0.000000	0.001617	0.001691	28.0821	0.104200	0.001984	52.5278	173.384	-165.261	0.059080	1.017191	-0.009465	-0.010795	0.063793	52.5278	-0.010376	-0.006602	-9.662710	NaN
1174	1.000000	1.026546	7.37654e+06	-56889.1	1105.82	-29737.8	0.000000	0.000000	7.027170	0.179009	NaN	0.000000	0.001611	0.001684	28.0819	0.458727	0.002041	224.796	3.393145	-161.769	-0.019300	1.025236	-0.001440	-0.002750	0.179009	224.796	-0.002037	-0.001465	-122.181	NaN
1174	2.000000	1.033948	7.37654e+06	-56889.1	1105.82	-29737.8	0.000000	0.000000	7.034872	7.493367	NaN	0.000000	0.001619	0.001685	28.0822	8.017660	0.001682	4766.37	10.6882	-174.686	7.652793	1.033122	0.005961	0.005135	7.493367	4766.37	0.004782	0.003936	1903.97	69414.9
1174	2.000000	1.036174	7.37654e+06	-56889.1	1105.82	-29737.8	0.000000	0.000000	7.037176	9.399262	NaN	0.000000	0.001633	0.001723	28.0819	9.716259	0.001747	5561.68	9.737219	-174.204	10.437	1.035820	0.008187	0.007834	9.399262	5561.68	0.006920	0.005955	1578.5	65849.9
1174	2.000000	1.038050	7.37654e+06	-56889.1	1105.82	-29737.8	0.000000	0.000000	7.039223	13.5268	NaN	0.000000	0.001652	0.001686	28.0823	12.2917	0.001691	7269.48	6.066458	-175.404	12.0029	1.037733	0.010064	0.009747	13.5268	7269.48	0.008668	0.007739	1747.95	75499.3
1174	2.000000	1.040040	7.37654e+06	-56889.1	1105.82	-29737.8	0.000000	0.000000	7.041267	14.845	NaN	0.000000	0.001622	0.001676	28.082	14.2669	0.001854	7694.26	5.485703	-174.238	13.1787	1.039795	0.012054	0.011809	14.845	7694.26	0.010607	0.009864	1505.02	70781.6
1174	2.000000	1.042113	7.37654e+06	-56889.1	1105.82	-29737.8	0.000000	0.000000	7.043456	17.6719	NaN	0.000000	0.001641	0.001717	28.0822	16.4213	0.001744	9417.58	9.790927	179.269	17.3498	1.041843	0.014127	0.013857	17.6719	9417.58	0.012719	0.012363	1429.42	77384.1
1174	2.000000	1.044066	7.37654e+06	-56889.1	1105.82	-29737.8	0.000000	0.000000	7.045593	22.1438	NaN	0.000000	0.001633	0.001710	28.0821	18.0728	0.001750	10327.2	8.301760	-178.714	22.4323	1.043711	0.016080	0.015724	22.1438	10327.2	0.014472	0.014587	1518.04	78121.2
1174	2.000000	1.046077	7.37654e+06	-56889.1	1105.82	-29737.8	0.000000	0.000000	7.047706	24.6114	NaN	0.000000	0.001633	0.001711	28.0808	20.582	0.001847	11143.9	6.585539	-176.235	25.797	1.045669	0.018091	0.017683	24.6114	11143.9	0.016435	0.017246	1427.04	77528.4
1174	2.000000	1.048006	7.37654e+06	-56889.1	1105.82	-29737.8	0.000000	0.000000	7.049852	29.8911	NaN	0.000000	0.001597	0.001667	28.081	22.3157	0.001708	13064.8	7.805655	179.02	29.6136	1.047731	0.020020	0.019745	29.8911	13064.8	0.018304	0.019947	1498.55	84516.4
1174	2.000000	1.049994	7.37654e+06	-56889.1	1105.82	-29737.8	0.000000	0.000000	7.052109	36.441	NaN	0.000000	0.001664	0.001702	28.0807	24.3788	0.001659	14695	5.227961	178.658	33.4714	1.049700	0.022007	0.021713	36.441	14695	0.020147	0.022774	1600.09	88964.8
1174	2.000000	1.052062	7.37654e+06	-56889.1	1105.82	-29737.8	0.000000	0.000000	7.054179	36.4684	NaN	0.000000	0.001587	0.001682	28.081	26.2305	0.001726	15196.9	3.422590	-177.425	35.6238	1.051674	0.024076	0.023688	36.4684	15196.9	0.022276	0.026246	1389.47	85702.9
1174	2.000000	1.054057	7.37654e+06	-56889.1	1105.82	-29737.8	0.000000	0.000000	7.056323	40.1014	NaN	0.000000	0.001578	0.001723	28.0809	28.4452	0.001760	16166.4	6.988384	178.129	40.4226	1.053669	0.026071	0.025682	40.1014	16166.4	0.024210	0.029595	1355.03	85858.2
1174	2.000000	1.056055	7.37654e+06	-56889.1	1105.82	-29737.8	0.000000	0.000000	7.058443	43.0656	NaN	0.000000	0.001531	0.001726	28.0809	30.9972	0.001824	16997.6	7.586689	177.47	44.2848	1.055754	0.028069	0.027768	43.0656	16997.6	0.026169	0.033176	1298.09	85260.5
1174	2.000000	1.057983	7.37654e+06	-56889.1	1105.82	-29737.8	0.000000	0.000000	7.060695	50.9496	NaN	0.000000	0.001542	0.001721	28.081	31.8081	0.001785	17823.9	5.756708	178.586	49.306	1.057706	0.029996	0.029720	50.9496	17823.9	0.027852	0.036410	1399.34	85342.6
1174	2.000000	1.059978	7.37654e+06	-56889.1	1105.82	-29737.8	0.000000	0.000000	7.062854	54.9211	NaN	0.000000	0.001562	0.001692	28.0807	34.4529	0.001885	18280.5	3.388553	-179.776	52.9156	1.059737	0.031992	0.031750	54.9211	18280.5	0.029739	0.040204	1366.07	83296.7
1174	2.000000	1.062033	7.37654e+06	-56889.1	1105.82	-29737.8	0.000000	0.000000	7.065150	60.7974	NaN	0.000000	0.001612	0.001698	28.0809	37.2439	0.001927	19325.6	6.834875	176.949	59.5582	1.061700	0.034047	0.033714	60.7974	19325.6	0.031687	0.044313	1371.99	83876.2
1174	2.000000	1.064031	7.37654e+06	-56889.1	1105.82	-29737.8	0.000000	0.000000	7.067351	65.7431	NaN	0.000000	0.001609	0.001705	28.0808	37.797	0.001799	21007.4	1.312993	-178.412	66.4878	1.063696	0.036044	0.035709	65.7431	21007.4	0.033697	0.048756	1348.42	86922.5
1174	2.000000	1.065967	7.37654e+06	-56889.1	1105.82	-29737.8	0.000000	0.000000	7.069503	70.9709	NaN	0.000000	0.001571	0.001699	28.0811	41.0021	0.001860	22043.8	7.529367	174.982	68.7894	1.065679	0.037981	0.037693	70.9709	22043.8	0.035566	0.053073	1337.24	87423
1174	2.000000	1.068077	7.37654e+06	-56889.1	1105.82	-29737.8	0.000000	0.000000	7.071954	79.2564	NaN	0.000000	0.001612	0.001698	28.0807	42.1071	0.001906	22089.3	7.525034	175.85	80.964	1.067674	0.040091	0.039688	79.2564	22089.3	0.037400	0.057482	1378.81	84176.2
1174	2.000000	1.070003	7.37654e+06	-56889.1	1105.82	-29737.8	0.000000	0.000000	7.074079	84.1039	NaN	0.000000	0.001614	0.001689	28.0811	43.866	0.001762	24893.3	2.577936	178.308	83.1685	1.069709	0.042017	0.041723	84.1039	24893.3	0.039483	0.062698	1341.41	90829.9
1174	2.000000	1.071990	7.37654e+06	-56889.1	1105.82	-29737.8	0.000000	0.000000	7.076449	93.4157	NaN	0.000000	0.001610	0.001679	28.0808	45.3978	0.001649	27527.3	2.920015	177.439	91.705	1.071683	0.044003	0.043697	93.4157	27527.3	0.041458	0.067851	1376.77	96551.3
1174	2.000000	1.073953	7.37654e+06	-56889.1	1105.82	-29737.8	0.000000	0.000000	7.078769	102.084	NaN	0.000000	0.001563	0.001683	28.0809	47.3514	0.001719	27539.1	4.332448	176.122	101.219	1.073631	0.045967	0.045645	102.084	27539.1	0.043187	0.072523	1407.61	93430
1174	2.000000	1.075953	7.37654e+06	-56889.1	1105.82	-29737.8	0.000000	0.000000	7.080900	105.288	NaN	0.000000	0.001561	0.001678	28.0809	49.7094	0.001878	26469	2.021749	178.859	103.277	1.075766	0.047966	0.047779	105.288	26469	0.044983	0.077539	1357.88	86846.1
1174	2.000000	1.077950	7.37654e+06	-56889.1	1105.82	-29737.8	0.000000	0.000000	7.083246	113.745	NaN	0.000000	0.001526	0.001711	28.0808	50.5023	0.001776	28432	4.422528	176.135	112.471	1.077633	0.049964	0.049647	113.745	28432	0.046964	0.083259	1366.16	90025.4
1174	2.000000	1.079910	7.37654e+06	-56889.1	1105.82	-29737.8	0.000000	0.000000	7.085505	121.014	NaN	0.000000	0.001544	0.001691	28.0821	53.9045	0.001846	29207.3	2.453758	177.132	116.843	1.079674	0.051924	0.051688	121.014	29207.3	0.048816	0.088789	1362.93	89553.9
1174	2.000000	1.082058	7.37654e+06	-56889.1	1105.82	-29737.8	0.000000	0.000000	7.087990	129.223	NaN	0.000000	0.001562	0.001706	28.0817	55.8459	0.001903	29353.3	6.249156	174.37	130.472	1.081619	0.054072	0.053633	129.223	29353.3	0.050770	0.094808	1363	87097.9
1174	2.000000	1.084002	7.37654e+06	-56889.1	1105.82	-29737.8	0.000000	0.000000	7.090315	138.48	NaN	0.000000	0.001570	0.001682	28.0819	57.4569	0.001715	33496.4	8.871642	169.454	139.23	1.083731	0.056015	0.055745	138.48	33496.4	0.052915	0.101635	1362.53	95995.5
1174	2.000000	1.086064	7.37654e+06	-56889.1	1105.82	-29737.8	0.000000	0.000000	7.092730	147.041	NaN	0.000000	0.001566	0.001684	28.0818	59.7368	0.001775	33661.1	5.695313	173.305	151.455	1.085624	0.058078	0.057637	147.041	33661.1	0.054802	0.107831	1363.62	93654.7
1174	2.000000	1.087940	7.37654e+06	-56889.1	1105.82	-29737.8	0.000000	0.000000	7.094885	153.853	NaN	0.000000	0.001543	0.001699	28.0821	59.7715	0.001679	35599.7	3.742780	174.446	151.185	1.087683	0.059953	0.059697	153.853	35599.7	0.056712	0.114282	1346.25	96212.3
1174	2.000000	1.090002	7.37654e+06	-56889.1	1105.82	-29737.8	0.000000	0.000000	7.097395	164.734	NaN	0.000000	0.001559	0.001729	28.082	62.4922	0.001776	35186.4	4.051535	175.467	164.796	1.089612	0.062015	0.061626	164.734	35186.4	0.058504	0.120499	1367.1	92609.6
1174	2.000000	1.091975	7.37654e+06	-56889.1	1105.82	-29737.8	0.000000	0.000000	7.099796	175.14	NaN	0.000000	0.001550	0.001726	28.0818	65.4332	0.001825	35848.8	9.590753	168.851	173.178	1.091677	0.063989	0.063691	175.14	35848.8	0.060324	0.126974	1379.33	91915.7
1174	2.000000	1.093960	7.37654e+06	-56889.1	1105.82	-29737.8	0.000000	0.000000	7.102082	182.444	NaN	0.000000	0.001567	0.001705	28.082	65.2614	0.001745	37400	1.686878	175.951	180.256	1.093680	0.065974	0.065693	182.444	37400	0.062315	0.134240	1359.09	93261.7
1174	2.000000	1.095947	7.37654e+06	-56889.1	1105.82	-29737.8	0.000000	0.000000	7.104436	191.366	NaN	0.000000	0.001541	0.001712	28.0818	68.9309	0.001908	36120.4	2.102685	176.028	188.73	1.095640	0.067961	0.067654	191.366	36120.4	0.063987	0.140494	1362.1	88043.5
1174	2.000000	1.097980	7.37654e+06	-56889.1	1105.82	-29737.8	0.000000	0.000000	7.106802	199.441	NaN	0.000000	0.001586	0.001729	28.0822	70.0863	0.001760	39829.2	4.595414	172.345	200.928	1.097738	0.069994	0.069751	199.441	39829.2	0.066238	0.149124	1337.42	94232.5
1174	2.000000	1.099979	7.37654e+06	-56889.1	1105.82	-29737.8	0.000000	0.000000	7.109327	212.254	NaN	0.000000	0.001548	0.001735	28.0819	71.1789	0.001687	42199.1	0.335776	176.857	211.174	1.099738	0.071992	0.071751	212.254	42199.1	0.068220	0.156923	1352.61	97327
1174	2.000000	1.102013	7.37654e+06	-56889.1	1105.82	-29737.8	0.000000	0.000000	7.111910	225.594	NaN	0.000000	0.001526	0.001714	28.0821	74.8763	0.001832	40877.9	4.426499	172.994	228.316	1.101640	0.074027	0.073654	225.594	40877.9	0.069888	0.163631	1378.67	92326.9
1174	2.000000	1.103859	7.37654e+06	-56889.1	1105.82	-29737.8	0.000000	0.000000	7.114378	240.689	NaN	0.000000	0.001539	0.001688	28.0822	76.3649	0.001922	39726.1	2.585732	175.116	234.702	1.103603	0.075873	0.075616	240.689	39726.1	0.071329	0.169536	1419.7	88149.2
1174	2.000000	1.105915	7.37654e+06	-56889.1	1105.82	-29737.8	0.000000	0.000000	7.116607	244.914	NaN	0.000000	0.001528	0.001699	28.0821	78.7462	0.001766	44592.5	5.637607	170.851	242.081	1.105656	0.077928	0.077669	244.914	44592.5	0.073809	0.179928	1361.18	96047.4
1174	2.000000	1.107978	7.37654e+06	-56889.1	1105.82	-29737.8	0.000000	0.000000	7.119374	262.01	NaN	0.000000	0.001537	0.001750	28.0822	79.0001	0.001825	43280.6	3.347032	174.5	262.306	1.107627	0.079992	0.079640	262.01	43280.6	0.075452	0.186969	1401.36	91449.7
1174	2.000000	1.109904	7.37654e+06	-56889.1	1105.82	-29737.8	0.000000	0.000000	7.121469	266.112	NaN	0.000000	0.001536	0.001710	28.0819	82.4687	0.001840	44812.3	5.247230	171.38	264.392	1.109654	0.081918	0.081668	266.112	44812.3	0.077464	0.195769	1359.31	92533.3
1174	2.000000	1.111961	7.37654e+06	-56889.1	1105.82	-29737.8	0.000000	0.000000	7.124239	283.471	NaN	0.000000	0.001572	0.001707	28.082	84.0737	0.001824	46087.9	3.782695	172.71	283.651	1.111650	0.083974	0.083664	283.471	46087.9	0.079361	0.204240	1387.93	93173.1
1174	2.000000	1.113897	7.37654e+06	-56889.1	1105.82	-29737.8	0.000000	0.000000	7.126791	298.431	NaN	0.000000	0.001527	0.001709	28.0807	84.9292	0.001730	49080.7	3.290502	172.662	294.915	1.113679	0.085911	0.085693	298.431	49080.7	0.081350	0.213300	1399.12	97093.2
1174	2.000000	1.115916	7.37654e+06	-56889.1	1105.82	-29737.8	0.000000	0.000000	7.129299	310.329	NaN	0.000000	0.001561	0.001717	28.0809	88.8313	0.001803	49255	4.306265	171.693	308.219	1.115557	0.087930	0.087570	310.329	49255	0.083204	0.221909	1398.45	95529.1
1174	2.000000	1.117877	7.37654e+06	-56889.1	1105.82	-29737.8	0.000000	0.000000	7.131755	322.352	NaN	0.000000	0.001521	0.001705	28.0813	89.5469	0.001881	47612.4	5.028846	170.817	319.279	1.117635	0.089890	0.089648	322.352	47612.4	0.084813	0.229509	1404.53	90801.7
1174	2.000000	1.119902	7.37654e+06	-56889.1	1105.82	-29737.8	0.000000	0.000000	7.134653	343.56	NaN	0.000000	0.001543	0.001764	28.0808	90.473	0.001725	52461.5	4.034141	171.524	340.468	1.119528	0.091916	0.091542	343.56	52461.5	0.087004	0.240056	1431.17	97826.7
1174	2.000000	1.122012	7.37654e+06	-56889.1	1105.82	-29737.8	0.000000	0.000000	7.137173	353.534	NaN	0.000000	0.001536	0.001672	28.0809	93.2084	0.001887	49386.3	5.480433	170.692	355.528	1.121741	0.094026	0.093755	353.534	49386.3	0.088657	0.248155	1424.65	90576.9
1174	2.000000	1.124055	7.37654e+06	-56889.1	1105.82	-29737.8	0.000000	0.000000	7.140016	372.96	NaN	0.000000	0.001549	0.001706	28.0807	94.2838	0.001851	50935.4	4.648385	171.707	377.301	1.123619	0.096069	0.095633	372.96	50935.4	0.090577	0.257725	1447.12	91667.5
1174	2.000000	1.125907	7.37654e+06	-56889.1	1105.82	-29737.8	0.000000	0.000000	7.142572	390.085	NaN	0.000000	0.001569	0.001720	28.0807	97.1959	0.001805	53854.8	6.818134	168.284	386.822	1.125544	0.097921	0.097557	390.085	53854.8	0.092488	0.267414	1458.73	95149.4
1174	2.000000	1.127956	7.37654e+06	-56889.1	1105.82	-29737.8	0.000000	0.000000	7.145095	401.619	NaN	0.000000	0.001568	0.001728	28.0811	97.2331	0.001785	54481	3.901137	171.8	401.73	1.127697	0.099970	0.099711	401.619	54481	0.094441	0.277487	1447.34	94492.4
1174	2.000000	1.129825	7.37654e+06	-56889.1	1105.82	-29737.8	0.000000	0.000000	7.147972	426.089	NaN	0.000000	0.001591	0.001709	28.0808	98.7673	0.001695	58274.2	8.698735	166.623	420.685	1.129483	0.101839	0.101496	426.089	58274.2	0.096355	0.287532	1481.89	99290.2
1174	2.000000	1.131921	7.37654e+06	-56889.1	1105.82	-29737.8	0.000000	0.000000	7.150376	433.606	NaN	0.000000	0.001568	0.001763	28.081	101.243	0.001744	58058.6	3.023468	171.92	430.977	1.131607	0.103934	0.103620	433.606	58058.6	0.098333	0.298086	1454.63	97155.8
1174	2.000000	1.132364	7.37654e+06	-56889.1	1105.82	-29737.8	0.000000	0.000000	7.151136	441.306	NaN	0.000000	0.001519	0.001754	28.0811	102.245	0.001785	57273.6	4.827548	-9.397807	434.552	1.131980	0.104378	0.103993	441.306	57273.6	0.098599	0.299517	1473.39	95613