File: remote_trans/data/nanoindenter/0828-1/data/Data_2025-08-06,11h17m57s/2025-07-22_16-23-58_1_71.txt
2025-07-22, 16:23:58, 1
Index	Phase	Displacement	Time	Pos X	Pos Y	Pos Z	Rot A	Rot B	Piezo Z	Force A	Force B	Gripper	Voltage A	Voltage B	Temperature	Amplitude force	Amplitude pos	Stiffness	Phase shift	Phase excitation	Force A raw	Displacement raw	HMax	HMax raw	Real Force	Real Stiffness	Contact Depth	Area	Hardness	Reduced Mod.
[#]	[#]	[um]	[s]	[um]	[um]	[um]	[m°]	[m°]	[um]	[uN]	[uN]	[V]	[V]	[V]	[°C]	[uN]	[um]	[N/m]	[°]	[°]	[uN]	[um]	[um]	[um]	[uN]	[N/m]	[um]	[um^2]	[MPa]	[MPa]
71	1.000000	0.002563	7.36574e+06	-42189.1	955.819	-29784.2	0.000000	0.000000	6.002796	-0.067438	NaN	0.000000	0.001689	0.001681	28.114	0.048220	0.000874	55.1848	157.379	-166.217	-0.142023	0.001346	-1.083657	-1.084873	-0.067438	55.1848	-1.082741	-2.939866E+14	2.293904E-16	NaN
71	1.000000	0.010530	7.36574e+06	-42189.1	955.819	-29784.2	0.000000	0.000000	6.010764	-0.063051	NaN	0.000000	0.001681	0.001669	28.1132	0.084884	0.001017	83.4409	3.078457	-161.486	0.020723	0.009214	-1.075690	-1.077006	-0.063051	83.4409	-1.075123	-2.322798E+14	2.714450E-16	NaN
71	1.000000	0.018527	7.36574e+06	-42189.1	955.818	-29784.2	0.000000	0.000000	6.018761	-0.067635	NaN	0.000000	0.001669	0.001621	28.1121	0.031885	0.001824	17.485	-98.2345	-163.07	-0.066708	0.017222	-1.067693	-1.068998	-0.067635	17.485	-1.064792	-1.687383E+14	4.008300E-16	NaN
71	1.000000	0.026551	7.36574e+06	-42189.1	955.818	-29784.2	0.000000	0.000000	6.026784	-0.095158	NaN	0.000000	0.001667	0.001655	28.1129	0.010424	0.001894	5.504961	166.816	-164.228	-0.080572	0.025215	-1.059668	-1.061004	-0.095158	5.504961	-1.046704	-9.640633E+13	9.870499E-16	NaN
71	1.000000	0.034506	7.36574e+06	-42189.1	955.818	-29784.2	0.000000	0.000000	6.034741	-0.042410	NaN	0.000000	0.001679	0.001683	28.1136	0.054388	0.001888	28.8136	-150.983	-165.7	-0.091778	0.033210	-1.051714	-1.053010	-0.042410	28.8136	-1.050610	-1.087970E+14	3.898064E-16	NaN
71	1.000000	0.042545	7.36574e+06	-42189.1	955.818	-29784.2	0.000000	0.000000	6.042778	-0.078284	NaN	0.000000	0.001671	0.001645	28.1136	0.041391	0.002212	18.7116	-64.4282	-165.556	-0.087786	0.041233	-1.043675	-1.044987	-0.078284	18.7116	-1.040537	-7.965080E+13	9.828397E-16	NaN
71	1.000000	0.050523	7.36574e+06	-42189.1	955.818	-29784.2	0.000000	0.000000	6.050756	-0.077650	NaN	0.000000	0.001685	0.001650	28.1135	0.076539	0.002039	37.5422	97.0786	-164.78	-0.133927	0.049219	-1.035697	-1.037001	-0.077650	37.5422	-1.034146	-6.534962E+13	1.188223E-15	NaN
71	1.000000	0.058557	7.36574e+06	-42189.1	955.818	-29784.2	0.000000	0.000000	6.058791	-0.048432	NaN	0.000000	0.001667	0.001670	28.1155	0.080243	0.002011	39.8957	13.95	-164.008	-0.061928	0.057264	-1.027663	-1.028956	-0.048432	39.8957	-1.026753	-5.197533E+13	9.318257E-16	NaN
71	1.000000	0.066526	7.36574e+06	-42189.1	955.818	-29784.2	0.000000	0.000000	6.066763	0.010858	NaN	0.000000	0.001656	0.001671	28.1153	0.048219	0.002000	24.1061	-147.05	-165.635	0.014610	0.065240	-1.019694	-1.020979	0.010858	24.1061	-1.020032	-4.220682E+13	-2.572465E-16	NaN
71	1.000000	0.074515	7.36574e+06	-42189.1	955.818	-29784.2	0.000000	0.000000	6.074751	-0.004488	NaN	0.000000	0.001677	0.001700	28.115	0.029911	0.001986	15.0627	89.6629	-164.32	0.033742	0.073233	-1.011705	-1.012986	-0.004488	15.0627	-1.011481	-3.238312E+13	1.385847E-16	NaN
71	1.000000	0.082566	7.36574e+06	-42189.1	955.818	-29784.2	0.000000	0.000000	6.082801	-0.035840	NaN	0.000000	0.001677	0.001731	28.1149	0.000830	0.002006	0.413599	-72.4281	-161.455	-0.064994	0.081213	-1.003654	-1.005006	-0.035840	0.413599	-0.938663	-3.381467E+12	1.059897E-14	NaN
71	1.000000	0.090528	7.36574e+06	-42189.1	955.818	-29784.2	0.000000	0.000000	6.090764	-0.009278	NaN	0.000000	0.001654	0.001695	28.1153	0.064702	0.001953	33.1357	-8.916873	-167.221	-0.058516	0.089223	-0.995692	-0.996996	-0.009278	33.1357	-0.995482	-1.972121E+13	4.704638E-16	NaN
71	1.000000	0.098518	7.36574e+06	-42189.1	955.819	-29784.2	0.000000	0.000000	6.098755	0.001788	NaN	0.000000	0.001647	0.001706	28.1135	0.022824	0.002099	10.8734	140.506	-163.561	-0.043053	0.097217	-0.987701	-0.989002	0.001788	10.8734	-0.987825	-1.555298E+13	-1.149592E-16	NaN
71	1.000000	0.106510	7.36574e+06	-42189.1	955.818	-29784.2	0.000000	0.000000	6.106744	-0.078282	NaN	0.000000	0.001616	0.001698	28.1144	0.050457	0.002071	24.3583	133.092	-166.437	-0.087227	0.105274	-0.979709	-0.980946	-0.078282	24.3583	-0.977299	-1.122075E+13	6.976504E-15	NaN
71	1.000000	0.114513	7.36574e+06	-42189.1	955.819	-29784.2	0.000000	0.000000	6.114749	-0.004175	NaN	0.000000	0.001642	0.001695	28.114	0.042944	0.001947	22.0536	-120.012	-166.162	-0.115729	0.113284	-0.971707	-0.972935	-0.004175	22.0536	-0.971565	-9.391971E+12	4.445611E-16	NaN
71	1.000000	0.122529	7.36574e+06	-42189.1	955.818	-29784.2	0.000000	0.000000	6.122762	-0.101325	NaN	0.000000	0.001591	0.001697	28.1141	0.074776	0.002115	35.3499	-149.098	-165.72	-0.099380	0.121220	-0.963691	-0.965000	-0.101325	35.3499	-0.961541	-6.880850E+12	1.472566E-14	NaN
71	1.000000	0.130534	7.36574e+06	-42189.1	955.818	-29784.2	0.000000	0.000000	6.130769	-0.040097	NaN	0.000000	0.001620	0.001696	28.1149	0.033769	0.001915	17.6319	-144.563	-163.481	-0.042160	0.129228	-0.955686	-0.956991	-0.040097	17.6319	-0.953981	-5.441373E+12	7.368986E-15	NaN
71	1.000000	0.138607	7.36574e+06	-42189.1	955.818	-29784.2	0.000000	0.000000	6.138841	-0.053671	NaN	0.000000	0.001612	0.001671	28.1152	0.065362	0.001989	32.8556	158.277	-163.022	-0.089086	0.137224	-0.947613	-0.948996	-0.053671	32.8556	-0.946388	-4.298419E+12	1.248631E-14	NaN
71	1.000000	0.146548	7.36574e+06	-42189.1	955.818	-29784.2	0.000000	0.000000	6.146783	-0.036179	NaN	0.000000	0.001630	0.001673	28.1158	0.087146	0.002050	42.5107	93.4678	-168.566	-0.130607	0.145230	-0.939672	-0.940989	-0.036179	42.5107	-0.939034	-3.420590E+12	1.057685E-14	NaN
71	1.000000	0.154553	7.36574e+06	-42189.1	955.818	-29784.2	0.000000	0.000000	6.154787	-0.055890	NaN	0.000000	0.001631	0.001666	28.1155	0.052339	0.001976	26.4888	-9.748818	-164.347	-0.077527	0.153247	-0.931667	-0.932973	-0.055890	26.4888	-0.930084	-2.590204E+12	2.157730E-14	NaN
71	1.000000	0.162563	7.36574e+06	-42189.1	955.818	-29784.2	0.000000	0.000000	6.162799	-0.022495	NaN	0.000000	0.001633	0.001688	28.1146	0.019566	0.002041	9.584709	-49.7091	-162.991	-0.046327	0.161261	-0.923657	-0.924959	-0.022495	9.584709	-0.921897	-2.008219E+12	1.120130E-14	NaN
71	1.000000	0.170582	7.36574e+06	-42189.1	955.819	-29784.2	0.000000	0.000000	6.170818	0.004995	NaN	0.000000	0.001628	0.001648	28.1145	0.096374	0.001948	49.4691	-159.928	-160.672	-0.037831	0.169278	-0.915638	-0.916942	0.004995	49.4691	-0.915714	-1.657036E+12	-3.014692E-15	NaN
71	1.000000	0.178562	7.36574e+06	-42189.1	955.818	-29784.2	0.000000	0.000000	6.178798	-0.032569	NaN	0.000000	0.001613	0.001684	28.1135	0.041602	0.001881	22.1185	-145.05	-164.713	-0.052565	0.177280	-0.907658	-0.908940	-0.032569	22.1185	-0.906553	-1.246245E+12	2.613365E-14	NaN
71	1.000000	0.186569	7.36574e+06	-42189.1	955.818	-29784.2	0.000000	0.000000	6.186806	0.004214	NaN	0.000000	0.001583	0.001680	28.113	0.065987	0.001954	33.7624	136.008	-163.967	0.043670	0.185244	-0.899651	-0.900976	0.004214	33.7624	-0.899744	-1.008350E+12	-4.178954E-15	NaN
71	1.000000	0.194573	7.36574e+06	-42189.1	955.819	-29784.2	0.000000	0.000000	6.194812	0.060926	NaN	0.000000	0.001607	0.001663	28.1124	0.057443	0.001959	29.3189	-56.7794	-163.114	0.025364	0.193278	-0.891647	-0.892942	0.060926	29.3189	-0.893205	-8.226994E+11	-7.405625E-14	NaN
71	1.000000	0.202600	7.36574e+06	-42189.1	955.818	-29784.2	0.000000	0.000000	6.202834	-0.057794	NaN	0.000000	0.001592	0.001669	28.1124	0.004744	0.002058	2.304644	144.308	-165.359	-0.040264	0.201292	-0.883620	-0.884928	-0.057794	2.304644	-0.864812	-3.398228E+11	1.700698E-13	NaN
71	1.000000	0.210553	7.36574e+06	-42189.1	955.818	-29784.2	0.000000	0.000000	6.210786	-0.091711	NaN	0.000000	0.001636	0.001674	28.1131	0.101286	0.002055	49.2803	81.0646	-164.542	-0.132594	0.209264	-0.875667	-0.876956	-0.091711	49.2803	-0.874271	-4.562753E+11	2.009985E-13	NaN
71	1.000000	0.218584	7.36574e+06	-42189.1	955.818	-29784.2	0.000000	0.000000	6.218818	-0.082605	NaN	0.000000	0.001616	0.001680	28.1143	0.076645	0.002190	35.0004	-125.305	-165.037	-0.063489	0.217267	-0.867635	-0.868953	-0.082605	35.0004	-0.865865	-3.511552E+11	2.352392E-13	NaN
71	1.000000	0.226564	7.36574e+06	-42189.1	955.818	-29784.2	0.000000	0.000000	6.226797	-0.089421	NaN	0.000000	0.001614	0.001668	28.1143	0.042438	0.001812	23.42	-10.8247	-166.22	-0.075529	0.225283	-0.859655	-0.860936	-0.089421	23.42	-0.856792	-2.646637E+11	3.378651E-13	NaN
71	1.000000	0.234567	7.36574e+06	-42189.1	955.817	-29784.2	0.000000	0.000000	6.234803	-0.029080	NaN	0.000000	0.001619	0.001691	28.1147	0.034256	0.001845	18.5688	-164.144	-163.109	-0.055207	0.233285	-0.851653	-0.852935	-0.029080	18.5688	-0.850478	-2.173763E+11	1.337786E-13	NaN
71	1.000000	0.242624	7.36574e+06	-42189.1	955.819	-29784.2	0.000000	0.000000	6.242858	-0.057138	NaN	0.000000	0.001622	0.001680	28.1142	0.099197	0.001908	52.0008	125.049	-163.959	-0.097418	0.241293	-0.843596	-0.844927	-0.057138	52.0008	-0.842772	-1.709390E+11	3.342589E-13	NaN
71	1.000000	0.250606	7.36574e+06	-42189.1	955.818	-29784.2	0.000000	0.000000	6.250839	-0.080424	NaN	0.000000	0.001627	0.001655	28.1147	0.127947	0.001877	68.183	-52.6309	-165.355	-0.052245	0.249267	-0.835614	-0.836953	-0.080424	68.183	-0.834729	-1.330075E+11	6.046582E-13	NaN
71	1.000000	0.258599	7.36574e+06	-42189.1	955.817	-29784.2	0.000000	0.000000	6.258833	-0.066380	NaN	0.000000	0.001606	0.001668	28.1137	0.080340	0.001994	40.2984	42.4048	-163.604	-0.049846	0.257288	-0.827621	-0.828931	-0.066380	40.2984	-0.826385	-1.025151E+11	6.475188E-13	NaN
71	1.000000	0.266625	7.36574e+06	-42189.1	955.818	-29784.2	0.000000	0.000000	6.266860	-0.051996	NaN	0.000000	0.001625	0.001642	28.1132	0.051795	0.001971	26.2771	174.847	-162.501	-0.041383	0.265280	-0.819594	-0.820940	-0.051996	26.2771	-0.818110	-7.917456E+10	6.567247E-13	NaN
71	1.000000	0.274630	7.36574e+06	-42189.1	955.818	-29784.2	0.000000	0.000000	6.274865	-0.028878	NaN	0.000000	0.001591	0.001645	28.1136	0.177207	0.001938	91.4302	-142.204	-165.72	0.022656	0.273308	-0.811590	-0.812912	-0.028878	91.4302	-0.811353	-6.411065E+10	4.504449E-13	NaN
71	1.000000	0.282606	7.36574e+06	-42189.1	955.818	-29784.2	0.000000	0.000000	6.282841	-0.045730	NaN	0.000000	0.001608	0.001659	28.1136	0.112204	0.002056	54.5806	175.931	-168.323	-0.064202	0.281312	-0.803613	-0.804908	-0.045730	54.5806	-0.802985	-4.936033E+10	9.264497E-13	NaN
71	1.000000	0.290609	7.36574e+06	-42189.1	955.818	-29784.2	0.000000	0.000000	6.290845	-0.008200	NaN	0.000000	0.001623	0.001673	28.1136	0.059170	0.002030	29.1542	94.9291	-161.903	-0.038457	0.289340	-0.795611	-0.796880	-0.008200	29.1542	-0.795400	-3.894179E+10	2.105765E-13	NaN
71	1.000000	0.298613	7.36574e+06	-42189.1	955.819	-29784.2	0.000000	0.000000	6.298847	-0.061478	NaN	0.000000	0.001608	0.001639	28.1151	0.059976	0.001980	30.2934	96.7527	-165.422	-0.051976	0.297296	-0.787607	-0.788923	-0.061478	30.2934	-0.786085	-2.910097E+10	2.112563E-12	NaN
71	1.000000	0.306640	7.36574e+06	-42189.1	955.818	-29784.2	0.000000	0.000000	6.306877	0.012239	NaN	0.000000	0.001571	0.001630	28.1159	0.068189	0.002053	33.2141	25.2741	-162.947	-0.090954	0.305334	-0.779580	-0.780886	0.012239	33.2141	-0.779856	-2.394836E+10	-5.110375E-13	NaN
71	1.000000	0.314632	7.36574e+06	-42189.1	955.818	-29784.2	0.000000	0.000000	6.314868	-0.014612	NaN	0.000000	0.001560	0.001611	28.1163	0.073157	0.002029	36.0608	-106.829	-166.1	-0.001186	0.313311	-0.771588	-0.772909	-0.014612	36.0608	-0.771284	-1.831328E+10	7.978697E-13	NaN
71	1.000000	0.322646	7.36574e+06	-42189.1	955.819	-29784.2	0.000000	0.000000	6.322879	-0.092464	NaN	0.000000	0.001557	0.001662	28.116	0.120156	0.001913	62.819	81.5185	-166.19	-0.119329	0.321336	-0.763574	-0.764884	-0.092464	62.819	-0.762470	-1.389636E+10	6.653826E-12	NaN
71	1.000000	0.330624	7.36574e+06	-42189.1	955.818	-29784.2	0.000000	0.000000	6.330857	-0.088109	NaN	0.000000	0.001586	0.001663	28.1161	0.098813	0.002021	48.8846	-162.235	-165.272	0.001136	0.329314	-0.755596	-0.756906	-0.088109	48.8846	-0.754244	-1.073944E+10	8.204213E-12	NaN
71	1.000000	0.338663	7.36574e+06	-42189.1	955.819	-29784.2	0.000000	0.000000	6.338901	0.017297	NaN	0.000000	0.001585	0.001647	28.1148	0.068585	0.001971	34.7916	-122.247	-162.728	0.056683	0.337359	-0.747556	-0.748861	0.017297	34.7916	-0.747929	-8.811106E+9	-1.963116E-12	NaN
71	1.000000	0.346661	7.36574e+06	-42189.1	955.818	-29784.2	0.000000	0.000000	6.346897	-0.020834	NaN	0.000000	0.001550	0.001658	28.1147	0.069757	0.001984	35.1519	39.1454	-163.326	0.074949	0.345356	-0.739559	-0.740864	-0.020834	35.1519	-0.739114	-6.683320E+9	3.117276E-12	NaN
71	1.000000	0.354646	7.36574e+06	-42189.1	955.819	-29784.2	0.000000	0.000000	6.354879	-0.073631	NaN	0.000000	0.001589	0.001679	28.1146	0.065540	0.001998	32.8057	115.645	-165.37	0.015091	0.353311	-0.731574	-0.732909	-0.073631	32.8057	-0.729891	-5.003993E+9	1.471445E-11	NaN
71	1.000000	0.362675	7.36574e+06	-42189.1	955.818	-29784.2	0.000000	0.000000	6.362908	-0.094892	NaN	0.000000	0.001587	0.001675	28.115	0.058283	0.001993	29.2473	111.952	-164.257	-0.072706	0.361300	-0.723544	-0.724920	-0.094892	29.2473	-0.721111	-3.798616E+9	2.498073E-11	NaN
71	1.000000	0.370649	7.36574e+06	-42189.1	955.819	-29784.2	0.000000	0.000000	6.370883	-0.068432	NaN	0.000000	0.001558	0.001658	28.115	0.057929	0.001923	30.1322	67.9948	-167.131	-0.067886	0.369382	-0.715571	-0.716837	-0.068432	30.1322	-0.713868	-3.025692E+9	2.261698E-11	NaN
71	1.000000	0.378649	7.36574e+06	-42189.1	955.818	-29784.2	0.000000	0.000000	6.378882	-0.087493	NaN	0.000000	0.001609	0.001672	28.1154	0.072650	0.002067	35.1447	-152.115	-165.697	-0.019671	0.377327	-0.707571	-0.708892	-0.087493	35.1447	-0.705703	-2.341020E+9	3.737399E-11	NaN
71	1.000000	0.386661	7.36574e+06	-42189.1	955.818	-29784.2	0.000000	0.000000	6.386895	-0.046721	NaN	0.000000	0.001589	0.001697	28.1163	0.019138	0.002013	9.505306	108.742	-164.828	-0.046710	0.385344	-0.699559	-0.700876	-0.046721	9.505306	-0.695873	-1.718535E+9	2.718637E-11	NaN
71	1.000000	0.394646	7.36574e+06	-42189.1	955.818	-29784.2	0.000000	0.000000	6.394880	-0.074239	NaN	0.000000	0.001564	0.001674	28.116	0.017948	0.002058	8.722401	-3.785643	-162.491	-0.121938	0.393348	-0.691574	-0.692872	-0.074239	8.722401	-0.685190	-1.227933E+9	6.045818E-11	NaN
71	1.000000	0.402699	7.36574e+06	-42189.1	955.818	-29784.2	0.000000	0.000000	6.402936	0.025402	NaN	0.000000	0.001571	0.001657	28.1162	0.106677	0.001974	54.0393	108.727	-168.52	0.005433	0.401322	-0.683521	-0.684898	0.025402	54.0393	-0.683874	-1.178085E+9	-2.156195E-11	NaN
71	1.000000	0.410673	7.36574e+06	-42189.1	955.818	-29784.2	0.000000	0.000000	6.410906	-0.090965	NaN	0.000000	0.001610	0.001685	28.116	0.024440	0.001832	13.3432	54.9003	-163.264	0.010697	0.409365	-0.675547	-0.676855	-0.090965	13.3432	-0.670434	-7.714818E+8	1.179097E-10	NaN
71	1.000000	0.418643	7.36574e+06	-42189.1	955.819	-29784.2	0.000000	0.000000	6.418875	-0.111649	NaN	0.000000	0.001538	0.001647	28.1153	0.056782	0.001862	30.4973	63.8725	-167.061	-0.048386	0.417320	-0.667577	-0.668899	-0.111649	30.4973	-0.664832	-6.466008E+8	1.726712E-10	NaN
71	1.000000	0.426699	7.36574e+06	-42189.1	955.818	-29784.2	0.000000	0.000000	6.426933	-0.047806	NaN	0.000000	0.001528	0.001667	28.1155	0.078468	0.001995	39.3293	-92.6919	-165.276	-0.027998	0.425364	-0.659521	-0.660856	-0.047806	39.3293	-0.658610	-5.314006E+8	8.996161E-11	NaN
71	1.000000	0.434685	7.36574e+06	-42189.1	955.819	-29784.2	0.000000	0.000000	6.434919	-0.053223	NaN	0.000000	0.001535	0.001614	28.1152	0.092141	0.002031	45.369	-117.311	-163.912	-0.097395	0.433368	-0.651535	-0.652852	-0.053223	45.369	-0.650655	-4.134436E+8	1.287321E-10	NaN
71	1.000000	0.442661	7.36574e+06	-42189.1	955.818	-29784.2	0.000000	0.000000	6.442894	-0.087378	NaN	0.000000	0.001568	0.001600	28.1144	0.032123	0.001956	16.4265	-102.1	-165.018	-0.033046	0.441350	-0.643559	-0.644870	-0.087378	16.4265	-0.639570	-2.913286E+8	2.999284E-10	NaN
71	1.000000	0.450683	7.36574e+06	-42189.1	955.818	-29784.2	0.000000	0.000000	6.450918	-0.055753	NaN	0.000000	0.001602	0.001631	28.1139	0.030435	0.001857	16.3865	109.648	-166.013	-0.040122	0.449346	-0.635537	-0.636874	-0.055753	16.3865	-0.632985	-2.365960E+8	2.356461E-10	NaN
71	1.000000	0.458687	7.36574e+06	-42189.1	955.818	-29784.2	0.000000	0.000000	6.458923	-0.021604	NaN	0.000000	0.001590	0.001613	28.1155	0.077382	0.002008	38.5341	-28.1966	-165.107	0.010215	0.457392	-0.627533	-0.628828	-0.021604	38.5341	-0.627112	-1.964994E+8	1.099449E-10	NaN
71	1.000000	0.466722	7.36574e+06	-42189.1	955.818	-29784.2	0.000000	0.000000	6.466955	-0.085535	NaN	0.000000	0.001634	0.001595	28.1155	0.041431	0.001924	21.5289	-143.623	-165.153	-0.103593	0.465371	-0.619498	-0.620849	-0.085535	21.5289	-0.616518	-1.405291E+8	6.086605E-10	NaN
71	1.000000	0.474700	7.36574e+06	-42189.1	955.818	-29784.2	0.000000	0.000000	6.474935	-0.035128	NaN	0.000000	0.001633	0.001597	28.1147	0.081990	0.002087	39.2833	48.3111	-163.069	-0.044263	0.473396	-0.611520	-0.612824	-0.035128	39.2833	-0.610849	-1.174353E+8	2.991289E-10	NaN
71	1.000000	0.482692	7.36574e+06	-42189.1	955.818	-29784.2	0.000000	0.000000	6.482926	-0.061239	NaN	0.000000	0.001644	0.001611	28.1153	0.069209	0.002071	33.4196	-57.4564	-165.782	-0.041458	0.481455	-0.603528	-0.604765	-0.061239	33.4196	-0.602153	-8.914870E+7	6.869278E-10	NaN
71	1.000000	0.490690	7.36574e+06	-42189.1	955.818	-29784.2	0.000000	0.000000	6.490926	-0.016565	NaN	0.000000	0.001635	0.001608	28.1155	0.065511	0.002076	31.557	54.113	-163.509	0.013015	0.489457	-0.595530	-0.596762	-0.016565	31.557	-0.595136	-7.136020E+7	2.321388E-10	NaN
71	1.000000	0.498736	7.36574e+06	-42189.1	955.818	-29784.2	0.000000	0.000000	6.498972	-0.024605	NaN	0.000000	0.001628	0.001592	28.1142	0.021087	0.001994	10.5734	51.0395	-164.122	-0.043349	0.497352	-0.587484	-0.588867	-0.024605	10.5734	-0.585738	-5.295404E+7	4.646432E-10	NaN
71	1.000000	0.506683	7.36574e+06	-42189.1	955.818	-29784.2	0.000000	0.000000	6.506915	-0.113461	NaN	0.000000	0.001583	0.001555	28.1143	0.051962	0.001995	26.047	55.3213	-165.145	-0.091648	0.505450	-0.579537	-0.580770	-0.113461	26.047	-0.576270	-3.919501E+7	2.894778E-9	NaN
71	1.000000	0.514722	7.36574e+06	-42189.1	955.818	-29784.2	0.000000	0.000000	6.514959	-3.715555E-5	NaN	0.000000	0.001607	0.001641	28.1142	0.034329	0.001927	17.813	-91.3972	-164.036	0.021900	0.513404	-0.571498	-0.572816	-3.715555E-5	17.813	-0.571496	-3.367469E+7	1.103367E-12	NaN
71	1.000000	0.522737	7.36574e+06	-42189.1	955.818	-29784.2	0.000000	0.000000	6.522971	-0.060160	NaN	0.000000	0.001624	0.001645	28.1147	0.096574	0.002173	44.4432	126.197	-164.062	-0.010874	0.521384	-0.563483	-0.564836	-0.060160	44.4432	-0.562468	-2.526472E+7	2.381176E-9	NaN
71	1.000000	0.530746	7.36574e+06	-42189.1	955.819	-29784.2	0.000000	0.000000	6.530981	-0.038425	NaN	0.000000	0.001615	0.001627	28.1151	0.095064	0.002021	47.0465	10.6927	-167.075	0.079364	0.529420	-0.555474	-0.556800	-0.038425	47.0465	-0.554861	-1.982737E+7	1.937964E-9	NaN
71	1.000000	0.538742	7.36574e+06	-42189.1	955.818	-29784.2	0.000000	0.000000	6.538979	0.004422	NaN	0.000000	0.001595	0.001639	28.1158	0.036455	0.001953	18.6684	137.986	-167.196	0.024797	0.537414	-0.547478	-0.548806	0.004422	18.6684	-0.547655	-1.575704E+7	-2.806362E-10	NaN
71	1.000000	0.546741	7.36574e+06	-42189.1	955.818	-29784.2	0.000000	0.000000	6.546978	-0.006249	NaN	0.000000	0.001559	0.001652	28.116	0.098714	0.002099	47.0283	44.1131	-165.537	-0.073177	0.545448	-0.539479	-0.540772	-0.006249	47.0283	-0.539379	-1.209886E+7	5.165047E-10	NaN
71	1.000000	0.554724	7.36574e+06	-42189.1	955.818	-29784.2	0.000000	0.000000	6.554960	-0.023533	NaN	0.000000	0.001594	0.001652	28.1163	0.123490	0.001895	65.1617	118.364	-167.965	-0.059862	0.553406	-0.531496	-0.532814	-0.023533	65.1617	-0.531225	-9.32357e+06	2.523990E-9	NaN
71	1.000000	0.562750	7.36574e+06	-42189.1	955.819	-29784.2	0.000000	0.000000	6.562983	-0.084164	NaN	0.000000	0.001587	0.001659	28.1157	0.050255	0.002160	23.2705	69.6766	-166.852	-0.148842	0.561452	-0.523470	-0.524768	-0.084164	23.2705	-0.520757	-6.67001e+06	1.261828E-8	NaN
71	1.000000	0.570746	7.36574e+06	-42189.1	955.819	-29784.2	0.000000	0.000000	6.570978	-0.124287	NaN	0.000000	0.001607	0.001674	28.1168	0.126229	0.002180	57.9012	77.4327	-165.158	-0.066295	0.569444	-0.515474	-0.516775	-0.124287	57.9012	-0.513864	-5.34833e+06	2.323852E-8	NaN
71	1.000000	0.578750	7.36574e+06	-42189.1	955.818	-29784.2	0.000000	0.000000	6.578985	-0.027590	NaN	0.000000	0.001572	0.001651	28.1167	0.034212	0.002032	16.8324	85.9384	-162.858	-0.002081	0.577393	-0.507470	-0.508826	-0.027590	16.8324	-0.506241	-4.18832e+06	6.587346E-9	NaN
71	1.000000	0.586743	7.36574e+06	-42189.1	955.818	-29784.2	0.000000	0.000000	6.586976	-0.081900	NaN	0.000000	0.001554	0.001652	28.1163	0.034944	0.002008	17.404	73.7978	-166.361	-0.106968	0.585375	-0.499477	-0.500845	-0.081900	17.404	-0.495947	-3.00927e+06	2.721603E-8	NaN
71	1.000000	0.594746	7.36574e+06	-42189.1	955.818	-29784.2	0.000000	0.000000	6.594982	-0.013170	NaN	0.000000	0.001560	0.001670	28.1169	0.167553	0.001945	86.1375	42.8336	-162.322	-0.034695	0.593433	-0.491474	-0.492787	-0.013170	86.1375	-0.491359	-2.59645e+06	5.072342E-9	NaN
71	1.000000	0.602737	7.36574e+06	-42189.1	955.819	-29784.2	0.000000	0.000000	6.602969	-0.131230	NaN	0.000000	0.001580	0.001643	28.1165	0.123638	0.002132	57.9972	-37.8155	-166.877	-0.161983	0.601434	-0.483482	-0.484786	-0.131230	57.9972	-0.481785	-1.90774e+06	6.878834E-8	NaN
71	1.000000	0.610762	7.36574e+06	-42189.1	955.818	-29784.2	0.000000	0.000000	6.610995	-0.093424	NaN	0.000000	0.001626	0.001655	28.1165	0.057815	0.002066	27.9795	-23.8427	-164.029	-0.066782	0.609494	-0.475458	-0.476726	-0.093424	27.9795	-0.472954	-1.4349e+06	6.510857E-8	NaN
71	1.000000	0.618753	7.36574e+06	-42189.1	955.818	-29784.2	0.000000	0.000000	6.618986	-0.088480	NaN	0.000000	0.001632	0.001655	28.1179	0.031364	0.001943	16.1394	104.775	-167.122	-0.043301	0.617455	-0.467467	-0.468765	-0.088480	16.1394	-0.463355	-1.05232e+06	8.408068E-8	NaN
71	1.000000	0.626779	7.36574e+06	-42189.1	955.818	-29784.2	0.000000	0.000000	6.627015	-0.000868	NaN	0.000000	0.001648	0.001640	28.1173	0.055005	0.001944	28.2975	0.231193	-164.884	0.022295	0.625436	-0.459441	-0.460783	-0.000868	28.2975	-0.459418	-926484	9.373147E-10	NaN
71	1.000000	0.634767	7.36574e+06	-42189.1	955.819	-29784.2	0.000000	0.000000	6.635004	0.003782	NaN	0.000000	0.001574	0.001682	28.118	0.087626	0.001877	46.6753	83.1085	-163.549	-0.023461	0.633429	-0.451453	-0.452791	0.003782	46.6753	-0.451513	-717216	-5.272534E-9	NaN
71	1.000000	0.642795	7.36574e+06	-42189.1	955.818	-29784.2	0.000000	0.000000	6.643030	-0.037510	NaN	0.000000	0.001600	0.001651	28.1182	0.127724	0.002070	61.6894	-11.4446	-165.376	-0.043976	0.641503	-0.443425	-0.444717	-0.037510	61.6894	-0.442969	-543566	6.900720E-8	NaN
71	1.000000	0.650777	7.36574e+06	-42189.1	955.817	-29784.2	0.000000	0.000000	6.651013	-0.030169	NaN	0.000000	0.001577	0.001660	28.1183	0.099944	0.001958	51.043	-109.481	-162.518	-0.060821	0.649491	-0.435443	-0.436728	-0.030169	51.043	-0.434999	-419513	7.191341E-8	NaN
71	1.000000	0.658780	7.36574e+06	-42189.1	955.817	-29784.2	0.000000	0.000000	6.659020	0.077845	NaN	0.000000	0.001587	0.001679	28.1169	0.090003	0.001915	47.0085	120.359	-163.43	-0.015809	0.657446	-0.427440	-0.428774	0.077845	47.0085	-0.428682	-341517	-2.279374E-7	NaN
71	1.000000	0.666789	7.36574e+06	-42189.1	955.818	-29784.2	0.000000	0.000000	6.667024	-0.050130	NaN	0.000000	0.001572	0.001638	28.1167	0.044925	0.001939	23.1668	-151.946	-164.975	-0.057207	0.665438	-0.419431	-0.420782	-0.050130	23.1668	-0.417808	-239505	2.093077E-7	NaN
71	1.000000	0.674824	7.36574e+06	-42189.1	955.818	-29784.2	0.000000	0.000000	6.675061	-0.009406	NaN	0.000000	0.001597	0.001661	28.1167	0.037047	0.001958	18.923	-47.8843	-164.714	-0.001723	0.673464	-0.411395	-0.412756	-0.009406	18.923	-0.411023	-191841	4.902802E-8	NaN
71	1.000000	0.682795	7.36574e+06	-42189.1	955.819	-29784.2	0.000000	0.000000	6.683029	-0.047605	NaN	0.000000	0.001578	0.001666	28.1163	0.161281	0.002116	76.2276	-143.274	-164.352	-0.124470	0.681485	-0.403425	-0.404734	-0.047605	76.2276	-0.402957	-147280	3.232314E-7	NaN
71	1.000000	0.690759	7.36574e+06	-42189.1	955.818	-29784.2	0.000000	0.000000	6.690997	0.033327	NaN	0.000000	0.001558	0.001658	28.1171	0.024919	0.001997	12.4807	-77.4924	-166.697	0.003981	0.689501	-0.395461	-0.396719	0.033327	12.4807	-0.397464	-122973	-2.710125E-7	NaN
71	1.000000	0.698807	7.36574e+06	-42189.1	955.818	-29784.2	0.000000	0.000000	6.699045	0.017934	NaN	0.000000	0.001564	0.001674	28.1186	0.021737	0.002075	10.4741	170.037	-165.195	-0.060892	0.697485	-0.387413	-0.388735	0.017934	10.4741	-0.388697	-92155.1	-1.946062E-7	NaN
71	1.000000	0.706781	7.36574e+06	-42189.1	955.818	-29784.2	0.000000	0.000000	6.707017	0.001990	NaN	0.000000	0.001584	0.001701	28.1183	0.006508	0.001940	3.354010	-167.064	-166.074	-0.043427	0.705539	-0.379439	-0.380681	0.001990	3.354010	-0.379884	-68901.1	-2.887629E-8	NaN
71	1.000000	0.714812	7.36574e+06	-42189.1	955.818	-29784.2	0.000000	0.000000	6.715045	-0.100293	NaN	0.000000	0.001580	0.001660	28.1168	0.030405	0.001910	15.9198	38.103	-161.639	-0.083798	0.713510	-0.371408	-0.372710	-0.100293	15.9198	-0.366683	-44496.3	2.253968E-6	NaN
71	1.000000	0.722777	7.36574e+06	-42189.1	955.818	-29784.2	0.000000	0.000000	6.723012	-0.037754	NaN	0.000000	0.001586	0.001657	28.1172	0.101354	0.002022	50.1312	47.9813	-165.98	-0.046258	0.721498	-0.363443	-0.364722	-0.037754	50.1312	-0.362878	-39212.6	9.628029E-7	NaN
71	1.000000	0.730811	7.36574e+06	-42189.1	955.819	-29784.2	0.000000	0.000000	6.731046	-0.021361	NaN	0.000000	0.001614	0.001661	28.1169	0.042082	0.002096	20.0746	69.1853	-166.609	-0.056790	0.729475	-0.355409	-0.356745	-0.021361	20.0746	-0.354611	-29775.7	7.173845E-7	NaN
71	1.000000	0.738832	7.36574e+06	-42189.1	955.818	-29784.2	0.000000	0.000000	6.739066	-0.065293	NaN	0.000000	0.001587	0.001674	28.1159	0.094566	0.002153	43.9267	175.09	-166.138	-0.071073	0.737482	-0.347388	-0.348737	-0.065293	43.9267	-0.346273	-22535.8	2.897293E-6	NaN
71	1.000000	0.746773	7.36574e+06	-42189.1	955.819	-29784.2	0.000000	0.000000	6.747010	-0.000888	NaN	0.000000	0.001569	0.001666	28.1156	0.039700	0.001837	21.61	-137.412	-159.262	-0.024653	0.745480	-0.339447	-0.340739	-0.000888	21.61	-0.339416	-17907.7	4.957268E-8	NaN
71	1.000000	0.754790	7.36574e+06	-42189.1	955.818	-29784.2	0.000000	0.000000	6.755026	-0.022050	NaN	0.000000	0.001564	0.001695	28.1161	0.016053	0.002033	7.896201	-97.9682	-165.691	-0.057561	0.753514	-0.331430	-0.332705	-0.022050	7.896201	-0.329335	-12756	1.728568E-6	NaN
71	1.000000	0.762810	7.36574e+06	-42189.1	955.818	-29784.2	0.000000	0.000000	6.763046	-0.019053	NaN	0.000000	0.001632	0.001679	28.1162	0.069231	0.001881	36.8065	-175.011	-166.11	-0.040686	0.761484	-0.323410	-0.324736	-0.019053	36.8065	-0.323022	-10305.7	1.848772E-6	NaN
71	1.000000	0.770817	7.36574e+06	-42189.1	955.818	-29784.2	0.000000	0.000000	6.771055	0.033878	NaN	0.000000	0.001661	0.001677	28.1161	0.031509	0.001993	15.8119	-31.8245	-162.084	0.023340	0.769468	-0.315403	-0.316752	0.033878	15.8119	-0.317010	-8406.12	-4.030184E-6	NaN
71	1.000000	0.778844	7.36574e+06	-42189.1	955.817	-29784.2	0.000000	0.000000	6.779079	-0.027017	NaN	0.000000	0.001687	0.001684	28.1172	0.040724	0.002107	19.3303	14.9703	-163.591	-0.043510	0.777534	-0.307376	-0.308686	-0.027017	19.3303	-0.306328	-5843.23	4.623688E-6	NaN
71	1.000000	0.786822	7.36574e+06	-42189.1	955.818	-29784.2	0.000000	0.000000	6.787056	-0.074768	NaN	0.000000	0.001654	0.001668	28.1172	0.025291	0.001851	13.6629	-138.315	-167.1	-0.042553	0.785543	-0.299397	-0.300677	-0.074768	13.6629	-0.295293	-4003.74	1.867461E-5	NaN
71	1.000000	0.794806	7.36574e+06	-42189.1	955.818	-29784.2	0.000000	0.000000	6.795039	-0.096027	NaN	0.000000	0.001643	0.001683	28.1171	0.045944	0.001791	25.6544	131.468	-163.86	-0.145974	0.793473	-0.291414	-0.292747	-0.096027	25.6544	-0.288606	-3179.88	3.019827E-5	NaN
71	1.000000	0.802833	7.36574e+06	-42189.1	955.819	-29784.2	0.000000	0.000000	6.803067	-0.052191	NaN	0.000000	0.001656	0.001698	28.1175	0.191629	0.002112	90.7398	-130.099	-164.544	0.039821	0.801563	-0.283387	-0.284657	-0.052191	90.7398	-0.282956	-2615.26	1.995652E-5	NaN
71	1.000000	0.810856	7.36574e+06	-42189.1	955.819	-29784.2	0.000000	0.000000	6.811088	-0.109536	NaN	0.000000	0.001582	0.001690	28.1173	0.102517	0.002050	50.018	18.289	-164.894	-0.116004	0.809552	-0.275364	-0.276668	-0.109536	50.018	-0.273722	-1896.85	5.774625E-5	NaN
71	1.000000	0.818846	7.36574e+06	-42189.1	955.818	-29784.2	0.000000	0.000000	6.819079	-0.085127	NaN	0.000000	0.001592	0.001665	28.1164	0.020324	0.001995	10.1896	-89.6496	-165.41	-0.114332	0.817506	-0.267374	-0.268714	-0.085127	10.1896	-0.261108	-1218.69	6.985120E-5	NaN
71	1.000000	0.826839	7.36574e+06	-42189.1	955.819	-29784.2	0.000000	0.000000	6.827076	-0.003267	NaN	0.000000	0.001572	0.001695	28.116	0.132929	0.001980	67.1515	104.861	-162.264	-0.007924	0.825562	-0.259381	-0.260657	-0.003267	67.1515	-0.259344	-1145.15	2.852506E-6	NaN
71	1.000000	0.834838	7.36574e+06	-42189.1	955.817	-29784.2	0.000000	0.000000	6.835072	-0.056392	NaN	0.000000	0.001654	0.001666	28.1157	0.063157	0.001973	32.0091	-169.383	-163.27	-0.065918	0.833499	-0.251382	-0.252720	-0.056392	32.0091	-0.250060	-823.952	6.844137E-5	NaN
71	1.000000	0.842848	7.36574e+06	-42189.1	955.818	-29784.2	0.000000	0.000000	6.843083	-0.050297	NaN	0.000000	0.001653	0.001634	28.1158	0.026966	0.001912	14.1016	-169.268	-166.312	-0.041640	0.841558	-0.243371	-0.244662	-0.050297	14.1016	-0.240696	-589.42	8.533247E-5	NaN
71	1.000000	0.850852	7.36574e+06	-42189.1	955.818	-29784.2	0.000000	0.000000	6.851085	-0.095979	NaN	0.000000	0.001675	0.001623	28.1176	0.109662	0.001958	56.0203	-41.6266	-165.185	-0.075926	0.849545	-0.235367	-0.236674	-0.095979	56.0203	-0.234082	-464.335	0.000207	NaN
71	1.000000	0.858835	7.36574e+06	-42189.1	955.818	-29784.2	0.000000	0.000000	6.859072	0.001248	NaN	0.000000	0.001655	0.001666	28.1184	0.065651	0.001982	33.1239	134.839	-164.895	0.002026	0.857590	-0.227385	-0.228630	0.001248	33.1239	-0.227413	-364.422	-3.425931E-6	NaN
71	1.000000	0.866862	7.36574e+06	-42189.1	955.819	-29784.2	0.000000	0.000000	6.867095	-0.077884	NaN	0.000000	0.001594	0.001682	28.1191	0.036128	0.001959	18.4393	2.454170	-160.374	-0.060479	0.865630	-0.219358	-0.220590	-0.077884	18.4393	-0.216190	-241.349	0.000323	NaN
71	1.000000	0.874866	7.36574e+06	-42189.1	955.818	-29784.2	0.000000	0.000000	6.875099	-0.087259	NaN	0.000000	0.001618	0.001666	28.1184	0.099042	0.001971	50.2619	-89.1636	-163.223	-0.082532	0.873549	-0.211354	-0.212671	-0.087259	50.2619	-0.210052	-192.157	0.000454	NaN
71	1.000000	0.882845	7.36574e+06	-42189.1	955.818	-29784.2	0.000000	0.000000	6.883079	-0.053517	NaN	0.000000	0.001589	0.001683	28.1184	0.064292	0.002066	31.1215	-39.0781	-165.359	-0.066573	0.881589	-0.203375	-0.204631	-0.053517	31.1215	-0.202085	-142.533	0.000375	NaN
71	1.000000	0.890885	7.36574e+06	-42189.1	955.819	-29784.2	0.000000	0.000000	6.891117	-0.107509	NaN	0.000000	0.001582	0.001703	28.1188	0.082656	0.002158	38.2974	-30.8339	-163.619	-0.075041	0.889509	-0.195335	-0.196711	-0.107509	38.2974	-0.193229	-101.818	0.001056	NaN
71	1.000000	0.898860	7.36574e+06	-42189.1	955.818	-29784.2	0.000000	0.000000	6.899096	-0.030918	NaN	0.000000	0.001612	0.001688	28.1176	0.043230	0.001950	22.1703	165.666	-160.083	-0.048198	0.897599	-0.187359	-0.188620	-0.030918	22.1703	-0.186313	-78.0266	0.000396	NaN
71	1.000000	0.906896	7.36574e+06	-42189.1	955.818	-29784.2	0.000000	0.000000	6.907128	-0.119145	NaN	0.000000	0.001602	0.001672	28.1173	0.040222	0.002154	18.6756	80.5667	-164.961	-0.014640	0.905587	-0.179323	-0.180633	-0.119145	18.6756	-0.174539	-49.2093	0.002421	NaN
71	1.000000	0.914909	7.36574e+06	-42189.1	955.819	-29784.2	0.000000	0.000000	6.915143	-0.056504	NaN	0.000000	0.001617	0.001665	28.1175	0.105145	0.002015	52.1913	87.1617	-165.462	-0.075506	0.913548	-0.171311	-0.172672	-0.056504	52.1913	-0.170499	-41.9062	0.001348	NaN
71	1.000000	0.922872	7.36574e+06	-42189.1	955.818	-29784.2	0.000000	0.000000	6.923105	-0.099284	NaN	0.000000	0.001583	0.001637	28.1172	0.057703	0.001913	30.1607	-147.947	-166.781	-0.076238	0.921590	-0.163347	-0.164629	-0.099284	30.1607	-0.160878	-28.4171	0.003494	NaN
71	1.000000	0.930879	7.36574e+06	-42189.1	955.818	-29784.2	0.000000	0.000000	6.931118	0.048882	NaN	0.000000	0.001651	0.001663	28.1181	0.052500	0.001978	26.5384	16.9793	-162.316	-0.008195	0.929595	-0.155340	-0.156625	0.048882	26.5384	-0.156722	-23.9605	-0.002040	NaN
71	1.000000	0.938879	7.36574e+06	-42189.1	955.818	-29784.2	0.000000	0.000000	6.939116	0.011773	NaN	0.000000	0.001649	0.001684	28.1187	0.117910	0.001949	60.4832	-167.447	-168.529	-0.048632	0.937611	-0.147341	-0.148609	0.011773	60.4832	-0.147487	-16.2931	-0.000723	NaN
71	1.000000	0.946911	7.36574e+06	-42189.1	955.818	-29784.2	0.000000	0.000000	6.947145	-0.046985	NaN	0.000000	0.001659	0.001699	28.1189	0.111709	0.001989	56.1613	-32.6069	-167.252	-0.023764	0.945556	-0.139309	-0.140663	-0.046985	56.1613	-0.138682	-11.1725	0.004205	NaN
71	1.000000	0.954866	7.36574e+06	-42189.1	955.818	-29784.2	0.000000	0.000000	6.955100	-0.078428	NaN	0.000000	0.001708	0.001649	28.1189	0.142957	0.002044	69.9456	174.076	-165.805	-0.059612	0.953601	-0.131354	-0.132619	-0.078428	69.9456	-0.130513	-7.797574	0.010058	NaN
71	1.000000	0.962917	7.36574e+06	-42189.1	955.818	-29784.2	0.000000	0.000000	6.963152	-0.038765	NaN	0.000000	0.001680	0.001703	28.1192	0.138445	0.001962	70.5466	139.911	-165.736	-0.108605	0.961614	-0.123302	-0.124606	-0.038765	70.5466	-0.122890	-5.521757	0.007020	NaN
71	1.000000	0.970925	7.36574e+06	-42189.1	955.817	-29784.2	0.000000	0.000000	6.971160	-0.031869	NaN	0.000000	0.001664	0.001644	28.1199	0.054429	0.001956	27.8199	178.943	-164.204	-0.079297	0.969567	-0.115295	-0.116653	-0.031869	27.8199	-0.114436	-3.719287	0.008569	NaN
71	1.000000	0.978913	7.36574e+06	-42189.1	955.818	-29784.2	0.000000	0.000000	6.979148	-0.021829	NaN	0.000000	0.001667	0.001641	28.1184	0.077034	0.001993	38.6585	-123.633	-164.119	-0.080245	0.977576	-0.107307	-0.108643	-0.021829	38.6585	-0.106884	-2.580334	0.008460	NaN
71	1.000000	0.986917	7.36574e+06	-42189.1	955.818	-29784.2	0.000000	0.000000	6.987151	-0.058845	NaN	0.000000	0.001674	0.001638	28.1177	0.068040	0.002067	32.9149	-75.4585	-164.444	-0.098029	0.985599	-0.099303	-0.100621	-0.058845	32.9149	-0.097962	-1.645681	0.035757	NaN
71	1.000000	0.994883	7.36574e+06	-42189.1	955.817	-29784.2	0.000000	0.000000	6.995116	-0.086973	NaN	0.000000	0.001658	0.001651	28.1172	0.069891	0.001897	36.8477	29.9724	-162.185	-0.050985	0.993655	-0.091337	-0.092564	-0.086973	36.8477	-0.089567	-1.055929	0.082367	NaN
71	1.000000	1.002916	7.36574e+06	-42189.1	955.818	-29784.2	0.000000	0.000000	7.003151	-0.032835	NaN	0.000000	0.001640	0.001660	28.1174	0.062306	0.001931	32.2718	23.758	-165.968	-0.034424	1.001621	-0.083304	-0.084599	-0.032835	32.2718	-0.082541	-0.715620	0.045884	NaN
71	1.000000	1.010916	7.36574e+06	-42189.1	955.818	-29784.2	0.000000	0.000000	7.011149	-0.087554	NaN	0.000000	0.001668	0.001696	28.1191	0.078872	0.001935	40.7606	-56.0418	-160.603	0.002416	1.009581	-0.075303	-0.076639	-0.087554	40.7606	-0.073692	-0.427106	0.204994	NaN
71	1.000000	1.018936	7.36574e+06	-42189.1	955.817	-29784.2	0.000000	0.000000	7.019170	-0.075504	NaN	0.000000	0.001673	0.001689	28.118	0.182797	0.002081	87.8436	-156.926	-167.95	-0.119331	1.017658	-0.067283	-0.068562	-0.075504	87.8436	-0.066639	-0.276554	0.273019	NaN
71	1.000000	1.026930	7.36574e+06	-42189.1	955.818	-29784.2	0.000000	0.000000	7.027163	-0.104597	NaN	0.000000	0.001584	0.001678	28.1183	0.068253	0.001949	35.0152	63.5748	-163.566	-0.083501	1.025631	-0.059289	-0.060588	-0.104597	35.0152	-0.057049	-0.147931	0.707069	NaN
71	1.000000	1.034914	7.36574e+06	-42189.1	955.818	-29784.2	0.000000	0.000000	7.035149	-0.043613	NaN	0.000000	0.001591	0.001674	28.1185	0.061825	0.002012	30.7248	-135.557	-167.078	-0.071847	1.033667	-0.051306	-0.052553	-0.043613	30.7248	-0.050241	-0.092795	0.469994	NaN
71	1.000000	1.042939	7.36574e+06	-42189.1	955.818	-29784.2	0.000000	0.000000	7.043173	-0.056144	NaN	0.000000	0.001567	0.001691	28.1183	0.042822	0.001905	22.4813	-90.187	-166.542	-0.082840	1.041691	-0.043281	-0.044529	-0.056144	22.4813	-0.041408	-0.049913	1.124840	NaN
71	1.000000	1.050960	7.36574e+06	-42189.1	955.818	-29784.2	0.000000	0.000000	7.051193	-0.092365	NaN	0.000000	0.001579	0.001668	28.1178	0.046704	0.001974	23.6589	20.9025	-170.217	-0.125173	1.049643	-0.035260	-0.036577	-0.092365	23.6589	-0.032331	-0.026785	3.448395	NaN
71	1.000000	1.058945	7.36574e+06	-42189.1	955.818	-29784.2	0.000000	0.000000	7.059175	-0.144692	NaN	0.000000	0.001579	0.001691	28.1169	0.046392	0.001947	23.8247	-128.525	-166.033	-0.124800	1.057641	-0.027275	-0.028579	-0.144692	23.8247	-0.022720	-0.014731	9.822002	NaN
71	1.000000	1.066971	7.36574e+06	-42189.1	955.817	-29784.2	0.000000	0.000000	7.067204	-0.083368	NaN	0.000000	0.001572	0.001665	28.1169	0.118022	0.002033	58.0398	-10.654	-166.831	-0.000740	1.065695	-0.019249	-0.020524	-0.083368	58.0398	-0.018171	-0.011277	7.392570	NaN
71	1.000000	1.074939	7.36574e+06	-42189.1	955.819	-29784.2	0.000000	0.000000	7.075175	-0.005969	NaN	0.000000	0.001558	0.001661	28.1167	0.047361	0.002000	23.685	86.139	-164.115	-0.047421	1.073580	-0.011281	-0.012640	-0.005969	23.685	-0.011092	-0.007011	0.851392	NaN
71	1.000000	1.082964	7.36574e+06	-42189.1	955.819	-29784.2	0.000000	0.000000	7.083196	-0.115013	NaN	0.000000	0.001577	0.001623	28.1173	0.041241	0.002013	20.4879	7.975072	-167.389	-0.113047	1.081643	-0.003256	-0.004577	-0.115013	20.4879	0.000954	0.000726	-158.319	694.487
71	1.000000	1.090900	7.36574e+06	-42189.1	955.819	-29784.2	0.000000	0.000000	7.091301	3.996156	NaN	0.000000	0.001565	0.001672	28.1174	5.108986	0.001811	2820.74	9.939417	-170.96	2.108257	1.089636	0.004681	0.003417	3.996156	2820.74	0.003618	0.002907	1374.79	47800.6
71	2.000000	1.095575	7.36574e+06	-42189.1	955.818	-29784.2	0.000000	0.000000	7.096269	11.1264	NaN	0.000000	0.001596	0.001703	28.1188	9.893355	0.001666	5939.92	8.962757	-173.067	11.415	1.095226	0.009355	0.009006	11.1264	5939.92	0.007950	0.006991	1591.5	64905.3
71	2.000000	1.097553	7.36574e+06	-42189.1	955.818	-29784.2	0.000000	0.000000	7.098394	14.6919	NaN	0.000000	0.001568	0.001653	28.1188	11.8315	0.001690	7001.99	5.014763	-172.163	13.8967	1.097252	0.011334	0.011032	14.6919	7001.99	0.009760	0.008916	1647.81	67750
71	2.000000	1.099496	7.36574e+06	-42189.1	955.818	-29784.2	0.000000	0.000000	7.100487	18.3424	NaN	0.000000	0.001585	0.001666	28.1188	14.0067	0.001619	8651.82	6.407701	-176.268	17.633	1.099166	0.013277	0.012946	18.3424	8651.82	0.011686	0.011117	1649.99	74971
71	2.000000	1.101507	7.36574e+06	-42189.1	955.819	-29784.2	0.000000	0.000000	7.102598	20.7884	NaN	0.000000	0.001540	0.001684	28.1194	16.8618	0.001915	8806.01	6.207362	-175.147	20.5721	1.101210	0.015288	0.014990	20.7884	8806.01	0.013517	0.013358	1556.19	69610.4
71	2.000000	1.103474	7.36574e+06	-42189.1	955.818	-29784.2	0.000000	0.000000	7.104779	25.9985	NaN	0.000000	0.001565	0.001713	28.1198	18.442	0.001784	10336.3	4.311783	-175.297	25.0337	1.103060	0.017254	0.016840	25.9985	10336.3	0.015368	0.015779	1647.64	75178.5
71	2.000000	1.105443	7.36574e+06	-42189.1	955.819	-29784.2	0.000000	0.000000	7.107012	32.4052	NaN	0.000000	0.001587	0.001684	28.1193	20.8256	0.001861	11189.5	4.143562	-176.686	30.4522	1.105118	0.019224	0.018898	32.4052	11189.5	0.017051	0.018119	1788.46	75947.7
71	2.000000	1.107465	7.36574e+06	-42189.1	955.819	-29784.2	0.000000	0.000000	7.109162	35.5458	NaN	0.000000	0.001583	0.001702	28.1189	22.955	0.001858	12353.4	6.031505	-178.721	33.92	1.107152	0.021245	0.020932	35.5458	12353.4	0.019087	0.021128	1682.44	77648.9
71	2.000000	1.109447	7.36574e+06	-42189.1	955.818	-29784.2	0.000000	0.000000	7.111289	39.0588	NaN	0.000000	0.001590	0.001705	28.1192	24.1137	0.001704	14147.2	4.332214	-178.078	36.9614	1.109086	0.023227	0.022867	39.0588	14147.2	0.021156	0.024392	1601.31	82760.3
71	2.000000	1.111465	7.36574e+06	-42189.1	955.819	-29784.2	0.000000	0.000000	7.113544	44.8311	NaN	0.000000	0.001583	0.001729	28.1191	26.1655	0.001713	15278.8	3.507336	-178.63	44.7998	1.111097	0.025245	0.024877	44.8311	15278.8	0.023045	0.027554	1627.03	84095.1
71	2.000000	1.113393	7.36574e+06	-42189.1	955.819	-29784.2	0.000000	0.000000	7.115723	50.9457	NaN	0.000000	0.001608	0.001714	28.1188	27.2943	0.001739	15692.3	5.268911	-179.988	48.6563	1.113154	0.027173	0.026934	50.9457	15692.3	0.024738	0.030541	1668.1	82038.1
71	2.000000	1.115447	7.36574e+06	-42189.1	955.819	-29784.2	0.000000	0.000000	7.118070	58.0485	NaN	0.000000	0.001593	0.001715	28.1202	29.3853	0.001754	16751	1.787511	-176.914	57.4622	1.115095	0.029227	0.028875	58.0485	16751	0.026628	0.034045	1705.06	82944.9
71	2.000000	1.117441	7.36574e+06	-42189.1	955.819	-29784.2	0.000000	0.000000	7.120292	63.6153	NaN	0.000000	0.001597	0.001709	28.1203	31.0119	0.001640	18907.1	1.656406	-178.364	62.0882	1.117164	0.031221	0.030944	63.6153	18907.1	0.028698	0.038088	1670.21	88512.3
71	2.000000	1.119386	7.36574e+06	-42189.1	955.818	-29784.2	0.000000	0.000000	7.122600	72.4454	NaN	0.000000	0.001606	0.001722	28.1203	34.2454	0.001780	19234.4	4.898789	178.251	70.2969	1.119112	0.033166	0.032893	72.4454	19234.4	0.030341	0.041454	1747.62	86311.6
71	2.000000	1.121473	7.36574e+06	-42189.1	955.819	-29784.2	0.000000	0.000000	7.124870	76.8777	NaN	0.000000	0.001559	0.001699	28.1199	36.6599	0.001681	21806.1	4.229237	177.925	78.1025	1.121189	0.035254	0.034969	76.8777	21806.1	0.032610	0.046326	1659.49	92563.1
71	2.000000	1.123435	7.36574e+06	-42189.1	955.819	-29784.2	0.000000	0.000000	7.127152	84.6972	NaN	0.000000	0.001529	0.001684	28.1207	38.0282	0.001810	21015.2	6.435554	176.728	84.2367	1.123133	0.037215	0.036914	84.6972	21015.2	0.034192	0.049881	1697.97	85968
71	2.000000	1.125433	7.36574e+06	-42189.1	955.818	-29784.2	0.000000	0.000000	7.129413	91.0795	NaN	0.000000	0.001579	0.001694	28.119	39.9463	0.001818	21974.8	5.676859	177.509	91.5431	1.125088	0.039213	0.038868	91.0795	21974.8	0.036105	0.054349	1675.82	86119.5
71	2.000000	1.127427	7.36574e+06	-42189.1	955.818	-29784.2	0.000000	0.000000	7.131731	98.9554	NaN	0.000000	0.001583	0.001690	28.1198	42.3418	0.001766	23982.5	7.651574	173.437	98.4088	1.127128	0.041208	0.040908	98.9554	23982.5	0.038113	0.059243	1670.34	90022.5
71	2.000000	1.129445	7.36574e+06	-42189.1	955.817	-29784.2	0.000000	0.000000	7.134160	108.968	NaN	0.000000	0.001545	0.001707	28.1195	43.5557	0.001828	23823.2	6.640548	175.502	109.27	1.129131	0.043225	0.042911	108.968	23823.2	0.039794	0.063498	1716.1	86376.2
71	2.000000	1.131454	7.36574e+06	-42189.1	955.817	-29784.2	0.000000	0.000000	7.136443	115.627	NaN	0.000000	0.001515	0.001685	28.1192	45.9358	0.001877	24479.2	7.038341	174.649	117.747	1.131165	0.045234	0.044945	115.627	24479.2	0.041692	0.068473	1688.64	85469.1
71	2.000000	1.133401	7.36574e+06	-42189.1	955.818	-29784.2	0.000000	0.000000	7.138981	130.007	NaN	0.000000	0.001523	0.001712	28.1197	44.8788	0.001708	26274.2	0.733139	-179.275	127.168	1.133084	0.047182	0.046865	130.007	26274.2	0.043471	0.073305	1773.51	88661.8
71	2.000000	1.135328	7.36574e+06	-42189.1	955.818	-29784.2	0.000000	0.000000	7.141168	136.354	NaN	0.000000	0.001522	0.001691	28.1196	48.6618	0.001819	26748.7	4.602583	176.294	132.312	1.135047	0.049108	0.048828	136.354	26748.7	0.045285	0.078398	1739.25	87281.8
71	2.000000	1.137379	7.36574e+06	-42189.1	955.819	-29784.2	0.000000	0.000000	7.143594	145.467	NaN	0.000000	0.001546	0.001656	28.1194	50.2161	0.001950	25747.9	1.699405	-179.777	142.55	1.137067	0.051159	0.050847	145.467	25747.9	0.046922	0.083138	1749.7	81586
71	2.000000	1.139380	7.36574e+06	-42189.1	955.818	-29784.2	0.000000	0.000000	7.145940	153.859	NaN	0.000000	0.001506	0.001668	28.1193	51.8377	0.001712	30286	3.831047	176.312	151.518	1.138985	0.053161	0.052765	153.859	30286	0.049350	0.090416	1701.68	92022.2
71	2.000000	1.141395	7.36574e+06	-42189.1	955.818	-29784.2	0.000000	0.000000	7.148144	158.453	NaN	0.000000	0.001535	0.001665	28.1191	54.7614	0.001865	29360.4	3.924419	176.349	156.667	1.141070	0.055175	0.054851	158.453	29360.4	0.051128	0.095930	1651.75	86607.8
71	2.000000	1.143361	7.36574e+06	-42189.1	955.818	-29784.2	0.000000	0.000000	7.150851	176.475	NaN	0.000000	0.001538	0.001663	28.1196	56.4038	0.001788	31539.6	8.942092	170.494	174.465	1.143095	0.057142	0.056876	176.475	31539.6	0.052945	0.101734	1734.68	90343.6
71	2.000000	1.145386	7.36574e+06	-42189.1	955.818	-29784.2	0.000000	0.000000	7.153210	184.625	NaN	0.000000	0.001531	0.001681	28.118	58.1775	0.001843	31558.8	5.063510	175.011	182.39	1.145013	0.059166	0.058794	184.625	31558.8	0.054778	0.107753	1713.41	87837.4
71	2.000000	1.147431	7.36574e+06	-42189.1	955.818	-29784.2	0.000000	0.000000	7.155722	195.962	NaN	0.000000	0.001515	0.001712	28.1185	60.1559	0.001736	34644	5.639562	172.908	196.352	1.147108	0.061211	0.060888	195.962	34644	0.056969	0.115164	1701.58	93270.2
71	2.000000	1.149398	7.36574e+06	-42189.1	955.818	-29784.2	0.000000	0.000000	7.158033	204.33	NaN	0.000000	0.001533	0.001707	28.1186	61.5142	0.001809	34012.9	2.838926	176.439	204.024	1.149048	0.063179	0.062828	204.33	34012.9	0.058673	0.121093	1687.39	89301.2
71	2.000000	1.151493	7.36574e+06	-42189.1	955.818	-29784.2	0.000000	0.000000	7.160276	207.937	NaN	0.000000	0.001523	0.001703	28.1182	63.6979	0.001759	36212.6	3.190481	175.375	213.544	1.151197	0.065273	0.064977	207.937	36212.6	0.060967	0.129297	1608.21	92010.6
71	2.000000	1.153383	7.36574e+06	-42189.1	955.818	-29784.2	0.000000	0.000000	7.162941	226.803	NaN	0.000000	0.001530	0.001679	28.1189	64.4818	0.001872	34444.2	1.150940	177.802	225.492	1.153152	0.067164	0.066932	226.803	34444.2	0.062225	0.133908	1693.72	85997.6
71	2.000000	1.155436	7.36574e+06	-42189.1	955.819	-29784.2	0.000000	0.000000	7.165470	238.376	NaN	0.000000	0.001544	0.001660	28.1197	67.2531	0.001835	36658	4.442432	173.941	240.304	1.155029	0.069216	0.068810	238.376	36658	0.064339	0.141827	1680.75	88933
71	2.000000	1.157458	7.36574e+06	-42189.1	955.818	-29784.2	0.000000	0.000000	7.168017	251.141	NaN	0.000000	0.001628	0.001688	28.1199	68.8836	0.001736	39671.2	4.988962	173.861	252.799	1.157069	0.071239	0.070850	251.141	39671.2	0.066491	0.150106	1673.09	93551.2
71	2.000000	1.159341	7.36574e+06	-42189.1	955.818	-29784.2	0.000000	0.000000	7.170505	265.875	NaN	0.000000	0.001590	0.001699	28.12	70.613	0.001844	38297.5	4.531005	173.95	263.389	1.158958	0.073121	0.072738	265.875	38297.5	0.067915	0.155708	1707.52	88672.2
71	2.000000	1.161358	7.36574e+06	-42189.1	955.818	-29784.2	0.000000	0.000000	7.173059	278.947	NaN	0.000000	0.001618	0.001677	28.1195	73.7095	0.001800	40950	5.298173	172.25	276.854	1.160958	0.075138	0.074738	278.947	40950	0.070029	0.164207	1698.75	92327.5
71	2.000000	1.163358	7.36574e+06	-42189.1	955.818	-29784.2	0.000000	0.000000	7.175406	287.394	NaN	0.000000	0.001606	0.001685	28.1199	74.8404	0.001777	42104.3	6.831580	170.178	285.741	1.163091	0.077138	0.076871	287.394	42104.3	0.072019	0.172397	1667.05	92647.8
71	2.000000	1.165337	7.36574e+06	-42189.1	955.818	-29784.2	0.000000	0.000000	7.178205	307.34	NaN	0.000000	0.001645	0.001701	28.1186	78.1509	0.001870	41784.1	6.200618	171.39	305.204	1.164977	0.079117	0.078757	307.34	41784.1	0.073600	0.179042	1716.59	90221
71	2.000000	1.167374	7.36574e+06	-42189.1	955.818	-29784.2	0.000000	0.000000	7.180891	323.122	NaN	0.000000	0.001637	0.001706	28.1188	79.258	0.001811	43771.8	3.946398	173.569	323.077	1.167014	0.081154	0.080794	323.122	43771.8	0.075618	0.187689	1721.58	92309.8
71	2.000000	1.169392	7.36574e+06	-42189.1	955.818	-29784.2	0.000000	0.000000	7.183412	335.359	NaN	0.000000	0.001603	0.001661	28.1202	80.4677	0.001749	46007.8	4.064852	172.763	335.38	1.169063	0.083173	0.082843	335.359	46007.8	0.077706	0.196839	1703.72	94743.4
71	2.000000	1.171423	7.36574e+06	-42189.1	955.818	-29784.2	0.000000	0.000000	7.186067	350.546	NaN	0.000000	0.001558	0.001692	28.1204	83.9943	0.001919	43779.8	5.003382	172.45	352.388	1.171037	0.085203	0.084818	350.546	43779.8	0.079198	0.203503	1722.56	88667
71	2.000000	1.173340	7.36574e+06	-42189.1	955.818	-29784.2	0.000000	0.000000	7.188709	368.189	NaN	0.000000	0.001631	0.001658	28.1199	84.3134	0.001768	47678.7	4.920402	172.183	366.709	1.173036	0.087120	0.086816	368.189	47678.7	0.081328	0.213199	1726.98	94342.2
71	2.000000	1.175304	7.36574e+06	-42189.1	955.819	-29784.2	0.000000	0.000000	7.191092	378.392	NaN	0.000000	0.001647	0.001688	28.1218	86.4915	0.001735	49844.1	5.314239	170.567	374.484	1.174972	0.089084	0.088752	378.392	49844.1	0.083390	0.222783	1698.48	96481.9
71	2.000000	1.177340	7.36574e+06	-42189.1	955.819	-29784.2	0.000000	0.000000	7.193670	391.569	NaN	0.000000	0.001623	0.001658	28.1241	88.9526	0.001843	48275.5	3.838089	172.491	388.45	1.177095	0.091120	0.090875	391.569	48275.5	0.085037	0.230577	1698.22	91852.8
71	2.000000	1.179342	7.36574e+06	-42189.1	955.819	-29784.2	0.000000	0.000000	7.196621	414.652	NaN	0.000000	0.001642	0.001672	28.123	89.4071	0.001722	51922.5	1.966169	173.931	413.482	1.178941	0.093122	0.092721	414.652	51922.5	0.087133	0.240682	1722.82	96695.7
71	2.000000	1.181345	7.36574e+06	-42189.1	955.818	-29784.2	0.000000	0.000000	7.198600	414.081	NaN	0.000000	0.001633	0.001695	28.122	94.3205	0.001808	52166.3	6.135461	169.198	411.987	1.181174	0.095125	0.094955	414.081	52166.3	0.089172	0.250702	1651.68	95188.4
71	2.000000	1.183273	7.36574e+06	-42189.1	955.817	-29784.2	0.000000	0.000000	7.201473	437.07	NaN	0.000000	0.001636	0.001710	28.122	93.8743	0.001735	54105.5	4.353908	171.112	432.205	1.182991	0.097053	0.096771	437.07	54105.5	0.090995	0.259826	1682.17	96978
71	2.000000	1.185308	7.36574e+06	-42189.1	955.818	-29784.2	0.000000	0.000000	7.204252	455.177	NaN	0.000000	0.001645	0.001689	28.1219	96.0408	0.001906	50381.8	3.061372	173.235	452.594	1.184957	0.099088	0.098737	455.177	50381.8	0.092312	0.266514	1707.89	89163.5
71	2.000000	1.187347	7.36575e+06	-42189.1	955.818	-29784.2	0.000000	0.000000	7.206719	465.59	NaN	0.000000	0.001661	0.001696	28.1208	97.1872	0.001822	53334.5	3.226855	172.375	462.456	1.187085	0.101127	0.100865	465.59	53334.5	0.094580	0.278209	1673.52	92383.7
71	2.000000	1.189357	7.36575e+06	-42189.1	955.818	-29784.2	0.000000	0.000000	7.209590	486.543	NaN	0.000000	0.001659	0.001690	28.121	98.1748	0.001820	53930.3	3.398660	172.553	485.645	1.188931	0.103137	0.102711	486.543	53930.3	0.096371	0.287617	1691.64	91875.4
71	2.000000	1.191318	7.36575e+06	-42189.1	955.819	-29784.2	0.000000	0.000000	7.212097	499.827	NaN	0.000000	0.001565	0.001727	28.1218	100.742	0.001667	60431.7	4.682027	170.223	496.759	1.190976	0.105098	0.104756	499.827	60431.7	0.098895	0.301117	1659.91	100617
71	2.000000	1.192832	7.36575e+06	-42189.1	955.818	-29784.2	0.000000	0.000000	7.213973	508.645	NaN	0.000000	0.001574	0.001695	28.1198	102.16	0.001846	55333.9	5.629251	-10.4429	503.706	1.192483	0.106612	0.106263	508.645	55333.9	0.099718	0.305580	1664.52	91453.9