File: remote_trans/data/nanoindenter/0828-1/data/Data_2025-08-06,11h17m57s/2025-07-22_16-23-58_1_707.txt
2025-07-22, 16:23:58, 1
Index	Phase	Displacement	Time	Pos X	Pos Y	Pos Z	Rot A	Rot B	Piezo Z	Force A	Force B	Gripper	Voltage A	Voltage B	Temperature	Amplitude force	Amplitude pos	Stiffness	Phase shift	Phase excitation	Force A raw	Displacement raw	HMax	HMax raw	Real Force	Real Stiffness	Contact Depth	Area	Hardness	Reduced Mod.
[#]	[#]	[um]	[s]	[um]	[um]	[um]	[m°]	[m°]	[um]	[uN]	[uN]	[V]	[V]	[V]	[°C]	[uN]	[um]	[N/m]	[°]	[°]	[uN]	[um]	[um]	[um]	[uN]	[N/m]	[um]	[um^2]	[MPa]	[MPa]
707	1.000000	0.002642	7.37197e+06	-41739.1	1005.82	-29785.1	0.000000	0.000000	6.002803	0.055296	NaN	0.000000	0.001645	0.001744	28.0838	0.077646	0.000956	81.242	98.991	-166.4	0.088550	0.001368	-1.104001	-1.105275	0.055296	81.242	-1.104512	-5.762699E+14	-9.595588E-17	NaN
707	1.000000	0.012684	7.37197e+06	-41739.1	1005.82	-29785.1	0.000000	0.000000	6.012846	0.070211	NaN	0.000000	0.001631	0.001710	28.0842	0.093285	0.001229	75.9333	91.031	13.1696	0.089285	0.011251	-1.093959	-1.095392	0.070211	75.9333	-1.094652	-4.248885E+14	-1.652451E-16	NaN
707	1.000000	0.022599	7.37197e+06	-41739.1	1005.82	-29785.1	0.000000	0.000000	6.022761	0.073355	NaN	0.000000	0.001636	0.001728	28.0841	0.033046	0.001723	19.1771	-168.539	-165.409	0.057414	0.021274	-1.084044	-1.085369	0.073355	19.1771	-1.086912	-3.344664E+14	-2.193188E-16	NaN
707	1.000000	0.032607	7.37197e+06	-41739.1	1005.82	-29785.1	0.000000	0.000000	6.032769	0.088427	NaN	0.000000	0.001721	0.001746	28.0839	0.013623	0.001943	7.011632	-155.335	14.9244	0.119105	0.031229	-1.074036	-1.075414	0.088427	7.011632	-1.083495	-3.009225E+14	-2.938520E-16	NaN
707	1.000000	0.042597	7.37197e+06	-41739.1	1005.82	-29785.1	0.000000	0.000000	6.042756	0.004482	NaN	0.000000	0.001641	0.001709	28.0839	0.139830	0.002003	69.8035	-149.597	-163.812	0.005605	0.041275	-1.064046	-1.065368	0.004482	69.8035	-1.064094	-1.651333E+14	-2.714219E-17	NaN
707	1.000000	0.052570	7.37197e+06	-41739.1	1005.82	-29785.1	0.000000	0.000000	6.052731	0.064633	NaN	0.000000	0.001638	0.001728	28.0837	0.079446	0.001970	40.3194	-154.21	12.0218	0.082670	0.051225	-1.054073	-1.055418	0.064633	40.3194	-1.055275	-1.256955E+14	-5.142033E-16	NaN
707	1.000000	0.062623	7.37197e+06	-41739.1	1005.82	-29785.1	0.000000	0.000000	6.062784	0.052083	NaN	0.000000	0.001608	0.001745	28.0835	0.090668	0.002094	43.3084	150.358	-164.95	0.064300	0.061287	-1.044020	-1.045356	0.052083	43.3084	-1.044922	-9.123060E+13	-5.708906E-16	NaN
707	1.000000	0.072577	7.37197e+06	-41739.1	1005.82	-29785.1	0.000000	0.000000	6.072734	-0.025970	NaN	0.000000	0.001638	0.001743	28.0825	0.106901	0.002149	49.7495	111.483	14.7707	0.040636	0.071207	-1.034066	-1.035436	-0.025970	49.7495	-1.033675	-6.440278E+13	4.032501E-16	NaN
707	1.000000	0.082596	7.37197e+06	-41739.1	1005.82	-29785.1	0.000000	0.000000	6.082755	0.008777	NaN	0.000000	0.001636	0.001756	28.0825	0.036671	0.002109	17.3863	23.3602	-164.97	0.026235	0.081304	-1.024047	-1.025339	0.008777	17.3863	-1.024426	-4.836103E+13	-1.814816E-16	NaN
707	1.000000	0.092600	7.37197e+06	-41739.1	1005.82	-29785.1	0.000000	0.000000	6.092764	0.134492	NaN	0.000000	0.001648	0.001751	28.0825	0.072789	0.001977	36.8124	127.276	14.7681	0.127574	0.091255	-1.014043	-1.015388	0.134492	36.8124	-1.016783	-3.816532E+13	-3.523930E-15	NaN
707	1.000000	0.102588	7.37197e+06	-41739.1	1005.82	-29785.2	0.000000	0.000000	6.102750	0.080473	NaN	0.000000	0.001651	0.001748	28.0822	0.077419	0.002035	38.0455	89.5369	-167.169	0.088480	0.101315	-1.004055	-1.005328	0.080473	38.0455	-1.005641	-2.702174E+13	-2.978072E-15	NaN
707	1.000000	0.112576	7.37197e+06	-41739.1	1005.82	-29785.2	0.000000	0.000000	6.112736	0.021560	NaN	0.000000	0.001596	0.001700	28.0823	0.042050	0.001977	21.27	79.9018	11.0206	0.031216	0.111228	-0.994067	-0.995415	0.021560	21.27	-0.994827	-1.932475E+13	-1.115692E-15	NaN
707	1.000000	0.122585	7.37197e+06	-41739.1	1005.82	-29785.2	0.000000	0.000000	6.122746	0.059394	NaN	0.000000	0.001606	0.001755	28.0822	0.051993	0.002124	24.4744	-127.635	-163.961	-0.023519	0.121300	-0.984058	-0.985343	0.059394	24.4744	-0.985878	-1.464181E+13	-4.056443E-15	NaN
707	1.000000	0.132622	7.37197e+06	-41739.1	1005.82	-29785.2	0.000000	0.000000	6.132782	0.045312	NaN	0.000000	0.001623	0.001755	28.0824	0.087687	0.001946	45.0619	119.377	13.921	0.031732	0.131230	-0.974022	-0.975413	0.045312	45.0619	-0.974776	-1.037576E+13	-4.367129E-15	NaN
707	1.000000	0.142599	7.37197e+06	-41739.1	1005.82	-29785.2	0.000000	0.000000	6.142759	0.031197	NaN	0.000000	0.001635	0.001748	28.0824	0.085716	0.001989	43.0915	176.564	-165.813	-0.008505	0.141306	-0.964044	-0.965337	0.031197	43.0915	-0.964587	-7.563235E+12	-4.124775E-15	NaN
707	1.000000	0.152630	7.37197e+06	-41739.1	1005.82	-29785.2	0.000000	0.000000	6.152793	0.101906	NaN	0.000000	0.001635	0.001768	28.0823	0.077506	0.001975	39.2377	156.344	12.0262	0.062843	0.151220	-0.954013	-0.955423	0.101906	39.2377	-0.955961	-5.786408E+12	-1.761132E-14	NaN
707	1.000000	0.162646	7.37197e+06	-41739.1	1005.82	-29785.2	0.000000	0.000000	6.162804	-0.002665	NaN	0.000000	0.001607	0.001753	28.0825	0.078256	0.002037	38.4203	66.601	-165.977	0.084615	0.161290	-0.943997	-0.945353	-0.002665	38.4203	-0.943945	-3.984367E+12	6.688141E-16	NaN
707	1.000000	0.172632	7.37197e+06	-41739.1	1005.82	-29785.2	0.000000	0.000000	6.172794	0.074797	NaN	0.000000	0.001615	0.001735	28.0823	0.075007	0.002127	35.2699	-80.4813	15.6906	0.007731	0.171313	-0.934011	-0.935330	0.074797	35.2699	-0.935601	-3.074602E+12	-2.432742E-14	NaN
707	1.000000	0.182661	7.37197e+06	-41739.1	1005.82	-29785.2	0.000000	0.000000	6.182818	-0.018070	NaN	0.000000	0.001640	0.001772	28.0827	0.045991	0.002114	21.7547	150.744	-164.223	0.044590	0.181390	-0.923983	-0.925253	-0.018070	21.7547	-0.923360	-2.101660E+12	8.597986E-15	NaN
707	1.000000	0.192630	7.37197e+06	-41739.1	1005.82	-29785.2	0.000000	0.000000	6.192789	0.001657	NaN	0.000000	0.001627	0.001784	28.0825	0.079353	0.001993	39.814	-159.904	13.155	-0.030640	0.191295	-0.914013	-0.915348	0.001657	39.814	-0.914044	-1.573180E+12	-1.053256E-15	NaN
707	1.000000	0.202656	7.37197e+06	-41739.1	1005.82	-29785.2	0.000000	0.000000	6.202814	0.008418	NaN	0.000000	0.001652	0.001780	28.0826	0.028956	0.002026	14.2925	2.135306	-169.47	0.021937	0.201347	-0.903987	-0.905296	0.008418	14.2925	-0.904429	-1.166567E+12	-7.216005E-15	NaN
707	1.000000	0.212642	7.37197e+06	-41739.1	1005.82	-29785.2	0.000000	0.000000	6.212802	0.029463	NaN	0.000000	0.001597	0.001791	28.0838	0.049515	0.001926	25.709	42.4289	11.8096	0.052209	0.211321	-0.894001	-0.895322	0.029463	25.709	-0.894860	-8.661799E+11	-3.401462E-14	NaN
707	1.000000	0.222664	7.37197e+06	-41739.1	1005.82	-29785.2	0.000000	0.000000	6.222823	0.003308	NaN	0.000000	0.001637	0.001811	28.084	0.044092	0.001916	23.0154	-81.3911	-165.446	0.009874	0.221341	-0.883979	-0.885302	0.003308	23.0154	-0.884087	-6.193994E+11	-5.341359E-15	NaN
707	1.000000	0.232640	7.37197e+06	-41739.1	1005.82	-29785.2	0.000000	0.000000	6.232801	0.068487	NaN	0.000000	0.001665	0.001708	28.0842	0.077707	0.002026	38.3572	33.4941	12.9447	0.021198	0.231349	-0.874003	-0.875294	0.068487	38.3572	-0.875342	-4.717508E+11	-1.451771E-13	NaN
707	1.000000	0.242667	7.37197e+06	-41739.1	1005.82	-29785.2	0.000000	0.000000	6.242827	0.038201	NaN	0.000000	0.001702	0.001735	28.0839	0.076560	0.002053	37.2982	-128.566	-164.545	-0.063810	0.241365	-0.863976	-0.865278	0.038201	37.2982	-0.864745	-3.391044E+11	-1.126517E-13	NaN
707	1.000000	0.252678	7.37197e+06	-41739.1	1005.82	-29785.2	0.000000	0.000000	6.252837	-0.001971	NaN	0.000000	0.001702	0.001779	28.0841	0.020602	0.001998	10.3092	131.26	13.0144	-0.047725	0.251280	-0.853965	-0.855363	-0.001971	10.3092	-0.853821	-2.412565E+11	8.168382E-15	NaN
707	1.000000	0.262697	7.37197e+06	-41739.1	1005.82	-29785.2	0.000000	0.000000	6.262856	-0.005564	NaN	0.000000	0.001712	0.001750	28.0839	0.199240	0.002081	95.755	-127.52	-166.128	0.020697	0.261340	-0.843946	-0.845303	-0.005564	95.755	-0.843902	-1.770734E+11	3.142246E-14	NaN
707	1.000000	0.272684	7.37197e+06	-41739.1	1005.82	-29785.2	0.000000	0.000000	6.272844	0.041290	NaN	0.000000	0.001703	0.001767	28.0839	0.033649	0.001999	16.8292	19.7965	15.8611	0.099820	0.271311	-0.833959	-0.835332	0.041290	16.8292	-0.835799	-1.375242E+11	-3.002404E-13	NaN
707	1.000000	0.282665	7.37197e+06	-41739.1	1005.82	-29785.2	0.000000	0.000000	6.282825	0.053067	NaN	0.000000	0.001695	0.001750	28.084	0.010488	0.001996	5.255669	-134.989	-167.102	0.085370	0.281357	-0.823978	-0.825287	0.053067	5.255669	-0.831551	-1.204506E+11	-4.405729E-13	NaN
707	1.000000	0.292690	7.37197e+06	-41739.1	1005.82	-29785.2	0.000000	0.000000	6.292853	0.089037	NaN	0.000000	0.001687	0.001781	28.0838	0.026720	0.002030	13.163	-100.45	14.3509	0.093353	0.291341	-0.813953	-0.815302	0.089037	13.163	-0.819026	-8.147042E+10	-1.092881E-12	NaN
707	1.000000	0.302682	7.37197e+06	-41739.1	1005.82	-29785.2	0.000000	0.000000	6.302839	-0.019646	NaN	0.000000	0.001676	0.001772	28.0836	0.024870	0.002116	11.7554	-21.7116	-164.7	-0.004784	0.301404	-0.803961	-0.805239	-0.019646	11.7554	-0.802708	-4.893503E+10	4.014810E-13	NaN
707	1.000000	0.312709	7.37197e+06	-41739.1	1005.82	-29785.2	0.000000	0.000000	6.312869	0.042957	NaN	0.000000	0.001694	0.001764	28.0836	0.038630	0.001903	20.2955	86.3736	15.9672	0.020692	0.311332	-0.793934	-0.795311	0.042957	20.2955	-0.795522	-3.909013E+10	-1.098910E-12	NaN
707	1.000000	0.322720	7.37197e+06	-41739.1	1005.82	-29785.2	0.000000	0.000000	6.322880	0.031311	NaN	0.000000	0.001700	0.001772	28.0836	0.029846	0.001971	15.1408	-151.567	-165.316	0.005877	0.321376	-0.783923	-0.785267	0.031311	15.1408	-0.785474	-2.854993E+10	-1.096710E-12	NaN
707	1.000000	0.332687	7.37197e+06	-41739.1	1005.82	-29785.2	0.000000	0.000000	6.332845	-0.001777	NaN	0.000000	0.001668	0.001770	28.0837	0.084777	0.001926	44.0104	-84.3554	16.7803	0.019104	0.331351	-0.773956	-0.775292	-0.001777	44.0104	-0.773926	-1.989205E+10	8.934152E-14	NaN
707	1.000000	0.342711	7.37197e+06	-41739.1	1005.82	-29785.2	0.000000	0.000000	6.342870	0.014369	NaN	0.000000	0.001652	0.001751	28.0823	0.053273	0.001921	27.7269	164.724	-167.852	0.018261	0.341397	-0.763932	-0.765246	0.014369	27.7269	-0.764321	-1.472581E+10	-9.757854E-13	NaN
707	1.000000	0.352683	7.37197e+06	-41739.1	1005.82	-29785.2	0.000000	0.000000	6.352843	0.026922	NaN	0.000000	0.001657	0.001788	28.0825	0.103621	0.002061	50.2741	67.4748	14.1392	0.004098	0.351327	-0.753960	-0.755316	0.026922	50.2741	-0.754361	-1.077900E+10	-2.497665E-12	NaN
707	1.000000	0.362721	7.37197e+06	-41739.1	1005.82	-29785.2	0.000000	0.000000	6.362881	0.025591	NaN	0.000000	0.001671	0.001811	28.0825	0.045262	0.001922	23.5435	-57.7034	-166.153	-0.016014	0.361449	-0.743922	-0.745194	0.025591	23.5435	-0.744737	-7.971956E+9	-3.210069E-12	NaN
707	1.000000	0.372705	7.37197e+06	-41739.1	1005.82	-29785.2	0.000000	0.000000	6.372866	0.067603	NaN	0.000000	0.001686	0.001827	28.0827	0.064249	0.002125	30.2377	-75.0436	15.3762	0.021483	0.371352	-0.733938	-0.735291	0.067603	30.2377	-0.735615	-5.988596E+9	-1.128857E-11	NaN
707	1.000000	0.382724	7.37197e+06	-41739.1	1005.82	-29785.2	0.000000	0.000000	6.382885	0.061641	NaN	0.000000	0.001656	0.001799	28.0827	0.063872	0.001855	34.4269	-106.658	-170.28	0.089383	0.381429	-0.723919	-0.725214	0.061641	34.4269	-0.725262	-4.327398E+9	-1.424445E-11	NaN
707	1.000000	0.392745	7.37197e+06	-41739.1	1005.82	-29785.2	0.000000	0.000000	6.392903	0.001728	NaN	0.000000	0.001638	0.001776	28.0828	0.059836	0.001988	30.0946	-70.5356	14.5255	0.054552	0.391363	-0.713898	-0.715280	0.001728	30.0946	-0.713941	-3.032687E+9	-5.697049E-13	NaN
707	1.000000	0.402725	7.37197e+06	-41739.1	1005.82	-29785.2	0.000000	0.000000	6.402884	0.019760	NaN	0.000000	0.001630	0.001790	28.0829	0.025429	0.001988	12.7916	-83.904	-167.179	-0.011249	0.401479	-0.703918	-0.705164	0.019760	12.7916	-0.705077	-2.295375E+9	-8.608782E-12	NaN
707	1.000000	0.412755	7.37197e+06	-41739.1	1005.82	-29785.2	0.000000	0.000000	6.412914	0.007635	NaN	0.000000	0.001656	0.001785	28.0828	0.035592	0.002042	17.4283	-75.6625	15.3131	0.055735	0.411386	-0.693888	-0.695257	0.007635	17.4283	-0.694217	-1.631300E+9	-4.680277E-12	NaN
707	1.000000	0.422741	7.37197e+06	-41739.1	1005.82	-29785.2	0.000000	0.000000	6.422899	-0.005901	NaN	0.000000	0.001636	0.001792	28.0829	0.050989	0.002096	24.3234	169.38	-166.587	0.031057	0.421419	-0.683902	-0.685224	-0.005901	24.3234	-0.683720	-1.172394E+9	5.033404E-12	NaN
707	1.000000	0.432775	7.37197e+06	-41739.1	1005.82	-29785.2	0.000000	0.000000	6.432934	0.029623	NaN	0.000000	0.001634	0.001792	28.0832	0.087045	0.002127	40.9321	-164.072	13.1213	0.058212	0.431404	-0.673868	-0.675239	0.029623	40.9321	-0.674411	-8.744884E+8	-3.387431E-11	NaN
707	1.000000	0.442770	7.37197e+06	-41739.1	1005.82	-29785.2	0.000000	0.000000	6.442931	0.049365	NaN	0.000000	0.001653	0.001779	28.0825	0.034261	0.002045	16.7549	-136.723	-167.878	-0.003482	0.441426	-0.663873	-0.665217	0.049365	16.7549	-0.666082	-6.726109E+8	-7.339383E-11	NaN
707	1.000000	0.452715	7.37197e+06	-41739.1	1005.82	-29785.2	0.000000	0.000000	6.452877	0.064956	NaN	0.000000	0.001640	0.001796	28.0829	0.045868	0.001955	23.4584	118.971	15.3241	0.074665	0.451383	-0.653928	-0.655260	0.064956	23.4584	-0.656004	-4.894742E+8	-1.327052E-10	NaN
707	1.000000	0.462757	7.37197e+06	-41739.1	1005.82	-29785.2	0.000000	0.000000	6.462918	0.041718	NaN	0.000000	0.001640	0.001804	28.0829	0.035958	0.001895	18.9765	177.508	-166.28	0.073989	0.461473	-0.643886	-0.645170	0.041718	18.9765	-0.645534	-3.517277E+8	-1.186089E-10	NaN
707	1.000000	0.472756	7.37197e+06	-41739.1	1005.82	-29785.2	0.000000	0.000000	6.472913	-0.032421	NaN	0.000000	0.001616	0.001809	28.0831	0.102583	0.002017	50.8485	-18.9101	12.622	0.050669	0.471419	-0.633887	-0.635224	-0.032421	50.8485	-0.633409	-2.397876E+8	1.352085E-10	NaN
707	1.000000	0.482744	7.37197e+06	-41739.1	1005.82	-29785.2	0.000000	0.000000	6.482903	0.010064	NaN	0.000000	0.001659	0.001810	28.084	0.112454	0.001953	57.5834	120.648	-163.265	0.061346	0.481486	-0.623899	-0.625157	0.010064	57.5834	-0.624031	-1.782477E+8	-5.646121E-11	NaN
707	1.000000	0.492758	7.37197e+06	-41739.1	1005.82	-29785.2	0.000000	0.000000	6.492917	0.013577	NaN	0.000000	0.001624	0.001781	28.0841	0.043548	0.001994	21.8392	-72.2521	15.7675	0.048042	0.491424	-0.613885	-0.615220	0.013577	21.8392	-0.614352	-1.312124E+8	-1.034760E-10	NaN
707	1.000000	0.502768	7.37197e+06	-41739.1	1005.82	-29785.2	0.000000	0.000000	6.502931	0.101674	NaN	0.000000	0.001663	0.001796	28.0841	0.017057	0.001952	8.738590	16.65	-167.471	0.056338	0.501459	-0.603875	-0.605184	0.101674	8.738590	-0.612601	-1.241371E+8	-8.190484E-10	NaN
707	1.000000	0.512764	7.37197e+06	-41739.1	1005.82	-29785.2	0.000000	0.000000	6.512920	-0.066350	NaN	0.000000	0.001619	0.001796	28.0842	0.150822	0.001979	76.2176	-110.745	14.222	-0.075597	0.511461	-0.593879	-0.595182	-0.066350	76.2176	-0.593226	-6.716295E+7	9.878993E-10	NaN
707	1.000000	0.522804	7.37197e+06	-41739.1	1005.82	-29785.2	0.000000	0.000000	6.522962	-0.002205	NaN	0.000000	0.001600	0.001766	28.0841	0.079226	0.002101	37.7127	-105.278	-166.031	-0.005195	0.521495	-0.583839	-0.585148	-0.002205	37.7127	-0.583795	-4.978470E+7	4.428236E-11	NaN
707	1.000000	0.532806	7.37197e+06	-41739.1	1005.82	-29785.2	0.000000	0.000000	6.532966	0.013055	NaN	0.000000	0.001635	0.001788	28.0841	0.017357	0.002003	8.664256	133.908	14.106	-0.014175	0.531457	-0.573837	-0.575186	0.013055	8.664256	-0.574967	-3.760438E+7	-3.471693E-10	NaN
707	1.000000	0.542805	7.37197e+06	-41739.1	1005.82	-29785.2	0.000000	0.000000	6.542964	0.018031	NaN	0.000000	0.001687	0.001771	28.0841	0.044629	0.001952	22.859	54.9148	-164.05	-0.002320	0.541460	-0.563838	-0.565183	0.018031	22.859	-0.564430	-2.689326E+7	-6.704829E-10	NaN
707	1.000000	0.552799	7.37197e+06	-41739.1	1005.82	-29785.2	0.000000	0.000000	6.552958	0.019963	NaN	0.000000	0.001680	0.001750	28.084	0.060734	0.001897	32.016	13.622	17.2545	-0.024964	0.551477	-0.553844	-0.555166	0.019963	32.016	-0.554312	-1.948316E+7	-1.024631E-9	NaN
707	1.000000	0.562773	7.37197e+06	-41739.1	1005.82	-29785.2	0.000000	0.000000	6.562934	0.049736	NaN	0.000000	0.001664	0.001746	28.0839	0.050595	0.002121	23.8524	-176.414	-170.604	-0.008650	0.561475	-0.543870	-0.545168	0.049736	23.8524	-0.545434	-1.467882E+7	-3.388253E-9	NaN
707	1.000000	0.572824	7.37197e+06	-41739.1	1005.82	-29785.2	0.000000	0.000000	6.572983	0.002316	NaN	0.000000	0.001623	0.001796	28.0842	0.049446	0.001881	26.2933	96.2037	10.9511	-0.037645	0.571451	-0.533819	-0.535192	0.002316	26.2933	-0.533885	-1.015113E+7	-2.281690E-10	NaN
707	1.000000	0.582809	7.37197e+06	-41739.1	1005.82	-29785.2	0.000000	0.000000	6.582972	0.119041	NaN	0.000000	0.001657	0.001750	28.0843	0.105885	0.001902	55.6744	-118.306	-166.813	0.101638	0.581508	-0.523834	-0.525135	0.119041	55.6744	-0.525438	-7.74817e+06	-1.536377E-8	NaN
707	1.000000	0.592815	7.37197e+06	-41739.1	1005.82	-29785.2	0.000000	0.000000	6.592978	0.084672	NaN	0.000000	0.001645	0.001752	28.0842	0.123532	0.002003	61.6616	109.207	17.0986	0.033297	0.591418	-0.513828	-0.515225	0.084672	61.6616	-0.514857	-5.52139e+06	-1.533531E-8	NaN
707	1.000000	0.602810	7.37197e+06	-41739.1	1005.82	-29785.2	0.000000	0.000000	6.602970	0.043376	NaN	0.000000	0.001648	0.001738	28.0842	0.090315	0.001849	48.8399	-94.901	-164.283	0.056077	0.601545	-0.503833	-0.505098	0.043376	48.8399	-0.504499	-3.96062e+06	-1.095184E-8	NaN
707	1.000000	0.612844	7.37197e+06	-41739.1	1005.82	-29785.2	0.000000	0.000000	6.613005	0.065420	NaN	0.000000	0.001614	0.001768	28.0841	0.054239	0.002091	25.9337	-94.7049	17.9503	0.073842	0.611468	-0.493799	-0.495175	0.065420	25.9337	-0.495691	-2.98457e+06	-2.191941E-8	NaN
707	1.000000	0.622818	7.37197e+06	-41739.1	1005.82	-29785.2	0.000000	0.000000	6.622979	0.072878	NaN	0.000000	0.001634	0.001748	28.0829	0.013124	0.001951	6.727210	-103.814	-166.371	0.023439	0.621494	-0.483825	-0.485149	0.072878	6.727210	-0.491950	-2.64632e+06	-2.753933E-8	NaN
707	1.000000	0.632817	7.37197e+06	-41739.1	1005.82	-29785.2	0.000000	0.000000	6.632976	0.001636	NaN	0.000000	0.001635	0.001780	28.0827	0.044415	0.002134	20.8169	-123.809	11.6461	0.033533	0.631488	-0.473826	-0.475155	0.001636	20.8169	-0.473885	-1.47868e+06	-1.106494E-9	NaN
707	1.000000	0.642823	7.37197e+06	-41739.1	1005.82	-29785.2	0.000000	0.000000	6.642982	0.000381	NaN	0.000000	0.001625	0.001715	28.0826	0.071128	0.002104	33.8043	101.628	-166.466	-0.003899	0.641539	-0.463820	-0.465104	0.000381	33.8043	-0.463828	-1.06855e+06	-3.561079E-10	NaN
707	1.000000	0.652847	7.37197e+06	-41739.1	1005.82	-29785.2	0.000000	0.000000	6.653006	0.009627	NaN	0.000000	0.001644	0.001769	28.0829	0.152107	0.002008	75.753	-152.64	13.2821	0.015327	0.651484	-0.453796	-0.455159	0.009627	75.753	-0.453891	-774662	-1.242766E-8	NaN
707	1.000000	0.662861	7.37197e+06	-41739.1	1005.82	-29785.2	0.000000	0.000000	6.663023	0.099564	NaN	0.000000	0.001668	0.001745	28.0827	0.074402	0.002019	36.8566	132.776	-167.197	0.023289	0.661530	-0.443782	-0.445113	0.099564	36.8566	-0.445809	-596060	-1.670371E-7	NaN
707	1.000000	0.672892	7.37197e+06	-41739.1	1005.82	-29785.2	0.000000	0.000000	6.673052	0.038117	NaN	0.000000	0.001640	0.001755	28.0827	0.060750	0.002001	30.3654	-157.474	12.6917	0.043460	0.671488	-0.433751	-0.435155	0.038117	30.3654	-0.434692	-415342	-9.177172E-8	NaN
707	1.000000	0.682852	7.37197e+06	-41739.1	1005.82	-29785.2	0.000000	0.000000	6.683011	0.011438	NaN	0.000000	0.001609	0.001761	28.0828	0.061495	0.002108	29.1787	-149.455	-165.603	-0.055444	0.681570	-0.423792	-0.425073	0.011438	29.1787	-0.424086	-293987	-3.890630E-8	NaN
707	1.000000	0.692861	7.37197e+06	-41739.1	1005.82	-29785.2	0.000000	0.000000	6.693020	0.003705	NaN	0.000000	0.001631	0.001741	28.0828	0.071388	0.001978	36.0889	-110.864	12.959	0.037328	0.691519	-0.413782	-0.415124	0.003705	36.0889	-0.413859	-210497	-1.759943E-8	NaN
707	1.000000	0.702854	7.37197e+06	-41739.1	1005.82	-29785.2	0.000000	0.000000	6.703014	0.039842	NaN	0.000000	0.001608	0.001791	28.0828	0.075194	0.001907	39.4315	174.401	-165.761	0.025681	0.701561	-0.403789	-0.405082	0.039842	39.4315	-0.404547	-155165	-2.567746E-7	NaN
707	1.000000	0.712839	7.37197e+06	-41739.1	1005.82	-29785.2	0.000000	0.000000	6.713001	0.075509	NaN	0.000000	0.001623	0.001755	28.0828	0.058925	0.001923	30.6427	-38.8892	12.8601	0.065920	0.711443	-0.393804	-0.395200	0.075509	30.6427	-0.395652	-115864	-6.517041E-7	NaN
707	1.000000	0.722900	7.37197e+06	-41739.1	1005.82	-29785.2	0.000000	0.000000	6.723059	0.015567	NaN	0.000000	0.001638	0.001763	28.0828	0.108985	0.001979	55.077	46.5958	-168.728	0.062766	0.721543	-0.383743	-0.385100	0.015567	55.077	-0.383955	-78816.1	-1.975074E-7	NaN
707	1.000000	0.732886	7.37197e+06	-41739.1	1005.82	-29785.2	0.000000	0.000000	6.733046	0.034539	NaN	0.000000	0.001627	0.001764	28.083	0.048385	0.002014	24.0251	92.4532	15.7375	0.009506	0.731519	-0.373757	-0.375124	0.034539	24.0251	-0.374836	-58305.1	-5.923845E-7	NaN
707	1.000000	0.742849	7.37197e+06	-41739.1	1005.82	-29785.2	0.000000	0.000000	6.743009	0.035424	NaN	0.000000	0.001615	0.001753	28.0829	0.057401	0.002020	28.41	-146.966	-166.608	0.111127	0.741601	-0.363794	-0.365042	0.035424	28.41	-0.364729	-41701.1	-8.494694E-7	NaN
707	1.000000	0.752861	7.37197e+06	-41739.1	1005.82	-29785.2	0.000000	0.000000	6.753020	0.031038	NaN	0.000000	0.001644	0.001725	28.0841	0.016765	0.002021	8.294544	-130.101	16.8763	0.029654	0.751551	-0.353782	-0.355092	0.031038	8.294544	-0.356589	-31805.5	-9.758615E-7	NaN
707	1.000000	0.762901	7.37197e+06	-41739.1	1005.82	-29785.2	0.000000	0.000000	6.763062	0.073315	NaN	0.000000	0.001637	0.001751	28.0843	0.048574	0.001910	25.4274	-130.515	-163.966	0.059197	0.761553	-0.343742	-0.345090	0.073315	25.4274	-0.345905	-22259.4	-3.293667E-6	NaN
707	1.000000	0.772916	7.37197e+06	-41739.1	1005.82	-29785.2	0.000000	0.000000	6.773078	0.072272	NaN	0.000000	0.001628	0.001758	28.084	0.060520	0.001969	30.743	151.385	11.2217	-0.010545	0.771512	-0.333727	-0.335131	0.072272	30.743	-0.335490	-15694.4	-4.604961E-6	NaN
707	1.000000	0.782875	7.37197e+06	-41739.1	1005.82	-29785.2	0.000000	0.000000	6.783035	0.025798	NaN	0.000000	0.001679	0.001724	28.084	0.133467	0.001962	68.0355	157.911	-162.539	-0.095177	0.781595	-0.323768	-0.325048	0.025798	68.0355	-0.324052	-10671.4	-2.417481E-6	NaN
707	1.000000	0.792923	7.37197e+06	-41739.1	1005.82	-29785.2	0.000000	0.000000	6.793085	0.095098	NaN	0.000000	0.001633	0.001737	28.0837	0.080706	0.002044	39.4924	-169.257	13.1773	0.065565	0.791549	-0.313720	-0.315094	0.095098	39.4924	-0.315526	-7992.99	-1.189772E-5	NaN
707	1.000000	0.802924	7.37197e+06	-41739.1	1005.82	-29785.2	0.000000	0.000000	6.803084	0.017806	NaN	0.000000	0.001650	0.001754	28.084	0.096792	0.001938	49.9535	-60.1703	-169.19	0.005822	0.801607	-0.303719	-0.305036	0.017806	49.9535	-0.303986	-5393.89	-3.301176E-6	NaN
707	1.000000	0.812901	7.37197e+06	-41739.1	1005.82	-29785.2	0.000000	0.000000	6.813062	0.052085	NaN	0.000000	0.001638	0.001745	28.0837	0.020943	0.002014	10.3986	87.3773	14.6049	-0.004161	0.811612	-0.293742	-0.295031	0.052085	10.3986	-0.297499	-4318.9	-1.205968E-5	NaN
707	1.000000	0.822902	7.37197e+06	-41739.1	1005.82	-29785.2	0.000000	0.000000	6.823061	0.024989	NaN	0.000000	0.001654	0.001704	28.0836	0.110336	0.002065	53.4215	-157.631	-168.588	0.021309	0.821590	-0.283741	-0.285053	0.024989	53.4215	-0.284092	-2720.29	-9.186075E-6	NaN
707	1.000000	0.832912	7.37197e+06	-41739.1	1005.82	-29785.2	0.000000	0.000000	6.833069	-0.045884	NaN	0.000000	0.001675	0.001718	28.0838	0.079434	0.002011	39.4959	7.613192	14.3167	-0.023902	0.831560	-0.273731	-0.275083	-0.045884	39.4959	-0.272860	-1840.62	2.492872E-5	NaN
707	1.000000	0.842939	7.37197e+06	-41739.1	1005.82	-29785.2	0.000000	0.000000	6.843101	0.076505	NaN	0.000000	0.001656	0.001715	28.0839	0.037468	0.002062	18.1711	171.265	-164.614	0.051831	0.841613	-0.263704	-0.265030	0.076505	18.1711	-0.266862	-1492.05	-5.127493E-5	NaN
707	1.000000	0.852916	7.37197e+06	-41739.1	1005.82	-29785.2	0.000000	0.000000	6.853079	0.104357	NaN	0.000000	0.001661	0.001751	28.0838	0.032934	0.002092	15.7442	139.527	13.3487	0.010057	0.851547	-0.253727	-0.255096	0.104357	15.7442	-0.258698	-1119.33	-9.323170E-5	NaN
707	1.000000	0.862948	7.37197e+06	-41739.1	1005.82	-29785.2	0.000000	0.000000	6.863109	0.059084	NaN	0.000000	0.001655	0.001743	28.0837	0.054675	0.001966	27.808	-175.552	-167.679	0.039245	0.861616	-0.243695	-0.245027	0.059084	27.808	-0.245288	-694.909	-8.502381E-5	NaN
707	1.000000	0.872934	7.37197e+06	-41739.1	1005.82	-29785.2	0.000000	0.000000	6.873093	0.026974	NaN	0.000000	0.001643	0.001762	28.084	0.074787	0.001943	38.4976	-15.4362	16.3139	-0.032273	0.871580	-0.233709	-0.235063	0.026974	38.4976	-0.234235	-466.905	-5.777261E-5	NaN
707	1.000000	0.882953	7.37197e+06	-41739.1	1005.82	-29785.2	0.000000	0.000000	6.883112	0.028857	NaN	0.000000	0.001632	0.001752	28.0838	0.042752	0.001838	23.2539	-127.945	-166.687	0.080747	0.881612	-0.223690	-0.225031	0.028857	23.2539	-0.224621	-329.09	-8.768863E-5	NaN
707	1.000000	0.892942	7.37197e+06	-41739.1	1005.82	-29785.2	0.000000	0.000000	6.893102	0.028539	NaN	0.000000	0.001646	0.001747	28.0827	0.081553	0.002065	39.4923	151.271	13.8522	0.116226	0.891594	-0.213701	-0.215049	0.028539	39.4923	-0.214243	-224.559	-0.000127	NaN
707	1.000000	0.902952	7.37197e+06	-41739.1	1005.82	-29785.2	0.000000	0.000000	6.903111	-0.001805	NaN	0.000000	0.001648	0.001786	28.0827	0.028989	0.001977	14.6633	136.927	-166.501	-0.014534	0.901663	-0.203691	-0.204980	-0.001805	14.6633	-0.203598	-150.894	1.195931E-5	NaN
707	1.000000	0.912987	7.37197e+06	-41739.1	1005.82	-29785.2	0.000000	0.000000	6.913147	0.042324	NaN	0.000000	0.001641	0.001774	28.0826	0.078839	0.002010	39.2286	-138.162	12.874	0.101014	0.911577	-0.193656	-0.195066	0.042324	39.2286	-0.194466	-106.745	-0.000396	NaN
707	1.000000	0.922940	7.37197e+06	-41739.1	1005.82	-29785.2	0.000000	0.000000	6.923098	-0.010873	NaN	0.000000	0.001657	0.001767	28.0825	0.036933	0.001891	19.5324	68.8562	-167.697	0.025157	0.921679	-0.183703	-0.184964	-0.010873	19.5324	-0.183286	-69.373	0.000157	NaN
707	1.000000	0.932972	7.37197e+06	-41739.1	1005.82	-29785.2	0.000000	0.000000	6.933131	0.009885	NaN	0.000000	0.001612	0.001790	28.0825	0.004483	0.002028	2.210452	-39.8211	13.5456	0.018450	0.931582	-0.173671	-0.175061	0.009885	2.210452	-0.177025	-54.2872	-0.000182	NaN
707	1.000000	0.942967	7.37197e+06	-41739.1	1005.82	-29785.2	0.000000	0.000000	6.943126	0.010079	NaN	0.000000	0.001664	0.001723	28.0826	0.076351	0.002109	36.2045	-52.8795	-167.495	-0.037877	0.941701	-0.163676	-0.164942	0.010079	36.2045	-0.163885	-32.1141	-0.000314	NaN
707	1.000000	0.952960	7.37197e+06	-41739.1	1005.82	-29785.2	0.000000	0.000000	6.953119	0.017962	NaN	0.000000	0.001654	0.001733	28.0826	0.069828	0.002087	33.4637	-126.617	14.8655	0.047094	0.951585	-0.153683	-0.155058	0.017962	33.4637	-0.154085	-21.4834	-0.000836	NaN
707	1.000000	0.962993	7.37197e+06	-41739.1	1005.82	-29785.2	0.000000	0.000000	6.963153	0.050304	NaN	0.000000	0.001630	0.001773	28.0826	0.090557	0.001913	47.3468	-0.882004	-164.395	0.063773	0.961654	-0.143650	-0.144989	0.050304	47.3468	-0.144447	-14.3196	-0.003513	NaN
707	1.000000	0.972970	7.37197e+06	-41739.1	1005.82	-29785.2	0.000000	0.000000	6.973129	0.023248	NaN	0.000000	0.001626	0.001752	28.0827	0.037913	0.002040	18.5844	-156.903	14.5179	0.024632	0.971620	-0.133673	-0.135023	0.023248	18.5844	-0.134611	-9.351158	-0.002486	NaN
707	1.000000	0.982987	7.37197e+06	-41739.1	1005.82	-29785.2	0.000000	0.000000	6.983147	0.026666	NaN	0.000000	0.001602	0.001768	28.0829	0.090238	0.001948	46.3118	-43.0132	-166.773	0.009627	0.981697	-0.123656	-0.124946	0.026666	46.3118	-0.124088	-5.833235	-0.004571	NaN
707	1.000000	0.992965	7.37197e+06	-41739.1	1005.82	-29785.2	0.000000	0.000000	6.993121	-0.052646	NaN	0.000000	0.001617	0.001789	28.0829	0.118124	0.001797	65.7498	57.7251	13.5501	-0.012980	0.991648	-0.113678	-0.114995	-0.052646	65.7498	-0.113078	-3.485830	0.015103	NaN
707	1.000000	1.002998	7.37197e+06	-41739.1	1005.82	-29785.2	0.000000	0.000000	7.003158	0.034655	NaN	0.000000	0.001619	0.001742	28.0828	0.068839	0.002129	32.3277	113.983	-165.374	-0.033906	1.001685	-0.103645	-0.104958	0.034655	32.3277	-0.104449	-2.286981	-0.015153	NaN
707	1.000000	1.013016	7.37197e+06	-41739.1	1005.82	-29785.2	0.000000	0.000000	7.013178	0.071076	NaN	0.000000	0.001693	0.001756	28.083	0.094304	0.002116	44.575	-149.702	13.8744	0.072013	1.011628	-0.093627	-0.095015	0.071076	44.575	-0.094822	-1.397553	-0.050857	NaN
707	1.000000	1.023003	7.37197e+06	-41739.1	1005.82	-29785.2	0.000000	0.000000	7.023165	0.079553	NaN	0.000000	0.001649	0.001751	28.0832	0.048673	0.002045	23.8052	-102.744	-164.917	0.104873	1.021721	-0.083640	-0.084922	0.079553	23.8052	-0.086146	-0.875632	-0.090852	NaN
707	1.000000	1.033009	7.37197e+06	-41739.1	1005.82	-29785.2	0.000000	0.000000	7.033170	0.053542	NaN	0.000000	0.001679	0.001735	28.0842	0.065431	0.001955	33.4643	-86.0591	10.9541	0.153050	1.031666	-0.073634	-0.074977	0.053542	33.4643	-0.074834	-0.457327	-0.117076	NaN
707	1.000000	1.042997	7.37197e+06	-41739.1	1005.82	-29785.2	0.000000	0.000000	7.043155	0.005055	NaN	0.000000	0.001673	0.001765	28.084	0.029961	0.001961	15.2788	-100.578	-166.992	0.094486	1.041710	-0.063646	-0.064933	0.005055	15.2788	-0.063894	-0.232162	-0.021772	NaN
707	1.000000	1.053019	7.37197e+06	-41739.1	1005.82	-29785.2	0.000000	0.000000	7.053180	0.047428	NaN	0.000000	0.001691	0.001755	28.0841	0.162114	0.001988	81.5421	5.197690	15.4117	0.023690	1.051621	-0.053624	-0.055022	0.047428	81.5421	-0.054060	-0.120780	-0.392684	NaN
707	1.000000	1.063016	7.37197e+06	-41739.1	1005.82	-29785.2	0.000000	0.000000	7.063176	0.015844	NaN	0.000000	0.001691	0.001734	28.0839	0.111030	0.001966	56.4886	-37.1159	-164.623	0.041149	1.061622	-0.043627	-0.045021	0.015844	56.4886	-0.043837	-0.059214	-0.267574	NaN
707	1.000000	1.072997	7.37197e+06	-41739.1	1005.82	-29785.2	0.000000	0.000000	7.073156	0.024078	NaN	0.000000	0.001686	0.001785	28.0838	0.069134	0.002000	34.573	143.023	15.0534	0.046480	1.071648	-0.033646	-0.034995	0.024078	34.573	-0.034169	-0.030276	-0.795285	NaN
707	1.000000	1.083033	7.37197e+06	-41739.1	1005.82	-29785.2	0.000000	0.000000	7.083195	0.083072	NaN	0.000000	0.001696	0.001744	28.0839	0.009322	0.001997	4.668654	-84.7633	-168.734	0.035471	1.081712	-0.023610	-0.024931	0.083072	4.668654	-0.036955	-0.036603	-2.269557	NaN
707	1.000000	1.093034	7.37197e+06	-41739.1	1005.82	-29785.2	0.000000	0.000000	7.093194	0.028491	NaN	0.000000	0.001651	0.001748	28.0843	0.017775	0.001875	9.479296	-171.355	13.1659	0.120972	1.091635	-0.013609	-0.015008	0.028491	9.479296	-0.015863	-0.009799	-2.907646	NaN
707	1.000000	1.102992	7.37197e+06	-41739.1	1005.82	-29785.2	0.000000	0.000000	7.103162	0.284041	NaN	0.000000	0.001673	0.001739	28.0841	0.327294	0.001980	165.319	19.1541	-168.475	0.065197	1.101756	-0.003651	-0.004887	0.284041	165.319	-0.004940	-0.003379	-84.0648	NaN
707	2.000000	1.112116	7.37197e+06	-41739.1	1005.82	-29785.2	0.000000	0.000000	7.112620	8.403636	NaN	0.000000	0.001694	0.001799	28.084	8.873294	0.001620	5477.19	14.7229	1.483703	8.127355	1.111507	0.005473	0.004864	8.403636	5477.19	0.004322	0.003523	2385.08	84304.2
707	2.000000	1.114691	7.37197e+06	-41739.1	1005.82	-29785.2	0.000000	0.000000	7.115361	12.4358	NaN	0.000000	0.001686	0.001775	28.0841	12.5155	0.001729	7237.32	8.724090	-176.158	12.7723	1.114359	0.008048	0.007716	12.4358	7237.32	0.006759	0.005797	2145.27	86847.2
707	2.000000	1.117117	7.37197e+06	-41739.1	1005.82	-29785.2	0.000000	0.000000	7.118004	17.7151	NaN	0.000000	0.001688	0.001764	28.084	15.1286	0.001719	8801.89	6.253590	4.150175	15.9759	1.116774	0.010474	0.010131	17.7151	8801.89	0.008964	0.008053	2199.76	89611.8
707	2.000000	1.119609	7.37197e+06	-41739.1	1005.82	-29785.2	0.000000	0.000000	7.120810	25.3651	NaN	0.000000	0.001581	0.001791	28.0842	18.2347	0.001645	11081.7	7.980603	179.489	24.9309	1.119306	0.012966	0.012663	25.3651	11081.7	0.011249	0.010603	2392.23	98325.2
707	2.000000	1.122061	7.37197e+06	-41739.1	1005.82	-29785.2	0.000000	0.000000	7.123528	31.8337	NaN	0.000000	0.001608	0.001768	28.0841	21.2232	0.001717	12357.9	4.186582	3.001410	29.4933	1.121736	0.015418	0.015093	31.8337	12357.9	0.013486	0.013319	2390.13	97832.6
707	2.000000	1.124571	7.37197e+06	-41739.1	1005.82	-29785.2	0.000000	0.000000	7.126359	39.6405	NaN	0.000000	0.001641	0.001776	28.0831	24.9755	0.001874	13324.4	7.632063	-178.606	39.0416	1.124249	0.017928	0.017606	39.6405	13324.4	0.015697	0.016226	2443.07	95569.1
707	2.000000	1.127065	7.37197e+06	-41739.1	1005.82	-29785.2	0.000000	0.000000	7.129188	47.8021	NaN	0.000000	0.001653	0.001783	28.0829	27.0234	0.001773	15238.4	3.577704	2.285693	44.5891	1.126751	0.020422	0.020108	47.8021	15238.4	0.018069	0.019599	2439.06	99448.7
707	2.000000	1.129561	7.37197e+06	-41739.1	1005.82	-29785.2	0.000000	0.000000	7.131874	52.4317	NaN	0.000000	0.001652	0.001777	28.0828	30.1514	0.001866	16158.3	5.357311	179.869	51.5998	1.129250	0.022918	0.022607	52.4317	16158.3	0.020484	0.023309	2249.42	96695.8
707	2.000000	1.132046	7.37197e+06	-41739.1	1005.82	-29785.2	0.000000	0.000000	7.134827	63.8121	NaN	0.000000	0.001604	0.001775	28.0827	32.3564	0.001738	18612.4	1.142477	2.202572	61.4505	1.131730	0.025403	0.025087	63.8121	18612.4	0.022831	0.027188	2347.07	103130
707	2.000000	1.134528	7.37197e+06	-41739.1	1005.82	-29785.2	0.000000	0.000000	7.137592	70.692	NaN	0.000000	0.001604	0.001802	28.0831	35.2955	0.001855	19031.9	0.836731	-176.688	68.4857	1.134327	0.027885	0.027684	70.692	19031.9	0.025099	0.031196	2266.08	98448.2
707	2.000000	1.137068	7.37197e+06	-41739.1	1005.82	-29785.2	0.000000	0.000000	7.140806	87.1009	NaN	0.000000	0.001576	0.001750	28.0827	39.1053	0.001813	21564.8	10.067	-6.905406	87.4525	1.136659	0.030425	0.030016	87.1009	21564.8	0.027396	0.035519	2452.24	104541
707	2.000000	1.139545	7.37197e+06	-41739.1	1005.82	-29785.2	0.000000	0.000000	7.143806	99.822	NaN	0.000000	0.001618	0.001780	28.0829	41.2276	0.001715	24038.3	5.093658	176.027	100.6	1.139254	0.032902	0.032611	99.822	24038.3	0.029787	0.040304	2476.74	109397
707	2.000000	1.141978	7.37197e+06	-41739.1	1005.82	-29785.2	0.000000	0.000000	7.146929	116.597	NaN	0.000000	0.001601	0.001792	28.0829	44.2694	0.001847	23964.8	4.922068	-3.405594	111.67	1.141647	0.035335	0.035004	116.597	23964.8	0.031686	0.044311	2631.32	104014
707	2.000000	1.144523	7.37197e+06	-41739.1	1005.82	-29785.2	0.000000	0.000000	7.150147	132.977	NaN	0.000000	0.001659	0.001775	28.0832	46.6968	0.001711	27295.7	5.588599	174.551	132.972	1.144278	0.037880	0.037635	132.977	27295.7	0.034226	0.049960	2661.67	111572
707	2.000000	1.147011	7.37197e+06	-41739.1	1005.82	-29785.2	0.000000	0.000000	7.153462	153.117	NaN	0.000000	0.001603	0.001791	28.083	47.6993	0.001564	30503.4	3.635977	-3.611167	149.446	1.146665	0.040368	0.040022	153.117	30503.4	0.036603	0.055544	2756.67	118250
707	2.000000	1.149478	7.37197e+06	-41739.1	1005.82	-29785.2	0.000000	0.000000	7.156697	171.784	NaN	0.000000	0.001644	0.001772	28.0829	49.7129	0.001636	30384.3	0.748103	178.56	168.424	1.149186	0.042835	0.042543	171.784	30384.3	0.038595	0.060447	2841.89	112911
707	2.000000	1.152070	7.37197e+06	-41739.1	1005.82	-29785.2	0.000000	0.000000	7.159900	186.661	NaN	0.000000	0.001654	0.001769	28.0831	54.1782	0.001651	32820.8	7.974723	-8.750050	187.695	1.151576	0.045427	0.044933	186.661	32820.8	0.041162	0.067065	2783.28	115791
707	2.000000	1.154451	7.37197e+06	-41739.1	1005.82	-29785.2	0.000000	0.000000	7.162784	198.894	NaN	0.000000	0.001644	0.001813	28.083	58.9034	0.001779	33114.8	7.279068	171.023	195.485	1.154363	0.047808	0.047720	198.894	33114.8	0.043304	0.072844	2730.4	112098
707	2.000000	1.156974	7.37197e+06	-41739.1	1005.82	-29785.2	0.000000	0.000000	7.166322	223.608	NaN	0.000000	0.001666	0.001799	28.0829	60.3915	0.001782	33897.6	3.729057	-5.203376	218.947	1.156660	0.050331	0.050017	223.608	33897.6	0.045383	0.078680	2842.01	110411
707	2.000000	1.159540	7.37197e+06	-41739.1	1005.82	-29785.2	0.000000	0.000000	7.169767	244.987	NaN	0.000000	0.001610	0.001761	28.0845	61.8399	0.001814	34098.5	3.236977	175.331	244.202	1.159186	0.052897	0.052543	244.987	34098.5	0.047508	0.084866	2886.74	106940
707	2.000000	1.161972	7.37197e+06	-41739.1	1005.82	-29785.2	0.000000	0.000000	7.173072	266.232	NaN	0.000000	0.001655	0.001724	28.0847	65.1934	0.001812	35982.3	3.101182	-4.641501	262.045	1.161581	0.055329	0.054938	266.232	35982.3	0.049780	0.091733	2902.25	108542
707	2.000000	1.164404	7.37197e+06	-41739.1	1005.82	-29785.2	0.000000	0.000000	7.176225	283.791	NaN	0.000000	0.001648	0.001735	28.0846	68.4209	0.001897	36071.8	4.231328	173.624	278.335	1.164231	0.057761	0.057588	283.791	36071.8	0.051860	0.098249	2888.49	105142
707	2.000000	1.167007	7.37197e+06	-41739.1	1005.82	-29785.2	0.000000	0.000000	7.179617	302.955	NaN	0.000000	0.001702	0.001755	28.0844	69.7305	0.001845	37793.2	3.528791	-5.909393	298.607	1.166606	0.060364	0.059963	302.955	37793.2	0.054352	0.106338	2848.98	105887
707	2.000000	1.169524	7.37197e+06	-41739.1	1005.82	-29785.2	0.000000	0.000000	7.182886	321.261	NaN	0.000000	0.001694	0.001774	28.0844	72.3155	0.001772	40821.6	5.774674	171.107	322.276	1.169183	0.062881	0.062540	321.261	40821.6	0.056979	0.115198	2788.77	109886
707	2.000000	1.171906	7.37197e+06	-41739.1	1005.82	-29785.2	0.000000	0.000000	7.186267	345.588	NaN	0.000000	0.001662	0.001746	28.0843	73.767	0.001833	40246.6	1.253797	-3.847662	338.726	1.171609	0.065263	0.064966	345.588	40246.6	0.058823	0.121620	2841.53	105438
707	2.000000	1.174463	7.37197e+06	-41739.1	1005.82	-29785.2	0.000000	0.000000	7.189371	358.881	NaN	0.000000	0.001638	0.001769	28.0842	76.8776	0.001753	43847.7	5.709922	171.13	355.975	1.174112	0.067820	0.067469	358.881	43847.7	0.061681	0.131906	2720.74	110303
707	2.000000	1.176963	7.37198e+06	-41739.1	1005.82	-29785.2	0.000000	0.000000	7.192770	380.762	NaN	0.000000	0.001621	0.001780	28.0845	77.5605	0.001623	47777.5	2.733050	-6.579560	375.967	1.176580	0.070320	0.069937	380.762	47777.5	0.064343	0.141839	2684.47	115904
707	2.000000	1.179422	7.37198e+06	-41739.1	1005.82	-29785.2	0.000000	0.000000	7.195910	397.313	NaN	0.000000	0.001604	0.001746	28.0844	80.4934	0.001777	45305.8	0.717240	175.722	394.485	1.179116	0.072779	0.072473	397.313	45305.8	0.066202	0.148983	2666.84	107240
707	2.000000	1.181947	7.37198e+06	-41739.1	1005.82	-29785.2	0.000000	0.000000	7.199395	420.67	NaN	0.000000	0.001636	0.001776	28.0845	84.1821	0.001949	43182.2	4.740836	-8.175980	414.043	1.181616	0.075304	0.074973	420.67	43182.2	0.067998	0.156040	2695.92	99875.9
707	2.000000	1.184449	7.37198e+06	-41739.1	1005.82	-29785.2	0.000000	0.000000	7.202579	437.28	NaN	0.000000	0.001599	0.001789	28.0844	86.0165	0.001918	44854	6.877061	169.841	433.293	1.184157	0.077806	0.077514	437.28	44854	0.070494	0.166105	2632.55	100550
707	2.000000	1.186945	7.37198e+06	-41739.1	1005.82	-29785.2	0.000000	0.000000	7.205851	456.175	NaN	0.000000	0.001595	0.001756	28.0844	87.4714	0.001778	49210.1	6.448866	-10.6801	449.886	1.186591	0.080302	0.079948	456.175	49210.1	0.073349	0.177978	2563.1	106572
707	2.000000	1.189477	7.37198e+06	-41739.1	1005.82	-29785.2	0.000000	0.000000	7.209337	479.366	NaN	0.000000	0.001584	0.001747	28.0848	90.1123	0.001881	47894.8	4.908998	170.842	477.928	1.189169	0.082834	0.082526	479.366	47894.8	0.075327	0.186432	2571.26	101345
707	2.000000	1.191932	7.37198e+06	-41739.1	1005.82	-29785.2	0.000000	0.000000	7.212219	489.761	NaN	0.000000	0.001615	0.001791	28.0839	92.2073	0.001869	49334.6	3.062649	-7.626693	484.248	1.191728	0.085289	0.085085	489.761	49334.6	0.077843	0.197448	2480.45	101437
707	2.000000	1.194531	7.37198e+06	-41739.1	1005.82	-29785.2	0.000000	0.000000	7.215420	504.414	NaN	0.000000	0.001600	0.001779	28.0832	93.8891	0.001726	54383.2	4.011466	171.161	505.576	1.194246	0.087888	0.087603	504.414	54383.2	0.080931	0.211376	2386.34	108071
707	2.000000	1.196945	7.37198e+06	-41739.1	1005.82	-29785.2	0.000000	0.000000	7.218738	526.407	NaN	0.000000	0.001606	0.001773	28.0831	95.5818	0.001720	55558.4	3.704339	-8.291423	520.576	1.196649	0.090302	0.090006	526.407	55558.4	0.083196	0.221871	2372.58	107764
707	2.000000	1.199469	7.37198e+06	-41739.1	1005.82	-29785.2	0.000000	0.000000	7.221831	540.238	NaN	0.000000	0.001609	0.001810	28.0832	97.7448	0.001735	56324.6	2.602860	172.168	538.286	1.199136	0.092826	0.092492	540.238	56324.6	0.085633	0.233428	2314.36	106511
707	2.000000	1.201855	7.37198e+06	-41739.1	1005.82	-29785.2	0.000000	0.000000	7.225389	568.781	NaN	0.000000	0.001632	0.001766	28.0829	101.876	0.001824	55845.7	9.107193	-14.576	559.587	1.201488	0.095212	0.094845	568.781	55845.7	0.087573	0.242828	2342.32	103541
707	2.000000	1.204312	7.37198e+06	-41739.1	1005.82	-29785.2	0.000000	0.000000	7.228982	596.419	NaN	0.000000	0.001691	0.001801	28.0832	102.599	0.001696	60506.9	5.190907	169.557	587.067	1.203986	0.097669	0.097343	596.419	60506.9	0.090276	0.256211	2327.84	109214
707	2.000000	1.206979	7.37198e+06	-41739.1	1005.82	-29785.2	0.000000	0.000000	7.232564	618.677	NaN	0.000000	0.001692	0.001782	28.0834	105.261	0.001760	59819.6	6.057109	-11.2733	616.543	1.206644	0.100336	0.100001	618.677	59819.6	0.092579	0.267880	2309.53	105596
707	2.000000	1.209466	7.37198e+06	-41739.1	1005.82	-29785.2	0.000000	0.000000	7.235731	635.211	NaN	0.000000	0.001651	0.001780	28.0835	106.738	0.001753	60880.2	4.465672	169.906	633.754	1.209203	0.102823	0.102560	635.211	60880.2	0.094998	0.280391	2265.44	105043
707	2.000000	1.210436	7.37198e+06	-41739.1	1005.82	-29785.2	0.000000	0.000000	7.237316	650.19	NaN	0.000000	0.001675	0.001751	28.0831	109.015	0.001863	58517	4.465162	170.557	646.467	1.210036	0.103793	0.103393	650.19	58517	0.095460	0.282812	2299.02	100533