File: remote_trans/data/nanoindenter/0828-1/data/Data_2025-08-06,11h17m57s/2025-07-22_16-23-58_1_657.txt
2025-07-22, 16:23:58, 1
Index	Phase	Displacement	Time	Pos X	Pos Y	Pos Z	Rot A	Rot B	Piezo Z	Force A	Force B	Gripper	Voltage A	Voltage B	Temperature	Amplitude force	Amplitude pos	Stiffness	Phase shift	Phase excitation	Force A raw	Displacement raw	HMax	HMax raw	Real Force	Real Stiffness	Contact Depth	Area	Hardness	Reduced Mod.
[#]	[#]	[um]	[s]	[um]	[um]	[um]	[m°]	[m°]	[um]	[uN]	[uN]	[V]	[V]	[V]	[°C]	[uN]	[um]	[N/m]	[°]	[°]	[uN]	[um]	[um]	[um]	[uN]	[N/m]	[um]	[um^2]	[MPa]	[MPa]
657	1.000000	0.002075	7.37148e+06	-44239.1	1005.82	-29776.4	0.000000	0.000000	6.002780	0.001648	NaN	0.000000	0.001629	0.001689	28.0849	0.103044	0.000985	104.601	148.228	-162.763	-0.017212	0.000822	-1.131444	-1.132697	0.001648	104.601	-1.131455	-1.324783E+15	-1.244230E-18	NaN
657	1.000000	0.012165	7.37148e+06	-44239.1	1005.82	-29776.4	0.000000	0.000000	6.012870	-0.002378	NaN	0.000000	0.001620	0.001693	28.0845	0.037949	0.001228	30.8962	79.2103	19.6113	-0.004785	0.010688	-1.121354	-1.122830	-0.002378	30.8962	-1.121296	-9.679753E+14	2.456424E-18	NaN
657	1.000000	0.022064	7.37148e+06	-44239.1	1005.82	-29776.4	0.000000	0.000000	6.022770	0.028374	NaN	0.000000	0.001593	0.001710	28.0844	0.077304	0.001698	45.5153	116.676	-164.928	0.036232	0.020705	-1.111455	-1.112814	0.028374	45.5153	-1.111922	-7.245743E+14	-3.915946E-17	NaN
657	1.000000	0.032040	7.37148e+06	-44239.1	1005.82	-29776.4	0.000000	0.000000	6.032743	-0.046863	NaN	0.000000	0.001594	0.001695	28.0845	0.085312	0.001957	43.5911	9.020900	14.1692	-0.041967	0.030670	-1.101478	-1.102849	-0.046863	43.5911	-1.100672	-5.117881E+14	9.156793E-17	NaN
657	1.000000	0.042020	7.37148e+06	-44239.1	1005.82	-29776.4	0.000000	0.000000	6.042726	0.008023	NaN	0.000000	0.001585	0.001682	28.0845	0.047289	0.001985	23.8215	-16.1573	-164.938	0.021514	0.040743	-1.091498	-1.092776	0.008023	23.8215	-1.091751	-3.884400E+14	-2.065529E-17	NaN
657	1.000000	0.052068	7.37148e+06	-44239.1	1005.82	-29776.4	0.000000	0.000000	6.052771	-0.046270	NaN	0.000000	0.001625	0.001691	28.0845	0.141136	0.001922	73.4136	-26.1065	15.8094	-0.066606	0.050691	-1.081451	-1.082828	-0.046270	73.4136	-1.080978	-2.783933E+14	1.662052E-16	NaN
657	1.000000	0.062048	7.37148e+06	-44239.1	1005.82	-29776.4	0.000000	0.000000	6.062754	0.028588	NaN	0.000000	0.001601	0.001691	28.0843	0.089653	0.001921	46.6698	-29.1308	-162.439	0.022541	0.060729	-1.071470	-1.072789	0.028588	46.6698	-1.071930	-2.104338E+14	-1.358518E-16	NaN
657	1.000000	0.072040	7.37148e+06	-44239.1	1005.82	-29776.4	0.000000	0.000000	6.072748	0.067806	NaN	0.000000	0.001627	0.001720	28.0832	0.052674	0.002086	25.2549	-135.394	16.8647	0.001425	0.070711	-1.061479	-1.062808	0.067806	25.2549	-1.063492	-1.620873E+14	-4.183284E-16	NaN
657	1.000000	0.082062	7.37148e+06	-44239.1	1005.82	-29776.4	0.000000	0.000000	6.082766	-0.020270	NaN	0.000000	0.001604	0.001718	28.0833	0.106805	0.002117	50.4577	-48.0053	-166.12	-0.029692	0.080724	-1.051457	-1.052794	-0.020270	50.4577	-1.051156	-1.106498E+14	1.831899E-16	NaN
657	1.000000	0.092045	7.37148e+06	-44239.1	1005.82	-29776.4	0.000000	0.000000	6.092748	-0.034971	NaN	0.000000	0.001611	0.001703	28.0831	0.041040	0.001999	20.5349	-121.374	14.6287	0.007574	0.090669	-1.041474	-1.042850	-0.034971	20.5349	-1.040197	-7.881572E+13	4.437086E-16	NaN
657	1.000000	0.102078	7.37148e+06	-44239.1	1005.82	-29776.4	0.000000	0.000000	6.102781	-0.057943	NaN	0.000000	0.001573	0.001717	28.0829	0.016894	0.001899	8.896469	-167.968	-162.83	-0.008774	0.100717	-1.031440	-1.032801	-0.057943	8.896469	-1.026556	-5.165926E+13	1.121637E-15	NaN
657	1.000000	0.112082	7.37148e+06	-44239.1	1005.82	-29776.4	0.000000	0.000000	6.112787	0.013669	NaN	0.000000	0.001581	0.001676	28.0831	0.089968	0.002033	44.2462	-130.677	17.1301	0.101700	0.110689	-1.021437	-1.022830	0.013669	44.2462	-1.021669	-4.440217E+13	-3.078460E-16	NaN
657	1.000000	0.122080	7.37148e+06	-44239.1	1005.82	-29776.4	0.000000	0.000000	6.122785	-0.015168	NaN	0.000000	0.001576	0.001688	28.0833	0.039207	0.001955	20.0518	178.264	-161.536	-0.092428	0.120750	-1.011438	-1.012768	-0.015168	20.0518	-1.010871	-3.177635E+13	4.773386E-16	NaN
657	1.000000	0.132077	7.37148e+06	-44239.1	1005.82	-29776.4	0.000000	0.000000	6.132782	0.001638	NaN	0.000000	0.001555	0.001704	28.0832	0.031907	0.001958	16.2959	159.928	15.502	-0.007759	0.130695	-1.001442	-1.002824	0.001638	16.2959	-1.001517	-2.377900E+13	-6.889391E-17	NaN
657	1.000000	0.142076	7.37148e+06	-44239.1	1005.82	-29776.4	0.000000	0.000000	6.142780	-0.036659	NaN	0.000000	0.001533	0.001715	28.0831	0.074760	0.001990	37.5595	174.962	-163.85	0.022352	0.140762	-0.991442	-0.992756	-0.036659	37.5595	-0.990710	-1.700894E+13	2.155256E-15	NaN
657	1.000000	0.152077	7.37148e+06	-44239.1	1005.82	-29776.4	0.000000	0.000000	6.152783	0.032260	NaN	0.000000	0.001590	0.001701	28.0836	0.043544	0.002047	21.2722	-163.966	18.1818	0.089069	0.150740	-0.981442	-0.982779	0.032260	21.2722	-0.982579	-1.321775E+13	-2.440676E-15	NaN
657	1.000000	0.162067	7.37148e+06	-44239.1	1005.82	-29776.4	0.000000	0.000000	6.162771	-0.030029	NaN	0.000000	0.001568	0.001678	28.0829	0.105415	0.002045	51.5354	134.962	-163.944	0.070672	0.160816	-0.971451	-0.972703	-0.030029	51.5354	-0.971014	-9.232824E+12	3.252375E-15	NaN
657	1.000000	0.172109	7.37148e+06	-44239.1	1005.82	-29776.4	0.000000	0.000000	6.172814	-0.003978	NaN	0.000000	0.001566	0.001709	28.0833	0.050211	0.002032	24.7053	-145.714	15.7399	-0.099337	0.170712	-0.961410	-0.962807	-0.003978	24.7053	-0.961289	-6.827312E+12	5.826683E-16	NaN
657	1.000000	0.182076	7.37148e+06	-44239.1	1005.82	-29776.4	0.000000	0.000000	6.182782	0.016611	NaN	0.000000	0.001576	0.001725	28.0832	0.053622	0.001923	27.8798	131.561	-165.611	-0.068979	0.180802	-0.951443	-0.952717	0.016611	27.8798	-0.951890	-5.099304E+12	-3.257434E-15	NaN
657	1.000000	0.192083	7.37148e+06	-44239.1	1005.82	-29776.4	0.000000	0.000000	6.192788	-0.007103	NaN	0.000000	0.001535	0.001705	28.0834	0.078998	0.002000	39.4996	-114.279	15.9859	-0.040291	0.190694	-0.941435	-0.942825	-0.007103	39.4996	-0.941301	-3.670141E+12	1.935320E-15	NaN
657	1.000000	0.202124	7.37148e+06	-44239.1	1005.82	-29776.4	0.000000	0.000000	6.202828	-0.026289	NaN	0.000000	0.001564	0.001698	28.0839	0.033511	0.002000	16.7595	-157.54	-164.492	-0.021450	0.200789	-0.931395	-0.932730	-0.026289	16.7595	-0.930219	-2.601046E+12	1.010691E-14	NaN
657	1.000000	0.212104	7.37148e+06	-44239.1	1005.82	-29776.4	0.000000	0.000000	6.212805	-0.088089	NaN	0.000000	0.001617	0.001686	28.0845	0.063786	0.002105	30.306	6.571055	15.1989	-0.105622	0.210734	-0.921415	-0.922784	-0.088089	30.306	-0.919235	-1.848752E+12	4.764808E-14	NaN
657	1.000000	0.222127	7.37148e+06	-44239.1	1005.82	-29776.4	0.000000	0.000000	6.222831	-0.043917	NaN	0.000000	0.001607	0.001654	28.0847	0.082371	0.002038	40.4221	-148.241	-168.19	0.029535	0.220804	-0.911391	-0.912714	-0.043917	40.4221	-0.910576	-1.412367E+12	3.109487E-14	NaN
657	1.000000	0.232081	7.37148e+06	-44239.1	1005.82	-29776.4	0.000000	0.000000	6.232787	0.035861	NaN	0.000000	0.001585	0.001674	28.0844	0.057553	0.002108	27.297	-26.6012	14.3408	-0.052726	0.230734	-0.901438	-0.902784	0.035861	27.297	-0.902423	-1.095997E+12	-3.272039E-14	NaN
657	1.000000	0.242119	7.37148e+06	-44239.1	1005.82	-29776.4	0.000000	0.000000	6.242823	-0.035438	NaN	0.000000	0.001585	0.001738	28.0844	0.143831	0.001938	74.2096	-92.9308	-166.079	0.015931	0.240806	-0.891399	-0.892713	-0.035438	74.2096	-0.891041	-7.691093E+11	4.607663E-14	NaN
657	1.000000	0.252134	7.37148e+06	-44239.1	1005.82	-29776.4	0.000000	0.000000	6.252840	0.017359	NaN	0.000000	0.001608	0.001681	28.0845	0.085119	0.001931	44.0768	-136.013	16.8931	0.064412	0.250798	-0.881385	-0.882721	0.017359	44.0768	-0.881680	-5.746863E+11	-3.020592E-14	NaN
657	1.000000	0.262129	7.37148e+06	-44239.1	1005.82	-29776.4	0.000000	0.000000	6.262833	-0.015452	NaN	0.000000	0.001589	0.001743	28.0845	0.038678	0.001914	20.2094	32.0369	-165.442	-0.053773	0.260865	-0.871390	-0.872653	-0.015452	20.2094	-0.870817	-4.097258E+11	3.771331E-14	NaN
657	1.000000	0.272128	7.37148e+06	-44239.1	1005.82	-29776.4	0.000000	0.000000	6.272834	0.010369	NaN	0.000000	0.001620	0.001736	28.0843	0.041257	0.002045	20.1776	-55.2174	12.6065	0.020486	0.270751	-0.861390	-0.862768	0.010369	20.1776	-0.861776	-3.091410E+11	-3.353997E-14	NaN
657	1.000000	0.282138	7.37148e+06	-44239.1	1005.82	-29776.4	0.000000	0.000000	6.282841	-0.042458	NaN	0.000000	0.001621	0.001701	28.0844	0.072094	0.002070	34.8358	74.2004	-161.424	-0.007451	0.280876	-0.851381	-0.852643	-0.042458	34.8358	-0.850467	-2.172984E+11	1.953921E-13	NaN
657	1.000000	0.292137	7.37148e+06	-44239.1	1005.82	-29776.4	0.000000	0.000000	6.292840	-0.047762	NaN	0.000000	0.001600	0.001705	28.0842	0.058806	0.002068	28.4294	-49.4349	14.0819	-0.034809	0.290758	-0.841382	-0.842760	-0.047762	28.4294	-0.840122	-1.573762E+11	3.034885E-13	NaN
657	1.000000	0.302156	7.37148e+06	-44239.1	1005.82	-29776.4	0.000000	0.000000	6.302861	-0.013173	NaN	0.000000	0.001582	0.001715	28.0844	0.044844	0.002097	21.3895	124.119	-165.82	-0.033937	0.300869	-0.831362	-0.832650	-0.013173	21.3895	-0.830900	-1.180288E+11	1.116056E-13	NaN
657	1.000000	0.312159	7.37148e+06	-44239.1	1005.82	-29776.4	0.000000	0.000000	6.312864	-0.016598	NaN	0.000000	0.001608	0.001667	28.0844	0.036413	0.001893	19.2337	20.0146	13.5258	0.011924	0.310793	-0.821359	-0.822725	-0.016598	19.2337	-0.820712	-8.587484E+10	1.932824E-13	NaN
657	1.000000	0.322191	7.37148e+06	-44239.1	1005.82	-29776.4	0.000000	0.000000	6.322896	-0.006155	NaN	0.000000	0.001599	0.001699	28.0843	0.045387	0.002118	21.4322	63.59	-167.578	0.007854	0.320827	-0.811328	-0.812692	-0.006155	21.4322	-0.811112	-6.362987E+10	9.672361E-14	NaN
657	1.000000	0.332161	7.37148e+06	-44239.1	1005.82	-29776.4	0.000000	0.000000	6.332864	-0.048365	NaN	0.000000	0.001638	0.001735	28.0842	0.098406	0.002040	48.234	-43.898	15.8846	-0.011911	0.330792	-0.801358	-0.802726	-0.048365	48.234	-0.800606	-4.582322E+10	1.055461E-12	NaN
657	1.000000	0.342177	7.37148e+06	-44239.1	1005.82	-29776.4	0.000000	0.000000	6.342881	-0.019750	NaN	0.000000	0.001605	0.001715	28.083	0.100287	0.002064	48.5991	-22.4217	-163.716	0.069320	0.340932	-0.791342	-0.792586	-0.019750	48.5991	-0.791037	-3.397587E+10	5.812973E-13	NaN
657	1.000000	0.352170	7.37148e+06	-44239.1	1005.82	-29776.4	0.000000	0.000000	6.352876	0.018151	NaN	0.000000	0.001613	0.001754	28.0828	0.089742	0.002001	44.8482	149.121	13.9248	0.025527	0.350842	-0.781348	-0.782676	0.018151	44.8482	-0.781652	-2.533256E+10	-7.165229E-13	NaN
657	1.000000	0.362178	7.37148e+06	-44239.1	1005.82	-29776.4	0.000000	0.000000	6.362884	0.031768	NaN	0.000000	0.001660	0.001753	28.0829	0.067543	0.001984	34.0452	130.826	-171.9	-0.029647	0.360891	-0.771341	-0.772627	0.031768	34.0452	-0.772041	-1.875227E+10	-1.694112E-12	NaN
657	1.000000	0.372191	7.37148e+06	-44239.1	1005.82	-29776.4	0.000000	0.000000	6.372896	-0.008258	NaN	0.000000	0.001633	0.001745	28.083	0.052968	0.002040	25.9648	-26.1468	14.9535	-0.033161	0.370772	-0.761327	-0.762746	-0.008258	25.9648	-0.761089	-1.330807E+10	6.205175E-13	NaN
657	1.000000	0.382168	7.37148e+06	-44239.1	1005.82	-29776.4	0.000000	0.000000	6.382870	-0.082900	NaN	0.000000	0.001602	0.001713	28.0829	0.079659	0.002066	38.5569	48.8889	-167.117	0.006672	0.380869	-0.751351	-0.752650	-0.082900	38.5569	-0.749738	-9.325147E+9	8.889916E-12	NaN
657	1.000000	0.392179	7.37148e+06	-44239.1	1005.82	-29776.4	0.000000	0.000000	6.392885	0.018460	NaN	0.000000	0.001625	0.001761	28.083	0.030825	0.002027	15.209	-59.3963	12.1163	0.033073	0.390827	-0.741339	-0.742692	0.018460	15.209	-0.742250	-7.373894E+9	-2.503415E-12	NaN
657	1.000000	0.402186	7.37148e+06	-44239.1	1005.82	-29776.4	0.000000	0.000000	6.402893	0.024621	NaN	0.000000	0.001624	0.001722	28.0832	0.027756	0.001935	14.3447	19.5906	-166.233	0.024197	0.400864	-0.731332	-0.732655	0.024621	14.3447	-0.732619	-5.451373E+9	-4.516394E-12	NaN
657	1.000000	0.412190	7.37148e+06	-44239.1	1005.82	-29776.4	0.000000	0.000000	6.412892	-0.058913	NaN	0.000000	0.001636	0.001741	28.0833	0.077766	0.001972	39.4436	38.9876	12.3199	0.003681	0.410803	-0.721329	-0.722715	-0.058913	39.4436	-0.720209	-3.692486E+9	1.595489E-11	NaN
657	1.000000	0.422179	7.37148e+06	-44239.1	1005.82	-29776.4	0.000000	0.000000	6.422883	-0.031986	NaN	0.000000	0.001626	0.001728	28.0829	0.057739	0.001884	30.6458	163.007	-161.821	-0.110855	0.420859	-0.711340	-0.712659	-0.031986	30.6458	-0.710557	-2.726767E+9	1.173042E-11	NaN
657	1.000000	0.432202	7.37148e+06	-44239.1	1005.82	-29776.4	0.000000	0.000000	6.432906	-0.021274	NaN	0.000000	0.001616	0.001736	28.0831	0.064936	0.001949	33.3214	159.014	12.6306	0.007527	0.430843	-0.701316	-0.702676	-0.021274	33.3214	-0.700838	-2.008955E+9	1.058949E-11	NaN
657	1.000000	0.442218	7.37148e+06	-44239.1	1005.82	-29776.4	0.000000	0.000000	6.442923	-0.003901	NaN	0.000000	0.001606	0.001761	28.0828	0.044747	0.001945	23.0042	101.107	-164.973	-0.012425	0.440917	-0.691300	-0.692601	-0.003901	23.0042	-0.691173	-1.482345E+9	2.631885E-12	NaN
657	1.000000	0.452227	7.37148e+06	-44239.1	1005.82	-29776.4	0.000000	0.000000	6.452935	0.065973	NaN	0.000000	0.001641	0.001719	28.0833	0.077185	0.002069	37.3016	175.885	16.3421	0.041516	0.450812	-0.681291	-0.682706	0.065973	37.3016	-0.682618	-1.132410E+9	-5.825890E-11	NaN
657	1.000000	0.462238	7.37148e+06	-44239.1	1005.82	-29776.4	0.000000	0.000000	6.462944	0.013456	NaN	0.000000	0.001652	0.001750	28.0831	0.039648	0.001857	21.3543	22.1676	-165.548	0.126176	0.460927	-0.671280	-0.672592	0.013456	21.3543	-0.671753	-8.042283E+8	-1.673123E-11	NaN
657	1.000000	0.472172	7.37148e+06	-44239.1	1005.82	-29776.4	0.000000	0.000000	6.472877	-0.012374	NaN	0.000000	0.001686	0.001709	28.0829	0.078925	0.002130	37.058	-89.2728	13.1534	-0.097558	0.470833	-0.661347	-0.662686	-0.012374	37.058	-0.661096	-5.747546E+8	2.152832E-11	NaN
657	1.000000	0.482219	7.37148e+06	-44239.1	1005.82	-29776.4	0.000000	0.000000	6.482924	-0.007368	NaN	0.000000	0.001606	0.001749	28.0844	0.059275	0.001924	30.8135	-146.64	-164.049	0.099338	0.480900	-0.651300	-0.652619	-0.007368	30.8135	-0.651120	-4.195619E+8	1.756030E-11	NaN
657	1.000000	0.492242	7.37148e+06	-44239.1	1005.82	-29776.4	0.000000	0.000000	6.492949	0.035299	NaN	0.000000	0.001608	0.001754	28.0842	0.110493	0.001896	58.2684	137.959	12.8483	0.008097	0.490863	-0.641276	-0.642656	0.035299	58.2684	-0.641731	-3.119132E+8	-1.131702E-10	NaN
657	1.000000	0.502228	7.37148e+06	-44239.1	1005.82	-29776.4	0.000000	0.000000	6.502934	0.022176	NaN	0.000000	0.001619	0.001755	28.0844	0.048263	0.002065	23.3692	6.168914	-165.478	-0.033515	0.500925	-0.631291	-0.632594	0.022176	23.3692	-0.632002	-2.293598E+8	-9.668833E-11	NaN
657	1.000000	0.512248	7.37148e+06	-44239.1	1005.82	-29776.4	0.000000	0.000000	6.512954	0.010521	NaN	0.000000	0.001632	0.001755	28.0841	0.060749	0.002147	28.3001	-172.076	11.8516	0.078954	0.510843	-0.621270	-0.622676	0.010521	28.3001	-0.621549	-1.647878E+8	-6.384775E-11	NaN
657	1.000000	0.522214	7.37148e+06	-44239.1	1005.82	-29776.4	0.000000	0.000000	6.522917	-0.058679	NaN	0.000000	0.001643	0.001765	28.0845	0.042379	0.002023	20.9446	-176.076	-165.864	-0.021376	0.520954	-0.611304	-0.612565	-0.058679	20.9446	-0.609203	-1.114678E+8	5.264192E-10	NaN
657	1.000000	0.532237	7.37148e+06	-44239.1	1005.82	-29776.4	0.000000	0.000000	6.532942	-0.020138	NaN	0.000000	0.001596	0.001738	28.0842	0.026796	0.001915	13.992	79.0468	11.3976	-0.000637	0.530910	-0.601281	-0.602608	-0.020138	13.992	-0.600202	-8.379905E+7	2.403180E-10	NaN
657	1.000000	0.542263	7.37148e+06	-44239.1	1005.82	-29776.4	0.000000	0.000000	6.542969	0.043640	NaN	0.000000	0.001618	0.001768	28.0843	0.075046	0.002042	36.7453	-17.2938	-162.477	0.021797	0.540918	-0.591256	-0.592601	0.043640	36.7453	-0.592147	-6.490228E+7	-6.723949E-10	NaN
657	1.000000	0.552258	7.37148e+06	-44239.1	1005.82	-29776.4	0.000000	0.000000	6.552962	-0.015986	NaN	0.000000	0.001606	0.001728	28.0842	0.058841	0.001977	29.7574	-18.7028	14.6375	0.070734	0.550885	-0.581261	-0.582633	-0.015986	29.7574	-0.580858	-4.534844E+7	3.525087E-10	NaN
657	1.000000	0.562252	7.37148e+06	-44239.1	1005.82	-29776.4	0.000000	0.000000	6.562957	0.010179	NaN	0.000000	0.001622	0.001685	28.0844	0.033681	0.001936	17.3965	79.7933	-165.921	0.021619	0.560979	-0.571267	-0.572540	0.010179	17.3965	-0.571706	-3.389989E+7	-3.002542E-10	NaN
657	1.000000	0.572256	7.37148e+06	-44239.1	1005.82	-29776.4	0.000000	0.000000	6.572960	-0.015797	NaN	0.000000	0.001612	0.001660	28.0842	0.103565	0.002016	51.3822	126.5	11.6255	0.030231	0.570907	-0.561263	-0.562612	-0.015797	51.3822	-0.561033	-2.413577E+7	6.544858E-10	NaN
657	1.000000	0.582291	7.37148e+06	-44239.1	1005.82	-29776.4	0.000000	0.000000	6.582994	-0.047262	NaN	0.000000	0.001625	0.001652	28.0843	0.104576	0.002009	52.052	50.0047	-164.022	0.016663	0.580967	-0.551227	-0.552552	-0.047262	52.052	-0.550546	-1.727923E+7	2.735167E-9	NaN
657	1.000000	0.592264	7.37148e+06	-44239.1	1005.82	-29776.4	0.000000	0.000000	6.592967	-0.056014	NaN	0.000000	0.001636	0.001665	28.0846	0.033631	0.001981	16.9744	-17.8068	14.093	-0.043376	0.590910	-0.541255	-0.542608	-0.056014	16.9744	-0.538780	-1.186946E+7	4.719167E-9	NaN
657	1.000000	0.602288	7.37148e+06	-44239.1	1005.82	-29776.4	0.000000	0.000000	6.602996	0.067176	NaN	0.000000	0.001646	0.001659	28.0851	0.032255	0.001949	16.5467	-90.252	-163.967	0.029739	0.601001	-0.531230	-0.532518	0.067176	16.5467	-0.534275	-1.027851E+7	-6.535537E-9	NaN
657	1.000000	0.612276	7.37148e+06	-44239.1	1005.82	-29776.4	0.000000	0.000000	6.612980	-0.027044	NaN	0.000000	0.001650	0.001656	28.0838	0.119261	0.001952	61.1112	-17.354	13.3153	0.029116	0.610928	-0.521243	-0.522591	-0.027044	61.1112	-0.520911	-6.7029e+06	4.034736E-9	NaN
657	1.000000	0.622295	7.37148e+06	-44239.1	1005.82	-29776.4	0.000000	0.000000	6.623002	0.045492	NaN	0.000000	0.001604	0.001687	28.0832	0.018975	0.002095	9.058125	-40.4293	-166.679	0.045859	0.620986	-0.511224	-0.512532	0.045492	9.058125	-0.514990	-5.54498e+06	-8.204129E-9	NaN
657	1.000000	0.632307	7.37148e+06	-44239.1	1005.82	-29776.4	0.000000	0.000000	6.633010	-0.057318	NaN	0.000000	0.001655	0.001689	28.0832	0.004086	0.002029	2.013476	-94.7661	13.2339	-0.051501	0.630941	-0.501212	-0.502577	-0.057318	2.013476	-0.479861	-1.79302e+06	3.196731E-8	NaN
657	1.000000	0.642280	7.37148e+06	-44239.1	1005.82	-29776.4	0.000000	0.000000	6.642984	-0.017366	NaN	0.000000	0.001606	0.001708	28.0831	0.091177	0.001855	49.1411	-176.021	-164.634	-0.015034	0.641009	-0.491239	-0.492509	-0.017366	49.1411	-0.490974	-2.56447e+06	6.771763E-9	NaN
657	1.000000	0.652305	7.37148e+06	-44239.1	1005.82	-29776.4	0.000000	0.000000	6.653010	0.005563	NaN	0.000000	0.001656	0.001656	28.0832	0.035818	0.002032	17.6267	114.283	15.1446	-0.042309	0.650997	-0.481214	-0.482522	0.005563	17.6267	-0.481451	-1.88726e+06	-2.947828E-9	NaN
657	1.000000	0.662303	7.37148e+06	-44239.1	1005.82	-29776.4	0.000000	0.000000	6.663008	0.007092	NaN	0.000000	0.001589	0.001717	28.0831	0.087064	0.001944	44.7789	49.2377	-164.631	-0.031558	0.660961	-0.471216	-0.472558	0.007092	44.7789	-0.471335	-1.36183e+06	-5.207340E-9	NaN
657	1.000000	0.672313	7.37148e+06	-44239.1	1005.82	-29776.4	0.000000	0.000000	6.673016	-0.052899	NaN	0.000000	0.001601	0.001721	28.0831	0.052965	0.001913	27.6878	-3.972511	15.2326	-0.009372	0.670935	-0.461205	-0.462584	-0.052899	27.6878	-0.459773	-937177	5.644525E-8	NaN
657	1.000000	0.682303	7.37148e+06	-44239.1	1005.82	-29776.4	0.000000	0.000000	6.683007	-0.028401	NaN	0.000000	0.001583	0.001748	28.083	0.111225	0.002056	54.0901	134.78	-164.392	0.003668	0.681018	-0.451216	-0.452501	-0.028401	54.0901	-0.450822	-701327	4.049544E-8	NaN
657	1.000000	0.692300	7.37148e+06	-44239.1	1005.82	-29776.4	0.000000	0.000000	6.693005	-0.003055	NaN	0.000000	0.001592	0.001713	28.0828	0.126372	0.002003	63.0855	-177.813	16.9198	0.027968	0.691002	-0.441218	-0.442517	-0.003055	63.0855	-0.441182	-512915	5.955831E-9	NaN
657	1.000000	0.702327	7.37148e+06	-44239.1	1005.82	-29776.4	0.000000	0.000000	6.703034	0.042919	NaN	0.000000	0.001622	0.001686	28.0831	0.169087	0.001984	85.224	-133.156	-167.878	0.033402	0.700998	-0.431192	-0.432521	0.042919	85.224	-0.431570	-375199	-1.143904E-7	NaN
657	1.000000	0.712314	7.37148e+06	-44239.1	1005.82	-29776.4	0.000000	0.000000	6.713019	0.005492	NaN	0.000000	0.001620	0.001668	28.0829	0.063852	0.002039	31.3097	171.464	15.6961	0.020073	0.710929	-0.421205	-0.422590	0.005492	31.3097	-0.421336	-268760	-2.043468E-8	NaN
657	1.000000	0.722339	7.37148e+06	-44239.1	1005.82	-29776.4	0.000000	0.000000	6.723044	-0.011501	NaN	0.000000	0.001601	0.001703	28.0831	0.055769	0.002045	27.2716	17.0125	-165.102	0.112137	0.720941	-0.411179	-0.412578	-0.011501	27.2716	-0.410863	-190840	6.026637E-8	NaN
657	1.000000	0.732298	7.37148e+06	-44239.1	1005.82	-29776.4	0.000000	0.000000	6.733005	0.028514	NaN	0.000000	0.001609	0.001694	28.0829	0.040101	0.001969	20.3665	-91.8982	12.8355	0.095201	0.730941	-0.401220	-0.402577	0.028514	20.3665	-0.402270	-144000	-1.980160E-7	NaN
657	1.000000	0.742343	7.37148e+06	-44239.1	1005.82	-29776.4	0.000000	0.000000	6.743049	0.024352	NaN	0.000000	0.001582	0.001658	28.0834	0.109620	0.001927	56.8775	132.599	-164.739	0.003034	0.741005	-0.391176	-0.392514	0.024352	56.8775	-0.391497	-101059	-2.409643E-7	NaN
657	1.000000	0.752303	7.37148e+06	-44239.1	1005.82	-29776.4	0.000000	0.000000	6.753007	-0.024019	NaN	0.000000	0.001633	0.001663	28.0842	0.034008	0.002024	16.802	-118.798	16.2466	-0.023963	0.750973	-0.381216	-0.382546	-0.024019	16.802	-0.380144	-69495	3.456159E-7	NaN
657	1.000000	0.762348	7.37148e+06	-44239.1	1005.82	-29776.4	0.000000	0.000000	6.763053	-0.011262	NaN	0.000000	0.001620	0.001690	28.0842	0.053773	0.001893	28.4011	84.2932	-165.684	0.069954	0.761011	-0.371170	-0.372507	-0.011262	28.4011	-0.370873	-51132.5	2.202566E-7	NaN
657	1.000000	0.772355	7.37148e+06	-44239.1	1005.82	-29776.4	0.000000	0.000000	6.773061	0.012781	NaN	0.000000	0.001585	0.001696	28.0843	0.063443	0.001985	31.969	98.4888	18.9408	-0.056909	0.771025	-0.361163	-0.362494	0.012781	31.969	-0.361463	-37410.3	-3.416420E-7	NaN
657	1.000000	0.782346	7.37148e+06	-44239.1	1005.82	-29776.4	0.000000	0.000000	6.783051	-0.006015	NaN	0.000000	0.001599	0.001691	28.0843	0.035698	0.001930	18.4972	106.004	-164.959	-0.060512	0.781042	-0.351173	-0.352477	-0.006015	18.4972	-0.350929	-26331.7	2.284266E-7	NaN
657	1.000000	0.792343	7.37148e+06	-44239.1	1005.82	-29776.4	0.000000	0.000000	6.793047	-0.012899	NaN	0.000000	0.001619	0.001708	28.0842	0.059293	0.002139	27.7176	168.491	12.7677	-0.043340	0.790985	-0.341176	-0.342533	-0.012899	27.7176	-0.340827	-18776	6.869874E-7	NaN
657	1.000000	0.802342	7.37148e+06	-44239.1	1005.82	-29776.4	0.000000	0.000000	6.803047	0.006469	NaN	0.000000	0.001586	0.001699	28.0844	0.042615	0.001898	22.4522	171.583	-163.368	0.083344	0.801040	-0.331177	-0.332479	0.006469	22.4522	-0.331393	-13672.3	-4.731245E-7	NaN
657	1.000000	0.812366	7.37148e+06	-44239.1	1005.82	-29776.4	0.000000	0.000000	6.813071	0.002471	NaN	0.000000	0.001611	0.001745	28.0844	0.161569	0.001883	85.7977	-26.1448	19.9665	-0.024804	0.811015	-0.321153	-0.322504	0.002471	85.7977	-0.321174	-9680.95	-2.552218E-7	NaN
657	1.000000	0.822377	7.37148e+06	-44239.1	1005.82	-29776.4	0.000000	0.000000	6.823082	-0.001104	NaN	0.000000	0.001611	0.001733	28.0842	0.062735	0.001907	32.8962	-0.113192	-166.002	-0.018679	0.821084	-0.311142	-0.312435	-0.001104	32.8962	-0.311116	-6879.76	1.605020E-7	NaN
657	1.000000	0.832382	7.37148e+06	-44239.1	1005.82	-29776.4	0.000000	0.000000	6.833085	-0.068286	NaN	0.000000	0.001611	0.001722	28.0842	0.093378	0.002063	45.2581	93.0737	13.9734	-0.040530	0.831060	-0.301136	-0.302459	-0.068286	45.2581	-0.300005	-4706.59	1.450857E-5	NaN
657	1.000000	0.842378	7.37148e+06	-44239.1	1005.82	-29776.4	0.000000	0.000000	6.843085	0.055804	NaN	0.000000	0.001578	0.001738	28.0851	0.019220	0.002055	9.351549	-64.7943	-166.099	0.092323	0.841103	-0.291141	-0.292415	0.055804	9.351549	-0.295617	-4048.5	-1.378395E-5	NaN
657	1.000000	0.852405	7.37148e+06	-44239.1	1005.82	-29776.4	0.000000	0.000000	6.853111	0.018850	NaN	0.000000	0.001599	0.001687	28.0844	0.051674	0.001970	26.2356	-106.777	13.2621	0.077687	0.850995	-0.281114	-0.282524	0.018850	26.2356	-0.281652	-2499.68	-7.540996E-6	NaN
657	1.000000	0.862383	7.37148e+06	-44239.1	1005.82	-29776.4	0.000000	0.000000	6.863086	-0.046093	NaN	0.000000	0.001599	0.001711	28.0841	0.049874	0.001946	25.6267	114.618	-166.092	0.022441	0.861051	-0.271136	-0.272467	-0.046093	25.6267	-0.269787	-1653.14	2.788229E-5	NaN
657	1.000000	0.872381	7.37148e+06	-44239.1	1005.82	-29776.4	0.000000	0.000000	6.873087	0.013951	NaN	0.000000	0.001593	0.001722	28.0842	0.110061	0.002012	54.704	-15.0369	10.7983	0.022389	0.870984	-0.261138	-0.262535	0.013951	54.704	-0.261329	-1228.21	-1.135916E-5	NaN
657	1.000000	0.882388	7.37148e+06	-44239.1	1005.82	-29776.4	0.000000	0.000000	6.883090	-0.089625	NaN	0.000000	0.001594	0.001725	28.0845	0.045800	0.001913	23.9372	-138.276	-166.801	-0.040110	0.881107	-0.251130	-0.252412	-0.089625	23.9372	-0.248322	-774.461	0.000116	NaN
657	1.000000	0.892404	7.37148e+06	-44239.1	1005.82	-29776.4	0.000000	0.000000	6.893110	0.014391	NaN	0.000000	0.001558	0.001710	28.083	0.130363	0.001830	71.2244	-155.572	15.4615	-0.014456	0.891007	-0.241115	-0.242511	0.014391	71.2244	-0.241266	-601.612	-2.392002E-5	NaN
657	1.000000	0.902367	7.37148e+06	-44239.1	1005.82	-29776.4	0.000000	0.000000	6.903075	0.063456	NaN	0.000000	0.001590	0.001705	28.0831	0.081982	0.001935	42.3749	-169.919	-163.69	-0.010812	0.901107	-0.231152	-0.232412	0.063456	42.3749	-0.232275	-434.903	-0.000146	NaN
657	1.000000	0.912423	7.37148e+06	-44239.1	1005.82	-29776.4	0.000000	0.000000	6.913127	-0.036255	NaN	0.000000	0.001634	0.001661	28.0831	0.075075	0.002059	36.4622	-12.8579	17.0105	-0.061427	0.911060	-0.221095	-0.222459	-0.036255	36.4622	-0.220350	-281.359	0.000129	NaN
657	1.000000	0.922385	7.37148e+06	-44239.1	1005.82	-29776.4	0.000000	0.000000	6.923089	-0.018239	NaN	0.000000	0.001615	0.001692	28.0832	0.073665	0.001888	39.0085	160.673	-165.989	-0.079217	0.921092	-0.211134	-0.212427	-0.018239	39.0085	-0.210783	-197.469	9.236285E-5	NaN
657	1.000000	0.932401	7.37148e+06	-44239.1	1005.82	-29776.4	0.000000	0.000000	6.933107	0.022031	NaN	0.000000	0.001562	0.001726	28.0833	0.086830	0.002112	41.1135	-45.8744	11.5315	0.073782	0.931009	-0.201118	-0.202509	0.022031	41.1135	-0.201520	-139.524	-0.000158	NaN
657	1.000000	0.942413	7.37148e+06	-44239.1	1005.82	-29776.4	0.000000	0.000000	6.943121	0.082938	NaN	0.000000	0.001597	0.001661	28.083	0.103527	0.001919	53.9523	172.6	-167.415	0.049421	0.941081	-0.191106	-0.192438	0.082938	53.9523	-0.192259	-98.1048	-0.000845	NaN
657	1.000000	0.952443	7.37148e+06	-44239.1	1005.82	-29776.4	0.000000	0.000000	6.953148	0.010990	NaN	0.000000	0.001576	0.001702	28.0834	0.100985	0.002044	49.395	-45.3711	14.308	-0.025185	0.951080	-0.181076	-0.182439	0.010990	49.395	-0.181243	-64.0599	-0.000172	NaN
657	1.000000	0.962422	7.37148e+06	-44239.1	1005.82	-29776.4	0.000000	0.000000	6.963128	0.019935	NaN	0.000000	0.001584	0.001677	28.0834	0.038079	0.001893	20.1144	132.326	-167.081	0.099602	0.961143	-0.171096	-0.172375	0.019935	20.1144	-0.171840	-44.2074	-0.000451	NaN
657	1.000000	0.972418	7.37148e+06	-44239.1	1005.82	-29776.4	0.000000	0.000000	6.973123	0.004620	NaN	0.000000	0.001573	0.001755	28.0833	0.096593	0.002097	46.0726	-99.1785	14.5052	-0.034392	0.971090	-0.161101	-0.162428	0.004620	46.0726	-0.161176	-28.7645	-0.000161	NaN
657	1.000000	0.982421	7.37148e+06	-44239.1	1005.82	-29776.4	0.000000	0.000000	6.983128	0.034808	NaN	0.000000	0.001599	0.001741	28.0832	0.033260	0.001994	16.6796	104.759	-163.786	0.023528	0.981124	-0.151098	-0.152395	0.034808	16.6796	-0.152663	-20.2484	-0.001719	NaN
657	1.000000	0.992443	7.37148e+06	-44239.1	1005.82	-29776.4	0.000000	0.000000	6.993147	-0.030369	NaN	0.000000	0.001630	0.001670	28.0834	0.064676	0.002097	30.8452	-112.825	10.9182	-0.032709	0.991116	-0.141076	-0.142403	-0.030369	30.8452	-0.140337	-12.0031	0.002530	NaN
657	1.000000	1.002454	7.37148e+06	-44239.1	1005.82	-29776.4	0.000000	0.000000	7.003159	-0.005247	NaN	0.000000	0.001575	0.001713	28.0838	0.103210	0.002041	50.5601	98.5954	-167.278	-0.052884	1.001139	-0.131065	-0.132380	-0.005247	50.5601	-0.130987	-7.964379	0.000659	NaN
657	1.000000	1.012465	7.37148e+06	-44239.1	1005.82	-29776.4	0.000000	0.000000	7.013171	0.025038	NaN	0.000000	0.001577	0.001685	28.0834	0.139873	0.001949	71.7604	-98.4249	15.1051	0.007153	1.011079	-0.121053	-0.122440	0.025038	71.7604	-0.121315	-5.135155	-0.004876	NaN
657	1.000000	1.022435	7.37148e+06	-44239.1	1005.82	-29776.4	0.000000	0.000000	7.023140	-0.008896	NaN	0.000000	0.001612	0.001693	28.0841	0.052535	0.001920	27.3649	-126.443	-163.983	-0.063163	1.021196	-0.111084	-0.112323	-0.008896	27.3649	-0.110840	-3.130001	0.002842	NaN
657	1.000000	1.032432	7.37148e+06	-44239.1	1005.82	-29776.4	0.000000	0.000000	7.033137	0.015825	NaN	0.000000	0.001601	0.001713	28.0849	0.097984	0.002056	47.666	-162.97	14.471	0.003320	1.031054	-0.101087	-0.102464	0.015825	47.666	-0.101336	-1.955633	-0.008092	NaN
657	1.000000	1.042432	7.37148e+06	-44239.1	1005.82	-29776.4	0.000000	0.000000	7.043141	0.083717	NaN	0.000000	0.001597	0.001691	28.0845	0.078751	0.001990	39.5828	-124.99	-165.047	0.074116	1.041134	-0.091087	-0.092385	0.083717	39.5828	-0.092673	-1.247474	-0.067109	NaN
657	1.000000	1.052444	7.37148e+06	-44239.1	1005.82	-29776.4	0.000000	0.000000	7.053149	-0.002248	NaN	0.000000	0.001583	0.001704	28.0845	0.026531	0.002021	13.1302	106.233	18.9226	-0.021955	1.051126	-0.081074	-0.082393	-0.002248	13.1302	-0.080946	-0.653526	0.003440	NaN
657	1.000000	1.062449	7.37148e+06	-44239.1	1005.82	-29776.4	0.000000	0.000000	7.063153	-0.002965	NaN	0.000000	0.001612	0.001670	28.0846	0.061405	0.002006	30.6173	25.9119	-168.162	-0.034363	1.061169	-0.071070	-0.072350	-0.002965	30.6173	-0.070997	-0.362676	0.008176	NaN
657	1.000000	1.072464	7.37148e+06	-44239.1	1005.82	-29776.4	0.000000	0.000000	7.073166	-0.061027	NaN	0.000000	0.001538	0.001687	28.0846	0.048248	0.001995	24.1838	179.984	12.8118	-0.058371	1.071078	-0.061055	-0.062440	-0.061027	24.1838	-0.059162	-0.170374	0.358197	NaN
657	1.000000	1.082465	7.37148e+06	-44239.1	1005.82	-29776.4	0.000000	0.000000	7.083170	0.000646	NaN	0.000000	0.001616	0.001700	28.0844	0.034485	0.001955	17.6406	-161.522	-166.968	-0.020696	1.081111	-0.051054	-0.052407	0.000646	17.6406	-0.051082	-0.098374	-0.006569	NaN
657	1.000000	1.092445	7.37148e+06	-44239.1	1005.82	-29776.4	0.000000	0.000000	7.093148	-0.037766	NaN	0.000000	0.001637	0.001680	28.0845	0.011882	0.002147	5.535441	134.14	12.4133	-0.008733	1.091137	-0.041074	-0.042382	-0.037766	5.535441	-0.035957	-0.034181	1.104904	NaN
657	1.000000	1.102481	7.37148e+06	-44239.1	1005.82	-29776.4	0.000000	0.000000	7.103187	0.033366	NaN	0.000000	0.001597	0.001731	28.0846	0.068310	0.001948	35.0647	-163.733	-161.632	-0.005081	1.101179	-0.031038	-0.032340	0.033366	35.0647	-0.031751	-0.025782	-1.294175	NaN
657	1.000000	1.112479	7.37148e+06	-44239.1	1005.82	-29776.4	0.000000	0.000000	7.113184	0.004970	NaN	0.000000	0.001573	0.001722	28.0843	0.066083	0.002149	30.7494	-30.3964	15.8806	-0.065373	1.111145	-0.021040	-0.022374	0.004970	30.7494	-0.021161	-0.013444	-0.369703	NaN
657	1.000000	1.122472	7.37148e+06	-44239.1	1005.82	-29776.4	0.000000	0.000000	7.123177	0.006693	NaN	0.000000	0.001617	0.001724	28.0844	0.049094	0.002002	24.5188	161.764	-166.388	0.012655	1.121161	-0.011047	-0.012357	0.006693	24.5188	-0.011252	-0.007102	-0.942534	NaN
657	1.000000	1.132486	7.37148e+06	-44239.1	1005.82	-29776.4	0.000000	0.000000	7.133237	1.127448	NaN	0.000000	0.001573	0.001701	28.0845	1.667333	0.001891	881.73	12.0891	12.903	0.388495	1.131128	-0.001033	-0.002391	1.127448	881.73	-0.001992	-0.001434	-786.319	NaN
657	2.000000	1.141061	7.37148e+06	-44239.1	1005.82	-29776.4	0.000000	0.000000	7.142129	8.824664	NaN	0.000000	0.001565	0.001697	28.0848	8.563396	0.001508	5676.95	5.984138	-169.889	8.519410	1.140644	0.007543	0.007125	8.824664	5676.95	0.006377	0.005425	1626.62	70417.8
657	2.000000	1.143532	7.37148e+06	-44239.1	1005.82	-29776.4	0.000000	0.000000	7.144744	12.3423	NaN	0.000000	0.001597	0.001664	28.0847	11.5328	0.001798	6414.64	9.356443	6.668154	11.4606	1.143216	0.010013	0.009697	12.3423	6414.64	0.008570	0.007635	1616.47	67070.4
657	2.000000	1.146041	7.37148e+06	-44239.1	1005.82	-29776.4	0.000000	0.000000	7.147355	14.8127	NaN	0.000000	0.001607	0.001689	28.0834	13.8587	0.001709	8108.5	6.118047	-174.347	14.8404	1.145757	0.012522	0.012238	14.8127	8108.5	0.011152	0.010490	1412.05	72330.5
657	2.000000	1.148581	7.37148e+06	-44239.1	1005.82	-29776.4	0.000000	0.000000	7.150079	19.2893	NaN	0.000000	0.001572	0.001704	28.0834	16.7355	0.001719	9733.98	9.832245	1.693354	18.6281	1.148202	0.015062	0.014684	19.2893	9733.98	0.013576	0.013433	1435.97	76732.3
657	2.000000	1.150997	7.37148e+06	-44239.1	1005.82	-29776.4	0.000000	0.000000	7.152728	24.9611	NaN	0.000000	0.001595	0.001711	28.0833	19.4414	0.001729	11247	9.298232	179.293	24.6462	1.150756	0.017479	0.017238	24.9611	11247	0.015814	0.016386	1523.28	80272.5
657	2.000000	1.153493	7.37148e+06	-44239.1	1005.82	-29776.4	0.000000	0.000000	7.155534	32.4929	NaN	0.000000	0.001567	0.001656	28.0832	22.533	0.001749	12883.7	6.124585	0.736475	30.0147	1.153139	0.019975	0.019620	32.4929	12883.7	0.018083	0.019619	1656.16	84037.1
657	2.000000	1.156067	7.37148e+06	-44239.1	1005.82	-29776.4	0.000000	0.000000	7.158220	35.2398	NaN	0.000000	0.001591	0.001695	28.0835	25.1671	0.001682	14960	5.552775	-178.443	37.621	1.155721	0.022548	0.022203	35.2398	14960	0.020782	0.023785	1481.58	88624.1
657	2.000000	1.158550	7.37148e+06	-44239.1	1005.82	-29776.4	0.000000	0.000000	7.161084	44.4861	NaN	0.000000	0.001569	0.001692	28.0833	27.1437	0.001720	15778.3	4.672378	1.860873	44.8397	1.158123	0.025031	0.024604	44.4861	15778.3	0.022917	0.027335	1627.46	87191.9
657	2.000000	1.160964	7.37148e+06	-44239.1	1005.82	-29776.4	0.000000	0.000000	7.163761	50.8998	NaN	0.000000	0.001586	0.001698	28.0831	29.2674	0.001697	17247.6	1.318899	-176.437	49.9687	1.160675	0.027445	0.027156	50.8998	17247.6	0.025232	0.031439	1619.02	88872.8
657	2.000000	1.163488	7.37148e+06	-44239.1	1005.82	-29776.4	0.000000	0.000000	7.166584	58.1707	NaN	0.000000	0.001583	0.001710	28.0832	33.2762	0.001759	18912.4	3.401363	0.914678	56.417	1.163157	0.029969	0.029638	58.1707	18912.4	0.027662	0.036038	1614.15	91020.7
657	2.000000	1.165977	7.37148e+06	-44239.1	1005.82	-29776.4	0.000000	0.000000	7.169439	67.0651	NaN	0.000000	0.001585	0.001720	28.0836	35.6762	0.001817	19636.9	2.298341	-178.646	64.887	1.165719	0.032458	0.032200	67.0651	19636.9	0.029897	0.040530	1654.68	89115.9
657	2.000000	1.168431	7.37148e+06	-44239.1	1005.82	-29776.4	0.000000	0.000000	7.172225	75.1603	NaN	0.000000	0.001579	0.001709	28.083	37.9444	0.001720	22065.6	5.774185	-3.236479	71.661	1.168047	0.034912	0.034528	75.1603	22065.6	0.032357	0.045772	1642.07	94230.4
657	2.000000	1.171039	7.37148e+06	-44239.1	1005.82	-29776.4	0.000000	0.000000	7.175243	85.1193	NaN	0.000000	0.001599	0.001700	28.0835	40.2031	0.001830	21965.2	9.610851	175.026	87.1649	1.170574	0.037520	0.037056	85.1193	21965.2	0.034614	0.050850	1673.92	88994.2
657	2.000000	1.173473	7.37148e+06	-44239.1	1005.82	-29776.4	0.000000	0.000000	7.178135	96.2593	NaN	0.000000	0.001617	0.001709	28.0832	42.2639	0.001780	23745.3	3.830852	-1.163365	96.3796	1.173049	0.039954	0.039531	96.2593	23745.3	0.036914	0.056297	1709.86	91434.5
657	2.000000	1.175933	7.37148e+06	-44239.1	1005.82	-29776.4	0.000000	0.000000	7.180872	103.006	NaN	0.000000	0.001594	0.001673	28.0845	44.8614	0.001857	24160.4	1.620334	-179.215	101.424	1.175649	0.042415	0.042130	103.006	24160.4	0.039217	0.062021	1660.83	88636
657	2.000000	1.178528	7.37148e+06	-44239.1	1005.82	-29776.4	0.000000	0.000000	7.183811	111.375	NaN	0.000000	0.001602	0.001720	28.0831	48.2742	0.001851	26082.9	7.640063	-7.280776	111.324	1.178189	0.045010	0.044670	111.375	26082.9	0.041807	0.068782	1619.23	90863.6
657	2.000000	1.180922	7.37148e+06	-44239.1	1005.82	-29776.4	0.000000	0.000000	7.186740	124.382	NaN	0.000000	0.001619	0.001726	28.0848	48.453	0.001622	29872.8	-1.206366	-178.918	121.617	1.180676	0.047403	0.047157	124.382	29872.8	0.044281	0.075558	1646.17	99290.6
657	2.000000	1.183427	7.37148e+06	-44239.1	1005.82	-29776.4	0.000000	0.000000	7.189903	140.405	NaN	0.000000	0.001594	0.001690	28.0845	53.1277	0.001744	30460.9	8.844077	-7.856198	137.421	1.183045	0.049908	0.049526	140.405	30460.9	0.046451	0.081761	1717.27	97329.4
657	2.000000	1.185965	7.37148e+06	-44239.1	1005.82	-29776.4	0.000000	0.000000	7.193017	154.418	NaN	0.000000	0.001633	0.001681	28.0856	54.2037	0.001804	30039.9	1.889470	178.214	153.671	1.185635	0.052446	0.052116	154.418	30039.9	0.048591	0.088108	1752.6	92462.2
657	2.000000	1.188392	7.37148e+06	-44239.1	1005.82	-29776.4	0.000000	0.000000	7.195963	167.026	NaN	0.000000	0.001622	0.001705	28.0845	57.0796	0.001714	33293.9	3.545214	-4.538417	161.423	1.188100	0.054874	0.054581	167.026	33293.9	0.051111	0.095879	1742.06	98237.5
657	2.000000	1.190939	7.37148e+06	-44239.1	1005.82	-29776.4	0.000000	0.000000	7.198958	177.942	NaN	0.000000	0.001598	0.001677	28.0848	59.74	0.001719	34757.7	6.592807	172.301	176.478	1.190575	0.057420	0.057056	177.942	34757.7	0.053580	0.103800	1714.27	98565.5
657	2.000000	1.193415	7.37148e+06	-44239.1	1005.82	-29776.4	0.000000	0.000000	7.201908	189.471	NaN	0.000000	0.001686	0.001716	28.0848	62.6533	0.001777	35263.7	5.300906	-6.539737	187.595	1.192971	0.059897	0.059453	189.471	35263.7	0.055867	0.111406	1700.72	96526.5
657	2.000000	1.195847	7.37148e+06	-44239.1	1005.82	-29776.4	0.000000	0.000000	7.205236	211.254	NaN	0.000000	0.001688	0.001699	28.0848	65.0755	0.001663	39135.7	3.721160	174.058	207.18	1.195553	0.062329	0.062034	211.254	39135.7	0.058280	0.119713	1764.66	103342
657	2.000000	1.198438	7.37148e+06	-44239.1	1005.82	-29776.4	0.000000	0.000000	7.208497	227.56	NaN	0.000000	0.001669	0.001726	28.0845	67.5555	0.001866	36205.6	5.533414	-5.626380	227.785	1.198094	0.064920	0.064575	227.56	36205.6	0.060206	0.126547	1798.23	92987.3
657	2.000000	1.200826	7.37148e+06	-44239.1	1005.82	-29776.4	0.000000	0.000000	7.211168	234.459	NaN	0.000000	0.001654	0.001679	28.0848	68.3321	0.001796	38051.9	2.298103	176.224	228.602	1.200639	0.067307	0.067120	234.459	38051.9	0.062686	0.135615	1728.86	94405
657	2.000000	1.203441	7.37148e+06	-44239.1	1005.82	-29776.4	0.000000	0.000000	7.214650	255.536	NaN	0.000000	0.001587	0.001707	28.085	73.3957	0.001809	40567.4	7.841096	-9.909767	255.758	1.203006	0.069922	0.069488	255.536	40567.4	0.065198	0.145105	1761.05	97299.3
657	2.000000	1.205889	7.37148e+06	-44239.1	1005.82	-29776.4	0.000000	0.000000	7.217761	271.684	NaN	0.000000	0.001576	0.001725	28.0851	74.9365	0.001910	39231.7	4.822655	173.637	268.22	1.205604	0.072370	0.072086	271.684	39231.7	0.067176	0.152791	1778.15	91698.6
657	2.000000	1.208361	7.37148e+06	-44239.1	1005.82	-29776.4	0.000000	0.000000	7.220981	289.87	NaN	0.000000	0.001678	0.001713	28.0846	76.213	0.001747	43613.5	3.679278	-6.192809	283.414	1.208084	0.074842	0.074566	289.87	43613.5	0.069857	0.163508	1772.82	98542.5
657	2.000000	1.210860	7.37148e+06	-44239.1	1005.82	-29776.4	0.000000	0.000000	7.224274	309.209	NaN	0.000000	0.001652	0.001696	28.0848	78.2788	0.001755	44614.7	4.307591	172.836	305.621	1.210573	0.077341	0.077054	309.209	44614.7	0.072143	0.172914	1788.22	98024.8
657	2.000000	1.213398	7.37148e+06	-44239.1	1005.82	-29776.4	0.000000	0.000000	7.227576	327.767	NaN	0.000000	0.001699	0.001694	28.0838	81.2082	0.001670	48632.6	8.449388	-12.4775	325.904	1.213002	0.079880	0.079483	327.767	48632.6	0.074825	0.184267	1778.76	103509
657	2.000000	1.215930	7.37148e+06	-44239.1	1005.82	-29776.4	0.000000	0.000000	7.230835	345.445	NaN	0.000000	0.001690	0.001701	28.0835	84.7853	0.001766	48018.5	3.798541	172.937	348.514	1.215591	0.082412	0.082073	345.445	48018.5	0.077016	0.193795	1782.53	99657.7
657	2.000000	1.218354	7.37148e+06	-44239.1	1005.82	-29776.4	0.000000	0.000000	7.233721	356.688	NaN	0.000000	0.001691	0.001747	28.0834	86.6283	0.001743	49697.7	5.015308	-8.324652	352.705	1.218077	0.084836	0.084558	356.688	49697.7	0.079453	0.204652	1742.9	100369
657	2.000000	1.220850	7.37148e+06	-44239.1	1005.82	-29776.4	0.000000	0.000000	7.237400	385.47	NaN	0.000000	0.001674	0.001678	28.0834	89.0746	0.001879	47398.9	3.753790	173.019	383.006	1.220563	0.087332	0.087045	385.47	47398.9	0.081232	0.212756	1811.79	93885.9
657	2.000000	1.223390	7.37148e+06	-44239.1	1005.82	-29776.4	0.000000	0.000000	7.240844	407.47	NaN	0.000000	0.001672	0.001674	28.0833	92.6612	0.001816	51019.8	3.919384	-8.348765	403.437	1.223056	0.089872	0.089537	407.47	51019.8	0.083882	0.225096	1810.21	98248.9
657	2.000000	1.225859	7.37148e+06	-44239.1	1005.82	-29776.4	0.000000	0.000000	7.243994	424.03	NaN	0.000000	0.001698	0.001691	28.0831	95.8344	0.001846	51904.9	5.240796	170.96	421.032	1.225511	0.092341	0.091992	424.03	51904.9	0.086214	0.236225	1795.03	97570.5
657	2.000000	1.228356	7.37148e+06	-44239.1	1005.82	-29776.4	0.000000	0.000000	7.247477	448.036	NaN	0.000000	0.001671	0.001685	28.0833	96.8635	0.001821	53204.8	4.803786	-8.708224	441.669	1.228007	0.094837	0.094489	448.036	53204.8	0.088521	0.247485	1810.36	97712.3
657	2.000000	1.230824	7.37148e+06	-44239.1	1005.82	-29776.4	0.000000	0.000000	7.250151	453.045	NaN	0.000000	0.001676	0.001679	28.0832	97.8621	0.001730	56580.1	0.000112	175.254	446.747	1.230584	0.097305	0.097065	453.045	56580.1	0.091300	0.261369	1733.35	101114
657	2.000000	1.233375	7.37148e+06	-44239.1	1005.82	-29776.4	0.000000	0.000000	7.254039	485.573	NaN	0.000000	0.001652	0.001671	28.0834	101.031	0.001851	54575.4	2.150373	-6.992206	481.085	1.233018	0.099856	0.099499	485.573	54575.4	0.093183	0.270977	1791.93	95786.4
657	2.000000	1.235854	7.37148e+06	-44239.1	1005.82	-29776.4	0.000000	0.000000	7.257624	512.478	NaN	0.000000	0.001603	0.001632	28.0831	102.583	0.001763	58187.1	2.406252	172.719	508.17	1.235452	0.102335	0.101933	512.478	58187.1	0.095730	0.284233	1803.02	99715.5
657	2.000000	1.238311	7.37148e+06	-44239.1	1005.82	-29776.4	0.000000	0.000000	7.261129	537.974	NaN	0.000000	0.001578	0.001650	28.0836	103.415	0.001680	61562.8	4.073146	-8.898250	530.515	1.237973	0.104792	0.104454	537.974	61562.8	0.098238	0.297576	1807.85	103108
657	2.000000	1.238943	7.37148e+06	-44239.1	1005.82	-29776.4	0.000000	0.000000	7.261810	539.175	NaN	0.000000	0.001585	0.001641	28.0834	106.463	0.001756	60615.6	5.522554	169.628	542.101	1.238564	0.105424	0.105045	539.175	60615.6	0.098753	0.300349	1795.16	101052