File: remote_trans/data/nanoindenter/0828-1/data/Data_2025-08-06,11h17m57s/2025-07-22_16-23-58_1_121.txt
2025-07-22, 16:23:58, 1
Index	Phase	Displacement	Time	Pos X	Pos Y	Pos Z	Rot A	Rot B	Piezo Z	Force A	Force B	Gripper	Voltage A	Voltage B	Temperature	Amplitude force	Amplitude pos	Stiffness	Phase shift	Phase excitation	Force A raw	Displacement raw	HMax	HMax raw	Real Force	Real Stiffness	Contact Depth	Area	Hardness	Reduced Mod.
[#]	[#]	[um]	[s]	[um]	[um]	[um]	[m°]	[m°]	[um]	[uN]	[uN]	[V]	[V]	[V]	[°C]	[uN]	[um]	[N/m]	[°]	[°]	[uN]	[um]	[um]	[um]	[uN]	[N/m]	[um]	[um^2]	[MPa]	[MPa]
121	1.000000	0.002555	7.36622e+06	-44689.1	955.818	-29775.5	0.000000	0.000000	6.002827	0.035350	NaN	0.000000	0.001636	0.001702	28.1136	0.097068	0.000997	97.3195	153.564	-162.929	0.017502	0.001325	-1.042312	-1.043543	0.035350	97.3195	-1.042584	-8.486286E+13	-4.165593E-16	NaN
121	1.000000	0.010506	7.36622e+06	-44689.1	955.818	-29775.5	0.000000	0.000000	6.010778	0.048456	NaN	0.000000	0.001647	0.001676	28.1135	0.032711	0.001041	31.4375	-159	-162.487	-0.033178	0.009153	-1.034361	-1.035715	0.048456	31.4375	-1.035517	-6.818481E+13	-7.106626E-16	NaN
121	1.000000	0.018494	7.36622e+06	-44689.1	955.818	-29775.5	0.000000	0.000000	6.018766	0.055070	NaN	0.000000	0.001593	0.001678	28.1141	0.078804	0.001683	46.8351	-149.635	-164.992	0.019431	0.017187	-1.026374	-1.027680	0.055070	46.8351	-1.027256	-5.279146E+13	-1.043166E-15	NaN
121	1.000000	0.026518	7.36622e+06	-44689.1	955.818	-29775.5	0.000000	0.000000	6.026791	0.052912	NaN	0.000000	0.001588	0.001706	28.1147	0.024685	0.001948	12.6721	42.1731	-165.772	0.047643	0.025146	-1.018349	-1.019722	0.052912	12.6721	-1.021481	-4.414406E+13	-1.198611E-15	NaN
121	1.000000	0.034473	7.36622e+06	-44689.1	955.819	-29775.5	0.000000	0.000000	6.034744	0.024290	NaN	0.000000	0.001620	0.001730	28.1143	0.114669	0.002033	56.4169	-128.007	-162.083	0.044811	0.033201	-1.010394	-1.011666	0.024290	56.4169	-1.010717	-3.162534E+13	-7.680408E-16	NaN
121	1.000000	0.042501	7.36622e+06	-44689.1	955.817	-29775.5	0.000000	0.000000	6.042773	0.042746	NaN	0.000000	0.001636	0.001694	28.1129	0.054443	0.001917	28.4026	177.788	-169.181	0.097121	0.041186	-1.002366	-1.003682	0.042746	28.4026	-1.003495	-2.528262E+13	-1.690738E-15	NaN
121	1.000000	0.050490	7.36622e+06	-44689.1	955.818	-29775.5	0.000000	0.000000	6.050762	0.032454	NaN	0.000000	0.001591	0.001710	28.1137	0.084693	0.001940	43.6602	46.8839	-166.318	0.016216	0.049182	-0.994377	-0.995686	0.032454	43.6602	-0.994934	-1.938936E+13	-1.673792E-15	NaN
121	1.000000	0.058460	7.36622e+06	-44689.1	955.818	-29775.5	0.000000	0.000000	6.058731	0.029764	NaN	0.000000	0.001618	0.001717	28.1126	0.126457	0.002016	62.727	141.496	-164.868	0.000759	0.057154	-0.986408	-0.987713	0.029764	62.727	-0.986763	-1.504945E+13	-1.977741E-15	NaN
121	1.000000	0.066471	7.36622e+06	-44689.1	955.818	-29775.5	0.000000	0.000000	6.066742	0.043398	NaN	0.000000	0.001672	0.001657	28.1117	0.088781	0.002057	43.1534	-31.7248	-167.447	0.054551	0.065241	-0.978397	-0.979627	0.043398	43.1534	-0.979151	-1.188427E+13	-3.651711E-15	NaN
121	1.000000	0.074483	7.36622e+06	-44689.1	955.819	-29775.5	0.000000	0.000000	6.074755	0.044531	NaN	0.000000	0.001624	0.001648	28.1116	0.069949	0.001958	35.7331	106.162	-164.124	0.055347	0.073164	-0.970385	-0.971703	0.044531	35.7331	-0.971319	-9.320606E+12	-4.777721E-15	NaN
121	1.000000	0.082478	7.36622e+06	-44689.1	955.817	-29775.5	0.000000	0.000000	6.082750	0.048814	NaN	0.000000	0.001621	0.001674	28.112	0.086801	0.001895	45.7999	-53.2717	-168.929	0.009985	0.081225	-0.962390	-0.963643	0.048814	45.7999	-0.963189	-7.242055E+12	-6.740394E-15	NaN
121	1.000000	0.090501	7.36622e+06	-44689.1	955.818	-29775.5	0.000000	0.000000	6.090770	-0.040583	NaN	0.000000	0.001605	0.001706	28.112	0.082632	0.001951	42.3491	143.256	-164.669	-0.022002	0.089217	-0.954366	-0.955651	-0.040583	42.3491	-0.953648	-5.385398E+12	7.535835E-15	NaN
121	1.000000	0.098520	7.36622e+06	-44689.1	955.818	-29775.5	0.000000	0.000000	6.098790	-0.008113	NaN	0.000000	0.001623	0.001680	28.1122	0.044693	0.001879	23.78	-99.0282	-164.638	-0.047525	0.097162	-0.946347	-0.947705	-0.008113	23.78	-0.946091	-4.259025E+12	1.904976E-15	NaN
121	1.000000	0.106487	7.36622e+06	-44689.1	955.818	-29775.5	0.000000	0.000000	6.106760	0.061087	NaN	0.000000	0.001610	0.001683	28.1135	0.084416	0.001930	43.7432	151.101	-165.497	-0.032922	0.105196	-0.938380	-0.939672	0.061087	43.7432	-0.939427	-3.462670E+12	-1.764151E-14	NaN
121	1.000000	0.114525	7.36622e+06	-44689.1	955.819	-29775.5	0.000000	0.000000	6.114795	-0.003767	NaN	0.000000	0.001601	0.001650	28.1126	0.054261	0.002030	26.7317	-26.8163	-167.442	-0.029475	0.113267	-0.930342	-0.931601	-0.003767	26.7317	-0.930237	-2.602496E+12	1.447617E-15	NaN
121	1.000000	0.122497	7.36622e+06	-44689.1	955.818	-29775.5	0.000000	0.000000	6.122768	0.019059	NaN	0.000000	0.001664	0.001667	28.1129	0.061060	0.002191	27.8747	155.106	-163.287	0.051108	0.121236	-0.922370	-0.923632	0.019059	27.8747	-0.922883	-2.070759E+12	-9.204046E-15	NaN
121	1.000000	0.130525	7.36622e+06	-44689.1	955.818	-29775.5	0.000000	0.000000	6.130793	-0.067241	NaN	0.000000	0.001653	0.001694	28.1127	0.096867	0.002024	47.8485	-131.253	-166.878	-0.028581	0.129218	-0.914342	-0.915650	-0.067241	47.8485	-0.913288	-1.536639E+12	4.375867E-14	NaN
121	1.000000	0.138524	7.36622e+06	-44689.1	955.818	-29775.5	0.000000	0.000000	6.138792	-0.048839	NaN	0.000000	0.001665	0.001677	28.1115	0.090471	0.001969	45.9452	-162.664	-164.878	-0.042936	0.137249	-0.906344	-0.907619	-0.048839	45.9452	-0.905546	-1.207821E+12	4.043587E-14	NaN
121	1.000000	0.146542	7.36622e+06	-44689.1	955.818	-29775.5	0.000000	0.000000	6.146814	0.048679	NaN	0.000000	0.001649	0.001688	28.1114	0.084206	0.001992	42.2639	-171.956	-169.06	0.030092	0.145239	-0.898325	-0.899629	0.048679	42.2639	-0.899189	-9.910762E+11	-4.911773E-14	NaN
121	1.000000	0.154509	7.36622e+06	-44689.1	955.819	-29775.5	0.000000	0.000000	6.154781	0.031415	NaN	0.000000	0.001683	0.001637	28.1114	0.066897	0.002044	32.7214	-72.597	-167.879	0.037668	0.153221	-0.890358	-0.891646	0.031415	32.7214	-0.891078	-7.699964E+11	-4.079908E-14	NaN
121	1.000000	0.162527	7.36622e+06	-44689.1	955.819	-29775.5	0.000000	0.000000	6.162796	-0.014340	NaN	0.000000	0.001649	0.001660	28.1113	0.019213	0.002067	9.296437	66.1385	-167.896	-0.026500	0.161247	-0.882341	-0.883620	-0.014340	9.296437	-0.881184	-5.658675E+11	2.534150E-14	NaN
121	1.000000	0.170537	7.36622e+06	-44689.1	955.818	-29775.5	0.000000	0.000000	6.170807	0.002201	NaN	0.000000	0.001635	0.001704	28.1114	0.075274	0.002113	35.6285	60.7138	-164.757	-0.029999	0.169174	-0.874331	-0.875694	0.002201	35.6285	-0.874377	-4.577801E+11	-4.808890E-15	NaN
121	1.000000	0.178547	7.36622e+06	-44689.1	955.818	-29775.5	0.000000	0.000000	6.178817	-0.003946	NaN	0.000000	0.001653	0.001640	28.1127	0.077279	0.001896	40.7601	22.0443	-167.18	-0.018414	0.177255	-0.866321	-0.867613	-0.003946	40.7601	-0.866248	-3.553671E+11	1.110539E-14	NaN
121	1.000000	0.186550	7.36622e+06	-44689.1	955.818	-29775.5	0.000000	0.000000	6.186821	0.017983	NaN	0.000000	0.001669	0.001674	28.1135	0.017605	0.002162	8.142766	-70.9133	-166.321	-0.017220	0.185230	-0.858318	-0.859638	0.017983	8.142766	-0.859974	-2.922593E+11	-6.152999E-14	NaN
121	1.000000	0.194558	7.36622e+06	-44689.1	955.818	-29775.5	0.000000	0.000000	6.194829	0.028032	NaN	0.000000	0.001684	0.001684	28.1137	0.076419	0.002024	37.7652	162.957	-163.943	-0.032272	0.193276	-0.850310	-0.851592	0.028032	37.7652	-0.850866	-2.200235E+11	-1.274047E-13	NaN
121	1.000000	0.202553	7.36622e+06	-44689.1	955.818	-29775.5	0.000000	0.000000	6.202824	0.018200	NaN	0.000000	0.001669	0.001706	28.1133	0.038334	0.002063	18.5833	105.66	-166.555	-0.016765	0.201252	-0.842314	-0.843615	0.018200	18.5833	-0.843048	-1.724208E+11	-1.055567E-13	NaN
121	1.000000	0.210541	7.36622e+06	-44689.1	955.819	-29775.5	0.000000	0.000000	6.210814	0.067127	NaN	0.000000	0.001692	0.001681	28.1135	0.084669	0.002137	39.6269	176.612	-165.731	0.023001	0.209220	-0.834327	-0.835647	0.067127	39.6269	-0.835597	-1.366593E+11	-4.911987E-13	NaN
121	1.000000	0.218521	7.36622e+06	-44689.1	955.818	-29775.5	0.000000	0.000000	6.218792	0.032150	NaN	0.000000	0.001678	0.001696	28.1122	0.062326	0.001956	31.8575	-169.117	-169.756	0.021252	0.217244	-0.826347	-0.827623	0.032150	31.8575	-0.827103	-1.048388E+11	-3.066645E-13	NaN
121	1.000000	0.226549	7.36622e+06	-44689.1	955.818	-29775.5	0.000000	0.000000	6.226818	-0.037874	NaN	0.000000	0.001670	0.001686	28.1117	0.058249	0.002020	28.8348	-42.3709	-164.331	-0.046517	0.225205	-0.818318	-0.819662	-0.037874	28.8348	-0.817333	-7.727526E+10	4.901212E-13	NaN
121	1.000000	0.234565	7.36622e+06	-44689.1	955.817	-29775.5	0.000000	0.000000	6.234837	0.028835	NaN	0.000000	0.001645	0.001685	28.1119	0.033054	0.002082	15.8728	10.1953	-166.348	0.018342	0.233282	-0.810302	-0.811585	0.028835	15.8728	-0.811665	-6.473722E+10	-4.454121E-13	NaN
121	1.000000	0.242554	7.36622e+06	-44689.1	955.818	-29775.5	0.000000	0.000000	6.242828	0.077878	NaN	0.000000	0.001646	0.001726	28.1118	0.038788	0.001956	19.8265	89.7973	-165.1	0.004785	0.241251	-0.802313	-0.803617	0.077878	19.8265	-0.805259	-5.299565E+10	-1.469520E-12	NaN
121	1.000000	0.250517	7.36622e+06	-44689.1	955.819	-29775.5	0.000000	0.000000	6.250786	-0.010010	NaN	0.000000	0.001677	0.001726	28.112	0.044450	0.001883	23.6044	-37.2187	-168.722	0.001761	0.249262	-0.794351	-0.795605	-0.010010	23.6044	-0.794033	-3.731184E+10	2.682734E-13	NaN
121	1.000000	0.258567	7.36622e+06	-44689.1	955.819	-29775.5	0.000000	0.000000	6.258839	0.035976	NaN	0.000000	0.001623	0.001705	28.1128	0.025354	0.001941	13.0609	75.6945	-161.662	0.063844	0.257249	-0.786300	-0.787618	0.035976	13.0609	-0.788366	-3.125288E+10	-1.151132E-12	NaN
121	1.000000	0.266590	7.36622e+06	-44689.1	955.818	-29775.5	0.000000	0.000000	6.266860	-0.003198	NaN	0.000000	0.001623	0.001724	28.1128	0.121748	0.002046	59.5117	-153.612	-164.776	-0.004112	0.265261	-0.778277	-0.779606	-0.003198	59.5117	-0.778237	-2.276533E+10	1.404743E-13	NaN
121	1.000000	0.274590	7.36622e+06	-44689.1	955.817	-29775.5	0.000000	0.000000	6.274863	0.055288	NaN	0.000000	0.001615	0.001727	28.1132	0.139782	0.001947	71.8107	155.416	-167.536	-0.036441	0.273235	-0.770277	-0.771632	0.055288	71.8107	-0.770854	-1.806853E+10	-3.059927E-12	NaN
121	1.000000	0.282572	7.36622e+06	-44689.1	955.818	-29775.5	0.000000	0.000000	6.282847	0.115401	NaN	0.000000	0.001623	0.001697	28.1127	0.018681	0.002010	9.294014	-95.3332	-165.738	0.044761	0.281282	-0.762296	-0.763586	0.115401	9.294014	-0.771608	-1.849996E+10	-6.237904E-12	NaN
121	1.000000	0.290592	7.36622e+06	-44689.1	955.818	-29775.5	0.000000	0.000000	6.290863	0.031227	NaN	0.000000	0.001582	0.001700	28.1128	0.124766	0.002009	62.1181	-122.617	-166.683	0.051101	0.289263	-0.754276	-0.755604	0.031227	62.1181	-0.754653	-1.087788E+10	-2.870669E-12	NaN
121	1.000000	0.298601	7.36622e+06	-44689.1	955.819	-29775.5	0.000000	0.000000	6.298874	0.070359	NaN	0.000000	0.001649	0.001700	28.1113	0.091976	0.002100	43.7958	147.553	-169.034	0.016293	0.297308	-0.746266	-0.747559	0.070359	43.7958	-0.747471	-8.685539E+9	-8.100737E-12	NaN
121	1.000000	0.306552	7.36622e+06	-44689.1	955.818	-29775.5	0.000000	0.000000	6.306821	-0.021341	NaN	0.000000	0.001577	0.001713	28.1116	0.041974	0.001808	23.2145	43.574	-161.91	0.013722	0.305245	-0.738316	-0.739623	-0.021341	23.2145	-0.737626	-6.378519E+9	3.345830E-12	NaN
121	1.000000	0.314596	7.36622e+06	-44689.1	955.818	-29775.5	0.000000	0.000000	6.314865	-0.028016	NaN	0.000000	0.001589	0.001768	28.1108	0.047851	0.001892	25.2889	-91.2875	-165.898	0.004265	0.313262	-0.730272	-0.731606	-0.028016	25.2889	-0.729441	-4.933846E+9	5.678357E-12	NaN
121	1.000000	0.322592	7.36622e+06	-44689.1	955.818	-29775.5	0.000000	0.000000	6.322863	0.006870	NaN	0.000000	0.001600	0.001750	28.1099	0.040058	0.001955	20.4906	-118.644	-169.198	-0.035393	0.321325	-0.722275	-0.723542	0.006870	20.4906	-0.722526	-3.971232E+9	-1.730014E-12	NaN
121	1.000000	0.330600	7.36622e+06	-44689.1	955.818	-29775.5	0.000000	0.000000	6.330869	-0.030227	NaN	0.000000	0.001637	0.001733	28.1099	0.018854	0.002059	9.155970	85.6614	-167.7	-0.080880	0.329287	-0.714267	-0.715580	-0.030227	9.155970	-0.711791	-2.834603E+9	1.066362E-11	NaN
121	1.000000	0.338645	7.36622e+06	-44689.1	955.818	-29775.5	0.000000	0.000000	6.338918	0.055971	NaN	0.000000	0.001611	0.001749	28.1113	0.065976	0.001988	33.1808	-114.011	-163.571	0.064516	0.337308	-0.706222	-0.707559	0.055971	33.1808	-0.707487	-2.476006E+9	-2.260555E-11	NaN
121	1.000000	0.346590	7.36622e+06	-44689.1	955.818	-29775.5	0.000000	0.000000	6.346860	-0.012968	NaN	0.000000	0.001577	0.001712	28.1114	0.037530	0.002006	18.7096	99.0461	-170.689	-0.017396	0.345253	-0.698277	-0.699614	-0.012968	18.7096	-0.697757	-1.823493E+9	7.111544E-12	NaN
121	1.000000	0.354603	7.36622e+06	-44689.1	955.818	-29775.5	0.000000	0.000000	6.354872	-0.021909	NaN	0.000000	0.001593	0.001710	28.1109	0.088963	0.001979	44.9426	-153.334	-164.539	-0.003275	0.353279	-0.690264	-0.691588	-0.021909	44.9426	-0.689899	-1.424073E+9	1.538478E-11	NaN
121	1.000000	0.362618	7.36622e+06	-44689.1	955.819	-29775.5	0.000000	0.000000	6.362888	-0.011705	NaN	0.000000	0.001605	0.001692	28.1106	0.024249	0.001986	12.2074	-111.856	-163.649	0.039574	0.361229	-0.682249	-0.683638	-0.011705	12.2074	-0.681530	-1.094287E+9	1.069664E-11	NaN
121	1.000000	0.370630	7.36622e+06	-44689.1	955.818	-29775.5	0.000000	0.000000	6.370897	-0.073008	NaN	0.000000	0.001605	0.001695	28.1106	0.102968	0.002053	50.1507	-96.0538	-164.394	-0.009881	0.369310	-0.674237	-0.675557	-0.073008	50.1507	-0.673146	-8.403053E+8	8.688325E-11	NaN
121	1.000000	0.378601	7.36622e+06	-44689.1	955.818	-29775.5	0.000000	0.000000	6.378873	0.034231	NaN	0.000000	0.001603	0.001691	28.1103	0.062405	0.002031	30.7239	-20.789	-164.507	-0.034247	0.377332	-0.666266	-0.667536	0.034231	30.7239	-0.667102	-6.945683E+8	-4.928345E-11	NaN
121	1.000000	0.386614	7.36622e+06	-44689.1	955.818	-29775.5	0.000000	0.000000	6.386885	0.024350	NaN	0.000000	0.001600	0.001685	28.1097	0.079548	0.002018	39.4281	2.078868	-165.504	0.107030	0.385329	-0.658254	-0.659538	0.024350	39.4281	-0.658717	-5.332043E+8	-4.566687E-11	NaN
121	1.000000	0.394641	7.36622e+06	-44689.1	955.819	-29775.5	0.000000	0.000000	6.394913	0.042543	NaN	0.000000	0.001603	0.001658	28.1095	0.064261	0.002007	32.0164	-28.9794	-163.935	0.038968	0.393250	-0.650226	-0.651618	0.042543	32.0164	-0.651223	-4.209219E+8	-1.010700E-10	NaN
121	1.000000	0.402628	7.36622e+06	-44689.1	955.818	-29775.5	0.000000	0.000000	6.402898	-0.002826	NaN	0.000000	0.001558	0.001702	28.1099	0.108132	0.001984	54.4941	125.712	-165.336	-0.007161	0.401312	-0.642240	-0.643555	-0.002826	54.4941	-0.642201	-3.165808E+8	8.925963E-12	NaN
121	1.000000	0.410650	7.36622e+06	-44689.1	955.818	-29775.5	0.000000	0.000000	6.410926	0.137805	NaN	0.000000	0.001552	0.001657	28.1095	0.023700	0.001898	12.4863	88.3482	-164.753	0.111894	0.409241	-0.634217	-0.635626	0.137805	12.4863	-0.642494	-3.195302E+8	-4.312753E-10	NaN
121	1.000000	0.418641	7.36622e+06	-44689.1	955.817	-29775.5	0.000000	0.000000	6.418911	-0.000369	NaN	0.000000	0.001564	0.001679	28.1107	0.109087	0.002059	52.9914	166.594	-165.461	0.082763	0.417352	-0.626226	-0.627516	-0.000369	52.9914	-0.626221	-1.910384E+8	1.929840E-12	NaN
121	1.000000	0.426643	7.36622e+06	-44689.1	955.818	-29775.5	0.000000	0.000000	6.426916	0.075739	NaN	0.000000	0.001558	0.001640	28.1102	0.034969	0.001915	18.2614	21.5812	-168.478	0.067600	0.425310	-0.618224	-0.619557	0.075739	18.2614	-0.621335	-1.636749E+8	-4.627432E-10	NaN
121	1.000000	0.434605	7.36622e+06	-44689.1	955.818	-29775.5	0.000000	0.000000	6.434877	0.059565	NaN	0.000000	0.001583	0.001683	28.1109	0.101297	0.001870	54.178	21.7314	-169.602	0.066636	0.433332	-0.610262	-0.611535	0.059565	54.178	-0.611087	-1.183230E+8	-5.034084E-10	NaN
121	1.000000	0.442633	7.36622e+06	-44689.1	955.818	-29775.5	0.000000	0.000000	6.442900	-0.081900	NaN	0.000000	0.001566	0.001674	28.111	0.073161	0.002086	35.0677	88.0055	-168.148	-0.093766	0.441347	-0.602235	-0.603520	-0.081900	35.0677	-0.600483	-8.454966E+7	9.686579E-10	NaN
121	1.000000	0.450650	7.36622e+06	-44689.1	955.818	-29775.5	0.000000	0.000000	6.450922	0.053163	NaN	0.000000	0.001595	0.001664	28.1115	0.036564	0.002128	17.1857	64.9436	-165.397	-0.002670	0.449338	-0.594217	-0.595530	0.053163	17.1857	-0.596538	-7.460479E+7	-7.125977E-10	NaN
121	1.000000	0.458632	7.36622e+06	-44689.1	955.818	-29775.5	0.000000	0.000000	6.458900	-0.054747	NaN	0.000000	0.001578	0.001687	28.1113	0.055974	0.001968	28.4467	57.0316	-164.65	-0.006794	0.457335	-0.586235	-0.587533	-0.054747	28.4467	-0.584792	-5.138594E+7	1.065400E-9	NaN
121	1.000000	0.466664	7.36622e+06	-44689.1	955.819	-29775.5	0.000000	0.000000	6.466935	0.028786	NaN	0.000000	0.001585	0.001693	28.1108	0.170588	0.001939	87.9836	116.592	-166.654	-0.069072	0.465322	-0.578203	-0.579545	0.028786	87.9836	-0.578449	-4.200603E+7	-6.852919E-10	NaN
121	1.000000	0.474661	7.36622e+06	-44689.1	955.818	-29775.5	0.000000	0.000000	6.474931	-0.004063	NaN	0.000000	0.001592	0.001674	28.1103	0.097522	0.002035	47.9196	155.063	-165.817	0.008740	0.473366	-0.570206	-0.571502	-0.004063	47.9196	-0.570143	-3.225570E+7	1.259585E-10	NaN
121	1.000000	0.482657	7.36622e+06	-44689.1	955.817	-29775.5	0.000000	0.000000	6.482930	0.071031	NaN	0.000000	0.001589	0.001671	28.1115	0.092811	0.001965	47.2212	153.197	-165.154	0.035901	0.481322	-0.562210	-0.563546	0.071031	47.2212	-0.563338	-2.597473E+7	-2.734609E-9	NaN
121	1.000000	0.490699	7.36622e+06	-44689.1	955.818	-29775.5	0.000000	0.000000	6.490972	0.057055	NaN	0.000000	0.001575	0.001684	28.1106	0.074273	0.002052	36.1998	114.074	-165.642	0.062997	0.489360	-0.554168	-0.555508	0.057055	36.1998	-0.555350	-2.013893E+7	-2.833059E-9	NaN
121	1.000000	0.498692	7.36622e+06	-44689.1	955.818	-29775.5	0.000000	0.000000	6.498967	0.102312	NaN	0.000000	0.001584	0.001669	28.1117	0.065503	0.001975	33.1626	-174.317	-169.129	0.045084	0.497342	-0.546175	-0.547525	0.102312	33.1626	-0.548489	-1.618172E+7	-6.322667E-9	NaN
121	1.000000	0.506685	7.36622e+06	-44689.1	955.817	-29775.5	0.000000	0.000000	6.506957	0.041874	NaN	0.000000	0.001586	0.001663	28.1117	0.099847	0.001950	51.193	173.817	-166.249	-0.017622	0.505339	-0.538182	-0.539528	0.041874	51.193	-0.538796	-1.187563E+7	-3.526052E-9	NaN
121	1.000000	0.514676	7.36622e+06	-44689.1	955.818	-29775.5	0.000000	0.000000	6.514947	0.018231	NaN	0.000000	0.001559	0.001662	28.1114	0.039081	0.001960	19.9397	74.1172	-165.277	-0.034516	0.513379	-0.530191	-0.531488	0.018231	19.9397	-0.530877	-9.22039e+06	-1.977274E-9	NaN
121	1.000000	0.522698	7.36622e+06	-44689.1	955.819	-29775.5	0.000000	0.000000	6.522969	0.024035	NaN	0.000000	0.001576	0.001666	28.112	0.065238	0.001992	32.7566	160.836	-165.196	-0.037050	0.521330	-0.522170	-0.523537	0.024035	32.7566	-0.522720	-7.10263e+06	-3.384004E-9	NaN
121	1.000000	0.530706	7.36622e+06	-44689.1	955.819	-29775.5	0.000000	0.000000	6.530976	0.005231	NaN	0.000000	0.001580	0.001688	28.1115	0.054615	0.001991	27.4332	2.168856	-167.223	-0.044176	0.529413	-0.514161	-0.515454	0.005231	27.4332	-0.514304	-5.42436e+06	-9.642820E-10	NaN
121	1.000000	0.538691	7.36622e+06	-44689.1	955.817	-29775.5	0.000000	0.000000	6.538961	-0.007852	NaN	0.000000	0.001601	0.001696	28.1113	0.027223	0.001868	14.5731	-158.331	-167.169	0.009872	0.537388	-0.506176	-0.507479	-0.007852	14.5731	-0.505772	-4.12582e+06	1.903181E-9	NaN
121	1.000000	0.546697	7.36622e+06	-44689.1	955.818	-29775.5	0.000000	0.000000	6.546968	0.039378	NaN	0.000000	0.001607	0.001665	28.1101	0.081489	0.001957	41.6408	96.243	-166.918	0.028300	0.545419	-0.498171	-0.499449	0.039378	41.6408	-0.498880	-3.30666e+06	-1.190861E-8	NaN
121	1.000000	0.554684	7.36622e+06	-44689.1	955.819	-29775.5	0.000000	0.000000	6.554956	0.053874	NaN	0.000000	0.001584	0.001689	28.1105	0.007174	0.002028	3.536648	-72.7487	-167.14	0.016214	0.553381	-0.490183	-0.491486	0.053874	3.536648	-0.501608	-3.60954e+06	-1.492548E-8	NaN
121	1.000000	0.562730	7.36622e+06	-44689.1	955.818	-29775.5	0.000000	0.000000	6.562998	-0.048257	NaN	0.000000	0.001557	0.001690	28.1102	0.032137	0.002080	15.4527	-52.755	-163.098	-0.081196	0.561471	-0.482138	-0.483396	-0.048257	15.4527	-0.479796	-1.78923e+06	2.697073E-8	NaN
121	1.000000	0.570719	7.36622e+06	-44689.1	955.818	-29775.5	0.000000	0.000000	6.570991	0.055040	NaN	0.000000	0.001579	0.001673	28.1106	0.090347	0.002030	44.4985	132.443	-165.401	-0.004703	0.569388	-0.474149	-0.475479	0.055040	44.4985	-0.475076	-1.53663e+06	-3.581849E-8	NaN
121	1.000000	0.578664	7.36622e+06	-44689.1	955.818	-29775.5	0.000000	0.000000	6.578936	0.056008	NaN	0.000000	0.001578	0.001636	28.112	0.068069	0.001936	35.1646	-75.4831	-167.974	0.115210	0.577425	-0.466204	-0.467443	0.056008	35.1646	-0.467398	-1.19924e+06	-4.670293E-8	NaN
121	1.000000	0.586683	7.36622e+06	-44689.1	955.818	-29775.5	0.000000	0.000000	6.586954	0.018727	NaN	0.000000	0.001551	0.001674	28.1095	0.061330	0.002008	30.5434	-146.125	-164.472	-0.016499	0.585371	-0.458185	-0.459497	0.018727	30.5434	-0.458645	-903582	-2.072475E-8	NaN
121	1.000000	0.594712	7.36622e+06	-44689.1	955.817	-29775.5	0.000000	0.000000	6.594980	-0.072171	NaN	0.000000	0.001565	0.001692	28.1101	0.107375	0.001994	53.8407	171.444	-164.065	-0.018012	0.593401	-0.450155	-0.451466	-0.072171	53.8407	-0.449150	-664303	1.086411E-7	NaN
121	1.000000	0.602692	7.36622e+06	-44689.1	955.819	-29775.5	0.000000	0.000000	6.602962	-0.019982	NaN	0.000000	0.001567	0.001696	28.1103	0.048213	0.001953	24.685	78.3372	-167.825	0.009823	0.601415	-0.442175	-0.443453	-0.019982	24.685	-0.441568	-519383	3.847261E-8	NaN
121	1.000000	0.610699	7.36622e+06	-44689.1	955.817	-29775.5	0.000000	0.000000	6.610969	0.009625	NaN	0.000000	0.001576	0.001722	28.1098	0.106188	0.001968	53.9671	80.6565	-164.263	-0.027788	0.609387	-0.434169	-0.435480	0.009625	53.9671	-0.434303	-410109	-2.347053E-8	NaN
121	1.000000	0.618736	7.36622e+06	-44689.1	955.819	-29775.5	0.000000	0.000000	6.619007	0.026999	NaN	0.000000	0.001539	0.001703	28.1094	0.053704	0.001995	26.9162	-106.259	-164.352	0.039918	0.617381	-0.426132	-0.427486	0.026999	26.9162	-0.426884	-322078	-8.382890E-8	NaN
121	1.000000	0.626735	7.36622e+06	-44689.1	955.817	-29775.5	0.000000	0.000000	6.627006	0.021816	NaN	0.000000	0.001584	0.001668	28.1089	0.054173	0.002035	26.6178	-160.173	-165.432	0.025559	0.625373	-0.418132	-0.419494	0.021816	26.6178	-0.418747	-246967	-8.833435E-8	NaN
121	1.000000	0.634717	7.36622e+06	-44689.1	955.819	-29775.5	0.000000	0.000000	6.634985	-0.059950	NaN	0.000000	0.001589	0.001697	28.1086	0.090625	0.001890	47.9603	76.4702	-168.519	-0.032461	0.633460	-0.410150	-0.411407	-0.059950	47.9603	-0.409213	-180804	3.315723E-7	NaN
121	1.000000	0.642738	7.36622e+06	-44689.1	955.818	-29775.5	0.000000	0.000000	6.643008	-0.009914	NaN	0.000000	0.001547	0.001697	28.1081	0.005912	0.002005	2.948565	156.524	-162.53	0.035291	0.641432	-0.402129	-0.403436	-0.009914	2.948565	-0.399607	-131945	7.513414E-8	NaN
121	1.000000	0.650720	7.36622e+06	-44689.1	955.817	-29775.5	0.000000	0.000000	6.650992	0.051003	NaN	0.000000	0.001556	0.001697	28.1089	0.035954	0.001964	18.3078	156.572	-164.554	0.011570	0.649455	-0.394148	-0.395412	0.051003	18.3078	-0.396237	-118114	-4.318082E-7	NaN
121	1.000000	0.658739	7.36622e+06	-44689.1	955.819	-29775.5	0.000000	0.000000	6.659010	0.009707	NaN	0.000000	0.001600	0.001739	28.1092	0.097808	0.001984	49.2972	81.6424	-164.128	-0.043011	0.657456	-0.386128	-0.387411	0.009707	49.2972	-0.386276	-85086.9	-1.140882E-7	NaN
121	1.000000	0.666733	7.36622e+06	-44689.1	955.817	-29775.5	0.000000	0.000000	6.667004	0.022099	NaN	0.000000	0.001643	0.001705	28.1099	0.096578	0.001969	49.0605	-153.821	-162.535	-0.000934	0.665392	-0.378134	-0.379475	0.022099	49.0605	-0.378472	-65758.6	-3.360587E-7	NaN
121	1.000000	0.674737	7.36622e+06	-44689.1	955.818	-29775.5	0.000000	0.000000	6.675007	0.015475	NaN	0.000000	0.001638	0.001696	28.1096	0.034149	0.001915	17.8303	-21.464	-164.776	-0.003735	0.673468	-0.370131	-0.371400	0.015475	17.8303	-0.370782	-50978.3	-3.035646E-7	NaN
121	1.000000	0.682729	7.36622e+06	-44689.1	955.818	-29775.5	0.000000	0.000000	6.682999	0.001205	NaN	0.000000	0.001657	0.001694	28.1099	0.065606	0.001958	33.5031	-174.113	-165.856	-0.008934	0.681463	-0.362138	-0.363405	0.001205	33.5031	-0.362165	-38294.4	-3.145676E-8	NaN
121	1.000000	0.690765	7.36622e+06	-44689.1	955.818	-29775.5	0.000000	0.000000	6.691035	0.000683	NaN	0.000000	0.001700	0.001667	28.1091	0.120528	0.001945	61.9658	-31.8571	-164.166	-0.012963	0.689405	-0.354102	-0.355463	0.000683	61.9658	-0.354111	-29282.8	-2.333137E-8	NaN
121	1.000000	0.698767	7.36622e+06	-44689.1	955.818	-29775.5	0.000000	0.000000	6.699036	-0.014792	NaN	0.000000	0.001638	0.001708	28.1081	0.106497	0.002132	49.9476	124.323	-165.978	-0.048518	0.697456	-0.346101	-0.347412	-0.014792	49.9476	-0.345879	-22240	6.650965E-7	NaN
121	1.000000	0.706718	7.36622e+06	-44689.1	955.818	-29775.5	0.000000	0.000000	6.706988	-0.007925	NaN	0.000000	0.001642	0.001665	28.1084	0.079212	0.002041	38.8052	-140.541	-168.023	0.025503	0.705432	-0.338149	-0.339436	-0.007925	38.8052	-0.337996	-17073.8	4.641623E-7	NaN
121	1.000000	0.714765	7.36622e+06	-44689.1	955.818	-29775.5	0.000000	0.000000	6.715035	-0.001050	NaN	0.000000	0.001657	0.001683	28.1083	0.143071	0.002048	69.855	-131.322	-165.854	0.055274	0.713423	-0.330102	-0.331445	-0.001050	69.855	-0.330091	-13085.4	8.022849E-8	NaN
121	1.000000	0.722793	7.36622e+06	-44689.1	955.818	-29775.5	0.000000	0.000000	6.723064	0.017167	NaN	0.000000	0.001664	0.001662	28.1094	0.068277	0.001967	34.7099	179.086	-166.392	-0.038846	0.721526	-0.322074	-0.323342	0.017167	34.7099	-0.322445	-10106.6	-1.698614E-6	NaN
121	1.000000	0.730758	7.36622e+06	-44689.1	955.818	-29775.5	0.000000	0.000000	6.731028	-0.001946	NaN	0.000000	0.001676	0.001695	28.1096	0.065038	0.001954	33.2889	-43.9032	-169.517	0.016612	0.729514	-0.314110	-0.315353	-0.001946	33.2889	-0.314066	-7605.99	2.558831E-7	NaN
121	1.000000	0.738750	7.36622e+06	-44689.1	955.818	-29775.5	0.000000	0.000000	6.739022	0.059551	NaN	0.000000	0.001677	0.001647	28.1104	0.027441	0.001963	13.9795	52.7895	-163.923	0.079486	0.737462	-0.306118	-0.307405	0.059551	13.9795	-0.309313	-6469.64	-9.204715E-6	NaN
121	1.000000	0.746765	7.36622e+06	-44689.1	955.819	-29775.5	0.000000	0.000000	6.747034	-0.018532	NaN	0.000000	0.001655	0.001658	28.1102	0.087451	0.002049	42.6738	130.71	-165.712	0.012641	0.745415	-0.298102	-0.299453	-0.018532	42.6738	-0.297777	-4360.3	4.250169E-6	NaN
121	1.000000	0.754780	7.36622e+06	-44689.1	955.818	-29775.5	0.000000	0.000000	6.755050	-0.016965	NaN	0.000000	0.001656	0.001683	28.11	0.062880	0.002043	30.7775	-20.8937	-165.286	0.017264	0.753492	-0.290087	-0.291375	-0.016965	30.7775	-0.289674	-3299.25	5.142033E-6	NaN
121	1.000000	0.762792	7.36622e+06	-44689.1	955.818	-29775.5	0.000000	0.000000	6.763064	0.048882	NaN	0.000000	0.001645	0.001680	28.1105	0.058755	0.001920	30.5948	-118.112	-169.63	-0.020843	0.761451	-0.282075	-0.283417	0.048882	30.5948	-0.283273	-2644.2	-1.848645E-5	NaN
121	1.000000	0.770749	7.36622e+06	-44689.1	955.818	-29775.5	0.000000	0.000000	6.771019	-0.005860	NaN	0.000000	0.001671	0.001651	28.1103	0.083126	0.002065	40.2594	120.31	-164.78	-0.003638	0.769459	-0.274119	-0.275408	-0.005860	40.2594	-0.274009	-1916	3.058536E-6	NaN
121	1.000000	0.778803	7.36622e+06	-44689.1	955.817	-29775.5	0.000000	0.000000	6.779070	-0.074729	NaN	0.000000	0.001633	0.001686	28.1095	0.010250	0.002136	4.799392	-37.5927	-164.666	-0.076868	0.777511	-0.266065	-0.267356	-0.074729	4.799392	-0.254387	-960.885	7.777143E-5	NaN
121	1.000000	0.786775	7.36622e+06	-44689.1	955.818	-29775.5	0.000000	0.000000	6.787046	0.017530	NaN	0.000000	0.001649	0.001658	28.1092	0.087382	0.001938	45.0982	91.7441	-165.821	0.049668	0.785494	-0.258093	-0.259373	0.017530	45.0982	-0.258384	-1106.97	-1.583628E-5	NaN
121	1.000000	0.794793	7.36622e+06	-44689.1	955.818	-29775.5	0.000000	0.000000	6.795061	-0.057588	NaN	0.000000	0.001647	0.001673	28.1088	0.076134	0.001981	38.4276	114.595	-163.752	-0.052463	0.793511	-0.250074	-0.251356	-0.057588	38.4276	-0.248950	-791.99	7.271319E-5	NaN
121	1.000000	0.802799	7.36622e+06	-44689.1	955.818	-29775.5	0.000000	0.000000	6.803071	0.048209	NaN	0.000000	0.001602	0.001657	28.1091	0.062723	0.001978	31.7146	174.239	-166.03	0.040253	0.801492	-0.242068	-0.243375	0.048209	31.7146	-0.243208	-645.036	-7.473790E-5	NaN
121	1.000000	0.810802	7.36622e+06	-44689.1	955.817	-29775.5	0.000000	0.000000	6.811075	0.070356	NaN	0.000000	0.001585	0.001694	28.1094	0.077416	0.001942	39.8663	2.609714	-166.978	0.011545	0.809486	-0.234066	-0.235382	0.070356	39.8663	-0.235389	-486.813	-0.000145	NaN
121	1.000000	0.818777	7.36622e+06	-44689.1	955.818	-29775.5	0.000000	0.000000	6.819050	0.076908	NaN	0.000000	0.001611	0.001687	28.1094	0.057685	0.001961	29.4202	48.0054	-169.419	0.093829	0.817517	-0.226091	-0.227351	0.076908	29.4202	-0.228051	-373	-0.000206	NaN
121	1.000000	0.826805	7.36622e+06	-44689.1	955.818	-29775.5	0.000000	0.000000	6.827076	0.044264	NaN	0.000000	0.001593	0.001687	28.1094	0.005253	0.002036	2.580802	81.6952	-166.568	-0.034456	0.825471	-0.218063	-0.219396	0.044264	2.580802	-0.230926	-414.131	-0.000107	NaN
121	1.000000	0.834768	7.36622e+06	-44689.1	955.818	-29775.5	0.000000	0.000000	6.835039	0.034424	NaN	0.000000	0.001593	0.001726	28.11	0.060893	0.001901	32.0291	83.1045	-166.129	-0.049381	0.833475	-0.210100	-0.211393	0.034424	32.0291	-0.210906	-198.37	-0.000174	NaN
121	1.000000	0.842809	7.36622e+06	-44689.1	955.818	-29775.5	0.000000	0.000000	6.843080	0.036260	NaN	0.000000	0.001611	0.001699	28.1093	0.048001	0.002034	23.5946	-137.947	-168.16	0.018680	0.841522	-0.202059	-0.203346	0.036260	23.5946	-0.203211	-148.711	-0.000244	NaN
121	1.000000	0.850821	7.36622e+06	-44689.1	955.818	-29775.5	0.000000	0.000000	6.851092	0.018384	NaN	0.000000	0.001578	0.001712	28.11	0.081074	0.001879	43.1541	32.4809	-169.136	0.119789	0.849554	-0.194047	-0.195313	0.018384	43.1541	-0.194366	-106.34	-0.000173	NaN
121	1.000000	0.858796	7.36622e+06	-44689.1	955.818	-29775.5	0.000000	0.000000	6.859067	0.011317	NaN	0.000000	0.001607	0.001695	28.1079	0.075485	0.002079	36.3164	-95.7013	-169.214	-0.008535	0.857540	-0.186071	-0.187327	0.011317	36.3164	-0.186305	-78.0012	-0.000145	NaN
121	1.000000	0.866794	7.36622e+06	-44689.1	955.818	-29775.5	0.000000	0.000000	6.867062	-0.048172	NaN	0.000000	0.001616	0.001718	28.1073	0.035848	0.002037	17.6003	18.5682	-168.265	-0.062554	0.865500	-0.178073	-0.179367	-0.048172	17.6003	-0.176021	-52.1795	0.000923	NaN
121	1.000000	0.874797	7.36622e+06	-44689.1	955.819	-29775.5	0.000000	0.000000	6.875069	0.027761	NaN	0.000000	0.001616	0.001698	28.1075	0.039921	0.002045	19.5261	-6.470741	-165.036	0.024798	0.873501	-0.170070	-0.171366	0.027761	19.5261	-0.171136	-42.9857	-0.000646	NaN
121	1.000000	0.882830	7.36622e+06	-44689.1	955.819	-29775.5	0.000000	0.000000	6.883101	0.011718	NaN	0.000000	0.001625	0.001713	28.107	0.087772	0.002047	42.8722	-135.518	-166.78	0.127996	0.881556	-0.162037	-0.163311	0.011718	42.8722	-0.162242	-30.0414	-0.000390	NaN
121	1.000000	0.890836	7.36622e+06	-44689.1	955.818	-29775.5	0.000000	0.000000	6.891108	0.055313	NaN	0.000000	0.001596	0.001703	28.1076	0.076424	0.001769	43.1963	144.699	-163.621	0.000261	0.889507	-0.154032	-0.155361	0.055313	43.1963	-0.154992	-22.3069	-0.002480	NaN
121	1.000000	0.898838	7.36622e+06	-44689.1	955.817	-29775.5	0.000000	0.000000	6.899111	0.057861	NaN	0.000000	0.001590	0.001712	28.1082	0.092988	0.002087	44.5568	-92.5113	-165.278	0.106553	0.897510	-0.146029	-0.147357	0.057861	44.5568	-0.147003	-15.963	-0.003625	NaN
121	1.000000	0.906816	7.36622e+06	-44689.1	955.818	-29775.5	0.000000	0.000000	6.907089	0.071039	NaN	0.000000	0.001592	0.001698	28.1082	0.030111	0.002036	14.793	-144.347	-167.809	0.006086	0.905531	-0.138052	-0.139337	0.071039	14.793	-0.141654	-12.7042	-0.005592	NaN
121	1.000000	0.914875	7.36622e+06	-44689.1	955.818	-29775.5	0.000000	0.000000	6.915146	0.025032	NaN	0.000000	0.001625	0.001665	28.109	0.053609	0.001917	27.9602	93.9701	-164.726	0.059810	0.913465	-0.129993	-0.131402	0.025032	27.9602	-0.130664	-7.850500	-0.003189	NaN
121	1.000000	0.922821	7.36622e+06	-44689.1	955.818	-29775.5	0.000000	0.000000	6.923093	0.036535	NaN	0.000000	0.001636	0.001718	28.1086	0.086633	0.001959	44.2142	-18.1891	-165.621	0.093036	0.921563	-0.122046	-0.123305	0.036535	44.2142	-0.122666	-5.465068	-0.006685	NaN
121	1.000000	0.930865	7.36622e+06	-44689.1	955.818	-29775.5	0.000000	0.000000	6.931136	0.042274	NaN	0.000000	0.001627	0.001659	28.1081	0.073480	0.002121	34.6436	127.026	-164.354	0.063571	0.929484	-0.114003	-0.115384	0.042274	34.6436	-0.114918	-3.805536	-0.011108	NaN
121	1.000000	0.938840	7.36622e+06	-44689.1	955.819	-29775.5	0.000000	0.000000	6.939112	0.042691	NaN	0.000000	0.001636	0.001649	28.108	0.073465	0.001967	37.3447	25.9602	-166.173	0.032225	0.937588	-0.106027	-0.107280	0.042691	37.3447	-0.106885	-2.580477	-0.016544	NaN
121	1.000000	0.946843	7.36622e+06	-44689.1	955.817	-29775.5	0.000000	0.000000	6.947113	0.002193	NaN	0.000000	0.001614	0.001693	28.1065	0.075547	0.001946	38.8125	97.8946	-163.223	-0.054745	0.945514	-0.098025	-0.099353	0.002193	38.8125	-0.098067	-1.654629	-0.001325	NaN
121	1.000000	0.954870	7.36623e+06	-44689.1	955.818	-29775.5	0.000000	0.000000	6.955141	0.010709	NaN	0.000000	0.001593	0.001662	28.1069	0.045394	0.001982	22.9056	-177.954	-168.725	0.067648	0.953555	-0.089997	-0.091312	0.010709	22.9056	-0.090348	-1.101456	-0.009722	NaN
121	1.000000	0.962858	7.36623e+06	-44689.1	955.818	-29775.5	0.000000	0.000000	6.963128	0.015092	NaN	0.000000	0.001600	0.001722	28.1074	0.116260	0.001990	58.412	65.2066	-169.821	-0.044152	0.961585	-0.082010	-0.083282	0.015092	58.412	-0.082203	-0.702074	-0.021496	NaN
121	1.000000	0.970857	7.36623e+06	-44689.1	955.819	-29775.5	0.000000	0.000000	6.971129	0.032208	NaN	0.000000	0.001636	0.001711	28.1072	0.093140	0.002016	46.2049	-84.9676	-165.409	0.028062	0.969583	-0.074010	-0.075284	0.032208	46.2049	-0.074533	-0.449180	-0.071703	NaN
121	1.000000	0.978866	7.36623e+06	-44689.1	955.818	-29775.5	0.000000	0.000000	6.979134	-0.042317	NaN	0.000000	0.001633	0.001712	28.1084	0.036709	0.002101	17.4702	-106.524	-167.488	-0.073089	0.977578	-0.066002	-0.067290	-0.042317	17.4702	-0.064185	-0.236540	0.178900	NaN
121	1.000000	0.986877	7.36623e+06	-44689.1	955.818	-29775.5	0.000000	0.000000	6.987147	0.006109	NaN	0.000000	0.001632	0.001704	28.1082	0.112504	0.001943	57.9119	-19.3755	-167.878	0.078437	0.985554	-0.057990	-0.059313	0.006109	57.9119	-0.058070	-0.158410	-0.038567	NaN
121	1.000000	0.994906	7.36623e+06	-44689.1	955.819	-29775.5	0.000000	0.000000	6.995174	-0.064524	NaN	0.000000	0.001614	0.001711	28.1084	0.050392	0.001845	27.308	63.2013	-167.35	0.109535	0.993557	-0.049961	-0.051310	-0.064524	27.308	-0.048189	-0.080408	0.802452	NaN
121	1.000000	1.002849	7.36623e+06	-44689.1	955.818	-29775.5	0.000000	0.000000	7.003118	-0.030959	NaN	0.000000	0.001615	0.001696	28.109	0.050212	0.002003	25.0685	-152.244	-165.705	0.001317	1.001593	-0.042018	-0.043274	-0.030959	25.0685	-0.041092	-0.048818	0.634176	NaN
121	1.000000	1.010888	7.36623e+06	-44689.1	955.818	-29775.5	0.000000	0.000000	7.011159	0.021502	NaN	0.000000	0.001615	0.001701	28.1095	0.044661	0.001819	24.5552	-154.813	-164.282	-0.000466	1.009564	-0.033979	-0.035304	0.021502	24.5552	-0.034636	-0.031245	-0.688178	NaN
121	1.000000	1.018882	7.36623e+06	-44689.1	955.818	-29775.5	0.000000	0.000000	7.019152	-0.012402	NaN	0.000000	0.001604	0.001701	28.1089	0.031987	0.001891	16.9165	101.767	-162.434	-0.087673	1.017560	-0.025985	-0.027308	-0.012402	16.9165	-0.025435	-0.017319	0.716127	NaN
121	1.000000	1.026895	7.36623e+06	-44689.1	955.818	-29775.5	0.000000	0.000000	7.027167	0.038544	NaN	0.000000	0.001573	0.001726	28.108	0.124934	0.001988	62.8437	-19.2296	-165.379	-0.042457	1.025565	-0.017972	-0.019303	0.038544	62.8437	-0.018432	-0.011453	-3.365338	NaN
121	1.000000	1.034893	7.36623e+06	-44689.1	955.819	-29775.5	0.000000	0.000000	7.035181	0.436645	NaN	0.000000	0.001655	0.001691	28.1077	0.332035	0.002083	159.401	23.9852	-172.128	0.416033	1.033592	-0.009974	-0.011275	0.436645	159.401	-0.012029	-0.007545	-57.8728	NaN
121	1.000000	1.042874	7.36623e+06	-44689.1	955.819	-29775.5	0.000000	0.000000	7.043183	0.955024	NaN	0.000000	0.001633	0.001686	28.1075	0.919765	0.001897	484.726	13.5709	-163.041	0.752667	1.041641	-0.001994	-0.003226	0.955024	484.726	-0.003471	-0.002433	-392.453	NaN
121	1.000000	1.050912	7.36623e+06	-44689.1	955.818	-29775.5	0.000000	0.000000	7.051290	2.629292	NaN	0.000000	0.001613	0.001718	28.1077	2.085828	0.002031	1027.03	20.2604	-165.762	2.375338	1.049574	0.006044	0.004706	2.629292	1027.03	0.004124	0.003348	785.329	16216.7
121	1.000000	1.058903	7.36623e+06	-44689.1	955.818	-29775.5	0.000000	0.000000	7.059343	4.121267	NaN	0.000000	0.001608	0.001709	28.1089	3.244712	0.002009	1614.71	28.3191	-172.301	4.288550	1.057614	0.014036	0.012747	4.121267	1614.71	0.012122	0.011636	354.183	13676.2
121	1.000000	1.066911	7.36623e+06	-44689.1	955.818	-29775.5	0.000000	0.000000	7.067365	4.476258	NaN	0.000000	0.001668	0.001716	28.1089	4.435302	0.001889	2347.5	28.8301	-174.172	4.557907	1.065588	0.022043	0.020720	4.476258	2347.5	0.020613	0.023515	190.358	13986.4
121	1.000000	1.074770	7.36623e+06	-44689.1	955.818	-29775.5	0.000000	0.000000	7.075359	7.751327	NaN	0.000000	0.001705	0.001728	28.1087	7.512142	0.001800	4173.31	22.6976	-173.984	7.269182	1.073525	0.029902	0.028658	7.751327	4173.31	0.028509	0.037711	205.546	19634.5
121	2.000000	1.077475	7.36623e+06	-44689.1	955.817	-29775.5	0.000000	0.000000	7.078052	7.466082	NaN	0.000000	0.001692	0.001726	28.1089	8.658725	0.001899	4560.09	14.9261	-171.844	7.518021	1.077196	0.032608	0.032328	7.466082	4560.09	0.031380	0.043652	171.037	19940.9
121	2.000000	1.079413	7.36623e+06	-44689.1	955.818	-29775.5	0.000000	0.000000	7.080075	9.539769	NaN	0.000000	0.001667	0.001696	28.1079	10.1953	0.001726	5906.39	15.1027	-176.248	8.866777	1.079123	0.034546	0.034256	9.539769	5906.39	0.033334	0.047939	198.999	24646.3
121	2.000000	1.081399	7.36623e+06	-44689.1	955.818	-29775.5	0.000000	0.000000	7.082141	11.4692	NaN	0.000000	0.001700	0.001699	28.1076	12.1679	0.001956	6220.32	11.2912	-172.166	11.4516	1.081150	0.036532	0.036282	11.4692	6220.32	0.035149	0.052094	220.164	24899.6
121	2.000000	1.083400	7.36623e+06	-44689.1	955.819	-29775.5	0.000000	0.000000	7.084285	14.9561	NaN	0.000000	0.001698	0.001707	28.1072	14.3602	0.001816	7905.93	12.7097	-177.422	14.4255	1.083022	0.038532	0.038155	14.9561	7905.93	0.037114	0.056782	263.396	30312.5
121	2.000000	1.085381	7.36623e+06	-44689.1	955.818	-29775.5	0.000000	0.000000	7.086444	19.2982	NaN	0.000000	0.001660	0.001701	28.1072	16.2659	0.001785	9113.52	14.7752	179.194	19.0869	1.085026	0.040513	0.040159	19.2982	9113.52	0.038925	0.061280	314.917	33635.6
121	2.000000	1.087361	7.36623e+06	-44689.1	955.817	-29775.5	0.000000	0.000000	7.088604	23.6757	NaN	0.000000	0.001717	0.001690	28.1074	18.5317	0.001768	10480	7.771636	-176.094	23.3371	1.087057	0.042494	0.042190	23.6757	10480	0.040799	0.066110	358.124	37239.3
121	2.000000	1.089367	7.36623e+06	-44689.1	955.818	-29775.5	0.000000	0.000000	7.090764	27.411	NaN	0.000000	0.001676	0.001728	28.1062	20.5456	0.001812	11335.7	12.3641	177.968	26.9884	1.089087	0.044499	0.044220	27.411	11335.7	0.042686	0.071153	385.239	38826.3
121	2.000000	1.091367	7.36623e+06	-44689.1	955.816	-29775.5	0.000000	0.000000	7.093007	33.3184	NaN	0.000000	0.001707	0.001722	28.1059	23.2947	0.001865	12490.5	10.2253	178.04	32.8776	1.091083	0.046500	0.046216	33.3184	12490.5	0.044499	0.076172	437.412	41348
121	2.000000	1.093385	7.36623e+06	-44689.1	955.818	-29775.5	0.000000	0.000000	7.095316	40.405	NaN	0.000000	0.001681	0.001713	28.107	25.3331	0.001779	14242.9	13.0719	174.716	40.0558	1.093031	0.048517	0.048164	40.405	14242.9	0.046390	0.081581	495.273	45559.2
121	2.000000	1.095361	7.36623e+06	-44689.1	955.818	-29775.5	0.000000	0.000000	7.097518	45.9133	NaN	0.000000	0.001659	0.001711	28.1066	26.8523	0.001801	14909.1	11.5802	175.696	46.1667	1.095053	0.050493	0.050185	45.9133	14909.1	0.048184	0.086882	528.457	46212.4
121	2.000000	1.097311	7.36623e+06	-44689.1	955.819	-29775.5	0.000000	0.000000	7.099746	52.6648	NaN	0.000000	0.001691	0.001725	28.1066	28.7851	0.001711	16821.6	6.148268	179.199	51.5975	1.097082	0.052444	0.052215	52.6648	16821.6	0.050096	0.092710	568.06	50475.2
121	2.000000	1.099306	7.36623e+06	-44689.1	955.819	-29775.5	0.000000	0.000000	7.101984	58.5762	NaN	0.000000	0.001701	0.001727	28.1064	29.28	0.001547	18924.2	3.956772	179.683	57.0656	1.098996	0.054439	0.054129	58.5762	18924.2	0.052117	0.099070	591.26	54931.1
121	2.000000	1.101323	7.36623e+06	-44689.1	955.819	-29775.5	0.000000	0.000000	7.104277	65.2721	NaN	0.000000	0.001648	0.001697	28.1056	32.1866	0.001667	19310.6	6.442308	177.817	63.9683	1.101007	0.056456	0.056139	65.2721	19310.6	0.053921	0.104917	622.132	54468.6
121	2.000000	1.103371	7.36623e+06	-44689.1	955.818	-29775.5	0.000000	0.000000	7.106644	73.0545	NaN	0.000000	0.001620	0.001713	28.1057	34.0156	0.001729	19669.3	5.425668	179.751	72.3254	1.102906	0.058503	0.058038	73.0545	19669.3	0.055718	0.110902	658.732	53962.6
121	2.000000	1.105290	7.36623e+06	-44689.1	955.819	-29775.5	0.000000	0.000000	7.108767	78.0181	NaN	0.000000	0.001602	0.001733	28.1059	36.2849	0.001821	19929	6.555844	177.514	75.8998	1.104979	0.060422	0.060112	78.0181	19929	0.057486	0.116948	667.117	53243
121	2.000000	1.107275	7.36623e+06	-44689.1	955.819	-29775.5	0.000000	0.000000	7.111144	87.5588	NaN	0.000000	0.001627	0.001680	28.1049	39.8578	0.001910	20868.2	10.0122	173.287	85.0574	1.106932	0.062407	0.062064	87.5588	20868.2	0.059260	0.123170	710.879	54325.8
121	2.000000	1.109318	7.36623e+06	-44689.1	955.819	-29775.5	0.000000	0.000000	7.113435	93.5936	NaN	0.000000	0.001617	0.001757	28.1065	40.3589	0.001773	22763.1	5.115980	177.692	92.4047	1.109021	0.064450	0.064154	93.5936	22763.1	0.061367	0.130755	715.796	57514.5
121	2.000000	1.111354	7.36623e+06	-44689.1	955.819	-29775.5	0.000000	0.000000	7.115697	99.0964	NaN	0.000000	0.001621	0.001755	28.1061	42.9354	0.001774	24207	8.950952	172.717	101.278	1.111003	0.066486	0.066136	99.0964	24207	0.063416	0.138343	716.312	59461.6
121	2.000000	1.113296	7.36623e+06	-44689.1	955.819	-29775.5	0.000000	0.000000	7.118015	108.225	NaN	0.000000	0.001632	0.001728	28.1068	44.2288	0.001833	24122.9	6.706640	174.955	106.089	1.113016	0.068428	0.068149	108.225	24122.9	0.065064	0.144590	748.497	57960.9
121	2.000000	1.115346	7.36623e+06	-44689.1	955.818	-29775.5	0.000000	0.000000	7.120392	116.197	NaN	0.000000	0.001627	0.001682	28.1059	45.5122	0.001836	24786.6	5.991595	175.779	117.388	1.115023	0.070478	0.070156	116.197	24786.6	0.066962	0.151951	764.696	58094.9
121	2.000000	1.117284	7.36623e+06	-44689.1	955.819	-29775.5	0.000000	0.000000	7.122747	126.339	NaN	0.000000	0.001621	0.001728	28.1063	47.704	0.001852	25760.3	6.603964	175.078	124.587	1.117017	0.072417	0.072150	126.339	25760.3	0.068738	0.158993	794.619	59024.7
121	2.000000	1.119233	7.36623e+06	-44689.1	955.82	-29775.5	0.000000	0.000000	7.125128	136.838	NaN	0.000000	0.001599	0.001744	28.1079	47.9283	0.001798	26651.1	4.980712	176.844	133.501	1.118954	0.074365	0.074086	136.838	26651.1	0.070515	0.166187	823.397	59729.5
121	2.000000	1.121259	7.36623e+06	-44689.1	955.819	-29775.5	0.000000	0.000000	7.127277	139.831	NaN	0.000000	0.001640	0.001722	28.1056	50.2661	0.001880	26742.6	2.507987	178.734	137.55	1.121014	0.076392	0.076147	139.831	26742.6	0.072470	0.174280	802.336	58526.6
121	2.000000	1.123307	7.36623e+06	-44689.1	955.819	-29775.5	0.000000	0.000000	7.129677	148.391	NaN	0.000000	0.001600	0.001719	28.105	51.7057	0.001769	29227.1	2.068644	178.169	146.399	1.123007	0.078440	0.078140	148.391	29227.1	0.074632	0.183438	808.947	62346.9
121	2.000000	1.125352	7.36623e+06	-44689.1	955.819	-29775.5	0.000000	0.000000	7.131983	154.75	NaN	0.000000	0.001606	0.001715	28.1061	54.2578	0.001775	30560.6	6.742249	172.356	155.7	1.124975	0.080484	0.080107	154.75	30560.6	0.076686	0.192346	804.537	63663.9
121	2.000000	1.127254	7.36623e+06	-44689.1	955.82	-29775.5	0.000000	0.000000	7.134429	167.994	NaN	0.000000	0.001560	0.001678	28.1058	56.8788	0.002012	28269	6.585408	173.883	165.844	1.127021	0.082386	0.082153	167.994	28269	0.077929	0.197830	849.184	58068.1
121	2.000000	1.129211	7.36623e+06	-44689.1	955.819	-29775.5	0.000000	0.000000	7.136974	182.277	NaN	0.000000	0.001589	0.001690	28.1068	58.1218	0.001832	31722.9	9.408473	170.183	180.048	1.128914	0.084344	0.084047	182.277	31722.9	0.080035	0.207286	879.35	63659.3
121	2.000000	1.131302	7.36623e+06	-44689.1	955.818	-29775.5	0.000000	0.000000	7.139266	187.188	NaN	0.000000	0.001594	0.001701	28.1065	59.351	0.001809	32806.7	4.830585	174.381	185.52	1.130966	0.086435	0.086099	187.188	32806.7	0.082155	0.217018	862.546	64341
121	2.000000	1.133276	7.36623e+06	-44689.1	955.818	-29775.5	0.000000	0.000000	7.141763	199.911	NaN	0.000000	0.001663	0.001695	28.1071	61.4491	0.001830	33579.2	5.138884	174.587	198.5	1.132971	0.088409	0.088104	199.911	33579.2	0.083943	0.225387	886.968	64621.7
121	2.000000	1.135270	7.36623e+06	-44689.1	955.819	-29775.5	0.000000	0.000000	7.144254	211.987	NaN	0.000000	0.001642	0.001700	28.1073	62.9389	0.001823	34516.3	5.174417	173.366	211.589	1.134962	0.090403	0.090095	211.987	34516.3	0.085797	0.234216	905.088	65161.1
121	2.000000	1.137271	7.36623e+06	-44689.1	955.819	-29775.5	0.000000	0.000000	7.146610	220.629	NaN	0.000000	0.001632	0.001682	28.1069	65.0875	0.001770	36766.2	4.749394	173.419	219.464	1.136981	0.092403	0.092114	220.629	36766.2	0.087903	0.244443	902.579	67941.1
121	2.000000	1.139237	7.36623e+06	-44689.1	955.82	-29775.5	0.000000	0.000000	7.149391	240.456	NaN	0.000000	0.001635	0.001678	28.107	65.9209	0.001745	37785.3	8.077996	170.425	239.53	1.138864	0.094370	0.093997	240.456	37785.3	0.089597	0.252818	951.105	68658.2
121	2.000000	1.141226	7.36623e+06	-44689.1	955.819	-29775.5	0.000000	0.000000	7.151544	244.459	NaN	0.000000	0.001621	0.001678	28.1059	69.3068	0.001819	38094.7	4.775961	172.767	240.288	1.140996	0.096358	0.096129	244.459	38094.7	0.091545	0.262612	930.875	67917.4
121	2.000000	1.143334	7.36623e+06	-44689.1	955.82	-29775.5	0.000000	0.000000	7.154278	259.669	NaN	0.000000	0.001634	0.001693	28.106	71.3954	0.001886	37851.8	4.902451	173.605	258.47	1.142916	0.098467	0.098049	259.669	37851.8	0.093322	0.271691	955.749	66347
121	2.000000	1.145255	7.36623e+06	-44689.1	955.818	-29775.5	0.000000	0.000000	7.156547	268.154	NaN	0.000000	0.001622	0.001696	28.1057	72.1234	0.001849	39002.2	2.260491	175.608	266.734	1.145004	0.100387	0.100136	268.154	39002.2	0.095231	0.281612	952.213	67148.6
121	2.000000	1.147215	7.36623e+06	-44689.1	955.819	-29775.5	0.000000	0.000000	7.158994	279.995	NaN	0.000000	0.001674	0.001681	28.1056	73.3469	0.001767	41517.5	0.762270	176.483	276.657	1.146980	0.102347	0.102113	279.995	41517.5	0.097289	0.292495	957.263	70136.6
121	2.000000	1.149212	7.36623e+06	-44689.1	955.819	-29775.5	0.000000	0.000000	7.161712	297.533	NaN	0.000000	0.001672	0.001695	28.1052	75.3213	0.001647	45745.3	9.250327	167.149	294.266	1.148926	0.104345	0.104058	297.533	45745.3	0.099467	0.304215	978.033	75775.6
121	2.000000	1.151205	7.36623e+06	-44689.1	955.818	-29775.5	0.000000	0.000000	7.164128	307.812	NaN	0.000000	0.001642	0.001685	28.1067	77.5313	0.001815	42714.7	3.296242	174.198	304.442	1.150927	0.106338	0.106060	307.812	42714.7	0.100933	0.312230	985.85	69841.5
121	2.000000	1.153223	7.36623e+06	-44689.1	955.818	-29775.5	0.000000	0.000000	7.166640	319.821	NaN	0.000000	0.001636	0.001701	28.1064	79.1247	0.001758	45006.8	3.537880	173.45	314.831	1.152894	0.108356	0.108027	319.821	45006.8	0.103026	0.323840	987.59	72257.9
121	2.000000	1.155283	7.36623e+06	-44689.1	955.819	-29775.5	0.000000	0.000000	7.169268	333.655	NaN	0.000000	0.001619	0.001736	28.106	80.295	0.001715	46816.8	3.203936	173.072	333.097	1.154901	0.110416	0.110034	333.655	46816.8	0.105070	0.335371	994.884	73860.5
121	2.000000	1.157204	7.36623e+06	-44689.1	955.819	-29775.5	0.000000	0.000000	7.171772	347.832	NaN	0.000000	0.001628	0.001752	28.1062	84.6701	0.001874	45171.4	3.242117	173.326	345.088	1.157048	0.112337	0.112181	347.832	45171.4	0.106562	0.343902	1011.43	70375.2
121	2.000000	1.159230	7.36623e+06	-44689.1	955.819	-29775.5	0.000000	0.000000	7.174563	366.455	NaN	0.000000	0.001630	0.001739	28.1047	85.4427	0.001872	45642.6	4.481783	172.643	364.345	1.158862	0.114363	0.113994	366.455	45642.6	0.108341	0.354214	1034.56	70066.6
121	2.000000	1.161253	7.36623e+06	-44689.1	955.819	-29775.5	0.000000	0.000000	7.177067	378.162	NaN	0.000000	0.001617	0.001774	28.1048	88.2852	0.001825	48388.1	5.908200	170.126	377.24	1.160926	0.116385	0.116058	378.162	48388.1	0.110524	0.367061	1030.24	72969.8
121	2.000000	1.163289	7.36623e+06	-44689.1	955.819	-29775.5	0.000000	0.000000	7.179759	394.101	NaN	0.000000	0.001623	0.001764	28.1034	89.4499	0.001854	48234.4	3.136776	173.592	394.825	1.162940	0.118422	0.118073	394.101	48234.4	0.112294	0.377634	1043.61	71712.5
121	2.000000	1.165324	7.36623e+06	-44689.1	955.82	-29775.5	0.000000	0.000000	7.182429	409.557	NaN	0.000000	0.001628	0.001761	28.1042	90.5239	0.001752	51675.1	3.695407	172.393	413.397	1.164994	0.120457	0.120127	409.557	51675.1	0.114513	0.391090	1047.22	75494.7
121	2.000000	1.167288	7.36623e+06	-44689.1	955.82	-29775.5	0.000000	0.000000	7.185088	426.455	NaN	0.000000	0.001627	0.001775	28.1033	94.6092	0.001824	51864.7	6.237596	169.264	429.097	1.166993	0.122421	0.122126	426.455	51864.7	0.116254	0.401808	1061.34	74754.1
121	2.000000	1.169285	7.36623e+06	-44689.1	955.819	-29775.5	0.000000	0.000000	7.187768	443.093	NaN	0.000000	0.001631	0.001788	28.104	95.4256	0.001857	51388.8	6.676437	169.083	444.849	1.168922	0.124418	0.124055	443.093	51388.8	0.117951	0.412383	1074.47	73112.5
121	2.000000	1.171178	7.36623e+06	-44689.1	955.819	-29775.5	0.000000	0.000000	7.190520	463.956	NaN	0.000000	0.001597	0.001777	28.1044	97.2209	0.001851	52520	5.574124	170.479	460.675	1.170766	0.126311	0.125899	463.956	52520	0.119686	0.423331	1095.97	73749.3
121	2.000000	1.173236	7.36623e+06	-44689.1	955.818	-29775.5	0.000000	0.000000	7.193250	480.321	NaN	0.000000	0.001598	0.001791	28.105	98.2162	0.001697	57872.7	2.370142	172.925	477.992	1.172894	0.128368	0.128027	480.321	57872.7	0.122144	0.439076	1093.94	79795.2
121	2.000000	1.174255	7.36623e+06	-44689.1	955.819	-29775.5	0.000000	0.000000	7.194354	482.406	NaN	0.000000	0.001614	0.001762	28.0908	100.189	0.001869	53600.9	5.922275	169.647	482.725	1.174031	0.129387	0.129164	482.406	53600.9	0.122637	0.442272	1090.74	73637.7