File: remote_trans/data/nanoindenter/0828-1/data/Data_2025-08-06,11h17m57s/2025-07-22_16-23-58_1_591.txt
2025-07-22, 16:23:58, 1
Index	Phase	Displacement	Time	Pos X	Pos Y	Pos Z	Rot A	Rot B	Piezo Z	Force A	Force B	Gripper	Voltage A	Voltage B	Temperature	Amplitude force	Amplitude pos	Stiffness	Phase shift	Phase excitation	Force A raw	Displacement raw	HMax	HMax raw	Real Force	Real Stiffness	Contact Depth	Area	Hardness	Reduced Mod.
[#]	[#]	[um]	[s]	[um]	[um]	[um]	[m°]	[m°]	[um]	[uN]	[uN]	[V]	[V]	[V]	[°C]	[uN]	[um]	[N/m]	[°]	[°]	[uN]	[um]	[um]	[um]	[uN]	[N/m]	[um]	[um^2]	[MPa]	[MPa]
591	1.000000	0.002497	7.37083e+06	-47539.1	1005.82	-29765.6	0.000000	0.000000	6.002810	-0.022885	NaN	0.000000	0.001637	0.001652	28.0811	0.051127	0.001007	50.7929	49.8398	-171.862	-0.021176	0.001200	-1.133055	-1.134351	-0.022885	50.7929	-1.132717	-1.377405E+15	1.661433E-17	NaN
591	1.000000	0.012543	7.37083e+06	-47539.1	1005.82	-29765.6	0.000000	0.000000	6.012860	0.070927	NaN	0.000000	0.001618	0.001688	28.081	0.040956	0.001233	33.2254	-108.704	12.6093	0.100265	0.011121	-1.123009	-1.124430	0.070927	33.2254	-1.124610	-1.072293E+15	-6.614520E-17	NaN
591	1.000000	0.022438	7.37083e+06	-47539.1	1005.82	-29765.6	0.000000	0.000000	6.022755	0.063469	NaN	0.000000	0.001643	0.001707	28.0809	0.024098	0.001758	13.7088	-21.0365	-163.887	0.003920	0.021127	-1.113113	-1.114424	0.063469	13.7088	-1.116586	-8.368731E+14	-7.584052E-17	NaN
591	1.000000	0.032444	7.37083e+06	-47539.1	1005.82	-29765.6	0.000000	0.000000	6.032761	0.051490	NaN	0.000000	0.001650	0.001701	28.0809	0.057452	0.001790	32.1002	-82.6933	13.6078	-0.032564	0.031104	-1.103108	-1.104447	0.051490	32.1002	-1.104311	-5.727012E+14	-8.990686E-17	NaN
591	1.000000	0.042428	7.37083e+06	-47539.1	1005.82	-29765.6	0.000000	0.000000	6.042743	0.002323	NaN	0.000000	0.001633	0.001702	28.0812	0.061048	0.001960	31.1537	-90.0171	-167.965	-0.030071	0.041193	-1.093123	-1.094359	0.002323	31.1537	-1.093179	-4.059753E+14	-5.722114E-18	NaN
591	1.000000	0.052405	7.37083e+06	-47539.1	1005.82	-29765.6	0.000000	0.000000	6.052723	0.078962	NaN	0.000000	0.001626	0.001705	28.0808	0.058398	0.002024	28.8592	173.176	12.1214	0.089253	0.051048	-1.083146	-1.084503	0.078962	28.8592	-1.085198	-3.171977E+14	-2.489350E-16	NaN
591	1.000000	0.062434	7.37083e+06	-47539.1	1005.82	-29765.6	0.000000	0.000000	6.062749	0.003355	NaN	0.000000	0.001616	0.001740	28.0809	0.083458	0.001976	42.236	65.4335	-166.742	0.002816	0.061165	-1.073117	-1.074386	0.003355	42.236	-1.073177	-2.187102E+14	-1.534164E-17	NaN
591	1.000000	0.072428	7.37083e+06	-47539.1	1005.82	-29765.6	0.000000	0.000000	6.072741	-0.039400	NaN	0.000000	0.001614	0.001720	28.0808	0.124627	0.002103	59.267	-122.393	14.4805	-0.028936	0.071036	-1.063123	-1.064515	-0.039400	59.267	-1.062624	-1.577932E+14	2.496964E-16	NaN
591	1.000000	0.082485	7.37083e+06	-47539.1	1005.82	-29765.6	0.000000	0.000000	6.082799	-0.009073	NaN	0.000000	0.001682	0.001717	28.0808	0.141351	0.001958	72.1943	-172.568	-166.11	0.008603	0.081159	-1.053067	-1.054392	-0.009073	72.1943	-1.052972	-1.170492E+14	7.751244E-17	NaN
591	1.000000	0.092462	7.37083e+06	-47539.1	1005.82	-29765.6	0.000000	0.000000	6.092779	0.052386	NaN	0.000000	0.001665	0.001710	28.0805	0.066094	0.002039	32.4215	92.3705	14.6127	-0.020820	0.091113	-1.043089	-1.044438	0.052386	32.4215	-1.044301	-8.949472E+13	-5.853534E-16	NaN
591	1.000000	0.102476	7.37083e+06	-47539.1	1005.82	-29765.6	0.000000	0.000000	6.102788	-0.066055	NaN	0.000000	0.001628	0.001677	28.0794	0.066020	0.002005	32.9316	-152.978	-171.471	0.060064	0.101181	-1.033075	-1.034370	-0.066055	32.9316	-1.031570	-6.033975E+13	1.094723E-15	NaN
591	1.000000	0.112445	7.37083e+06	-47539.1	1005.82	-29765.6	0.000000	0.000000	6.112761	0.041123	NaN	0.000000	0.001641	0.001700	28.0795	0.039586	0.001976	20.029	-128.866	14.1801	-0.051664	0.111116	-1.023106	-1.024436	0.041123	20.029	-1.024646	-4.869275E+13	-8.445487E-16	NaN
591	1.000000	0.122449	7.37083e+06	-47539.1	1005.82	-29765.6	0.000000	0.000000	6.122765	0.040299	NaN	0.000000	0.001619	0.001675	28.0793	0.068604	0.002110	32.5066	-5.305756	-162.883	0.031278	0.121119	-1.013102	-1.014432	0.040299	32.5066	-1.014032	-3.504671E+13	-1.149852E-15	NaN
591	1.000000	0.132429	7.37083e+06	-47539.1	1005.82	-29765.6	0.000000	0.000000	6.132743	-0.021419	NaN	0.000000	0.001641	0.001699	28.0793	0.088762	0.001964	45.1962	163.185	15.4444	0.008167	0.131114	-1.003122	-1.004437	-0.021419	45.1962	-1.002766	-2.471800E+13	8.665406E-16	NaN
591	1.000000	0.142478	7.37083e+06	-47539.1	1005.82	-29765.6	0.000000	0.000000	6.142794	0.038730	NaN	0.000000	0.001606	0.001653	28.0794	0.032658	0.002013	16.2276	79.3989	-167.741	-0.016497	0.141111	-0.993073	-0.994440	0.038730	16.2276	-0.994863	-1.934662E+13	-2.001917E-15	NaN
591	1.000000	0.152462	7.37083e+06	-47539.1	1005.82	-29765.6	0.000000	0.000000	6.152777	0.000471	NaN	0.000000	0.001608	0.001671	28.0795	0.011427	0.001956	5.843236	122.45	16.4928	0.003624	0.151113	-0.983089	-0.984438	0.000471	5.843236	-0.983150	-1.345375E+13	-3.497769E-17	NaN
591	1.000000	0.162455	7.37083e+06	-47539.1	1005.82	-29765.6	0.000000	0.000000	6.162772	0.047831	NaN	0.000000	0.001584	0.001672	28.0795	0.035216	0.001951	18.0501	133.582	-165.093	0.101791	0.161146	-0.973096	-0.974406	0.047831	18.0501	-0.975084	-1.047540E+13	-4.566015E-15	NaN
591	1.000000	0.172468	7.37083e+06	-47539.1	1005.82	-29765.6	0.000000	0.000000	6.172785	0.072579	NaN	0.000000	0.001635	0.001677	28.0795	0.012699	0.001986	6.395053	129.452	11.1647	0.057826	0.171072	-0.963084	-0.964479	0.072579	6.395053	-0.971595	-9.400806E+12	-7.720551E-15	NaN
591	1.000000	0.182473	7.37083e+06	-47539.1	1005.82	-29765.6	0.000000	0.000000	6.182785	-0.069225	NaN	0.000000	0.001601	0.001682	28.0802	0.075769	0.002118	35.7739	98.0038	-166.214	0.018480	0.181217	-0.953078	-0.954335	-0.069225	35.7739	-0.951627	-5.057821E+12	1.368679E-14	NaN
591	1.000000	0.192464	7.37083e+06	-47539.1	1005.82	-29765.6	0.000000	0.000000	6.192780	0.014665	NaN	0.000000	0.001592	0.001704	28.0794	0.058360	0.002073	28.1508	-113.277	10.6542	0.039384	0.191159	-0.943087	-0.944392	0.014665	28.1508	-0.943478	-3.926915E+12	-3.734598E-15	NaN
591	1.000000	0.202488	7.37083e+06	-47539.1	1005.82	-29765.6	0.000000	0.000000	6.202804	0.025149	NaN	0.000000	0.001563	0.001698	28.0794	0.089764	0.002016	44.5313	22.1977	-168.389	-0.017658	0.201164	-0.933063	-0.934387	0.025149	44.5313	-0.933487	-2.879076E+12	-8.734935E-15	NaN
591	1.000000	0.212483	7.37083e+06	-47539.1	1005.82	-29765.6	0.000000	0.000000	6.212799	0.045685	NaN	0.000000	0.001561	0.001665	28.0795	0.067230	0.001961	34.2882	-129.092	13.8884	0.016221	0.211135	-0.923069	-0.924416	0.045685	34.2882	-0.924068	-2.148455E+12	-2.126428E-14	NaN
591	1.000000	0.222509	7.37083e+06	-47539.1	1005.82	-29765.6	0.000000	0.000000	6.222825	0.029103	NaN	0.000000	0.001589	0.001697	28.0797	0.041870	0.001950	21.473	-74.85	-163.523	0.017975	0.221198	-0.913043	-0.914353	0.029103	21.473	-0.914059	-1.573926E+12	-1.849100E-14	NaN
591	1.000000	0.232500	7.37083e+06	-47539.1	1005.82	-29765.6	0.000000	0.000000	6.232816	0.041563	NaN	0.000000	0.001600	0.001698	28.0805	0.057652	0.001964	29.3562	-142.472	14.7577	0.012614	0.231162	-0.903051	-0.904390	0.041563	29.3562	-0.904113	-1.155161E+12	-3.597983E-14	NaN
591	1.000000	0.242495	7.37083e+06	-47539.1	1005.82	-29765.6	0.000000	0.000000	6.242811	0.016341	NaN	0.000000	0.001524	0.001712	28.0808	0.047075	0.002101	22.4079	-166.597	-165.052	-0.002624	0.241181	-0.893056	-0.894371	0.016341	22.4079	-0.893603	-8.329439E+11	-1.961803E-14	NaN
591	1.000000	0.252492	7.37083e+06	-47539.1	1005.82	-29765.6	0.000000	0.000000	6.252808	0.015524	NaN	0.000000	0.001557	0.001705	28.081	0.027340	0.002004	13.6441	128.242	13.7188	0.001799	0.251174	-0.883059	-0.884377	0.015524	13.6441	-0.883912	-6.160414E+11	-2.519908E-14	NaN
591	1.000000	0.262521	7.37083e+06	-47539.1	1005.82	-29765.6	0.000000	0.000000	6.262837	0.047448	NaN	0.000000	0.001542	0.001642	28.081	0.058365	0.001932	30.2081	140.205	-166.995	0.051853	0.261251	-0.873031	-0.874300	0.047448	30.2081	-0.874209	-4.553837E+11	-1.041936E-13	NaN
591	1.000000	0.272497	7.37083e+06	-47539.1	1005.82	-29765.6	0.000000	0.000000	6.272813	0.026797	NaN	0.000000	0.001531	0.001638	28.0807	0.147544	0.001971	74.8622	-160.395	9.424295	0.030668	0.271163	-0.863055	-0.864389	0.026797	74.8622	-0.863323	-3.244108E+11	-8.260359E-14	NaN
591	1.000000	0.282540	7.37083e+06	-47539.1	1005.82	-29765.6	0.000000	0.000000	6.282856	0.024553	NaN	0.000000	0.001553	0.001662	28.0812	0.021113	0.002058	10.2584	24.9482	-170.026	0.001424	0.281252	-0.853011	-0.854299	0.024553	10.2584	-0.854807	-2.487811E+11	-9.869261E-14	NaN
591	1.000000	0.292532	7.37083e+06	-47539.1	1005.82	-29765.6	0.000000	0.000000	6.292847	0.012627	NaN	0.000000	0.001543	0.001680	28.0812	0.102006	0.002120	48.1192	-95.862	13.4802	0.031703	0.291168	-0.843019	-0.844383	0.012627	48.1192	-0.843216	-1.733247E+11	-7.284906E-14	NaN
591	1.000000	0.302540	7.37083e+06	-47539.1	1005.82	-29765.6	0.000000	0.000000	6.302856	0.024657	NaN	0.000000	0.001557	0.001674	28.0808	0.026093	0.002169	12.0306	-88.0328	-166.511	0.001533	0.301261	-0.833011	-0.834290	0.024657	12.0306	-0.834549	-1.322605E+11	-1.864285E-13	NaN
591	1.000000	0.312530	7.37083e+06	-47539.1	1005.82	-29765.6	0.000000	0.000000	6.312846	0.034817	NaN	0.000000	0.001575	0.001690	28.0809	0.118566	0.002016	58.8151	100.769	13.8255	0.042372	0.311242	-0.823022	-0.824310	0.034817	58.8151	-0.823466	-9.358403E+10	-3.720437E-13	NaN
591	1.000000	0.322532	7.37083e+06	-47539.1	1005.82	-29765.6	0.000000	0.000000	6.322849	0.046961	NaN	0.000000	0.001555	0.001678	28.0809	0.059026	0.002015	29.2968	88.03	-166.178	0.069858	0.321240	-0.813019	-0.814312	0.046961	29.2968	-0.814221	-7.011946E+10	-6.697319E-13	NaN
591	1.000000	0.332555	7.37083e+06	-47539.1	1005.82	-29765.6	0.000000	0.000000	6.332870	-0.007647	NaN	0.000000	0.001536	0.001678	28.0811	0.071939	0.001925	37.3621	-90.7435	11.8524	-0.117594	0.331194	-0.802996	-0.804358	-0.007647	37.3621	-0.802842	-4.914079E+10	1.556168E-13	NaN
591	1.000000	0.342524	7.37083e+06	-47539.1	1005.82	-29765.6	0.000000	0.000000	6.342841	0.051572	NaN	0.000000	0.001531	0.001733	28.0809	0.066657	0.001991	33.4798	-23.2392	-166.601	0.067653	0.341267	-0.793027	-0.794285	0.051572	33.4798	-0.794183	-3.748710E+10	-1.375737E-12	NaN
591	1.000000	0.352532	7.37083e+06	-47539.1	1005.82	-29765.6	0.000000	0.000000	6.352845	-0.031722	NaN	0.000000	0.001532	0.001747	28.0809	0.018923	0.001976	9.577284	129.031	11.8222	-0.135058	0.351197	-0.783020	-0.784355	-0.031722	9.577284	-0.780535	-2.446288E+10	1.296743E-12	NaN
591	1.000000	0.362573	7.37083e+06	-47539.1	1005.82	-29765.6	0.000000	0.000000	6.362890	0.048931	NaN	0.000000	0.001576	0.001713	28.081	0.131352	0.002008	65.427	171.824	-161.944	0.038875	0.361236	-0.772978	-0.774315	0.048931	65.427	-0.773539	-1.965270E+10	-2.489773E-12	NaN
591	1.000000	0.372558	7.37083e+06	-47539.1	1005.82	-29765.6	0.000000	0.000000	6.372873	0.013810	NaN	0.000000	0.001565	0.001718	28.0797	0.061734	0.001994	30.9589	166.399	11.7057	-0.060089	0.371196	-0.762993	-0.764356	0.013810	30.9589	-0.763328	-1.427474E+10	-9.674445E-13	NaN
591	1.000000	0.382568	7.37083e+06	-47539.1	1005.82	-29765.6	0.000000	0.000000	6.382884	0.047300	NaN	0.000000	0.001525	0.001714	28.0797	0.057586	0.001990	28.9415	17.2372	-164.136	0.067779	0.381254	-0.752984	-0.754298	0.047300	28.9415	-0.754209	-1.072783E+10	-4.409085E-12	NaN
591	1.000000	0.392567	7.37083e+06	-47539.1	1005.82	-29765.6	0.000000	0.000000	6.392887	0.129984	NaN	0.000000	0.001580	0.001704	28.0794	0.020544	0.001977	10.392	46.5516	13.5847	0.069365	0.391223	-0.742984	-0.744328	0.129984	10.392	-0.752365	-1.012542E+10	-1.283739E-11	NaN
591	1.000000	0.402600	7.37083e+06	-47539.1	1005.82	-29765.6	0.000000	0.000000	6.402917	0.064446	NaN	0.000000	0.001583	0.001685	28.0802	0.119151	0.002067	57.6563	141.73	-167.077	0.058159	0.401302	-0.732952	-0.734250	0.064446	57.6563	-0.733790	-5.655275E+9	-1.139574E-11	NaN
591	1.000000	0.412606	7.37083e+06	-47539.1	1005.82	-29765.6	0.000000	0.000000	6.412920	-0.012215	NaN	0.000000	0.001586	0.001679	28.0796	0.047851	0.002086	22.9389	-159.831	15.2461	0.046638	0.411200	-0.722945	-0.724351	-0.012215	22.9389	-0.722546	-3.973664E+9	3.073992E-12	NaN
591	1.000000	0.422579	7.37083e+06	-47539.1	1005.82	-29765.6	0.000000	0.000000	6.422895	0.025942	NaN	0.000000	0.001560	0.001716	28.0798	0.091774	0.002161	42.4724	-136.668	-167.03	-0.005231	0.421284	-0.712972	-0.714268	0.025942	42.4724	-0.713430	-2.984410E+9	-8.692567E-12	NaN
591	1.000000	0.432570	7.37083e+06	-47539.1	1005.82	-29765.6	0.000000	0.000000	6.432885	0.009770	NaN	0.000000	0.001581	0.001674	28.0797	0.061737	0.002003	30.8256	75.6799	10.8022	0.092189	0.431238	-0.702981	-0.704313	0.009770	30.8256	-0.703219	-2.165115E+9	-4.512453E-12	NaN
591	1.000000	0.442626	7.37083e+06	-47539.1	1005.82	-29765.6	0.000000	0.000000	6.442944	0.065472	NaN	0.000000	0.001556	0.001692	28.0797	0.161889	0.002059	78.6074	123.946	-166.592	0.090428	0.441266	-0.692925	-0.694286	0.065472	78.6074	-0.693550	-1.597424E+9	-4.098611E-11	NaN
591	1.000000	0.452598	7.37083e+06	-47539.1	1005.82	-29765.6	0.000000	0.000000	6.452914	0.018714	NaN	0.000000	0.001540	0.001715	28.0797	0.128914	0.001967	65.551	-139.01	12.3583	0.021455	0.451184	-0.682953	-0.684367	0.018714	65.551	-0.683167	-1.152173E+9	-1.624199E-11	NaN
591	1.000000	0.462617	7.37083e+06	-47539.1	1005.82	-29765.6	0.000000	0.000000	6.462931	-0.013048	NaN	0.000000	0.001585	0.001691	28.0798	0.186998	0.001860	100.522	110.101	-165.142	-0.007716	0.461273	-0.672935	-0.674278	-0.013048	100.522	-0.672837	-8.321825E+8	1.567955E-11	NaN
591	1.000000	0.472634	7.37083e+06	-47539.1	1005.82	-29765.6	0.000000	0.000000	6.472948	-0.007919	NaN	0.000000	0.001613	0.001670	28.0798	0.149457	0.002108	70.9016	-177.114	18.2297	0.015301	0.471227	-0.662917	-0.664324	-0.007919	70.9016	-0.662834	-6.071245E+8	1.304364E-11	NaN
591	1.000000	0.482641	7.37083e+06	-47539.1	1005.82	-29765.6	0.000000	0.000000	6.482955	-0.005850	NaN	0.000000	0.001622	0.001674	28.0799	0.101204	0.001888	53.5949	-115.731	-166.018	-0.071994	0.481300	-0.652911	-0.654252	-0.005850	53.5949	-0.652829	-4.428024E+8	1.321037E-11	NaN
591	1.000000	0.492647	7.37083e+06	-47539.1	1005.82	-29765.6	0.000000	0.000000	6.492962	0.007494	NaN	0.000000	0.001581	0.001657	28.0796	0.094929	0.001919	49.4583	173.685	16.2848	0.113832	0.491286	-0.642904	-0.644265	0.007494	49.4583	-0.643018	-3.248529E+8	-2.306746E-11	NaN
591	1.000000	0.502628	7.37083e+06	-47539.1	1005.82	-29765.6	0.000000	0.000000	6.502945	0.059962	NaN	0.000000	0.001598	0.001675	28.0796	0.063791	0.001896	33.6424	132.798	-163.129	0.007996	0.501370	-0.632924	-0.634181	0.059962	33.6424	-0.634260	-2.463318E+8	-2.434189E-10	NaN
591	1.000000	0.512645	7.37083e+06	-47539.1	1005.82	-29765.6	0.000000	0.000000	6.512962	0.051832	NaN	0.000000	0.001601	0.001721	28.0811	0.072455	0.001835	39.477	-161.501	17.8831	0.098120	0.511319	-0.622906	-0.624233	0.051832	39.477	-0.623891	-1.774628E+8	-2.920746E-10	NaN
591	1.000000	0.522621	7.37083e+06	-47539.1	1005.82	-29765.6	0.000000	0.000000	6.522937	0.024680	NaN	0.000000	0.001608	0.001694	28.0809	0.110245	0.002022	54.5134	-21.6758	-166.952	-0.008835	0.521361	-0.612930	-0.614190	0.024680	54.5134	-0.613270	-1.267926E+8	-1.946489E-10	NaN
591	1.000000	0.532609	7.37083e+06	-47539.1	1005.82	-29765.6	0.000000	0.000000	6.532927	0.077726	NaN	0.000000	0.001634	0.001667	28.081	0.074354	0.002085	35.6573	159.655	15.2305	0.082068	0.531305	-0.602942	-0.604246	0.077726	35.6573	-0.604577	-9.626858E+7	-8.073833E-10	NaN
591	1.000000	0.542666	7.37083e+06	-47539.1	1005.82	-29765.6	0.000000	0.000000	6.542986	0.131170	NaN	0.000000	0.001589	0.001694	28.081	0.023946	0.002037	11.7579	147.244	-166.408	0.007817	0.541352	-0.592886	-0.594200	0.131170	11.7579	-0.601253	-8.663826E+7	-1.513991E-9	NaN
591	1.000000	0.552653	7.37083e+06	-47539.1	1005.82	-29765.6	0.000000	0.000000	6.552969	0.028476	NaN	0.000000	0.001608	0.001691	28.081	0.095745	0.002121	45.1481	38.3082	12.0352	0.107253	0.551285	-0.582898	-0.584266	0.028476	45.1481	-0.583372	-4.911903E+7	-5.797307E-10	NaN
591	1.000000	0.562666	7.37083e+06	-47539.1	1005.82	-29765.6	0.000000	0.000000	6.562983	0.066473	NaN	0.000000	0.001602	0.001650	28.081	0.030168	0.001915	15.7504	45.7796	-169.136	0.017269	0.561366	-0.572886	-0.574185	0.066473	15.7504	-0.576051	-3.892334E+7	-1.707787E-9	NaN
591	1.000000	0.572680	7.37083e+06	-47539.1	1005.82	-29765.6	0.000000	0.000000	6.572996	0.036990	NaN	0.000000	0.001599	0.001661	28.0809	0.127710	0.002023	63.1204	-18.7428	11.6139	0.049692	0.571278	-0.562871	-0.564273	0.036990	63.1204	-0.563311	-2.595196E+7	-1.425324E-9	NaN
591	1.000000	0.582659	7.37083e+06	-47539.1	1005.82	-29765.6	0.000000	0.000000	6.582977	0.073582	NaN	0.000000	0.001610	0.001629	28.0813	0.067923	0.002001	33.9399	125.138	-163.78	0.020506	0.581302	-0.552892	-0.554250	0.073582	33.9399	-0.554518	-1.961172E+7	-3.751962E-9	NaN
591	1.000000	0.592684	7.37083e+06	-47539.1	1005.82	-29765.6	0.000000	0.000000	6.592998	-0.013933	NaN	0.000000	0.001540	0.001678	28.0809	0.134879	0.002102	64.1522	125.458	11.1488	0.053873	0.591308	-0.542867	-0.544244	-0.013933	64.1522	-0.542704	-1.345409E+7	1.035628E-9	NaN
591	1.000000	0.602639	7.37083e+06	-47539.1	1005.82	-29765.6	0.000000	0.000000	6.602954	0.016469	NaN	0.000000	0.001563	0.001676	28.081	0.023119	0.002150	10.7527	-72.422	-161.364	-0.022200	0.601354	-0.532912	-0.534197	0.016469	10.7527	-0.534061	-1.020841E+7	-1.613253E-9	NaN
591	1.000000	0.612691	7.37083e+06	-47539.1	1005.82	-29765.6	0.000000	0.000000	6.613008	0.063761	NaN	0.000000	0.001612	0.001636	28.0811	0.073801	0.002087	35.3646	-101.213	15.4696	0.062730	0.611313	-0.522860	-0.524239	0.063761	35.3646	-0.524213	-7.45019e+06	-8.558270E-9	NaN
591	1.000000	0.622661	7.37083e+06	-47539.1	1005.82	-29765.6	0.000000	0.000000	6.622976	-0.009781	NaN	0.000000	0.001575	0.001682	28.0813	0.073205	0.001928	37.962	133.09	-168.708	-0.029220	0.621385	-0.512890	-0.514167	-0.009781	37.962	-0.512697	-5.15191e+06	1.898485E-9	NaN
591	1.000000	0.632683	7.37083e+06	-47539.1	1005.82	-29765.6	0.000000	0.000000	6.633000	0.058317	NaN	0.000000	0.001548	0.001679	28.0811	0.110985	0.001973	56.2411	-65.5746	15.1603	-0.030993	0.631290	-0.502868	-0.504261	0.058317	56.2411	-0.503646	-3.85362e+06	-1.513301E-8	NaN
591	1.000000	0.642713	7.37083e+06	-47539.1	1005.82	-29765.6	0.000000	0.000000	6.643027	-0.019919	NaN	0.000000	0.001546	0.001726	28.0795	0.113820	0.001875	60.7194	68.511	-167.104	-0.002529	0.641440	-0.492838	-0.494111	-0.019919	60.7194	-0.492592	-2.7015e+06	7.373274E-9	NaN
591	1.000000	0.652688	7.37083e+06	-47539.1	1005.82	-29765.6	0.000000	0.000000	6.653005	0.060648	NaN	0.000000	0.001547	0.001738	28.08	0.032227	0.002104	15.3137	51.7965	13.3065	0.032387	0.651305	-0.482863	-0.484246	0.060648	15.3137	-0.485834	-2.17346e+06	-2.790402E-8	NaN
591	1.000000	0.662678	7.37083e+06	-47539.1	1005.82	-29765.6	0.000000	0.000000	6.662993	0.006908	NaN	0.000000	0.001543	0.001702	28.0796	0.103251	0.002055	50.2413	96.0868	-167.073	-0.082140	0.661301	-0.472873	-0.474250	0.006908	50.2413	-0.472977	-1.43596e+06	-4.810881E-9	NaN
591	1.000000	0.672706	7.37083e+06	-47539.1	1005.82	-29765.6	0.000000	0.000000	6.673021	0.000916	NaN	0.000000	0.001567	0.001686	28.0795	0.071819	0.002119	33.8884	65.7398	12.9389	0.052182	0.671326	-0.462845	-0.464226	0.000916	33.8884	-0.462866	-1.03581e+06	-8.839562E-10	NaN
591	1.000000	0.682679	7.37083e+06	-47539.1	1005.82	-29765.6	0.000000	0.000000	6.682994	0.010063	NaN	0.000000	0.001566	0.001697	28.0797	0.119376	0.001995	59.8336	121.919	-170.339	0.104499	0.681399	-0.452872	-0.454152	0.010063	59.8336	-0.452998	-752581	-1.337101E-8	NaN
591	1.000000	0.692675	7.37083e+06	-47539.1	1005.82	-29765.6	0.000000	0.000000	6.692993	0.079063	NaN	0.000000	0.001575	0.001703	28.0797	0.034451	0.002086	16.5164	-48.9358	17.5188	0.020305	0.691317	-0.442876	-0.444234	0.079063	16.5164	-0.446466	-608924	-1.298400E-7	NaN
591	1.000000	0.702691	7.37083e+06	-47539.1	1005.82	-29765.6	0.000000	0.000000	6.703006	0.009269	NaN	0.000000	0.001557	0.001715	28.0796	0.173326	0.001946	89.0472	-151.503	-166.991	-0.001997	0.701374	-0.432860	-0.434178	0.009269	89.0472	-0.432938	-392295	-2.362804E-8	NaN
591	1.000000	0.712723	7.37083e+06	-47539.1	1005.82	-29765.6	0.000000	0.000000	6.713039	0.019249	NaN	0.000000	0.001575	0.001740	28.0794	0.040272	0.001934	20.8263	-68.7354	13.9356	-0.032890	0.711364	-0.422828	-0.424188	0.019249	20.8263	-0.423521	-288622	-6.669290E-8	NaN
591	1.000000	0.722683	7.37083e+06	-47539.1	1005.82	-29765.6	0.000000	0.000000	6.722997	-0.011600	NaN	0.000000	0.001564	0.001734	28.0797	0.089737	0.001901	47.1936	-110.439	-167.009	-0.037909	0.721429	-0.412868	-0.414122	-0.011600	47.1936	-0.412684	-202559	5.726893E-8	NaN
591	1.000000	0.732705	7.37083e+06	-47539.1	1005.82	-29765.6	0.000000	0.000000	6.733021	0.030415	NaN	0.000000	0.001521	0.001724	28.0798	0.023895	0.001991	12.0012	44.5568	14.7691	0.036949	0.731351	-0.402847	-0.404201	0.030415	12.0012	-0.404747	-156189	-1.947328E-7	NaN
591	1.000000	0.742729	7.37083e+06	-47539.1	1005.82	-29765.6	0.000000	0.000000	6.743044	0.002593	NaN	0.000000	0.001516	0.001675	28.0799	0.131032	0.001972	66.4341	-26.515	-169.088	-0.007934	0.741387	-0.392822	-0.394165	0.002593	66.4341	-0.392851	-105666	-2.454347E-8	NaN
591	1.000000	0.752732	7.37083e+06	-47539.1	1005.82	-29765.6	0.000000	0.000000	6.753049	0.040065	NaN	0.000000	0.001506	0.001655	28.0798	0.082124	0.001978	41.5104	138.079	15.8275	0.026699	0.751396	-0.382819	-0.384155	0.040065	41.5104	-0.383543	-77751	-5.152968E-7	NaN
591	1.000000	0.762703	7.37083e+06	-47539.1	1005.82	-29765.6	0.000000	0.000000	6.763018	0.011762	NaN	0.000000	0.001522	0.001665	28.0801	0.059506	0.002037	29.2155	-66.774	-167.409	-0.033782	0.761424	-0.372848	-0.374127	0.011762	29.2155	-0.373150	-55140.5	-2.133134E-7	NaN
591	1.000000	0.772738	7.37083e+06	-47539.1	1005.82	-29765.6	0.000000	0.000000	6.773055	0.043262	NaN	0.000000	0.001513	0.001666	28.0798	0.095192	0.001965	48.443	-174.424	12.9718	0.012344	0.771367	-0.362813	-0.364185	0.043262	48.443	-0.363483	-40009	-1.081310E-6	NaN
591	1.000000	0.782741	7.37083e+06	-47539.1	1005.82	-29765.6	0.000000	0.000000	6.783058	0.054435	NaN	0.000000	0.001496	0.001673	28.0812	0.145682	0.002064	70.5906	58.3065	-166.903	0.118527	0.781458	-0.352810	-0.354093	0.054435	70.5906	-0.353388	-28585.6	-1.904289E-6	NaN
591	1.000000	0.792777	7.37083e+06	-47539.1	1005.82	-29765.6	0.000000	0.000000	6.793092	0.006771	NaN	0.000000	0.001508	0.001669	28.0811	0.131631	0.002097	62.7817	42.0811	13.6812	0.026997	0.791384	-0.342774	-0.344168	0.006771	62.7817	-0.342855	-20097.7	-3.368988E-7	NaN
591	1.000000	0.802765	7.37083e+06	-47539.1	1005.82	-29765.6	0.000000	0.000000	6.803080	0.009372	NaN	0.000000	0.001503	0.001642	28.0813	0.041174	0.002109	19.5224	-31.2091	-168.594	0.124878	0.801461	-0.332786	-0.334090	0.009372	19.5224	-0.333146	-14504.1	-6.461415E-7	NaN
591	1.000000	0.812728	7.37083e+06	-47539.1	1005.82	-29765.6	0.000000	0.000000	6.813045	0.057412	NaN	0.000000	0.001504	0.001681	28.081	0.055445	0.002009	27.5951	-81.8294	12.6502	0.004840	0.811360	-0.322823	-0.324192	0.057412	27.5951	-0.324384	-10791.6	-5.320083E-6	NaN
591	1.000000	0.822751	7.37083e+06	-47539.1	1005.82	-29765.6	0.000000	0.000000	6.823068	0.043293	NaN	0.000000	0.001474	0.001657	28.0812	0.025888	0.001947	13.2948	-142.606	-163.715	0.066894	0.821461	-0.312800	-0.314090	0.043293	13.2948	-0.315242	-7916.32	-5.468888E-6	NaN
591	1.000000	0.832753	7.37083e+06	-47539.1	1005.82	-29765.6	0.000000	0.000000	6.833066	-0.050883	NaN	0.000000	0.001509	0.001639	28.0813	0.098089	0.001937	50.6517	-37.2074	13.4298	0.015952	0.831406	-0.302798	-0.304146	-0.050883	50.6517	-0.302045	-5047.29	1.008122E-5	NaN
591	1.000000	0.842735	7.37083e+06	-47539.1	1005.82	-29765.6	0.000000	0.000000	6.843049	-0.020249	NaN	0.000000	0.001530	0.001642	28.0809	0.089178	0.002097	42.5285	87.5247	-170.795	0.024279	0.841481	-0.292816	-0.294071	-0.020249	42.5285	-0.292459	-3631.69	5.575714E-6	NaN
591	1.000000	0.852767	7.37083e+06	-47539.1	1005.82	-29765.6	0.000000	0.000000	6.853084	0.064962	NaN	0.000000	0.001551	0.001641	28.0811	0.039878	0.002088	19.0949	149.205	12.7778	0.014644	0.851403	-0.282784	-0.284149	0.064962	19.0949	-0.285336	-2839.98	-2.287393E-5	NaN
591	1.000000	0.862793	7.37083e+06	-47539.1	1005.82	-29765.6	0.000000	0.000000	6.863111	0.082607	NaN	0.000000	0.001507	0.001649	28.0813	0.192698	0.002053	93.839	-161.419	-168.039	0.037807	0.861459	-0.272759	-0.274093	0.082607	93.839	-0.273419	-1876.92	-4.401215E-5	NaN
591	1.000000	0.872781	7.37083e+06	-47539.1	1005.82	-29765.6	0.000000	0.000000	6.873095	-0.026989	NaN	0.000000	0.001557	0.001638	28.0813	0.028401	0.001932	14.697	111.027	12.8861	0.094532	0.871430	-0.262770	-0.264122	-0.026989	14.697	-0.261393	-1230.99	2.192467E-5	NaN
591	1.000000	0.882788	7.37083e+06	-47539.1	1005.82	-29765.6	0.000000	0.000000	6.883103	0.014487	NaN	0.000000	0.001590	0.001655	28.0811	0.051738	0.002068	25.0123	68.1648	-167.039	0.008315	0.881490	-0.252763	-0.254062	0.014487	25.0123	-0.253198	-921.186	-1.572672E-5	NaN
591	1.000000	0.892779	7.37083e+06	-47539.1	1005.82	-29765.6	0.000000	0.000000	6.893095	0.046227	NaN	0.000000	0.001601	0.001660	28.081	0.050472	0.002027	24.9003	111.754	13.0779	0.060274	0.891442	-0.242773	-0.244110	0.046227	24.9003	-0.244165	-667.526	-6.925146E-5	NaN
591	1.000000	0.902823	7.37083e+06	-47539.1	1005.82	-29765.6	0.000000	0.000000	6.903140	0.050060	NaN	0.000000	0.001598	0.001640	28.0813	0.053582	0.002074	25.8345	-141.25	-163.37	0.017607	0.901538	-0.232728	-0.234013	0.050060	25.8345	-0.234181	-466.003	-0.000107	NaN
591	1.000000	0.912800	7.37083e+06	-47539.1	1005.82	-29765.6	0.000000	0.000000	6.913115	0.021153	NaN	0.000000	0.001628	0.001621	28.081	0.050430	0.001986	25.3917	87.5219	13.4592	0.094279	0.911472	-0.222752	-0.224079	0.021153	25.3917	-0.223377	-314.43	-6.727500E-5	NaN
591	1.000000	0.922827	7.37083e+06	-47539.1	1005.82	-29765.6	0.000000	0.000000	6.923142	0.012641	NaN	0.000000	0.001581	0.001610	28.0799	0.041410	0.001958	21.1477	-29.308	-163.056	0.035258	0.921522	-0.212725	-0.214030	0.012641	21.1477	-0.213173	-215.821	-5.857345E-5	NaN
591	1.000000	0.932838	7.37083e+06	-47539.1	1005.82	-29765.6	0.000000	0.000000	6.933151	-0.028445	NaN	0.000000	0.001591	0.001611	28.0798	0.097328	0.001933	50.3485	-94.2108	18.7138	-0.011776	0.931437	-0.202713	-0.204114	-0.028445	50.3485	-0.202290	-143.636	0.000198	NaN
591	1.000000	0.942781	7.37083e+06	-47539.1	1005.82	-29765.6	0.000000	0.000000	6.943098	0.040494	NaN	0.000000	0.001567	0.001641	28.0802	0.129770	0.001941	66.8705	167.865	-167.507	0.063960	0.941457	-0.192770	-0.194094	0.040494	66.8705	-0.193224	-101.798	-0.000398	NaN
591	1.000000	0.952812	7.37083e+06	-47539.1	1005.82	-29765.6	0.000000	0.000000	6.953127	0.009759	NaN	0.000000	0.001539	0.001628	28.0796	0.095386	0.002020	47.2247	-100.947	12.1585	0.099300	0.951443	-0.182739	-0.184109	0.009759	47.2247	-0.182894	-68.3233	-0.000143	NaN
591	1.000000	0.962829	7.37083e+06	-47539.1	1005.82	-29765.6	0.000000	0.000000	6.963145	0.018189	NaN	0.000000	0.001626	0.001673	28.0797	0.041914	0.001988	21.0873	-97.7023	-166.721	-0.003094	0.961523	-0.172722	-0.174029	0.018189	21.0873	-0.173369	-46.979	-0.000387	NaN
591	1.000000	0.972794	7.37083e+06	-47539.1	1005.82	-29765.6	0.000000	0.000000	6.973109	0.003653	NaN	0.000000	0.001608	0.001654	28.0794	0.042787	0.002052	20.8499	-114.135	14.2595	-0.022486	0.971466	-0.162757	-0.164086	0.003653	20.8499	-0.162889	-30.8416	-0.000118	NaN
591	1.000000	0.982840	7.37083e+06	-47539.1	1005.82	-29765.6	0.000000	0.000000	6.983154	-0.005948	NaN	0.000000	0.001635	0.001656	28.0797	0.028811	0.001991	14.4729	-86.5809	-167.484	0.048323	0.981479	-0.152711	-0.154073	-0.005948	14.4729	-0.152403	-20.0304	0.000297	NaN
591	1.000000	0.992817	7.37083e+06	-47539.1	1005.82	-29765.6	0.000000	0.000000	6.993131	-0.013361	NaN	0.000000	0.001577	0.001638	28.0796	0.090929	0.002114	43.003	-41.2049	13.3593	0.041189	0.991503	-0.142735	-0.144048	-0.013361	43.003	-0.142502	-13.1757	0.001014	NaN
591	1.000000	1.002879	7.37083e+06	-47539.1	1005.82	-29765.6	0.000000	0.000000	7.003196	0.036407	NaN	0.000000	0.001612	0.001630	28.0796	0.046011	0.002043	22.5184	-38.8998	-166.115	0.048565	1.001499	-0.132672	-0.134052	0.036407	22.5184	-0.133885	-9.056357	-0.004020	NaN
591	1.000000	1.012832	7.37083e+06	-47539.1	1005.82	-29765.6	0.000000	0.000000	7.013147	0.008322	NaN	0.000000	0.001613	0.001628	28.0798	0.053717	0.001948	27.5692	-179.922	12.1324	-0.015253	1.011501	-0.122719	-0.124051	0.008322	27.5692	-0.122946	-5.535781	-0.001503	NaN
591	1.000000	1.022866	7.37083e+06	-47539.1	1005.82	-29765.6	0.000000	0.000000	7.023182	0.029216	NaN	0.000000	0.001604	0.001627	28.0796	0.111412	0.001913	58.251	96.1174	-164.566	0.015707	1.021541	-0.112685	-0.114010	0.029216	58.251	-0.113061	-3.483086	-0.008388	NaN
591	1.000000	1.032806	7.37083e+06	-47539.1	1005.82	-29765.6	0.000000	0.000000	7.033122	0.020524	NaN	0.000000	0.001626	0.001638	28.0798	0.047817	0.002006	23.8398	143.277	15.4149	-0.029532	1.031494	-0.102745	-0.104057	0.020524	23.8398	-0.103391	-2.169072	-0.009462	NaN
591	1.000000	1.042832	7.37083e+06	-47539.1	1005.82	-29765.6	0.000000	0.000000	7.043147	0.023756	NaN	0.000000	0.001634	0.001613	28.0797	0.038879	0.002062	18.8525	-118.646	-161.514	0.037056	1.041528	-0.092720	-0.094023	0.023756	18.8525	-0.093665	-1.314848	-0.018068	NaN
591	1.000000	1.052840	7.37083e+06	-47539.1	1005.82	-29765.6	0.000000	0.000000	7.053155	0.017287	NaN	0.000000	0.001640	0.001630	28.0811	0.016951	0.002037	8.320788	-76.2361	12.7554	-0.034938	1.051518	-0.082712	-0.084034	0.017287	8.320788	-0.084270	-0.788800	-0.021916	NaN
591	1.000000	1.062868	7.37083e+06	-47539.1	1005.82	-29765.6	0.000000	0.000000	7.063183	0.005279	NaN	0.000000	0.001620	0.001667	28.0809	0.094109	0.001997	47.1284	25.2907	-166.263	-0.037985	1.061523	-0.072683	-0.074028	0.005279	47.1284	-0.072767	-0.403935	-0.013070	NaN
591	1.000000	1.072881	7.37083e+06	-47539.1	1005.82	-29765.6	0.000000	0.000000	7.073195	-0.029946	NaN	0.000000	0.001633	0.001639	28.081	0.077742	0.001923	40.4351	-48.8633	14.4485	0.053006	1.071493	-0.062670	-0.064058	-0.029946	40.4351	-0.062115	-0.206890	0.144746	NaN
591	1.000000	1.082868	7.37083e+06	-47539.1	1005.82	-29765.6	0.000000	0.000000	7.083185	0.048405	NaN	0.000000	0.001583	0.001629	28.0811	0.009246	0.002050	4.510940	-109.184	-168.254	0.051516	1.081541	-0.052683	-0.054011	0.048405	4.510940	-0.060731	-0.188980	-0.256140	NaN
591	1.000000	1.092883	7.37083e+06	-47539.1	1005.82	-29765.6	0.000000	0.000000	7.093198	0.012914	NaN	0.000000	0.001626	0.001634	28.0809	0.030093	0.002004	15.0146	-95.3361	14.4942	0.019327	1.091518	-0.042668	-0.044033	0.012914	15.0146	-0.043314	-0.057071	-0.226287	NaN
591	1.000000	1.102883	7.37083e+06	-47539.1	1005.82	-29765.6	0.000000	0.000000	7.103198	0.010585	NaN	0.000000	0.001634	0.001659	28.0808	0.036744	0.002095	17.5391	129.437	-166.12	-0.028678	1.101573	-0.032669	-0.033978	0.010585	17.5391	-0.033121	-0.028225	-0.375037	NaN
591	1.000000	1.112867	7.37083e+06	-47539.1	1005.82	-29765.6	0.000000	0.000000	7.113184	0.048021	NaN	0.000000	0.001620	0.001664	28.081	0.097498	0.001970	49.488	-18.0893	18.1114	0.017907	1.111483	-0.022684	-0.024068	0.048021	49.488	-0.023412	-0.015346	-3.129288	NaN
591	1.000000	1.122893	7.37083e+06	-47539.1	1005.82	-29765.6	0.000000	0.000000	7.123209	0.028011	NaN	0.000000	0.001628	0.001642	28.0809	0.153303	0.001925	79.6551	59.9336	-168.365	0.193598	1.121556	-0.012658	-0.013995	0.028011	79.6551	-0.012922	-0.008057	-3.476518	NaN
591	1.000000	1.132859	7.37083e+06	-47539.1	1005.82	-29765.6	0.000000	0.000000	7.133182	0.204568	NaN	0.000000	0.001620	0.001646	28.0808	0.336776	0.001970	170.986	26.7751	17.452	0.019125	1.131558	-0.002693	-0.003994	0.204568	170.986	-0.003590	-0.002512	-81.4524	NaN
591	2.000000	1.141485	7.37083e+06	-47539.1	1005.82	-29765.6	0.000000	0.000000	7.142192	9.535808	NaN	0.000000	0.001634	0.001611	28.081	9.539555	0.001675	5695.73	8.651231	-173.835	9.747854	1.141071	0.005934	0.005520	9.535808	5695.73	0.004679	0.003842	2482.04	83955.3
591	2.000000	1.143956	7.37083e+06	-47539.1	1005.82	-29765.6	0.000000	0.000000	7.144812	13.149	NaN	0.000000	0.001656	0.001644	28.0819	12.1126	0.001517	7984.2	2.733706	6.676610	11.8031	1.143615	0.008405	0.008064	13.149	7984.2	0.007170	0.006202	2119.96	92623.7
591	2.000000	1.146449	7.37083e+06	-47539.1	1005.82	-29765.6	0.000000	0.000000	7.147438	16.4092	NaN	0.000000	0.001585	0.001658	28.0809	15.6808	0.001759	8913.6	6.769364	-177.902	16.8604	1.146204	0.010898	0.010653	16.4092	8913.6	0.009517	0.008650	1897.05	87563.4
591	2.000000	1.148933	7.37083e+06	-47539.1	1005.82	-29765.6	0.000000	0.000000	7.150163	22.2829	NaN	0.000000	0.001560	0.001636	28.081	17.7824	0.001714	10372.5	7.390251	1.086351	21.1185	1.148558	0.013381	0.013007	22.2829	10372.5	0.011770	0.011216	1986.75	89483.5
591	2.000000	1.151424	7.37083e+06	-47539.1	1005.82	-29765.6	0.000000	0.000000	7.152739	24.3203	NaN	0.000000	0.001531	0.001667	28.0808	20.3258	0.001787	11377.4	9.461468	178.98	24.3776	1.151075	0.015873	0.015524	24.3203	11377.4	0.014270	0.014324	1697.87	86852.4
591	2.000000	1.153924	7.37083e+06	-47539.1	1005.82	-29765.6	0.000000	0.000000	7.155298	25.7665	NaN	0.000000	0.001541	0.001625	28.0802	22.6401	0.001869	12111.5	6.230624	0.463052	25.3558	1.153572	0.018373	0.018021	25.7665	12111.5	0.016777	0.017729	1453.36	83105.7
591	2.000000	1.156395	7.37083e+06	-47539.1	1005.82	-29765.6	0.000000	0.000000	7.158057	32.7782	NaN	0.000000	0.001555	0.001645	28.0796	25.4861	0.001843	13828.7	4.019476	-178.45	31.9657	1.156119	0.020843	0.020567	32.7782	13828.7	0.019066	0.021095	1553.81	86988.5
591	2.000000	1.158917	7.37083e+06	-47539.1	1005.82	-29765.6	0.000000	0.000000	7.160864	39.7111	NaN	0.000000	0.001565	0.001642	28.0796	28.4218	0.001899	14969.5	10.1346	-3.591458	40.0545	1.158465	0.023365	0.022914	39.7111	14969.5	0.021376	0.024751	1604.45	86933.4
591	2.000000	1.161369	7.37083e+06	-47539.1	1005.82	-29765.6	0.000000	0.000000	7.163684	48.6542	NaN	0.000000	0.001538	0.001644	28.0794	30.1001	0.001796	16762.5	7.202122	176.635	46.7718	1.161058	0.025817	0.025507	48.6542	16762.5	0.023641	0.028589	1701.86	90576.3
591	2.000000	1.163881	7.37083e+06	-47539.1	1005.82	-29765.6	0.000000	0.000000	7.166270	50.4597	NaN	0.000000	0.001569	0.001629	28.0801	32.1272	0.001747	18390.9	3.850391	-0.133765	48.5921	1.163556	0.028330	0.028004	50.4597	18390.9	0.026272	0.033370	1512.12	91980.8
591	2.000000	1.166381	7.37083e+06	-47539.1	1005.82	-29765.6	0.000000	0.000000	7.169104	58.5847	NaN	0.000000	0.001490	0.001638	28.0796	35.5174	0.001831	19394.2	8.220462	176.592	60.5514	1.166027	0.030830	0.030476	58.5847	19394.2	0.028564	0.037820	1549.04	91113.7
591	2.000000	1.168863	7.37083e+06	-47539.1	1005.82	-29765.6	0.000000	0.000000	7.172071	70.3725	NaN	0.000000	0.001505	0.001646	28.0798	36.7935	0.001751	21018.3	3.859139	-0.970930	68.0648	1.168509	0.033312	0.032958	70.3725	21018.3	0.030801	0.042419	1658.97	93237.2
591	2.000000	1.171318	7.37083e+06	-47539.1	1005.82	-29765.6	0.000000	0.000000	7.174776	76.4625	NaN	0.000000	0.001540	0.001629	28.0796	39.6252	0.001785	22203.8	6.821868	175.932	76.0623	1.171063	0.035766	0.035511	76.4625	22203.8	0.033183	0.047601	1606.33	92980.9
591	2.000000	1.173796	7.37083e+06	-47539.1	1005.82	-29765.6	0.000000	0.000000	7.177422	80.5398	NaN	0.000000	0.001530	0.001648	28.0797	41.8902	0.001846	22689.7	5.130126	-3.062741	76.2838	1.173470	0.038245	0.037919	80.5398	22689.7	0.035582	0.053111	1516.45	89952
591	2.000000	1.176307	7.37083e+06	-47539.1	1005.82	-29765.6	0.000000	0.000000	7.180377	91.3471	NaN	0.000000	0.001534	0.001693	28.0796	45.0633	0.001892	23815.3	4.612053	176.437	88.4479	1.176148	0.040756	0.040597	91.3471	23815.3	0.037879	0.058662	1557.18	89836.3
591	2.000000	1.178825	7.37083e+06	-47539.1	1005.82	-29765.6	0.000000	0.000000	7.183387	103.321	NaN	0.000000	0.001555	0.001644	28.0798	46.366	0.001740	26651.8	4.810119	-3.548774	99.4718	1.178468	0.043273	0.042917	103.321	26651.8	0.040366	0.064978	1590.1	95525.1
591	2.000000	1.181363	7.37083e+06	-47539.1	1005.82	-29765.6	0.000000	0.000000	7.186368	114.078	NaN	0.000000	0.001524	0.001640	28.0798	48.4692	0.001750	27698.9	6.002839	174.977	115.617	1.180978	0.045812	0.045427	114.078	27698.9	0.042723	0.071256	1600.96	94804
591	2.000000	1.183791	7.37083e+06	-47539.1	1005.82	-29765.6	0.000000	0.000000	7.189265	125.492	NaN	0.000000	0.001539	0.001651	28.0796	50.9013	0.001770	28762.2	1.153660	-0.563351	122.26	1.183579	0.048240	0.048028	125.492	28762.2	0.044968	0.077496	1619.34	94396.7
591	2.000000	1.186337	7.37083e+06	-47539.1	1005.82	-29765.6	0.000000	0.000000	7.192267	136.572	NaN	0.000000	0.001526	0.001677	28.0797	53.7849	0.001726	31161.5	2.914294	176.245	135.51	1.186028	0.050786	0.050476	136.572	31161.5	0.047499	0.084839	1609.77	97744.7
591	2.000000	1.188847	7.37083e+06	-47539.1	1005.82	-29765.6	0.000000	0.000000	7.195238	147.797	NaN	0.000000	0.001536	0.001684	28.081	56.5223	0.001834	30823.1	7.047113	-7.480821	145.908	1.188423	0.053295	0.052872	147.797	30823.1	0.049699	0.091485	1615.53	93105.2
591	2.000000	1.191296	7.37083e+06	-47539.1	1005.82	-29765.6	0.000000	0.000000	7.198170	159.533	NaN	0.000000	0.001537	0.001615	28.0811	58.3184	0.001779	32785.2	3.785475	174.841	157.4	1.191065	0.055745	0.055514	159.533	32785.2	0.052096	0.099001	1611.44	95199
591	2.000000	1.193752	7.37083e+06	-47539.1	1005.82	-29765.6	0.000000	0.000000	7.201112	171.358	NaN	0.000000	0.001560	0.001668	28.0808	61.2151	0.001796	34082.3	5.361081	-7.172027	166.017	1.193407	0.058201	0.057856	171.358	34082.3	0.054430	0.106596	1607.56	95374.6
591	2.000000	1.196311	7.37083e+06	-47539.1	1005.82	-29765.6	0.000000	0.000000	7.204195	184.122	NaN	0.000000	0.001559	0.001666	28.0807	64.5849	0.001929	33488.4	5.563855	172.819	182.343	1.196045	0.060759	0.060494	184.122	33488.4	0.056636	0.114022	1614.79	90609.3
591	2.000000	1.198847	7.37083e+06	-47539.1	1005.82	-29765.6	0.000000	0.000000	7.207181	195.074	NaN	0.000000	0.001508	0.001656	28.0809	65.3659	0.001855	35235.7	6.148631	-7.149097	195.031	1.198402	0.063295	0.062851	195.074	35235.7	0.059143	0.122754	1589.15	91883.8
591	2.000000	1.201315	7.37083e+06	-47539.1	1005.82	-29765.6	0.000000	0.000000	7.210128	206.718	NaN	0.000000	0.001532	0.001651	28.0809	66.8697	0.001720	38888	6.090050	171.374	206.804	1.201008	0.065763	0.065456	206.718	38888	0.061776	0.132255	1563.02	97697.2
591	2.000000	1.203829	7.37083e+06	-47539.1	1005.82	-29765.6	0.000000	0.000000	7.213288	222.416	NaN	0.000000	0.001620	0.001676	28.0807	69.8461	0.001819	38402.6	2.319089	-4.516302	221.103	1.203442	0.068278	0.067891	222.416	38402.6	0.063934	0.140293	1585.37	93673.3
591	2.000000	1.206267	7.37083e+06	-47539.1	1005.82	-29765.6	0.000000	0.000000	7.216234	234.764	NaN	0.000000	0.001644	0.001629	28.0808	72.972	0.001771	41208.5	2.482083	174.454	232.763	1.205985	0.070716	0.070434	234.764	41208.5	0.066443	0.149921	1565.92	97236.2
591	2.000000	1.208732	7.37084e+06	-47539.1	1005.82	-29765.6	0.000000	0.000000	7.219500	254.256	NaN	0.000000	0.001597	0.001644	28.0809	74.9424	0.001815	41280.8	5.748500	-7.993008	248.828	1.208338	0.073181	0.072787	254.256	41280.8	0.068562	0.158286	1606.3	94798.1
591	2.000000	1.211259	7.37084e+06	-47539.1	1005.82	-29765.6	0.000000	0.000000	7.222666	269.791	NaN	0.000000	0.001569	0.001637	28.0811	76.6662	0.001836	41760.2	4.326024	173.369	267.398	1.210953	0.075708	0.075402	269.791	41760.2	0.070862	0.167614	1609.6	93192.4
591	2.000000	1.213743	7.37084e+06	-47539.1	1005.82	-29765.6	0.000000	0.000000	7.225788	285.325	NaN	0.000000	0.001589	0.001698	28.0808	79.2747	0.001784	44433.8	4.276580	-7.453575	281.009	1.213365	0.078192	0.077813	285.325	44433.8	0.073376	0.178091	1602.13	96198
591	2.000000	1.216304	7.37084e+06	-47539.1	1005.82	-29765.6	0.000000	0.000000	7.229135	304.427	NaN	0.000000	0.001606	0.001671	28.0806	82.5381	0.001779	46398.5	4.938563	171.688	305.19	1.215952	0.080753	0.080401	304.427	46398.5	0.075832	0.188617	1614	97608.3
591	2.000000	1.218781	7.37084e+06	-47539.1	1005.82	-29765.6	0.000000	0.000000	7.232388	323.291	NaN	0.000000	0.001614	0.001625	28.0812	83.914	0.001727	48603	8.517825	-11.6215	318.644	1.218340	0.083230	0.082789	323.291	48603	0.078241	0.199219	1622.79	99488
591	2.000000	1.221333	7.37084e+06	-47539.1	1005.82	-29765.6	0.000000	0.000000	7.235503	337.015	NaN	0.000000	0.001573	0.001638	28.0799	86.3169	0.001716	50308	8.133951	167.978	336.64	1.220951	0.085781	0.085399	337.015	50308	0.080757	0.210578	1600.43	100162
591	2.000000	1.223854	7.37084e+06	-47539.1	1005.82	-29765.6	0.000000	0.000000	7.238372	345.481	NaN	0.000000	0.001585	0.001651	28.0796	88.9046	0.001669	53267.2	6.004104	-10.4731	347.441	1.223580	0.088302	0.088029	345.481	53267.2	0.083438	0.223007	1549.2	103056
591	2.000000	1.226341	7.37084e+06	-47539.1	1005.82	-29765.6	0.000000	0.000000	7.241570	362.782	NaN	0.000000	0.001606	0.001650	28.0796	92.481	0.001770	52256.8	1.762336	173.486	365.928	1.226117	0.090789	0.090566	362.782	52256.8	0.085583	0.233188	1555.75	98869.5
591	2.000000	1.228745	7.37084e+06	-47539.1	1005.82	-29765.6	0.000000	0.000000	7.245275	394.389	NaN	0.000000	0.001598	0.001653	28.0798	95.1736	0.001919	49585.9	6.487043	-9.665145	389.189	1.228300	0.093194	0.092749	394.389	49585.9	0.087229	0.241149	1635.46	92254.7
591	2.000000	1.231273	7.37084e+06	-47539.1	1005.82	-29765.6	0.000000	0.000000	7.248151	402.863	NaN	0.000000	0.001589	0.001665	28.0797	97.2865	0.001841	52837.9	4.287461	170.621	401.661	1.231201	0.095722	0.095650	402.863	52837.9	0.090004	0.254848	1580.8	95626.5
591	2.000000	1.233679	7.37084e+06	-47539.1	1005.82	-29765.6	0.000000	0.000000	7.251750	431.868	NaN	0.000000	0.001617	0.001610	28.0797	98.5679	0.001843	53495.7	1.988368	-6.624063	425.259	1.233426	0.098128	0.097874	431.868	53495.7	0.092073	0.265296	1627.87	94891.3
591	2.000000	1.236444	7.37084e+06	-47539.1	1005.82	-29765.6	0.000000	0.000000	7.254835	439.662	NaN	0.000000	0.001655	0.001586	28.0796	102.461	0.001813	56525.5	4.637187	170.951	450.284	1.235942	0.100893	0.100391	439.662	56525.5	0.095059	0.280714	1566.23	97473.4
591	2.000000	1.238742	7.37084e+06	-47539.1	1005.82	-29765.6	0.000000	0.000000	7.258464	472.042	NaN	0.000000	0.001620	0.001588	28.0797	103.215	0.001832	56345.9	6.241677	-10.6576	467.707	1.238442	0.103191	0.102891	472.042	56345.9	0.096908	0.290462	1625.14	95519.3
591	2.000000	1.239316	7.37084e+06	-47539.1	1005.82	-29765.6	0.000000	0.000000	7.259025	471.737	NaN	0.000000	0.001634	0.001603	28.0794	104.909	0.001821	57623.5	6.681647	168.298	475.31	1.238973	0.103765	0.103422	471.737	57623.5	0.097625	0.294287	1602.98	97048.1