File: remote_trans/data/nanoindenter/0828-1/data/Data_2025-08-06,11h17m57s/2025-07-22_16-23-58_1_1107.txt
2025-07-22, 16:23:58, 1
Index	Phase	Displacement	Time	Pos X	Pos Y	Pos Z	Rot A	Rot B	Piezo Z	Force A	Force B	Gripper	Voltage A	Voltage B	Temperature	Amplitude force	Amplitude pos	Stiffness	Phase shift	Phase excitation	Force A raw	Displacement raw	HMax	HMax raw	Real Force	Real Stiffness	Contact Depth	Area	Hardness	Reduced Mod.
[#]	[#]	[um]	[s]	[um]	[um]	[um]	[m°]	[m°]	[um]	[uN]	[uN]	[V]	[V]	[V]	[°C]	[uN]	[um]	[N/m]	[°]	[°]	[uN]	[um]	[um]	[um]	[uN]	[N/m]	[um]	[um^2]	[MPa]	[MPa]
1107	1.000000	0.002491	7.37587e+06	-55489.1	1055.82	-29741.2	0.000000	0.000000	6.002795	0.018674	NaN	0.000000	0.001646	0.001704	28.083	0.087041	0.000979	88.8934	80.8456	-163.77	0.034985	0.001265	-1.183795	-1.185021	0.018674	88.8934	-1.183953	-6.696120E+15	-2.788830E-18	NaN
1107	1.000000	0.012547	7.37588e+06	-55489.1	1055.82	-29741.2	0.000000	0.000000	6.012851	-0.001860	NaN	0.000000	0.001626	0.001668	28.083	0.101780	0.001261	80.6868	-84.2528	19.5131	0.033039	0.011126	-1.173739	-1.175160	-0.001860	80.6868	-1.173722	-4.883779E+15	3.808734E-19	NaN
1107	1.000000	0.022473	7.37588e+06	-55489.1	1055.82	-29741.2	0.000000	0.000000	6.022777	-0.006766	NaN	0.000000	0.001694	0.001721	28.0831	0.051299	0.001710	29.9981	122.636	-169.416	0.023144	0.021147	-1.163813	-1.165139	-0.006766	29.9981	-1.163644	-3.578517E+15	1.890846E-18	NaN
1107	1.000000	0.032433	7.37588e+06	-55489.1	1055.82	-29741.2	0.000000	0.000000	6.032736	-0.005846	NaN	0.000000	0.001700	0.001722	28.0831	0.075681	0.001986	38.1011	80.0997	11.5543	-0.021640	0.031066	-1.153853	-1.155220	-0.005846	38.1011	-1.153738	-2.635910E+15	2.217925E-18	NaN
1107	1.000000	0.042436	7.37588e+06	-55489.1	1055.82	-29741.2	0.000000	0.000000	6.042742	0.064961	NaN	0.000000	0.001686	0.001719	28.0836	0.168541	0.001935	87.0936	153.986	-166.497	0.045226	0.041149	-1.143851	-1.145137	0.064961	87.0936	-1.144410	-1.976389E+15	-3.286844E-17	NaN
1107	1.000000	0.052429	7.37588e+06	-55489.1	1055.82	-29741.3	0.000000	0.000000	6.052733	-0.005413	NaN	0.000000	0.001718	0.001684	28.0831	0.034228	0.001966	17.4087	135.765	14.9084	0.017830	0.051085	-1.133857	-1.135201	-0.005413	17.4087	-1.133623	-1.416520E+15	3.821676E-18	NaN
1107	1.000000	0.062449	7.37588e+06	-55489.1	1055.82	-29741.3	0.000000	0.000000	6.062751	-0.034586	NaN	0.000000	0.001649	0.001729	28.0836	0.133705	0.002042	65.4757	-17.7314	-163.804	0.010675	0.061126	-1.123838	-1.125160	-0.034586	65.4757	-1.123441	-1.034291E+15	3.343911E-17	NaN
1107	1.000000	0.072433	7.37588e+06	-55489.1	1055.82	-29741.3	0.000000	0.000000	6.072736	-0.001270	NaN	0.000000	0.001710	0.001713	28.0831	0.173993	0.002034	85.5627	-43.0238	16.4337	0.025186	0.071125	-1.113853	-1.115161	-0.001270	85.5627	-1.113842	-7.688588E+14	1.652085E-18	NaN
1107	1.000000	0.082438	7.37588e+06	-55489.1	1055.82	-29741.3	0.000000	0.000000	6.082741	-0.008967	NaN	0.000000	0.001710	0.001700	28.0835	0.028674	0.001986	14.4414	81.143	-163.454	-0.056522	0.081163	-1.103848	-1.105123	-0.008967	14.4414	-1.103382	-5.565056E+14	1.611361E-17	NaN
1107	1.000000	0.092462	7.37588e+06	-55489.1	1055.82	-29741.3	0.000000	0.000000	6.092767	0.039391	NaN	0.000000	0.001709	0.001700	28.0846	0.160427	0.002039	78.6612	178.861	16.0834	-0.031232	0.091137	-1.093824	-1.095149	0.039391	78.6612	-1.094200	-4.189888E+14	-9.401433E-17	NaN
1107	1.000000	0.102475	7.37588e+06	-55489.1	1055.82	-29741.3	0.000000	0.000000	6.102780	0.022776	NaN	0.000000	0.001745	0.001698	28.0846	0.109324	0.002100	52.0583	29.9822	-167.778	-0.058440	0.101186	-1.083811	-1.085101	0.022776	52.0583	-1.084139	-3.069791E+14	-7.419538E-17	NaN
1107	1.000000	0.112461	7.37588e+06	-55489.1	1055.82	-29741.3	0.000000	0.000000	6.112766	0.031143	NaN	0.000000	0.001704	0.001713	28.0845	0.108159	0.001972	54.8469	-154.489	18.8152	0.042177	0.111100	-1.073825	-1.075186	0.031143	54.8469	-1.074251	-2.260957E+14	-1.377421E-16	NaN
1107	1.000000	0.122473	7.37588e+06	-55489.1	1055.82	-29741.3	0.000000	0.000000	6.122775	-0.024332	NaN	0.000000	0.001677	0.001675	28.0849	0.076683	0.001996	38.4247	33.8191	-166.254	-0.003923	0.121169	-1.063813	-1.065117	-0.024332	38.4247	-1.063338	-1.613184E+14	1.508308E-16	NaN
1107	1.000000	0.132474	7.37588e+06	-55489.1	1055.82	-29741.3	0.000000	0.000000	6.132777	-0.013007	NaN	0.000000	0.001659	0.001678	28.0849	0.188476	0.001972	95.5777	59.9793	14.584	-0.054713	0.131131	-1.053812	-1.055155	-0.013007	95.5777	-1.053710	-1.197518E+14	1.086133E-16	NaN
1107	1.000000	0.142492	7.37588e+06	-55489.1	1055.82	-29741.3	0.000000	0.000000	6.142797	0.039263	NaN	0.000000	0.001667	0.001679	28.0844	0.039969	0.001898	21.0616	150.706	-163.918	0.107500	0.141192	-1.043795	-1.045094	0.039263	21.0616	-1.045193	-9.199992E+13	-4.267699E-16	NaN
1107	1.000000	0.152502	7.37588e+06	-55489.1	1055.82	-29741.3	0.000000	0.000000	6.152805	-0.004105	NaN	0.000000	0.001594	0.001686	28.0842	0.048297	0.001920	25.1584	-130.828	17.3649	0.044503	0.151120	-1.033784	-1.035166	-0.004105	25.1584	-1.033662	-6.437688E+13	6.375820E-17	NaN
1107	1.000000	0.162519	7.37588e+06	-55489.1	1055.82	-29741.3	0.000000	0.000000	6.162819	-0.089907	NaN	0.000000	0.001707	0.001678	28.0845	0.146108	0.002015	72.511	113.927	-166.994	-0.103104	0.161161	-1.023767	-1.025125	-0.089907	72.511	-1.022837	-4.603859E+13	1.952857E-15	NaN
1107	1.000000	0.172499	7.37588e+06	-55489.1	1055.82	-29741.3	0.000000	0.000000	6.172799	-0.079748	NaN	0.000000	0.001617	0.001671	28.0846	0.020690	0.002011	10.2893	102.734	11.8862	-0.091591	0.171114	-1.013787	-1.015172	-0.079748	10.2893	-1.007974	-2.904800E+13	2.745375E-15	NaN
1107	1.000000	0.182520	7.37588e+06	-55489.1	1055.82	-29741.3	0.000000	0.000000	6.182823	0.002737	NaN	0.000000	0.001584	0.001705	28.0843	0.038992	0.002074	18.8039	12.5807	-166.528	-0.065729	0.181194	-1.003767	-1.005092	0.002737	18.8039	-1.003876	-2.558267E+13	-1.069701E-16	NaN
1107	1.000000	0.192521	7.37588e+06	-55489.1	1055.82	-29741.3	0.000000	0.000000	6.192827	0.050619	NaN	0.000000	0.001579	0.001722	28.0846	0.155457	0.001991	78.0764	-19.349	15.0925	0.003164	0.191187	-0.993765	-0.995099	0.050619	78.0764	-0.994251	-1.898290E+13	-2.666549E-15	NaN
1107	1.000000	0.202474	7.37588e+06	-55489.1	1055.82	-29741.3	0.000000	0.000000	6.202776	-0.030993	NaN	0.000000	0.001620	0.001712	28.0845	0.087816	0.002182	40.2407	40.1189	-168.085	-0.082855	0.201177	-0.983812	-0.985109	-0.030993	40.2407	-0.983234	-1.348905E+13	2.297678E-15	NaN
1107	1.000000	0.212503	7.37588e+06	-55489.1	1055.82	-29741.3	0.000000	0.000000	6.212807	0.004291	NaN	0.000000	0.001639	0.001709	28.0843	0.088054	0.002149	40.9783	-7.885922	15.6814	0.078695	0.211155	-0.973783	-0.975131	0.004291	40.9783	-0.973862	-1.008568E+13	-4.254823E-16	NaN
1107	1.000000	0.222550	7.37588e+06	-55489.1	1055.82	-29741.3	0.000000	0.000000	6.222852	-0.048624	NaN	0.000000	0.001611	0.001710	28.0842	0.124373	0.002088	59.5667	-100.697	-165.011	-0.031102	0.221228	-0.963736	-0.965059	-0.048624	59.5667	-0.963124	-7.227412E+12	6.727663E-15	NaN
1107	1.000000	0.232525	7.37588e+06	-55489.1	1055.82	-29741.3	0.000000	0.000000	6.232825	-0.097244	NaN	0.000000	0.001643	0.001702	28.0828	0.114285	0.002008	56.906	-74.5766	14.1756	-0.155069	0.231207	-0.953761	-0.955079	-0.097244	56.906	-0.952480	-5.193571E+12	1.872389E-14	NaN
1107	1.000000	0.242501	7.37588e+06	-55489.1	1055.82	-29741.3	0.000000	0.000000	6.242806	0.028101	NaN	0.000000	0.001613	0.001700	28.0831	0.023624	0.002041	11.5717	96.235	-168.436	0.001761	0.241223	-0.943785	-0.945063	0.028101	11.5717	-0.945606	-4.195294E+12	-6.698205E-15	NaN
1107	1.000000	0.252536	7.37588e+06	-55489.1	1055.82	-29741.3	0.000000	0.000000	6.252839	-0.017716	NaN	0.000000	0.001614	0.001702	28.083	0.068021	0.001984	34.2814	161.016	14.3676	0.113721	0.251185	-0.933750	-0.935101	-0.017716	34.2814	-0.933362	-2.867946E+12	6.177322E-15	NaN
1107	1.000000	0.262538	7.37588e+06	-55489.1	1055.82	-29741.3	0.000000	0.000000	6.262842	0.004702	NaN	0.000000	0.001639	0.001718	28.083	0.070738	0.001894	37.3492	142.756	-170.885	-0.014817	0.261212	-0.923748	-0.925074	0.004702	37.3492	-0.923842	-2.133437E+12	-2.203880E-15	NaN
1107	1.000000	0.272537	7.37588e+06	-55489.1	1055.82	-29741.3	0.000000	0.000000	6.272842	0.032145	NaN	0.000000	0.001606	0.001671	28.0831	0.148745	0.002248	66.1653	74.4477	12.2816	-0.022309	0.271171	-0.913749	-0.915116	0.032145	66.1653	-0.914113	-1.576568E+12	-2.038935E-14	NaN
1107	1.000000	0.282538	7.37588e+06	-55489.1	1055.82	-29741.3	0.000000	0.000000	6.282843	0.038291	NaN	0.000000	0.001616	0.001709	28.0832	0.006546	0.001967	3.327972	-11.6729	-168.694	0.072573	0.281225	-0.903748	-0.905061	0.038291	3.327972	-0.912378	-1.493745E+12	-2.563451E-14	NaN
1107	1.000000	0.292554	7.37588e+06	-55489.1	1055.82	-29741.3	0.000000	0.000000	6.292858	-0.006057	NaN	0.000000	0.001684	0.001671	28.083	0.060121	0.001877	32.0303	-154.914	17.4236	0.008351	0.291221	-0.893732	-0.895065	-0.006057	32.0303	-0.893590	-8.326100E+11	7.274388E-15	NaN
1107	1.000000	0.302558	7.37588e+06	-55489.1	1055.82	-29741.3	0.000000	0.000000	6.302862	0.014507	NaN	0.000000	0.001746	0.001705	28.0829	0.111915	0.002020	55.4092	86.8533	-167.206	0.012724	0.301229	-0.883728	-0.885057	0.014507	55.4092	-0.883925	-6.162820E+11	-2.353971E-14	NaN
1107	1.000000	0.312568	7.37588e+06	-55489.1	1055.82	-29741.3	0.000000	0.000000	6.312872	-0.005064	NaN	0.000000	0.001726	0.001704	28.0829	0.084554	0.002157	39.2084	-114.714	10.3591	0.012541	0.311219	-0.873718	-0.875067	-0.005064	39.2084	-0.873621	-4.471259E+11	1.132481E-14	NaN
1107	1.000000	0.322538	7.37588e+06	-55489.1	1055.82	-29741.3	0.000000	0.000000	6.322840	-0.016313	NaN	0.000000	0.001699	0.001700	28.0829	0.062390	0.001858	33.5861	-24.2239	-164.598	-0.018043	0.321250	-0.863749	-0.865036	-0.016313	33.5861	-0.863384	-3.250305E+11	5.018962E-14	NaN
1107	1.000000	0.332561	7.37588e+06	-55489.1	1055.82	-29741.3	0.000000	0.000000	6.332867	0.059839	NaN	0.000000	0.001740	0.001678	28.0828	0.044086	0.001871	23.5581	151.054	15.4478	0.066446	0.331134	-0.853725	-0.855152	0.059839	23.5581	-0.855631	-2.552544E+11	-2.344291E-13	NaN
1107	1.000000	0.342572	7.37588e+06	-55489.1	1055.82	-29741.3	0.000000	0.000000	6.342877	0.048961	NaN	0.000000	0.001760	0.001700	28.0831	0.137622	0.001955	70.3979	-105.743	-169.03	-0.034318	0.341239	-0.843714	-0.845047	0.048961	70.3979	-0.844236	-1.789259E+11	-2.736378E-13	NaN
1107	1.000000	0.352557	7.37588e+06	-55489.1	1055.82	-29741.3	0.000000	0.000000	6.352856	-0.091764	NaN	0.000000	0.001761	0.001685	28.0833	0.051574	0.002049	25.1741	11.1608	14.9888	-0.004034	0.351252	-0.833729	-0.835034	-0.091764	25.1741	-0.830996	-1.183801E+11	7.751635E-13	NaN
1107	1.000000	0.362597	7.37588e+06	-55489.1	1055.82	-29741.3	0.000000	0.000000	6.362900	-0.014982	NaN	0.000000	0.001761	0.001664	28.0836	0.105603	0.002013	52.4615	-99.4156	-167.193	0.015809	0.361260	-0.823689	-0.825026	-0.014982	52.4615	-0.823475	-9.361206E+10	1.600384E-13	NaN
1107	1.000000	0.372572	7.37588e+06	-55489.1	1055.82	-29741.3	0.000000	0.000000	6.372872	-0.080619	NaN	0.000000	0.001703	0.001717	28.0846	0.040532	0.001886	21.4869	126.862	14.1937	-0.061517	0.371213	-0.813714	-0.815073	-0.080619	21.4869	-0.810900	-6.321024E+10	1.275416E-12	NaN
1107	1.000000	0.382587	7.37588e+06	-55489.1	1055.82	-29741.3	0.000000	0.000000	6.382888	-0.061188	NaN	0.000000	0.001722	0.001697	28.0842	0.054132	0.002057	26.3137	-47.5852	-166.732	-0.020162	0.381275	-0.803699	-0.805011	-0.061188	26.3137	-0.801955	-4.779700E+10	1.280164E-12	NaN
1107	1.000000	0.392570	7.37588e+06	-55489.1	1055.82	-29741.3	0.000000	0.000000	6.392872	-0.042275	NaN	0.000000	0.001710	0.001715	28.0848	0.074663	0.002043	36.5441	35.7658	15.7874	-0.037935	0.391201	-0.793716	-0.795085	-0.042275	36.5441	-0.792849	-3.595594E+10	1.175756E-12	NaN
1107	1.000000	0.402595	7.37588e+06	-55489.1	1055.82	-29741.3	0.000000	0.000000	6.402899	-0.008060	NaN	0.000000	0.001710	0.001685	28.0842	0.104253	0.001947	53.5434	-34.9196	-168.576	-0.007472	0.401293	-0.783691	-0.784993	-0.008060	53.5434	-0.783578	-2.690586E+10	2.995511E-13	NaN
1107	1.000000	0.412590	7.37588e+06	-55489.1	1055.82	-29741.3	0.000000	0.000000	6.412892	-0.038765	NaN	0.000000	0.001640	0.001725	28.0844	0.074404	0.001937	38.4084	147.557	10.9994	-0.009279	0.411265	-0.773696	-0.775021	-0.038765	38.4084	-0.772939	-1.928703E+10	2.009882E-12	NaN
1107	1.000000	0.422630	7.37588e+06	-55489.1	1055.82	-29741.3	0.000000	0.000000	6.422934	0.021060	NaN	0.000000	0.001581	0.001695	28.0844	0.134135	0.001957	68.5502	167.471	-164.422	0.089820	0.421291	-0.763657	-0.764995	0.021060	68.5502	-0.763887	-1.452696E+10	-1.449687E-12	NaN
1107	1.000000	0.432595	7.37588e+06	-55489.1	1055.82	-29741.3	0.000000	0.000000	6.432897	-0.042206	NaN	0.000000	0.001621	0.001706	28.0842	0.030143	0.002070	14.5607	37.5751	13.9646	0.013240	0.431264	-0.753691	-0.755022	-0.042206	14.5607	-0.751517	-9.859760E+9	4.280608E-12	NaN
1107	1.000000	0.442616	7.37588e+06	-55489.1	1055.82	-29741.3	0.000000	0.000000	6.442921	0.023905	NaN	0.000000	0.001572	0.001688	28.0841	0.118008	0.001981	59.581	-81.2544	-166.74	0.168742	0.441280	-0.743670	-0.745006	0.023905	59.581	-0.743971	-7.782783E+9	-3.071565E-12	NaN
1107	1.000000	0.452615	7.37588e+06	-55489.1	1055.82	-29741.3	0.000000	0.000000	6.452916	-0.064358	NaN	0.000000	0.001579	0.001684	28.0843	0.121654	0.002072	58.7087	-131.304	15.776	-0.065730	0.451265	-0.733671	-0.735022	-0.064358	58.7087	-0.732849	-5.490729E+9	1.172123E-11	NaN
1107	1.000000	0.462625	7.37588e+06	-55489.1	1055.82	-29741.3	0.000000	0.000000	6.462929	-0.005019	NaN	0.000000	0.001582	0.001707	28.0843	0.092656	0.001976	46.8924	87.3273	-166.492	0.007308	0.461319	-0.723661	-0.724967	-0.005019	46.8924	-0.723581	-4.104861E+9	1.222649E-12	NaN
1107	1.000000	0.472645	7.37588e+06	-55489.1	1055.82	-29741.3	0.000000	0.000000	6.472946	-0.048196	NaN	0.000000	0.001562	0.001711	28.0845	0.106685	0.001978	53.9494	152.801	12.4846	-0.028339	0.471318	-0.713641	-0.714968	-0.048196	53.9494	-0.712971	-2.941675E+9	1.638401E-11	NaN
1107	1.000000	0.482603	7.37588e+06	-55489.1	1055.82	-29741.3	0.000000	0.000000	6.482904	-0.063088	NaN	0.000000	0.001562	0.001722	28.0842	0.030703	0.002082	14.7482	143.983	-166.893	0.054691	0.481279	-0.703683	-0.705007	-0.063088	14.7482	-0.700475	-1.986154E+9	3.176414E-11	NaN
1107	1.000000	0.492635	7.37588e+06	-55489.1	1055.82	-29741.3	0.000000	0.000000	6.492936	-0.055137	NaN	0.000000	0.001597	0.001724	28.0845	0.049491	0.002047	24.1738	-120.434	14.8729	-0.016038	0.491272	-0.693651	-0.695014	-0.055137	24.1738	-0.691941	-1.518585E+9	3.630834E-11	NaN
1107	1.000000	0.502644	7.37588e+06	-55489.1	1055.82	-29741.3	0.000000	0.000000	6.502947	-0.010033	NaN	0.000000	0.001613	0.001704	28.0829	0.161751	0.001918	84.3521	5.387033	-169.503	0.087757	0.501318	-0.683642	-0.684968	-0.010033	84.3521	-0.683553	-1.166232E+9	8.603090E-12	NaN
1107	1.000000	0.512658	7.37588e+06	-55489.1	1055.82	-29741.3	0.000000	0.000000	6.512962	0.030623	NaN	0.000000	0.001636	0.001682	28.083	0.066788	0.001956	34.1467	66.9595	14.8691	0.038891	0.511317	-0.673628	-0.674969	0.030623	34.1467	-0.674301	-8.714620E+8	-3.513985E-11	NaN
1107	1.000000	0.522629	7.37588e+06	-55489.1	1055.82	-29741.3	0.000000	0.000000	6.522935	0.048105	NaN	0.000000	0.001567	0.001691	28.0828	0.048418	0.002046	23.6629	70.0324	-168.74	0.074524	0.521337	-0.663657	-0.664949	0.048105	23.6629	-0.665182	-6.537753E+8	-7.358012E-11	NaN
1107	1.000000	0.532643	7.37588e+06	-55489.1	1055.82	-29741.3	0.000000	0.000000	6.532948	0.018139	NaN	0.000000	0.001599	0.001684	28.0832	0.090576	0.002006	45.1605	-165.635	15.5894	0.086586	0.531292	-0.653643	-0.654994	0.018139	45.1605	-0.653944	-4.586664E+8	-3.954803E-11	NaN
1107	1.000000	0.542676	7.37588e+06	-55489.1	1055.82	-29741.3	0.000000	0.000000	6.542979	-0.015785	NaN	0.000000	0.001578	0.001648	28.083	0.067513	0.001937	34.8562	157.41	-166.128	0.029275	0.541321	-0.643610	-0.644965	-0.015785	34.8562	-0.643271	-3.274603E+8	4.820401E-11	NaN
1107	1.000000	0.552679	7.37588e+06	-55489.1	1055.82	-29741.3	0.000000	0.000000	6.552983	0.005948	NaN	0.000000	0.001569	0.001676	28.0825	0.098421	0.002056	47.8709	78.7436	11.7897	-0.034280	0.551305	-0.633607	-0.634981	0.005948	47.8709	-0.633700	-2.420089E+8	-2.457648E-11	NaN
1107	1.000000	0.562661	7.37588e+06	-55489.1	1055.82	-29741.3	0.000000	0.000000	6.562966	0.028982	NaN	0.000000	0.001548	0.001668	28.0831	0.069573	0.002031	34.258	59.3171	-162.174	-0.023896	0.561322	-0.623625	-0.624964	0.028982	34.258	-0.624260	-1.795449E+8	-1.614173E-10	NaN
1107	1.000000	0.572652	7.37588e+06	-55489.1	1055.82	-29741.3	0.000000	0.000000	6.572954	-0.020877	NaN	0.000000	0.001577	0.001686	28.0827	0.100203	0.001959	51.1376	142.622	13.223	0.002648	0.571309	-0.613635	-0.614977	-0.020877	51.1376	-0.613328	-1.270283E+8	1.643484E-10	NaN
1107	1.000000	0.582651	7.37588e+06	-55489.1	1055.82	-29741.3	0.000000	0.000000	6.582954	0.009670	NaN	0.000000	0.001549	0.001683	28.0826	0.085206	0.002002	42.5561	-36.1791	-164.432	-0.016074	0.581356	-0.603636	-0.604930	0.009670	42.5561	-0.603806	-9.394381E+7	-1.029384E-10	NaN
1107	1.000000	0.592677	7.37588e+06	-55489.1	1055.82	-29741.3	0.000000	0.000000	6.592978	-0.069940	NaN	0.000000	0.001563	0.001714	28.0824	0.070891	0.001988	35.6578	-69.2442	10.9986	0.037406	0.591320	-0.593609	-0.594966	-0.069940	35.6578	-0.592138	-6.488417E+7	1.077924E-9	NaN
1107	1.000000	0.602668	7.37588e+06	-55489.1	1055.82	-29741.3	0.000000	0.000000	6.602974	0.067441	NaN	0.000000	0.001579	0.001694	28.0826	0.068365	0.002073	32.9851	-81.8921	-165.922	0.060638	0.601382	-0.583618	-0.584904	0.067441	32.9851	-0.585152	-5.197639E+7	-1.297537E-9	NaN
1107	1.000000	0.612658	7.37588e+06	-55489.1	1055.82	-29741.3	0.000000	0.000000	6.612959	-0.042458	NaN	0.000000	0.001612	0.001745	28.0826	0.127178	0.002039	62.3736	123.209	13.9037	0.014754	0.611361	-0.573628	-0.574925	-0.042458	62.3736	-0.573118	-3.545731E+7	1.197430E-9	NaN
1107	1.000000	0.622687	7.37588e+06	-55489.1	1055.82	-29741.3	0.000000	0.000000	6.622992	0.023695	NaN	0.000000	0.001579	0.001741	28.0825	0.062715	0.001958	32.029	-68.6064	-166.423	0.020109	0.621347	-0.563599	-0.564939	0.023695	32.029	-0.564154	-2.665783E+7	-8.888412E-10	NaN
1107	1.000000	0.632694	7.37588e+06	-55489.1	1055.82	-29741.3	0.000000	0.000000	6.632998	0.005651	NaN	0.000000	0.001578	0.001741	28.0828	0.016404	0.002011	8.157490	-165.205	13.6536	-0.078984	0.631314	-0.553592	-0.554972	0.005651	8.157490	-0.554112	-1.935942E+7	-2.919067E-10	NaN
1107	1.000000	0.642677	7.37588e+06	-55489.1	1055.82	-29741.3	0.000000	0.000000	6.642978	-0.045346	NaN	0.000000	0.001587	0.001766	28.0838	0.087870	0.002039	43.0938	0.496510	-169.204	-0.023549	0.641411	-0.543609	-0.544875	-0.045346	43.0938	-0.542820	-1.350400E+7	3.357946E-9	NaN
1107	1.000000	0.652716	7.37588e+06	-55489.1	1055.82	-29741.3	0.000000	0.000000	6.653019	0.002129	NaN	0.000000	0.001553	0.001706	28.0837	0.125202	0.002046	61.2036	56.2629	12.1587	-0.018418	0.651369	-0.533571	-0.534917	0.002129	61.2036	-0.533597	-1.005803E+7	-2.117148E-10	NaN
1107	1.000000	0.662709	7.37588e+06	-55489.1	1055.82	-29741.3	0.000000	0.000000	6.663012	-0.006664	NaN	0.000000	0.001586	0.001719	28.0838	0.114938	0.002086	55.1061	-168.484	-162.793	0.051358	0.661356	-0.523577	-0.524930	-0.006664	55.1061	-0.523486	-7.27902e+06	9.155112E-10	NaN
1107	1.000000	0.672688	7.37588e+06	-55489.1	1055.82	-29741.3	0.000000	0.000000	6.672995	0.061053	NaN	0.000000	0.001590	0.001682	28.0838	0.105542	0.002083	50.6773	119.242	12.4307	-0.092240	0.671367	-0.513598	-0.514919	0.061053	50.6773	-0.514501	-5.45871e+06	-1.118455E-8	NaN
1107	1.000000	0.682728	7.37588e+06	-55489.1	1055.82	-29741.3	0.000000	0.000000	6.683031	-0.020524	NaN	0.000000	0.001602	0.001671	28.0839	0.031573	0.001886	16.7397	-19.6147	-166.041	0.007111	0.681380	-0.503558	-0.504906	-0.020524	16.7397	-0.502638	-3.73092e+06	5.500950E-9	NaN
1107	1.000000	0.692722	7.37588e+06	-55489.1	1055.82	-29741.3	0.000000	0.000000	6.693024	-0.016798	NaN	0.000000	0.001584	0.001702	28.0838	0.032253	0.002053	15.7099	46.4822	14.9582	0.101499	0.691359	-0.493565	-0.494927	-0.016798	15.7099	-0.492763	-2.71637e+06	6.183953E-9	NaN
1107	1.000000	0.702733	7.37588e+06	-55489.1	1055.82	-29741.3	0.000000	0.000000	6.703036	-0.012061	NaN	0.000000	0.001573	0.001697	28.0842	0.120505	0.001903	63.3364	-48.153	-170.813	0.114363	0.701423	-0.483554	-0.484863	-0.012061	63.3364	-0.483411	-2.01029e+06	5.999846E-9	NaN
1107	1.000000	0.712721	7.37588e+06	-55489.1	1055.82	-29741.3	0.000000	0.000000	6.713027	0.039386	NaN	0.000000	0.001624	0.001677	28.0836	0.021410	0.001980	10.8105	110.165	14.9703	-0.004767	0.711414	-0.473565	-0.474872	0.039386	10.8105	-0.476297	-1.59836e+06	-2.464166E-8	NaN
1107	1.000000	0.722713	7.37588e+06	-55489.1	1055.82	-29741.3	0.000000	0.000000	6.723017	0.011130	NaN	0.000000	0.001597	0.001758	28.0838	0.006962	0.001939	3.590914	44.0328	-166.484	-0.045547	0.721429	-0.463573	-0.464857	0.011130	3.590914	-0.465898	-1.14247e+06	-9.742133E-9	NaN
1107	1.000000	0.732710	7.37588e+06	-55489.1	1055.82	-29741.3	0.000000	0.000000	6.733016	0.058791	NaN	0.000000	0.001567	0.001685	28.0835	0.022115	0.002060	10.7366	-135.495	11.8092	-0.008478	0.731376	-0.453576	-0.454910	0.058791	10.7366	-0.457683	-875888	-6.712125E-8	NaN
1107	1.000000	0.742761	7.37588e+06	-55489.1	1055.82	-29741.3	0.000000	0.000000	6.743066	0.035944	NaN	0.000000	0.001529	0.001672	28.0845	0.107607	0.001856	57.9902	-83.7356	-167.46	-0.009260	0.741386	-0.443525	-0.444900	0.035944	57.9902	-0.443990	-561890	-6.396973E-8	NaN
1107	1.000000	0.752736	7.37588e+06	-55489.1	1055.82	-29741.3	0.000000	0.000000	6.753038	-0.028589	NaN	0.000000	0.001569	0.001661	28.0851	0.074562	0.001983	37.6038	-120.153	11.5889	-0.011058	0.751414	-0.433550	-0.434872	-0.028589	37.6038	-0.432980	-392828	7.277717E-8	NaN
1107	1.000000	0.762737	7.37588e+06	-55489.1	1055.82	-29741.3	0.000000	0.000000	6.763041	0.005672	NaN	0.000000	0.001530	0.001699	28.0846	0.129029	0.001971	65.4541	-160.241	-165.696	0.008690	0.761379	-0.423549	-0.424907	0.005672	65.4541	-0.423614	-289498	-1.959326E-8	NaN
1107	1.000000	0.772728	7.37588e+06	-55489.1	1055.82	-29741.3	0.000000	0.000000	6.773034	0.069057	NaN	0.000000	0.001520	0.001686	28.0833	0.044835	0.002076	21.6017	-2.473525	14.2853	0.053312	0.771389	-0.413558	-0.414898	0.069057	21.6017	-0.415956	-225438	-3.063210E-7	NaN
1107	1.000000	0.782742	7.37588e+06	-55489.1	1055.82	-29741.3	0.000000	0.000000	6.783046	-0.009679	NaN	0.000000	0.001543	0.001677	28.0826	0.029344	0.002012	14.5831	131.434	-166.889	-0.055677	0.781372	-0.403544	-0.404914	-0.009679	14.5831	-0.403046	-147711	6.552343E-8	NaN
1107	1.000000	0.792746	7.37588e+06	-55489.1	1055.82	-29741.3	0.000000	0.000000	6.793050	0.023474	NaN	0.000000	0.001558	0.001697	28.0828	0.089240	0.001928	46.2955	-84.4115	10.5474	0.035441	0.791362	-0.393540	-0.394924	0.023474	46.2955	-0.393921	-109451	-2.144701E-7	NaN
1107	1.000000	0.802777	7.37588e+06	-55489.1	1055.82	-29741.3	0.000000	0.000000	6.803079	-0.039925	NaN	0.000000	0.001592	0.001700	28.0824	0.026078	0.002025	12.8765	-25.6495	-164.431	-0.028690	0.801500	-0.383509	-0.384786	-0.039925	12.8765	-0.381184	-71924.7	5.551012E-7	NaN
1107	1.000000	0.812772	7.37588e+06	-55489.1	1055.82	-29741.3	0.000000	0.000000	6.813075	-0.012227	NaN	0.000000	0.001560	0.001683	28.0825	0.094516	0.001952	48.4112	-118.761	13.8777	0.017016	0.811459	-0.373515	-0.374827	-0.012227	48.4112	-0.373325	-55460.8	2.204571E-7	NaN
1107	1.000000	0.822752	7.37588e+06	-55489.1	1055.82	-29741.3	0.000000	0.000000	6.823057	0.027290	NaN	0.000000	0.001578	0.001717	28.0828	0.036530	0.001940	18.8305	36.3899	-169.134	0.080062	0.821443	-0.363534	-0.364844	0.027290	18.8305	-0.364621	-41551	-6.567738E-7	NaN
1107	1.000000	0.832764	7.37588e+06	-55489.1	1055.82	-29741.3	0.000000	0.000000	6.833071	0.064881	NaN	0.000000	0.001575	0.001702	28.0826	0.109329	0.001958	55.8457	-160.639	15.1655	-0.010266	0.831398	-0.353522	-0.354888	0.064881	55.8457	-0.354393	-29560.1	-2.194901E-6	NaN
1107	1.000000	0.842760	7.37588e+06	-55489.1	1055.82	-29741.3	0.000000	0.000000	6.843061	-0.044807	NaN	0.000000	0.001602	0.001711	28.0824	0.116754	0.001994	58.5436	-160.672	-164.859	-0.004963	0.841482	-0.343526	-0.344804	-0.044807	58.5436	-0.342952	-20163.3	2.222187E-6	NaN
1107	1.000000	0.852792	7.37588e+06	-55489.1	1055.82	-29741.3	0.000000	0.000000	6.853093	-0.045622	NaN	0.000000	0.001587	0.001681	28.0828	0.058796	0.001957	30.0511	19.7825	14.8962	-0.041010	0.851388	-0.333495	-0.334898	-0.045622	30.0511	-0.332356	-14123.2	3.230267E-6	NaN
1107	1.000000	0.862768	7.37588e+06	-55489.1	1055.82	-29741.3	0.000000	0.000000	6.863070	-0.040283	NaN	0.000000	0.001573	0.001703	28.0829	0.058002	0.002072	27.9909	-77.5606	-164.961	-0.041110	0.861408	-0.323518	-0.324878	-0.040283	27.9909	-0.322439	-10104.5	3.986609E-6	NaN
1107	1.000000	0.872798	7.37588e+06	-55489.1	1055.82	-29741.3	0.000000	0.000000	6.873103	0.052428	NaN	0.000000	0.001600	0.001700	28.0825	0.018549	0.002104	8.815702	31.4094	15.4167	0.157397	0.871452	-0.313488	-0.314834	0.052428	8.815702	-0.317949	-8678.22	-6.041350E-6	NaN
1107	1.000000	0.882760	7.37588e+06	-55489.1	1055.82	-29741.3	0.000000	0.000000	6.883067	0.076459	NaN	0.000000	0.001558	0.001699	28.0823	0.108679	0.001919	56.6424	-55.5164	-163.016	-0.008292	0.881443	-0.303526	-0.304843	0.076459	56.6424	-0.304538	-5496.7	-1.390991E-5	NaN
1107	1.000000	0.892823	7.37588e+06	-55489.1	1055.82	-29741.3	0.000000	0.000000	6.893127	0.020613	NaN	0.000000	0.001566	0.001694	28.0826	0.100312	0.001931	51.9608	87.204	15.0999	-0.030072	0.891421	-0.293464	-0.294865	0.020613	51.9608	-0.293761	-3798.22	-5.427084E-6	NaN
1107	1.000000	0.902806	7.37588e+06	-55489.1	1055.82	-29741.3	0.000000	0.000000	6.903110	0.032102	NaN	0.000000	0.001565	0.001709	28.0825	0.075174	0.001968	38.1902	14.7302	-168.834	0.148285	0.901444	-0.283481	-0.284842	0.032102	38.1902	-0.284111	-2722.07	-1.179323E-5	NaN
1107	1.000000	0.912808	7.37588e+06	-55489.1	1055.82	-29741.3	0.000000	0.000000	6.913111	-0.029232	NaN	0.000000	0.001564	0.001651	28.0839	0.027043	0.002013	13.4314	115.668	10.0461	0.017175	0.911470	-0.273478	-0.274816	-0.029232	13.4314	-0.271846	-1776.56	1.645420E-5	NaN
1107	1.000000	0.922798	7.37588e+06	-55489.1	1055.82	-29741.3	0.000000	0.000000	6.923100	-0.045200	NaN	0.000000	0.001581	0.001698	28.0841	0.076332	0.001849	41.2901	36.8659	-166.949	-0.077409	0.921504	-0.263488	-0.264782	-0.045200	41.2901	-0.262667	-1287.5	3.510719E-5	NaN
1107	1.000000	0.932831	7.37588e+06	-55489.1	1055.82	-29741.3	0.000000	0.000000	6.933132	-0.057186	NaN	0.000000	0.001557	0.001730	28.0843	0.103589	0.001996	51.8882	-51.4847	14.5209	0.025990	0.931420	-0.253455	-0.254867	-0.057186	51.8882	-0.252629	-902.757	6.334589E-5	NaN
1107	1.000000	0.942830	7.37588e+06	-55489.1	1055.82	-29741.3	0.000000	0.000000	6.943130	-0.088204	NaN	0.000000	0.001551	0.001691	28.0841	0.143966	0.002086	69.0235	-20.4519	-164.516	0.022297	0.941508	-0.243456	-0.244779	-0.088204	69.0235	-0.242498	-628.807	0.000140	NaN
1107	1.000000	0.952818	7.37588e+06	-55489.1	1055.82	-29741.3	0.000000	0.000000	6.953121	-0.012866	NaN	0.000000	0.001583	0.001666	28.0841	0.122500	0.002002	61.1984	168.898	10.4562	-0.053571	0.951448	-0.233468	-0.234838	-0.012866	61.1984	-0.233311	-451.542	2.849449E-5	NaN
1107	1.000000	0.962800	7.37588e+06	-55489.1	1055.82	-29741.3	0.000000	0.000000	6.963101	-0.059219	NaN	0.000000	0.001585	0.001702	28.0842	0.055355	0.002011	27.5307	153.434	-168.408	-0.040461	0.961537	-0.223486	-0.224749	-0.059219	27.5307	-0.221873	-297.558	0.000199	NaN
1107	1.000000	0.972850	7.37588e+06	-55489.1	1055.82	-29741.3	0.000000	0.000000	6.973155	0.055363	NaN	0.000000	0.001580	0.001708	28.0842	0.114125	0.002108	54.134	69.5619	8.712127	-0.011993	0.971486	-0.213436	-0.214800	0.055363	54.134	-0.214203	-224.231	-0.000247	NaN
1107	1.000000	0.982820	7.37588e+06	-55489.1	1055.82	-29741.3	0.000000	0.000000	6.983120	-0.073578	NaN	0.000000	0.001582	0.001704	28.0842	0.062048	0.001971	31.4751	173.557	-167.756	0.015691	0.981556	-0.203466	-0.204730	-0.073578	31.4751	-0.201713	-140.546	0.000524	NaN
1107	1.000000	0.992806	7.37588e+06	-55489.1	1055.82	-29741.3	0.000000	0.000000	6.993110	0.000998	NaN	0.000000	0.001603	0.001692	28.0842	0.093562	0.002012	46.4959	118.676	16.8672	-0.000239	0.991460	-0.193480	-0.194826	0.000998	46.4959	-0.193496	-102.861	-9.701097E-6	NaN
1107	1.000000	1.002865	7.37588e+06	-55489.1	1055.82	-29741.3	0.000000	0.000000	7.003167	-0.031240	NaN	0.000000	0.001574	0.001669	28.0844	0.029018	0.002078	13.9639	-42.5393	-167.032	-0.099382	1.001534	-0.183421	-0.184752	-0.031240	13.9639	-0.181743	-65.3251	0.000478	NaN
1107	1.000000	1.012859	7.37588e+06	-55489.1	1055.82	-29741.3	0.000000	0.000000	7.013163	0.004691	NaN	0.000000	0.001588	0.001718	28.0841	0.088740	0.001972	45.0067	165.824	14.4927	0.046724	1.011483	-0.173427	-0.174803	0.004691	45.0067	-0.173505	-47.2335	-9.932476E-5	NaN
1107	1.000000	1.022815	7.37588e+06	-55489.1	1055.82	-29741.3	0.000000	0.000000	7.023119	0.015433	NaN	0.000000	0.001580	0.001734	28.0841	0.019036	0.001962	9.699870	146.329	-166.851	-0.053430	1.021513	-0.163471	-0.164773	0.015433	9.699870	-0.164665	-33.1447	-0.000466	NaN
1107	1.000000	1.032866	7.37588e+06	-55489.1	1055.82	-29741.3	0.000000	0.000000	7.033168	-0.036176	NaN	0.000000	0.001552	0.001715	28.0844	0.076297	0.001958	38.9589	174.039	14.1554	0.017824	1.031499	-0.153421	-0.154787	-0.036176	38.9589	-0.152724	-20.3003	0.001782	NaN
1107	1.000000	1.042864	7.37588e+06	-55489.1	1055.82	-29741.3	0.000000	0.000000	7.043167	-0.016282	NaN	0.000000	0.001565	0.001677	28.0844	0.043783	0.001963	22.3056	-122.612	-167.866	0.021967	1.041562	-0.143422	-0.144724	-0.016282	22.3056	-0.142875	-13.3884	0.001216	NaN
1107	1.000000	1.052857	7.37588e+06	-55489.1	1055.82	-29741.3	0.000000	0.000000	7.053160	0.001109	NaN	0.000000	0.001525	0.001682	28.0829	0.100801	0.001990	50.6528	-175.306	12.8947	0.018042	1.051479	-0.133430	-0.134807	0.001109	50.6528	-0.133446	-8.882663	-0.000125	NaN
1107	1.000000	1.062863	7.37588e+06	-55489.1	1055.82	-29741.3	0.000000	0.000000	7.063166	-0.002143	NaN	0.000000	0.001552	0.001662	28.083	0.029284	0.002143	13.6619	-89.8229	-165.281	-0.063538	1.061556	-0.123423	-0.124730	-0.002143	13.6619	-0.123306	-5.628061	0.000381	NaN
1107	1.000000	1.072885	7.37588e+06	-55489.1	1055.82	-29741.3	0.000000	0.000000	7.073192	0.073282	NaN	0.000000	0.001513	0.001711	28.0833	0.091922	0.002184	42.0977	-118.894	15.1876	0.108383	1.071455	-0.113401	-0.114831	0.073282	42.0977	-0.114706	-3.767446	-0.019451	NaN
1107	1.000000	1.082895	7.37588e+06	-55489.1	1055.82	-29741.3	0.000000	0.000000	7.083198	-0.013882	NaN	0.000000	0.001550	0.001701	28.083	0.052154	0.001842	28.3197	-173.601	-166.97	0.002164	1.081501	-0.103391	-0.104785	-0.013882	28.3197	-0.103024	-2.129446	0.006519	NaN
1107	1.000000	1.092909	7.37588e+06	-55489.1	1055.82	-29741.3	0.000000	0.000000	7.093210	-0.052581	NaN	0.000000	0.001570	0.001703	28.083	0.068912	0.002027	33.9981	40.2095	14.841	-0.175576	1.091512	-0.093377	-0.094774	-0.052581	33.9981	-0.092217	-1.217585	0.043185	NaN
1107	1.000000	1.102857	7.37588e+06	-55489.1	1055.82	-29741.3	0.000000	0.000000	7.103161	-0.004089	NaN	0.000000	0.001569	0.001712	28.0831	0.039335	0.001984	19.8294	133.367	-168.678	-0.022403	1.101580	-0.083429	-0.084706	-0.004089	19.8294	-0.083274	-0.745887	0.005482	NaN
1107	1.000000	1.112879	7.37588e+06	-55489.1	1055.82	-29741.3	0.000000	0.000000	7.113182	-0.012926	NaN	0.000000	0.001553	0.001702	28.083	0.068186	0.001891	36.0565	174.774	13.6809	-0.028747	1.111550	-0.073407	-0.074736	-0.012926	36.0565	-0.073138	-0.413077	0.031291	NaN
1107	1.000000	1.122874	7.37588e+06	-55489.1	1055.82	-29741.3	0.000000	0.000000	7.123179	0.027371	NaN	0.000000	0.001565	0.001699	28.083	0.044546	0.001980	22.4932	-126.165	-167.4	0.037026	1.121589	-0.063412	-0.064697	0.027371	22.4932	-0.064325	-0.238674	-0.114681	NaN
1107	1.000000	1.132908	7.37588e+06	-55489.1	1055.82	-29741.3	0.000000	0.000000	7.133213	0.031929	NaN	0.000000	0.001586	0.001701	28.0831	0.039729	0.001940	20.4754	-140.989	12.9076	-0.033253	1.131510	-0.053378	-0.054776	0.031929	20.4754	-0.054548	-0.124871	-0.255694	NaN
1107	1.000000	1.142887	7.37588e+06	-55489.1	1055.82	-29741.3	0.000000	0.000000	7.143192	0.035296	NaN	0.000000	0.001581	0.001699	28.0841	0.071920	0.002080	34.5805	-49.0818	-167.786	0.021334	1.141570	-0.043399	-0.044716	0.035296	34.5805	-0.044165	-0.060597	-0.582473	NaN
1107	1.000000	1.152882	7.37588e+06	-55489.1	1055.82	-29741.3	0.000000	0.000000	7.153187	0.034365	NaN	0.000000	0.001570	0.001699	28.0834	0.048996	0.001986	24.6668	133.14	11.9449	0.126683	1.151537	-0.033404	-0.034749	0.034365	24.6668	-0.034449	-0.030852	-1.113864	NaN
1107	1.000000	1.162907	7.37588e+06	-55489.1	1055.82	-29741.3	0.000000	0.000000	7.163211	-0.004603	NaN	0.000000	0.001598	0.001682	28.083	0.115608	0.002042	56.6222	-112.208	-167.35	0.084094	1.161637	-0.023379	-0.024649	-0.004603	56.6222	-0.023318	-0.015260	0.301638	NaN
1107	1.000000	1.172900	7.37588e+06	-55489.1	1055.82	-29741.3	0.000000	0.000000	7.173204	0.019714	NaN	0.000000	0.001631	0.001660	28.0831	0.110198	0.002015	54.6897	-106.397	15.698	0.089106	1.171509	-0.013386	-0.014777	0.019714	54.6897	-0.013657	-0.008483	-2.323994	NaN
1107	1.000000	1.182925	7.37588e+06	-55489.1	1055.82	-29741.3	0.000000	0.000000	7.183230	0.029161	NaN	0.000000	0.001593	0.001644	28.0844	0.102680	0.002010	51.0922	-30.5475	-163.877	-0.042771	1.181556	-0.003361	-0.004730	0.029161	51.0922	-0.003789	-0.002642	-11.0385	NaN
1107	2.000000	1.192659	7.37588e+06	-55489.1	1055.82	-29741.3	0.000000	0.000000	7.193293	8.022663	NaN	0.000000	0.001562	0.001665	28.0844	8.185090	0.001664	4919.14	12.3112	3.555456	7.200363	1.191530	0.006373	0.005244	8.022663	4919.14	0.005150	0.004271	1878.59	68773.3
1107	2.000000	1.195482	7.37588e+06	-55489.1	1055.82	-29741.3	0.000000	0.000000	7.196234	10.8987	NaN	0.000000	0.001589	0.001683	28.0844	11.6845	0.001701	6870.2	10.9654	-178.225	10.7631	1.195248	0.009196	0.008962	10.8987	6870.2	0.008006	0.007048	1546.27	74765.1
1107	2.000000	1.198000	7.37588e+06	-55489.1	1055.82	-29741.3	0.000000	0.000000	7.198870	13.7601	NaN	0.000000	0.001584	0.001720	28.0844	14.1314	0.001796	7868.59	6.639715	7.121613	13.273	1.197576	0.011714	0.011290	13.7601	7868.59	0.010402	0.009632	1428.57	73250.3
1107	2.000000	1.200431	7.37588e+06	-55489.1	1055.82	-29741.3	0.000000	0.000000	7.201578	20.5017	NaN	0.000000	0.001603	0.001710	28.0844	16.827	0.001817	9259.59	4.591518	-173.853	19.7359	1.200087	0.014145	0.013801	20.5017	9259.59	0.012484	0.012075	1697.83	76987
1107	2.000000	1.202933	7.37588e+06	-55489.1	1055.82	-29741.3	0.000000	0.000000	7.204269	25.0976	NaN	0.000000	0.001556	0.001702	28.0843	20.1145	0.001751	11489	11.2113	-2.826110	24.275	1.202596	0.016647	0.016310	25.0976	11489	0.015008	0.015296	1640.75	84870.8
1107	2.000000	1.205437	7.37588e+06	-55489.1	1055.82	-29741.3	0.000000	0.000000	7.206984	30.2318	NaN	0.000000	0.001626	0.001704	28.0843	23.1128	0.001852	12478.4	9.015922	178.867	29.382	1.205166	0.019151	0.018880	30.2318	12478.4	0.017334	0.018524	1632	83764.6
1107	2.000000	1.207939	7.37588e+06	-55489.1	1055.82	-29741.3	0.000000	0.000000	7.209729	36.1318	NaN	0.000000	0.001577	0.001669	28.0843	24.8542	0.001761	14112.9	7.975862	-1.392927	34.2654	1.207503	0.021653	0.021217	36.1318	14112.9	0.019733	0.022125	1633.1	86686.4
1107	2.000000	1.210431	7.37588e+06	-55489.1	1055.82	-29741.3	0.000000	0.000000	7.212524	43.5074	NaN	0.000000	0.001627	0.001724	28.0842	27.275	0.001789	15244.6	3.241054	-177.643	43.7978	1.210084	0.024145	0.023798	43.5074	15244.6	0.022004	0.025790	1686.97	86728.6
1107	2.000000	1.212924	7.37588e+06	-55489.1	1055.82	-29741.3	0.000000	0.000000	7.215310	50.6073	NaN	0.000000	0.001608	0.001657	28.0841	30.5835	0.001800	16986.9	5.034710	-0.605457	49.817	1.212566	0.026638	0.026279	50.6073	16986.9	0.024404	0.029940	1690.29	89693.7
1107	2.000000	1.215393	7.37588e+06	-55489.1	1055.82	-29741.3	0.000000	0.000000	7.218145	59.5091	NaN	0.000000	0.001614	0.001704	28.0843	33.8852	0.001771	19128.8	7.927711	175.269	59.1302	1.215115	0.029107	0.028829	59.5091	19128.8	0.026774	0.034322	1733.87	94336.3
1107	2.000000	1.217908	7.37588e+06	-55489.1	1055.82	-29741.3	0.000000	0.000000	7.221155	71.5641	NaN	0.000000	0.001544	0.001668	28.0844	35.4439	0.001775	19971.8	6.759476	-2.711388	70.663	1.217515	0.031622	0.031228	71.5641	19971.8	0.028934	0.038564	1855.74	92918.1
1107	2.000000	1.220423	7.37588e+06	-55489.1	1055.82	-29741.3	0.000000	0.000000	7.223742	73.2909	NaN	0.000000	0.001610	0.001689	28.0843	36.9637	0.001643	22501.1	1.939269	-179.635	76.5498	1.220134	0.034137	0.033848	73.2909	22501.1	0.031694	0.044328	1653.38	97642.3
1107	2.000000	1.222900	7.37588e+06	-55489.1	1055.82	-29741.3	0.000000	0.000000	7.226840	88.3842	NaN	0.000000	0.001560	0.001698	28.0842	40.9747	0.001768	23172.9	5.066339	-3.621988	87.1269	1.222443	0.036614	0.036157	88.3842	23172.9	0.033753	0.048883	1808.07	95757.8
1107	2.000000	1.225415	7.37588e+06	-55489.1	1055.82	-29741.3	0.000000	0.000000	7.229871	100.946	NaN	0.000000	0.001592	0.001685	28.0828	44.0154	0.001775	24800.7	7.184416	174.089	102.104	1.225112	0.039129	0.038826	100.946	24800.7	0.036076	0.054281	1859.68	97255.2
1107	2.000000	1.227889	7.37588e+06	-55489.1	1055.82	-29741.3	0.000000	0.000000	7.232635	107.974	NaN	0.000000	0.001594	0.001713	28.0831	44.6821	0.001773	25201.7	1.548690	-0.652129	106.351	1.227591	0.041603	0.041305	107.974	25201.7	0.038390	0.059934	1801.56	94051.9
1107	2.000000	1.230352	7.37588e+06	-55489.1	1055.82	-29741.3	0.000000	0.000000	7.235776	124.471	NaN	0.000000	0.001580	0.001698	28.0829	47.3871	0.001665	28456.8	4.709448	175.021	123.365	1.230034	0.044066	0.043747	124.471	28456.8	0.040785	0.066073	1883.85	101146
1107	2.000000	1.232839	7.37588e+06	-55489.1	1055.82	-29741.3	0.000000	0.000000	7.238828	138.205	NaN	0.000000	0.001616	0.001693	28.0829	50.6614	0.001872	27067.1	2.645949	-2.422931	133.829	1.232458	0.046553	0.046172	138.205	27067.1	0.042723	0.071255	1939.58	92641.6
1107	2.000000	1.235386	7.37588e+06	-55489.1	1055.82	-29741.3	0.000000	0.000000	7.241679	145.608	NaN	0.000000	0.001602	0.001669	28.0832	53.5487	0.001839	29119.7	4.151645	175.218	143.654	1.235063	0.049100	0.048777	145.608	29119.7	0.045349	0.078582	1852.94	94907
1107	2.000000	1.237865	7.37588e+06	-55489.1	1055.82	-29741.3	0.000000	0.000000	7.244979	165.553	NaN	0.000000	0.001581	0.001720	28.0835	55.7133	0.001868	29828.9	6.405533	-6.385278	163.289	1.237499	0.051579	0.051212	165.553	29828.9	0.047416	0.084594	1957.04	93700.4
1107	2.000000	1.240364	7.37588e+06	-55489.1	1055.82	-29741.3	0.000000	0.000000	7.247917	176.206	NaN	0.000000	0.001576	0.001705	28.0831	57.8581	0.001819	31801	5.113896	174.001	175.886	1.240052	0.054078	0.053766	176.206	31801	0.049923	0.092174	1911.68	95699.6
1107	2.000000	1.242890	7.37588e+06	-55489.1	1055.82	-29741.3	0.000000	0.000000	7.251067	191.402	NaN	0.000000	0.001579	0.001677	28.083	60.1058	0.001712	35106.7	5.885787	-7.939016	190.595	1.242565	0.056604	0.056279	191.402	35106.7	0.052515	0.100345	1907.45	101255
1107	2.000000	1.245296	7.37588e+06	-55489.1	1055.82	-29741.3	0.000000	0.000000	7.254211	209.338	NaN	0.000000	0.001577	0.001727	28.0831	63.796	0.001829	34871.5	4.985240	173.096	205.366	1.245036	0.059009	0.058750	209.338	34871.5	0.054507	0.106852	1959.15	97466
1107	2.000000	1.247824	7.37588e+06	-55489.1	1055.82	-29741.3	0.000000	0.000000	7.257427	226.056	NaN	0.000000	0.001598	0.001686	28.0832	64.4636	0.001729	37287.1	1.977045	-3.687128	221.845	1.247530	0.061538	0.061243	226.056	37287.1	0.056991	0.115240	1961.62	100353
1107	2.000000	1.250365	7.37588e+06	-55489.1	1055.82	-29741.3	0.000000	0.000000	7.260616	241.804	NaN	0.000000	0.001601	0.001712	28.0831	67.3005	0.001797	37441.2	6.072514	171.073	240.57	1.250182	0.064079	0.063896	241.804	37441.2	0.059235	0.123079	1964.62	97505.8
1107	2.000000	1.252798	7.37588e+06	-55489.1	1055.82	-29741.3	0.000000	0.000000	7.263825	260.666	NaN	0.000000	0.001573	0.001733	28.083	70.8345	0.001848	38328.6	7.696397	-9.885102	259.159	1.252525	0.066512	0.066239	260.666	38328.6	0.061411	0.130917	1991.07	96782.6
1107	2.000000	1.255295	7.37588e+06	-55489.1	1055.82	-29741.3	0.000000	0.000000	7.267051	278.385	NaN	0.000000	0.001603	0.001738	28.0832	73.0028	0.001788	40835.7	5.500988	171.681	274.367	1.254993	0.069009	0.068707	278.385	40835.7	0.063896	0.140148	1986.36	99659.9
1107	2.000000	1.257827	7.37588e+06	-55489.1	1055.82	-29741.3	0.000000	0.000000	7.270413	298.579	NaN	0.000000	0.001611	0.001690	28.0832	74.7017	0.001732	43135.8	4.021588	-7.206332	294.833	1.257483	0.071541	0.071197	298.579	43135.8	0.066349	0.149555	1996.45	101909
1107	2.000000	1.260341	7.37588e+06	-55489.1	1055.82	-29741.3	0.000000	0.000000	7.273430	310.788	NaN	0.000000	0.001638	0.001732	28.0844	76.6112	0.001775	43156.1	3.155252	174.127	311.378	1.260039	0.074055	0.073753	310.788	43156.1	0.068654	0.158656	1958.88	98988.9
1107	2.000000	1.262673	7.37588e+06	-55489.1	1055.82	-29741.3	0.000000	0.000000	7.276585	330.794	NaN	0.000000	0.001627	0.001725	28.0847	79.4586	0.001807	43969.2	1.907593	-5.018463	321.007	1.262404	0.076387	0.076118	330.794	43969.2	0.070744	0.167129	1979.27	98264.2
1107	2.000000	1.265246	7.37588e+06	-55489.1	1055.82	-29741.3	0.000000	0.000000	7.279605	341.673	NaN	0.000000	0.001589	0.001667	28.0847	82.5664	0.001693	48760.6	1.586834	173.903	337.025	1.265087	0.078960	0.078800	341.673	48760.6	0.073704	0.179482	1903.67	105156
1107	2.000000	1.267823	7.37588e+06	-55489.1	1055.82	-29741.3	0.000000	0.000000	7.283404	371.388	NaN	0.000000	0.001608	0.001710	28.0846	84.7456	0.001799	47104	7.039407	-10.2435	366.932	1.267431	0.081536	0.081145	371.388	47104	0.075623	0.187711	1978.51	99331.2
1107	2.000000	1.270303	7.37588e+06	-55489.1	1055.82	-29741.3	0.000000	0.000000	7.286444	384.989	NaN	0.000000	0.001613	0.001721	28.0842	88.2556	0.001823	48405.8	6.469396	169.443	381.623	1.270034	0.084017	0.083748	384.989	48405.8	0.078052	0.198377	1940.7	99294.5
1107	2.000000	1.272788	7.37588e+06	-55489.1	1055.82	-29741.3	0.000000	0.000000	7.289829	406.858	NaN	0.000000	0.001585	0.001706	28.0846	90.2391	0.001797	50216.2	2.509448	-6.701103	403.278	1.272541	0.086502	0.086255	406.858	50216.2	0.080425	0.209063	1946.11	100341
1107	2.000000	1.275251	7.37588e+06	-55489.1	1055.82	-29741.3	0.000000	0.000000	7.293297	431.29	NaN	0.000000	0.001620	0.001732	28.0847	92.5798	0.001748	52948.9	5.808057	170.228	429.686	1.274986	0.088965	0.088700	431.29	52948.9	0.082856	0.220280	1957.92	103072
1107	2.000000	1.277908	7.37588e+06	-55489.1	1055.82	-29741.3	0.000000	0.000000	7.296487	444.251	NaN	0.000000	0.001598	0.001736	28.0844	94.2603	0.001854	50836.3	2.554376	-6.789672	444.056	1.277545	0.091622	0.091259	444.251	50836.3	0.085067	0.230724	1925.47	96694.3
1107	2.000000	1.280260	7.37588e+06	-55489.1	1055.82	-29741.3	0.000000	0.000000	7.299821	468.131	NaN	0.000000	0.001581	0.001746	28.0845	96.576	0.001800	53653.2	3.341645	171.937	464.262	1.279940	0.093974	0.093654	468.131	53653.2	0.087430	0.242129	1933.39	99619.8
1107	2.000000	1.282687	7.37588e+06	-55489.1	1055.82	-29741.3	0.000000	0.000000	7.303446	497.253	NaN	0.000000	0.001616	0.001730	28.0848	99.1696	0.001848	53676.4	2.486267	-6.897703	486.979	1.282289	0.096400	0.096003	497.253	53676.4	0.089453	0.252099	1972.45	97672.3
1107	2.000000	1.285423	7.37588e+06	-55489.1	1055.82	-29741.3	0.000000	0.000000	7.306294	499.968	NaN	0.000000	0.001574	0.001710	28.0843	102.532	0.001851	55381.5	3.502739	171.249	503.586	1.285316	0.099137	0.099030	499.968	55381.5	0.092366	0.266790	1874.01	97961
1107	2.000000	1.287846	7.37588e+06	-55489.1	1055.82	-29741.3	0.000000	0.000000	7.309921	529.244	NaN	0.000000	0.001585	0.001709	28.0844	103.278	0.001768	58412.6	3.104077	-8.324816	527.429	1.287631	0.101560	0.101344	529.244	58412.6	0.094764	0.279174	1895.75	101005
1107	2.000000	1.290277	7.37588e+06	-55489.1	1055.82	-29741.3	0.000000	0.000000	7.313840	565.418	NaN	0.000000	0.001624	0.001708	28.0844	106.335	0.001794	59287.2	6.230286	168.579	562.74	1.289907	0.103991	0.103621	565.418	59287.2	0.096838	0.290092	1949.1	100569
1107	2.000000	1.291309	7.37588e+06	-55489.1	1055.82	-29741.3	0.000000	0.000000	7.315315	576.183	NaN	0.000000	0.001590	0.001732	28.0844	107.972	0.001801	59939.9	5.545534	169.96	574.003	1.290906	0.105023	0.104620	576.183	59939.9	0.097813	0.295295	1951.21	100777