File: remote_trans/data/nanoindenter/0828-1/data/Data_2025-08-06,11h17m57s/2025-07-22_16-23-58_1_1197.txt
2025-07-22, 16:23:58, 1
Index	Phase	Displacement	Time	Pos X	Pos Y	Pos Z	Rot A	Rot B	Piezo Z	Force A	Force B	Gripper	Voltage A	Voltage B	Temperature	Amplitude force	Amplitude pos	Stiffness	Phase shift	Phase excitation	Force A raw	Displacement raw	HMax	HMax raw	Real Force	Real Stiffness	Contact Depth	Area	Hardness	Reduced Mod.
[#]	[#]	[um]	[s]	[um]	[um]	[um]	[m°]	[m°]	[um]	[uN]	[uN]	[V]	[V]	[V]	[°C]	[uN]	[um]	[N/m]	[°]	[°]	[uN]	[um]	[um]	[um]	[uN]	[N/m]	[um]	[um^2]	[MPa]	[MPa]
1197	1.000000	0.002801	7.37675e+06	-55739.1	1105.82	-29740.7	0.000000	0.000000	6.002762	0.060711	NaN	0.000000	0.001561	0.001629	28.0814	0.055914	0.000911	61.3848	147.978	-167.25	0.026956	0.001615	-0.360943	-0.362129	0.060711	61.3848	-0.361685	-37686.7	-1.610927E-6	NaN
1197	1.000000	0.008799	7.37675e+06	-55739.1	1105.82	-29740.7	0.000000	0.000000	6.008757	0.000225	NaN	0.000000	0.001576	0.001601	28.0815	0.030232	0.001016	29.7577	18.6917	10.2377	-0.020202	0.007445	-0.354945	-0.356299	0.000225	29.7577	-0.354951	-30115.1	-7.473867E-9	NaN
1197	1.000000	0.014877	7.37675e+06	-55739.1	1105.82	-29740.7	0.000000	0.000000	6.014835	0.022619	NaN	0.000000	0.001585	0.001576	28.0814	0.059309	0.001712	34.6451	85.8545	-165.033	0.020709	0.013653	-0.348868	-0.350091	0.022619	34.6451	-0.349357	-24984.6	-9.053358E-7	NaN
1197	1.000000	0.020753	7.37675e+06	-55739.1	1105.82	-29740.7	0.000000	0.000000	6.020714	0.068593	NaN	0.000000	0.001596	0.001606	28.0814	0.038603	0.001656	23.3053	62.3143	12.7022	0.086639	0.019466	-0.342991	-0.344278	0.068593	23.3053	-0.345198	-21739.1	-3.155278E-6	NaN
1197	1.000000	0.026815	7.37675e+06	-55739.1	1105.82	-29740.7	0.000000	0.000000	6.026775	0.031290	NaN	0.000000	0.001618	0.001619	28.0817	0.020428	0.001841	11.0986	-151.788	-165.755	0.002972	0.025501	-0.336929	-0.338244	0.031290	11.0986	-0.339043	-17684.9	-1.769290E-6	NaN
1197	1.000000	0.032793	7.37675e+06	-55739.1	1105.82	-29740.7	0.000000	0.000000	6.032751	-0.007627	NaN	0.000000	0.001599	0.001608	28.0814	0.131469	0.001968	66.8115	-60.3544	12.7727	0.016813	0.031483	-0.330951	-0.332262	-0.007627	66.8115	-0.330866	-13431.5	5.678819E-7	NaN
1197	1.000000	0.038798	7.37675e+06	-55739.1	1105.82	-29740.7	0.000000	0.000000	6.038755	-0.010527	NaN	0.000000	0.001630	0.001608	28.0813	0.085581	0.001976	43.3035	-166.614	-161.365	0.013184	0.037452	-0.324947	-0.326292	-0.010527	43.3035	-0.324764	-10931.4	9.629824E-7	NaN
1197	1.000000	0.044783	7.37675e+06	-55739.1	1105.82	-29740.7	0.000000	0.000000	6.044740	-0.002923	NaN	0.000000	0.001622	0.001594	28.0813	0.053970	0.001981	27.2406	-55.8208	14.9562	0.099931	0.043424	-0.318961	-0.320320	-0.002923	27.2406	-0.318881	-8956.98	3.263333E-7	NaN
1197	1.000000	0.050779	7.37675e+06	-55739.1	1105.82	-29740.7	0.000000	0.000000	6.050737	0.011838	NaN	0.000000	0.001612	0.001640	28.0813	0.091026	0.001972	46.1486	135.831	-168.194	-0.127447	0.049459	-0.312965	-0.314285	0.011838	46.1486	-0.313157	-7374.65	-1.605226E-6	NaN
1197	1.000000	0.056780	7.37675e+06	-55739.1	1105.82	-29740.7	0.000000	0.000000	6.056737	-0.011858	NaN	0.000000	0.001603	0.001615	28.0815	0.141320	0.001974	71.5815	147.092	13.5178	-0.007411	0.055396	-0.306964	-0.308348	-0.011858	71.5815	-0.306840	-5946.36	1.994136E-6	NaN
1197	1.000000	0.062796	7.37675e+06	-55739.1	1105.82	-29740.7	0.000000	0.000000	6.062753	-0.026904	NaN	0.000000	0.001599	0.001589	28.0813	0.091079	0.001972	46.1964	-157.299	-164.117	-0.096899	0.061496	-0.300948	-0.302248	-0.026904	46.1964	-0.300511	-4789	5.617777E-6	NaN
1197	1.000000	0.068789	7.37675e+06	-55739.1	1105.82	-29740.7	0.000000	0.000000	6.068747	0.006030	NaN	0.000000	0.001629	0.001583	28.0814	0.109455	0.002052	53.3422	115.216	15.5111	-0.031841	0.067459	-0.294955	-0.296285	0.006030	53.3422	-0.295040	-3969.07	-1.519290E-6	NaN
1197	1.000000	0.074827	7.37675e+06	-55739.1	1105.82	-29740.7	0.000000	0.000000	6.074784	-0.008057	NaN	0.000000	0.001596	0.001606	28.0813	0.063131	0.002087	30.2481	-65.5746	-168.266	0.032704	0.073511	-0.288917	-0.290233	-0.008057	30.2481	-0.288717	-3192.12	2.524110E-6	NaN
1197	1.000000	0.080785	7.37675e+06	-55739.1	1105.82	-29740.7	0.000000	0.000000	6.080743	0.001128	NaN	0.000000	0.001585	0.001588	28.0809	0.045083	0.002118	21.2894	-11.0127	18.5375	0.003442	0.079414	-0.282959	-0.284331	0.001128	21.2894	-0.282999	-2619.2	-4.304937E-7	NaN
1197	1.000000	0.086776	7.37675e+06	-55739.1	1105.82	-29740.7	0.000000	0.000000	6.086733	-0.005125	NaN	0.000000	0.001601	0.001604	28.081	0.082145	0.001997	41.1406	-143.632	-166.208	0.024515	0.085472	-0.276969	-0.278272	-0.005125	41.1406	-0.276875	-2117.26	2.420380E-6	NaN
1197	1.000000	0.092791	7.37675e+06	-55739.1	1105.82	-29740.7	0.000000	0.000000	6.092746	-0.065727	NaN	0.000000	0.001614	0.001610	28.0814	0.025274	0.001995	12.6679	-151.843	17.3504	-0.078933	0.091400	-0.270953	-0.272344	-0.065727	12.6679	-0.267062	-1502.54	4.374371E-5	NaN
1197	1.000000	0.098831	7.37675e+06	-55739.1	1105.82	-29740.7	0.000000	0.000000	6.098789	0.000582	NaN	0.000000	0.001591	0.001610	28.0814	0.112426	0.001964	57.2472	-106.43	-166.44	0.057611	0.097562	-0.264913	-0.266182	0.000582	57.2472	-0.264921	-1393.74	-4.173090E-7	NaN
1197	1.000000	0.104801	7.37675e+06	-55739.1	1105.82	-29740.7	0.000000	0.000000	6.104755	-0.083453	NaN	0.000000	0.001595	0.001626	28.0811	0.045892	0.002074	22.1272	85.1637	13.4866	-0.028900	0.103470	-0.258944	-0.260274	-0.083453	22.1272	-0.256115	-1021.58	8.169012E-5	NaN
1197	1.000000	0.110816	7.37675e+06	-55739.1	1105.82	-29740.7	0.000000	0.000000	6.110773	-0.022291	NaN	0.000000	0.001581	0.001563	28.0816	0.068238	0.002089	32.6605	-8.295297	-169.266	-0.055471	0.109499	-0.252928	-0.254245	-0.022291	32.6605	-0.252416	-895.955	2.487993E-5	NaN
1197	1.000000	0.116808	7.37675e+06	-55739.1	1105.82	-29740.7	0.000000	0.000000	6.116763	-0.083303	NaN	0.000000	0.001513	0.001599	28.0812	0.008772	0.002033	4.314392	34.191	11.1371	-0.016349	0.115420	-0.246936	-0.248324	-0.083303	4.314392	-0.232455	-437.752	0.000190	NaN
1197	1.000000	0.122837	7.37675e+06	-55739.1	1105.82	-29740.7	0.000000	0.000000	6.122795	0.006514	NaN	0.000000	0.001548	0.001559	28.0812	0.072961	0.002056	35.4949	-108.666	-165.198	0.108032	0.121525	-0.240907	-0.242219	0.006514	35.4949	-0.241044	-596.839	-1.091399E-5	NaN
1197	1.000000	0.128806	7.37675e+06	-55739.1	1105.82	-29740.7	0.000000	0.000000	6.128762	-0.024785	NaN	0.000000	0.001555	0.001566	28.0811	0.046964	0.001839	25.5384	-28.04	15.5399	-0.000299	0.127477	-0.234939	-0.236267	-0.024785	25.5384	-0.234211	-466.499	5.312892E-5	NaN
1197	1.000000	0.134846	7.37675e+06	-55739.1	1105.82	-29740.7	0.000000	0.000000	6.134801	-0.051033	NaN	0.000000	0.001575	0.001658	28.0812	0.109086	0.002043	53.4034	-154.514	-166.17	0.037714	0.133599	-0.228899	-0.230146	-0.051033	53.4034	-0.228182	-374.781	0.000136	NaN
1197	1.000000	0.140852	7.37675e+06	-55739.1	1105.82	-29740.7	0.000000	0.000000	6.140809	-0.002023	NaN	0.000000	0.001563	0.001639	28.0826	0.037617	0.002006	18.7502	-162.403	11.967	-0.022864	0.139459	-0.222893	-0.224285	-0.002023	18.7502	-0.222812	-307.985	6.568412E-6	NaN
1197	1.000000	0.146839	7.37675e+06	-55739.1	1105.82	-29740.7	0.000000	0.000000	6.146796	-0.019298	NaN	0.000000	0.001564	0.001639	28.0825	0.137554	0.002033	67.6612	-176.057	-164.767	-0.008296	0.145497	-0.216905	-0.218247	-0.019298	67.6612	-0.216691	-245.858	7.849200E-5	NaN
1197	1.000000	0.152849	7.37675e+06	-55739.1	1105.82	-29740.7	0.000000	0.000000	6.152807	0.015347	NaN	0.000000	0.001592	0.001615	28.083	0.069638	0.001945	35.7958	-66.9614	16.1767	-0.018336	0.151438	-0.210895	-0.212307	0.015347	35.7958	-0.211217	-200.683	-7.647177E-5	NaN
1197	1.000000	0.158847	7.37675e+06	-55739.1	1105.82	-29740.7	0.000000	0.000000	6.158801	-0.094033	NaN	0.000000	0.001566	0.001655	28.0825	0.058221	0.002048	28.4277	137.5	-168.749	-0.003423	0.157503	-0.204897	-0.206241	-0.094033	28.4277	-0.202417	-144.324	0.000652	NaN
1197	1.000000	0.164820	7.37675e+06	-55739.1	1105.82	-29740.7	0.000000	0.000000	6.164780	0.054826	NaN	0.000000	0.001579	0.001638	28.0827	0.020135	0.002050	9.823561	49.4559	12.8483	0.006456	0.163405	-0.198924	-0.200339	0.054826	9.823561	-0.203110	-148.145	-0.000370	NaN
1197	1.000000	0.170839	7.37675e+06	-55739.1	1105.82	-29740.7	0.000000	0.000000	6.170798	0.028244	NaN	0.000000	0.001616	0.001643	28.0826	0.047237	0.002236	21.1291	142.024	-165.28	0.014556	0.169515	-0.192905	-0.194230	0.028244	21.1291	-0.193907	-104.493	-0.000270	NaN
1197	1.000000	0.176850	7.37675e+06	-55739.1	1105.82	-29740.7	0.000000	0.000000	6.176808	0.006296	NaN	0.000000	0.001583	0.001600	28.0824	0.039355	0.001983	19.8482	154.719	19.2551	0.005743	0.175509	-0.186894	-0.188235	0.006296	19.8482	-0.187132	-80.5375	-7.817074E-5	NaN
1197	1.000000	0.182868	7.37675e+06	-55739.1	1105.82	-29740.7	0.000000	0.000000	6.182824	-0.048572	NaN	0.000000	0.001575	0.001652	28.0823	0.125065	0.001972	63.4282	103.628	-168.474	-0.118991	0.181564	-0.180876	-0.182180	-0.048572	63.4282	-0.180302	-61.7442	0.000787	NaN
1197	1.000000	0.188846	7.37675e+06	-55739.1	1105.82	-29740.7	0.000000	0.000000	6.188806	0.053784	NaN	0.000000	0.001621	0.001641	28.0824	0.137698	0.001916	71.8495	-61.0024	11.8333	0.043559	0.187463	-0.174898	-0.176282	0.053784	71.8495	-0.175460	-51.0362	-0.001054	NaN
1197	1.000000	0.194880	7.37675e+06	-55739.1	1105.82	-29740.7	0.000000	0.000000	6.194838	-0.010436	NaN	0.000000	0.001588	0.001666	28.0826	0.025245	0.002083	12.118	43.3334	-166.61	-0.060171	0.193547	-0.168864	-0.170197	-0.010436	12.118	-0.168218	-38.248	0.000273	NaN
1197	1.000000	0.200827	7.37675e+06	-55739.1	1105.82	-29740.7	0.000000	0.000000	6.200785	0.004892	NaN	0.000000	0.001574	0.001626	28.0822	0.080808	0.001906	42.392	85.5135	16.6876	-0.028053	0.199516	-0.162917	-0.164228	0.004892	42.392	-0.163004	-30.9861	-0.000158	NaN
1197	1.000000	0.206856	7.37675e+06	-55739.1	1105.82	-29740.7	0.000000	0.000000	6.206815	0.011401	NaN	0.000000	0.001581	0.001658	28.0824	0.061827	0.001892	32.6746	-101.711	-165.729	-0.028611	0.205590	-0.156888	-0.158154	0.011401	32.6746	-0.157150	-24.3868	-0.000467	NaN
1197	1.000000	0.212839	7.37675e+06	-55739.1	1105.82	-29740.7	0.000000	0.000000	6.212800	0.079605	NaN	0.000000	0.001610	0.001658	28.0824	0.037704	0.002006	18.7911	162.822	13.0001	0.095777	0.211477	-0.150905	-0.152268	0.079605	18.7911	-0.154083	-21.4808	-0.003706	NaN
1197	1.000000	0.218861	7.37675e+06	-55739.1	1105.82	-29740.7	0.000000	0.000000	6.218818	-0.005272	NaN	0.000000	0.001626	0.001650	28.0825	0.115382	0.001916	60.2268	64.779	-165.221	0.014304	0.217545	-0.144883	-0.146199	-0.005272	60.2268	-0.144818	-14.5478	0.000362	NaN
1197	1.000000	0.224874	7.37675e+06	-55739.1	1105.82	-29740.6	0.000000	0.000000	6.224833	0.021358	NaN	0.000000	0.001626	0.001648	28.0823	0.048692	0.001960	24.8458	65.6011	16.2012	0.006126	0.223492	-0.138870	-0.140252	0.021358	24.8458	-0.139515	-11.5838	-0.001844	NaN
1197	1.000000	0.230845	7.37675e+06	-55739.1	1105.82	-29740.7	0.000000	0.000000	6.230802	-0.007227	NaN	0.000000	0.001622	0.001665	28.0822	0.007522	0.001995	3.769458	-35.4306	-164.62	-0.093452	0.229563	-0.132899	-0.134181	-0.007227	3.769458	-0.131461	-8.134373	0.000888	NaN
1197	1.000000	0.236874	7.37675e+06	-55739.1	1105.82	-29740.7	0.000000	0.000000	6.236831	-0.015650	NaN	0.000000	0.001635	0.001649	28.0824	0.064355	0.002050	31.3868	-166.786	16.9072	0.061921	0.235496	-0.126871	-0.128248	-0.015650	31.3868	-0.126497	-6.509165	0.002404	NaN
1197	1.000000	0.242888	7.37675e+06	-55739.1	1105.82	-29740.7	0.000000	0.000000	6.242847	0.016104	NaN	0.000000	0.001645	0.001667	28.0823	0.079256	0.002008	39.4628	28.7159	-167.233	0.011371	0.241577	-0.120856	-0.122167	0.016104	39.4628	-0.121162	-5.098933	-0.003158	NaN
1197	1.000000	0.248897	7.37675e+06	-55739.1	1105.82	-29740.7	0.000000	0.000000	6.248856	0.028685	NaN	0.000000	0.001639	0.001632	28.0829	0.114438	0.001873	61.1029	123.343	15.9686	-0.020184	0.247526	-0.114847	-0.116218	0.028685	61.1029	-0.115199	-3.856600	-0.007438	NaN
1197	1.000000	0.254884	7.37675e+06	-55739.1	1105.82	-29740.6	0.000000	0.000000	6.254841	-0.015835	NaN	0.000000	0.001632	0.001671	28.0824	0.148868	0.002020	73.6791	-167.676	-164.621	-0.046792	0.253532	-0.108860	-0.110213	-0.015835	73.6791	-0.108699	-2.820687	0.005614	NaN
1197	1.000000	0.260885	7.37675e+06	-55739.1	1105.82	-29740.6	0.000000	0.000000	6.260843	0.008645	NaN	0.000000	0.001654	0.001683	28.0824	0.041764	0.002191	19.0577	22.7622	16.4765	0.034778	0.259520	-0.102859	-0.104224	0.008645	19.0577	-0.103199	-2.148303	-0.004024	NaN
1197	1.000000	0.266851	7.37675e+06	-55739.1	1105.82	-29740.7	0.000000	0.000000	6.266808	-0.021903	NaN	0.000000	0.001676	0.001640	28.0824	0.066318	0.001891	35.0677	-74.3022	-167.243	0.010061	0.265567	-0.096893	-0.098177	-0.021903	35.0677	-0.096424	-1.519645	0.014413	NaN
1197	1.000000	0.272858	7.37675e+06	-55739.1	1105.82	-29740.6	0.000000	0.000000	6.272817	0.033647	NaN	0.000000	0.001695	0.001671	28.0818	0.029402	0.001886	15.5921	169.877	15.3385	-0.006918	0.271470	-0.090887	-0.092274	0.033647	15.5921	-0.092505	-1.236385	-0.027214	NaN
1197	1.000000	0.278890	7.37675e+06	-55739.1	1105.82	-29740.7	0.000000	0.000000	6.278847	-0.028363	NaN	0.000000	0.001656	0.001646	28.0811	0.080856	0.002000	40.4329	153.515	-164.992	-0.033794	0.277552	-0.084854	-0.086192	-0.028363	40.4329	-0.084328	-0.791376	0.035840	NaN
1197	1.000000	0.284896	7.37675e+06	-55739.1	1105.82	-29740.7	0.000000	0.000000	6.284851	-0.054117	NaN	0.000000	0.001646	0.001630	28.0809	0.096228	0.001896	50.7618	-146.761	15.7313	-0.156516	0.283537	-0.078849	-0.080207	-0.054117	50.7618	-0.078049	-0.552813	0.097893	NaN
1197	1.000000	0.290885	7.37675e+06	-55739.1	1105.82	-29740.7	0.000000	0.000000	6.290841	-0.043979	NaN	0.000000	0.001627	0.001669	28.081	0.050817	0.001936	26.2422	-162.581	-166.753	-0.048984	0.289606	-0.072860	-0.074138	-0.043979	26.2422	-0.071603	-0.376342	0.116859	NaN
1197	1.000000	0.296872	7.37675e+06	-55739.1	1105.82	-29740.7	0.000000	0.000000	6.296830	-0.003513	NaN	0.000000	0.001606	0.001674	28.081	0.125120	0.001970	63.5195	40.4979	13.9227	-0.035185	0.295533	-0.066872	-0.068211	-0.003513	63.5195	-0.066831	-0.279924	0.012551	NaN
1197	1.000000	0.302917	7.37675e+06	-55739.1	1105.82	-29740.7	0.000000	0.000000	6.302872	-0.063076	NaN	0.000000	0.001583	0.001645	28.0812	0.014533	0.002018	7.201394	-104.635	-166.672	-0.041765	0.301625	-0.060827	-0.062119	-0.063076	7.201394	-0.054258	-0.122423	0.515228	NaN
1197	1.000000	0.308895	7.37675e+06	-55739.1	1105.82	-29740.7	0.000000	0.000000	6.308853	-0.001919	NaN	0.000000	0.001609	0.001634	28.0808	0.096769	0.001958	49.4191	-174.426	13.6247	-0.049096	0.307561	-0.054849	-0.056183	-0.001919	49.4191	-0.054820	-0.127211	0.015081	NaN
1197	1.000000	0.314870	7.37675e+06	-55739.1	1105.82	-29740.6	0.000000	0.000000	6.314828	0.014485	NaN	0.000000	0.001639	0.001628	28.0809	0.039282	0.002031	19.3439	52.9011	-165.164	-0.000521	0.313609	-0.048874	-0.050135	0.014485	19.3439	-0.049436	-0.087733	-0.165102	NaN
1197	1.000000	0.320875	7.37675e+06	-55739.1	1105.82	-29740.7	0.000000	0.000000	6.320831	-0.061728	NaN	0.000000	0.001596	0.001675	28.081	0.018908	0.001893	9.988851	151.498	12.8191	-0.040635	0.319548	-0.042869	-0.044196	-0.061728	9.988851	-0.038234	-0.039987	1.543711	NaN
1197	1.000000	0.326937	7.37675e+06	-55739.1	1105.82	-29740.7	0.000000	0.000000	6.326896	0.032161	NaN	0.000000	0.001570	0.001638	28.0809	0.053919	0.001979	27.2465	12.5398	-166.355	-0.007978	0.325586	-0.036807	-0.038159	0.032161	27.2465	-0.037692	-0.038514	-0.835065	NaN
1197	1.000000	0.332922	7.37675e+06	-55739.1	1105.82	-29740.6	0.000000	0.000000	6.332878	-0.056938	NaN	0.000000	0.001583	0.001650	28.0809	0.042445	0.001914	22.1765	-33.7584	12.341	-0.055588	0.331539	-0.030822	-0.032205	-0.056938	22.1765	-0.028896	-0.021450	2.654437	NaN
1197	1.000000	0.338905	7.37675e+06	-55739.1	1105.82	-29740.6	0.000000	0.000000	6.338864	0.016257	NaN	0.000000	0.001564	0.001633	28.0812	0.061242	0.001893	32.3443	57.6227	-166.62	0.040815	0.337591	-0.024839	-0.026153	0.016257	32.3443	-0.025216	-0.017091	-0.951211	NaN
1197	1.000000	0.344925	7.37675e+06	-55739.1	1105.82	-29740.6	0.000000	0.000000	6.344898	0.374647	NaN	0.000000	0.001562	0.001667	28.0814	0.270275	0.001988	135.987	20.3706	12.1806	0.259786	0.343563	-0.018819	-0.020181	0.374647	135.987	-0.020886	-0.013229	-28.3201	NaN
1197	1.000000	0.350912	7.37675e+06	-55739.1	1105.82	-29740.6	0.000000	0.000000	6.350916	1.122635	NaN	0.000000	0.001558	0.001652	28.081	0.425448	0.002064	206.175	10.1238	-168.01	0.943566	0.349572	-0.012832	-0.014172	1.122635	206.175	-0.016916	-0.010457	-107.361	NaN
1197	1.000000	0.356899	7.37675e+06	-55739.1	1105.82	-29740.6	0.000000	0.000000	6.356933	1.854528	NaN	0.000000	0.001557	0.001643	28.0811	0.477625	0.002092	228.354	7.111707	14.8277	1.688733	0.355517	-0.006845	-0.008227	1.854528	228.354	-0.012936	-0.008065	-229.937	NaN
1197	1.000000	0.362920	7.37675e+06	-55739.1	1105.82	-29740.6	0.000000	0.000000	6.362987	2.664679	NaN	0.000000	0.001550	0.001646	28.0811	0.488303	0.002034	240.052	5.696291	-167.348	2.586511	0.361616	-0.000825	-0.002128	2.664679	240.052	-0.009150	-0.005899	-451.686	NaN
1197	1.000000	0.368884	7.37675e+06	-55739.1	1105.82	-29740.6	0.000000	0.000000	6.368979	3.348357	NaN	0.000000	0.001523	0.001648	28.0807	0.628503	0.002067	304	6.846839	14.0019	3.255038	0.367531	0.005140	0.003787	3.348357	304	-0.003121	-0.002201	-1520.95	NaN
1197	1.000000	0.374917	7.37675e+06	-55739.1	1105.82	-29740.6	0.000000	0.000000	6.375031	3.798010	NaN	0.000000	0.001563	0.001642	28.0808	0.527075	0.002095	251.612	14.4648	-166.637	3.680643	0.373604	0.011173	0.009860	3.798010	251.612	-0.000148	-0.000110	-34395.9	NaN
1197	1.000000	0.380960	7.37675e+06	-55739.1	1105.82	-29740.6	0.000000	0.000000	6.381102	4.464672	NaN	0.000000	0.001573	0.001663	28.0814	0.785012	0.001988	394.803	14.7444	14.8035	4.247821	0.379531	0.017216	0.015787	4.464672	394.803	0.008735	0.007809	571.73	4081.82
1197	1.000000	0.386958	7.37675e+06	-55739.1	1105.82	-29740.7	0.000000	0.000000	6.387114	4.812776	NaN	0.000000	0.001551	0.001689	28.081	0.836000	0.002142	390.34	12.8313	-166.655	4.807447	0.385605	0.023214	0.021860	4.812776	390.34	0.013966	0.013932	345.455	3021.44
1197	1.000000	0.392940	7.37675e+06	-55739.1	1105.82	-29740.7	0.000000	0.000000	6.393111	5.193986	NaN	0.000000	0.001543	0.001656	28.081	0.734352	0.002029	361.941	10.2799	12.7367	5.095918	0.391547	0.029195	0.027803	5.193986	361.941	0.018433	0.020139	257.908	2330.2
1197	1.000000	0.398933	7.37675e+06	-55739.1	1105.82	-29740.6	0.000000	0.000000	6.399122	5.622513	NaN	0.000000	0.001563	0.001667	28.0813	0.741464	0.001993	371.949	17.8468	-170.362	5.467354	0.397556	0.035188	0.033812	5.622513	371.949	0.023851	0.028959	194.155	1996.94
1197	1.000000	0.404949	7.37675e+06	-55739.1	1105.82	-29740.6	0.000000	0.000000	6.405144	5.752274	NaN	0.000000	0.001541	0.001697	28.0812	0.833651	0.002124	392.48	13.5214	11.1714	5.682572	0.403646	0.041205	0.039902	5.752274	392.48	0.030213	0.041186	139.665	1766.91
1197	1.000000	0.410934	7.37675e+06	-55739.1	1105.82	-29740.7	0.000000	0.000000	6.411145	6.161366	NaN	0.000000	0.001519	0.001669	28.0837	0.781780	0.002108	370.84	19.3566	-165.328	6.077032	0.409663	0.047190	0.045919	6.161366	370.84	0.034729	0.051117	120.536	1498.58
1197	1.000000	0.416926	7.37675e+06	-55739.1	1105.82	-29740.6	0.000000	0.000000	6.417151	6.508707	NaN	0.000000	0.001575	0.001646	28.0823	0.752569	0.002031	370.482	19.8259	11.4388	6.463440	0.415554	0.053182	0.051810	6.508707	370.482	0.040006	0.064043	101.631	1337.54
1197	1.000000	0.422958	7.37675e+06	-55739.1	1105.82	-29740.7	0.000000	0.000000	6.423197	6.841195	NaN	0.000000	0.001547	0.001649	28.0825	0.869448	0.001979	439.289	15.3313	-165.158	6.763215	0.421647	0.059214	0.057903	6.841195	439.289	0.047534	0.084943	80.5384	1377.08
1197	1.000000	0.428961	7.37675e+06	-55739.1	1105.82	-29740.6	0.000000	0.000000	6.429217	7.233861	NaN	0.000000	0.001560	0.001639	28.0823	0.969361	0.002008	482.828	19.5429	11.3349	7.252966	0.427566	0.065217	0.063822	7.233861	482.828	0.053981	0.105113	68.8199	1360.62
1197	1.000000	0.434968	7.37675e+06	-55739.1	1105.82	-29740.6	0.000000	0.000000	6.435241	7.662740	NaN	0.000000	0.001549	0.001637	28.0821	1.092239	0.002036	536.551	4.561217	-164.643	7.518365	0.433675	0.071224	0.069931	7.662740	536.551	0.060512	0.127652	60.0282	1372.05
1197	1.000000	0.440935	7.37675e+06	-55739.1	1105.82	-29740.6	0.000000	0.000000	6.441230	8.195324	NaN	0.000000	0.001545	0.001635	28.0825	0.983066	0.002041	481.669	12.8124	13.5747	8.110939	0.439576	0.077191	0.075832	8.195324	481.669	0.064430	0.142171	57.6441	1167.12
1197	1.000000	0.446965	7.37675e+06	-55739.1	1105.82	-29740.6	0.000000	0.000000	6.447284	8.792802	NaN	0.000000	0.001524	0.001645	28.0823	1.188902	0.002079	571.797	13.7604	-164.503	8.605616	0.445670	0.083221	0.081925	8.792802	571.797	0.071687	0.171020	51.4138	1263.26
1197	2.000000	0.452700	7.37675e+06	-55739.1	1105.82	-29740.7	0.000000	0.000000	6.453048	9.487529	NaN	0.000000	0.001550	0.001667	28.0824	1.244860	0.002037	611.232	17.1096	11.9179	9.480118	0.451609	0.088956	0.087865	9.487529	611.232	0.077314	0.195107	48.6272	1264.28
1197	2.000000	0.454575	7.37675e+06	-55739.1	1105.82	-29740.6	0.000000	0.000000	6.454902	8.983937	NaN	0.000000	0.001557	0.001642	28.0821	1.325773	0.001971	672.654	8.077428	-164.089	9.159349	0.454227	0.090831	0.090483	8.983937	672.654	0.080814	0.210837	42.6107	1338.42
1197	2.000000	0.456014	7.37675e+06	-55739.1	1105.82	-29740.7	0.000000	0.000000	6.456342	9.003847	NaN	0.000000	0.001551	0.001649	28.0828	1.497105	0.001972	759.012	9.349110	12.8939	8.915561	0.455673	0.092270	0.091929	9.003847	759.012	0.083373	0.222700	40.4305	1469.48
1197	2.000000	0.457547	7.37675e+06	-55739.1	1105.82	-29740.7	0.000000	0.000000	6.457875	8.979859	NaN	0.000000	0.001562	0.001666	28.0821	1.405025	0.002015	697.173	10.6836	-165.751	9.000075	0.457182	0.093803	0.093437	8.979859	697.173	0.084143	0.226330	39.6759	1338.88
1197	2.000000	0.459003	7.37675e+06	-55739.1	1105.82	-29740.6	0.000000	0.000000	6.459331	9.002764	NaN	0.000000	0.001511	0.001663	28.0826	1.490527	0.002074	718.691	11.3454	14.4207	8.944397	0.458632	0.095259	0.094888	9.002764	718.691	0.085864	0.234538	38.385	1355.84
1197	2.000000	0.460499	7.37675e+06	-55739.1	1105.82	-29740.6	0.000000	0.000000	6.460835	9.198824	NaN	0.000000	0.001569	0.001657	28.0826	1.362407	0.001889	721.169	12.0214	-168.664	9.141898	0.460202	0.096755	0.096458	9.198824	721.169	0.087188	0.240951	38.1771	1342.29
1197	2.000000	0.461990	7.37675e+06	-55739.1	1105.82	-29740.6	0.000000	0.000000	6.462331	9.311716	NaN	0.000000	0.001578	0.001659	28.0824	1.518849	0.001922	790.344	8.449167	10.5896	9.279483	0.461633	0.098246	0.097889	9.311716	790.344	0.089409	0.251884	36.9683	1438.76
1197	2.000000	0.463513	7.37675e+06	-55739.1	1105.82	-29740.6	0.000000	0.000000	6.463868	9.646023	NaN	0.000000	0.001539	0.001648	28.0822	1.662490	0.002065	805.149	15.2057	-169.163	9.577742	0.463212	0.099769	0.099468	9.646023	805.149	0.090783	0.258761	37.2777	1446.11
1197	2.000000	0.465010	7.37675e+06	-55739.1	1105.82	-29740.6	0.000000	0.000000	6.465369	9.760988	NaN	0.000000	0.001566	0.001639	28.0829	1.547381	0.001939	797.938	9.469624	13.2372	9.830830	0.464631	0.101265	0.100887	9.760988	797.938	0.092091	0.265384	36.7806	1415.16
1197	2.000000	0.466482	7.37675e+06	-55739.1	1105.82	-29740.7	0.000000	0.000000	6.466854	10.0674	NaN	0.000000	0.001554	0.001680	28.0824	1.498229	0.001790	837.052	7.183018	-166.373	10.0191	0.466137	0.102738	0.102393	10.0674	837.052	0.093718	0.273736	36.7775	1461.7
1197	2.000000	0.467939	7.37675e+06	-55739.1	1105.82	-29740.7	0.000000	0.000000	6.468316	10.1996	NaN	0.000000	0.001550	0.001640	28.0821	1.603183	0.002077	771.955	14.1261	11.2675	10.1117	0.467618	0.104195	0.103874	10.1996	771.955	0.094285	0.276678	36.8643	1340.84
1197	2.000000	0.469474	7.37675e+06	-55739.1	1105.82	-29740.7	0.000000	0.000000	6.469847	10.0882	NaN	0.000000	0.001564	0.001644	28.0826	1.577336	0.002103	750.019	4.064560	-161.769	10.1068	0.469209	0.105730	0.105465	10.0882	750.019	0.095642	0.283769	35.5507	1286.36
1197	2.000000	0.470998	7.37675e+06	-55739.1	1105.82	-29740.7	0.000000	0.000000	6.471381	10.325	NaN	0.000000	0.001572	0.001628	28.0824	1.705586	0.002090	816.201	8.324307	15.5572	10.3378	0.470611	0.107254	0.106867	10.325	816.201	0.097767	0.295046	34.9945	1372.86
1197	2.000000	0.472450	7.37675e+06	-55739.1	1105.82	-29740.6	0.000000	0.000000	6.472849	10.7157	NaN	0.000000	0.001575	0.001650	28.0826	1.642144	0.001823	900.741	8.738768	-169.068	10.6425	0.472140	0.108706	0.108396	10.7157	900.741	0.099783	0.305938	35.0257	1487.84
1197	2.000000	0.473976	7.37675e+06	-55739.1	1105.82	-29740.6	0.000000	0.000000	6.474378	10.8084	NaN	0.000000	0.001596	0.001638	28.082	1.680001	0.001909	879.985	8.301515	13.536	10.9301	0.473609	0.110231	0.109865	10.8084	879.985	0.101020	0.312706	34.564	1437.74
1197	2.000000	0.475457	7.37675e+06	-55739.1	1105.82	-29740.7	0.000000	0.000000	6.475869	11.0259	NaN	0.000000	0.001618	0.001638	28.0828	1.584406	0.001872	846.181	4.781064	-163.415	11.142	0.475141	0.111713	0.111397	11.0259	846.181	0.101940	0.317793	34.6952	1371.4
1197	2.000000	0.476953	7.37675e+06	-55739.1	1105.82	-29740.7	0.000000	0.000000	6.477370	11.1717	NaN	0.000000	0.001571	0.001620	28.0812	1.748436	0.001903	919.011	9.593230	13.2137	11.0842	0.476600	0.113208	0.112856	11.1717	919.011	0.104091	0.329825	33.8717	1462.02
1197	2.000000	0.478454	7.37675e+06	-55739.1	1105.82	-29740.6	0.000000	0.000000	6.478883	11.4642	NaN	0.000000	0.001595	0.001663	28.0812	1.725858	0.001869	923.339	7.954986	-169.939	11.4408	0.478114	0.114710	0.114370	11.4642	923.339	0.105398	0.337235	33.9948	1452.67
1197	2.000000	0.479967	7.37675e+06	-55739.1	1105.82	-29740.7	0.000000	0.000000	6.480406	11.7026	NaN	0.000000	0.001583	0.001643	28.0814	1.650835	0.002006	823.003	12.3761	15.5486	11.6695	0.479599	0.116223	0.115855	11.7026	823.003	0.105558	0.338150	34.6076	1293.06
1197	2.000000	0.481417	7.37675e+06	-55739.1	1105.82	-29740.7	0.000000	0.000000	6.481869	12.0034	NaN	0.000000	0.001564	0.001640	28.0812	1.778019	0.002002	887.944	4.231106	-162.461	11.8629	0.481155	0.117673	0.117410	12.0034	887.944	0.107534	0.349522	34.3424	1372.21
1197	2.000000	0.482926	7.37675e+06	-55739.1	1105.82	-29740.6	0.000000	0.000000	6.483392	12.3439	NaN	0.000000	0.001568	0.001662	28.0813	1.833182	0.001974	928.8	8.577051	11.3905	12.2314	0.482570	0.119182	0.118826	12.3439	928.8	0.109214	0.359327	34.3529	1415.63
1197	2.000000	0.484437	7.37675e+06	-55739.1	1105.82	-29740.7	0.000000	0.000000	6.484910	12.5301	NaN	0.000000	0.001626	0.001660	28.0812	1.716383	0.001810	948.246	6.426386	-164.862	12.4385	0.484123	0.120693	0.120379	12.5301	948.246	0.110782	0.368595	33.9942	1426.98
1197	2.000000	0.485953	7.37675e+06	-55739.1	1105.82	-29740.7	0.000000	0.000000	6.486433	12.6959	NaN	0.000000	0.001549	0.001661	28.0813	1.807807	0.001924	939.573	11.8421	13.7454	12.6241	0.485599	0.122209	0.121855	12.6959	939.573	0.112074	0.376314	33.7374	1399.36
1197	2.000000	0.487451	7.37675e+06	-55739.1	1105.82	-29740.6	0.000000	0.000000	6.487940	12.9168	NaN	0.000000	0.001581	0.001663	28.0811	1.954934	0.001995	980.025	10.8502	-167.152	12.855	0.487080	0.123707	0.123336	12.9168	980.025	0.113822	0.386877	33.3874	1439.54
1197	2.000000	0.488946	7.37675e+06	-55739.1	1105.82	-29740.6	0.000000	0.000000	6.489444	13.1337	NaN	0.000000	0.001594	0.001649	28.0812	1.928843	0.001994	967.278	10.3582	14.7889	13.0035	0.488610	0.125201	0.124866	13.1337	967.278	0.115018	0.394186	33.3187	1407.58
1197	2.000000	0.490429	7.37675e+06	-55739.1	1105.82	-29740.6	0.000000	0.000000	6.490944	13.5474	NaN	0.000000	0.001594	0.001682	28.0812	2.039775	0.002127	959.182	9.633723	-167.317	13.5232	0.490160	0.126685	0.126416	13.5474	959.182	0.116092	0.400803	33.8006	1384.23
1197	2.000000	0.491935	7.37675e+06	-55739.1	1105.82	-29740.6	0.000000	0.000000	6.492462	13.8487	NaN	0.000000	0.001551	0.001646	28.0812	2.001084	0.002045	978.736	9.947774	11.7013	13.7335	0.491526	0.128190	0.127782	13.8487	978.736	0.117578	0.410049	33.7733	1396.43
1197	2.000000	0.493416	7.37675e+06	-55739.1	1105.82	-29740.6	0.000000	0.000000	6.493948	13.9705	NaN	0.000000	0.001546	0.001647	28.0813	2.003831	0.002051	977.177	8.342261	-166.835	13.9913	0.493122	0.129672	0.129378	13.9705	977.177	0.118949	0.418666	33.3691	1379.79
1197	2.000000	0.494944	7.37675e+06	-55739.1	1105.82	-29740.6	0.000000	0.000000	6.495481	14.0935	NaN	0.000000	0.001556	0.001672	28.081	1.912066	0.001932	989.815	10.68	10.0681	14.0292	0.494550	0.131199	0.130806	14.0935	989.815	0.120521	0.428648	32.8789	1381.26
1197	2.000000	0.496450	7.37675e+06	-55739.1	1105.82	-29740.6	0.000000	0.000000	6.497005	14.5093	NaN	0.000000	0.001587	0.001655	28.0814	2.052493	0.001987	1033.13	10.6769	-166.86	14.4488	0.496117	0.132706	0.132373	14.5093	1033.13	0.122173	0.439268	33.0306	1424.18
1197	2.000000	0.497933	7.37675e+06	-55739.1	1105.82	-29740.6	0.000000	0.000000	6.498503	14.8958	NaN	0.000000	0.001566	0.001676	28.0811	2.171841	0.002174	998.967	11.0775	14.1371	14.7808	0.497521	0.134189	0.133777	14.8958	998.967	0.123005	0.444660	33.4993	1368.71
1197	2.000000	0.499402	7.37675e+06	-55739.1	1105.82	-29740.7	0.000000	0.000000	6.499978	15.0271	NaN	0.000000	0.001574	0.001644	28.0809	2.219367	0.002025	1095.73	10.3648	-167.919	14.9172	0.499141	0.135658	0.135397	15.0271	1095.73	0.125372	0.460175	32.6553	1475.75
1197	2.000000	0.500962	7.37675e+06	-55739.1	1105.82	-29740.7	0.000000	0.000000	6.501542	15.1228	NaN	0.000000	0.001607	0.001693	28.0809	2.032449	0.001917	1060.32	14.6093	12.0899	15.1269	0.500568	0.137218	0.136824	15.1228	1060.32	0.126521	0.467795	32.3278	1416.38
1197	2.000000	0.502430	7.37675e+06	-55739.1	1105.82	-29740.6	0.000000	0.000000	6.503025	15.4842	NaN	0.000000	0.001593	0.001656	28.081	2.051394	0.001979	1036.74	7.910246	-165.838	15.446	0.502120	0.138686	0.138375	15.4842	1036.74	0.127484	0.474235	32.6509	1375.45
1197	2.000000	0.503899	7.37675e+06	-55739.1	1105.82	-29740.7	0.000000	0.000000	6.504497	15.5624	NaN	0.000000	0.001613	0.001668	28.081	2.079483	0.002088	995.982	9.258730	13.6049	15.5244	0.503541	0.140154	0.139797	15.5624	995.982	0.128435	0.480632	32.3791	1312.56
1197	2.000000	0.505386	7.37675e+06	-55739.1	1105.82	-29740.7	0.000000	0.000000	6.505992	15.745	NaN	0.000000	0.001617	0.001655	28.081	2.158882	0.002030	1063.52	14.6462	-172.157	15.7262	0.505052	0.141642	0.141308	15.745	1063.52	0.130538	0.494923	31.8131	1381.18
1197	2.000000	0.506932	7.37675e+06	-55739.1	1105.82	-29740.6	0.000000	0.000000	6.507545	15.9342	NaN	0.000000	0.001557	0.001700	28.0812	2.178536	0.002106	1034.6	11.0034	14.8857	15.9229	0.506601	0.143187	0.142857	15.9342	1034.6	0.131636	0.502467	31.7119	1333.49
1197	2.000000	0.508412	7.37675e+06	-55739.1	1105.82	-29740.6	0.000000	0.000000	6.509032	16.0939	NaN	0.000000	0.001599	0.001671	28.081	2.129273	0.001969	1081.64	5.077080	-165.058	16.0132	0.508119	0.144668	0.144375	16.0939	1081.64	0.133509	0.515457	31.2226	1376.45
1197	2.000000	0.509912	7.37675e+06	-55739.1	1105.82	-29740.6	0.000000	0.000000	6.510544	16.3846	NaN	0.000000	0.001618	0.001664	28.0809	2.200651	0.002049	1073.94	9.110344	12.7514	16.4162	0.509531	0.146168	0.145787	16.3846	1073.94	0.134725	0.523980	31.2695	1355.48
1197	2.000000	0.511447	7.37675e+06	-55739.1	1105.82	-29740.6	0.000000	0.000000	6.512091	16.6614	NaN	0.000000	0.001621	0.001664	28.0822	2.210804	0.001855	1191.88	6.533133	-167.315	16.781	0.511115	0.147703	0.147371	16.6614	1191.88	0.137219	0.541669	30.7593	1479.58
1197	2.000000	0.512947	7.37675e+06	-55739.1	1105.82	-29740.7	0.000000	0.000000	6.513594	16.7404	NaN	0.000000	0.001582	0.001642	28.0824	2.245026	0.002044	1098.55	10.013	12.4181	16.7366	0.512557	0.149203	0.148813	16.7404	1098.55	0.137774	0.545645	30.68	1358.74
1197	2.000000	0.514407	7.37675e+06	-55739.1	1105.82	-29740.6	0.000000	0.000000	6.515068	17.0962	NaN	0.000000	0.001599	0.001683	28.0823	2.218077	0.002093	1059.97	7.769640	-166.643	17.0046	0.514083	0.150663	0.150339	17.0962	1059.97	0.138566	0.551343	31.0082	1304.23
1197	2.000000	0.515934	7.37675e+06	-55739.1	1105.82	-29740.6	0.000000	0.000000	6.516592	17.021	NaN	0.000000	0.001658	0.001685	28.0822	2.367425	0.002100	1127.09	6.557427	16.5573	16.9486	0.515622	0.152190	0.151878	17.021	1127.09	0.140864	0.568037	29.9646	1366.3
1197	2.000000	0.517413	7.37675e+06	-55739.1	1105.82	-29740.7	0.000000	0.000000	6.518083	17.3196	NaN	0.000000	0.001618	0.001685	28.0824	2.166272	0.001989	1089.05	12.1412	-169.241	17.326	0.517139	0.153669	0.153395	17.3196	1089.05	0.141741	0.574477	30.1484	1312.76
1197	2.000000	0.518926	7.37675e+06	-55739.1	1105.82	-29740.6	0.000000	0.000000	6.519612	17.6958	NaN	0.000000	0.001624	0.001684	28.0821	2.341571	0.002052	1141.3	11.3081	13.7719	17.671	0.518570	0.155182	0.154826	17.6958	1141.3	0.143553	0.587887	30.1007	1359.96
1197	2.000000	0.520432	7.37675e+06	-55739.1	1105.82	-29740.7	0.000000	0.000000	6.521118	17.6832	NaN	0.000000	0.001653	0.001653	28.0823	2.244537	0.001987	1129.37	8.481426	-166.025	17.811	0.520022	0.156688	0.156277	17.6832	1129.37	0.144945	0.598290	29.5562	1333.99
1197	2.000000	0.521899	7.37675e+06	-55739.1	1105.82	-29740.6	0.000000	0.000000	6.522585	17.6954	NaN	0.000000	0.001647	0.001661	28.0824	2.249742	0.001994	1128.36	8.882148	12.4268	17.6085	0.521582	0.158155	0.157838	17.6954	1128.36	0.146393	0.609212	29.0464	1320.8
1197	2.000000	0.523412	7.37675e+06	-55739.1	1105.82	-29740.7	0.000000	0.000000	6.524112	18.0291	NaN	0.000000	0.001689	0.001682	28.0824	2.177693	0.002005	1085.91	8.330711	-166.018	18.1518	0.523112	0.159668	0.159367	18.0291	1085.91	0.147216	0.615457	29.2939	1264.64
1197	2.000000	0.524897	7.37675e+06	-55739.1	1105.82	-29740.7	0.000000	0.000000	6.525599	18.105	NaN	0.000000	0.001641	0.001716	28.0825	2.327137	0.001930	1205.95	9.760831	13.0017	17.9318	0.524537	0.161153	0.160793	18.105	1205.95	0.149893	0.636002	28.4668	1381.57
1197	2.000000	0.526406	7.37676e+06	-55739.1	1105.82	-29740.6	0.000000	0.000000	6.527113	18.1964	NaN	0.000000	0.001642	0.001681	28.0822	2.319886	0.001985	1168.74	10.9315	-167.766	18.2956	0.526106	0.162662	0.162362	18.1964	1168.74	0.150985	0.644481	28.2342	1330.11
1197	2.000000	0.527916	7.37676e+06	-55739.1	1105.82	-29740.6	0.000000	0.000000	6.528643	18.6768	NaN	0.000000	0.001605	0.001656	28.0825	2.448279	0.001989	1231.07	13.5108	8.146953	18.5083	0.527521	0.164172	0.163777	18.6768	1231.07	0.152794	0.658643	28.3565	1385.89
1197	2.000000	0.529383	7.37676e+06	-55739.1	1105.82	-29740.7	0.000000	0.000000	6.530105	18.5735	NaN	0.000000	0.001590	0.001669	28.0822	2.407611	0.002113	1139.63	12.7292	-166.984	18.5405	0.529083	0.165639	0.165339	18.5735	1139.63	0.153415	0.663546	27.9913	1278.21
1197	2.000000	0.530885	7.37676e+06	-55739.1	1105.82	-29740.7	0.000000	0.000000	6.531622	18.9226	NaN	0.000000	0.001602	0.001671	28.0824	2.349909	0.001989	1181.71	6.913496	12.4368	18.8816	0.530510	0.167141	0.166765	18.9226	1181.71	0.155131	0.677174	27.9435	1312
1197	2.000000	0.532364	7.37676e+06	-55739.1	1105.82	-29740.7	0.000000	0.000000	6.533102	18.9645	NaN	0.000000	0.001602	0.001665	28.0826	2.356025	0.002047	1150.69	9.173884	-166.856	18.972	0.532122	0.168620	0.168377	18.9645	1150.69	0.156259	0.686206	27.6368	1269.12
1197	2.000000	0.533877	7.37676e+06	-55739.1	1105.82	-29740.6	0.000000	0.000000	6.534611	18.857	NaN	0.000000	0.001610	0.001671	28.0825	2.452866	0.001997	1228.46	10.9643	12.6328	18.7172	0.533476	0.170133	0.169732	18.857	1228.46	0.158620	0.705308	26.7359	1336.43
1197	2.000000	0.535408	7.37676e+06	-55739.1	1105.82	-29740.7	0.000000	0.000000	6.536146	18.9546	NaN	0.000000	0.001590	0.001697	28.0823	2.452492	0.001936	1266.66	10.5781	-167.911	19.0419	0.535068	0.171664	0.171323	18.9546	1266.66	0.160441	0.720215	26.318	1363.65
1197	2.000000	0.536905	7.37676e+06	-55739.1	1105.82	-29740.6	0.000000	0.000000	6.537658	19.3226	NaN	0.000000	0.001620	0.001681	28.0825	2.421773	0.002063	1173.69	8.187891	12.9377	19.171	0.536505	0.173161	0.172761	19.3226	1173.69	0.160814	0.723288	26.7149	1260.87
1197	2.000000	0.538382	7.37676e+06	-55739.1	1105.82	-29740.7	0.000000	0.000000	6.539146	19.5953	NaN	0.000000	0.001584	0.001688	28.0824	2.543983	0.001957	1300.23	6.728417	-167.42	19.6197	0.538038	0.174638	0.174293	19.5953	1300.23	0.163335	0.744233	26.3295	1377.01
1197	2.000000	0.539887	7.37676e+06	-55739.1	1105.82	-29740.6	0.000000	0.000000	6.540654	19.6685	NaN	0.000000	0.001562	0.001657	28.0825	2.514175	0.001988	1264.49	13.0804	9.631223	19.5453	0.539527	0.176143	0.175783	19.6685	1264.49	0.164477	0.753824	26.0917	1330.62
1197	2.000000	0.541408	7.37676e+06	-55739.1	1105.82	-29740.6	0.000000	0.000000	6.542180	19.7702	NaN	0.000000	0.001584	0.001655	28.0823	2.435963	0.001898	1283.29	7.734795	-167.675	19.7191	0.541064	0.177664	0.177320	19.7702	1283.29	0.166110	0.767636	25.7546	1338.2
1197	2.000000	0.542875	7.37676e+06	-55739.1	1105.82	-29740.7	0.000000	0.000000	6.543654	19.9635	NaN	0.000000	0.001570	0.001676	28.0824	2.554653	0.002006	1273.22	10.0968	13.3373	19.793	0.542469	0.179131	0.178725	19.9635	1273.22	0.167371	0.778393	25.6471	1318.49
1197	2.000000	0.544386	7.37676e+06	-55739.1	1105.82	-29740.7	0.000000	0.000000	6.545170	20.0789	NaN	0.000000	0.001589	0.001674	28.0822	2.682396	0.002171	1235.84	9.667105	-166.552	20.2044	0.544067	0.180642	0.180323	20.0789	1235.84	0.168456	0.787710	25.4902	1272.19
1197	2.000000	0.545859	7.37676e+06	-55739.1	1105.82	-29740.6	0.000000	0.000000	6.546643	20.0889	NaN	0.000000	0.001590	0.001625	28.0811	2.680763	0.002106	1272.83	10.7063	14.9383	19.9756	0.545505	0.182115	0.181761	20.0889	1272.83	0.170278	0.803473	25.0026	1297.36
1197	2.000000	0.547379	7.37676e+06	-55739.1	1105.82	-29740.7	0.000000	0.000000	6.548190	20.749	NaN	0.000000	0.001583	0.001642	28.0817	2.636321	0.001998	1319.29	8.529694	-164.224	20.8191	0.547027	0.183635	0.183283	20.749	1319.29	0.171839	0.817112	25.3931	1333.44
1197	2.000000	0.548865	7.37676e+06	-55739.1	1105.82	-29740.6	0.000000	0.000000	6.549678	20.791	NaN	0.000000	0.001591	0.001653	28.0811	2.579470	0.001998	1291	10.7079	11.5703	20.6295	0.548497	0.185121	0.184753	20.791	1291	0.173042	0.827702	25.1189	1296.47
1197	2.000000	0.550359	7.37676e+06	-55739.1	1105.82	-29740.6	0.000000	0.000000	6.551166	20.6323	NaN	0.000000	0.001596	0.001669	28.0813	2.682296	0.001977	1356.86	8.046732	-164.968	20.5513	0.550084	0.186615	0.186339	20.6323	1356.86	0.175211	0.846960	24.3604	1347.02
1197	2.000000	0.551387	7.37676e+06	-55739.1	1105.82	-29740.7	0.000000	0.000000	6.552199	20.7698	NaN	0.000000	0.001573	0.001648	28.0814	2.611264	0.002032	1285.07	7.819475	-165.052	20.7723	0.551084	0.187643	0.187340	20.7698	1285.07	0.175521	0.849735	24.4427	1273.67