File: remote_trans/data/nanoindenter/0828-1/data/Data_2025-08-06,11h17m57s/2025-07-22_16-23-58_1_550.txt
2025-07-22, 16:23:58, 1
Index	Phase	Displacement	Time	Pos X	Pos Y	Pos Z	Rot A	Rot B	Piezo Z	Force A	Force B	Gripper	Voltage A	Voltage B	Temperature	Amplitude force	Amplitude pos	Stiffness	Phase shift	Phase excitation	Force A raw	Displacement raw	HMax	HMax raw	Real Force	Real Stiffness	Contact Depth	Area	Hardness	Reduced Mod.
[#]	[#]	[um]	[s]	[um]	[um]	[um]	[m°]	[m°]	[um]	[uN]	[uN]	[V]	[V]	[V]	[°C]	[uN]	[um]	[N/m]	[°]	[°]	[uN]	[um]	[um]	[um]	[uN]	[N/m]	[um]	[um^2]	[MPa]	[MPa]
550	1.000000	0.002202	7.37043e+06	-49589.1	1005.82	-29758.5	0.000000	0.000000	6.002771	-0.053389	NaN	0.000000	0.001593	0.001766	28.0798	0.026310	0.000911	28.8826	137.611	-170.97	-0.050513	0.000972	-1.068330	-1.069559	-0.053389	28.8826	-1.066943	-1.803514E+14	2.960297E-16	NaN
550	1.000000	0.010190	7.37043e+06	-49589.1	1005.82	-29758.5	0.000000	0.000000	6.010762	0.027855	NaN	0.000000	0.001629	0.001753	28.079	0.026599	0.000958	27.7613	-93.1348	-166.575	-0.004728	0.008899	-1.060341	-1.061632	0.027855	27.7613	-1.061094	-1.504948E+14	-1.850862E-16	NaN
550	1.000000	0.018210	7.37043e+06	-49589.1	1005.82	-29758.5	0.000000	0.000000	6.018781	0.011846	NaN	0.000000	0.001580	0.001732	28.0789	0.017795	0.001768	10.0627	-172.869	-166.548	-0.014805	0.016839	-1.052321	-1.053692	0.011846	10.0627	-1.053204	-1.178922E+14	-1.004822E-16	NaN
550	1.000000	0.026239	7.37043e+06	-49589.1	1005.82	-29758.5	0.000000	0.000000	6.026808	-0.039320	NaN	0.000000	0.001585	0.001731	28.079	0.059940	0.001868	32.0899	173.945	-164.789	0.057277	0.024913	-1.044292	-1.045618	-0.039320	32.0899	-1.043373	-8.696093E+13	4.521547E-16	NaN
550	1.000000	0.034171	7.37043e+06	-49589.1	1005.82	-29758.5	0.000000	0.000000	6.034739	-0.071992	NaN	0.000000	0.001610	0.001752	28.0792	0.038194	0.001925	19.8365	-49.1648	-164.158	-0.016039	0.032854	-1.036361	-1.037677	-0.071992	19.8365	-1.033639	-6.433096E+13	1.119082E-15	NaN
550	1.000000	0.042206	7.37043e+06	-49589.1	1005.82	-29758.5	0.000000	0.000000	6.042773	-0.090497	NaN	0.000000	0.001602	0.001745	28.0792	0.060288	0.001988	30.331	-121.441	-165.36	-0.124035	0.040909	-1.028325	-1.029622	-0.090497	30.331	-1.026088	-5.091598E+13	1.777381E-15	NaN
550	1.000000	0.050127	7.37043e+06	-49589.1	1005.82	-29758.5	0.000000	0.000000	6.050696	-0.054264	NaN	0.000000	0.001577	0.001744	28.079	0.056795	0.001892	30.0228	50.8048	-166.271	-0.054073	0.048941	-1.020404	-1.021590	-0.054264	30.0228	-1.019048	-4.094015E+13	1.325451E-15	NaN
550	1.000000	0.058167	7.37043e+06	-49589.1	1005.82	-29758.5	0.000000	0.000000	6.058739	0.015442	NaN	0.000000	0.001568	0.001713	28.0796	0.078156	0.001904	41.0488	6.891742	-166.897	0.004296	0.056883	-1.012364	-1.013648	0.015442	41.0488	-1.012646	-3.357303E+13	-4.599536E-16	NaN
550	1.000000	0.066171	7.37043e+06	-49589.1	1005.82	-29758.5	0.000000	0.000000	6.066741	-0.030666	NaN	0.000000	0.001573	0.001753	28.0789	0.097225	0.001950	49.8659	-95.3414	-165.643	-0.041333	0.064864	-1.004360	-1.005667	-0.030666	49.8659	-1.003899	-2.560127E+13	1.197839E-15	NaN
550	1.000000	0.074198	7.37043e+06	-49589.1	1005.82	-29758.5	0.000000	0.000000	6.074767	-0.052131	NaN	0.000000	0.001624	0.001756	28.079	0.015196	0.002106	7.214681	-12.0818	-165.586	-0.028569	0.072911	-0.996333	-0.997620	-0.052131	7.214681	-0.990914	-1.711684E+13	3.045582E-15	NaN
550	1.000000	0.082201	7.37043e+06	-49589.1	1005.82	-29758.5	0.000000	0.000000	6.082773	0.021242	NaN	0.000000	0.001613	0.001749	28.0792	0.024227	0.002042	11.864	-75.1196	-163.221	0.038098	0.080875	-0.988330	-0.989656	0.021242	11.864	-0.989673	-1.647045E+13	-1.289677E-15	NaN
550	1.000000	0.090218	7.37043e+06	-49589.1	1005.82	-29758.5	0.000000	0.000000	6.090787	-0.034194	NaN	0.000000	0.001609	0.001747	28.0791	0.059481	0.002024	29.3926	-73.1487	-164.827	0.034771	0.088861	-0.980314	-0.981671	-0.034194	29.3926	-0.979441	-1.199166E+13	2.851494E-15	NaN
550	1.000000	0.098191	7.37043e+06	-49589.1	1005.82	-29758.5	0.000000	0.000000	6.098761	-0.038318	NaN	0.000000	0.001611	0.001739	28.0795	0.113632	0.001920	59.1981	-70.0847	-163.293	-0.076927	0.096874	-0.972340	-0.973657	-0.038318	59.1981	-0.971855	-9.476701E+12	4.043343E-15	NaN
550	1.000000	0.106188	7.37043e+06	-49589.1	1005.82	-29758.5	0.000000	0.000000	6.106756	-0.090295	NaN	0.000000	0.001622	0.001750	28.0791	0.043039	0.002053	20.959	109.915	-166.338	-0.129272	0.104900	-0.964343	-0.965631	-0.090295	20.959	-0.961112	-6.789834E+12	1.329863E-14	NaN
550	1.000000	0.114237	7.37043e+06	-49589.1	1005.82	-29758.5	0.000000	0.000000	6.114807	-0.006678	NaN	0.000000	0.001603	0.001765	28.0795	0.039838	0.002053	19.4079	-25.1519	-166.068	0.021589	0.112905	-0.956295	-0.957626	-0.006678	19.4079	-0.956036	-5.800028E+12	1.151438E-15	NaN
550	1.000000	0.122204	7.37043e+06	-49589.1	1005.82	-29758.5	0.000000	0.000000	6.122776	0.012573	NaN	0.000000	0.001610	0.001735	28.0795	0.104646	0.001862	56.1878	-109.887	-164.57	-0.029895	0.120899	-0.948327	-0.949632	0.012573	56.1878	-0.948495	-4.589078E+12	-2.739742E-15	NaN
550	1.000000	0.130210	7.37043e+06	-49589.1	1005.82	-29758.5	0.000000	0.000000	6.130781	-0.011706	NaN	0.000000	0.001572	0.001738	28.079	0.035324	0.001977	17.8705	50.8584	-166.275	-0.045076	0.128845	-0.940321	-0.941686	-0.011706	17.8705	-0.939829	-3.506196E+12	3.338579E-15	NaN
550	1.000000	0.138214	7.37043e+06	-49589.1	1005.82	-29758.5	0.000000	0.000000	6.138786	0.017913	NaN	0.000000	0.001578	0.001729	28.0796	0.152855	0.002013	75.9431	61.2402	-163.836	0.013690	0.136901	-0.932317	-0.933630	0.017913	75.9431	-0.932494	-2.791615E+12	-6.416712E-15	NaN
550	1.000000	0.146195	7.37043e+06	-49589.1	1005.82	-29758.5	0.000000	0.000000	6.146767	0.027390	NaN	0.000000	0.001642	0.001716	28.0805	0.100076	0.002018	49.5883	159.89	-165.121	-0.021299	0.144873	-0.924336	-0.925659	0.027390	49.5883	-0.924750	-2.194511E+12	-1.248105E-14	NaN
550	1.000000	0.154230	7.37043e+06	-49589.1	1005.82	-29758.5	0.000000	0.000000	6.154799	-0.069307	NaN	0.000000	0.001640	0.001711	28.0809	0.028991	0.001965	14.7564	66.1866	-162.869	-0.019258	0.152898	-0.916301	-0.917633	-0.069307	14.7564	-0.912778	-1.512461E+12	4.582429E-14	NaN
550	1.000000	0.162219	7.37043e+06	-49589.1	1005.82	-29758.5	0.000000	0.000000	6.162788	-0.055591	NaN	0.000000	0.001621	0.001705	28.0804	0.065214	0.002040	31.969	162.838	-165.819	0.020991	0.160925	-0.908312	-0.909606	-0.055591	31.969	-0.907007	-1.263979E+12	4.398086E-14	NaN
550	1.000000	0.170234	7.37043e+06	-49589.1	1005.82	-29758.5	0.000000	0.000000	6.170801	-0.077984	NaN	0.000000	0.001602	0.001751	28.0803	0.051761	0.001999	25.8981	-133.927	-167.344	-0.067387	0.168844	-0.900298	-0.901688	-0.077984	25.8981	-0.898039	-9.562475E+11	8.155184E-14	NaN
550	1.000000	0.178238	7.37043e+06	-49589.1	1005.82	-29758.5	0.000000	0.000000	6.178805	-0.100515	NaN	0.000000	0.001613	0.001762	28.0804	0.050352	0.001957	25.731	-77.6549	-165.123	-0.095989	0.176867	-0.892293	-0.893664	-0.100515	25.731	-0.889364	-7.299809E+11	1.376957E-13	NaN
550	1.000000	0.186250	7.37043e+06	-49589.1	1005.82	-29758.5	0.000000	0.000000	6.186820	-0.032520	NaN	0.000000	0.001576	0.001711	28.0803	0.098267	0.002020	48.6588	154.685	-166.228	-0.038303	0.184924	-0.884281	-0.885607	-0.032520	48.6588	-0.883779	-6.135021E+11	5.300739E-14	NaN
550	1.000000	0.194265	7.37043e+06	-49589.1	1005.82	-29758.5	0.000000	0.000000	6.194835	-0.026120	NaN	0.000000	0.001611	0.001742	28.0806	0.186568	0.002001	93.243	34.873	-169.207	-0.024665	0.192935	-0.876266	-0.877597	-0.026120	93.243	-0.876056	-4.823588E+11	5.415057E-14	NaN
550	1.000000	0.202245	7.37043e+06	-49589.1	1005.82	-29758.5	0.000000	0.000000	6.202817	0.020789	NaN	0.000000	0.001623	0.001751	28.0803	0.080864	0.001985	40.7412	-124.732	-165.682	0.005946	0.200888	-0.868287	-0.869643	0.020789	40.7412	-0.868669	-3.832117E+11	-5.424983E-14	NaN
550	1.000000	0.210231	7.37043e+06	-49589.1	1005.82	-29758.5	0.000000	0.000000	6.210803	0.012256	NaN	0.000000	0.001620	0.001759	28.0802	0.041829	0.002046	20.4464	53.4267	-165.762	0.004850	0.208968	-0.860300	-0.861563	0.012256	20.4464	-0.860749	-2.994067E+11	-4.093565E-14	NaN
550	1.000000	0.218226	7.37043e+06	-49589.1	1005.82	-29758.5	0.000000	0.000000	6.218796	-0.027025	NaN	0.000000	0.001620	0.001765	28.0802	0.088467	0.002171	40.7506	-146.53	-166.742	-0.033525	0.216930	-0.852305	-0.853602	-0.027025	40.7506	-0.851808	-2.265756E+11	1.192753E-13	NaN
550	1.000000	0.226225	7.37043e+06	-49589.1	1005.82	-29758.5	0.000000	0.000000	6.226795	-0.035074	NaN	0.000000	0.001620	0.001766	28.0803	0.035581	0.002088	17.037	-73.8884	-169.165	0.016877	0.224971	-0.844306	-0.845560	-0.035074	17.037	-0.842762	-1.708883E+11	2.052479E-13	NaN
550	1.000000	0.234261	7.37043e+06	-49589.1	1005.82	-29758.5	0.000000	0.000000	6.234830	-0.053419	NaN	0.000000	0.001625	0.001712	28.0803	0.117944	0.001931	61.0687	-154.858	-165.298	-0.068019	0.233015	-0.836270	-0.837516	-0.053419	61.0687	-0.835614	-1.367320E+11	3.906840E-13	NaN
550	1.000000	0.242249	7.37043e+06	-49589.1	1005.82	-29758.5	0.000000	0.000000	6.242818	-0.061403	NaN	0.000000	0.001588	0.001707	28.0803	0.101037	0.002025	49.8959	-43.6108	-166.424	-0.027177	0.240957	-0.828282	-0.829574	-0.061403	49.8959	-0.827359	-1.056775E+11	5.810393E-13	NaN
550	1.000000	0.250261	7.37043e+06	-49589.1	1005.82	-29758.5	0.000000	0.000000	6.250830	-0.062011	NaN	0.000000	0.001623	0.001771	28.0805	0.108319	0.001882	57.5495	-167.128	-167.311	-0.110414	0.248952	-0.820270	-0.821579	-0.062011	57.5495	-0.819462	-8.258673E+10	7.508532E-13	NaN
550	1.000000	0.258275	7.37043e+06	-49589.1	1005.82	-29758.5	0.000000	0.000000	6.258842	-0.097571	NaN	0.000000	0.001618	0.001749	28.0802	0.075678	0.001903	39.7598	-57.2254	-161.081	-0.088444	0.256986	-0.812256	-0.813545	-0.097571	39.7598	-0.810416	-6.226056E+10	1.567135E-12	NaN
550	1.000000	0.266288	7.37043e+06	-49589.1	1005.82	-29758.5	0.000000	0.000000	6.266859	-0.004662	NaN	0.000000	0.001592	0.001751	28.0804	0.061069	0.002033	30.0416	-152.829	-163.207	-0.103119	0.264938	-0.804244	-0.805593	-0.004662	30.0416	-0.804127	-5.115402E+10	9.113899E-14	NaN
550	1.000000	0.274245	7.37043e+06	-49589.1	1005.82	-29758.5	0.000000	0.000000	6.274815	-0.031072	NaN	0.000000	0.001595	0.001756	28.0802	0.063595	0.001967	32.3316	61.7678	-167.486	-0.058872	0.272901	-0.796286	-0.797630	-0.031072	32.3316	-0.795565	-3.914286E+10	7.938078E-13	NaN
550	1.000000	0.282280	7.37043e+06	-49589.1	1005.82	-29758.5	0.000000	0.000000	6.282849	-0.059544	NaN	0.000000	0.001627	0.001740	28.079	0.027596	0.002043	13.5061	-35.0148	-167.175	-0.066555	0.281012	-0.788251	-0.789519	-0.059544	13.5061	-0.784945	-2.808127E+10	2.120425E-12	NaN
550	1.000000	0.290281	7.37043e+06	-49589.1	1005.82	-29758.5	0.000000	0.000000	6.290854	0.037673	NaN	0.000000	0.001651	0.001743	28.079	0.062909	0.002057	30.5846	-141.952	-160.824	-0.003929	0.288940	-0.780250	-0.781591	0.037673	30.5846	-0.781174	-2.495640E+10	-1.509561E-12	NaN
550	1.000000	0.298281	7.37043e+06	-49589.1	1005.82	-29758.5	0.000000	0.000000	6.298851	-0.029969	NaN	0.000000	0.001617	0.001751	28.0787	0.026615	0.001950	13.6494	-120.029	-168.233	-0.076701	0.297000	-0.772250	-0.773531	-0.029969	13.6494	-0.770604	-1.792719E+10	1.671733E-12	NaN
550	1.000000	0.306301	7.37043e+06	-49589.1	1005.82	-29758.5	0.000000	0.000000	6.306871	-0.024679	NaN	0.000000	0.001632	0.001721	28.0794	0.058739	0.001834	32.0301	-42.0079	-166.638	-0.071905	0.304945	-0.764230	-0.765587	-0.024679	32.0301	-0.763652	-1.442066E+10	1.711353E-12	NaN
550	1.000000	0.314275	7.37043e+06	-49589.1	1005.82	-29758.5	0.000000	0.000000	6.314845	-0.016961	NaN	0.000000	0.001605	0.001738	28.0791	0.027368	0.002005	13.6512	11.0585	-165.87	-0.016810	0.313007	-0.756256	-0.757524	-0.016961	13.6512	-0.755325	-1.110937E+10	1.526698E-12	NaN
550	1.000000	0.322271	7.37043e+06	-49589.1	1005.82	-29758.5	0.000000	0.000000	6.322841	-0.043806	NaN	0.000000	0.001608	0.001743	28.0791	0.038972	0.001995	19.5344	77.5108	-164.708	-0.021699	0.321006	-0.748260	-0.749526	-0.043806	19.5344	-0.746578	-8.445683E+9	5.186753E-12	NaN
550	1.000000	0.330297	7.37043e+06	-49589.1	1005.82	-29758.5	0.000000	0.000000	6.330866	-0.052815	NaN	0.000000	0.001616	0.001763	28.0793	0.042575	0.001961	21.7141	23.8099	-165.055	-0.009291	0.329010	-0.740234	-0.741521	-0.052815	21.7141	-0.738410	-6.537280E+9	8.079063E-12	NaN
550	1.000000	0.338268	7.37043e+06	-49589.1	1005.82	-29758.5	0.000000	0.000000	6.338836	-0.070144	NaN	0.000000	0.001610	0.001764	28.079	0.037750	0.002058	18.3406	-21.1107	-166.639	-0.030343	0.337024	-0.732263	-0.733507	-0.070144	18.3406	-0.729395	-4.926749E+9	1.423743E-11	NaN
550	1.000000	0.346281	7.37043e+06	-49589.1	1005.82	-29758.5	0.000000	0.000000	6.346850	-0.050663	NaN	0.000000	0.001609	0.001746	28.0792	0.117374	0.001962	59.8268	-3.290118	-165.866	-0.013728	0.344989	-0.724250	-0.725542	-0.050663	59.8268	-0.723615	-4.109336E+9	1.232867E-11	NaN
550	1.000000	0.354317	7.37043e+06	-49589.1	1005.82	-29758.5	0.000000	0.000000	6.354885	-0.088632	NaN	0.000000	0.001646	0.001733	28.0788	0.090376	0.002012	44.912	100.441	-166.309	-0.111555	0.353022	-0.716214	-0.717509	-0.088632	44.912	-0.714734	-3.109121E+9	2.850716E-11	NaN
550	1.000000	0.362310	7.37043e+06	-49589.1	1005.82	-29758.5	0.000000	0.000000	6.362879	-0.058111	NaN	0.000000	0.001620	0.001755	28.079	0.047086	0.002156	21.8435	111.644	-165.903	-0.071199	0.361037	-0.708221	-0.709494	-0.058111	21.8435	-0.706226	-2.379762E+9	2.441873E-11	NaN
550	1.000000	0.370310	7.37043e+06	-49589.1	1005.82	-29758.5	0.000000	0.000000	6.370881	-0.019819	NaN	0.000000	0.001679	0.001742	28.0791	0.072539	0.002096	34.6099	175.869	-165.245	-0.033956	0.368945	-0.700221	-0.701586	-0.019819	34.6099	-0.699791	-1.943920E+9	1.019520E-11	NaN
550	1.000000	0.378313	7.37043e+06	-49589.1	1005.82	-29758.5	0.000000	0.000000	6.378884	-0.022305	NaN	0.000000	0.001614	0.001725	28.0792	0.021284	0.002098	10.1464	0.047595	-162.851	-0.018473	0.376994	-0.692218	-0.693537	-0.022305	10.1464	-0.690569	-1.454430E+9	1.533581E-11	NaN
550	1.000000	0.386299	7.37043e+06	-49589.1	1005.82	-29758.5	0.000000	0.000000	6.386867	-0.070082	NaN	0.000000	0.001619	0.001710	28.079	0.082324	0.001961	41.9881	-121.48	-164.8	-0.077279	0.384962	-0.684232	-0.685569	-0.070082	41.9881	-0.682981	-1.145418E+9	6.118467E-11	NaN
550	1.000000	0.394330	7.37043e+06	-49589.1	1005.82	-29758.5	0.000000	0.000000	6.394897	-0.096433	NaN	0.000000	0.001612	0.001737	28.0791	0.071316	0.001913	37.2757	-149.472	-168.263	-0.091413	0.393011	-0.676201	-0.677520	-0.096433	37.2757	-0.674261	-8.703658E+8	1.107963E-10	NaN
550	1.000000	0.402322	7.37043e+06	-49589.1	1005.82	-29758.5	0.000000	0.000000	6.402890	-0.055746	NaN	0.000000	0.001616	0.001718	28.0792	0.061460	0.002029	30.2981	53.3925	-165.164	-0.087830	0.401011	-0.668209	-0.669520	-0.055746	30.2981	-0.666830	-6.886393E+8	8.095155E-11	NaN
550	1.000000	0.410363	7.37043e+06	-49589.1	1005.82	-29758.5	0.000000	0.000000	6.410935	0.032726	NaN	0.000000	0.001596	0.001756	28.0793	0.100605	0.001932	52.0649	-11.3011	-164.856	0.005084	0.408999	-0.660168	-0.661532	0.032726	52.0649	-0.660640	-5.665427E+8	-5.776506E-11	NaN
550	1.000000	0.418341	7.37043e+06	-49589.1	1005.82	-29758.5	0.000000	0.000000	6.418911	-0.020706	NaN	0.000000	0.001622	0.001726	28.0804	0.061376	0.002135	28.7544	-25.8087	-163.795	-0.073933	0.417071	-0.652190	-0.653460	-0.020706	28.7544	-0.651650	-4.266390E+8	4.853252E-11	NaN
550	1.000000	0.426321	7.37043e+06	-49589.1	1005.82	-29758.5	0.000000	0.000000	6.426890	-0.059928	NaN	0.000000	0.001640	0.001754	28.0803	0.065840	0.002044	32.2082	90.6371	-167.33	-0.105653	0.424967	-0.644210	-0.645564	-0.059928	32.2082	-0.642814	-3.227726E+8	1.856675E-10	NaN
550	1.000000	0.434350	7.37043e+06	-49589.1	1005.82	-29758.5	0.000000	0.000000	6.434919	-0.040483	NaN	0.000000	0.001623	0.001754	28.0803	0.053949	0.001889	28.5662	-152.123	-164.989	0.016248	0.433052	-0.636181	-0.637479	-0.040483	28.5662	-0.635118	-2.531026E+8	1.599477E-10	NaN
550	1.000000	0.442357	7.37043e+06	-49589.1	1005.82	-29758.5	0.000000	0.000000	6.442925	-0.072877	NaN	0.000000	0.001622	0.001759	28.0803	0.072478	0.002123	34.135	104.78	-166.25	-0.086673	0.441062	-0.628174	-0.629470	-0.072877	34.135	-0.626573	-1.931781E+8	3.772538E-10	NaN
550	1.000000	0.450339	7.37043e+06	-49589.1	1005.82	-29758.5	0.000000	0.000000	6.450907	-0.087007	NaN	0.000000	0.001631	0.001765	28.0802	0.107253	0.002108	50.8725	14.4374	-166.538	-0.104547	0.449048	-0.620192	-0.621483	-0.087007	50.8725	-0.618909	-1.515786E+8	5.740060E-10	NaN
550	1.000000	0.458360	7.37043e+06	-49589.1	1005.82	-29758.5	0.000000	0.000000	6.458930	-0.029284	NaN	0.000000	0.001624	0.001743	28.0804	0.070657	0.001991	35.4804	26.2843	-164.906	0.055319	0.457029	-0.612171	-0.613502	-0.029284	35.4804	-0.611552	-1.200784E+8	2.438704E-10	NaN
550	1.000000	0.466356	7.37043e+06	-49589.1	1005.82	-29758.5	0.000000	0.000000	6.466927	-0.010314	NaN	0.000000	0.001634	0.001760	28.0802	0.060576	0.001966	30.8091	-19.8803	-166.686	-0.018731	0.465091	-0.604175	-0.605440	-0.010314	30.8091	-0.603924	-9.429429E+7	1.093838E-10	NaN
550	1.000000	0.474385	7.37043e+06	-49589.1	1005.82	-29758.5	0.000000	0.000000	6.474958	0.038953	NaN	0.000000	0.001617	0.001753	28.0801	0.079995	0.002056	38.9113	-43.3798	-166.701	-0.054902	0.473033	-0.596146	-0.597498	0.038953	38.9113	-0.596897	-7.546063E+7	-5.162028E-10	NaN
550	1.000000	0.482384	7.37043e+06	-49589.1	1005.82	-29758.5	0.000000	0.000000	6.482953	-0.039031	NaN	0.000000	0.001627	0.001773	28.0802	0.140304	0.001801	77.9158	38.3972	-162.879	-0.031019	0.481019	-0.588147	-0.589513	-0.039031	77.9158	-0.587772	-5.648591E+7	6.909929E-10	NaN
550	1.000000	0.490366	7.37043e+06	-49589.1	1005.82	-29758.5	0.000000	0.000000	6.490935	-0.037334	NaN	0.000000	0.001625	0.001754	28.08	0.031183	0.001815	17.1855	-61.5526	-163.257	-0.008427	0.489040	-0.580165	-0.581492	-0.037334	17.1855	-0.578536	-4.212298E+7	8.862998E-10	NaN
550	1.000000	0.498377	7.37043e+06	-49589.1	1005.82	-29758.5	0.000000	0.000000	6.498947	-0.047364	NaN	0.000000	0.001640	0.001732	28.0801	0.109744	0.001969	55.7492	-154.044	-164.542	-0.007688	0.497057	-0.572154	-0.573474	-0.047364	55.7492	-0.571516	-3.369638E+7	1.405613E-9	NaN
550	1.000000	0.506400	7.37043e+06	-49589.1	1005.82	-29758.5	0.000000	0.000000	6.506968	-0.071730	NaN	0.000000	0.001663	0.001743	28.0801	0.026958	0.002105	12.8061	-178.511	-160.562	-0.115148	0.505042	-0.564131	-0.565489	-0.071730	12.8061	-0.559930	-2.330296E+7	3.078129E-9	NaN
550	1.000000	0.514366	7.37043e+06	-49589.1	1005.82	-29758.5	0.000000	0.000000	6.514935	-0.037450	NaN	0.000000	0.001682	0.001712	28.0805	0.006659	0.002013	3.308327	-37.7298	-168.315	-0.048375	0.513042	-0.556166	-0.557489	-0.037450	3.308327	-0.547676	-1.576728E+7	2.375156E-9	NaN
550	1.000000	0.522349	7.37043e+06	-49589.1	1005.82	-29758.5	0.000000	0.000000	6.522919	-0.034101	NaN	0.000000	0.001646	0.001733	28.08	0.070203	0.002103	33.3771	-143.01	-166.573	0.013724	0.521034	-0.548182	-0.549497	-0.034101	33.3771	-0.547415	-1.563694E+7	2.180781E-9	NaN
550	1.000000	0.530396	7.37043e+06	-49589.1	1005.82	-29758.5	0.000000	0.000000	6.530964	-0.073280	NaN	0.000000	0.001642	0.001716	28.08	0.063483	0.001988	31.9295	35.7072	-164.489	-0.070233	0.529033	-0.540135	-0.541498	-0.073280	31.9295	-0.538414	-1.173165E+7	6.246331E-9	NaN
550	1.000000	0.538389	7.37043e+06	-49589.1	1005.82	-29758.5	0.000000	0.000000	6.538957	-0.074290	NaN	0.000000	0.001650	0.001702	28.0802	0.053208	0.002016	26.3956	-77.3454	-160.991	-0.048079	0.537043	-0.532142	-0.533488	-0.074290	26.3956	-0.530031	-8.97452e+06	8.277880E-9	NaN
550	1.000000	0.546392	7.37043e+06	-49589.1	1005.82	-29758.5	0.000000	0.000000	6.546958	-0.120987	NaN	0.000000	0.001638	0.001705	28.0801	0.071870	0.002010	35.758	-38.8902	-164.995	-0.065356	0.545064	-0.524139	-0.525467	-0.120987	35.758	-0.521602	-6.85281e+06	1.765514E-8	NaN
550	1.000000	0.554358	7.37043e+06	-49589.1	1005.82	-29758.5	0.000000	0.000000	6.554930	0.020942	NaN	0.000000	0.001693	0.001729	28.0792	0.092927	0.001977	46.9943	-98.5687	-164.95	-0.018791	0.553060	-0.516173	-0.517471	0.020942	46.9943	-0.516507	-5.82112e+06	-3.597661E-9	NaN
550	1.000000	0.562407	7.37043e+06	-49589.1	1005.82	-29758.5	0.000000	0.000000	6.562972	-0.131773	NaN	0.000000	0.001655	0.001738	28.0788	0.061021	0.001975	30.8955	119.932	-166.102	-0.159801	0.561121	-0.508124	-0.509410	-0.131773	30.8955	-0.504926	-4.01521e+06	3.281856E-8	NaN
550	1.000000	0.570428	7.37043e+06	-49589.1	1005.82	-29758.5	0.000000	0.000000	6.570997	-0.058361	NaN	0.000000	0.001636	0.001727	28.079	0.065920	0.002094	31.4812	-105.199	-166.921	0.018362	0.569099	-0.500103	-0.501432	-0.058361	31.4812	-0.498713	-3.28893e+06	1.774467E-8	NaN
550	1.000000	0.578396	7.37043e+06	-49589.1	1005.82	-29758.5	0.000000	0.000000	6.578966	-0.035360	NaN	0.000000	0.001626	0.001702	28.0792	0.050835	0.002067	24.5939	-35.7806	-166.709	0.037198	0.577085	-0.492135	-0.493446	-0.035360	24.5939	-0.491057	-2.57132e+06	1.375186E-8	NaN
550	1.000000	0.586411	7.37043e+06	-49589.1	1005.82	-29758.5	0.000000	0.000000	6.586978	-0.118074	NaN	0.000000	0.001649	0.001734	28.0788	0.107712	0.002103	51.207	-10.0875	-164.348	-0.068363	0.585066	-0.484120	-0.485465	-0.118074	51.207	-0.482390	-1.94529e+06	6.069763E-8	NaN
550	1.000000	0.594416	7.37043e+06	-49589.1	1005.82	-29758.5	0.000000	0.000000	6.594987	-0.008887	NaN	0.000000	0.001668	0.001718	28.0788	0.069544	0.002000	34.778	-52.4653	-163.146	0.039292	0.593124	-0.476115	-0.477407	-0.008887	34.778	-0.475924	-1.57921e+06	5.627527E-9	NaN
550	1.000000	0.602411	7.37043e+06	-49589.1	1005.82	-29758.5	0.000000	0.000000	6.602982	-0.010036	NaN	0.000000	0.001656	0.001759	28.0788	0.064381	0.001973	32.6355	133.976	-163.248	-0.037594	0.601123	-0.468120	-0.469408	-0.010036	32.6355	-0.467889	-1.21841e+06	8.236810E-9	NaN
550	1.000000	0.610403	7.37043e+06	-49589.1	1005.82	-29758.5	0.000000	0.000000	6.610972	-0.049085	NaN	0.000000	0.001689	0.001702	28.0789	0.099384	0.001981	50.1613	-76.6238	-163.94	-0.047223	0.609130	-0.460128	-0.461401	-0.049085	50.1613	-0.459394	-925770	5.302059E-8	NaN
550	1.000000	0.618458	7.37043e+06	-49589.1	1005.82	-29758.5	0.000000	0.000000	6.619026	-0.079716	NaN	0.000000	0.001615	0.001780	28.079	0.033594	0.002056	16.3371	90.6856	-165.632	-0.094871	0.617093	-0.452073	-0.453438	-0.079716	16.3371	-0.448414	-648634	1.228981E-7	NaN
550	1.000000	0.626406	7.37043e+06	-49589.1	1005.82	-29758.5	0.000000	0.000000	6.626976	-0.016943	NaN	0.000000	0.001606	0.001721	28.0788	0.032306	0.001952	16.551	138.293	-168.188	-0.004446	0.625157	-0.444125	-0.445374	-0.016943	16.551	-0.443358	-550469	3.077988E-8	NaN
550	1.000000	0.634423	7.37043e+06	-49589.1	1005.82	-29758.5	0.000000	0.000000	6.634993	-0.044454	NaN	0.000000	0.001652	0.001719	28.0788	0.046730	0.001947	24.0005	-73.0027	-165.086	-0.031957	0.633109	-0.436108	-0.437422	-0.044454	24.0005	-0.434719	-415698	1.069387E-7	NaN
550	1.000000	0.642442	7.37043e+06	-49589.1	1005.82	-29758.5	0.000000	0.000000	6.643010	-0.072088	NaN	0.000000	0.001633	0.001743	28.0788	0.120159	0.001973	60.9003	111.762	-164.954	-0.033818	0.641135	-0.428089	-0.429396	-0.072088	60.9003	-0.427201	-325426	2.215181E-7	NaN
550	1.000000	0.650418	7.37043e+06	-49589.1	1005.82	-29758.5	0.000000	0.000000	6.650990	0.007257	NaN	0.000000	0.001614	0.001717	28.079	0.106161	0.002038	52.091	-160.206	-162.659	-0.053475	0.649128	-0.420113	-0.421403	0.007257	52.091	-0.420217	-259119	-2.800688E-8	NaN
550	1.000000	0.658441	7.37043e+06	-49589.1	1005.82	-29758.5	0.000000	0.000000	6.659012	8.447491E-5	NaN	0.000000	0.001602	0.001764	28.0789	0.097638	0.002004	48.7109	161.91	-166.515	-0.090605	0.657233	-0.412090	-0.413298	8.447491E-5	48.7109	-0.412092	-198672	-4.251983E-10	NaN
550	1.000000	0.666433	7.37043e+06	-49589.1	1005.82	-29758.5	0.000000	0.000000	6.667004	0.013380	NaN	0.000000	0.001648	0.001706	28.0788	0.064333	0.002110	30.4887	-157.822	-163.773	0.031330	0.665130	-0.404098	-0.405401	0.013380	30.4887	-0.404428	-154559	-8.657132E-8	NaN
550	1.000000	0.674433	7.37043e+06	-49589.1	1005.82	-29758.5	0.000000	0.000000	6.675002	-0.059717	NaN	0.000000	0.001626	0.001749	28.079	0.063554	0.002072	30.6721	129.735	-166.863	-0.033349	0.673125	-0.396098	-0.397406	-0.059717	30.6721	-0.394637	-112062	5.328925E-7	NaN
550	1.000000	0.682461	7.37043e+06	-49589.1	1005.82	-29758.5	0.000000	0.000000	6.683030	-0.052391	NaN	0.000000	0.001638	0.001715	28.0789	0.060833	0.002001	30.4066	58.0445	-166.083	-0.065313	0.681156	-0.388070	-0.389375	-0.052391	30.4066	-0.386778	-86508.2	6.056178E-7	NaN
550	1.000000	0.690443	7.37043e+06	-49589.1	1005.82	-29758.5	0.000000	0.000000	6.691012	-0.047499	NaN	0.000000	0.001648	0.001728	28.0803	0.049018	0.001979	24.7653	-128.718	-163.683	-0.021713	0.689101	-0.380088	-0.381430	-0.047499	24.7653	-0.378649	-66145.8	7.181000E-7	NaN
550	1.000000	0.698453	7.37043e+06	-49589.1	1005.82	-29758.5	0.000000	0.000000	6.699024	-0.007845	NaN	0.000000	0.001645	0.001697	28.0803	0.045518	0.001956	23.2746	59.3693	-165.956	-0.010916	0.697140	-0.372078	-0.373391	-0.007845	23.2746	-0.371826	-52772.7	1.486631E-7	NaN
550	1.000000	0.706457	7.37043e+06	-49589.1	1005.82	-29758.5	0.000000	0.000000	6.707028	-0.005793	NaN	0.000000	0.001625	0.001759	28.0802	0.055668	0.001988	28.0072	2.812573	-166.672	-0.059544	0.705191	-0.364074	-0.365341	-0.005793	28.0072	-0.363919	-40593.3	1.427200E-7	NaN
550	1.000000	0.714460	7.37043e+06	-49589.1	1005.82	-29758.5	0.000000	0.000000	6.715029	-0.038690	NaN	0.000000	0.001628	0.001733	28.0802	0.035037	0.002096	16.7128	96.4244	-169.214	0.021043	0.713164	-0.356071	-0.357367	-0.038690	16.7128	-0.354335	-29502.9	1.311410E-6	NaN
550	1.000000	0.722446	7.37043e+06	-49589.1	1005.82	-29758.5	0.000000	0.000000	6.723016	-0.041960	NaN	0.000000	0.001623	0.001775	28.0801	0.022727	0.002020	11.2524	117.243	-165.046	-0.026814	0.721132	-0.348085	-0.349399	-0.041960	11.2524	-0.345288	-21804.4	1.924366E-6	NaN
550	1.000000	0.730484	7.37043e+06	-49589.1	1005.82	-29758.5	0.000000	0.000000	6.731052	-0.070066	NaN	0.000000	0.001613	0.001735	28.0802	0.092504	0.001969	46.9823	-132.22	-166.631	-0.080057	0.729146	-0.340047	-0.341385	-0.070066	46.9823	-0.338929	-17617.2	3.977156E-6	NaN
550	1.000000	0.738502	7.37043e+06	-49589.1	1005.82	-29758.5	0.000000	0.000000	6.739073	0.000165	NaN	0.000000	0.001614	0.001779	28.0804	0.135703	0.001946	69.7447	-133.837	-165.808	-0.017194	0.737207	-0.332029	-0.333324	0.000165	69.7447	-0.332031	-13969.3	-1.177806E-8	NaN
550	1.000000	0.746472	7.37043e+06	-49589.1	1005.82	-29758.5	0.000000	0.000000	6.747040	-0.065268	NaN	0.000000	0.001629	0.001739	28.0804	0.086859	0.002122	40.924	-178.192	-164.238	0.001448	0.745159	-0.324059	-0.325372	-0.065268	40.924	-0.322863	-10250.5	6.367313E-6	NaN
550	1.000000	0.754467	7.37043e+06	-49589.1	1005.82	-29758.5	0.000000	0.000000	6.755037	-0.031338	NaN	0.000000	0.001602	0.001733	28.0803	0.038556	0.002106	18.3112	29.8779	-162.186	-0.113721	0.753135	-0.316064	-0.317396	-0.031338	18.3112	-0.314781	-7793.13	4.021174E-6	NaN
550	1.000000	0.762469	7.37043e+06	-49589.1	1005.82	-29758.5	0.000000	0.000000	6.763043	0.058226	NaN	0.000000	0.001615	0.001740	28.0805	0.046101	0.002006	22.9832	12.1829	-161.406	0.049679	0.761234	-0.308062	-0.309297	0.058226	22.9832	-0.309962	-6614.4	-8.802897E-6	NaN
550	1.000000	0.770478	7.37043e+06	-49589.1	1005.82	-29758.5	0.000000	0.000000	6.771046	-0.080013	NaN	0.000000	0.001593	0.001758	28.0803	0.088047	0.001984	44.3864	-125.633	-163.597	-0.079430	0.769185	-0.300053	-0.301346	-0.080013	44.3864	-0.298701	-4500.76	1.777763E-5	NaN
550	1.000000	0.778469	7.37043e+06	-49589.1	1005.82	-29758.5	0.000000	0.000000	6.779038	-0.059123	NaN	0.000000	0.001668	0.001733	28.0804	0.058557	0.002020	28.9822	-128.242	-169.038	-0.061529	0.777210	-0.292062	-0.293321	-0.059123	28.9822	-0.290532	-3398.36	1.739748E-5	NaN
550	1.000000	0.786482	7.37043e+06	-49589.1	1005.82	-29758.5	0.000000	0.000000	6.787052	-0.036702	NaN	0.000000	0.001681	0.001761	28.0803	0.090763	0.001930	47.0383	-115.228	-163.783	-0.083945	0.785171	-0.284049	-0.285360	-0.036702	47.0383	-0.283464	-2661.73	1.378893E-5	NaN
550	1.000000	0.794493	7.37043e+06	-49589.1	1005.82	-29758.5	0.000000	0.000000	6.795066	0.031397	NaN	0.000000	0.001663	0.001762	28.0801	0.074626	0.002047	36.4592	-41.8542	-164.129	0.036159	0.793187	-0.276038	-0.277344	0.031397	36.4592	-0.276684	-2103.19	-1.492849E-5	NaN
550	1.000000	0.802474	7.37043e+06	-49589.1	1005.82	-29758.5	0.000000	0.000000	6.803041	-0.097771	NaN	0.000000	0.001700	0.001767	28.0805	0.026191	0.001871	14.0008	-126.44	-167.821	-0.099656	0.801211	-0.268057	-0.269320	-0.097771	14.0008	-0.262819	-1294.42	7.553255E-5	NaN
550	1.000000	0.810478	7.37043e+06	-49589.1	1005.82	-29758.5	0.000000	0.000000	6.811047	-0.035351	NaN	0.000000	0.001672	0.001733	28.0801	0.032472	0.001889	17.1884	-108.824	-160.176	-0.053650	0.809171	-0.260054	-0.261360	-0.035351	17.1884	-0.258511	-1111.94	3.179214E-5	NaN
550	1.000000	0.818502	7.37043e+06	-49589.1	1005.82	-29758.5	0.000000	0.000000	6.819073	0.006350	NaN	0.000000	0.001703	0.001723	28.0801	0.158852	0.002072	76.6621	-87.6859	-165.078	-0.024621	0.817189	-0.252029	-0.253343	0.006350	76.6621	-0.252091	-885.686	-7.169533E-6	NaN
550	1.000000	0.826476	7.37043e+06	-49589.1	1005.82	-29758.5	0.000000	0.000000	6.827043	-0.101251	NaN	0.000000	0.001649	0.001760	28.0788	0.039892	0.001999	19.9554	52.1435	-166.186	-0.083415	0.825183	-0.244055	-0.245348	-0.101251	19.9554	-0.240249	-580.023	0.000175	NaN
550	1.000000	0.834511	7.37043e+06	-49589.1	1005.82	-29758.5	0.000000	0.000000	6.835079	-0.069958	NaN	0.000000	0.001666	0.001761	28.0791	0.079500	0.002035	39.0628	-139.178	-164.34	-0.032967	0.833183	-0.236020	-0.237348	-0.069958	39.0628	-0.234677	-474.434	0.000147	NaN
550	1.000000	0.842543	7.37043e+06	-49589.1	1005.82	-29758.5	0.000000	0.000000	6.843113	-0.031040	NaN	0.000000	0.001699	0.001783	28.079	0.140101	0.001952	71.7852	119.03	-164.709	-0.057719	0.841226	-0.227988	-0.229305	-0.031040	71.7852	-0.227664	-367.776	8.439899E-5	NaN
550	1.000000	0.850499	7.37043e+06	-49589.1	1005.82	-29758.5	0.000000	0.000000	6.851069	-0.043849	NaN	0.000000	0.001695	0.001778	28.079	0.027242	0.001904	14.3084	-99.8972	-164.512	-0.104584	0.849134	-0.220032	-0.221397	-0.043849	14.3084	-0.217734	-255.507	0.000172	NaN
550	1.000000	0.858469	7.37043e+06	-49589.1	1005.82	-29758.5	0.000000	0.000000	6.859036	-0.101241	NaN	0.000000	0.001709	0.001744	28.0792	0.005287	0.002020	2.616985	-153.639	-165.025	-0.042766	0.857239	-0.212063	-0.213292	-0.101241	2.616985	-0.183048	-68.7343	0.001473	NaN
550	1.000000	0.866514	7.37043e+06	-49589.1	1005.82	-29758.5	0.000000	0.000000	6.867082	-0.080032	NaN	0.000000	0.001682	0.001803	28.0791	0.062229	0.001909	32.6	-101.831	-167.735	-0.075463	0.865249	-0.204017	-0.205282	-0.080032	32.6	-0.202176	-143.019	0.000560	NaN
550	1.000000	0.874506	7.37043e+06	-49589.1	1005.82	-29758.5	0.000000	0.000000	6.875075	-0.047255	NaN	0.000000	0.001698	0.001784	28.0789	0.095712	0.001986	48.1985	66.9624	-165.376	-0.044967	0.873189	-0.196025	-0.197342	-0.047255	48.1985	-0.195290	-110.155	0.000429	NaN
550	1.000000	0.882513	7.37043e+06	-49589.1	1005.82	-29758.5	0.000000	0.000000	6.883083	-0.027131	NaN	0.000000	0.001710	0.001806	28.0791	0.030206	0.001832	16.4911	56.13	-163.979	-0.051325	0.881233	-0.188018	-0.189298	-0.027131	16.4911	-0.186784	-79.4602	0.000341	NaN
550	1.000000	0.890519	7.37043e+06	-49589.1	1005.82	-29758.5	0.000000	0.000000	6.891087	-0.080985	NaN	0.000000	0.001660	0.001851	28.0789	0.073966	0.001947	37.9939	20.8707	-163.604	-0.070498	0.889208	-0.180012	-0.181323	-0.080985	37.9939	-0.178414	-57.3371	0.001412	NaN
550	1.000000	0.898560	7.37043e+06	-49589.1	1005.82	-29758.5	0.000000	0.000000	6.899132	0.008281	NaN	0.000000	0.001687	0.001773	28.0789	0.144684	0.001922	75.2779	137.911	-166.856	-0.037389	0.897227	-0.171971	-0.173304	0.008281	75.2779	-0.172053	-44.5855	-0.000186	NaN
550	1.000000	0.906537	7.37043e+06	-49589.1	1005.82	-29758.5	0.000000	0.000000	6.907107	-0.012264	NaN	0.000000	0.001698	0.001787	28.0792	0.107874	0.002099	51.3877	99.7308	-165.975	-0.017338	0.905240	-0.163995	-0.165291	-0.012264	51.3877	-0.163816	-32.0241	0.000383	NaN
550	1.000000	0.914516	7.37043e+06	-49589.1	1005.82	-29758.5	0.000000	0.000000	6.915084	-0.072761	NaN	0.000000	0.001660	0.001746	28.0791	0.035526	0.002122	16.7422	70.3386	-163.628	0.017938	0.913199	-0.156016	-0.157332	-0.072761	16.7422	-0.152756	-20.3274	0.003579	NaN
550	1.000000	0.922558	7.37043e+06	-49589.1	1005.82	-29758.5	0.000000	0.000000	6.923127	-0.054536	NaN	0.000000	0.001676	0.001774	28.079	0.156497	0.002025	77.2877	-136.264	-163.059	-0.042502	0.921225	-0.147973	-0.149306	-0.054536	77.2877	-0.147444	-16.2637	0.003353	NaN
550	1.000000	0.930503	7.37043e+06	-49589.1	1005.82	-29758.5	0.000000	0.000000	6.931073	-0.037596	NaN	0.000000	0.001664	0.001748	28.0791	0.056598	0.001946	29.0831	-159.618	-165.192	-0.062282	0.929220	-0.140028	-0.141311	-0.037596	29.0831	-0.139059	-11.3569	0.003310	NaN
550	1.000000	0.938535	7.37043e+06	-49589.1	1005.82	-29758.5	0.000000	0.000000	6.939104	-0.061204	NaN	0.000000	0.001703	0.001768	28.0789	0.018068	0.001977	9.141395	-95.9738	-167.477	-0.092252	0.937190	-0.131996	-0.133341	-0.061204	9.141395	-0.126974	-6.651460	0.009202	NaN
550	1.000000	0.946552	7.37043e+06	-49589.1	1005.82	-29758.5	0.000000	0.000000	6.947119	-0.087515	NaN	0.000000	0.001652	0.001792	28.0789	0.126650	0.002102	60.2496	-98.6127	-163.284	-0.069917	0.945252	-0.123979	-0.125279	-0.087515	60.2496	-0.122890	-5.521687	0.015849	NaN
550	1.000000	0.954586	7.37043e+06	-49589.1	1005.82	-29758.5	0.000000	0.000000	6.955155	-0.075459	NaN	0.000000	0.001694	0.001775	28.079	0.008056	0.001979	4.071064	4.029642	-167.308	-0.053043	0.953214	-0.115945	-0.117317	-0.075459	4.071064	-0.102043	-2.026831	0.037230	NaN
550	1.000000	0.962587	7.37043e+06	-49589.1	1005.82	-29758.5	0.000000	0.000000	6.963156	-0.056392	NaN	0.000000	0.001666	0.001766	28.0802	0.118306	0.002104	56.2342	133.886	-164.527	0.023414	0.961244	-0.107944	-0.109288	-0.056392	56.2342	-0.107192	-2.619775	0.021526	NaN
550	1.000000	0.970569	7.37043e+06	-49589.1	1005.82	-29758.5	0.000000	0.000000	6.971135	-0.115862	NaN	0.000000	0.001690	0.001776	28.0802	0.045307	0.001913	23.6829	48.1364	-165.698	0.014771	0.969232	-0.099962	-0.101299	-0.115862	23.6829	-0.096293	-1.509301	0.076765	NaN
550	1.000000	0.978580	7.37043e+06	-49589.1	1005.82	-29758.5	0.000000	0.000000	6.979149	-0.040712	NaN	0.000000	0.001664	0.001846	28.0801	0.032699	0.002105	15.5372	-79.9926	-168.671	0.004921	0.977314	-0.091951	-0.093217	-0.040712	15.5372	-0.089986	-1.080162	0.037691	NaN
550	1.000000	0.986604	7.37043e+06	-49589.1	1005.82	-29758.5	0.000000	0.000000	6.987172	-0.075889	NaN	0.000000	0.001639	0.001849	28.0802	0.049232	0.001958	25.1426	172.835	-163.642	-0.064238	0.985276	-0.083927	-0.085255	-0.075889	25.1426	-0.081664	-0.680854	0.111461	NaN
550	1.000000	0.994559	7.37043e+06	-49589.1	1005.82	-29758.5	0.000000	0.000000	6.995128	-0.062841	NaN	0.000000	0.001702	0.001836	28.0801	0.032761	0.002027	16.1665	-174.156	-166.444	-0.013872	0.993290	-0.075972	-0.077241	-0.062841	16.1665	-0.073057	-0.411057	0.152875	NaN
550	1.000000	1.002580	7.37043e+06	-49589.1	1005.82	-29758.5	0.000000	0.000000	7.003149	-0.035562	NaN	0.000000	0.001687	0.001768	28.0803	0.061134	0.002056	29.7397	114.33	-164.186	0.036382	1.001263	-0.067951	-0.069268	-0.035562	29.7397	-0.067054	-0.283899	0.125264	NaN
550	1.000000	1.010556	7.37043e+06	-49589.1	1005.82	-29758.5	0.000000	0.000000	7.011124	-0.075027	NaN	0.000000	0.001625	0.001830	28.0804	0.064119	0.002084	30.7617	-158.903	-163.459	-0.044192	1.009287	-0.059975	-0.061244	-0.075027	30.7617	-0.058146	-0.159217	0.471229	NaN
550	1.000000	1.018578	7.37043e+06	-49589.1	1005.82	-29758.5	0.000000	0.000000	7.019145	-0.094562	NaN	0.000000	0.001660	0.001807	28.0803	0.065805	0.002029	32.4386	-138.613	-165.571	-0.045613	1.017316	-0.051954	-0.053215	-0.094562	32.4386	-0.049767	-0.089783	1.053236	NaN
550	1.000000	1.026605	7.37043e+06	-49589.1	1005.82	-29758.5	0.000000	0.000000	7.027175	-0.029744	NaN	0.000000	0.001656	0.001829	28.0804	0.099187	0.002069	47.9391	-135.129	-165.416	-0.057333	1.025317	-0.043926	-0.045214	-0.029744	47.9391	-0.043460	-0.057664	0.515817	NaN
550	1.000000	1.034560	7.37043e+06	-49589.1	1005.82	-29758.5	0.000000	0.000000	7.035126	-0.124389	NaN	0.000000	0.001662	0.001851	28.0802	0.071327	0.001971	36.1901	-160.782	-166.726	-0.059624	1.033322	-0.035971	-0.037209	-0.124389	36.1901	-0.033393	-0.028741	4.327901	NaN
550	1.000000	1.042577	7.37043e+06	-49589.1	1005.82	-29758.5	0.000000	0.000000	7.043147	-0.031022	NaN	0.000000	0.001602	0.001871	28.0804	0.037225	0.002071	17.9712	-38.7894	-164.51	0.027856	1.041291	-0.027954	-0.029241	-0.031022	17.9712	-0.026660	-0.018660	1.662436	NaN
550	1.000000	1.050591	7.37043e+06	-49589.1	1005.82	-29758.5	0.000000	0.000000	7.051159	-0.067389	NaN	0.000000	0.001605	0.001840	28.0804	0.025377	0.002120	11.97	-162.537	-165.917	-0.065133	1.049241	-0.019940	-0.021290	-0.067389	11.97	-0.015718	-0.009710	6.940296	NaN
550	1.000000	1.058566	7.37043e+06	-49589.1	1005.82	-29758.5	0.000000	0.000000	7.059135	-0.067324	NaN	0.000000	0.001618	0.001854	28.08	0.105335	0.001984	53.1047	164.397	-165.842	-0.084804	1.057280	-0.011965	-0.013252	-0.067324	53.1047	-0.011014	-0.006966	9.664613	NaN
550	1.000000	1.066612	7.37043e+06	-49589.1	1005.82	-29758.5	0.000000	0.000000	7.067181	-0.035369	NaN	0.000000	0.001595	0.001810	28.0807	0.033710	0.002073	16.2645	93.7394	-167.734	0.014495	1.065283	-0.003919	-0.005248	-0.035369	16.2645	-0.002288	-0.001638	21.59	NaN
550	1.000000	1.074579	7.37043e+06	-49589.1	1005.82	-29758.5	0.000000	0.000000	7.075175	0.604542	NaN	0.000000	0.001587	0.001806	28.0802	0.763825	0.002018	378.519	20.4589	-164.712	0.286974	1.073311	0.004048	0.002780	0.604542	378.519	0.002850	0.002254	268.225	7284.46
550	1.000000	1.082605	7.37043e+06	-49589.1	1005.82	-29758.5	0.000000	0.000000	7.083318	3.457569	NaN	0.000000	0.001586	0.001830	28.0802	2.956203	0.001823	1621.56	11.5287	-167.841	2.832061	1.081330	0.012074	0.010799	3.457569	1621.56	0.010475	0.009714	355.938	15031.7
550	2.000000	1.090038	7.37043e+06	-49589.1	1005.82	-29758.5	0.000000	0.000000	7.090936	7.955613	NaN	0.000000	0.001582	0.001831	28.0801	6.060808	0.001830	3311.17	11.5521	-170.16	8.116491	1.089286	0.019507	0.018754	7.955613	3311.17	0.017705	0.019063	417.329	21910.8
550	2.000000	1.092209	7.37043e+06	-49589.1	1005.82	-29758.5	0.000000	0.000000	7.093103	7.854280	NaN	0.000000	0.001582	0.001844	28.079	7.646015	0.002020	3785.8	10.7913	-169.702	7.976767	1.091940	0.021678	0.021409	7.854280	3785.8	0.020122	0.022735	345.477	22939.7
550	2.000000	1.094167	7.37043e+06	-49589.1	1005.82	-29758.5	0.000000	0.000000	7.095149	9.991946	NaN	0.000000	0.001596	0.001823	28.0792	8.731863	0.001846	4731.37	7.395223	-169.986	9.938613	1.093877	0.023636	0.023346	9.991946	4731.37	0.022052	0.025870	386.241	26876
550	2.000000	1.096140	7.37043e+06	-49589.1	1005.82	-29758.5	0.000000	0.000000	7.097181	11.4291	NaN	0.000000	0.001617	0.001810	28.0789	10.0605	0.001815	5542.92	9.391014	-174.032	11.0857	1.095789	0.025609	0.025258	11.4291	5542.92	0.024062	0.029332	389.648	29569.3
550	2.000000	1.098132	7.37043e+06	-49589.1	1005.82	-29758.5	0.000000	0.000000	7.099244	13.1614	NaN	0.000000	0.001594	0.001790	28.0793	11.7172	0.001878	6238.97	5.993165	-171.671	12.7637	1.097871	0.027601	0.027340	13.1614	6238.97	0.026019	0.032895	400.1	31428.2
550	2.000000	1.100139	7.37043e+06	-49589.1	1005.82	-29758.5	0.000000	0.000000	7.101326	14.9785	NaN	0.000000	0.001570	0.001788	28.0787	13.0226	0.001848	7046.45	7.621715	-174.93	14.1077	1.099832	0.029608	0.029301	14.9785	7046.45	0.028013	0.036727	407.838	33593.4
550	2.000000	1.102149	7.37043e+06	-49589.1	1005.82	-29758.5	0.000000	0.000000	7.103433	17.3333	NaN	0.000000	0.001563	0.001822	28.0798	14.5351	0.001764	8237.95	8.035907	-176.335	17.1491	1.101789	0.031618	0.031258	17.3333	8237.95	0.030040	0.040827	424.558	37249.5
550	2.000000	1.104141	7.37043e+06	-49589.1	1005.82	-29758.5	0.000000	0.000000	7.105558	20.5715	NaN	0.000000	0.001590	0.001853	28.0789	15.9111	0.001817	8758.97	3.613040	-170.914	19.658	1.103789	0.033610	0.033258	20.5715	8758.97	0.031848	0.044662	460.606	37866.7
550	2.000000	1.106105	7.37043e+06	-49589.1	1005.82	-29758.5	0.000000	0.000000	7.107611	22.7265	NaN	0.000000	0.001590	0.001794	28.079	17.2668	0.001827	9449.42	7.014962	-175.599	21.6776	1.105807	0.035574	0.035276	22.7265	9449.42	0.033770	0.048922	464.549	39032.6
550	2.000000	1.108085	7.37043e+06	-49589.1	1005.82	-29758.5	0.000000	0.000000	7.109636	23.8322	NaN	0.000000	0.001589	0.001791	28.0793	19.2332	0.001850	10398.6	9.317807	-176.779	23.8793	1.107842	0.037554	0.037311	23.8322	10398.6	0.035835	0.053708	443.733	40994.8
550	2.000000	1.110131	7.37043e+06	-49589.1	1005.82	-29758.5	0.000000	0.000000	7.111845	27.7867	NaN	0.000000	0.001626	0.001780	28.0792	21.0596	0.001688	12474.1	6.400978	-179.034	27.1898	1.109851	0.039600	0.039320	27.7867	12474.1	0.037929	0.058787	472.669	47005
550	2.000000	1.112083	7.37043e+06	-49589.1	1005.82	-29758.5	0.000000	0.000000	7.114062	34.2182	NaN	0.000000	0.001600	0.001787	28.0801	23.563	0.001765	13348.5	8.291677	-179.964	33.7845	1.111770	0.041552	0.041239	34.2182	13348.5	0.039630	0.063075	542.502	48560.1
550	2.000000	1.114098	7.37043e+06	-49589.1	1005.82	-29758.5	0.000000	0.000000	7.116211	37.5082	NaN	0.000000	0.001605	0.001821	28.0788	25.5514	0.001838	13901.8	9.893179	178.734	38.3301	1.113837	0.043567	0.043305	37.5082	13901.8	0.041543	0.068077	550.968	48679.4
550	2.000000	1.116089	7.37043e+06	-49589.1	1005.82	-29758.5	0.000000	0.000000	7.118327	40.5196	NaN	0.000000	0.001586	0.001777	28.079	27.3632	0.001899	14406.6	10.1225	179.571	40.4582	1.115727	0.045558	0.045195	40.5196	14406.6	0.043449	0.073245	553.205	48634.6
550	2.000000	1.118057	7.37043e+06	-49589.1	1005.82	-29758.5	0.000000	0.000000	7.120506	45.6553	NaN	0.000000	0.001592	0.001761	28.079	28.8361	0.001789	16114.5	5.451764	-179.163	43.4334	1.117775	0.047526	0.047244	45.6553	16114.5	0.045401	0.078731	579.893	52470.8
550	2.000000	1.120015	7.37043e+06	-49589.1	1005.82	-29758.5	0.000000	0.000000	7.122549	47.7209	NaN	0.000000	0.001557	0.001735	28.079	29.2937	0.001662	17628.6	2.961774	-177.803	43.7008	1.119741	0.049484	0.049210	47.7209	17628.6	0.047454	0.084707	563.367	55339.1
550	2.000000	1.122025	7.37043e+06	-49589.1	1005.82	-29758.5	0.000000	0.000000	7.124803	53.652	NaN	0.000000	0.001619	0.001775	28.0801	31.9283	0.001782	17917.2	0.791011	-175.737	51.2064	1.121731	0.051494	0.051200	53.652	17917.2	0.049248	0.090104	595.443	54534.5
550	2.000000	1.124075	7.37043e+06	-49589.1	1005.82	-29758.5	0.000000	0.000000	7.127168	61.3286	NaN	0.000000	0.001630	0.001773	28.079	33.9427	0.001770	19181.5	4.135049	-178.4	60.206	1.123805	0.053544	0.053274	61.3286	19181.5	0.051146	0.095987	638.925	56565.2
550	2.000000	1.126093	7.37043e+06	-49589.1	1005.82	-29758.5	0.000000	0.000000	7.129392	66.3384	NaN	0.000000	0.001621	0.001796	28.0803	35.8794	0.001709	20997.9	4.958855	178.257	65.1711	1.125767	0.055562	0.055236	66.3384	20997.9	0.053193	0.102536	646.977	59911.5
550	2.000000	1.128045	7.37043e+06	-49589.1	1005.82	-29758.5	0.000000	0.000000	7.131615	72.9283	NaN	0.000000	0.001570	0.001786	28.0802	38.4613	0.001683	22857.5	3.715071	178.595	71.5767	1.127728	0.057514	0.057196	72.9283	22857.5	0.055121	0.108895	669.71	63284.5
550	2.000000	1.130047	7.37043e+06	-49589.1	1005.82	-29758.5	0.000000	0.000000	7.134037	83.1411	NaN	0.000000	0.001645	0.001782	28.0802	40.3547	0.001776	22726.7	6.173737	176.395	80.2301	1.129732	0.059516	0.059201	83.1411	22726.7	0.056772	0.114489	726.191	61365.9
550	2.000000	1.132084	7.37043e+06	-49589.1	1005.82	-29758.5	0.000000	0.000000	7.136259	87.6321	NaN	0.000000	0.001604	0.001791	28.0805	42.6841	0.001792	23821.5	7.233179	176.361	88.1072	1.131699	0.061553	0.061168	87.6321	23821.5	0.058794	0.121521	721.13	62433.6
550	2.000000	1.134100	7.37043e+06	-49589.1	1005.82	-29758.5	0.000000	0.000000	7.138878	102.317	NaN	0.000000	0.001640	0.001743	28.08	44.6789	0.001811	24672.5	5.107253	179.114	100.309	1.133681	0.063569	0.063150	102.317	24672.5	0.060458	0.127457	802.757	63139.9
550	2.000000	1.136094	7.37043e+06	-49589.1	1005.82	-29758.5	0.000000	0.000000	7.141044	106.501	NaN	0.000000	0.001567	0.001747	28.0804	45.9623	0.001757	26158.2	1.281591	-179.347	105.712	1.135727	0.065563	0.065196	106.501	26158.2	0.062509	0.134960	789.126	65054.6
550	2.000000	1.138059	7.37043e+06	-49589.1	1005.82	-29758.5	0.000000	0.000000	7.143262	112.632	NaN	0.000000	0.001595	0.001751	28.0802	48.7225	0.001692	28803.1	4.431905	176.169	111.287	1.137749	0.067528	0.067218	112.632	28803.1	0.064595	0.142800	788.745	69638.5
550	2.000000	1.140017	7.37043e+06	-49589.1	1005.82	-29758.5	0.000000	0.000000	7.145786	126.394	NaN	0.000000	0.001628	0.001731	28.0801	48.7542	0.001730	28187.7	0.320057	-178.709	125.452	1.139743	0.069486	0.069212	126.394	28187.7	0.066123	0.148677	850.122	66790.1
550	2.000000	1.142074	7.37043e+06	-49589.1	1005.82	-29758.5	0.000000	0.000000	7.147892	127.598	NaN	0.000000	0.001634	0.001807	28.0811	53.0507	0.001770	29977.6	5.264017	175.063	128.591	1.141802	0.071543	0.071271	127.598	29977.6	0.068351	0.157444	810.438	69025.1
550	2.000000	1.144069	7.37043e+06	-49589.1	1005.82	-29758.5	0.000000	0.000000	7.150464	141.642	NaN	0.000000	0.001621	0.001789	28.0802	55.2652	0.001743	31699.1	8.823835	172.55	140.527	1.143663	0.073538	0.073132	141.642	31699.1	0.070187	0.164848	859.229	71330.9
550	2.000000	1.146108	7.37043e+06	-49589.1	1005.82	-29758.5	0.000000	0.000000	7.152960	152.748	NaN	0.000000	0.001611	0.001768	28.0805	56.3794	0.001814	31086.8	2.381920	178.142	154.889	1.145751	0.075577	0.075220	152.748	31086.8	0.071892	0.171870	888.741	68509.3
550	2.000000	1.148130	7.37044e+06	-49589.1	1005.82	-29758.5	0.000000	0.000000	7.155282	160.047	NaN	0.000000	0.001609	0.001803	28.0802	59.0032	0.001808	32641.4	4.474351	176.02	163.212	1.147780	0.077599	0.077248	160.047	32641.4	0.073921	0.180405	887.155	70213
550	2.000000	1.150048	7.37044e+06	-49589.1	1005.82	-29758.5	0.000000	0.000000	7.157692	171.991	NaN	0.000000	0.001597	0.001734	28.0804	59.3342	0.001849	32084.8	4.078225	176.523	172.74	1.149719	0.079517	0.079188	171.991	32084.8	0.075497	0.187165	918.925	67757.9
550	2.000000	1.152003	7.37044e+06	-49589.1	1005.82	-29758.5	0.000000	0.000000	7.160088	182.737	NaN	0.000000	0.001630	0.001791	28.0804	61.6035	0.001903	32380.1	4.839426	175.641	180.527	1.151732	0.081471	0.081201	182.737	32380.1	0.077239	0.194775	938.193	67032.5
550	2.000000	1.154069	7.37044e+06	-49589.1	1005.82	-29758.5	0.000000	0.000000	7.162580	193.104	NaN	0.000000	0.001601	0.001798	28.0803	63.7315	0.001924	33119.8	8.734141	172.3	194.332	1.153650	0.083537	0.083119	193.104	33119.8	0.079165	0.203354	949.596	67101.9
550	2.000000	1.156067	7.37044e+06	-49589.1	1005.82	-29758.5	0.000000	0.000000	7.164924	201.515	NaN	0.000000	0.001585	0.001787	28.0807	64.9642	0.001759	36942.7	7.978102	170.785	201.504	1.155711	0.085536	0.085180	201.515	36942.7	0.081445	0.213735	942.828	73006.9
550	2.000000	1.158082	7.37044e+06	-49589.1	1005.82	-29758.5	0.000000	0.000000	7.167644	218.644	NaN	0.000000	0.001590	0.001772	28.0808	67.0639	0.001745	38422.6	7.010302	171.799	220.749	1.157787	0.087551	0.087256	218.644	38422.6	0.083283	0.222281	983.637	74457.6
550	2.000000	1.160004	7.37044e+06	-49589.1	1005.82	-29758.5	0.000000	0.000000	7.170001	229.217	NaN	0.000000	0.001594	0.001807	28.0792	68.7996	0.001763	39015.7	8.782654	170.871	227.128	1.159538	0.089473	0.089007	229.217	39015.7	0.085067	0.230722	993.478	74211
550	2.000000	1.161989	7.37044e+06	-49589.1	1005.82	-29758.5	0.000000	0.000000	7.172444	240.355	NaN	0.000000	0.001588	0.001826	28.0791	72.8513	0.001851	39365.6	9.739179	169.563	240.251	1.161663	0.091458	0.091132	240.355	39365.6	0.086879	0.239446	1003.79	73499.9
550	2.000000	1.164060	7.37044e+06	-49589.1	1005.82	-29758.5	0.000000	0.000000	7.175143	255.649	NaN	0.000000	0.001629	0.001819	28.0793	72.7761	0.001904	38232.3	2.323889	177.15	255.298	1.163719	0.093528	0.093188	255.649	38232.3	0.088513	0.247447	1033.15	70220.3
550	2.000000	1.165912	7.37044e+06	-49589.1	1005.82	-29758.5	0.000000	0.000000	7.177427	266.157	NaN	0.000000	0.001644	0.001771	28.0797	73.7154	0.001754	42020.3	1.834022	176.553	258.847	1.165627	0.095381	0.095096	266.157	42020.3	0.090630	0.257989	1031.66	75584.3
550	2.000000	1.168028	7.37044e+06	-49589.1	1005.82	-29758.5	0.000000	0.000000	7.180130	280.425	NaN	0.000000	0.001578	0.001845	28.0792	77.6034	0.001845	42053	5.465856	172.654	282.61	1.167809	0.097497	0.097277	280.425	42053	0.092496	0.267454	1048.5	74292.6
550	2.000000	1.169977	7.37044e+06	-49589.1	1005.82	-29758.5	0.000000	0.000000	7.182891	300.163	NaN	0.000000	0.001601	0.001839	28.0792	77.8292	0.001765	44090.3	5.850387	172.844	296.954	1.169630	0.099446	0.099098	300.163	44090.3	0.094340	0.276963	1083.77	76543
550	2.000000	1.171993	7.37044e+06	-49589.1	1005.82	-29758.5	0.000000	0.000000	7.185307	309.903	NaN	0.000000	0.001559	0.001846	28.0791	80.1271	0.001811	44255.5	5.897043	172.118	307.166	1.171619	0.101462	0.101088	309.903	44255.5	0.096210	0.286765	1080.68	75505.2
550	2.000000	1.174031	7.37044e+06	-49589.1	1005.82	-29758.5	0.000000	0.000000	7.188150	329.472	NaN	0.000000	0.001625	0.001828	28.0791	81.9709	0.001863	43993.8	5.376873	173.317	329.509	1.173668	0.103500	0.103137	329.472	43993.8	0.097883	0.295669	1114.33	73919.9
550	2.000000	1.175946	7.37044e+06	-49589.1	1005.82	-29758.5	0.000000	0.000000	7.190524	340.645	NaN	0.000000	0.001590	0.001868	28.0792	82.5484	0.001714	48174.4	2.892146	174.366	337.059	1.175694	0.105415	0.105163	340.645	48174.4	0.100111	0.307728	1106.97	79342.6
550	2.000000	1.178038	7.37044e+06	-49589.1	1005.82	-29758.5	0.000000	0.000000	7.193453	360.997	NaN	0.000000	0.001609	0.001857	28.0791	86.3161	0.001756	49146.8	2.218405	175.462	360.71	1.177649	0.107507	0.107118	360.997	49146.8	0.101998	0.318114	1134.8	79611.7
550	2.000000	1.180079	7.37044e+06	-49589.1	1005.82	-29758.5	0.000000	0.000000	7.195874	370.24	NaN	0.000000	0.001625	0.001875	28.0792	87.5433	0.001762	49685.5	4.476866	172.835	375.214	1.179755	0.109548	0.109224	370.24	49685.5	0.103959	0.329081	1125.07	79132
550	2.000000	1.181953	7.37044e+06	-49589.1	1005.82	-29758.5	0.000000	0.000000	7.198581	390.485	NaN	0.000000	0.001655	0.001858	28.0792	90.0675	0.001787	50408.2	3.273969	173.998	387.985	1.181697	0.111422	0.111166	390.485	50408.2	0.105612	0.338461	1153.71	79162.6
550	2.000000	1.184058	7.37044e+06	-49589.1	1005.82	-29758.5	0.000000	0.000000	7.201099	400.542	NaN	0.000000	0.001596	0.001836	28.0794	93.616	0.001954	47899.8	8.038476	170.474	400.41	1.183635	0.113527	0.113104	400.542	47899.8	0.107255	0.347904	1151.3	74195.4
550	2.000000	1.185903	7.37044e+06	-49589.1	1005.82	-29758.5	0.000000	0.000000	7.203345	410.293	NaN	0.000000	0.001620	0.001866	28.0792	93.9781	0.001791	52484.5	3.506775	172.901	402.995	1.185706	0.115372	0.115175	410.293	52484.5	0.109509	0.361058	1136.36	79802.4
550	2.000000	1.187964	7.37044e+06	-49589.1	1005.82	-29758.5	0.000000	0.000000	7.206175	429.011	NaN	0.000000	0.001618	0.001896	28.0794	95.6699	0.001710	55952.9	4.764720	171.21	425.639	1.187618	0.117433	0.117087	429.011	55952.9	0.111682	0.373963	1147.2	83595.2
550	2.000000	1.188391	7.37044e+06	-49589.1	1005.82	-29758.5	0.000000	0.000000	7.206891	436.014	NaN	0.000000	0.001629	0.001887	28.0792	96.2123	0.001808	53214.9	6.706665	-10.4442	429.752	1.188152	0.117860	0.117621	436.014	53214.9	0.111715	0.374162	1165.31	79483.4