File: remote_trans/data/nanoindenter/0828-1/data/Data_2025-08-06,11h17m57s/2025-07-22_16-23-58_1_612.txt
2025-07-22, 16:23:58, 1
Index	Phase	Displacement	Time	Pos X	Pos Y	Pos Z	Rot A	Rot B	Piezo Z	Force A	Force B	Gripper	Voltage A	Voltage B	Temperature	Amplitude force	Amplitude pos	Stiffness	Phase shift	Phase excitation	Force A raw	Displacement raw	HMax	HMax raw	Real Force	Real Stiffness	Contact Depth	Area	Hardness	Reduced Mod.
[#]	[#]	[um]	[s]	[um]	[um]	[um]	[m°]	[m°]	[um]	[uN]	[uN]	[V]	[V]	[V]	[°C]	[uN]	[um]	[N/m]	[°]	[°]	[uN]	[um]	[um]	[um]	[uN]	[N/m]	[um]	[um^2]	[MPa]	[MPa]
612	1.000000	0.001963	7.37104e+06	-46489.1	1005.82	-29768.9	0.000000	0.000000	6.002789	-0.041827	NaN	0.000000	0.001711	0.001622	28.0799	0.043053	0.000953	45.1769	66.5866	-166.403	-0.054772	0.000712	-1.143039	-1.144290	-0.041827	45.1769	-1.142344	-1.854273E+15	2.255718E-17	NaN
612	1.000000	0.012032	7.37104e+06	-46489.1	1005.82	-29768.9	0.000000	0.000000	6.012860	0.007861	NaN	0.000000	0.001641	0.001625	28.0797	0.035611	0.001161	30.6655	-82.1271	17.3302	0.012769	0.010569	-1.132970	-1.134434	0.007861	30.6655	-1.133162	-1.396480E+15	-5.629400E-18	NaN
612	1.000000	0.021919	7.37104e+06	-46489.1	1005.82	-29768.9	0.000000	0.000000	6.022747	0.004299	NaN	0.000000	0.001594	0.001654	28.08	0.142043	0.001734	81.9328	-145.97	-166.412	0.019170	0.020649	-1.123083	-1.124353	0.004299	81.9328	-1.123122	-1.024143E+15	-4.197515E-18	NaN
612	1.000000	0.031936	7.37104e+06	-46489.1	1005.82	-29768.9	0.000000	0.000000	6.032761	-0.063855	NaN	0.000000	0.001627	0.001676	28.0796	0.034943	0.001890	18.4928	-20.7647	15.6799	0.021299	0.030557	-1.113066	-1.114445	-0.063855	18.4928	-1.110476	-6.929132E+14	9.215381E-17	NaN
612	1.000000	0.041923	7.37104e+06	-46489.1	1005.82	-29768.9	0.000000	0.000000	6.042749	-0.046035	NaN	0.000000	0.001639	0.001702	28.0799	0.054057	0.001846	29.2859	-148.294	-164.434	-0.002923	0.040642	-1.103079	-1.104360	-0.046035	29.2859	-1.101900	-5.315904E+14	8.659879E-17	NaN
612	1.000000	0.051951	7.37104e+06	-46489.1	1005.82	-29768.9	0.000000	0.000000	6.052777	-0.048679	NaN	0.000000	0.001631	0.001688	28.0799	0.065385	0.001900	34.4139	-79.561	13.3401	-0.005140	0.050529	-1.093051	-1.094474	-0.048679	34.4139	-1.091990	-3.913206E+14	1.243956E-16	NaN
612	1.000000	0.061918	7.37104e+06	-46489.1	1005.82	-29768.9	0.000000	0.000000	6.062748	0.053084	NaN	0.000000	0.001628	0.001689	28.0801	0.054277	0.001914	28.3591	-166.373	-165.998	0.067292	0.060615	-1.083084	-1.084387	0.053084	28.3591	-1.084488	-3.103062E+14	-1.710710E-16	NaN
612	1.000000	0.071923	7.37104e+06	-46489.1	1005.82	-29768.9	0.000000	0.000000	6.072751	-0.003052	NaN	0.000000	0.001602	0.001661	28.08	0.102749	0.002020	50.8545	-103.306	15.6298	0.081813	0.070543	-1.073079	-1.074459	-0.003052	50.8545	-1.073034	-2.177457E+14	1.401721E-17	NaN
612	1.000000	0.081915	7.37104e+06	-46489.1	1005.82	-29768.9	0.000000	0.000000	6.082742	-0.021978	NaN	0.000000	0.001637	0.001667	28.0802	0.031763	0.001967	16.1455	-54.3667	-164.823	-0.011280	0.080599	-1.063087	-1.064403	-0.021978	16.1455	-1.062066	-1.550919E+14	1.417079E-16	NaN
612	1.000000	0.091968	7.37104e+06	-46489.1	1005.82	-29768.9	0.000000	0.000000	6.092793	-0.066641	NaN	0.000000	0.001645	0.001686	28.0802	0.059556	0.002097	28.3944	-145.052	11.4427	-0.098472	0.090554	-1.053035	-1.054448	-0.066641	28.3944	-1.051274	-1.110567E+14	6.000602E-16	NaN
612	1.000000	0.101948	7.37104e+06	-46489.1	1005.82	-29768.9	0.000000	0.000000	6.102772	-0.089539	NaN	0.000000	0.001619	0.001700	28.0802	0.100400	0.002086	48.1204	-101.864	-167.795	-0.025354	0.100669	-1.043054	-1.044334	-0.089539	48.1204	-1.041658	-8.246466E+13	1.085785E-15	NaN
612	1.000000	0.111953	7.37104e+06	-46489.1	1005.82	-29768.9	0.000000	0.000000	6.112779	-0.058565	NaN	0.000000	0.001661	0.001669	28.0799	0.075958	0.002111	35.9833	108.131	12.0536	-0.089117	0.110594	-1.033049	-1.034408	-0.058565	35.9833	-1.031828	-6.082305E+13	9.628750E-16	NaN
612	1.000000	0.121950	7.37104e+06	-46489.1	1005.82	-29768.9	0.000000	0.000000	6.122777	-0.012053	NaN	0.000000	0.001614	0.001664	28.0801	0.044223	0.001914	23.1068	-179.399	-163.61	0.017172	0.120669	-1.023053	-1.024333	-0.012053	23.1068	-1.022661	-4.578872E+13	2.632344E-16	NaN
612	1.000000	0.131962	7.37104e+06	-46489.1	1005.82	-29768.9	0.000000	0.000000	6.132788	-0.054317	NaN	0.000000	0.001633	0.001685	28.0799	0.065382	0.002021	32.344	41.8765	8.346795	-0.002728	0.130586	-1.013040	-1.014416	-0.054317	32.344	-1.011781	-3.268485E+13	1.661853E-15	NaN
612	1.000000	0.141953	7.37104e+06	-46489.1	1005.82	-29768.9	0.000000	0.000000	6.142781	-0.011192	NaN	0.000000	0.001586	0.001669	28.0812	0.050550	0.002047	24.6997	-147.483	-169.884	-0.036510	0.140661	-1.003049	-1.004341	-0.011192	24.6997	-1.002709	-2.467406E+13	4.536110E-16	NaN
612	1.000000	0.151947	7.37104e+06	-46489.1	1005.82	-29768.9	0.000000	0.000000	6.152772	-0.070261	NaN	0.000000	0.001611	0.001636	28.0811	0.064105	0.001966	32.6097	-169.428	12.1218	-0.078815	0.150590	-0.993055	-0.994413	-0.070261	32.6097	-0.991439	-1.739770E+13	4.038508E-15	NaN
612	1.000000	0.161963	7.37104e+06	-46489.1	1005.82	-29768.9	0.000000	0.000000	6.162790	-0.021859	NaN	0.000000	0.001614	0.001603	28.0814	0.029955	0.002010	14.9021	103.905	-166.725	-0.001747	0.160657	-0.983039	-0.984346	-0.021859	14.9021	-0.981939	-1.295781E+13	1.686907E-15	NaN
612	1.000000	0.171971	7.37104e+06	-46489.1	1005.82	-29768.9	0.000000	0.000000	6.172796	-0.061001	NaN	0.000000	0.001637	0.001608	28.081	0.069776	0.002004	34.8101	128.103	13.0278	-0.081719	0.170609	-0.973032	-0.974393	-0.061001	34.8101	-0.971717	-9.436410E+12	6.464465E-15	NaN
612	1.000000	0.181983	7.37104e+06	-46489.1	1005.82	-29768.9	0.000000	0.000000	6.182812	0.029390	NaN	0.000000	0.001675	0.001583	28.0813	0.189096	0.002026	93.3577	-142.437	-167.176	0.079434	0.180634	-0.963019	-0.964368	0.029390	93.3577	-0.963256	-7.257013E+12	-4.049912E-15	NaN
612	1.000000	0.191958	7.37104e+06	-46489.1	1005.82	-29768.9	0.000000	0.000000	6.192782	-0.077357	NaN	0.000000	0.001666	0.001597	28.081	0.110776	0.002023	54.7559	61.2405	10.7199	-0.048724	0.190576	-0.953044	-0.954426	-0.077357	54.7559	-0.951985	-5.114419E+12	1.512521E-14	NaN
612	1.000000	0.201983	7.37104e+06	-46489.1	1005.82	-29768.9	0.000000	0.000000	6.202808	-0.069777	NaN	0.000000	0.001661	0.001604	28.0812	0.044087	0.002094	21.0533	-82.1658	-166.155	-0.095554	0.200690	-0.943019	-0.944312	-0.069777	21.0533	-0.940533	-3.583714E+12	1.947051E-14	NaN
612	1.000000	0.211991	7.37104e+06	-46489.1	1005.82	-29768.9	0.000000	0.000000	6.212817	-0.032436	NaN	0.000000	0.001651	0.001596	28.0809	0.069318	0.002056	33.7084	43.5957	15.4975	-0.008809	0.210581	-0.933011	-0.934421	-0.032436	33.7084	-0.932290	-2.773940E+12	1.169327E-14	NaN
612	1.000000	0.222008	7.37104e+06	-46489.1	1005.82	-29768.9	0.000000	0.000000	6.222835	-0.027699	NaN	0.000000	0.001618	0.001612	28.0809	0.065006	0.001903	34.1534	-117.429	-165.616	-0.076146	0.220669	-0.922994	-0.924333	-0.027699	34.1534	-0.922386	-2.038999E+12	1.358461E-14	NaN
612	1.000000	0.231996	7.37104e+06	-46489.1	1005.82	-29768.9	0.000000	0.000000	6.232823	-0.006783	NaN	0.000000	0.001687	0.001578	28.0809	0.073001	0.002085	35.0133	27.4592	13.3044	-0.042657	0.230634	-0.913006	-0.914369	-0.006783	35.0133	-0.912861	-1.516370E+12	4.473281E-15	NaN
612	1.000000	0.242012	7.37104e+06	-46489.1	1005.82	-29768.9	0.000000	0.000000	6.242840	0.016827	NaN	0.000000	0.001695	0.001631	28.0809	0.055240	0.001934	28.5672	151.707	-164.379	0.087488	0.240689	-0.902990	-0.904313	0.016827	28.5672	-0.903432	-1.130940E+12	-1.487838E-14	NaN
612	1.000000	0.252059	7.37104e+06	-46489.1	1005.82	-29768.9	0.000000	0.000000	6.252889	0.047126	NaN	0.000000	0.001683	0.001590	28.0808	0.055713	0.001877	29.6864	-32.367	11.0455	0.052945	0.250586	-0.892943	-0.894417	0.047126	29.6864	-0.894134	-8.468116E+11	-5.565088E-14	NaN
612	1.000000	0.262027	7.37104e+06	-46489.1	1005.82	-29768.9	0.000000	0.000000	6.262855	0.005597	NaN	0.000000	0.001646	0.001618	28.0808	0.036299	0.001954	18.5743	-159.855	-164.277	-0.074198	0.260707	-0.882975	-0.884296	0.005597	18.5743	-0.883201	-6.025486E+11	-9.289308E-15	NaN
612	1.000000	0.271990	7.37104e+06	-46489.1	1005.82	-29768.9	0.000000	0.000000	6.272818	0.001268	NaN	0.000000	0.001711	0.001612	28.0797	0.147843	0.001916	77.1515	31.905	16.6558	-0.095689	0.270648	-0.873012	-0.874354	0.001268	77.1515	-0.873024	-4.388934E+11	-2.888375E-15	NaN
612	1.000000	0.281987	7.37104e+06	-46489.1	1005.82	-29768.9	0.000000	0.000000	6.282816	0.011010	NaN	0.000000	0.001652	0.001622	28.0797	0.032916	0.001971	16.6964	-66.4326	-162.643	-0.104889	0.280689	-0.863015	-0.864313	0.011010	16.6964	-0.863509	-3.262998E+11	-3.374309E-14	NaN
612	1.000000	0.292015	7.37104e+06	-46489.1	1005.82	-29768.9	0.000000	0.000000	6.292840	-0.064717	NaN	0.000000	0.001627	0.001599	28.0797	0.121491	0.002026	59.9551	51.3213	12.7179	0.005896	0.290656	-0.852987	-0.854346	-0.064717	59.9551	-0.852177	-2.292041E+11	2.823568E-13	NaN
612	1.000000	0.302045	7.37104e+06	-46489.1	1005.82	-29768.9	0.000000	0.000000	6.302870	-0.074583	NaN	0.000000	0.001625	0.001598	28.0798	0.122179	0.001972	61.9721	115.645	-164.48	-0.073530	0.300716	-0.842957	-0.844286	-0.074583	61.9721	-0.842055	-1.671577E+11	4.461835E-13	NaN
612	1.000000	0.312013	7.37104e+06	-46489.1	1005.82	-29768.9	0.000000	0.000000	6.312842	0.017802	NaN	0.000000	0.001651	0.001626	28.0795	0.055899	0.002006	27.8714	13.6396	13.7277	-0.020999	0.310638	-0.832989	-0.834364	0.017802	27.8714	-0.833468	-1.278749E+11	-1.392128E-13	NaN
612	1.000000	0.322036	7.37104e+06	-46489.1	1005.82	-29768.9	0.000000	0.000000	6.322865	0.027924	NaN	0.000000	0.001651	0.001593	28.0798	0.085668	0.001933	44.3247	-39.3792	-164.956	-0.023486	0.320740	-0.822966	-0.824262	0.027924	44.3247	-0.823439	-9.350564E+10	-2.986394E-13	NaN
612	1.000000	0.332065	7.37104e+06	-46489.1	1005.82	-29768.9	0.000000	0.000000	6.332892	-0.036298	NaN	0.000000	0.001641	0.001627	28.0795	0.068123	0.001894	35.9706	-107.218	11.9729	-0.019179	0.330655	-0.812937	-0.814347	-0.036298	35.9706	-0.812180	-6.578795E+10	5.517441E-13	NaN
612	1.000000	0.342061	7.37104e+06	-46489.1	1005.82	-29768.9	0.000000	0.000000	6.342892	0.072726	NaN	0.000000	0.001659	0.001655	28.0797	0.034600	0.001884	18.3607	-146.023	-167.405	0.042092	0.340720	-0.802941	-0.804282	0.072726	18.3607	-0.805911	-5.408715E+10	-1.344599E-12	NaN
612	1.000000	0.352055	7.37104e+06	-46489.1	1005.82	-29768.9	0.000000	0.000000	6.352884	0.025079	NaN	0.000000	0.001629	0.001657	28.0796	0.051177	0.001829	27.9797	-5.464850	11.3807	-0.076114	0.350664	-0.792947	-0.794338	0.025079	27.9797	-0.793620	-3.683318E+10	-6.808941E-13	NaN
612	1.000000	0.362087	7.37104e+06	-46489.1	1005.82	-29768.9	0.000000	0.000000	6.362915	0.019348	NaN	0.000000	0.001614	0.001649	28.0796	0.069564	0.002025	34.3525	74.4088	-165.95	-0.016705	0.360702	-0.782916	-0.784300	0.019348	34.3525	-0.783338	-2.670468E+10	-7.245315E-13	NaN
612	1.000000	0.372032	7.37104e+06	-46489.1	1005.82	-29768.9	0.000000	0.000000	6.372861	0.033542	NaN	0.000000	0.001628	0.001659	28.0798	0.062183	0.002019	30.8005	-154.677	16.5043	0.072667	0.370665	-0.772971	-0.774337	0.033542	30.8005	-0.773787	-1.980593E+10	-1.693544E-12	NaN
612	1.000000	0.382050	7.37104e+06	-46489.1	1005.82	-29768.9	0.000000	0.000000	6.382876	-0.037704	NaN	0.000000	0.001634	0.001649	28.0797	0.073805	0.002146	34.3864	-82.8833	-163.871	0.037358	0.380771	-0.762952	-0.764231	-0.037704	34.3864	-0.762130	-1.374908E+10	2.742320E-12	NaN
612	1.000000	0.392075	7.37104e+06	-46489.1	1005.82	-29768.9	0.000000	0.000000	6.392904	0.014136	NaN	0.000000	0.001617	0.001668	28.0798	0.007203	0.002005	3.591999	4.733822	14.1824	0.062626	0.390727	-0.752927	-0.754275	0.014136	3.591999	-0.755878	-1.130372E+10	-1.250525E-12	NaN
612	1.000000	0.402041	7.37104e+06	-46489.1	1005.82	-29768.9	0.000000	0.000000	6.402869	-5.787565E-5	NaN	0.000000	0.001599	0.001661	28.0795	0.013123	0.001981	6.625970	-25.5705	-165.745	-0.010697	0.400739	-0.742961	-0.744263	-5.787565E-5	6.625970	-0.742954	-7.538660E+9	7.677180E-15	NaN
612	1.000000	0.412075	7.37104e+06	-46489.1	1005.82	-29768.9	0.000000	0.000000	6.412898	-0.097358	NaN	0.000000	0.001604	0.001650	28.0811	0.084208	0.002030	41.4714	-178.379	15.9627	0.011163	0.410754	-0.732928	-0.734248	-0.097358	41.4714	-0.731167	-5.208495E+9	1.869223E-11	NaN
612	1.000000	0.422095	7.37104e+06	-46489.1	1005.82	-29768.9	0.000000	0.000000	6.422920	-0.070880	NaN	0.000000	0.001590	0.001645	28.0808	0.070065	0.001875	37.3743	-79.0695	-165.941	0.000988	0.420771	-0.722907	-0.724231	-0.070880	37.3743	-0.721485	-3.843449E+9	1.844180E-11	NaN
612	1.000000	0.432090	7.37104e+06	-46489.1	1005.82	-29768.9	0.000000	0.000000	6.432917	-0.016494	NaN	0.000000	0.001627	0.001677	28.0808	0.032984	0.002031	16.2372	-175.707	14.9323	0.015877	0.430727	-0.712913	-0.714275	-0.016494	16.2372	-0.712151	-2.866801E+9	5.753600E-12	NaN
612	1.000000	0.442084	7.37104e+06	-46489.1	1005.82	-29768.9	0.000000	0.000000	6.442908	-0.087854	NaN	0.000000	0.001612	0.001658	28.0809	0.033997	0.001925	17.658	53.7491	-166.679	-0.120138	0.440790	-0.702918	-0.704212	-0.087854	17.658	-0.699187	-1.907333E+9	4.606138E-11	NaN
612	1.000000	0.452081	7.37104e+06	-46489.1	1005.82	-29768.9	0.000000	0.000000	6.452909	0.006206	NaN	0.000000	0.001600	0.001627	28.081	0.025766	0.001895	13.5993	-3.979851	14.6518	0.013055	0.450738	-0.692921	-0.694264	0.006206	13.5993	-0.693263	-1.583092E+9	-3.920247E-12	NaN
612	1.000000	0.462077	7.37104e+06	-46489.1	1005.82	-29768.9	0.000000	0.000000	6.462908	0.068447	NaN	0.000000	0.001564	0.001668	28.0809	0.037150	0.001914	19.4106	-69.6397	-166.858	0.107877	0.460760	-0.682925	-0.684243	0.068447	19.4106	-0.685570	-1.242690E+9	-5.507951E-11	NaN
612	1.000000	0.472071	7.37104e+06	-46489.1	1005.82	-29768.9	0.000000	0.000000	6.472900	0.038685	NaN	0.000000	0.001562	0.001617	28.0808	0.032142	0.001950	16.4858	-22.057	11.8301	0.008369	0.470716	-0.672932	-0.674286	0.038685	16.4858	-0.674691	-8.822457E+8	-4.384803E-11	NaN
612	1.000000	0.482087	7.37104e+06	-46489.1	1005.82	-29768.9	0.000000	0.000000	6.482914	-0.011122	NaN	0.000000	0.001574	0.001623	28.0809	0.008797	0.001967	4.471974	-127.001	-164.665	0.020986	0.480808	-0.662916	-0.664195	-0.011122	4.471974	-0.661050	-5.739241E+8	1.937905E-11	NaN
612	1.000000	0.492096	7.37104e+06	-46489.1	1005.82	-29768.9	0.000000	0.000000	6.492921	-0.045516	NaN	0.000000	0.001553	0.001630	28.0808	0.094956	0.002036	46.6412	-92.1639	13.0502	0.010796	0.490738	-0.652907	-0.654264	-0.045516	46.6412	-0.652175	-4.337567E+8	1.049334E-10	NaN
612	1.000000	0.502128	7.37104e+06	-46489.1	1005.82	-29768.9	0.000000	0.000000	6.502954	-0.039234	NaN	0.000000	0.001554	0.001654	28.0809	0.066672	0.002163	30.8291	103.798	-166.339	0.002564	0.500788	-0.642874	-0.644215	-0.039234	30.8291	-0.641920	-3.137803E+8	1.250375E-10	NaN
612	1.000000	0.512106	7.37104e+06	-46489.1	1005.82	-29768.9	0.000000	0.000000	6.512932	-0.028074	NaN	0.000000	0.001570	0.001647	28.081	0.077769	0.002029	38.3263	4.800338	17.6345	-0.024216	0.510788	-0.632896	-0.634215	-0.028074	38.3263	-0.632347	-2.318728E+8	1.210731E-10	NaN
612	1.000000	0.522139	7.37104e+06	-46489.1	1005.82	-29768.9	0.000000	0.000000	6.522964	-0.045625	NaN	0.000000	0.001555	0.001633	28.081	0.029415	0.002030	14.4924	95.6703	-167.461	-0.071266	0.520833	-0.622864	-0.624169	-0.045625	14.4924	-0.620502	-1.594190E+8	2.861979E-10	NaN
612	1.000000	0.532114	7.37104e+06	-46489.1	1005.82	-29768.9	0.000000	0.000000	6.532941	-0.008934	NaN	0.000000	0.001559	0.001670	28.0808	0.085632	0.002010	42.5959	35.5301	12.6304	-0.023951	0.530836	-0.612889	-0.614166	-0.008934	42.5959	-0.612731	-1.246489E+8	7.167200E-11	NaN
612	1.000000	0.542155	7.37104e+06	-46489.1	1005.82	-29768.9	0.000000	0.000000	6.542983	0.009464	NaN	0.000000	0.001520	0.001649	28.0806	0.052274	0.001999	26.1531	79.7262	-167.334	0.053177	0.540765	-0.602848	-0.604237	0.009464	26.1531	-0.603119	-9.191984E+7	-1.029643E-10	NaN
612	1.000000	0.552126	7.37104e+06	-46489.1	1005.82	-29768.9	0.000000	0.000000	6.552952	-0.059214	NaN	0.000000	0.001519	0.001624	28.0796	0.113220	0.002020	56.0448	178.155	12.932	-0.103010	0.550785	-0.592876	-0.594218	-0.059214	56.0448	-0.592083	-6.477167E+7	9.141954E-10	NaN
612	1.000000	0.562131	7.37104e+06	-46489.1	1005.82	-29768.9	0.000000	0.000000	6.562956	-0.055049	NaN	0.000000	0.001599	0.001659	28.0796	0.072026	0.002012	35.804	71.1002	-167.277	0.020439	0.560806	-0.582871	-0.584197	-0.055049	35.804	-0.581718	-4.660540E+7	1.181172E-9	NaN
612	1.000000	0.572166	7.37104e+06	-46489.1	1005.82	-29768.9	0.000000	0.000000	6.572992	-0.054880	NaN	0.000000	0.001636	0.001662	28.0797	0.086730	0.002096	41.3878	179.466	14.7067	-0.107807	0.570776	-0.572836	-0.574227	-0.054880	41.3878	-0.571842	-3.404662E+7	1.611897E-9	NaN
612	1.000000	0.582131	7.37104e+06	-46489.1	1005.82	-29768.9	0.000000	0.000000	6.582959	0.008778	NaN	0.000000	0.001593	0.001633	28.0798	0.019624	0.002123	9.241850	-170.042	-166.543	-0.004122	0.580835	-0.562871	-0.564168	0.008778	9.241850	-0.563584	-2.617828E+7	-3.353058E-10	NaN
612	1.000000	0.592130	7.37104e+06	-46489.1	1005.82	-29768.9	0.000000	0.000000	6.592958	0.014726	NaN	0.000000	0.001568	0.001635	28.0799	0.035875	0.002071	17.3245	-48.2621	12.3067	0.017397	0.590790	-0.552873	-0.554212	0.014726	17.3245	-0.553510	-1.899170E+7	-7.754003E-10	NaN
612	1.000000	0.602157	7.37104e+06	-46489.1	1005.82	-29768.9	0.000000	0.000000	6.602986	0.037800	NaN	0.000000	0.001551	0.001642	28.0798	0.127810	0.002023	63.1722	179.444	-169.451	0.001789	0.600841	-0.542846	-0.544161	0.037800	63.1722	-0.543294	-1.371001E+7	-2.757109E-9	NaN
612	1.000000	0.612144	7.37104e+06	-46489.1	1005.82	-29768.9	0.000000	0.000000	6.612973	0.027532	NaN	0.000000	0.001542	0.001681	28.0795	0.023625	0.002008	11.7652	86.6797	19.0635	0.040281	0.610813	-0.532858	-0.534189	0.027532	11.7652	-0.534613	-1.039011E+7	-2.649870E-9	NaN
612	1.000000	0.622169	7.37104e+06	-46489.1	1005.82	-29768.9	0.000000	0.000000	6.623000	0.068410	NaN	0.000000	0.001544	0.001685	28.0798	0.075914	0.001989	38.1582	109.816	-167.824	0.007052	0.620871	-0.522833	-0.524131	0.068410	38.1582	-0.524178	-7.44189e+06	-9.192497E-9	NaN
612	1.000000	0.632184	7.37104e+06	-46489.1	1005.82	-29768.9	0.000000	0.000000	6.633012	0.015280	NaN	0.000000	0.001524	0.001694	28.0795	0.066957	0.002051	32.64	81.3582	13.8095	0.014576	0.630821	-0.512818	-0.514182	0.015280	32.64	-0.513169	-5.23056e+06	-2.921330E-9	NaN
612	1.000000	0.642176	7.37104e+06	-46489.1	1005.82	-29768.9	0.000000	0.000000	6.643006	0.056045	NaN	0.000000	0.001579	0.001685	28.0796	0.072919	0.002008	36.3109	125.74	-169.561	0.062564	0.640870	-0.502827	-0.504132	0.056045	36.3109	-0.503984	-3.89567e+06	-1.438640E-8	NaN
612	1.000000	0.652193	7.37104e+06	-46489.1	1005.82	-29768.9	0.000000	0.000000	6.653022	0.051116	NaN	0.000000	0.001607	0.001706	28.0794	0.100374	0.001943	51.6674	43.4524	9.976074	-0.000368	0.650822	-0.492810	-0.494180	0.051116	51.6674	-0.493552	-2.78618e+06	-1.834630E-8	NaN
612	1.000000	0.662176	7.37104e+06	-46489.1	1005.82	-29768.9	0.000000	0.000000	6.663004	0.006565	NaN	0.000000	0.001558	0.001695	28.0797	0.071490	0.002055	34.7811	-99.6207	-168.816	-0.010931	0.660869	-0.482827	-0.484133	0.006565	34.7811	-0.482968	-1.98184e+06	-3.312458E-9	NaN
612	1.000000	0.672205	7.37104e+06	-46489.1	1005.82	-29768.9	0.000000	0.000000	6.673033	0.008764	NaN	0.000000	0.001589	0.001630	28.0796	0.052996	0.002071	25.5914	70.693	11.7279	-0.037946	0.670825	-0.472797	-0.474177	0.008764	25.5914	-0.473054	-1.43953e+06	-6.088229E-9	NaN
612	1.000000	0.682224	7.37104e+06	-46489.1	1005.82	-29768.9	0.000000	0.000000	6.683054	0.052383	NaN	0.000000	0.001600	0.001616	28.0808	0.066609	0.002077	32.0673	12.8407	-169.894	0.045875	0.680906	-0.462778	-0.464097	0.052383	32.0673	-0.464003	-1.07462e+06	-4.874524E-8	NaN
612	1.000000	0.692200	7.37104e+06	-46489.1	1005.82	-29768.9	0.000000	0.000000	6.693027	-0.030914	NaN	0.000000	0.001559	0.001636	28.0808	0.033934	0.002123	15.9821	151.762	12.6656	-0.033373	0.690899	-0.452802	-0.454103	-0.030914	15.9821	-0.451351	-713453	4.332970E-8	NaN
612	1.000000	0.702188	7.37104e+06	-46489.1	1005.82	-29768.9	0.000000	0.000000	6.703016	0.006318	NaN	0.000000	0.001554	0.001634	28.0811	0.026402	0.001929	13.6893	13.9064	-162.782	0.048870	0.700839	-0.442814	-0.444164	0.006318	13.6893	-0.443160	-546956	-1.155092E-8	NaN
612	1.000000	0.712208	7.37104e+06	-46489.1	1005.82	-29768.9	0.000000	0.000000	6.713036	0.000695	NaN	0.000000	0.001596	0.001634	28.0807	0.066704	0.002077	32.1186	-112.288	15.8151	0.050373	0.710800	-0.432794	-0.434202	0.000695	32.1186	-0.432810	-390665	-1.779954E-9	NaN
612	1.000000	0.722214	7.37104e+06	-46489.1	1005.82	-29768.9	0.000000	0.000000	6.723043	0.030933	NaN	0.000000	0.001575	0.001662	28.0809	0.100246	0.002006	49.9828	-154.601	-165.737	0.078164	0.720886	-0.422788	-0.424116	0.030933	49.9828	-0.423252	-286099	-1.081195E-7	NaN
612	1.000000	0.732214	7.37104e+06	-46489.1	1005.82	-29768.9	0.000000	0.000000	6.733038	-0.085961	NaN	0.000000	0.001619	0.001651	28.0808	0.059877	0.001976	30.3019	-177.58	15.1476	0.005624	0.730883	-0.412788	-0.414119	-0.085961	30.3019	-0.410660	-189579	4.534284E-7	NaN
612	1.000000	0.742249	7.37104e+06	-46489.1	1005.82	-29768.9	0.000000	0.000000	6.743074	-0.047429	NaN	0.000000	0.001604	0.001691	28.0812	0.074015	0.002093	35.3632	-29.8409	-166.296	-0.046719	0.740928	-0.402753	-0.404074	-0.047429	35.3632	-0.401748	-141550	3.350683E-7	NaN
612	1.000000	0.752215	7.37104e+06	-46489.1	1005.82	-29768.9	0.000000	0.000000	6.753042	0.000141	NaN	0.000000	0.001558	0.001671	28.0808	0.069862	0.002005	34.8429	-7.881073	14.7594	0.009792	0.750932	-0.392788	-0.394071	0.000141	34.8429	-0.392791	-105455	-1.338933E-9	NaN
612	1.000000	0.762212	7.37104e+06	-46489.1	1005.82	-29768.9	0.000000	0.000000	6.763039	-0.028047	NaN	0.000000	0.001545	0.001634	28.0808	0.031894	0.001919	16.6186	-98.3825	-166.428	-0.041655	0.760882	-0.382790	-0.384120	-0.028047	16.6186	-0.381524	-72737.3	3.855921E-7	NaN
612	1.000000	0.772219	7.37104e+06	-46489.1	1005.82	-29768.9	0.000000	0.000000	6.773046	-0.014474	NaN	0.000000	0.001539	0.001621	28.0808	0.029666	0.002035	14.576	27.991	13.2567	-0.028805	0.770898	-0.372783	-0.374104	-0.014474	14.576	-0.372038	-53145.8	2.723385E-7	NaN
612	1.000000	0.782270	7.37104e+06	-46489.1	1005.82	-29768.9	0.000000	0.000000	6.783099	0.015269	NaN	0.000000	0.001532	0.001663	28.0808	0.051494	0.002058	25.0242	-178.343	-165.224	0.054326	0.780946	-0.362732	-0.364057	0.015269	25.0242	-0.363189	-39620.6	-3.853741E-7	NaN
612	1.000000	0.792206	7.37104e+06	-46489.1	1005.82	-29768.9	0.000000	0.000000	6.793031	-0.050863	NaN	0.000000	0.001566	0.001670	28.0807	0.068953	0.001982	34.7935	129.667	12.356	0.001812	0.790835	-0.352797	-0.354168	-0.050863	34.7935	-0.351700	-27019.1	1.882472E-6	NaN
612	1.000000	0.802236	7.37104e+06	-46489.1	1005.82	-29768.9	0.000000	0.000000	6.803065	0.038591	NaN	0.000000	0.001546	0.001678	28.081	0.020597	0.002101	9.801129	-5.624699	-165.256	-0.013647	0.800939	-0.342766	-0.344063	0.038591	9.801129	-0.345719	-22121.8	-1.744489E-6	NaN
612	1.000000	0.812251	7.37104e+06	-46489.1	1005.82	-29768.9	0.000000	0.000000	6.813079	0.019576	NaN	0.000000	0.001562	0.001679	28.0811	0.029502	0.002032	14.5162	7.389708	13.1371	0.038752	0.810884	-0.332751	-0.334118	0.019576	14.5162	-0.333763	-14808.3	-1.321952E-6	NaN
612	1.000000	0.822245	7.37104e+06	-46489.1	1005.82	-29768.9	0.000000	0.000000	6.823074	0.041482	NaN	0.000000	0.001540	0.001705	28.0798	0.073385	0.001879	39.0619	161.213	-164.806	0.106227	0.820928	-0.322757	-0.324074	0.041482	39.0619	-0.323554	-10493	-3.953341E-6	NaN
612	1.000000	0.832222	7.37104e+06	-46489.1	1005.82	-29768.9	0.000000	0.000000	6.833049	-0.004246	NaN	0.000000	0.001527	0.001714	28.0797	0.073610	0.002071	35.5406	72.9552	13.6962	0.032788	0.830884	-0.312780	-0.314118	-0.004246	35.5406	-0.312691	-7258.52	5.850304E-7	NaN
612	1.000000	0.842256	7.37104e+06	-46489.1	1005.82	-29768.9	0.000000	0.000000	6.843084	-0.005741	NaN	0.000000	0.001531	0.001740	28.0798	0.038549	0.001933	19.9476	-111.913	-168.759	-0.042450	0.840916	-0.302746	-0.304086	-0.005741	19.9476	-0.302530	-5131.81	1.118781E-6	NaN
612	1.000000	0.852275	7.37104e+06	-46489.1	1005.82	-29768.9	0.000000	0.000000	6.853103	5.232218E-5	NaN	0.000000	0.001517	0.001701	28.0799	0.044135	0.002051	21.5141	177.482	11.9219	0.031211	0.850895	-0.292727	-0.294107	5.232218E-5	21.5141	-0.292729	-3665.62	-1.427377E-8	NaN
612	1.000000	0.862261	7.37104e+06	-46489.1	1005.82	-29768.9	0.000000	0.000000	6.863087	-0.044826	NaN	0.000000	0.001497	0.001671	28.0797	0.059872	0.002087	28.6935	34.3249	-167.313	0.020494	0.860941	-0.282741	-0.284061	-0.044826	28.6935	-0.281569	-2492.46	1.798480E-5	NaN
612	1.000000	0.872278	7.37104e+06	-46489.1	1005.82	-29768.9	0.000000	0.000000	6.873104	-0.052170	NaN	0.000000	0.001515	0.001674	28.0798	0.075274	0.001909	39.4358	26.7502	16.6597	0.053018	0.870919	-0.272724	-0.274083	-0.052170	39.4358	-0.271732	-1769.51	2.948290E-5	NaN
612	1.000000	0.882259	7.37104e+06	-46489.1	1005.82	-29768.9	0.000000	0.000000	6.883089	0.049443	NaN	0.000000	0.001524	0.001725	28.0799	0.050918	0.002093	24.3263	-7.008496	-168.032	0.041888	0.880942	-0.262743	-0.264060	0.049443	24.3263	-0.264268	-1362.09	-3.629921E-5	NaN
612	1.000000	0.892268	7.37104e+06	-46489.1	1005.82	-29768.9	0.000000	0.000000	6.893094	-0.030460	NaN	0.000000	0.001533	0.001690	28.08	0.086631	0.002155	40.2023	74.7156	13.7535	-0.056574	0.890935	-0.252734	-0.254067	-0.030460	40.2023	-0.252166	-888.044	3.430053E-5	NaN
612	1.000000	0.902266	7.37104e+06	-46489.1	1005.82	-29768.9	0.000000	0.000000	6.903095	0.021391	NaN	0.000000	0.001523	0.001703	28.0796	0.023157	0.002073	11.1701	-82.3314	-166.999	-0.003489	0.900951	-0.242736	-0.244051	0.021391	11.1701	-0.244172	-667.707	-3.203688E-5	NaN
612	1.000000	0.912298	7.37104e+06	-46489.1	1005.82	-29768.9	0.000000	0.000000	6.913124	-0.033064	NaN	0.000000	0.001503	0.001708	28.0798	0.121627	0.001927	63.1128	7.536147	14.1243	-0.023477	0.910950	-0.232704	-0.234052	-0.033064	63.1128	-0.232311	-435.477	7.592616E-5	NaN
612	1.000000	0.922286	7.37104e+06	-46489.1	1005.82	-29768.9	0.000000	0.000000	6.923113	-0.028275	NaN	0.000000	0.001493	0.001695	28.0796	0.074132	0.002095	35.3838	-178.968	-166.773	0.099163	0.921016	-0.222716	-0.223986	-0.028275	35.3838	-0.222117	-300.233	9.417779E-5	NaN
612	1.000000	0.932292	7.37104e+06	-46489.1	1005.82	-29768.9	0.000000	0.000000	6.933119	-0.019956	NaN	0.000000	0.001556	0.001717	28.0798	0.052505	0.002087	25.1613	37.475	12.3609	-0.070750	0.930944	-0.212710	-0.214058	-0.019956	25.1613	-0.212116	-207.505	9.617188E-5	NaN
612	1.000000	0.942287	7.37104e+06	-46489.1	1005.82	-29768.9	0.000000	0.000000	6.943116	0.022216	NaN	0.000000	0.001587	0.001725	28.0796	0.019542	0.002013	9.707229	110.457	-167.327	0.013099	0.940989	-0.202715	-0.204013	0.022216	9.707229	-0.204432	-155.698	-0.000143	NaN
612	1.000000	0.952271	7.37104e+06	-46489.1	1005.82	-29768.9	0.000000	0.000000	6.953100	0.023111	NaN	0.000000	0.001560	0.001717	28.0801	0.074508	0.001905	39.1035	-75.628	15.9496	0.046430	0.950949	-0.192731	-0.194053	0.023111	39.1035	-0.193174	-101.604	-0.000227	NaN
612	1.000000	0.962286	7.37104e+06	-46489.1	1005.82	-29768.9	0.000000	0.000000	6.963110	-0.085886	NaN	0.000000	0.001569	0.001696	28.0811	0.106600	0.002102	50.7137	-127.801	-170.168	-0.110354	0.960952	-0.182716	-0.184050	-0.085886	50.7137	-0.181446	-64.5708	0.001330	NaN
612	1.000000	0.972318	7.37104e+06	-46489.1	1005.82	-29768.9	0.000000	0.000000	6.973142	-0.082113	NaN	0.000000	0.001571	0.001747	28.0805	0.041628	0.002122	19.6195	-14.4726	13.1228	-0.086768	0.970911	-0.172684	-0.174091	-0.082113	19.6195	-0.169545	-40.3376	0.002036	NaN
612	1.000000	0.982313	7.37104e+06	-46489.1	1005.82	-29768.9	0.000000	0.000000	6.983139	-0.044138	NaN	0.000000	0.001583	0.001716	28.0826	0.056671	0.002127	26.6427	110.769	-168.247	0.013904	0.981014	-0.162689	-0.163989	-0.044138	26.6427	-0.161447	-29.0835	0.001518	NaN
612	1.000000	0.992326	7.37104e+06	-46489.1	1005.82	-29768.9	0.000000	0.000000	6.993152	-0.061376	NaN	0.000000	0.001555	0.001735	28.0842	0.134156	0.001941	69.124	-83.738	14.9091	-0.041377	0.990938	-0.152676	-0.154065	-0.061376	69.124	-0.152010	-19.7042	0.003115	NaN
612	1.000000	1.002324	7.37104e+06	-46489.1	1005.82	-29768.9	0.000000	0.000000	7.003151	-0.010482	NaN	0.000000	0.001565	0.001737	28.0814	0.080693	0.001819	44.3492	88.4464	-166.102	0.046428	1.001054	-0.142678	-0.143948	-0.010482	44.3492	-0.142501	-13.1754	0.000796	NaN
612	1.000000	1.012321	7.37104e+06	-46489.1	1005.82	-29768.9	0.000000	0.000000	7.013144	-0.119463	NaN	0.000000	0.001592	0.001725	28.0815	0.157878	0.001994	79.1882	105.046	14.9423	-0.075889	1.010978	-0.132681	-0.134024	-0.119463	79.1882	-0.131549	-8.166258	0.014629	NaN
612	1.000000	1.022313	7.37104e+06	-46489.1	1005.82	-29768.9	0.000000	0.000000	7.023142	0.028778	NaN	0.000000	0.001579	0.001698	28.0808	0.019855	0.001994	9.956728	-142.975	-162.056	-0.017914	1.021006	-0.122689	-0.123996	0.028778	9.956728	-0.124857	-6.041652	-0.004763	NaN
612	1.000000	1.032316	7.37104e+06	-46489.1	1005.82	-29768.9	0.000000	0.000000	7.033142	-0.044425	NaN	0.000000	0.001545	0.001708	28.0809	0.126889	0.001914	66.2817	133.733	12.2915	-0.016373	1.031081	-0.112686	-0.113921	-0.044425	66.2817	-0.112184	-3.339507	0.013303	NaN
612	1.000000	1.042327	7.37104e+06	-46489.1	1005.82	-29768.9	0.000000	0.000000	7.043152	-0.056041	NaN	0.000000	0.001576	0.001732	28.0807	0.045390	0.002063	22.0014	-29.7448	-166.913	-0.010124	1.040981	-0.102675	-0.104021	-0.056041	22.0014	-0.100765	-1.899753	0.029499	NaN
612	1.000000	1.052350	7.37104e+06	-46489.1	1005.82	-29768.9	0.000000	0.000000	7.053177	-0.025620	NaN	0.000000	0.001588	0.001711	28.0809	0.092557	0.002134	43.3637	-93.6692	15.4963	-0.054997	1.051008	-0.092652	-0.093994	-0.025620	43.3637	-0.092209	-1.217031	0.021051	NaN
612	1.000000	1.062357	7.37104e+06	-46489.1	1005.82	-29768.9	0.000000	0.000000	7.063184	-0.011206	NaN	0.000000	0.001563	0.001712	28.0809	0.172431	0.002018	85.4308	98.9733	-167.694	-0.139584	1.061044	-0.082646	-0.083958	-0.011206	85.4308	-0.082547	-0.715892	0.015653	NaN
612	1.000000	1.072343	7.37104e+06	-46489.1	1005.82	-29768.9	0.000000	0.000000	7.073174	0.064262	NaN	0.000000	0.001573	0.001713	28.0808	0.088150	0.002048	43.0318	-101.63	12.8483	0.040838	1.070983	-0.072659	-0.074020	0.064262	43.0318	-0.073779	-0.429336	-0.149678	NaN
612	1.000000	1.082325	7.37104e+06	-46489.1	1005.82	-29768.9	0.000000	0.000000	7.083152	-0.034728	NaN	0.000000	0.001578	0.001679	28.0811	0.059056	0.001958	30.1601	41.5873	-169.411	-0.020172	1.080988	-0.062677	-0.064015	-0.034728	30.1601	-0.061813	-0.202863	0.171188	NaN
612	1.000000	1.092344	7.37104e+06	-46489.1	1005.82	-29768.9	0.000000	0.000000	7.093169	-0.064623	NaN	0.000000	0.001578	0.001720	28.0796	0.085482	0.002014	42.4522	133.899	11.9377	-0.028829	1.090993	-0.052658	-0.054009	-0.064623	42.4522	-0.051516	-0.101382	0.637424	NaN
612	1.000000	1.102354	7.37104e+06	-46489.1	1005.82	-29768.9	0.000000	0.000000	7.103181	-0.014856	NaN	0.000000	0.001528	0.001721	28.0798	0.144270	0.001927	74.861	-19.1295	-168.406	-0.026959	1.100978	-0.042648	-0.044024	-0.014856	74.861	-0.042499	-0.053892	0.275652	NaN
612	1.000000	1.112368	7.37104e+06	-46489.1	1005.82	-29768.9	0.000000	0.000000	7.113197	0.033539	NaN	0.000000	0.001583	0.001685	28.0796	0.049999	0.002090	23.9199	-111.916	16.0298	0.007540	1.110996	-0.032635	-0.034006	0.033539	23.9199	-0.033686	-0.029310	-1.144259	NaN
612	1.000000	1.122318	7.37104e+06	-46489.1	1005.82	-29768.9	0.000000	0.000000	7.123145	-0.026604	NaN	0.000000	0.001536	0.001700	28.0801	0.079111	0.001924	41.1138	-10.7798	-164.086	-0.071453	1.121057	-0.022684	-0.023945	-0.026604	41.1138	-0.022199	-0.014287	1.862192	NaN
612	1.000000	1.132366	7.37104e+06	-46489.1	1005.82	-29768.9	0.000000	0.000000	7.133195	0.015983	NaN	0.000000	0.001565	0.001759	28.0797	0.073894	0.001951	37.8822	-69.4665	12.5769	0.061125	1.131010	-0.012636	-0.013992	0.015983	37.8822	-0.012952	-0.008075	-1.979431	NaN
612	1.000000	1.142364	7.37104e+06	-46489.1	1005.82	-29768.9	0.000000	0.000000	7.143194	0.070232	NaN	0.000000	0.001540	0.001700	28.0798	0.297375	0.002012	147.785	5.000111	-165.733	-0.043323	1.141081	-0.002638	-0.003921	0.070232	147.785	-0.002995	-0.002117	-33.1736	NaN
612	2.000000	1.152074	7.37104e+06	-46489.1	1005.82	-29768.9	0.000000	0.000000	7.153247	8.392976	NaN	0.000000	0.001560	0.001676	28.0799	8.435358	0.001880	4487.73	11.2766	7.631113	6.919717	1.150954	0.007072	0.005952	8.392976	4487.73	0.005669	0.004753	1765.98	59475.2
612	2.000000	1.154944	7.37104e+06	-46489.1	1005.82	-29768.9	0.000000	0.000000	7.156202	10.4561	NaN	0.000000	0.001534	0.001679	28.0803	10.8527	0.001756	6180.06	7.124806	-172.713	10.0274	1.154657	0.009942	0.009655	10.4561	6180.06	0.008673	0.007744	1350.24	64163.2
612	2.000000	1.157443	7.37104e+06	-46489.1	1005.82	-29768.9	0.000000	0.000000	7.158818	13.3188	NaN	0.000000	0.001550	0.001709	28.0797	13.0096	0.001842	7064.56	7.628934	7.189416	12.7535	1.157097	0.012441	0.012095	13.3188	7064.56	0.011027	0.010345	1287.48	63459.4
612	2.000000	1.159919	7.37104e+06	-46489.1	1005.82	-29768.9	0.000000	0.000000	7.161458	17.3082	NaN	0.000000	0.001537	0.001680	28.0797	15.3976	0.001682	9155.6	6.716860	-176.374	17.0722	1.159603	0.014917	0.014601	17.3082	9155.6	0.013499	0.013336	1297.88	72435.5
612	2.000000	1.162369	7.37104e+06	-46489.1	1005.82	-29768.9	0.000000	0.000000	7.164067	21.1591	NaN	0.000000	0.001571	0.001696	28.0798	18.7334	0.001927	9719.64	8.628551	4.259413	20.1673	1.162010	0.017367	0.017007	21.1591	9719.64	0.015734	0.016277	1299.93	69604.1
612	2.000000	1.164846	7.37104e+06	-46489.1	1005.82	-29768.9	0.000000	0.000000	7.166709	25.1837	NaN	0.000000	0.001560	0.001682	28.0796	21.1452	0.001789	11820.5	6.624635	-179.034	22.9721	1.164575	0.019844	0.019573	25.1837	11820.5	0.018246	0.019860	1268.04	76633
612	2.000000	1.167407	7.37104e+06	-46489.1	1005.82	-29768.9	0.000000	0.000000	7.169537	31.6707	NaN	0.000000	0.001551	0.001722	28.0797	23.6438	0.001774	13325.7	6.101899	1.409263	30.4198	1.167054	0.022405	0.022052	31.6707	13325.7	0.020622	0.023530	1345.99	79369.7
612	2.000000	1.169847	7.37104e+06	-46489.1	1005.82	-29768.9	0.000000	0.000000	7.172249	38.2818	NaN	0.000000	0.001526	0.001718	28.0796	26.0661	0.001813	14380.4	5.300673	-178.451	36.2032	1.169504	0.024845	0.024502	38.2818	14380.4	0.022849	0.027218	1406.51	79637.7
612	2.000000	1.172336	7.37104e+06	-46489.1	1005.82	-29768.9	0.000000	0.000000	7.174963	43.7828	NaN	0.000000	0.001516	0.001696	28.0812	27.7071	0.001808	15328.9	2.194500	4.099545	41.684	1.172068	0.027334	0.027066	43.7828	15328.9	0.025192	0.031365	1395.91	79078.9
612	2.000000	1.174870	7.37104e+06	-46489.1	1005.82	-29768.9	0.000000	0.000000	7.177730	49.4388	NaN	0.000000	0.001602	0.001670	28.081	31.168	0.001699	18347.9	6.467954	176.822	47.7625	1.174570	0.029868	0.029568	49.4388	18347.9	0.027847	0.036399	1358.23	87864.2
612	2.000000	1.177333	7.37104e+06	-46489.1	1005.82	-29768.9	0.000000	0.000000	7.180479	56.3914	NaN	0.000000	0.001544	0.001747	28.0808	32.4569	0.001666	19485.4	6.004625	-2.227132	53.9307	1.177044	0.032331	0.032042	56.3914	19485.4	0.030161	0.041077	1372.82	87838.2
612	2.000000	1.179847	7.37104e+06	-46489.1	1005.82	-29768.9	0.000000	0.000000	7.183463	67.8243	NaN	0.000000	0.001569	0.001724	28.0809	34.4291	0.001722	19990.7	1.808803	-178.607	66.2237	1.179525	0.034845	0.034523	67.8243	19990.7	0.032300	0.045646	1485.87	85486.7
612	2.000000	1.182390	7.37104e+06	-46489.1	1005.82	-29768.9	0.000000	0.000000	7.186103	70.1692	NaN	0.000000	0.001541	0.001725	28.081	38.6999	0.001819	21276.4	8.565642	-4.575802	70.9938	1.181991	0.037388	0.036989	70.1692	21276.4	0.034915	0.051548	1361.25	85618.6
612	2.000000	1.184803	7.37104e+06	-46489.1	1005.82	-29768.9	0.000000	0.000000	7.188784	76.7015	NaN	0.000000	0.001552	0.001696	28.0809	41.0952	0.001837	22370.1	3.196756	179.174	74.3915	1.184582	0.039801	0.039580	76.7015	22370.1	0.037230	0.057065	1344.11	85557.4
612	2.000000	1.187448	7.37104e+06	-46489.1	1005.82	-29768.9	0.000000	0.000000	7.191987	90.2658	NaN	0.000000	0.001517	0.001670	28.0808	43.2986	0.001889	22927.5	6.316055	-2.851904	93.4242	1.186941	0.042446	0.041939	90.2658	22927.5	0.039493	0.062726	1439.05	83638.6
612	2.000000	1.189846	7.37104e+06	-46489.1	1005.82	-29768.9	0.000000	0.000000	7.194911	103.066	NaN	0.000000	0.001598	0.001658	28.0811	45.0502	0.001706	26401.2	5.151523	175.76	102.218	1.189471	0.044844	0.044468	103.066	26401.2	0.041916	0.069075	1492.1	91777.8
612	2.000000	1.192295	7.37104e+06	-46489.1	1005.82	-29768.9	0.000000	0.000000	7.197711	111.615	NaN	0.000000	0.001550	0.001693	28.081	47.1532	0.001662	28364.9	2.947870	-3.178748	107.835	1.191977	0.047293	0.046975	111.615	28364.9	0.044341	0.075729	1473.89	94172.6
612	2.000000	1.194858	7.37104e+06	-46489.1	1005.82	-29768.9	0.000000	0.000000	7.200570	118.819	NaN	0.000000	0.001563	0.001656	28.081	50.8602	0.001874	27138.2	3.663368	177.73	119.407	1.194534	0.049856	0.049532	118.819	27138.2	0.046572	0.082113	1447.02	86526.4
612	2.000000	1.197327	7.37104e+06	-46489.1	1005.82	-29768.9	0.000000	0.000000	7.203444	128.651	NaN	0.000000	0.001542	0.001689	28.0808	52.3685	0.001737	30145.6	4.705501	-4.844806	125.328	1.196970	0.052325	0.051968	128.651	30145.6	0.049124	0.089725	1433.83	91947.4
612	2.000000	1.199835	7.37104e+06	-46489.1	1005.82	-29768.9	0.000000	0.000000	7.206412	139.847	NaN	0.000000	0.001545	0.001718	28.0812	54.2159	0.001707	31752.9	3.167521	176.775	139.968	1.199453	0.054833	0.054450	139.847	31752.9	0.051530	0.097201	1438.74	93050.9
612	2.000000	1.202310	7.37104e+06	-46489.1	1005.82	-29768.9	0.000000	0.000000	7.209447	153.475	NaN	0.000000	0.001555	0.001698	28.0809	57.1021	0.001706	33469.1	2.184021	-3.384101	151.37	1.201949	0.057308	0.056947	153.475	33469.1	0.053869	0.104746	1465.22	94482.1
612	2.000000	1.204763	7.37104e+06	-46489.1	1005.82	-29768.9	0.000000	0.000000	7.212277	162.638	NaN	0.000000	0.001565	0.001672	28.0806	62.3283	0.001945	32038.3	6.801637	173.299	160.784	1.204464	0.059761	0.059462	162.638	32038.3	0.055954	0.111701	1456.02	87581.8
612	2.000000	1.207289	7.37104e+06	-46489.1	1005.82	-29768.9	0.000000	0.000000	7.215330	175.455	NaN	0.000000	0.001581	0.001702	28.0795	63.3868	0.001807	35069.9	7.242559	-8.587859	171.088	1.206973	0.062287	0.061971	175.455	35069.9	0.058535	0.120606	1454.78	92262
612	2.000000	1.209769	7.37104e+06	-46489.1	1005.82	-29768.9	0.000000	0.000000	7.218484	191.864	NaN	0.000000	0.001576	0.001685	28.0797	65.0851	0.001848	35213	5.098613	173.423	189.199	1.209479	0.064767	0.064476	191.864	35213	0.060680	0.128259	1495.9	89832.1
612	2.000000	1.212336	7.37104e+06	-46489.1	1005.82	-29768.9	0.000000	0.000000	7.221241	196.469	NaN	0.000000	0.001571	0.001708	28.0796	67.6344	0.001701	39753.9	2.105253	-4.834912	195.809	1.212097	0.067334	0.067094	196.469	39753.9	0.063627	0.139136	1412.07	97372
612	2.000000	1.214727	7.37104e+06	-46489.1	1005.82	-29768.9	0.000000	0.000000	7.224519	218.074	NaN	0.000000	0.001539	0.001745	28.0797	71.3628	0.001790	39869.8	5.922755	171.527	214.104	1.214492	0.069724	0.069490	218.074	39869.8	0.065622	0.146737	1486.16	95092.6
612	2.000000	1.217280	7.37104e+06	-46489.1	1005.82	-29768.9	0.000000	0.000000	7.227803	235.829	NaN	0.000000	0.001547	0.001685	28.0795	72.9457	0.001844	39547.8	3.547228	-5.342206	231.738	1.216832	0.072278	0.071829	235.829	39547.8	0.067806	0.155276	1518.77	91694.5
612	2.000000	1.219813	7.37104e+06	-46489.1	1005.82	-29768.9	0.000000	0.000000	7.230944	250.616	NaN	0.000000	0.001518	0.001682	28.08	74.5269	0.001692	44039.4	2.330936	174.736	250.045	1.219539	0.074811	0.074537	250.616	44039.4	0.070543	0.166305	1506.97	98664.9
612	2.000000	1.222265	7.37104e+06	-46489.1	1005.82	-29768.9	0.000000	0.000000	7.233956	264.24	NaN	0.000000	0.001562	0.001678	28.0795	78.8395	0.001794	43941.1	7.831152	-11.3261	259.778	1.221810	0.077263	0.076808	264.24	43941.1	0.072753	0.175466	1505.93	95840.1
612	2.000000	1.224782	7.37104e+06	-46489.1	1005.82	-29768.9	0.000000	0.000000	7.237303	284.448	NaN	0.000000	0.001574	0.001669	28.0796	81.667	0.001808	45165.4	5.800199	170.36	283.061	1.224486	0.079780	0.079484	284.448	45165.4	0.075056	0.185262	1535.38	95870.5
612	2.000000	1.227249	7.37104e+06	-46489.1	1005.82	-29768.9	0.000000	0.000000	7.240620	305.108	NaN	0.000000	0.001569	0.001715	28.0797	82.1094	0.001755	46783.3	3.196920	-6.659989	300.794	1.226981	0.082247	0.081978	305.108	46783.3	0.077356	0.195291	1562.32	96721.5
612	2.000000	1.229762	7.37104e+06	-46489.1	1005.82	-29768.9	0.000000	0.000000	7.243324	309.762	NaN	0.000000	0.001535	0.001687	28.0799	83.9213	0.001877	44717.8	1.640770	174.621	307.327	1.229560	0.084760	0.084558	309.762	44717.8	0.079565	0.205158	1509.87	90200.7
612	2.000000	1.232272	7.37104e+06	-46489.1	1005.82	-29768.9	0.000000	0.000000	7.246732	331.616	NaN	0.000000	0.001573	0.001685	28.0796	87.3494	0.001834	47620.7	4.150193	-8.014301	329.705	1.231932	0.087270	0.086930	331.616	47620.7	0.082047	0.216515	1531.6	93502.7
612	2.000000	1.234695	7.37104e+06	-46489.1	1005.82	-29768.9	0.000000	0.000000	7.249741	345.846	NaN	0.000000	0.001554	0.001690	28.0797	89.4866	0.001817	49247.8	4.290280	171.401	341.478	1.234466	0.089693	0.089464	345.846	49247.8	0.084426	0.227671	1519.06	94298.7
612	2.000000	1.237335	7.37104e+06	-46489.1	1005.82	-29768.9	0.000000	0.000000	7.253478	372.559	NaN	0.000000	0.001600	0.001706	28.0797	90.4734	0.001818	49770.7	5.043736	-8.364055	372.158	1.236866	0.092333	0.091864	372.559	49770.7	0.086718	0.238667	1560.99	93078.8
612	2.000000	1.239759	7.37104e+06	-46489.1	1005.82	-29768.9	0.000000	0.000000	7.256322	382.762	NaN	0.000000	0.001534	0.001723	28.081	92.4996	0.001745	53003.5	3.875747	171.342	379.872	1.239570	0.094757	0.094568	382.762	53003.5	0.089341	0.251543	1521.65	96554.3
612	2.000000	1.242229	7.37104e+06	-46489.1	1005.82	-29768.9	0.000000	0.000000	7.259704	404.931	NaN	0.000000	0.001531	0.001681	28.0808	96.0782	0.001754	54789.1	7.678395	-12.1895	400.771	1.241929	0.097227	0.096926	404.931	54789.1	0.091684	0.263315	1537.82	97550.5
612	2.000000	1.244774	7.37104e+06	-46489.1	1005.82	-29768.9	0.000000	0.000000	7.262991	422.991	NaN	0.000000	0.001531	0.001668	28.0811	98.0747	0.001772	55355.9	3.436505	171.982	422.472	1.244521	0.099772	0.099519	422.991	55355.9	0.094041	0.275411	1535.85	96370.9
612	2.000000	1.247239	7.37105e+06	-46489.1	1005.82	-29768.9	0.000000	0.000000	7.266303	443.594	NaN	0.000000	0.001544	0.001687	28.0811	98.9546	0.001886	52477.3	3.760257	-7.421665	439.38	1.246907	0.102237	0.101905	443.594	52477.3	0.095897	0.285112	1555.86	89791.9
612	2.000000	1.249814	7.37105e+06	-46489.1	1005.82	-29768.9	0.000000	0.000000	7.269472	458.056	NaN	0.000000	0.001537	0.001692	28.0811	100.595	0.001777	56618.2	2.464933	172.775	459.177	1.249564	0.104812	0.104562	458.056	56618.2	0.098744	0.300301	1525.32	94395.3
612	2.000000	1.250749	7.37105e+06	-46489.1	1005.82	-29768.9	0.000000	0.000000	7.270962	471.544	NaN	0.000000	0.001543	0.001669	28.0813	103.049	0.001742	59150.9	7.722879	167.583	468.765	1.250315	0.105747	0.105313	471.544	59150.9	0.099768	0.305853	1541.73	97718.7