File: remote_trans/data/nanoindenter/0828-1/data/Data_2025-08-06,11h17m57s/2025-07-22_16-23-58_1_1043.txt
2025-07-22, 16:23:58, 1
Index	Phase	Displacement	Time	Pos X	Pos Y	Pos Z	Rot A	Rot B	Piezo Z	Force A	Force B	Gripper	Voltage A	Voltage B	Temperature	Amplitude force	Amplitude pos	Stiffness	Phase shift	Phase excitation	Force A raw	Displacement raw	HMax	HMax raw	Real Force	Real Stiffness	Contact Depth	Area	Hardness	Reduced Mod.
[#]	[#]	[um]	[s]	[um]	[um]	[um]	[m°]	[m°]	[um]	[uN]	[uN]	[V]	[V]	[V]	[°C]	[uN]	[um]	[N/m]	[°]	[°]	[uN]	[um]	[um]	[um]	[uN]	[N/m]	[um]	[um^2]	[MPa]	[MPa]
1043	1.000000	0.002774	7.37525e+06	-52289.1	1055.82	-29749.5	0.000000	0.000000	6.002820	-0.015528	NaN	0.000000	0.001713	0.001737	28.0833	0.153699	0.000944	162.741	-125.577	-162.877	0.026637	0.001505	-1.146249	-1.147518	-0.015528	162.741	-1.146178	-2.087253E+15	7.439422E-18	NaN
1043	1.000000	0.012784	7.37525e+06	-52289.1	1055.82	-29749.5	0.000000	0.000000	6.012828	-0.084162	NaN	0.000000	0.001716	0.001670	28.0829	0.051332	0.001267	40.5146	-140.277	13.0394	-0.075101	0.011387	-1.136239	-1.137637	-0.084162	40.5146	-1.134681	-1.463550E+15	5.750566E-17	NaN
1043	1.000000	0.022686	7.37525e+06	-52289.1	1055.82	-29749.5	0.000000	0.000000	6.022733	-0.005616	NaN	0.000000	0.001711	0.001696	28.0824	0.010655	0.001600	6.659534	113.959	-160.843	-0.023036	0.021463	-1.126337	-1.127560	-0.005616	6.659534	-1.125705	-1.109193E+15	5.063117E-18	NaN
1043	1.000000	0.032692	7.37525e+06	-52289.1	1055.82	-29749.5	0.000000	0.000000	6.032739	0.001846	NaN	0.000000	0.001734	0.001675	28.082	0.082137	0.001967	41.7658	34.2263	15.4089	0.080153	0.031332	-1.116331	-1.117691	0.001846	41.7658	-1.116364	-8.311738E+14	-2.220543E-18	NaN
1043	1.000000	0.042713	7.37525e+06	-52289.1	1055.82	-29749.5	0.000000	0.000000	6.042757	-0.071237	NaN	0.000000	0.001710	0.001701	28.0822	0.077025	0.001910	40.3194	132.024	-167.684	-0.115295	0.041380	-1.106310	-1.107643	-0.071237	40.3194	-1.104985	-5.847704E+14	1.218200E-16	NaN
1043	1.000000	0.052707	7.37525e+06	-52289.1	1055.82	-29749.5	0.000000	0.000000	6.052753	-0.025125	NaN	0.000000	0.001707	0.001659	28.0819	0.065519	0.001935	33.8637	170.964	15.1916	0.011304	0.051324	-1.096316	-1.097699	-0.025125	33.8637	-1.095760	-4.396909E+14	5.714265E-17	NaN
1043	1.000000	0.062691	7.37525e+06	-52289.1	1055.82	-29749.5	0.000000	0.000000	6.062734	-0.083790	NaN	0.000000	0.001563	0.001673	28.0822	0.127723	0.001989	64.2189	-174.982	-166.421	-0.040499	0.061379	-1.086332	-1.087645	-0.083790	64.2189	-1.085354	-3.187273E+14	2.628891E-16	NaN
1043	1.000000	0.072708	7.37525e+06	-52289.1	1055.82	-29749.5	0.000000	0.000000	6.072754	-0.037088	NaN	0.000000	0.001659	0.001687	28.0817	0.063489	0.001944	32.6621	-177.926	15.3229	-0.006686	0.071331	-1.076315	-1.077692	-0.037088	32.6621	-1.075463	-2.347372E+14	1.579967E-16	NaN
1043	1.000000	0.082719	7.37525e+06	-52289.1	1055.82	-29749.5	0.000000	0.000000	6.082765	-0.006990	NaN	0.000000	0.001671	0.001697	28.082	0.035715	0.001995	17.903	32.5364	-166.863	-0.017608	0.081410	-1.066305	-1.067613	-0.006990	17.903	-1.066012	-1.752280E+14	3.989241E-17	NaN
1043	1.000000	0.092710	7.37525e+06	-52289.1	1055.82	-29749.5	0.000000	0.000000	6.092759	0.036686	NaN	0.000000	0.001673	0.001682	28.0815	0.072589	0.001939	37.4412	-136.843	12.4135	0.014312	0.091368	-1.056313	-1.057655	0.036686	37.4412	-1.057048	-1.327841E+14	-2.762867E-16	NaN
1043	1.000000	0.102727	7.37525e+06	-52289.1	1055.82	-29749.5	0.000000	0.000000	6.102773	-0.021200	NaN	0.000000	0.001651	0.001710	28.0819	0.093368	0.001780	52.4604	-178.049	-163.244	-0.007077	0.101436	-1.046296	-1.047587	-0.021200	52.4604	-1.045993	-9.430729E+13	2.248013E-16	NaN
1043	1.000000	0.112722	7.37525e+06	-52289.1	1055.82	-29749.5	0.000000	0.000000	6.112771	0.057310	NaN	0.000000	0.001648	0.001683	28.0817	0.124495	0.001922	64.7885	-73.7563	14.5831	0.014127	0.111352	-1.036301	-1.037671	0.057310	64.7885	-1.036965	-7.131021E+13	-8.036685E-16	NaN
1043	1.000000	0.122732	7.37525e+06	-52289.1	1055.82	-29749.5	0.000000	0.000000	6.122778	-0.013559	NaN	0.000000	0.001599	0.001656	28.0822	0.098332	0.002014	48.8231	-121.653	-162.717	-0.013016	0.121455	-1.026291	-1.027569	-0.013559	48.8231	-1.026083	-5.090832E+13	2.663345E-16	NaN
1043	1.000000	0.132707	7.37525e+06	-52289.1	1055.82	-29749.5	0.000000	0.000000	6.132753	-0.037813	NaN	0.000000	0.001643	0.001678	28.0818	0.038756	0.002101	18.4478	167.692	21.2131	-0.066792	0.131389	-1.016316	-1.017634	-0.037813	18.4478	-1.014779	-3.586675E+13	1.054273E-15	NaN
1043	1.000000	0.142726	7.37525e+06	-52289.1	1055.82	-29749.5	0.000000	0.000000	6.142772	-0.022663	NaN	0.000000	0.001656	0.001677	28.0819	0.011754	0.002042	5.756189	-112.637	-163.67	-0.008288	0.141395	-1.006297	-1.007628	-0.022663	5.756189	-1.003344	-2.516454E+13	9.005787E-16	NaN
1043	1.000000	0.152746	7.37525e+06	-52289.1	1055.82	-29749.5	0.000000	0.000000	6.152791	-0.048240	NaN	0.000000	0.001700	0.001656	28.0821	0.062087	0.001967	31.5714	-165.05	12.6358	-0.027087	0.151383	-0.996278	-0.997640	-0.048240	31.5714	-0.995132	-1.950826E+13	2.472785E-15	NaN
1043	1.000000	0.162740	7.37525e+06	-52289.1	1055.82	-29749.5	0.000000	0.000000	6.162786	-0.045947	NaN	0.000000	0.001706	0.001685	28.0833	0.083982	0.002050	40.9722	150.466	-164.834	-0.064964	0.161388	-0.986283	-0.987635	-0.045947	40.9722	-0.985442	-1.444494E+13	3.180835E-15	NaN
1043	1.000000	0.172756	7.37525e+06	-52289.1	1055.82	-29749.5	0.000000	0.000000	6.172801	-0.029808	NaN	0.000000	0.001717	0.001712	28.0832	0.054238	0.002002	27.0865	128.742	16.6698	-0.018191	0.171351	-0.976268	-0.977673	-0.029808	27.0865	-0.975442	-1.059255E+13	2.814007E-15	NaN
1043	1.000000	0.182736	7.37525e+06	-52289.1	1055.82	-29749.5	0.000000	0.000000	6.182781	-0.047584	NaN	0.000000	0.001677	0.001659	28.0832	0.058181	0.002159	26.9505	50.2463	-162.846	-0.094552	0.181448	-0.966287	-0.967575	-0.047584	26.9505	-0.964963	-7.651940E+12	6.218535E-15	NaN
1043	1.000000	0.192738	7.37525e+06	-52289.1	1055.82	-29749.5	0.000000	0.000000	6.192783	-0.039378	NaN	0.000000	0.001675	0.001663	28.0833	0.049248	0.001948	25.2819	-133.542	13.0931	-0.055376	0.191387	-0.956285	-0.957636	-0.039378	25.2819	-0.955117	-5.636814E+12	6.985868E-15	NaN
1043	1.000000	0.202779	7.37525e+06	-52289.1	1055.82	-29749.5	0.000000	0.000000	6.202829	0.088006	NaN	0.000000	0.001683	0.001645	28.0832	0.108091	0.002008	53.8376	-43.3212	-164.061	0.091501	0.201444	-0.946245	-0.947580	0.088006	53.8376	-0.947471	-4.445410E+12	-1.979710E-14	NaN
1043	1.000000	0.212747	7.37525e+06	-52289.1	1055.82	-29749.5	0.000000	0.000000	6.212791	-0.076610	NaN	0.000000	0.001700	0.001628	28.0832	0.052323	0.002036	25.6934	-9.739932	12.4782	-0.157062	0.211403	-0.936276	-0.937620	-0.076610	25.6934	-0.934039	-2.928947E+12	2.615619E-14	NaN
1043	1.000000	0.222804	7.37525e+06	-52289.1	1055.82	-29749.5	0.000000	0.000000	6.222848	-0.064861	NaN	0.000000	0.001675	0.001605	28.0831	0.012637	0.001971	6.411369	-60.617	-163.865	0.000482	0.221492	-0.926219	-0.927531	-0.064861	6.411369	-0.918632	-1.814403E+12	3.574795E-14	NaN
1043	1.000000	0.232775	7.37525e+06	-52289.1	1055.82	-29749.5	0.000000	0.000000	6.232823	0.021158	NaN	0.000000	0.001661	0.001661	28.0833	0.047787	0.002139	22.3441	-104.789	16.1767	-0.040537	0.231450	-0.916248	-0.917573	0.021158	22.3441	-0.916958	-1.722402E+12	-1.228390E-14	NaN
1043	1.000000	0.242780	7.37525e+06	-52289.1	1055.82	-29749.5	0.000000	0.000000	6.242825	-0.051107	NaN	0.000000	0.001666	0.001653	28.0834	0.064550	0.001896	34.0386	134.826	-162.742	-0.042595	0.241491	-0.906243	-0.907532	-0.051107	34.0386	-0.905117	-1.191788E+12	4.288251E-14	NaN
1043	1.000000	0.252809	7.37525e+06	-52289.1	1055.82	-29749.5	0.000000	0.000000	6.252852	-0.098948	NaN	0.000000	0.001667	0.001651	28.0834	0.134239	0.002061	65.1233	140.968	17.4825	-0.097743	0.251436	-0.896214	-0.897587	-0.098948	65.1233	-0.895075	-8.719859E+11	1.134743E-13	NaN
1043	1.000000	0.262773	7.37525e+06	-52289.1	1055.82	-29749.5	0.000000	0.000000	6.262817	-0.059768	NaN	0.000000	0.001605	0.001646	28.0835	0.042759	0.002088	20.4754	-157.02	-165.708	0.025468	0.261474	-0.886250	-0.887549	-0.059768	20.4754	-0.884061	-6.189041E+11	9.657105E-14	NaN
1043	1.000000	0.272783	7.37525e+06	-52289.1	1055.82	-29749.5	0.000000	0.000000	6.272828	-0.034060	NaN	0.000000	0.001585	0.001649	28.0834	0.133458	0.002122	62.8781	-72.3995	14.9428	-0.081552	0.271402	-0.876240	-0.877621	-0.034060	62.8781	-0.875834	-4.790331E+11	7.110091E-14	NaN
1043	1.000000	0.282796	7.37525e+06	-52289.1	1055.82	-29749.5	0.000000	0.000000	6.282844	0.017497	NaN	0.000000	0.001619	0.001706	28.0833	0.047810	0.001934	24.7189	-163.074	-165.542	-0.022288	0.281486	-0.866227	-0.867537	0.017497	24.7189	-0.866758	-3.610565E+11	-4.845940E-14	NaN
1043	1.000000	0.292815	7.37525e+06	-52289.1	1055.82	-29749.5	0.000000	0.000000	6.292860	-0.030611	NaN	0.000000	0.001603	0.001655	28.0833	0.051275	0.002035	25.1934	-110.596	15.2963	-0.035244	0.291458	-0.856209	-0.857565	-0.030611	25.1934	-0.855297	-2.526163E+11	1.211752E-13	NaN
1043	1.000000	0.302805	7.37525e+06	-52289.1	1055.82	-29749.5	0.000000	0.000000	6.302848	-0.098310	NaN	0.000000	0.001623	0.001754	28.0821	0.083136	0.002022	41.1145	159.869	-163.158	-0.144679	0.301560	-0.846218	-0.847463	-0.098310	41.1145	-0.844424	-1.799815E+11	5.462205E-13	NaN
1043	1.000000	0.312826	7.37525e+06	-52289.1	1055.82	-29749.5	0.000000	0.000000	6.312868	-0.113294	NaN	0.000000	0.001588	0.001667	28.082	0.074857	0.001983	37.7573	-35.1207	12.9805	-0.077655	0.311456	-0.836197	-0.837567	-0.113294	37.7573	-0.833947	-1.297991E+11	8.728446E-13	NaN
1043	1.000000	0.322813	7.37525e+06	-52289.1	1055.82	-29749.5	0.000000	0.000000	6.322858	-0.047345	NaN	0.000000	0.001590	0.001667	28.082	0.092474	0.001910	48.4188	-67.3852	-165.313	0.007197	0.321512	-0.826210	-0.827511	-0.047345	48.4188	-0.825476	-9.964710E+10	4.751234E-13	NaN
1043	1.000000	0.332839	7.37525e+06	-52289.1	1055.82	-29749.5	0.000000	0.000000	6.332885	-0.013750	NaN	0.000000	0.001568	0.001690	28.082	0.090150	0.001946	46.3278	158.803	13.9261	0.024098	0.331457	-0.816184	-0.817566	-0.013750	46.3278	-0.815962	-7.403586E+10	1.857152E-13	NaN
1043	1.000000	0.342791	7.37525e+06	-52289.1	1055.82	-29749.5	0.000000	0.000000	6.342837	-0.035424	NaN	0.000000	0.001590	0.001647	28.0821	0.067836	0.001860	36.4709	127.411	-164.348	-0.068107	0.341538	-0.806232	-0.807485	-0.035424	36.4709	-0.805503	-5.340166E+10	6.633447E-13	NaN
1043	1.000000	0.352840	7.37525e+06	-52289.1	1055.82	-29749.5	0.000000	0.000000	6.352885	-0.027313	NaN	0.000000	0.001566	0.001650	28.0819	0.028897	0.002014	14.3476	-54.1573	12.0081	-0.061289	0.351449	-0.796184	-0.797574	-0.027313	14.3476	-0.794756	-3.816510E+10	7.156503E-13	NaN
1043	1.000000	0.362856	7.37525e+06	-52289.1	1055.82	-29749.5	0.000000	0.000000	6.362901	-0.048649	NaN	0.000000	0.001549	0.001665	28.0824	0.010939	0.001998	5.474318	6.855488	-165.566	-0.024770	0.361512	-0.786167	-0.787511	-0.048649	5.474318	-0.779502	-2.368478E+10	2.054025E-12	NaN
1043	1.000000	0.372834	7.37525e+06	-52289.1	1055.82	-29749.5	0.000000	0.000000	6.372882	0.032329	NaN	0.000000	0.001583	0.001676	28.0823	0.041736	0.002066	20.2016	-160.43	15.5791	-0.045984	0.371491	-0.776189	-0.777532	0.032329	20.2016	-0.777389	-2.216944E+10	-1.458269E-12	NaN
1043	1.000000	0.382857	7.37525e+06	-52289.1	1055.82	-29749.5	0.000000	0.000000	6.382906	0.042017	NaN	0.000000	0.001586	0.001631	28.0819	0.081844	0.001986	41.2178	-90.3325	-164.987	0.079336	0.381471	-0.766166	-0.767552	0.042017	41.2178	-0.766931	-1.597983E+10	-2.629397E-12	NaN
1043	1.000000	0.392831	7.37525e+06	-52289.1	1055.82	-29749.5	0.000000	0.000000	6.392878	0.004400	NaN	0.000000	0.001596	0.001652	28.0821	0.088911	0.002069	42.9818	41.5659	12.9096	0.020543	0.391528	-0.756192	-0.757495	0.004400	42.9818	-0.756269	-1.144298E+10	-3.845109E-13	NaN
1043	1.000000	0.402825	7.37525e+06	-52289.1	1055.82	-29749.5	0.000000	0.000000	6.402872	-0.006650	NaN	0.000000	0.001598	0.001617	28.0819	0.053820	0.001901	28.316	-116.819	-167.525	-0.045427	0.401504	-0.746198	-0.747519	-0.006650	28.316	-0.746022	-8.299620E+9	8.011893E-13	NaN
1043	1.000000	0.412835	7.37525e+06	-52289.1	1055.82	-29749.5	0.000000	0.000000	6.412882	-0.007950	NaN	0.000000	0.001627	0.001645	28.0821	0.098564	0.001955	50.4119	135.875	15.6306	0.012559	0.411511	-0.736188	-0.737512	-0.007950	50.4119	-0.736070	-6.074588E+9	1.308746E-12	NaN
1043	1.000000	0.422873	7.37525e+06	-52289.1	1055.82	-29749.5	0.000000	0.000000	6.422921	0.039560	NaN	0.000000	0.001562	0.001673	28.0818	0.071364	0.001942	36.7421	163.418	-165.287	-0.012884	0.421590	-0.726150	-0.727433	0.039560	36.7421	-0.726958	-4.563973E+9	-8.667854E-12	NaN
1043	1.000000	0.432874	7.37525e+06	-52289.1	1055.82	-29749.5	0.000000	0.000000	6.432920	-0.032465	NaN	0.000000	0.001584	0.001671	28.0827	0.116027	0.001841	63.0229	-122.37	14.7707	-0.035364	0.431491	-0.716149	-0.717533	-0.032465	63.0229	-0.715763	-3.211258E+9	1.010963E-11	NaN
1043	1.000000	0.442854	7.37525e+06	-52289.1	1055.82	-29749.5	0.000000	0.000000	6.442901	-0.008710	NaN	0.000000	0.001589	0.001669	28.0835	0.075334	0.001875	40.1708	-0.943921	-164.808	0.038428	0.441554	-0.706169	-0.707469	-0.008710	40.1708	-0.706006	-2.363419E+9	3.685324E-12	NaN
1043	1.000000	0.452868	7.37525e+06	-52289.1	1055.82	-29749.5	0.000000	0.000000	6.452915	-0.004368	NaN	0.000000	0.001623	0.001682	28.0832	0.054959	0.002048	26.8369	-10.4253	15.607	-0.070498	0.451517	-0.696155	-0.697506	-0.004368	26.8369	-0.696033	-1.727224E+9	2.529011E-12	NaN
1043	1.000000	0.462868	7.37525e+06	-52289.1	1055.82	-29749.5	0.000000	0.000000	6.462913	-0.047584	NaN	0.000000	0.001625	0.001678	28.0831	0.072029	0.001855	38.8246	-158.305	-164.144	0.030353	0.461581	-0.686155	-0.687442	-0.047584	38.8246	-0.685236	-1.229709E+9	3.869501E-11	NaN
1043	1.000000	0.472874	7.37525e+06	-52289.1	1055.82	-29749.5	0.000000	0.000000	6.472920	-0.031788	NaN	0.000000	0.001620	0.001671	28.0832	0.024381	0.001920	12.7017	-152.176	14.0196	0.059777	0.471503	-0.676149	-0.677520	-0.031788	12.7017	-0.674272	-8.706670E+8	3.650968E-11	NaN
1043	1.000000	0.482888	7.37525e+06	-52289.1	1055.82	-29749.5	0.000000	0.000000	6.482934	-0.041723	NaN	0.000000	0.001587	0.001659	28.0836	0.040151	0.002091	19.2006	-128.262	-164.648	-0.030468	0.481552	-0.666135	-0.667471	-0.041723	19.2006	-0.664505	-6.399798E+8	6.519460E-11	NaN
1043	1.000000	0.492849	7.37525e+06	-52289.1	1055.82	-29749.5	0.000000	0.000000	6.492894	-0.027508	NaN	0.000000	0.001575	0.001659	28.0833	0.067989	0.002190	31.0418	-78.1088	16.9362	-0.020043	0.491534	-0.656175	-0.657489	-0.027508	31.0418	-0.655510	-4.818968E+8	5.708202E-11	NaN
1043	1.000000	0.502911	7.37525e+06	-52289.1	1055.82	-29749.5	0.000000	0.000000	6.502958	-0.012591	NaN	0.000000	0.001636	0.001689	28.0831	0.074355	0.002025	36.7126	-57.9633	-164.764	0.035119	0.501596	-0.646112	-0.647427	-0.012591	36.7126	-0.645855	-3.553031E+8	3.543758E-11	NaN
1043	1.000000	0.512882	7.37525e+06	-52289.1	1055.82	-29749.5	0.000000	0.000000	6.512927	-0.044704	NaN	0.000000	0.001591	0.001672	28.083	0.057058	0.001875	30.4355	-166.329	14.2461	-0.047096	0.511535	-0.636141	-0.637488	-0.044704	30.4355	-0.635039	-2.524704E+8	1.770650E-10	NaN
1043	1.000000	0.522922	7.37525e+06	-52289.1	1055.82	-29749.5	0.000000	0.000000	6.522968	-0.028766	NaN	0.000000	0.001611	0.001711	28.0833	0.071305	0.002173	32.8092	86.9651	-166.584	0.030741	0.521608	-0.626101	-0.627415	-0.028766	32.8092	-0.625443	-1.863946E+8	1.543265E-10	NaN
1043	1.000000	0.532895	7.37525e+06	-52289.1	1055.82	-29749.5	0.000000	0.000000	6.532942	-0.019611	NaN	0.000000	0.001667	0.001673	28.0833	0.091323	0.002016	45.2946	-117.501	14.1034	-0.100097	0.531545	-0.616128	-0.617479	-0.019611	45.2946	-0.615803	-1.373833E+8	1.427475E-10	NaN
1043	1.000000	0.542937	7.37525e+06	-52289.1	1055.82	-29749.5	0.000000	0.000000	6.542981	-0.077429	NaN	0.000000	0.001664	0.001685	28.0835	0.012872	0.001962	6.559609	-18.6282	-167.547	0.076473	0.541609	-0.606086	-0.607415	-0.077429	6.559609	-0.597233	-7.626870E+7	1.015209E-9	NaN
1043	1.000000	0.552926	7.37525e+06	-52289.1	1055.82	-29749.5	0.000000	0.000000	6.552972	-0.028267	NaN	0.000000	0.001674	0.001694	28.0837	0.057092	0.002007	28.4504	66.719	11.2081	-0.018890	0.551524	-0.596097	-0.597499	-0.028267	28.4504	-0.595352	-7.185084E+7	3.934096E-10	NaN
1043	1.000000	0.562920	7.37525e+06	-52289.1	1055.82	-29749.5	0.000000	0.000000	6.562970	0.052655	NaN	0.000000	0.001640	0.001719	28.0835	0.095253	0.001928	49.3951	150.831	-163.791	0.005286	0.561620	-0.586103	-0.587403	0.052655	49.3951	-0.586902	-5.494795E+7	-9.582737E-10	NaN
1043	1.000000	0.572937	7.37525e+06	-52289.1	1055.82	-29749.5	0.000000	0.000000	6.572984	-0.021341	NaN	0.000000	0.001648	0.001685	28.0823	0.083340	0.002116	39.3813	128.498	14.6777	-0.033633	0.571593	-0.576086	-0.577430	-0.021341	39.3813	-0.575679	-3.846608E+7	5.547930E-10	NaN
1043	1.000000	0.582925	7.37525e+06	-52289.1	1055.82	-29749.5	0.000000	0.000000	6.582971	-0.030260	NaN	0.000000	0.001637	0.001635	28.0822	0.039989	0.002001	19.9863	13.4264	-166.079	-0.003737	0.581635	-0.566098	-0.567388	-0.030260	19.9863	-0.564963	-2.735319E+7	1.106257E-9	NaN
1043	1.000000	0.592939	7.37525e+06	-52289.1	1055.82	-29749.5	0.000000	0.000000	6.592986	0.012406	NaN	0.000000	0.001608	0.001656	28.0825	0.137703	0.002072	66.4593	38.2332	12.8546	-0.073357	0.591583	-0.556085	-0.557440	0.012406	66.4593	-0.556225	-2.070797E+7	-5.990825E-10	NaN
1043	1.000000	0.602926	7.37525e+06	-52289.1	1055.82	-29749.5	0.000000	0.000000	6.602970	-0.053226	NaN	0.000000	0.001591	0.001703	28.0821	0.087218	0.002004	43.5183	179.964	-161.705	-0.069461	0.601646	-0.546098	-0.547377	-0.053226	43.5183	-0.545180	-1.456055E+7	3.655506E-9	NaN
1043	1.000000	0.612950	7.37525e+06	-52289.1	1055.82	-29749.5	0.000000	0.000000	6.612998	0.024518	NaN	0.000000	0.001612	0.001710	28.0823	0.044758	0.001888	23.7027	-64.5573	15.8799	0.000956	0.611588	-0.536073	-0.537435	0.024518	23.7027	-0.536849	-1.115951E+7	-2.197050E-9	NaN
1043	1.000000	0.622978	7.37525e+06	-52289.1	1055.82	-29749.5	0.000000	0.000000	6.623023	-0.026329	NaN	0.000000	0.001647	0.001708	28.0824	0.069066	0.002126	32.4858	93.1016	-169.203	0.003472	0.621650	-0.526046	-0.527373	-0.026329	32.4858	-0.525438	-7.74809e+06	3.398183E-9	NaN
1043	1.000000	0.632930	7.37525e+06	-52289.1	1055.82	-29749.5	0.000000	0.000000	6.632979	0.031842	NaN	0.000000	0.001652	0.001707	28.0836	0.128605	0.001926	66.7761	75.3035	12.9518	-0.000980	0.631627	-0.516093	-0.517396	0.031842	66.7761	-0.516450	-5.81057e+06	-5.480024E-9	NaN
1043	1.000000	0.642961	7.37525e+06	-52289.1	1055.82	-29749.5	0.000000	0.000000	6.643010	0.027771	NaN	0.000000	0.001637	0.001684	28.082	0.088468	0.002049	43.1715	-169.137	-166.033	0.128522	0.641647	-0.506062	-0.507377	0.027771	43.1715	-0.506544	-4.22929e+06	-6.566350E-9	NaN
1043	1.000000	0.652939	7.37525e+06	-52289.1	1055.82	-29749.5	0.000000	0.000000	6.652985	-0.012675	NaN	0.000000	0.001638	0.001672	28.0822	0.059816	0.002193	27.2705	140.206	12.6116	-0.019726	0.651572	-0.496084	-0.497451	-0.012675	27.2705	-0.495736	-2.98888e+06	4.240734E-9	NaN
1043	1.000000	0.662950	7.37525e+06	-52289.1	1055.82	-29749.5	0.000000	0.000000	6.662995	-0.042186	NaN	0.000000	0.001632	0.001706	28.0821	0.019295	0.001933	9.980417	8.790901	-165.411	-0.064890	0.661673	-0.486073	-0.487350	-0.042186	9.980417	-0.482903	-1.97768e+06	2.133106E-8	NaN
1043	1.000000	0.672970	7.37525e+06	-52289.1	1055.82	-29749.5	0.000000	0.000000	6.673015	-0.051171	NaN	0.000000	0.001670	0.001702	28.0822	0.095107	0.002076	45.8048	-106.832	13.1262	-0.040222	0.671604	-0.476053	-0.477419	-0.051171	45.8048	-0.475216	-1.54355e+06	3.315184E-8	NaN
1043	1.000000	0.682979	7.37525e+06	-52289.1	1055.82	-29749.5	0.000000	0.000000	6.683026	0.015485	NaN	0.000000	0.001651	0.001679	28.0819	0.039955	0.002040	19.5881	-159.869	-164.718	0.022595	0.681662	-0.466044	-0.467361	0.015485	19.5881	-0.466637	-1.17012e+06	-1.323384E-8	NaN
1043	1.000000	0.692954	7.37525e+06	-52289.1	1055.82	-29749.5	0.000000	0.000000	6.693001	-0.011813	NaN	0.000000	0.001663	0.001700	28.0823	0.097579	0.002033	47.9881	-119.982	13.7843	-0.024510	0.691609	-0.456069	-0.457414	-0.011813	47.9881	-0.455884	-826335	1.429583E-8	NaN
1043	1.000000	0.702971	7.37525e+06	-52289.1	1055.82	-29749.5	0.000000	0.000000	6.703016	-0.047982	NaN	0.000000	0.001626	0.001672	28.0825	0.105767	0.002098	50.419	-41.4132	-166.08	-0.109418	0.701707	-0.446052	-0.447316	-0.047982	50.419	-0.445338	-587025	8.173821E-8	NaN
1043	1.000000	0.712973	7.37525e+06	-52289.1	1055.82	-29749.5	0.000000	0.000000	6.713019	-0.020524	NaN	0.000000	0.001624	0.001689	28.0833	0.092802	0.002051	45.2381	23.1122	12.468	-0.096940	0.711632	-0.436050	-0.437391	-0.020524	45.2381	-0.435710	-429319	4.780677E-8	NaN
1043	1.000000	0.722990	7.37525e+06	-52289.1	1055.82	-29749.5	0.000000	0.000000	6.723034	-0.059657	NaN	0.000000	0.001707	0.001685	28.0832	0.138898	0.002027	68.5313	87.8937	-166.684	-0.020816	0.721616	-0.426033	-0.427407	-0.059657	68.5313	-0.425381	-306671	1.945295E-7	NaN
1043	1.000000	0.732989	7.37525e+06	-52289.1	1055.82	-29749.5	0.000000	0.000000	6.733035	-0.029031	NaN	0.000000	0.001679	0.001693	28.0834	0.088694	0.001952	45.4433	113.364	12.4266	-0.035718	0.731569	-0.416034	-0.417454	-0.029031	45.4433	-0.415555	-222500	1.304762E-7	NaN
1043	1.000000	0.742993	7.37525e+06	-52289.1	1055.82	-29749.5	0.000000	0.000000	6.743038	-0.054532	NaN	0.000000	0.001675	0.001714	28.0835	0.017215	0.001842	9.345539	-3.357498	-164.238	-0.058769	0.741692	-0.406030	-0.407331	-0.054532	9.345539	-0.401654	-141114	3.864414E-7	NaN
1043	1.000000	0.753003	7.37525e+06	-52289.1	1055.82	-29749.5	0.000000	0.000000	6.753049	-0.023585	NaN	0.000000	0.001683	0.001713	28.0835	0.043827	0.002116	20.7106	-135.112	13.4561	-0.036924	0.751654	-0.396021	-0.397369	-0.023585	20.7106	-0.395166	-114028	2.068372E-7	NaN
1043	1.000000	0.763003	7.37525e+06	-52289.1	1055.82	-29749.5	0.000000	0.000000	6.763047	-0.070833	NaN	0.000000	0.001703	0.001738	28.0836	0.160862	0.002020	79.6487	166.359	-165.004	-0.023310	0.761699	-0.386020	-0.387324	-0.070833	79.6487	-0.385353	-82537	8.581975E-7	NaN
1043	1.000000	0.773054	7.37525e+06	-52289.1	1055.82	-29749.5	0.000000	0.000000	6.773101	-0.005677	NaN	0.000000	0.001681	0.001758	28.0837	0.031745	0.002049	15.4968	-154.477	13.7889	-0.047360	0.771590	-0.375969	-0.377433	-0.005677	15.4968	-0.375694	-59985.6	9.463695E-8	NaN
1043	1.000000	0.782998	7.37525e+06	-52289.1	1055.82	-29749.5	0.000000	0.000000	6.783042	-0.056959	NaN	0.000000	0.001703	0.001754	28.0835	0.068643	0.002120	32.3784	16.7104	-168.535	-0.047452	0.781661	-0.366025	-0.367362	-0.056959	32.3784	-0.364706	-41669	1.366943E-6	NaN
1043	1.000000	0.793018	7.37525e+06	-52289.1	1055.82	-29749.5	0.000000	0.000000	6.793062	-0.082985	NaN	0.000000	0.001683	0.001745	28.0832	0.056168	0.002040	27.539	-73.3576	8.734553	-0.093284	0.791684	-0.356005	-0.357340	-0.082985	27.539	-0.353745	-28927.7	2.868715E-6	NaN
1043	1.000000	0.803021	7.37525e+06	-52289.1	1055.82	-29749.5	0.000000	0.000000	6.803067	-0.023984	NaN	0.000000	0.001639	0.001756	28.0836	0.106076	0.001956	54.2347	-123.176	-162.448	-0.017713	0.801728	-0.346002	-0.347295	-0.023984	54.2347	-0.345671	-22085.5	1.085969E-6	NaN
1043	1.000000	0.813033	7.37525e+06	-52289.1	1055.82	-29749.5	0.000000	0.000000	6.813077	-0.074351	NaN	0.000000	0.001599	0.001785	28.0834	0.152545	0.001970	77.4509	-110.115	12.0291	-0.070638	0.811689	-0.335990	-0.337334	-0.074351	77.4509	-0.335270	-15578.9	4.772559E-6	NaN
1043	1.000000	0.823023	7.37525e+06	-52289.1	1055.82	-29749.5	0.000000	0.000000	6.823068	-0.046029	NaN	0.000000	0.001600	0.001722	28.0832	0.032295	0.002113	15.2863	-125.545	-165.055	0.077167	0.821723	-0.326000	-0.327300	-0.046029	15.2863	-0.323742	-10560	4.358870E-6	NaN
1043	1.000000	0.833022	7.37525e+06	-52289.1	1055.82	-29749.5	0.000000	0.000000	6.833065	-0.094056	NaN	0.000000	0.001626	0.001758	28.0832	0.088107	0.001951	45.1503	-4.890604	14.0608	-0.067533	0.831666	-0.316001	-0.317357	-0.094056	45.1503	-0.314439	-7703.15	1.221003E-5	NaN
1043	1.000000	0.843019	7.37525e+06	-52289.1	1055.82	-29749.5	0.000000	0.000000	6.843066	0.003037	NaN	0.000000	0.001599	0.001747	28.0825	0.031017	0.002051	15.1213	167.882	-170.199	0.026550	0.841713	-0.306004	-0.307310	0.003037	15.1213	-0.306155	-5808.85	-5.227965E-7	NaN
1043	1.000000	0.853064	7.37525e+06	-52289.1	1055.82	-29749.5	0.000000	0.000000	6.853107	-0.109659	NaN	0.000000	0.001600	0.001745	28.0819	0.066879	0.002020	33.1155	53.2017	11.1136	-0.164714	0.851700	-0.295959	-0.297323	-0.109659	33.1155	-0.293475	-3761.02	2.915673E-5	NaN
1043	1.000000	0.863065	7.37525e+06	-52289.1	1055.82	-29749.5	0.000000	0.000000	6.863111	-0.010546	NaN	0.000000	0.001649	0.001739	28.082	0.080982	0.002067	39.1851	-73.6203	-164.16	-0.032300	0.861768	-0.285959	-0.287255	-0.010546	39.1851	-0.285757	-2881.64	3.659588E-6	NaN
1043	1.000000	0.873039	7.37525e+06	-52289.1	1055.82	-29749.5	0.000000	0.000000	6.873086	0.008730	NaN	0.000000	0.001614	0.001750	28.0819	0.020026	0.001992	10.0546	89.2991	12.2698	0.010215	0.871705	-0.275985	-0.277318	0.008730	10.0546	-0.276636	-2099.69	-4.157904E-6	NaN
1043	1.000000	0.883033	7.37525e+06	-52289.1	1055.82	-29749.5	0.000000	0.000000	6.883078	-0.070241	NaN	0.000000	0.001656	0.001758	28.0821	0.088345	0.002085	42.3767	141.925	-165.02	-0.138769	0.881754	-0.265990	-0.267269	-0.070241	42.3767	-0.264747	-1385.23	5.070711E-5	NaN
1043	1.000000	0.893056	7.37525e+06	-52289.1	1055.82	-29749.5	0.000000	0.000000	6.893100	-0.070944	NaN	0.000000	0.001638	0.001738	28.0818	0.059601	0.001910	31.2053	-128.46	14.0727	-0.038564	0.891642	-0.255967	-0.257381	-0.070944	31.2053	-0.254262	-956.638	7.415986E-5	NaN
1043	1.000000	0.903057	7.37525e+06	-52289.1	1055.82	-29749.5	0.000000	0.000000	6.903103	-0.023817	NaN	0.000000	0.001611	0.001767	28.0819	0.017466	0.001889	9.246513	-89.7733	-167.333	-0.039567	0.901732	-0.245966	-0.247291	-0.023817	9.246513	-0.244034	-664.414	3.584693E-5	NaN
1043	1.000000	0.913015	7.37525e+06	-52289.1	1055.82	-29749.5	0.000000	0.000000	6.913061	-0.010131	NaN	0.000000	0.001601	0.001730	28.0818	0.092395	0.002044	45.2014	-35.4905	13.3721	-0.116096	0.911742	-0.236009	-0.237281	-0.010131	45.2014	-0.235840	-494.812	2.047391E-5	NaN
1043	1.000000	0.923059	7.37525e+06	-52289.1	1055.82	-29749.5	0.000000	0.000000	6.923106	-0.002923	NaN	0.000000	0.001589	0.001745	28.082	0.080359	0.002003	40.1147	-109.719	-165.018	0.052983	0.921747	-0.225964	-0.227276	-0.002923	40.1147	-0.225909	-344.957	8.472510E-6	NaN
1043	1.000000	0.933082	7.37525e+06	-52289.1	1055.82	-29749.5	0.000000	0.000000	6.933128	-0.026110	NaN	0.000000	0.001695	0.001764	28.0819	0.053308	0.001861	28.6518	-173.532	17.0417	0.022839	0.931661	-0.215941	-0.217363	-0.026110	28.6518	-0.215258	-233.161	0.000112	NaN
1043	1.000000	0.943071	7.37525e+06	-52289.1	1055.82	-29749.5	0.000000	0.000000	6.943117	-0.035954	NaN	0.000000	0.001675	0.001770	28.0819	0.063733	0.001904	33.469	42.7899	-168.574	-0.069933	0.941802	-0.205952	-0.207221	-0.035954	33.469	-0.205146	-159.934	0.000225	NaN
1043	1.000000	0.953089	7.37525e+06	-52289.1	1055.82	-29749.5	0.000000	0.000000	6.953137	0.014355	NaN	0.000000	0.001663	0.001783	28.082	0.034452	0.001998	17.2428	-90.5929	15.7583	0.014219	0.951730	-0.195934	-0.197293	0.014355	17.2428	-0.196558	-115.608	-0.000124	NaN
1043	1.000000	0.963076	7.37525e+06	-52289.1	1055.82	-29749.5	0.000000	0.000000	6.963123	-0.002268	NaN	0.000000	0.001618	0.001806	28.082	0.078090	0.002010	38.8472	122.381	-166.629	-0.038635	0.961763	-0.185947	-0.187260	-0.002268	38.8472	-0.185903	-76.7971	2.952625E-5	NaN
1043	1.000000	0.973062	7.37525e+06	-52289.1	1055.82	-29749.5	0.000000	0.000000	6.973110	0.025324	NaN	0.000000	0.001559	0.001810	28.0818	0.153098	0.002152	71.1395	112.394	9.769620	0.051998	0.971726	-0.175961	-0.177297	0.025324	71.1395	-0.176228	-52.6082	-0.000481	NaN
1043	1.000000	0.983067	7.37525e+06	-52289.1	1055.82	-29749.5	0.000000	0.000000	6.983115	0.009044	NaN	0.000000	0.001591	0.001812	28.0834	0.046841	0.002126	22.0366	81.085	-165.121	-0.061022	0.981850	-0.165956	-0.167173	0.009044	22.0366	-0.166264	-35.3562	-0.000256	NaN
1043	1.000000	0.993077	7.37525e+06	-52289.1	1055.82	-29749.5	0.000000	0.000000	6.993123	-0.010779	NaN	0.000000	0.001587	0.001849	28.0834	0.098921	0.001977	50.0261	12.8232	15.1774	-0.033246	0.991710	-0.155946	-0.157314	-0.010779	50.0261	-0.155785	-23.051	0.000468	NaN
1043	1.000000	1.003122	7.37525e+06	-52289.1	1055.82	-29749.5	0.000000	0.000000	7.003170	0.029062	NaN	0.000000	0.001609	0.001817	28.0833	0.019882	0.001978	10.0529	-99.8134	-165.416	0.072703	1.001794	-0.145901	-0.147229	0.029062	10.0529	-0.148069	-16.6991	-0.001740	NaN
1043	1.000000	1.013113	7.37525e+06	-52289.1	1055.82	-29749.5	0.000000	0.000000	7.013156	-0.094665	NaN	0.000000	0.001613	0.001823	28.0829	0.045297	0.001916	23.6444	-46.7634	13.9844	-0.095011	1.011772	-0.135911	-0.137251	-0.094665	23.6444	-0.132908	-8.673731	0.010914	NaN
1043	1.000000	1.023101	7.37525e+06	-52289.1	1055.82	-29749.5	0.000000	0.000000	7.023146	-0.047842	NaN	0.000000	0.001649	0.001840	28.0834	0.074472	0.002000	37.2433	157.588	-167.417	-0.020131	1.021813	-0.125922	-0.127210	-0.047842	37.2433	-0.124959	-6.069857	0.007882	NaN
1043	1.000000	1.033113	7.37525e+06	-52289.1	1055.82	-29749.5	0.000000	0.000000	7.033157	-0.090777	NaN	0.000000	0.001627	0.001840	28.0828	0.071187	0.001900	37.4747	-138.503	15.5409	-0.131393	1.031760	-0.115910	-0.117263	-0.090777	37.4747	-0.114093	-3.659081	0.024809	NaN
1043	1.000000	1.043076	7.37525e+06	-52289.1	1055.82	-29749.5	0.000000	0.000000	7.043118	-0.120349	NaN	0.000000	0.001609	0.001797	28.0833	0.076969	0.002020	38.1054	-132.216	-165.306	-0.016438	1.041792	-0.105947	-0.107231	-0.120349	38.1054	-0.103578	-2.189538	0.054965	NaN
1043	1.000000	1.053117	7.37525e+06	-52289.1	1055.82	-29749.5	0.000000	0.000000	7.053164	-0.001229	NaN	0.000000	0.001616	0.001810	28.0827	0.075836	0.002133	35.5511	-128.901	13.6629	0.089753	1.051779	-0.095906	-0.097244	-0.001229	35.5511	-0.095880	-1.477103	0.000832	NaN
1043	1.000000	1.063113	7.37525e+06	-52289.1	1055.82	-29749.5	0.000000	0.000000	7.063158	-0.034577	NaN	0.000000	0.001617	0.001834	28.0832	0.027168	0.002143	12.6796	-99.6626	-167.773	-0.041128	1.061842	-0.085910	-0.087181	-0.034577	12.6796	-0.083865	-0.771109	0.044841	NaN
1043	1.000000	1.073135	7.37525e+06	-52289.1	1055.82	-29749.5	0.000000	0.000000	7.073181	-0.023283	NaN	0.000000	0.001651	0.001855	28.0827	0.028405	0.002150	13.2094	32.0068	10.6037	0.007340	1.071750	-0.075888	-0.077273	-0.023283	13.2094	-0.074566	-0.450068	0.051733	NaN
1043	1.000000	1.083127	7.37525e+06	-52289.1	1055.82	-29749.5	0.000000	0.000000	7.083171	-0.052352	NaN	0.000000	0.001625	0.001838	28.0828	0.123600	0.001985	62.2664	-39.2468	-164.7	-0.033236	1.081770	-0.065897	-0.067254	-0.052352	62.2664	-0.065266	-0.253483	0.206530	NaN
1043	1.000000	1.093141	7.37525e+06	-52289.1	1055.82	-29749.5	0.000000	0.000000	7.093192	0.102939	NaN	0.000000	0.001602	0.001821	28.0828	0.079424	0.001889	42.044	-48.4052	12.9818	0.074363	1.091764	-0.055882	-0.057260	0.102939	42.044	-0.057719	-0.154733	-0.665268	NaN
1043	1.000000	1.103132	7.37525e+06	-52289.1	1055.82	-29749.5	0.000000	0.000000	7.103186	0.175026	NaN	0.000000	0.001632	0.001805	28.0827	0.222948	0.001948	114.432	14.2712	-169.63	0.130743	1.101763	-0.045891	-0.047261	0.175026	114.432	-0.047038	-0.074174	-2.359653	NaN
1043	1.000000	1.113130	7.37525e+06	-52289.1	1055.82	-29749.5	0.000000	0.000000	7.113185	0.205623	NaN	0.000000	0.001611	0.001847	28.0828	0.181155	0.001870	96.8547	21.8682	14.4353	0.173123	1.111784	-0.035893	-0.037240	0.205623	96.8547	-0.037486	-0.037967	-5.415769	NaN
1043	1.000000	1.123158	7.37525e+06	-52289.1	1055.82	-29749.5	0.000000	0.000000	7.123214	0.207446	NaN	0.000000	0.001603	0.001823	28.0815	0.098667	0.002018	48.9036	19.4036	-166.99	0.203864	1.121816	-0.025865	-0.027207	0.207446	48.9036	-0.029046	-0.021655	-9.579584	NaN
1043	1.000000	1.133132	7.37525e+06	-52289.1	1055.82	-29749.5	0.000000	0.000000	7.133181	0.052526	NaN	0.000000	0.001612	0.001827	28.0819	0.084773	0.001936	43.7843	97.989	17.1724	0.159614	1.131800	-0.015891	-0.017223	0.052526	43.7843	-0.016791	-0.010377	-5.061600	NaN
1043	1.000000	1.143158	7.37525e+06	-52289.1	1055.82	-29749.5	0.000000	0.000000	7.143208	0.054109	NaN	0.000000	0.001623	0.001825	28.0817	0.161705	0.001915	84.429	12.797	-165.658	0.074686	1.141814	-0.005865	-0.007209	0.054109	84.429	-0.006345	-0.004247	-12.7418	NaN
1043	1.000000	1.153130	7.37525e+06	-52289.1	1055.82	-29749.5	0.000000	0.000000	7.153438	6.355650	NaN	0.000000	0.001623	0.001851	28.0818	6.987837	0.001868	3741.65	16.1077	8.246545	4.789811	1.151728	0.004107	0.002705	6.355650	3741.65	0.002833	0.002240	2837.8	72234.9
1043	2.000000	1.157692	7.37525e+06	-52289.1	1055.82	-29749.5	0.000000	0.000000	7.158226	11.8519	NaN	0.000000	0.001605	0.001831	28.0818	11.3696	0.001673	6796.83	7.428875	-172.513	11.5173	1.157353	0.008668	0.008329	11.8519	6796.83	0.007361	0.006393	1853.91	77665.6
1043	2.000000	1.160167	7.37525e+06	-52289.1	1055.82	-29749.5	0.000000	0.000000	7.160941	17.6855	NaN	0.000000	0.001630	0.001865	28.082	14.6523	0.001571	9328.68	6.554286	2.791348	16.0767	1.159785	0.011144	0.010762	17.6855	9328.68	0.009722	0.008874	1992.92	90475.2
1043	2.000000	1.162595	7.37525e+06	-52289.1	1055.82	-29749.5	0.000000	0.000000	7.163592	23.0884	NaN	0.000000	0.001632	0.001840	28.0817	16.8695	0.001490	11322	1.752551	-173.3	20.858	1.162260	0.013572	0.013237	23.0884	11322	0.012043	0.011541	2000.55	96288.8
1043	2.000000	1.165129	7.37525e+06	-52289.1	1055.82	-29749.5	0.000000	0.000000	7.166279	26.8175	NaN	0.000000	0.001653	0.001844	28.0817	20.1853	0.001701	11863.8	9.188976	-0.421901	24.8302	1.164812	0.016106	0.015789	26.8175	11863.8	0.014411	0.014508	1848.5	89991.1
1043	2.000000	1.167593	7.37525e+06	-52289.1	1055.82	-29749.5	0.000000	0.000000	7.168935	31.4822	NaN	0.000000	0.001615	0.001828	28.0821	23.6016	0.001828	12910.9	8.226444	179.144	30.1674	1.167291	0.018570	0.018268	31.4822	12910.9	0.016741	0.017678	1780.91	88719.4
1043	2.000000	1.170125	7.37525e+06	-52289.1	1055.82	-29749.5	0.000000	0.000000	7.171697	37.0813	NaN	0.000000	0.001636	0.001814	28.0818	25.5198	0.001738	14683.9	7.937349	-1.641133	35.1277	1.169753	0.021102	0.020730	37.0813	14683.9	0.019208	0.021313	1739.83	91894.7
1043	2.000000	1.172585	7.37525e+06	-52289.1	1055.82	-29749.5	0.000000	0.000000	7.174389	42.7149	NaN	0.000000	0.001630	0.001811	28.0818	27.5185	0.001699	16198.3	6.014384	179.603	41.36	1.172283	0.023562	0.023260	42.7149	16198.3	0.021584	0.025093	1702.25	93425.2
1043	2.000000	1.175091	7.37525e+06	-52289.1	1055.82	-29749.5	0.000000	0.000000	7.177267	51.7624	NaN	0.000000	0.001646	0.001839	28.0819	31.2712	0.001829	17100.9	6.852727	-2.533165	48.3748	1.174668	0.026068	0.025645	51.7624	17100.9	0.023798	0.028865	1793.29	91962.3
1043	2.000000	1.177600	7.37525e+06	-52289.1	1055.82	-29749.5	0.000000	0.000000	7.179949	55.9712	NaN	0.000000	0.001627	0.001840	28.0821	32.8967	0.001775	18534.4	6.653655	177.572	54.689	1.177329	0.028577	0.028306	55.9712	18534.4	0.026312	0.033445	1673.52	92594.5
1043	2.000000	1.180125	7.37525e+06	-52289.1	1055.82	-29749.5	0.000000	0.000000	7.182903	66.4042	NaN	0.000000	0.001632	0.001862	28.083	35.7768	0.001868	19154.6	8.244280	-4.450069	65.4989	1.179787	0.031102	0.030764	66.4042	19154.6	0.028502	0.037697	1761.55	90135.5
1043	2.000000	1.182573	7.37525e+06	-52289.1	1055.82	-29749.5	0.000000	0.000000	7.185724	75.4714	NaN	0.000000	0.001662	0.001839	28.083	37.8294	0.001793	21099.1	4.242259	179.149	74.8245	1.182204	0.033550	0.033181	75.4714	21099.1	0.030867	0.042561	1773.26	93440
1043	2.000000	1.185108	7.37525e+06	-52289.1	1055.82	-29749.5	0.000000	0.000000	7.188586	83.4313	NaN	0.000000	0.001617	0.001850	28.0831	40.4073	0.001834	22034.9	9.900152	-6.702257	82.924	1.184721	0.036084	0.035698	83.4313	22034.9	0.033245	0.047738	1747.7	92141
1043	2.000000	1.187571	7.37525e+06	-52289.1	1055.82	-29749.5	0.000000	0.000000	7.191430	92.7025	NaN	0.000000	0.001625	0.001849	28.0833	42.967	0.001752	24525.5	4.438320	177.137	90.8961	1.187240	0.038547	0.038217	92.7025	24525.5	0.035713	0.053418	1735.41	96949.9
1043	2.000000	1.190056	7.37525e+06	-52289.1	1055.82	-29749.5	0.000000	0.000000	7.194594	109.189	NaN	0.000000	0.001598	0.001839	28.0832	44.4054	0.001707	26019.3	2.462047	-0.859310	105.613	1.189759	0.041033	0.040736	109.189	26019.3	0.037886	0.058678	1860.8	98136.4
1043	2.000000	1.192528	7.37525e+06	-52289.1	1055.82	-29749.5	0.000000	0.000000	7.197516	120.121	NaN	0.000000	0.001612	0.001840	28.0833	47.1439	0.001660	28395.5	5.397090	174.936	117.942	1.192146	0.043505	0.043123	120.121	28395.5	0.040332	0.064890	1851.14	101844
1043	2.000000	1.195034	7.37525e+06	-52289.1	1055.82	-29749.5	0.000000	0.000000	7.200637	135.105	NaN	0.000000	0.001622	0.001841	28.0834	50.751	0.001842	27548.5	4.954749	-4.539619	131.441	1.194629	0.046011	0.045606	135.105	27548.5	0.042332	0.070195	1924.71	94998.7
1043	2.000000	1.197621	7.37525e+06	-52289.1	1055.82	-29749.5	0.000000	0.000000	7.203517	142.218	NaN	0.000000	0.001622	0.001824	28.0833	53.5274	0.001735	30842.8	5.712829	173.723	145.232	1.197292	0.048598	0.048269	142.218	30842.8	0.045140	0.077985	1823.66	100907
1043	2.000000	1.200027	7.37525e+06	-52289.1	1055.82	-29749.5	0.000000	0.000000	7.206622	159.228	NaN	0.000000	0.001643	0.001845	28.0832	54.8985	0.001793	30622.7	6.040002	-6.067540	155.496	1.199661	0.051004	0.050638	159.228	30622.7	0.047104	0.083672	1903	96722.3
1043	2.000000	1.202567	7.37525e+06	-52289.1	1055.82	-29749.5	0.000000	0.000000	7.209721	172.814	NaN	0.000000	0.001616	0.001843	28.0832	57.0412	0.001642	34743	5.634841	173.013	172.077	1.202188	0.053544	0.053165	172.814	34743	0.049813	0.091837	1881.76	104745
1043	2.000000	1.204980	7.37525e+06	-52289.1	1055.82	-29749.5	0.000000	0.000000	7.212588	183.846	NaN	0.000000	0.001626	0.001801	28.0831	60.0006	0.001713	35027.7	0.482451	-2.400509	178.038	1.204734	0.055957	0.055711	183.846	35027.7	0.052020	0.098760	1861.54	101834
1043	2.000000	1.207504	7.37525e+06	-52289.1	1055.82	-29749.5	0.000000	0.000000	7.215649	196.889	NaN	0.000000	0.001566	0.001811	28.0832	63.3396	0.001824	34718.1	1.156432	177.301	193.177	1.207239	0.058481	0.058216	196.889	34718.1	0.054228	0.105928	1858.71	97459.6
1043	2.000000	1.210018	7.37525e+06	-52289.1	1055.82	-29749.5	0.000000	0.000000	7.218963	216.358	NaN	0.000000	0.001583	0.001840	28.083	65.8242	0.001798	36618.7	5.330229	-6.921965	211.907	1.209645	0.060995	0.060622	216.358	36618.7	0.056563	0.113774	1901.64	99186.7
1043	2.000000	1.212498	7.37525e+06	-52289.1	1055.82	-29749.5	0.000000	0.000000	7.222308	237.378	NaN	0.000000	0.001594	0.001847	28.0833	66.3733	0.001648	40276.7	0.010452	177.476	235.387	1.212149	0.063475	0.063126	237.378	40276.7	0.059055	0.122441	1938.71	105163
1043	2.000000	1.214960	7.37525e+06	-52289.1	1055.82	-29749.5	0.000000	0.000000	7.225456	254.054	NaN	0.000000	0.001560	0.001823	28.0821	69.9888	0.001764	39669.1	1.728014	-4.517488	250.071	1.214696	0.065937	0.065673	254.054	39669.1	0.061134	0.129905	1955.69	100557
1043	2.000000	1.217532	7.37525e+06	-52289.1	1055.82	-29749.5	0.000000	0.000000	7.228740	271.367	NaN	0.000000	0.001644	0.001817	28.0822	73.5833	0.001867	39411.4	4.138897	173.313	270.714	1.217223	0.068509	0.068200	271.367	39411.4	0.063345	0.138076	1965.35	96902.8
1043	2.000000	1.220021	7.37525e+06	-52289.1	1055.82	-29749.5	0.000000	0.000000	7.231898	287.645	NaN	0.000000	0.001631	0.001773	28.082	74.9415	0.001817	41241.6	3.773232	-6.763562	284.2	1.219700	0.070998	0.070677	287.645	41241.6	0.065767	0.147295	1952.85	98178.2
1043	2.000000	1.222516	7.37525e+06	-52289.1	1055.82	-29749.5	0.000000	0.000000	7.235032	303.168	NaN	0.000000	0.001645	0.001778	28.0822	76.7619	0.001685	45552.1	2.709713	173.454	302.246	1.222183	0.073493	0.073160	303.168	45552.1	0.068501	0.158046	1918.23	104686
1043	2.000000	1.225070	7.37525e+06	-52289.1	1055.82	-29749.5	0.000000	0.000000	7.238376	322.399	NaN	0.000000	0.001674	0.001759	28.0822	80.3283	0.001789	44899.9	4.464532	-7.900307	324.656	1.224664	0.076047	0.075641	322.399	44899.9	0.070661	0.166789	1932.97	100446
1043	2.000000	1.227526	7.37525e+06	-52289.1	1055.82	-29749.5	0.000000	0.000000	7.241586	340.712	NaN	0.000000	0.001655	0.001820	28.0824	83.4676	0.001801	46343.4	5.702494	170.477	340.087	1.227269	0.078503	0.078246	340.712	46343.4	0.072989	0.176460	1930.82	100795
1043	2.000000	1.229926	7.37525e+06	-52289.1	1055.82	-29749.5	0.000000	0.000000	7.244718	358.505	NaN	0.000000	0.001676	0.001821	28.082	84.2808	0.001824	46194.1	5.470440	-9.708866	352.016	1.229745	0.080903	0.080722	358.505	46194.1	0.075083	0.185376	1933.94	98024.1
1043	2.000000	1.232507	7.37525e+06	-52289.1	1055.82	-29749.5	0.000000	0.000000	7.248366	384.468	NaN	0.000000	0.001669	0.001805	28.0821	85.0385	0.001753	48500.4	5.788519	170.225	384.781	1.232260	0.083484	0.083237	384.468	48500.4	0.077538	0.196097	1960.6	100065
1043	2.000000	1.234971	7.37525e+06	-52289.1	1055.82	-29749.5	0.000000	0.000000	7.251718	406.055	NaN	0.000000	0.001678	0.001793	28.0824	88.6458	0.001780	49800.6	5.238757	-9.950757	402.437	1.234666	0.085948	0.085643	406.055	49800.6	0.079833	0.206372	1967.59	100157
1043	2.000000	1.237464	7.37525e+06	-52289.1	1055.82	-29749.5	0.000000	0.000000	7.254928	423.487	NaN	0.000000	0.001630	0.001782	28.0822	92.3863	0.001891	48844.9	4.210258	171.418	420.005	1.237148	0.088441	0.088125	423.487	48844.9	0.081938	0.216012	1960.48	96018.1
1043	2.000000	1.239997	7.37525e+06	-52289.1	1055.82	-29749.5	0.000000	0.000000	7.258519	449.228	NaN	0.000000	0.001626	0.001786	28.0821	93.1292	0.001819	51185.6	1.722605	-5.534303	444.085	1.239624	0.090973	0.090601	449.228	51185.6	0.084391	0.227506	1974.58	98044.9
1043	2.000000	1.242482	7.37525e+06	-52289.1	1055.82	-29749.5	0.000000	0.000000	7.262157	477.243	NaN	0.000000	0.001647	0.001787	28.0821	95.751	0.001854	51657.5	3.196781	172.496	473.956	1.242139	0.093459	0.093116	477.243	51657.5	0.086530	0.237756	2007.28	96792.3
1043	2.000000	1.244958	7.37525e+06	-52289.1	1055.82	-29749.5	0.000000	0.000000	7.265506	498.475	NaN	0.000000	0.001631	0.001802	28.0824	97.454	0.001797	54239.6	3.523830	-8.379790	492.899	1.244684	0.095934	0.095661	498.475	54239.6	0.089042	0.250059	1993.43	99098.8
1043	2.000000	1.247508	7.37525e+06	-52289.1	1055.82	-29749.5	0.000000	0.000000	7.269141	524.848	NaN	0.000000	0.001606	0.001782	28.0821	100.318	0.001759	57034	4.878125	169.909	523.543	1.247117	0.098485	0.098094	524.848	57034	0.091583	0.262804	1997.11	101646
1043	2.000000	1.250006	7.37525e+06	-52289.1	1055.82	-29749.5	0.000000	0.000000	7.272749	551.85	NaN	0.000000	0.001641	0.001817	28.0835	102.629	0.001835	55932.6	6.748338	-11.7163	549.625	1.249668	0.100983	0.100644	551.85	55932.6	0.093583	0.273042	2021.12	97796.5
1043	2.000000	1.252546	7.37525e+06	-52289.1	1055.82	-29749.5	0.000000	0.000000	7.276235	574.854	NaN	0.000000	0.001607	0.001808	28.0837	103.316	0.001725	59893.1	2.813491	172.134	578.234	1.252161	0.103523	0.103137	574.854	59893.1	0.096324	0.287368	2000.41	102078
1043	2.000000	1.254534	7.37525e+06	-52289.1	1055.82	-29749.5	0.000000	0.000000	7.279341	602.024	NaN	0.000000	0.001624	0.001779	28.0836	106.52	0.001851	57542.7	5.375480	169.528	603.541	1.254201	0.105511	0.105177	602.024	57542.7	0.097664	0.294498	2044.24	96877.2