File: remote_trans/data/nanoindenter/0828-1/data/Data_2025-08-06,11h17m57s/2025-07-22_16-23-58_1_731.txt
2025-07-22, 16:23:58, 1
Index	Phase	Displacement	Time	Pos X	Pos Y	Pos Z	Rot A	Rot B	Piezo Z	Force A	Force B	Gripper	Voltage A	Voltage B	Temperature	Amplitude force	Amplitude pos	Stiffness	Phase shift	Phase excitation	Force A raw	Displacement raw	HMax	HMax raw	Real Force	Real Stiffness	Contact Depth	Area	Hardness	Reduced Mod.
[#]	[#]	[um]	[s]	[um]	[um]	[um]	[m°]	[m°]	[um]	[uN]	[uN]	[V]	[V]	[V]	[°C]	[uN]	[um]	[N/m]	[°]	[°]	[uN]	[um]	[um]	[um]	[uN]	[N/m]	[um]	[um^2]	[MPa]	[MPa]
731	1.000000	0.002659	7.3722e+06	-40539.1	1005.82	-29789.7	0.000000	0.000000	6.002806	-0.012876	NaN	0.000000	0.001618	0.001755	28.0808	0.087967	0.000976	90.1608	64.0811	-169.466	-0.012049	0.001462	-1.018133	-1.019330	-0.012876	90.1608	-1.018026	-3.966369E+13	3.246183E-16	NaN
731	1.000000	0.010604	7.3722e+06	-40539.1	1005.82	-29789.7	0.000000	0.000000	6.010752	0.003889	NaN	0.000000	0.001610	0.001684	28.0803	0.091164	0.000972	93.7872	-14.6499	-163.782	-0.064212	0.009362	-1.010188	-1.011430	0.003889	93.7872	-1.010219	-3.114066E+13	-1.248962E-16	NaN
731	1.000000	0.018616	7.3722e+06	-40539.1	1005.82	-29789.7	0.000000	0.000000	6.018763	-0.015135	NaN	0.000000	0.001642	0.001744	28.0807	0.013216	0.001677	7.880640	159.377	-163.624	-0.026982	0.017252	-1.002176	-1.003540	-0.015135	7.880640	-1.000736	-2.320983E+13	6.520978E-16	NaN
731	1.000000	0.026632	7.3722e+06	-40539.1	1005.82	-29789.7	0.000000	0.000000	6.026779	-0.010654	NaN	0.000000	0.001661	0.001682	28.0806	0.094428	0.001954	48.335	-76.9192	-164.027	-0.031722	0.025236	-0.994160	-0.995556	-0.010654	48.335	-0.993995	-1.883245E+13	5.657279E-16	NaN
731	1.000000	0.034613	7.3722e+06	-40539.1	1005.82	-29789.7	0.000000	0.000000	6.034760	0.008984	NaN	0.000000	0.001647	0.001742	28.0811	0.036849	0.002006	18.3724	66.687	-164.627	0.028974	0.033239	-0.986179	-0.987553	0.008984	18.3724	-0.986546	-1.494835E+13	-6.009774E-16	NaN
731	1.000000	0.042592	7.37221e+06	-40539.1	1005.82	-29789.7	0.000000	0.000000	6.042738	-0.045906	NaN	0.000000	0.001628	0.001748	28.0806	0.022365	0.002082	10.7397	-45.7846	-164.571	0.031299	0.041287	-0.978200	-0.979506	-0.045906	10.7397	-0.974994	-1.044629E+13	4.394508E-15	NaN
731	1.000000	0.050587	7.37221e+06	-40539.1	1005.82	-29789.7	0.000000	0.000000	6.050732	-0.046656	NaN	0.000000	0.001619	0.001714	28.0808	0.097529	0.001914	50.9486	178.224	-165.048	-0.010057	0.049283	-0.970205	-0.971509	-0.046656	50.9486	-0.969518	-8.813982E+12	5.293421E-15	NaN
731	1.000000	0.058617	7.37221e+06	-40539.1	1005.82	-29789.7	0.000000	0.000000	6.058762	-0.057333	NaN	0.000000	0.001627	0.001753	28.0807	0.018668	0.002073	9.006238	-172.906	-166.068	-0.057507	0.057264	-0.962175	-0.963528	-0.057333	9.006238	-0.957401	-6.050949E+12	9.475084E-15	NaN
731	1.000000	0.066598	7.37221e+06	-40539.1	1005.82	-29789.7	0.000000	0.000000	6.066745	-0.021896	NaN	0.000000	0.001630	0.001755	28.0808	0.087526	0.002044	42.8271	85.7315	-163.658	-0.057600	0.065303	-0.954194	-0.955489	-0.021896	42.8271	-0.953811	-5.412715E+12	4.045243E-15	NaN
731	1.000000	0.074590	7.37221e+06	-40539.1	1005.82	-29789.7	0.000000	0.000000	6.074737	-0.025272	NaN	0.000000	0.001618	0.001738	28.081	0.033239	0.002130	15.6015	147.873	-164.466	-0.055191	0.073316	-0.946202	-0.947476	-0.025272	15.6015	-0.944987	-4.115408E+12	6.140897E-15	NaN
731	1.000000	0.082613	7.37221e+06	-40539.1	1005.82	-29789.7	0.000000	0.000000	6.082759	-0.038924	NaN	0.000000	0.001669	0.001751	28.0805	0.031172	0.001896	16.4451	-156.354	-166.108	-0.112969	0.081301	-0.938179	-0.939491	-0.038924	16.4451	-0.936404	-3.152247E+12	1.234805E-14	NaN
731	1.000000	0.090623	7.37221e+06	-40539.1	1005.82	-29789.7	0.000000	0.000000	6.090770	-0.010535	NaN	0.000000	0.001674	0.001739	28.0806	0.041871	0.001934	21.6504	155.864	-165.052	0.039537	0.089302	-0.930169	-0.931490	-0.010535	21.6504	-0.929804	-2.567769E+12	4.102613E-15	NaN
731	1.000000	0.098585	7.37221e+06	-40539.1	1005.82	-29789.7	0.000000	0.000000	6.098729	-0.090367	NaN	0.000000	0.001687	0.001752	28.0808	0.023829	0.002029	11.7427	-67.1423	-162.091	-0.013575	0.097321	-0.922207	-0.923471	-0.090367	11.7427	-0.916435	-1.694608E+12	5.332607E-14	NaN
731	1.000000	0.106643	7.37221e+06	-40539.1	1005.82	-29789.7	0.000000	0.000000	6.106792	0.030013	NaN	0.000000	0.001669	0.001732	28.0807	0.099265	0.001948	50.946	-78.1746	-166.505	0.023747	0.105353	-0.914149	-0.915439	0.030013	50.946	-0.914591	-1.600151E+12	-1.875611E-14	NaN
731	1.000000	0.114637	7.37221e+06	-40539.1	1005.82	-29789.7	0.000000	0.000000	6.114785	0.016060	NaN	0.000000	0.001668	0.001703	28.0814	0.088776	0.002003	44.3302	56.6928	-165.247	0.021066	0.113367	-0.906155	-0.907425	0.016060	44.3302	-0.906427	-1.241361E+12	-1.293741E-14	NaN
731	1.000000	0.122645	7.37221e+06	-40539.1	1005.82	-29789.7	0.000000	0.000000	6.122792	-0.010811	NaN	0.000000	0.001661	0.001699	28.0819	0.116557	0.002079	56.0712	-47.7584	-161.184	-0.022827	0.121275	-0.898147	-0.899517	-0.010811	56.0712	-0.898002	-9.551544E+11	1.131817E-14	NaN
731	1.000000	0.130614	7.37221e+06	-40539.1	1005.82	-29789.7	0.000000	0.000000	6.130761	-0.001400	NaN	0.000000	0.001656	0.001703	28.0826	0.038094	0.001947	19.5632	87.9184	-165.94	-0.036755	0.129301	-0.890178	-0.891491	-0.001400	19.5632	-0.890124	-7.474749E+11	1.873066E-15	NaN
731	1.000000	0.138647	7.37221e+06	-40539.1	1005.82	-29789.7	0.000000	0.000000	6.138791	-0.072160	NaN	0.000000	0.001653	0.001746	28.0821	0.011564	0.001926	6.004170	178.045	-164.375	-0.064496	0.137359	-0.882145	-0.883433	-0.072160	6.004170	-0.873131	-4.403598E+11	1.638649E-13	NaN
731	1.000000	0.146658	7.37221e+06	-40539.1	1005.82	-29789.7	0.000000	0.000000	6.146805	-0.011107	NaN	0.000000	0.001591	0.001745	28.0819	0.052955	0.001929	27.4537	144.136	-165.43	0.048034	0.145318	-0.874134	-0.875474	-0.011107	27.4537	-0.873830	-4.500496E+11	2.468037E-14	NaN
731	1.000000	0.154657	7.37221e+06	-40539.1	1005.82	-29789.7	0.000000	0.000000	6.154804	-0.011842	NaN	0.000000	0.001549	0.001721	28.082	0.135787	0.001840	73.8079	95.6973	-164.354	0.061950	0.153292	-0.866135	-0.867500	-0.011842	73.8079	-0.866015	-3.527931E+11	3.356546E-14	NaN
731	1.000000	0.162622	7.37221e+06	-40539.1	1005.82	-29789.7	0.000000	0.000000	6.162768	-0.037630	NaN	0.000000	0.001585	0.001748	28.0818	0.095666	0.002026	47.2196	174.152	-166.268	-0.023022	0.161365	-0.858170	-0.859427	-0.037630	47.2196	-0.857573	-2.711843E+11	1.387600E-13	NaN
731	1.000000	0.170645	7.37221e+06	-40539.1	1005.82	-29789.7	0.000000	0.000000	6.170791	-0.037505	NaN	0.000000	0.001565	0.001706	28.0823	0.079598	0.002006	39.678	45.458	-165.472	-0.012030	0.169351	-0.850147	-0.851441	-0.037505	39.678	-0.849438	-2.104399E+11	1.782218E-13	NaN
731	1.000000	0.178646	7.37221e+06	-40539.1	1005.82	-29789.7	0.000000	0.000000	6.178793	-0.007930	NaN	0.000000	0.001609	0.001764	28.0822	0.072137	0.001923	37.5152	74.9212	-163.36	-0.019661	0.177337	-0.842146	-0.843455	-0.007930	37.5152	-0.841987	-1.668070E+11	4.754087E-14	NaN
731	1.000000	0.186654	7.37221e+06	-40539.1	1005.82	-29789.7	0.000000	0.000000	6.186803	0.030133	NaN	0.000000	0.001605	0.001712	28.0823	0.080489	0.001934	41.611	-53.2164	-166.719	0.056318	0.185315	-0.834138	-0.835477	0.030133	41.611	-0.834681	-1.328080E+11	-2.268932E-13	NaN
731	1.000000	0.194647	7.37221e+06	-40539.1	1005.82	-29789.7	0.000000	0.000000	6.194794	-0.029920	NaN	0.000000	0.001622	0.001719	28.0821	0.058235	0.002023	28.789	-160.259	-164.157	-0.059722	0.193366	-0.826145	-0.827426	-0.029920	28.789	-0.825365	-9.930189E+10	3.013010E-13	NaN
731	1.000000	0.202692	7.37221e+06	-40539.1	1005.82	-29789.7	0.000000	0.000000	6.202840	0.028687	NaN	0.000000	0.001618	0.001753	28.082	0.072736	0.001897	38.3385	-45.385	-165.76	-0.021084	0.201340	-0.818100	-0.819452	0.028687	38.3385	-0.818661	-8.054873E+10	-3.561448E-13	NaN
731	1.000000	0.210675	7.37221e+06	-40539.1	1005.82	-29789.7	0.000000	0.000000	6.210818	-0.109162	NaN	0.000000	0.001589	0.001723	28.0821	0.072274	0.002071	34.89	-24.3493	-162.564	-0.084242	0.209325	-0.810117	-0.811467	-0.109162	34.89	-0.807770	-5.732171E+10	1.904381E-12	NaN
731	1.000000	0.218649	7.37221e+06	-40539.1	1005.82	-29789.7	0.000000	0.000000	6.218799	0.050627	NaN	0.000000	0.001569	0.001707	28.082	0.073712	0.001979	37.2398	71.147	-165.449	-0.024120	0.217379	-0.802143	-0.803413	0.050627	37.2398	-0.803163	-4.963511E+10	-1.019986E-12	NaN
731	1.000000	0.226662	7.37221e+06	-40539.1	1005.82	-29789.7	0.000000	0.000000	6.226812	0.064173	NaN	0.000000	0.001592	0.001743	28.0821	0.000895	0.002040	0.438564	59.1591	-164.813	0.038070	0.225347	-0.794131	-0.795445	0.064173	0.438564	-0.903874	-1.146578E+12	-5.596878E-14	NaN
731	1.000000	0.234667	7.37221e+06	-40539.1	1005.82	-29789.7	0.000000	0.000000	6.234815	0.014143	NaN	0.000000	0.001580	0.001756	28.082	0.086371	0.002002	43.141	153.372	-161.197	-0.008441	0.233399	-0.786125	-0.787393	0.014143	43.141	-0.786371	-2.936263E+10	-4.816636E-13	NaN
731	1.000000	0.242649	7.37221e+06	-40539.1	1005.82	-29789.7	0.000000	0.000000	6.242796	-0.024786	NaN	0.000000	0.001549	0.001810	28.082	0.001292	0.002036	0.634760	-86.6157	-166.958	-0.089314	0.241339	-0.778143	-0.779453	-0.024786	0.634760	-0.748858	-9.071259E+9	2.732322E-12	NaN
731	1.000000	0.250667	7.37221e+06	-40539.1	1005.82	-29789.7	0.000000	0.000000	6.250812	-0.071783	NaN	0.000000	0.001575	0.001772	28.0815	0.044406	0.002049	21.6699	71.5926	-165.067	0.023170	0.249379	-0.770125	-0.771413	-0.071783	21.6699	-0.767641	-1.633895E+10	4.393372E-12	NaN
731	1.000000	0.258660	7.37221e+06	-40539.1	1005.82	-29789.7	0.000000	0.000000	6.258806	-0.044728	NaN	0.000000	0.001562	0.001768	28.0804	0.069576	0.001952	35.6377	75.0606	-164.903	-0.049800	0.257442	-0.762132	-0.763350	-0.044728	35.6377	-0.761191	-1.335057E+10	3.350283E-12	NaN
731	1.000000	0.266692	7.37221e+06	-40539.1	1005.82	-29789.7	0.000000	0.000000	6.266839	-0.021518	NaN	0.000000	0.001583	0.001754	28.0808	0.019119	0.001974	9.685707	-91.7373	-167.107	-0.008359	0.265330	-0.754100	-0.755462	-0.021518	9.685707	-0.752433	-1.014713E+10	2.120585E-12	NaN
731	1.000000	0.274715	7.37221e+06	-40539.1	1005.82	-29789.7	0.000000	0.000000	6.274861	-0.034703	NaN	0.000000	0.001604	0.001694	28.0808	0.046166	0.001957	23.5952	-3.314179	-164.699	-0.043263	0.273328	-0.746077	-0.747464	-0.034703	23.5952	-0.744974	-8.031450E+9	4.320876E-12	NaN
731	1.000000	0.282718	7.37221e+06	-40539.1	1005.82	-29789.7	0.000000	0.000000	6.282862	-0.067602	NaN	0.000000	0.001593	0.001746	28.0809	0.094521	0.002032	46.5063	150.532	-166.236	-0.093445	0.281388	-0.738074	-0.739404	-0.067602	46.5063	-0.736984	-6.251372E+9	1.081398E-11	NaN
731	1.000000	0.290696	7.37221e+06	-40539.1	1005.82	-29789.7	0.000000	0.000000	6.290843	-0.008356	NaN	0.000000	0.001609	0.001718	28.0808	0.011333	0.001968	5.758496	-96.4595	-164.564	-0.030046	0.289401	-0.730096	-0.731391	-0.008356	5.758496	-0.729008	-4.867291E+9	1.716829E-12	NaN
731	1.000000	0.298702	7.37221e+06	-40539.1	1005.82	-29789.7	0.000000	0.000000	6.298849	-0.029924	NaN	0.000000	0.001570	0.001763	28.0807	0.126519	0.002039	62.0353	50.0108	-163.339	-0.031249	0.297415	-0.722090	-0.723377	-0.029924	62.0353	-0.721728	-3.872913E+9	7.726540E-12	NaN
731	1.000000	0.306691	7.37221e+06	-40539.1	1005.82	-29789.7	0.000000	0.000000	6.306837	-0.044476	NaN	0.000000	0.001594	0.001771	28.0806	0.087011	0.001885	46.1717	17.4067	-163.222	-0.022166	0.305345	-0.714101	-0.715447	-0.044476	46.1717	-0.713378	-2.979526E+9	1.492730E-11	NaN
731	1.000000	0.314720	7.37221e+06	-40539.1	1005.82	-29789.7	0.000000	0.000000	6.314867	-0.013371	NaN	0.000000	0.001580	0.001755	28.0805	0.051421	0.001968	26.1305	152.632	-166.766	-0.067625	0.313379	-0.706072	-0.707413	-0.013371	26.1305	-0.705688	-2.339895E+9	5.714268E-12	NaN
731	1.000000	0.322697	7.37221e+06	-40539.1	1005.82	-29789.7	0.000000	0.000000	6.322844	-0.018566	NaN	0.000000	0.001611	0.001770	28.0806	0.141864	0.001893	74.925	125.266	-166.72	-0.020862	0.321414	-0.698095	-0.699379	-0.018566	74.925	-0.697909	-1.832197E+9	1.013327E-11	NaN
731	1.000000	0.330736	7.37221e+06	-40539.1	1005.82	-29789.7	0.000000	0.000000	6.330882	-0.045324	NaN	0.000000	0.001617	0.001734	28.0804	0.041601	0.001983	20.9779	-18.2388	-163.773	-0.015027	0.329357	-0.690056	-0.691435	-0.045324	20.9779	-0.688436	-1.359995E+9	3.332678E-11	NaN
731	1.000000	0.338736	7.37221e+06	-40539.1	1005.82	-29789.7	0.000000	0.000000	6.338883	-0.002097	NaN	0.000000	0.001611	0.001753	28.0807	0.092756	0.001932	48.0055	-144.919	-164.717	0.036714	0.337443	-0.682056	-0.683349	-0.002097	48.0055	-0.682023	-1.111413E+9	1.886393E-12	NaN
731	1.000000	0.346734	7.37221e+06	-40539.1	1005.82	-29789.7	0.000000	0.000000	6.346882	0.017523	NaN	0.000000	0.001618	0.001759	28.0804	0.082291	0.001957	42.0468	-143.852	-166.191	0.014342	0.345400	-0.674058	-0.675392	0.017523	42.0468	-0.674371	-8.733805E+8	-2.006287E-11	NaN
731	1.000000	0.354727	7.37221e+06	-40539.1	1005.82	-29789.7	0.000000	0.000000	6.354875	-0.003126	NaN	0.000000	0.001612	0.001732	28.0806	0.044340	0.002021	21.9388	91.743	-163.166	-0.005990	0.353413	-0.666065	-0.667379	-0.003126	21.9388	-0.665958	-6.699748E+8	4.665324E-12	NaN
731	1.000000	0.362744	7.37221e+06	-40539.1	1005.82	-29789.7	0.000000	0.000000	6.362891	-0.005992	NaN	0.000000	0.001596	0.001802	28.0809	0.044487	0.001996	22.2931	-22.2158	-164.01	0.004831	0.361470	-0.658048	-0.659322	-0.005992	22.2931	-0.657847	-5.187667E+8	1.154987E-11	NaN
731	1.000000	0.370730	7.37221e+06	-40539.1	1005.82	-29789.7	0.000000	0.000000	6.370878	0.012125	NaN	0.000000	0.001613	0.001737	28.0805	0.137520	0.001914	71.8394	5.407846	-167.832	0.036016	0.369381	-0.650062	-0.651411	0.012125	71.8394	-0.650189	-4.074073E+8	-2.976250E-11	NaN
731	1.000000	0.378738	7.37221e+06	-40539.1	1005.82	-29789.7	0.000000	0.000000	6.378881	-0.101580	NaN	0.000000	0.001631	0.001701	28.0807	0.029552	0.001891	15.6283	66.8832	-165.303	-0.134854	0.377449	-0.642054	-0.643343	-0.101580	15.6283	-0.637179	-2.701372E+8	3.760297E-10	NaN
731	1.000000	0.386736	7.37221e+06	-40539.1	1005.82	-29789.7	0.000000	0.000000	6.386882	-0.019446	NaN	0.000000	0.001601	0.001757	28.0807	0.074958	0.001966	38.1195	-85.8217	-165.487	0.005066	0.385443	-0.634056	-0.635349	-0.019446	38.1195	-0.633674	-2.418048E+8	8.042155E-11	NaN
731	1.000000	0.394747	7.37221e+06	-40539.1	1005.82	-29789.7	0.000000	0.000000	6.394894	-0.022292	NaN	0.000000	0.001625	0.001756	28.0818	0.053783	0.002098	25.6339	-110.253	-164.723	0.028921	0.393418	-0.626045	-0.627375	-0.022292	25.6339	-0.625393	-1.860975E+8	1.197844E-10	NaN
731	1.000000	0.402731	7.37221e+06	-40539.1	1005.82	-29789.7	0.000000	0.000000	6.402876	-0.044371	NaN	0.000000	0.001587	0.001760	28.0816	0.110743	0.001927	57.4634	70.7395	-164.114	-0.122688	0.401412	-0.618062	-0.619380	-0.044371	57.4634	-0.617483	-1.448857E+8	3.062495E-10	NaN
731	1.000000	0.410750	7.37221e+06	-40539.1	1005.82	-29789.7	0.000000	0.000000	6.410898	0.013723	NaN	0.000000	0.001595	0.001707	28.0816	0.059089	0.001917	30.8157	-7.482929	-161.451	-0.005239	0.409426	-0.610042	-0.611366	0.013723	30.8157	-0.610376	-1.156868E+8	-1.186226E-10	NaN
731	1.000000	0.418747	7.37221e+06	-40539.1	1005.82	-29789.7	0.000000	0.000000	6.418893	-0.031596	NaN	0.000000	0.001593	0.001713	28.0815	0.034999	0.001953	17.9223	-151.44	-162.756	0.056478	0.417461	-0.602045	-0.603332	-0.031596	17.9223	-0.600723	-8.519573E+7	3.708691E-10	NaN
731	1.000000	0.426756	7.37221e+06	-40539.1	1005.82	-29789.7	0.000000	0.000000	6.426903	0.003798	NaN	0.000000	0.001586	0.001737	28.0815	0.070911	0.001994	35.5568	51.4313	-162.802	0.027655	0.425480	-0.594036	-0.595312	0.003798	35.5568	-0.594116	-6.908841E+7	-5.497890E-11	NaN
731	1.000000	0.434783	7.37221e+06	-40539.1	1005.82	-29789.7	0.000000	0.000000	6.434930	-0.028468	NaN	0.000000	0.001584	0.001712	28.0818	0.043621	0.001932	22.5746	54.626	-168.057	0.065135	0.433483	-0.586009	-0.587309	-0.028468	22.5746	-0.585063	-5.183019E+7	5.492594E-10	NaN
731	1.000000	0.442779	7.37221e+06	-40539.1	1005.82	-29789.7	0.000000	0.000000	6.442925	-0.029747	NaN	0.000000	0.001602	0.001718	28.0816	0.052286	0.002182	23.9644	-53.2827	-167.382	-0.034532	0.441439	-0.578013	-0.579353	-0.029747	23.9644	-0.577082	-4.022020E+7	7.396036E-10	NaN
731	1.000000	0.450778	7.37221e+06	-40539.1	1005.82	-29789.7	0.000000	0.000000	6.450924	-0.024758	NaN	0.000000	0.001604	0.001774	28.0817	0.037772	0.002100	17.9857	-44.683	-165.25	-0.113821	0.449468	-0.570015	-0.571324	-0.024758	17.9857	-0.568982	-3.108618E+7	7.964375E-10	NaN
731	1.000000	0.458772	7.37221e+06	-40539.1	1005.82	-29789.7	0.000000	0.000000	6.458921	0.030325	NaN	0.000000	0.001601	0.001788	28.0818	0.089053	0.002081	42.7954	67.9583	-165.34	0.005570	0.457434	-0.562020	-0.563358	0.030325	42.7954	-0.562551	-2.533167E+7	-1.197124E-9	NaN
731	1.000000	0.466788	7.37221e+06	-40539.1	1005.82	-29789.7	0.000000	0.000000	6.466932	-0.082408	NaN	0.000000	0.001601	0.001752	28.0816	0.055418	0.002136	25.9403	27.0562	-164.395	-0.064429	0.465492	-0.554004	-0.555300	-0.082408	25.9403	-0.551621	-1.788171E+7	4.608519E-9	NaN
731	1.000000	0.474780	7.37221e+06	-40539.1	1005.82	-29789.7	0.000000	0.000000	6.474925	-0.061591	NaN	0.000000	0.001554	0.001789	28.0819	0.063845	0.002000	31.924	-179.587	-165.111	-0.000194	0.473472	-0.546012	-0.547320	-0.061591	31.924	-0.544565	-1.427764E+7	4.313774E-9	NaN
731	1.000000	0.482790	7.37221e+06	-40539.1	1005.82	-29789.7	0.000000	0.000000	6.482940	0.059616	NaN	0.000000	0.001585	0.001743	28.0817	0.069681	0.001993	34.9664	-38.7305	-162.939	0.057456	0.481543	-0.538002	-0.539249	0.059616	34.9664	-0.539280	-1.206082E+7	-4.942987E-9	NaN
731	1.000000	0.490790	7.37221e+06	-40539.1	1005.82	-29789.7	0.000000	0.000000	6.490940	0.052297	NaN	0.000000	0.001575	0.001764	28.0819	0.019897	0.002112	9.418909	-28.6249	-166.266	0.060995	0.489563	-0.530002	-0.531229	0.052297	9.418909	-0.534166	-1.024281E+7	-5.105697E-9	NaN
731	1.000000	0.498787	7.37221e+06	-40539.1	1005.82	-29789.7	0.000000	0.000000	6.498932	-0.068779	NaN	0.000000	0.001602	0.001757	28.0818	0.037782	0.001927	19.6056	157.871	-164.215	-0.026319	0.497473	-0.522005	-0.523319	-0.068779	19.6056	-0.519374	-6.38097e+06	1.077875E-8	NaN
731	1.000000	0.506805	7.37221e+06	-40539.1	1005.82	-29789.7	0.000000	0.000000	6.506952	-0.027522	NaN	0.000000	0.001625	0.001742	28.082	0.041575	0.001949	21.3356	97.894	-164.996	0.019793	0.505488	-0.513987	-0.515304	-0.027522	21.3356	-0.513019	-5.20547e+06	5.287118E-9	NaN
731	1.000000	0.514800	7.37221e+06	-40539.1	1005.82	-29789.7	0.000000	0.000000	6.514946	-0.038422	NaN	0.000000	0.001564	0.001710	28.0819	0.133576	0.002171	61.5399	141.972	-164.949	-0.024485	0.513502	-0.505992	-0.507290	-0.038422	61.5399	-0.505524	-4.09306e+06	9.387226E-9	NaN
731	1.000000	0.522795	7.37221e+06	-40539.1	1005.82	-29789.7	0.000000	0.000000	6.522942	0.004618	NaN	0.000000	0.001578	0.001759	28.0818	0.092842	0.002016	46.0538	-47.7529	-166.629	-0.033746	0.521493	-0.497998	-0.499299	0.004618	46.0538	-0.498073	-3.22201e+06	-1.433174E-9	NaN
731	1.000000	0.530810	7.37221e+06	-40539.1	1005.82	-29789.7	0.000000	0.000000	6.530954	-0.092684	NaN	0.000000	0.001600	0.001734	28.0808	0.058802	0.002047	28.7286	144.328	-165.654	-0.011031	0.529525	-0.489982	-0.491267	-0.092684	28.7286	-0.487562	-2.29783e+06	4.033563E-8	NaN
731	1.000000	0.538815	7.37221e+06	-40539.1	1005.82	-29789.7	0.000000	0.000000	6.538961	-0.017312	NaN	0.000000	0.001597	0.001770	28.0806	0.022400	0.001949	11.4921	-24.0574	-164.803	-0.012235	0.537488	-0.481977	-0.483304	-0.017312	11.4921	-0.480847	-1.85093e+06	9.353313E-9	NaN
731	1.000000	0.546825	7.37221e+06	-40539.1	1005.82	-29789.7	0.000000	0.000000	6.546971	-0.038705	NaN	0.000000	0.001593	0.001747	28.0807	0.131613	0.001800	73.1197	-7.341412	-165.394	-0.024810	0.545478	-0.473967	-0.475314	-0.038705	73.1197	-0.473570	-1.46375e+06	2.644262E-8	NaN
731	1.000000	0.554827	7.37221e+06	-40539.1	1005.82	-29789.7	0.000000	0.000000	6.554974	0.007927	NaN	0.000000	0.001597	0.001725	28.0808	0.031921	0.002069	15.4269	-115.542	-162.48	0.001615	0.553454	-0.465966	-0.467338	0.007927	15.4269	-0.466351	-1.15934e+06	-6.837220E-9	NaN
731	1.000000	0.562809	7.37221e+06	-40539.1	1005.82	-29789.7	0.000000	0.000000	6.562956	0.007731	NaN	0.000000	0.001589	0.001733	28.0806	0.030543	0.002070	14.7559	-86.2067	-165.198	-0.025491	0.561488	-0.457983	-0.459305	0.007731	14.7559	-0.458376	-895771	-8.630707E-9	NaN
731	1.000000	0.570842	7.37221e+06	-40539.1	1005.82	-29789.7	0.000000	0.000000	6.570991	0.041197	NaN	0.000000	0.001615	0.001724	28.0806	0.107424	0.001892	56.7735	-111.738	-163.998	0.014463	0.569532	-0.449950	-0.451260	0.041197	56.7735	-0.450495	-693918	-5.936934E-8	NaN
731	1.000000	0.578851	7.37221e+06	-40539.1	1005.82	-29789.7	0.000000	0.000000	6.578998	-0.021240	NaN	0.000000	0.001614	0.001719	28.0806	0.167874	0.001988	84.4324	90.424	-165.12	0.022027	0.577506	-0.441941	-0.443286	-0.021240	84.4324	-0.441752	-522506	4.064982E-8	NaN
731	1.000000	0.586827	7.37221e+06	-40539.1	1005.82	-29789.7	0.000000	0.000000	6.586975	0.007520	NaN	0.000000	0.001594	0.001718	28.0806	0.034209	0.002032	16.8387	-62.3343	-162.746	-0.015938	0.585517	-0.433965	-0.435275	0.007520	16.8387	-0.434300	-410071	-1.833932E-8	NaN
731	1.000000	0.594838	7.37221e+06	-40539.1	1005.82	-29789.7	0.000000	0.000000	6.594986	0.012622	NaN	0.000000	0.001621	0.001745	28.0808	0.063527	0.002148	29.5761	169.058	-164.112	0.012330	0.593507	-0.425954	-0.427285	0.012622	29.5761	-0.426274	-315736	-3.997522E-8	NaN
731	1.000000	0.602827	7.37221e+06	-40539.1	1005.82	-29789.7	0.000000	0.000000	6.602973	-0.021178	NaN	0.000000	0.001615	0.001727	28.0805	0.056816	0.001920	29.5969	136.511	-161.636	-0.068368	0.601535	-0.417965	-0.419257	-0.021178	29.5969	-0.417429	-236556	8.952751E-8	NaN
731	1.000000	0.610839	7.37221e+06	-40539.1	1005.82	-29789.7	0.000000	0.000000	6.610985	-0.019080	NaN	0.000000	0.001604	0.001709	28.0808	0.041958	0.001963	21.3715	-110.076	-163.146	-0.006134	0.609506	-0.409953	-0.411287	-0.019080	21.3715	-0.409284	-181223	1.052826E-7	NaN
731	1.000000	0.618839	7.37221e+06	-40539.1	1005.82	-29789.7	0.000000	0.000000	6.618985	-0.047285	NaN	0.000000	0.001603	0.001696	28.0807	0.061245	0.001946	31.4791	35.0983	-162.266	-0.048604	0.617562	-0.401953	-0.403230	-0.047285	31.4791	-0.400826	-137333	3.443120E-7	NaN
731	1.000000	0.626865	7.37221e+06	-40539.1	1005.82	-29789.7	0.000000	0.000000	6.627014	0.046747	NaN	0.000000	0.001592	0.001719	28.0807	0.039279	0.002091	18.7806	59.568	-162.47	0.052691	0.625508	-0.393927	-0.395284	0.046747	18.7806	-0.395794	-116405	-4.015893E-7	NaN
731	1.000000	0.634835	7.37221e+06	-40539.1	1005.82	-29789.7	0.000000	0.000000	6.634981	-0.021247	NaN	0.000000	0.001612	0.001751	28.0806	0.131959	0.002013	65.5462	-30.7094	-165.156	0.040149	0.633487	-0.385958	-0.387306	-0.021247	65.5462	-0.385714	-83526	2.543802E-7	NaN
731	1.000000	0.642851	7.37221e+06	-40539.1	1005.82	-29789.7	0.000000	0.000000	6.642997	-0.042546	NaN	0.000000	0.001588	0.001710	28.0808	0.020715	0.001897	10.9188	-53.2358	-165.157	-0.060540	0.641545	-0.377941	-0.379247	-0.042546	10.9188	-0.375019	-58659.7	7.252949E-7	NaN
731	1.000000	0.650899	7.37221e+06	-40539.1	1005.82	-29789.7	0.000000	0.000000	6.651046	-0.025863	NaN	0.000000	0.001577	0.001709	28.081	0.088711	0.001968	45.076	-15.3666	-162.714	-0.049991	0.649626	-0.369893	-0.371167	-0.025863	45.076	-0.369463	-48796.4	5.300247E-7	NaN
731	1.000000	0.658868	7.37221e+06	-40539.1	1005.82	-29789.7	0.000000	0.000000	6.659013	-0.072007	NaN	0.000000	0.001624	0.001718	28.0806	0.143930	0.001931	74.5436	-19.7933	-166.219	-0.111267	0.657519	-0.361924	-0.363273	-0.072007	74.5436	-0.361199	-37083.3	1.941772E-6	NaN
731	1.000000	0.666870	7.37221e+06	-40539.1	1005.82	-29789.7	0.000000	0.000000	6.667015	-0.059474	NaN	0.000000	0.001606	0.001732	28.082	0.040823	0.002081	19.6194	81.0356	-167.707	0.031103	0.665540	-0.353922	-0.355253	-0.059474	19.6194	-0.351649	-26972.8	2.204966E-6	NaN
731	1.000000	0.674888	7.37221e+06	-40539.1	1005.82	-29789.7	0.000000	0.000000	6.675031	-0.099477	NaN	0.000000	0.001566	0.001767	28.0819	0.052687	0.001960	26.8805	154.165	-168.224	-0.081661	0.673558	-0.345905	-0.347234	-0.099477	26.8805	-0.343129	-20283	4.904429E-6	NaN
731	1.000000	0.682838	7.37221e+06	-40539.1	1005.82	-29789.7	0.000000	0.000000	6.682984	-0.020021	NaN	0.000000	0.001582	0.001735	28.082	0.055327	0.002096	26.3905	105.286	-165.877	0.003033	0.681542	-0.337954	-0.339250	-0.020021	26.3905	-0.337385	-16727	1.196934E-6	NaN
731	1.000000	0.690868	7.37221e+06	-40539.1	1005.82	-29789.7	0.000000	0.000000	6.691012	-0.089190	NaN	0.000000	0.001584	0.001714	28.0818	0.065146	0.002098	31.0497	-150.778	-166.861	-0.124497	0.689611	-0.329924	-0.331181	-0.089190	31.0497	-0.327770	-12099.7	7.371238E-6	NaN
731	1.000000	0.698885	7.37221e+06	-40539.1	1005.82	-29789.7	0.000000	0.000000	6.699032	0.000503	NaN	0.000000	0.001617	0.001714	28.0819	0.076262	0.002064	36.9521	-1.134332	-163.812	0.035926	0.697629	-0.321907	-0.323163	0.000503	36.9521	-0.321918	-9927.69	-5.065150E-8	NaN
731	1.000000	0.706861	7.37221e+06	-40539.1	1005.82	-29789.7	0.000000	0.000000	6.707006	-0.038219	NaN	0.000000	0.001579	0.001728	28.0819	0.093609	0.002126	44.0382	-26.3666	-160.461	0.070621	0.705583	-0.313932	-0.315209	-0.038219	44.0382	-0.313281	-7405.63	5.160782E-6	NaN
731	1.000000	0.714912	7.37221e+06	-40539.1	1005.82	-29789.7	0.000000	0.000000	6.715058	-0.033529	NaN	0.000000	0.001590	0.001756	28.0817	0.022878	0.002051	11.1522	153.99	-166.184	0.007388	0.713560	-0.305881	-0.307232	-0.033529	11.1522	-0.303626	-5327.82	6.293264E-6	NaN
731	1.000000	0.722893	7.37221e+06	-40539.1	1005.82	-29789.7	0.000000	0.000000	6.723040	-0.017781	NaN	0.000000	0.001575	0.001683	28.0818	0.078047	0.002024	38.5705	-149.624	-164.52	0.019286	0.721597	-0.297899	-0.299195	-0.017781	38.5705	-0.297554	-4327.02	4.109383E-6	NaN
731	1.000000	0.730889	7.37221e+06	-40539.1	1005.82	-29789.7	0.000000	0.000000	6.731037	0.026472	NaN	0.000000	0.001590	0.001735	28.0818	0.107536	0.002024	53.1222	104.301	-164.891	-0.051566	0.729608	-0.289904	-0.291184	0.026472	53.1222	-0.290277	-3368.65	-7.858237E-6	NaN
731	1.000000	0.738882	7.37221e+06	-40539.1	1005.82	-29789.7	0.000000	0.000000	6.739031	0.044365	NaN	0.000000	0.001584	0.001712	28.0818	0.056156	0.001905	29.4726	22.4749	-168.67	0.018486	0.737590	-0.281910	-0.283202	0.044365	29.4726	-0.283039	-2622.85	-1.691478E-5	NaN
731	1.000000	0.746907	7.37221e+06	-40539.1	1005.82	-29789.7	0.000000	0.000000	6.747053	-0.030992	NaN	0.000000	0.001609	0.001718	28.082	0.067898	0.001986	34.1893	-37.1829	-164.398	0.001585	0.745577	-0.273885	-0.275215	-0.030992	34.1893	-0.273205	-1862.97	1.663562E-5	NaN
731	1.000000	0.754924	7.37221e+06	-40539.1	1005.82	-29789.7	0.000000	0.000000	6.755069	-0.060548	NaN	0.000000	0.001600	0.001748	28.0818	0.034001	0.002048	16.6024	-159.956	-166.263	-0.012610	0.753627	-0.265868	-0.267165	-0.060548	16.6024	-0.263133	-1308.79	4.626287E-5	NaN
731	1.000000	0.762889	7.37221e+06	-40539.1	1005.82	-29789.7	0.000000	0.000000	6.763033	-0.080801	NaN	0.000000	0.001607	0.001720	28.082	0.135658	0.002025	67.0009	132.368	-161.007	-0.066062	0.761597	-0.257903	-0.259195	-0.080801	67.0009	-0.256999	-1054.05	7.665799E-5	NaN
731	1.000000	0.770902	7.37221e+06	-40539.1	1005.82	-29789.7	0.000000	0.000000	6.771051	0.054687	NaN	0.000000	0.001607	0.001759	28.0818	0.028043	0.002094	13.3908	-50.534	-163.52	-0.048705	0.769571	-0.249891	-0.251222	0.054687	13.3908	-0.252954	-913.234	-5.988290E-5	NaN
731	1.000000	0.778878	7.37221e+06	-40539.1	1005.82	-29789.7	0.000000	0.000000	6.779022	-0.066425	NaN	0.000000	0.001638	0.001756	28.0821	0.073480	0.002131	34.4774	-10.8008	-163.802	-0.057463	0.777645	-0.241914	-0.243148	-0.066425	34.4774	-0.240470	-584.635	0.000114	NaN
731	1.000000	0.786894	7.37221e+06	-40539.1	1005.82	-29789.7	0.000000	0.000000	6.787040	-0.043335	NaN	0.000000	0.001607	0.001781	28.082	0.038810	0.002170	17.8843	76.6885	-164.238	0.019414	0.785621	-0.233898	-0.235171	-0.043335	17.8843	-0.232081	-431.852	0.000100	NaN
731	1.000000	0.794924	7.37221e+06	-40539.1	1005.82	-29789.7	0.000000	0.000000	6.795069	-0.055112	NaN	0.000000	0.001635	0.001661	28.082	0.075899	0.002088	36.3491	70.6522	-165.213	-0.079171	0.793592	-0.225868	-0.227200	-0.055112	36.3491	-0.224731	-330.416	0.000167	NaN
731	1.000000	0.802918	7.37221e+06	-40539.1	1005.82	-29789.7	0.000000	0.000000	6.803067	0.028915	NaN	0.000000	0.001652	0.001704	28.0806	0.108107	0.001903	56.7997	71.4578	-164.964	-0.016103	0.801653	-0.217874	-0.219139	0.028915	56.7997	-0.218256	-260.48	-0.000111	NaN
731	1.000000	0.810915	7.37221e+06	-40539.1	1005.82	-29789.7	0.000000	0.000000	6.811064	0.049822	NaN	0.000000	0.001643	0.001713	28.0807	0.077022	0.001994	38.6235	33.0545	-166.453	0.051660	0.809610	-0.209878	-0.211182	0.049822	38.6235	-0.210845	-197.923	-0.000252	NaN
731	1.000000	0.818909	7.37221e+06	-40539.1	1005.82	-29789.7	0.000000	0.000000	6.819058	0.029547	NaN	0.000000	0.001625	0.001693	28.0807	0.049091	0.002008	24.4457	170.201	-164.413	0.057596	0.817648	-0.201883	-0.203145	0.029547	24.4457	-0.202790	-146.368	-0.000202	NaN
731	1.000000	0.826903	7.37221e+06	-40539.1	1005.82	-29789.7	0.000000	0.000000	6.827047	-0.075551	NaN	0.000000	0.001580	0.001704	28.0807	0.088406	0.001991	44.4011	68.219	-165.076	-0.058505	0.825633	-0.193889	-0.195160	-0.075551	44.4011	-0.192613	-99.4454	0.000760	NaN
731	1.000000	0.834943	7.37221e+06	-40539.1	1005.82	-29789.7	0.000000	0.000000	6.835089	-0.040032	NaN	0.000000	0.001610	0.001730	28.081	0.018623	0.001969	9.455949	82.7247	-163.14	-0.091668	0.833639	-0.185849	-0.187153	-0.040032	9.455949	-0.182674	-67.7395	0.000591	NaN
731	1.000000	0.842957	7.37221e+06	-40539.1	1005.82	-29789.7	0.000000	0.000000	6.843101	-0.104517	NaN	0.000000	0.001631	0.001667	28.0807	0.148330	0.002064	71.8597	-149.029	-165.18	-0.027953	0.841626	-0.177835	-0.179166	-0.104517	71.8597	-0.176744	-53.6898	0.001947	NaN
731	1.000000	0.850928	7.37221e+06	-40539.1	1005.82	-29789.7	0.000000	0.000000	6.851076	0.025551	NaN	0.000000	0.001623	0.001693	28.0806	0.066830	0.001960	34.0965	10.8652	-165.848	-0.024142	0.849648	-0.169864	-0.171144	0.025551	34.0965	-0.170426	-41.7846	-0.000612	NaN
731	1.000000	0.858947	7.37221e+06	-40539.1	1005.82	-29789.7	0.000000	0.000000	6.859097	0.050310	NaN	0.000000	0.001633	0.001675	28.0806	0.057289	0.002027	28.2637	27.7992	-167.241	0.002826	0.857603	-0.161845	-0.163189	0.050310	28.2637	-0.163180	-31.209	-0.001612	NaN
731	1.000000	0.866955	7.37221e+06	-40539.1	1005.82	-29789.7	0.000000	0.000000	6.867102	-0.014547	NaN	0.000000	0.001598	0.001702	28.0808	0.114211	0.002049	55.7312	-69.0641	-163.564	-0.033643	0.865660	-0.153837	-0.155132	-0.014547	55.7312	-0.153641	-21.0902	0.000690	NaN
731	1.000000	0.874943	7.37221e+06	-40539.1	1005.82	-29789.7	0.000000	0.000000	6.875088	-0.047040	NaN	0.000000	0.001652	0.001651	28.0807	0.042383	0.001957	21.6548	-92.2646	-165.805	-0.056345	0.873668	-0.145849	-0.147124	-0.047040	21.6548	-0.144220	-14.1815	0.003317	NaN
731	1.000000	0.882904	7.37221e+06	-40539.1	1005.82	-29789.7	0.000000	0.000000	6.883051	-0.002324	NaN	0.000000	0.001612	0.001658	28.0808	0.098609	0.002082	47.3593	-76.817	-164.199	0.051660	0.881647	-0.137888	-0.139146	-0.002324	47.3593	-0.137851	-10.7762	0.000216	NaN
731	1.000000	0.890966	7.37221e+06	-40539.1	1005.82	-29789.7	0.000000	0.000000	6.891117	0.076601	NaN	0.000000	0.001626	0.001679	28.081	0.092298	0.002127	43.3979	33.1872	-166.677	0.044742	0.889651	-0.129826	-0.131142	0.076601	43.3979	-0.131149	-8.022205	-0.009549	NaN
731	1.000000	0.898956	7.37221e+06	-40539.1	1005.82	-29789.7	0.000000	0.000000	6.899099	-0.103815	NaN	0.000000	0.001582	0.001679	28.0808	0.046055	0.001892	24.3398	10.7116	-163.651	-0.074937	0.897636	-0.121836	-0.123156	-0.103815	24.3398	-0.118637	-4.534123	0.022896	NaN
731	1.000000	0.906957	7.37221e+06	-40539.1	1005.82	-29789.7	0.000000	0.000000	6.907105	0.015643	NaN	0.000000	0.001580	0.001660	28.0806	0.055435	0.001969	28.1539	112.926	-165.165	-0.045794	0.905665	-0.113835	-0.115127	0.015643	28.1539	-0.114252	-3.686869	-0.004243	NaN
731	1.000000	0.914957	7.37221e+06	-40539.1	1005.82	-29789.7	0.000000	0.000000	6.915104	-0.008571	NaN	0.000000	0.001591	0.001640	28.0809	0.028354	0.002147	13.2049	84.6174	-160.771	-0.062915	0.913667	-0.105835	-0.107125	-0.008571	13.2049	-0.105348	-2.391582	0.003584	NaN
731	1.000000	0.922978	7.37221e+06	-40539.1	1005.82	-29789.7	0.000000	0.000000	6.923122	-0.084305	NaN	0.000000	0.001634	0.001694	28.0806	0.034177	0.001953	17.4972	-155.912	-160.822	-0.038067	0.921643	-0.097814	-0.099149	-0.084305	17.4972	-0.094200	-1.352527	0.062332	NaN
731	1.000000	0.930955	7.37221e+06	-40539.1	1005.82	-29789.7	0.000000	0.000000	6.931104	0.054914	NaN	0.000000	0.001645	0.001659	28.0808	0.064077	0.002081	30.7957	-70.8889	-163.925	-0.033080	0.929684	-0.089837	-0.091108	0.054914	30.7957	-0.091175	-1.151551	-0.047687	NaN
731	1.000000	0.938971	7.37221e+06	-40539.1	1005.82	-29789.7	0.000000	0.000000	6.939118	-0.014922	NaN	0.000000	0.001626	0.001678	28.0821	0.029648	0.002063	14.3692	-147.74	-163.566	-0.009894	0.937664	-0.081821	-0.083128	-0.014922	14.3692	-0.081042	-0.657147	0.022707	NaN
731	1.000000	0.946988	7.37221e+06	-40539.1	1005.82	-29789.7	0.000000	0.000000	6.947135	-0.005413	NaN	0.000000	0.001627	0.001724	28.0819	0.032910	0.001974	16.668	133.613	-169.334	-0.058162	0.945682	-0.073804	-0.075110	-0.005413	16.668	-0.073561	-0.423735	0.012775	NaN
731	1.000000	0.955003	7.37221e+06	-40539.1	1005.82	-29789.7	0.000000	0.000000	6.955147	-0.067701	NaN	0.000000	0.001605	0.001648	28.0819	0.064056	0.001999	32.0472	137.123	-164.8	-0.093832	0.953678	-0.065789	-0.067114	-0.067701	32.0472	-0.064205	-0.236842	0.285847	NaN
731	1.000000	0.963009	7.37221e+06	-40539.1	1005.82	-29789.7	0.000000	0.000000	6.963156	-0.004691	NaN	0.000000	0.001630	0.001666	28.0818	0.120966	0.002039	59.3311	9.239224	-165.962	0.017210	0.961683	-0.057783	-0.059109	-0.004691	59.3311	-0.057724	-0.154786	0.030304	NaN
731	1.000000	0.970961	7.37221e+06	-40539.1	1005.82	-29789.7	0.000000	0.000000	6.971105	-0.065527	NaN	0.000000	0.001628	0.001607	28.0818	0.112298	0.001973	56.9313	39.9615	-164.675	0.037228	0.969636	-0.049832	-0.051156	-0.065527	56.9313	-0.048968	-0.084915	0.771679	NaN
731	1.000000	0.979004	7.37221e+06	-40539.1	1005.82	-29789.7	0.000000	0.000000	6.979151	-0.000668	NaN	0.000000	0.001623	0.001621	28.082	0.037826	0.001974	19.1607	-38.6354	-167.92	-0.027212	0.977670	-0.041789	-0.043122	-0.000668	19.1607	-0.041762	-0.051170	0.013049	NaN
731	1.000000	0.986964	7.37221e+06	-40539.1	1005.82	-29789.7	0.000000	0.000000	6.987111	-0.016672	NaN	0.000000	0.001609	0.001670	28.0818	0.007357	0.002000	3.678992	-20.8885	-164.478	0.093485	0.985624	-0.033828	-0.035168	-0.016672	3.678992	-0.030429	-0.023657	0.704768	NaN
731	1.000000	0.994971	7.37221e+06	-40539.1	1005.82	-29789.7	0.000000	0.000000	6.995118	-0.011161	NaN	0.000000	0.001638	0.001651	28.0817	0.091666	0.002113	43.3809	-95.1774	-163.604	-0.017318	0.993730	-0.025821	-0.027062	-0.011161	43.3809	-0.025628	-0.017522	0.636992	NaN
731	1.000000	1.002993	7.37221e+06	-40539.1	1005.82	-29789.7	0.000000	0.000000	7.003139	-0.037918	NaN	0.000000	0.001619	0.001693	28.0818	0.069118	0.001893	36.5127	126.176	-163.896	-0.053067	1.001696	-0.017799	-0.019096	-0.037918	36.5127	-0.017020	-0.010523	3.603145	NaN
731	1.000000	1.011020	7.37221e+06	-40539.1	1005.82	-29789.7	0.000000	0.000000	7.011167	-0.023547	NaN	0.000000	0.001604	0.001687	28.0818	0.021655	0.001880	11.5177	-128.352	-169.551	-0.091910	1.009681	-0.009772	-0.011111	-0.023547	11.5177	-0.008239	-0.005371	4.384066	NaN
731	1.000000	1.018983	7.37221e+06	-40539.1	1005.82	-29789.7	0.000000	0.000000	7.019161	0.747878	NaN	0.000000	0.001576	0.001693	28.0819	1.253134	0.001904	658.064	12.1448	-166.23	0.226859	1.017704	-0.001809	-0.003088	0.747878	658.064	-0.002662	-0.001893	-395.114	NaN
731	2.000000	1.026463	7.37221e+06	-40539.1	1005.82	-29789.7	0.000000	0.000000	7.026961	8.525031	NaN	0.000000	0.001569	0.001700	28.0819	8.212054	0.001685	4873.8	10.6333	-172.126	8.275199	1.025608	0.005671	0.004816	8.525031	4873.8	0.004359	0.003556	2397.35	74672.2
731	2.000000	1.028599	7.37221e+06	-40539.1	1005.82	-29789.7	0.000000	0.000000	7.029180	10.5484	NaN	0.000000	0.001605	0.001716	28.0822	10.1009	0.001688	5985.34	3.271705	-170.17	10.3009	1.028292	0.007807	0.007499	10.5484	5985.34	0.006485	0.005530	1907.5	73536.3
731	2.000000	1.030591	7.37221e+06	-40539.1	1005.82	-29789.7	0.000000	0.000000	7.031285	13.3099	NaN	0.000000	0.001604	0.001666	28.0817	11.8944	0.001787	6655.98	3.224952	-170.084	13.0411	1.030283	0.009798	0.009490	13.3099	6655.98	0.008299	0.007351	1810.54	70925.5
731	2.000000	1.032530	7.37221e+06	-40539.1	1005.82	-29789.7	0.000000	0.000000	7.033438	18.5077	NaN	0.000000	0.001603	0.001692	28.0816	13.7505	0.001591	8643.36	1.889361	-170.559	17.2943	1.032262	0.011738	0.011470	18.5077	8643.36	0.010132	0.009328	1984.09	81763.6
731	2.000000	1.034492	7.37221e+06	-40539.1	1005.82	-29789.7	0.000000	0.000000	7.035507	21.1055	NaN	0.000000	0.001591	0.001639	28.082	16.2515	0.001750	9284.49	4.665050	-173.68	19.6402	1.034196	0.013700	0.013404	21.1055	9284.49	0.011995	0.011484	1837.76	79154.8
731	2.000000	1.036594	7.37221e+06	-40539.1	1005.82	-29789.7	0.000000	0.000000	7.037755	24.6544	NaN	0.000000	0.001590	0.001641	28.0829	19.0592	0.001731	11012.1	7.815473	-178.011	25.0875	1.036291	0.015802	0.015498	24.6544	11012.1	0.014123	0.014134	1744.37	84628.5
731	2.000000	1.038500	7.37221e+06	-40539.1	1005.82	-29789.7	0.000000	0.000000	7.039982	32.4715	NaN	0.000000	0.001596	0.001636	28.0809	20.6048	0.001726	11941.3	1.716604	-173.106	31.8806	1.038206	0.017708	0.017414	32.4715	11941.3	0.015668	0.016187	2006.06	85752
731	2.000000	1.040516	7.37221e+06	-40539.1	1005.82	-29789.7	0.000000	0.000000	7.042225	37.99	NaN	0.000000	0.001552	0.001625	28.0804	23.7519	0.001902	12486	3.315248	-172.971	36.9726	1.040181	0.019724	0.019388	37.99	12486	0.017442	0.018681	2033.6	83463.4
731	2.000000	1.042499	7.37221e+06	-40539.1	1005.82	-29789.7	0.000000	0.000000	7.044483	44.6865	NaN	0.000000	0.001654	0.001610	28.0806	24.7602	0.001693	14624.4	4.063001	-175.988	44.0363	1.042204	0.021707	0.021412	44.6865	14624.4	0.019415	0.021632	2065.77	90845.4
731	2.000000	1.044500	7.37221e+06	-40539.1	1005.82	-29789.7	0.000000	0.000000	7.046715	50.2925	NaN	0.000000	0.001638	0.001637	28.0808	26.9174	0.001715	15698.2	2.190720	-175.668	49.5691	1.044224	0.023708	0.023432	50.2925	15698.2	0.021306	0.024636	2041.46	91378.4
731	2.000000	1.046515	7.37221e+06	-40539.1	1005.82	-29789.7	0.000000	0.000000	7.048942	55.4574	NaN	0.000000	0.001668	0.001677	28.0808	29.1918	0.001903	15336.2	7.254412	-179.047	55.0046	1.046143	0.025723	0.025351	55.4574	15336.2	0.023011	0.027496	2016.91	84499.9
731	2.000000	1.048438	7.37221e+06	-40539.1	1005.82	-29789.7	0.000000	0.000000	7.051227	64.2698	NaN	0.000000	0.001628	0.001688	28.0807	31.0886	0.001876	16576.1	3.965790	-177.558	62.1172	1.048151	0.027646	0.027359	64.2698	16576.1	0.024738	0.030541	2104.37	86659
731	2.000000	1.050491	7.37221e+06	-40539.1	1005.82	-29789.7	0.000000	0.000000	7.053464	68.7647	NaN	0.000000	0.001709	0.001674	28.0806	32.7247	0.001803	18151.2	4.608756	179.912	67.3463	1.050165	0.029698	0.029373	68.7647	18151.2	0.026857	0.034481	1994.28	89307.8
731	2.000000	1.052528	7.37221e+06	-40539.1	1005.82	-29789.7	0.000000	0.000000	7.056047	82.0475	NaN	0.000000	0.001685	0.001683	28.0806	33.9624	0.001686	20137.9	7.777467	177.929	82.6876	1.052108	0.031736	0.031316	82.0475	20137.9	0.028680	0.038053	2156.15	94317.9
731	2.000000	1.054492	7.37221e+06	-40539.1	1005.82	-29789.7	0.000000	0.000000	7.058044	82.8449	NaN	0.000000	0.001673	0.001661	28.0806	36.8825	0.001844	20004.2	5.967809	178.533	85.4023	1.054205	0.033700	0.033413	82.8449	20004.2	0.030594	0.041984	1973.26	89197.8
731	2.000000	1.056463	7.37221e+06	-40539.1	1005.82	-29789.7	0.000000	0.000000	7.060400	92.1994	NaN	0.000000	0.001667	0.001690	28.0806	37.9315	0.001879	20185.5	2.424747	-177.948	89.0952	1.056165	0.035671	0.035373	92.1994	20185.5	0.032245	0.045526	2025.18	86433.1
731	2.000000	1.058437	7.37221e+06	-40539.1	1005.82	-29789.7	0.000000	0.000000	7.062680	99.66	NaN	0.000000	0.001622	0.001665	28.0815	39.2286	0.001721	22795.4	4.528151	178.627	98.6604	1.058158	0.037645	0.037366	99.66	22795.4	0.034366	0.050280	1982.1	92880.2
731	2.000000	1.060503	7.37221e+06	-40539.1	1005.82	-29789.7	0.000000	0.000000	7.064969	105.096	NaN	0.000000	0.001653	0.001659	28.0809	42.6041	0.001817	23442.8	7.589496	175.472	106.194	1.060142	0.039711	0.039349	105.096	23442.8	0.036348	0.054932	1913.21	91384
731	2.000000	1.062467	7.37221e+06	-40539.1	1005.82	-29789.7	0.000000	0.000000	7.067386	116.102	NaN	0.000000	0.001661	0.001627	28.0806	42.8585	0.001765	24283.4	4.303499	178.919	114.644	1.062111	0.041675	0.041319	116.102	24283.4	0.038089	0.059184	1961.72	91197.5
731	2.000000	1.064429	7.37221e+06	-40539.1	1005.82	-29789.7	0.000000	0.000000	7.069617	122.653	NaN	0.000000	0.001654	0.001647	28.0809	46.1393	0.001890	24406.8	6.395682	176.652	121.601	1.064161	0.043637	0.043369	122.653	24406.8	0.039868	0.063687	1925.86	88360.5
731	2.000000	1.066443	7.37221e+06	-40539.1	1005.82	-29789.7	0.000000	0.000000	7.072054	132.96	NaN	0.000000	0.001651	0.001642	28.0808	47.4999	0.001836	25866.1	4.798623	177.015	130.142	1.066195	0.045651	0.045403	132.96	25866.1	0.041795	0.068751	1933.95	90129.2
731	2.000000	1.068421	7.37221e+06	-40539.1	1005.82	-29789.7	0.000000	0.000000	7.074376	141.333	NaN	0.000000	0.001655	0.001646	28.0814	48.5001	0.001645	29486.3	5.282274	175.455	140.059	1.068111	0.047629	0.047319	141.333	29486.3	0.044034	0.074868	1887.77	98456.7
731	2.000000	1.070445	7.37221e+06	-40539.1	1005.82	-29789.7	0.000000	0.000000	7.076715	148.992	NaN	0.000000	0.001639	0.001629	28.081	52.5374	0.001838	28584.5	5.931895	175.006	146.162	1.070208	0.049652	0.049416	148.992	28584.5	0.045743	0.079711	1869.14	92500.4
731	2.000000	1.072445	7.37221e+06	-40539.1	1005.82	-29789.7	0.000000	0.000000	7.079260	162.261	NaN	0.000000	0.001606	0.001704	28.0821	53.2574	0.001842	28911.4	4.066883	177.14	160.814	1.072135	0.051652	0.051343	162.261	28911.4	0.047443	0.084674	1916.3	90775
731	2.000000	1.074402	7.37221e+06	-40539.1	1005.82	-29789.7	0.000000	0.000000	7.081468	168.351	NaN	0.000000	0.001599	0.001679	28.0822	54.9007	0.001888	29077.8	2.700879	179.01	164.376	1.074064	0.053610	0.053272	168.351	29077.8	0.049268	0.090164	1867.16	88474.4
731	2.000000	1.076451	7.37221e+06	-40539.1	1005.82	-29789.7	0.000000	0.000000	7.083894	177.527	NaN	0.000000	0.001603	0.001677	28.0822	56.6958	0.001812	31295.2	4.874014	176.283	174.81	1.076025	0.055659	0.055233	177.527	31295.2	0.051405	0.096805	1833.86	91897.3
731	2.000000	1.078491	7.37221e+06	-40539.1	1005.82	-29789.7	0.000000	0.000000	7.086305	186.549	NaN	0.000000	0.001633	0.001690	28.0823	57.8531	0.001843	31396.9	2.639224	178.193	188.996	1.078129	0.057699	0.057337	186.549	31396.9	0.053243	0.102699	1816.47	89511.1
731	2.000000	1.080448	7.37221e+06	-40539.1	1005.82	-29789.7	0.000000	0.000000	7.088677	196.647	NaN	0.000000	0.001628	0.001674	28.0825	59.1624	0.001740	33997.2	1.960348	178.245	197.743	1.080217	0.059656	0.059425	196.647	33997.2	0.055318	0.109557	1794.93	93841.9
731	2.000000	1.082432	7.37221e+06	-40539.1	1005.82	-29789.7	0.000000	0.000000	7.091351	213.449	NaN	0.000000	0.001631	0.001693	28.0821	60.0845	0.001781	33741.8	4.926824	175.839	211.948	1.082071	0.061640	0.061279	213.449	33741.8	0.056895	0.114911	1857.52	90941.4
731	2.000000	1.084390	7.37221e+06	-40539.1	1005.82	-29789.7	0.000000	0.000000	7.093574	219.897	NaN	0.000000	0.001632	0.001696	28.0823	62.1858	0.001711	36346.9	3.250060	176.168	218.029	1.084117	0.063597	0.063325	219.897	36346.9	0.059060	0.122459	1795.68	94895.3
731	2.000000	1.086436	7.37221e+06	-40539.1	1005.82	-29789.7	0.000000	0.000000	7.096059	230.566	NaN	0.000000	0.001653	0.001637	28.0821	64.7827	0.001887	34336.2	8.215107	172.485	227.911	1.086034	0.065644	0.065242	230.566	34336.2	0.060608	0.127998	1801.32	87684.8
731	2.000000	1.088417	7.37221e+06	-40539.1	1005.82	-29789.7	0.000000	0.000000	7.098248	235.641	NaN	0.000000	0.001602	0.001667	28.0823	66.8127	0.001759	37989.2	8.230336	170.193	234.257	1.088218	0.067625	0.067426	235.641	37989.2	0.062973	0.136683	1723.99	93880.6
731	2.000000	1.090455	7.37221e+06	-40539.1	1005.82	-29789.7	0.000000	0.000000	7.101237	258.781	NaN	0.000000	0.001631	0.001698	28.0821	68.3642	0.001773	38549.9	2.450178	176.859	259.253	1.090107	0.069663	0.069315	258.781	38549.9	0.064628	0.142927	1810.59	93162.1
731	2.000000	1.092426	7.37221e+06	-40539.1	1005.82	-29789.7	0.000000	0.000000	7.103667	269.934	NaN	0.000000	0.001667	0.001667	28.0822	70.2999	0.001850	37991.5	9.319813	170.496	269.175	1.092043	0.071634	0.071251	269.934	37991.5	0.066305	0.149384	1806.98	89806.5
731	2.000000	1.094477	7.37221e+06	-40539.1	1005.82	-29789.7	0.000000	0.000000	7.106284	283.74	NaN	0.000000	0.001632	0.001691	28.0825	73.142	0.001832	39933.9	8.345399	171.692	285.143	1.094057	0.073684	0.073265	283.74	39933.9	0.068355	0.157462	1801.96	91944.5
731	2.000000	1.096435	7.37221e+06	-40539.1	1005.82	-29789.7	0.000000	0.000000	7.108646	293.535	NaN	0.000000	0.001655	0.001672	28.0822	74.8113	0.001865	40116.8	4.851471	174.225	292.298	1.096105	0.075643	0.075313	293.535	40116.8	0.070155	0.164720	1782.02	90307.9
731	2.000000	1.098475	7.37221e+06	-40539.1	1005.82	-29789.7	0.000000	0.000000	7.111276	307.914	NaN	0.000000	0.001636	0.001679	28.0821	75.7312	0.001755	43146.5	4.415092	173.815	309.584	1.098063	0.077682	0.077271	307.914	43146.5	0.072330	0.173695	1772.72	94585.6
731	2.000000	1.100509	7.37221e+06	-40539.1	1005.82	-29789.7	0.000000	0.000000	7.113562	314.037	NaN	0.000000	0.001640	0.001680	28.0821	78.9195	0.001765	44706.7	4.272525	173.602	318.068	1.100194	0.079717	0.079402	314.037	44706.7	0.074449	0.182654	1719.3	95572.3
731	2.000000	1.102407	7.37221e+06	-40539.1	1005.82	-29789.7	0.000000	0.000000	7.116365	336.074	NaN	0.000000	0.001630	0.001703	28.0824	79.3657	0.001738	45668.3	4.872453	173.193	332.209	1.102082	0.081615	0.081290	336.074	45668.3	0.076095	0.189764	1771.01	95781.4
731	2.000000	1.104391	7.37221e+06	-40539.1	1005.82	-29789.7	0.000000	0.000000	7.118611	342.423	NaN	0.000000	0.001600	0.001702	28.0823	82.163	0.001884	43608.1	4.183937	174.581	340.696	1.104060	0.083599	0.083268	342.423	43608.1	0.077710	0.196856	1739.46	89797.7
731	2.000000	1.106438	7.37221e+06	-40539.1	1005.82	-29789.7	0.000000	0.000000	7.121465	362.069	NaN	0.000000	0.001619	0.001673	28.081	83.9933	0.001848	45440.5	5.515339	172.563	359.3	1.106089	0.085646	0.085296	362.069	45440.5	0.079670	0.205632	1760.77	91552.7
731	2.000000	1.108507	7.37221e+06	-40539.1	1005.82	-29789.7	0.000000	0.000000	7.123917	371.389	NaN	0.000000	0.001640	0.001666	28.0809	84.9588	0.001686	50389.4	3.173952	173.719	374.797	1.108159	0.087715	0.087367	371.389	50389.4	0.082187	0.217166	1710.16	98790.8
731	2.000000	1.110441	7.37221e+06	-40539.1	1005.82	-29789.7	0.000000	0.000000	7.126755	393.389	NaN	0.000000	0.001607	0.001710	28.0813	87.6393	0.001800	48698.4	3.552502	174.119	393.261	1.110162	0.089649	0.089370	393.389	48698.4	0.083590	0.223723	1758.38	94066.1
731	2.000000	1.112397	7.37221e+06	-40539.1	1005.82	-29789.7	0.000000	0.000000	7.129516	412.975	NaN	0.000000	0.001630	0.001713	28.0817	87.2726	0.001714	50904.3	1.184720	175.872	411.096	1.112111	0.091605	0.091319	412.975	50904.3	0.085520	0.232889	1773.27	96372.5
731	2.000000	1.114430	7.37221e+06	-40539.1	1005.82	-29789.7	0.000000	0.000000	7.131734	417.498	NaN	0.000000	0.001617	0.001736	28.0812	92.3608	0.001840	50183.3	5.017591	172.512	418.447	1.114094	0.093637	0.093302	417.498	50183.3	0.087398	0.241973	1725.39	93207.1
731	2.000000	1.116422	7.37221e+06	-40539.1	1005.82	-29789.7	0.000000	0.000000	7.134581	438.286	NaN	0.000000	0.001626	0.001725	28.0812	93.2281	0.001936	48147.7	1.499284	176.223	436.496	1.116055	0.095630	0.095263	438.286	48147.7	0.088802	0.248874	1761.08	88177.8
731	2.000000	1.118272	7.37221e+06	-40539.1	1005.82	-29789.7	0.000000	0.000000	7.137041	453.143	NaN	0.000000	0.001610	0.001715	28.0809	95.702	0.001927	49652.4	5.279190	171.914	445.393	1.118009	0.097479	0.097217	453.143	49652.4	0.090635	0.258013	1756.28	89308.5
731	2.000000	1.120308	7.37221e+06	-40539.1	1005.82	-29789.7	0.000000	0.000000	7.139796	470.61	NaN	0.000000	0.001610	0.001682	28.0808	96.7762	0.001711	56571	4.990301	171.158	467.032	1.120009	0.099516	0.099217	470.61	56571	0.093277	0.271461	1733.62	99200.4
731	2.000000	1.122432	7.37221e+06	-40539.1	1005.82	-29789.7	0.000000	0.000000	7.142816	492.424	NaN	0.000000	0.001602	0.001686	28.0807	97.8081	0.001797	54418	3.892064	172.986	494.441	1.122099	0.101640	0.101307	492.424	54418	0.094853	0.279637	1760.94	94019.5
731	2.000000	1.124431	7.37221e+06	-40539.1	1005.82	-29789.7	0.000000	0.000000	7.145427	507.311	NaN	0.000000	0.001590	0.001701	28.0807	99.9534	0.001736	57568.4	4.994293	171.256	509.432	1.124064	0.103639	0.103272	507.311	57568.4	0.097030	0.291113	1742.66	97482.5
731	2.000000	1.124870	7.37221e+06	-40539.1	1005.82	-29789.7	0.000000	0.000000	7.146020	511.085	NaN	0.000000	0.001604	0.001683	28.0811	98.25	0.001710	57449.9	-0.790964	-2.968302	506.333	1.124565	0.104077	0.103773	511.085	57449.9	0.097405	0.293114	1743.64	96949.2