File: remote_trans/data/nanoindenter/0828-1/data/Data_2025-08-06,11h17m57s/2025-07-22_16-23-58_1_705.txt
2025-07-22, 16:23:58, 1
Index	Phase	Displacement	Time	Pos X	Pos Y	Pos Z	Rot A	Rot B	Piezo Z	Force A	Force B	Gripper	Voltage A	Voltage B	Temperature	Amplitude force	Amplitude pos	Stiffness	Phase shift	Phase excitation	Force A raw	Displacement raw	HMax	HMax raw	Real Force	Real Stiffness	Contact Depth	Area	Hardness	Reduced Mod.
[#]	[#]	[um]	[s]	[um]	[um]	[um]	[m°]	[m°]	[um]	[uN]	[uN]	[V]	[V]	[V]	[°C]	[uN]	[um]	[N/m]	[°]	[°]	[uN]	[um]	[um]	[um]	[uN]	[N/m]	[um]	[um^2]	[MPa]	[MPa]
705	1.000000	0.002693	7.37195e+06	-41839.1	1005.82	-29784.9	0.000000	0.000000	6.002785	0.011594	NaN	0.000000	0.001689	0.001776	28.0822	0.047508	0.001085	43.7712	-111.73	-167.459	-0.012846	0.001376	-1.020063	-1.021380	0.011594	43.7712	-1.020262	-4.250818E+13	-2.727408E-16	NaN
705	1.000000	0.010660	7.37195e+06	-41839.1	1005.82	-29784.9	0.000000	0.000000	6.010751	-0.011566	NaN	0.000000	0.001685	0.001782	28.0819	0.089148	0.000860	103.618	-73.7981	-163.934	-0.022110	0.009348	-1.012095	-1.013408	-0.011566	103.618	-1.012012	-3.291970E+13	3.513420E-16	NaN
705	1.000000	0.018684	7.37195e+06	-41839.1	1005.82	-29784.9	0.000000	0.000000	6.018773	-0.068729	NaN	0.000000	0.001696	0.001793	28.0821	0.006871	0.001761	3.901463	103.101	-170.055	-0.035496	0.017347	-1.004072	-1.005409	-0.068729	3.901463	-0.990859	-1.708783E+13	4.022103E-15	NaN
705	1.000000	0.026668	7.37195e+06	-41839.1	1005.82	-29784.9	0.000000	0.000000	6.026760	0.022456	NaN	0.000000	0.001708	0.001771	28.0819	0.126696	0.001754	72.2153	-169.586	-166.957	-0.029548	0.025367	-0.996088	-0.997388	0.022456	72.2153	-0.996321	-2.024103E+13	-1.109418E-15	NaN
705	1.000000	0.034668	7.37195e+06	-41839.1	1005.82	-29784.9	0.000000	0.000000	6.034758	-0.036937	NaN	0.000000	0.001702	0.001768	28.082	0.046094	0.001877	24.5554	79.1423	-164.599	-0.067214	0.033381	-0.988088	-0.989374	-0.036937	24.5554	-0.986959	-1.514118E+13	2.439523E-15	NaN
705	1.000000	0.042677	7.37195e+06	-41839.1	1005.82	-29784.9	0.000000	0.000000	6.042767	-0.046389	NaN	0.000000	0.001703	0.001784	28.0832	0.066934	0.002014	33.2304	-157.778	-171.073	-0.016085	0.041347	-0.980079	-0.981409	-0.046389	33.2304	-0.979032	-1.184032E+13	3.917908E-15	NaN
705	1.000000	0.050655	7.37195e+06	-41839.1	1005.82	-29784.9	0.000000	0.000000	6.050745	-0.024973	NaN	0.000000	0.001754	0.001818	28.083	0.096879	0.001991	48.6545	-66.8483	-166.881	-0.061175	0.049358	-0.972101	-0.973398	-0.024973	48.6545	-0.971716	-9.436020E+12	2.646595E-15	NaN
705	1.000000	0.058688	7.37195e+06	-41839.1	1005.82	-29784.9	0.000000	0.000000	6.058779	-0.013449	NaN	0.000000	0.001704	0.001778	28.0831	0.069001	0.001908	36.1706	122.51	-164.807	-0.037878	0.057297	-0.964068	-0.965458	-0.013449	36.1706	-0.963789	-7.378131E+12	1.822774E-15	NaN
705	1.000000	0.066665	7.37195e+06	-41839.1	1005.82	-29784.9	0.000000	0.000000	6.066757	0.007044	NaN	0.000000	0.001689	0.001793	28.0831	0.094897	0.001891	50.1703	115.733	-166.731	0.006392	0.065383	-0.956090	-0.957372	0.007044	50.1703	-0.956196	-5.828746E+12	-1.208540E-15	NaN
705	1.000000	0.074657	7.37195e+06	-41839.1	1005.82	-29784.9	0.000000	0.000000	6.074748	-0.023520	NaN	0.000000	0.001733	0.001795	28.0832	0.033277	0.002039	16.3202	-47.4239	-167.401	-0.089950	0.073372	-0.948098	-0.949384	-0.023520	16.3202	-0.947017	-4.383295E+12	5.365783E-15	NaN
705	1.000000	0.082675	7.37195e+06	-41839.1	1005.82	-29784.9	0.000000	0.000000	6.082764	-0.066225	NaN	0.000000	0.001738	0.001770	28.0831	0.101052	0.002040	49.5306	87.3292	-170.647	-0.137733	0.081366	-0.940080	-0.941389	-0.066225	49.5306	-0.939077	-3.425222E+12	1.933460E-14	NaN
705	1.000000	0.090661	7.37195e+06	-41839.1	1005.82	-29784.9	0.000000	0.000000	6.090754	0.029078	NaN	0.000000	0.001713	0.001791	28.0831	0.060258	0.001938	31.1003	-2.735796	-165.266	0.050291	0.089345	-0.932094	-0.933410	0.029078	31.1003	-0.932795	-2.817881E+12	-1.031898E-14	NaN
705	1.000000	0.098673	7.37195e+06	-41839.1	1005.82	-29784.9	0.000000	0.000000	6.098763	-0.025899	NaN	0.000000	0.001723	0.001810	28.0835	0.010485	0.001982	5.291285	148.575	-166.069	-0.037213	0.097332	-0.924083	-0.925423	-0.025899	5.291285	-0.920412	-1.917626E+12	1.350582E-14	NaN
705	1.000000	0.106665	7.37195e+06	-41839.1	1005.82	-29784.9	0.000000	0.000000	6.106756	-0.028015	NaN	0.000000	0.001689	0.001800	28.0831	0.082152	0.001924	42.7021	-48.1325	-165.231	0.011029	0.105386	-0.916090	-0.917369	-0.028015	42.7021	-0.915598	-1.651087E+12	1.696754E-14	NaN
705	1.000000	0.114694	7.37195e+06	-41839.1	1005.82	-29784.9	0.000000	0.000000	6.114786	0.009313	NaN	0.000000	0.001745	0.001816	28.0831	0.174835	0.001954	89.4909	-154.296	-167.84	-0.027499	0.113378	-0.908061	-0.909377	0.009313	89.4909	-0.908139	-1.309273E+12	-7.112808E-15	NaN
705	1.000000	0.122700	7.37195e+06	-41839.1	1005.82	-29784.9	0.000000	0.000000	6.122791	-0.002222	NaN	0.000000	0.001732	0.001793	28.0833	0.078260	0.001985	39.4178	-41.9854	-166.078	0.044186	0.121326	-0.900056	-0.901430	-0.002222	39.4178	-0.900013	-1.016829E+12	2.185230E-15	NaN
705	1.000000	0.130698	7.37195e+06	-41839.1	1005.82	-29784.9	0.000000	0.000000	6.130790	0.001091	NaN	0.000000	0.001721	0.001756	28.0831	0.032686	0.002016	16.2135	113.564	-167.405	-0.036852	0.129442	-0.892057	-0.893313	0.001091	16.2135	-0.892108	-7.950658E+11	-1.371713E-15	NaN
705	1.000000	0.138708	7.37195e+06	-41839.1	1005.82	-29784.9	0.000000	0.000000	6.138798	-0.034492	NaN	0.000000	0.001724	0.001781	28.0834	0.021331	0.001933	11.0331	-23.3759	-167.638	0.037870	0.137315	-0.884048	-0.885440	-0.034492	11.0331	-0.881703	-5.750950E+11	5.997686E-14	NaN
705	1.000000	0.146725	7.37195e+06	-41839.1	1005.82	-29784.9	0.000000	0.000000	6.146818	0.025846	NaN	0.000000	0.001724	0.001786	28.0829	0.113470	0.002092	54.2319	135.808	-168.945	-0.004368	0.145390	-0.876031	-0.877365	0.025846	54.2319	-0.876388	-4.873706E+11	-5.303073E-14	NaN
705	1.000000	0.154716	7.37195e+06	-41839.1	1005.82	-29784.9	0.000000	0.000000	6.154807	-2.457143E-5	NaN	0.000000	0.001722	0.001787	28.083	0.064013	0.002009	31.8634	92.5066	-164.838	-0.032237	0.153410	-0.868040	-0.869346	-2.457143E-5	31.8634	-0.868039	-3.757644E+11	6.539052E-17	NaN
705	1.000000	0.162703	7.37195e+06	-41839.1	1005.82	-29784.9	0.000000	0.000000	6.162792	-0.045516	NaN	0.000000	0.001712	0.001778	28.0831	0.019617	0.002012	9.749113	-156.89	-163.305	0.028153	0.161372	-0.860053	-0.861383	-0.045516	9.749113	-0.856551	-2.626880E+11	1.732691E-13	NaN
705	1.000000	0.170723	7.37195e+06	-41839.1	1005.82	-29784.9	0.000000	0.000000	6.170814	-0.002514	NaN	0.000000	0.001726	0.001745	28.0832	0.020916	0.001989	10.5143	-48.3604	-165.226	-0.051237	0.169398	-0.852033	-0.853357	-0.002514	10.5143	-0.851854	-2.269015E+11	1.108026E-14	NaN
705	1.000000	0.178707	7.37195e+06	-41839.1	1005.82	-29784.9	0.000000	0.000000	6.178799	0.025635	NaN	0.000000	0.001732	0.001802	28.082	0.086757	0.002067	41.9767	-92.0231	-168.195	-0.028765	0.177424	-0.844049	-0.845332	0.025635	41.9767	-0.844507	-1.804449E+11	-1.420660E-13	NaN
705	1.000000	0.186711	7.37195e+06	-41839.1	1005.82	-29784.9	0.000000	0.000000	6.186802	-0.014310	NaN	0.000000	0.001726	0.001770	28.0818	0.062279	0.001971	31.602	6.689911	-167.344	-0.044118	0.185440	-0.836045	-0.837315	-0.014310	31.602	-0.835705	-1.371213E+11	1.043569E-13	NaN
705	1.000000	0.194705	7.37195e+06	-41839.1	1005.82	-29784.9	0.000000	0.000000	6.194795	-0.041244	NaN	0.000000	0.001720	0.001794	28.082	0.074333	0.002015	36.8963	-56.8705	-166.881	0.025750	0.193357	-0.828051	-0.829398	-0.041244	36.8963	-0.827212	-1.051954E+11	3.920693E-13	NaN
705	1.000000	0.202705	7.37195e+06	-41839.1	1005.82	-29784.9	0.000000	0.000000	6.202800	0.071402	NaN	0.000000	0.001728	0.001781	28.0819	0.071032	0.002041	34.8055	65.093	-165.363	0.070967	0.201434	-0.820050	-0.821322	0.071402	34.8055	-0.821589	-8.825826E+10	-8.090115E-13	NaN
705	1.000000	0.210725	7.37195e+06	-41839.1	1005.82	-29784.9	0.000000	0.000000	6.210813	-0.102899	NaN	0.000000	0.001730	0.001762	28.0819	0.123585	0.002022	61.128	-151.295	-170.251	-0.070570	0.209372	-0.812030	-0.813383	-0.102899	61.128	-0.810768	-6.294878E+10	1.634640E-12	NaN
705	1.000000	0.218703	7.37195e+06	-41839.1	1005.82	-29784.9	0.000000	0.000000	6.218793	-0.034537	NaN	0.000000	0.001737	0.001790	28.0818	0.086973	0.002043	42.5743	63.1489	-167.923	-0.109405	0.217453	-0.804053	-0.805303	-0.034537	42.5743	-0.803444	-5.007423E+10	6.897081E-13	NaN
705	1.000000	0.226752	7.37195e+06	-41839.1	1005.82	-29784.9	0.000000	0.000000	6.226839	-0.097557	NaN	0.000000	0.001731	0.001787	28.0821	0.035718	0.002031	17.5847	-121.293	-168.175	-0.069197	0.225441	-0.796004	-0.797314	-0.097557	17.5847	-0.791843	-3.484291E+10	2.799914E-12	NaN
705	1.000000	0.234771	7.37195e+06	-41839.1	1005.82	-29784.9	0.000000	0.000000	6.234862	0.002553	NaN	0.000000	0.001719	0.001811	28.082	0.027291	0.002019	13.5148	168.281	-167.08	-0.011213	0.233411	-0.787985	-0.789344	0.002553	13.5148	-0.788126	-3.101962E+10	-8.230587E-14	NaN
705	1.000000	0.242718	7.37195e+06	-41839.1	1005.82	-29784.9	0.000000	0.000000	6.242807	-0.055809	NaN	0.000000	0.001738	0.001793	28.0817	0.056522	0.001883	30.0217	-141.648	-162.776	0.008656	0.241433	-0.780037	-0.781322	-0.055809	30.0217	-0.778643	-2.305657E+10	2.420519E-12	NaN
705	1.000000	0.250747	7.37195e+06	-41839.1	1005.82	-29784.9	0.000000	0.000000	6.250834	-0.100933	NaN	0.000000	0.001693	0.001823	28.0818	0.117906	0.002098	56.1987	92.3933	-166.198	-0.080513	0.249407	-0.772009	-0.773349	-0.100933	56.1987	-0.770662	-1.795986E+10	5.619933E-12	NaN
705	1.000000	0.258745	7.37195e+06	-41839.1	1005.82	-29784.9	0.000000	0.000000	6.258837	-0.009752	NaN	0.000000	0.001682	0.001803	28.0818	0.052725	0.002045	25.779	108.265	-166.194	-0.031914	0.257428	-0.764010	-0.765327	-0.009752	25.779	-0.763726	-1.445414E+10	6.746937E-13	NaN
705	1.000000	0.266726	7.37195e+06	-41839.1	1005.82	-29784.9	0.000000	0.000000	6.266816	-0.053732	NaN	0.000000	0.001719	0.001808	28.082	0.092562	0.001892	48.9128	-21.2308	-166.734	-0.062664	0.265406	-0.756029	-0.757349	-0.053732	48.9128	-0.755205	-1.106787E+10	4.854781E-12	NaN
705	1.000000	0.274758	7.37195e+06	-41839.1	1005.82	-29784.9	0.000000	0.000000	6.274850	-0.005799	NaN	0.000000	0.001739	0.001859	28.0818	0.061428	0.001974	31.1116	156.337	-168.824	-0.036217	0.273397	-0.747997	-0.749359	-0.005799	31.1116	-0.747857	-8.791295E+9	6.596219E-13	NaN
705	1.000000	0.282727	7.37195e+06	-41839.1	1005.82	-29784.9	0.000000	0.000000	6.282816	-0.064426	NaN	0.000000	0.001694	0.001847	28.0819	0.084137	0.002096	40.1389	64.369	-165.837	-0.056844	0.281481	-0.740029	-0.741275	-0.064426	40.1389	-0.738825	-6.622976E+9	9.727692E-12	NaN
705	1.000000	0.290760	7.37195e+06	-41839.1	1005.82	-29784.9	0.000000	0.000000	6.290850	-0.033054	NaN	0.000000	0.001712	0.001840	28.0819	0.033950	0.001932	17.5712	-34.3178	-166.685	-0.027918	0.289473	-0.731996	-0.733282	-0.033054	17.5712	-0.730585	-5.114190E+9	6.463102E-12	NaN
705	1.000000	0.298767	7.37195e+06	-41839.1	1005.82	-29784.9	0.000000	0.000000	6.298856	-0.043835	NaN	0.000000	0.001653	0.001814	28.0817	0.077648	0.001988	39.0566	-67.5097	-164.02	-0.099642	0.297427	-0.723989	-0.725329	-0.043835	39.0566	-0.723147	-4.049397E+9	1.082513E-11	NaN
705	1.000000	0.306756	7.37195e+06	-41839.1	1005.82	-29784.9	0.000000	0.000000	6.306844	-0.080307	NaN	0.000000	0.001682	0.001807	28.0819	0.030027	0.001917	15.6607	-78.8316	-167.598	-0.014554	0.305461	-0.715999	-0.717295	-0.080307	15.6607	-0.712153	-2.867044E+9	2.801026E-11	NaN
705	1.000000	0.314765	7.37195e+06	-41839.1	1005.82	-29784.9	0.000000	0.000000	6.314854	-0.062477	NaN	0.000000	0.001688	0.001796	28.0828	0.057232	0.001962	29.1739	117.583	-166.301	-0.020213	0.313474	-0.707991	-0.709281	-0.062477	29.1739	-0.706385	-2.391679E+9	2.612252E-11	NaN
705	1.000000	0.322757	7.37195e+06	-41839.1	1005.82	-29784.9	0.000000	0.000000	6.322845	-0.087893	NaN	0.000000	0.001650	0.001792	28.0831	0.088322	0.001957	45.1399	-3.046379	-167.76	-0.048955	0.321454	-0.699999	-0.701302	-0.087893	45.1399	-0.698539	-1.868840E+9	4.703065E-11	NaN
705	1.000000	0.330783	7.37195e+06	-41839.1	1005.82	-29784.9	0.000000	0.000000	6.330873	-0.048119	NaN	0.000000	0.001669	0.001760	28.0833	0.108847	0.002077	52.4181	123.709	-169.612	-0.029242	0.329448	-0.691972	-0.693308	-0.048119	52.4181	-0.691284	-1.487523E+9	3.234812E-11	NaN
705	1.000000	0.338772	7.37195e+06	-41839.1	1005.82	-29784.9	0.000000	0.000000	6.338864	0.012236	NaN	0.000000	0.001692	0.001802	28.0833	0.081274	0.001856	43.7951	-148.014	-166.173	0.053547	0.337506	-0.683984	-0.685249	0.012236	43.7951	-0.684193	-1.189987E+9	-1.028257E-11	NaN
705	1.000000	0.346816	7.37195e+06	-41839.1	1005.82	-29784.9	0.000000	0.000000	6.346905	-0.046216	NaN	0.000000	0.001688	0.001800	28.0833	0.080235	0.001999	40.1405	-107.179	-167.073	-0.053440	0.345485	-0.675940	-0.677271	-0.046216	40.1405	-0.675076	-8.930073E+8	5.175277E-11	NaN
705	1.000000	0.354779	7.37195e+06	-41839.1	1005.82	-29784.9	0.000000	0.000000	6.354869	-0.021688	NaN	0.000000	0.001678	0.001800	28.083	0.084461	0.002012	41.9738	-13.4968	-167.011	-0.027143	0.353487	-0.667977	-0.669268	-0.021688	41.9738	-0.667589	-7.053311E+8	3.074881E-11	NaN
705	1.000000	0.362788	7.37195e+06	-41839.1	1005.82	-29784.9	0.000000	0.000000	6.362877	-0.057730	NaN	0.000000	0.001657	0.001787	28.083	0.051901	0.001963	26.445	-126.415	-163.872	-0.056184	0.361486	-0.659967	-0.661269	-0.057730	26.445	-0.658330	-5.267373E+8	1.095999E-10	NaN
705	1.000000	0.370771	7.37195e+06	-41839.1	1005.82	-29784.9	0.000000	0.000000	6.370860	-0.056399	NaN	0.000000	0.001669	0.001804	28.0832	0.079805	0.002125	37.562	77.178	-166.646	-0.043454	0.369485	-0.651985	-0.653271	-0.056399	37.562	-0.650859	-4.161097E+8	1.355381E-10	NaN
705	1.000000	0.378800	7.37195e+06	-41839.1	1005.82	-29784.9	0.000000	0.000000	6.378890	-0.034041	NaN	0.000000	0.001659	0.001803	28.0828	0.075653	0.002083	36.313	169.356	-165.734	0.004112	0.377488	-0.643956	-0.645268	-0.034041	36.313	-0.643253	-3.272760E+8	1.040119E-10	NaN
705	1.000000	0.386790	7.37195e+06	-41839.1	1005.82	-29784.9	0.000000	0.000000	6.386880	-0.050966	NaN	0.000000	0.001680	0.001800	28.083	0.051997	0.001960	26.5281	174.381	-169.934	-0.093552	0.385482	-0.635965	-0.637274	-0.050966	26.5281	-0.634525	-2.483964E+8	2.051785E-10	NaN
705	1.000000	0.394798	7.37195e+06	-41839.1	1005.82	-29784.9	0.000000	0.000000	6.394888	-0.042208	NaN	0.000000	0.001655	0.001816	28.0827	0.050304	0.001920	26.2052	-92.2552	-168.799	-0.008877	0.393586	-0.627958	-0.629169	-0.042208	26.2052	-0.626750	-1.942602E+8	2.172775E-10	NaN
705	1.000000	0.402823	7.37195e+06	-41839.1	1005.82	-29784.9	0.000000	0.000000	6.402912	-0.055425	NaN	0.000000	0.001589	0.001810	28.0829	0.109844	0.001993	55.1105	-174.825	-168.229	-0.041173	0.401459	-0.619933	-0.621297	-0.055425	55.1105	-0.619178	-1.528762E+8	3.625449E-10	NaN
705	1.000000	0.410813	7.37195e+06	-41839.1	1005.82	-29784.9	0.000000	0.000000	6.410903	-0.052728	NaN	0.000000	0.001618	0.001810	28.0827	0.130187	0.002031	64.098	138.937	-165.498	-0.048758	0.409510	-0.611942	-0.613246	-0.052728	64.098	-0.611325	-1.192186E+8	4.422802E-10	NaN
705	1.000000	0.418842	7.37195e+06	-41839.1	1005.82	-29784.9	0.000000	0.000000	6.418934	0.009230	NaN	0.000000	0.001657	0.001805	28.083	0.098204	0.002065	47.5605	22.9324	-168.395	0.019276	0.417463	-0.603914	-0.605293	0.009230	47.5605	-0.604059	-9.470103E+7	-9.746426E-11	NaN
705	1.000000	0.426810	7.37195e+06	-41839.1	1005.82	-29784.9	0.000000	0.000000	6.426900	-0.044520	NaN	0.000000	0.001672	0.001833	28.0834	0.176199	0.002069	85.1509	-9.630339	-171.026	0.005725	0.425451	-0.595945	-0.597305	-0.044520	85.1509	-0.595553	-7.231056E+7	6.156760E-10	NaN
705	1.000000	0.434814	7.37195e+06	-41839.1	1005.82	-29784.9	0.000000	0.000000	6.434904	-0.054880	NaN	0.000000	0.001671	0.001797	28.0828	0.109144	0.002100	51.9703	-65.5268	-168.976	-9.333620E-5	0.433536	-0.587941	-0.589219	-0.054880	51.9703	-0.587149	-5.538079E+7	9.909580E-10	NaN
705	1.000000	0.442807	7.37195e+06	-41839.1	1005.82	-29784.9	0.000000	0.000000	6.442898	-0.021622	NaN	0.000000	0.001663	0.001768	28.0829	0.112875	0.001946	58.012	-146.751	-168.636	-0.002331	0.441510	-0.579949	-0.581246	-0.021622	58.012	-0.579669	-4.366763E+7	4.951528E-10	NaN
705	1.000000	0.450822	7.37195e+06	-41839.1	1005.82	-29784.9	0.000000	0.000000	6.450910	-0.091907	NaN	0.000000	0.001677	0.001761	28.0816	0.119078	0.001980	60.1453	-174.682	-166.987	-0.022073	0.449543	-0.571934	-0.573213	-0.091907	60.1453	-0.570788	-3.292404E+7	2.791489E-9	NaN
705	1.000000	0.458856	7.37195e+06	-41839.1	1005.82	-29784.9	0.000000	0.000000	6.458948	0.002635	NaN	0.000000	0.001658	0.001783	28.0819	0.019499	0.002042	9.548627	-68.0577	-168.741	-0.012762	0.457508	-0.563899	-0.565248	0.002635	9.548627	-0.564106	-2.661765E+7	-9.898822E-11	NaN
705	1.000000	0.466846	7.37195e+06	-41839.1	1005.82	-29784.9	0.000000	0.000000	6.466934	-0.068265	NaN	0.000000	0.001676	0.001782	28.0819	0.099282	0.002066	48.0477	-85.5715	-160.834	-0.067751	0.465509	-0.555910	-0.557246	-0.068265	48.0477	-0.554844	-1.981679E+7	3.444813E-9	NaN
705	1.000000	0.474825	7.37195e+06	-41839.1	1005.82	-29784.9	0.000000	0.000000	6.474915	-0.039249	NaN	0.000000	0.001664	0.001775	28.0815	0.041389	0.002026	20.4256	-24.5476	-167.3	-0.072044	0.473525	-0.547931	-0.549230	-0.039249	20.4256	-0.546489	-1.518174E+7	2.585271E-9	NaN
705	1.000000	0.482804	7.37195e+06	-41839.1	1005.82	-29784.9	0.000000	0.000000	6.482895	-0.019044	NaN	0.000000	0.001665	0.001739	28.0817	0.031338	0.001888	16.6011	140.394	-163.35	-0.000543	0.481519	-0.539951	-0.541237	-0.019044	16.6011	-0.539091	-1.198802E+7	1.588553E-9	NaN
705	1.000000	0.490862	7.37195e+06	-41839.1	1005.82	-29784.9	0.000000	0.000000	6.490953	-0.024541	NaN	0.000000	0.001697	0.001782	28.0817	0.059495	0.002006	29.6566	116.907	-164.999	0.026797	0.489532	-0.531893	-0.533224	-0.024541	29.6566	-0.531272	-9.33782e+06	2.628134E-9	NaN
705	1.000000	0.498848	7.37195e+06	-41839.1	1005.82	-29784.9	0.000000	0.000000	6.498941	0.028615	NaN	0.000000	0.001684	0.001746	28.0817	0.062260	0.002074	30.0197	-70.1886	-166.646	0.043655	0.497528	-0.523907	-0.525227	0.028615	30.0197	-0.524622	-7.54848e+06	-3.790784E-9	NaN
705	1.000000	0.506878	7.37195e+06	-41839.1	1005.82	-29784.9	0.000000	0.000000	6.506968	-0.042379	NaN	0.000000	0.001671	0.001789	28.0819	0.087868	0.002115	41.5496	-56.6004	-168.199	-0.079385	0.505562	-0.515877	-0.517193	-0.042379	41.5496	-0.515112	-5.56671e+06	7.612928E-9	NaN
705	1.000000	0.514850	7.37195e+06	-41839.1	1005.82	-29784.9	0.000000	0.000000	6.514941	-0.028973	NaN	0.000000	0.001683	0.001786	28.0817	0.071165	0.002084	34.1474	0.604614	-168.308	-0.066382	0.513559	-0.507905	-0.509196	-0.028973	34.1474	-0.507269	-4.32881e+06	6.693060E-9	NaN
705	1.000000	0.522857	7.37195e+06	-41839.1	1005.82	-29784.9	0.000000	0.000000	6.522945	-0.094179	NaN	0.000000	0.001680	0.001791	28.0818	0.046327	0.001973	23.4761	65.5766	-166.401	-0.095906	0.521573	-0.499898	-0.501183	-0.094179	23.4761	-0.496890	-3.1018e+06	3.036266E-8	NaN
705	1.000000	0.530856	7.37195e+06	-41839.1	1005.82	-29784.9	0.000000	0.000000	6.530945	-0.084324	NaN	0.000000	0.001640	0.001780	28.0816	0.053961	0.001983	27.2129	-21.6561	-168.741	-0.077014	0.529573	-0.491899	-0.493183	-0.084324	27.2129	-0.489575	-2.45163e+06	3.439516E-8	NaN
705	1.000000	0.538910	7.37195e+06	-41839.1	1005.82	-29784.9	0.000000	0.000000	6.539002	0.008092	NaN	0.000000	0.001676	0.001771	28.0816	0.057450	0.001966	29.2153	-20.8058	-164.755	0.069073	0.537589	-0.483845	-0.485166	0.008092	29.2153	-0.484053	-2.05233e+06	-3.943063E-9	NaN
705	1.000000	0.546876	7.37195e+06	-41839.1	1005.82	-29784.9	0.000000	0.000000	6.546966	-0.043647	NaN	0.000000	0.001692	0.001791	28.0815	0.126459	0.002036	62.1086	-45.8752	-166.587	-0.030174	0.545562	-0.475879	-0.477194	-0.043647	62.1086	-0.475352	-1.55036e+06	2.815305E-8	NaN
705	1.000000	0.554840	7.37195e+06	-41839.1	1005.82	-29784.9	0.000000	0.000000	6.554928	-0.083297	NaN	0.000000	0.001730	0.001760	28.0815	0.057885	0.002010	28.8055	-44.1329	-167.065	-0.081956	0.553568	-0.467916	-0.469188	-0.083297	28.8055	-0.465747	-1.13692e+06	7.326549E-8	NaN
705	1.000000	0.562886	7.37195e+06	-41839.1	1005.82	-29784.9	0.000000	0.000000	6.562975	-0.062655	NaN	0.000000	0.001774	0.001762	28.0816	0.046929	0.002078	22.5857	18.718	-167.003	-0.070465	0.561598	-0.459869	-0.461158	-0.062655	22.5857	-0.457789	-878895	7.128823E-8	NaN
705	1.000000	0.570896	7.37195e+06	-41839.1	1005.82	-29784.9	0.000000	0.000000	6.570986	-0.026898	NaN	0.000000	0.001671	0.001740	28.0817	0.046962	0.002044	22.9749	-88.6844	-166.275	-0.009256	0.569572	-0.451860	-0.453183	-0.026898	22.9749	-0.450982	-704966	3.815486E-8	NaN
705	1.000000	0.578878	7.37195e+06	-41839.1	1005.82	-29784.9	0.000000	0.000000	6.578970	-0.012036	NaN	0.000000	0.001725	0.001752	28.0815	0.107447	0.001935	55.5285	-6.947245	-165.145	0.020968	0.577561	-0.443877	-0.445195	-0.012036	55.5285	-0.443715	-556888	2.161363E-8	NaN
705	1.000000	0.586884	7.37195e+06	-41839.1	1005.82	-29784.9	0.000000	0.000000	6.586973	-0.046711	NaN	0.000000	0.001735	0.001775	28.0823	0.009943	0.001995	4.983186	42.6987	-167.055	0.033547	0.585599	-0.435872	-0.437157	-0.046711	4.983186	-0.428841	-343297	1.360666E-7	NaN
705	1.000000	0.594900	7.37195e+06	-41839.1	1005.82	-29784.9	0.000000	0.000000	6.594993	0.040298	NaN	0.000000	0.001756	0.001772	28.0828	0.087456	0.002033	43.0213	-90.8993	-168.26	0.098565	0.593541	-0.427856	-0.429214	0.040298	43.0213	-0.428559	-340146	-1.184726E-7	NaN
705	1.000000	0.602884	7.37195e+06	-41839.1	1005.82	-29784.9	0.000000	0.000000	6.602973	-0.056731	NaN	0.000000	0.001730	0.001782	28.0828	0.086568	0.001928	44.8908	-100.614	-167.797	-0.063393	0.601569	-0.419872	-0.421186	-0.056731	44.8908	-0.418924	-248401	2.283857E-7	NaN
705	1.000000	0.610886	7.37195e+06	-41839.1	1005.82	-29784.9	0.000000	0.000000	6.610978	0.011489	NaN	0.000000	0.001767	0.001766	28.083	0.088277	0.001993	44.2845	-95.0939	-166.003	-0.020828	0.609583	-0.411870	-0.413172	0.011489	44.2845	-0.412065	-198496	-5.787915E-8	NaN
705	1.000000	0.618911	7.37195e+06	-41839.1	1005.82	-29784.9	0.000000	0.000000	6.618999	-0.085879	NaN	0.000000	0.001726	0.001729	28.083	0.059749	0.001978	30.2145	-51.4135	-167.404	-0.060192	0.617586	-0.403845	-0.405170	-0.085879	30.2145	-0.401713	-141389	6.073934E-7	NaN
705	1.000000	0.626914	7.37195e+06	-41839.1	1005.82	-29784.9	0.000000	0.000000	6.627005	-0.006150	NaN	0.000000	0.001721	0.001783	28.0827	0.114423	0.002208	51.8189	-141.441	-163.676	0.080081	0.625546	-0.395842	-0.397209	-0.006150	51.8189	-0.395753	-116247	5.290616E-8	NaN
705	1.000000	0.634924	7.37195e+06	-41839.1	1005.82	-29784.9	0.000000	0.000000	6.635016	0.018687	NaN	0.000000	0.001740	0.001811	28.0831	0.070814	0.002067	34.2532	-63.6657	-168.656	-0.017159	0.633570	-0.387832	-0.389186	0.018687	34.2532	-0.388241	-90780.7	-2.058445E-7	NaN
705	1.000000	0.642912	7.37195e+06	-41839.1	1005.82	-29784.9	0.000000	0.000000	6.643001	-0.051671	NaN	0.000000	0.001742	0.001775	28.0829	0.152902	0.001942	78.7319	-28.2476	-163.576	-0.048987	0.641600	-0.379844	-0.381155	-0.051671	78.7319	-0.379352	-67699.4	7.632425E-7	NaN
705	1.000000	0.650892	7.37195e+06	-41839.1	1005.82	-29784.9	0.000000	0.000000	6.650982	-0.060703	NaN	0.000000	0.001742	0.001802	28.0832	0.029643	0.002031	14.592	-127.511	-163.498	-0.047501	0.649573	-0.371863	-0.373183	-0.060703	14.592	-0.368743	-47645.4	1.274062E-6	NaN
705	1.000000	0.658895	7.37195e+06	-41839.1	1005.82	-29784.9	0.000000	0.000000	6.658987	0.003221	NaN	0.000000	0.001728	0.001800	28.0831	0.078358	0.002035	38.501	-81.6516	-166.019	0.046339	0.657602	-0.363860	-0.365154	0.003221	38.501	-0.363923	-40598.7	-7.933025E-8	NaN
705	1.000000	0.666929	7.37195e+06	-41839.1	1005.82	-29784.9	0.000000	0.000000	6.667019	-0.047303	NaN	0.000000	0.001731	0.001792	28.0829	0.129366	0.001978	65.3905	60.5865	-164.632	-0.100296	0.665626	-0.355826	-0.357129	-0.047303	65.3905	-0.355284	-30451.2	1.553416E-6	NaN
705	1.000000	0.674909	7.37195e+06	-41839.1	1005.82	-29784.9	0.000000	0.000000	6.674995	-0.134866	NaN	0.000000	0.001748	0.001772	28.0831	0.133895	0.001968	68.0251	-67.7024	-168.579	-0.090712	0.673623	-0.347847	-0.349133	-0.134866	68.0251	-0.346360	-22601.2	5.967200E-6	NaN
705	1.000000	0.682945	7.37195e+06	-41839.1	1005.82	-29784.9	0.000000	0.000000	6.683035	-0.040042	NaN	0.000000	0.001734	0.001774	28.0833	0.086821	0.001939	44.7772	162.472	-166.769	-0.096164	0.681632	-0.339810	-0.341123	-0.040042	44.7772	-0.339139	-17742.2	2.256876E-6	NaN
705	1.000000	0.690918	7.37195e+06	-41839.1	1005.82	-29784.9	0.000000	0.000000	6.691008	-0.046271	NaN	0.000000	0.001719	0.001777	28.0828	0.095250	0.002009	47.4032	-67.7065	-165.757	-0.046543	0.689664	-0.331837	-0.333092	-0.046271	47.4032	-0.331105	-13540.4	3.417259E-6	NaN
705	1.000000	0.698919	7.37195e+06	-41839.1	1005.82	-29784.9	0.000000	0.000000	6.699007	-0.078817	NaN	0.000000	0.001764	0.001788	28.083	0.011275	0.001963	5.745117	28.167	-166.588	-0.039797	0.697600	-0.323837	-0.325156	-0.078817	5.745117	-0.313547	-7473.08	1.054686E-5	NaN
705	1.000000	0.706923	7.37195e+06	-41839.1	1005.82	-29784.9	0.000000	0.000000	6.707016	0.034324	NaN	0.000000	0.001763	0.001767	28.0829	0.107728	0.001977	54.4986	130.349	-168.252	0.043164	0.705631	-0.315832	-0.317125	0.034324	54.4986	-0.316305	-8207.16	-4.182200E-6	NaN
705	1.000000	0.714926	7.37195e+06	-41839.1	1005.82	-29784.9	0.000000	0.000000	6.715018	0.012185	NaN	0.000000	0.001752	0.001774	28.0831	0.037292	0.001947	19.1489	-74.9952	-168.544	0.085609	0.713645	-0.307829	-0.309111	0.012185	19.1489	-0.308307	-6251.49	-1.949071E-6	NaN
705	1.000000	0.722941	7.37195e+06	-41839.1	1005.82	-29784.9	0.000000	0.000000	6.723033	-0.002711	NaN	0.000000	0.001675	0.001791	28.0815	0.082893	0.002061	40.2101	-114.865	-164.279	0.011306	0.721601	-0.299814	-0.301154	-0.002711	40.2101	-0.299764	-4667.89	5.808122E-7	NaN
705	1.000000	0.730907	7.37195e+06	-41839.1	1005.82	-29784.9	0.000000	0.000000	6.730997	-0.050542	NaN	0.000000	0.001676	0.001776	28.0815	0.034056	0.002081	16.3689	64.5065	-164.843	-0.017238	0.729649	-0.291849	-0.293107	-0.050542	16.3689	-0.289533	-3283.23	1.539389E-5	NaN
705	1.000000	0.738918	7.37195e+06	-41839.1	1005.82	-29784.9	0.000000	0.000000	6.739010	-0.001974	NaN	0.000000	0.001697	0.001769	28.0815	0.097374	0.001983	49.1082	132.626	-169.025	-0.019549	0.737667	-0.283837	-0.285088	-0.001974	49.1082	-0.283807	-2693.58	7.329096E-7	NaN
705	1.000000	0.746964	7.37195e+06	-41839.1	1005.82	-29784.9	0.000000	0.000000	6.747055	-0.023898	NaN	0.000000	0.001660	0.001761	28.0815	0.105317	0.002110	49.9109	-79.9672	-170.135	-0.065510	0.745647	-0.275791	-0.277109	-0.023898	49.9109	-0.275432	-2013.44	1.186922E-5	NaN
705	1.000000	0.754957	7.37195e+06	-41839.1	1005.82	-29784.9	0.000000	0.000000	6.755048	-0.011008	NaN	0.000000	0.001651	0.001765	28.0818	0.069882	0.001976	35.3655	125.164	-169.224	-0.014838	0.753659	-0.267798	-0.269097	-0.011008	35.3655	-0.267565	-1529.31	7.198164E-6	NaN
705	1.000000	0.762968	7.37195e+06	-41839.1	1005.82	-29784.9	0.000000	0.000000	6.763060	0.022734	NaN	0.000000	0.001662	0.001809	28.0817	0.095775	0.001791	53.4794	102.296	-165.013	0.010287	0.761634	-0.259788	-0.261122	0.022734	53.4794	-0.260106	-1176.38	-1.932506E-5	NaN
705	1.000000	0.770970	7.37195e+06	-41839.1	1005.82	-29784.9	0.000000	0.000000	6.771061	-0.017060	NaN	0.000000	0.001671	0.001754	28.0816	0.084313	0.001937	43.5324	-108.199	-163.579	-0.016212	0.769694	-0.251785	-0.253062	-0.017060	43.5324	-0.251491	-866.99	1.967723E-5	NaN
705	1.000000	0.778956	7.37195e+06	-41839.1	1005.82	-29784.9	0.000000	0.000000	6.779048	-0.007841	NaN	0.000000	0.001685	0.001781	28.0814	0.127509	0.001982	64.3321	86.9847	-170.569	-0.096619	0.777650	-0.243799	-0.245105	-0.007841	64.3321	-0.243708	-656.688	1.193973E-5	NaN
705	1.000000	0.786951	7.37195e+06	-41839.1	1005.82	-29784.9	0.000000	0.000000	6.787040	-0.061971	NaN	0.000000	0.001651	0.001791	28.0813	0.017615	0.002024	8.702163	29.2491	-165.004	-0.027962	0.785676	-0.235805	-0.237079	-0.061971	8.702163	-0.230464	-407.227	0.000152	NaN
705	1.000000	0.794954	7.37195e+06	-41839.1	1005.82	-29784.9	0.000000	0.000000	6.795045	-0.018526	NaN	0.000000	0.001684	0.001781	28.0815	0.071713	0.001972	36.3726	15.175	-163.776	0.011003	0.793639	-0.227801	-0.229117	-0.018526	36.3726	-0.227419	-364.509	5.082441E-5	NaN
705	1.000000	0.802983	7.37195e+06	-41839.1	1005.82	-29784.9	0.000000	0.000000	6.803073	-0.025149	NaN	0.000000	0.001664	0.001767	28.0817	0.058862	0.002030	29.0018	-106.857	-167.507	-0.070894	0.801719	-0.219773	-0.221036	-0.025149	29.0018	-0.219123	-268.935	9.351474E-5	NaN
705	1.000000	0.810951	7.37195e+06	-41839.1	1005.82	-29784.9	0.000000	0.000000	6.811042	-0.018993	NaN	0.000000	0.001695	0.001744	28.0817	0.052380	0.001971	26.5704	85.9161	-167.055	-0.019960	0.809656	-0.211805	-0.213100	-0.018993	26.5704	-0.211269	-201.07	9.445848E-5	NaN
705	1.000000	0.818980	7.37195e+06	-41839.1	1005.82	-29784.9	0.000000	0.000000	6.819066	-0.121685	NaN	0.000000	0.001723	0.001747	28.0816	0.098671	0.001993	49.5174	58.7259	-168.054	-0.082330	0.817667	-0.203776	-0.205088	-0.121685	49.5174	-0.201933	-141.714	0.000859	NaN
705	1.000000	0.826990	7.37195e+06	-41839.1	1005.82	-29784.9	0.000000	0.000000	6.827080	-0.025705	NaN	0.000000	0.001699	0.001710	28.0816	0.080166	0.001983	40.4222	-95.0086	-165.838	-0.032812	0.825677	-0.195766	-0.197078	-0.025705	40.4222	-0.195289	-110.15	0.000233	NaN
705	1.000000	0.834976	7.37195e+06	-41839.1	1005.82	-29784.9	0.000000	0.000000	6.835066	-0.043537	NaN	0.000000	0.001731	0.001762	28.0814	0.019804	0.002009	9.856571	22.6559	-166.204	-0.047906	0.833640	-0.187779	-0.189115	-0.043537	9.856571	-0.184466	-72.6329	0.000599	NaN
705	1.000000	0.843027	7.37195e+06	-41839.1	1005.82	-29784.9	0.000000	0.000000	6.843118	-0.010764	NaN	0.000000	0.001730	0.001708	28.0817	0.051955	0.002166	23.9827	-117.053	-167.71	0.026513	0.841692	-0.179729	-0.181063	-0.010764	23.9827	-0.179392	-59.5831	0.000181	NaN
705	1.000000	0.850983	7.37195e+06	-41839.1	1005.82	-29784.9	0.000000	0.000000	6.851075	-0.005623	NaN	0.000000	0.001784	0.001728	28.0817	0.095302	0.001958	48.6643	50.6776	-171.952	0.069599	0.849737	-0.171772	-0.173019	-0.005623	48.6643	-0.171686	-43.9372	0.000128	NaN
705	1.000000	0.858995	7.37195e+06	-41839.1	1005.82	-29784.9	0.000000	0.000000	6.859085	-0.053263	NaN	0.000000	0.001750	0.001748	28.0828	0.080790	0.002129	37.9411	68.0575	-167.08	-0.039213	0.857691	-0.163760	-0.165065	-0.053263	37.9411	-0.162707	-30.6151	0.001740	NaN
705	1.000000	0.867009	7.37195e+06	-41839.1	1005.82	-29784.9	0.000000	0.000000	6.867098	-0.067193	NaN	0.000000	0.001729	0.001751	28.083	0.041395	0.001878	22.0405	110.934	-165.936	-0.099011	0.865676	-0.155746	-0.157080	-0.067193	22.0405	-0.153460	-20.9319	0.003210	NaN
705	1.000000	0.874994	7.37195e+06	-41839.1	1005.82	-29784.9	0.000000	0.000000	6.875085	-0.021256	NaN	0.000000	0.001736	0.001733	28.0827	0.057565	0.002033	28.3112	-142.223	-167.43	-0.109695	0.873756	-0.147761	-0.148999	-0.021256	28.3112	-0.147198	-16.0956	0.001321	NaN
705	1.000000	0.883015	7.37195e+06	-41839.1	1005.82	-29784.9	0.000000	0.000000	6.883105	-0.047453	NaN	0.000000	0.001762	0.001707	28.0828	0.069652	0.001897	36.7168	-67.2771	-163.373	-0.086879	0.881680	-0.139740	-0.141076	-0.047453	36.7168	-0.138771	-11.2158	0.004231	NaN
705	1.000000	0.891004	7.37195e+06	-41839.1	1005.82	-29784.9	0.000000	0.000000	6.891094	-0.048543	NaN	0.000000	0.001767	0.001728	28.0826	0.062400	0.001907	32.7198	-88.3196	-166.214	-0.138340	0.889686	-0.131751	-0.133070	-0.048543	32.7198	-0.130638	-7.841479	0.006191	NaN
705	1.000000	0.898994	7.37195e+06	-41839.1	1005.82	-29784.9	0.000000	0.000000	6.899086	-0.002169	NaN	0.000000	0.001716	0.001756	28.0828	0.041928	0.002101	19.9589	-107.782	-166.188	-0.001852	0.897698	-0.123761	-0.125057	-0.002169	19.9589	-0.123680	-5.725320	0.000379	NaN
705	1.000000	0.907022	7.37195e+06	-41839.1	1005.82	-29784.9	0.000000	0.000000	6.907110	-0.105777	NaN	0.000000	0.001731	0.001786	28.0828	0.065672	0.001885	34.8381	-2.708456	-166.422	-0.074414	0.905693	-0.115733	-0.117063	-0.105777	34.8381	-0.113456	-3.549530	0.029800	NaN
705	1.000000	0.915043	7.37195e+06	-41839.1	1005.82	-29784.9	0.000000	0.000000	6.915132	-0.043838	NaN	0.000000	0.001684	0.001797	28.0826	0.038281	0.001923	19.9057	-51.7503	-166.063	-0.090234	0.913736	-0.107713	-0.109019	-0.043838	19.9057	-0.106061	-2.477641	0.017693	NaN
705	1.000000	0.922997	7.37195e+06	-41839.1	1005.82	-29784.9	0.000000	0.000000	6.923090	0.023708	NaN	0.000000	0.001692	0.001728	28.0832	0.028326	0.002033	13.9334	171.743	-170.245	-0.047459	0.921740	-0.099758	-0.101016	0.023708	13.9334	-0.101035	-1.925948	-0.012310	NaN
705	1.000000	0.931016	7.37195e+06	-41839.1	1005.82	-29784.9	0.000000	0.000000	6.931108	0.004163	NaN	0.000000	0.001702	0.001743	28.0828	0.088458	0.002136	41.4114	-94.135	-167.102	0.030161	0.929705	-0.091739	-0.093051	0.004163	41.4114	-0.091815	-1.191697	-0.003493	NaN
705	1.000000	0.939039	7.37195e+06	-41839.1	1005.82	-29784.9	0.000000	0.000000	6.939129	-0.043162	NaN	0.000000	0.001682	0.001735	28.0832	0.055833	0.001995	27.9873	141.726	-166.987	-0.084050	0.937720	-0.083717	-0.085036	-0.043162	27.9873	-0.082560	-0.716416	0.060247	NaN
705	1.000000	0.947015	7.37195e+06	-41839.1	1005.82	-29784.9	0.000000	0.000000	6.947106	-0.020562	NaN	0.000000	0.001691	0.001751	28.0828	0.052591	0.002149	24.4779	67.7106	-168.516	0.005597	0.945805	-0.075741	-0.076950	-0.020562	24.4779	-0.075111	-0.464928	0.044225	NaN
705	1.000000	0.955023	7.37195e+06	-41839.1	1005.82	-29784.9	0.000000	0.000000	6.955115	-0.004191	NaN	0.000000	0.001687	0.001760	28.0829	0.081589	0.001863	43.7977	147.157	-164.159	0.087051	0.953662	-0.067732	-0.069093	-0.004191	43.7977	-0.067660	-0.294917	0.014211	NaN
705	1.000000	0.963047	7.37195e+06	-41839.1	1005.82	-29784.9	0.000000	0.000000	6.963138	-0.013757	NaN	0.000000	0.001641	0.001784	28.0831	0.077694	0.002118	36.6743	5.849790	-161.309	0.048304	0.961704	-0.059708	-0.061052	-0.013757	36.6743	-0.059427	-0.173392	0.079339	NaN
705	1.000000	0.971006	7.37195e+06	-41839.1	1005.82	-29784.9	0.000000	0.000000	6.971095	-0.056882	NaN	0.000000	0.001667	0.001775	28.0829	0.089026	0.002260	39.3893	109.396	-163.494	-0.086928	0.969747	-0.051750	-0.053009	-0.056882	39.3893	-0.050667	-0.095581	0.595120	NaN
705	1.000000	0.979008	7.37195e+06	-41839.1	1005.82	-29784.9	0.000000	0.000000	6.979096	-0.082207	NaN	0.000000	0.001673	0.001750	28.0831	0.067423	0.001898	35.5173	94.1283	-163.851	-0.033045	0.977755	-0.043747	-0.045001	-0.082207	35.5173	-0.042012	-0.052074	1.578650	NaN
705	1.000000	0.987058	7.37195e+06	-41839.1	1005.82	-29784.9	0.000000	0.000000	6.987148	-0.035252	NaN	0.000000	0.001654	0.001799	28.0828	0.070412	0.002055	34.26	110.326	-167.487	-0.081887	0.985764	-0.035698	-0.036991	-0.035252	34.26	-0.034926	-0.031865	1.106295	NaN
705	1.000000	0.995080	7.37195e+06	-41839.1	1005.82	-29784.9	0.000000	0.000000	6.995171	-0.005560	NaN	0.000000	0.001649	0.001789	28.0818	0.048421	0.002059	23.5223	-100.223	-162.684	0.100524	0.993734	-0.027676	-0.029022	-0.005560	23.5223	-0.027499	-0.019652	0.282938	NaN
705	1.000000	1.003043	7.37195e+06	-41839.1	1005.82	-29784.9	0.000000	0.000000	7.003135	0.005821	NaN	0.000000	0.001683	0.001757	28.0817	0.053246	0.002023	26.3149	-157.133	-166.012	-0.099858	1.001787	-0.019712	-0.020968	0.005821	26.3149	-0.019878	-0.012472	-0.466774	NaN
705	1.000000	1.011062	7.37195e+06	-41839.1	1005.82	-29784.9	0.000000	0.000000	7.011154	0.005793	NaN	0.000000	0.001688	0.001760	28.0817	0.132231	0.002034	65.0126	40.9696	-166.494	0.025704	1.009760	-0.011694	-0.012995	0.005793	65.0126	-0.011761	-0.007392	-0.783709	NaN
705	1.000000	1.019052	7.37195e+06	-41839.1	1005.82	-29784.9	0.000000	0.000000	7.019172	0.703385	NaN	0.000000	0.001688	0.001750	28.0818	1.302984	0.002066	630.809	10.2423	-165.65	0.084125	1.017747	-0.003704	-0.005009	0.703385	630.809	-0.004540	-0.003126	-225.029	NaN
705	2.000000	1.026458	7.37195e+06	-41839.1	1005.82	-29784.9	0.000000	0.000000	7.026914	8.873238	NaN	0.000000	0.001688	0.001786	28.0817	8.919045	0.001600	5573.59	6.184754	-170.516	8.554941	1.025714	0.003702	0.002959	8.873238	5573.59	0.002508	0.001970	4503.74	114724
705	2.000000	1.028617	7.37195e+06	-41839.1	1005.82	-29784.9	0.000000	0.000000	7.029196	11.8415	NaN	0.000000	0.001726	0.001764	28.0819	10.3925	0.001553	6692.92	4.624409	-171.531	12.0235	1.028266	0.005862	0.005511	11.8415	6692.92	0.004535	0.003713	3189.25	100353
705	2.000000	1.030571	7.37195e+06	-41839.1	1005.82	-29784.9	0.000000	0.000000	7.031345	16.6054	NaN	0.000000	0.001669	0.001761	28.0815	14.1086	0.001626	8676.43	6.249933	-177.881	16.0969	1.030244	0.007815	0.007489	16.6054	8676.43	0.006380	0.005428	3059.08	107594
705	2.000000	1.032608	7.37195e+06	-41839.1	1005.82	-29784.9	0.000000	0.000000	7.033525	20.0992	NaN	0.000000	0.001690	0.001772	28.0816	15.0854	0.001564	9644.49	5.976778	-177.623	20.3293	1.032179	0.009852	0.009424	20.0992	9644.49	0.008289	0.007341	2737.78	102840
705	2.000000	1.034534	7.37195e+06	-41839.1	1005.82	-29784.9	0.000000	0.000000	7.035570	22.9955	NaN	0.000000	0.001701	0.001778	28.0817	18.5193	0.001772	10448.3	7.801868	179.988	22.588	1.034194	0.011778	0.011438	22.9955	10448.3	0.010127	0.009323	2466.42	98862.4
705	2.000000	1.036544	7.37195e+06	-41839.1	1005.82	-29784.9	0.000000	0.000000	7.037866	29.942	NaN	0.000000	0.001662	0.001773	28.0818	20.4879	0.001811	11310.7	4.315397	-175.575	28.9678	1.036177	0.013788	0.013421	29.942	11310.7	0.011803	0.011255	2660.44	97408.9
705	2.000000	1.038477	7.37195e+06	-41839.1	1005.82	-29784.9	0.000000	0.000000	7.039983	34.4272	NaN	0.000000	0.001637	0.001750	28.0824	22.1928	0.001691	13126.3	2.544719	-176.003	32.6883	1.038204	0.015721	0.015449	34.4272	13126.3	0.013754	0.013660	2520.29	102610
705	2.000000	1.040516	7.37195e+06	-41839.1	1005.82	-29784.9	0.000000	0.000000	7.042111	36.5775	NaN	0.000000	0.001639	0.001779	28.0815	25.7708	0.001859	13861.9	5.467628	179.874	35.0361	1.040263	0.017761	0.017508	36.5775	13861.9	0.015782	0.016342	2238.26	99070.8
705	2.000000	1.042508	7.37195e+06	-41839.1	1005.82	-29784.9	0.000000	0.000000	7.044264	40.5046	NaN	0.000000	0.001664	0.001751	28.0815	26.6866	0.001867	14294.1	2.750643	-175.803	41.198	1.042227	0.019752	0.019471	40.5046	14294.1	0.017627	0.018950	2137.5	94870.3
705	2.000000	1.044534	7.37195e+06	-41839.1	1005.82	-29784.9	0.000000	0.000000	7.046508	45.788	NaN	0.000000	0.001653	0.001765	28.0815	29.4428	0.001924	15301.5	9.104844	177.054	45.9918	1.044159	0.021779	0.021404	45.788	15301.5	0.019534	0.021816	2098.82	94649.8
705	2.000000	1.046562	7.37195e+06	-41839.1	1005.82	-29784.9	0.000000	0.000000	7.048853	53.5334	NaN	0.000000	0.001646	0.001746	28.0817	30.7987	0.001796	17148.7	5.125741	-179.403	54.6218	1.046131	0.023806	0.023375	53.5334	17148.7	0.021465	0.024897	2150.23	99296.5
705	2.000000	1.048440	7.37195e+06	-41839.1	1005.82	-29784.9	0.000000	0.000000	7.051027	60.7082	NaN	0.000000	0.001680	0.001764	28.0818	32.2138	0.001726	18663.4	4.168803	179.691	58.0853	1.048173	0.025685	0.025418	60.7082	18663.4	0.023245	0.027900	2175.92	102085
705	2.000000	1.050450	7.37195e+06	-41839.1	1005.82	-29784.9	0.000000	0.000000	7.053268	66.3416	NaN	0.000000	0.001650	0.001802	28.0814	35.4359	0.001891	18741.2	5.282485	177.714	63.874	1.050183	0.027694	0.027427	66.3416	18741.2	0.025039	0.031087	2134.06	97114
705	2.000000	1.052490	7.37195e+06	-41839.1	1005.82	-29784.9	0.000000	0.000000	7.055690	75.624	NaN	0.000000	0.001714	0.001750	28.0826	35.8259	0.001785	20065.5	1.370666	-178.512	73.7282	1.052157	0.029735	0.029401	75.624	20065.5	0.026908	0.034579	2187	98586.6
705	2.000000	1.054477	7.37195e+06	-41839.1	1005.82	-29784.9	0.000000	0.000000	7.057861	80.1302	NaN	0.000000	0.001694	0.001807	28.0829	38.4391	0.001829	21015.9	3.509950	179.046	79.0911	1.054085	0.031721	0.031329	80.1302	21015.9	0.028862	0.038417	2085.8	97962.5
705	2.000000	1.056522	7.37195e+06	-41839.1	1005.82	-29784.9	0.000000	0.000000	7.060280	89.2124	NaN	0.000000	0.001692	0.001796	28.0829	39.6698	0.001663	23860.1	4.707279	177.122	89.2638	1.056172	0.033766	0.033416	89.2124	23860.1	0.030962	0.042761	2086.29	105420
705	2.000000	1.058472	7.37195e+06	-41839.1	1005.82	-29784.9	0.000000	0.000000	7.062562	97.2881	NaN	0.000000	0.001681	0.001853	28.0834	41.6947	0.001824	22855.1	5.183755	177.471	95.7097	1.058164	0.035716	0.035408	97.2881	22855.1	0.032524	0.046138	2108.65	97214
705	2.000000	1.060435	7.37195e+06	-41839.1	1005.82	-29784.9	0.000000	0.000000	7.064877	105.846	NaN	0.000000	0.001688	0.001843	28.0828	43.2465	0.001840	23497.7	4.497423	177.414	103.123	1.060164	0.037680	0.037408	105.846	23497.7	0.034301	0.050132	2111.36	95883.4
705	2.000000	1.062455	7.37195e+06	-41839.1	1005.82	-29784.9	0.000000	0.000000	7.067184	112.82	NaN	0.000000	0.001719	0.001797	28.0835	44.1162	0.001747	25252.7	3.187343	177.404	111.401	1.062193	0.039700	0.039437	112.82	25252.7	0.036349	0.054934	2053.74	98437.7
705	2.000000	1.064409	7.37195e+06	-41839.1	1005.82	-29784.9	0.000000	0.000000	7.069389	118.951	NaN	0.000000	0.001695	0.001797	28.0829	47.1357	0.001726	27303.6	5.623779	173.466	115.536	1.064144	0.041653	0.041389	118.951	27303.6	0.038386	0.059923	1985.08	101905
705	2.000000	1.066519	7.37195e+06	-41839.1	1005.82	-29784.9	0.000000	0.000000	7.071875	128.096	NaN	0.000000	0.001686	0.001831	28.0827	49.0772	0.001797	27304.5	3.726565	176.965	128.532	1.066175	0.043763	0.043419	128.096	27304.5	0.040245	0.064662	1981.01	98103.1
705	2.000000	1.068569	7.37195e+06	-41839.1	1005.82	-29784.9	0.000000	0.000000	7.074104	132.459	NaN	0.000000	0.001719	0.001806	28.0829	51.6418	0.001895	27245.6	7.730651	172.45	139.091	1.068278	0.045813	0.045522	132.459	27245.6	0.042167	0.069749	1899.08	94254
705	2.000000	1.070443	7.37195e+06	-41839.1	1005.82	-29784.9	0.000000	0.000000	7.076594	147.421	NaN	0.000000	0.001729	0.001795	28.0828	52.9196	0.001788	29592.6	5.280681	174.943	144.94	1.070102	0.047688	0.047347	147.421	29592.6	0.043951	0.074638	1975.13	98963.6
705	2.000000	1.072421	7.37195e+06	-41839.1	1005.82	-29784.9	0.000000	0.000000	7.079109	160.523	NaN	0.000000	0.001719	0.001822	28.0839	53.7986	0.001720	31284.4	5.820086	173.754	160.689	1.072052	0.049665	0.049296	160.523	31284.4	0.045817	0.079923	2008.48	101103
705	2.000000	1.074471	7.37195e+06	-41839.1	1005.82	-29784.9	0.000000	0.000000	7.081519	169.28	NaN	0.000000	0.001682	0.001766	28.0829	56.4922	0.001836	30775.8	6.562361	173.812	170.195	1.074128	0.051715	0.051372	169.28	30775.8	0.047590	0.085109	1988.99	96382
705	2.000000	1.076534	7.37195e+06	-41839.1	1005.82	-29784.9	0.000000	0.000000	7.084087	181.557	NaN	0.000000	0.001709	0.001769	28.083	57.7736	0.001794	32212.2	3.694260	175.949	182.427	1.076100	0.053779	0.053344	181.557	32212.2	0.049551	0.091032	1994.44	97543.4
705	2.000000	1.078443	7.37195e+06	-41839.1	1005.82	-29784.9	0.000000	0.000000	7.086280	188.458	NaN	0.000000	0.001699	0.001792	28.0827	59.5279	0.001678	35465.9	2.212749	175.383	187.869	1.078144	0.055688	0.055389	188.458	35465.9	0.051702	0.097747	1928.02	103641
705	2.000000	1.080466	7.37195e+06	-41839.1	1005.82	-29784.9	0.000000	0.000000	7.088782	200.116	NaN	0.000000	0.001684	0.001781	28.0827	61.6328	0.001734	35549.9	4.607566	174.185	201.589	1.080116	0.057711	0.057360	200.116	35549.9	0.053489	0.103501	1933.46	100958
705	2.000000	1.082461	7.37195e+06	-41839.1	1005.82	-29784.9	0.000000	0.000000	7.091364	214.403	NaN	0.000000	0.001675	0.001764	28.0833	62.1894	0.001682	36973.4	4.276717	174.509	216.735	1.082067	0.059705	0.059312	214.403	36973.4	0.055356	0.109684	1954.72	101998
705	2.000000	1.084385	7.37195e+06	-41839.1	1005.82	-29784.9	0.000000	0.000000	7.093666	223.584	NaN	0.000000	0.001700	0.001753	28.0827	64.8717	0.001841	35240.1	5.140758	174.439	219.26	1.084017	0.061630	0.061261	223.584	35240.1	0.056871	0.114829	1947.09	95013.1
705	2.000000	1.086499	7.37195e+06	-41839.1	1005.82	-29784.9	0.000000	0.000000	7.096201	233.836	NaN	0.000000	0.001709	0.001779	28.0823	66.3052	0.001730	38331.7	1.328957	176.622	233.346	1.086124	0.063743	0.063368	233.836	38331.7	0.059168	0.122842	1903.55	99921.2
705	2.000000	1.088371	7.37195e+06	-41839.1	1005.82	-29784.9	0.000000	0.000000	7.098715	249.48	NaN	0.000000	0.001647	0.001780	28.0815	67.6909	0.001804	37524.4	4.221061	173.325	245.336	1.088098	0.065615	0.065342	249.48	37524.4	0.060629	0.128072	1947.96	95798.7
705	2.000000	1.090504	7.37195e+06	-41839.1	1005.82	-29784.9	0.000000	0.000000	7.101095	255.466	NaN	0.000000	0.001733	0.001749	28.0814	72.0697	0.001879	38346	9.248373	168.225	258.369	1.090043	0.067748	0.067287	255.466	38346	0.062752	0.135860	1880.36	95049.1
705	2.000000	1.092423	7.37195e+06	-41839.1	1005.82	-29784.9	0.000000	0.000000	7.103766	273.77	NaN	0.000000	0.001739	0.001753	28.0818	71.3801	0.001816	39297.7	4.765165	172.905	273.134	1.092094	0.069668	0.069338	273.77	39297.7	0.064443	0.142220	1924.98	95205.1
705	2.000000	1.094401	7.37195e+06	-41839.1	1005.82	-29784.9	0.000000	0.000000	7.106387	289.414	NaN	0.000000	0.001682	0.001777	28.0816	73.3397	0.001794	40876.9	4.126714	173.367	286.776	1.094101	0.071646	0.071345	289.414	40876.9	0.066336	0.149502	1935.86	96589.2
705	2.000000	1.096515	7.37195e+06	-41839.1	1005.82	-29784.9	0.000000	0.000000	7.108863	298.212	NaN	0.000000	0.001734	0.001796	28.0818	75.1635	0.001645	45690.4	3.173859	173.437	300.551	1.096068	0.073759	0.073312	298.212	45690.4	0.068864	0.159499	1869.68	104525
705	2.000000	1.098389	7.37195e+06	-41839.1	1005.82	-29784.9	0.000000	0.000000	7.111001	304.652	NaN	0.000000	0.001712	0.001779	28.0816	76.9538	0.001716	44855.8	4.453678	171.815	302.113	1.098086	0.075634	0.075330	304.652	44855.8	0.070540	0.166290	1832.05	100498
705	2.000000	1.100412	7.37195e+06	-41839.1	1005.82	-29784.9	0.000000	0.000000	7.113795	323.416	NaN	0.000000	0.001712	0.001778	28.0816	80.7018	0.001847	43694.5	4.625229	171.712	321.002	1.100146	0.077656	0.077390	323.416	43694.5	0.072105	0.172755	1872.1	96047.2
705	2.000000	1.102437	7.37195e+06	-41839.1	1005.82	-29784.9	0.000000	0.000000	7.116137	331.129	NaN	0.000000	0.001701	0.001800	28.0817	81.2893	0.001764	46081.9	4.921985	170.902	330.637	1.102253	0.079681	0.079498	331.129	46081.9	0.074292	0.181985	1819.54	98693
705	2.000000	1.104336	7.37195e+06	-41839.1	1005.82	-29784.9	0.000000	0.000000	7.118894	351.984	NaN	0.000000	0.001672	0.001802	28.0817	84.5565	0.001853	45631.5	5.640000	170.588	347.579	1.104100	0.081581	0.081345	351.984	45631.5	0.075796	0.188459	1867.69	96034.9
705	2.000000	1.106398	7.37195e+06	-41839.1	1005.82	-29784.9	0.000000	0.000000	7.121516	365.619	NaN	0.000000	0.001672	0.001760	28.0821	85.5465	0.001813	47183.3	3.940272	172.282	361.237	1.106034	0.083643	0.083278	365.619	47183.3	0.077831	0.197395	1852.22	97027.2
705	2.000000	1.108481	7.37195e+06	-41839.1	1005.82	-29784.9	0.000000	0.000000	7.123883	372.511	NaN	0.000000	0.001685	0.001773	28.0817	87.3068	0.001878	46496.9	5.266690	170.794	373.819	1.108169	0.085726	0.085414	372.511	46496.9	0.079717	0.205847	1809.65	93632.2
705	2.000000	1.110397	7.37195e+06	-41839.1	1005.82	-29784.9	0.000000	0.000000	7.126450	388.375	NaN	0.000000	0.001675	0.001766	28.0816	89.0619	0.001784	49910.4	6.398470	169.298	385.93	1.110166	0.087641	0.087410	388.375	49910.4	0.081805	0.215396	1803.07	98252.9
705	2.000000	1.112504	7.37195e+06	-41839.1	1005.82	-29784.9	0.000000	0.000000	7.129363	407.981	NaN	0.000000	0.001689	0.001764	28.0816	91.1428	0.001903	47884.5	10.9075	165.408	412.068	1.111971	0.089748	0.089215	407.981	47884.5	0.083358	0.222633	1832.53	92720.1
705	2.000000	1.114402	7.37195e+06	-41839.1	1005.82	-29784.9	0.000000	0.000000	7.131693	418.49	NaN	0.000000	0.001680	0.001768	28.0815	92.2345	0.001709	53966.6	7.508743	167.233	416.099	1.114147	0.091646	0.091391	418.49	53966.6	0.085830	0.234378	1785.53	101845
705	2.000000	1.116438	7.37195e+06	-41839.1	1005.82	-29784.9	0.000000	0.000000	7.134678	441.579	NaN	0.000000	0.001712	0.001787	28.082	94.7961	0.001790	52956.3	5.834019	170.332	440.336	1.115878	0.093683	0.093122	441.579	52956.3	0.087429	0.242124	1823.78	98326.9
705	2.000000	1.118525	7.37195e+06	-41839.1	1005.82	-29784.9	0.000000	0.000000	7.136822	442.984	NaN	0.000000	0.001707	0.001752	28.0815	96.0113	0.001865	51476.3	1.866476	173.682	449.852	1.118254	0.095769	0.095498	442.984	51476.3	0.089315	0.251415	1761.97	93796.2
705	2.000000	1.120316	7.37195e+06	-41839.1	1005.82	-29784.9	0.000000	0.000000	7.139598	466.952	NaN	0.000000	0.001688	0.001767	28.0819	98.6452	0.001822	54137.3	5.085723	170.472	460.855	1.120018	0.097560	0.097263	466.952	54137.3	0.091091	0.260312	1793.82	96944.4
705	2.000000	1.122512	7.37195e+06	-41839.1	1005.82	-29784.9	0.000000	0.000000	7.141974	471.322	NaN	0.000000	0.001664	0.001741	28.0827	100.09	0.001802	55531.5	6.611440	168.546	479.266	1.122202	0.099756	0.099446	471.322	55531.5	0.093391	0.272047	1732.5	97272.7
705	2.000000	1.124312	7.37195e+06	-41839.1	1005.82	-29784.9	0.000000	0.000000	7.144989	500.879	NaN	0.000000	0.001696	0.001810	28.0828	101.028	0.001797	56216.5	3.689437	171.726	494.903	1.124024	0.101557	0.101268	500.879	56216.5	0.094874	0.279747	1790.47	97107.8
705	2.000000	1.124917	7.37195e+06	-41839.1	1005.82	-29784.9	0.000000	0.000000	7.145711	503.718	NaN	0.000000	0.001742	0.001823	28.0828	101.568	0.001789	56783.2	5.319685	-10.0064	503.841	1.124489	0.102161	0.101734	503.718	56783.2	0.095508	0.283067	1779.5	97509.8