File: remote_trans/data/nanoindenter/0828-1/data/Data_2025-08-06,11h17m57s/2025-07-22_16-23-58_1_310.txt
2025-07-22, 16:23:58, 1
Index	Phase	Displacement	Time	Pos X	Pos Y	Pos Z	Rot A	Rot B	Piezo Z	Force A	Force B	Gripper	Voltage A	Voltage B	Temperature	Amplitude force	Amplitude pos	Stiffness	Phase shift	Phase excitation	Force A raw	Displacement raw	HMax	HMax raw	Real Force	Real Stiffness	Contact Depth	Area	Hardness	Reduced Mod.
[#]	[#]	[um]	[s]	[um]	[um]	[um]	[m°]	[m°]	[um]	[uN]	[uN]	[V]	[V]	[V]	[°C]	[uN]	[um]	[N/m]	[°]	[°]	[uN]	[um]	[um]	[um]	[uN]	[N/m]	[um]	[um^2]	[MPa]	[MPa]
310	1.000000	0.002338	7.3681e+06	-54139.1	955.819	-29744.6	0.000000	0.000000	6.002774	-0.020222	NaN	0.000000	0.001630	0.001715	28.0803	0.077336	0.000917	84.3072	130.467	-167.212	-0.098697	0.001139	-1.054229	-1.055427	-0.020222	84.3072	-1.054049	-1.210154E+14	1.671057E-16	NaN
310	1.000000	0.010347	7.3681e+06	-54139.1	955.818	-29744.6	0.000000	0.000000	6.010786	0.048297	NaN	0.000000	0.001612	0.001717	28.0802	0.059249	0.001011	58.6035	127.983	-169.425	0.057220	0.009012	-1.046220	-1.047555	0.048297	58.6035	-1.046838	-9.680587E+13	-4.989017E-16	NaN
310	1.000000	0.018345	7.3681e+06	-54139.1	955.819	-29744.6	0.000000	0.000000	6.018782	-0.015884	NaN	0.000000	0.001617	0.001724	28.0802	0.145849	0.001762	82.7929	26.8765	-165.851	-0.031366	0.017012	-1.038222	-1.039554	-0.015884	82.7929	-1.038078	-7.381070E+13	2.151945E-16	NaN
310	1.000000	0.026365	7.3681e+06	-54139.1	955.818	-29744.6	0.000000	0.000000	6.026803	0.023030	NaN	0.000000	0.001628	0.001676	28.0815	0.111697	0.001918	58.2453	126.516	-165.216	0.070567	0.024989	-1.030202	-1.031577	0.023030	58.2453	-1.030498	-5.836890E+13	-3.945509E-16	NaN
310	1.000000	0.034336	7.3681e+06	-54139.1	955.819	-29744.6	0.000000	0.000000	6.034774	0.001079	NaN	0.000000	0.001593	0.001717	28.0812	0.120714	0.002046	59.0119	-31.6723	-166.285	0.004218	0.033031	-1.022230	-1.023536	0.001079	59.0119	-1.022244	-4.520035E+13	-2.387624E-17	NaN
310	1.000000	0.042307	7.3681e+06	-54139.1	955.818	-29744.6	0.000000	0.000000	6.042746	0.020567	NaN	0.000000	0.001578	0.001725	28.0814	0.108599	0.001908	56.9298	-46.3393	-166.576	0.018182	0.040970	-1.014259	-1.015596	0.020567	56.9298	-1.014530	-3.559180E+13	-5.778508E-16	NaN
310	1.000000	0.050328	7.3681e+06	-54139.1	955.818	-29744.6	0.000000	0.000000	6.050765	-0.005576	NaN	0.000000	0.001602	0.001739	28.0812	0.099700	0.001946	51.2228	-112.05	-161.462	-0.050415	0.049029	-1.006239	-1.007537	-0.005576	51.2228	-1.006157	-2.745723E+13	2.030730E-16	NaN
310	1.000000	0.058327	7.3681e+06	-54139.1	955.818	-29744.6	0.000000	0.000000	6.058764	-0.021707	NaN	0.000000	0.001580	0.001716	28.0811	0.061245	0.002050	29.8734	61.2603	-166.291	-0.003923	0.057076	-0.998239	-0.999490	-0.021707	29.8734	-0.997694	-2.112147E+13	1.027711E-15	NaN
310	1.000000	0.066315	7.3681e+06	-54139.1	955.819	-29744.6	0.000000	0.000000	6.066753	0.002711	NaN	0.000000	0.001598	0.001704	28.0815	0.014315	0.001896	7.548347	27.358	-166.649	0.015842	0.064978	-0.990251	-0.991588	0.002711	7.548347	-0.990521	-1.690928E+13	-1.603223E-16	NaN
310	1.000000	0.074321	7.3681e+06	-54139.1	955.818	-29744.6	0.000000	0.000000	6.074757	-0.031757	NaN	0.000000	0.001612	0.001720	28.0813	0.047807	0.001969	24.2793	74.3665	-163.477	-0.006215	0.073012	-0.982245	-0.983554	-0.031757	24.2793	-0.981264	-1.268944E+13	2.502604E-15	NaN
310	1.000000	0.082354	7.3681e+06	-54139.1	955.818	-29744.6	0.000000	0.000000	6.082793	0.028922	NaN	0.000000	0.001576	0.001729	28.0821	0.068385	0.001932	35.3929	15.6818	-163.465	-0.013245	0.081019	-0.974212	-0.975548	0.028922	35.3929	-0.974825	-1.039175E+13	-2.783208E-15	NaN
310	1.000000	0.090347	7.3681e+06	-54139.1	955.818	-29744.6	0.000000	0.000000	6.090783	-0.018471	NaN	0.000000	0.001593	0.001732	28.0814	0.047445	0.002048	23.1715	-156.882	-165.847	-0.057081	0.089045	-0.966220	-0.967521	-0.018471	23.1715	-0.965622	-7.810081E+12	2.365062E-15	NaN
310	1.000000	0.098322	7.3681e+06	-54139.1	955.818	-29744.6	0.000000	0.000000	6.098760	0.014572	NaN	0.000000	0.001598	0.001712	28.0811	0.122986	0.002108	58.3453	109.575	-164.746	0.102705	0.097018	-0.958244	-0.959549	0.014572	58.3453	-0.958431	-6.247723E+12	-2.332292E-15	NaN
310	1.000000	0.106334	7.3681e+06	-54139.1	955.818	-29744.6	0.000000	0.000000	6.106769	-0.075538	NaN	0.000000	0.001657	0.001696	28.0812	0.047763	0.002018	23.6721	82.9865	-162.707	-0.061876	0.105058	-0.950232	-0.951509	-0.075538	23.6721	-0.947839	-4.496546E+12	1.679908E-14	NaN
310	1.000000	0.114344	7.3681e+06	-54139.1	955.82	-29744.6	0.000000	0.000000	6.114780	-0.018990	NaN	0.000000	0.001604	0.001682	28.0812	0.071755	0.001943	36.9393	-107.859	-162.514	-0.089501	0.113079	-0.942223	-0.943487	-0.018990	36.9393	-0.941837	-3.731842E+12	5.088612E-15	NaN
310	1.000000	0.122344	7.3681e+06	-54139.1	955.818	-29744.6	0.000000	0.000000	6.122779	-0.044243	NaN	0.000000	0.001599	0.001706	28.0815	0.049447	0.002038	24.2645	-154.472	-164.119	-0.046364	0.121002	-0.934223	-0.935564	-0.044243	24.2645	-0.932855	-2.823129E+12	1.567157E-14	NaN
310	1.000000	0.130308	7.3681e+06	-54139.1	955.818	-29744.6	0.000000	0.000000	6.130746	0.008136	NaN	0.000000	0.001599	0.001711	28.0813	0.067376	0.002022	33.3261	156.881	-165.989	-0.036086	0.129042	-0.926259	-0.927524	0.008136	33.3261	-0.926442	-2.312963E+12	-3.517545E-15	NaN
310	1.000000	0.138311	7.3681e+06	-54139.1	955.818	-29744.6	0.000000	0.000000	6.138748	0.000267	NaN	0.000000	0.001611	0.001646	28.0814	0.149119	0.002050	72.7535	133.573	-163.283	-0.034085	0.137037	-0.918256	-0.919530	0.000267	72.7535	-0.918258	-1.793455E+12	-1.487070E-16	NaN
310	1.000000	0.146322	7.3681e+06	-54139.1	955.818	-29744.6	0.000000	0.000000	6.146757	-0.069084	NaN	0.000000	0.001602	0.001683	28.0813	0.071863	0.001992	36.0832	120.428	-167.083	0.019469	0.145084	-0.910244	-0.911482	-0.069084	36.0832	-0.908808	-1.336804E+12	5.167847E-14	NaN
310	1.000000	0.154341	7.3681e+06	-54139.1	955.819	-29744.6	0.000000	0.000000	6.154777	-0.040761	NaN	0.000000	0.001581	0.001692	28.0813	0.103239	0.002073	49.8111	-93.2948	-166.286	0.021544	0.153055	-0.902225	-0.903512	-0.040761	49.8111	-0.901612	-1.068672E+12	3.814163E-14	NaN
310	1.000000	0.162347	7.3681e+06	-54139.1	955.818	-29744.6	0.000000	0.000000	6.162783	-0.028599	NaN	0.000000	0.001583	0.001699	28.0802	0.090035	0.001924	46.7972	47.895	-165.57	-0.068637	0.161019	-0.894219	-0.895547	-0.028599	46.7972	-0.893761	-8.370492E+11	3.416593E-14	NaN
310	1.000000	0.170362	7.3681e+06	-54139.1	955.817	-29744.6	0.000000	0.000000	6.170799	-0.026544	NaN	0.000000	0.001623	0.001695	28.0802	0.059762	0.001970	30.3384	113.843	-166.338	0.037112	0.169092	-0.886204	-0.887474	-0.026544	30.3384	-0.885548	-6.482294E+11	4.094812E-14	NaN
310	1.000000	0.178326	7.3681e+06	-54139.1	955.818	-29744.6	0.000000	0.000000	6.178766	0.063781	NaN	0.000000	0.001625	0.001679	28.0804	0.139772	0.002065	67.6876	-7.919515	-163.398	0.059312	0.176979	-0.878240	-0.879587	0.063781	67.6876	-0.878947	-5.277981E+11	-1.208433E-13	NaN
310	1.000000	0.186401	7.3681e+06	-54139.1	955.818	-29744.6	0.000000	0.000000	6.186835	-0.069986	NaN	0.000000	0.001639	0.001674	28.0805	0.052009	0.002127	24.4573	-159.48	-164.258	-0.081729	0.185073	-0.870166	-0.871493	-0.069986	24.4573	-0.868019	-3.755311E+11	1.863642E-13	NaN
310	1.000000	0.194388	7.3681e+06	-54139.1	955.817	-29744.6	0.000000	0.000000	6.194823	-0.043013	NaN	0.000000	0.001602	0.001693	28.0802	0.037036	0.001955	18.9468	133.189	-163.544	-0.043661	0.193102	-0.862179	-0.863465	-0.043013	18.9468	-0.860476	-2.968693E+11	1.448874E-13	NaN
310	1.000000	0.202378	7.3681e+06	-54139.1	955.818	-29744.6	0.000000	0.000000	6.202813	-0.047964	NaN	0.000000	0.001545	0.001683	28.0801	0.096649	0.001861	51.9316	4.450270	-167.404	-0.002062	0.201089	-0.854188	-0.855478	-0.047964	51.9316	-0.853496	-2.388203E+11	2.008362E-13	NaN
310	1.000000	0.210372	7.3681e+06	-54139.1	955.818	-29744.6	0.000000	0.000000	6.210807	-0.070077	NaN	0.000000	0.001593	0.001675	28.0803	0.040463	0.002032	19.913	98.355	-160.665	-0.038449	0.209088	-0.846194	-0.847479	-0.070077	19.913	-0.843555	-1.751668E+11	4.000563E-13	NaN
310	1.000000	0.218383	7.3681e+06	-54139.1	955.818	-29744.6	0.000000	0.000000	6.218819	-0.041822	NaN	0.000000	0.001570	0.001668	28.0804	0.054088	0.001885	28.6943	-23.9961	-165.106	-0.059875	0.217086	-0.838184	-0.839480	-0.041822	28.6943	-0.837090	-1.431767E+11	2.920983E-13	NaN
310	1.000000	0.226380	7.3681e+06	-54139.1	955.818	-29744.6	0.000000	0.000000	6.226820	0.052870	NaN	0.000000	0.001585	0.001661	28.0804	0.005924	0.002059	2.876638	123.276	-168.07	0.055563	0.225094	-0.830186	-0.831473	0.052870	2.876638	-0.843971	-1.774527E+11	-2.979391E-13	NaN
310	1.000000	0.234386	7.3681e+06	-54139.1	955.818	-29744.6	0.000000	0.000000	6.234823	-0.024809	NaN	0.000000	0.001638	0.001697	28.0801	0.074997	0.002126	35.2747	173.15	-165.134	-0.054161	0.233083	-0.822180	-0.823484	-0.024809	35.2747	-0.821653	-8.843474E+10	2.805323E-13	NaN
310	1.000000	0.242384	7.3681e+06	-54139.1	955.818	-29744.6	0.000000	0.000000	6.242819	-0.059674	NaN	0.000000	0.001643	0.001699	28.08	0.041532	0.001958	21.2067	-25.9052	-164.219	-0.023577	0.241062	-0.814182	-0.815504	-0.059674	21.2067	-0.812072	-6.556610E+10	9.101371E-13	NaN
310	1.000000	0.250386	7.3681e+06	-54139.1	955.818	-29744.6	0.000000	0.000000	6.250824	0.002501	NaN	0.000000	0.001593	0.001662	28.0801	0.120493	0.002047	58.8775	143.004	-163.132	-0.016672	0.249098	-0.806180	-0.807468	0.002501	58.8775	-0.806212	-5.459744E+10	-4.580824E-14	NaN
310	1.000000	0.258420	7.3681e+06	-54139.1	955.819	-29744.6	0.000000	0.000000	6.258858	0.021122	NaN	0.000000	0.001568	0.001677	28.0803	0.084428	0.002109	40.0269	42.402	-164.659	0.007692	0.257151	-0.798147	-0.799415	0.021122	40.0269	-0.798543	-4.296160E+10	-4.916398E-13	NaN
310	1.000000	0.266407	7.3681e+06	-54139.1	955.818	-29744.6	0.000000	0.000000	6.266846	0.045073	NaN	0.000000	0.001605	0.001663	28.0804	0.049072	0.001985	24.7226	-156.876	-168.012	0.015997	0.265108	-0.790159	-0.791459	0.045073	24.7226	-0.791527	-3.450006E+10	-1.306473E-12	NaN
310	1.000000	0.274400	7.3681e+06	-54139.1	955.818	-29744.6	0.000000	0.000000	6.274834	-0.067130	NaN	0.000000	0.001603	0.001687	28.0806	0.009296	0.001863	4.990477	52.5425	-164.959	0.000812	0.273105	-0.782167	-0.783462	-0.067130	4.990477	-0.772078	-1.877405E+10	3.575691E-12	NaN
310	1.000000	0.282394	7.3681e+06	-54139.1	955.818	-29744.6	0.000000	0.000000	6.282832	0.022139	NaN	0.000000	0.001585	0.001671	28.0814	0.076445	0.001919	39.8314	-76.6202	-164.439	0.022361	0.281077	-0.774173	-0.775490	0.022139	39.8314	-0.774590	-2.030956E+10	-1.090069E-12	NaN
310	1.000000	0.290407	7.3681e+06	-54139.1	955.818	-29744.6	0.000000	0.000000	6.290845	0.007224	NaN	0.000000	0.001606	0.001718	28.0805	0.089483	0.002016	44.3756	-138.362	-168.47	0.004089	0.289075	-0.766159	-0.767492	0.007224	44.3756	-0.766282	-1.565820E+10	-4.613638E-13	NaN
310	1.000000	0.298432	7.3681e+06	-54139.1	955.818	-29744.6	0.000000	0.000000	6.298867	-0.036379	NaN	0.000000	0.001615	0.001696	28.0817	0.022651	0.002184	10.3705	64.1791	-163.55	-0.009043	0.297076	-0.758135	-0.759491	-0.036379	10.3705	-0.755504	-1.117198E+10	3.256236E-12	NaN
310	1.000000	0.306423	7.3681e+06	-54139.1	955.818	-29744.6	0.000000	0.000000	6.306854	-0.164700	NaN	0.000000	0.001619	0.001709	28.0815	0.029837	0.002021	14.7665	126.601	-163.378	-0.118513	0.305077	-0.750144	-0.751489	-0.164700	14.7665	-0.741778	-7.265696E+9	2.266822E-11	NaN
310	1.000000	0.314428	7.3681e+06	-54139.1	955.818	-29744.6	0.000000	0.000000	6.314862	-0.059606	NaN	0.000000	0.001599	0.001655	28.0819	0.050217	0.001910	26.2979	6.765660	-163.286	0.013096	0.313045	-0.742139	-0.743522	-0.059606	26.2979	-0.740439	-6.966837E+9	8.555706E-12	NaN
310	1.000000	0.322426	7.3681e+06	-54139.1	955.818	-29744.6	0.000000	0.000000	6.322864	0.029526	NaN	0.000000	0.001643	0.001665	28.0817	0.008554	0.002103	4.068378	-101.022	-161.439	-0.042730	0.321130	-0.734141	-0.735437	0.029526	4.068378	-0.739584	-6.782421E+9	-4.353259E-12	NaN
310	1.000000	0.330426	7.3681e+06	-54139.1	955.819	-29744.6	0.000000	0.000000	6.330863	-0.030694	NaN	0.000000	0.001605	0.001669	28.0819	0.056876	0.002041	27.867	-179.392	-164.352	-0.022909	0.329110	-0.726140	-0.727456	-0.030694	27.867	-0.725314	-4.334431E+9	7.081453E-12	NaN
310	1.000000	0.338435	7.3681e+06	-54139.1	955.818	-29744.6	0.000000	0.000000	6.338875	0.077158	NaN	0.000000	0.001600	0.001675	28.0818	0.103240	0.002180	47.3621	147.632	-167.281	0.001810	0.337166	-0.718132	-0.719400	0.077158	47.3621	-0.719354	-3.594655E+9	-2.146476E-11	NaN
310	1.000000	0.346431	7.3681e+06	-54139.1	955.818	-29744.6	0.000000	0.000000	6.346868	-0.012713	NaN	0.000000	0.001612	0.001620	28.0817	0.121630	0.002074	58.6499	115.264	-167.176	-0.073712	0.345101	-0.710136	-0.711466	-0.012713	58.6499	-0.709973	-2.677213E+9	4.748627E-12	NaN
310	1.000000	0.354429	7.3681e+06	-54139.1	955.819	-29744.6	0.000000	0.000000	6.354871	0.108261	NaN	0.000000	0.001576	0.001652	28.082	0.103397	0.002063	50.1164	117.351	-170.024	0.055741	0.353179	-0.702138	-0.703387	0.108261	50.1164	-0.703758	-2.202119E+9	-4.916224E-11	NaN
310	1.000000	0.362443	7.3681e+06	-54139.1	955.818	-29744.6	0.000000	0.000000	6.362880	-0.005353	NaN	0.000000	0.001581	0.001690	28.0816	0.035148	0.002019	17.4125	70.3414	-162.483	0.042918	0.361122	-0.694123	-0.695445	-0.005353	17.4125	-0.693893	-1.614772E+9	3.314841E-12	NaN
310	1.000000	0.370451	7.3681e+06	-54139.1	955.818	-29744.6	0.000000	0.000000	6.370889	0.018653	NaN	0.000000	0.001581	0.001653	28.0818	0.113754	0.002082	54.643	-137.368	-164.601	-0.049003	0.369195	-0.686116	-0.687372	0.018653	54.643	-0.686372	-1.274463E+9	-1.463633E-11	NaN
310	1.000000	0.378442	7.3681e+06	-54139.1	955.818	-29744.6	0.000000	0.000000	6.378876	-0.073151	NaN	0.000000	0.001587	0.001679	28.0812	0.017367	0.001882	9.229675	-64.6229	-160.66	-0.024819	0.377135	-0.678125	-0.679432	-0.073151	9.229675	-0.672181	-8.151396E+8	8.974092E-11	NaN
310	1.000000	0.386466	7.3681e+06	-54139.1	955.819	-29744.6	0.000000	0.000000	6.386901	-0.064479	NaN	0.000000	0.001618	0.001675	28.0813	0.031100	0.002091	14.8703	-97.8393	-167.622	-0.051796	0.385198	-0.670101	-0.671369	-0.064479	14.8703	-0.666849	-6.890523E+8	9.357598E-11	NaN
310	1.000000	0.394442	7.3681e+06	-54139.1	955.817	-29744.6	0.000000	0.000000	6.394880	0.014311	NaN	0.000000	0.001595	0.001684	28.0816	0.072205	0.002065	34.9645	-169.235	-164.341	0.034711	0.393108	-0.662125	-0.663458	0.014311	34.9645	-0.662432	-5.994818E+8	-2.387179E-11	NaN
310	1.000000	0.402461	7.3681e+06	-54139.1	955.819	-29744.6	0.000000	0.000000	6.402897	-0.019436	NaN	0.000000	0.001605	0.001708	28.0811	0.050764	0.002004	25.3327	110.76	-165.372	-0.023964	0.401166	-0.654106	-0.655401	-0.019436	25.3327	-0.653530	-4.527168E+8	4.293278E-11	NaN
310	1.000000	0.410488	7.3681e+06	-54139.1	955.817	-29744.6	0.000000	0.000000	6.410927	0.030637	NaN	0.000000	0.001584	0.001732	28.0815	0.109082	0.001998	54.6087	-68.0458	-164.86	-0.028254	0.409182	-0.646078	-0.647384	0.030637	54.6087	-0.646499	-3.626053E+8	-8.449202E-11	NaN
310	1.000000	0.418439	7.3681e+06	-54139.1	955.818	-29744.6	0.000000	0.000000	6.418876	-0.026988	NaN	0.000000	0.001648	0.001730	28.0814	0.178533	0.001892	94.383	-161.962	-162.934	0.036584	0.417165	-0.638127	-0.639402	-0.026988	94.383	-0.637913	-2.764699E+8	9.761724E-11	NaN
310	1.000000	0.426459	7.3681e+06	-54139.1	955.819	-29744.6	0.000000	0.000000	6.426894	-0.060783	NaN	0.000000	0.001624	0.001721	28.0815	0.027280	0.002159	12.6373	114.444	-163.425	-0.056095	0.425160	-0.630107	-0.631407	-0.060783	12.6373	-0.626500	-1.927312E+8	3.153775E-10	NaN
310	1.000000	0.434478	7.3681e+06	-54139.1	955.817	-29744.6	0.000000	0.000000	6.434915	-0.001790	NaN	0.000000	0.001637	0.001750	28.0805	0.048529	0.002100	23.114	163.876	-164.171	0.034024	0.433139	-0.622089	-0.623427	-0.001790	23.114	-0.622031	-1.673194E+8	1.070009E-11	NaN
310	1.000000	0.442492	7.3681e+06	-54139.1	955.818	-29744.6	0.000000	0.000000	6.442930	0.003857	NaN	0.000000	0.001637	0.001709	28.0804	0.075462	0.002076	36.351	-158.799	-165.964	-0.019088	0.441164	-0.614074	-0.615402	0.003857	36.351	-0.614154	-1.303918E+8	-2.957946E-11	NaN
310	1.000000	0.450473	7.3681e+06	-54139.1	955.818	-29744.6	0.000000	0.000000	6.450911	0.024293	NaN	0.000000	0.001589	0.001690	28.0805	0.127646	0.002033	62.7831	75.9297	-167.886	0.043808	0.449181	-0.606094	-0.607386	0.024293	62.7831	-0.606384	-1.019428E+8	-2.382967E-10	NaN
310	1.000000	0.458472	7.3681e+06	-54139.1	955.817	-29744.6	0.000000	0.000000	6.458906	-0.080312	NaN	0.000000	0.001610	0.001708	28.0804	0.008352	0.001833	4.556888	72.799	-166.822	-0.105798	0.457142	-0.598094	-0.599425	-0.080312	4.556888	-0.584876	-5.152350E+7	1.558747E-9	NaN
310	1.000000	0.466520	7.3681e+06	-54139.1	955.818	-29744.6	0.000000	0.000000	6.466956	-0.052907	NaN	0.000000	0.001574	0.001680	28.0805	0.039203	0.002212	17.7268	-105.681	-163.226	-0.051428	0.465190	-0.590046	-0.591376	-0.052907	17.7268	-0.587808	-5.655080E+7	9.355705E-10	NaN
310	1.000000	0.474459	7.3681e+06	-54139.1	955.818	-29744.6	0.000000	0.000000	6.474894	-0.035775	NaN	0.000000	0.001615	0.001701	28.0806	0.094216	0.001974	47.7213	150.323	-167.459	-0.111455	0.473190	-0.582108	-0.583377	-0.035775	47.7213	-0.581546	-4.635080E+7	7.718207E-10	NaN
310	1.000000	0.482498	7.3681e+06	-54139.1	955.817	-29744.6	0.000000	0.000000	6.482935	-0.013119	NaN	0.000000	0.001585	0.001702	28.0806	0.076255	0.001979	38.5338	-173.943	-165.193	-0.051960	0.481171	-0.574068	-0.575395	-0.013119	38.5338	-0.573813	-3.624989E+7	3.619020E-10	NaN
310	1.000000	0.490489	7.3681e+06	-54139.1	955.818	-29744.6	0.000000	0.000000	6.490927	0.016986	NaN	0.000000	0.001593	0.001710	28.0805	0.027480	0.002214	12.4106	93.4468	-162.033	-0.030543	0.489153	-0.566078	-0.567413	0.016986	12.4106	-0.567105	-2.928315E+7	-5.800762E-10	NaN
310	1.000000	0.498510	7.3681e+06	-54139.1	955.819	-29744.6	0.000000	0.000000	6.498949	0.029679	NaN	0.000000	0.001628	0.001668	28.0806	0.075232	0.002017	37.2993	35.7724	-164.341	0.031858	0.497210	-0.558056	-0.559356	0.029679	37.2993	-0.558653	-2.237389E+7	-1.326522E-9	NaN
310	1.000000	0.506494	7.3681e+06	-54139.1	955.817	-29744.6	0.000000	0.000000	6.506934	0.044354	NaN	0.000000	0.001593	0.001697	28.0806	0.070248	0.002037	34.4856	81.4212	-167.263	0.052971	0.505200	-0.550072	-0.551366	0.044354	34.4856	-0.551037	-1.755149E+7	-2.527099E-9	NaN
310	1.000000	0.514500	7.3681e+06	-54139.1	955.818	-29744.6	0.000000	0.000000	6.514933	-0.105556	NaN	0.000000	0.001617	0.001692	28.0805	0.037093	0.002142	17.3187	134.256	-163.127	0.029114	0.513196	-0.542066	-0.543371	-0.105556	17.3187	-0.537495	-1.139237E+7	9.265469E-9	NaN
310	1.000000	0.522514	7.3681e+06	-54139.1	955.819	-29744.6	0.000000	0.000000	6.522951	-0.013846	NaN	0.000000	0.001603	0.001673	28.0804	0.009439	0.002007	4.702983	-108.504	-168.766	-0.048989	0.521159	-0.534052	-0.535407	-0.013846	4.702983	-0.531844	-9.50999e+06	1.455962E-9	NaN
310	1.000000	0.530532	7.3681e+06	-54139.1	955.818	-29744.6	0.000000	0.000000	6.530970	0.001421	NaN	0.000000	0.001591	0.001654	28.0803	0.085311	0.001993	42.8119	-178.982	-162.356	0.043943	0.529202	-0.526034	-0.527365	0.001421	42.8119	-0.526059	-7.90369e+06	-1.797507E-10	NaN
310	1.000000	0.538525	7.3681e+06	-54139.1	955.818	-29744.6	0.000000	0.000000	6.538963	0.019876	NaN	0.000000	0.001578	0.001654	28.0804	0.032941	0.002045	16.1092	-122.975	-166.577	0.133944	0.537239	-0.518041	-0.519328	0.019876	16.1092	-0.518967	-6.29834e+06	-3.155706E-9	NaN
310	1.000000	0.546510	7.3681e+06	-54139.1	955.818	-29744.6	0.000000	0.000000	6.546944	-0.079088	NaN	0.000000	0.001619	0.001628	28.0803	0.007569	0.002116	3.577492	51.5031	-164.366	-0.041866	0.545198	-0.510056	-0.511369	-0.079088	3.577492	-0.493476	-2.7794e+06	2.845507E-8	NaN
310	1.000000	0.554539	7.3681e+06	-54139.1	955.818	-29744.6	0.000000	0.000000	6.554974	-0.046773	NaN	0.000000	0.001613	0.001668	28.0803	0.010863	0.001961	5.539364	43.8815	-164.634	-0.093621	0.553239	-0.502028	-0.503328	-0.046773	5.539364	-0.495695	-2.98493e+06	1.566985E-8	NaN
310	1.000000	0.562553	7.3681e+06	-54139.1	955.818	-29744.6	0.000000	0.000000	6.562990	-0.012631	NaN	0.000000	0.001595	0.001679	28.0805	0.031725	0.001881	16.8641	33.0152	-168.124	0.013950	0.561248	-0.494013	-0.495318	-0.012631	16.8641	-0.493451	-2.77721e+06	4.548096E-9	NaN
310	1.000000	0.570523	7.3681e+06	-54139.1	955.818	-29744.6	0.000000	0.000000	6.570958	-0.039132	NaN	0.000000	0.001610	0.001686	28.0816	0.084062	0.001962	42.8531	-150.163	-165.442	-0.051359	0.569193	-0.486044	-0.487373	-0.039132	42.8531	-0.485359	-2.14048e+06	1.828202E-8	NaN
310	1.000000	0.578522	7.3681e+06	-54139.1	955.819	-29744.6	0.000000	0.000000	6.578961	0.052362	NaN	0.000000	0.001609	0.001665	28.0819	0.099861	0.002148	46.48	-108.535	-163.767	0.031113	0.577177	-0.478045	-0.479389	0.052362	46.48	-0.478890	-1.73773e+06	-3.013232E-8	NaN
310	1.000000	0.586522	7.3681e+06	-54139.1	955.818	-29744.6	0.000000	0.000000	6.586957	-0.063995	NaN	0.000000	0.001570	0.001670	28.0817	0.068498	0.001985	34.5068	164.372	-165.515	-0.012408	0.585197	-0.470044	-0.471370	-0.063995	34.5068	-0.468653	-1.24886e+06	5.124250E-8	NaN
310	1.000000	0.594552	7.3681e+06	-54139.1	955.819	-29744.6	0.000000	0.000000	6.594990	0.023953	NaN	0.000000	0.001570	0.001664	28.0816	0.028547	0.001960	14.5622	45.8363	-163.743	0.006880	0.593189	-0.462015	-0.463377	0.023953	14.5622	-0.463248	-1.0487e+06	-2.284085E-8	NaN
310	1.000000	0.602572	7.3681e+06	-54139.1	955.818	-29744.6	0.000000	0.000000	6.603008	-0.032437	NaN	0.000000	0.001604	0.001678	28.0816	0.069619	0.001906	36.5192	166.553	-165.198	-0.026508	0.601239	-0.453995	-0.455328	-0.032437	36.5192	-0.453328	-760673	4.264306E-8	NaN
310	1.000000	0.610546	7.3681e+06	-54139.1	955.817	-29744.6	0.000000	0.000000	6.610984	0.016731	NaN	0.000000	0.001592	0.001642	28.0815	0.180318	0.002061	87.498	-173.307	-163.352	0.077467	0.609191	-0.446020	-0.447376	0.016731	87.498	-0.446164	-602974	-2.774766E-8	NaN
310	1.000000	0.618563	7.3681e+06	-54139.1	955.819	-29744.6	0.000000	0.000000	6.618999	-0.029632	NaN	0.000000	0.001551	0.001690	28.0819	0.041227	0.002030	20.313	108.074	-162.537	-0.113540	0.617254	-0.438003	-0.439312	-0.029632	20.313	-0.436909	-446404	6.638017E-8	NaN
310	1.000000	0.626574	7.3681e+06	-54139.1	955.818	-29744.6	0.000000	0.000000	6.627008	-0.063814	NaN	0.000000	0.001571	0.001654	28.0818	0.094169	0.001981	47.5375	85.5291	-165.119	-0.035237	0.625217	-0.429993	-0.431349	-0.063814	47.5375	-0.428986	-344918	1.850117E-7	NaN
310	1.000000	0.634540	7.3681e+06	-54139.1	955.818	-29744.6	0.000000	0.000000	6.634979	0.027436	NaN	0.000000	0.001575	0.001690	28.0814	0.062443	0.001939	32.2049	-77.1705	-167.501	-0.011241	0.633283	-0.422026	-0.423284	0.027436	32.2049	-0.422665	-280676	-9.775150E-8	NaN
310	1.000000	0.642557	7.3681e+06	-54139.1	955.817	-29744.6	0.000000	0.000000	6.642994	-0.011537	NaN	0.000000	0.001631	0.001685	28.0815	0.087884	0.002020	43.5159	27.493	-163.081	0.011321	0.641275	-0.414009	-0.415292	-0.011537	43.5159	-0.413810	-210164	5.489596E-8	NaN
310	1.000000	0.650606	7.3681e+06	-54139.1	955.818	-29744.6	0.000000	0.000000	6.651042	-0.031205	NaN	0.000000	0.001636	0.001654	28.0814	0.044863	0.002006	22.3623	-19.8681	-164.17	0.014765	0.649234	-0.405961	-0.407332	-0.031205	22.3623	-0.404914	-157045	1.986985E-7	NaN
310	1.000000	0.658571	7.3681e+06	-54139.1	955.818	-29744.6	0.000000	0.000000	6.659008	-0.028745	NaN	0.000000	0.001608	0.001677	28.0815	0.042482	0.001998	21.2629	-79.6778	-167.047	0.025185	0.657251	-0.397995	-0.399315	-0.028745	21.2629	-0.396981	-121039	2.374842E-7	NaN
310	1.000000	0.666583	7.3681e+06	-54139.1	955.818	-29744.6	0.000000	0.000000	6.667020	-0.016378	NaN	0.000000	0.001575	0.001654	28.0814	0.081570	0.001959	41.6418	-161.905	-162.624	-0.032321	0.665264	-0.389983	-0.391303	-0.016378	41.6418	-0.389688	-95215.6	1.720076E-7	NaN
310	1.000000	0.674556	7.3681e+06	-54139.1	955.819	-29744.6	0.000000	0.000000	6.674995	0.038454	NaN	0.000000	0.001614	0.001651	28.0815	0.040103	0.002066	19.4146	74.4809	-164.223	0.007368	0.673325	-0.382010	-0.383242	0.038454	19.4146	-0.383496	-77630.1	-4.953554E-7	NaN
310	1.000000	0.682591	7.3681e+06	-54139.1	955.818	-29744.6	0.000000	0.000000	6.683028	-0.011102	NaN	0.000000	0.001634	0.001678	28.0819	0.011835	0.001883	6.283797	70.1155	-161.475	0.000905	0.681240	-0.373975	-0.375327	-0.011102	6.283797	-0.372650	-54234.4	2.047081E-7	NaN
310	1.000000	0.690558	7.3681e+06	-54139.1	955.817	-29744.6	0.000000	0.000000	6.690993	-0.048689	NaN	0.000000	0.001636	0.001699	28.0814	0.039244	0.002052	19.1221	35.5858	-164.314	-0.059122	0.689257	-0.366009	-0.367310	-0.048689	19.1221	-0.364099	-40837.2	1.192273E-6	NaN
310	1.000000	0.698602	7.3681e+06	-54139.1	955.818	-29744.6	0.000000	0.000000	6.699043	0.091211	NaN	0.000000	0.001655	0.001666	28.0814	0.152128	0.001892	80.4119	95.3337	-166.456	0.066349	0.697250	-0.357965	-0.359317	0.091211	80.4119	-0.358816	-34254.7	-2.662727E-6	NaN
310	1.000000	0.706603	7.3681e+06	-54139.1	955.819	-29744.6	0.000000	0.000000	6.707038	-0.060768	NaN	0.000000	0.001603	0.001634	28.0802	0.041119	0.001953	21.0552	1.399657	-164.059	-0.028822	0.705272	-0.349964	-0.351295	-0.060768	21.0552	-0.347799	-23716	2.562335E-6	NaN
310	1.000000	0.714580	7.3681e+06	-54139.1	955.818	-29744.6	0.000000	0.000000	6.715014	-0.067443	NaN	0.000000	0.001626	0.001671	28.0802	0.076918	0.002136	36.0131	-51.9168	-164.909	-0.009963	0.713284	-0.341987	-0.343283	-0.067443	36.0131	-0.340582	-18622.6	3.621533E-6	NaN
310	1.000000	0.722592	7.3681e+06	-54139.1	955.819	-29744.6	0.000000	0.000000	6.723028	-0.029163	NaN	0.000000	0.001622	0.001694	28.0803	0.053437	0.002065	25.8804	107.824	-163.282	0.015495	0.721297	-0.333975	-0.335269	-0.029163	25.8804	-0.333130	-14496	2.011779E-6	NaN
310	1.000000	0.730598	7.3681e+06	-54139.1	955.818	-29744.6	0.000000	0.000000	6.731035	-0.006738	NaN	0.000000	0.001636	0.001711	28.0804	0.051759	0.002025	25.5649	-123.51	-166.547	0.034963	0.729261	-0.325968	-0.327306	-0.006738	25.5649	-0.325771	-11309.7	5.957977E-7	NaN
310	1.000000	0.738597	7.3681e+06	-54139.1	955.817	-29744.6	0.000000	0.000000	6.739035	0.007574	NaN	0.000000	0.001604	0.001724	28.0801	0.030823	0.002090	14.7446	-75.0844	-166.899	0.080183	0.737276	-0.317970	-0.319290	0.007574	14.7446	-0.318355	-8798.57	-8.608168E-7	NaN
310	1.000000	0.746605	7.3681e+06	-54139.1	955.818	-29744.6	0.000000	0.000000	6.747041	-0.015513	NaN	0.000000	0.001639	0.001691	28.0801	0.042618	0.001831	23.2697	94.4083	-165.868	-0.089183	0.745295	-0.309962	-0.311271	-0.015513	23.2697	-0.309462	-6502.64	2.385584E-6	NaN
310	1.000000	0.754581	7.3681e+06	-54139.1	955.818	-29744.6	0.000000	0.000000	6.755017	-0.035151	NaN	0.000000	0.001626	0.001720	28.0799	0.077943	0.001870	41.683	-151.534	-164.851	-0.065489	0.753333	-0.301985	-0.303233	-0.035151	41.683	-0.301353	-4929.05	7.131458E-6	NaN
310	1.000000	0.762616	7.3681e+06	-54139.1	955.818	-29744.6	0.000000	0.000000	6.763050	-0.072784	NaN	0.000000	0.001630	0.001701	28.0799	0.088136	0.001948	45.2357	-82.1665	-163.294	-0.034654	0.761318	-0.293951	-0.295248	-0.072784	45.2357	-0.292744	-3667.57	1.984530E-5	NaN
310	1.000000	0.770615	7.3681e+06	-54139.1	955.818	-29744.6	0.000000	0.000000	6.771051	-0.023914	NaN	0.000000	0.001622	0.001675	28.0804	0.073896	0.002025	36.5	-115.825	-163.581	-0.015294	0.769384	-0.285952	-0.287183	-0.023914	36.5	-0.285461	-2852.25	8.384349E-6	NaN
310	1.000000	0.778634	7.3681e+06	-54139.1	955.818	-29744.6	0.000000	0.000000	6.779071	-0.032311	NaN	0.000000	0.001624	0.001669	28.0822	0.033516	0.002063	16.2444	155.609	-163.729	-0.070572	0.777279	-0.277932	-0.279287	-0.032311	16.2444	-0.276440	-2085.44	1.549356E-5	NaN
310	1.000000	0.786614	7.3681e+06	-54139.1	955.818	-29744.6	0.000000	0.000000	6.787054	0.048150	NaN	0.000000	0.001657	0.001665	28.0838	0.026248	0.002187	11.9994	129.553	-162.099	0.010659	0.785322	-0.269952	-0.271245	0.048150	11.9994	-0.272962	-1847.19	-2.606639E-5	NaN
310	1.000000	0.794653	7.3681e+06	-54139.1	955.818	-29744.6	0.000000	0.000000	6.795089	-0.040179	NaN	0.000000	0.001668	0.001685	28.0808	0.089204	0.001873	47.6236	98.9775	-164.213	-0.085019	0.793308	-0.261914	-0.263259	-0.040179	47.6236	-0.261281	-1226.13	3.276917E-5	NaN
310	1.000000	0.802601	7.3681e+06	-54139.1	955.818	-29744.6	0.000000	0.000000	6.803035	-0.074360	NaN	0.000000	0.001654	0.001658	28.0803	0.099132	0.002001	49.5395	35.2439	-166.284	-0.045406	0.801323	-0.253966	-0.255244	-0.074360	49.5395	-0.252840	-909.56	8.175329E-5	NaN
310	1.000000	0.810638	7.3681e+06	-54139.1	955.818	-29744.6	0.000000	0.000000	6.811076	0.022938	NaN	0.000000	0.001638	0.001667	28.0804	0.069789	0.001986	35.1355	-28.624	-162.453	0.048572	0.809354	-0.245929	-0.247213	0.022938	35.1355	-0.246418	-723.569	-3.170105E-5	NaN
310	1.000000	0.818641	7.3681e+06	-54139.1	955.818	-29744.6	0.000000	0.000000	6.819080	0.048668	NaN	0.000000	0.001650	0.001659	28.0801	0.052349	0.002079	25.1755	-21.0498	-166.765	0.106562	0.817400	-0.237926	-0.239166	0.048668	25.1755	-0.239375	-562.075	-8.658571E-5	NaN
310	1.000000	0.826635	7.3681e+06	-54139.1	955.818	-29744.6	0.000000	0.000000	6.827076	0.080238	NaN	0.000000	0.001646	0.001660	28.0801	0.093530	0.002001	46.7521	-111.428	-165.53	0.041467	0.825259	-0.229931	-0.231307	0.080238	46.7521	-0.231219	-418.549	-0.000192	NaN
310	1.000000	0.834651	7.3681e+06	-54139.1	955.817	-29744.6	0.000000	0.000000	6.835088	-0.016816	NaN	0.000000	0.001619	0.001681	28.0804	0.049941	0.002000	24.975	-14.5867	-166.508	-0.018500	0.833300	-0.221915	-0.223267	-0.016816	24.975	-0.221410	-292.544	5.748201E-5	NaN
310	1.000000	0.842644	7.3681e+06	-54139.1	955.818	-29744.6	0.000000	0.000000	6.843082	0.015184	NaN	0.000000	0.001620	0.001690	28.0811	0.068156	0.001985	34.3311	-49.6851	-163.734	-0.045328	0.841328	-0.213922	-0.215239	0.015184	34.3311	-0.214254	-224.653	-6.758926E-5	NaN
310	1.000000	0.850641	7.3681e+06	-54139.1	955.818	-29744.6	0.000000	0.000000	6.851077	-0.022866	NaN	0.000000	0.001622	0.001677	28.0814	0.116692	0.002057	56.7336	4.189013	-163.313	-0.012225	0.849318	-0.205926	-0.207248	-0.022866	56.7336	-0.205624	-162.827	0.000140	NaN
310	1.000000	0.858616	7.3681e+06	-54139.1	955.818	-29744.6	0.000000	0.000000	6.859054	0.012207	NaN	0.000000	0.001626	0.001664	28.0812	0.048690	0.002054	23.701	58.1946	-166.09	-0.056992	0.857318	-0.197950	-0.199248	0.012207	23.701	-0.198337	-123.688	-9.868880E-5	NaN
310	1.000000	0.866659	7.3681e+06	-54139.1	955.817	-29744.6	0.000000	0.000000	6.867095	-0.030854	NaN	0.000000	0.001593	0.001681	28.0813	0.005966	0.001995	2.990961	-132.998	-159.456	-0.004524	0.865325	-0.189907	-0.191242	-0.030854	2.990961	-0.182171	-66.4231	0.000465	NaN
310	1.000000	0.874651	7.3681e+06	-54139.1	955.818	-29744.6	0.000000	0.000000	6.875088	-0.012247	NaN	0.000000	0.001585	0.001707	28.0816	0.135339	0.001937	69.8854	-57.8696	-164.198	0.012069	0.873338	-0.181915	-0.183228	-0.012247	69.8854	-0.181784	-65.4282	0.000187	NaN
310	1.000000	0.882647	7.3681e+06	-54139.1	955.819	-29744.6	0.000000	0.000000	6.883086	0.017943	NaN	0.000000	0.001638	0.001682	28.0816	0.051469	0.002037	25.2653	-91.8679	-165.693	0.039211	0.881372	-0.173919	-0.175195	0.017943	25.2653	-0.174452	-49.0402	-0.000366	NaN
310	1.000000	0.890643	7.3681e+06	-54139.1	955.818	-29744.6	0.000000	0.000000	6.891077	-0.069080	NaN	0.000000	0.001600	0.001725	28.0815	0.080087	0.001974	40.5782	-174.69	-163.016	0.029530	0.889366	-0.165924	-0.167200	-0.069080	40.5782	-0.164647	-33.1213	0.002086	NaN
310	1.000000	0.898694	7.3681e+06	-54139.1	955.818	-29744.6	0.000000	0.000000	6.899130	-0.033847	NaN	0.000000	0.001598	0.001681	28.0814	0.079054	0.001979	39.954	-124.001	-163.096	0.020159	0.897375	-0.157873	-0.159191	-0.033847	39.954	-0.157238	-24.4754	0.001383	NaN
310	1.000000	0.906677	7.3681e+06	-54139.1	955.818	-29744.6	0.000000	0.000000	6.907115	0.015895	NaN	0.000000	0.001617	0.001709	28.0814	0.021750	0.002003	10.8612	30.0355	-162.362	-0.030870	0.905376	-0.149889	-0.151191	0.015895	10.8612	-0.150987	-18.8792	-0.000842	NaN
310	1.000000	0.914679	7.3681e+06	-54139.1	955.818	-29744.6	0.000000	0.000000	6.915116	-0.004995	NaN	0.000000	0.001623	0.001692	28.0815	0.068452	0.002016	33.9602	34.1172	-163.525	-0.042874	0.913349	-0.141888	-0.143218	-0.004995	33.9602	-0.141777	-12.7721	0.000391	NaN
310	1.000000	0.922664	7.3681e+06	-54139.1	955.817	-29744.6	0.000000	0.000000	6.923102	-0.003368	NaN	0.000000	0.001618	0.001681	28.0811	0.072827	0.001945	37.4448	147.048	-162.884	-0.029527	0.921334	-0.133902	-0.135232	-0.003368	37.4448	-0.133835	-9.036435	0.000373	NaN
310	1.000000	0.930683	7.3681e+06	-54139.1	955.819	-29744.6	0.000000	0.000000	6.931119	-0.033660	NaN	0.000000	0.001618	0.001681	28.0814	0.057272	0.001960	29.2213	115.37	-164.766	-0.043049	0.929357	-0.125883	-0.127210	-0.033660	29.2213	-0.125019	-6.086578	0.005530	NaN
310	1.000000	0.938684	7.3681e+06	-54139.1	955.818	-29744.6	0.000000	0.000000	6.939121	-0.012083	NaN	0.000000	0.001617	0.001659	28.0813	0.053060	0.001997	26.5681	-100.094	-165.344	-0.069235	0.937358	-0.117883	-0.119208	-0.012083	26.5681	-0.117542	-4.307376	0.002805	NaN
310	1.000000	0.946700	7.3681e+06	-54139.1	955.817	-29744.6	0.000000	0.000000	6.947138	0.034546	NaN	0.000000	0.001603	0.001613	28.0816	0.132197	0.002047	64.5931	101.43	-162.405	0.015018	0.945375	-0.109867	-0.111191	0.034546	64.5931	-0.110268	-3.044552	-0.011347	NaN
310	1.000000	0.954682	7.3681e+06	-54139.1	955.819	-29744.6	0.000000	0.000000	6.955119	-0.011023	NaN	0.000000	0.001578	0.001655	28.0814	0.061970	0.002094	29.5906	66.1552	-165.35	-0.111410	0.953365	-0.101884	-0.103201	-0.011023	29.5906	-0.101605	-1.982448	0.005560	NaN
310	1.000000	0.962685	7.3681e+06	-54139.1	955.817	-29744.6	0.000000	0.000000	6.963122	0.011225	NaN	0.000000	0.001581	0.001675	28.0813	0.078551	0.001896	41.4315	-15.417	-163.608	0.051648	0.961377	-0.093882	-0.095190	0.011225	41.4315	-0.094085	-1.344351	-0.008350	NaN
310	1.000000	0.970686	7.3681e+06	-54139.1	955.818	-29744.6	0.000000	0.000000	6.971123	-0.008182	NaN	0.000000	0.001613	0.001657	28.0813	0.057687	0.001909	30.2128	127.497	-167.944	-0.065928	0.969385	-0.085880	-0.087181	-0.008182	30.2128	-0.085677	-0.853159	0.009590	NaN
310	1.000000	0.978709	7.3681e+06	-54139.1	955.818	-29744.6	0.000000	0.000000	6.979146	-0.012846	NaN	0.000000	0.001661	0.001681	28.0802	0.076948	0.001919	40.0963	153.834	-162.75	-0.062290	0.977415	-0.077857	-0.079152	-0.012846	40.0963	-0.077617	-0.539035	0.023832	NaN
310	1.000000	0.986680	7.3681e+06	-54139.1	955.817	-29744.6	0.000000	0.000000	6.987114	-0.063914	NaN	0.000000	0.001590	0.001660	28.0801	0.060494	0.001994	30.3358	-78.1867	-167.153	-0.066233	0.985389	-0.069887	-0.071177	-0.063914	30.3358	-0.068307	-0.307088	0.208129	NaN
310	1.000000	0.994719	7.3681e+06	-54139.1	955.819	-29744.6	0.000000	0.000000	6.995155	-0.021009	NaN	0.000000	0.001580	0.001663	28.0803	0.052196	0.002037	25.6215	-24.6907	-162.448	0.079597	0.993396	-0.061848	-0.063171	-0.021009	25.6215	-0.061233	-0.195311	0.107565	NaN
310	1.000000	1.002732	7.3681e+06	-54139.1	955.817	-29744.6	0.000000	0.000000	7.003169	-0.012835	NaN	0.000000	0.001630	0.001659	28.0801	0.073234	0.002080	35.2071	-84.0008	-167.615	-0.010837	1.001378	-0.053835	-0.055189	-0.012835	35.2071	-0.053561	-0.116722	0.109963	NaN
310	1.000000	1.010696	7.3681e+06	-54139.1	955.817	-29744.6	0.000000	0.000000	7.011135	0.039241	NaN	0.000000	0.001609	0.001681	28.08	0.078148	0.002016	38.7698	-6.862999	-165.53	-0.010843	1.009439	-0.045871	-0.047127	0.039241	38.7698	-0.046630	-0.072077	-0.544431	NaN
310	1.000000	1.018716	7.3681e+06	-54139.1	955.817	-29744.6	0.000000	0.000000	7.019152	-0.039855	NaN	0.000000	0.001582	0.001710	28.0802	0.089422	0.002035	43.943	-91.0644	-164.091	0.030306	1.017428	-0.037850	-0.039138	-0.039855	43.943	-0.037170	-0.037149	1.072848	NaN
310	1.000000	1.026734	7.3681e+06	-54139.1	955.817	-29744.6	0.000000	0.000000	7.027173	0.052189	NaN	0.000000	0.001616	0.001671	28.0801	0.086488	0.001891	45.7406	77.8171	-165.036	0.057706	1.025389	-0.029833	-0.031178	0.052189	45.7406	-0.030688	-0.024057	-2.169410	NaN
310	1.000000	1.034741	7.3681e+06	-54139.1	955.818	-29744.6	0.000000	0.000000	7.035177	-0.050333	NaN	0.000000	0.001582	0.001687	28.0803	0.049730	0.002058	24.1688	144.258	-165.23	-0.061839	1.033468	-0.021825	-0.023099	-0.050333	24.1688	-0.020263	-0.012756	3.945848	NaN
310	1.000000	1.042752	7.3681e+06	-54139.1	955.818	-29744.6	0.000000	0.000000	7.043188	-0.025638	NaN	0.000000	0.001614	0.001689	28.0803	0.075897	0.001923	39.4702	8.332232	-165.945	-0.048628	1.041441	-0.013814	-0.015125	-0.025638	39.4702	-0.013327	-0.008291	3.092065	NaN
310	1.000000	1.050764	7.3681e+06	-54139.1	955.818	-29744.6	0.000000	0.000000	7.051201	-0.000186	NaN	0.000000	0.001636	0.001669	28.0805	0.042124	0.001802	23.3749	100.196	-166.536	0.034422	1.049369	-0.005803	-0.007197	-0.000186	23.3749	-0.005797	-0.003912	0.047561	NaN
310	1.000000	1.058733	7.3681e+06	-54139.1	955.818	-29744.6	0.000000	0.000000	7.059201	0.730237	NaN	0.000000	0.001585	0.001674	28.0801	1.242494	0.001926	645.131	9.408480	-169.907	0.155136	1.057375	0.002167	0.000808	0.730237	645.131	0.001318	0.001011	722.589	18541.1
310	1.000000	1.066614	7.3681e+06	-54139.1	955.817	-29744.6	0.000000	0.000000	7.067360	7.505673	NaN	0.000000	0.001586	0.001721	28.0802	8.179234	0.001740	4700.74	12.6751	-171.246	6.241903	1.065392	0.010047	0.008825	7.505673	4700.74	0.008850	0.007931	946.394	48225.9
310	2.000000	1.069277	7.3681e+06	-54139.1	955.818	-29744.6	0.000000	0.000000	7.070092	9.177600	NaN	0.000000	0.001610	0.001682	28.0803	10.2378	0.001606	6375.48	8.875021	-174.192	9.505338	1.069015	0.012711	0.012448	9.177600	6375.48	0.011631	0.011051	830.48	55409.7
310	2.000000	1.071240	7.3681e+06	-54139.1	955.816	-29744.6	0.000000	0.000000	7.072160	11.7315	NaN	0.000000	0.001622	0.001667	28.0815	12.6709	0.001834	6907.71	5.228318	-171.974	11.0153	1.071046	0.014673	0.014480	11.7315	6907.71	0.013400	0.013210	888.072	54910.4
310	2.000000	1.073267	7.3681e+06	-54139.1	955.817	-29744.6	0.000000	0.000000	7.074259	13.4875	NaN	0.000000	0.001593	0.001685	28.0802	14.3371	0.001887	7598.55	8.293388	-173.346	14.5171	1.072917	0.016701	0.016351	13.4875	7598.55	0.015369	0.015781	854.663	55263
310	2.000000	1.075236	7.3681e+06	-54139.1	955.816	-29744.6	0.000000	0.000000	7.076324	15.8	NaN	0.000000	0.001570	0.001688	28.0803	17.0069	0.001842	9233.15	8.894039	-177.29	16.2092	1.074931	0.018670	0.018365	15.8	9233.15	0.017386	0.018601	849.44	61852.9
310	2.000000	1.077187	7.3681e+06	-54139.1	955.817	-29744.6	0.000000	0.000000	7.078572	23.0391	NaN	0.000000	0.001595	0.001689	28.0805	19.1037	0.001743	10963.3	6.403135	-176.4	20.553	1.076894	0.020620	0.020328	23.0391	10963.3	0.019044	0.021063	1093.84	69017.6
310	2.000000	1.079218	7.3681e+06	-54139.1	955.818	-29744.6	0.000000	0.000000	7.080573	22.3281	NaN	0.000000	0.001585	0.001691	28.0811	20.3517	0.001742	11684.3	2.602868	-172.561	22.1924	1.078927	0.022651	0.022360	22.3281	11684.3	0.021218	0.024492	911.637	68212.2
310	2.000000	1.081192	7.3681e+06	-54139.1	955.818	-29744.6	0.000000	0.000000	7.082879	30.3777	NaN	0.000000	0.001587	0.001700	28.0816	23.5034	0.001875	12533.3	4.544278	-175.114	30.0221	1.080850	0.024626	0.024284	30.3777	12533.3	0.022808	0.027148	1118.97	69497.8
310	2.000000	1.083153	7.3681e+06	-54139.1	955.818	-29744.6	0.000000	0.000000	7.084927	32.4773	NaN	0.000000	0.001555	0.001692	28.0815	24.9211	0.001788	13938.4	7.907410	178.811	30.1993	1.082907	0.026587	0.026340	32.4773	13938.4	0.024839	0.030724	1057.06	72652
310	2.000000	1.085169	7.3681e+06	-54139.1	955.818	-29744.6	0.000000	0.000000	7.087259	40.1695	NaN	0.000000	0.001560	0.001697	28.0819	26.639	0.001655	16100.1	3.508140	-178.03	39.3432	1.084862	0.028603	0.028295	40.1695	16100.1	0.026732	0.034242	1173.12	79492.2
310	2.000000	1.087196	7.3681e+06	-54139.1	955.817	-29744.6	0.000000	0.000000	7.089362	42.0232	NaN	0.000000	0.001557	0.001739	28.0816	29.355	0.001834	16003.2	7.274820	179.382	40.5533	1.086933	0.030629	0.030366	42.0232	16003.2	0.028660	0.038011	1105.54	74993.4
310	2.000000	1.089228	7.3681e+06	-54139.1	955.817	-29744.6	0.000000	0.000000	7.091683	49.0448	NaN	0.000000	0.001576	0.001648	28.0817	30.9378	0.001818	17013	5.521246	-179.05	51.8057	1.088910	0.032662	0.032344	49.0448	17013	0.030499	0.041785	1173.73	76040
310	2.000000	1.091129	7.3681e+06	-54139.1	955.816	-29744.6	0.000000	0.000000	7.093714	52.2038	NaN	0.000000	0.001571	0.001724	28.0815	33.6139	0.001869	17986.7	6.165444	178.94	49.3112	1.090920	0.034563	0.034353	52.2038	17986.7	0.032386	0.045834	1138.98	76759.5
310	2.000000	1.093171	7.3681e+06	-54139.1	955.816	-29744.6	0.000000	0.000000	7.096136	61.4459	NaN	0.000000	0.001575	0.001663	28.083	35.2966	0.001911	18471.4	7.471626	179.116	61.6307	1.092800	0.036605	0.036233	61.4459	18471.4	0.034110	0.049693	1236.5	75705
310	2.000000	1.095130	7.3681e+06	-54139.1	955.817	-29744.6	0.000000	0.000000	7.098064	60.6873	NaN	0.000000	0.001566	0.001700	28.0818	36.6541	0.001774	20659.4	6.458244	176.571	58.9325	1.094967	0.038564	0.038400	60.6873	20659.4	0.036361	0.054962	1104.17	80512
310	2.000000	1.097177	7.3681e+06	-54139.1	955.817	-29744.6	0.000000	0.000000	7.100589	72.3197	NaN	0.000000	0.001571	0.001689	28.0818	38.802	0.001811	21428.7	6.023433	178.023	70.854	1.096859	0.040611	0.040292	72.3197	21428.7	0.038079	0.059159	1222.46	80493
310	2.000000	1.099196	7.3681e+06	-54139.1	955.817	-29744.6	0.000000	0.000000	7.102859	78.4318	NaN	0.000000	0.001612	0.001692	28.0819	39.8659	0.001798	22176.8	5.741287	178.288	80.2583	1.098816	0.042629	0.042249	78.4318	22176.8	0.039977	0.063969	1226.09	80110.3
310	2.000000	1.101201	7.3681e+06	-54139.1	955.817	-29744.6	0.000000	0.000000	7.105154	85.4509	NaN	0.000000	0.001618	0.001691	28.0818	43.6321	0.001972	22123.5	11.4766	173.779	87.7992	1.100824	0.044635	0.044257	85.4509	22123.5	0.041738	0.068597	1245.69	77174.3
310	2.000000	1.103179	7.3681e+06	-54139.1	955.817	-29744.6	0.000000	0.000000	7.107403	92.0766	NaN	0.000000	0.001600	0.001684	28.0827	43.074	0.001770	24339.9	4.670528	179.139	93.4055	1.102826	0.046612	0.046259	92.0766	24339.9	0.043775	0.074148	1241.8	81666.3
310	2.000000	1.105087	7.3681e+06	-54139.1	955.817	-29744.6	0.000000	0.000000	7.109589	98.8193	NaN	0.000000	0.001573	0.001679	28.0819	45.4414	0.001699	26746.1	2.748769	178.812	95.3928	1.104882	0.048521	0.048315	98.8193	26746.1	0.045749	0.079729	1239.44	86541.6
310	2.000000	1.107220	7.3681e+06	-54139.1	955.816	-29744.6	0.000000	0.000000	7.112254	111.747	NaN	0.000000	0.001599	0.001728	28.0817	48.2925	0.001731	27906.4	5.911285	175.879	112.943	1.106855	0.050654	0.050289	111.747	27906.4	0.047651	0.085290	1310.2	87302.7
310	2.000000	1.109142	7.3681e+06	-54139.1	955.815	-29744.6	0.000000	0.000000	7.114428	117.884	NaN	0.000000	0.001572	0.001694	28.0816	49.5063	0.001657	29881.4	1.494207	179.254	118.513	1.108845	0.052575	0.052278	117.884	29881.4	0.049617	0.091232	1292.14	90386
310	2.000000	1.111089	7.3681e+06	-54139.1	955.817	-29744.6	0.000000	0.000000	7.116591	123.13	NaN	0.000000	0.001583	0.001706	28.0816	53.0591	0.001838	28870.4	3.100169	177.322	120.532	1.110988	0.054522	0.054422	123.13	28870.4	0.051323	0.096548	1275.33	84889.7
310	2.000000	1.113126	7.3681e+06	-54139.1	955.817	-29744.6	0.000000	0.000000	7.119068	133.81	NaN	0.000000	0.001562	0.001700	28.0815	53.7107	0.001774	30270.6	3.310986	177.594	131.553	1.112939	0.056560	0.056372	133.81	30270.6	0.053245	0.102705	1302.86	86297.4
310	2.000000	1.115086	7.3681e+06	-54139.1	955.816	-29744.6	0.000000	0.000000	7.121648	148.918	NaN	0.000000	0.001544	0.001714	28.0803	56.5792	0.001924	29414.5	5.148745	176.674	146.64	1.114743	0.058519	0.058177	148.918	29414.5	0.054722	0.107565	1384.44	81940.6
310	2.000000	1.117132	7.3681e+06	-54139.1	955.817	-29744.6	0.000000	0.000000	7.123748	150.2	NaN	0.000000	0.001577	0.001721	28.0804	57.7747	0.001751	32994.2	3.617456	176.675	148.785	1.116876	0.060566	0.060310	150.2	32994.2	0.057151	0.115792	1297.15	88587.2
310	2.000000	1.119122	7.3681e+06	-54139.1	955.816	-29744.6	0.000000	0.000000	7.126178	160.908	NaN	0.000000	0.001627	0.001692	28.0805	58.9769	0.001892	31172.4	3.778686	177.049	161.05	1.118878	0.062556	0.062312	160.908	31172.4	0.058684	0.121133	1328.35	81829.8
310	2.000000	1.121111	7.3681e+06	-54139.1	955.818	-29744.6	0.000000	0.000000	7.128376	165.997	NaN	0.000000	0.001613	0.001693	28.0805	60.2137	0.001765	34117.3	-0.359227	-179.709	164.896	1.120964	0.064544	0.064397	165.997	34117.3	0.060895	0.129037	1286.43	86774.3
310	2.000000	1.123074	7.3681e+06	-54139.1	955.816	-29744.6	0.000000	0.000000	7.131003	182.114	NaN	0.000000	0.001582	0.001672	28.0804	61.2271	0.001701	35999.1	3.634735	175.715	178.07	1.122808	0.066508	0.066241	182.114	35999.1	0.062714	0.135718	1341.85	89278.3
310	2.000000	1.125073	7.3681e+06	-54139.1	955.817	-29744.6	0.000000	0.000000	7.133341	190.362	NaN	0.000000	0.001598	0.001664	28.0803	65.0535	0.001741	37359.8	5.232899	173.829	186.505	1.124771	0.068506	0.068205	190.362	37359.8	0.064685	0.143142	1329.88	90218.2
310	2.000000	1.127170	7.3681e+06	-54139.1	955.817	-29744.6	0.000000	0.000000	7.135992	203.83	NaN	0.000000	0.001613	0.001661	28.0805	67.886	0.001766	38440.1	9.492623	170.137	204.891	1.126810	0.070603	0.070243	203.83	38440.1	0.066627	0.150636	1353.12	90488.3
310	2.000000	1.129111	7.3681e+06	-54139.1	955.817	-29744.6	0.000000	0.000000	7.138662	221.566	NaN	0.000000	0.001590	0.001679	28.0804	68.7365	0.001754	39190.8	2.776281	176.145	220.621	1.128752	0.072545	0.072185	221.566	39190.8	0.068304	0.157259	1408.92	90292
310	2.000000	1.131095	7.3681e+06	-54139.1	955.817	-29744.6	0.000000	0.000000	7.140809	225.514	NaN	0.000000	0.001599	0.001701	28.0804	71.6277	0.001705	41999.4	7.257295	170.717	225.144	1.130824	0.074529	0.074258	225.514	41999.4	0.070502	0.166134	1357.42	94142.7
310	2.000000	1.133088	7.36811e+06	-54139.1	955.817	-29744.6	0.000000	0.000000	7.143581	244.481	NaN	0.000000	0.001596	0.001692	28.0805	71.8369	0.001700	42266.7	5.814204	172.012	241.376	1.132694	0.076521	0.076127	244.481	42266.7	0.072183	0.173082	1412.52	92821
310	2.000000	1.135051	7.36811e+06	-54139.1	955.817	-29744.6	0.000000	0.000000	7.146166	259.58	NaN	0.000000	0.001612	0.001691	28.0802	75.0046	0.001726	43463.8	5.914527	172.068	256.474	1.134670	0.078484	0.078103	259.58	43463.8	0.074005	0.180760	1436.05	93400.5
310	2.000000	1.137176	7.36811e+06	-54139.1	955.817	-29744.6	0.000000	0.000000	7.148899	274.37	NaN	0.000000	0.001577	0.001689	28.0809	77.2501	0.001932	39984.1	2.811337	176.545	274.436	1.136766	0.080609	0.080199	274.37	39984.1	0.075463	0.187017	1467.09	84473.4
310	2.000000	1.139045	7.36811e+06	-54139.1	955.818	-29744.6	0.000000	0.000000	7.151004	280.107	NaN	0.000000	0.001546	0.001665	28.0805	77.9521	0.001711	45553.7	4.625853	172.74	275.304	1.138703	0.082479	0.082137	280.107	45553.7	0.077867	0.197554	1417.88	93638.3
310	2.000000	1.141078	7.36811e+06	-54139.1	955.817	-29744.6	0.000000	0.000000	7.153773	297.989	NaN	0.000000	0.001567	0.001665	28.0806	82.1879	0.001737	47319.4	5.189906	171.56	296.535	1.140848	0.084511	0.084281	297.989	47319.4	0.079788	0.206169	1445.36	95213.9
310	2.000000	1.143022	7.36811e+06	-54139.1	955.818	-29744.6	0.000000	0.000000	7.156552	318.291	NaN	0.000000	0.001567	0.001673	28.0808	83.8911	0.001840	45586.4	9.383872	167.862	314.269	1.142764	0.086456	0.086197	318.291	45586.4	0.081219	0.212697	1496.45	90308.2
310	2.000000	1.145081	7.36811e+06	-54139.1	955.817	-29744.6	0.000000	0.000000	7.159386	337.127	NaN	0.000000	0.001555	0.001686	28.0806	86.0684	0.001866	46115.6	3.418995	174.286	334.563	1.144725	0.088515	0.088159	337.127	46115.6	0.083032	0.221103	1524.75	89603.3
310	2.000000	1.147016	7.36811e+06	-54139.1	955.816	-29744.6	0.000000	0.000000	7.161731	347.104	NaN	0.000000	0.001574	0.001674	28.0812	86.2598	0.001693	50958.8	0.545515	176.542	341.191	1.146783	0.090450	0.090216	347.104	50958.8	0.085341	0.232032	1495.93	96653.6
310	2.000000	1.149018	7.36811e+06	-54139.1	955.816	-29744.6	0.000000	0.000000	7.164315	361.237	NaN	0.000000	0.001597	0.001692	28.0819	88.2801	0.001657	53269.4	1.865602	174.256	356.318	1.148698	0.092452	0.092132	361.237	53269.4	0.087366	0.241817	1493.84	98970.9
310	2.000000	1.151172	7.36811e+06	-54139.1	955.816	-29744.6	0.000000	0.000000	7.166759	368.301	NaN	0.000000	0.001588	0.001703	28.0821	92.9345	0.001704	54536.3	6.672305	169.131	370.023	1.150974	0.094605	0.094407	368.301	54536.3	0.089540	0.252536	1458.41	99150.9
310	2.000000	1.153013	7.36811e+06	-54139.1	955.816	-29744.6	0.000000	0.000000	7.169680	394.551	NaN	0.000000	0.001590	0.001700	28.0821	92.6101	0.001740	53210.4	2.439199	174.049	389.343	1.152757	0.096447	0.096191	394.551	53210.4	0.090885	0.259275	1521.75	95474.8
310	2.000000	1.154992	7.36811e+06	-54139.1	955.817	-29744.6	0.000000	0.000000	7.172533	415.814	NaN	0.000000	0.001619	0.001707	28.0819	97.6398	0.001746	55917.8	8.766311	167.299	411.018	1.154704	0.098425	0.098138	415.814	55917.8	0.092848	0.269258	1544.3	98455.3
310	2.000000	1.157048	7.36811e+06	-54139.1	955.817	-29744.6	0.000000	0.000000	7.175536	438.837	NaN	0.000000	0.001637	0.001693	28.0822	99.6262	0.001779	55987	5.984574	170.751	434.539	1.156706	0.100481	0.100139	438.837	55987	0.094603	0.278329	1576.68	96957.5
310	2.000000	1.159001	7.36811e+06	-54139.1	955.817	-29744.6	0.000000	0.000000	7.178362	460.056	NaN	0.000000	0.001656	0.001693	28.0819	100.804	0.001723	58521.3	7.039315	168.98	456	1.158637	0.102435	0.102070	460.056	58521.3	0.096539	0.288503	1594.63	99543.3
310	2.000000	1.161092	7.36811e+06	-54139.1	955.817	-29744.6	0.000000	0.000000	7.180948	472.092	NaN	0.000000	0.001631	0.001692	28.0822	103.801	0.001704	60913.2	4.941073	170.41	473.07	1.160812	0.104525	0.104245	472.092	60913.2	0.098712	0.300131	1572.95	101585
310	2.000000	1.162982	7.36811e+06	-54139.1	955.817	-29744.6	0.000000	0.000000	7.184201	505.234	NaN	0.000000	0.001600	0.001675	28.0821	104.3	0.001741	59918	3.405384	172.759	501.527	1.162723	0.106415	0.106157	505.234	59918	0.100091	0.307616	1642.42	98702.1
310	2.000000	1.165023	7.36811e+06	-54139.1	955.818	-29744.6	0.000000	0.000000	7.187104	526.183	NaN	0.000000	0.001645	0.001656	28.0818	106.561	0.001642	64904.2	5.046033	170.554	524.275	1.164604	0.108457	0.108037	526.183	64904.2	0.102376	0.320215	1643.22	104791
310	2.000000	1.166091	7.36811e+06	-54139.1	955.817	-29744.6	0.000000	0.000000	7.187938	520.504	NaN	0.000000	0.001637	0.001676	28.0818	107.71	0.001683	63983.2	5.305196	169.651	518.913	1.165896	0.109524	0.109330	520.504	63983.2	0.103423	0.326063	1596.33	102374