File: remote_trans/data/nanoindenter/0828-1/data/Data_2025-08-06,11h17m57s/2025-07-22_16-23-58_1_780.txt
2025-07-22, 16:23:58, 1
Index	Phase	Displacement	Time	Pos X	Pos Y	Pos Z	Rot A	Rot B	Piezo Z	Force A	Force B	Gripper	Voltage A	Voltage B	Temperature	Amplitude force	Amplitude pos	Stiffness	Phase shift	Phase excitation	Force A raw	Displacement raw	HMax	HMax raw	Real Force	Real Stiffness	Contact Depth	Area	Hardness	Reduced Mod.
[#]	[#]	[um]	[s]	[um]	[um]	[um]	[m°]	[m°]	[um]	[uN]	[uN]	[V]	[V]	[V]	[°C]	[uN]	[um]	[N/m]	[°]	[°]	[uN]	[um]	[um]	[um]	[uN]	[N/m]	[um]	[um^2]	[MPa]	[MPa]
780	1.000000	0.001905	7.37268e+06	-39139.1	1055.82	-29795	0.000000	0.000000	6.002746	0.070892	NaN	0.000000	0.001538	0.001750	28.0826	0.071944	0.001019	70.5994	-154.975	-165.048	-0.015913	0.000677	-1.046275	-1.047503	0.070892	70.5994	-1.047028	-9.737858E+13	-7.279992E-16	NaN
780	1.000000	0.009967	7.37268e+06	-39139.1	1055.82	-29795	0.000000	0.000000	6.010806	0.003453	NaN	0.000000	0.001583	0.001707	28.0821	0.090251	0.000961	93.8672	130.671	-163.688	-0.028561	0.008614	-1.038213	-1.039566	0.003453	93.8672	-1.038241	-7.418394E+13	-4.654483E-17	NaN
780	1.000000	0.017906	7.37268e+06	-39139.1	1055.82	-29795	0.000000	0.000000	6.018743	-0.031118	NaN	0.000000	0.001559	0.001781	28.0818	0.077100	0.001612	47.8245	-176.624	-166.045	-0.004717	0.016591	-1.030274	-1.031589	-0.031118	47.8245	-1.029786	-5.709575E+13	5.450084E-16	NaN
780	1.000000	0.025962	7.37268e+06	-39139.1	1055.82	-29795	0.000000	0.000000	6.026802	0.038363	NaN	0.000000	0.001562	0.001740	28.0821	0.071787	0.001855	38.703	-61.1902	-166.831	-0.015817	0.024626	-1.022218	-1.023554	0.038363	38.703	-1.022961	-4.621642E+13	-8.300788E-16	NaN
780	1.000000	0.033887	7.37268e+06	-39139.1	1055.82	-29795	0.000000	0.000000	6.034727	0.047885	NaN	0.000000	0.001573	0.001725	28.082	0.069579	0.002043	34.0566	159.706	-163.361	0.015095	0.032645	-1.014293	-1.015535	0.047885	34.0566	-1.015348	-3.650489E+13	-1.311740E-15	NaN
780	1.000000	0.041892	7.37268e+06	-39139.1	1055.82	-29795	0.000000	0.000000	6.042731	-0.012936	NaN	0.000000	0.001560	0.001740	28.0826	0.109170	0.001917	56.9346	7.181698	-166.475	0.037220	0.040578	-1.006287	-1.007602	-0.012936	56.9346	-1.006117	-2.742304E+13	4.717149E-16	NaN
780	1.000000	0.049884	7.37268e+06	-39139.1	1055.82	-29795	0.000000	0.000000	6.050721	-0.026931	NaN	0.000000	0.001612	0.001712	28.082	0.031487	0.001907	16.5075	69.6782	-168.631	-0.076637	0.048632	-0.998296	-0.999548	-0.026931	16.5075	-0.997073	-2.071829E+13	1.299843E-15	NaN
780	1.000000	0.057905	7.37268e+06	-39139.1	1055.82	-29795	0.000000	0.000000	6.058745	0.024958	NaN	0.000000	0.001596	0.001699	28.082	0.081302	0.001893	42.954	-24.7193	-166.397	-0.008274	0.056549	-0.990274	-0.991631	0.024958	42.954	-0.990710	-1.700887E+13	-1.467345E-15	NaN
780	1.000000	0.065924	7.37268e+06	-39139.1	1055.82	-29795	0.000000	0.000000	6.066763	0.008452	NaN	0.000000	0.001612	0.001695	28.082	0.071069	0.002139	33.2209	43.4381	-165.188	0.012512	0.064570	-0.982256	-0.983609	0.008452	33.2209	-0.982447	-1.316355E+13	-6.421075E-16	NaN
780	1.000000	0.073947	7.37268e+06	-39139.1	1055.82	-29795	0.000000	0.000000	6.074787	0.036668	NaN	0.000000	0.001556	0.001699	28.082	0.051547	0.002043	25.2343	12.4323	-167.905	0.114231	0.072605	-0.974233	-0.975575	0.036668	25.2343	-0.975323	-1.055334E+13	-3.474582E-15	NaN
780	1.000000	0.081918	7.37268e+06	-39139.1	1055.82	-29795	0.000000	0.000000	6.082759	0.044465	NaN	0.000000	0.001562	0.001725	28.0824	0.100330	0.001995	50.2969	161.415	-163.284	0.023166	0.080630	-0.966261	-0.967550	0.044465	50.2969	-0.966924	-8.132252E+12	-5.467737E-15	NaN
780	1.000000	0.089898	7.37268e+06	-39139.1	1055.82	-29795	0.000000	0.000000	6.090737	0.008400	NaN	0.000000	0.001618	0.001730	28.0822	0.043208	0.002086	20.7149	152.082	-162.989	-0.010288	0.088609	-0.958282	-0.959571	0.008400	20.7149	-0.958586	-6.277816E+12	-1.338028E-15	NaN
780	1.000000	0.097926	7.37268e+06	-39139.1	1055.82	-29795	0.000000	0.000000	6.098768	0.076477	NaN	0.000000	0.001608	0.001718	28.0825	0.112347	0.002054	54.7008	-43.1669	-166.287	0.094651	0.096628	-0.950254	-0.951552	0.076477	54.7008	-0.951302	-5.007148E+12	-1.527351E-14	NaN
780	1.000000	0.105926	7.37268e+06	-39139.1	1055.82	-29795	0.000000	0.000000	6.106764	-0.023550	NaN	0.000000	0.001632	0.001725	28.0822	0.012613	0.001987	6.347133	-153.757	-167.397	-0.055610	0.104593	-0.942253	-0.943587	-0.023550	6.347133	-0.939471	-3.467330E+12	6.791927E-15	NaN
780	1.000000	0.113936	7.37268e+06	-39139.1	1055.82	-29795	0.000000	0.000000	6.114775	-0.004630	NaN	0.000000	0.001650	0.001717	28.0821	0.057549	0.002063	27.9006	-133.616	-166.98	-0.030141	0.112644	-0.934244	-0.935536	-0.004630	27.9006	-0.934119	-2.936200E+12	1.576906E-15	NaN
780	1.000000	0.121934	7.37268e+06	-39139.1	1055.82	-29795	0.000000	0.000000	6.122771	-0.051292	NaN	0.000000	0.001599	0.001729	28.0826	0.120298	0.001897	63.4038	-15.4226	-165.472	-0.037515	0.120623	-0.926245	-0.927557	-0.051292	63.4038	-0.925639	-2.255946E+12	2.273639E-14	NaN
780	1.000000	0.129932	7.37268e+06	-39139.1	1055.82	-29795	0.000000	0.000000	6.130773	0.045805	NaN	0.000000	0.001611	0.001742	28.0832	0.041044	0.001951	21.0406	-36.7591	-166.79	0.062747	0.128633	-0.918248	-0.919547	0.045805	21.0406	-0.919880	-1.886216E+12	-2.428396E-14	NaN
780	1.000000	0.137915	7.37268e+06	-39139.1	1055.82	-29795	0.000000	0.000000	6.138755	0.028953	NaN	0.000000	0.001630	0.001750	28.0833	0.065419	0.001972	33.1718	71.3959	-163.03	0.040342	0.136613	-0.910265	-0.911567	0.028953	33.1718	-0.910919	-1.427516E+12	-2.028213E-14	NaN
780	1.000000	0.145981	7.37268e+06	-39139.1	1055.82	-29795	0.000000	0.000000	6.146819	-0.010305	NaN	0.000000	0.001632	0.001734	28.0832	0.023017	0.002013	11.4359	9.928867	-166.383	0.028300	0.144658	-0.902199	-0.903522	-0.010305	11.4359	-0.901523	-1.065733E+12	9.668939E-15	NaN
780	1.000000	0.153931	7.37268e+06	-39139.1	1055.82	-29795	0.000000	0.000000	6.154772	0.058640	NaN	0.000000	0.001622	0.001748	28.0831	0.102460	0.001981	51.717	113.058	-163.719	0.036399	0.152642	-0.894249	-0.895538	0.058640	51.717	-0.895099	-8.726453E+11	-6.719805E-14	NaN
780	1.000000	0.161952	7.37268e+06	-39139.1	1055.82	-29795	0.000000	0.000000	6.162790	-0.024155	NaN	0.000000	0.001630	0.001725	28.0831	0.108014	0.001874	57.6306	-125.786	-166.547	0.006193	0.160602	-0.886228	-0.887577	-0.024155	57.6306	-0.885914	-6.556506E+11	3.684150E-14	NaN
780	1.000000	0.169928	7.37268e+06	-39139.1	1055.82	-29795	0.000000	0.000000	6.170772	0.124986	NaN	0.000000	0.001616	0.001702	28.083	0.116197	0.002009	57.837	-168.775	-168.913	0.038521	0.168648	-0.878252	-0.879532	0.124986	57.837	-0.879873	-5.432331E+11	-2.300778E-13	NaN
780	1.000000	0.177990	7.37268e+06	-39139.1	1055.82	-29795	0.000000	0.000000	6.178831	0.041887	NaN	0.000000	0.001606	0.001754	28.0832	0.119468	0.002069	57.7453	-119.33	-163.051	0.124692	0.176682	-0.870189	-0.871497	0.041887	57.7453	-0.870734	-4.086654E+11	-1.024982E-13	NaN
780	1.000000	0.185939	7.37268e+06	-39139.1	1055.82	-29795	0.000000	0.000000	6.186776	-0.050684	NaN	0.000000	0.001576	0.001731	28.0832	0.052082	0.001984	26.2534	-38.4242	-163.775	0.032586	0.184649	-0.862241	-0.863531	-0.050684	26.2534	-0.860793	-2.998162E+11	1.690508E-13	NaN
780	1.000000	0.193963	7.37268e+06	-39139.1	1055.82	-29795	0.000000	0.000000	6.194800	-0.034126	NaN	0.000000	0.001592	0.001714	28.0834	0.113316	0.001975	57.3845	76.9663	-163.506	-0.102798	0.192618	-0.854217	-0.855562	-0.034126	57.3845	-0.853771	-2.408778E+11	1.416725E-13	NaN
780	1.000000	0.201969	7.37268e+06	-39139.1	1055.82	-29795	0.000000	0.000000	6.202806	-0.041653	NaN	0.000000	0.001540	0.001729	28.0832	0.031654	0.001914	16.5415	-86.4881	-163.436	0.068719	0.200659	-0.846211	-0.847521	-0.041653	16.5415	-0.844322	-1.794092E+11	2.321685E-13	NaN
780	1.000000	0.209948	7.37268e+06	-39139.1	1055.82	-29795	0.000000	0.000000	6.210789	0.060778	NaN	0.000000	0.001591	0.001721	28.0835	0.081134	0.001890	42.9342	-94.4273	-167.03	0.182898	0.208697	-0.838232	-0.839483	0.060778	42.9342	-0.839293	-1.533627E+11	-3.963036E-13	NaN
780	1.000000	0.217965	7.37268e+06	-39139.1	1055.82	-29795	0.000000	0.000000	6.218804	-0.007604	NaN	0.000000	0.001613	0.001717	28.0834	0.087090	0.001828	47.64	178.753	-165.507	-0.000890	0.216658	-0.830215	-0.831522	-0.007604	47.64	-0.830095	-1.150988E+11	6.606430E-14	NaN
780	1.000000	0.226005	7.37268e+06	-39139.1	1055.82	-29795	0.000000	0.000000	6.226845	0.025290	NaN	0.000000	0.001593	0.001731	28.0833	0.081770	0.001999	40.9082	-72.6798	-167.882	-0.025444	0.224703	-0.822174	-0.823476	0.025290	40.9082	-0.822638	-9.119735E+10	-2.773139E-13	NaN
780	1.000000	0.233998	7.37268e+06	-39139.1	1055.82	-29795	0.000000	0.000000	6.234836	-0.005515	NaN	0.000000	0.001581	0.001738	28.0833	0.019745	0.002063	9.568807	-170.67	-166.693	0.029576	0.232708	-0.814182	-0.815472	-0.005515	9.568807	-0.813750	-6.909440E+10	7.981191E-14	NaN
780	1.000000	0.241991	7.37268e+06	-39139.1	1055.82	-29795	0.000000	0.000000	6.242831	0.026070	NaN	0.000000	0.001635	0.001755	28.0832	0.161907	0.002019	80.173	79.3819	-168.883	0.077370	0.240701	-0.806189	-0.807479	0.026070	80.173	-0.806433	-5.497560E+10	-4.742122E-13	NaN
780	1.000000	0.249968	7.37268e+06	-39139.1	1055.82	-29795	0.000000	0.000000	6.250805	-0.035668	NaN	0.000000	0.001703	0.001690	28.0835	0.114510	0.001858	61.626	-156.607	-164.584	0.065721	0.248711	-0.798212	-0.799469	-0.035668	61.626	-0.797778	-4.194633E+10	8.503323E-13	NaN
780	1.000000	0.257971	7.37268e+06	-39139.1	1055.82	-29795	0.000000	0.000000	6.258809	-0.015866	NaN	0.000000	0.001710	0.001759	28.0826	0.047361	0.002025	23.3853	107.106	-169.243	-0.056792	0.256715	-0.790209	-0.791465	-0.015866	23.3853	-0.789700	-3.258426E+10	4.869212E-13	NaN
780	1.000000	0.265963	7.37268e+06	-39139.1	1055.82	-29795	0.000000	0.000000	6.266803	0.016623	NaN	0.000000	0.001695	0.001726	28.0821	0.132622	0.001968	67.384	172.402	-163.903	-0.052015	0.264646	-0.782216	-0.783534	0.016623	67.384	-0.782401	-2.593358E+10	-6.409712E-13	NaN
780	1.000000	0.273992	7.37268e+06	-39139.1	1055.82	-29795	0.000000	0.000000	6.274830	-0.002864	NaN	0.000000	0.001663	0.001731	28.0821	0.008439	0.002014	4.190872	24.4145	-166.174	0.002758	0.272696	-0.774188	-0.775483	-0.002864	4.190872	-0.773676	-1.973671E+10	1.451318E-13	NaN
780	1.000000	0.281975	7.37268e+06	-39139.1	1055.82	-29795	0.000000	0.000000	6.282815	0.041394	NaN	0.000000	0.001698	0.001746	28.0819	0.071570	0.002024	35.3613	-115.88	-165.177	0.087702	0.280665	-0.766205	-0.767514	0.041394	35.3613	-0.767083	-1.605606E+10	-2.578099E-12	NaN
780	1.000000	0.290011	7.37268e+06	-39139.1	1055.82	-29795	0.000000	0.000000	6.290851	0.031288	NaN	0.000000	0.001648	0.001742	28.082	0.098393	0.002050	47.999	-126.518	-166.131	-0.022763	0.288683	-0.758169	-0.759497	0.031288	47.999	-0.758658	-1.233224E+10	-2.537069E-12	NaN
780	1.000000	0.297999	7.37268e+06	-39139.1	1055.82	-29795	0.000000	0.000000	6.298839	0.032851	NaN	0.000000	0.001682	0.001721	28.0818	0.078784	0.002111	37.3208	150.062	-165.526	-0.056536	0.296681	-0.750181	-0.751499	0.032851	37.3208	-0.750841	-9.653073E+9	-3.403200E-12	NaN
780	1.000000	0.305978	7.37268e+06	-39139.1	1055.82	-29795	0.000000	0.000000	6.306816	-0.003621	NaN	0.000000	0.001707	0.001713	28.0821	0.093487	0.002052	45.5612	-23.9134	-166.517	-0.003559	0.304720	-0.742202	-0.743459	-0.003621	45.5612	-0.742142	-7.349125E+9	4.927071E-13	NaN
780	1.000000	0.314039	7.37268e+06	-39139.1	1055.82	-29795	0.000000	0.000000	6.314877	-0.035626	NaN	0.000000	0.001713	0.001694	28.0821	0.071525	0.001955	36.5771	138.128	-164.666	-0.034513	0.312698	-0.734141	-0.735481	-0.035626	36.5771	-0.733410	-5.588282E+9	6.375117E-12	NaN
780	1.000000	0.322012	7.37268e+06	-39139.1	1055.82	-29795	0.000000	0.000000	6.322851	0.005175	NaN	0.000000	0.001690	0.001734	28.082	0.027156	0.001947	13.948	-27.3354	-168.972	0.025871	0.320688	-0.726167	-0.727492	0.005175	13.948	-0.726446	-4.491168E+9	-1.152183E-12	NaN
780	1.000000	0.330048	7.37268e+06	-39139.1	1055.82	-29795	0.000000	0.000000	6.330887	0.002917	NaN	0.000000	0.001683	0.001715	28.082	0.028754	0.001946	14.7776	27.6886	-165.485	-0.010039	0.328748	-0.718132	-0.719432	0.002917	14.7776	-0.718280	-3.475486E+9	-8.392572E-13	NaN
780	1.000000	0.338026	7.37268e+06	-39139.1	1055.82	-29795	0.000000	0.000000	6.338865	0.020504	NaN	0.000000	0.001701	0.001728	28.0818	0.157504	0.002017	78.0986	0.660319	-169.235	-0.004107	0.336649	-0.710154	-0.711531	0.020504	78.0986	-0.710351	-2.709187E+9	-7.568386E-12	NaN
780	1.000000	0.346025	7.37268e+06	-39139.1	1055.82	-29795	0.000000	0.000000	6.346862	-0.024162	NaN	0.000000	0.001692	0.001730	28.082	0.105288	0.001977	53.2657	26.383	-166.384	-0.033429	0.344741	-0.702155	-0.703439	-0.024162	53.2657	-0.701815	-2.071647E+9	1.166316E-11	NaN
780	1.000000	0.354010	7.37268e+06	-39139.1	1055.82	-29795	0.000000	0.000000	6.354850	0.038485	NaN	0.000000	0.001670	0.001726	28.0816	0.088671	0.001958	45.2756	-13.555	-166.518	-0.062507	0.352719	-0.694170	-0.695461	0.038485	45.2756	-0.694807	-1.661898E+9	-2.315716E-11	NaN
780	1.000000	0.362009	7.37268e+06	-39139.1	1055.82	-29795	0.000000	0.000000	6.362848	0.000457	NaN	0.000000	0.001649	0.001707	28.082	0.056422	0.001976	28.5467	105.27	-168.935	0.029864	0.360769	-0.686170	-0.687410	0.000457	28.5467	-0.686182	-1.266887E+9	-3.604692E-13	NaN
780	1.000000	0.370055	7.37268e+06	-39139.1	1055.82	-29795	0.000000	0.000000	6.370893	-0.010496	NaN	0.000000	0.001681	0.001733	28.0821	0.086693	0.002057	42.1517	99.4815	-171.741	-0.010166	0.368698	-0.678125	-0.679482	-0.010496	42.1517	-0.677938	-9.772580E+8	1.073983E-11	NaN
780	1.000000	0.378049	7.37268e+06	-39139.1	1055.82	-29795	0.000000	0.000000	6.378890	0.035359	NaN	0.000000	0.001697	0.001740	28.082	0.133288	0.001983	67.2211	119.313	-165.407	0.062409	0.376739	-0.670131	-0.671441	0.035359	67.2211	-0.670525	-7.737071E+8	-4.570068E-11	NaN
780	1.000000	0.386056	7.37268e+06	-39139.1	1055.82	-29795	0.000000	0.000000	6.386895	-0.000546	NaN	0.000000	0.001689	0.001725	28.082	0.066978	0.002054	32.6124	-50.8092	-165.034	-0.086923	0.384741	-0.662123	-0.663439	-0.000546	32.6124	-0.662111	-5.934448E+8	9.204815E-13	NaN
780	1.000000	0.394069	7.37268e+06	-39139.1	1055.82	-29795	0.000000	0.000000	6.394910	0.046465	NaN	0.000000	0.001721	0.001726	28.0824	0.056573	0.001979	28.5836	-59.8958	-167.298	0.164593	0.392776	-0.654111	-0.655404	0.046465	28.5836	-0.655330	-4.791691E+8	-9.697055E-11	NaN
780	1.000000	0.402041	7.37268e+06	-39139.1	1055.82	-29795	0.000000	0.000000	6.402881	0.020558	NaN	0.000000	0.001679	0.001751	28.0832	0.092222	0.002064	44.6873	-99.5666	-164.545	-0.017517	0.400751	-0.646139	-0.647429	0.020558	44.6873	-0.646484	-3.624303E+8	-5.672374E-11	NaN
780	1.000000	0.410078	7.37268e+06	-39139.1	1055.82	-29795	0.000000	0.000000	6.410916	-0.005453	NaN	0.000000	0.001660	0.001735	28.083	0.163088	0.002063	79.0714	-100.371	-163.758	0.110572	0.408723	-0.638102	-0.639457	-0.005453	79.0714	-0.638050	-2.776752E+8	1.963629E-11	NaN
780	1.000000	0.418060	7.37268e+06	-39139.1	1055.82	-29795	0.000000	0.000000	6.418898	-0.035110	NaN	0.000000	0.001671	0.001727	28.0831	0.086071	0.001977	43.5269	-128.668	-166.108	-0.030803	0.416767	-0.630120	-0.631413	-0.035110	43.5269	-0.629515	-2.120108E+8	1.656042E-10	NaN
780	1.000000	0.426072	7.37268e+06	-39139.1	1055.82	-29795	0.000000	0.000000	6.426910	-0.029888	NaN	0.000000	0.001695	0.001741	28.0829	0.075852	0.001987	38.1801	27.4141	-161.592	-0.066407	0.424757	-0.622107	-0.623423	-0.029888	38.1801	-0.621520	-1.646379E+8	1.815398E-10	NaN
780	1.000000	0.434078	7.37268e+06	-39139.1	1055.82	-29795	0.000000	0.000000	6.434915	-0.052741	NaN	0.000000	0.001681	0.001724	28.083	0.081046	0.002104	38.5237	-89.0341	-166.41	0.024685	0.432820	-0.614102	-0.615359	-0.052741	38.5237	-0.613075	-1.260125E+8	4.185384E-10	NaN
780	1.000000	0.442083	7.37268e+06	-39139.1	1055.82	-29795	0.000000	0.000000	6.442924	0.037684	NaN	0.000000	0.001707	0.001738	28.0828	0.111213	0.001986	55.9874	-173.116	-167.723	-0.006589	0.440755	-0.606097	-0.607424	0.037684	55.9874	-0.606601	-1.026468E+8	-3.671203E-10	NaN
780	1.000000	0.450096	7.37268e+06	-39139.1	1055.82	-29795	0.000000	0.000000	6.450934	-0.006281	NaN	0.000000	0.001670	0.001746	28.0829	0.071043	0.001893	37.5355	0.214596	-163.424	-0.087254	0.448759	-0.598084	-0.599421	-0.006281	37.5355	-0.597958	-7.804416E+7	8.048260E-11	NaN
780	1.000000	0.458059	7.37268e+06	-39139.1	1055.82	-29795	0.000000	0.000000	6.458898	-0.007757	NaN	0.000000	0.001711	0.001700	28.0832	0.018302	0.002039	8.975076	-141.409	-164.544	-0.069894	0.456785	-0.590121	-0.591395	-0.007757	8.975076	-0.589473	-5.962030E+7	1.301051E-10	NaN
780	1.000000	0.466104	7.37268e+06	-39139.1	1055.82	-29795	0.000000	0.000000	6.466940	-0.078611	NaN	0.000000	0.001720	0.001713	28.0831	0.048795	0.002016	24.2	130.089	-165.66	-0.054600	0.464773	-0.582075	-0.583406	-0.078611	24.2	-0.579639	-4.362604E+7	1.801929E-9	NaN
780	1.000000	0.474089	7.37269e+06	-39139.1	1055.82	-29795	0.000000	0.000000	6.474931	0.059184	NaN	0.000000	0.001738	0.001756	28.0832	0.085126	0.001829	46.5465	-85.6076	-164.404	0.053578	0.472750	-0.574090	-0.575430	0.059184	46.5465	-0.575044	-3.769693E+7	-1.570005E-9	NaN
780	1.000000	0.482067	7.37269e+06	-39139.1	1055.82	-29795	0.000000	0.000000	6.482907	0.011239	NaN	0.000000	0.001711	0.001751	28.0828	0.008730	0.001991	4.384151	-100.694	-166.15	-0.007051	0.480826	-0.566112	-0.567354	0.011239	4.384151	-0.568035	-3.016334E+7	-3.726198E-10	NaN
780	1.000000	0.490109	7.37269e+06	-39139.1	1055.82	-29795	0.000000	0.000000	6.490949	0.031780	NaN	0.000000	0.001682	0.001776	28.0829	0.043372	0.001997	21.7167	74.4036	-167.926	0.047038	0.488794	-0.558071	-0.559386	0.031780	21.7167	-0.559168	-2.274438E+7	-1.397248E-9	NaN
780	1.000000	0.498106	7.37269e+06	-39139.1	1055.82	-29795	0.000000	0.000000	6.498946	0.020236	NaN	0.000000	0.001721	0.001703	28.0829	0.034732	0.002006	17.3098	161.922	-167.946	0.051419	0.496766	-0.550073	-0.551414	0.020236	17.3098	-0.550950	-1.750308E+7	-1.156133E-9	NaN
780	1.000000	0.506085	7.37269e+06	-39139.1	1055.82	-29795	0.000000	0.000000	6.506926	0.051058	NaN	0.000000	0.001639	0.001704	28.0831	0.115237	0.002108	54.6661	-105.088	-165.706	-0.002317	0.504818	-0.542095	-0.543362	0.051058	54.6661	-0.542796	-1.349345E+7	-3.783912E-9	NaN
780	1.000000	0.514119	7.37269e+06	-39139.1	1055.82	-29795	0.000000	0.000000	6.514957	-0.009145	NaN	0.000000	0.001625	0.001706	28.0832	0.030840	0.002015	15.3076	15.8298	-162.668	-0.001524	0.512803	-0.534061	-0.535376	-0.009145	15.3076	-0.533613	-1.006322E+7	9.087828E-10	NaN
780	1.000000	0.522120	7.37269e+06	-39139.1	1055.82	-29795	0.000000	0.000000	6.522958	-0.019575	NaN	0.000000	0.001621	0.001733	28.0831	0.111978	0.001928	58.0832	149.354	-166.753	0.040855	0.520826	-0.526060	-0.527354	-0.019575	58.0832	-0.525807	-7.84018e+06	2.496707E-9	NaN
780	1.000000	0.530116	7.37269e+06	-39139.1	1055.82	-29795	0.000000	0.000000	6.530954	-0.022528	NaN	0.000000	0.001666	0.001729	28.0829	0.091517	0.002008	45.5765	-40.7708	-167.488	0.023123	0.528878	-0.518063	-0.519301	-0.022528	45.5765	-0.517693	-6.04647e+06	3.725747E-9	NaN
780	1.000000	0.538138	7.37269e+06	-39139.1	1055.82	-29795	0.000000	0.000000	6.538977	-0.012993	NaN	0.000000	0.001647	0.001732	28.0819	0.052854	0.002023	26.1301	-10.7308	-165.334	0.059087	0.536820	-0.510041	-0.511359	-0.012993	26.1301	-0.509668	-4.67517e+06	2.779090E-9	NaN
780	1.000000	0.546104	7.37269e+06	-39139.1	1055.82	-29795	0.000000	0.000000	6.546946	0.070766	NaN	0.000000	0.001639	0.001721	28.0818	0.040239	0.001961	20.5184	-58.1952	-167.835	-0.025756	0.544860	-0.502076	-0.503320	0.070766	20.5184	-0.504663	-3.98145e+06	-1.777387E-8	NaN
780	1.000000	0.554077	7.37269e+06	-39139.1	1055.82	-29795	0.000000	0.000000	6.554914	-0.041487	NaN	0.000000	0.001592	0.001721	28.0818	0.034765	0.001976	17.5932	129.204	-165.899	0.004686	0.552847	-0.494103	-0.495333	-0.041487	17.5932	-0.492334	-2.67923e+06	1.548457E-8	NaN
780	1.000000	0.562120	7.37269e+06	-39139.1	1055.82	-29795	0.000000	0.000000	6.562959	0.007562	NaN	0.000000	0.001615	0.001709	28.0818	0.065054	0.001973	32.9691	84.8928	-164.711	-0.080151	0.560834	-0.486060	-0.487346	0.007562	32.9691	-0.486232	-2.20152e+06	-3.435059E-9	NaN
780	1.000000	0.570129	7.37269e+06	-39139.1	1055.82	-29795	0.000000	0.000000	6.570967	-0.028586	NaN	0.000000	0.001567	0.001739	28.0818	0.035291	0.001954	18.0586	-126.829	-165.561	0.002847	0.568835	-0.478050	-0.479345	-0.028586	18.0586	-0.476863	-1.62781e+06	1.756074E-8	NaN
780	1.000000	0.578100	7.37269e+06	-39139.1	1055.82	-29795	0.000000	0.000000	6.578939	0.005294	NaN	0.000000	0.001595	0.001717	28.0818	0.058132	0.001927	30.1672	-159.035	-165.757	-0.015843	0.576798	-0.470080	-0.471382	0.005294	30.1672	-0.470212	-1.31334e+06	-4.030648E-9	NaN
780	1.000000	0.586122	7.37269e+06	-39139.1	1055.82	-29795	0.000000	0.000000	6.586962	0.035989	NaN	0.000000	0.001590	0.001732	28.0818	0.080399	0.001974	40.7193	40.1634	-168.164	0.008499	0.584782	-0.462058	-0.463398	0.035989	40.7193	-0.462721	-1.03097e+06	-3.490800E-8	NaN
780	1.000000	0.594150	7.37269e+06	-39139.1	1055.82	-29795	0.000000	0.000000	6.594989	-0.000314	NaN	0.000000	0.001593	0.001743	28.0817	0.088274	0.002028	43.5291	147.087	-166.231	-0.024028	0.592838	-0.454029	-0.455342	-0.000314	43.5291	-0.454024	-778013	4.040332E-10	NaN
780	1.000000	0.602134	7.37269e+06	-39139.1	1055.82	-29795	0.000000	0.000000	6.602971	-0.040768	NaN	0.000000	0.001590	0.001728	28.0818	0.082349	0.001953	42.1699	24.1101	-165.074	0.007334	0.600820	-0.446046	-0.447360	-0.040768	42.1699	-0.445321	-586695	6.948762E-8	NaN
780	1.000000	0.610147	7.37269e+06	-39139.1	1055.82	-29795	0.000000	0.000000	6.610987	0.024201	NaN	0.000000	0.001635	0.001751	28.0817	0.160277	0.001961	81.7177	45.5505	-168.847	0.026751	0.608822	-0.438033	-0.439358	0.024201	81.7177	-0.438255	-466372	-5.189147E-8	NaN
780	1.000000	0.618149	7.37269e+06	-39139.1	1055.82	-29795	0.000000	0.000000	6.618987	-0.005880	NaN	0.000000	0.001633	0.001773	28.0817	0.067219	0.002116	31.7721	142.247	-163.53	-0.002799	0.616851	-0.430031	-0.431328	-0.005880	31.7721	-0.429892	-355252	1.655137E-8	NaN
780	1.000000	0.626113	7.37269e+06	-39139.1	1055.82	-29795	0.000000	0.000000	6.626953	0.031980	NaN	0.000000	0.001651	0.001755	28.0818	0.062459	0.001915	32.6233	-28.9706	-166.601	0.046763	0.624828	-0.422067	-0.423352	0.031980	32.6233	-0.422802	-281933	-1.134325E-7	NaN
780	1.000000	0.634188	7.37269e+06	-39139.1	1055.82	-29795	0.000000	0.000000	6.635026	-0.007567	NaN	0.000000	0.001617	0.001730	28.0816	0.062755	0.002031	30.9017	38.9198	-168.475	-0.026470	0.632827	-0.413992	-0.415352	-0.007567	30.9017	-0.413808	-210150	3.600542E-8	NaN
780	1.000000	0.642116	7.37269e+06	-39139.1	1055.82	-29795	0.000000	0.000000	6.642955	-0.012105	NaN	0.000000	0.001609	0.001775	28.0817	0.061164	0.002005	30.5089	167.343	-166.807	-0.006687	0.640832	-0.406063	-0.407347	-0.012105	30.5089	-0.405766	-161492	7.495526E-8	NaN
780	1.000000	0.650148	7.37269e+06	-39139.1	1055.82	-29795	0.000000	0.000000	6.650985	-0.041385	NaN	0.000000	0.001589	0.001730	28.0817	0.053699	0.002043	26.2848	67.8092	-164.747	-0.016413	0.648853	-0.398032	-0.399327	-0.041385	26.2848	-0.396851	-120521	3.433881E-7	NaN
780	1.000000	0.658193	7.37269e+06	-39139.1	1055.82	-29795	0.000000	0.000000	6.659029	-0.050076	NaN	0.000000	0.001654	0.001732	28.0815	0.128054	0.002008	63.7708	-31.2633	-168.356	0.001009	0.656843	-0.389987	-0.391337	-0.050076	63.7708	-0.389398	-94310.1	5.309684E-7	NaN
780	1.000000	0.666184	7.37269e+06	-39139.1	1055.82	-29795	0.000000	0.000000	6.667023	0.015712	NaN	0.000000	0.001584	0.001758	28.0821	0.128240	0.002015	63.63	58.9312	-166.192	0.012601	0.664866	-0.381996	-0.383314	0.015712	63.63	-0.382181	-74332.9	-2.113720E-7	NaN
780	1.000000	0.674181	7.37269e+06	-39139.1	1055.82	-29795	0.000000	0.000000	6.675020	-0.008117	NaN	0.000000	0.001602	0.001712	28.083	0.110867	0.001917	57.8245	-61.97	-166.906	0.068308	0.672831	-0.373999	-0.375349	-0.008117	57.8245	-0.373893	-56514.2	1.436206E-7	NaN
780	1.000000	0.682144	7.37269e+06	-39139.1	1055.82	-29795	0.000000	0.000000	6.682981	-0.025491	NaN	0.000000	0.001654	0.001725	28.0832	0.113776	0.001943	58.571	74.0385	-170.201	0.025705	0.680837	-0.366036	-0.367343	-0.025491	58.571	-0.365710	-43081.7	5.916893E-7	NaN
780	1.000000	0.690198	7.37269e+06	-39139.1	1055.82	-29795	0.000000	0.000000	6.691039	0.040329	NaN	0.000000	0.001683	0.001700	28.0831	0.037720	0.001909	19.7569	2.631995	-167.827	-0.012671	0.688871	-0.357981	-0.359309	0.040329	19.7569	-0.359512	-35058.6	-1.150321E-6	NaN
780	1.000000	0.698240	7.37269e+06	-39139.1	1055.82	-29795	0.000000	0.000000	6.699077	-0.050678	NaN	0.000000	0.001629	0.001725	28.0832	0.061579	0.001943	31.6869	123.556	-166.734	-0.019398	0.696891	-0.349939	-0.351289	-0.050678	31.6869	-0.348740	-24474.2	2.070655E-6	NaN
780	1.000000	0.706186	7.37269e+06	-39139.1	1055.82	-29795	0.000000	0.000000	6.707026	0.013318	NaN	0.000000	0.001639	0.001702	28.0833	0.091525	0.002025	45.1955	156.626	-163.585	0.068586	0.704840	-0.341993	-0.343340	0.013318	45.1955	-0.342214	-19670.5	-6.770632E-7	NaN
780	1.000000	0.714196	7.37269e+06	-39139.1	1055.82	-29795	0.000000	0.000000	6.715036	0.031002	NaN	0.000000	0.001666	0.001729	28.0831	0.091756	0.002079	44.1377	-102.536	-163.301	0.061176	0.712870	-0.333984	-0.335310	0.031002	44.1377	-0.334511	-15185.8	-2.041510E-6	NaN
780	1.000000	0.722195	7.37269e+06	-39139.1	1055.82	-29795	0.000000	0.000000	6.723033	-0.005058	NaN	0.000000	0.001657	0.001698	28.0834	0.021225	0.001984	10.698	19.1298	-166.697	0.018165	0.720923	-0.325985	-0.327256	-0.005058	10.698	-0.325630	-11256.2	4.493663E-7	NaN
780	1.000000	0.730213	7.37269e+06	-39139.1	1055.82	-29795	0.000000	0.000000	6.731054	0.050155	NaN	0.000000	0.001660	0.001716	28.0831	0.032597	0.001940	16.8062	-68.8044	-163.656	0.098637	0.728882	-0.317967	-0.319297	0.050155	16.8062	-0.320205	-9368.12	-5.353781E-6	NaN
780	1.000000	0.738210	7.37269e+06	-39139.1	1055.82	-29795	0.000000	0.000000	6.739049	0.018366	NaN	0.000000	0.001677	0.001723	28.0833	0.018320	0.001952	9.385950	-105.819	-165.804	0.010153	0.736897	-0.309970	-0.311283	0.018366	9.385950	-0.311438	-6955.38	-2.640506E-6	NaN
780	1.000000	0.746183	7.37269e+06	-39139.1	1055.82	-29795	0.000000	0.000000	6.747023	0.043498	NaN	0.000000	0.001644	0.001711	28.0834	0.051888	0.002046	25.362	152.273	-168.324	0.137507	0.744920	-0.301997	-0.303260	0.043498	25.362	-0.303283	-5265.78	-8.260551E-6	NaN
780	1.000000	0.754177	7.37269e+06	-39139.1	1055.82	-29795	0.000000	0.000000	6.755016	0.012745	NaN	0.000000	0.001617	0.001719	28.0835	0.004941	0.001943	2.542862	-3.940466	-164.497	-0.041681	0.752870	-0.294003	-0.295310	0.012745	2.542862	-0.297762	-4358.13	-2.924494E-6	NaN
780	1.000000	0.762213	7.37269e+06	-39139.1	1055.82	-29795	0.000000	0.000000	6.763050	-0.048964	NaN	0.000000	0.001626	0.001719	28.0835	0.029278	0.001983	14.7649	30.6693	-164.817	-0.028860	0.760838	-0.285967	-0.287342	-0.048964	14.7649	-0.283480	-2663.19	1.838558E-5	NaN
780	1.000000	0.770175	7.37269e+06	-39139.1	1055.82	-29795	0.000000	0.000000	6.771017	0.073017	NaN	0.000000	0.001667	0.001726	28.0833	0.098298	0.001990	49.407	-68.3235	-166.39	0.069621	0.768852	-0.278004	-0.279328	0.073017	49.407	-0.279113	-2288.66	-3.190371E-5	NaN
780	1.000000	0.778241	7.37269e+06	-39139.1	1055.82	-29795	0.000000	0.000000	6.779080	-0.015826	NaN	0.000000	0.001653	0.001684	28.0833	0.060380	0.001957	30.8586	136.981	-166.695	0.055061	0.776900	-0.269938	-0.271280	-0.015826	30.8586	-0.269554	-1639.68	9.651754E-6	NaN
780	1.000000	0.786194	7.37269e+06	-39139.1	1055.82	-29795	0.000000	0.000000	6.787037	0.107049	NaN	0.000000	0.001670	0.001726	28.0832	0.084584	0.001909	44.3138	162.424	-164.417	0.098718	0.784894	-0.261986	-0.263285	0.107049	44.3138	-0.263797	-1339.76	-7.990208E-5	NaN
780	1.000000	0.794198	7.37269e+06	-39139.1	1055.82	-29795	0.000000	0.000000	6.795037	0.019590	NaN	0.000000	0.001653	0.001701	28.0832	0.125254	0.002026	61.811	-105.879	-168.207	0.009297	0.792940	-0.253982	-0.255239	0.019590	61.811	-0.254220	-955.218	-2.050850E-5	NaN
780	1.000000	0.802180	7.37269e+06	-39139.1	1055.82	-29795	0.000000	0.000000	6.803020	0.027863	NaN	0.000000	0.001663	0.001731	28.083	0.054446	0.001919	28.3716	122.57	-164.446	-0.021854	0.800917	-0.246000	-0.247262	0.027863	28.3716	-0.246736	-731.832	-3.807297E-5	NaN
780	1.000000	0.810243	7.37269e+06	-39139.1	1055.82	-29795	0.000000	0.000000	6.811082	0.010760	NaN	0.000000	0.001653	0.001728	28.082	0.014037	0.001997	7.028777	111.912	-163.361	-0.023909	0.808890	-0.237937	-0.239289	0.010760	7.028777	-0.239085	-556.223	-1.934395E-5	NaN
780	1.000000	0.818237	7.37269e+06	-39139.1	1055.82	-29795	0.000000	0.000000	6.819078	0.058276	NaN	0.000000	0.001630	0.001693	28.0821	0.022996	0.001949	11.7999	-170.01	-164.689	0.056193	0.816886	-0.229943	-0.231294	0.058276	11.7999	-0.233647	-457.068	-0.000128	NaN
780	1.000000	0.826225	7.37269e+06	-39139.1	1055.82	-29795	0.000000	0.000000	6.827064	-0.013031	NaN	0.000000	0.001638	0.001728	28.0819	0.080317	0.002107	38.1257	78.5519	-165.833	-0.125250	0.824939	-0.221954	-0.223241	-0.013031	38.1257	-0.221698	-295.654	4.407548E-5	NaN
780	1.000000	0.834257	7.37269e+06	-39139.1	1055.82	-29795	0.000000	0.000000	6.835098	0.047925	NaN	0.000000	0.001646	0.001706	28.082	0.111414	0.001936	57.5625	-17.2636	-166.598	-0.018145	0.832974	-0.213922	-0.215206	0.047925	57.5625	-0.214547	-227.103	-0.000211	NaN
780	1.000000	0.842266	7.37269e+06	-39139.1	1055.82	-29795	0.000000	0.000000	6.843104	-0.028563	NaN	0.000000	0.001586	0.001704	28.0817	0.049262	0.002033	24.2322	-154.447	-166.727	-0.020359	0.840901	-0.205913	-0.207279	-0.028563	24.2322	-0.205029	-159.235	0.000179	NaN
780	1.000000	0.850255	7.37269e+06	-39139.1	1055.82	-29795	0.000000	0.000000	6.851096	0.052644	NaN	0.000000	0.001616	0.001680	28.0819	0.070896	0.001956	36.2438	-106.559	-165.816	0.016403	0.848907	-0.197924	-0.199273	0.052644	36.2438	-0.199014	-126.905	-0.000415	NaN
780	1.000000	0.858254	7.37269e+06	-39139.1	1055.82	-29795	0.000000	0.000000	6.859092	-0.018351	NaN	0.000000	0.001613	0.001702	28.0818	0.076603	0.002018	37.9554	26.2088	-165.562	-0.022496	0.856964	-0.189926	-0.191216	-0.018351	37.9554	-0.189563	-88.4566	0.000207	NaN
780	1.000000	0.866227	7.37269e+06	-39139.1	1055.82	-29795	0.000000	0.000000	6.867065	-0.004131	NaN	0.000000	0.001631	0.001732	28.0818	0.069097	0.002051	33.6872	-17.9803	-169.862	0.070218	0.864911	-0.181953	-0.183269	-0.004131	33.6872	-0.181861	-65.626	6.295290E-5	NaN
780	1.000000	0.874249	7.37269e+06	-39139.1	1055.82	-29795	0.000000	0.000000	6.875086	-0.044121	NaN	0.000000	0.001627	0.001720	28.0819	0.107293	0.001896	56.5917	-46.4099	-165.677	0.024959	0.872916	-0.173931	-0.175264	-0.044121	56.5917	-0.173346	-46.9369	0.000940	NaN
780	1.000000	0.882247	7.37269e+06	-39139.1	1055.82	-29795	0.000000	0.000000	6.883086	-0.008478	NaN	0.000000	0.001619	0.001739	28.0817	0.021720	0.001984	10.947	-62.2237	-166.692	0.021172	0.880921	-0.165933	-0.167258	-0.008478	10.947	-0.165352	-34.0784	0.000249	NaN
780	1.000000	0.890228	7.37269e+06	-39139.1	1055.82	-29795	0.000000	0.000000	6.891069	0.041253	NaN	0.000000	0.001626	0.001739	28.082	0.135770	0.001909	71.1217	144.408	-169.273	-0.002116	0.888942	-0.157952	-0.159238	0.041253	71.1217	-0.158387	-25.6601	-0.001608	NaN
780	1.000000	0.898280	7.37269e+06	-39139.1	1055.82	-29795	0.000000	0.000000	6.899120	0.038018	NaN	0.000000	0.001619	0.001745	28.0818	0.082457	0.002099	39.2826	175.959	-164.229	0.010630	0.896953	-0.149900	-0.151227	0.038018	39.2826	-0.150626	-18.5956	-0.002044	NaN
780	1.000000	0.906276	7.37269e+06	-39139.1	1055.82	-29795	0.000000	0.000000	6.907116	0.043475	NaN	0.000000	0.001627	0.001736	28.0817	0.149756	0.002031	73.7182	173.385	-165.346	0.001838	0.904931	-0.141904	-0.143249	0.043475	73.7182	-0.142346	-13.0882	-0.003322	NaN
780	1.000000	0.914266	7.37269e+06	-39139.1	1055.82	-29795	0.000000	0.000000	6.915103	-0.044433	NaN	0.000000	0.001612	0.001687	28.0819	0.042826	0.001975	21.6866	60.6984	-166.958	-0.056869	0.912933	-0.133914	-0.135247	-0.044433	21.6866	-0.132377	-8.472061	0.005245	NaN
780	1.000000	0.922253	7.37269e+06	-39139.1	1055.82	-29795	0.000000	0.000000	6.923090	-0.040461	NaN	0.000000	0.001593	0.001678	28.0816	0.087419	0.002078	42.0717	-41.0453	-167.27	-0.015618	0.920930	-0.125926	-0.127250	-0.040461	42.0717	-0.125205	-6.138358	0.006592	NaN
780	1.000000	0.930275	7.37269e+06	-39139.1	1055.82	-29795	0.000000	0.000000	6.931114	0.010931	NaN	0.000000	0.001603	0.001708	28.0831	0.073458	0.001956	37.5489	-32.6738	-166.245	0.051129	0.928943	-0.117905	-0.119236	0.010931	37.5489	-0.118123	-4.426436	-0.002470	NaN
780	1.000000	0.938271	7.37269e+06	-39139.1	1055.82	-29795	0.000000	0.000000	6.939109	-0.019221	NaN	0.000000	0.001624	0.001718	28.0819	0.023564	0.001965	11.993	-73.189	-166.371	0.026213	0.936949	-0.109908	-0.111230	-0.019221	11.993	-0.108706	-2.821715	0.006812	NaN
780	1.000000	0.946285	7.37269e+06	-39139.1	1055.82	-29795	0.000000	0.000000	6.947124	-0.000633	NaN	0.000000	0.001598	0.001687	28.083	0.063905	0.001990	32.1121	-36.6041	-164.029	0.001509	0.944989	-0.101895	-0.103190	-0.000633	32.1121	-0.101880	-2.010215	0.000315	NaN
780	1.000000	0.954274	7.37269e+06	-39139.1	1055.82	-29795	0.000000	0.000000	6.955114	0.026306	NaN	0.000000	0.001611	0.001689	28.0829	0.056508	0.002066	27.3518	64.6813	-163.172	0.012549	0.952961	-0.093905	-0.095218	0.026306	27.3518	-0.094627	-1.383246	-0.019017	NaN
780	1.000000	0.962307	7.37269e+06	-39139.1	1055.82	-29795	0.000000	0.000000	6.963144	-0.024155	NaN	0.000000	0.001610	0.001704	28.083	0.128827	0.002072	62.184	133.893	-165.926	-0.030722	0.960984	-0.085873	-0.087196	-0.024155	62.184	-0.085582	-0.848667	0.028462	NaN
780	1.000000	0.970286	7.37269e+06	-39139.1	1055.82	-29795	0.000000	0.000000	6.971125	0.022108	NaN	0.000000	0.001606	0.001714	28.0832	0.070132	0.001887	37.1662	-87.4038	-166.696	-0.045460	0.968930	-0.077894	-0.079250	0.022108	37.1662	-0.078340	-0.562277	-0.039318	NaN
780	1.000000	0.978255	7.37269e+06	-39139.1	1055.82	-29795	0.000000	0.000000	6.979096	0.047076	NaN	0.000000	0.001609	0.001698	28.0831	0.011054	0.001973	5.602605	70.0889	-167.863	-0.003652	0.976991	-0.069925	-0.071189	0.047076	5.602605	-0.076226	-0.496725	-0.094773	NaN
780	1.000000	0.986299	7.37269e+06	-39139.1	1055.82	-29795	0.000000	0.000000	6.987137	-0.023597	NaN	0.000000	0.001574	0.001731	28.0833	0.094562	0.002136	44.2666	155.367	-163.283	-0.036906	0.984995	-0.061881	-0.063184	-0.023597	44.2666	-0.061481	-0.198504	0.118875	NaN
780	1.000000	0.994287	7.37269e+06	-39139.1	1055.82	-29795	0.000000	0.000000	6.995125	-0.009693	NaN	0.000000	0.001598	0.001709	28.083	0.053507	0.002088	25.6258	101.36	-171.403	0.058593	0.993015	-0.053893	-0.055165	-0.009693	25.6258	-0.053609	-0.117107	0.082773	NaN
780	1.000000	1.002297	7.37269e+06	-39139.1	1055.82	-29795	0.000000	0.000000	7.003137	0.039719	NaN	0.000000	0.001611	0.001716	28.083	0.008360	0.001942	4.304043	49.5	-169.961	0.046345	1.001025	-0.045883	-0.047155	0.039719	4.304043	-0.052805	-0.110810	-0.358446	NaN
780	1.000000	1.010302	7.37269e+06	-39139.1	1055.82	-29795	0.000000	0.000000	7.011138	-0.050932	NaN	0.000000	0.001588	0.001680	28.0833	0.099513	0.001969	50.5342	-91.3426	-168.149	0.003721	1.009011	-0.037878	-0.039168	-0.050932	50.5342	-0.037122	-0.037027	1.375535	NaN
780	1.000000	1.018326	7.37269e+06	-39139.1	1055.82	-29795	0.000000	0.000000	7.019164	-0.022421	NaN	0.000000	0.001575	0.001689	28.0831	0.055966	0.001868	29.9524	138.677	-169.3	0.027661	1.017000	-0.029854	-0.031179	-0.022421	29.9524	-0.029292	-0.021996	1.019333	NaN
780	1.000000	1.026322	7.37269e+06	-39139.1	1055.82	-29795	0.000000	0.000000	7.027159	-0.042132	NaN	0.000000	0.001587	0.001677	28.0835	0.068652	0.001876	36.6015	-73.1166	-165.016	-0.032602	1.024978	-0.021858	-0.023202	-0.042132	36.6015	-0.020994	-0.013314	3.164607	NaN
780	1.000000	1.034326	7.37269e+06	-39139.1	1055.82	-29795	0.000000	0.000000	7.035166	0.034791	NaN	0.000000	0.001567	0.001690	28.0833	0.041708	0.002073	20.1228	138.253	-163.822	0.009833	1.033021	-0.013854	-0.015159	0.034791	20.1228	-0.015151	-0.009366	-3.714670	NaN
780	1.000000	1.042334	7.37269e+06	-39139.1	1055.82	-29795	0.000000	0.000000	7.043172	-0.016877	NaN	0.000000	0.001587	0.001648	28.0834	0.088223	0.001952	45.1998	-89.5832	-168.174	0.014920	1.041029	-0.005846	-0.007151	-0.016877	45.1998	-0.005566	-0.003770	4.477142	NaN
780	1.000000	1.050314	7.37269e+06	-39139.1	1055.82	-29795	0.000000	0.000000	7.051166	0.310504	NaN	0.000000	0.001623	0.001672	28.0832	0.656527	0.002095	313.372	6.593684	-165.88	0.092013	1.049073	0.002135	0.000893	0.310504	313.372	0.001391	0.001069	290.565	8758.34
780	1.000000	1.058254	7.37269e+06	-39139.1	1055.82	-29795	0.000000	0.000000	7.059390	7.238335	NaN	0.000000	0.001560	0.001661	28.0833	6.945709	0.001683	4127.56	8.333814	-171.011	6.307455	1.056901	0.010074	0.008721	7.238335	4127.56	0.008759	0.007835	923.899	42604.9
780	2.000000	1.060978	7.37269e+06	-39139.1	1055.82	-29795	0.000000	0.000000	7.062161	8.373265	NaN	0.000000	0.001556	0.001698	28.0837	9.563815	0.001708	5600.26	7.610974	-173.179	7.849396	1.060660	0.012799	0.012480	8.373265	5600.26	0.011677	0.011106	753.967	48552.3
780	2.000000	1.062924	7.37269e+06	-39139.1	1055.82	-29795	0.000000	0.000000	7.064262	12.1549	NaN	0.000000	0.001533	0.001714	28.0835	11.6599	0.001665	7000.96	6.702680	-174.079	11.749	1.062567	0.014744	0.014388	12.1549	7000.96	0.013442	0.013263	916.442	55540.2
780	2.000000	1.064949	7.37269e+06	-39139.1	1055.82	-29795	0.000000	0.000000	7.066377	14.3285	NaN	0.000000	0.001589	0.001685	28.0825	14.4356	0.001821	7925.49	8.640073	-175.701	14.417	1.064625	0.016769	0.016445	14.3285	7925.49	0.015413	0.015840	904.555	57532.9
780	2.000000	1.066890	7.37269e+06	-39139.1	1055.82	-29795	0.000000	0.000000	7.068410	16.5678	NaN	0.000000	0.001583	0.001705	28.0823	15.5281	0.001613	9626.8	2.630033	-174.451	15.7657	1.066586	0.018711	0.018406	16.5678	9626.8	0.017420	0.018649	888.402	64406.1
780	2.000000	1.068903	7.37269e+06	-39139.1	1055.82	-29795	0.000000	0.000000	7.070616	21.2703	NaN	0.000000	0.001578	0.001678	28.0823	17.8991	0.001688	10602.3	6.208020	-177.624	20.7287	1.068600	0.020723	0.020420	21.2703	10602.3	0.019218	0.021329	997.257	66326.8
780	2.000000	1.070959	7.37269e+06	-39139.1	1055.82	-29795	0.000000	0.000000	7.072895	26.6936	NaN	0.000000	0.001620	0.001632	28.0825	19.9414	0.001799	11082.8	6.128287	-176.713	26.4418	1.070552	0.022779	0.022373	26.6936	11082.8	0.020973	0.024094	1107.89	65232.9
780	2.000000	1.072857	7.37269e+06	-39139.1	1055.82	-29795	0.000000	0.000000	7.074948	30.4804	NaN	0.000000	0.001609	0.001677	28.0826	21.7947	0.001790	12175.4	1.013648	-173.253	28.084	1.072510	0.024677	0.024331	30.4804	12175.4	0.022799	0.027133	1123.36	67531.4
780	2.000000	1.074897	7.37269e+06	-39139.1	1055.82	-29795	0.000000	0.000000	7.077127	33.8696	NaN	0.000000	0.001618	0.001693	28.0828	24.5238	0.001782	13760.5	6.343278	179.757	32.4015	1.074569	0.026717	0.026389	33.8696	13760.5	0.024871	0.030781	1100.32	71657.9
780	2.000000	1.076884	7.37269e+06	-39139.1	1055.82	-29795	0.000000	0.000000	7.079252	37.2216	NaN	0.000000	0.001597	0.001673	28.0822	25.6778	0.001700	15103.8	6.051700	179.759	37.4854	1.076637	0.028704	0.028457	37.2216	15103.8	0.026856	0.034479	1079.56	74316.6
780	2.000000	1.078952	7.37269e+06	-39139.1	1055.82	-29795	0.000000	0.000000	7.081600	44.0185	NaN	0.000000	0.001609	0.001670	28.0823	28.8183	0.001950	14781.1	6.214878	-178.271	46.4475	1.078587	0.030772	0.030407	44.0185	14781.1	0.028539	0.037770	1165.44	69487.6
780	2.000000	1.080859	7.37269e+06	-39139.1	1055.82	-29795	0.000000	0.000000	7.083837	52.0441	NaN	0.000000	0.001616	0.001700	28.0822	30.7872	0.001776	17335.6	7.894322	176.409	50.7607	1.080520	0.032680	0.032340	52.0441	17335.6	0.030428	0.041635	1250	77621.5
780	2.000000	1.082815	7.37269e+06	-39139.1	1055.82	-29795	0.000000	0.000000	7.085980	56.6142	NaN	0.000000	0.001606	0.001736	28.0822	31.5234	0.001761	17896.1	3.719631	-178.751	53.7157	1.082531	0.034635	0.034351	56.6142	17896.1	0.032262	0.045564	1242.53	76599.1
780	2.000000	1.084865	7.37269e+06	-39139.1	1055.82	-29795	0.000000	0.000000	7.088317	63.5979	NaN	0.000000	0.001627	0.001698	28.0836	34.6855	0.001807	19193.9	5.632965	177.753	62.1456	1.084591	0.036685	0.036411	63.5979	19193.9	0.034200	0.049900	1274.5	78502.7
780	2.000000	1.086817	7.37269e+06	-39139.1	1055.82	-29795	0.000000	0.000000	7.090609	71.8708	NaN	0.000000	0.001621	0.001677	28.0821	34.8063	0.001695	20534.9	1.616828	-178.297	70.5687	1.086551	0.038637	0.038371	71.8708	20534.9	0.036012	0.054129	1327.78	80640.3
780	2.000000	1.088873	7.37269e+06	-39139.1	1055.82	-29795	0.000000	0.000000	7.092834	75.976	NaN	0.000000	0.001621	0.001622	28.0822	38.7027	0.001828	21168.3	6.909059	176.414	77.1691	1.088515	0.040693	0.040335	75.976	21168.3	0.038001	0.058965	1288.49	79645.4
780	2.000000	1.090893	7.37269e+06	-39139.1	1055.82	-29795	0.000000	0.000000	7.095205	84.5204	NaN	0.000000	0.001590	0.001647	28.0823	39.9681	0.001826	21889.5	2.637040	-179.045	85.6272	1.090593	0.042714	0.042413	84.5204	21889.5	0.039818	0.063558	1329.81	79327.7
780	2.000000	1.092806	7.37269e+06	-39139.1	1055.82	-29795	0.000000	0.000000	7.097522	94.3625	NaN	0.000000	0.001591	0.001666	28.0821	41.8115	0.001836	22767.6	3.490512	179.567	92.985	1.092477	0.044626	0.044298	94.3625	22767.6	0.041518	0.068010	1387.49	79763.6
780	2.000000	1.094804	7.37269e+06	-39139.1	1055.82	-29795	0.000000	0.000000	7.099803	101.244	NaN	0.000000	0.001578	0.001695	28.0834	43.626	0.001792	24351.3	4.923371	176.484	98.5305	1.094550	0.046624	0.046370	101.244	24351.3	0.043506	0.073402	1379.31	82118.7
780	2.000000	1.096847	7.37269e+06	-39139.1	1055.82	-29795	0.000000	0.000000	7.102256	111.22	NaN	0.000000	0.001604	0.001695	28.0821	44.3063	0.001705	25984.1	2.338651	179.111	109.873	1.096503	0.048667	0.048323	111.22	25984.1	0.045457	0.078891	1409.8	84521.8
780	2.000000	1.098780	7.37269e+06	-39139.1	1055.82	-29795	0.000000	0.000000	7.104439	117.299	NaN	0.000000	0.001600	0.001694	28.0837	46.62	0.001824	25555.7	-2.341045	-176.921	114.407	1.098542	0.050600	0.050362	117.299	25555.7	0.047158	0.083831	1399.23	80641.4
780	2.000000	1.100859	7.37269e+06	-39139.1	1055.82	-29795	0.000000	0.000000	7.106867	125.794	NaN	0.000000	0.001701	0.001716	28.0834	49.9126	0.001609	31019	5.719145	172.886	123.275	1.100474	0.052679	0.052294	125.794	31019	0.049637	0.091296	1377.87	93794.2
780	2.000000	1.102865	7.37269e+06	-39139.1	1055.82	-29795	0.000000	0.000000	7.109216	134.124	NaN	0.000000	0.001632	0.001714	28.0835	51.4404	0.001766	29122.9	5.484907	174.554	136.078	1.102591	0.054686	0.054412	134.124	29122.9	0.051231	0.096258	1393.39	85761.1
780	2.000000	1.104742	7.37269e+06	-39139.1	1055.82	-29795	0.000000	0.000000	7.111566	145.667	NaN	0.000000	0.001652	0.001744	28.0838	54.1088	0.001811	29870.1	4.148558	176.109	141.76	1.104536	0.056562	0.056356	145.667	29870.1	0.052904	0.101602	1433.71	85616.9
780	2.000000	1.106753	7.37269e+06	-39139.1	1055.82	-29795	0.000000	0.000000	7.114133	159.201	NaN	0.000000	0.001664	0.001692	28.0835	54.8875	0.001738	31589.7	6.138503	172.992	154.754	1.106486	0.058573	0.058307	159.201	31589.7	0.054793	0.107802	1476.79	87903.4
780	2.000000	1.108784	7.37269e+06	-39139.1	1055.82	-29795	0.000000	0.000000	7.116515	167.728	NaN	0.000000	0.001654	0.001678	28.0838	57.2605	0.001728	33142.2	5.006713	172.988	165.621	1.108525	0.060604	0.060345	167.728	33142.2	0.056809	0.114614	1463.42	89440.8
780	2.000000	1.110768	7.37269e+06	-39139.1	1055.82	-29795	0.000000	0.000000	7.118817	175.468	NaN	0.000000	0.001648	0.001659	28.0837	59.0133	0.001750	33716.6	5.781705	172.851	170.726	1.110476	0.062588	0.062296	175.468	33716.6	0.058685	0.121135	1448.53	88508.2
780	2.000000	1.112864	7.37269e+06	-39139.1	1055.82	-29795	0.000000	0.000000	7.121380	186.811	NaN	0.000000	0.001634	0.001651	28.0837	61.1584	0.001724	35472.9	6.577614	171.979	190.415	1.112506	0.064684	0.064326	186.811	35472.9	0.060735	0.128456	1454.28	90426
780	2.000000	1.114773	7.37269e+06	-39139.1	1055.82	-29795	0.000000	0.000000	7.124008	204.331	NaN	0.000000	0.001657	0.001676	28.0836	62.9193	0.001791	35131.5	2.715517	175.888	200.595	1.114404	0.066593	0.066225	204.331	35131.5	0.062231	0.133929	1525.66	87706.5
780	2.000000	1.116811	7.37269e+06	-39139.1	1055.82	-29795	0.000000	0.000000	7.126346	211.613	NaN	0.000000	0.001672	0.001685	28.0835	64.7527	0.001741	37194.2	8.930796	169.58	211.208	1.116403	0.068632	0.068223	211.613	37194.2	0.064365	0.141923	1491.04	90203.3
780	2.000000	1.118782	7.37269e+06	-39139.1	1055.82	-29795	0.000000	0.000000	7.128832	224.134	NaN	0.000000	0.001677	0.001730	28.0838	66.7989	0.001683	39690.1	6.280010	171.451	222.792	1.118434	0.070603	0.070254	224.134	39690.1	0.066367	0.149625	1497.97	93745.9
780	2.000000	1.120932	7.37269e+06	-39139.1	1055.82	-29795	0.000000	0.000000	7.131300	231.89	NaN	0.000000	0.001655	0.001716	28.0836	69.9817	0.001830	38240.4	5.556824	172.496	235.224	1.120473	0.072752	0.072293	231.89	38240.4	0.068204	0.156859	1478.33	88214.5
780	2.000000	1.122807	7.37269e+06	-39139.1	1055.82	-29795	0.000000	0.000000	7.133784	246.702	NaN	0.000000	0.001654	0.001727	28.0839	70.8197	0.001895	37371.2	2.193371	176.034	245.055	1.122506	0.074628	0.074326	246.702	37371.2	0.069676	0.162774	1515.61	84628.6
780	2.000000	1.124739	7.37269e+06	-39139.1	1055.82	-29795	0.000000	0.000000	7.136354	262.232	NaN	0.000000	0.001678	0.001697	28.0838	73.3144	0.001775	41299.8	7.015327	169.691	259.276	1.124509	0.076559	0.076330	262.232	41299.8	0.071797	0.171475	1529.27	91121.3
780	2.000000	1.126728	7.37269e+06	-39139.1	1055.82	-29795	0.000000	0.000000	7.138824	273.954	NaN	0.000000	0.001725	0.001714	28.0838	72.8	0.001846	39433.5	-0.725216	178.72	271.343	1.126554	0.078548	0.078374	273.954	39433.5	0.073338	0.177930	1539.67	85410.9
780	2.000000	1.128805	7.37269e+06	-39139.1	1055.82	-29795	0.000000	0.000000	7.141344	284.723	NaN	0.000000	0.001707	0.001705	28.0838	76.1013	0.001760	43244.2	5.217063	171.318	285.391	1.128533	0.080626	0.080354	284.723	43244.2	0.075688	0.187991	1514.56	91124.1
780	2.000000	1.130821	7.37269e+06	-39139.1	1055.82	-29795	0.000000	0.000000	7.143755	294.336	NaN	0.000000	0.001681	0.001734	28.0835	78.0142	0.001763	44247.4	6.044283	170.519	291.968	1.130603	0.082642	0.082423	294.336	44247.4	0.077653	0.196604	1497.1	91172.8
780	2.000000	1.132711	7.37269e+06	-39139.1	1055.82	-29795	0.000000	0.000000	7.146118	305.848	NaN	0.000000	0.001671	0.001706	28.0825	78.7003	0.001828	43052.9	3.605414	173.086	300.752	1.132444	0.084531	0.084264	305.848	43052.9	0.079203	0.203528	1502.73	87189.5
780	2.000000	1.134799	7.37269e+06	-39139.1	1055.82	-29795	0.000000	0.000000	7.148913	323.035	NaN	0.000000	0.001710	0.001681	28.0823	83.2728	0.001873	44461.4	10.3242	166.584	322.013	1.134426	0.086620	0.086246	323.035	44461.4	0.081171	0.212473	1520.36	88126
780	2.000000	1.136791	7.37269e+06	-39139.1	1055.82	-29795	0.000000	0.000000	7.151598	339.911	NaN	0.000000	0.001639	0.001699	28.0822	82.5445	0.001807	45672.1	3.878877	172.978	339.029	1.136374	0.088612	0.088194	339.911	45672.1	0.083030	0.221092	1537.41	88743.6
780	2.000000	1.138779	7.37269e+06	-39139.1	1055.82	-29795	0.000000	0.000000	7.154130	353.168	NaN	0.000000	0.001614	0.001701	28.0825	85.884	0.001794	47867.8	5.778672	171.187	350.849	1.138367	0.090599	0.090188	353.168	47867.8	0.085065	0.230713	1530.77	91050.1
780	2.000000	1.140818	7.37269e+06	-39139.1	1055.82	-29795	0.000000	0.000000	7.156525	361.827	NaN	0.000000	0.001614	0.001685	28.0821	88.3823	0.001809	48859.5	7.052651	169.392	362.778	1.140433	0.092638	0.092253	361.827	48859.5	0.087084	0.240444	1504.83	91036.5
780	2.000000	1.142732	7.37269e+06	-39139.1	1055.82	-29795	0.000000	0.000000	7.158988	375.184	NaN	0.000000	0.001630	0.001678	28.0823	89.7719	0.001783	50342.1	4.655045	171.147	371.252	1.142452	0.094552	0.094273	375.184	50342.1	0.088963	0.249668	1502.73	92049.9
780	2.000000	1.144650	7.37269e+06	-39139.1	1055.82	-29795	0.000000	0.000000	7.161538	390.553	NaN	0.000000	0.001635	0.001664	28.0822	92.524	0.001807	51207.4	4.094425	171.483	384.269	1.144441	0.096471	0.096262	390.553	51207.4	0.090750	0.258594	1510.29	92001.9
780	2.000000	1.146793	7.37269e+06	-39139.1	1055.82	-29795	0.000000	0.000000	7.164400	408.07	NaN	0.000000	0.001604	0.001675	28.0821	93.6368	0.001790	52309.3	4.699057	170.653	409.793	1.146538	0.098613	0.098359	408.07	52309.3	0.092762	0.268816	1518.03	92177.4
780	2.000000	1.148784	7.37269e+06	-39139.1	1055.82	-29795	0.000000	0.000000	7.167010	423.143	NaN	0.000000	0.001626	0.001698	28.0819	95.3986	0.001883	50669	1.501698	174.244	421.039	1.148576	0.100604	0.100396	423.143	50669	0.094340	0.276965	1527.78	87963.6
780	2.000000	1.150755	7.37269e+06	-39139.1	1055.82	-29795	0.000000	0.000000	7.169892	445.268	NaN	0.000000	0.001603	0.001688	28.0822	96.9957	0.001708	56783.8	2.662695	172.604	442.609	1.150496	0.102576	0.102316	445.268	56783.8	0.096695	0.289331	1538.96	96449.6
780	2.000000	1.152713	7.37269e+06	-39139.1	1055.82	-29795	0.000000	0.000000	7.172643	464.588	NaN	0.000000	0.001616	0.001646	28.082	97.7967	0.001706	57322.8	2.629749	172.679	461.681	1.152462	0.104533	0.104282	464.588	57322.8	0.098454	0.298740	1555.16	95819.6
780	2.000000	1.154808	7.37269e+06	-39139.1	1055.82	-29795	0.000000	0.000000	7.175103	473.47	NaN	0.000000	0.001591	0.001691	28.0819	103.153	0.001956	52749.3	4.027857	171.609	475.474	1.154602	0.106629	0.106422	473.47	52749.3	0.099897	0.306556	1544.48	87043.2
780	2.000000	1.156908	7.37269e+06	-39139.1	1055.82	-29795	0.000000	0.000000	7.177821	488.499	NaN	0.000000	0.001603	0.001694	28.0823	103.361	0.001750	59050.1	5.641786	169.249	496.646	1.156509	0.108728	0.108329	488.499	59050.1	0.102524	0.321036	1521.63	95217.6
780	2.000000	1.157669	7.37269e+06	-39139.1	1055.82	-29795	0.000000	0.000000	7.179274	505.338	NaN	0.000000	0.001624	0.001747	28.0823	104.652	0.001779	58819	4.854034	170.523	497.981	1.157272	0.109489	0.109092	505.338	58819	0.103046	0.323950	1559.92	94417.3