File: remote_trans/data/nanoindenter/0828-1/data/Data_2025-08-06,11h17m57s/2025-07-22_16-23-58_1_197.txt
2025-07-22, 16:23:58, 1
Index	Phase	Displacement	Time	Pos X	Pos Y	Pos Z	Rot A	Rot B	Piezo Z	Force A	Force B	Gripper	Voltage A	Voltage B	Temperature	Amplitude force	Amplitude pos	Stiffness	Phase shift	Phase excitation	Force A raw	Displacement raw	HMax	HMax raw	Real Force	Real Stiffness	Contact Depth	Area	Hardness	Reduced Mod.
[#]	[#]	[um]	[s]	[um]	[um]	[um]	[m°]	[m°]	[um]	[uN]	[uN]	[V]	[V]	[V]	[°C]	[uN]	[um]	[N/m]	[°]	[°]	[uN]	[um]	[um]	[um]	[uN]	[N/m]	[um]	[um^2]	[MPa]	[MPa]
197	1.000000	0.002832	7.36697e+06	-48489.1	955.817	-29762.1	0.000000	0.000000	6.002804	0.055477	NaN	0.000000	0.001545	0.001747	28.0777	0.098082	0.000921	106.473	-22.5824	-164.872	0.060006	0.001533	-1.721358	-1.722658	0.055477	106.473	-1.721749	-9.892866E+22	-5.607751E-25	NaN
197	1.000000	0.014859	7.36697e+06	-48489.1	955.819	-29762.1	0.000000	0.000000	6.014832	0.105927	NaN	0.000000	0.001612	0.001775	28.0781	0.013564	0.001667	8.138737	72.8861	-162.676	0.050776	0.013623	-1.709332	-1.710567	0.105927	8.138737	-1.719093	-9.121131E+22	-1.161341E-24	NaN
197	1.000000	0.026828	7.36697e+06	-48489.1	955.818	-29762.1	0.000000	0.000000	6.026794	-0.075038	NaN	0.000000	0.001542	0.001717	28.078	0.055488	0.001853	29.9462	146.091	-165.023	-0.063885	0.025482	-1.697363	-1.698709	-0.075038	29.9462	-1.695483	-4.430319E+22	1.693745E-24	NaN
197	1.000000	0.038802	7.36697e+06	-48489.1	955.818	-29762.1	0.000000	0.000000	6.038773	0.040335	NaN	0.000000	0.001564	0.001724	28.0779	0.068018	0.001966	34.5957	178.025	-164.398	0.032776	0.037474	-1.685389	-1.686717	0.040335	34.5957	-1.686263	-3.341466E+22	-1.207101E-24	NaN
197	1.000000	0.050797	7.36697e+06	-48489.1	955.818	-29762.1	0.000000	0.000000	6.050765	-0.036893	NaN	0.000000	0.001566	0.001754	28.0777	0.109346	0.001928	56.7019	132.029	-163.771	0.011068	0.049504	-1.673393	-1.674686	-0.036893	56.7019	-1.672905	-2.220488E+22	1.661481E-24	NaN
197	1.000000	0.062802	7.36697e+06	-48489.1	955.818	-29762.1	0.000000	0.000000	6.062772	0.012815	NaN	0.000000	0.001565	0.001740	28.0778	0.048126	0.001964	24.4985	138.279	-163.325	-0.026816	0.061446	-1.661388	-1.662745	0.012815	24.4985	-1.661781	-1.579830E+22	-8.111570E-25	NaN
197	1.000000	0.074773	7.36697e+06	-48489.1	955.818	-29762.1	0.000000	0.000000	6.074741	-0.046152	NaN	0.000000	0.001561	0.001715	28.077	0.050891	0.002106	24.1601	116.764	-164.525	-0.043726	0.073457	-1.649417	-1.650733	-0.046152	24.1601	-1.647984	-1.035712E+22	4.456100E-24	NaN
197	1.000000	0.086776	7.36697e+06	-48489.1	955.819	-29762.1	0.000000	0.000000	6.086745	0.003871	NaN	0.000000	0.001541	0.001712	28.0767	0.068734	0.002038	33.723	79.7913	-163.817	-0.022045	0.085444	-1.637415	-1.638747	0.003871	33.723	-1.637501	-7.514141E+21	-5.151285E-25	NaN
197	1.000000	0.098809	7.36697e+06	-48489.1	955.818	-29762.1	0.000000	0.000000	6.098776	-0.031157	NaN	0.000000	0.001522	0.001759	28.0768	0.082774	0.001870	44.2715	42.1965	-167.261	-0.033906	0.097471	-1.625382	-1.626719	-0.031157	44.2715	-1.624854	-5.102002E+21	6.106735E-24	NaN
197	1.000000	0.110818	7.36697e+06	-48489.1	955.819	-29762.1	0.000000	0.000000	6.110786	-0.024494	NaN	0.000000	0.001563	0.001763	28.077	0.040510	0.002091	19.3717	116.516	-163.981	0.002213	0.109541	-1.613372	-1.614650	-0.024494	19.3717	-1.612424	-3.487019E+21	7.024417E-24	NaN
197	1.000000	0.122795	7.36697e+06	-48489.1	955.819	-29762.1	0.000000	0.000000	6.122763	-0.037931	NaN	0.000000	0.001588	0.001735	28.0769	0.053901	0.002020	26.6846	68.8743	-164.584	0.047456	0.121528	-1.601395	-1.602662	-0.037931	26.6846	-1.600329	-2.407704E+21	1.575409E-23	NaN
197	1.000000	0.134829	7.36697e+06	-48489.1	955.818	-29762.1	0.000000	0.000000	6.134795	-0.071839	NaN	0.000000	0.001542	0.001766	28.077	0.167042	0.002027	82.4198	-120.708	-165.623	-0.004040	0.133526	-1.589362	-1.590664	-0.071839	82.4198	-1.588708	-1.686669E+21	4.259251E-23	NaN
197	1.000000	0.146802	7.36697e+06	-48489.1	955.818	-29762.1	0.000000	0.000000	6.146772	0.031713	NaN	0.000000	0.001570	0.001757	28.0768	0.082001	0.001961	41.8172	-64.7421	-164.741	0.109881	0.145516	-1.577388	-1.578675	0.031713	41.8172	-1.577957	-1.213411E+21	-2.613520E-23	NaN
197	1.000000	0.158839	7.36697e+06	-48489.1	955.818	-29762.1	0.000000	0.000000	6.158808	-0.013396	NaN	0.000000	0.001583	0.001784	28.0766	0.081124	0.001924	42.16	-34.8516	-166.708	-0.022421	0.157465	-1.565351	-1.566725	-0.013396	42.16	-1.565113	-8.186795E+20	1.636349E-23	NaN
197	1.000000	0.170824	7.36697e+06	-48489.1	955.818	-29762.1	0.000000	0.000000	6.170792	-0.021562	NaN	0.000000	0.001604	0.001738	28.0768	0.110009	0.001980	55.5552	80.614	-162.399	-0.017915	0.169525	-1.553367	-1.554665	-0.021562	55.5552	-1.553076	-5.661496E+20	3.808565E-23	NaN
197	1.000000	0.182813	7.36697e+06	-48489.1	955.818	-29762.1	0.000000	0.000000	6.182784	0.031392	NaN	0.000000	0.001624	0.001737	28.0765	0.028133	0.001919	14.6596	38.008	-164.319	0.052314	0.181555	-1.541377	-1.542635	0.031392	14.6596	-1.542983	-4.155316E+20	-7.554571E-23	NaN
197	1.000000	0.194823	7.36697e+06	-48489.1	955.819	-29762.1	0.000000	0.000000	6.194789	-0.075867	NaN	0.000000	0.001578	0.001706	28.0765	0.126533	0.001815	69.7154	6.290243	-161.767	-0.017201	0.193529	-1.529368	-1.530661	-0.075867	69.7154	-1.528551	-2.669891E+20	2.841581E-22	NaN
197	1.000000	0.206848	7.36697e+06	-48489.1	955.818	-29762.1	0.000000	0.000000	6.206816	-0.022763	NaN	0.000000	0.001625	0.001783	28.0779	0.094793	0.002120	44.7041	-132.401	-166.489	-0.086943	0.205564	-1.517342	-1.518627	-0.022763	44.7041	-1.516960	-1.871405E+20	1.216335E-22	NaN
197	1.000000	0.218822	7.36697e+06	-48489.1	955.819	-29762.1	0.000000	0.000000	6.218789	-0.041963	NaN	0.000000	0.001619	0.001741	28.0779	0.044962	0.002000	22.4818	84.026	-164.231	-0.079562	0.217529	-1.505368	-1.506661	-0.041963	22.4818	-1.503969	-1.256512E+20	3.339621E-22	NaN
197	1.000000	0.230890	7.36697e+06	-48489.1	955.818	-29762.1	0.000000	0.000000	6.230859	0.002865	NaN	0.000000	0.001683	0.001728	28.0781	0.019703	0.001969	10.0088	-40.1285	-163.073	0.002081	0.229509	-1.493301	-1.494682	0.002865	10.0088	-1.493515	-9.118950E+19	-3.142204E-23	NaN
197	1.000000	0.242864	7.36697e+06	-48489.1	955.817	-29762.1	0.000000	0.000000	6.242835	0.031778	NaN	0.000000	0.001682	0.001733	28.0778	0.084663	0.002181	38.8232	-169.063	-163.803	-0.013501	0.241594	-1.481326	-1.482597	0.031778	38.8232	-1.481940	-6.393732E+19	-4.970155E-22	NaN
197	1.000000	0.254872	7.36697e+06	-48489.1	955.819	-29762.1	0.000000	0.000000	6.254840	-0.025284	NaN	0.000000	0.001624	0.001711	28.0778	0.051129	0.002020	25.3163	-55.114	-165.141	0.034183	0.253558	-1.469318	-1.470633	-0.025284	25.3163	-1.468569	-4.242368E+19	5.959803E-22	NaN
197	1.000000	0.266887	7.36697e+06	-48489.1	955.819	-29762.1	0.000000	0.000000	6.266857	0.015132	NaN	0.000000	0.001620	0.001762	28.0778	0.128467	0.002069	62.079	-171.268	-165.389	-0.011385	0.265550	-1.457304	-1.458640	0.015132	62.079	-1.457486	-3.019422E+19	-5.011438E-22	NaN
197	1.000000	0.278883	7.36697e+06	-48489.1	955.818	-29762.1	0.000000	0.000000	6.278853	0.025352	NaN	0.000000	0.001685	0.001712	28.0779	0.015809	0.001923	8.221422	-96.0473	-165.206	-0.055138	0.277559	-1.445307	-1.446632	0.025352	8.221422	-1.447620	-2.230613E+19	-1.136535E-21	NaN
197	1.000000	0.290865	7.36697e+06	-48489.1	955.819	-29762.1	0.000000	0.000000	6.290835	0.028628	NaN	0.000000	0.001678	0.001736	28.0779	0.109978	0.002069	53.1451	-71.1414	-163.431	-0.031241	0.289566	-1.433325	-1.434625	0.028628	53.1451	-1.433729	-1.456331E+19	-1.965742E-21	NaN
197	1.000000	0.302890	7.36697e+06	-48489.1	955.817	-29762.1	0.000000	0.000000	6.302859	-0.001419	NaN	0.000000	0.001650	0.001758	28.0779	0.099127	0.001986	49.9196	70.1271	-164.234	0.035257	0.301536	-1.421301	-1.422655	-0.001419	49.9196	-1.421279	-9.937169E+18	1.428247E-22	NaN
197	1.000000	0.314879	7.36697e+06	-48489.1	955.819	-29762.1	0.000000	0.000000	6.314847	-0.036237	NaN	0.000000	0.001682	0.001755	28.0778	0.070225	0.001924	36.5061	-86.0051	-162.055	-0.059488	0.313608	-1.409311	-1.410582	-0.036237	36.5061	-1.408567	-6.725580E+18	5.387924E-21	NaN
197	1.000000	0.326887	7.36697e+06	-48489.1	955.819	-29762.1	0.000000	0.000000	6.326851	-0.102218	NaN	0.000000	0.001630	0.001817	28.0779	0.033539	0.002013	16.6572	109.623	-164.496	-0.040579	0.325619	-1.397304	-1.398571	-0.102218	16.6572	-1.392701	-4.131472E+18	2.474141E-20	NaN
197	1.000000	0.338913	7.36697e+06	-48489.1	955.818	-29762.1	0.000000	0.000000	6.338882	0.003321	NaN	0.000000	0.001608	0.001786	28.0774	0.049337	0.001934	25.5084	-151.637	-165.039	0.004120	0.337600	-1.385278	-1.386591	0.003321	25.5084	-1.385376	-3.298885E+18	-1.006662E-21	NaN
197	1.000000	0.350902	7.36697e+06	-48489.1	955.818	-29762.1	0.000000	0.000000	6.350872	0.025628	NaN	0.000000	0.001608	0.001790	28.0768	0.078302	0.002087	37.5231	169.901	-165.45	-0.004632	0.349594	-1.373288	-1.374596	0.025628	37.5231	-1.373801	-2.311615E+18	-1.108651E-20	NaN
197	1.000000	0.362909	7.36697e+06	-48489.1	955.819	-29762.1	0.000000	0.000000	6.362879	0.015104	NaN	0.000000	0.001541	0.001789	28.0768	0.007915	0.002040	3.880312	151.334	-165.458	0.035194	0.361613	-1.361281	-1.362577	0.015104	3.880312	-1.364200	-1.721035E+18	-8.776133E-21	NaN
197	1.000000	0.374927	7.36697e+06	-48489.1	955.818	-29762.1	0.000000	0.000000	6.374895	-0.035757	NaN	0.000000	0.001612	0.001740	28.0764	0.032644	0.001929	16.9244	-38.8618	-165.976	-0.090939	0.373583	-1.349263	-1.350608	-0.035757	16.9244	-1.347679	-1.035710E+18	3.452382E-20	NaN
197	1.000000	0.386936	7.36697e+06	-48489.1	955.818	-29762.1	0.000000	0.000000	6.386906	0.020816	NaN	0.000000	0.001559	0.001727	28.0764	0.057351	0.001990	28.8234	-102.406	-165.54	-0.002431	0.385619	-1.337255	-1.338571	0.020816	28.8234	-1.337796	-7.643376E+17	-2.723397E-20	NaN
197	1.000000	0.398922	7.36697e+06	-48489.1	955.819	-29762.1	0.000000	0.000000	6.398892	0.011732	NaN	0.000000	0.001569	0.001761	28.0766	0.014806	0.001991	7.438105	-35.9462	-164.891	-0.028998	0.397623	-1.325268	-1.326568	0.011732	7.438105	-1.326451	-5.392287E+17	-2.175775E-20	NaN
197	1.000000	0.410937	7.36697e+06	-48489.1	955.819	-29762.1	0.000000	0.000000	6.410902	-0.092305	NaN	0.000000	0.001574	0.001741	28.0767	0.041613	0.001972	21.1062	-30.9044	-167.832	-0.083552	0.409600	-1.313254	-1.314590	-0.092305	21.1062	-1.309974	-3.248346E+17	2.841586E-19	NaN
197	1.000000	0.422916	7.36697e+06	-48489.1	955.818	-29762.1	0.000000	0.000000	6.422884	-0.009014	NaN	0.000000	0.001602	0.001735	28.0765	0.023347	0.002002	11.664	137.505	-165.058	-0.025810	0.421556	-1.301275	-1.302635	-0.009014	11.664	-1.300695	-2.441672E+17	3.691637E-20	NaN
197	1.000000	0.434945	7.36697e+06	-48489.1	955.819	-29762.1	0.000000	0.000000	6.434916	0.061349	NaN	0.000000	0.001615	0.001780	28.0767	0.100233	0.001925	52.078	-24.5086	-162.121	0.057306	0.433646	-1.289246	-1.290545	0.061349	52.078	-1.290129	-1.763922E+17	-3.478010E-19	NaN
197	1.000000	0.446922	7.36697e+06	-48489.1	955.818	-29762.1	0.000000	0.000000	6.446892	0.026848	NaN	0.000000	0.001603	0.001780	28.0765	0.030729	0.001983	15.4976	56.2043	-165.078	-0.025968	0.445699	-1.277269	-1.278491	0.026848	15.4976	-1.278568	-1.235781E+17	-2.172574E-19	NaN
197	1.000000	0.458962	7.36697e+06	-48489.1	955.819	-29762.1	0.000000	0.000000	6.458931	-0.005351	NaN	0.000000	0.001609	0.001751	28.0766	0.158390	0.002101	75.37	-9.768712	-165.049	-0.048390	0.457700	-1.265228	-1.266490	-0.005351	75.37	-1.265175	-8.182257E+16	6.539499E-20	NaN
197	1.000000	0.470938	7.36697e+06	-48489.1	955.818	-29762.1	0.000000	0.000000	6.470907	-0.005482	NaN	0.000000	0.001618	0.001742	28.0766	0.023963	0.001977	12.1201	16.4539	-164.902	-0.063459	0.469651	-1.253252	-1.254539	-0.005482	12.1201	-1.252913	-5.608963E+16	9.772995E-20	NaN
197	1.000000	0.482967	7.36697e+06	-48489.1	955.819	-29762.1	0.000000	0.000000	6.482936	0.000254	NaN	0.000000	0.001563	0.001715	28.0777	0.053433	0.002123	25.1629	112.878	-165.217	-0.101673	0.481665	-1.241223	-1.242525	0.000254	25.1629	-1.241231	-3.913900E+16	-6.491386E-21	NaN
197	1.000000	0.494976	7.36697e+06	-48489.1	955.819	-29762.1	0.000000	0.000000	6.494946	0.019698	NaN	0.000000	0.001579	0.001788	28.078	0.174431	0.001852	94.1693	99.4827	-165.054	0.053576	0.493588	-1.229214	-1.230602	0.019698	94.1693	-1.229371	-2.715942E+16	-7.252641E-19	NaN
197	1.000000	0.506999	7.36697e+06	-48489.1	955.818	-29762.1	0.000000	0.000000	6.506965	-0.081706	NaN	0.000000	0.001561	0.001772	28.078	0.105358	0.001938	54.374	-110.598	-162.84	-0.089404	0.505662	-1.217191	-1.218529	-0.081706	54.374	-1.216064	-1.802271E+16	4.533487E-18	NaN
197	1.000000	0.518980	7.36697e+06	-48489.1	955.818	-29762.1	0.000000	0.000000	6.518946	-0.083307	NaN	0.000000	0.001573	0.001739	28.078	0.053135	0.001952	27.2216	74.9617	-167.274	-0.106798	0.517663	-1.205210	-1.206528	-0.083307	27.2216	-1.202915	-1.201667E+16	6.932644E-18	NaN
197	1.000000	0.530967	7.36697e+06	-48489.1	955.819	-29762.1	0.000000	0.000000	6.530934	-0.036247	NaN	0.000000	0.001584	0.001740	28.0778	0.060077	0.001930	31.1319	147.965	-163.739	-0.016230	0.529650	-1.193224	-1.194540	-0.036247	31.1319	-1.192351	-8.675762E+15	4.177979E-18	NaN
197	1.000000	0.543005	7.36697e+06	-48489.1	955.818	-29762.1	0.000000	0.000000	6.542971	-0.060894	NaN	0.000000	0.001634	0.001758	28.0778	0.047267	0.002050	23.0567	104.853	-165.473	-0.115803	0.541723	-1.181186	-1.182468	-0.060894	23.0567	-1.179205	-5.783918E+15	1.052820E-17	NaN
197	1.000000	0.555022	7.36697e+06	-48489.1	955.818	-29762.1	0.000000	0.000000	6.554991	-0.004663	NaN	0.000000	0.001626	0.001731	28.0777	0.137986	0.001855	74.383	-31.7112	-165.013	0.024452	0.553732	-1.169169	-1.170458	-0.004663	74.383	-1.169122	-4.237575E+15	1.100412E-18	NaN
197	1.000000	0.567009	7.36697e+06	-48489.1	955.818	-29762.1	0.000000	0.000000	6.566977	-0.020667	NaN	0.000000	0.001619	0.001769	28.0776	0.034271	0.002067	16.5834	134.715	-164.842	0.010997	0.565745	-1.157182	-1.158445	-0.020667	16.5834	-1.156247	-2.848151E+15	7.256443E-18	NaN
197	1.000000	0.578977	7.36697e+06	-48489.1	955.818	-29762.1	0.000000	0.000000	6.578943	-0.074812	NaN	0.000000	0.001630	0.001766	28.0778	0.048856	0.001977	24.7085	13.7393	-161.548	-0.084122	0.577685	-1.145214	-1.146506	-0.074812	24.7085	-1.142943	-1.888869E+15	3.960694E-17	NaN
197	1.000000	0.591012	7.36697e+06	-48489.1	955.818	-29762.1	0.000000	0.000000	6.590982	0.030716	NaN	0.000000	0.001668	0.001730	28.078	0.075042	0.002118	35.432	-117.802	-162.986	0.023478	0.589699	-1.133179	-1.134492	0.030716	35.432	-1.133829	-1.425541E+15	-2.154692E-17	NaN
197	1.000000	0.602994	7.36697e+06	-48489.1	955.818	-29762.1	0.000000	0.000000	6.602962	-0.041440	NaN	0.000000	0.001676	0.001720	28.078	0.057673	0.001998	28.8722	100.383	-165.322	-0.023909	0.601694	-1.121196	-1.122497	-0.041440	28.8722	-1.120120	-9.334240E+14	4.439560E-17	NaN
197	1.000000	0.615029	7.36697e+06	-48489.1	955.818	-29762.1	0.000000	0.000000	6.614996	-0.058882	NaN	0.000000	0.001689	0.001751	28.0766	0.068168	0.001988	34.287	-87.2271	-164.769	-0.075132	0.613779	-1.109161	-1.110411	-0.058882	34.287	-1.107873	-6.393579E+14	9.209600E-17	NaN
197	1.000000	0.627026	7.36697e+06	-48489.1	955.818	-29762.1	0.000000	0.000000	6.626995	0.007417	NaN	0.000000	0.001712	0.001747	28.0764	0.035736	0.001958	18.2527	-72.2362	-161.094	0.073740	0.625687	-1.097165	-1.098503	0.007417	18.2527	-1.097469	-4.635501E+14	-1.600128E-17	NaN
197	1.000000	0.639044	7.36697e+06	-48489.1	955.818	-29762.1	0.000000	0.000000	6.639014	0.029676	NaN	0.000000	0.001681	0.001740	28.0766	0.019824	0.001989	9.968521	-53.8844	-160.112	0.042392	0.637682	-1.085147	-1.086508	0.029676	9.968521	-1.087380	-3.393332E+14	-8.745487E-17	NaN
197	1.000000	0.651012	7.36697e+06	-48489.1	955.818	-29762.1	0.000000	0.000000	6.650980	-0.019494	NaN	0.000000	0.001679	0.001736	28.0769	0.049383	0.002086	23.6762	117.376	-164.496	0.012818	0.649706	-1.073179	-1.074485	-0.019494	23.6762	-1.072561	-2.145848E+14	9.084661E-17	NaN
197	1.000000	0.663032	7.36697e+06	-48489.1	955.818	-29762.1	0.000000	0.000000	6.662999	-0.028807	NaN	0.000000	0.001649	0.001731	28.0767	0.056018	0.002046	27.3775	-63.1591	-164.76	-0.132063	0.661723	-1.061159	-1.062468	-0.028807	27.3775	-1.060370	-1.471605E+14	1.957536E-16	NaN
197	1.000000	0.675047	7.36697e+06	-48489.1	955.818	-29762.1	0.000000	0.000000	6.675016	0.003070	NaN	0.000000	0.001682	0.001717	28.0767	0.040209	0.002044	19.6724	89.4376	-163.549	0.063866	0.673739	-1.049144	-1.050452	0.003070	19.6724	-1.049261	-1.043458E+14	-2.941701E-17	NaN
197	1.000000	0.687068	7.36697e+06	-48489.1	955.819	-29762.1	0.000000	0.000000	6.687038	0.020499	NaN	0.000000	0.001666	0.001729	28.0768	0.071162	0.002076	34.2786	-148.517	-162.623	-0.037314	0.685789	-1.037122	-1.038401	0.020499	34.2786	-1.037571	-7.266114E+13	-2.821183E-16	NaN
197	1.000000	0.699047	7.36697e+06	-48489.1	955.819	-29762.1	0.000000	0.000000	6.699015	-0.027888	NaN	0.000000	0.001623	0.001742	28.0769	0.057811	0.002080	27.7875	62.9921	-164.745	0.031265	0.697732	-1.025144	-1.026459	-0.027888	27.7875	-1.024391	-4.830924E+13	5.772859E-16	NaN
197	1.000000	0.711052	7.36697e+06	-48489.1	955.819	-29762.1	0.000000	0.000000	6.711023	0.046741	NaN	0.000000	0.001591	0.001785	28.0767	0.082451	0.001951	42.2532	66.7606	-163.08	0.014289	0.709720	-1.013139	-1.014471	0.046741	42.2532	-1.013968	-3.497746E+13	-1.336316E-15	NaN
197	1.000000	0.723064	7.36697e+06	-48489.1	955.819	-29762.1	0.000000	0.000000	6.723031	-0.066282	NaN	0.000000	0.001639	0.001744	28.0767	0.059078	0.001945	30.3794	143.899	-162.434	-0.028010	0.721787	-1.001126	-1.002404	-0.066282	30.3794	-0.999490	-2.233053E+13	2.968220E-15	NaN
197	1.000000	0.735057	7.36697e+06	-48489.1	955.818	-29762.1	0.000000	0.000000	6.735026	-0.007712	NaN	0.000000	0.001625	0.001744	28.0768	0.126201	0.002037	61.9444	74.3446	-169.028	0.055227	0.733752	-0.989133	-0.990439	-0.007712	61.9444	-0.989040	-1.615028E+13	4.775378E-16	NaN
197	1.000000	0.747027	7.36697e+06	-48489.1	955.818	-29762.1	0.000000	0.000000	6.746995	-0.026261	NaN	0.000000	0.001631	0.001771	28.0769	0.070906	0.002038	34.8	133.339	-165.005	-0.003887	0.745741	-0.977163	-0.978450	-0.026261	34.8	-0.976597	-1.097906E+13	2.391913E-15	NaN
197	1.000000	0.759073	7.36697e+06	-48489.1	955.819	-29762.1	0.000000	0.000000	6.759043	0.017651	NaN	0.000000	0.001562	0.001779	28.078	0.063741	0.002029	31.4196	69.2241	-163.561	0.080374	0.757871	-0.965117	-0.966320	0.017651	31.4196	-0.965539	-7.789931E+12	-2.265821E-15	NaN
197	1.000000	0.771073	7.36697e+06	-48489.1	955.818	-29762.1	0.000000	0.000000	6.771043	0.008449	NaN	0.000000	0.001577	0.001758	28.0779	0.050203	0.002043	24.5695	-121.388	-163.08	0.022184	0.769806	-0.953117	-0.954384	0.008449	24.5695	-0.953375	-5.340039E+12	-1.582250E-15	NaN
197	1.000000	0.783106	7.36697e+06	-48489.1	955.817	-29762.1	0.000000	0.000000	6.783075	-0.002208	NaN	0.000000	0.001611	0.001754	28.0779	0.053381	0.001948	27.4055	142.713	-164.611	0.046118	0.781754	-0.941084	-0.942436	-0.002208	27.4055	-0.941024	-3.638743E+12	6.068928E-16	NaN
197	1.000000	0.795083	7.36697e+06	-48489.1	955.817	-29762.1	0.000000	0.000000	6.795050	-0.035305	NaN	0.000000	0.001612	0.001760	28.0781	0.111853	0.002133	52.4326	113.707	-164.345	-0.013557	0.793815	-0.929108	-0.930375	-0.035305	52.4326	-0.928603	-2.473648E+12	1.427263E-14	NaN
197	1.000000	0.807096	7.36697e+06	-48489.1	955.819	-29762.1	0.000000	0.000000	6.807064	-0.007906	NaN	0.000000	0.001617	0.001759	28.0782	0.042649	0.001930	22.1011	53.5901	-165.304	-0.044927	0.805764	-0.917095	-0.918426	-0.007906	22.1011	-0.916827	-1.715368E+12	4.609188E-15	NaN
197	1.000000	0.819093	7.36697e+06	-48489.1	955.819	-29762.1	0.000000	0.000000	6.819064	0.040434	NaN	0.000000	0.001622	0.001744	28.0779	0.107274	0.002008	53.4259	-90.7297	-167.347	-0.012918	0.817796	-0.905098	-0.906395	0.040434	53.4259	-0.905665	-1.212291E+12	-3.335316E-14	NaN
197	1.000000	0.831124	7.36697e+06	-48489.1	955.818	-29762.1	0.000000	0.000000	6.831095	0.047021	NaN	0.000000	0.001691	0.001769	28.0779	0.076877	0.001928	39.8709	100.348	-168.284	-0.013916	0.829821	-0.893066	-0.894370	0.047021	39.8709	-0.893951	-8.420125E+11	-5.584342E-14	NaN
197	1.000000	0.843124	7.36697e+06	-48489.1	955.819	-29762.1	0.000000	0.000000	6.843091	-0.037911	NaN	0.000000	0.001623	0.001787	28.078	0.072784	0.002084	34.9199	-6.734487	-163.781	-0.094362	0.841836	-0.881067	-0.882355	-0.037911	34.9199	-0.880252	-5.496948E+11	6.896694E-14	NaN
197	1.000000	0.855112	7.36697e+06	-48489.1	955.818	-29762.1	0.000000	0.000000	6.855080	-0.015275	NaN	0.000000	0.001624	0.001782	28.0778	0.026851	0.002040	13.1633	172.088	-165.078	-0.033546	0.853826	-0.869079	-0.870365	-0.015275	13.1633	-0.868209	-3.777518E+11	4.043666E-14	NaN
197	1.000000	0.867120	7.36697e+06	-48489.1	955.818	-29762.1	0.000000	0.000000	6.867090	0.023983	NaN	0.000000	0.001659	0.001786	28.0776	0.083703	0.002059	40.6565	-168.146	-161.588	0.027658	0.865786	-0.857071	-0.858404	0.023983	40.6565	-0.857513	-2.706831E+11	-8.860158E-14	NaN
197	1.000000	0.879132	7.36697e+06	-48489.1	955.818	-29762.1	0.000000	0.000000	6.879099	-0.036895	NaN	0.000000	0.001605	0.001742	28.0781	0.038734	0.001963	19.7336	-30.261	-164.105	-0.079965	0.877788	-0.845059	-0.846403	-0.036895	19.7336	-0.843656	-1.757208E+11	2.099611E-13	NaN
197	1.000000	0.891144	7.36697e+06	-48489.1	955.819	-29762.1	0.000000	0.000000	6.891115	0.041385	NaN	0.000000	0.001578	0.001789	28.0769	0.057377	0.001927	29.7768	-29.9411	-162.671	-0.050941	0.889804	-0.833047	-0.834386	0.041385	29.7768	-0.834089	-1.303769E+11	-3.174264E-13	NaN
197	1.000000	0.903154	7.36697e+06	-48489.1	955.819	-29762.1	0.000000	0.000000	6.903123	0.001174	NaN	0.000000	0.001548	0.001769	28.077	0.105099	0.001912	54.9576	-173.946	-161.397	0.066853	0.901804	-0.821036	-0.822386	0.001174	54.9576	-0.821052	-8.679177E+10	-1.352674E-14	NaN
197	1.000000	0.915137	7.36697e+06	-48489.1	955.819	-29762.1	0.000000	0.000000	6.915107	0.022740	NaN	0.000000	0.001590	0.001795	28.0766	0.023000	0.002011	11.4376	147.529	-162.039	0.054531	0.913852	-0.809053	-0.810339	0.022740	11.4376	-0.810545	-6.251140E+10	-3.637780E-13	NaN
197	1.000000	0.927163	7.36697e+06	-48489.1	955.818	-29762.1	0.000000	0.000000	6.927134	0.044112	NaN	0.000000	0.001599	0.001738	28.0767	0.087325	0.001913	45.6593	178.693	-166.674	0.025603	0.925817	-0.797028	-0.798374	0.044112	45.6593	-0.797752	-4.191300E+10	-1.052473E-12	NaN
197	1.000000	0.939162	7.36697e+06	-48489.1	955.817	-29762.1	0.000000	0.000000	6.939129	-0.054603	NaN	0.000000	0.001568	0.001791	28.0769	0.047077	0.001991	23.647	-48.9937	-162.206	-0.022831	0.937860	-0.785028	-0.786330	-0.054603	23.647	-0.783296	-2.667000E+10	2.047343E-12	NaN
197	1.000000	0.951142	7.36697e+06	-48489.1	955.818	-29762.1	0.000000	0.000000	6.951112	0.008050	NaN	0.000000	0.001566	0.001776	28.0769	0.066247	0.002084	31.785	73.4678	-159.795	-0.072702	0.949864	-0.773048	-0.774327	0.008050	31.785	-0.773238	-1.946832E+10	-4.134811E-13	NaN
197	1.000000	0.963174	7.36697e+06	-48489.1	955.818	-29762.1	0.000000	0.000000	6.963146	0.058964	NaN	0.000000	0.001585	0.001767	28.0767	0.057098	0.002021	28.2583	-90.2904	-164.429	0.068965	0.961863	-0.761016	-0.762327	0.058964	28.2583	-0.762581	-1.394482E+10	-4.228379E-12	NaN
197	1.000000	0.975190	7.36697e+06	-48489.1	955.818	-29762.1	0.000000	0.000000	6.975157	-0.062854	NaN	0.000000	0.001580	0.001769	28.0768	0.083071	0.002021	41.1011	-96.3381	-166.502	-0.065218	0.973832	-0.749000	-0.750359	-0.062854	41.1011	-0.747853	-8.790188E+9	7.150483E-12	NaN
197	1.000000	0.987182	7.36697e+06	-48489.1	955.817	-29762.1	0.000000	0.000000	6.987151	0.004337	NaN	0.000000	0.001584	0.001785	28.0767	0.060935	0.002064	29.517	93.4933	-164.957	-0.011736	0.985919	-0.737009	-0.738272	0.004337	29.517	-0.737119	-6.277909E+9	-6.908710E-13	NaN
197	1.000000	0.999172	7.36697e+06	-48489.1	955.817	-29762.1	0.000000	0.000000	6.999141	0.017452	NaN	0.000000	0.001571	0.001778	28.0778	0.018901	0.001950	9.693027	130.156	-165.14	0.038612	0.997848	-0.725019	-0.726343	0.017452	9.693027	-0.726369	-4.480410E+9	-3.895167E-12	NaN
197	1.000000	1.011192	7.36697e+06	-48489.1	955.818	-29762.1	0.000000	0.000000	7.011162	0.029699	NaN	0.000000	0.001560	0.001774	28.0768	0.058079	0.002010	28.901	31.1488	-164.018	0.060915	1.009870	-0.712998	-0.714321	0.029699	28.901	-0.713769	-3.016335E+9	-9.846096E-12	NaN
197	1.000000	1.023210	7.36697e+06	-48489.1	955.819	-29762.1	0.000000	0.000000	7.023178	-0.012499	NaN	0.000000	0.001584	0.001784	28.0774	0.037976	0.001947	19.5059	-72.6728	-166.632	0.077079	1.021899	-0.700981	-0.702291	-0.012499	19.5059	-0.700500	-1.987759E+9	6.288059E-12	NaN
197	1.000000	1.035198	7.36697e+06	-48489.1	955.818	-29762.1	0.000000	0.000000	7.035169	0.034465	NaN	0.000000	0.001570	0.001808	28.078	0.059299	0.001810	32.7642	-56.1173	-161.908	0.060592	1.033862	-0.688992	-0.690328	0.034465	32.7642	-0.689781	-1.418812E+9	-2.429153E-11	NaN
197	1.000000	1.047194	7.36697e+06	-48489.1	955.818	-29762.1	0.000000	0.000000	7.047162	-0.016717	NaN	0.000000	0.001620	0.001804	28.0778	0.084877	0.002119	40.0472	-7.478497	-165.862	0.048377	1.045837	-0.676997	-0.678354	-0.016717	40.0472	-0.676684	-9.393846E+8	1.779593E-11	NaN
197	1.000000	1.059178	7.36697e+06	-48489.1	955.819	-29762.1	0.000000	0.000000	7.059147	-0.002975	NaN	0.000000	0.001616	0.001789	28.0776	0.083657	0.002098	39.8669	-1.447550	-163.778	0.012448	1.057930	-0.665012	-0.666260	-0.002975	39.8669	-0.664956	-6.491495E+8	4.582556E-12	NaN
197	1.000000	1.071235	7.36698e+06	-48489.1	955.818	-29762.1	0.000000	0.000000	7.071204	0.020601	NaN	0.000000	0.001589	0.001735	28.0775	0.035893	0.001899	18.9019	-94.7305	-165.815	-0.003937	1.069893	-0.652956	-0.654298	0.020601	18.9019	-0.653773	-4.562015E+8	-4.515755E-11	NaN
197	1.000000	1.083190	7.36698e+06	-48489.1	955.819	-29762.1	0.000000	0.000000	7.083159	-0.000545	NaN	0.000000	0.001584	0.001765	28.0778	0.095951	0.001921	49.9434	-47.1535	-165.073	-0.008943	1.081855	-0.641000	-0.642336	-0.000545	49.9434	-0.640992	-3.047199E+8	1.788650E-12	NaN
197	1.000000	1.095211	7.36698e+06	-48489.1	955.819	-29762.1	0.000000	0.000000	7.095179	-0.006461	NaN	0.000000	0.001531	0.001718	28.078	0.047377	0.002109	22.4601	-95.0333	-166.261	-0.001491	1.093907	-0.628980	-0.630283	-0.006461	22.4601	-0.628764	-2.070391E+8	3.120676E-11	NaN
197	1.000000	1.107186	7.36698e+06	-48489.1	955.819	-29762.1	0.000000	0.000000	7.107156	0.010037	NaN	0.000000	0.001549	0.001746	28.0777	0.101965	0.002025	50.3615	-120.907	-164.682	-0.034160	1.105953	-0.617004	-0.618237	0.010037	50.3615	-0.617154	-1.433860E+8	-7.000103E-11	NaN
197	1.000000	1.119222	7.36698e+06	-48489.1	955.819	-29762.1	0.000000	0.000000	7.119191	0.010231	NaN	0.000000	0.001597	0.001741	28.0777	0.031756	0.001929	16.4607	-141.011	-167.813	-0.006868	1.117924	-0.604969	-0.606267	0.010231	16.4607	-0.605435	-9.892132E+7	-1.034218E-10	NaN
197	1.000000	1.131243	7.36698e+06	-48489.1	955.819	-29762.1	0.000000	0.000000	7.131212	-0.009192	NaN	0.000000	0.001561	0.001755	28.0778	0.086675	0.002008	43.1715	120.261	-165.923	-0.006016	1.129914	-0.592947	-0.594277	-0.009192	43.1715	-0.592788	-6.623553E+7	1.387842E-10	NaN
197	1.000000	1.143234	7.36698e+06	-48489.1	955.818	-29762.1	0.000000	0.000000	7.143201	-0.035625	NaN	0.000000	0.001603	0.001760	28.0778	0.081133	0.001969	41.2148	-57.9466	-169.558	-0.013029	1.141941	-0.580957	-0.582249	-0.035625	41.2148	-0.580308	-4.456364E+7	7.994166E-10	NaN
197	1.000000	1.155228	7.36698e+06	-48489.1	955.819	-29762.1	0.000000	0.000000	7.155197	-0.009454	NaN	0.000000	0.001548	0.001744	28.0778	0.073103	0.001904	38.3939	18.6951	-165.562	-0.037578	1.153972	-0.568962	-0.570219	-0.009454	38.3939	-0.568777	-3.088437E+7	3.061059E-10	NaN
197	1.000000	1.167264	7.36698e+06	-48489.1	955.819	-29762.1	0.000000	0.000000	7.167235	0.040140	NaN	0.000000	0.001593	0.001694	28.0766	0.084641	0.002254	37.5511	158.628	-165.454	0.139158	1.165941	-0.556926	-0.558250	0.040140	37.5511	-0.557728	-2.172410E+7	-1.847722E-9	NaN
197	1.000000	1.179248	7.36698e+06	-48489.1	955.818	-29762.1	0.000000	0.000000	7.179219	0.034346	NaN	0.000000	0.001550	0.001715	28.0766	0.038769	0.001993	19.4548	-179.305	-164.048	0.055059	1.177977	-0.544942	-0.546213	0.034346	19.4548	-0.546266	-1.507409E+7	-2.278495E-9	NaN
197	1.000000	1.191233	7.36698e+06	-48489.1	955.819	-29762.1	0.000000	0.000000	7.191201	-0.015734	NaN	0.000000	0.001539	0.001674	28.0768	0.102435	0.002010	50.9714	-80.6431	-161.896	-0.029020	1.189930	-0.532958	-0.534261	-0.015734	50.9714	-0.532726	-9.7821e+06	1.608399E-9	NaN
197	1.000000	1.203288	7.36698e+06	-48489.1	955.818	-29762.1	0.000000	0.000000	7.203262	0.108889	NaN	0.000000	0.001550	0.001722	28.0766	0.046912	0.002017	23.2599	26.4378	-166.686	-0.026802	1.201938	-0.520902	-0.522253	0.108889	23.2599	-0.524414	-7.49826e+06	-1.452192E-8	NaN
197	1.000000	1.215277	7.36698e+06	-48489.1	955.818	-29762.1	0.000000	0.000000	7.215244	-0.032634	NaN	0.000000	0.001551	0.001716	28.0766	0.015235	0.001982	7.685635	-15.1835	-165.279	0.005648	1.213964	-0.508914	-0.510227	-0.032634	7.685635	-0.505729	-4.12011e+06	7.920574E-9	NaN
197	1.000000	1.227268	7.36698e+06	-48489.1	955.82	-29762.1	0.000000	0.000000	7.227237	0.000489	NaN	0.000000	0.001546	0.001710	28.0767	0.078008	0.002026	38.4955	155.161	-164.273	-0.030917	1.225990	-0.496922	-0.498201	0.000489	38.4955	-0.496932	-3.10602e+06	-1.572945E-10	NaN
197	1.000000	1.239281	7.36698e+06	-48489.1	955.819	-29762.1	0.000000	0.000000	7.239248	-0.042913	NaN	0.000000	0.001567	0.001735	28.0766	0.035433	0.002034	17.4203	-158.697	-169.462	-0.031007	1.237983	-0.484910	-0.486207	-0.042913	17.4203	-0.483062	-1.98785e+06	2.158786E-8	NaN
197	1.000000	1.251287	7.36698e+06	-48489.1	955.819	-29762.1	0.000000	0.000000	7.251255	-0.013864	NaN	0.000000	0.001557	0.001730	28.0768	0.065286	0.002056	31.7606	-34.4727	-164.788	-0.045272	1.250002	-0.472904	-0.474189	-0.013864	31.7606	-0.472577	-1.41754e+06	9.780112E-9	NaN
197	1.000000	1.263308	7.36698e+06	-48489.1	955.819	-29762.1	0.000000	0.000000	7.263280	0.074002	NaN	0.000000	0.001547	0.001711	28.0766	0.092446	0.002053	45.0227	-162.617	-162.68	0.088862	1.261950	-0.460883	-0.462240	0.074002	45.0227	-0.462116	-1.01098e+06	-7.319799E-8	NaN
197	1.000000	1.275319	7.36698e+06	-48489.1	955.819	-29762.1	0.000000	0.000000	7.275288	-0.001584	NaN	0.000000	0.001586	0.001774	28.0768	0.097996	0.001993	49.1623	-35.807	-166.354	-0.011273	1.273992	-0.448871	-0.450198	-0.001584	49.1623	-0.448847	-657815	2.407323E-9	NaN
197	1.000000	1.287293	7.36698e+06	-48489.1	955.819	-29762	0.000000	0.000000	7.287262	-0.003854	NaN	0.000000	0.001587	0.001738	28.077	0.034122	0.001927	17.7073	170.281	-165.935	0.014102	1.285995	-0.436898	-0.438196	-0.003854	17.7073	-0.436735	-443874	8.681723E-9	NaN
197	1.000000	1.299332	7.36698e+06	-48489.1	955.82	-29762	0.000000	0.000000	7.299301	-0.002039	NaN	0.000000	0.001549	0.001789	28.0781	0.070604	0.002044	34.5482	-56.3065	-164.653	0.058203	1.298015	-0.424859	-0.426176	-0.002039	34.5482	-0.424815	-301062	6.774213E-9	NaN
197	1.000000	1.311319	7.36698e+06	-48489.1	955.819	-29762	0.000000	0.000000	7.311288	0.014995	NaN	0.000000	0.001534	0.001761	28.0781	0.048795	0.001947	25.0639	151.546	-165.027	0.055557	1.309992	-0.412872	-0.414198	0.014995	25.0639	-0.413321	-206824	-7.250279E-8	NaN
197	1.000000	1.323320	7.36698e+06	-48489.1	955.82	-29762	0.000000	0.000000	7.323290	0.011650	NaN	0.000000	0.001565	0.001752	28.0782	0.059072	0.002024	29.1814	163.727	-163.412	0.053601	1.322030	-0.400870	-0.402161	0.011650	29.1814	-0.401170	-138891	-8.387725E-8	NaN
197	1.000000	1.335373	7.36698e+06	-48489.1	955.819	-29762	0.000000	0.000000	7.335342	-0.017524	NaN	0.000000	0.001579	0.001752	28.078	0.091372	0.001958	46.6751	-25.1835	-163.243	-0.033165	1.333944	-0.388817	-0.390246	-0.017524	46.6751	-0.388535	-91666.9	1.911752E-7	NaN
197	1.000000	1.347330	7.36698e+06	-48489.1	955.818	-29762	0.000000	0.000000	7.347300	0.025607	NaN	0.000000	0.001547	0.001747	28.0783	0.105264	0.002055	51.2234	-16.8557	-165.147	-0.006687	1.346019	-0.376861	-0.378172	0.025607	51.2234	-0.377236	-63124.7	-4.056560E-7	NaN
197	1.000000	1.359342	7.36698e+06	-48489.1	955.819	-29762	0.000000	0.000000	7.359310	-0.008288	NaN	0.000000	0.001560	0.001766	28.078	0.055425	0.002024	27.3829	-135.843	-165.246	-0.057170	1.358049	-0.364849	-0.366142	-0.008288	27.3829	-0.364622	-41552.8	1.994656E-7	NaN
197	1.000000	1.371340	7.36698e+06	-48489.1	955.818	-29762	0.000000	0.000000	7.371311	0.052691	NaN	0.000000	0.001542	0.001788	28.0782	0.064241	0.002041	31.4802	-32.983	-164.734	-0.002060	1.370051	-0.352851	-0.354139	0.052691	31.4802	-0.354106	-29278.2	-1.799685E-6	NaN
197	1.000000	1.383355	7.36698e+06	-48489.1	955.819	-29762	0.000000	0.000000	7.383323	-0.029546	NaN	0.000000	0.001569	0.001760	28.0783	0.049948	0.001963	25.4482	115.5	-164.308	-0.054500	1.382008	-0.340836	-0.342183	-0.029546	25.4482	-0.339965	-18240.7	1.619777E-6	NaN
197	1.000000	1.395366	7.36698e+06	-48489.1	955.819	-29762	0.000000	0.000000	7.395331	-0.087710	NaN	0.000000	0.001513	0.001807	28.0782	0.028494	0.001940	14.6912	57.0948	-162.298	-0.073549	1.394063	-0.328824	-0.330128	-0.087710	14.6912	-0.324347	-10778.2	8.137752E-6	NaN
197	1.000000	1.407342	7.36698e+06	-48489.1	955.819	-29762	0.000000	0.000000	7.407310	-0.022458	NaN	0.000000	0.001507	0.001768	28.0783	0.069318	0.001965	35.2674	-128.45	-164.372	-0.047462	1.406021	-0.316849	-0.318169	-0.022458	35.2674	-0.316371	-8225.79	2.730250E-6	NaN
197	1.000000	1.419357	7.36698e+06	-48489.1	955.82	-29762	0.000000	0.000000	7.419324	-0.050783	NaN	0.000000	0.001511	0.001767	28.078	0.064421	0.001972	32.6691	109.819	-163.192	0.031620	1.418077	-0.304834	-0.306113	-0.050783	32.6691	-0.303668	-5335.54	9.517884E-6	NaN
197	1.000000	1.431339	7.36698e+06	-48489.1	955.821	-29762	0.000000	0.000000	7.431308	-0.005324	NaN	0.000000	0.001523	0.001799	28.0778	0.032626	0.002095	15.5765	-9.421936	-166.634	-1.868425E-5	1.430050	-0.292852	-0.294141	-0.005324	15.5765	-0.292595	-3648.82	1.459062E-6	NaN
197	1.000000	1.443378	7.36698e+06	-48489.1	955.82	-29762	0.000000	0.000000	7.443346	-0.016451	NaN	0.000000	0.001524	0.001765	28.0772	0.102340	0.001987	51.4943	-135.708	-163.026	-0.022799	1.442029	-0.280813	-0.282162	-0.016451	51.4943	-0.280573	-2407.77	6.832391E-6	NaN
197	1.000000	1.455368	7.36698e+06	-48489.1	955.821	-29762	0.000000	0.000000	7.455336	-0.025463	NaN	0.000000	0.001558	0.001784	28.0769	0.141782	0.001963	72.2446	-24.0919	-162.875	-0.036819	1.454067	-0.268823	-0.270124	-0.025463	72.2446	-0.268558	-1583.49	1.608000E-5	NaN
197	1.000000	1.467370	7.36698e+06	-48489.1	955.82	-29762	0.000000	0.000000	7.467339	0.015563	NaN	0.000000	0.001531	0.001799	28.0769	0.013901	0.001965	7.073373	136.331	-162.914	0.041516	1.466086	-0.256821	-0.258105	0.015563	7.073373	-0.258471	-1110.37	-1.401641E-5	NaN
197	1.000000	1.479414	7.36698e+06	-48489.1	955.819	-29762	0.000000	0.000000	7.479379	-0.108513	NaN	0.000000	0.001526	0.001782	28.077	0.015541	0.001938	8.019531	153.948	-165.62	-0.015391	1.478063	-0.244776	-0.246127	-0.108513	8.019531	-0.234628	-473.596	0.000229	NaN
197	1.000000	1.491373	7.36698e+06	-48489.1	955.819	-29762	0.000000	0.000000	7.491343	0.017034	NaN	0.000000	0.001558	0.001761	28.077	0.033834	0.001788	18.926	15.5503	-163.215	0.033858	1.490057	-0.232817	-0.234133	0.017034	18.926	-0.233492	-454.519	-3.747748E-5	NaN
197	1.000000	1.503418	7.36698e+06	-48489.1	955.819	-29762	0.000000	0.000000	7.503386	-0.021980	NaN	0.000000	0.001609	0.001785	28.077	0.054532	0.001933	28.2041	-30.7302	-165.079	-0.015217	1.502083	-0.220772	-0.222108	-0.021980	28.2041	-0.220188	-279.69	7.858821E-5	NaN
197	1.000000	1.515400	7.36698e+06	-48489.1	955.82	-29762	0.000000	0.000000	7.515367	-0.045196	NaN	0.000000	0.001595	0.001795	28.0768	0.070164	0.001920	36.5382	-133.081	-165.045	-0.084725	1.514044	-0.208791	-0.210147	-0.045196	36.5382	-0.207863	-177.075	0.000255	NaN
197	1.000000	1.527383	7.36698e+06	-48489.1	955.819	-29762	0.000000	0.000000	7.527353	0.038395	NaN	0.000000	0.001600	0.001811	28.0768	0.088902	0.001862	47.7547	-113.416	-167.365	0.060411	1.526126	-0.196808	-0.198064	0.038395	47.7547	-0.197411	-119.415	-0.000322	NaN
197	1.000000	1.539377	7.36698e+06	-48489.1	955.819	-29762	0.000000	0.000000	7.539346	0.000805	NaN	0.000000	0.001575	0.001785	28.0766	0.007352	0.002047	3.591172	160.361	-162.398	0.000421	1.538048	-0.184813	-0.186142	0.000805	3.591172	-0.184981	-74.0996	-1.085765E-5	NaN
197	1.000000	1.551410	7.36698e+06	-48489.1	955.82	-29762	0.000000	0.000000	7.551380	0.020576	NaN	0.000000	0.001597	0.001804	28.077	0.061923	0.001987	31.1663	82.2251	-164.943	0.026555	1.550097	-0.172780	-0.174093	0.020576	31.1663	-0.173275	-46.8047	-0.000440	NaN
197	1.000000	1.563413	7.36698e+06	-48489.1	955.82	-29762	0.000000	0.000000	7.563383	0.016177	NaN	0.000000	0.001613	0.001802	28.0767	0.155999	0.002044	76.3086	162.339	-164.133	0.065306	1.562126	-0.160778	-0.162064	0.016177	76.3086	-0.160937	-28.4846	-0.000568	NaN
197	1.000000	1.575422	7.36698e+06	-48489.1	955.819	-29762	0.000000	0.000000	7.575393	0.057796	NaN	0.000000	0.001621	0.001745	28.0781	0.053390	0.001962	27.2177	62.5697	-168.092	-0.011002	1.574111	-0.148769	-0.150080	0.057796	27.2177	-0.150362	-18.3906	-0.003143	NaN
197	1.000000	1.587417	7.36698e+06	-48489.1	955.819	-29762	0.000000	0.000000	7.587385	-0.016407	NaN	0.000000	0.001586	0.001796	28.0781	0.108417	0.001894	57.2495	110.203	-165.284	-0.005529	1.586148	-0.136773	-0.138043	-0.016407	57.2495	-0.136558	-10.1851	0.001611	NaN
197	1.000000	1.599451	7.36698e+06	-48489.1	955.819	-29762	0.000000	0.000000	7.599416	-0.081003	NaN	0.000000	0.001609	0.001782	28.0788	0.046001	0.001962	23.4518	115.801	-165.841	-0.085922	1.598127	-0.124740	-0.126063	-0.081003	23.4518	-0.122149	-5.336728	0.015178	NaN
197	1.000000	1.611450	7.36698e+06	-48489.1	955.819	-29762	0.000000	0.000000	7.611422	0.069918	NaN	0.000000	0.001592	0.001735	28.0782	0.067326	0.001960	34.3489	7.763651	-167.913	0.056514	1.610141	-0.112741	-0.114050	0.069918	34.3489	-0.114267	-3.689563	-0.018950	NaN
197	1.000000	1.623470	7.36698e+06	-48489.1	955.82	-29762	0.000000	0.000000	7.623437	-0.041511	NaN	0.000000	0.001578	0.001740	28.078	0.047378	0.001868	25.3606	-162.286	-162.005	-0.065892	1.622148	-0.100721	-0.102043	-0.041511	25.3606	-0.099493	-1.780415	0.023315	NaN
197	1.000000	1.635447	7.36698e+06	-48489.1	955.819	-29762	0.000000	0.000000	7.635418	0.054123	NaN	0.000000	0.001604	0.001774	28.078	0.033150	0.002080	15.9404	166.553	-166.348	-0.027942	1.634099	-0.088744	-0.090091	0.054123	15.9404	-0.091290	-1.158699	-0.046711	NaN
197	1.000000	1.647447	7.36698e+06	-48489.1	955.818	-29762	0.000000	0.000000	7.647415	-0.018567	NaN	0.000000	0.001613	0.001797	28.0782	0.044486	0.002047	21.7359	-143.995	-166.579	0.039302	1.646141	-0.076744	-0.078050	-0.018567	21.7359	-0.076103	-0.493117	0.037652	NaN
197	1.000000	1.659455	7.36698e+06	-48489.1	955.819	-29762	0.000000	0.000000	7.659427	0.066570	NaN	0.000000	0.001594	0.001800	28.0782	0.041504	0.002034	20.4062	-8.669371	-162.725	0.125787	1.658112	-0.064736	-0.066078	0.066570	20.4062	-0.067182	-0.286193	-0.232607	NaN
197	1.000000	1.671488	7.36698e+06	-48489.1	955.819	-29762	0.000000	0.000000	7.671455	-0.056274	NaN	0.000000	0.001575	0.001762	28.0781	0.091756	0.001924	47.6891	77.1467	-163.07	-0.057463	1.670204	-0.052702	-0.053987	-0.056274	47.6891	-0.051817	-0.103513	0.543639	NaN
197	1.000000	1.683458	7.36698e+06	-48489.1	955.82	-29762	0.000000	0.000000	7.683429	0.049000	NaN	0.000000	0.001577	0.001785	28.0781	0.092688	0.001989	46.5908	178.302	-167.543	0.086171	1.682089	-0.040733	-0.042102	0.049000	46.5908	-0.041522	-0.050312	-0.973909	NaN
197	1.000000	1.695513	7.36698e+06	-48489.1	955.821	-29762	0.000000	0.000000	7.695483	0.027436	NaN	0.000000	0.001557	0.001800	28.0783	0.039928	0.001981	20.1587	14.519	-163.253	-0.028390	1.694168	-0.028677	-0.030023	0.027436	20.1587	-0.029698	-0.022572	-1.215465	NaN
197	1.000000	1.707495	7.36698e+06	-48489.1	955.82	-29762	0.000000	0.000000	7.707465	0.037623	NaN	0.000000	0.001570	0.001783	28.0769	0.057852	0.002026	28.5555	-151.343	-165.809	-0.087888	1.706144	-0.016696	-0.018047	0.037623	28.5555	-0.017684	-0.010953	-3.434797	NaN
197	1.000000	1.719503	7.36698e+06	-48489.1	955.821	-29762	0.000000	0.000000	7.719472	-0.001594	NaN	0.000000	0.001567	0.001800	28.0768	0.138130	0.002115	65.297	-160.257	-165.711	0.076786	1.718205	-0.004687	-0.005986	-0.001594	65.297	-0.004669	-0.003208	0.496906	NaN
197	1.000000	1.731423	7.36698e+06	-48489.1	955.821	-29762	0.000000	0.000000	7.731690	7.260070	NaN	0.000000	0.001580	0.001784	28.0768	6.938826	0.001777	3905.82	6.762136	-168.965	5.753709	1.730157	0.007232	0.005966	7.260070	3905.82	0.005838	0.004911	1478.24	50920
197	2.000000	1.735171	7.36698e+06	-48489.1	955.82	-29762	0.000000	0.000000	7.735642	12.2121	NaN	0.000000	0.001538	0.001756	28.0768	10.3027	0.001757	5865.23	4.596701	-170.602	11.8584	1.734858	0.010980	0.010667	12.2121	5865.23	0.009419	0.008543	1429.52	57977.5
197	2.000000	1.738142	7.36698e+06	-48489.1	955.82	-29762	0.000000	0.000000	7.738725	14.9334	NaN	0.000000	0.001548	0.001770	28.0767	12.853	0.001656	7762.77	3.335227	-170.922	15.517	1.737862	0.013952	0.013671	14.9334	7762.77	0.012509	0.012105	1233.63	64461.8
197	2.000000	1.741106	7.36698e+06	-48489.1	955.819	-29762	0.000000	0.000000	7.741914	20.3899	NaN	0.000000	0.001550	0.001782	28.0766	16.6798	0.001912	8725.77	6.654054	-174.711	20.2464	1.740882	0.016916	0.016691	20.3899	8725.77	0.015163	0.015504	1315.17	64026.6
197	2.000000	1.744124	7.36698e+06	-48489.1	955.82	-29762	0.000000	0.000000	7.745173	26.2496	NaN	0.000000	0.001545	0.001796	28.0768	19.0459	0.001736	10971.1	6.907764	-177.514	27.0809	1.743809	0.019934	0.019618	26.2496	10971.1	0.018139	0.019703	1332.29	71410.4
197	2.000000	1.747079	7.36698e+06	-48489.1	955.821	-29762	0.000000	0.000000	7.748422	33.4237	NaN	0.000000	0.001563	0.001779	28.0768	22.3644	0.001673	13370.6	0.118438	-172.795	32.528	1.746806	0.022888	0.022615	33.4237	13370.6	0.021013	0.024160	1383.44	78592
197	2.000000	1.750079	7.36698e+06	-48489.1	955.821	-29762	0.000000	0.000000	7.751695	40.0596	NaN	0.000000	0.001576	0.001762	28.0777	25.9485	0.001875	13839.1	0.948785	-173.67	37.9306	1.749790	0.025889	0.025599	40.0596	13839.1	0.023718	0.028724	1394.62	74602.9
197	2.000000	1.753098	7.36698e+06	-48489.1	955.82	-29762	0.000000	0.000000	7.755066	48.6071	NaN	0.000000	0.001579	0.001765	28.0781	29.2505	0.001901	15383.6	5.825182	-178.625	49.173	1.752890	0.028908	0.028699	48.6071	15383.6	0.026538	0.033873	1434.98	76366.7
197	2.000000	1.756059	7.36698e+06	-48489.1	955.821	-29762	0.000000	0.000000	7.758419	58.1563	NaN	0.000000	0.001567	0.001785	28.0766	30.9904	0.001910	16229.3	1.730974	-174.109	57.0138	1.755729	0.031868	0.031538	58.1563	16229.3	0.029181	0.039063	1488.79	75022.5
197	2.000000	1.759003	7.36698e+06	-48489.1	955.821	-29762	0.000000	0.000000	7.761750	67.5639	NaN	0.000000	0.001565	0.001815	28.077	32.8882	0.001727	19039.5	-0.671909	-174.512	65.32	1.758801	0.034813	0.034610	67.5639	19039.5	0.032151	0.045320	1490.8	81711.2
197	2.000000	1.762098	7.36698e+06	-48489.1	955.82	-29762	0.000000	0.000000	7.765137	74.6847	NaN	0.000000	0.001586	0.001832	28.0779	36.2085	0.001700	21302.6	2.361070	-178.625	73.9529	1.761731	0.037907	0.037541	74.6847	21302.6	0.035278	0.052395	1425.42	85027.9
197	2.000000	1.765005	7.36698e+06	-48489.1	955.82	-29762	0.000000	0.000000	7.768556	87.1281	NaN	0.000000	0.001561	0.001762	28.0781	38.721	0.001695	22843	1.898002	-178.401	84.9688	1.764687	0.040814	0.040496	87.1281	22843	0.037954	0.058847	1480.59	86032.8
197	2.000000	1.768099	7.36698e+06	-48489.1	955.821	-29762	0.000000	0.000000	7.771955	94.5512	NaN	0.000000	0.001530	0.001769	28.0787	42.7104	0.001886	22650.5	5.539963	177.294	95.2013	1.767753	0.043908	0.043562	94.5512	22650.5	0.040777	0.066053	1431.44	80520.1
197	2.000000	1.771033	7.36698e+06	-48489.1	955.821	-29762	0.000000	0.000000	7.775294	104.388	NaN	0.000000	0.001584	0.001784	28.0781	44.9669	0.001789	25136.3	4.202040	177.906	102.346	1.770714	0.046843	0.046524	104.388	25136.3	0.043728	0.074017	1410.32	84412.9
197	2.000000	1.773996	7.36698e+06	-48489.1	955.821	-29762	0.000000	0.000000	7.778861	119.097	NaN	0.000000	0.001591	0.001815	28.0787	47.3076	0.001891	25014.9	5.839282	177.697	116.573	1.773696	0.049805	0.049505	119.097	25014.9	0.046234	0.081130	1467.98	80238
197	2.000000	1.777087	7.36698e+06	-48489.1	955.82	-29762	0.000000	0.000000	7.782431	130.743	NaN	0.000000	0.001567	0.001771	28.078	49.5856	0.001866	26569.9	8.522893	175.129	131.164	1.776599	0.052896	0.052409	130.743	26569.9	0.049206	0.089973	1453.13	80929.2
197	2.000000	1.779990	7.36698e+06	-48489.1	955.821	-29762	0.000000	0.000000	7.785928	145.181	NaN	0.000000	0.001566	0.001805	28.078	51.8334	0.001784	29056.6	4.001982	177.531	143.266	1.779699	0.055800	0.055508	145.181	29056.6	0.052052	0.098862	1468.52	84431.2
197	2.000000	1.782977	7.36698e+06	-48489.1	955.821	-29762	0.000000	0.000000	7.789308	154.737	NaN	0.000000	0.001563	0.001797	28.0781	54.8173	0.001827	30002.7	1.460895	-179.87	152.78	1.782753	0.058786	0.058562	154.737	30002.7	0.054918	0.108219	1429.85	83326.2
197	2.000000	1.786048	7.36698e+06	-48489.1	955.82	-29762	0.000000	0.000000	7.793122	172.811	NaN	0.000000	0.001535	0.001795	28.078	58.4008	0.001926	30329.3	8.934743	173.24	172.502	1.785648	0.061857	0.061457	172.811	30329.3	0.057584	0.117287	1473.41	80911.7
197	2.000000	1.789068	7.36698e+06	-48489.1	955.822	-29762	0.000000	0.000000	7.796688	186.099	NaN	0.000000	0.001555	0.001783	28.0781	59.7488	0.001688	35404.5	7.954493	172.531	188.493	1.788640	0.064877	0.064449	186.099	35404.5	0.060935	0.129181	1440.6	89997.7
197	2.000000	1.792041	7.36698e+06	-48489.1	955.821	-29762	0.000000	0.000000	7.800345	202.722	NaN	0.000000	0.001571	0.001765	28.0779	63.6724	0.001779	35781.3	8.875584	170.69	204.628	1.791642	0.067850	0.067452	202.722	35781.3	0.063601	0.139037	1458.04	87672.6
197	2.000000	1.794935	7.36698e+06	-48489.1	955.82	-29762	0.000000	0.000000	7.804013	221.549	NaN	0.000000	0.001543	0.001805	28.0768	66.059	0.001744	37875.7	5.091279	174.635	217.386	1.794593	0.070745	0.070403	221.549	37875.7	0.066357	0.149587	1481.07	89471.9
197	2.000000	1.798040	7.36698e+06	-48489.1	955.82	-29762	0.000000	0.000000	7.807816	238.521	NaN	0.000000	0.001552	0.001814	28.0768	68.8727	0.001823	37779.1	3.574749	176.485	240.731	1.797660	0.073849	0.073469	238.521	37779.1	0.069114	0.160503	1486.09	86155.8
197	2.000000	1.800984	7.36698e+06	-48489.1	955.821	-29762	0.000000	0.000000	7.811312	251.932	NaN	0.000000	0.001619	0.001813	28.0768	72.3238	0.001801	40152.4	7.513629	171.098	250.906	1.800707	0.076794	0.076516	251.932	40152.4	0.072088	0.172685	1458.91	88278.9
197	2.000000	1.803946	7.36698e+06	-48489.1	955.822	-29762	0.000000	0.000000	7.815133	272.845	NaN	0.000000	0.001600	0.001840	28.0768	74.3949	0.001867	39856.2	4.596659	174.98	269.21	1.803613	0.079755	0.079422	272.845	39856.2	0.074621	0.183392	1487.77	85031.4
197	2.000000	1.806991	7.36698e+06	-48489.1	955.822	-29762	0.000000	0.000000	7.819062	294.328	NaN	0.000000	0.001587	0.001842	28.0767	76.5797	0.001782	42984.6	4.724122	174.065	292.231	1.806577	0.082801	0.082387	294.328	42984.6	0.077665	0.196660	1496.63	88558
197	2.000000	1.809923	7.36698e+06	-48489.1	955.821	-29762	0.000000	0.000000	7.822615	309.438	NaN	0.000000	0.001600	0.001834	28.0767	79.7232	0.001797	44360.7	2.464977	175.817	304.551	1.809707	0.085732	0.085517	309.438	44360.7	0.080501	0.209408	1477.68	88567.7
197	2.000000	1.812957	7.36698e+06	-48489.1	955.821	-29762	0.000000	0.000000	7.826367	326.909	NaN	0.000000	0.001617	0.001849	28.0771	82.9357	0.001850	44821.2	2.137701	176.329	324.124	1.812720	0.088766	0.088530	326.909	44821.2	0.083296	0.222341	1470.31	86845.3
197	2.000000	1.816085	7.36698e+06	-48489.1	955.82	-29762	0.000000	0.000000	7.830263	345.595	NaN	0.000000	0.001601	0.001847	28.0765	86.0871	0.001917	44913.8	7.017472	172.532	349.222	1.815638	0.091894	0.091448	345.595	44913.8	0.086123	0.235789	1465.7	84506.8
197	2.000000	1.818992	7.36698e+06	-48489.1	955.822	-29762	0.000000	0.000000	7.833903	363.425	NaN	0.000000	0.001589	0.001812	28.0767	86.9202	0.001760	49385	2.758809	174.604	361.974	1.818683	0.094801	0.094492	363.425	49385	0.089282	0.251250	1446.47	90015.1
197	2.000000	1.821970	7.36698e+06	-48489.1	955.822	-29762	0.000000	0.000000	7.837888	387.901	NaN	0.000000	0.001568	0.001826	28.0767	88.7129	0.001754	50570.8	2.428687	174.865	387.088	1.821701	0.097780	0.097511	387.901	50570.8	0.092027	0.265060	1463.45	89743
197	2.000000	1.824939	7.36698e+06	-48489.1	955.822	-29762	0.000000	0.000000	7.841634	406.801	NaN	0.000000	0.001654	0.001774	28.0769	92.1283	0.001792	51403	6.795901	170.889	405.165	1.824561	0.100748	0.100371	406.801	51403	0.094813	0.279425	1455.85	88844.2
197	2.000000	1.828009	7.36698e+06	-48489.1	955.821	-29762	0.000000	0.000000	7.845160	417.897	NaN	0.000000	0.001652	0.001790	28.0779	93.4133	0.001700	54950.7	1.141146	175.553	417.306	1.827682	0.103818	0.103492	417.897	54950.7	0.098114	0.296910	1407.49	92137
197	2.000000	1.831002	7.36698e+06	-48489.1	955.822	-29762	0.000000	0.000000	7.849156	442.28	NaN	0.000000	0.001671	0.001819	28.0779	96.8565	0.001901	50955.3	2.316939	175.485	442.359	1.830617	0.106812	0.106426	442.28	50955.3	0.100302	0.308769	1432.4	83781.1