File: remote_trans/data/nanoindenter/0828-1/data/Data_2025-08-06,11h17m57s/2025-07-22_16-23-58_1_432.txt
2025-07-22, 16:23:58, 1
Index	Phase	Displacement	Time	Pos X	Pos Y	Pos Z	Rot A	Rot B	Piezo Z	Force A	Force B	Gripper	Voltage A	Voltage B	Temperature	Amplitude force	Amplitude pos	Stiffness	Phase shift	Phase excitation	Force A raw	Displacement raw	HMax	HMax raw	Real Force	Real Stiffness	Contact Depth	Area	Hardness	Reduced Mod.
[#]	[#]	[um]	[s]	[um]	[um]	[um]	[m°]	[m°]	[um]	[uN]	[uN]	[V]	[V]	[V]	[°C]	[uN]	[um]	[N/m]	[°]	[°]	[uN]	[um]	[um]	[um]	[uN]	[N/m]	[um]	[um^2]	[MPa]	[MPa]
432	1.000000	0.002410	7.36928e+06	-55489.1	1005.82	-29741.6	0.000000	0.000000	6.002793	0.022662	NaN	0.000000	0.001587	0.001718	28.0791	0.062428	0.000955	65.379	-139.996	-168.46	0.070270	0.001135	-1.062039	-1.063314	0.022662	65.379	-1.062299	-1.562137E+14	-1.450734E-16	NaN
432	1.000000	0.010369	7.36928e+06	-55489.1	1005.82	-29741.6	0.000000	0.000000	6.010749	-0.052378	NaN	0.000000	0.001612	0.001758	28.079	0.053110	0.000972	54.6637	-130.342	-170.95	-0.045229	0.009019	-1.054080	-1.055431	-0.052378	54.6637	-1.053361	-1.184672E+14	4.421280E-16	NaN
432	1.000000	0.018355	7.36928e+06	-55489.1	1005.82	-29741.6	0.000000	0.000000	6.018738	0.012591	NaN	0.000000	0.001623	0.001749	28.0787	0.065368	0.001643	39.7807	48.1506	-164.729	0.043465	0.017079	-1.046094	-1.047371	0.012591	39.7807	-1.046331	-9.530014E+13	-1.321213E-16	NaN
432	1.000000	0.026400	7.36928e+06	-55489.1	1005.82	-29741.6	0.000000	0.000000	6.026777	-0.113718	NaN	0.000000	0.001609	0.001749	28.0795	0.048930	0.001835	26.6629	-10.6882	-162.032	0.049183	0.025049	-1.038049	-1.039401	-0.113718	26.6629	-1.034850	-6.679048E+13	1.702613E-15	NaN
432	1.000000	0.034343	7.36928e+06	-55489.1	1005.82	-29741.6	0.000000	0.000000	6.034724	-0.021289	NaN	0.000000	0.001604	0.001737	28.0791	0.102691	0.001836	55.9221	166.098	-169.884	-0.054269	0.033073	-1.030106	-1.031376	-0.021289	55.9221	-1.029821	-5.715710E+13	3.724609E-16	NaN
432	1.000000	0.042360	7.36928e+06	-55489.1	1005.82	-29741.6	0.000000	0.000000	6.042738	-0.082700	NaN	0.000000	0.001615	0.001754	28.0793	0.069455	0.001918	36.2077	-147.563	-167.154	-0.027017	0.041077	-1.022090	-1.023372	-0.082700	36.2077	-1.020377	-4.265984E+13	1.938595E-15	NaN
432	1.000000	0.050371	7.36928e+06	-55489.1	1005.82	-29741.6	0.000000	0.000000	6.050754	0.020964	NaN	0.000000	0.001602	0.001743	28.0792	0.022025	0.002004	10.9885	-173.597	-168.738	0.072531	0.049089	-1.014078	-1.015361	0.020964	10.9885	-1.015509	-3.668777E+13	-5.714161E-16	NaN
432	1.000000	0.058380	7.36928e+06	-55489.1	1005.82	-29741.6	0.000000	0.000000	6.058763	0.016914	NaN	0.000000	0.001591	0.001701	28.0791	0.102703	0.002119	48.4726	124.633	-168.904	-0.039291	0.057046	-1.006069	-1.007403	0.016914	48.4726	-1.006331	-2.760544E+13	-6.126898E-16	NaN
432	1.000000	0.066362	7.36928e+06	-55489.1	1005.82	-29741.6	0.000000	0.000000	6.066740	-0.070928	NaN	0.000000	0.001593	0.001747	28.0793	0.065137	0.001974	32.9938	-122.626	-165.3	-0.113555	0.065050	-0.998088	-0.999399	-0.070928	32.9938	-0.996475	-2.033814E+13	3.487448E-15	NaN
432	1.000000	0.074396	7.36928e+06	-55489.1	1005.82	-29741.6	0.000000	0.000000	6.074774	-0.082425	NaN	0.000000	0.001577	0.001742	28.0792	0.097527	0.002028	48.0791	58.1052	-166.483	-0.048926	0.073103	-0.990054	-0.991346	-0.082425	48.0791	-0.988768	-1.601473E+13	5.146825E-15	NaN
432	1.000000	0.082364	7.36928e+06	-55489.1	1005.82	-29741.6	0.000000	0.000000	6.082744	-0.036114	NaN	0.000000	0.001584	0.001716	28.0791	0.073596	0.001880	39.1553	-11.6187	-167.763	-0.146411	0.081091	-0.982085	-0.983358	-0.036114	39.1553	-0.981393	-1.274035E+13	2.834619E-15	NaN
432	1.000000	0.090363	7.36928e+06	-55489.1	1005.82	-29741.6	0.000000	0.000000	6.090744	-0.011188	NaN	0.000000	0.001588	0.001726	28.0788	0.090838	0.001947	46.6524	158.876	-165.176	-0.003921	0.089084	-0.974086	-0.975365	-0.011188	46.6524	-0.973906	-1.009964E+13	1.107715E-15	NaN
432	1.000000	0.098332	7.36928e+06	-55489.1	1005.82	-29741.6	0.000000	0.000000	6.098712	-0.041853	NaN	0.000000	0.001610	0.001705	28.0789	0.016919	0.001970	8.590648	132.444	-165.401	-0.084935	0.097098	-0.966117	-0.967352	-0.041853	8.590648	-0.962463	-7.080747E+12	5.910821E-15	NaN
432	1.000000	0.106419	7.36928e+06	-55489.1	1005.82	-29741.6	0.000000	0.000000	6.106801	0.015012	NaN	0.000000	0.001603	0.001667	28.0789	0.007885	0.001909	4.130887	39.0202	-166.02	0.010389	0.105077	-0.958031	-0.959372	0.015012	4.130887	-0.960756	-6.715303E+12	-2.235471E-15	NaN
432	1.000000	0.114409	7.36928e+06	-55489.1	1005.82	-29741.6	0.000000	0.000000	6.114789	-0.049278	NaN	0.000000	0.001621	0.001692	28.0791	0.107254	0.001883	56.9533	-3.743807	-164.642	-0.035495	0.113056	-0.950040	-0.951393	-0.049278	56.9533	-0.949391	-4.718656E+12	1.044316E-14	NaN
432	1.000000	0.122385	7.36928e+06	-55489.1	1005.82	-29741.6	0.000000	0.000000	6.122762	-0.107762	NaN	0.000000	0.001598	0.001701	28.0804	0.052523	0.002049	25.6362	112.116	-167.423	0.000139	0.121158	-0.942064	-0.943291	-0.107762	25.6362	-0.938912	-3.407624E+12	3.162381E-14	NaN
432	1.000000	0.130392	7.36928e+06	-55489.1	1005.82	-29741.6	0.000000	0.000000	6.130774	0.014648	NaN	0.000000	0.001597	0.001672	28.0803	0.099741	0.002047	48.7194	-154.816	-164.851	0.031981	0.129103	-0.934057	-0.935346	0.014648	48.7194	-0.934283	-2.951194E+12	-4.963382E-15	NaN
432	1.000000	0.138391	7.36928e+06	-55489.1	1005.82	-29741.6	0.000000	0.000000	6.138770	-0.063400	NaN	0.000000	0.001607	0.001677	28.0802	0.106947	0.002066	51.7594	-133.187	-168.399	-0.038420	0.137100	-0.926058	-0.927349	-0.063400	51.7594	-0.925140	-2.221219E+12	2.854273E-14	NaN
432	1.000000	0.146420	7.36928e+06	-55489.1	1005.82	-29741.6	0.000000	0.000000	6.146802	0.016329	NaN	0.000000	0.001595	0.001741	28.0801	0.065364	0.001934	33.8003	172.675	-163.35	0.017279	0.145093	-0.918030	-0.919357	0.016329	33.8003	-0.918392	-1.800913E+12	-9.066900E-15	NaN
432	1.000000	0.154428	7.36928e+06	-55489.1	1005.82	-29741.6	0.000000	0.000000	6.154811	0.016173	NaN	0.000000	0.001587	0.001615	28.0803	0.097506	0.001937	50.3412	-83.3451	-164.54	0.039770	0.153102	-0.910021	-0.911347	0.016173	50.3412	-0.910262	-1.398619E+12	-1.156375E-14	NaN
432	1.000000	0.162430	7.36928e+06	-55489.1	1005.82	-29741.6	0.000000	0.000000	6.162808	-0.093092	NaN	0.000000	0.001595	0.001642	28.08	0.045042	0.001957	23.012	-53.8264	-166.342	-0.023469	0.161054	-0.902019	-0.903396	-0.093092	23.012	-0.898985	-9.848173E+11	9.452755E-14	NaN
432	1.000000	0.170420	7.36928e+06	-55489.1	1005.82	-29741.6	0.000000	0.000000	6.170804	0.061972	NaN	0.000000	0.001569	0.001626	28.0803	0.049225	0.001861	26.4481	-142.733	-163.711	0.110826	0.169098	-0.894029	-0.895351	0.061972	26.4481	-0.895787	-8.915129E+11	-6.951373E-14	NaN
432	1.000000	0.178387	7.36928e+06	-55489.1	1005.82	-29741.6	0.000000	0.000000	6.178768	-0.016094	NaN	0.000000	0.001587	0.001640	28.0803	0.062243	0.001968	31.6213	90.8482	-165.969	-0.073781	0.177100	-0.886062	-0.887349	-0.016094	31.6213	-0.885680	-6.509043E+11	2.472547E-14	NaN
432	1.000000	0.186436	7.36928e+06	-55489.1	1005.82	-29741.6	0.000000	0.000000	6.186819	0.026640	NaN	0.000000	0.001563	0.001622	28.08	0.052059	0.001982	26.2613	-147.881	-164.178	-0.020984	0.185097	-0.878014	-0.879352	0.026640	26.2613	-0.878774	-5.249675E+11	-5.074662E-14	NaN
432	1.000000	0.194414	7.36928e+06	-55489.1	1005.82	-29741.6	0.000000	0.000000	6.194794	-0.040233	NaN	0.000000	0.001600	0.001629	28.0801	0.011686	0.002070	5.645034	-18.2184	-163.139	-0.056192	0.193132	-0.870036	-0.871317	-0.040233	5.645034	-0.864690	-3.385305E+11	1.188472E-13	NaN
432	1.000000	0.202419	7.36928e+06	-55489.1	1005.82	-29741.6	0.000000	0.000000	6.202801	-0.003733	NaN	0.000000	0.001589	0.001625	28.08	0.017676	0.001955	9.040933	50.5509	-165.114	0.024248	0.201117	-0.862030	-0.863333	-0.003733	9.040933	-0.861720	-3.086050E+11	1.209604E-14	NaN
432	1.000000	0.210447	7.36928e+06	-55489.1	1005.82	-29741.6	0.000000	0.000000	6.210828	-0.002707	NaN	0.000000	0.001547	0.001622	28.0803	0.070721	0.002003	35.3114	108.013	-164.718	-0.005836	0.209090	-0.854002	-0.855359	-0.002707	35.3114	-0.853945	-2.421885E+11	1.117673E-14	NaN
432	1.000000	0.218424	7.36928e+06	-55489.1	1005.82	-29741.6	0.000000	0.000000	6.218806	0.013369	NaN	0.000000	0.001603	0.001679	28.0803	0.075878	0.001904	39.8601	-129.101	-169.298	0.007729	0.217146	-0.846026	-0.847303	0.013369	39.8601	-0.846277	-1.906866E+11	-7.011099E-14	NaN
432	1.000000	0.226458	7.36928e+06	-55489.1	1005.82	-29741.6	0.000000	0.000000	6.226837	-0.048069	NaN	0.000000	0.001604	0.001661	28.08	0.042596	0.002081	20.4688	-70.9413	-163.032	-0.025958	0.225147	-0.837992	-0.839302	-0.048069	20.4688	-0.836230	-1.393857E+11	3.448650E-13	NaN
432	1.000000	0.234445	7.36928e+06	-55489.1	1005.82	-29741.6	0.000000	0.000000	6.234829	0.061915	NaN	0.000000	0.001609	0.001634	28.0804	0.033465	0.001977	16.9275	-61.6248	-165	0.063465	0.233179	-0.830004	-0.831270	0.061915	16.9275	-0.832747	-1.250315E+11	-4.951942E-13	NaN
432	1.000000	0.242455	7.36928e+06	-55489.1	1005.82	-29741.6	0.000000	0.000000	6.242836	-0.021744	NaN	0.000000	0.001597	0.001622	28.0803	0.095226	0.002124	44.8244	78.5594	-166.385	-0.074240	0.241129	-0.821995	-0.823321	-0.021744	44.8244	-0.821631	-8.837385E+10	2.460431E-13	NaN
432	1.000000	0.250438	7.36928e+06	-55489.1	1005.82	-29741.6	0.000000	0.000000	6.250819	-0.003862	NaN	0.000000	0.001617	0.001631	28.0803	0.053420	0.002011	26.5653	7.541628	-165.185	-0.020501	0.249109	-0.814011	-0.815340	-0.003862	26.5653	-0.813902	-6.942400E+10	5.563407E-14	NaN
432	1.000000	0.258450	7.36928e+06	-55489.1	1005.82	-29741.6	0.000000	0.000000	6.258829	-0.057757	NaN	0.000000	0.001659	0.001632	28.0791	0.015470	0.002141	7.226564	-9.465398	-168.67	-0.029137	0.257110	-0.805999	-0.807339	-0.057757	7.226564	-0.800005	-4.497101E+10	1.284315E-12	NaN
432	1.000000	0.266459	7.36928e+06	-55489.1	1005.82	-29741.6	0.000000	0.000000	6.266838	-0.052751	NaN	0.000000	0.001661	0.001583	28.079	0.105798	0.001952	54.1964	-69.9599	-165.844	-0.105823	0.265138	-0.797990	-0.799311	-0.052751	54.1964	-0.797260	-4.127339E+10	1.278084E-12	NaN
432	1.000000	0.274477	7.36928e+06	-55489.1	1005.82	-29741.6	0.000000	0.000000	6.274858	-0.002704	NaN	0.000000	0.001639	0.001611	28.0794	0.066171	0.001996	33.1577	-32.7524	-165.52	0.016783	0.273132	-0.789973	-0.791318	-0.002704	33.1577	-0.789911	-3.280054E+10	8.242867E-14	NaN
432	1.000000	0.282472	7.36928e+06	-55489.1	1005.82	-29741.6	0.000000	0.000000	6.282856	0.050166	NaN	0.000000	0.001601	0.001622	28.0789	0.029284	0.001984	14.7636	21.1489	-165.399	0.068235	0.281114	-0.781977	-0.783336	0.050166	14.7636	-0.784526	-2.771559E+10	-1.810029E-12	NaN
432	1.000000	0.290489	7.36928e+06	-55489.1	1005.82	-29741.6	0.000000	0.000000	6.290872	0.019317	NaN	0.000000	0.001610	0.001606	28.079	0.009491	0.001987	4.777681	-54.2687	-163.485	-0.040353	0.289089	-0.773960	-0.775360	0.019317	4.777681	-0.776992	-2.189563E+10	-8.822148E-13	NaN
432	1.000000	0.298487	7.36928e+06	-55489.1	1005.82	-29741.6	0.000000	0.000000	6.298865	-0.071963	NaN	0.000000	0.001606	0.001614	28.079	0.082443	0.001983	41.5726	-105.341	-165.879	-0.072282	0.297111	-0.765963	-0.767338	-0.071963	41.5726	-0.764664	-1.488495E+10	4.834642E-12	NaN
432	1.000000	0.306460	7.36928e+06	-55489.1	1005.82	-29741.6	0.000000	0.000000	6.306840	-0.028189	NaN	0.000000	0.001633	0.001632	28.0791	0.062295	0.001995	31.2274	15.0907	-168.59	0.005966	0.305151	-0.757990	-0.759298	-0.028189	31.2274	-0.757313	-1.182335E+10	2.384153E-12	NaN
432	1.000000	0.314455	7.36928e+06	-55489.1	1005.82	-29741.6	0.000000	0.000000	6.314834	-0.053204	NaN	0.000000	0.001593	0.001633	28.0791	0.031146	0.002088	14.9136	121.441	-166.299	-0.099544	0.313149	-0.749994	-0.751300	-0.053204	14.9136	-0.747319	-8.644110E+9	6.154927E-12	NaN
432	1.000000	0.322484	7.36928e+06	-55489.1	1005.82	-29741.6	0.000000	0.000000	6.322863	-0.055909	NaN	0.000000	0.001605	0.001638	28.079	0.063131	0.002061	30.6244	-120.027	-167.048	-0.014222	0.321208	-0.741965	-0.743241	-0.055909	30.6244	-0.740596	-7.001209E+9	7.985672E-12	NaN
432	1.000000	0.330481	7.36928e+06	-55489.1	1005.82	-29741.6	0.000000	0.000000	6.330860	-0.052269	NaN	0.000000	0.001604	0.001607	28.0791	0.034302	0.001924	17.8327	21.6999	-165.212	-0.076874	0.329204	-0.733968	-0.735245	-0.052269	17.8327	-0.731770	-5.308002E+9	9.847237E-12	NaN
432	1.000000	0.338514	7.36928e+06	-55489.1	1005.82	-29741.6	0.000000	0.000000	6.338894	-0.034550	NaN	0.000000	0.001605	0.001619	28.079	0.074147	0.002040	36.3506	172.118	-164.324	-0.020790	0.337248	-0.725936	-0.727201	-0.034550	36.3506	-0.725223	-4.322027E+9	7.993876E-12	NaN
432	1.000000	0.346480	7.36928e+06	-55489.1	1005.82	-29741.6	0.000000	0.000000	6.346860	-0.054488	NaN	0.000000	0.001590	0.001637	28.0793	0.029369	0.001967	14.9328	-90.473	-165.457	-0.047677	0.345144	-0.717969	-0.719306	-0.054488	14.9328	-0.715232	-3.158223E+9	1.725266E-11	NaN
432	1.000000	0.354481	7.36928e+06	-55489.1	1005.82	-29741.6	0.000000	0.000000	6.354862	-0.031949	NaN	0.000000	0.001597	0.001599	28.0792	0.081527	0.001924	42.3839	31.5628	-163.143	-0.011769	0.353179	-0.709968	-0.711270	-0.031949	42.3839	-0.709403	-2.629647E+9	1.214941E-11	NaN
432	1.000000	0.362511	7.36928e+06	-55489.1	1005.82	-29741.6	0.000000	0.000000	6.362891	-0.043886	NaN	0.000000	0.001622	0.001640	28.0789	0.058138	0.001895	30.6787	52.6409	-168.571	-0.076744	0.361193	-0.701938	-0.703257	-0.043886	30.6787	-0.700865	-2.010691E+9	2.182617E-11	NaN
432	1.000000	0.370475	7.36928e+06	-55489.1	1005.82	-29741.6	0.000000	0.000000	6.370852	-0.113274	NaN	0.000000	0.001611	0.001599	28.079	0.066886	0.001948	34.3278	-102.767	-166.493	-0.087513	0.369231	-0.693974	-0.695219	-0.113274	34.3278	-0.691499	-1.497630E+9	7.563543E-11	NaN
432	1.000000	0.378536	7.36928e+06	-55489.1	1005.82	-29741.6	0.000000	0.000000	6.378912	-0.136058	NaN	0.000000	0.001595	0.001654	28.079	0.067520	0.002034	33.2026	49.3984	-165.583	-0.164827	0.377254	-0.685913	-0.687195	-0.136058	33.2026	-0.682840	-1.140359E+9	1.193113E-10	NaN
432	1.000000	0.386506	7.36928e+06	-55489.1	1005.82	-29741.6	0.000000	0.000000	6.386890	0.063702	NaN	0.000000	0.001611	0.001642	28.079	0.045800	0.002051	22.3254	36.1687	-168.615	0.033999	0.385198	-0.677944	-0.679252	0.063702	22.3254	-0.680084	-1.045561E+9	-6.092579E-11	NaN
432	1.000000	0.394520	7.36928e+06	-55489.1	1005.82	-29741.6	0.000000	0.000000	6.394899	-0.063313	NaN	0.000000	0.001606	0.001662	28.0802	0.027330	0.001875	14.5722	-2.840780	-164.817	-0.003555	0.393263	-0.669930	-0.671186	-0.063313	14.5722	-0.666671	-6.852072E+8	9.239997E-11	NaN
432	1.000000	0.402522	7.36928e+06	-55489.1	1005.82	-29741.6	0.000000	0.000000	6.402903	-0.018613	NaN	0.000000	0.001599	0.001678	28.0803	0.121953	0.001984	61.4631	70.061	-166.694	0.005908	0.401180	-0.661928	-0.663269	-0.018613	61.4631	-0.661700	-5.858127E+8	3.177308E-11	NaN
432	1.000000	0.410532	7.36929e+06	-55489.1	1005.82	-29741.6	0.000000	0.000000	6.410912	-0.029193	NaN	0.000000	0.001565	0.001650	28.0801	0.057659	0.001923	29.9834	-166.636	-166.69	-0.013790	0.409175	-0.653918	-0.655274	-0.029193	29.9834	-0.653187	-4.478449E+8	6.518654E-11	NaN
432	1.000000	0.418527	7.36929e+06	-55489.1	1005.82	-29741.6	0.000000	0.000000	6.418908	-0.024026	NaN	0.000000	0.001636	0.001632	28.0802	0.033879	0.002044	16.5752	131.563	-167.848	-0.046167	0.417146	-0.645922	-0.647303	-0.024026	16.5752	-0.644835	-3.440419E+8	6.983399E-11	NaN
432	1.000000	0.426490	7.36929e+06	-55489.1	1005.82	-29741.6	0.000000	0.000000	6.426870	-0.047332	NaN	0.000000	0.001639	0.001650	28.0804	0.059101	0.002034	29.0547	-121.282	-164.943	-0.067599	0.425245	-0.637959	-0.639204	-0.047332	29.0547	-0.636738	-2.663917E+8	1.776766E-10	NaN
432	1.000000	0.434509	7.36929e+06	-55489.1	1005.82	-29741.6	0.000000	0.000000	6.434889	-0.021274	NaN	0.000000	0.001636	0.001620	28.0802	0.076919	0.001998	38.4898	-25.5972	-162.504	-0.063499	0.433239	-0.629941	-0.631210	-0.021274	38.4898	-0.629526	-2.120872E+8	1.003066E-10	NaN
432	1.000000	0.442528	7.36929e+06	-55489.1	1005.82	-29741.6	0.000000	0.000000	6.442912	0.050163	NaN	0.000000	0.001613	0.001672	28.0804	0.024932	0.002005	12.4326	-137.651	-165.777	-0.018399	0.441206	-0.621921	-0.623243	0.050163	12.4326	-0.624947	-1.834930E+8	-2.733777E-10	NaN
432	1.000000	0.450558	7.36929e+06	-55489.1	1005.82	-29741.6	0.000000	0.000000	6.450938	-0.042424	NaN	0.000000	0.001640	0.001666	28.0801	0.069187	0.002016	34.3117	-157.288	-163.248	-0.033974	0.449217	-0.613892	-0.615233	-0.042424	34.3117	-0.612964	-1.255716E+8	3.378478E-10	NaN
432	1.000000	0.458543	7.36929e+06	-55489.1	1005.82	-29741.6	0.000000	0.000000	6.458923	-0.028949	NaN	0.000000	0.001663	0.001679	28.0804	0.067817	0.002065	32.8435	3.007071	-168.716	0.007790	0.457266	-0.605907	-0.607183	-0.028949	32.8435	-0.605245	-9.832929E+7	2.944137E-10	NaN
432	1.000000	0.466555	7.36929e+06	-55489.1	1005.82	-29741.6	0.000000	0.000000	6.466938	0.033134	NaN	0.000000	0.001621	0.001648	28.0806	0.112704	0.001906	59.1354	-135.719	-167.254	0.117281	0.465204	-0.597894	-0.599245	0.033134	59.1354	-0.598314	-7.893038E+7	-4.197890E-10	NaN
432	1.000000	0.474550	7.36929e+06	-55489.1	1005.82	-29741.6	0.000000	0.000000	6.474928	-0.066541	NaN	0.000000	0.001590	0.001649	28.0801	0.036909	0.001979	18.6459	140.654	-167.35	-0.017683	0.473232	-0.589900	-0.591217	-0.066541	18.6459	-0.587223	-5.551097E+7	1.198694E-9	NaN
432	1.000000	0.482532	7.36929e+06	-55489.1	1005.82	-29741.6	0.000000	0.000000	6.482914	-0.010131	NaN	0.000000	0.001614	0.001663	28.0803	0.095987	0.002067	46.4372	-55.3427	-168.159	0.000954	0.481235	-0.581917	-0.583214	-0.010131	46.4372	-0.581753	-4.665753E+7	2.171451E-10	NaN
432	1.000000	0.490543	7.36929e+06	-55489.1	1005.82	-29741.6	0.000000	0.000000	6.490925	0.015264	NaN	0.000000	0.001627	0.001645	28.08	0.034416	0.002029	16.9641	-62.8319	-167.872	-0.016755	0.489228	-0.573907	-0.575221	0.015264	16.9641	-0.574582	-3.714679E+7	-4.109199E-10	NaN
432	1.000000	0.498545	7.36929e+06	-55489.1	1005.82	-29741.6	0.000000	0.000000	6.498925	-0.033437	NaN	0.000000	0.001607	0.001668	28.0804	0.043966	0.001936	22.7086	-149.049	-162.146	-0.144247	0.497268	-0.565904	-0.567182	-0.033437	22.7086	-0.564800	-2.721199E+7	1.228766E-9	NaN
432	1.000000	0.506546	7.36929e+06	-55489.1	1005.82	-29741.6	0.000000	0.000000	6.506927	-0.013345	NaN	0.000000	0.001634	0.001662	28.0803	0.080690	0.002044	39.4678	-96.3907	-168.219	-0.028823	0.505259	-0.557903	-0.559191	-0.013345	39.4678	-0.557649	-2.166990E+7	6.158535E-10	NaN
432	1.000000	0.514585	7.36929e+06	-55489.1	1005.82	-29741.6	0.000000	0.000000	6.514965	-0.038040	NaN	0.000000	0.001610	0.001668	28.0801	0.060628	0.001997	30.3601	50.8042	-166.376	-0.024612	0.513253	-0.549864	-0.551196	-0.038040	30.3601	-0.548924	-1.640805E+7	2.318403E-9	NaN
432	1.000000	0.522573	7.36929e+06	-55489.1	1005.82	-29741.6	0.000000	0.000000	6.522953	-0.028714	NaN	0.000000	0.001598	0.001678	28.0802	0.078854	0.001933	40.7987	40.0756	-163.076	0.017745	0.521253	-0.541877	-0.543196	-0.028714	40.7987	-0.541349	-1.288429E+7	2.228624E-9	NaN
432	1.000000	0.530565	7.36929e+06	-55489.1	1005.82	-29741.6	0.000000	0.000000	6.530943	-0.079267	NaN	0.000000	0.001590	0.001667	28.0788	0.157154	0.002180	72.0743	-20.8422	-163.08	-0.003464	0.529281	-0.533885	-0.535169	-0.079267	72.0743	-0.533060	-9.88688e+06	8.017400E-9	NaN
432	1.000000	0.538569	7.36929e+06	-55489.1	1005.82	-29741.6	0.000000	0.000000	6.538951	0.006994	NaN	0.000000	0.001602	0.001653	28.0788	0.051953	0.002038	25.4877	-13.3688	-168.771	-0.014235	0.537309	-0.525880	-0.527140	0.006994	25.4877	-0.526086	-7.91047e+06	-8.841806E-10	NaN
432	1.000000	0.546560	7.36929e+06	-55489.1	1005.82	-29741.6	0.000000	0.000000	6.546942	0.018462	NaN	0.000000	0.001577	0.001680	28.0788	0.124274	0.001854	67.0124	106.634	-166.278	-0.037755	0.545315	-0.517890	-0.519134	0.018462	67.0124	-0.518096	-6.12517e+06	-3.014068E-9	NaN
432	1.000000	0.554575	7.36929e+06	-55489.1	1005.82	-29741.6	0.000000	0.000000	6.554954	-0.074700	NaN	0.000000	0.001601	0.001685	28.0789	0.117570	0.001910	61.5552	-143.321	-165.905	0.006928	0.553295	-0.509874	-0.511155	-0.074700	61.5552	-0.508964	-4.57069e+06	1.634323E-8	NaN
432	1.000000	0.562578	7.36929e+06	-55489.1	1005.82	-29741.6	0.000000	0.000000	6.562958	-0.049790	NaN	0.000000	0.001600	0.001652	28.079	0.032474	0.002087	15.561	84.2817	-166.844	-0.090776	0.561287	-0.501871	-0.503162	-0.049790	15.561	-0.499472	-3.37012e+06	1.477405E-8	NaN
432	1.000000	0.570600	7.36929e+06	-55489.1	1005.82	-29741.6	0.000000	0.000000	6.570983	0.023501	NaN	0.000000	0.001616	0.001661	28.0789	0.071938	0.001981	36.3119	16.5741	-164.915	0.034557	0.569284	-0.493849	-0.495165	0.023501	36.3119	-0.494335	-2.85722e+06	-8.225029E-9	NaN
432	1.000000	0.578600	7.36929e+06	-55489.1	1005.82	-29741.6	0.000000	0.000000	6.578981	0.000791	NaN	0.000000	0.001589	0.001657	28.0792	0.049497	0.002054	24.1014	127.485	-165.014	-0.083336	0.577275	-0.485850	-0.487175	0.000791	24.1014	-0.485874	-2.17629e+06	-3.633855E-10	NaN
432	1.000000	0.586578	7.36929e+06	-55489.1	1005.82	-29741.6	0.000000	0.000000	6.586958	-0.022690	NaN	0.000000	0.001607	0.001654	28.0788	0.106597	0.002029	52.5312	-65.5575	-167.188	-0.010060	0.585329	-0.477872	-0.479120	-0.022690	52.5312	-0.477548	-1.66413e+06	1.363460E-8	NaN
432	1.000000	0.594594	7.36929e+06	-55489.1	1005.82	-29741.6	0.000000	0.000000	6.594972	-0.083627	NaN	0.000000	0.001624	0.001647	28.079	0.011785	0.001944	6.062960	106.529	-167.486	-0.020110	0.593311	-0.469855	-0.471138	-0.083627	6.062960	-0.459511	-929270	8.999165E-8	NaN
432	1.000000	0.602577	7.36929e+06	-55489.1	1005.82	-29741.6	0.000000	0.000000	6.602956	-0.054031	NaN	0.000000	0.001636	0.001638	28.0792	0.103766	0.002049	50.64	-172.557	-167.596	-0.003307	0.601265	-0.461873	-0.463184	-0.054031	50.64	-0.461072	-977429	5.527917E-8	NaN
432	1.000000	0.610599	7.36929e+06	-55489.1	1005.82	-29741.6	0.000000	0.000000	6.610980	0.005747	NaN	0.000000	0.001632	0.001614	28.0789	0.004754	0.002037	2.333743	-64.8858	-168.932	0.000675	0.609263	-0.453851	-0.455186	0.005747	2.333743	-0.455698	-821354	-6.996993E-9	NaN
432	1.000000	0.618607	7.36929e+06	-55489.1	1005.82	-29741.6	0.000000	0.000000	6.618987	-0.039025	NaN	0.000000	0.001609	0.001646	28.0791	0.094749	0.001883	50.3073	169.071	-169.104	-0.070972	0.617327	-0.445842	-0.447123	-0.039025	50.3073	-0.445260	-585544	6.664751E-8	NaN
432	1.000000	0.626636	7.36929e+06	-55489.1	1005.82	-29741.6	0.000000	0.000000	6.627016	-0.032584	NaN	0.000000	0.001613	0.001627	28.0789	0.091211	0.001965	46.4183	119.078	-167.814	-0.059608	0.625345	-0.437814	-0.439104	-0.032584	46.4183	-0.437287	-451922	7.210149E-8	NaN
432	1.000000	0.634609	7.36929e+06	-55489.1	1005.82	-29741.6	0.000000	0.000000	6.634990	-0.015534	NaN	0.000000	0.001622	0.001636	28.0791	0.064398	0.001977	32.5787	-42.638	-164.642	-0.033994	0.633303	-0.429840	-0.431146	-0.015534	32.5787	-0.429483	-350545	4.431388E-8	NaN
432	1.000000	0.642624	7.36929e+06	-55489.1	1005.82	-29741.6	0.000000	0.000000	6.643003	-0.066150	NaN	0.000000	0.001621	0.001615	28.0789	0.088102	0.001975	44.6049	11.0894	-167.677	0.022986	0.641309	-0.421826	-0.423140	-0.066150	44.6049	-0.420713	-263348	2.511903E-7	NaN
432	1.000000	0.650628	7.36929e+06	-55489.1	1005.82	-29741.6	0.000000	0.000000	6.651009	-0.017636	NaN	0.000000	0.001643	0.001668	28.079	0.063509	0.001874	33.8843	-139.025	-164.276	-0.069426	0.649312	-0.413822	-0.415137	-0.017636	33.8843	-0.413431	-207574	8.496048E-8	NaN
432	1.000000	0.658628	7.36929e+06	-55489.1	1005.82	-29741.6	0.000000	0.000000	6.659008	-0.033238	NaN	0.000000	0.001659	0.001629	28.0791	0.035606	0.001970	18.0725	42.7875	-164.596	-0.065982	0.657305	-0.405822	-0.407144	-0.033238	18.0725	-0.404442	-154634	2.149479E-7	NaN
432	1.000000	0.666659	7.36929e+06	-55489.1	1005.82	-29741.6	0.000000	0.000000	6.667039	-0.029706	NaN	0.000000	0.001602	0.001665	28.0799	0.022648	0.002064	10.9725	-21.466	-164.387	0.049436	0.665256	-0.397790	-0.399193	-0.029706	10.9725	-0.395760	-116275	2.554802E-7	NaN
432	1.000000	0.674655	7.36929e+06	-55489.1	1005.82	-29741.6	0.000000	0.000000	6.675033	-0.085858	NaN	0.000000	0.001597	0.001658	28.0802	0.088723	0.002065	42.9699	-60.6012	-166.216	-0.167754	0.673341	-0.389794	-0.391108	-0.085858	42.9699	-0.388296	-90945.4	9.440641E-7	NaN
432	1.000000	0.682630	7.36929e+06	-55489.1	1005.82	-29741.6	0.000000	0.000000	6.683014	0.050764	NaN	0.000000	0.001619	0.001668	28.0801	0.019117	0.001968	9.711941	7.488943	-166.894	-0.015888	0.681352	-0.381819	-0.383097	0.050764	9.711941	-0.385740	-83595.4	-6.072559E-7	NaN
432	1.000000	0.690663	7.36929e+06	-55489.1	1005.82	-29741.6	0.000000	0.000000	6.691045	0.024667	NaN	0.000000	0.001624	0.001669	28.0803	0.060364	0.001882	32.0713	32.0381	-168.119	-0.030362	0.689289	-0.373786	-0.375160	0.024667	32.0713	-0.374363	-57400.7	-4.297384E-7	NaN
432	1.000000	0.698640	7.36929e+06	-55489.1	1005.82	-29741.6	0.000000	0.000000	6.699026	0.107798	NaN	0.000000	0.001603	0.001676	28.0802	0.072117	0.002016	35.7789	-49.4252	-161.498	0.081180	0.697303	-0.365809	-0.367146	0.107798	35.7789	-0.368069	-46591.6	-2.313683E-6	NaN
432	1.000000	0.706634	7.36929e+06	-55489.1	1005.82	-29741.6	0.000000	0.000000	6.707015	-0.022765	NaN	0.000000	0.001614	0.001632	28.0803	0.094160	0.001910	49.3015	126.51	-166.25	-0.086383	0.705339	-0.357815	-0.359111	-0.022765	49.3015	-0.357469	-32751.9	6.950694E-7	NaN
432	1.000000	0.714653	7.36929e+06	-55489.1	1005.82	-29741.6	0.000000	0.000000	6.715033	-0.039294	NaN	0.000000	0.001582	0.001622	28.0804	0.046573	0.001905	24.4436	-129.177	-167.044	0.016672	0.713336	-0.349797	-0.351113	-0.039294	24.4436	-0.348591	-24352.6	1.613530E-6	NaN
432	1.000000	0.722682	7.36929e+06	-55489.1	1005.82	-29741.6	0.000000	0.000000	6.723064	0.000594	NaN	0.000000	0.001579	0.001665	28.0801	0.122404	0.002084	58.7336	-100.227	-167.194	0.016814	0.721339	-0.341767	-0.343111	0.000594	58.7336	-0.341775	-19382.7	-3.062141E-8	NaN
432	1.000000	0.730645	7.36929e+06	-55489.1	1005.82	-29741.6	0.000000	0.000000	6.731027	-0.001271	NaN	0.000000	0.001615	0.001647	28.0806	0.067266	0.001982	33.9355	-85.1111	-165.366	-0.023971	0.729315	-0.333804	-0.335135	-0.001271	33.9355	-0.333776	-14814.8	8.580295E-8	NaN
432	1.000000	0.738673	7.36929e+06	-55489.1	1005.82	-29741.6	0.000000	0.000000	6.739051	-0.098648	NaN	0.000000	0.001597	0.001650	28.0802	0.046539	0.002056	22.6404	-179.4	-168.86	-0.013917	0.737383	-0.325776	-0.327066	-0.098648	22.6404	-0.322508	-10128.2	9.739935E-6	NaN
432	1.000000	0.746664	7.36929e+06	-55489.1	1005.82	-29741.6	0.000000	0.000000	6.747045	-0.014695	NaN	0.000000	0.001596	0.001655	28.0803	0.125846	0.002021	62.2633	161.347	-164.853	0.008483	0.745366	-0.317786	-0.319083	-0.014695	62.2633	-0.317609	-8578.62	1.713015E-6	NaN
432	1.000000	0.754701	7.36929e+06	-55489.1	1005.82	-29741.6	0.000000	0.000000	6.755080	-0.066111	NaN	0.000000	0.001627	0.001661	28.0803	0.037786	0.002051	18.425	-39.1217	-163.962	0.047412	0.753335	-0.309749	-0.311114	-0.066111	18.425	-0.307057	-5990.63	1.103580E-5	NaN
432	1.000000	0.762661	7.36929e+06	-55489.1	1005.82	-29741.6	0.000000	0.000000	6.763041	-0.030782	NaN	0.000000	0.001622	0.001669	28.0802	0.049091	0.001991	24.6559	-45.0129	-167.951	-0.024136	0.761353	-0.301788	-0.303097	-0.030782	24.6559	-0.300852	-4845.26	6.352947E-6	NaN
432	1.000000	0.770647	7.36929e+06	-55489.1	1005.82	-29741.6	0.000000	0.000000	6.771026	-0.053594	NaN	0.000000	0.001668	0.001655	28.0806	0.023543	0.001905	12.3611	119.904	-163.757	0.002029	0.769355	-0.293802	-0.295094	-0.053594	12.3611	-0.290551	-3400.56	1.576035E-5	NaN
432	1.000000	0.778671	7.36929e+06	-55489.1	1005.82	-29741.6	0.000000	0.000000	6.779051	-0.032283	NaN	0.000000	0.001639	0.001658	28.0802	0.049263	0.002102	23.4346	50.3205	-165.561	-0.025527	0.777352	-0.285779	-0.287097	-0.032283	23.4346	-0.284746	-2782.54	1.160201E-5	NaN
432	1.000000	0.786664	7.36929e+06	-55489.1	1005.82	-29741.6	0.000000	0.000000	6.787046	0.008309	NaN	0.000000	0.001616	0.001656	28.0805	0.047793	0.002055	23.2578	175.387	-167.549	-0.066733	0.785376	-0.277785	-0.279073	0.008309	23.2578	-0.278053	-2205.86	-3.766614E-6	NaN
432	1.000000	0.794676	7.36929e+06	-55489.1	1005.82	-29741.6	0.000000	0.000000	6.795056	-0.046812	NaN	0.000000	0.001615	0.001713	28.0801	0.067295	0.001965	34.2406	-102.814	-167.056	-0.021125	0.793320	-0.269773	-0.271129	-0.046812	34.2406	-0.268748	-1594.03	2.936728E-5	NaN
432	1.000000	0.802655	7.36929e+06	-55489.1	1005.82	-29741.6	0.000000	0.000000	6.803037	0.011404	NaN	0.000000	0.001601	0.001654	28.0795	0.006934	0.002066	3.355373	-147.751	-166.024	-0.062586	0.801357	-0.261794	-0.263093	0.011404	3.355373	-0.264343	-1365.72	-8.349897E-6	NaN
432	1.000000	0.810684	7.36929e+06	-55489.1	1005.82	-29741.6	0.000000	0.000000	6.811062	-0.080519	NaN	0.000000	0.001618	0.001671	28.0793	0.093855	0.002057	45.6243	-35.7496	-168.291	-0.084577	0.809390	-0.253766	-0.255060	-0.080519	45.6243	-0.252442	-896.796	8.978475E-5	NaN
432	1.000000	0.818708	7.36929e+06	-55489.1	1005.82	-29741.6	0.000000	0.000000	6.819089	-0.009773	NaN	0.000000	0.001607	0.001664	28.0789	0.031704	0.002062	15.3786	-63.8445	-167.135	-0.020433	0.817409	-0.245742	-0.247040	-0.009773	15.3786	-0.245265	-694.34	1.407462E-5	NaN
432	1.000000	0.826700	7.36929e+06	-55489.1	1005.82	-29741.6	0.000000	0.000000	6.827083	0.022405	NaN	0.000000	0.001614	0.001658	28.0794	0.089186	0.001989	44.8499	159.788	-162.574	-0.010220	0.825406	-0.237749	-0.239044	0.022405	44.8499	-0.238124	-537.298	-4.169944E-5	NaN
432	1.000000	0.834696	7.36929e+06	-55489.1	1005.82	-29741.6	0.000000	0.000000	6.835075	-0.058947	NaN	0.000000	0.001592	0.001672	28.0791	0.026950	0.002005	13.4423	78.6655	-165.121	0.028451	0.833346	-0.229754	-0.231104	-0.058947	13.4423	-0.226465	-352.029	0.000167	NaN
432	1.000000	0.842693	7.36929e+06	-55489.1	1005.82	-29741.6	0.000000	0.000000	6.843077	0.036387	NaN	0.000000	0.001606	0.001660	28.0791	0.050870	0.001970	25.8231	122.004	-164.808	0.084270	0.841379	-0.221756	-0.223071	0.036387	25.8231	-0.222813	-307.998	-0.000118	NaN
432	1.000000	0.850714	7.36929e+06	-55489.1	1005.82	-29741.6	0.000000	0.000000	6.851096	0.002448	NaN	0.000000	0.001602	0.001635	28.0791	0.099166	0.001922	51.591	-166.388	-166.646	-0.016317	0.849392	-0.213735	-0.215058	0.002448	51.591	-0.213771	-220.663	-1.109496E-5	NaN
432	1.000000	0.858696	7.36929e+06	-55489.1	1005.82	-29741.6	0.000000	0.000000	6.859078	0.011388	NaN	0.000000	0.001608	0.001654	28.0791	0.122874	0.002080	59.07	150.346	-164.594	0.005688	0.857405	-0.205753	-0.207045	0.011388	59.07	-0.205898	-164.512	-6.922184E-5	NaN
432	1.000000	0.866680	7.36929e+06	-55489.1	1005.82	-29741.6	0.000000	0.000000	6.867062	-0.000401	NaN	0.000000	0.001603	0.001642	28.0793	0.026007	0.002097	12.3992	104.59	-168.108	-0.059726	0.865407	-0.197769	-0.199043	-0.000401	12.3992	-0.197745	-120.941	3.319041E-6	NaN
432	1.000000	0.874732	7.36929e+06	-55489.1	1005.82	-29741.6	0.000000	0.000000	6.875114	0.003865	NaN	0.000000	0.001598	0.001639	28.0791	0.074078	0.002029	36.5045	-94.461	-168.094	-0.012581	0.873402	-0.189717	-0.191047	0.003865	36.5045	-0.189796	-89.2539	-4.329960E-5	NaN
432	1.000000	0.882705	7.36929e+06	-55489.1	1005.82	-29741.6	0.000000	0.000000	6.883086	-0.005720	NaN	0.000000	0.001586	0.001637	28.0792	0.036453	0.001987	18.3468	-130.703	-167.895	0.034018	0.881426	-0.181745	-0.183023	-0.005720	18.3468	-0.181511	-64.7345	8.835473E-5	NaN
432	1.000000	0.890712	7.36929e+06	-55489.1	1005.82	-29741.6	0.000000	0.000000	6.891091	-0.081483	NaN	0.000000	0.001558	0.001635	28.079	0.038153	0.002123	17.969	-2.078394	-164.89	-0.044307	0.889417	-0.173737	-0.175032	-0.081483	17.969	-0.170336	-41.6338	0.001957	NaN
432	1.000000	0.898705	7.36929e+06	-55489.1	1005.82	-29741.6	0.000000	0.000000	6.899086	-0.011653	NaN	0.000000	0.001612	0.001614	28.0789	0.126061	0.002003	62.9283	-105.674	-169.588	-0.048856	0.897390	-0.165745	-0.167059	-0.011653	62.9283	-0.165606	-34.4298	0.000338	NaN
432	1.000000	0.906692	7.36929e+06	-55489.1	1005.82	-29741.6	0.000000	0.000000	6.907071	-0.046023	NaN	0.000000	0.001601	0.001606	28.0789	0.040897	0.001930	21.1954	-16.188	-168.742	0.025024	0.905396	-0.157758	-0.159053	-0.046023	21.1954	-0.156129	-23.3813	0.001968	NaN
432	1.000000	0.914734	7.36929e+06	-55489.1	1005.82	-29741.6	0.000000	0.000000	6.915111	-0.115435	NaN	0.000000	0.001638	0.001591	28.0791	0.063731	0.002027	31.4371	129.359	-164.52	0.062323	0.913415	-0.149716	-0.151034	-0.115435	31.4371	-0.146962	-15.9351	0.007244	NaN
432	1.000000	0.922758	7.36929e+06	-55489.1	1005.82	-29741.6	0.000000	0.000000	6.923137	-0.065753	NaN	0.000000	0.001616	0.001575	28.0793	0.038883	0.001939	20.0565	-22.9685	-165.941	-0.015190	0.921395	-0.141691	-0.143054	-0.065753	20.0565	-0.139232	-11.4426	0.005746	NaN
432	1.000000	0.930756	7.36929e+06	-55489.1	1005.82	-29741.6	0.000000	0.000000	6.931136	-0.047501	NaN	0.000000	0.001585	0.001582	28.079	0.088945	0.001938	45.8916	-14.9099	-167.291	0.015044	0.929442	-0.133693	-0.135008	-0.047501	45.8916	-0.132917	-8.677225	0.005474	NaN
432	1.000000	0.938765	7.36929e+06	-55489.1	1005.82	-29741.6	0.000000	0.000000	6.939145	-0.048417	NaN	0.000000	0.001602	0.001604	28.0794	0.064836	0.001992	32.5459	156.463	-164.304	-0.010921	0.937435	-0.125684	-0.127014	-0.048417	32.5459	-0.124568	-5.962701	0.008120	NaN
432	1.000000	0.946743	7.36929e+06	-55489.1	1005.82	-29741.6	0.000000	0.000000	6.947124	-0.005962	NaN	0.000000	0.001600	0.001617	28.0802	0.050235	0.001819	27.6133	147.261	-164.597	-0.026183	0.945421	-0.117706	-0.119029	-0.005962	27.6133	-0.117545	-4.307957	0.001384	NaN
432	1.000000	0.954757	7.36929e+06	-55489.1	1005.82	-29741.6	0.000000	0.000000	6.955140	0.031131	NaN	0.000000	0.001556	0.001605	28.0803	0.127248	0.002013	63.2175	-170.319	-163.938	-0.020624	0.953376	-0.109693	-0.111074	0.031131	63.2175	-0.110062	-3.014233	-0.010328	NaN
432	1.000000	0.962749	7.36929e+06	-55489.1	1005.82	-29741.6	0.000000	0.000000	6.963129	-0.024809	NaN	0.000000	0.001581	0.001594	28.0803	0.028399	0.001965	14.4506	130.109	-168.176	-0.003055	0.961472	-0.101701	-0.102977	-0.024809	14.4506	-0.100413	-1.866046	0.013295	NaN
432	1.000000	0.970745	7.36929e+06	-55489.1	1005.82	-29741.6	0.000000	0.000000	6.971127	0.001416	NaN	0.000000	0.001617	0.001633	28.0802	0.059578	0.001912	31.1614	-123.899	-165.879	0.028456	0.969424	-0.093704	-0.095026	0.001416	31.1614	-0.093738	-1.319952	-0.001072	NaN
432	1.000000	0.978751	7.36929e+06	-55489.1	1005.82	-29741.6	0.000000	0.000000	6.979132	-0.025308	NaN	0.000000	0.001579	0.001628	28.0805	0.009141	0.002084	4.385743	57.6785	-167.784	-0.042855	0.977419	-0.085698	-0.087030	-0.025308	4.385743	-0.081370	-0.669570	0.037797	NaN
432	1.000000	0.986749	7.36929e+06	-55489.1	1005.82	-29741.6	0.000000	0.000000	6.987131	0.006176	NaN	0.000000	0.001588	0.001607	28.0802	0.032040	0.001892	16.9383	-103.06	-165.357	-0.031010	0.985447	-0.077700	-0.079002	0.006176	16.9383	-0.077974	-0.550396	-0.011221	NaN
432	1.000000	0.994796	7.36929e+06	-55489.1	1005.82	-29741.6	0.000000	0.000000	6.995176	-0.026632	NaN	0.000000	0.001563	0.001652	28.0801	0.087963	0.001921	45.7849	-60.2016	-164.666	-0.002861	0.993476	-0.069653	-0.070973	-0.026632	45.7849	-0.069217	-0.324984	0.081949	NaN
432	1.000000	1.002784	7.36929e+06	-55489.1	1005.82	-29741.6	0.000000	0.000000	7.003164	-0.033587	NaN	0.000000	0.001577	0.001654	28.0803	0.046594	0.001980	23.5341	42.5544	-164.45	-0.110057	1.001461	-0.061666	-0.062988	-0.033587	23.5341	-0.060595	-0.187302	0.179320	NaN
432	1.000000	1.010769	7.36929e+06	-55489.1	1005.82	-29741.6	0.000000	0.000000	7.011145	-0.121127	NaN	0.000000	0.001560	0.001663	28.0801	0.053639	0.001907	28.1282	75.1402	-163.548	-0.012740	1.009473	-0.053681	-0.054976	-0.121127	28.1282	-0.050451	-0.094160	1.286392	NaN
432	1.000000	1.018742	7.36929e+06	-55489.1	1005.82	-29741.6	0.000000	0.000000	7.019124	-0.003997	NaN	0.000000	0.001580	0.001638	28.081	0.139518	0.001966	70.959	101.55	-165.843	-0.040664	1.017495	-0.045707	-0.046954	-0.003997	70.959	-0.045665	-0.067348	0.059342	NaN
432	1.000000	1.026778	7.36929e+06	-55489.1	1005.82	-29741.6	0.000000	0.000000	7.027158	-0.037635	NaN	0.000000	0.001571	0.001624	28.08	0.017125	0.002174	7.877996	173.661	-162.08	-0.066877	1.025512	-0.037672	-0.038937	-0.037635	7.877996	-0.034089	-0.030113	1.249822	NaN
432	1.000000	1.034739	7.36929e+06	-55489.1	1005.82	-29741.6	0.000000	0.000000	7.035117	-0.084415	NaN	0.000000	0.001621	0.001646	28.0802	0.048015	0.002140	22.4382	93.816	-169.245	-0.068982	1.033521	-0.029710	-0.030928	-0.084415	22.4382	-0.026889	-0.018925	4.460609	NaN
432	1.000000	1.042799	7.36929e+06	-55489.1	1005.82	-29741.6	0.000000	0.000000	7.043179	-0.033050	NaN	0.000000	0.001608	0.001631	28.0802	0.062018	0.002018	30.7296	-2.028395	-166.332	-0.012789	1.041451	-0.021650	-0.022998	-0.033050	30.7296	-0.020844	-0.013197	2.504387	NaN
432	1.000000	1.050790	7.36929e+06	-55489.1	1005.82	-29741.6	0.000000	0.000000	7.051167	-0.098921	NaN	0.000000	0.001571	0.001625	28.0802	0.092765	0.002053	45.1761	33.4733	-163.164	-0.058137	1.049424	-0.013659	-0.015025	-0.098921	45.1761	-0.012017	-0.007538	13.1224	NaN
432	1.000000	1.058788	7.36929e+06	-55489.1	1005.82	-29741.6	0.000000	0.000000	7.059169	-0.012485	NaN	0.000000	0.001568	0.001551	28.0805	0.172068	0.001918	89.7349	-168.44	-166.168	-0.084327	1.057455	-0.005661	-0.006995	-0.012485	89.7349	-0.005557	-0.003764	3.317044	NaN
432	1.000000	1.066788	7.36929e+06	-55489.1	1005.82	-29741.6	0.000000	0.000000	7.067233	1.536999	NaN	0.000000	0.001617	0.001583	28.0801	2.186878	0.001825	1198.05	5.661689	-167.835	0.451396	1.065459	0.002338	0.001010	1.536999	1198.05	0.001376	0.001057	1454.58	33672.9
432	2.000000	1.073376	7.36929e+06	-55489.1	1005.82	-29741.6	0.000000	0.000000	7.074074	7.688028	NaN	0.000000	0.001580	0.001622	28.0803	7.997116	0.001722	4644.06	5.614018	-168.465	8.153793	1.073025	0.008927	0.008576	7.688028	4644.06	0.007685	0.006720	1143.98	51757.5
432	2.000000	1.075390	7.36929e+06	-55489.1	1005.82	-29741.6	0.000000	0.000000	7.076163	9.504001	NaN	0.000000	0.001605	0.001610	28.0789	10.7662	0.001701	6330.53	7.784785	-173.792	9.560433	1.075052	0.010941	0.010603	9.504001	6330.53	0.009815	0.008977	1058.75	61045.9
432	2.000000	1.077385	7.36929e+06	-55489.1	1005.82	-29741.6	0.000000	0.000000	7.078220	11.0252	NaN	0.000000	0.001613	0.001635	28.079	12.2398	0.001793	6828.25	12.7171	-178.565	11.3872	1.077080	0.012936	0.012631	11.0252	6828.25	0.011725	0.011162	987.739	59048.7
432	2.000000	1.079378	7.36929e+06	-55489.1	1005.82	-29741.6	0.000000	0.000000	7.080285	12.7649	NaN	0.000000	0.001617	0.001610	28.0789	14.2337	0.001900	7489.78	9.685125	-175.608	13.4982	1.079045	0.014929	0.014596	12.7649	7489.78	0.013651	0.013528	943.589	58833.5
432	2.000000	1.081339	7.36929e+06	-55489.1	1005.82	-29741.6	0.000000	0.000000	7.082439	17.4561	NaN	0.000000	0.001609	0.001585	28.0791	16.001	0.001860	8603.3	11.097	-177.42	17.944	1.080981	0.016890	0.016531	17.4561	8603.3	0.015368	0.015779	1106.28	62574.4
432	2.000000	1.083325	7.36929e+06	-55489.1	1005.82	-29741.6	0.000000	0.000000	7.084505	19.4018	NaN	0.000000	0.001653	0.001608	28.0794	18.239	0.001868	9764.13	8.163660	-179.538	18.6374	1.082945	0.018876	0.018495	19.4018	9764.13	0.017385	0.018599	1043.16	65412.6
432	2.000000	1.085321	7.36929e+06	-55489.1	1005.82	-29741.6	0.000000	0.000000	7.086721	24.7585	NaN	0.000000	0.001667	0.001623	28.0792	19.4296	0.001679	11571.8	4.974857	-175.355	25.1798	1.084976	0.020872	0.020527	24.7585	11571.8	0.019267	0.021404	1156.73	72264.8
432	2.000000	1.087294	7.36929e+06	-55489.1	1005.82	-29741.6	0.000000	0.000000	7.088767	26.52	NaN	0.000000	0.001625	0.001624	28.0793	21.5072	0.001775	12115.7	5.301419	-176.786	26.0226	1.086971	0.022845	0.022522	26.52	12115.7	0.021203	0.024468	1083.84	70765.1
432	2.000000	1.089291	7.36929e+06	-55489.1	1005.82	-29741.6	0.000000	0.000000	7.091011	32.5287	NaN	0.000000	0.001603	0.001669	28.079	24.017	0.001750	13726.6	7.838132	-179.594	32.1586	1.088912	0.024842	0.024462	32.5287	13726.6	0.023064	0.027588	1179.09	75505
432	2.000000	1.091355	7.36929e+06	-55489.1	1005.82	-29741.6	0.000000	0.000000	7.093234	36.4078	NaN	0.000000	0.001630	0.001643	28.079	25.5222	0.001763	14476.4	8.300579	179.929	37.6804	1.090999	0.026906	0.026550	36.4078	14476.4	0.025020	0.031051	1172.51	75057.8
432	2.000000	1.093253	7.36929e+06	-55489.1	1005.82	-29741.6	0.000000	0.000000	7.095162	37.1269	NaN	0.000000	0.001623	0.001683	28.0792	27.7463	0.001862	14902	7.629928	178.787	35.6956	1.092984	0.028803	0.028535	37.1269	14902	0.026935	0.034630	1072.11	73163.3
432	2.000000	1.095230	7.36929e+06	-55489.1	1005.82	-29741.6	0.000000	0.000000	7.097387	43.1601	NaN	0.000000	0.001642	0.001660	28.079	29.2623	0.001685	17365.3	4.992365	179.232	40.9649	1.094903	0.030780	0.030454	43.1601	17365.3	0.028916	0.038527	1120.24	80829.4
432	2.000000	1.097285	7.36929e+06	-55489.1	1005.82	-29741.6	0.000000	0.000000	7.099652	48.2741	NaN	0.000000	0.001618	0.001642	28.0791	30.5311	0.001709	17865.5	6.877990	178.025	49.5609	1.096978	0.032835	0.032528	48.2741	17865.5	0.030809	0.042437	1137.56	79235.2
432	2.000000	1.099263	7.36929e+06	-55489.1	1005.82	-29741.6	0.000000	0.000000	7.101734	50.8082	NaN	0.000000	0.001637	0.001625	28.0797	33.5407	0.001812	18509	7.258455	177.736	51.2361	1.098992	0.034813	0.034542	50.8082	18509	0.032755	0.046647	1089.21	78296.8
432	2.000000	1.101363	7.36929e+06	-55489.1	1005.82	-29741.6	0.000000	0.000000	7.104058	56.2184	NaN	0.000000	0.001651	0.001642	28.0794	36.41	0.001819	20012.4	8.209146	175.597	58.6845	1.101010	0.036914	0.036561	56.2184	20012.4	0.034807	0.051298	1095.92	80727.6
432	2.000000	1.103252	7.36929e+06	-55489.1	1005.82	-29741.6	0.000000	0.000000	7.106256	63.7291	NaN	0.000000	0.001609	0.001627	28.0794	37.062	0.001815	20425.1	6.500545	176.82	62.0567	1.102897	0.038803	0.038448	63.7291	20425.1	0.036463	0.055207	1154.36	79421.9
432	2.000000	1.105279	7.36929e+06	-55489.1	1005.82	-29741.6	0.000000	0.000000	7.108460	68.0444	NaN	0.000000	0.001640	0.001597	28.0793	39.1951	0.001837	21339.7	5.201885	177.632	67.3988	1.104972	0.040830	0.040523	68.0444	21339.7	0.038439	0.060056	1133.02	79558.3
432	2.000000	1.107282	7.36929e+06	-55489.1	1005.82	-29741.6	0.000000	0.000000	7.110726	74.4542	NaN	0.000000	0.001650	0.001615	28.0793	39.8343	0.001862	21388.8	4.375411	179.389	75.7184	1.106964	0.042832	0.042514	74.4542	21388.8	0.040222	0.064603	1152.5	76883.9
432	2.000000	1.109274	7.36929e+06	-55489.1	1005.82	-29741.6	0.000000	0.000000	7.112979	80.7765	NaN	0.000000	0.001660	0.001645	28.0805	41.6376	0.001731	24058.3	3.058088	179.57	83.6026	1.108993	0.044825	0.044544	80.7765	24058.3	0.042307	0.070126	1151.87	83003.7
432	2.000000	1.111303	7.36929e+06	-55489.1	1005.82	-29741.6	0.000000	0.000000	7.115382	89.8812	NaN	0.000000	0.001635	0.001680	28.0806	44.0284	0.001830	24054.6	6.147716	177.26	90.2087	1.110947	0.046854	0.046498	89.8812	24054.6	0.044051	0.074916	1199.75	80294
432	2.000000	1.113299	7.36929e+06	-55489.1	1005.82	-29741.6	0.000000	0.000000	7.117632	96.0392	NaN	0.000000	0.001629	0.001646	28.0806	46.5947	0.001948	23921.7	8.367877	175.195	98.2129	1.112996	0.048850	0.048546	96.0392	23921.7	0.045839	0.079987	1200.69	77278.1
432	2.000000	1.115208	7.36929e+06	-55489.1	1005.82	-29741.6	0.000000	0.000000	7.119849	103.548	NaN	0.000000	0.001641	0.001666	28.0804	47.6049	0.001847	25779.2	6.039968	175.327	102.579	1.114938	0.050758	0.050489	103.548	25779.2	0.047746	0.085573	1210.05	80514.5
432	2.000000	1.117223	7.36929e+06	-55489.1	1005.82	-29741.6	0.000000	0.000000	7.122211	111.979	NaN	0.000000	0.001621	0.001662	28.0803	48.8624	0.001760	27758.4	6.673050	174.772	109.697	1.116855	0.052774	0.052406	111.979	27758.4	0.049748	0.091636	1221.99	83778.7
432	2.000000	1.119228	7.36929e+06	-55489.1	1005.82	-29741.6	0.000000	0.000000	7.124454	117.758	NaN	0.000000	0.001672	0.001650	28.0803	51.5509	0.001708	30180.2	5.193756	175.062	117.973	1.118889	0.054779	0.054440	117.758	30180.2	0.051852	0.098224	1198.87	87980.4
432	2.000000	1.121287	7.36929e+06	-55489.1	1005.82	-29741.6	0.000000	0.000000	7.126921	127.681	NaN	0.000000	0.001622	0.001624	28.0807	54.2247	0.001821	29774.5	6.082828	174.069	127.092	1.120967	0.056837	0.056517	127.681	29774.5	0.053621	0.103934	1228.49	84380.1
432	2.000000	1.123211	7.36929e+06	-55489.1	1005.82	-29741.6	0.000000	0.000000	7.129028	132.128	NaN	0.000000	0.001633	0.001641	28.0807	55.5152	0.001804	30781.9	3.818702	175.317	129.691	1.123013	0.058762	0.058563	132.128	30781.9	0.055542	0.110310	1197.79	84676
432	2.000000	1.125221	7.36929e+06	-55489.1	1005.82	-29741.6	0.000000	0.000000	7.131392	140.713	NaN	0.000000	0.001608	0.001599	28.0806	58.0381	0.001721	33727.3	4.025081	174.466	137.947	1.125044	0.060772	0.060595	140.713	33727.3	0.057643	0.117492	1197.64	89898.1
432	2.000000	1.127252	7.36929e+06	-55489.1	1005.82	-29741.6	0.000000	0.000000	7.134092	156.995	NaN	0.000000	0.001620	0.001620	28.0805	59.2357	0.001888	31369.7	5.306591	175.715	157.269	1.126975	0.062803	0.062526	156.995	31369.7	0.059049	0.122422	1282.41	81913.2
432	2.000000	1.129129	7.36929e+06	-55489.1	1005.82	-29741.6	0.000000	0.000000	7.136578	171.789	NaN	0.000000	0.001644	0.001633	28.0802	60.8085	0.001760	34541.7	5.221832	173.99	167.756	1.128809	0.064680	0.064360	171.789	34541.7	0.060950	0.129236	1329.26	87785.9
432	2.000000	1.131177	7.36929e+06	-55489.1	1005.82	-29741.6	0.000000	0.000000	7.139084	182.93	NaN	0.000000	0.001629	0.001659	28.0805	62.6186	0.001774	35295.9	2.631872	176.573	178.462	1.130913	0.066728	0.066464	182.93	35295.9	0.062841	0.136191	1343.19	87382.4
432	2.000000	1.133224	7.36929e+06	-55489.1	1005.82	-29741.6	0.000000	0.000000	7.141402	189.511	NaN	0.000000	0.001654	0.001631	28.0804	64.5211	0.001792	36012.6	4.053483	174.457	189.894	1.132978	0.068775	0.068529	189.511	36012.6	0.064828	0.143688	1318.9	86799.5
432	2.000000	1.135191	7.36929e+06	-55489.1	1005.82	-29741.6	0.000000	0.000000	7.143922	202.961	NaN	0.000000	0.001626	0.001669	28.0803	67.1023	0.001724	38929.3	2.267894	176.323	200.8	1.134882	0.070741	0.070432	202.961	38929.3	0.066831	0.151437	1340.24	91397.4
432	2.000000	1.137193	7.36929e+06	-55489.1	1005.82	-29741.6	0.000000	0.000000	7.146460	215.986	NaN	0.000000	0.001630	0.001642	28.0802	68.0867	0.001749	38930.2	1.701554	176.884	212.741	1.136856	0.072744	0.072406	215.986	38930.2	0.068583	0.158371	1363.8	89376.4
432	2.000000	1.139099	7.36929e+06	-55489.1	1005.82	-29741.6	0.000000	0.000000	7.148841	227.527	NaN	0.000000	0.001603	0.001633	28.0802	70.8224	0.001707	41495.4	5.228352	172.245	221.364	1.138820	0.074650	0.074371	227.527	41495.4	0.070537	0.166280	1368.33	92972.2
432	2.000000	1.141231	7.36929e+06	-55489.1	1005.82	-29741.6	0.000000	0.000000	7.151391	237.692	NaN	0.000000	0.001601	0.001619	28.0803	73.1978	0.001742	42025	4.515957	173.095	236.676	1.140960	0.076782	0.076511	237.692	42025	0.072540	0.174572	1361.57	91895.3
432	2.000000	1.143185	7.36929e+06	-55489.1	1005.82	-29741.6	0.000000	0.000000	7.153862	250.264	NaN	0.000000	0.001584	0.001620	28.0799	74.4899	0.001749	42592.8	3.644843	173.72	248.476	1.142982	0.078736	0.078533	250.264	42592.8	0.074329	0.182141	1374.01	91181.1
432	2.000000	1.145171	7.36929e+06	-55489.1	1005.82	-29741.6	0.000000	0.000000	7.156151	257.645	NaN	0.000000	0.001612	0.001644	28.0793	77.7275	0.001903	40851.4	1.606889	176.252	255.68	1.144962	0.080722	0.080513	257.645	40851.4	0.075991	0.189311	1360.96	85781.2
432	2.000000	1.147180	7.36929e+06	-55489.1	1005.82	-29741.6	0.000000	0.000000	7.159087	280.161	NaN	0.000000	0.001606	0.001615	28.079	79.1696	0.001779	44506.7	8.487801	169.399	278.187	1.146772	0.082731	0.082323	280.161	44506.7	0.078010	0.198188	1413.61	91339.8
432	2.000000	1.149199	7.36929e+06	-55489.1	1005.82	-29741.6	0.000000	0.000000	7.161596	292.077	NaN	0.000000	0.001619	0.001639	28.079	80.0201	0.001659	48243	1.699072	175.019	291.426	1.148845	0.084750	0.084396	292.077	48243	0.080209	0.208080	1403.68	96625.7
432	2.000000	1.151194	7.36929e+06	-55489.1	1005.82	-29741.6	0.000000	0.000000	7.164302	309.376	NaN	0.000000	0.001693	0.001607	28.0791	83.7839	0.001935	43290.3	7.665332	171.042	307.187	1.150877	0.086744	0.086428	309.376	43290.3	0.081385	0.213457	1449.36	85606.8
432	2.000000	1.153261	7.36929e+06	-55489.1	1005.82	-29741.6	0.000000	0.000000	7.166701	317.445	NaN	0.000000	0.001712	0.001654	28.0791	84.7652	0.001720	49285.9	4.027070	172.697	321.476	1.152851	0.088812	0.088401	317.445	49285.9	0.083981	0.225564	1407.34	94811.5
432	2.000000	1.155149	7.36929e+06	-55489.1	1005.82	-29741.6	0.000000	0.000000	7.169125	330.471	NaN	0.000000	0.001703	0.001636	28.0792	87.9942	0.001873	46985	4.568288	172.53	326.7	1.154970	0.090700	0.090520	330.471	46985	0.085425	0.232431	1421.8	89040
432	2.000000	1.157157	7.36929e+06	-55489.1	1005.82	-29741.6	0.000000	0.000000	7.172144	355.049	NaN	0.000000	0.001704	0.001659	28.0791	88.4961	0.001704	51940.7	6.933727	169.71	352.854	1.156727	0.092707	0.092277	355.049	51940.7	0.087581	0.242866	1461.92	96293.6
432	2.000000	1.159186	7.36929e+06	-55489.1	1005.82	-29741.6	0.000000	0.000000	7.174500	362.981	NaN	0.000000	0.001709	0.001658	28.0791	90.4088	0.001799	50241.4	4.694374	171.73	362.552	1.158896	0.094737	0.094446	362.981	50241.4	0.089318	0.251430	1443.67	91543.2
432	2.000000	1.161325	7.36929e+06	-55489.1	1005.82	-29741.6	0.000000	0.000000	7.177176	376.05	NaN	0.000000	0.001719	0.001662	28.079	92.226	0.001882	49006.6	8.209244	169.914	380.108	1.160737	0.096876	0.096288	376.05	49006.6	0.091120	0.260461	1443.78	87731.7
432	2.000000	1.163275	7.36929e+06	-55489.1	1005.82	-29741.6	0.000000	0.000000	7.179382	382.264	NaN	0.000000	0.001699	0.001603	28.0793	94.5005	0.001855	50932.3	4.939593	171.78	391.88	1.162880	0.098826	0.098431	382.264	50932.3	0.093197	0.271048	1410.32	89380.6
432	2.000000	1.165141	7.36929e+06	-55489.1	1005.82	-29741.6	0.000000	0.000000	7.182345	408.91	NaN	0.000000	0.001741	0.001671	28.0791	96.6205	0.001766	54703.8	7.306803	168.947	406.76	1.164732	0.100692	0.100283	408.91	54703.8	0.095086	0.280853	1455.95	94308.6
432	2.000000	1.167176	7.36929e+06	-55489.1	1005.82	-29741.6	0.000000	0.000000	7.184898	421.513	NaN	0.000000	0.001716	0.001609	28.0793	96.8576	0.001818	53277.8	4.445695	171.685	420.34	1.166900	0.102727	0.102451	421.513	53277.8	0.096793	0.289853	1454.23	90412.9
432	2.000000	1.169136	7.36929e+06	-55489.1	1005.82	-29741.6	0.000000	0.000000	7.187157	428.791	NaN	0.000000	0.001707	0.001631	28.0791	100.167	0.001811	55302.2	3.116917	172.607	425.067	1.168885	0.104687	0.104436	428.791	55302.2	0.098871	0.300989	1424.61	92095.9
432	2.000000	1.171236	7.36929e+06	-55489.1	1005.82	-29741.6	0.000000	0.000000	7.189749	440.737	NaN	0.000000	0.001719	0.001639	28.0789	102.894	0.001795	57317.3	5.293501	170.24	440.141	1.171054	0.106787	0.106604	440.737	57317.3	0.101020	0.312709	1409.42	93645.8