File: remote_trans/data/nanoindenter/0828-1/data/Data_2025-08-06,11h17m57s/2025-07-22_16-23-58_1_414.txt
2025-07-22, 16:23:58, 1
Index	Phase	Displacement	Time	Pos X	Pos Y	Pos Z	Rot A	Rot B	Piezo Z	Force A	Force B	Gripper	Voltage A	Voltage B	Temperature	Amplitude force	Amplitude pos	Stiffness	Phase shift	Phase excitation	Force A raw	Displacement raw	HMax	HMax raw	Real Force	Real Stiffness	Contact Depth	Area	Hardness	Reduced Mod.
[#]	[#]	[um]	[s]	[um]	[um]	[um]	[m°]	[m°]	[um]	[uN]	[uN]	[V]	[V]	[V]	[°C]	[uN]	[um]	[N/m]	[°]	[°]	[uN]	[um]	[um]	[um]	[uN]	[N/m]	[um]	[um^2]	[MPa]	[MPa]
414	1.000000	0.002609	7.36911e+06	-56389.1	1005.82	-29739.2	0.000000	0.000000	6.002794	0.109165	NaN	0.000000	0.001700	0.001634	28.0824	0.090744	0.000989	91.7083	60.571	-170.576	0.091303	0.001320	-1.146196	-1.147485	0.109165	91.7083	-1.147089	-2.146781E+15	-5.085077E-17	NaN
414	1.000000	0.012676	7.36911e+06	-56389.1	1005.82	-29739.2	0.000000	0.000000	6.012862	0.116785	NaN	0.000000	0.001679	0.001648	28.0821	0.093642	0.001144	81.8315	-43.2296	14.772	0.075781	0.011260	-1.136129	-1.137545	0.116785	81.8315	-1.137199	-1.581894E+15	-7.382588E-17	NaN
414	1.000000	0.022576	7.36911e+06	-56389.1	1005.82	-29739.2	0.000000	0.000000	6.022756	-0.009811	NaN	0.000000	0.001693	0.001650	28.0821	0.050955	0.001713	29.753	121.297	-165.085	-0.042857	0.021314	-1.126229	-1.127491	-0.009811	29.753	-1.125982	-1.118727E+15	8.769791E-18	NaN
414	1.000000	0.032568	7.36911e+06	-56389.1	1005.82	-29739.2	0.000000	0.000000	6.032746	-0.058311	NaN	0.000000	0.001743	0.001644	28.0824	0.090887	0.001921	47.3155	-154.129	14.4989	-0.089705	0.031198	-1.116237	-1.117606	-0.058311	47.3155	-1.115313	-8.045960E+14	7.247188E-17	NaN
414	1.000000	0.042571	7.36911e+06	-56389.1	1005.82	-29739.2	0.000000	0.000000	6.042756	0.093578	NaN	0.000000	0.001701	0.001625	28.0811	0.066047	0.002045	32.2919	146.607	-163.456	0.095525	0.041298	-1.106233	-1.107507	0.093578	32.2919	-1.108407	-6.499915E+14	-1.439683E-16	NaN
414	1.000000	0.052569	7.36911e+06	-56389.1	1005.82	-29739.2	0.000000	0.000000	6.052751	0.011827	NaN	0.000000	0.001732	0.001581	28.0814	0.122184	0.001994	61.276	-90.1731	15.6006	-0.000801	0.051211	-1.096235	-1.097594	0.011827	61.276	-1.096380	-4.482018E+14	-2.638753E-17	NaN
414	1.000000	0.062576	7.36911e+06	-56389.1	1005.82	-29739.2	0.000000	0.000000	6.062757	-0.015572	NaN	0.000000	0.001726	0.001655	28.0807	0.037148	0.001993	18.6436	133.148	-162.363	0.049249	0.061269	-1.086229	-1.087536	-0.015572	18.6436	-1.085602	-3.211857E+14	4.848291E-17	NaN
414	1.000000	0.072584	7.36911e+06	-56389.1	1005.82	-29739.2	0.000000	0.000000	6.072765	0.020433	NaN	0.000000	0.001725	0.001632	28.0815	0.071196	0.002098	33.9275	85.8367	16.2428	-0.000267	0.071248	-1.076221	-1.077557	0.020433	33.9275	-1.076673	-2.436857E+14	-8.384874E-17	NaN
414	1.000000	0.082594	7.36911e+06	-56389.1	1005.82	-29739.2	0.000000	0.000000	6.082777	0.060715	NaN	0.000000	0.001662	0.001617	28.0807	0.049781	0.001961	25.384	-11.8277	-165.927	0.029175	0.081291	-1.066211	-1.067514	0.060715	25.384	-1.068005	-1.863724E+14	-3.257717E-16	NaN
414	1.000000	0.092582	7.36911e+06	-56389.1	1005.82	-29739.2	0.000000	0.000000	6.092761	-0.033616	NaN	0.000000	0.001639	0.001650	28.0809	0.021020	0.002132	9.858615	-116.425	19.0745	-0.089140	0.091216	-1.056223	-1.057589	-0.033616	9.858615	-1.053666	-1.195880E+14	2.810962E-16	NaN
414	1.000000	0.102612	7.36911e+06	-56389.1	1005.82	-29739.2	0.000000	0.000000	6.102795	0.049156	NaN	0.000000	0.001647	0.001653	28.0804	0.120150	0.002025	59.3447	16.6827	-165.834	-0.054102	0.101297	-1.046193	-1.047508	0.049156	59.3447	-1.046814	-9.673548E+13	-5.081459E-16	NaN
414	1.000000	0.112641	7.36911e+06	-56389.1	1005.82	-29739.2	0.000000	0.000000	6.112820	-0.035019	NaN	0.000000	0.001645	0.001663	28.0812	0.046555	0.002038	22.8483	-74.8031	15.2485	0.010994	0.111209	-1.036164	-1.037596	-0.035019	22.8483	-1.035015	-6.713171E+13	5.216461E-16	NaN
414	1.000000	0.122573	7.36911e+06	-56389.1	1005.82	-29739.2	0.000000	0.000000	6.122756	0.053169	NaN	0.000000	0.001641	0.001678	28.0811	0.079999	0.001937	41.2973	129.046	-166.373	-0.055478	0.121304	-1.026232	-1.027501	0.053169	41.2973	-1.027197	-5.269610E+13	-1.008974E-15	NaN
414	1.000000	0.132619	7.36911e+06	-56389.1	1005.82	-29739.2	0.000000	0.000000	6.132802	0.057641	NaN	0.000000	0.001615	0.001680	28.0812	0.088594	0.001972	44.934	16.921	15.9627	0.078697	0.131257	-1.016186	-1.017548	0.057641	44.934	-1.017148	-3.859954E+13	-1.493315E-15	NaN
414	1.000000	0.142617	7.36911e+06	-56389.1	1005.82	-29739.2	0.000000	0.000000	6.142798	0.015842	NaN	0.000000	0.001621	0.001661	28.0811	0.048607	0.002021	24.0526	101.152	-162.48	0.021040	0.141339	-1.006188	-1.007466	0.015842	24.0526	-1.006682	-2.790758E+13	-5.676662E-16	NaN
414	1.000000	0.152608	7.36911e+06	-56389.1	1005.82	-29739.2	0.000000	0.000000	6.152791	0.059569	NaN	0.000000	0.001642	0.001640	28.0811	0.042635	0.001993	21.3961	148.722	15.9384	0.080865	0.151233	-0.996197	-0.997572	0.059569	21.3961	-0.998285	-2.151184E+13	-2.769111E-15	NaN
414	1.000000	0.162592	7.36911e+06	-56389.1	1005.82	-29739.2	0.000000	0.000000	6.162772	-0.037671	NaN	0.000000	0.001675	0.001691	28.081	0.020164	0.001988	10.1443	-27.42	-163.018	-0.001608	0.161283	-0.986212	-0.987522	-0.037671	10.1443	-0.983427	-1.357006E+13	2.776068E-15	NaN
414	1.000000	0.172630	7.36911e+06	-56389.1	1005.82	-29739.2	0.000000	0.000000	6.172810	-0.032075	NaN	0.000000	0.001664	0.001657	28.0808	0.065841	0.001836	35.8692	-7.540776	17.4996	0.024265	0.171263	-0.976174	-0.977542	-0.032075	35.8692	-0.975504	-1.061282E+13	3.022252E-15	NaN
414	1.000000	0.182612	7.36911e+06	-56389.1	1005.82	-29739.2	0.000000	0.000000	6.182792	-0.022137	NaN	0.000000	0.001667	0.001685	28.0823	0.062593	0.001927	32.4847	112.871	-165.792	0.022165	0.181291	-0.966193	-0.967514	-0.022137	32.4847	-0.965682	-7.824532E+12	2.829188E-15	NaN
414	1.000000	0.192622	7.36911e+06	-56389.1	1005.82	-29739.2	0.000000	0.000000	6.192800	-0.051180	NaN	0.000000	0.001662	0.001655	28.0822	0.036652	0.001952	18.775	-80.3188	15.7224	-0.026976	0.191188	-0.956183	-0.957616	-0.051180	18.775	-0.954139	-5.468177E+12	9.359554E-15	NaN
414	1.000000	0.202623	7.36911e+06	-56389.1	1005.82	-29739.2	0.000000	0.000000	6.202804	-0.003178	NaN	0.000000	0.001686	0.001645	28.082	0.057837	0.002000	28.9193	-54.1347	-164.833	0.036594	0.201340	-0.946182	-0.947465	-0.003178	28.9193	-0.946099	-4.260053E+12	7.460105E-16	NaN
414	1.000000	0.212630	7.36911e+06	-56389.1	1005.82	-29739.2	0.000000	0.000000	6.212809	-0.046915	NaN	0.000000	0.001681	0.001693	28.0822	0.031627	0.001943	16.2743	-107.582	15.0142	0.008337	0.211299	-0.936175	-0.937506	-0.046915	16.2743	-0.934013	-2.926507E+12	1.603108E-14	NaN
414	1.000000	0.222647	7.36911e+06	-56389.1	1005.82	-29739.2	0.000000	0.000000	6.222824	-0.100567	NaN	0.000000	0.001671	0.001703	28.0822	0.118595	0.001989	59.6364	-132.687	-164.943	-0.045767	0.221332	-0.926158	-0.927473	-0.100567	59.6364	-0.924893	-2.204280E+12	4.562341E-14	NaN
414	1.000000	0.232638	7.36911e+06	-56389.1	1005.82	-29739.2	0.000000	0.000000	6.232818	-0.031260	NaN	0.000000	0.001666	0.001659	28.0823	0.051289	0.002052	24.9906	-121.715	19.5241	-0.077350	0.231333	-0.916166	-0.917471	-0.031260	24.9906	-0.915228	-1.632201E+12	1.915216E-14	NaN
414	1.000000	0.242657	7.36911e+06	-56389.1	1005.82	-29739.2	0.000000	0.000000	6.242840	0.054210	NaN	0.000000	0.001669	0.001636	28.0821	0.071889	0.002086	34.47	23.2222	-164.843	-0.015357	0.241404	-0.906147	-0.907401	0.054210	34.47	-0.907327	-1.276606E+12	-4.246419E-14	NaN
414	1.000000	0.252646	7.36911e+06	-56389.1	1005.82	-29739.2	0.000000	0.000000	6.252827	0.005854	NaN	0.000000	0.001632	0.001629	28.0826	0.162407	0.001952	83.2208	45.1543	14.358	-0.061376	0.251298	-0.896159	-0.897506	0.005854	83.2208	-0.896212	-9.033961E+11	-6.479954E-15	NaN
414	1.000000	0.262661	7.36911e+06	-56389.1	1005.82	-29739.2	0.000000	0.000000	6.262841	-0.026752	NaN	0.000000	0.001665	0.001619	28.0823	0.026960	0.001989	13.554	-160.644	-165.501	-0.005530	0.261370	-0.886143	-0.887434	-0.026752	13.554	-0.884663	-6.306149E+11	4.242182E-14	NaN
414	1.000000	0.272644	7.36911e+06	-56389.1	1005.82	-29739.2	0.000000	0.000000	6.272824	-0.030372	NaN	0.000000	0.001660	0.001603	28.0823	0.099906	0.002021	49.4319	139.593	16.8635	-0.045208	0.271309	-0.876161	-0.877496	-0.030372	49.4319	-0.875700	-4.770325E+11	6.366912E-14	NaN
414	1.000000	0.282645	7.36911e+06	-56389.1	1005.82	-29739.2	0.000000	0.000000	6.282823	-0.058670	NaN	0.000000	0.001674	0.001613	28.0825	0.050848	0.001915	26.5477	163.288	-162.122	-0.054945	0.281272	-0.866160	-0.867533	-0.058670	26.5477	-0.864503	-3.365580E+11	1.743250E-13	NaN
414	1.000000	0.292652	7.36911e+06	-56389.1	1005.82	-29739.2	0.000000	0.000000	6.292830	-0.066476	NaN	0.000000	0.001684	0.001622	28.0825	0.102649	0.001917	53.5489	-178.383	15.7414	-0.011663	0.291253	-0.856153	-0.857552	-0.066476	53.5489	-0.855222	-2.520252E+11	2.637682E-13	NaN
414	1.000000	0.302691	7.36911e+06	-56389.1	1005.82	-29739.2	0.000000	0.000000	6.302871	-0.011330	NaN	0.000000	0.001681	0.001638	28.0825	0.094938	0.002078	45.6839	-99.915	-168.016	-0.041628	0.301439	-0.846114	-0.847366	-0.011330	45.6839	-0.845928	-1.886226E+11	6.006757E-14	NaN
414	1.000000	0.312684	7.36911e+06	-56389.1	1005.82	-29739.2	0.000000	0.000000	6.312867	0.032511	NaN	0.000000	0.001663	0.001622	28.0823	0.109436	0.001995	54.8475	-98.2464	15.8087	-0.020061	0.311356	-0.836120	-0.837449	0.032511	54.8475	-0.836565	-1.408484E+11	-2.308194E-13	NaN
414	1.000000	0.322672	7.36911e+06	-56389.1	1005.82	-29739.2	0.000000	0.000000	6.322853	0.021342	NaN	0.000000	0.001668	0.001657	28.0817	0.004238	0.002050	2.067229	81.8205	-166.559	0.009456	0.321359	-0.826133	-0.827446	0.021342	2.067229	-0.833876	-1.295152E+11	-1.647865E-13	NaN
414	1.000000	0.332686	7.36911e+06	-56389.1	1005.82	-29739.2	0.000000	0.000000	6.332864	-0.060907	NaN	0.000000	0.001763	0.001603	28.0813	0.098408	0.002042	48.1864	-106.585	18.5056	-0.084038	0.331322	-0.816119	-0.817482	-0.060907	48.1864	-0.815171	-7.223084E+10	8.432243E-13	NaN
414	1.000000	0.342681	7.36911e+06	-56389.1	1005.82	-29739.2	0.000000	0.000000	6.342861	-0.007234	NaN	0.000000	0.001734	0.001649	28.0815	0.036819	0.002056	17.9124	114.058	-163.193	0.021334	0.341396	-0.806124	-0.807409	-0.007234	17.9124	-0.805821	-5.393481E+10	1.341169E-13	NaN
414	1.000000	0.352704	7.36911e+06	-56389.1	1005.82	-29739.2	0.000000	0.000000	6.352885	0.007117	NaN	0.000000	0.001748	0.001642	28.081	0.046676	0.002037	22.9129	76.8834	13.6614	0.001957	0.351320	-0.796101	-0.797484	0.007117	22.9129	-0.796334	-4.009544E+10	-1.775017E-13	NaN
414	1.000000	0.362700	7.36911e+06	-56389.1	1005.82	-29739.2	0.000000	0.000000	6.362880	-0.023057	NaN	0.000000	0.001741	0.001659	28.0813	0.069805	0.001918	36.4033	15.6981	-163.061	0.025874	0.361356	-0.786105	-0.787449	-0.023057	36.4033	-0.785630	-2.868943E+10	8.036894E-13	NaN
414	1.000000	0.372675	7.36911e+06	-56389.1	1005.82	-29739.2	0.000000	0.000000	6.372857	0.007792	NaN	0.000000	0.001733	0.001637	28.0809	0.023420	0.002025	11.5656	22.349	14.9487	-0.024601	0.371360	-0.776129	-0.777445	0.007792	11.5656	-0.776635	-2.165197E+10	-3.598927E-13	NaN
414	1.000000	0.382725	7.36911e+06	-56389.1	1005.82	-29739.2	0.000000	0.000000	6.382904	-0.029359	NaN	0.000000	0.001741	0.001648	28.081	0.029658	0.001980	14.9761	36.5335	-167.308	-0.036824	0.381442	-0.766080	-0.767363	-0.029359	14.9761	-0.764610	-1.485965E+10	1.975732E-12	NaN
414	1.000000	0.392714	7.36911e+06	-56389.1	1005.82	-29739.2	0.000000	0.000000	6.392897	0.040732	NaN	0.000000	0.001748	0.001633	28.0809	0.066403	0.002026	32.7761	157.464	14.7208	0.057183	0.391322	-0.756091	-0.757483	0.040732	32.7761	-0.757023	-1.171648E+10	-3.476457E-12	NaN
414	1.000000	0.402741	7.36911e+06	-56389.1	1005.82	-29739.2	0.000000	0.000000	6.402924	0.044442	NaN	0.000000	0.001717	0.001640	28.0813	0.076185	0.002002	38.0565	154.668	-165.259	0.038892	0.401383	-0.746064	-0.747422	0.044442	38.0565	-0.746939	-8.541926E+9	-5.202820E-12	NaN
414	1.000000	0.412756	7.36911e+06	-56389.1	1005.82	-29739.2	0.000000	0.000000	6.412935	-0.064388	NaN	0.000000	0.001770	0.001632	28.081	0.079094	0.001940	40.7681	105.11	15.7144	0.071044	0.411370	-0.736049	-0.737435	-0.064388	40.7681	-0.734864	-5.849111E+9	1.100824E-11	NaN
414	1.000000	0.422720	7.36911e+06	-56389.1	1005.82	-29739.2	0.000000	0.000000	6.422901	0.009404	NaN	0.000000	0.001767	0.001631	28.081	0.164954	0.002039	80.9069	83.1979	-164.12	0.021758	0.421389	-0.726085	-0.727416	0.009404	80.9069	-0.726172	-4.452742E+9	-2.111858E-12	NaN
414	1.000000	0.432739	7.36911e+06	-56389.1	1005.82	-29739.2	0.000000	0.000000	6.432922	0.048948	NaN	0.000000	0.001705	0.001620	28.0808	0.006444	0.001966	3.277831	-157.543	16.382	-0.081106	0.431434	-0.716066	-0.717370	0.048948	3.277831	-0.727265	-4.608244E+9	-1.062178E-11	NaN
414	1.000000	0.442767	7.36911e+06	-56389.1	1005.82	-29739.2	0.000000	0.000000	6.442948	-0.004124	NaN	0.000000	0.001684	0.001632	28.081	0.070654	0.001987	35.5621	161.961	-162.336	0.070308	0.441367	-0.706038	-0.707438	-0.004124	35.5621	-0.705951	-2.359290E+9	1.747945E-12	NaN
414	1.000000	0.452757	7.36911e+06	-56389.1	1005.82	-29739.2	0.000000	0.000000	6.452940	0.047696	NaN	0.000000	0.001657	0.001629	28.0818	0.066847	0.001969	33.9477	171.244	18.4836	0.027620	0.451426	-0.696048	-0.697379	0.047696	33.9477	-0.697101	-1.786255E+9	-2.670147E-11	NaN
414	1.000000	0.462730	7.36911e+06	-56389.1	1005.82	-29739.2	0.000000	0.000000	6.462913	0.049831	NaN	0.000000	0.001711	0.001567	28.0823	0.062199	0.001979	31.4346	-96.1166	-164.838	0.023390	0.461397	-0.686075	-0.687408	0.049831	31.4346	-0.687264	-1.310751E+9	-3.801716E-11	NaN
414	1.000000	0.472760	7.36911e+06	-56389.1	1005.82	-29739.2	0.000000	0.000000	6.472940	-0.002756	NaN	0.000000	0.001724	0.001617	28.0823	0.102792	0.001877	54.7519	25.8307	14.9991	0.011929	0.471411	-0.676045	-0.677394	-0.002756	54.7519	-0.676007	-9.195885E+8	2.996497E-12	NaN
414	1.000000	0.482770	7.36911e+06	-56389.1	1005.82	-29739.2	0.000000	0.000000	6.482950	-0.018123	NaN	0.000000	0.001732	0.001634	28.0823	0.079678	0.001949	40.874	12.2632	-165.039	-0.056395	0.481413	-0.666035	-0.667392	-0.018123	40.874	-0.665703	-6.646067E+8	2.726906E-11	NaN
414	1.000000	0.492743	7.36911e+06	-56389.1	1005.82	-29739.2	0.000000	0.000000	6.492923	-0.028407	NaN	0.000000	0.001710	0.001626	28.0821	0.052300	0.001978	26.4351	77.6058	16.6441	0.002665	0.491407	-0.656062	-0.657398	-0.028407	26.4351	-0.655256	-4.780516E+8	5.942283E-11	NaN
414	1.000000	0.502759	7.36911e+06	-56389.1	1005.82	-29739.2	0.000000	0.000000	6.502938	-0.036669	NaN	0.000000	0.001697	0.001622	28.0821	0.083023	0.001996	41.6014	13.237	-168.38	0.019937	0.501451	-0.646046	-0.647354	-0.036669	41.6014	-0.645385	-3.500734E+8	1.047468E-10	NaN
414	1.000000	0.512771	7.36911e+06	-56389.1	1005.82	-29739.2	0.000000	0.000000	6.512952	-0.007956	NaN	0.000000	0.001709	0.001625	28.0821	0.044398	0.002170	20.4553	175.958	14.0983	0.031123	0.511334	-0.636034	-0.637471	-0.007956	20.4553	-0.635742	-2.581406E+8	3.081973E-11	NaN
414	1.000000	0.522743	7.36911e+06	-56389.1	1005.82	-29739.2	0.000000	0.000000	6.522923	-0.018332	NaN	0.000000	0.001699	0.001632	28.082	0.026561	0.001934	13.7306	-24.1736	-163.559	0.004170	0.521424	-0.626062	-0.627381	-0.018332	13.7306	-0.625060	-1.841511E+8	9.955091E-11	NaN
414	1.000000	0.532771	7.36911e+06	-56389.1	1005.82	-29739.2	0.000000	0.000000	6.532952	-0.013424	NaN	0.000000	0.001712	0.001597	28.082	0.067204	0.002054	32.7232	24.6128	15.5952	-0.033302	0.531396	-0.616034	-0.617409	-0.013424	32.7232	-0.615726	-1.370477E+8	9.795196E-11	NaN
414	1.000000	0.542782	7.36911e+06	-56389.1	1005.82	-29739.2	0.000000	0.000000	6.542964	0.014071	NaN	0.000000	0.001746	0.001592	28.0822	0.030543	0.001941	15.7345	-43.6543	-162.245	0.025708	0.541472	-0.606023	-0.607333	0.014071	15.7345	-0.606693	-1.029464E+8	-1.366792E-10	NaN
414	1.000000	0.552803	7.36911e+06	-56389.1	1005.82	-29739.2	0.000000	0.000000	6.552984	0.003074	NaN	0.000000	0.001769	0.001637	28.0822	0.064892	0.001974	32.8783	-39.3993	15.308	-0.026258	0.551462	-0.596002	-0.597343	0.003074	32.8783	-0.596072	-7.351066E+7	-4.182355E-11	NaN
414	1.000000	0.562784	7.36911e+06	-56389.1	1005.82	-29739.2	0.000000	0.000000	6.562963	-0.030533	NaN	0.000000	0.001760	0.001614	28.082	0.082019	0.002055	39.9052	-9.657954	-166.847	0.031264	0.561506	-0.586021	-0.587299	-0.030533	39.9052	-0.585447	-5.246675E+7	5.819527E-10	NaN
414	1.000000	0.572785	7.36911e+06	-56389.1	1005.82	-29739.2	0.000000	0.000000	6.572969	0.067211	NaN	0.000000	0.001782	0.001596	28.0824	0.046661	0.002009	23.2212	9.619273	15.6564	0.003306	0.571392	-0.576020	-0.577413	0.067211	23.2212	-0.578190	-4.166267E+7	-1.613210E-9	NaN
414	1.000000	0.582802	7.36911e+06	-56389.1	1005.82	-29739.2	0.000000	0.000000	6.582985	0.039691	NaN	0.000000	0.001762	0.001589	28.0824	0.092305	0.001933	47.7641	123.973	-166.963	-0.007449	0.581518	-0.566003	-0.567287	0.039691	47.7641	-0.566626	-2.884053E+7	-1.376240E-9	NaN
414	1.000000	0.592807	7.36911e+06	-56389.1	1005.82	-29739.2	0.000000	0.000000	6.592989	0.034049	NaN	0.000000	0.001781	0.001606	28.081	0.061612	0.001937	31.8092	-25.2771	13.9255	-0.019550	0.591432	-0.555998	-0.557373	0.034049	31.8092	-0.556801	-2.109177E+7	-1.614318E-9	NaN
414	1.000000	0.602788	7.36911e+06	-56389.1	1005.82	-29739.2	0.000000	0.000000	6.602967	-0.027951	NaN	0.000000	0.001751	0.001619	28.0806	0.036004	0.002083	17.2885	-42.6501	-162.869	-0.023662	0.601467	-0.546017	-0.547337	-0.027951	17.2885	-0.544805	-1.438704E+7	1.942760E-9	NaN
414	1.000000	0.612824	7.36911e+06	-56389.1	1005.82	-29739.2	0.000000	0.000000	6.613003	-0.053339	NaN	0.000000	0.001797	0.001618	28.0807	0.134493	0.002053	65.5089	53.6178	16.9587	0.030920	0.611470	-0.535981	-0.537335	-0.053339	65.5089	-0.535370	-1.064446E+7	5.010932E-9	NaN
414	1.000000	0.622825	7.36911e+06	-56389.1	1005.82	-29739.2	0.000000	0.000000	6.623004	-0.052296	NaN	0.000000	0.001754	0.001631	28.081	0.095449	0.002116	45.1101	-98.1089	-165.653	-0.032894	0.621493	-0.525980	-0.527312	-0.052296	45.1101	-0.525110	-7.66731e+06	6.820668E-9	NaN
414	1.000000	0.632810	7.36911e+06	-56389.1	1005.82	-29739.2	0.000000	0.000000	6.632989	-0.030811	NaN	0.000000	0.001691	0.001633	28.0807	0.020818	0.002001	10.402	-21.2512	16.5151	-0.021077	0.631492	-0.515995	-0.517313	-0.030811	10.402	-0.513774	-5.33287e+06	5.777575E-9	NaN
414	1.000000	0.642816	7.36911e+06	-56389.1	1005.82	-29739.2	0.000000	0.000000	6.642997	-0.004937	NaN	0.000000	0.001658	0.001632	28.0807	0.061006	0.002052	29.7337	125.843	-162.565	-0.039140	0.641520	-0.505989	-0.507284	-0.004937	29.7337	-0.505864	-4.13802e+06	1.193025E-9	NaN
414	1.000000	0.652809	7.36911e+06	-56389.1	1005.82	-29739.2	0.000000	0.000000	6.652990	-0.001054	NaN	0.000000	0.001741	0.001601	28.0808	0.047851	0.002147	22.289	162.672	15.2687	0.029218	0.651464	-0.495995	-0.497341	-0.001054	22.289	-0.495960	-3.01048e+06	3.501950E-10	NaN
414	1.000000	0.662826	7.36911e+06	-56389.1	1005.82	-29739.2	0.000000	0.000000	6.663007	-0.016557	NaN	0.000000	0.001734	0.001610	28.0808	0.086942	0.002176	39.9579	-174.69	-158.695	-0.041178	0.661507	-0.485979	-0.487297	-0.016557	39.9579	-0.485668	-2.16187e+06	7.658641E-9	NaN
414	1.000000	0.672848	7.36911e+06	-56389.1	1005.82	-29739.2	0.000000	0.000000	6.673027	-0.041293	NaN	0.000000	0.001728	0.001624	28.0809	0.049147	0.002026	24.2578	-50.6813	16.0901	-0.107048	0.671486	-0.475957	-0.477319	-0.041293	24.2578	-0.474680	-1.51712e+06	2.721826E-8	NaN
414	1.000000	0.682855	7.36911e+06	-56389.1	1005.82	-29739.2	0.000000	0.000000	6.683034	-0.026310	NaN	0.000000	0.001710	0.001638	28.0809	0.075898	0.002065	36.7544	-175.414	-165.194	-0.038237	0.681537	-0.465950	-0.467268	-0.026310	36.7544	-0.465413	-1.12474e+06	2.339215E-8	NaN
414	1.000000	0.692849	7.36911e+06	-56389.1	1005.82	-29739.2	0.000000	0.000000	6.693029	-0.021069	NaN	0.000000	0.001728	0.001628	28.0812	0.050882	0.001905	26.7096	-1.107879	15.0074	0.029304	0.691500	-0.455956	-0.457305	-0.021069	26.7096	-0.455364	-812539	2.593026E-8	NaN
414	1.000000	0.702860	7.36911e+06	-56389.1	1005.82	-29739.2	0.000000	0.000000	6.703038	-0.048426	NaN	0.000000	0.001713	0.001639	28.0809	0.031088	0.001941	16.0203	95.8164	-163.724	0.025243	0.701548	-0.445945	-0.447257	-0.048426	16.0203	-0.443678	-556230	8.706176E-8	NaN
414	1.000000	0.712833	7.36911e+06	-56389.1	1005.82	-29739.2	0.000000	0.000000	6.713013	-0.017191	NaN	0.000000	0.001741	0.001641	28.0811	0.071622	0.001973	36.2922	-15.672	15.2755	0.049212	0.711458	-0.435972	-0.437347	-0.017191	36.2922	-0.435617	-428027	4.016426E-8	NaN
414	1.000000	0.722881	7.36911e+06	-56389.1	1005.82	-29739.2	0.000000	0.000000	6.723061	-0.004384	NaN	0.000000	0.001742	0.001621	28.081	0.040602	0.002114	19.2099	137.462	-164.189	0.057253	0.721570	-0.425924	-0.427235	-0.004384	19.2099	-0.425753	-310419	1.412318E-8	NaN
414	1.000000	0.732864	7.36911e+06	-56389.1	1005.82	-29739.2	0.000000	0.000000	6.733045	-0.000868	NaN	0.000000	0.001684	0.001543	28.0826	0.029878	0.002058	14.5172	6.847590	15.9972	-0.039987	0.731480	-0.415940	-0.417325	-0.000868	14.5172	-0.415896	-224995	3.855942E-9	NaN
414	1.000000	0.742836	7.36911e+06	-56389.1	1005.82	-29739.2	0.000000	0.000000	6.743019	0.062772	NaN	0.000000	0.001705	0.001569	28.0824	0.051835	0.002045	25.3511	57.6566	-164.1	0.059564	0.741518	-0.405969	-0.407287	0.062772	25.3511	-0.407826	-172774	-3.633199E-7	NaN
414	1.000000	0.752877	7.36911e+06	-56389.1	1005.82	-29739.2	0.000000	0.000000	6.753058	0.005269	NaN	0.000000	0.001671	0.001540	28.0827	0.096190	0.001988	48.3861	43.7297	15.4507	0.047636	0.751488	-0.395927	-0.397317	0.005269	48.3861	-0.396009	-117232	-4.494625E-8	NaN
414	1.000000	0.762851	7.36911e+06	-56389.1	1005.82	-29739.2	0.000000	0.000000	6.763031	-0.010886	NaN	0.000000	0.001673	0.001559	28.0824	0.030389	0.002007	15.1381	-177.723	-164.352	0.051584	0.761525	-0.385954	-0.387280	-0.010886	15.1381	-0.385415	-82703.8	1.316304E-7	NaN
414	1.000000	0.772856	7.36911e+06	-56389.1	1005.82	-29739.2	0.000000	0.000000	6.773033	-0.073045	NaN	0.000000	0.001686	0.001579	28.0825	0.125809	0.001996	63.0421	-47.2798	12.1046	-0.068277	0.771513	-0.375949	-0.377292	-0.073045	63.0421	-0.375080	-58779.3	1.242700E-6	NaN
414	1.000000	0.782848	7.36911e+06	-56389.1	1005.82	-29739.2	0.000000	0.000000	6.783027	-0.034385	NaN	0.000000	0.001678	0.001569	28.0825	0.006909	0.001956	3.532414	-154.997	-165.665	-0.056659	0.781510	-0.365957	-0.367295	-0.034385	3.532414	-0.358656	-34073.4	1.009140E-6	NaN
414	1.000000	0.792868	7.36911e+06	-56389.1	1005.82	-29739.2	0.000000	0.000000	6.793046	-0.068441	NaN	0.000000	0.001714	0.001570	28.0825	0.092277	0.001917	48.1342	168.706	13.3276	-0.001995	0.791537	-0.355937	-0.357268	-0.068441	48.1342	-0.354871	-30034.6	2.278751E-6	NaN
414	1.000000	0.802902	7.36911e+06	-56389.1	1005.82	-29739.2	0.000000	0.000000	6.803084	0.028448	NaN	0.000000	0.001684	0.001608	28.0825	0.170015	0.002169	78.3936	-95.7345	-165.388	0.061419	0.801557	-0.345903	-0.347248	0.028448	78.3936	-0.346175	-22461.7	-1.266504E-6	NaN
414	1.000000	0.812897	7.36911e+06	-56389.1	1005.82	-29739.2	0.000000	0.000000	6.813078	0.000635	NaN	0.000000	0.001704	0.001543	28.0828	0.072795	0.002157	33.7541	88.0161	14.9742	0.014544	0.811542	-0.335908	-0.337263	0.000635	33.7541	-0.335922	-15924.2	-3.986612E-8	NaN
414	1.000000	0.822902	7.36911e+06	-56389.1	1005.82	-29739.2	0.000000	0.000000	6.823080	-0.069600	NaN	0.000000	0.001727	0.001566	28.0826	0.066104	0.002034	32.4974	-32.2561	-163.002	-0.099687	0.821614	-0.325903	-0.327191	-0.069600	32.4974	-0.324297	-10760	6.468378E-6	NaN
414	1.000000	0.832908	7.36911e+06	-56389.1	1005.82	-29739.2	0.000000	0.000000	6.833089	0.006361	NaN	0.000000	0.001695	0.001578	28.0826	0.026324	0.002120	12.4156	8.411481	14.0928	0.003154	0.831496	-0.315897	-0.317309	0.006361	12.4156	-0.316281	-8200.61	-7.757035E-7	NaN
414	1.000000	0.842884	7.36911e+06	-56389.1	1005.82	-29739.2	0.000000	0.000000	6.843065	-0.007366	NaN	0.000000	0.001728	0.001599	28.0826	0.045182	0.001850	24.4282	-109.884	-162.473	0.013681	0.841607	-0.305921	-0.307197	-0.007366	24.4282	-0.305695	-5718.23	1.288076E-6	NaN
414	1.000000	0.852895	7.36911e+06	-56389.1	1005.82	-29739.2	0.000000	0.000000	6.853075	-0.025236	NaN	0.000000	0.001745	0.001579	28.0828	0.103281	0.001991	51.8804	118.647	15.2442	-0.048084	0.851546	-0.295910	-0.297259	-0.025236	51.8804	-0.295545	-4038.57	6.248629E-6	NaN
414	1.000000	0.862909	7.36911e+06	-56389.1	1005.82	-29739.2	0.000000	0.000000	6.863090	0.001301	NaN	0.000000	0.001725	0.001556	28.0814	0.071340	0.001986	35.9206	-87.4314	-162.883	-0.008660	0.861536	-0.285896	-0.287269	0.001301	35.9206	-0.285923	-2898.24	-4.489758E-7	NaN
414	1.000000	0.872899	7.36911e+06	-56389.1	1005.82	-29739.2	0.000000	0.000000	6.873080	0.001987	NaN	0.000000	0.001720	0.001564	28.0813	0.044170	0.002065	21.3869	69.9397	15.2303	-0.005586	0.871539	-0.275905	-0.277266	0.001987	21.3869	-0.275975	-2051.91	-9.682936E-7	NaN
414	1.000000	0.882909	7.36911e+06	-56389.1	1005.82	-29739.2	0.000000	0.000000	6.883092	0.041335	NaN	0.000000	0.001750	0.001573	28.0813	0.044644	0.001930	23.1293	2.697107	-166.565	0.022747	0.881635	-0.265896	-0.267170	0.041335	23.1293	-0.267236	-1511.76	-2.734237E-5	NaN
414	1.000000	0.892931	7.36911e+06	-56389.1	1005.82	-29739.2	0.000000	0.000000	6.893113	0.029129	NaN	0.000000	0.001781	0.001576	28.0814	0.047287	0.002017	23.4481	-125.434	14.018	-0.068771	0.891593	-0.255874	-0.257212	0.029129	23.4481	-0.256806	-1046.87	-2.782491E-5	NaN
414	1.000000	0.902909	7.36911e+06	-56389.1	1005.82	-29739.2	0.000000	0.000000	6.903088	-0.044277	NaN	0.000000	0.001771	0.001564	28.0814	0.051425	0.001989	25.8599	50.2123	-163.11	-0.070647	0.901615	-0.245895	-0.247190	-0.044277	25.8599	-0.244611	-678.281	6.527751E-5	NaN
414	1.000000	0.912941	7.36911e+06	-56389.1	1005.82	-29739.2	0.000000	0.000000	6.913122	0.014314	NaN	0.000000	0.001760	0.001582	28.0813	0.024486	0.001990	12.3067	-7.495139	11.5846	0.071529	0.911565	-0.235864	-0.237240	0.014314	12.3067	-0.236736	-511.077	-2.800674E-5	NaN
414	1.000000	0.922935	7.36911e+06	-56389.1	1005.82	-29739.2	0.000000	0.000000	6.923115	-0.005184	NaN	0.000000	0.001708	0.001594	28.0813	0.084500	0.002085	40.5203	-117.207	-165.885	0.054186	0.921631	-0.225870	-0.227173	-0.005184	40.5203	-0.225774	-343.262	1.510155E-5	NaN
414	1.000000	0.932934	7.36911e+06	-56389.1	1005.82	-29739.2	0.000000	0.000000	6.933114	-0.014016	NaN	0.000000	0.001709	0.001595	28.0812	0.073539	0.002128	34.5542	86.5816	17.2978	-0.002499	0.931610	-0.215871	-0.217195	-0.014016	34.5542	-0.215567	-235.844	5.942812E-5	NaN
414	1.000000	0.942956	7.36911e+06	-56389.1	1005.82	-29739.2	0.000000	0.000000	6.943136	-0.027724	NaN	0.000000	0.001693	0.001566	28.0812	0.090123	0.002087	43.1908	-163.253	-165.137	0.027061	0.941650	-0.205849	-0.207155	-0.027724	43.1908	-0.205367	-161.268	0.000172	NaN
414	1.000000	0.952948	7.36911e+06	-56389.1	1005.82	-29739.2	0.000000	0.000000	6.953132	0.063899	NaN	0.000000	0.001738	0.001554	28.0812	0.048986	0.001947	25.1598	-123.02	16.2328	0.068494	0.951567	-0.195856	-0.197238	0.063899	25.1598	-0.197761	-121.016	-0.000528	NaN
414	1.000000	0.962937	7.36911e+06	-56389.1	1005.82	-29739.2	0.000000	0.000000	6.963119	0.022279	NaN	0.000000	0.001748	0.001589	28.0816	0.081645	0.001984	41.1536	27.8123	-164.32	0.019516	0.961662	-0.185868	-0.187143	0.022279	41.1536	-0.186274	-77.907	-0.000286	NaN
414	1.000000	0.972941	7.36911e+06	-56389.1	1005.82	-29739.2	0.000000	0.000000	6.973124	0.049166	NaN	0.000000	0.001748	0.001587	28.0813	0.054195	0.002035	26.6293	-27.0071	16.8814	-0.003338	0.971611	-0.175863	-0.177194	0.049166	26.6293	-0.177248	-54.7676	-0.000898	NaN
414	1.000000	0.982976	7.36911e+06	-56389.1	1005.82	-29739.2	0.000000	0.000000	6.983157	-0.008384	NaN	0.000000	0.001766	0.001618	28.0813	0.094557	0.001905	49.6369	-99.1794	-163.458	-0.039465	0.981655	-0.165829	-0.167150	-0.008384	49.6369	-0.165702	-34.5638	0.000243	NaN
414	1.000000	0.992957	7.36911e+06	-56389.1	1005.82	-29739.2	0.000000	0.000000	6.993137	-0.005815	NaN	0.000000	0.001770	0.001602	28.0813	0.023704	0.001937	12.2352	-139.837	15.5609	-0.015213	0.991604	-0.155848	-0.157201	-0.005815	12.2352	-0.155492	-22.7731	0.000255	NaN
414	1.000000	1.002939	7.36911e+06	-56389.1	1005.82	-29739.2	0.000000	0.000000	7.003121	0.017898	NaN	0.000000	0.001764	0.001717	28.0825	0.115790	0.001997	57.9794	-28.2303	-165.671	0.034480	1.001622	-0.145865	-0.147183	0.017898	57.9794	-0.146097	-15.3613	-0.001165	NaN
414	1.000000	1.012966	7.36911e+06	-56389.1	1005.82	-29739.2	0.000000	0.000000	7.013150	0.066104	NaN	0.000000	0.001782	0.001678	28.0824	0.092073	0.001967	46.8188	67.981	15.5505	0.033372	1.011639	-0.135839	-0.137166	0.066104	46.8188	-0.136898	-10.3372	-0.006395	NaN
414	1.000000	1.022980	7.36911e+06	-56389.1	1005.82	-29739.2	0.000000	0.000000	7.023161	0.012327	NaN	0.000000	0.001720	0.001661	28.0824	0.033852	0.002066	16.3824	158.8	-162.489	0.055771	1.021685	-0.125825	-0.127120	0.012327	16.3824	-0.126389	-6.477588	-0.001903	NaN
414	1.000000	1.032984	7.36911e+06	-56389.1	1005.82	-29739.2	0.000000	0.000000	7.033164	-0.017057	NaN	0.000000	0.001713	0.001655	28.0826	0.021092	0.002026	10.4105	173.916	16.6731	-0.003445	1.031635	-0.115821	-0.117169	-0.017057	10.4105	-0.114592	-3.747010	0.004552	NaN
414	1.000000	1.042952	7.36911e+06	-56389.1	1005.82	-29739.2	0.000000	0.000000	7.043133	0.009042	NaN	0.000000	0.001673	0.001649	28.0823	0.049780	0.002012	24.7377	-84.3197	-165.798	-0.028407	1.041677	-0.105853	-0.107128	0.009042	24.7377	-0.106127	-2.485765	-0.003638	NaN
414	1.000000	1.053006	7.36911e+06	-56389.1	1005.82	-29739.2	0.000000	0.000000	7.053187	-0.009775	NaN	0.000000	0.001712	0.001667	28.0825	0.098449	0.001795	54.8519	175.341	16.9386	-0.016329	1.051636	-0.095799	-0.097169	-0.009775	54.8519	-0.095665	-1.460621	0.006692	NaN
414	1.000000	1.062993	7.36911e+06	-56389.1	1005.82	-29739.2	0.000000	0.000000	7.063174	-0.002941	NaN	0.000000	0.001778	0.001626	28.0824	0.037617	0.002003	18.7835	-174.578	-165.886	-0.006251	1.061679	-0.085812	-0.087126	-0.002941	18.7835	-0.085695	-0.853990	0.003444	NaN
414	1.000000	1.073011	7.36911e+06	-56389.1	1005.82	-29739.2	0.000000	0.000000	7.073191	-0.021396	NaN	0.000000	0.001693	0.001648	28.0825	0.046541	0.002019	23.0521	72.6903	17.4126	-0.049017	1.071681	-0.075794	-0.077124	-0.021396	23.0521	-0.075098	-0.464572	0.046055	NaN
414	1.000000	1.082964	7.36911e+06	-56389.1	1005.82	-29739.2	0.000000	0.000000	7.083146	0.045994	NaN	0.000000	0.001702	0.001635	28.0823	0.037766	0.001986	19.0152	-63.7871	-163.092	0.019564	1.081680	-0.065841	-0.067125	0.045994	19.0152	-0.067655	-0.294821	-0.156006	NaN
414	1.000000	1.092998	7.36911e+06	-56389.1	1005.82	-29739.2	0.000000	0.000000	7.093180	0.022264	NaN	0.000000	0.001701	0.001636	28.0825	0.088410	0.002044	43.2632	115.873	16.1655	0.102069	1.091645	-0.055807	-0.057160	0.022264	43.2632	-0.056193	-0.139631	-0.159449	NaN
414	1.000000	1.103002	7.36911e+06	-56389.1	1005.82	-29739.2	0.000000	0.000000	7.103184	0.029873	NaN	0.000000	0.001709	0.001668	28.0825	0.078275	0.002109	37.1224	73.9257	-165.606	-0.054554	1.101681	-0.045803	-0.047124	0.029873	37.1224	-0.046407	-0.070954	-0.421013	NaN
414	1.000000	1.113033	7.36911e+06	-56389.1	1005.82	-29739.2	0.000000	0.000000	7.113212	-0.049391	NaN	0.000000	0.001705	0.001688	28.0826	0.068124	0.002111	32.274	166.091	15.4441	-0.085029	1.111665	-0.035772	-0.037140	-0.049391	32.274	-0.034624	-0.031219	1.582067	NaN
414	1.000000	1.123008	7.36911e+06	-56389.1	1005.82	-29739.2	0.000000	0.000000	7.123188	-0.017742	NaN	0.000000	0.001704	0.001650	28.0825	0.140114	0.002096	66.8373	115.692	-167.53	-0.025985	1.121669	-0.025797	-0.027136	-0.017742	66.8373	-0.025597	-0.017490	1.014405	NaN
414	1.000000	1.133035	7.36911e+06	-56389.1	1005.82	-29739.2	0.000000	0.000000	7.133218	0.041186	NaN	0.000000	0.001698	0.001642	28.0825	0.151701	0.001803	84.1312	22.0886	16.3482	-0.023044	1.131609	-0.015770	-0.017196	0.041186	84.1312	-0.016137	-0.009968	-4.132005	NaN
414	1.000000	1.143015	7.36912e+06	-56389.1	1005.82	-29739.2	0.000000	0.000000	7.143199	0.097566	NaN	0.000000	0.001752	0.001698	28.0816	0.280418	0.001933	145.096	42.1256	-167.078	0.102746	1.141684	-0.005790	-0.007121	0.097566	145.096	-0.006295	-0.004216	-23.1429	NaN
414	1.000000	1.153011	7.36912e+06	-56389.1	1005.82	-29739.2	0.000000	0.000000	7.153290	2.396819	NaN	0.000000	0.001723	0.001689	28.0814	3.356324	0.001966	1707.22	13.8224	11.7633	1.358592	1.151650	0.004206	0.002845	2.396819	1707.22	0.003153	0.002509	955.21	31138.2
414	2.000000	1.159652	7.36912e+06	-56389.1	1005.82	-29739.2	0.000000	0.000000	7.160210	9.166771	NaN	0.000000	0.001688	0.001721	28.0814	8.985681	0.001721	5220.6	11.1443	-173.89	8.887125	1.159323	0.010847	0.010518	9.166771	5220.6	0.009530	0.008664	1058.03	51242.9
414	2.000000	1.162104	7.36912e+06	-56389.1	1005.82	-29739.2	0.000000	0.000000	7.162797	12.4478	NaN	0.000000	0.001705	0.001690	28.0816	11.2195	0.001636	6857.94	7.200230	7.567971	10.7892	1.161671	0.013299	0.012866	12.4478	6857.94	0.011938	0.011416	1090.42	58643.2
414	2.000000	1.164549	7.36912e+06	-56389.1	1005.82	-29739.2	0.000000	0.000000	7.165347	14.9879	NaN	0.000000	0.001720	0.001646	28.0815	13.7166	0.001843	7443.47	12.7941	-178.562	14.088	1.164247	0.015745	0.015442	14.9879	7443.47	0.014234	0.014278	1049.72	56913.4
414	2.000000	1.167022	7.36912e+06	-56389.1	1005.82	-29739.2	0.000000	0.000000	7.167975	18.763	NaN	0.000000	0.001694	0.001682	28.0818	16.4477	0.001906	8631.51	10.464	4.463500	17.3807	1.166634	0.018217	0.017829	18.763	8631.51	0.016587	0.017460	1074.64	59681.5
414	2.000000	1.169535	7.36912e+06	-56389.1	1005.82	-29739.2	0.000000	0.000000	7.170656	22.8455	NaN	0.000000	0.001686	0.001683	28.0813	18.4414	0.001768	10433.3	8.851771	-176.822	23.759	1.169227	0.020730	0.020422	22.8455	10433.3	0.019088	0.021129	1081.24	65577.9
414	2.000000	1.172055	7.36912e+06	-56389.1	1005.82	-29739.2	0.000000	0.000000	7.173454	29.6146	NaN	0.000000	0.001666	0.001667	28.0821	20.1077	0.001703	11809.9	3.710113	6.643566	28.277	1.171705	0.023250	0.022900	29.6146	11809.9	0.021369	0.024739	1197.06	68600.4
414	2.000000	1.174509	7.36912e+06	-56389.1	1005.82	-29739.2	0.000000	0.000000	7.176158	35.6782	NaN	0.000000	0.001691	0.001660	28.0813	23.4559	0.001766	13285.3	6.821246	-177.619	34.8125	1.174202	0.025704	0.025398	35.6782	13285.3	0.023690	0.028675	1244.21	71678.5
414	2.000000	1.177052	7.36912e+06	-56389.1	1005.82	-29739.2	0.000000	0.000000	7.178807	38.2528	NaN	0.000000	0.001689	0.001670	28.0815	26.2414	0.001763	14885.7	4.794926	1.903062	38.2557	1.176810	0.028247	0.028005	38.2528	14885.7	0.026320	0.033460	1143.22	74349.3
414	2.000000	1.179504	7.36912e+06	-56389.1	1005.82	-29739.2	0.000000	0.000000	7.181687	48.669	NaN	0.000000	0.001748	0.001674	28.0813	30.1641	0.001906	15828.7	7.521698	179.765	48.2071	1.179246	0.030699	0.030441	48.669	15828.7	0.028393	0.037479	1298.56	74700.5
414	2.000000	1.182028	7.36912e+06	-56389.1	1005.82	-29739.2	0.000000	0.000000	7.184343	51.8595	NaN	0.000000	0.001679	0.001677	28.0815	31.154	0.001803	17274.8	3.156388	2.543757	50.9767	1.181729	0.033223	0.032924	51.8595	17274.8	0.030972	0.042782	1212.17	76305
414	2.000000	1.184515	7.36912e+06	-56389.1	1005.82	-29739.2	0.000000	0.000000	7.187228	61.5506	NaN	0.000000	0.001738	0.001630	28.0817	33.2641	0.001779	18696.3	4.568683	-178.999	60.6682	1.184134	0.035710	0.035329	61.5506	18696.3	0.033241	0.047729	1289.6	78188.1
414	2.000000	1.187030	7.36912e+06	-56389.1	1005.82	-29739.2	0.000000	0.000000	7.190126	70.8565	NaN	0.000000	0.001752	0.001673	28.0828	36.6315	0.001801	20339.7	6.634319	-2.485926	69.5297	1.186725	0.038225	0.037920	70.8565	20339.7	0.035612	0.053181	1332.38	80582.5
414	2.000000	1.189464	7.36912e+06	-56389.1	1005.82	-29739.2	0.000000	0.000000	7.192914	79.4569	NaN	0.000000	0.001750	0.001664	28.0825	38.7699	0.001765	21970.5	6.395716	177.537	78.1093	1.189194	0.040659	0.040389	79.4569	21970.5	0.037947	0.058830	1350.62	82758.9
414	2.000000	1.191986	7.36912e+06	-56389.1	1005.82	-29739.2	0.000000	0.000000	7.195826	88.9481	NaN	0.000000	0.001707	0.001658	28.0828	40.7754	0.001898	21481.5	6.076784	-0.983495	87.5514	1.191635	0.043181	0.042831	88.9481	21481.5	0.040075	0.064223	1384.99	77444.6
414	2.000000	1.194469	7.36912e+06	-56389.1	1005.82	-29739.2	0.000000	0.000000	7.198819	101.342	NaN	0.000000	0.001745	0.001671	28.0824	42.1262	0.001787	23576.8	4.812953	179.105	100.592	1.194175	0.045664	0.045371	101.342	23576.8	0.042440	0.070487	1437.74	81134.1
414	2.000000	1.196960	7.36912e+06	-56389.1	1005.82	-29739.2	0.000000	0.000000	7.201775	112.647	NaN	0.000000	0.001751	0.001658	28.0825	45.3104	0.001899	23857.9	6.492466	-3.063875	110.875	1.196607	0.048155	0.047802	112.647	23857.9	0.044614	0.076496	1472.6	78811.1
414	2.000000	1.199469	7.36912e+06	-56389.1	1005.82	-29739.2	0.000000	0.000000	7.204559	119.321	NaN	0.000000	0.001680	0.001665	28.0824	46.7607	0.001667	28045.7	3.067903	178.299	115.536	1.199188	0.050664	0.050383	119.321	28045.7	0.047473	0.084763	1407.71	88011
414	2.000000	1.201972	7.36912e+06	-56389.1	1005.82	-29739.2	0.000000	0.000000	7.207693	134.666	NaN	0.000000	0.001672	0.001641	28.0825	48.5542	0.001665	29170.1	7.448624	-5.459192	131.792	1.201635	0.053167	0.052830	134.666	29170.1	0.049705	0.091503	1471.72	88103.9
414	2.000000	1.204413	7.36912e+06	-56389.1	1005.82	-29739.2	0.000000	0.000000	7.210500	143.553	NaN	0.000000	0.001653	0.001688	28.0823	50.9218	0.001750	29103.4	4.744220	176.976	139.84	1.204123	0.055609	0.055318	143.553	29103.4	0.051909	0.098406	1458.78	84763.2
414	2.000000	1.206954	7.36912e+06	-56389.1	1005.82	-29739.2	0.000000	0.000000	7.213581	156.692	NaN	0.000000	0.001689	0.001651	28.0826	54.9378	0.001843	29807.3	7.625932	-6.216910	155.32	1.206589	0.058149	0.057784	156.692	29807.3	0.054206	0.105857	1480.22	83701.9
414	2.000000	1.209362	7.36912e+06	-56389.1	1005.82	-29739.2	0.000000	0.000000	7.216629	172.248	NaN	0.000000	0.001703	0.001657	28.0825	56.6184	0.001715	33012.7	6.707472	173.134	165.771	1.209119	0.060557	0.060314	172.248	33012.7	0.056644	0.114050	1510.29	89311.6
414	2.000000	1.212002	7.36912e+06	-56389.1	1005.82	-29739.2	0.000000	0.000000	7.219644	181.348	NaN	0.000000	0.001664	0.001696	28.0824	57.8642	0.001768	32728.1	2.311246	-1.441638	180.429	1.211674	0.063197	0.062869	181.348	32728.1	0.059042	0.122394	1481.68	85470.1
414	2.000000	1.214392	7.36912e+06	-56389.1	1005.82	-29739.2	0.000000	0.000000	7.222825	200.578	NaN	0.000000	0.001674	0.001681	28.0825	60.6069	0.001740	34826.8	7.154822	173.123	197.082	1.214095	0.065587	0.065290	200.578	34826.8	0.061267	0.130392	1538.27	88117.3
414	2.000000	1.216920	7.36912e+06	-56389.1	1005.82	-29739.2	0.000000	0.000000	7.225709	209.235	NaN	0.000000	0.001654	0.001641	28.0825	63.6658	0.001848	34458.1	7.502346	-6.588832	206.259	1.216539	0.068115	0.067735	209.235	34458.1	0.063561	0.138887	1506.52	84476.2
414	2.000000	1.219417	7.36912e+06	-56389.1	1005.82	-29739.2	0.000000	0.000000	7.228873	225.451	NaN	0.000000	0.001693	0.001703	28.0829	65.3059	0.001635	39938.2	4.801817	173.973	222.657	1.219129	0.070612	0.070324	225.451	39938.2	0.066378	0.149667	1506.35	94318.9
414	2.000000	1.221962	7.36912e+06	-56389.1	1005.82	-29739.2	0.000000	0.000000	7.231901	237.182	NaN	0.000000	0.001718	0.001658	28.0813	66.9626	0.001726	38803.7	2.532477	-2.652683	234.048	1.221517	0.073157	0.072713	237.182	38803.7	0.068573	0.158331	1498.02	89097.1
414	2.000000	1.224451	7.36912e+06	-56389.1	1005.82	-29739.2	0.000000	0.000000	7.234954	250.91	NaN	0.000000	0.001718	0.001667	28.0811	69.2365	0.001694	40879.9	3.843550	175.131	249.065	1.224094	0.075646	0.075289	250.91	40879.9	0.071042	0.168354	1490.37	91027.2
414	2.000000	1.226856	7.36912e+06	-56389.1	1005.82	-29739.2	0.000000	0.000000	7.238054	267.791	NaN	0.000000	0.001692	0.001661	28.0812	72.8812	0.001855	39282.9	3.551880	-4.655006	261.295	1.226590	0.078051	0.077785	267.791	39282.9	0.072938	0.176244	1519.43	85490.8
414	2.000000	1.229417	7.36912e+06	-56389.1	1005.82	-29739.2	0.000000	0.000000	7.241493	289.119	NaN	0.000000	0.001701	0.001657	28.0814	74.9743	0.001770	42362.9	1.116498	177.955	285.512	1.229075	0.080612	0.080270	289.119	42362.9	0.075494	0.187152	1544.84	89466.8
414	2.000000	1.232040	7.36912e+06	-56389.1	1005.82	-29739.2	0.000000	0.000000	7.244357	294.983	NaN	0.000000	0.001726	0.001685	28.0813	77.9327	0.001801	43262.6	5.042918	-6.632494	296.013	1.231734	0.083235	0.082930	294.983	43262.6	0.078121	0.198684	1484.68	88675.7
414	2.000000	1.234436	7.36912e+06	-56389.1	1005.82	-29739.2	0.000000	0.000000	7.247843	321.464	NaN	0.000000	0.001701	0.001711	28.0813	79.7053	0.001853	43005.6	1.922413	177.039	321.116	1.234012	0.085632	0.085207	321.464	43005.6	0.080025	0.207244	1551.13	86309.3
414	2.000000	1.236943	7.36912e+06	-56389.1	1005.82	-29739.2	0.000000	0.000000	7.250929	335.552	NaN	0.000000	0.001699	0.001676	28.0815	83.181	0.001842	45164.5	7.973302	-9.807074	332.837	1.236452	0.088138	0.087647	335.552	45164.5	0.082566	0.218927	1532.71	88190.2
414	2.000000	1.239382	7.36912e+06	-56389.1	1005.82	-29739.2	0.000000	0.000000	7.254126	353.977	NaN	0.000000	0.001744	0.001672	28.0815	83.6058	0.001786	46805.1	-0.737798	178.668	348.887	1.239034	0.090578	0.090229	353.977	46805.1	0.084905	0.229951	1539.36	89176.1
414	2.000000	1.241966	7.36912e+06	-56389.1	1005.82	-29739.2	0.000000	0.000000	7.257739	379.006	NaN	0.000000	0.001744	0.001707	28.0812	86.1914	0.001719	50126.6	5.831253	-7.759510	376.842	1.241504	0.093161	0.092699	379.006	50126.6	0.087490	0.242424	1563.4	93015.1
414	2.000000	1.244386	7.36912e+06	-56389.1	1005.82	-29739.2	0.000000	0.000000	7.260878	396.468	NaN	0.000000	0.001736	0.001683	28.0812	88.8315	0.001877	47335.7	4.920855	173.087	394.295	1.244100	0.095581	0.095296	396.468	47335.7	0.089299	0.251336	1577.44	86264.9
414	2.000000	1.246846	7.36912e+06	-56389.1	1005.82	-29739.2	0.000000	0.000000	7.264167	416.618	NaN	0.000000	0.001739	0.001668	28.0812	92.7262	0.001819	50977.9	7.035896	-9.601085	409.9	1.246375	0.098042	0.097571	416.618	50977.9	0.091912	0.264475	1575.27	90565.5
414	2.000000	1.249365	7.36912e+06	-56389.1	1005.82	-29739.2	0.000000	0.000000	7.267369	433.219	NaN	0.000000	0.001736	0.001681	28.0813	94.2827	0.001843	51166.1	2.566920	174.814	428.268	1.249094	0.100560	0.100289	433.219	51166.1	0.094210	0.276285	1568.01	88935.7
414	2.000000	1.251857	7.36912e+06	-56389.1	1005.82	-29739.2	0.000000	0.000000	7.270326	444.527	NaN	0.000000	0.001726	0.001715	28.0812	95.0236	0.001736	54751	0.561432	-3.761904	436.958	1.251549	0.103052	0.102744	444.527	54751	0.096963	0.290756	1528.87	92768.7
414	2.000000	1.254287	7.36912e+06	-56389.1	1005.82	-29739.2	0.000000	0.000000	7.273411	460.437	NaN	0.000000	0.001733	0.001686	28.0812	97.4925	0.001763	55291.3	1.392638	175.138	454.114	1.254137	0.105483	0.105332	460.437	55291.3	0.099237	0.302968	1519.75	91776.4
414	2.000000	1.256840	7.36912e+06	-56389.1	1005.82	-29739.2	0.000000	0.000000	7.277286	492.587	NaN	0.000000	0.001682	0.001688	28.0831	100.064	0.001694	59056.6	4.545235	-7.902228	484.753	1.256438	0.108035	0.107634	492.587	59056.6	0.101779	0.316901	1554.39	95847.4