File: remote_trans/data/nanoindenter/0828-1/data/Data_2025-08-06,11h17m57s/2025-07-22_16-23-58_1_1134.txt
2025-07-22, 16:23:58, 1
Index	Phase	Displacement	Time	Pos X	Pos Y	Pos Z	Rot A	Rot B	Piezo Z	Force A	Force B	Gripper	Voltage A	Voltage B	Temperature	Amplitude force	Amplitude pos	Stiffness	Phase shift	Phase excitation	Force A raw	Displacement raw	HMax	HMax raw	Real Force	Real Stiffness	Contact Depth	Area	Hardness	Reduced Mod.
[#]	[#]	[um]	[s]	[um]	[um]	[um]	[m°]	[m°]	[um]	[uN]	[uN]	[V]	[V]	[V]	[°C]	[uN]	[um]	[N/m]	[°]	[°]	[uN]	[um]	[um]	[um]	[uN]	[N/m]	[um]	[um^2]	[MPa]	[MPa]
1134	1.000000	0.002697	7.37614e+06	-56839.1	1055.82	-29738	0.000000	0.000000	6.002734	0.023402	NaN	0.000000	0.001693	0.001706	28.0822	0.081744	0.001047	78.1004	169.31	179.115	0.042534	0.001485	-1.086530	-1.087742	0.023402	78.1004	-1.086755	-3.328376E+14	-7.031004E-17	NaN
1134	1.000000	0.010667	7.37614e+06	-56839.1	1055.82	-29738	0.000000	0.000000	6.010703	-0.003596	NaN	0.000000	0.001670	0.001720	28.0821	0.082338	0.001091	75.477	-91.0875	179.242	-0.046534	0.009284	-1.078559	-1.079943	-0.003596	75.477	-1.078523	-2.580400E+14	1.393756E-17	NaN
1134	1.000000	0.018643	7.37614e+06	-56839.1	1055.82	-29738	0.000000	0.000000	6.018681	0.054110	NaN	0.000000	0.001655	0.001698	28.0821	0.046943	0.001725	27.208	21.1274	177.717	0.055949	0.017360	-1.070583	-1.071867	0.054110	27.208	-1.072075	-2.113805E+14	-2.559845E-16	NaN
1134	1.000000	0.026635	7.37614e+06	-56839.1	1055.82	-29738	0.000000	0.000000	6.026672	0.037384	NaN	0.000000	0.001628	0.001716	28.0819	0.017241	0.001871	9.213993	34.032	177.523	-0.007349	0.025296	-1.062592	-1.063931	0.037384	9.213993	-1.065635	-1.731963E+14	-2.158494E-16	NaN
1134	1.000000	0.034679	7.37614e+06	-56839.1	1055.82	-29738	0.000000	0.000000	6.034714	-0.017118	NaN	0.000000	0.001662	0.001729	28.0822	0.043809	0.001906	22.9858	-27.2793	174.992	0.040311	0.033307	-1.054548	-1.055920	-0.017118	22.9858	-1.053989	-1.207914E+14	1.417125E-16	NaN
1134	1.000000	0.042656	7.37614e+06	-56839.1	1055.82	-29738	0.000000	0.000000	6.042692	-0.009116	NaN	0.000000	0.001610	0.001740	28.0822	0.051320	0.002021	25.3907	-48.7668	175.538	-0.092152	0.041356	-1.046571	-1.047871	-0.009116	25.3907	-1.046301	-9.521166E+13	9.574420E-17	NaN
1134	1.000000	0.050636	7.37614e+06	-56839.1	1055.82	-29738	0.000000	0.000000	6.050673	0.027785	NaN	0.000000	0.001685	0.001704	28.0821	0.061555	0.002069	29.7529	-132.01	178.285	0.114451	0.049328	-1.038590	-1.039898	0.027785	29.7529	-1.039291	-7.663551E+13	-3.625619E-16	NaN
1134	1.000000	0.058654	7.37614e+06	-56839.1	1055.82	-29738	0.000000	0.000000	6.058691	0.018624	NaN	0.000000	0.001677	0.001723	28.082	0.043231	0.001938	22.3094	-53.6633	174.055	0.073642	0.057324	-1.030572	-1.031903	0.018624	22.3094	-1.031199	-5.964877E+13	-3.122244E-16	NaN
1134	1.000000	0.066669	7.37614e+06	-56839.1	1055.82	-29738	0.000000	0.000000	6.066705	-0.006511	NaN	0.000000	0.001672	0.001733	28.0829	0.131867	0.001945	67.8106	-77.2532	175.28	0.088474	0.065345	-1.022557	-1.023882	-0.006511	67.8106	-1.022485	-4.553982E+13	1.429800E-16	NaN
1134	1.000000	0.074633	7.37614e+06	-56839.1	1055.82	-29738	0.000000	0.000000	6.074667	-0.037945	NaN	0.000000	0.001662	0.001719	28.0833	0.077011	0.001944	39.6187	-127.058	174.204	-0.022871	0.073354	-1.014594	-1.015873	-0.037945	39.6187	-1.013876	-3.487708E+13	1.087953E-15	NaN
1134	1.000000	0.082639	7.37614e+06	-56839.1	1055.82	-29738	0.000000	0.000000	6.082677	0.066207	NaN	0.000000	0.001687	0.001728	28.0835	0.071493	0.002026	35.2793	-154.22	174.131	-0.003492	0.081327	-1.006588	-1.007900	0.066207	35.2793	-1.007995	-2.906703E+13	-2.277741E-15	NaN
1134	1.000000	0.090704	7.37614e+06	-56839.1	1055.82	-29738	0.000000	0.000000	6.090740	-0.014008	NaN	0.000000	0.001706	0.001735	28.0832	0.049070	0.002005	24.4763	146.728	175.608	-0.015798	0.089341	-0.998522	-0.999885	-0.014008	24.4763	-0.998093	-2.138431E+13	6.550417E-16	NaN
1134	1.000000	0.098671	7.37614e+06	-56839.1	1055.82	-29738	0.000000	0.000000	6.098706	-0.021521	NaN	0.000000	0.001710	0.001736	28.0833	0.064997	0.002124	30.5981	-170.298	179.915	0.052692	0.097301	-0.990556	-0.991925	-0.021521	30.5981	-0.990028	-1.665312E+13	1.292307E-15	NaN
1134	1.000000	0.106639	7.37614e+06	-56839.1	1055.82	-29738	0.000000	0.000000	6.106676	0.043110	NaN	0.000000	0.001749	0.001744	28.0832	0.085575	0.001964	43.5778	-15.794	172.742	0.026421	0.105394	-0.982588	-0.983832	0.043110	43.5778	-0.983330	-1.352921E+13	-3.186465E-15	NaN
1134	1.000000	0.114654	7.37614e+06	-56839.1	1055.82	-29738	0.000000	0.000000	6.114691	0.028058	NaN	0.000000	0.001739	0.001738	28.0834	0.044694	0.001932	23.139	-140.977	177.848	0.025884	0.113357	-0.974573	-0.975870	0.028058	23.139	-0.975482	-1.060569E+13	-2.645584E-15	NaN
1134	1.000000	0.122688	7.37614e+06	-56839.1	1055.82	-29738	0.000000	0.000000	6.122725	0.039310	NaN	0.000000	0.001766	0.001698	28.0836	0.014901	0.002030	7.339884	-20.2618	174.404	-0.034837	0.121338	-0.966539	-0.967889	0.039310	7.339884	-0.970556	-9.102334E+12	-4.318719E-15	NaN
1134	1.000000	0.130647	7.37614e+06	-56839.1	1055.82	-29738	0.000000	0.000000	6.130684	0.041870	NaN	0.000000	0.001761	0.001758	28.0834	0.061287	0.001982	30.9172	-89.5496	174.344	0.044152	0.129364	-0.958580	-0.959862	0.041870	30.9172	-0.959596	-6.477691E+12	-6.463732E-15	NaN
1134	1.000000	0.138686	7.37614e+06	-56839.1	1055.82	-29738	0.000000	0.000000	6.138725	0.072507	NaN	0.000000	0.001749	0.001740	28.0835	0.164061	0.001935	84.8076	101.836	179.482	0.115682	0.137402	-0.950540	-0.951825	0.072507	84.8076	-0.951182	-4.988419E+12	-1.453499E-14	NaN
1134	1.000000	0.146646	7.37614e+06	-56839.1	1055.82	-29738	0.000000	0.000000	6.146681	-0.036607	NaN	0.000000	0.001740	0.001711	28.0833	0.038696	0.001899	20.3821	54.9583	177.423	0.075171	0.145349	-0.942580	-0.943878	-0.036607	20.3821	-0.941233	-3.662479E+12	9.995096E-15	NaN
1134	1.000000	0.154663	7.37614e+06	-56839.1	1055.82	-29738	0.000000	0.000000	6.154697	-0.046308	NaN	0.000000	0.001744	0.001730	28.0834	0.112978	0.002002	56.4309	141.733	174.825	-0.076050	0.153365	-0.934563	-0.935861	-0.046308	56.4309	-0.933948	-2.920631E+12	1.585543E-14	NaN
1134	1.000000	0.162677	7.37614e+06	-56839.1	1055.82	-29738	0.000000	0.000000	6.162712	-0.023847	NaN	0.000000	0.001758	0.001744	28.0833	0.039999	0.001922	20.8134	74.1976	174.804	-0.025965	0.161326	-0.926550	-0.927900	-0.023847	20.8134	-0.925690	-2.259569E+12	1.055380E-14	NaN
1134	1.000000	0.170673	7.37614e+06	-56839.1	1055.82	-29738	0.000000	0.000000	6.170709	-0.015145	NaN	0.000000	0.001708	0.001746	28.0834	0.107057	0.001947	54.9762	84.7958	176.113	-0.012210	0.169380	-0.918553	-0.919847	-0.015145	54.9762	-0.918347	-1.798384E+12	8.421432E-15	NaN
1134	1.000000	0.178676	7.37614e+06	-56839.1	1055.82	-29738	0.000000	0.000000	6.178716	0.082222	NaN	0.000000	0.001743	0.001703	28.0834	0.050889	0.002013	25.2826	168.07	172.95	0.085448	0.177387	-0.910550	-0.911840	0.082222	25.2826	-0.912989	-1.522436E+12	-5.400656E-14	NaN
1134	1.000000	0.186711	7.37614e+06	-56839.1	1055.82	-29738	0.000000	0.000000	6.186745	-0.054421	NaN	0.000000	0.001668	0.001739	28.0833	0.038502	0.002013	19.1297	-11.7648	175.365	-0.045501	0.185365	-0.902515	-0.903862	-0.054421	19.1297	-0.900382	-1.028547E+12	5.291068E-14	NaN
1134	1.000000	0.194706	7.37615e+06	-56839.1	1055.82	-29738	0.000000	0.000000	6.194744	0.040668	NaN	0.000000	0.001694	0.001711	28.0835	0.035005	0.001988	17.6051	20.1946	172.711	0.060564	0.193376	-0.894520	-0.895851	0.040668	17.6051	-0.896253	-9.045413E+11	-4.495990E-14	NaN
1134	1.000000	0.202663	7.37615e+06	-56839.1	1055.82	-29738	0.000000	0.000000	6.202700	0.027551	NaN	0.000000	0.001703	0.001723	28.0821	0.066780	0.001960	34.0741	56.4099	177.269	-0.048739	0.201393	-0.886563	-0.887834	0.027551	34.0741	-0.887170	-6.817959E+11	-4.041011E-14	NaN
1134	1.000000	0.210717	7.37615e+06	-56839.1	1055.82	-29738	0.000000	0.000000	6.210754	0.040186	NaN	0.000000	0.001690	0.001713	28.0821	0.060100	0.002034	29.5449	72.1595	172.082	0.021344	0.209378	-0.878510	-0.879848	0.040186	29.5449	-0.879530	-5.374660E+11	-7.476869E-14	NaN
1134	1.000000	0.218721	7.37615e+06	-56839.1	1055.82	-29738	0.000000	0.000000	6.218757	0.008900	NaN	0.000000	0.001719	0.001712	28.0819	0.136650	0.001986	68.8038	58.3318	176.337	-0.018945	0.217372	-0.870506	-0.871854	0.008900	68.8038	-0.870603	-4.070065E+11	-2.186746E-14	NaN
1134	1.000000	0.226722	7.37615e+06	-56839.1	1055.82	-29738	0.000000	0.000000	6.226758	-0.001839	NaN	0.000000	0.001697	0.001703	28.082	0.070146	0.001970	35.6107	116.079	174.781	-0.037005	0.225388	-0.862505	-0.863839	-0.001839	35.6107	-0.862466	-3.158605E+11	5.821357E-15	NaN
1134	1.000000	0.234705	7.37615e+06	-56839.1	1055.82	-29738	0.000000	0.000000	6.234741	-0.011596	NaN	0.000000	0.001701	0.001700	28.082	0.065717	0.002044	32.1511	-42.2689	175.363	0.013039	0.233410	-0.854522	-0.855817	-0.011596	32.1511	-0.854251	-2.445102E+11	4.742682E-14	NaN
1134	1.000000	0.242716	7.37615e+06	-56839.1	1055.82	-29738	0.000000	0.000000	6.242753	0.025669	NaN	0.000000	0.001706	0.001716	28.0818	0.026146	0.001893	13.8126	-164.371	175.286	0.034926	0.241383	-0.846510	-0.847844	0.025669	13.8126	-0.847904	-2.006115E+11	-1.279528E-13	NaN
1134	1.000000	0.250735	7.37615e+06	-56839.1	1055.82	-29738	0.000000	0.000000	6.250774	0.076714	NaN	0.000000	0.001678	0.001727	28.082	0.056492	0.002092	27.0066	-26.3726	177.107	0.093799	0.249434	-0.838491	-0.839792	0.076714	27.0066	-0.840622	-1.598507E+11	-4.799075E-13	NaN
1134	1.000000	0.258707	7.37615e+06	-56839.1	1055.82	-29738	0.000000	0.000000	6.258743	-0.018594	NaN	0.000000	0.001699	0.001710	28.0819	0.033263	0.001990	16.7126	-128.862	174.704	0.055652	0.257370	-0.830519	-0.831856	-0.018594	16.7126	-0.829685	-1.136353E+11	1.636255E-13	NaN
1134	1.000000	0.266735	7.37615e+06	-56839.1	1055.82	-29738	0.000000	0.000000	6.266771	-0.010811	NaN	0.000000	0.001680	0.001667	28.0821	0.118485	0.001972	60.0942	-95.3803	174.111	0.048398	0.265396	-0.822491	-0.823830	-0.010811	60.0942	-0.822356	-9.039915E+10	1.195935E-13	NaN
1134	1.000000	0.274728	7.37615e+06	-56839.1	1055.82	-29738	0.000000	0.000000	6.274765	0.014474	NaN	0.000000	0.001708	0.001700	28.082	0.069050	0.002049	33.6931	179.88	174.747	0.069509	0.273488	-0.814498	-0.815738	0.014474	33.6931	-0.814820	-7.144379E+10	-2.025895E-13	NaN
1134	1.000000	0.282727	7.37615e+06	-56839.1	1055.82	-29738	0.000000	0.000000	6.282764	0.027932	NaN	0.000000	0.001685	0.001699	28.0818	0.042167	0.001978	21.3158	101.163	179.079	-0.004385	0.281392	-0.806500	-0.807834	0.027932	21.3158	-0.807482	-5.680829E+10	-4.916846E-13	NaN
1134	1.000000	0.290730	7.37615e+06	-56839.1	1055.82	-29738	0.000000	0.000000	6.290766	0.000626	NaN	0.000000	0.001718	0.001718	28.0822	0.005071	0.001912	2.652081	-170.172	175.922	-0.041932	0.289402	-0.798497	-0.799824	0.000626	2.652081	-0.798674	-4.313828E+10	-1.450692E-14	NaN
1134	1.000000	0.298745	7.37615e+06	-56839.1	1055.82	-29738	0.000000	0.000000	6.298783	0.047408	NaN	0.000000	0.001677	0.001715	28.0818	0.078073	0.001998	39.0673	76.0896	175.837	0.056498	0.297437	-0.790481	-0.791789	0.047408	39.0673	-0.791391	-3.435426E+10	-1.379975E-12	NaN
1134	1.000000	0.306754	7.37615e+06	-56839.1	1055.82	-29738	0.000000	0.000000	6.306792	0.050693	NaN	0.000000	0.001677	0.001704	28.082	0.074166	0.001911	38.8157	-65.2744	172.872	0.057243	0.305380	-0.782473	-0.783847	0.050693	38.8157	-0.783452	-2.680022E+10	-1.891525E-12	NaN
1134	1.000000	0.314717	7.37615e+06	-56839.1	1055.82	-29738	0.000000	0.000000	6.314754	0.017471	NaN	0.000000	0.001696	0.001715	28.0819	0.120830	0.001943	62.1746	-162.361	174.81	0.062781	0.313492	-0.774509	-0.775735	0.017471	62.1746	-0.774720	-2.039253E+10	-8.567157E-13	NaN
1134	1.000000	0.322763	7.37615e+06	-56839.1	1055.82	-29738	0.000000	0.000000	6.322802	0.055178	NaN	0.000000	0.001686	0.001726	28.0818	0.070686	0.002044	34.5747	-96.5888	173.845	0.083843	0.321462	-0.766463	-0.767765	0.055178	34.5747	-0.767660	-1.634895E+10	-3.375001E-12	NaN
1134	1.000000	0.330753	7.37615e+06	-56839.1	1055.82	-29738	0.000000	0.000000	6.330789	0.002851	NaN	0.000000	0.001729	0.001717	28.0825	0.042687	0.001970	21.6683	-2.089221	175.638	-0.000131	0.329496	-0.758474	-0.759730	0.002851	21.6683	-0.758572	-1.229932E+10	-2.317835E-13	NaN
1134	1.000000	0.338795	7.37615e+06	-56839.1	1055.82	-29738	0.000000	0.000000	6.338832	0.017705	NaN	0.000000	0.001680	0.001723	28.0825	0.101765	0.002058	49.457	-118.615	176.618	0.043542	0.337461	-0.750432	-0.751766	0.017705	49.457	-0.750700	-9.610571E+9	-1.842294E-12	NaN
1134	1.000000	0.346785	7.37615e+06	-56839.1	1055.82	-29738	0.000000	0.000000	6.346819	-0.034418	NaN	0.000000	0.001695	0.001693	28.0833	0.104007	0.002023	51.4058	-108.325	176.672	0.038566	0.345481	-0.742442	-0.743746	-0.034418	51.4058	-0.741940	-7.302517E+9	4.713106E-12	NaN
1134	1.000000	0.354777	7.37615e+06	-56839.1	1055.82	-29738	0.000000	0.000000	6.354812	-0.016860	NaN	0.000000	0.001679	0.001722	28.0831	0.096142	0.001937	49.6227	-123.629	171.961	0.063837	0.353407	-0.734450	-0.735820	-0.016860	49.6227	-0.734195	-5.727621E+9	2.943683E-12	NaN
1134	1.000000	0.362766	7.37615e+06	-56839.1	1055.82	-29738	0.000000	0.000000	6.362806	0.089136	NaN	0.000000	0.001672	0.001745	28.0832	0.095249	0.001990	47.8559	-118.407	177.853	0.042228	0.361439	-0.726460	-0.727787	0.089136	47.8559	-0.727857	-4.694663E+9	-1.898663E-11	NaN
1134	1.000000	0.370801	7.37615e+06	-56839.1	1055.82	-29738	0.000000	0.000000	6.370837	0.004402	NaN	0.000000	0.001687	0.001725	28.0835	0.088175	0.002098	42.0244	123.567	176.189	0.072985	0.369481	-0.718426	-0.719745	0.004402	42.0244	-0.718505	-3.500079E+9	-1.257678E-12	NaN
1134	1.000000	0.378802	7.37615e+06	-56839.1	1055.82	-29738	0.000000	0.000000	6.378839	0.023494	NaN	0.000000	0.001697	0.001770	28.083	0.050344	0.002109	23.8723	52.3751	174.399	0.013298	0.377455	-0.710425	-0.711772	0.023494	23.8723	-0.711163	-2.779189E+9	-8.453438E-12	NaN
1134	1.000000	0.386773	7.37615e+06	-56839.1	1055.82	-29738	0.000000	0.000000	6.386808	-0.009996	NaN	0.000000	0.001711	0.001747	28.0831	0.071853	0.002112	34.0275	-13.6286	175.372	-0.011992	0.385436	-0.702454	-0.703791	-0.009996	34.0275	-0.702234	-2.099107E+9	4.762253E-12	NaN
1134	1.000000	0.394800	7.37615e+06	-56839.1	1055.82	-29738	0.000000	0.000000	6.394834	-0.040647	NaN	0.000000	0.001724	0.001763	28.0831	0.221140	0.001974	112.049	-13.2377	173.904	0.073241	0.393469	-0.694427	-0.695757	-0.040647	112.049	-0.694155	-1.628143E+9	2.496498E-11	NaN
1134	1.000000	0.402799	7.37615e+06	-56839.1	1055.82	-29738	0.000000	0.000000	6.402836	0.029010	NaN	0.000000	0.001675	0.001734	28.0832	0.093880	0.001954	48.0518	61.1759	172.324	0.043652	0.401496	-0.686428	-0.687730	0.029010	48.0518	-0.686880	-1.295029E+9	-2.240087E-11	NaN
1134	1.000000	0.410762	7.37615e+06	-56839.1	1055.82	-29738	0.000000	0.000000	6.410798	0.014188	NaN	0.000000	0.001692	0.001687	28.0838	0.027777	0.002071	13.4106	-113.108	176.97	0.063951	0.409496	-0.678465	-0.679731	0.014188	13.4106	-0.679259	-1.018744E+9	-1.392663E-11	NaN
1134	1.000000	0.418840	7.37615e+06	-56839.1	1055.82	-29738	0.000000	0.000000	6.418875	-0.018820	NaN	0.000000	0.001692	0.001733	28.083	0.039441	0.001919	20.5572	-120.889	174.991	0.010971	0.417460	-0.670387	-0.671766	-0.018820	20.5572	-0.669700	-7.538483E+8	2.496463E-11	NaN
1134	1.000000	0.426812	7.37615e+06	-56839.1	1055.82	-29738	0.000000	0.000000	6.426850	0.053347	NaN	0.000000	0.001706	0.001746	28.0833	0.107016	0.001952	54.8345	26.7312	177.539	0.035537	0.425490	-0.662414	-0.663737	0.053347	54.8345	-0.663144	-6.130974E+8	-8.701175E-11	NaN
1134	1.000000	0.434803	7.37615e+06	-56839.1	1055.82	-29738	0.000000	0.000000	6.434839	-0.000703	NaN	0.000000	0.001707	0.001736	28.0831	0.048194	0.001971	24.4575	-119.9	175.023	0.048668	0.433471	-0.654423	-0.655756	-0.000703	24.4575	-0.654402	-4.653383E+8	1.511650E-12	NaN
1134	1.000000	0.442794	7.37615e+06	-56839.1	1055.82	-29738	0.000000	0.000000	6.442831	0.034017	NaN	0.000000	0.001680	0.001731	28.0833	0.082058	0.002169	37.8345	158.864	177.935	-0.022242	0.441516	-0.646433	-0.647711	0.034017	37.8345	-0.647107	-3.696361E+8	-9.202892E-11	NaN
1134	1.000000	0.450811	7.37615e+06	-56839.1	1055.82	-29738	0.000000	0.000000	6.450850	0.068217	NaN	0.000000	0.001672	0.001718	28.0831	0.020749	0.002200	9.430840	-111.316	175.667	-0.007635	0.449441	-0.638416	-0.639786	0.068217	9.430840	-0.643841	-3.334087E+8	-2.046052E-10	NaN
1134	1.000000	0.458834	7.37615e+06	-56839.1	1055.82	-29738	0.000000	0.000000	6.458870	0.012390	NaN	0.000000	0.001668	0.001765	28.083	0.076886	0.001904	40.3783	-90.5917	175.165	0.054146	0.457483	-0.630393	-0.631743	0.012390	40.3783	-0.630623	-2.195743E+8	-5.642963E-11	NaN
1134	1.000000	0.466843	7.37615e+06	-56839.1	1055.82	-29738	0.000000	0.000000	6.466882	0.059885	NaN	0.000000	0.001676	0.001715	28.0831	0.088865	0.001960	45.3493	-96.2757	177.652	0.048826	0.465511	-0.622383	-0.623715	0.059885	45.3493	-0.623374	-1.745812E+8	-3.430197E-10	NaN
1134	1.000000	0.474791	7.37615e+06	-56839.1	1055.82	-29738	0.000000	0.000000	6.474828	0.011180	NaN	0.000000	0.001702	0.001724	28.0828	0.035943	0.002052	17.5183	26.5228	176.181	0.057547	0.473496	-0.614435	-0.615731	0.011180	17.5183	-0.614914	-1.335701E+8	-8.370238E-11	NaN
1134	1.000000	0.482810	7.37615e+06	-56839.1	1055.82	-29738	0.000000	0.000000	6.482845	0.001004	NaN	0.000000	0.001684	0.001737	28.0817	0.048260	0.001976	24.4245	128.167	176.827	0.035628	0.481546	-0.606417	-0.607681	0.001004	24.4245	-0.606448	-1.021491E+8	-9.830271E-12	NaN
1134	1.000000	0.490824	7.37615e+06	-56839.1	1055.82	-29738	0.000000	0.000000	6.490861	0.047543	NaN	0.000000	0.001692	0.001786	28.0813	0.023074	0.002063	11.1837	-51.0383	172.909	-0.039862	0.489511	-0.598403	-0.599716	0.047543	11.1837	-0.601591	-8.757437E+7	-5.428882E-10	NaN
1134	1.000000	0.498827	7.37615e+06	-56839.1	1055.82	-29738	0.000000	0.000000	6.498867	0.090958	NaN	0.000000	0.001657	0.001791	28.0819	0.103396	0.002030	50.9321	-7.629265	174.977	0.052858	0.497484	-0.590399	-0.591743	0.090958	50.9321	-0.591739	-6.406723E+7	-1.419727E-9	NaN
1134	1.000000	0.506898	7.37615e+06	-56839.1	1055.82	-29738	0.000000	0.000000	6.506933	-0.020718	NaN	0.000000	0.001659	0.001740	28.0819	0.066060	0.001900	34.7613	-128.327	177.501	-0.058043	0.505473	-0.582328	-0.583754	-0.020718	34.7613	-0.581881	-4.684757E+7	4.422504E-10	NaN
1134	1.000000	0.514845	7.37615e+06	-56839.1	1055.82	-29738	0.000000	0.000000	6.514880	-0.008110	NaN	0.000000	0.001702	0.001752	28.0821	0.066933	0.002184	30.6453	72.8307	175.367	-0.021021	0.513536	-0.574382	-0.575690	-0.008110	30.6453	-0.574184	-3.667946E+7	2.211092E-10	NaN
1134	1.000000	0.522845	7.37615e+06	-56839.1	1055.82	-29738	0.000000	0.000000	6.522881	-0.015234	NaN	0.000000	0.001725	0.001739	28.0821	0.110268	0.002067	53.3462	-9.622933	175.347	-0.001029	0.521549	-0.566381	-0.567678	-0.015234	53.3462	-0.566167	-2.842233E+7	5.359995E-10	NaN
1134	1.000000	0.530815	7.37615e+06	-56839.1	1055.82	-29738	0.000000	0.000000	6.530854	0.082732	NaN	0.000000	0.001744	0.001743	28.0819	0.099682	0.001909	52.21	131.585	177.947	0.065716	0.529520	-0.558412	-0.559707	0.082732	52.21	-0.559601	-2.305958E+7	-3.587766E-9	NaN
1134	1.000000	0.538853	7.37615e+06	-56839.1	1055.82	-29738	0.000000	0.000000	6.538890	0.014513	NaN	0.000000	0.001715	0.001737	28.082	0.046456	0.001989	23.3531	153.399	173.989	0.063914	0.537524	-0.550373	-0.551702	0.014513	23.3531	-0.550839	-1.744140E+7	-8.320881E-10	NaN
1134	1.000000	0.546859	7.37615e+06	-56839.1	1055.82	-29738	0.000000	0.000000	6.546897	0.039622	NaN	0.000000	0.001777	0.001749	28.0819	0.079641	0.001961	40.6065	-103.744	178.483	0.036675	0.545573	-0.542367	-0.543654	0.039622	40.6065	-0.543099	-1.362489E+7	-2.908038E-9	NaN
1134	1.000000	0.554838	7.37615e+06	-56839.1	1055.82	-29738	0.000000	0.000000	6.554874	0.014344	NaN	0.000000	0.001759	0.001736	28.0821	0.029200	0.002054	14.213	52.6193	172.895	0.044966	0.553503	-0.534389	-0.535724	0.014344	14.213	-0.535146	-1.056848E+7	-1.357225E-9	NaN
1134	1.000000	0.562877	7.37615e+06	-56839.1	1055.82	-29738	0.000000	0.000000	6.562915	0.057954	NaN	0.000000	0.001745	0.001742	28.0821	0.045206	0.001950	23.1857	177.516	174.617	0.064325	0.561553	-0.526350	-0.527674	0.057954	23.1857	-0.528225	-8.47064e+06	-6.841799E-9	NaN
1134	1.000000	0.570859	7.37615e+06	-56839.1	1055.82	-29738	0.000000	0.000000	6.570898	0.067734	NaN	0.000000	0.001735	0.001722	28.0818	0.062725	0.002026	30.9665	-53.6366	175.855	0.032160	0.569562	-0.518368	-0.519665	0.067734	30.9665	-0.520008	-6.51194e+06	-1.040152E-8	NaN
1134	1.000000	0.578882	7.37615e+06	-56839.1	1055.82	-29738	0.000000	0.000000	6.578919	0.012264	NaN	0.000000	0.001748	0.001754	28.0822	0.059328	0.002071	28.652	83.2277	177.128	0.051341	0.577537	-0.510344	-0.511690	0.012264	28.652	-0.510665	-4.82706e+06	-2.540694E-9	NaN
1134	1.000000	0.586880	7.37615e+06	-56839.1	1055.82	-29738	0.000000	0.000000	6.586915	-0.030472	NaN	0.000000	0.001708	0.001715	28.0816	0.031939	0.002005	15.9261	-84.2458	176.17	0.053296	0.585569	-0.502347	-0.503658	-0.030472	15.9261	-0.500912	-3.52968e+06	8.633212E-9	NaN
1134	1.000000	0.594864	7.37615e+06	-56839.1	1055.82	-29738	0.000000	0.000000	6.594900	0.015232	NaN	0.000000	0.001733	0.001748	28.0819	0.067871	0.002108	32.1909	166.805	177.947	0.043794	0.593513	-0.494363	-0.495714	0.015232	32.1909	-0.494718	-2.89264e+06	-5.265645E-9	NaN
1134	1.000000	0.602868	7.37615e+06	-56839.1	1055.82	-29738	0.000000	0.000000	6.602906	0.053164	NaN	0.000000	0.001708	0.001715	28.0817	0.058179	0.001979	29.3918	-28.1039	177.332	0.006488	0.601520	-0.486359	-0.487707	0.053164	29.3918	-0.487716	-2.30921e+06	-2.302241E-8	NaN
1134	1.000000	0.610878	7.37615e+06	-56839.1	1055.82	-29738	0.000000	0.000000	6.610918	0.088116	NaN	0.000000	0.001760	0.001709	28.0817	0.052317	0.001912	27.3553	-178.184	176.445	0.114326	0.609547	-0.478348	-0.479680	0.088116	27.3553	-0.480764	-1.84598e+06	-4.773402E-8	NaN
1134	1.000000	0.618888	7.37615e+06	-56839.1	1055.82	-29738	0.000000	0.000000	6.618923	-0.018227	NaN	0.000000	0.001730	0.001714	28.0833	0.060869	0.002043	29.7876	134.945	176.564	-0.028713	0.617565	-0.470339	-0.471661	-0.018227	29.7876	-0.469880	-1.29935e+06	1.402768E-8	NaN
1134	1.000000	0.626871	7.37615e+06	-56839.1	1055.82	-29738	0.000000	0.000000	6.626907	-0.005671	NaN	0.000000	0.001775	0.001736	28.083	0.062659	0.001999	31.3421	-2.968096	175.76	0.056635	0.625567	-0.462356	-0.463659	-0.005671	31.3421	-0.462220	-1.0144e+06	5.590061E-9	NaN
1134	1.000000	0.634890	7.37615e+06	-56839.1	1055.82	-29738	0.000000	0.000000	6.634928	0.051471	NaN	0.000000	0.001762	0.001707	28.0831	0.138334	0.002010	68.8258	-168.333	173.361	0.083201	0.633602	-0.454337	-0.455624	0.051471	68.8258	-0.454898	-800346	-6.431042E-8	NaN
1134	1.000000	0.642884	7.37615e+06	-56839.1	1055.82	-29738	0.000000	0.000000	6.642920	0.022299	NaN	0.000000	0.001742	0.001720	28.083	0.067854	0.001853	36.6228	59.1631	178.227	0.069867	0.641599	-0.446343	-0.447627	0.022299	36.6228	-0.446800	-615543	-3.622685E-8	NaN
1134	1.000000	0.650883	7.37615e+06	-56839.1	1055.82	-29738	0.000000	0.000000	6.650923	0.085295	NaN	0.000000	0.001728	0.001703	28.083	0.077353	0.001961	39.4396	40.2612	177.207	0.016798	0.649559	-0.438343	-0.439668	0.085295	39.4396	-0.439965	-493032	-1.730010E-7	NaN
1134	1.000000	0.658934	7.37615e+06	-56839.1	1055.82	-29738	0.000000	0.000000	6.658968	-0.048283	NaN	0.000000	0.001711	0.001690	28.0833	0.085935	0.002035	42.2227	-106.05	172.857	-0.038904	0.657586	-0.430292	-0.431641	-0.048283	42.2227	-0.429435	-349995	1.379528E-7	NaN
1134	1.000000	0.666892	7.37615e+06	-56839.1	1055.82	-29738	0.000000	0.000000	6.666928	0.001828	NaN	0.000000	0.001728	0.001708	28.083	0.041547	0.001930	21.524	-138.472	174.948	0.025076	0.665612	-0.422334	-0.423614	0.001828	21.524	-0.422398	-278238	-6.569407E-9	NaN
1134	1.000000	0.674942	7.37615e+06	-56839.1	1055.82	-29738	0.000000	0.000000	6.674974	-0.091495	NaN	0.000000	0.001731	0.001699	28.0833	0.043603	0.001972	22.1147	-10.4763	178.198	-0.068430	0.673620	-0.414285	-0.415607	-0.091495	22.1147	-0.411182	-192844	4.744508E-7	NaN
1134	1.000000	0.682944	7.37615e+06	-56839.1	1055.82	-29738	0.000000	0.000000	6.682982	0.058037	NaN	0.000000	0.001704	0.001697	28.0832	0.020202	0.002033	9.936116	-177.578	172.774	0.050515	0.681607	-0.406283	-0.407620	0.058037	9.936116	-0.410664	-189601	-3.061021E-7	NaN
1134	1.000000	0.690920	7.37615e+06	-56839.1	1055.82	-29738	0.000000	0.000000	6.690959	0.056721	NaN	0.000000	0.001714	0.001726	28.0831	0.061542	0.001888	32.5934	-6.950652	178.589	0.025116	0.689624	-0.398306	-0.399603	0.056721	32.5934	-0.399611	-131963	-4.298258E-7	NaN
1134	1.000000	0.698896	7.37615e+06	-56839.1	1055.82	-29738	0.000000	0.000000	6.698934	0.057455	NaN	0.000000	0.001777	0.001697	28.083	0.075270	0.001862	40.4249	119.623	173.753	0.088212	0.697633	-0.390331	-0.391594	0.057455	40.4249	-0.391397	-100727	-5.704070E-7	NaN
1134	1.000000	0.706920	7.37615e+06	-56839.1	1055.82	-29738	0.000000	0.000000	6.706957	0.019129	NaN	0.000000	0.001665	0.001744	28.0831	0.120059	0.002095	57.2968	176.829	174.28	-0.021151	0.705628	-0.382306	-0.383599	0.019129	57.2968	-0.382557	-75260.2	-2.541758E-7	NaN
1134	1.000000	0.714914	7.37615e+06	-56839.1	1055.82	-29738	0.000000	0.000000	6.714947	-0.058881	NaN	0.000000	0.001708	0.001702	28.0832	0.026798	0.002055	13.0412	150.219	173.293	0.002956	0.713605	-0.374313	-0.375622	-0.058881	13.0412	-0.370927	-51223.9	1.149490E-6	NaN
1134	1.000000	0.722922	7.37615e+06	-56839.1	1055.82	-29738	0.000000	0.000000	6.722956	-0.049819	NaN	0.000000	0.001678	0.001745	28.0834	0.053158	0.002001	26.5648	-84.2265	178.463	0.055505	0.721611	-0.366304	-0.367616	-0.049819	26.5648	-0.364898	-41935.5	1.187990E-6	NaN
1134	1.000000	0.730935	7.37615e+06	-56839.1	1055.82	-29738	0.000000	0.000000	6.730971	-0.001216	NaN	0.000000	0.001682	0.001686	28.0837	0.096667	0.001923	50.2643	-123.603	174.279	0.009679	0.729654	-0.358292	-0.359573	-0.001216	50.2643	-0.358273	-33641.8	3.614289E-8	NaN
1134	1.000000	0.738930	7.37615e+06	-56839.1	1055.82	-29738	0.000000	0.000000	6.738968	0.035090	NaN	0.000000	0.001699	0.001722	28.0831	0.052287	0.002082	25.1115	32.9076	176.263	0.019688	0.737578	-0.350296	-0.351648	0.035090	25.1115	-0.351344	-26699.8	-1.314247E-6	NaN
1134	1.000000	0.746949	7.37615e+06	-56839.1	1055.82	-29738	0.000000	0.000000	6.746982	-0.073317	NaN	0.000000	0.001674	0.001707	28.0831	0.110207	0.001968	55.9946	158.438	177.026	-0.001989	0.745592	-0.342278	-0.343635	-0.073317	55.9946	-0.341296	-19073.6	3.843906E-6	NaN
1134	1.000000	0.754923	7.37615e+06	-56839.1	1055.82	-29738	0.000000	0.000000	6.754960	0.032052	NaN	0.000000	0.001700	0.001695	28.0819	0.046564	0.001993	23.3698	179.077	176.538	0.072830	0.753641	-0.334304	-0.335586	0.032052	23.3698	-0.335333	-15611.6	-2.053076E-6	NaN
1134	1.000000	0.762956	7.37615e+06	-56839.1	1055.82	-29738	0.000000	0.000000	6.762990	-0.048750	NaN	0.000000	0.001747	0.001733	28.0818	0.063560	0.001973	32.2082	36.6171	173.669	-0.093404	0.761659	-0.326270	-0.327568	-0.048750	32.2082	-0.325135	-11069.3	4.404030E-6	NaN
1134	1.000000	0.770923	7.37615e+06	-56839.1	1055.82	-29738	0.000000	0.000000	6.770955	-0.080842	NaN	0.000000	0.001681	0.001714	28.0822	0.049194	0.001985	24.7827	-176.371	174.566	-0.098671	0.769593	-0.318304	-0.319633	-0.080842	24.7827	-0.315858	-8083.53	1.000088E-5	NaN
1134	1.000000	0.778927	7.37615e+06	-56839.1	1055.82	-29738	0.000000	0.000000	6.778963	-0.005818	NaN	0.000000	0.001674	0.001723	28.082	0.050832	0.002146	23.6855	-48.8417	176.953	0.087944	0.777658	-0.310299	-0.311569	-0.005818	23.6855	-0.310115	-6649.03	8.750082E-7	NaN
1134	1.000000	0.786949	7.37615e+06	-56839.1	1055.82	-29738	0.000000	0.000000	6.786983	-0.041336	NaN	0.000000	0.001671	0.001732	28.0821	0.078766	0.001808	43.5674	-177.816	172.726	-0.049813	0.785649	-0.302278	-0.303577	-0.041336	43.5674	-0.301566	-4965.27	8.325022E-6	NaN
1134	1.000000	0.794955	7.37615e+06	-56839.1	1055.82	-29738	0.000000	0.000000	6.794993	0.049795	NaN	0.000000	0.001683	0.001736	28.082	0.052453	0.001883	27.8607	-19.4355	179.413	0.009040	0.793654	-0.294272	-0.295572	0.049795	27.8607	-0.295612	-4047.88	-1.230147E-5	NaN
1134	1.000000	0.802991	7.37615e+06	-56839.1	1055.82	-29738	0.000000	0.000000	6.803026	-0.026990	NaN	0.000000	0.001670	0.001719	28.0821	0.073652	0.002133	34.5244	64.8705	177.135	0.077179	0.801625	-0.286235	-0.287601	-0.026990	34.5244	-0.285649	-2870.91	9.401079E-6	NaN
1134	1.000000	0.810960	7.37615e+06	-56839.1	1055.82	-29738	0.000000	0.000000	6.810996	-0.007370	NaN	0.000000	0.001725	0.001718	28.082	0.083483	0.002104	39.6756	107.538	172.522	-0.043826	0.809649	-0.278267	-0.279578	-0.007370	39.6756	-0.278127	-2211.57	3.332692E-6	NaN
1134	1.000000	0.818957	7.37615e+06	-56839.1	1055.82	-29738	0.000000	0.000000	6.818994	0.023901	NaN	0.000000	0.001677	0.001760	28.0819	0.070629	0.001969	35.8668	-38.3902	174.626	-0.005024	0.817637	-0.270270	-0.271590	0.023901	35.8668	-0.270770	-1710.97	-1.396921E-5	NaN
1134	1.000000	0.826961	7.37615e+06	-56839.1	1055.82	-29738	0.000000	0.000000	6.826995	-0.032147	NaN	0.000000	0.001680	0.001767	28.0824	0.037643	0.002036	18.4921	46.3252	174.918	0.012988	0.825665	-0.262266	-0.263561	-0.032147	18.4921	-0.260962	-1212.43	2.651438E-5	NaN
1134	1.000000	0.834977	7.37615e+06	-56839.1	1055.82	-29738	0.000000	0.000000	6.835011	-0.055302	NaN	0.000000	0.001703	0.001756	28.082	0.101245	0.002128	47.5729	164.934	177.656	-0.048585	0.833670	-0.254250	-0.255557	-0.055302	47.5729	-0.253378	-927.094	5.965102E-5	NaN
1134	1.000000	0.842971	7.37615e+06	-56839.1	1055.82	-29738	0.000000	0.000000	6.843006	-0.002351	NaN	0.000000	0.001712	0.001770	28.0819	0.096625	0.001890	51.1193	58.6817	176.047	0.038607	0.841704	-0.246256	-0.247523	-0.002351	51.1193	-0.246222	-718.495	3.271870E-6	NaN
1134	1.000000	0.851010	7.37615e+06	-56839.1	1055.82	-29738	0.000000	0.000000	6.851045	-0.021816	NaN	0.000000	0.001714	0.001748	28.082	0.122072	0.001994	61.2155	130.846	177.138	0.074851	0.849653	-0.238216	-0.239574	-0.021816	61.2155	-0.237949	-533.928	4.085953E-5	NaN
1134	1.000000	0.859020	7.37615e+06	-56839.1	1055.82	-29738	0.000000	0.000000	6.859056	0.005075	NaN	0.000000	0.001690	0.001759	28.082	0.047665	0.001966	24.2422	-148.181	176.109	-0.029411	0.857655	-0.230206	-0.231572	0.005075	24.2422	-0.230363	-405.746	-1.250897E-5	NaN
1134	1.000000	0.867006	7.37615e+06	-56839.1	1055.82	-29738	0.000000	0.000000	6.867043	0.032363	NaN	0.000000	0.001722	0.001775	28.0827	0.078015	0.001963	39.7387	159.533	175.519	0.040232	0.865716	-0.222221	-0.223511	0.032363	39.7387	-0.222832	-308.215	-0.000105	NaN
1134	1.000000	0.875007	7.37615e+06	-56839.1	1055.82	-29738	0.000000	0.000000	6.875044	0.020234	NaN	0.000000	0.001721	0.001801	28.0821	0.090733	0.002008	45.1883	9.970184	176.763	-0.041766	0.873687	-0.214220	-0.215540	0.020234	45.1883	-0.214556	-227.178	-8.906654E-5	NaN
1134	1.000000	0.882983	7.37615e+06	-56839.1	1055.82	-29738	0.000000	0.000000	6.883019	-0.002896	NaN	0.000000	0.001714	0.001767	28.082	0.062602	0.002020	30.9848	116.294	175.893	-0.068292	0.881742	-0.206244	-0.207484	-0.002896	30.9848	-0.206173	-166.22	1.742464E-5	NaN
1134	1.000000	0.890967	7.37615e+06	-56839.1	1055.82	-29738	0.000000	0.000000	6.891000	-0.065273	NaN	0.000000	0.001715	0.001772	28.0832	0.073155	0.001900	38.4981	145.552	171.095	-0.042644	0.889673	-0.198260	-0.199554	-0.065273	38.4981	-0.196988	-117.513	0.000555	NaN
1134	1.000000	0.899012	7.37615e+06	-56839.1	1055.82	-29738	0.000000	0.000000	6.899047	-0.015559	NaN	0.000000	0.001700	0.001771	28.0831	0.037905	0.001984	19.1064	158.745	179.058	-0.021740	0.897633	-0.190214	-0.191594	-0.015559	19.1064	-0.189604	-88.5942	0.000176	NaN
1134	1.000000	0.907037	7.37615e+06	-56839.1	1055.82	-29738	0.000000	0.000000	6.907074	0.027043	NaN	0.000000	0.001704	0.001771	28.0836	0.075209	0.002062	36.4675	-17.5856	175.543	-0.043304	0.905717	-0.182190	-0.183509	0.027043	36.4675	-0.182746	-67.9311	-0.000398	NaN
1134	1.000000	0.915027	7.37615e+06	-56839.1	1055.82	-29738	0.000000	0.000000	6.915062	-0.038199	NaN	0.000000	0.001696	0.001816	28.0831	0.046801	0.001979	23.6458	-149.788	175.839	-0.003478	0.913698	-0.174199	-0.175528	-0.038199	23.6458	-0.172988	-46.2735	0.000826	NaN
1134	1.000000	0.922963	7.37615e+06	-56839.1	1055.82	-29738	0.000000	0.000000	6.923000	0.028419	NaN	0.000000	0.001701	0.001812	28.0834	0.063933	0.002025	31.5747	59.641	176.026	0.026923	0.921669	-0.166263	-0.167557	0.028419	31.5747	-0.166938	-36.3301	-0.000782	NaN
1134	1.000000	0.931000	7.37615e+06	-56839.1	1055.82	-29738	0.000000	0.000000	6.931036	-0.013032	NaN	0.000000	0.001713	0.001804	28.0832	0.006288	0.002080	3.023674	160.273	175.679	-0.037211	0.929703	-0.158226	-0.159524	-0.013032	3.023674	-0.154994	-22.3084	0.000584	NaN
1134	1.000000	0.939029	7.37615e+06	-56839.1	1055.82	-29738	0.000000	0.000000	6.939066	0.032976	NaN	0.000000	0.001732	0.001771	28.0832	0.047747	0.001970	24.2366	129.569	178.073	0.001065	0.937725	-0.150198	-0.151502	0.032976	24.2366	-0.151219	-19.0631	-0.001730	NaN
1134	1.000000	0.947051	7.37615e+06	-56839.1	1055.82	-29738	0.000000	0.000000	6.947085	-0.061626	NaN	0.000000	0.001701	0.001726	28.0835	0.032513	0.001982	16.4045	83.9131	178.394	0.019028	0.945678	-0.142175	-0.143549	-0.061626	16.4045	-0.139358	-11.5051	0.005356	NaN
1134	1.000000	0.955005	7.37615e+06	-56839.1	1055.82	-29738	0.000000	0.000000	6.955042	0.040202	NaN	0.000000	0.001694	0.001757	28.0833	0.062791	0.001963	31.9795	-158.155	172.653	0.013884	0.953697	-0.134222	-0.135529	0.040202	31.9795	-0.135165	-9.581527	-0.004196	NaN
1134	1.000000	0.962996	7.37615e+06	-56839.1	1055.82	-29738	0.000000	0.000000	6.963034	0.050887	NaN	0.000000	0.001688	0.001778	28.0836	0.050312	0.001992	25.2547	-163.507	175.268	0.036091	0.961749	-0.126230	-0.127478	0.050887	25.2547	-0.127741	-6.885887	-0.007390	NaN
1134	1.000000	0.971044	7.37615e+06	-56839.1	1055.82	-29738	0.000000	0.000000	6.971080	-0.003724	NaN	0.000000	0.001666	0.001729	28.0833	0.074298	0.001941	38.2758	-142.344	176.51	-0.021445	0.969772	-0.118183	-0.119455	-0.003724	38.2758	-0.118110	-4.423680	0.000842	NaN
1134	1.000000	0.979060	7.37615e+06	-56839.1	1055.82	-29738	0.000000	0.000000	6.979097	0.021730	NaN	0.000000	0.001658	0.001767	28.0834	0.065584	0.001952	33.5984	17.4943	174.171	-0.010335	0.977693	-0.110167	-0.111534	0.021730	33.5984	-0.110652	-3.101700	-0.007006	NaN
1134	1.000000	0.987040	7.37615e+06	-56839.1	1055.82	-29738	0.000000	0.000000	6.987075	-0.023145	NaN	0.000000	0.001697	0.001741	28.0833	0.053767	0.001967	27.3398	-100.867	174.815	-0.008174	0.985735	-0.102187	-0.103491	-0.023145	27.3398	-0.101552	-1.977108	0.011706	NaN
1134	1.000000	0.995049	7.37615e+06	-56839.1	1055.82	-29738	0.000000	0.000000	6.995083	-0.041897	NaN	0.000000	0.001644	0.001737	28.0834	0.113877	0.001953	58.3123	159.138	177.944	-0.026410	0.993682	-0.094178	-0.095544	-0.041897	58.3123	-0.093639	-1.313027	0.031909	NaN
1134	1.000000	1.003014	7.37615e+06	-56839.1	1055.82	-29738	0.000000	0.000000	7.003051	0.037128	NaN	0.000000	0.001690	0.001733	28.0834	0.129633	0.002007	64.6033	103.421	174.973	0.033968	1.001790	-0.086213	-0.087437	0.037128	64.6033	-0.086644	-0.900031	-0.041252	NaN
1134	1.000000	1.011037	7.37615e+06	-56839.1	1055.82	-29738	0.000000	0.000000	7.011071	-0.032894	NaN	0.000000	0.001646	0.001789	28.0833	0.067392	0.002055	32.8006	146.541	174.134	-0.088486	1.009733	-0.078190	-0.079493	-0.032894	32.8006	-0.077438	-0.533412	0.061667	NaN
1134	1.000000	1.019029	7.37615e+06	-56839.1	1055.82	-29738	0.000000	0.000000	7.019062	-0.056747	NaN	0.000000	0.001672	0.001747	28.0832	0.037355	0.002150	17.3764	95.1949	176.921	-0.060139	1.017748	-0.070198	-0.071479	-0.056747	17.3764	-0.067749	-0.296551	0.191358	NaN
1134	1.000000	1.027043	7.37615e+06	-56839.1	1055.82	-29738	0.000000	0.000000	7.027080	0.028134	NaN	0.000000	0.001698	0.001757	28.0818	0.077728	0.002016	38.5647	-15.9581	174.642	-0.006420	1.025764	-0.062183	-0.063462	0.028134	38.5647	-0.062730	-0.215341	-0.130650	NaN
1134	1.000000	1.035039	7.37615e+06	-56839.1	1055.82	-29738	0.000000	0.000000	7.035076	0.031323	NaN	0.000000	0.001660	0.001789	28.0818	0.061561	0.002004	30.7239	10.9226	175.553	0.012313	1.033730	-0.054188	-0.055497	0.031323	30.7239	-0.054953	-0.128363	-0.244017	NaN
1134	1.000000	1.043015	7.37615e+06	-56839.1	1055.82	-29738	0.000000	0.000000	7.043053	0.039995	NaN	0.000000	0.001648	0.001750	28.082	0.054095	0.001907	28.3731	58.2455	178.872	-0.050360	1.041754	-0.046211	-0.047473	0.039995	28.3731	-0.047268	-0.075383	-0.530557	NaN
1134	1.000000	1.051088	7.37615e+06	-56839.1	1055.82	-29738	0.000000	0.000000	7.051127	0.082528	NaN	0.000000	0.001670	0.001787	28.0823	0.103062	0.001971	52.2987	50.7553	175.711	0.038532	1.049751	-0.038139	-0.039476	0.082528	52.2987	-0.039322	-0.043132	-1.913387	NaN
1134	1.000000	1.059076	7.37615e+06	-56839.1	1055.82	-29738	0.000000	0.000000	7.059115	0.063234	NaN	0.000000	0.001697	0.001754	28.0821	0.075273	0.001994	37.745	-127.848	173.271	0.048416	1.057745	-0.030151	-0.031481	0.063234	37.745	-0.031407	-0.025208	-2.508512	NaN
1134	1.000000	1.067055	7.37615e+06	-56839.1	1055.82	-29738	0.000000	0.000000	7.067093	0.045783	NaN	0.000000	0.001674	0.001778	28.082	0.192736	0.001990	96.8683	13.2176	175.757	0.008903	1.065720	-0.022172	-0.023507	0.045783	96.8683	-0.022526	-0.014564	-3.143495	NaN
1134	1.000000	1.075076	7.37615e+06	-56839.1	1055.82	-29738	0.000000	0.000000	7.075117	0.103543	NaN	0.000000	0.001655	0.001790	28.0821	0.074800	0.001972	37.9305	-1.659093	177.299	0.122878	1.073752	-0.014150	-0.015475	0.103543	37.9305	-0.016198	-0.010005	-10.3488	NaN
1134	1.000000	1.083088	7.37615e+06	-56839.1	1055.82	-29738	0.000000	0.000000	7.083135	0.266513	NaN	0.000000	0.001648	0.001768	28.0819	0.496443	0.002139	232.102	26.7534	175.068	0.142619	1.081765	-0.006139	-0.007461	0.266513	232.102	-0.007000	-0.004640	-57.4343	NaN
1134	1.000000	1.091043	7.37615e+06	-56839.1	1055.82	-29738	0.000000	0.000000	7.091328	6.068447	NaN	0.000000	0.001663	0.001779	28.082	6.586431	0.001673	3937.39	10.439	172.143	4.750097	1.089760	0.001816	0.000533	6.068447	3937.39	0.000660	0.000500	12147.1	160946
1134	2.000000	1.094704	7.37615e+06	-56839.1	1055.82	-29738	0.000000	0.000000	7.095180	10.6834	NaN	0.000000	0.001656	0.001720	28.0828	10.2452	0.001514	6767.18	4.398611	167.836	9.712749	1.094370	0.005478	0.005143	10.6834	6767.18	0.004293	0.003498	3054.41	104541
1134	2.000000	1.096728	7.37615e+06	-56839.1	1055.82	-29738	0.000000	0.000000	7.097276	12.4647	NaN	0.000000	0.001663	0.001760	28.082	12.6447	0.001620	7807.03	9.933235	164.685	12.253	1.096350	0.007501	0.007123	12.4647	7807.03	0.006304	0.005355	2327.79	97474.2
1134	2.000000	1.098650	7.37615e+06	-56839.1	1055.82	-29738	0.000000	0.000000	7.099306	15.0879	NaN	0.000000	0.001644	0.001726	28.0822	14.7665	0.001687	8754.96	6.271813	165.336	14.2302	1.098374	0.009423	0.009147	15.0879	8754.96	0.008131	0.007177	2102.25	94418
1134	2.000000	1.100621	7.37615e+06	-56839.1	1055.82	-29738	0.000000	0.000000	7.101368	17.304	NaN	0.000000	0.001668	0.001740	28.0819	17.0766	0.001797	9501.43	6.573015	165.077	16.4635	1.100389	0.011394	0.011162	17.304	9501.43	0.010028	0.009213	1878.3	90442.4
1134	2.000000	1.102630	7.37615e+06	-56839.1	1055.82	-29738	0.000000	0.000000	7.103555	21.6085	NaN	0.000000	0.001639	0.001714	28.0819	18.6951	0.001795	10418	9.137274	162.495	21.4405	1.102311	0.013403	0.013084	21.6085	10418	0.011848	0.011308	1910.91	89508.4
1134	2.000000	1.104639	7.37615e+06	-56839.1	1055.82	-29738	0.000000	0.000000	7.105742	25.935	NaN	0.000000	0.001665	0.001728	28.0824	20.8132	0.001779	11700.2	5.859308	164.167	25.5294	1.104351	0.015412	0.015124	25.935	11700.2	0.013750	0.013654	1899.4	91481.2
1134	2.000000	1.106627	7.37615e+06	-56839.1	1055.82	-29738	0.000000	0.000000	7.107892	29.8658	NaN	0.000000	0.001634	0.001731	28.0818	22.4709	0.001793	12535.5	6.741059	163.991	29.0373	1.106319	0.017400	0.017093	29.8658	12535.5	0.015613	0.016112	1853.62	90227.3
1134	2.000000	1.108657	7.37615e+06	-56839.1	1055.82	-29738	0.000000	0.000000	7.110156	35.5766	NaN	0.000000	0.001654	0.001739	28.0823	24.9641	0.001878	13291.4	10.608	160.198	36.6957	1.108238	0.019430	0.019011	35.5766	13291.4	0.017423	0.018653	1907.3	88914.1
1134	2.000000	1.110631	7.37615e+06	-56839.1	1055.82	-29738	0.000000	0.000000	7.112216	37.6662	NaN	0.000000	0.001673	0.001668	28.0831	27.0843	0.001875	14446.1	9.205158	159.457	36.9193	1.110336	0.021404	0.021109	37.6662	14446.1	0.019448	0.021683	1737.13	89632.2
1134	2.000000	1.112590	7.37615e+06	-56839.1	1055.82	-29738	0.000000	0.000000	7.114575	47.3961	NaN	0.000000	0.001681	0.001685	28.0831	27.2707	0.001758	15510.7	2.195603	165.53	45.9251	1.112282	0.023363	0.023055	47.3961	15510.7	0.021071	0.024253	1954.21	90995.5
1134	2.000000	1.114615	7.37615e+06	-56839.1	1055.82	-29738	0.000000	0.000000	7.116727	50.4642	NaN	0.000000	0.001652	0.001740	28.0834	30.4184	0.001873	16244.1	5.667938	161.848	49.7404	1.114287	0.025389	0.025060	50.4642	16244.1	0.023059	0.027578	1829.86	89368.9
1134	2.000000	1.116622	7.37615e+06	-56839.1	1055.82	-29738	0.000000	0.000000	7.118987	56.6219	NaN	0.000000	0.001667	0.001733	28.0831	31.6057	0.001825	17321.5	4.245420	163.659	56.5169	1.116220	0.027395	0.026993	56.6219	17321.5	0.024943	0.030912	1831.69	90010.2
1134	2.000000	1.118619	7.37615e+06	-56839.1	1055.82	-29738	0.000000	0.000000	7.121214	62.185	NaN	0.000000	0.001673	0.001786	28.0836	33.2682	0.001724	19299.7	4.472387	162.345	61.3081	1.118294	0.029393	0.029067	62.185	19299.7	0.026976	0.034709	1791.61	94646
1134	2.000000	1.120620	7.37615e+06	-56839.1	1055.82	-29738	0.000000	0.000000	7.123361	65.7639	NaN	0.000000	0.001679	0.001749	28.0831	36.6874	0.001952	18793.1	4.947187	161.123	65.4958	1.120308	0.031393	0.031082	65.7639	18793.1	0.028769	0.038230	1720.22	87815.4
1134	2.000000	1.122595	7.37615e+06	-56839.1	1055.82	-29738	0.000000	0.000000	7.125711	74.8857	NaN	0.000000	0.001683	0.001767	28.0833	37.5572	0.001914	19621.7	5.119491	161.726	73.5136	1.122219	0.033368	0.032993	74.8857	19621.7	0.030506	0.041798	1791.6	87686.2
1134	2.000000	1.124592	7.37615e+06	-56839.1	1055.82	-29738	0.000000	0.000000	7.127957	80.9003	NaN	0.000000	0.001676	0.001723	28.0835	39.554	0.001798	21999.6	5.196459	159.051	78.4704	1.124289	0.035366	0.035062	80.9003	21999.6	0.032608	0.046322	1746.48	93388.7
1134	2.000000	1.126601	7.37615e+06	-56839.1	1055.82	-29738	0.000000	0.000000	7.130299	89.0114	NaN	0.000000	0.001685	0.001696	28.0832	41.71	0.001839	22675.3	6.110306	158.869	86.1892	1.126282	0.037375	0.037055	89.0114	22675.3	0.034430	0.050428	1765.12	92255.1
1134	2.000000	1.128619	7.37615e+06	-56839.1	1055.82	-29738	0.000000	0.000000	7.132484	93.0761	NaN	0.000000	0.001709	0.001725	28.0841	42.9733	0.001760	24421.2	6.515183	156.967	92.0732	1.128223	0.039392	0.038997	93.0761	24421.2	0.036534	0.055378	1680.75	94813.8
1134	2.000000	1.130579	7.37615e+06	-56839.1	1055.82	-29738	0.000000	0.000000	7.134629	97.5632	NaN	0.000000	0.001687	0.001703	28.0832	45.0426	0.001725	26111.3	3.806571	158.524	95.9259	1.130398	0.041352	0.041171	97.5632	26111.3	0.038550	0.060334	1617.04	97122.2
1134	2.000000	1.132560	7.37615e+06	-56839.1	1055.82	-29738	0.000000	0.000000	7.137174	111.279	NaN	0.000000	0.001687	0.001748	28.0834	45.5735	0.001768	25775.8	2.753386	160.843	109.28	1.132280	0.043333	0.043053	111.279	25775.8	0.040095	0.064275	1731.29	92888.9
1134	2.000000	1.134565	7.37615e+06	-56839.1	1055.82	-29738	0.000000	0.000000	7.139508	119.28	NaN	0.000000	0.001672	0.001725	28.0834	49.9977	0.001783	28046.5	7.715997	154.851	117.413	1.134261	0.045338	0.045035	119.28	28046.5	0.042148	0.069698	1711.37	97060.2
1134	2.000000	1.136676	7.37615e+06	-56839.1	1055.82	-29738	0.000000	0.000000	7.141934	126.924	NaN	0.000000	0.001658	0.001744	28.0833	51.0212	0.001743	29275.7	7.589003	155.548	127.596	1.136229	0.047450	0.047002	126.924	29275.7	0.044198	0.075327	1684.97	97455.1
1134	2.000000	1.138579	7.37615e+06	-56839.1	1055.82	-29738	0.000000	0.000000	7.144171	135.05	NaN	0.000000	0.001729	0.001746	28.084	52.893	0.001755	30135.9	5.831593	157.433	134.073	1.138210	0.049352	0.048983	135.05	30135.9	0.045991	0.080427	1679.18	97086.2
1134	2.000000	1.140587	7.37615e+06	-56839.1	1055.82	-29738	0.000000	0.000000	7.146610	145.515	NaN	0.000000	0.001637	0.001708	28.0832	55.2127	0.001814	30437.4	5.047617	157.276	146.201	1.140234	0.051361	0.051007	145.515	30437.4	0.047775	0.085660	1698.75	95014.9
1134	2.000000	1.142531	7.37615e+06	-56839.1	1055.82	-29738	0.000000	0.000000	7.148867	153.127	NaN	0.000000	0.001640	0.001735	28.0835	55.987	0.001756	31888.6	6.184943	155.016	150.313	1.142218	0.053304	0.052991	153.127	31888.6	0.049703	0.091496	1673.6	96318.2
1134	2.000000	1.144523	7.37615e+06	-56839.1	1055.82	-29738	0.000000	0.000000	7.151226	162.06	NaN	0.000000	0.001649	0.001735	28.0823	59.5778	0.001959	30419.1	8.075922	154.33	158.194	1.144115	0.055296	0.054888	162.06	30419.1	0.051300	0.096475	1679.8	89477.1
1134	2.000000	1.146657	7.37615e+06	-56839.1	1055.82	-29738	0.000000	0.000000	7.153958	176.591	NaN	0.000000	0.001675	0.001750	28.0819	60.137	0.001741	34546.7	5.857992	156.276	179.059	1.146235	0.057430	0.057009	176.591	34546.7	0.053596	0.103852	1700.42	97942.9
1134	2.000000	1.148519	7.37615e+06	-56839.1	1055.82	-29738	0.000000	0.000000	7.156020	181.448	NaN	0.000000	0.001659	0.001743	28.0822	61.3205	0.001758	34879.1	6.757798	153.87	177.95	1.148209	0.059293	0.058982	181.448	34879.1	0.055391	0.109802	1652.51	96168.8
1134	2.000000	1.150614	7.37615e+06	-56839.1	1055.82	-29738	0.000000	0.000000	7.158379	187.869	NaN	0.000000	0.001674	0.001691	28.0821	64.7701	0.001737	37285.8	3.048686	157.376	189.219	1.150353	0.061387	0.061126	187.869	37285.8	0.057608	0.117372	1600.63	99434
1134	2.000000	1.152533	7.37615e+06	-56839.1	1055.82	-29738	0.000000	0.000000	7.160670	196.914	NaN	0.000000	0.001644	0.001717	28.0823	65.912	0.001796	36692.7	3.638441	156.565	194.252	1.152275	0.063306	0.063048	196.914	36692.7	0.059281	0.123243	1597.78	95493.3
1134	2.000000	1.154529	7.37615e+06	-56839.1	1055.82	-29738	0.000000	0.000000	7.163395	214.628	NaN	0.000000	0.001666	0.001730	28.0821	68.3798	0.001745	39189.3	6.256345	154.11	214.005	1.154150	0.065302	0.064924	214.628	39189.3	0.061195	0.130127	1649.38	99256.3
1134	2.000000	1.156575	7.37615e+06	-56839.1	1055.82	-29738	0.000000	0.000000	7.165808	223.536	NaN	0.000000	0.001681	0.001753	28.0821	70.3652	0.001855	37933.3	4.826554	156.602	222.723	1.156220	0.067349	0.066994	223.536	37933.3	0.062929	0.136521	1637.38	93798.2
1134	2.000000	1.158508	7.37615e+06	-56839.1	1055.82	-29738	0.000000	0.000000	7.168581	243.958	NaN	0.000000	0.001661	0.001691	28.0822	72.0536	0.001819	39619.9	5.873007	154.852	240.372	1.158117	0.069282	0.068890	243.958	39619.9	0.064664	0.143060	1705.28	95703.3
1134	2.000000	1.160457	7.37615e+06	-56839.1	1055.82	-29738	0.000000	0.000000	7.170885	252.596	NaN	0.000000	0.001691	0.001686	28.082	74.1188	0.001812	40906.5	4.210813	156.051	247.78	1.160182	0.071230	0.070955	252.596	40906.5	0.066599	0.150528	1678.07	96329.1
1134	2.000000	1.162541	7.37615e+06	-56839.1	1055.82	-29738	0.000000	0.000000	7.173334	261.466	NaN	0.000000	0.001687	0.001732	28.0822	75.4683	0.001806	41795.8	5.396917	154.69	260.227	1.162275	0.073314	0.073048	261.466	41795.8	0.068622	0.158529	1649.33	95907.2
1134	2.000000	1.164578	7.37615e+06	-56839.1	1055.82	-29738	0.000000	0.000000	7.175761	270.949	NaN	0.000000	0.001656	0.001734	28.0822	78.2388	0.001792	43666.2	3.896038	155.969	273.91	1.164234	0.075351	0.075007	270.949	43666.2	0.070697	0.166936	1623.07	97643.7
1134	2.000000	1.166589	7.37615e+06	-56839.1	1055.82	-29738	0.000000	0.000000	7.178411	286.453	NaN	0.000000	0.001662	0.001746	28.0823	81.0902	0.001931	41984.8	7.596042	152.759	287.783	1.166306	0.077363	0.077079	286.453	41984.8	0.072246	0.173343	1652.52	92132.3
1134	2.000000	1.168571	7.37615e+06	-56839.1	1055.82	-29738	0.000000	0.000000	7.180947	299.948	NaN	0.000000	0.001676	0.001726	28.0821	81.5576	0.001847	44167	6.713993	153.72	299.368	1.168086	0.079344	0.078859	299.948	44167	0.074251	0.181807	1649.81	94637.9
1134	2.000000	1.170517	7.37615e+06	-56839.1	1055.82	-29738	0.000000	0.000000	7.183547	315.835	NaN	0.000000	0.001667	0.001733	28.0823	84.0211	0.001810	46432.6	0.920239	157.992	313.833	1.170248	0.081290	0.081021	315.835	46432.6	0.076189	0.190171	1660.8	97280.1
1134	2.000000	1.172527	7.37615e+06	-56839.1	1055.82	-29738	0.000000	0.000000	7.186093	328.861	NaN	0.000000	0.001548	0.001731	28.0821	86.1071	0.001893	45490.8	9.702043	150.315	329.307	1.172172	0.083300	0.082945	328.861	45490.8	0.077878	0.197604	1664.24	93497.2
1134	2.000000	1.174467	7.37615e+06	-56839.1	1055.82	-29738	0.000000	0.000000	7.188619	343.11	NaN	0.000000	0.001608	0.001730	28.0823	87.7949	0.001769	49620.8	6.398747	152.322	339.769	1.174133	0.085240	0.084906	343.11	49620.8	0.080054	0.207373	1654.55	99554.6
1134	2.000000	1.176492	7.37615e+06	-56839.1	1055.82	-29738	0.000000	0.000000	7.191316	359.456	NaN	0.000000	0.001572	0.001711	28.0822	88.7283	0.001742	50931.4	4.702389	154.764	354.567	1.176178	0.087265	0.086951	359.456	50931.4	0.081972	0.216168	1662.85	100084
1134	2.000000	1.178390	7.37615e+06	-56839.1	1055.82	-29738	0.000000	0.000000	7.193577	368.274	NaN	0.000000	0.001611	0.001731	28.0834	91.2284	0.001829	49872.5	3.644961	154.814	360.725	1.178181	0.089163	0.088954	368.274	49872.5	0.083625	0.223885	1644.92	96299
1134	2.000000	1.180446	7.37615e+06	-56839.1	1055.82	-29738	0.000000	0.000000	7.196280	383.982	NaN	0.000000	0.001576	0.001750	28.0837	92.4878	0.001840	50273	3.662322	155.253	380.047	1.180144	0.091220	0.090918	383.982	50273	0.085491	0.232750	1649.76	95205.7
1134	2.000000	1.182541	7.37615e+06	-56839.1	1055.82	-29738	0.000000	0.000000	7.199094	401.465	NaN	0.000000	0.001531	0.001730	28.0834	92.2115	0.001718	53669.6	2.682737	155.999	402.126	1.182176	0.093315	0.092950	401.465	53669.6	0.087704	0.243471	1648.92	99375.2
1134	2.000000	1.184632	7.37615e+06	-56839.1	1055.82	-29738	0.000000	0.000000	7.201815	416.775	NaN	0.000000	0.001553	0.001738	28.0833	95.9426	0.001751	54795.4	4.548298	154.031	422.163	1.184161	0.095405	0.094934	416.775	54795.4	0.089701	0.253335	1645.15	99464.8
1134	2.000000	1.186531	7.37615e+06	-56839.1	1055.82	-29738	0.000000	0.000000	7.204362	432.521	NaN	0.000000	0.001600	0.001721	28.0831	98.0276	0.001766	55519.6	4.274032	154.15	431.401	1.186285	0.097304	0.097059	432.521	55519.6	0.091462	0.262187	1649.67	99063.5
1134	2.000000	1.188428	7.37615e+06	-56839.1	1055.82	-29738	0.000000	0.000000	7.207078	452.417	NaN	0.000000	0.001585	0.001715	28.0832	98.8907	0.001780	55548.2	1.600315	156.851	444.528	1.188081	0.099202	0.098854	452.417	55548.2	0.093093	0.270516	1672.42	97576.8
1134	2.000000	1.190560	7.37615e+06	-56839.1	1055.82	-29738	0.000000	0.000000	7.209397	456.976	NaN	0.000000	0.001583	0.001699	28.0835	102.813	0.001791	57403.9	4.293131	153.235	457.506	1.190375	0.101333	0.101148	456.976	57403.9	0.095362	0.282302	1618.75	98709.1
1134	2.000000	1.191403	7.37615e+06	-56839.1	1055.82	-29738	0.000000	0.000000	7.211105	478.001	NaN	0.000000	0.001587	0.001716	28.0832	103.221	0.001798	57415.3	7.214876	150.984	472.617	1.191005	0.102177	0.101778	478.001	57415.3	0.095933	0.285301	1675.42	98208.5