File: remote_trans/data/nanoindenter/0828-1/data/Data_2025-08-06,11h17m57s/2025-07-22_16-23-58_1_564.txt
2025-07-22, 16:23:58, 1
Index	Phase	Displacement	Time	Pos X	Pos Y	Pos Z	Rot A	Rot B	Piezo Z	Force A	Force B	Gripper	Voltage A	Voltage B	Temperature	Amplitude force	Amplitude pos	Stiffness	Phase shift	Phase excitation	Force A raw	Displacement raw	HMax	HMax raw	Real Force	Real Stiffness	Contact Depth	Area	Hardness	Reduced Mod.
[#]	[#]	[um]	[s]	[um]	[um]	[um]	[m°]	[m°]	[um]	[uN]	[uN]	[V]	[V]	[V]	[°C]	[uN]	[um]	[N/m]	[°]	[°]	[uN]	[um]	[um]	[um]	[uN]	[N/m]	[um]	[um^2]	[MPa]	[MPa]
564	1.000000	0.002485	7.37056e+06	-48889.1	1005.82	-29760.8	0.000000	0.000000	6.002813	0.046880	NaN	0.000000	0.001586	0.001699	28.0822	0.074740	0.001015	73.6674	-30.1353	-165.953	0.020718	0.001197	-1.077836	-1.079123	0.046880	73.6674	-1.078313	-2.563654E+14	-1.828649E-16	NaN
564	1.000000	0.010409	7.37056e+06	-48889.1	1005.82	-29760.8	0.000000	0.000000	6.010734	-0.015481	NaN	0.000000	0.001540	0.001690	28.082	0.044513	0.000865	51.44	14.4922	-163.388	-0.031897	0.009130	-1.069911	-1.071190	-0.015481	51.44	-1.069685	-1.963196E+14	7.885443E-17	NaN
564	1.000000	0.018421	7.37056e+06	-48889.1	1005.82	-29760.8	0.000000	0.000000	6.018750	0.083445	NaN	0.000000	0.001571	0.001669	28.0821	0.036192	0.001779	20.3413	75.6213	-164.609	0.021118	0.017146	-1.061900	-1.063174	0.083445	20.3413	-1.064977	-1.697051E+14	-4.917033E-16	NaN
564	1.000000	0.026455	7.37056e+06	-48889.1	1005.82	-29760.8	0.000000	0.000000	6.026780	-0.028459	NaN	0.000000	0.001630	0.001675	28.082	0.104172	0.001754	59.3763	168.459	-162.666	-0.048548	0.025050	-1.053865	-1.055270	-0.028459	59.3763	-1.053506	-1.189979E+14	2.391585E-16	NaN
564	1.000000	0.034403	7.37056e+06	-48889.1	1005.82	-29760.8	0.000000	0.000000	6.034730	0.012363	NaN	0.000000	0.001644	0.001709	28.0819	0.089816	0.001935	46.4111	95.6491	-167.208	0.046771	0.033152	-1.045917	-1.047168	0.012363	46.4111	-1.046117	-9.466957E+13	-1.305883E-16	NaN
564	1.000000	0.042415	7.37056e+06	-48889.1	1005.82	-29760.8	0.000000	0.000000	6.042742	0.026061	NaN	0.000000	0.001604	0.001667	28.0822	0.089188	0.001905	46.8244	-21.2371	-164.237	0.045143	0.041142	-1.037905	-1.039178	0.026061	46.8244	-1.038323	-7.437238E+13	-3.504140E-16	NaN
564	1.000000	0.050403	7.37056e+06	-48889.1	1005.82	-29760.8	0.000000	0.000000	6.050729	-0.002096	NaN	0.000000	0.001629	0.001702	28.0819	0.047651	0.001933	24.6491	93.5751	-166.749	0.062157	0.049080	-1.029918	-1.031241	-0.002096	24.6491	-1.029854	-5.721564E+13	3.663920E-17	NaN
564	1.000000	0.058404	7.37056e+06	-48889.1	1005.82	-29760.8	0.000000	0.000000	6.058731	0.028685	NaN	0.000000	0.001640	0.001678	28.0823	0.062929	0.002007	31.361	117.423	-163.315	-0.032912	0.057094	-1.021916	-1.023227	0.028685	31.361	-1.022602	-4.570472E+13	-6.276262E-16	NaN
564	1.000000	0.066433	7.37056e+06	-48889.1	1005.82	-29760.8	0.000000	0.000000	6.066758	-0.027048	NaN	0.000000	0.001616	0.001692	28.0819	0.090779	0.002084	43.5688	-129.184	-163.963	-0.049693	0.065050	-1.013887	-1.015270	-0.027048	43.5688	-1.013421	-3.438976E+13	7.865009E-16	NaN
564	1.000000	0.074424	7.37056e+06	-48889.1	1005.82	-29760.8	0.000000	0.000000	6.074752	0.069634	NaN	0.000000	0.001617	0.001681	28.0822	0.025392	0.001985	12.7903	126.266	-167.03	0.009862	0.073111	-1.005897	-1.007210	0.069634	12.7903	-1.009980	-3.091089E+13	-2.252742E-15	NaN
564	1.000000	0.082426	7.37056e+06	-48889.1	1005.82	-29760.8	0.000000	0.000000	6.082751	-0.002181	NaN	0.000000	0.001665	0.001708	28.081	0.020525	0.002010	10.2111	135.431	-166.014	0.022664	0.081116	-0.997895	-0.999204	-0.002181	10.2111	-0.997735	-2.114786E+13	1.031144E-16	NaN
564	1.000000	0.090459	7.37056e+06	-48889.1	1005.82	-29760.8	0.000000	0.000000	6.090783	-0.042626	NaN	0.000000	0.001675	0.001718	28.0808	0.046341	0.002017	22.9777	-36.6074	-162.432	0.013332	0.089126	-0.989861	-0.991195	-0.042626	22.9777	-0.988470	-1.586742E+13	2.686359E-15	NaN
564	1.000000	0.098451	7.37057e+06	-48889.1	1005.82	-29760.8	0.000000	0.000000	6.098775	-0.035097	NaN	0.000000	0.001680	0.001706	28.081	0.067954	0.002051	33.1284	69.3786	-167.212	-0.024166	0.097113	-0.981870	-0.983207	-0.035097	33.1284	-0.981075	-1.261522E+13	2.782079E-15	NaN
564	1.000000	0.106452	7.37057e+06	-48889.1	1005.82	-29760.8	0.000000	0.000000	6.106777	0.001577	NaN	0.000000	0.001664	0.001736	28.0807	0.049214	0.002181	22.5666	116.29	-165.678	-0.010306	0.105117	-0.973869	-0.975203	0.001577	22.5666	-0.973921	-1.010430E+13	-1.560965E-16	NaN
564	1.000000	0.114440	7.37057e+06	-48889.1	1005.82	-29760.8	0.000000	0.000000	6.114767	0.034223	NaN	0.000000	0.001671	0.001726	28.0809	0.082723	0.002051	40.3411	49.4131	-164.578	0.021581	0.113143	-0.965880	-0.967178	0.034223	40.3411	-0.966517	-8.029983E+12	-4.261955E-15	NaN
564	1.000000	0.122453	7.37057e+06	-48889.1	1005.82	-29760.8	0.000000	0.000000	6.122781	0.056047	NaN	0.000000	0.001644	0.001723	28.081	0.091655	0.002035	45.034	18.8094	-164.81	0.003710	0.121166	-0.957868	-0.959154	0.056047	45.034	-0.958801	-6.319864E+12	-8.868350E-15	NaN
564	1.000000	0.130452	7.37057e+06	-48889.1	1005.82	-29760.8	0.000000	0.000000	6.130777	-0.018721	NaN	0.000000	0.001648	0.001724	28.0807	0.080160	0.002043	39.2289	-60.4791	-166.455	-0.045103	0.129218	-0.949868	-0.951102	-0.018721	39.2289	-0.949510	-4.736141E+12	3.952883E-15	NaN
564	1.000000	0.138441	7.37057e+06	-48889.1	1005.82	-29760.8	0.000000	0.000000	6.138764	-0.070325	NaN	0.000000	0.001610	0.001733	28.0811	0.116082	0.002019	57.5055	-65.7782	-162.444	-0.052673	0.137192	-0.941879	-0.943129	-0.070325	57.5055	-0.940962	-3.631756E+12	1.936393E-14	NaN
564	1.000000	0.146463	7.37057e+06	-48889.1	1005.82	-29760.8	0.000000	0.000000	6.146788	-0.019405	NaN	0.000000	0.001631	0.001691	28.0808	0.058687	0.002027	28.9589	66.1393	-165.92	-0.111413	0.145136	-0.933858	-0.935184	-0.019405	28.9589	-0.933355	-2.867327E+12	6.767480E-15	NaN
564	1.000000	0.154472	7.37057e+06	-48889.1	1005.82	-29760.8	0.000000	0.000000	6.154797	-0.020207	NaN	0.000000	0.001617	0.001711	28.0808	0.110236	0.001916	57.5446	-178.234	-165.235	-0.060910	0.153172	-0.925848	-0.927149	-0.020207	57.5446	-0.925585	-2.252166E+12	8.972158E-15	NaN
564	1.000000	0.162463	7.37057e+06	-48889.1	1005.82	-29760.8	0.000000	0.000000	6.162786	-0.047191	NaN	0.000000	0.001626	0.001682	28.0807	0.102959	0.002093	49.1851	87.5788	-166.419	-0.069479	0.161092	-0.917858	-0.919228	-0.047191	49.1851	-0.917138	-1.732072E+12	2.724563E-14	NaN
564	1.000000	0.170466	7.37057e+06	-48889.1	1005.82	-29760.8	0.000000	0.000000	6.170794	0.048614	NaN	0.000000	0.001636	0.001690	28.0804	0.069480	0.002059	33.7377	-16.801	-166.486	0.059841	0.169182	-0.909854	-0.911138	0.048614	33.7377	-0.910935	-1.428218E+12	-3.403830E-14	NaN
564	1.000000	0.178467	7.37057e+06	-48889.1	1005.82	-29760.8	0.000000	0.000000	6.178791	-0.034536	NaN	0.000000	0.001612	0.001684	28.0807	0.044116	0.002062	21.3968	-121.109	-165.235	0.020693	0.177184	-0.901854	-0.903136	-0.034536	21.3968	-0.900643	-1.036943E+12	3.330556E-14	NaN
564	1.000000	0.186455	7.37057e+06	-48889.1	1005.82	-29760.8	0.000000	0.000000	6.186779	-0.035967	NaN	0.000000	0.001597	0.001681	28.0805	0.124503	0.001994	62.4476	16.1235	-167.104	-0.016291	0.185161	-0.893865	-0.895159	-0.035967	62.4476	-0.893433	-8.285612E+11	4.340916E-14	NaN
564	1.000000	0.194495	7.37057e+06	-48889.1	1005.82	-29760.8	0.000000	0.000000	6.194822	0.021218	NaN	0.000000	0.001637	0.001685	28.0809	0.127510	0.002028	62.8826	-52.6179	-168.675	-0.013977	0.193163	-0.885825	-0.887157	0.021218	62.8826	-0.886078	-6.590167E+11	-3.219595E-14	NaN
564	1.000000	0.202491	7.37057e+06	-48889.1	1005.82	-29760.8	0.000000	0.000000	6.202817	-0.003360	NaN	0.000000	0.001614	0.001727	28.0804	0.043198	0.001977	21.8475	153.426	-163.259	0.021103	0.201155	-0.877829	-0.879165	-0.003360	21.8475	-0.877714	-5.079152E+11	6.614819E-15	NaN
564	1.000000	0.210499	7.37057e+06	-48889.1	1005.82	-29760.8	0.000000	0.000000	6.210823	-0.041559	NaN	0.000000	0.001617	0.001746	28.0804	0.094475	0.001895	49.8633	-69.2278	-165.424	0.030986	0.209157	-0.869822	-0.871163	-0.041559	49.8633	-0.869197	-3.895622E+11	1.066806E-13	NaN
564	1.000000	0.218505	7.37057e+06	-48889.1	1005.82	-29760.8	0.000000	0.000000	6.218831	0.009212	NaN	0.000000	0.001646	0.001730	28.0817	0.047593	0.002059	23.1135	-132.207	-163.458	-0.032708	0.217193	-0.861815	-0.863127	0.009212	23.1135	-0.862114	-3.124198E+11	-2.948614E-14	NaN
564	1.000000	0.226496	7.37057e+06	-48889.1	1005.82	-29760.8	0.000000	0.000000	6.226823	0.015156	NaN	0.000000	0.001636	0.001714	28.0816	0.087686	0.002033	43.127	158.321	-163.526	0.057507	0.225173	-0.853824	-0.855148	0.015156	43.127	-0.854088	-2.432673E+11	-6.230116E-14	NaN
564	1.000000	0.234510	7.37057e+06	-48889.1	1005.82	-29760.8	0.000000	0.000000	6.234835	-0.008605	NaN	0.000000	0.001637	0.001683	28.0819	0.045682	0.001943	23.5054	-69.9095	-161.979	0.021347	0.233167	-0.845810	-0.847153	-0.008605	23.5054	-0.845536	-1.863295E+11	4.617958E-14	NaN
564	1.000000	0.242542	7.37057e+06	-48889.1	1005.82	-29760.8	0.000000	0.000000	6.242866	-0.041842	NaN	0.000000	0.001659	0.001703	28.0815	0.106991	0.002082	51.3896	153.502	-165.011	-0.059000	0.241192	-0.837778	-0.839129	-0.041842	51.3896	-0.837167	-1.435211E+11	2.915397E-13	NaN
564	1.000000	0.250506	7.37057e+06	-48889.1	1005.82	-29760.8	0.000000	0.000000	6.250829	-0.073456	NaN	0.000000	0.001627	0.001690	28.0816	0.039971	0.001960	20.391	-111.322	-163.737	-0.049042	0.249200	-0.829814	-0.831120	-0.073456	20.391	-0.827112	-1.048681E+11	7.004596E-13	NaN
564	1.000000	0.258501	7.37057e+06	-48889.1	1005.82	-29760.8	0.000000	0.000000	6.258824	-0.068903	NaN	0.000000	0.001622	0.001705	28.0817	0.077415	0.002088	37.0772	124.411	-166.997	-0.098415	0.257178	-0.821819	-0.823143	-0.068903	37.0772	-0.820425	-8.510960E+10	8.095776E-13	NaN
564	1.000000	0.266522	7.37057e+06	-48889.1	1005.82	-29760.8	0.000000	0.000000	6.266849	0.030399	NaN	0.000000	0.001547	0.001719	28.0816	0.101084	0.002043	49.4702	-50.8346	-166.659	0.017490	0.265196	-0.813799	-0.815124	0.030399	49.4702	-0.814260	-7.020325E+10	-4.330162E-13	NaN
564	1.000000	0.274506	7.37057e+06	-48889.1	1005.82	-29760.8	0.000000	0.000000	6.274833	0.027287	NaN	0.000000	0.001570	0.001717	28.0819	0.087423	0.001857	47.089	-114.171	-165.997	0.031198	0.273195	-0.805814	-0.807126	0.027287	47.089	-0.806249	-5.466051E+10	-4.992109E-13	NaN
564	1.000000	0.282518	7.37057e+06	-48889.1	1005.82	-29760.8	0.000000	0.000000	6.282841	-0.070804	NaN	0.000000	0.001558	0.001736	28.0817	0.041228	0.001979	20.8382	170.597	-160.816	-0.071489	0.281216	-0.797802	-0.799104	-0.070804	20.8382	-0.795254	-3.876367E+10	1.826565E-12	NaN
564	1.000000	0.290559	7.37057e+06	-48889.1	1005.82	-29760.8	0.000000	0.000000	6.290884	-0.018874	NaN	0.000000	0.001556	0.001692	28.0819	0.076473	0.002028	37.7002	-100.295	-164.563	0.000363	0.289214	-0.789761	-0.791107	-0.018874	37.7002	-0.789386	-3.226586E+10	5.849512E-13	NaN
564	1.000000	0.298503	7.37057e+06	-48889.1	1005.82	-29760.8	0.000000	0.000000	6.298830	0.018791	NaN	0.000000	0.001535	0.001732	28.0818	0.080220	0.001952	41.0959	16.9768	-162.268	0.044532	0.297164	-0.781817	-0.783156	0.018791	41.0959	-0.782160	-2.573850E+10	-7.300902E-13	NaN
564	1.000000	0.306490	7.37057e+06	-48889.1	1005.82	-29760.8	0.000000	0.000000	6.306815	-0.000169	NaN	0.000000	0.001544	0.001714	28.0819	0.089304	0.001992	44.8401	98.0911	-163.444	-0.021915	0.305234	-0.773831	-0.775086	-0.000169	44.8401	-0.773828	-1.983105E+10	8.533506E-15	NaN
564	1.000000	0.314561	7.37057e+06	-48889.1	1005.82	-29760.8	0.000000	0.000000	6.314886	-0.028240	NaN	0.000000	0.001555	0.001645	28.0819	0.037642	0.002053	18.3366	-25.7403	-164.122	-0.080410	0.313198	-0.765759	-0.767122	-0.028240	18.3366	-0.764604	-1.485695E+10	1.900791E-12	NaN
564	1.000000	0.322545	7.37057e+06	-48889.1	1005.82	-29760.8	0.000000	0.000000	6.322869	-0.034894	NaN	0.000000	0.001494	0.001679	28.0819	0.031250	0.002071	15.0903	-8.448506	-163.405	-0.020180	0.321206	-0.757776	-0.759114	-0.034894	15.0903	-0.756041	-1.136165E+10	3.071246E-12	NaN
564	1.000000	0.330559	7.37057e+06	-48889.1	1005.82	-29760.8	0.000000	0.000000	6.330885	0.000727	NaN	0.000000	0.001518	0.001727	28.0822	0.054165	0.001943	27.8752	-152.177	-165.39	0.109439	0.329270	-0.749761	-0.751050	0.000727	27.8752	-0.749780	-9.337530E+9	-7.785978E-14	NaN
564	1.000000	0.338541	7.37057e+06	-48889.1	1005.82	-29760.8	0.000000	0.000000	6.338867	-0.002419	NaN	0.000000	0.001511	0.001724	28.0821	0.091498	0.002064	44.3226	-92.9361	-165.574	0.032060	0.337234	-0.741779	-0.743086	-0.002419	44.3226	-0.741738	-7.256534E+9	3.333525E-13	NaN
564	1.000000	0.346553	7.37057e+06	-48889.1	1005.82	-29760.8	0.000000	0.000000	6.346878	-0.028807	NaN	0.000000	0.001529	0.001719	28.0825	0.049192	0.002123	23.1697	-121.318	-164.516	0.063753	0.345213	-0.733767	-0.735107	-0.028807	23.1697	-0.732834	-5.488271E+9	5.248911E-12	NaN
564	1.000000	0.354498	7.37057e+06	-48889.1	1005.82	-29760.8	0.000000	0.000000	6.354822	-0.046046	NaN	0.000000	0.001528	0.001723	28.0813	0.095002	0.001908	49.7785	148.503	-163.712	-0.082836	0.353212	-0.725823	-0.727108	-0.046046	49.7785	-0.725129	-4.309302E+9	1.068521E-11	NaN
564	1.000000	0.362540	7.37057e+06	-48889.1	1005.82	-29760.8	0.000000	0.000000	6.362866	0.021151	NaN	0.000000	0.001456	0.001705	28.081	0.021780	0.001966	11.0775	-89.6305	-166.114	0.057124	0.361254	-0.717781	-0.719066	0.021151	11.0775	-0.719213	-3.578792E+9	-5.909989E-12	NaN
564	1.000000	0.370564	7.37057e+06	-48889.1	1005.82	-29760.8	0.000000	0.000000	6.370888	-0.027397	NaN	0.000000	0.001519	0.001673	28.0811	0.053586	0.002051	26.1276	-121.08	-163.405	-0.061188	0.369242	-0.709757	-0.711078	-0.027397	26.1276	-0.708970	-2.594146E+9	1.056122E-11	NaN
564	1.000000	0.378574	7.37057e+06	-48889.1	1005.82	-29760.8	0.000000	0.000000	6.378900	0.004709	NaN	0.000000	0.001537	0.001674	28.0808	0.002102	0.001978	1.063055	-148.764	-168.161	0.048149	0.377285	-0.701747	-0.703036	0.004709	1.063055	-0.705069	-2.294798E+9	-2.052033E-12	NaN
564	1.000000	0.386572	7.37057e+06	-48889.1	1005.82	-29760.8	0.000000	0.000000	6.386897	-0.014829	NaN	0.000000	0.001527	0.001693	28.0811	0.012640	0.002080	6.075604	0.347164	-162.668	-0.080504	0.385226	-0.693749	-0.695094	-0.014829	6.075604	-0.691918	-1.517500E+9	9.772132E-12	NaN
564	1.000000	0.394573	7.37057e+06	-48889.1	1005.82	-29760.8	0.000000	0.000000	6.394897	-0.060124	NaN	0.000000	0.001516	0.001708	28.0807	0.114197	0.002086	54.7481	-64.6512	-165.208	-0.046254	0.393228	-0.685747	-0.687092	-0.060124	54.7481	-0.684923	-1.217666E+9	4.937648E-11	NaN
564	1.000000	0.402562	7.37057e+06	-48889.1	1005.82	-29760.8	0.000000	0.000000	6.402885	-0.062477	NaN	0.000000	0.001501	0.001728	28.0808	0.039066	0.002054	19.0188	-162.002	-166.08	-0.084182	0.401262	-0.677758	-0.679058	-0.062477	19.0188	-0.675295	-8.991670E+8	6.948274E-11	NaN
564	1.000000	0.410572	7.37057e+06	-48889.1	1005.82	-29760.8	0.000000	0.000000	6.410897	-0.008604	NaN	0.000000	0.001536	0.001752	28.0807	0.055916	0.001913	29.222	163.866	-166.754	-0.052132	0.409229	-0.669749	-0.671091	-0.008604	29.222	-0.669528	-7.497725E+8	1.147488E-11	NaN
564	1.000000	0.418577	7.37057e+06	-48889.1	1005.82	-29760.8	0.000000	0.000000	6.418900	-0.058671	NaN	0.000000	0.001567	0.001695	28.0807	0.044621	0.002020	22.0952	171.037	-163.793	-0.055107	0.417257	-0.661744	-0.663063	-0.058671	22.0952	-0.659752	-5.509028E+8	1.064993E-10	NaN
564	1.000000	0.426600	7.37057e+06	-48889.1	1005.82	-29760.8	0.000000	0.000000	6.426924	-0.063141	NaN	0.000000	0.001579	0.001739	28.081	0.072062	0.001999	36.0433	16.3302	-165.477	-0.030310	0.425232	-0.653720	-0.655088	-0.063141	36.0433	-0.652406	-4.369378E+8	1.445084E-10	NaN
564	1.000000	0.434613	7.37057e+06	-48889.1	1005.82	-29760.8	0.000000	0.000000	6.434935	-0.082903	NaN	0.000000	0.001589	0.001698	28.0806	0.070206	0.002012	34.8861	62.6455	-167.959	-0.057547	0.433329	-0.645708	-0.646991	-0.082903	34.8861	-0.643925	-3.343028E+8	2.479874E-10	NaN
564	1.000000	0.442605	7.37057e+06	-48889.1	1005.82	-29760.8	0.000000	0.000000	6.442930	-0.014806	NaN	0.000000	0.001520	0.001719	28.0807	0.047392	0.001998	23.7163	35.4548	-160.016	-0.039114	0.441226	-0.637716	-0.639094	-0.014806	23.7163	-0.637248	-2.707203E+8	5.469173E-11	NaN
564	1.000000	0.450574	7.37057e+06	-48889.1	1005.82	-29760.8	0.000000	0.000000	6.450900	-0.008572	NaN	0.000000	0.001534	0.001692	28.0806	0.115075	0.001874	61.3921	149.077	-166.438	-0.047227	0.449280	-0.629746	-0.631040	-0.008572	61.3921	-0.629642	-2.128640E+8	4.027180E-11	NaN
564	1.000000	0.458608	7.37057e+06	-48889.1	1005.82	-29760.8	0.000000	0.000000	6.458931	-0.065648	NaN	0.000000	0.001586	0.001697	28.0807	0.058164	0.002190	26.5569	-152.853	-166.211	-0.025776	0.457306	-0.621712	-0.623014	-0.065648	26.5569	-0.619858	-1.562016E+8	4.202802E-10	NaN
564	1.000000	0.466573	7.37057e+06	-48889.1	1005.82	-29760.8	0.000000	0.000000	6.466897	-0.048891	NaN	0.000000	0.001597	0.001725	28.0809	0.101225	0.002155	46.9734	158.532	-162.586	-0.031773	0.465294	-0.613748	-0.615026	-0.048891	46.9734	-0.612967	-1.255823E+8	3.893184E-10	NaN
564	1.000000	0.474597	7.37057e+06	-48889.1	1005.82	-29760.8	0.000000	0.000000	6.474919	-0.084177	NaN	0.000000	0.001577	0.001692	28.0807	0.091734	0.001892	48.4863	166.035	-165.793	-0.172291	0.473286	-0.605723	-0.607034	-0.084177	48.4863	-0.604421	-9.579434E+7	8.787271E-10	NaN
564	1.000000	0.482620	7.37057e+06	-48889.1	1005.82	-29760.8	0.000000	0.000000	6.482947	0.028333	NaN	0.000000	0.001574	0.001752	28.0808	0.062308	0.001903	32.7431	113.634	-167.145	0.022071	0.481314	-0.597701	-0.599006	0.028333	32.7431	-0.598350	-7.901893E+7	-3.585656E-10	NaN
564	1.000000	0.490597	7.37057e+06	-48889.1	1005.82	-29760.8	0.000000	0.000000	6.490922	-0.028295	NaN	0.000000	0.001636	0.001757	28.0813	0.045350	0.001884	24.0681	31.7782	-170.849	-0.024659	0.489276	-0.589723	-0.591044	-0.028295	24.0681	-0.588842	-5.843815E+7	4.841870E-10	NaN
564	1.000000	0.498628	7.37057e+06	-48889.1	1005.82	-29760.8	0.000000	0.000000	6.498952	-0.044284	NaN	0.000000	0.001658	0.001762	28.0822	0.031539	0.001956	16.1205	144.971	-165.774	-0.007795	0.497266	-0.581693	-0.583054	-0.044284	16.1205	-0.579632	-4.361672E+7	1.015295E-9	NaN
564	1.000000	0.506587	7.37057e+06	-48889.1	1005.82	-29760.8	0.000000	0.000000	6.506911	-0.065409	NaN	0.000000	0.001578	0.001770	28.0823	0.066945	0.002000	33.4716	174.43	-169.512	-0.013191	0.505322	-0.573733	-0.574999	-0.065409	33.4716	-0.572267	-3.451099E+7	1.895319E-9	NaN
564	1.000000	0.514601	7.37057e+06	-48889.1	1005.82	-29760.8	0.000000	0.000000	6.514925	-0.044277	NaN	0.000000	0.001568	0.001787	28.0821	0.174532	0.002128	82.0169	45.6123	-165.764	0.008727	0.513296	-0.565719	-0.567025	-0.044277	82.0169	-0.565315	-2.766138E+7	1.600691E-9	NaN
564	1.000000	0.522603	7.37057e+06	-48889.1	1005.82	-29760.8	0.000000	0.000000	6.522926	-0.074537	NaN	0.000000	0.001544	0.001717	28.0823	0.013564	0.001923	7.052581	-9.799281	-168.655	-0.013753	0.521306	-0.557717	-0.559014	-0.074537	7.052581	-0.549791	-1.686771E+7	4.418941E-9	NaN
564	1.000000	0.530627	7.37057e+06	-48889.1	1005.82	-29760.8	0.000000	0.000000	6.530952	-0.029776	NaN	0.000000	0.001553	0.001760	28.082	0.021821	0.002077	10.5075	-140.078	-169.2	-0.021101	0.529294	-0.549693	-0.551026	-0.029776	10.5075	-0.547568	-1.571306E+7	1.894968E-9	NaN
564	1.000000	0.538622	7.37057e+06	-48889.1	1005.82	-29760.8	0.000000	0.000000	6.538951	0.073156	NaN	0.000000	0.001543	0.001751	28.082	0.008100	0.001826	4.435153	68.8056	-167.755	0.019440	0.537310	-0.541698	-0.543011	0.073156	4.435153	-0.554069	-1.933314E+7	-3.783987E-9	NaN
564	1.000000	0.546651	7.37057e+06	-48889.1	1005.82	-29760.8	0.000000	0.000000	6.546976	-0.000965	NaN	0.000000	0.001545	0.001742	28.0821	0.082822	0.002117	39.1181	153.531	-167.627	0.010345	0.545340	-0.533670	-0.534981	-0.000965	39.1181	-0.533651	-1.007560E+7	9.582259E-11	NaN
564	1.000000	0.554604	7.37057e+06	-48889.1	1005.82	-29760.8	0.000000	0.000000	6.554930	0.002912	NaN	0.000000	0.001532	0.001731	28.0821	0.146739	0.002061	71.1992	172.272	-165.872	0.002187	0.553348	-0.525716	-0.526972	0.002912	71.1992	-0.525747	-7.82511e+06	-3.721821E-10	NaN
564	1.000000	0.562636	7.37057e+06	-48889.1	1005.82	-29760.8	0.000000	0.000000	6.562961	-0.028294	NaN	0.000000	0.001578	0.001709	28.082	0.059067	0.001922	30.7361	166.38	-164.225	-0.050489	0.561315	-0.517684	-0.519006	-0.028294	30.7361	-0.516994	-5.91264e+06	4.785339E-9	NaN
564	1.000000	0.570630	7.37057e+06	-48889.1	1005.82	-29760.8	0.000000	0.000000	6.570957	0.011706	NaN	0.000000	0.001547	0.001737	28.082	0.102425	0.002002	51.157	36.4043	-169.978	-0.042570	0.569375	-0.509690	-0.510946	0.011706	51.157	-0.509862	-4.70421e+06	-2.488337E-9	NaN
564	1.000000	0.578610	7.37057e+06	-48889.1	1005.82	-29760.8	0.000000	0.000000	6.578934	-0.040888	NaN	0.000000	0.001522	0.001743	28.0822	0.034989	0.002033	17.2086	-37.1587	-166.41	-0.050009	0.577286	-0.501710	-0.503034	-0.040888	17.2086	-0.499928	-3.41991e+06	1.195597E-8	NaN
564	1.000000	0.586648	7.37057e+06	-48889.1	1005.82	-29760.8	0.000000	0.000000	6.586972	-0.047144	NaN	0.000000	0.001573	0.001723	28.082	0.042964	0.001990	21.5937	59.0152	-165.975	-0.048389	0.585335	-0.493672	-0.494985	-0.047144	21.5937	-0.492035	-2.65352e+06	1.776653E-8	NaN
564	1.000000	0.594668	7.37057e+06	-48889.1	1005.82	-29760.8	0.000000	0.000000	6.594991	-0.062418	NaN	0.000000	0.001547	0.001673	28.0822	0.051328	0.002031	25.2691	-59.7408	-164.102	-0.004107	0.593334	-0.485653	-0.486986	-0.062418	25.2691	-0.483800	-2.03568e+06	3.066191E-8	NaN
564	1.000000	0.602641	7.37057e+06	-48889.1	1005.82	-29760.8	0.000000	0.000000	6.602965	-0.042043	NaN	0.000000	0.001590	0.001681	28.0821	0.028912	0.002041	14.1652	-13.7469	-169.056	-0.093287	0.601357	-0.477679	-0.478963	-0.042043	14.1652	-0.475453	-1.55542e+06	2.703009E-8	NaN
564	1.000000	0.610651	7.37057e+06	-48889.1	1005.82	-29760.8	0.000000	0.000000	6.610978	0.014696	NaN	0.000000	0.001575	0.001702	28.0821	0.027799	0.001907	14.5803	39.1526	-164.718	0.028220	0.609325	-0.469669	-0.470995	0.014696	14.5803	-0.470425	-1.32241e+06	-1.111285E-8	NaN
564	1.000000	0.618655	7.37057e+06	-48889.1	1005.82	-29760.8	0.000000	0.000000	6.618979	-0.044727	NaN	0.000000	0.001612	0.001725	28.0819	0.045062	0.001921	23.4521	-75.0376	-163.678	-0.102103	0.617366	-0.461665	-0.462955	-0.044727	23.4521	-0.460235	-951308	4.701620E-8	NaN
564	1.000000	0.626667	7.37057e+06	-48889.1	1005.82	-29760.8	0.000000	0.000000	6.626994	0.035795	NaN	0.000000	0.001629	0.001715	28.0816	0.049047	0.002080	23.5793	-112.063	-165.312	0.052373	0.625349	-0.453654	-0.454972	0.035795	23.5793	-0.454792	-797616	-4.487805E-8	NaN
564	1.000000	0.634644	7.37057e+06	-48889.1	1005.82	-29760.8	0.000000	0.000000	6.634971	0.032382	NaN	0.000000	0.001624	0.001726	28.0808	0.052103	0.001977	26.3608	-5.837394	-168.554	0.023295	0.633354	-0.445676	-0.446966	0.032382	26.3608	-0.446597	-611516	-5.295429E-8	NaN
564	1.000000	0.642645	7.37057e+06	-48889.1	1005.82	-29760.8	0.000000	0.000000	6.642969	-0.045490	NaN	0.000000	0.001582	0.001758	28.0809	0.054753	0.002003	27.3371	-164.816	-164.026	-0.005475	0.641372	-0.437676	-0.438948	-0.045490	27.3371	-0.436428	-439466	1.035122E-7	NaN
564	1.000000	0.650690	7.37057e+06	-48889.1	1005.82	-29760.8	0.000000	0.000000	6.651015	-0.008503	NaN	0.000000	0.001564	0.001745	28.0811	0.082796	0.001898	43.6222	-123.197	-165.782	0.013979	0.649404	-0.429630	-0.430916	-0.008503	43.6222	-0.429484	-350562	2.425647E-8	NaN
564	1.000000	0.658685	7.37057e+06	-48889.1	1005.82	-29760.8	0.000000	0.000000	6.659008	-0.084099	NaN	0.000000	0.001540	0.001712	28.0809	0.055371	0.002047	27.0548	-129.496	-164.47	-0.006234	0.657386	-0.421635	-0.422935	-0.084099	27.0548	-0.419304	-251501	3.343886E-7	NaN
564	1.000000	0.666642	7.37057e+06	-48889.1	1005.82	-29760.8	0.000000	0.000000	6.666970	0.037791	NaN	0.000000	0.001567	0.001757	28.0807	0.080962	0.002092	38.7027	-6.738764	-164.555	0.000380	0.665334	-0.413678	-0.414986	0.037791	38.7027	-0.414410	-214330	-1.763237E-7	NaN
564	1.000000	0.674685	7.37057e+06	-48889.1	1005.82	-29760.8	0.000000	0.000000	6.675012	0.031187	NaN	0.000000	0.001512	0.001697	28.0807	0.080500	0.002121	37.9498	174.863	-166.612	0.061639	0.673363	-0.405636	-0.406958	0.031187	37.9498	-0.406252	-164087	-1.900616E-7	NaN
564	1.000000	0.682715	7.37057e+06	-48889.1	1005.82	-29760.8	0.000000	0.000000	6.683040	0.002343	NaN	0.000000	0.001535	0.001709	28.0808	0.054013	0.001927	28.0245	-63.4063	-168.428	-0.134601	0.681392	-0.397606	-0.398928	0.002343	28.0245	-0.397669	-123804	-1.892568E-8	NaN
564	1.000000	0.690691	7.37057e+06	-48889.1	1005.82	-29760.8	0.000000	0.000000	6.691018	0.037631	NaN	0.000000	0.001509	0.001767	28.081	0.051938	0.001944	26.7237	-94.2948	-167.079	0.049808	0.689379	-0.389629	-0.390941	0.037631	26.7237	-0.390685	-98394.4	-3.824552E-7	NaN
564	1.000000	0.698678	7.37057e+06	-48889.1	1005.82	-29760.8	0.000000	0.000000	6.699002	-0.041649	NaN	0.000000	0.001572	0.001740	28.0811	0.114518	0.001946	58.8585	-93.1154	-164.517	0.001873	0.697406	-0.381642	-0.382914	-0.041649	58.8585	-0.381112	-71753.1	5.804536E-7	NaN
564	1.000000	0.706721	7.37057e+06	-48889.1	1005.82	-29760.8	0.000000	0.000000	6.707048	0.022059	NaN	0.000000	0.001503	0.001747	28.0808	0.072254	0.002033	35.5344	89.6359	-168.803	-0.019324	0.705400	-0.373599	-0.374920	0.022059	35.5344	-0.374065	-56835.9	-3.881258E-7	NaN
564	1.000000	0.714675	7.37057e+06	-48889.1	1005.82	-29760.8	0.000000	0.000000	6.715001	-0.007967	NaN	0.000000	0.001539	0.001739	28.081	0.061823	0.001965	31.4605	97.4125	-166.294	-0.101416	0.713381	-0.365645	-0.366940	-0.007967	31.4605	-0.365455	-42719.3	1.864892E-7	NaN
564	1.000000	0.722696	7.37057e+06	-48889.1	1005.82	-29760.8	0.000000	0.000000	6.723020	-0.040471	NaN	0.000000	0.001558	0.001776	28.0808	0.061369	0.002113	29.0478	89.7391	-166.797	-0.000880	0.721324	-0.357624	-0.358996	-0.040471	29.0478	-0.356579	-31795.4	1.272853E-6	NaN
564	1.000000	0.730697	7.37057e+06	-48889.1	1005.82	-29760.8	0.000000	0.000000	6.731022	-0.028675	NaN	0.000000	0.001529	0.001793	28.0809	0.075033	0.001980	37.9012	158.026	-168.19	-0.025902	0.729361	-0.349623	-0.350959	-0.028675	37.9012	-0.349056	-24734.2	1.159335E-6	NaN
564	1.000000	0.738721	7.37057e+06	-48889.1	1005.82	-29760.8	0.000000	0.000000	6.739048	0.017420	NaN	0.000000	0.001514	0.001728	28.081	0.054312	0.001992	27.2701	137.503	-164.131	0.008849	0.737386	-0.341599	-0.342935	0.017420	27.2701	-0.342078	-19580.9	-8.896417E-7	NaN
564	1.000000	0.746699	7.37057e+06	-48889.1	1005.82	-29760.8	0.000000	0.000000	6.747025	-0.007978	NaN	0.000000	0.001505	0.001733	28.0808	0.023117	0.001895	12.202	-172.528	-163.476	0.015980	0.745392	-0.333621	-0.334928	-0.007978	12.202	-0.333131	-14496.6	5.503660E-7	NaN
564	1.000000	0.754712	7.37057e+06	-48889.1	1005.82	-29760.8	0.000000	0.000000	6.755039	0.034153	NaN	0.000000	0.001514	0.001732	28.0811	0.096002	0.001998	48.0423	-110.51	-168.982	0.047006	0.753385	-0.325609	-0.326935	0.034153	48.0423	-0.326142	-11452.3	-2.982145E-6	NaN
564	1.000000	0.762720	7.37057e+06	-48889.1	1005.82	-29760.8	0.000000	0.000000	6.763045	-0.015571	NaN	0.000000	0.001494	0.001732	28.0807	0.114584	0.001995	57.4222	78.3995	-164.96	-0.012406	0.761374	-0.317600	-0.318946	-0.015571	57.4222	-0.317397	-8517.28	1.828109E-6	NaN
564	1.000000	0.770719	7.37057e+06	-48889.1	1005.82	-29760.8	0.000000	0.000000	6.771046	0.037633	NaN	0.000000	0.001530	0.001709	28.0817	0.036036	0.001894	19.0227	74.6201	-166.184	-0.037584	0.769420	-0.309601	-0.310900	0.037633	19.0227	-0.311085	-6872.44	-5.475891E-6	NaN
564	1.000000	0.778719	7.37057e+06	-48889.1	1005.82	-29760.8	0.000000	0.000000	6.779043	-0.045160	NaN	0.000000	0.001517	0.001692	28.082	0.078567	0.001995	39.3795	-132.372	-163.071	-0.004370	0.777419	-0.301601	-0.302901	-0.045160	39.3795	-0.300741	-4826.86	9.356062E-6	NaN
564	1.000000	0.786731	7.37057e+06	-48889.1	1005.82	-29760.8	0.000000	0.000000	6.787059	0.055205	NaN	0.000000	0.001485	0.001681	28.0816	0.037847	0.001903	19.8872	133.391	-167.544	0.001673	0.785368	-0.293589	-0.294952	0.055205	19.8872	-0.295671	-4056.13	-1.361021E-5	NaN
564	1.000000	0.794736	7.37057e+06	-48889.1	1005.82	-29760.8	0.000000	0.000000	6.795064	0.037629	NaN	0.000000	0.001514	0.001706	28.0816	0.031011	0.002016	15.3805	-96.0381	-164.633	0.037940	0.793470	-0.285584	-0.286850	0.037629	15.3805	-0.287419	-3052.11	-1.232879E-5	NaN
564	1.000000	0.802754	7.37057e+06	-48889.1	1005.82	-29760.8	0.000000	0.000000	6.803082	0.037499	NaN	0.000000	0.001495	0.001689	28.0818	0.058155	0.001939	29.9883	-88.6044	-167.04	-0.003186	0.801387	-0.277566	-0.278933	0.037499	29.9883	-0.278504	-2240.73	-1.673522E-5	NaN
564	1.000000	0.810685	7.37057e+06	-48889.1	1005.82	-29760.8	0.000000	0.000000	6.811010	-0.016708	NaN	0.000000	0.001555	0.001685	28.0816	0.041865	0.001972	21.2281	-85.9218	-165.635	-0.023668	0.809415	-0.269636	-0.270905	-0.016708	21.2281	-0.269046	-1610.76	1.037244E-5	NaN
564	1.000000	0.818753	7.37057e+06	-48889.1	1005.82	-29760.8	0.000000	0.000000	6.819079	0.021826	NaN	0.000000	0.001585	0.001724	28.0818	0.076821	0.002117	36.2847	21.0113	-169.608	0.047169	0.817436	-0.261568	-0.262885	0.021826	36.2847	-0.262019	-1258.44	-1.734397E-5	NaN
564	1.000000	0.826755	7.37057e+06	-48889.1	1005.82	-29760.8	0.000000	0.000000	6.827080	-0.040795	NaN	0.000000	0.001563	0.001701	28.0816	0.069621	0.002123	32.7895	-134.344	-162.572	-0.022058	0.825422	-0.253565	-0.254898	-0.040795	32.7895	-0.252632	-902.859	4.518401E-5	NaN
564	1.000000	0.834756	7.37057e+06	-48889.1	1005.82	-29760.8	0.000000	0.000000	6.835081	-0.010576	NaN	0.000000	0.001558	0.001706	28.0818	0.096112	0.001993	48.2164	86.9126	-168.203	-0.029565	0.833432	-0.245565	-0.246889	-0.010576	48.2164	-0.245400	-697.698	1.515873E-5	NaN
564	1.000000	0.842758	7.37057e+06	-48889.1	1005.82	-29760.8	0.000000	0.000000	6.843083	-0.013941	NaN	0.000000	0.001549	0.001696	28.0817	0.097512	0.002066	47.1965	35.6158	-167.786	9.393142E-5	0.841489	-0.237562	-0.238831	-0.013941	47.1965	-0.237341	-522.349	2.668948E-5	NaN
564	1.000000	0.850745	7.37057e+06	-48889.1	1005.82	-29760.8	0.000000	0.000000	6.851070	-0.020877	NaN	0.000000	0.001563	0.001720	28.0816	0.055053	0.002019	27.2716	85.0042	-169.285	0.061552	0.849462	-0.229575	-0.230859	-0.020877	27.2716	-0.229001	-386.133	5.406578E-5	NaN
564	1.000000	0.858733	7.37057e+06	-48889.1	1005.82	-29760.8	0.000000	0.000000	6.859061	0.037359	NaN	0.000000	0.001518	0.001687	28.0819	0.094333	0.001965	48.0148	-37.6571	-164.056	0.037195	0.857414	-0.221587	-0.222906	0.037359	48.0148	-0.222171	-300.827	-0.000124	NaN
564	1.000000	0.866770	7.37057e+06	-48889.1	1005.82	-29760.8	0.000000	0.000000	6.867095	-0.020895	NaN	0.000000	0.001516	0.001701	28.0815	0.069283	0.001977	35.0463	-66.632	-166.633	0.063939	0.865408	-0.213550	-0.214913	-0.020895	35.0463	-0.213103	-215.263	9.706637E-5	NaN
564	1.000000	0.874769	7.37057e+06	-48889.1	1005.82	-29760.8	0.000000	0.000000	6.875094	-0.006247	NaN	0.000000	0.001555	0.001714	28.082	0.065835	0.002063	31.91	127.794	-164.828	-0.021766	0.873430	-0.205552	-0.206890	-0.006247	31.91	-0.205405	-161.496	3.868260E-5	NaN
564	1.000000	0.882783	7.37057e+06	-48889.1	1005.82	-29760.8	0.000000	0.000000	6.883109	0.001667	NaN	0.000000	0.001542	0.001712	28.0816	0.093320	0.001932	48.3009	101.443	-166.661	0.006303	0.881446	-0.197537	-0.198875	0.001667	48.3009	-0.197563	-120.108	-1.388170E-5	NaN
564	1.000000	0.890770	7.37057e+06	-48889.1	1005.82	-29760.8	0.000000	0.000000	6.891097	0.035334	NaN	0.000000	0.001547	0.001689	28.0817	0.121545	0.001934	62.8579	49.282	-166.623	0.117186	0.889485	-0.189550	-0.190835	0.035334	62.8579	-0.189972	-89.858	-0.000393	NaN
564	1.000000	0.898775	7.37057e+06	-48889.1	1005.82	-29760.8	0.000000	0.000000	6.899096	-0.111879	NaN	0.000000	0.001519	0.001688	28.0817	0.038797	0.001951	19.8888	43.6847	-166.734	-0.006730	0.897442	-0.181545	-0.182878	-0.111879	19.8888	-0.177326	-54.9363	0.002037	NaN
564	1.000000	0.906737	7.37057e+06	-48889.1	1005.82	-29760.8	0.000000	0.000000	6.907061	-0.052428	NaN	0.000000	0.001506	0.001724	28.0802	0.038543	0.002082	18.5148	50.1617	-165.144	-0.040309	0.905468	-0.173583	-0.174852	-0.052428	18.5148	-0.171459	-43.5425	0.001204	NaN
564	1.000000	0.914781	7.37057e+06	-48889.1	1005.82	-29760.8	0.000000	0.000000	6.915107	0.000735	NaN	0.000000	0.001545	0.001768	28.0807	0.016765	0.001941	8.637048	-24.526	-164.348	-0.025879	0.913512	-0.165540	-0.166808	0.000735	8.637048	-0.165603	-34.4266	-2.134179E-5	NaN
564	1.000000	0.922794	7.37057e+06	-48889.1	1005.82	-29760.8	0.000000	0.000000	6.923119	-0.009776	NaN	0.000000	0.001569	0.001730	28.0803	0.021797	0.001990	10.9528	9.063934	-165.5	-0.001319	0.921442	-0.157526	-0.158879	-0.009776	10.9528	-0.156857	-24.0944	0.000406	NaN
564	1.000000	0.930755	7.37057e+06	-48889.1	1005.82	-29760.8	0.000000	0.000000	6.931082	0.017608	NaN	0.000000	0.001533	0.001737	28.0804	0.121038	0.002054	58.9165	-114.607	-166.625	-0.039087	0.929491	-0.149565	-0.150829	0.017608	58.9165	-0.149790	-17.9542	-0.000981	NaN
564	1.000000	0.938770	7.37057e+06	-48889.1	1005.82	-29760.8	0.000000	0.000000	6.939096	-0.012309	NaN	0.000000	0.001551	0.001744	28.0807	0.093235	0.002105	44.2877	-42.9339	-166.806	0.012725	0.937418	-0.141550	-0.142903	-0.012309	44.2877	-0.141342	-12.5348	0.000982	NaN
564	1.000000	0.946782	7.37057e+06	-48889.1	1005.82	-29760.8	0.000000	0.000000	6.947108	0.027779	NaN	0.000000	0.001534	0.001700	28.0806	0.066234	0.002044	32.399	-161.227	-168.48	0.012923	0.945408	-0.133539	-0.134913	0.027779	32.399	-0.134182	-9.175934	-0.003027	NaN
564	1.000000	0.954796	7.37057e+06	-48889.1	1005.82	-29760.8	0.000000	0.000000	6.955120	-0.060354	NaN	0.000000	0.001562	0.001728	28.0805	0.081903	0.001984	41.2819	49.008	-168.715	-0.070805	0.953453	-0.125524	-0.126867	-0.060354	41.2819	-0.124428	-5.924523	0.010187	NaN
564	1.000000	0.962807	7.37057e+06	-48889.1	1005.82	-29760.8	0.000000	0.000000	6.963132	-0.018485	NaN	0.000000	0.001541	0.001753	28.0806	0.107377	0.002035	52.7581	121.433	-163.932	-0.079735	0.961477	-0.117514	-0.118844	-0.018485	52.7581	-0.117251	-4.248947	0.004350	NaN
564	1.000000	0.970824	7.37057e+06	-48889.1	1005.82	-29760.8	0.000000	0.000000	6.971149	-0.026858	NaN	0.000000	0.001567	0.001732	28.0808	0.036972	0.002020	18.3023	68.0607	-168.364	0.020701	0.969528	-0.109496	-0.110793	-0.026858	18.3023	-0.108395	-2.779132	0.009664	NaN
564	1.000000	0.978788	7.37057e+06	-48889.1	1005.82	-29760.8	0.000000	0.000000	6.979114	-0.011398	NaN	0.000000	0.001590	0.001741	28.0807	0.106730	0.002073	51.4946	-168.541	-164.929	0.046917	0.977510	-0.101532	-0.102810	-0.011398	51.4946	-0.101366	-1.958581	0.005820	NaN
564	1.000000	0.986803	7.37057e+06	-48889.1	1005.82	-29760.8	0.000000	0.000000	6.987127	-0.054858	NaN	0.000000	0.001532	0.001730	28.0805	0.060027	0.001897	31.6367	6.805533	-166.896	0.014736	0.985545	-0.093517	-0.094775	-0.054858	31.6367	-0.092217	-1.217556	0.045056	NaN
564	1.000000	0.994824	7.37057e+06	-48889.1	1005.82	-29760.8	0.000000	0.000000	6.995147	-0.067833	NaN	0.000000	0.001565	0.001723	28.0805	0.123160	0.001938	63.5372	177.146	-167.079	-0.040718	0.993550	-0.085496	-0.086770	-0.067833	63.5372	-0.084696	-0.807808	0.083972	NaN
564	1.000000	1.002880	7.37057e+06	-48889.1	1005.82	-29760.8	0.000000	0.000000	7.003204	-0.042972	NaN	0.000000	0.001548	0.001691	28.0805	0.004652	0.001955	2.378755	62.0454	-168.762	-0.037661	1.001546	-0.077441	-0.078774	-0.042972	2.378755	-0.063892	-0.232126	0.185124	NaN
564	1.000000	1.010836	7.37057e+06	-48889.1	1005.82	-29760.8	0.000000	0.000000	7.011162	0.013551	NaN	0.000000	0.001564	0.001699	28.0806	0.045850	0.001916	23.9331	77.6798	-168.996	0.048390	1.009505	-0.069485	-0.070815	0.013551	23.9331	-0.069909	-0.339201	-0.039949	NaN
564	1.000000	1.018826	7.37057e+06	-48889.1	1005.82	-29760.8	0.000000	0.000000	7.019151	-0.032761	NaN	0.000000	0.001513	0.001720	28.0807	0.093409	0.002038	45.8329	43.5667	-166.145	-0.032086	1.017478	-0.061494	-0.062842	-0.032761	45.8329	-0.060958	-0.191822	0.170787	NaN
564	1.000000	1.026828	7.37057e+06	-48889.1	1005.82	-29760.8	0.000000	0.000000	7.027155	0.041610	NaN	0.000000	0.001536	0.001699	28.0803	0.056974	0.001953	29.1786	-61.0081	-168.934	0.046833	1.025520	-0.053493	-0.054800	0.041610	29.1786	-0.054562	-0.124993	-0.332895	NaN
564	1.000000	1.034825	7.37057e+06	-48889.1	1005.82	-29760.8	0.000000	0.000000	7.035150	-0.025177	NaN	0.000000	0.001531	0.001743	28.0806	0.036247	0.001933	18.753	-68.7547	-168.551	-0.061938	1.033535	-0.045495	-0.046785	-0.025177	18.753	-0.044488	-0.061993	0.406122	NaN
564	1.000000	1.042811	7.37057e+06	-48889.1	1005.82	-29760.8	0.000000	0.000000	7.043135	-0.030054	NaN	0.000000	0.001566	0.001714	28.0818	0.055181	0.001923	28.6943	47.5945	-165.529	-0.021011	1.041565	-0.037510	-0.038755	-0.030054	28.6943	-0.036724	-0.036026	0.834226	NaN
564	1.000000	1.050879	7.37057e+06	-48889.1	1005.82	-29760.8	0.000000	0.000000	7.051206	0.007647	NaN	0.000000	0.001560	0.001662	28.082	0.036136	0.002071	17.4524	151.473	-165.436	0.007112	1.049529	-0.029441	-0.030791	0.007647	17.4524	-0.029770	-0.022676	-0.337236	NaN
564	1.000000	1.058848	7.37057e+06	-48889.1	1005.82	-29760.8	0.000000	0.000000	7.059171	-0.087119	NaN	0.000000	0.001584	0.001652	28.0819	0.038380	0.001882	20.3959	119.575	-165.405	-0.138960	1.057527	-0.021472	-0.022793	-0.087119	20.3959	-0.018268	-0.011343	7.680707	NaN
564	1.000000	1.066841	7.37057e+06	-48889.1	1005.82	-29760.8	0.000000	0.000000	7.067166	-0.000348	NaN	0.000000	0.001586	0.001699	28.0818	0.034120	0.002087	16.3458	2.027006	-165.872	0.002207	1.065488	-0.013480	-0.014832	-0.000348	16.3458	-0.013464	-0.008371	0.041598	NaN
564	1.000000	1.074872	7.37057e+06	-48889.1	1005.82	-29760.8	0.000000	0.000000	7.075194	-0.086234	NaN	0.000000	0.001603	0.001677	28.0819	0.148108	0.002133	69.4217	129.012	-167.192	-0.063227	1.073506	-0.005448	-0.006815	-0.086234	69.4217	-0.004517	-0.003111	27.7205	NaN
564	1.000000	1.082845	7.37057e+06	-48889.1	1005.82	-29760.8	0.000000	0.000000	7.083366	4.754617	NaN	0.000000	0.001611	0.001703	28.0817	5.678698	0.001741	3261.7	10.5369	-173.227	3.280715	1.081508	0.002524	0.001188	4.754617	3261.7	0.001431	0.001100	4323.29	89859.9
564	2.000000	1.087451	7.37057e+06	-48889.1	1005.82	-29760.8	0.000000	0.000000	7.088197	10.2353	NaN	0.000000	0.001577	0.001699	28.082	10.0142	0.001612	6213.7	8.761272	-174.606	9.821377	1.087109	0.007130	0.006789	10.2353	6213.7	0.005895	0.004965	2061.59	80570.1
564	2.000000	1.089422	7.37057e+06	-48889.1	1005.82	-29760.8	0.000000	0.000000	7.090372	15.1826	NaN	0.000000	0.001597	0.001672	28.0816	13.0289	0.001719	7580.01	3.699988	-173.942	14.3904	1.089148	0.009101	0.008828	15.1826	7580.01	0.007599	0.006633	2288.92	85032.5
564	2.000000	1.091441	7.37057e+06	-48889.1	1005.82	-29760.8	0.000000	0.000000	7.092493	17.6641	NaN	0.000000	0.001641	0.001686	28.0816	15.1289	0.001699	8903.09	4.211946	-174.029	17.4463	1.091041	0.011121	0.010721	17.6641	8903.09	0.009633	0.008776	2012.7	86827.6
564	2.000000	1.093353	7.37057e+06	-48889.1	1005.82	-29760.8	0.000000	0.000000	7.094559	21.41	NaN	0.000000	0.001639	0.001697	28.0816	16.6947	0.001767	9445.61	2.300533	-172.026	20.0687	1.093056	0.013033	0.012735	21.41	9445.61	0.011333	0.010700	2000.87	83426.5
564	2.000000	1.095395	7.37057e+06	-48889.1	1005.82	-29760.8	0.000000	0.000000	7.096814	26.5801	NaN	0.000000	0.001637	0.001701	28.0818	19.5501	0.001782	10973	7.753521	-179.529	27.0204	1.095079	0.015075	0.014759	26.5801	10973	0.013258	0.013032	2039.6	87819.7
564	2.000000	1.097380	7.37057e+06	-48889.1	1005.82	-29760.8	0.000000	0.000000	7.098885	28.6751	NaN	0.000000	0.001605	0.001671	28.082	20.4634	0.001785	11465.7	4.676071	-177.268	27.8297	1.097068	0.017060	0.016748	28.6751	11465.7	0.015184	0.015532	1846.19	84054.1
564	2.000000	1.099353	7.37057e+06	-48889.1	1005.82	-29760.8	0.000000	0.000000	7.100989	31.8791	NaN	0.000000	0.001636	0.001639	28.0818	22.8423	0.001798	12703.9	4.853454	-177.92	30.6284	1.099099	0.019032	0.018778	31.8791	12703.9	0.017150	0.018260	1745.8	85892.1
564	2.000000	1.101360	7.37057e+06	-48889.1	1005.82	-29760.8	0.000000	0.000000	7.103396	41.5966	NaN	0.000000	0.001609	0.001687	28.0823	25.706	0.001744	14737.8	9.332193	175.456	41.6381	1.101064	0.021039	0.020744	41.5966	14737.8	0.018922	0.020877	1992.46	93190.5
564	2.000000	1.103356	7.37057e+06	-48889.1	1005.82	-29760.8	0.000000	0.000000	7.105591	46.4339	NaN	0.000000	0.001589	0.001696	28.0822	27.2123	0.001710	15918.2	7.813517	176.316	47.3008	1.103041	0.023036	0.022720	46.4339	15918.2	0.020848	0.023892	1943.47	94088.7
564	2.000000	1.105357	7.37057e+06	-48889.1	1005.82	-29760.8	0.000000	0.000000	7.107813	51.8127	NaN	0.000000	0.001558	0.001688	28.082	29.7859	0.001869	15932.8	8.771772	175.938	51.8445	1.105140	0.025037	0.024820	51.8127	15932.8	0.022598	0.026790	1934.05	88936.4
564	2.000000	1.107305	7.37057e+06	-48889.1	1005.82	-29760.8	0.000000	0.000000	7.110206	62.6251	NaN	0.000000	0.001537	0.001677	28.0821	30.7053	0.001869	16428.3	4.850922	-179.485	59.7004	1.106952	0.026984	0.026632	62.6251	16428.3	0.024125	0.029444	2126.95	87472.3
564	2.000000	1.109280	7.37057e+06	-48889.1	1005.82	-29760.8	0.000000	0.000000	7.112283	65.1137	NaN	0.000000	0.001552	0.001696	28.0809	32.7325	0.001766	18539	4.351065	178.961	64.0213	1.109013	0.028959	0.028693	65.1137	18539	0.026325	0.033470	1945.41	92582.3
564	2.000000	1.111324	7.37057e+06	-48889.1	1005.82	-29760.8	0.000000	0.000000	7.114724	74.7667	NaN	0.000000	0.001566	0.001715	28.081	35.1417	0.001771	19847.2	4.821909	177.829	73.0852	1.110959	0.031004	0.030638	74.7667	19847.2	0.028178	0.037053	2017.86	94202.6
564	2.000000	1.113314	7.37057e+06	-48889.1	1005.82	-29760.8	0.000000	0.000000	7.116817	77.2693	NaN	0.000000	0.001587	0.001705	28.0809	37.2193	0.001798	20695.2	6.967951	174.271	75.42	1.113064	0.032993	0.032743	77.2693	20695.2	0.030193	0.041145	1877.97	93214.6
564	2.000000	1.115301	7.37057e+06	-48889.1	1005.82	-29760.8	0.000000	0.000000	7.119189	86.6306	NaN	0.000000	0.001590	0.001721	28.081	39.8172	0.001824	21827.4	6.068725	176.319	84.7643	1.115009	0.034981	0.034689	86.6306	21827.4	0.032004	0.045000	1925.11	94008.7
564	2.000000	1.117306	7.37057e+06	-48889.1	1005.82	-29760.8	0.000000	0.000000	7.121688	98.6381	NaN	0.000000	0.001571	0.001751	28.081	39.8873	0.001654	24122	1.978457	178.902	98.0205	1.116998	0.036986	0.036677	98.6381	24122	0.033919	0.049259	2002.46	99299.2
564	2.000000	1.119301	7.37057e+06	-48889.1	1005.82	-29760.8	0.000000	0.000000	7.123935	104.778	NaN	0.000000	0.001529	0.001749	28.0807	43.1322	0.001790	24102.9	2.461064	178.935	102.379	1.119008	0.038981	0.038687	104.778	24102.9	0.035721	0.053438	1960.75	95262
564	2.000000	1.121334	7.37057e+06	-48889.1	1005.82	-29760.8	0.000000	0.000000	7.126311	113.106	NaN	0.000000	0.001569	0.001748	28.0809	46.3319	0.001914	24208.2	8.133836	174.302	111.79	1.120957	0.041014	0.040637	113.106	24208.2	0.037510	0.057751	1958.51	92035.5
564	2.000000	1.123289	7.37057e+06	-48889.1	1005.82	-29760.8	0.000000	0.000000	7.128636	122.131	NaN	0.000000	0.001553	0.001729	28.0807	46.7663	0.001826	25614.7	3.819822	177.41	118.952	1.122924	0.042968	0.042604	122.131	25614.7	0.039392	0.062467	1955.12	93634.7
564	2.000000	1.125352	7.37057e+06	-48889.1	1005.82	-29760.8	0.000000	0.000000	7.130899	126.975	NaN	0.000000	0.001522	0.001720	28.0807	49.1338	0.001890	25991.6	4.261766	175.994	126.385	1.125077	0.045032	0.044757	126.975	25991.6	0.041368	0.067611	1878.02	91326.2
564	2.000000	1.127231	7.37057e+06	-48889.1	1005.82	-29760.8	0.000000	0.000000	7.133318	140.121	NaN	0.000000	0.001540	0.001752	28.0807	50.9659	0.001825	27926.7	4.640138	175.111	136.309	1.126864	0.046911	0.046544	140.121	27926.7	0.043148	0.072416	1934.95	94814.8
564	2.000000	1.129293	7.37057e+06	-48889.1	1005.82	-29760.8	0.000000	0.000000	7.135702	147.951	NaN	0.000000	0.001552	0.001726	28.0805	52.5592	0.001902	27637.3	2.940956	176.831	145.85	1.129011	0.048972	0.048691	147.951	27637.3	0.044957	0.077466	1909.87	90721.8
564	2.000000	1.131355	7.37057e+06	-48889.1	1005.82	-29760.8	0.000000	0.000000	7.138131	156.886	NaN	0.000000	0.001561	0.001739	28.0809	54.9068	0.001778	30888.4	4.903305	175.036	157.993	1.130901	0.051034	0.050581	156.886	30888.4	0.047225	0.084029	1867.05	97354.3
564	2.000000	1.133363	7.37057e+06	-48889.1	1005.82	-29760.8	0.000000	0.000000	7.140492	165.457	NaN	0.000000	0.001517	0.001693	28.0808	56.4091	0.001788	31553.9	4.644961	174.181	168.575	1.133042	0.053043	0.052721	165.457	31553.9	0.049110	0.089682	1844.92	96265.8
564	2.000000	1.135263	7.37057e+06	-48889.1	1005.82	-29760.8	0.000000	0.000000	7.142968	179.466	NaN	0.000000	0.001546	0.001682	28.0807	59.1061	0.001869	31621.9	5.437760	173.875	175.295	1.134908	0.054943	0.054587	179.466	31621.9	0.050686	0.094545	1898.2	93959.7
564	2.000000	1.137272	7.37057e+06	-48889.1	1005.82	-29760.8	0.000000	0.000000	7.145287	186.994	NaN	0.000000	0.001518	0.001705	28.0809	60.0624	0.001901	31600.2	7.300513	172.523	185.982	1.136954	0.056952	0.056634	186.994	31600.2	0.052514	0.100341	1863.59	91143.1
564	2.000000	1.139288	7.37057e+06	-48889.1	1005.82	-29760.8	0.000000	0.000000	7.147684	196.285	NaN	0.000000	0.001527	0.001701	28.0806	62.6937	0.001878	33380.1	3.881550	174.763	195.117	1.138883	0.058967	0.058562	196.285	33380.1	0.054557	0.107017	1834.14	93225.3
564	2.000000	1.141255	7.37057e+06	-48889.1	1005.82	-29760.8	0.000000	0.000000	7.149911	202.576	NaN	0.000000	0.001521	0.001696	28.0809	63.1216	0.001779	35471.7	2.832150	175.033	198.823	1.140945	0.060935	0.060624	202.576	35471.7	0.056652	0.114077	1775.79	95952.6
564	2.000000	1.143252	7.37057e+06	-48889.1	1005.82	-29760.8	0.000000	0.000000	7.152632	220.209	NaN	0.000000	0.001576	0.001766	28.082	65.1155	0.001858	35054.7	3.763937	174.371	216.933	1.142909	0.062932	0.062589	220.209	35054.7	0.058220	0.119504	1842.69	92646.3
564	2.000000	1.145270	7.37057e+06	-48889.1	1005.82	-29760.8	0.000000	0.000000	7.155190	233.34	NaN	0.000000	0.001557	0.001688	28.0819	65.458	0.001678	38999.9	1.736240	175.398	231.447	1.145033	0.064950	0.064712	233.34	38999.9	0.060463	0.127472	1830.52	99799.6
564	2.000000	1.147226	7.37057e+06	-48889.1	1005.82	-29760.8	0.000000	0.000000	7.157690	246.578	NaN	0.000000	0.001570	0.001706	28.0822	67.3338	0.001824	36919.1	7.924571	170.147	242.922	1.146810	0.066905	0.066490	246.578	36919.1	0.061896	0.132696	1858.22	92596.8
564	2.000000	1.149224	7.37057e+06	-48889.1	1005.82	-29760.8	0.000000	0.000000	7.160105	256.712	NaN	0.000000	0.001569	0.001721	28.0818	69.3298	0.001720	40309.4	3.486774	174.065	254.258	1.148954	0.068904	0.068633	256.712	40309.4	0.064127	0.141022	1820.37	98070
564	2.000000	1.151396	7.37057e+06	-48889.1	1005.82	-29760.8	0.000000	0.000000	7.162765	268.595	NaN	0.000000	0.001630	0.001682	28.0823	73.7252	0.001866	39510.1	8.881882	169.151	271.595	1.150913	0.071075	0.070593	268.595	39510.1	0.065977	0.148108	1813.51	93797.6
564	2.000000	1.153249	7.37057e+06	-48889.1	1005.82	-29760.8	0.000000	0.000000	7.165094	280.167	NaN	0.000000	0.001617	0.001712	28.082	74.6042	0.001780	41906	5.656231	170.602	277.404	1.152916	0.072928	0.072595	280.167	41906	0.067914	0.155706	1799.33	97027.7
564	2.000000	1.155247	7.37057e+06	-48889.1	1005.82	-29760.8	0.000000	0.000000	7.167782	296.938	NaN	0.000000	0.001584	0.001706	28.0829	77.6782	0.001903	40820	1.467566	175.486	294.313	1.154922	0.074927	0.074602	296.938	40820	0.069471	0.161944	1833.59	92675.5
564	2.000000	1.157227	7.37057e+06	-48889.1	1005.82	-29760.8	0.000000	0.000000	7.170534	315.702	NaN	0.000000	0.001634	0.001718	28.0822	78.338	0.001852	42310.1	3.559281	173.346	312.679	1.156890	0.076907	0.076570	315.702	42310.1	0.071311	0.169460	1862.99	93904
564	2.000000	1.159308	7.37057e+06	-48889.1	1005.82	-29760.8	0.000000	0.000000	7.172968	324.31	NaN	0.000000	0.001543	0.001741	28.0821	80.8081	0.001749	46196.5	5.878214	170.345	324.897	1.158918	0.078987	0.078598	324.31	46196.5	0.073722	0.179559	1806.15	99604.6
564	2.000000	1.161248	7.37057e+06	-48889.1	1005.82	-29760.8	0.000000	0.000000	7.175772	345.321	NaN	0.000000	0.001544	0.001732	28.0822	82.6997	0.001737	47610.2	4.890939	171.604	341.871	1.160828	0.080927	0.080507	345.321	47610.2	0.075487	0.187124	1845.42	100556
564	2.000000	1.163218	7.37057e+06	-48889.1	1005.82	-29760.8	0.000000	0.000000	7.178136	354.9	NaN	0.000000	0.001537	0.001710	28.082	83.8057	0.001708	49056	3.425436	172.51	350.583	1.162965	0.082897	0.082644	354.9	49056	0.077471	0.195801	1812.55	101288
564	2.000000	1.165232	7.37057e+06	-48889.1	1005.82	-29760.8	0.000000	0.000000	7.180505	363.524	NaN	0.000000	0.001523	0.001696	28.0821	88.3159	0.001953	45226.3	5.743186	170.724	362.936	1.165008	0.084912	0.084687	363.524	45226.3	0.078884	0.202091	1798.81	91915.9
564	2.000000	1.167195	7.37057e+06	-48889.1	1005.82	-29760.8	0.000000	0.000000	7.183002	376.509	NaN	0.000000	0.001559	0.001712	28.082	87.1201	0.001792	48605.5	2.927357	172.595	372.017	1.166940	0.086875	0.086619	376.509	48605.5	0.081065	0.211989	1776.08	96449.8
564	2.000000	1.169189	7.37057e+06	-48889.1	1005.82	-29760.8	0.000000	0.000000	7.185540	389.755	NaN	0.000000	0.001546	0.001725	28.082	90.071	0.001867	48248.6	2.833993	172.343	387.477	1.168974	0.088869	0.088653	389.755	48248.6	0.082810	0.220066	1771.08	93968.2
564	2.000000	1.171349	7.37057e+06	-48889.1	1005.82	-29760.8	0.000000	0.000000	7.188550	410.442	NaN	0.000000	0.001534	0.001722	28.0821	93.2557	0.001830	50954.6	3.695970	172.404	412.226	1.170791	0.091028	0.090470	410.442	50954.6	0.084987	0.230339	1781.9	97000.2
564	2.000000	1.173252	7.37057e+06	-48889.1	1005.82	-29760.8	0.000000	0.000000	7.190892	421.118	NaN	0.000000	0.001551	0.001687	28.0821	92.1455	0.001769	52086.1	4.576042	170.448	422.502	1.172929	0.092931	0.092609	421.118	52086.1	0.086867	0.239390	1759.13	97261.7
564	2.000000	1.175243	7.37057e+06	-48889.1	1005.82	-29760.8	0.000000	0.000000	7.193571	437.815	NaN	0.000000	0.001541	0.001692	28.0823	96.9169	0.001782	54400.1	9.922988	165.912	437.59	1.174986	0.094923	0.094666	437.815	54400.1	0.088887	0.249291	1756.24	99544.9
564	2.000000	1.177135	7.37057e+06	-48889.1	1005.82	-29760.8	0.000000	0.000000	7.196116	453.719	NaN	0.000000	0.001557	0.001678	28.0808	96.0338	0.001713	56057.2	7.273930	168.054	447.025	1.176811	0.096815	0.096490	453.719	56057.2	0.090744	0.258564	1754.76	100721
564	2.000000	1.179266	7.37057e+06	-48889.1	1005.82	-29760.8	0.000000	0.000000	7.198700	464.73	NaN	0.000000	0.001534	0.001736	28.0808	97.977	0.001778	55097.1	5.119504	169.853	464.979	1.178849	0.098946	0.098528	464.73	55097.1	0.092620	0.268086	1733.51	97222
564	2.000000	1.181165	7.37057e+06	-48889.1	1005.82	-29760.8	0.000000	0.000000	7.201518	487.086	NaN	0.000000	0.001544	0.001731	28.0811	100.121	0.001942	51546.2	1.948346	173.775	479.365	1.180890	0.100845	0.100569	487.086	51546.2	0.093757	0.273942	1778.07	89978.9
564	2.000000	1.183248	7.37057e+06	-48889.1	1005.82	-29760.8	0.000000	0.000000	7.203696	489.383	NaN	0.000000	0.001534	0.001724	28.0807	101.252	0.001819	55661.9	-0.167589	174.755	487.306	1.182908	0.102928	0.102588	489.383	55661.9	0.096334	0.287418	1702.69	94858
564	2.000000	1.184842	7.37057e+06	-48889.1	1005.82	-29760.8	0.000000	0.000000	7.206043	507.701	NaN	0.000000	0.001555	0.001691	28.0808	104.393	0.001760	59324.4	5.250877	-10.8916	508.592	1.184505	0.104521	0.104184	507.701	59324.4	0.098103	0.296848	1710.31	99480.9