File: remote_trans/data/nanoindenter/0828-1/data/Data_2025-08-06,11h17m57s/2025-07-22_16-23-58_1_749.txt
2025-07-22, 16:23:58, 1
Index	Phase	Displacement	Time	Pos X	Pos Y	Pos Z	Rot A	Rot B	Piezo Z	Force A	Force B	Gripper	Voltage A	Voltage B	Temperature	Amplitude force	Amplitude pos	Stiffness	Phase shift	Phase excitation	Force A raw	Displacement raw	HMax	HMax raw	Real Force	Real Stiffness	Contact Depth	Area	Hardness	Reduced Mod.
[#]	[#]	[um]	[s]	[um]	[um]	[um]	[m°]	[m°]	[um]	[uN]	[uN]	[V]	[V]	[V]	[°C]	[uN]	[um]	[N/m]	[°]	[°]	[uN]	[um]	[um]	[um]	[uN]	[N/m]	[um]	[um^2]	[MPa]	[MPa]
749	1.000000	0.002522	7.37238e+06	-39639.1	1005.82	-29793.2	0.000000	0.000000	6.002802	-0.029112	NaN	0.000000	0.001659	0.001743	28.0838	0.009893	0.000910	10.8686	130.627	-170.693	-0.057742	0.001303	-1.042897	-1.044116	-0.029112	10.8686	-1.040888	-8.052039E+13	3.615502E-16	NaN
749	1.000000	0.010477	7.37238e+06	-39639.1	1005.82	-29793.2	0.000000	0.000000	6.010756	-0.051639	NaN	0.000000	0.001668	0.001728	28.0834	0.101953	0.001006	101.298	108.311	-166.781	-0.059182	0.009181	-1.034942	-1.036237	-0.051639	101.298	-1.034559	-6.619169E+13	7.801455E-16	NaN
749	1.000000	0.018482	7.37238e+06	-39639.1	1005.82	-29793.2	0.000000	0.000000	6.018764	0.009518	NaN	0.000000	0.001718	0.001770	28.0834	0.044692	0.001800	24.8304	146.753	-166.032	-0.073787	0.017208	-1.026937	-1.028211	0.009518	24.8304	-1.027224	-5.273997E+13	-1.804612E-16	NaN
749	1.000000	0.026500	7.37238e+06	-39639.1	1005.82	-29793.2	0.000000	0.000000	6.026782	-0.000317	NaN	0.000000	0.001666	0.001800	28.0835	0.022371	0.001825	12.2592	48.7845	-164.943	-0.018044	0.025152	-1.018918	-1.020266	-0.000317	12.2592	-1.018899	-4.075047E+13	7.771823E-18	NaN
749	1.000000	0.034452	7.37238e+06	-39639.1	1005.82	-29793.2	0.000000	0.000000	6.034733	-0.015364	NaN	0.000000	0.001694	0.001818	28.0835	0.052787	0.001831	28.8356	-114.006	-165.474	0.015186	0.033144	-1.010966	-1.012275	-0.015364	28.8356	-1.010567	-3.147817E+13	4.880696E-16	NaN
749	1.000000	0.042478	7.37238e+06	-39639.1	1005.82	-29793.2	0.000000	0.000000	6.042758	-0.042598	NaN	0.000000	0.001705	0.001813	28.084	0.038602	0.001996	19.3425	129.761	-164.208	-0.044622	0.041126	-1.002940	-1.004293	-0.042598	19.3425	-1.001289	-2.361121E+13	1.804127E-15	NaN
749	1.000000	0.050467	7.37238e+06	-39639.1	1005.82	-29793.2	0.000000	0.000000	6.050747	-0.033996	NaN	0.000000	0.001720	0.001776	28.0835	0.185576	0.001968	94.2914	-25.3947	-164.793	-0.032133	0.049151	-0.994951	-0.996267	-0.033996	94.2914	-0.994681	-1.923745E+13	1.767160E-15	NaN
749	1.000000	0.058459	7.37238e+06	-39639.1	1005.82	-29793.2	0.000000	0.000000	6.058738	-0.048558	NaN	0.000000	0.001712	0.001743	28.084	0.092272	0.002076	44.4459	-41.1445	-163.779	0.001267	0.057127	-0.986959	-0.988292	-0.048558	44.4459	-0.986140	-1.476125E+13	3.289576E-15	NaN
749	1.000000	0.066472	7.37238e+06	-39639.1	1005.82	-29793.2	0.000000	0.000000	6.066752	-0.021837	NaN	0.000000	0.001704	0.001789	28.0839	0.060946	0.001947	31.3058	-105.028	-163.755	0.060895	0.065156	-0.978946	-0.980263	-0.021837	31.3058	-0.978423	-1.161893E+13	1.879465E-15	NaN
749	1.000000	0.074516	7.37238e+06	-39639.1	1005.82	-29793.2	0.000000	0.000000	6.074796	-0.027245	NaN	0.000000	0.001655	0.001784	28.0837	0.098304	0.001961	50.1375	-130.237	-164.058	0.024951	0.073112	-0.970902	-0.972306	-0.027245	50.1375	-0.970495	-9.085119E+12	2.998887E-15	NaN
749	1.000000	0.082472	7.37238e+06	-39639.1	1005.82	-29793.2	0.000000	0.000000	6.082753	-0.009517	NaN	0.000000	0.001726	0.001756	28.0838	0.014221	0.001959	7.260604	-58.5399	-163.93	-0.021849	0.081133	-0.962946	-0.964285	-0.009517	7.260604	-0.961963	-6.971654E+12	1.365155E-15	NaN
749	1.000000	0.090481	7.37238e+06	-39639.1	1005.82	-29793.2	0.000000	0.000000	6.090760	-0.039282	NaN	0.000000	0.001712	0.001770	28.0838	0.048565	0.002104	23.0784	-68.083	-164.928	-0.056203	0.089155	-0.954938	-0.956264	-0.039282	23.0784	-0.953661	-5.387668E+12	7.291184E-15	NaN
749	1.000000	0.098497	7.37238e+06	-39639.1	1005.82	-29793.2	0.000000	0.000000	6.098779	0.019080	NaN	0.000000	0.001731	0.001776	28.0827	0.120519	0.001923	62.6653	151.906	-164.248	-0.037554	0.097179	-0.946921	-0.948239	0.019080	62.6653	-0.947149	-4.401311E+12	-4.335185E-15	NaN
749	1.000000	0.106516	7.37238e+06	-39639.1	1005.82	-29793.2	0.000000	0.000000	6.106794	-0.063759	NaN	0.000000	0.001636	0.001785	28.0823	0.093909	0.002086	45.0197	37.6133	-165.801	0.045678	0.105224	-0.938903	-0.940194	-0.063759	45.0197	-0.937841	-3.296112E+12	1.934368E-14	NaN
749	1.000000	0.114501	7.37238e+06	-39639.1	1005.82	-29793.2	0.000000	0.000000	6.114780	-0.048606	NaN	0.000000	0.001626	0.001779	28.0824	0.065201	0.001973	33.0417	-158.122	-164.086	-0.027194	0.113194	-0.930918	-0.932225	-0.048606	33.0417	-0.929815	-2.568590E+12	1.892336E-14	NaN
749	1.000000	0.122495	7.37238e+06	-39639.1	1005.82	-29793.2	0.000000	0.000000	6.122778	0.037634	NaN	0.000000	0.001656	0.001807	28.0825	0.085181	0.002000	42.592	-38.7404	-164.91	0.052923	0.121222	-0.922923	-0.924197	0.037634	42.592	-0.923586	-2.116519E+12	-1.778089E-14	NaN
749	1.000000	0.130484	7.37238e+06	-39639.1	1005.82	-29793.2	0.000000	0.000000	6.130766	0.016783	NaN	0.000000	0.001640	0.001790	28.0827	0.044132	0.001905	23.1704	66.5957	-164.57	0.012219	0.129229	-0.914934	-0.916189	0.016783	23.1704	-0.915477	-1.644884E+12	-1.020336E-14	NaN
749	1.000000	0.138472	7.37238e+06	-39639.1	1005.82	-29793.2	0.000000	0.000000	6.138753	-0.004645	NaN	0.000000	0.001599	0.001799	28.0829	0.074913	0.001942	38.5824	-58.4205	-167.437	-0.006286	0.137261	-0.906947	-0.908158	-0.004645	38.5824	-0.906856	-1.258051E+12	3.692548E-15	NaN
749	1.000000	0.146503	7.37238e+06	-39639.1	1005.82	-29793.2	0.000000	0.000000	6.146785	0.017995	NaN	0.000000	0.001614	0.001803	28.0827	0.057920	0.001995	29.0292	99.3392	-166.52	0.037581	0.145190	-0.898916	-0.900228	0.017995	29.0292	-0.899380	-9.969977E+11	-1.804873E-14	NaN
749	1.000000	0.154512	7.37238e+06	-39639.1	1005.82	-29793.2	0.000000	0.000000	6.154794	0.017877	NaN	0.000000	0.001639	0.001756	28.0821	0.132645	0.001995	66.4894	4.652583	-165.228	0.043538	0.153220	-0.890907	-0.892199	0.017877	66.4894	-0.891108	-7.707184E+11	-2.319475E-14	NaN
749	1.000000	0.162503	7.37238e+06	-39639.1	1005.82	-29793.2	0.000000	0.000000	6.162783	-0.028313	NaN	0.000000	0.001597	0.001774	28.0823	0.043127	0.002055	20.9832	159.21	-161.688	0.003282	0.161225	-0.882915	-0.884193	-0.028313	20.9832	-0.881903	-5.786926E+11	4.892569E-14	NaN
749	1.000000	0.170529	7.37238e+06	-39639.1	1005.82	-29793.2	0.000000	0.000000	6.170806	-0.088328	NaN	0.000000	0.001610	0.001795	28.0822	0.093091	0.002012	46.2735	152.765	-165.683	-0.059982	0.169193	-0.874890	-0.876225	-0.088328	46.2735	-0.873458	-4.448645E+11	1.985505E-13	NaN
749	1.000000	0.178540	7.37238e+06	-39639.1	1005.82	-29793.2	0.000000	0.000000	6.178820	-0.027369	NaN	0.000000	0.001637	0.001793	28.0826	0.101502	0.002003	50.6863	84.2921	-166.161	-0.123661	0.177175	-0.866879	-0.868243	-0.027369	50.6863	-0.866474	-3.578754E+11	7.647669E-14	NaN
749	1.000000	0.186537	7.37238e+06	-39639.1	1005.82	-29793.2	0.000000	0.000000	6.186818	-0.004237	NaN	0.000000	0.001645	0.001761	28.0826	0.066143	0.001945	34.0063	-144.011	-168.925	-0.020727	0.185195	-0.858881	-0.860223	-0.004237	34.0063	-0.858788	-2.816524E+11	1.504332E-14	NaN
749	1.000000	0.194554	7.37238e+06	-39639.1	1005.82	-29793.2	0.000000	0.000000	6.194835	-0.023904	NaN	0.000000	0.001668	0.001769	28.0824	0.071121	0.002093	33.973	69.0698	-161.962	-0.058409	0.193226	-0.850864	-0.852192	-0.023904	33.973	-0.850336	-2.164173E+11	1.104532E-13	NaN
749	1.000000	0.202551	7.37238e+06	-39639.1	1005.82	-29793.2	0.000000	0.000000	6.202831	-0.030019	NaN	0.000000	0.001637	0.001747	28.0823	0.116881	0.001968	59.3819	-119.771	-163.786	0.047962	0.201239	-0.842867	-0.844179	-0.030019	59.3819	-0.842488	-1.694332E+11	1.771703E-13	NaN
749	1.000000	0.210562	7.37238e+06	-39639.1	1005.82	-29793.2	0.000000	0.000000	6.210841	-0.051008	NaN	0.000000	0.001629	0.001755	28.0825	0.054304	0.002017	26.9193	-123.848	-166.447	-0.048787	0.209221	-0.834856	-0.836197	-0.051008	26.9193	-0.833435	-1.277433E+11	3.993030E-13	NaN
749	1.000000	0.218528	7.37238e+06	-39639.1	1005.82	-29793.2	0.000000	0.000000	6.218805	-0.094457	NaN	0.000000	0.001623	0.001742	28.0823	0.067749	0.001918	35.3268	-22.7869	-164.621	-0.021210	0.217201	-0.826890	-0.828218	-0.094457	35.3268	-0.824885	-9.782453E+10	9.655796E-13	NaN
749	1.000000	0.226561	7.37238e+06	-39639.1	1005.82	-29793.2	0.000000	0.000000	6.226842	0.004339	NaN	0.000000	0.001638	0.001779	28.0824	0.042894	0.002136	20.0856	-127.879	-161.117	-0.000840	0.225304	-0.818858	-0.820114	0.004339	20.0856	-0.819020	-8.145519E+10	-5.326423E-14	NaN
749	1.000000	0.234539	7.37238e+06	-39639.1	1005.82	-29793.2	0.000000	0.000000	6.234818	-0.052757	NaN	0.000000	0.001695	0.001702	28.0839	0.055551	0.001874	29.6416	3.438462	-166.562	-0.103815	0.233222	-0.810880	-0.812197	-0.052757	29.6416	-0.809545	-6.058907E+10	8.707320E-13	NaN
749	1.000000	0.242522	7.37238e+06	-39639.1	1005.82	-29793.2	0.000000	0.000000	6.242802	-0.034061	NaN	0.000000	0.001681	0.001723	28.0832	0.090620	0.002038	44.475	-75.7132	-162.135	0.074402	0.241291	-0.802897	-0.804127	-0.034061	44.475	-0.802322	-4.834869E+10	7.044867E-13	NaN
749	1.000000	0.250527	7.37238e+06	-39639.1	1005.82	-29793.2	0.000000	0.000000	6.250806	-0.046789	NaN	0.000000	0.001646	0.001729	28.0834	0.082644	0.002011	41.1023	-136.852	-162.014	-0.036945	0.249252	-0.794892	-0.796167	-0.046789	41.1023	-0.794038	-3.731802E+10	1.253804E-12	NaN
749	1.000000	0.258568	7.37238e+06	-39639.1	1005.82	-29793.2	0.000000	0.000000	6.258848	-0.043796	NaN	0.000000	0.001640	0.001778	28.0833	0.061729	0.001960	31.4969	121.777	-162.897	0.008479	0.257215	-0.786850	-0.788203	-0.043796	31.4969	-0.785807	-2.884927E+10	1.518109E-12	NaN
749	1.000000	0.266572	7.37238e+06	-39639.1	1005.82	-29793.2	0.000000	0.000000	6.266853	-0.020620	NaN	0.000000	0.001642	0.001730	28.0833	0.033873	0.001980	17.104	-61.5065	-165.452	-0.052256	0.265217	-0.778846	-0.780202	-0.020620	17.104	-0.777942	-2.255614E+10	9.141801E-13	NaN
749	1.000000	0.274588	7.37238e+06	-39639.1	1005.82	-29793.2	0.000000	0.000000	6.274867	-0.066869	NaN	0.000000	0.001647	0.001770	28.0835	0.038486	0.002006	19.1869	-126.699	-165.313	-0.102675	0.273235	-0.770830	-0.772183	-0.066869	19.1869	-0.768216	-1.663603E+10	4.019505E-12	NaN
749	1.000000	0.282553	7.37238e+06	-39639.1	1005.82	-29793.2	0.000000	0.000000	6.282831	-0.066172	NaN	0.000000	0.001665	0.001759	28.0833	0.126114	0.001862	67.7128	-71.3391	-164.7	0.001478	0.281230	-0.762866	-0.764189	-0.066172	67.7128	-0.762133	-1.375037E+10	4.812403E-12	NaN
749	1.000000	0.290570	7.37238e+06	-39639.1	1005.82	-29793.2	0.000000	0.000000	6.290849	-0.035671	NaN	0.000000	0.001656	0.001795	28.0839	0.019764	0.001993	9.917392	95.5144	-165.691	0.040622	0.289246	-0.754849	-0.756173	-0.035671	9.917392	-0.752151	-1.005774E+10	3.546572E-12	NaN
749	1.000000	0.298561	7.37238e+06	-39639.1	1005.82	-29793.2	0.000000	0.000000	6.298840	-0.048231	NaN	0.000000	0.001693	0.001749	28.0834	0.064537	0.002041	31.6177	-29.3003	-163.842	-0.073647	0.297193	-0.746858	-0.748225	-0.048231	31.6177	-0.745714	-8.219856E+9	5.867673E-12	NaN
749	1.000000	0.306583	7.37238e+06	-39639.1	1005.82	-29793.2	0.000000	0.000000	6.306864	-0.013393	NaN	0.000000	0.001677	0.001751	28.0834	0.065951	0.002131	30.9524	-8.434420	-164.623	-0.087704	0.305251	-0.738835	-0.740168	-0.013393	30.9524	-0.738511	-6.557940E+9	2.042280E-12	NaN
749	1.000000	0.314556	7.37238e+06	-39639.1	1005.82	-29793.2	0.000000	0.000000	6.314837	-0.022125	NaN	0.000000	0.001647	0.001776	28.0834	0.057554	0.002119	27.1658	159.91	-165.981	-0.050356	0.313314	-0.730862	-0.732105	-0.022125	27.1658	-0.730251	-5.060942E+9	4.371698E-12	NaN
749	1.000000	0.322582	7.37238e+06	-39639.1	1005.82	-29793.2	0.000000	0.000000	6.322860	-0.065912	NaN	0.000000	0.001643	0.001735	28.0833	0.139240	0.001972	70.5971	148.115	-163.165	-0.049746	0.321279	-0.722837	-0.724140	-0.065912	70.5971	-0.722137	-3.922914E+9	1.680175E-11	NaN
749	1.000000	0.330586	7.37238e+06	-39639.1	1005.82	-29793.2	0.000000	0.000000	6.330864	-0.062619	NaN	0.000000	0.001621	0.001710	28.084	0.097165	0.001947	49.9119	151	-164.39	-0.126274	0.329325	-0.714833	-0.716094	-0.062619	49.9119	-0.713892	-3.027994E+9	2.068001E-11	NaN
749	1.000000	0.338568	7.37238e+06	-39639.1	1005.82	-29793.2	0.000000	0.000000	6.338848	-0.040622	NaN	0.000000	0.001645	0.001753	28.0833	0.081749	0.001927	42.4238	91.7098	-168.826	-0.055231	0.337280	-0.706850	-0.708138	-0.040622	42.4238	-0.706132	-2.372784E+9	1.712017E-11	NaN
749	1.000000	0.346638	7.37238e+06	-39639.1	1005.82	-29793.2	0.000000	0.000000	6.346922	0.056316	NaN	0.000000	0.001629	0.001693	28.0833	0.095591	0.002065	46.2972	110.268	-159.572	0.087473	0.345318	-0.698780	-0.700100	0.056316	46.2972	-0.699693	-1.937907E+9	-2.906047E-11	NaN
749	1.000000	0.354606	7.37238e+06	-39639.1	1005.82	-29793.2	0.000000	0.000000	6.354886	-0.030237	NaN	0.000000	0.001660	0.001680	28.0834	0.019357	0.001901	10.1815	105.467	-169.813	-0.009448	0.353276	-0.690813	-0.692142	-0.030237	10.1815	-0.688585	-1.366425E+9	2.212886E-11	NaN
749	1.000000	0.362607	7.37238e+06	-39639.1	1005.82	-29793.2	0.000000	0.000000	6.362887	-0.014186	NaN	0.000000	0.001619	0.001685	28.0832	0.049500	0.002046	24.1949	-19.4429	-163.878	-0.097177	0.361288	-0.682812	-0.684130	-0.014186	24.1949	-0.682372	-1.123685E+9	1.262453E-11	NaN
749	1.000000	0.370590	7.37238e+06	-39639.1	1005.82	-29793.2	0.000000	0.000000	6.370870	-0.031368	NaN	0.000000	0.001619	0.001689	28.0826	0.047546	0.002006	23.6979	124.375	-168.044	-0.013007	0.369263	-0.674828	-0.676155	-0.031368	23.6979	-0.673836	-8.587767E+8	3.652598E-11	NaN
749	1.000000	0.378614	7.37238e+06	-39639.1	1005.82	-29793.2	0.000000	0.000000	6.378893	-0.046311	NaN	0.000000	0.001607	0.001709	28.0822	0.064803	0.001945	33.3242	165.793	-165.867	0.037458	0.377326	-0.666805	-0.668093	-0.046311	33.3242	-0.665762	-6.658573E+8	6.955074E-11	NaN
749	1.000000	0.386615	7.37238e+06	-39639.1	1005.82	-29793.2	0.000000	0.000000	6.386893	-0.086009	NaN	0.000000	0.001641	0.001697	28.0823	0.045855	0.001952	23.4874	125.874	-168.499	-0.063145	0.385320	-0.658804	-0.660098	-0.086009	23.4874	-0.656057	-4.902890E+8	1.754258E-10	NaN
749	1.000000	0.394565	7.37238e+06	-39639.1	1005.82	-29793.2	0.000000	0.000000	6.394845	-0.020736	NaN	0.000000	0.001621	0.001719	28.0823	0.062364	0.002084	29.9278	110.106	-164.136	-0.069644	0.393279	-0.650854	-0.652139	-0.020736	29.9278	-0.650334	-4.092733E+8	5.066532E-11	NaN
749	1.000000	0.402593	7.37238e+06	-39639.1	1005.82	-29793.2	0.000000	0.000000	6.402872	-0.037132	NaN	0.000000	0.001614	0.001739	28.0821	0.036872	0.002066	17.8513	-58.4258	-165.559	-0.090079	0.401282	-0.642826	-0.644137	-0.037132	17.8513	-0.641266	-3.073664E+8	1.208063E-10	NaN
749	1.000000	0.410600	7.37238e+06	-39639.1	1005.82	-29793.2	0.000000	0.000000	6.410880	-0.021322	NaN	0.000000	0.001635	0.001716	28.0823	0.096447	0.001927	50.0411	177.419	-166.616	-0.024106	0.409260	-0.634818	-0.636159	-0.021322	50.0411	-0.634499	-2.481946E+8	8.590967E-11	NaN
749	1.000000	0.418622	7.37238e+06	-39639.1	1005.82	-29793.2	0.000000	0.000000	6.418901	-0.044585	NaN	0.000000	0.001674	0.001676	28.0823	0.064436	0.002031	31.7264	-82.3476	-162.927	0.067862	0.417312	-0.626797	-0.628106	-0.044585	31.7264	-0.625743	-1.881696E+8	2.369380E-10	NaN
749	1.000000	0.426630	7.37238e+06	-39639.1	1005.82	-29793.2	0.000000	0.000000	6.426908	-0.065666	NaN	0.000000	0.001668	0.001658	28.0824	0.108431	0.002037	53.2334	156.09	-160.302	-0.082004	0.425316	-0.618789	-0.620103	-0.065666	53.2334	-0.617864	-1.466450E+8	4.477884E-10	NaN
749	1.000000	0.434608	7.37238e+06	-39639.1	1005.82	-29793.2	0.000000	0.000000	6.434888	-0.028387	NaN	0.000000	0.001655	0.001718	28.0833	0.110747	0.001936	57.2031	2.036070	-164.937	-0.004965	0.433332	-0.610811	-0.612087	-0.028387	57.2031	-0.610438	-1.159165E+8	2.448944E-10	NaN
749	1.000000	0.442624	7.37238e+06	-39639.1	1005.82	-29793.2	0.000000	0.000000	6.442904	-0.011297	NaN	0.000000	0.001626	0.001788	28.0823	0.055696	0.002069	26.9183	-159.596	-164.791	-2.081206E-5	0.441364	-0.602795	-0.604055	-0.011297	26.9183	-0.602480	-9.007648E+7	1.254163E-10	NaN
749	1.000000	0.450645	7.37238e+06	-39639.1	1005.82	-29793.2	0.000000	0.000000	6.450926	0.001811	NaN	0.000000	0.001612	0.001776	28.0823	0.045100	0.002058	21.913	17.3588	-164.293	0.024787	0.449276	-0.594774	-0.596143	0.001811	21.913	-0.594836	-7.068297E+7	-2.562257E-11	NaN
749	1.000000	0.458626	7.37238e+06	-39639.1	1005.82	-29793.2	0.000000	0.000000	6.458904	-0.080766	NaN	0.000000	0.001605	0.001789	28.0821	0.043592	0.001990	21.9094	132.697	-169.006	-0.044385	0.457298	-0.586792	-0.588120	-0.080766	21.9094	-0.584027	-5.015273E+7	1.610410E-9	NaN
749	1.000000	0.466624	7.37238e+06	-39639.1	1005.82	-29793.2	0.000000	0.000000	6.466902	-0.077596	NaN	0.000000	0.001629	0.001738	28.0825	0.050507	0.001874	26.9453	-163.394	-166.606	-0.106533	0.465364	-0.578795	-0.580054	-0.077596	26.9453	-0.576635	-3.965264E+7	1.956883E-9	NaN
749	1.000000	0.474615	7.37238e+06	-39639.1	1005.82	-29793.2	0.000000	0.000000	6.474899	0.065939	NaN	0.000000	0.001588	0.001749	28.0822	0.028247	0.001983	14.2439	-109.928	-166.731	0.060453	0.473331	-0.570803	-0.572087	0.065939	14.2439	-0.574275	-3.678670E+7	-1.792472E-9	NaN
749	1.000000	0.482643	7.37238e+06	-39639.1	1005.82	-29793.2	0.000000	0.000000	6.482924	-0.021664	NaN	0.000000	0.001585	0.001756	28.0823	0.115733	0.002023	57.2095	-75.747	-166.409	-0.025500	0.481363	-0.562775	-0.564055	-0.021664	57.2095	-0.562491	-2.528320E+7	8.568549E-10	NaN
749	1.000000	0.490661	7.37238e+06	-39639.1	1005.82	-29793.2	0.000000	0.000000	6.490943	0.022757	NaN	0.000000	0.001626	0.001748	28.0823	0.063367	0.002048	30.94	-119.174	-169.516	0.032314	0.489363	-0.554757	-0.556056	0.022757	30.94	-0.555309	-2.011250E+7	-1.131485E-9	NaN
749	1.000000	0.498683	7.37238e+06	-39639.1	1005.82	-29793.2	0.000000	0.000000	6.498961	-0.070298	NaN	0.000000	0.001632	0.001746	28.0821	0.057796	0.001969	29.3557	175.853	-166.322	-0.113029	0.497357	-0.546736	-0.548062	-0.070298	29.3557	-0.544940	-1.444922E+7	4.865145E-9	NaN
749	1.000000	0.506692	7.37238e+06	-39639.1	1005.82	-29793.2	0.000000	0.000000	6.506974	0.024390	NaN	0.000000	0.001592	0.001716	28.0837	0.088011	0.002015	43.6722	-98.7371	-165.088	0.013983	0.505365	-0.538726	-0.540054	0.024390	43.6722	-0.539145	-1.200882E+7	-2.031026E-9	NaN
749	1.000000	0.514679	7.37238e+06	-39639.1	1005.82	-29793.2	0.000000	0.000000	6.514962	0.048166	NaN	0.000000	0.001587	0.001693	28.0832	0.095193	0.001979	48.1047	59.1255	-165.67	0.024658	0.513367	-0.530740	-0.532051	0.048166	48.1047	-0.531491	-9.40319e+06	-5.122259E-9	NaN
749	1.000000	0.522676	7.37238e+06	-39639.1	1005.82	-29793.2	0.000000	0.000000	6.522956	-0.006798	NaN	0.000000	0.001560	0.001724	28.0836	0.043630	0.001994	21.8843	-123.202	-164.827	-0.041923	0.521352	-0.522743	-0.524066	-0.006798	21.8843	-0.522510	-7.05503e+06	9.635150E-10	NaN
749	1.000000	0.530674	7.37238e+06	-39639.1	1005.82	-29793.2	0.000000	0.000000	6.530952	-0.064028	NaN	0.000000	0.001651	0.001736	28.0834	0.115985	0.001993	58.1996	-128.301	-165.092	0.000286	0.529374	-0.514745	-0.516045	-0.064028	58.1996	-0.513919	-5.35788e+06	1.195020E-8	NaN
749	1.000000	0.538667	7.37238e+06	-39639.1	1005.82	-29793.2	0.000000	0.000000	6.538945	-0.077408	NaN	0.000000	0.001653	0.001735	28.0835	0.061432	0.001952	31.4743	128.759	-165.798	-0.098668	0.537383	-0.506752	-0.508035	-0.077408	31.4743	-0.504907	-4.01282e+06	1.929021E-8	NaN
749	1.000000	0.546690	7.37238e+06	-39639.1	1005.82	-29793.2	0.000000	0.000000	6.546972	0.024210	NaN	0.000000	0.001717	0.001697	28.0834	0.075881	0.001867	40.6418	-1.618361	-167.885	-0.016472	0.545320	-0.498729	-0.500098	0.024210	40.6418	-0.499176	-3.33823e+06	-7.252322E-9	NaN
749	1.000000	0.554683	7.37238e+06	-39639.1	1005.82	-29793.2	0.000000	0.000000	6.554962	-0.036352	NaN	0.000000	0.001662	0.001741	28.0833	0.111879	0.001957	57.1561	18.356	-169.54	-0.025118	0.553356	-0.490736	-0.492062	-0.036352	57.1561	-0.490259	-2.50615e+06	1.450491E-8	NaN
749	1.000000	0.562685	7.37238e+06	-39639.1	1005.82	-29793.2	0.000000	0.000000	6.562967	0.007707	NaN	0.000000	0.001638	0.001716	28.0835	0.129047	0.002107	61.2367	176.442	-170.193	0.035313	0.561427	-0.482733	-0.483991	0.007707	61.2367	-0.482827	-1.97287e+06	-3.906666E-9	NaN
749	1.000000	0.570685	7.37238e+06	-39639.1	1005.82	-29793.2	0.000000	0.000000	6.570965	-0.028014	NaN	0.000000	0.001670	0.001736	28.0833	0.058158	0.001958	29.6998	-42.4042	-167.145	-0.050598	0.569396	-0.474733	-0.476023	-0.028014	29.6998	-0.474026	-1.48541e+06	1.885920E-8	NaN
749	1.000000	0.578707	7.37238e+06	-39639.1	1005.82	-29793.2	0.000000	0.000000	6.578986	-0.057222	NaN	0.000000	0.001643	0.001752	28.0837	0.020165	0.002068	9.749713	138.716	-166.256	-0.102300	0.577364	-0.466711	-0.468054	-0.057222	9.749713	-0.462310	-1.01735e+06	5.624614E-8	NaN
749	1.000000	0.586628	7.37238e+06	-39639.1	1005.82	-29793.2	0.000000	0.000000	6.586911	0.052961	NaN	0.000000	0.001675	0.001689	28.0834	0.162490	0.002124	76.5191	-94.5848	-163.919	0.087485	0.585414	-0.458791	-0.460005	0.052961	76.5191	-0.459310	-923242	-5.736434E-8	NaN
749	1.000000	0.594693	7.37238e+06	-39639.1	1005.82	-29793.2	0.000000	0.000000	6.594973	-0.017115	NaN	0.000000	0.001653	0.001744	28.0833	0.012725	0.001860	6.841638	-112.322	-164.496	-0.032253	0.593376	-0.450726	-0.452043	-0.017115	6.841638	-0.448849	-657865	2.601530E-8	NaN
749	1.000000	0.602687	7.37238e+06	-39639.1	1005.82	-29793.2	0.000000	0.000000	6.602968	0.004651	NaN	0.000000	0.001687	0.001776	28.0836	0.093508	0.002050	45.6216	58.3279	-165.223	0.020657	0.601415	-0.442731	-0.444003	0.004651	45.6216	-0.442808	-540730	-8.601891E-9	NaN
749	1.000000	0.610721	7.37238e+06	-39639.1	1005.82	-29793.2	0.000000	0.000000	6.611000	-0.040089	NaN	0.000000	0.001653	0.001778	28.0833	0.041735	0.001953	21.3722	123.787	-165.465	-0.002109	0.609390	-0.434698	-0.436029	-0.040089	21.3722	-0.433291	-396824	1.010242E-7	NaN
749	1.000000	0.618719	7.37238e+06	-39639.1	1005.82	-29793.2	0.000000	0.000000	6.618994	-0.152556	NaN	0.000000	0.001686	0.001720	28.0836	0.092398	0.002032	45.4677	-140.268	-164.417	-0.061553	0.617456	-0.426699	-0.427962	-0.152556	45.4677	-0.424183	-294922	5.172747E-7	NaN
749	1.000000	0.626709	7.37238e+06	-39639.1	1005.82	-29793.2	0.000000	0.000000	6.626990	-0.006611	NaN	0.000000	0.001677	0.001744	28.0834	0.031779	0.002066	15.3846	-142.828	-166.486	0.027108	0.625372	-0.418710	-0.420046	-0.006611	15.3846	-0.418387	-244085	2.708539E-8	NaN
749	1.000000	0.634702	7.37238e+06	-39639.1	1005.82	-29793.2	0.000000	0.000000	6.634983	-0.010262	NaN	0.000000	0.001694	0.001764	28.0833	0.023225	0.002088	11.1247	-165.223	-162.105	0.030099	0.633398	-0.410716	-0.412020	-0.010262	11.1247	-0.410025	-185674	5.526668E-8	NaN
749	1.000000	0.642733	7.37238e+06	-39639.1	1005.82	-29793.2	0.000000	0.000000	6.643012	-0.049067	NaN	0.000000	0.001634	0.001753	28.0823	0.132495	0.001929	68.6703	-69.9222	-163.294	-0.040022	0.641429	-0.402685	-0.403989	-0.049067	68.6703	-0.402150	-143430	3.420951E-7	NaN
749	1.000000	0.650742	7.37238e+06	-39639.1	1005.82	-29793.2	0.000000	0.000000	6.651023	-0.021297	NaN	0.000000	0.001636	0.001746	28.0822	0.241430	0.001922	125.64	13.0965	-164.082	-0.052197	0.649456	-0.394676	-0.395963	-0.021297	125.64	-0.394549	-111736	1.906022E-7	NaN
749	1.000000	0.658708	7.37238e+06	-39639.1	1005.82	-29793.2	0.000000	0.000000	6.658988	-0.030340	NaN	0.000000	0.001704	0.001760	28.0828	0.051118	0.001978	25.8457	-132.007	-164.566	-0.003137	0.657410	-0.386710	-0.388008	-0.030340	25.8457	-0.385830	-83843.8	3.618611E-7	NaN
749	1.000000	0.666718	7.37238e+06	-39639.1	1005.82	-29793.2	0.000000	0.000000	6.666996	-0.066484	NaN	0.000000	0.001692	0.001787	28.0821	0.078871	0.001953	40.3804	-75.1048	-168.583	-0.006198	0.665466	-0.378701	-0.379952	-0.066484	40.3804	-0.377466	-63606.8	1.045237E-6	NaN
749	1.000000	0.674734	7.37238e+06	-39639.1	1005.82	-29793.2	0.000000	0.000000	6.675011	-0.094245	NaN	0.000000	0.001682	0.001783	28.0823	0.020721	0.001860	11.1409	-2.678636	-165.106	-0.058445	0.673441	-0.370684	-0.371978	-0.094245	11.1409	-0.364340	-41164.9	2.289454E-6	NaN
749	1.000000	0.682746	7.37238e+06	-39639.1	1005.82	-29793.2	0.000000	0.000000	6.683028	0.022893	NaN	0.000000	0.001652	0.001713	28.0823	0.024815	0.002050	12.1044	-81.4993	-162.919	0.028592	0.681444	-0.362672	-0.363974	0.022893	12.1044	-0.364091	-40825.7	-5.607388E-7	NaN
749	1.000000	0.690711	7.37238e+06	-39639.1	1005.82	-29793.2	0.000000	0.000000	6.690990	-0.053401	NaN	0.000000	0.001667	0.001727	28.0821	0.135537	0.002029	66.8072	93.9013	-166.48	0.021505	0.689416	-0.354707	-0.356003	-0.053401	66.8072	-0.354108	-29280	1.823792E-6	NaN
749	1.000000	0.698693	7.37238e+06	-39639.1	1005.82	-29793.2	0.000000	0.000000	6.698974	-0.012725	NaN	0.000000	0.001659	0.001715	28.0825	0.035642	0.001868	19.0792	159.791	-169.963	-0.026359	0.697386	-0.346725	-0.348033	-0.012725	19.0792	-0.346225	-22499.1	5.655731E-7	NaN
749	1.000000	0.706737	7.37238e+06	-39639.1	1005.82	-29793.2	0.000000	0.000000	6.707017	-0.024698	NaN	0.000000	0.001647	0.001723	28.0821	0.113928	0.001893	60.171	101.46	-164.777	-0.030418	0.705452	-0.338682	-0.339967	-0.024698	60.171	-0.338374	-17291.8	1.428320E-6	NaN
749	1.000000	0.714798	7.37238e+06	-39639.1	1005.82	-29793.2	0.000000	0.000000	6.715076	-0.064098	NaN	0.000000	0.001688	0.001762	28.0824	0.072261	0.002089	34.5927	163.173	-164.999	-0.079418	0.713461	-0.330621	-0.331958	-0.064098	34.5927	-0.329231	-12711.2	5.042638E-6	NaN
749	1.000000	0.722772	7.37238e+06	-39639.1	1005.82	-29793.2	0.000000	0.000000	6.723053	-0.000215	NaN	0.000000	0.001681	0.001753	28.0822	0.097930	0.001870	52.3705	-8.796555	-165.682	-0.045611	0.721442	-0.322647	-0.323976	-0.000215	52.3705	-0.322644	-10174.7	2.116162E-8	NaN
749	1.000000	0.730749	7.37238e+06	-39639.1	1005.82	-29793.2	0.000000	0.000000	6.731027	-0.077179	NaN	0.000000	0.001663	0.001735	28.0823	0.123308	0.001912	64.487	-158.267	-166.443	-0.095247	0.729391	-0.314669	-0.316027	-0.077179	64.487	-0.313772	-7530.31	1.024912E-5	NaN
749	1.000000	0.738763	7.37238e+06	-39639.1	1005.82	-29793.2	0.000000	0.000000	6.739041	-0.075574	NaN	0.000000	0.001666	0.001755	28.0823	0.029040	0.001936	15.0025	106.295	-164.59	-0.005816	0.737404	-0.306655	-0.308014	-0.075574	15.0025	-0.302877	-5193.13	1.455262E-5	NaN
749	1.000000	0.746822	7.37238e+06	-39639.1	1005.82	-29793.2	0.000000	0.000000	6.747102	-0.026001	NaN	0.000000	0.001637	0.001749	28.0823	0.105426	0.002074	50.8328	136.443	-167.335	0.052304	0.745427	-0.298597	-0.299992	-0.026001	50.8328	-0.298213	-4426.12	5.874466E-6	NaN
749	1.000000	0.754777	7.37238e+06	-39639.1	1005.82	-29793.2	0.000000	0.000000	6.755057	-0.026432	NaN	0.000000	0.001607	0.001744	28.0825	0.066306	0.001952	33.9725	13.0295	-161.974	-0.024469	0.753445	-0.290641	-0.291973	-0.026432	33.9725	-0.290058	-3343.25	7.906140E-6	NaN
749	1.000000	0.762771	7.37238e+06	-39639.1	1005.82	-29793.2	0.000000	0.000000	6.763051	-0.033579	NaN	0.000000	0.001560	0.001731	28.0823	0.078895	0.002116	37.2786	-113.417	-162.953	-0.024281	0.761438	-0.282648	-0.283981	-0.033579	37.2786	-0.281972	-2527.55	1.328523E-5	NaN
749	1.000000	0.770770	7.37238e+06	-39639.1	1005.82	-29793.2	0.000000	0.000000	6.771050	-0.031657	NaN	0.000000	0.001587	0.001734	28.0824	0.109024	0.001931	56.4501	-175.023	-165.126	0.050019	0.769497	-0.274648	-0.275922	-0.031657	56.4501	-0.274228	-1930.64	1.639695E-5	NaN
749	1.000000	0.778778	7.37238e+06	-39639.1	1005.82	-29793.2	0.000000	0.000000	6.779056	-0.082672	NaN	0.000000	0.001619	0.001748	28.0834	0.066457	0.001969	33.7512	-115.985	-164.436	-0.038511	0.777435	-0.266641	-0.267984	-0.082672	33.7512	-0.264803	-1388	5.956235E-5	NaN
749	1.000000	0.786794	7.37238e+06	-39639.1	1005.82	-29793.2	0.000000	0.000000	6.787074	-0.024185	NaN	0.000000	0.001603	0.001778	28.0834	0.057736	0.002068	27.918	41.3153	-165.243	-0.042840	0.785443	-0.258625	-0.259976	-0.024185	27.918	-0.257975	-1091.07	2.216594E-5	NaN
749	1.000000	0.794794	7.37238e+06	-39639.1	1005.82	-29793.2	0.000000	0.000000	6.795073	-0.053129	NaN	0.000000	0.001627	0.001747	28.0836	0.024931	0.001899	13.1314	158.381	-167.092	0.011163	0.793518	-0.250625	-0.251901	-0.053129	13.1314	-0.247590	-754.493	7.041679E-5	NaN
749	1.000000	0.802785	7.37238e+06	-39639.1	1005.82	-29793.2	0.000000	0.000000	6.803063	-0.068445	NaN	0.000000	0.001605	0.001769	28.0835	0.065508	0.002038	32.1502	146.138	-163.005	-0.054418	0.801473	-0.242634	-0.243945	-0.068445	32.1502	-0.241037	-596.682	0.000115	NaN
749	1.000000	0.810779	7.37238e+06	-39639.1	1005.82	-29793.2	0.000000	0.000000	6.811055	-0.111360	NaN	0.000000	0.001591	0.001717	28.0838	0.097007	0.002193	44.2338	-42.5615	-165.192	-0.064280	0.809414	-0.234640	-0.236005	-0.111360	44.2338	-0.232752	-442.486	0.000252	NaN
749	1.000000	0.818804	7.37238e+06	-39639.1	1005.82	-29793.2	0.000000	0.000000	6.819085	-0.012055	NaN	0.000000	0.001620	0.001719	28.0834	0.059793	0.001989	30.0691	-27.5657	-166.279	-0.030018	0.817531	-0.226614	-0.227888	-0.012055	30.0691	-0.226314	-350.093	3.443419E-5	NaN
749	1.000000	0.826788	7.37238e+06	-39639.1	1005.82	-29793.2	0.000000	0.000000	6.827068	-0.016072	NaN	0.000000	0.001597	0.001707	28.0835	0.028922	0.001954	14.8008	-27.8423	-163.153	-0.121572	0.825505	-0.218631	-0.219913	-0.016072	14.8008	-0.217816	-256.29	6.271130E-5	NaN
749	1.000000	0.834830	7.37238e+06	-39639.1	1005.82	-29793.2	0.000000	0.000000	6.835110	-0.018405	NaN	0.000000	0.001588	0.001737	28.0834	0.052074	0.002044	25.4785	-143.515	-165.622	-0.012992	0.833479	-0.210589	-0.211940	-0.018405	25.4785	-0.210047	-192.124	9.579508E-5	NaN
749	1.000000	0.842805	7.37238e+06	-39639.1	1005.82	-29793.2	0.000000	0.000000	6.843084	-0.061391	NaN	0.000000	0.001540	0.001724	28.0834	0.079799	0.002057	38.7901	92.4014	-166.333	-0.009513	0.841500	-0.202613	-0.203918	-0.061391	38.7901	-0.201427	-139.033	0.000442	NaN
749	1.000000	0.850804	7.37238e+06	-39639.1	1005.82	-29793.2	0.000000	0.000000	6.851083	-0.062870	NaN	0.000000	0.001631	0.001722	28.0835	0.067443	0.001962	34.3706	-41.3141	-165.151	-0.085513	0.849495	-0.194614	-0.195923	-0.062870	34.3706	-0.193242	-101.87	0.000617	NaN
749	1.000000	0.858808	7.37238e+06	-39639.1	1005.82	-29793.2	0.000000	0.000000	6.859087	-0.040239	NaN	0.000000	0.001657	0.001711	28.0832	0.009405	0.002005	4.691549	-94.2255	-162.498	-0.026807	0.857490	-0.186611	-0.187928	-0.040239	4.691549	-0.180178	-61.4462	0.000655	NaN
749	1.000000	0.866805	7.37238e+06	-39639.1	1005.82	-29793.2	0.000000	0.000000	6.867086	-0.006687	NaN	0.000000	0.001606	0.001726	28.0836	0.134450	0.002092	64.2776	-166.174	-163.736	0.038378	0.865530	-0.178613	-0.179889	-0.006687	64.2776	-0.178535	-57.6118	0.000116	NaN
749	1.000000	0.874819	7.37238e+06	-39639.1	1005.82	-29793.2	0.000000	0.000000	6.875100	-0.006919	NaN	0.000000	0.001623	0.001716	28.0833	0.046789	0.002069	22.6134	38.9939	-165.946	0.027186	0.873558	-0.170600	-0.171861	-0.006919	22.6134	-0.170370	-41.6911	0.000166	NaN
749	1.000000	0.882835	7.37238e+06	-39639.1	1005.82	-29793.2	0.000000	0.000000	6.883112	-0.122794	NaN	0.000000	0.001588	0.001715	28.0833	0.109583	0.002003	54.7228	-50.6011	-164.464	-0.033761	0.881529	-0.162583	-0.163889	-0.122794	54.7228	-0.160900	-28.4421	0.004317	NaN
749	1.000000	0.890805	7.37238e+06	-39639.1	1005.82	-29793.2	0.000000	0.000000	6.891088	0.027732	NaN	0.000000	0.001652	0.001724	28.0835	0.035424	0.002061	17.1893	-44.5971	-165.086	-0.060326	0.889509	-0.154613	-0.155909	0.027732	17.1893	-0.155823	-23.0874	-0.001201	NaN
749	1.000000	0.898826	7.37238e+06	-39639.1	1005.82	-29793.2	0.000000	0.000000	6.899107	-0.006838	NaN	0.000000	0.001658	0.001745	28.0832	0.073824	0.002066	35.7332	93.5729	-166.582	-0.036742	0.897531	-0.146593	-0.147887	-0.006838	35.7332	-0.146449	-15.5927	0.000439	NaN
749	1.000000	0.906819	7.37238e+06	-39639.1	1005.82	-29793.2	0.000000	0.000000	6.907099	-0.013443	NaN	0.000000	0.001697	0.001722	28.0837	0.084219	0.002010	41.8981	-61.2271	-165.828	-0.011567	0.905500	-0.138600	-0.139918	-0.013443	41.8981	-0.138359	-11.017	0.001220	NaN
749	1.000000	0.914837	7.37238e+06	-39639.1	1005.82	-29793.2	0.000000	0.000000	6.915117	-0.014211	NaN	0.000000	0.001679	0.001746	28.0819	0.064630	0.001878	34.4183	-177.835	-167.034	0.025870	0.913469	-0.130582	-0.131949	-0.014211	34.4183	-0.130272	-7.714270	0.001842	NaN
749	1.000000	0.922803	7.37238e+06	-39639.1	1005.82	-29793.2	0.000000	0.000000	6.923086	0.040705	NaN	0.000000	0.001679	0.001727	28.0817	0.059289	0.002145	27.6464	-175.42	-166.52	-0.014231	0.921508	-0.122616	-0.123910	0.040705	27.6464	-0.123720	-5.735872	-0.007097	NaN
749	1.000000	0.930857	7.37239e+06	-39639.1	1005.82	-29793.2	0.000000	0.000000	6.931138	-9.103580E-5	NaN	0.000000	0.001692	0.001720	28.0819	0.028792	0.001992	14.4533	-99.5364	-162.967	-0.055768	0.929506	-0.114561	-0.115912	-9.103580E-5	14.4533	-0.114557	-3.740713	2.433648E-5	NaN
749	1.000000	0.938842	7.37239e+06	-39639.1	1005.82	-29793.2	0.000000	0.000000	6.939122	-0.024411	NaN	0.000000	0.001666	0.001743	28.0818	0.105464	0.002020	52.2082	57.5782	-165.973	-0.116799	0.937508	-0.106577	-0.107910	-0.024411	52.2082	-0.106226	-2.497889	0.009773	NaN
749	1.000000	0.946844	7.37239e+06	-39639.1	1005.82	-29793.2	0.000000	0.000000	6.947124	-0.022730	NaN	0.000000	0.001636	0.001736	28.0824	0.062919	0.002007	31.3538	-88.4653	-167.618	-0.022460	0.945538	-0.098574	-0.099880	-0.022730	31.3538	-0.098031	-1.651530	0.013763	NaN
749	1.000000	0.954874	7.37239e+06	-39639.1	1005.82	-29793.2	0.000000	0.000000	6.955154	-0.033747	NaN	0.000000	0.001612	0.001725	28.0818	0.055848	0.001986	28.1163	136.211	-160.949	0.031744	0.953504	-0.090544	-0.091914	-0.033747	28.1163	-0.089644	-1.060379	0.031826	NaN
749	1.000000	0.962849	7.37239e+06	-39639.1	1005.82	-29793.2	0.000000	0.000000	6.963128	-0.071516	NaN	0.000000	0.001627	0.001722	28.082	0.032052	0.001927	16.6358	170.157	-165.66	-0.074580	0.961499	-0.082569	-0.083919	-0.071516	16.6358	-0.079345	-0.596028	0.119987	NaN
749	1.000000	0.970845	7.37239e+06	-39639.1	1005.82	-29793.2	0.000000	0.000000	6.971126	0.003834	NaN	0.000000	0.001596	0.001717	28.0821	0.044365	0.001965	22.5731	-175.82	-167.921	-0.051323	0.969532	-0.074573	-0.075886	0.003834	22.5731	-0.074701	-0.453706	-0.008451	NaN
749	1.000000	0.978864	7.37239e+06	-39639.1	1005.82	-29793.2	0.000000	0.000000	6.979145	0.002372	NaN	0.000000	0.001600	0.001722	28.0819	0.052566	0.001971	26.666	-137.219	-164.387	-0.049540	0.977550	-0.066555	-0.067868	0.002372	26.666	-0.066621	-0.276250	-0.008586	NaN
749	1.000000	0.986847	7.37239e+06	-39639.1	1005.82	-29793.2	0.000000	0.000000	6.987129	0.029144	NaN	0.000000	0.001601	0.001744	28.0823	0.011893	0.001871	6.357922	38.8779	-166.278	0.111392	0.985562	-0.058572	-0.059856	0.029144	6.357922	-0.062010	-0.205482	-0.141834	NaN
749	1.000000	0.994859	7.37239e+06	-39639.1	1005.82	-29793.2	0.000000	0.000000	6.995138	-0.057350	NaN	0.000000	0.001612	0.001712	28.0818	0.049764	0.002077	23.9557	170.96	-167.129	-0.077875	0.993509	-0.050559	-0.051909	-0.057350	23.9557	-0.048764	-0.083710	0.685100	NaN
749	1.000000	1.002867	7.37239e+06	-39639.1	1005.82	-29793.2	0.000000	0.000000	7.003147	-0.042102	NaN	0.000000	0.001608	0.001725	28.0821	0.103026	0.001955	52.6947	-126.024	-166.466	-0.074962	1.001563	-0.042551	-0.043855	-0.042102	52.6947	-0.041952	-0.051857	0.811894	NaN
749	1.000000	1.010874	7.37239e+06	-39639.1	1005.82	-29793.2	0.000000	0.000000	7.011153	-0.051593	NaN	0.000000	0.001642	0.001718	28.0821	0.073017	0.001893	38.5639	-169.976	-162.542	-0.063896	1.009560	-0.034545	-0.035859	-0.051593	38.5639	-0.033541	-0.029028	1.777392	NaN
749	1.000000	1.018897	7.37239e+06	-39639.1	1005.82	-29793.2	0.000000	0.000000	7.019177	-0.030479	NaN	0.000000	0.001637	0.001764	28.0819	0.117411	0.002045	57.4068	-147.562	-164.678	-0.042998	1.017478	-0.026522	-0.027940	-0.030479	57.4068	-0.026123	-0.018058	1.687860	NaN
749	1.000000	1.026831	7.37239e+06	-39639.1	1005.82	-29793.2	0.000000	0.000000	7.027111	-0.041319	NaN	0.000000	0.001617	0.001732	28.0822	0.004301	0.001863	2.308662	-98.4983	-165.944	-0.026693	1.025533	-0.018587	-0.019885	-0.041319	2.308662	-0.005164	-0.003519	11.7404	NaN
749	1.000000	1.034883	7.37239e+06	-39639.1	1005.82	-29793.2	0.000000	0.000000	7.035163	-0.030498	NaN	0.000000	0.001619	0.001698	28.082	0.034793	0.001802	19.311	171.381	-165.235	-0.064723	1.033572	-0.010536	-0.011847	-0.030498	19.311	-0.009351	-0.006015	5.070149	NaN
749	1.000000	1.042881	7.37239e+06	-39639.1	1005.82	-29793.2	0.000000	0.000000	7.043163	0.010986	NaN	0.000000	0.001588	0.001767	28.0825	0.019487	0.001952	9.984568	-167.48	-164.809	-0.018630	1.041595	-0.002538	-0.003824	0.010986	9.984568	-0.003363	-0.002362	-4.651475	NaN
749	1.000000	1.050866	7.37239e+06	-39639.1	1005.82	-29793.2	0.000000	0.000000	7.051344	4.765853	NaN	0.000000	0.001669	0.001736	28.0833	5.344141	0.001873	2853	6.453415	-166.955	3.103086	1.049600	0.005448	0.004181	4.765853	2853	0.004195	0.003411	1397.31	44632.4
749	2.000000	1.055451	7.37239e+06	-39639.1	1005.82	-29793.2	0.000000	0.000000	7.056139	9.895564	NaN	0.000000	0.001524	0.001766	28.0834	9.498776	0.001541	6164.49	1.136067	-168.579	9.256417	1.055141	0.010033	0.009723	9.895564	6164.49	0.008829	0.007909	1251.2	63330.5
749	2.000000	1.057532	7.37239e+06	-39639.1	1005.82	-29793.2	0.000000	0.000000	7.058338	12.7654	NaN	0.000000	0.001578	0.001738	28.0832	11.8763	0.001793	6623.7	8.490696	-172.425	13.1281	1.057127	0.012113	0.011708	12.7654	6623.7	0.010668	0.009933	1285.12	60719.4
749	2.000000	1.059508	7.37239e+06	-39639.1	1005.82	-29793.2	0.000000	0.000000	7.060430	15.5977	NaN	0.000000	0.001561	0.001737	28.0833	13.8199	0.001782	7756.57	6.483207	-173.85	16.1996	1.059093	0.014089	0.013674	15.5977	7756.57	0.012581	0.012193	1279.19	64177.2
749	2.000000	1.061462	7.37239e+06	-39639.1	1005.82	-29793.2	0.000000	0.000000	7.062585	20.4971	NaN	0.000000	0.001571	0.001736	28.0838	16.3342	0.001828	8933.64	7.636243	-176.91	20.6846	1.061141	0.016043	0.015723	20.4971	8933.64	0.014323	0.014393	1424.13	68034.7
749	2.000000	1.063403	7.37239e+06	-39639.1	1005.82	-29793.2	0.000000	0.000000	7.064558	21.2578	NaN	0.000000	0.001568	0.001723	28.0833	17.2772	0.001661	10401.1	9.712668	179.207	21.8589	1.063155	0.017984	0.017736	21.2578	10401.1	0.016452	0.017270	1230.9	72311.3
749	2.000000	1.065403	7.37239e+06	-39639.1	1005.82	-29793.2	0.000000	0.000000	7.066789	26.8848	NaN	0.000000	0.001560	0.001769	28.0834	19.6858	0.001786	11024.7	6.651199	-176.915	27.4357	1.065123	0.019984	0.019704	26.8848	11024.7	0.018155	0.019726	1362.89	71716.1
749	2.000000	1.067398	7.37239e+06	-39639.1	1005.82	-29793.2	0.000000	0.000000	7.069112	34.8623	NaN	0.000000	0.001565	0.001744	28.0832	21.5667	0.001681	12826.5	5.665435	-177.915	33.4985	1.066984	0.021980	0.021566	34.8623	12826.5	0.019942	0.022451	1552.85	78210.8
749	2.000000	1.069347	7.37239e+06	-39639.1	1005.82	-29793.2	0.000000	0.000000	7.071275	40.0749	NaN	0.000000	0.001533	0.001738	28.0832	23.3189	0.001783	13080.1	6.052582	-177.762	38.4545	1.069057	0.023928	0.023639	40.0749	13080.1	0.021630	0.025169	1592.23	75327.1
749	2.000000	1.071367	7.37239e+06	-39639.1	1005.82	-29793.2	0.000000	0.000000	7.073456	43.9975	NaN	0.000000	0.001549	0.001729	28.0834	25.4951	0.001776	14353.8	5.640202	-178.934	42.389	1.071011	0.025949	0.025593	43.9975	14353.8	0.023650	0.028605	1538.1	77538.9
749	2.000000	1.073348	7.37239e+06	-39639.1	1005.82	-29793.2	0.000000	0.000000	7.075612	48.2603	NaN	0.000000	0.001578	0.001715	28.083	27.0174	0.001679	16090.3	1.724388	-176.185	47.6497	1.073045	0.027929	0.027627	48.2603	16090.3	0.025680	0.032264	1495.8	81842.5
749	2.000000	1.075364	7.37239e+06	-39639.1	1005.82	-29793.2	0.000000	0.000000	7.077857	53.8209	NaN	0.000000	0.001566	0.001716	28.0836	30.2079	0.001759	17170.7	6.528702	177.745	53.1778	1.075093	0.029945	0.029675	53.8209	17170.7	0.027594	0.035905	1498.98	82790.9
749	2.000000	1.077415	7.37239e+06	-39639.1	1005.82	-29793.2	0.000000	0.000000	7.080279	62.8576	NaN	0.000000	0.001563	0.001677	28.0831	32.9454	0.001959	16815.4	10.5742	176.417	63.26	1.077007	0.031997	0.031589	62.8576	16815.4	0.029193	0.039088	1608.12	77707.2
749	2.000000	1.079336	7.37239e+06	-39639.1	1005.82	-29793.2	0.000000	0.000000	7.082378	67.1975	NaN	0.000000	0.001576	0.001707	28.0833	33.3346	0.001703	19568.9	3.959045	-179.916	65.6192	1.079078	0.033917	0.033660	67.1975	19568.9	0.031342	0.043571	1542.26	85652.9
749	2.000000	1.081329	7.37239e+06	-39639.1	1005.82	-29793.2	0.000000	0.000000	7.084726	75.8212	NaN	0.000000	0.001601	0.001687	28.0835	36.3277	0.001934	18782.7	4.236356	179.64	73.7476	1.081002	0.035911	0.035583	75.8212	18782.7	0.032883	0.046932	1615.55	79213
749	2.000000	1.083339	7.37239e+06	-39639.1	1005.82	-29793.2	0.000000	0.000000	7.087057	83.6402	NaN	0.000000	0.001539	0.001711	28.0832	37.0117	0.001706	21693.3	2.311021	179.763	82.1554	1.083075	0.037920	0.037657	83.6402	21693.3	0.035029	0.051813	1614.28	87072.5
749	2.000000	1.085322	7.37239e+06	-39639.1	1005.82	-29793.2	0.000000	0.000000	7.089407	92.5562	NaN	0.000000	0.001556	0.001706	28.0836	39.1412	0.001797	21778.5	4.080864	178.596	89.656	1.084943	0.039903	0.039524	92.5562	21778.5	0.036716	0.055817	1658.21	84220.5
749	2.000000	1.087390	7.37239e+06	-39639.1	1005.82	-29793.2	0.000000	0.000000	7.091725	98.6536	NaN	0.000000	0.001592	0.001732	28.0824	41.56	0.001752	23716.6	7.983455	174.607	99.961	1.087031	0.041971	0.041612	98.6536	23716.6	0.038852	0.061094	1614.78	87665
749	2.000000	1.089337	7.37239e+06	-39639.1	1005.82	-29793.2	0.000000	0.000000	7.094009	106.853	NaN	0.000000	0.001594	0.001705	28.082	42.2956	0.001779	23773	5.010046	176.967	105.727	1.089022	0.043919	0.043604	106.853	23773	0.040548	0.065451	1632.56	84898.2
749	2.000000	1.091332	7.37239e+06	-39639.1	1005.82	-29793.2	0.000000	0.000000	7.096363	115.573	NaN	0.000000	0.001576	0.001770	28.0821	44.9127	0.001723	26070.1	7.344783	174.754	114.61	1.090971	0.045914	0.045552	115.573	26070.1	0.042589	0.070890	1630.31	89458.6
749	2.000000	1.093287	7.37239e+06	-39639.1	1005.82	-29793.2	0.000000	0.000000	7.098449	118.761	NaN	0.000000	0.001618	0.001700	28.0821	45.497	0.001670	27241.6	1.975364	178.43	115.605	1.093069	0.047869	0.047651	118.761	27241.6	0.044599	0.076454	1553.37	90013.4
749	2.000000	1.095341	7.37239e+06	-39639.1	1005.82	-29793.2	0.000000	0.000000	7.100977	130.291	NaN	0.000000	0.001598	0.001706	28.0836	48.8194	0.001749	27909.2	6.134512	174.245	129.071	1.095028	0.049923	0.049610	130.291	27909.2	0.046422	0.081674	1595.25	89223.3
749	2.000000	1.097403	7.37239e+06	-39639.1	1005.82	-29793.2	0.000000	0.000000	7.103444	140.178	NaN	0.000000	0.001580	0.001761	28.0819	52.1323	0.002012	25906	10.4542	172.396	141.366	1.096954	0.051984	0.051536	140.178	25906	0.047926	0.086110	1627.9	80658
749	2.000000	1.099302	7.37239e+06	-39639.1	1005.82	-29793.2	0.000000	0.000000	7.105624	146.999	NaN	0.000000	0.001567	0.001717	28.082	53.0691	0.001813	29265	8.923115	171.742	145.925	1.098995	0.053883	0.053577	146.999	29265	0.050116	0.092771	1584.53	87783.9
749	2.000000	1.101325	7.37239e+06	-39639.1	1005.82	-29793.2	0.000000	0.000000	7.108047	156.739	NaN	0.000000	0.001576	0.001716	28.0821	54.4196	0.001864	29191.8	3.137507	177.396	155.503	1.101133	0.055906	0.055714	156.739	29191.8	0.051879	0.098311	1594.31	85061.6
749	2.000000	1.103356	7.37239e+06	-39639.1	1005.82	-29793.2	0.000000	0.000000	7.110534	167.824	NaN	0.000000	0.001570	0.001707	28.0821	56.038	0.001800	31129.9	7.979935	172.573	168.619	1.102960	0.057938	0.057542	167.824	31129.9	0.053894	0.104829	1600.93	87843.7
749	2.000000	1.105278	7.37239e+06	-39639.1	1005.82	-29793.2	0.000000	0.000000	7.112974	180.436	NaN	0.000000	0.001525	0.001682	28.0828	58.3593	0.001818	32097	4.516307	174.627	178.276	1.104930	0.059860	0.059512	180.436	32097	0.055644	0.110652	1630.66	88157.4
749	2.000000	1.107377	7.37239e+06	-39639.1	1005.82	-29793.2	0.000000	0.000000	7.115570	192.527	NaN	0.000000	0.001503	0.001713	28.0819	60.1724	0.001890	31839.4	4.720641	175.963	192.673	1.106935	0.061959	0.061517	192.527	31839.4	0.057424	0.116733	1649.29	85141.4
749	2.000000	1.109268	7.37239e+06	-39639.1	1005.82	-29793.2	0.000000	0.000000	7.117929	203.909	NaN	0.000000	0.001578	0.001690	28.082	61.571	0.001888	32619.1	5.974418	174.06	201.342	1.108998	0.063849	0.063580	203.909	32619.1	0.059161	0.122817	1660.26	85038.5
749	2.000000	1.111306	7.37239e+06	-39639.1	1005.82	-29793.2	0.000000	0.000000	7.120342	213.03	NaN	0.000000	0.001578	0.001707	28.0822	63.9031	0.001801	35491.1	5.476104	172.817	211.52	1.111080	0.065888	0.065662	213.03	35491.1	0.061386	0.130825	1628.35	89649.2
749	2.000000	1.113311	7.37239e+06	-39639.1	1005.82	-29793.2	0.000000	0.000000	7.122718	222.071	NaN	0.000000	0.001567	0.001764	28.0822	63.8656	0.001780	35885.6	3.906576	174.689	221.248	1.112943	0.067892	0.067524	222.071	35885.6	0.063251	0.137723	1612.44	88346.6
749	2.000000	1.115312	7.37239e+06	-39639.1	1005.82	-29793.2	0.000000	0.000000	7.125230	234.527	NaN	0.000000	0.001583	0.001765	28.0823	66.8629	0.001703	39254.7	6.001536	171.408	233.863	1.115046	0.069893	0.069628	234.527	39254.7	0.065412	0.145928	1607.14	93884.9
749	2.000000	1.117297	7.37239e+06	-39639.1	1005.82	-29793.2	0.000000	0.000000	7.127896	251.08	NaN	0.000000	0.001603	0.001731	28.0821	68.4219	0.001940	35273	1.517164	178.039	247.881	1.116988	0.071879	0.071570	251.08	35273	0.066540	0.150298	1670.55	83126.3
749	2.000000	1.119236	7.37239e+06	-39639.1	1005.82	-29793.2	0.000000	0.000000	7.130331	263.137	NaN	0.000000	0.001576	0.001748	28.0823	70.1561	0.001877	37385.3	2.227255	176.719	258.686	1.118974	0.073818	0.073555	263.137	37385.3	0.068539	0.158196	1663.36	85876.9
749	2.000000	1.121275	7.37239e+06	-39639.1	1005.82	-29793.2	0.000000	0.000000	7.132746	272.314	NaN	0.000000	0.001581	0.001745	28.0829	72.5239	0.001779	40765.2	5.511735	172.759	268.576	1.120942	0.075856	0.075524	272.314	40765.2	0.070846	0.167547	1625.31	90990.2
749	2.000000	1.123318	7.37239e+06	-39639.1	1005.82	-29793.2	0.000000	0.000000	7.135405	287.279	NaN	0.000000	0.001595	0.001725	28.0834	72.9644	0.001707	42756.5	3.795618	174.617	288.883	1.123004	0.077899	0.077585	287.279	42756.5	0.072860	0.175917	1633.04	93136.8
749	2.000000	1.125331	7.37239e+06	-39639.1	1005.82	-29793.2	0.000000	0.000000	7.137948	300.172	NaN	0.000000	0.001599	0.001735	28.0836	75.93	0.001761	43110.6	5.019881	172.058	300.227	1.124951	0.079913	0.079532	300.172	43110.6	0.074691	0.183691	1634.12	91899.6
749	2.000000	1.127260	7.37239e+06	-39639.1	1005.82	-29793.2	0.000000	0.000000	7.140341	311.482	NaN	0.000000	0.001597	0.001711	28.0834	77.6658	0.001785	43510.8	3.685168	173.466	307.52	1.127056	0.081842	0.081637	311.482	43510.8	0.076472	0.191409	1627.31	90863.3
749	2.000000	1.129350	7.37239e+06	-39639.1	1005.82	-29793.2	0.000000	0.000000	7.143072	327.081	NaN	0.000000	0.001586	0.001728	28.0838	79.5112	0.001846	43069.7	3.873883	173.658	329.456	1.128925	0.083931	0.083507	327.081	43069.7	0.078236	0.199194	1642.02	88167.1
749	2.000000	1.131227	7.37239e+06	-39639.1	1005.82	-29793.2	0.000000	0.000000	7.145650	344.14	NaN	0.000000	0.001674	0.001738	28.0836	81.1873	0.001785	45483	6.608741	170.48	339.739	1.130909	0.085809	0.085490	344.14	45483	0.080134	0.207737	1656.62	91172.9
749	2.000000	1.133327	7.37239e+06	-39639.1	1005.82	-29793.2	0.000000	0.000000	7.148204	355.173	NaN	0.000000	0.001651	0.001741	28.0835	81.3532	0.001768	46007.6	3.654824	173.393	355.839	1.132956	0.087909	0.087537	355.173	46007.6	0.082119	0.216851	1637.87	90265.7
749	2.000000	1.135220	7.37239e+06	-39639.1	1005.82	-29793.2	0.000000	0.000000	7.150693	369.695	NaN	0.000000	0.001616	0.001751	28.0836	83.7435	0.001686	49659.9	4.404919	171.999	365.436	1.134987	0.089802	0.089569	369.695	49659.9	0.084218	0.226686	1630.87	95294.3
749	2.000000	1.137310	7.37239e+06	-39639.1	1005.82	-29793.2	0.000000	0.000000	7.153420	385.181	NaN	0.000000	0.001636	0.001775	28.0835	86.2178	0.001851	46576.9	4.542211	173.038	382.171	1.136865	0.091892	0.091447	385.181	46576.9	0.085689	0.233701	1648.18	88026.5
749	2.000000	1.139331	7.37239e+06	-39639.1	1005.82	-29793.2	0.000000	0.000000	7.155675	390.896	NaN	0.000000	0.001631	0.001713	28.0837	87.6919	0.001650	53148.1	2.776308	172.424	390.694	1.139105	0.093912	0.093686	390.896	53148.1	0.088396	0.246868	1583.42	97730.1
749	2.000000	1.141198	7.37239e+06	-39639.1	1005.82	-29793.2	0.000000	0.000000	7.158319	409.775	NaN	0.000000	0.001655	0.001703	28.0835	91.0098	0.001800	50573.2	3.493369	172.684	405.783	1.141013	0.095780	0.095594	409.775	50573.2	0.089703	0.253346	1617.45	91798.7
749	2.000000	1.143268	7.37239e+06	-39639.1	1005.82	-29793.2	0.000000	0.000000	7.161050	425.855	NaN	0.000000	0.001650	0.001744	28.0833	91.8836	0.001767	52004.4	3.668135	172.209	425.015	1.143021	0.097850	0.097603	425.855	52004.4	0.091708	0.263438	1616.53	92570.8
749	2.000000	1.145188	7.37239e+06	-39639.1	1005.82	-29793.2	0.000000	0.000000	7.163138	429.952	NaN	0.000000	0.001618	0.001738	28.0831	93.9466	0.001747	53764.4	4.637418	170.569	422.952	1.144943	0.099770	0.099524	429.952	53764.4	0.093772	0.274018	1569.07	93838
749	2.000000	1.147304	7.37239e+06	-39639.1	1005.82	-29793.2	0.000000	0.000000	7.165963	447.233	NaN	0.000000	0.001649	0.001712	28.0833	96.3316	0.001899	50736	3.519485	172.602	444.177	1.147080	0.101885	0.101661	447.233	50736	0.095274	0.281839	1586.84	87315
749	2.000000	1.149441	7.37239e+06	-39639.1	1005.82	-29793.2	0.000000	0.000000	7.168779	463.726	NaN	0.000000	0.001600	0.001751	28.0836	98.0403	0.001719	57048.5	6.375174	169.545	476.016	1.149036	0.104023	0.103618	463.726	57048.5	0.097926	0.295902	1567.16	95817.2
749	2.000000	1.151279	7.37239e+06	-39639.1	1005.82	-29793.2	0.000000	0.000000	7.171480	484.734	NaN	0.000000	0.001577	0.001723	28.083	100.543	0.001735	57958.7	4.207244	171.409	483.191	1.150929	0.105861	0.105510	484.734	57958.7	0.099588	0.304876	1589.94	95902.7
749	2.000000	1.152735	7.37239e+06	-39639.1	1005.82	-29793.2	0.000000	0.000000	7.173564	500.025	NaN	0.000000	0.001625	0.001722	28.0832	101.191	0.001743	58068.2	6.920580	-11.3016	495.384	1.152395	0.107317	0.106977	500.025	58068.2	0.100858	0.311819	1603.57	95007.9