File: remote_trans/data/nanoindenter/0828-1/data/Data_2025-08-06,11h17m57s/2025-07-22_16-23-58_1_1002.txt
2025-07-22, 16:23:58, 1
Index	Phase	Displacement	Time	Pos X	Pos Y	Pos Z	Rot A	Rot B	Piezo Z	Force A	Force B	Gripper	Voltage A	Voltage B	Temperature	Amplitude force	Amplitude pos	Stiffness	Phase shift	Phase excitation	Force A raw	Displacement raw	HMax	HMax raw	Real Force	Real Stiffness	Contact Depth	Area	Hardness	Reduced Mod.
[#]	[#]	[um]	[s]	[um]	[um]	[um]	[m°]	[m°]	[um]	[uN]	[uN]	[V]	[V]	[V]	[°C]	[uN]	[um]	[N/m]	[°]	[°]	[uN]	[um]	[um]	[um]	[uN]	[N/m]	[um]	[um^2]	[MPa]	[MPa]
1002	1.000000	0.002374	7.37485e+06	-50239.1	1055.82	-29756.3	0.000000	0.000000	6.002804	0.075918	NaN	0.000000	0.001579	0.001719	28.0819	0.057171	0.000979	58.4251	-60.1171	-166.959	0.061905	0.001132	-1.057164	-1.058406	0.075918	58.4251	-1.058138	-1.373414E+14	-5.527656E-16	NaN
1002	1.000000	0.010341	7.37485e+06	-50239.1	1055.82	-29756.3	0.000000	0.000000	6.010770	0.068753	NaN	0.000000	0.001576	0.001707	28.0821	0.092976	0.000982	94.6672	108.753	-163.727	0.097361	0.008980	-1.049197	-1.050558	0.068753	94.6672	-1.049741	-1.059101E+14	-6.491645E-16	NaN
1002	1.000000	0.018355	7.37485e+06	-50239.1	1055.82	-29756.3	0.000000	0.000000	6.018783	0.038801	NaN	0.000000	0.001583	0.001667	28.0817	0.042721	0.001666	25.6354	-55.3601	-168.277	0.078644	0.017003	-1.041183	-1.042535	0.038801	25.6354	-1.042318	-8.416573E+13	-4.610110E-16	NaN
1002	1.000000	0.026367	7.37485e+06	-50239.1	1055.82	-29756.3	0.000000	0.000000	6.026794	0.021194	NaN	0.000000	0.001583	0.001700	28.0822	0.042227	0.001768	23.8845	-29.5455	-167.15	0.055659	0.025037	-1.033171	-1.034501	0.021194	23.8845	-1.033837	-6.472718E+13	-3.274379E-16	NaN
1002	1.000000	0.034333	7.37485e+06	-50239.1	1055.82	-29756.3	0.000000	0.000000	6.034761	0.047507	NaN	0.000000	0.001611	0.001681	28.0822	0.046536	0.001932	24.0846	-51.6346	-166.277	0.080264	0.033014	-1.025205	-1.026524	0.047507	24.0846	-1.026684	-5.186532E+13	-9.159679E-16	NaN
1002	1.000000	0.042309	7.37485e+06	-50239.1	1055.82	-29756.3	0.000000	0.000000	6.042736	0.008136	NaN	0.000000	0.001604	0.001702	28.082	0.039154	0.001938	20.2004	-45.6554	-169.486	-0.004812	0.041056	-1.017229	-1.018482	0.008136	20.2004	-1.017531	-3.905994E+13	-2.082907E-16	NaN
1002	1.000000	0.050312	7.37485e+06	-50239.1	1055.82	-29756.3	0.000000	0.000000	6.050743	0.110830	NaN	0.000000	0.001615	0.001681	28.0825	0.045946	0.002096	21.9199	4.109342	-162.918	0.156029	0.049019	-1.009226	-1.010519	0.110830	21.9199	-1.013018	-3.396237E+13	-3.263307E-15	NaN
1002	1.000000	0.058294	7.37485e+06	-50239.1	1055.82	-29756.3	0.000000	0.000000	6.058724	0.099995	NaN	0.000000	0.001567	0.001673	28.0821	0.171297	0.002136	80.2009	99.6459	-165.814	0.111918	0.057031	-1.001244	-1.002507	0.099995	80.2009	-1.002179	-2.427208E+13	-4.119745E-15	NaN
1002	1.000000	0.066305	7.37485e+06	-50239.1	1055.82	-29756.3	0.000000	0.000000	6.066732	0.014034	NaN	0.000000	0.001602	0.001681	28.0823	0.082605	0.002040	40.4852	172.911	-164.243	-0.050898	0.065019	-0.993233	-0.994519	0.014034	40.4852	-0.993493	-1.854158E+13	-7.569180E-16	NaN
1002	1.000000	0.074307	7.37485e+06	-50239.1	1055.82	-29756.3	0.000000	0.000000	6.074735	0.045685	NaN	0.000000	0.001575	0.001622	28.082	0.072660	0.001952	37.2173	178.85	-162.175	0.020600	0.073019	-0.985231	-0.986519	0.045685	37.2173	-0.986152	-1.476669E+13	-3.093775E-15	NaN
1002	1.000000	0.082330	7.37485e+06	-50239.1	1055.82	-29756.3	0.000000	0.000000	6.082759	0.069805	NaN	0.000000	0.001577	0.001678	28.0822	0.094927	0.002069	45.8752	-17.7312	-163.921	0.053504	0.081023	-0.977208	-0.978515	0.069805	45.8752	-0.978349	-1.159222E+13	-6.021717E-15	NaN
1002	1.000000	0.090315	7.37485e+06	-50239.1	1055.82	-29756.3	0.000000	0.000000	6.090741	0.013276	NaN	0.000000	0.001589	0.001640	28.0825	0.143637	0.001994	72.0372	119.481	-167.033	0.017368	0.089074	-0.969223	-0.970464	0.013276	72.0372	-0.969362	-8.771180E+12	-1.513541E-15	NaN
1002	1.000000	0.098355	7.37485e+06	-50239.1	1055.82	-29756.3	0.000000	0.000000	6.098784	0.076958	NaN	0.000000	0.001556	0.001672	28.0823	0.107035	0.002072	51.6618	-97.9103	-162.485	0.075654	0.097042	-0.961183	-0.962496	0.076958	51.6618	-0.962300	-7.045022E+12	-1.092369E-14	NaN
1002	1.000000	0.106317	7.37485e+06	-50239.1	1055.82	-29756.3	0.000000	0.000000	6.106745	0.035217	NaN	0.000000	0.001562	0.001676	28.0826	0.098978	0.001885	52.5108	-11.6721	-166.669	-0.015147	0.105043	-0.953221	-0.954495	0.035217	52.5108	-0.953724	-5.398124E+12	-6.523925E-15	NaN
1002	1.000000	0.114355	7.37485e+06	-50239.1	1055.82	-29756.3	0.000000	0.000000	6.114781	-0.001898	NaN	0.000000	0.001572	0.001682	28.0821	0.067840	0.002052	33.0542	107.392	-164.193	-0.046125	0.113033	-0.945183	-0.946505	-0.001898	33.0542	-0.945140	-4.134990E+12	4.589473E-16	NaN
1002	1.000000	0.122348	7.37485e+06	-50239.1	1055.82	-29756.3	0.000000	0.000000	6.122772	-0.058688	NaN	0.000000	0.001567	0.001673	28.0835	0.057949	0.001979	29.2841	-150.865	-163.605	-0.081320	0.121026	-0.937190	-0.938512	-0.058688	29.2841	-0.935687	-3.082795E+12	1.903718E-14	NaN
1002	1.000000	0.130354	7.37485e+06	-50239.1	1055.82	-29756.3	0.000000	0.000000	6.130780	-0.010632	NaN	0.000000	0.001592	0.001633	28.0834	0.099947	0.002068	48.3409	115.807	-166.497	-0.014652	0.129058	-0.929184	-0.930480	-0.010632	48.3409	-0.929019	-2.505827E+12	4.242837E-15	NaN
1002	1.000000	0.138353	7.37485e+06	-50239.1	1055.82	-29756.3	0.000000	0.000000	6.138781	0.045050	NaN	0.000000	0.001591	0.001683	28.0834	0.066669	0.002019	33.0168	106.898	-168.633	0.114843	0.137030	-0.921185	-0.922508	0.045050	33.0168	-0.922208	-2.027756E+12	-2.221687E-14	NaN
1002	1.000000	0.146328	7.37485e+06	-50239.1	1055.82	-29756.3	0.000000	0.000000	6.146755	0.036543	NaN	0.000000	0.001548	0.001681	28.0836	0.095597	0.001985	48.1493	-43.0269	-164.689	0.042472	0.145045	-0.913210	-0.914493	0.036543	48.1493	-0.913780	-1.560311E+12	-2.342049E-14	NaN
1002	1.000000	0.154337	7.37485e+06	-50239.1	1055.82	-29756.3	0.000000	0.000000	6.154764	0.025190	NaN	0.000000	0.001573	0.001702	28.0834	0.142183	0.001984	71.6554	-45.9695	-165.39	-0.028683	0.152993	-0.905201	-0.906545	0.025190	71.6554	-0.905464	-1.204745E+12	-2.090892E-14	NaN
1002	1.000000	0.162394	7.37485e+06	-50239.1	1055.82	-29756.3	0.000000	0.000000	6.162823	0.079101	NaN	0.000000	0.001538	0.001675	28.0838	0.041636	0.002067	20.1406	-55.4892	-164.931	0.085617	0.161012	-0.897144	-0.898526	0.079101	20.1406	-0.900090	-1.019253E+12	-7.760664E-14	NaN
1002	1.000000	0.170391	7.37485e+06	-50239.1	1055.82	-29756.3	0.000000	0.000000	6.170818	0.027556	NaN	0.000000	0.001594	0.001705	28.0835	0.035779	0.002073	17.2603	-58.8676	-166.509	0.008700	0.169048	-0.889147	-0.890490	0.027556	17.2603	-0.890344	-7.526081E+11	-3.661407E-14	NaN
1002	1.000000	0.178346	7.37485e+06	-50239.1	1055.82	-29756.3	0.000000	0.000000	6.178775	0.086314	NaN	0.000000	0.001572	0.001704	28.0834	0.063562	0.002060	30.8536	-78.0945	-165.735	-0.003407	0.177027	-0.881192	-0.882511	0.086314	30.8536	-0.883291	-6.042338E+11	-1.428490E-13	NaN
1002	1.000000	0.186390	7.37485e+06	-50239.1	1055.82	-29756.3	0.000000	0.000000	6.186819	0.056835	NaN	0.000000	0.001583	0.001675	28.0835	0.080767	0.001946	41.51	-87.3682	-168.349	0.113585	0.185066	-0.873148	-0.874472	0.056835	41.51	-0.874175	-4.549021E+11	-1.249390E-13	NaN
1002	1.000000	0.194402	7.37485e+06	-50239.1	1055.82	-29756.3	0.000000	0.000000	6.194831	0.067999	NaN	0.000000	0.001551	0.001663	28.0845	0.070927	0.001968	36.0484	-122.92	-167.122	0.056816	0.193082	-0.865136	-0.866456	0.067999	36.0484	-0.866551	-3.587328E+11	-1.895547E-13	NaN
1002	1.000000	0.202405	7.37485e+06	-50239.1	1055.82	-29756.3	0.000000	0.000000	6.202831	-0.016546	NaN	0.000000	0.001532	0.001691	28.0837	0.062219	0.002018	30.8389	-115.312	-166.751	0.023345	0.201074	-0.857133	-0.858464	-0.016546	30.8389	-0.856730	-2.641581E+11	6.263509E-14	NaN
1002	1.000000	0.210405	7.37485e+06	-50239.1	1055.82	-29756.3	0.000000	0.000000	6.210833	0.045662	NaN	0.000000	0.001544	0.001723	28.0834	0.042741	0.002022	21.1396	-91.4539	-163.354	0.040923	0.209030	-0.849133	-0.850508	0.045662	21.1396	-0.850753	-2.192488E+11	-2.082654E-13	NaN
1002	1.000000	0.218411	7.37485e+06	-50239.1	1055.82	-29756.3	0.000000	0.000000	6.218841	0.082558	NaN	0.000000	0.001509	0.001692	28.0836	0.093807	0.002082	45.064	96.6213	-165.736	0.009606	0.217067	-0.841127	-0.842471	0.082558	45.064	-0.842501	-1.695012E+11	-4.870660E-13	NaN
1002	1.000000	0.226349	7.37485e+06	-50239.1	1055.82	-29756.3	0.000000	0.000000	6.226774	-0.033746	NaN	0.000000	0.001583	0.001673	28.0833	0.103886	0.001909	54.4166	105.401	-166.247	0.024518	0.225062	-0.833189	-0.834476	-0.033746	54.4166	-0.832724	-1.249409E+11	2.700948E-13	NaN
1002	1.000000	0.234379	7.37485e+06	-50239.1	1055.82	-29756.3	0.000000	0.000000	6.234808	0.067215	NaN	0.000000	0.001570	0.001703	28.0835	0.014974	0.001986	7.539929	-40.7521	-164.643	0.082154	0.233103	-0.825159	-0.826435	0.067215	7.539929	-0.831845	-1.215582E+11	-5.529420E-13	NaN
1002	1.000000	0.242412	7.37485e+06	-50239.1	1055.82	-29756.3	0.000000	0.000000	6.242837	-0.044556	NaN	0.000000	0.001559	0.001794	28.0836	0.044527	0.001973	22.5648	172.63	-163.539	0.010340	0.241075	-0.817126	-0.818463	-0.044556	22.5648	-0.815645	-7.330662E+10	6.078072E-13	NaN
1002	1.000000	0.250424	7.37485e+06	-50239.1	1055.82	-29756.3	0.000000	0.000000	6.250851	0.020832	NaN	0.000000	0.001551	0.001756	28.0837	0.035995	0.001887	19.0752	11.1201	-163.749	-0.002944	0.249125	-0.809114	-0.810413	0.020832	19.0752	-0.809933	-6.132836E+10	-3.396843E-13	NaN
1002	1.000000	0.258395	7.37485e+06	-50239.1	1055.82	-29756.3	0.000000	0.000000	6.258820	-0.010907	NaN	0.000000	0.001540	0.001705	28.0823	0.116584	0.001912	60.9672	-157.052	-168.079	-0.034637	0.257156	-0.801143	-0.802382	-0.010907	60.9672	-0.801009	-4.640468E+10	2.350462E-13	NaN
1002	1.000000	0.266443	7.37485e+06	-50239.1	1055.82	-29756.3	0.000000	0.000000	6.266868	-0.037320	NaN	0.000000	0.001527	0.001630	28.0824	0.068730	0.002125	32.3414	-96.2097	-166.79	0.041533	0.265125	-0.793095	-0.794413	-0.037320	32.3414	-0.792229	-3.526616E+10	1.058233E-12	NaN
1002	1.000000	0.274389	7.37485e+06	-50239.1	1055.82	-29756.3	0.000000	0.000000	6.274816	0.038006	NaN	0.000000	0.001556	0.001681	28.0821	0.088719	0.002150	41.2628	-129.776	-165.909	0.017852	0.273084	-0.785149	-0.786454	0.038006	41.2628	-0.785840	-2.887884E+10	-1.316048E-12	NaN
1002	1.000000	0.282386	7.37485e+06	-50239.1	1055.82	-29756.3	0.000000	0.000000	6.282813	0.002668	NaN	0.000000	0.001556	0.001669	28.0822	0.111859	0.002151	52.0032	21.5728	-167.279	-0.035820	0.281149	-0.777152	-0.778389	0.002668	52.0032	-0.777190	-2.203166E+10	-1.210917E-13	NaN
1002	1.000000	0.290445	7.37485e+06	-50239.1	1055.82	-29756.3	0.000000	0.000000	6.290873	0.061626	NaN	0.000000	0.001555	0.001693	28.0823	0.107004	0.002113	50.6465	96.2434	-168.184	0.068974	0.289066	-0.769093	-0.770472	0.061626	50.6465	-0.770006	-1.759483E+10	-3.502516E-12	NaN
1002	1.000000	0.298442	7.37485e+06	-50239.1	1055.82	-29756.3	0.000000	0.000000	6.298870	0.041458	NaN	0.000000	0.001530	0.001701	28.0823	0.052477	0.002028	25.8739	-73.5197	-165.851	0.043256	0.297083	-0.761096	-0.762455	0.041458	25.8739	-0.762298	-1.382167E+10	-2.999468E-12	NaN
1002	1.000000	0.306411	7.37485e+06	-50239.1	1055.82	-29756.3	0.000000	0.000000	6.306839	0.030365	NaN	0.000000	0.001564	0.001745	28.0823	0.049991	0.001919	26.0483	74.9536	-169.054	-0.007997	0.305133	-0.753127	-0.754405	0.030365	26.0483	-0.754001	-1.065805E+10	-2.849026E-12	NaN
1002	1.000000	0.314424	7.37485e+06	-50239.1	1055.82	-29756.3	0.000000	0.000000	6.314851	0.024539	NaN	0.000000	0.001523	0.001754	28.0822	0.041711	0.001941	21.4931	18.4159	-168.257	0.072251	0.313035	-0.745114	-0.746503	0.024539	21.4931	-0.745970	-8.286280E+9	-2.961451E-12	NaN
1002	1.000000	0.322423	7.37485e+06	-50239.1	1055.82	-29756.3	0.000000	0.000000	6.322854	0.108450	NaN	0.000000	0.001559	0.001722	28.082	0.027796	0.001839	15.116	-118.883	-162.933	0.116821	0.321155	-0.737115	-0.738383	0.108450	15.116	-0.742496	-7.431056E+9	-1.459420E-11	NaN
1002	1.000000	0.330429	7.37485e+06	-50239.1	1055.82	-29756.3	0.000000	0.000000	6.330856	0.029414	NaN	0.000000	0.001550	0.001739	28.0821	0.107630	0.001922	56.0118	-149.959	-164	0.056121	0.329148	-0.729109	-0.730390	0.029414	56.0118	-0.729503	-4.943507E+9	-5.950041E-12	NaN
1002	1.000000	0.338457	7.37485e+06	-50239.1	1055.82	-29756.3	0.000000	0.000000	6.338884	0.010850	NaN	0.000000	0.001560	0.001709	28.0823	0.078437	0.001972	39.7672	45.8251	-167.561	0.021322	0.337155	-0.721081	-0.722383	0.010850	39.7672	-0.721285	-3.819470E+9	-2.840740E-12	NaN
1002	1.000000	0.346430	7.37485e+06	-50239.1	1055.82	-29756.3	0.000000	0.000000	6.346856	0.009398	NaN	0.000000	0.001571	0.001729	28.0822	0.086194	0.001989	43.3459	43.0792	-165.817	0.024784	0.345166	-0.713108	-0.714372	0.009398	43.3459	-0.713271	-2.969474E+9	-3.164905E-12	NaN
1002	1.000000	0.354442	7.37485e+06	-50239.1	1055.82	-29756.3	0.000000	0.000000	6.354869	0.030002	NaN	0.000000	0.001548	0.001746	28.0825	0.066484	0.002099	31.6755	-101.33	-162.227	-0.026975	0.353193	-0.705096	-0.706345	0.030002	31.6755	-0.705807	-2.348629E+9	-1.277438E-11	NaN
1002	1.000000	0.362447	7.37485e+06	-50239.1	1055.82	-29756.3	0.000000	0.000000	6.362872	-0.013054	NaN	0.000000	0.001552	0.001737	28.0823	0.034283	0.001961	17.4791	142.798	-168.415	-0.059095	0.361151	-0.697091	-0.698387	-0.013054	17.4791	-0.696531	-1.754511E+9	7.440025E-12	NaN
1002	1.000000	0.370437	7.37485e+06	-50239.1	1055.82	-29756.3	0.000000	0.000000	6.370865	0.033684	NaN	0.000000	0.001528	0.001742	28.082	0.049291	0.001874	26.2993	40.5993	-162.973	0.039170	0.369086	-0.689101	-0.690452	0.033684	26.2993	-0.690061	-1.431392E+9	-2.353269E-11	NaN
1002	1.000000	0.378460	7.37485e+06	-50239.1	1055.82	-29756.3	0.000000	0.000000	6.378887	0.010956	NaN	0.000000	0.001559	0.001733	28.082	0.091775	0.002151	42.6743	-86.7341	-163.91	-0.067307	0.377113	-0.681078	-0.682425	0.010956	42.6743	-0.681270	-1.085362E+9	-1.009461E-11	NaN
1002	1.000000	0.386463	7.37485e+06	-50239.1	1055.82	-29756.3	0.000000	0.000000	6.386891	0.040061	NaN	0.000000	0.001555	0.001740	28.0819	0.032662	0.001965	16.62	-105.631	-164.191	0.104609	0.385137	-0.673075	-0.674401	0.040061	16.62	-0.674883	-8.875827E+8	-4.513453E-11	NaN
1002	1.000000	0.394465	7.37485e+06	-50239.1	1055.82	-29756.3	0.000000	0.000000	6.394891	-0.000793	NaN	0.000000	0.001529	0.001752	28.0833	0.158590	0.001908	83.1382	-26.5006	-164.477	0.034473	0.393162	-0.665073	-0.666376	-0.000793	83.1382	-0.665066	-6.513910E+8	1.217815E-12	NaN
1002	1.000000	0.402460	7.37485e+06	-50239.1	1055.82	-29756.3	0.000000	0.000000	6.402886	-0.001358	NaN	0.000000	0.001530	0.001696	28.0832	0.041451	0.001926	21.5164	155.983	-163.5	-0.039960	0.401120	-0.657078	-0.658418	-0.001358	21.5164	-0.657031	-5.055854E+8	2.686891E-12	NaN
1002	1.000000	0.410483	7.37485e+06	-50239.1	1055.82	-29756.3	0.000000	0.000000	6.410910	0.021488	NaN	0.000000	0.001563	0.001694	28.0832	0.106125	0.001946	54.5376	-156.517	-165.442	0.095572	0.409176	-0.649055	-0.650362	0.021488	54.5376	-0.649350	-3.967615E+8	-5.415739E-11	NaN
1002	1.000000	0.418488	7.37485e+06	-50239.1	1055.82	-29756.3	0.000000	0.000000	6.418915	0.028780	NaN	0.000000	0.001577	0.001696	28.0829	0.078229	0.001938	40.3707	167.695	-164.896	0.045246	0.417141	-0.641050	-0.642397	0.028780	40.3707	-0.641585	-3.104797E+8	-9.269649E-11	NaN
1002	1.000000	0.426464	7.37485e+06	-50239.1	1055.82	-29756.3	0.000000	0.000000	6.426890	-0.005520	NaN	0.000000	0.001573	0.001691	28.0829	0.030559	0.001855	16.4709	-12.1325	-162.869	-0.078676	0.425157	-0.633074	-0.634381	-0.005520	16.4709	-0.632822	-2.353844E+8	2.345073E-11	NaN
1002	1.000000	0.434491	7.37485e+06	-50239.1	1055.82	-29756.3	0.000000	0.000000	6.434917	-0.006819	NaN	0.000000	0.001539	0.001707	28.083	0.048309	0.002010	24.0306	-36.5963	-164.644	0.043816	0.433136	-0.625047	-0.626402	-0.006819	24.0306	-0.624835	-1.828399E+8	3.729729E-11	NaN
1002	1.000000	0.442485	7.37485e+06	-50239.1	1055.82	-29756.3	0.000000	0.000000	6.442909	-0.051140	NaN	0.000000	0.001551	0.001700	28.0831	0.060636	0.001988	30.4957	-96.9872	-165.191	-0.044066	0.441172	-0.617053	-0.618366	-0.051140	30.4957	-0.615795	-1.373480E+8	3.723412E-10	NaN
1002	1.000000	0.450488	7.37485e+06	-50239.1	1055.82	-29756.3	0.000000	0.000000	6.450917	0.054087	NaN	0.000000	0.001585	0.001698	28.0831	0.069494	0.001993	34.8741	-160.808	-162.776	0.078390	0.449174	-0.609050	-0.610364	0.054087	34.8741	-0.610213	-1.150917E+8	-4.699481E-10	NaN
1002	1.000000	0.458485	7.37485e+06	-50239.1	1055.82	-29756.3	0.000000	0.000000	6.458911	0.000996	NaN	0.000000	0.001566	0.001735	28.083	0.051606	0.002042	25.2781	157.995	-168.841	0.000787	0.457250	-0.601053	-0.602288	0.000996	25.2781	-0.601083	-8.617280E+7	-1.155566E-11	NaN
1002	1.000000	0.466497	7.37485e+06	-50239.1	1055.82	-29756.3	0.000000	0.000000	6.466926	0.063542	NaN	0.000000	0.001554	0.001721	28.0832	0.054973	0.001914	28.7189	-129.868	-167.04	-0.025492	0.465163	-0.593041	-0.594375	0.063542	28.7189	-0.594701	-7.038108E+7	-9.028312E-10	NaN
1002	1.000000	0.474487	7.37485e+06	-50239.1	1055.82	-29756.3	0.000000	0.000000	6.474915	0.042459	NaN	0.000000	0.001520	0.001695	28.0831	0.063050	0.002079	30.3243	55.2766	-164.697	0.110698	0.473181	-0.585051	-0.586357	0.042459	30.3243	-0.586101	-5.356790E+7	-7.926213E-10	NaN
1002	1.000000	0.482492	7.37485e+06	-50239.1	1055.82	-29756.3	0.000000	0.000000	6.482919	0.028014	NaN	0.000000	0.001553	0.001702	28.083	0.110068	0.001982	55.5408	-165.342	-164.275	0.022993	0.481219	-0.577046	-0.578319	0.028014	55.5408	-0.577425	-4.066096E+7	-6.889670E-10	NaN
1002	1.000000	0.490542	7.37485e+06	-50239.1	1055.82	-29756.3	0.000000	0.000000	6.490967	-0.024713	NaN	0.000000	0.001583	0.001720	28.083	0.018053	0.002036	8.866042	2.353978	-164.728	0.025585	0.489187	-0.568996	-0.570351	-0.024713	8.866042	-0.566906	-2.909870E+7	8.492677E-10	NaN
1002	1.000000	0.498509	7.37485e+06	-50239.1	1055.82	-29756.3	0.000000	0.000000	6.498937	0.046611	NaN	0.000000	0.001539	0.001723	28.0832	0.047937	0.002011	23.8431	-48.7831	-166.646	0.124021	0.497243	-0.561029	-0.562295	0.046611	23.8431	-0.562495	-2.528637E+7	-1.843310E-9	NaN
1002	1.000000	0.506498	7.37485e+06	-50239.1	1055.82	-29756.3	0.000000	0.000000	6.506926	0.049858	NaN	0.000000	0.001553	0.001731	28.0831	0.048865	0.002048	23.8632	163.659	-161.355	0.109685	0.505194	-0.553040	-0.554344	0.049858	23.8632	-0.554607	-1.966745E+7	-2.535036E-9	NaN
1002	1.000000	0.514526	7.37485e+06	-50239.1	1055.82	-29756.3	0.000000	0.000000	6.514952	-0.004815	NaN	0.000000	0.001544	0.001736	28.0833	0.073411	0.001898	38.67	177.542	-164.924	0.051759	0.513180	-0.545012	-0.546358	-0.004815	38.67	-0.544919	-1.443961E+7	3.334437E-10	NaN
1002	1.000000	0.522516	7.37485e+06	-50239.1	1055.82	-29756.3	0.000000	0.000000	6.522944	0.032606	NaN	0.000000	0.001586	0.001694	28.0835	0.032710	0.002222	14.7231	-136.281	-162.717	-0.005313	0.521203	-0.537022	-0.538335	0.032606	14.7231	-0.538682	-1.183268E+7	-2.755555E-9	NaN
1002	1.000000	0.530515	7.37485e+06	-50239.1	1055.82	-29756.3	0.000000	0.000000	6.530941	-0.011866	NaN	0.000000	0.001590	0.001680	28.0819	0.046523	0.002016	23.0717	56.8154	-162.956	0.009375	0.529194	-0.529023	-0.530344	-0.011866	23.0717	-0.528637	-8.58316e+06	1.382446E-9	NaN
1002	1.000000	0.538538	7.37485e+06	-50239.1	1055.82	-29756.3	0.000000	0.000000	6.538963	-0.019357	NaN	0.000000	0.001572	0.001715	28.082	0.062729	0.002023	31.008	-77.7939	-166.417	0.021231	0.537180	-0.521000	-0.522358	-0.019357	31.008	-0.520532	-6.62209e+06	2.923076E-9	NaN
1002	1.000000	0.546541	7.37485e+06	-50239.1	1055.82	-29756.3	0.000000	0.000000	6.546971	0.069898	NaN	0.000000	0.001594	0.001693	28.0819	0.136246	0.002007	67.8691	-145.066	-163.858	0.027111	0.545169	-0.512997	-0.514369	0.069898	67.8691	-0.513769	-5.33209e+06	-1.310895E-8	NaN
1002	1.000000	0.554506	7.37485e+06	-50239.1	1055.82	-29756.3	0.000000	0.000000	6.554933	0.026032	NaN	0.000000	0.001562	0.001727	28.0821	0.063337	0.002080	30.4506	-56.3958	-169.522	0.081753	0.553190	-0.505032	-0.506348	0.026032	30.4506	-0.505673	-4.11272e+06	-6.329558E-9	NaN
1002	1.000000	0.562537	7.37485e+06	-50239.1	1055.82	-29756.3	0.000000	0.000000	6.562963	-0.005664	NaN	0.000000	0.001556	0.001732	28.0824	0.006753	0.002101	3.214695	-132.02	-168.125	-0.073153	0.561182	-0.497001	-0.498356	-0.005664	3.214695	-0.495679	-2.98345e+06	1.898570E-9	NaN
1002	1.000000	0.570516	7.37485e+06	-50239.1	1055.82	-29756.3	0.000000	0.000000	6.570943	0.032142	NaN	0.000000	0.001584	0.001740	28.082	0.021121	0.001924	10.9787	-95.4937	-167.909	-0.028017	0.569166	-0.489022	-0.490372	0.032142	10.9787	-0.491218	-2.58473e+06	-1.243522E-8	NaN
1002	1.000000	0.578545	7.37485e+06	-50239.1	1055.82	-29756.3	0.000000	0.000000	6.578969	-0.049359	NaN	0.000000	0.001581	0.001732	28.0822	0.037495	0.002008	18.6722	-70.0544	-163.156	-0.059005	0.577198	-0.480993	-0.482340	-0.049359	18.6722	-0.479011	-1.74452e+06	2.829387E-8	NaN
1002	1.000000	0.586511	7.37485e+06	-50239.1	1055.82	-29756.3	0.000000	0.000000	6.586938	0.008369	NaN	0.000000	0.001578	0.001700	28.0817	0.029323	0.001880	15.5943	69.4333	-164.78	0.037075	0.585239	-0.473027	-0.474299	0.008369	15.5943	-0.473429	-1.45709e+06	-5.743347E-9	NaN
1002	1.000000	0.594520	7.37485e+06	-50239.1	1055.82	-29756.3	0.000000	0.000000	6.594944	-0.047208	NaN	0.000000	0.001645	0.001700	28.0824	0.033162	0.001925	17.2241	-150.869	-164.754	0.024953	0.593215	-0.465018	-0.466323	-0.047208	17.2241	-0.462963	-1.03906e+06	4.543372E-8	NaN
1002	1.000000	0.602543	7.37485e+06	-50239.1	1055.82	-29756.3	0.000000	0.000000	6.602971	0.033339	NaN	0.000000	0.001564	0.001697	28.0821	0.052325	0.001894	27.6254	57.2165	-160.098	0.038906	0.601300	-0.456995	-0.458238	0.033339	27.6254	-0.457900	-882058	-3.779712E-8	NaN
1002	1.000000	0.610537	7.37485e+06	-50239.1	1055.82	-29756.3	0.000000	0.000000	6.610965	0.038589	NaN	0.000000	0.001591	0.001702	28.082	0.088798	0.001888	47.042	-57.0544	-165.025	0.044134	0.609308	-0.449001	-0.450230	0.038589	47.042	-0.449616	-674430	-5.721708E-8	NaN
1002	1.000000	0.618567	7.37485e+06	-50239.1	1055.82	-29756.3	0.000000	0.000000	6.618995	0.047336	NaN	0.000000	0.001596	0.001711	28.0825	0.110970	0.002001	55.4564	171.058	-165.336	0.034278	0.617298	-0.440971	-0.442240	0.047336	55.4564	-0.441611	-520115	-9.101024E-8	NaN
1002	1.000000	0.626575	7.37485e+06	-50239.1	1055.82	-29756.3	0.000000	0.000000	6.627002	0.015885	NaN	0.000000	0.001580	0.001683	28.082	0.091336	0.001984	46.025	118.276	-169.305	0.072999	0.625249	-0.432963	-0.434289	0.015885	46.025	-0.433222	-395931	-4.011973E-8	NaN
1002	1.000000	0.634594	7.37485e+06	-50239.1	1055.82	-29756.3	0.000000	0.000000	6.635021	0.015717	NaN	0.000000	0.001572	0.001702	28.0822	0.087580	0.002043	42.8609	174.738	-163.346	0.082637	0.633203	-0.424944	-0.426335	0.015717	42.8609	-0.425219	-305060	-5.152105E-8	NaN
1002	1.000000	0.642578	7.37485e+06	-50239.1	1055.82	-29756.3	0.000000	0.000000	6.643008	0.095827	NaN	0.000000	0.001595	0.001692	28.0821	0.088619	0.002115	41.8974	-72.0124	-166.462	0.037832	0.641279	-0.416960	-0.418259	0.095827	41.8974	-0.418675	-246391	-3.889241E-7	NaN
1002	1.000000	0.650605	7.37485e+06	-50239.1	1055.82	-29756.3	0.000000	0.000000	6.651033	0.050201	NaN	0.000000	0.001601	0.001742	28.082	0.137139	0.001927	71.1687	159.458	-163.386	0.025858	0.649282	-0.408933	-0.410256	0.050201	71.1687	-0.409462	-182284	-2.753980E-7	NaN
1002	1.000000	0.658585	7.37485e+06	-50239.1	1055.82	-29756.3	0.000000	0.000000	6.659012	0.001461	NaN	0.000000	0.001571	0.001695	28.0823	0.044855	0.002039	21.9951	-25.9335	-165.83	-0.057715	0.657319	-0.400953	-0.402219	0.001461	21.9951	-0.401002	-138130	-1.057661E-8	NaN
1002	1.000000	0.666607	7.37485e+06	-50239.1	1055.82	-29756.3	0.000000	0.000000	6.667033	0.009514	NaN	0.000000	0.001562	0.001642	28.0835	0.061858	0.002018	30.6515	-17.2002	-164.284	0.029225	0.665245	-0.392931	-0.394293	0.009514	30.6515	-0.393164	-106760	-8.911899E-8	NaN
1002	1.000000	0.674609	7.37485e+06	-50239.1	1055.82	-29756.3	0.000000	0.000000	6.675036	0.019671	NaN	0.000000	0.001566	0.001656	28.0837	0.050084	0.001953	25.6456	-8.186814	-165.117	-0.022698	0.673262	-0.384929	-0.386276	0.019671	25.6456	-0.385504	-82949.3	-2.371399E-7	NaN
1002	1.000000	0.682598	7.37485e+06	-50239.1	1055.82	-29756.3	0.000000	0.000000	6.683028	0.091585	NaN	0.000000	0.001554	0.001663	28.0836	0.083022	0.002055	40.4058	31.9629	-163.163	0.102209	0.681281	-0.376940	-0.378257	0.091585	40.4058	-0.378639	-66124.1	-1.385053E-6	NaN
1002	1.000000	0.690579	7.37485e+06	-50239.1	1055.82	-29756.3	0.000000	0.000000	6.691006	0.021395	NaN	0.000000	0.001568	0.001686	28.0837	0.111473	0.002055	54.2387	-90.6458	-166.778	0.021372	0.689269	-0.368959	-0.370269	0.021395	54.2387	-0.369255	-48461.2	-4.414882E-7	NaN
1002	1.000000	0.698584	7.37485e+06	-50239.1	1055.82	-29756.3	0.000000	0.000000	6.699012	0.024605	NaN	0.000000	0.001566	0.001665	28.0834	0.042097	0.002000	21.0479	106.545	-163.981	-0.018660	0.697310	-0.360954	-0.362228	0.024605	21.0479	-0.361830	-37869.9	-6.497168E-7	NaN
1002	1.000000	0.706557	7.37485e+06	-50239.1	1055.82	-29756.3	0.000000	0.000000	6.706984	0.005108	NaN	0.000000	0.001578	0.001623	28.0835	0.071798	0.001907	37.6566	-68.0795	-162.935	0.088171	0.705338	-0.352981	-0.354200	0.005108	37.6566	-0.353082	-28295.1	-1.805252E-7	NaN
1002	1.000000	0.714595	7.37485e+06	-50239.1	1055.82	-29756.3	0.000000	0.000000	6.715017	-0.100357	NaN	0.000000	0.001571	0.001651	28.0836	0.035213	0.002026	17.3819	-56.6612	-164.01	-0.111152	0.713342	-0.344943	-0.346196	-0.100357	17.3819	-0.340613	-18641.8	5.383420E-6	NaN
1002	1.000000	0.722618	7.37485e+06	-50239.1	1055.82	-29756.3	0.000000	0.000000	6.723044	0.009106	NaN	0.000000	0.001527	0.001666	28.0835	0.023867	0.001968	12.1251	-116.582	-165.169	0.006161	0.721287	-0.336920	-0.338251	0.009106	12.1251	-0.337484	-16782.4	-5.425698E-7	NaN
1002	1.000000	0.730617	7.37485e+06	-50239.1	1055.82	-29756.3	0.000000	0.000000	6.731040	-0.072142	NaN	0.000000	0.001550	0.001650	28.0841	0.029847	0.001841	16.2124	-64.5535	-163.846	0.033714	0.729267	-0.328921	-0.330271	-0.072142	16.2124	-0.325584	-11238.4	6.419258E-6	NaN
1002	1.000000	0.738620	7.37485e+06	-50239.1	1055.82	-29756.3	0.000000	0.000000	6.739046	-0.016753	NaN	0.000000	0.001557	0.001643	28.0835	0.132346	0.001878	70.4735	49.8139	-162.183	0.017844	0.737286	-0.320918	-0.322252	-0.016753	70.4735	-0.320739	-9539.39	1.756232E-6	NaN
1002	1.000000	0.746635	7.37485e+06	-50239.1	1055.82	-29756.3	0.000000	0.000000	6.747063	0.030040	NaN	0.000000	0.001549	0.001653	28.0835	0.075410	0.001982	38.0447	-83.1386	-163.822	-0.023296	0.745282	-0.312903	-0.314256	0.030040	38.0447	-0.313495	-7459.74	-4.026974E-6	NaN
1002	1.000000	0.754622	7.37485e+06	-50239.1	1055.82	-29756.3	0.000000	0.000000	6.755050	0.033998	NaN	0.000000	0.001523	0.001620	28.0836	0.092129	0.001997	46.1354	-30.7224	-162.919	0.050339	0.753303	-0.304916	-0.306235	0.033998	46.1354	-0.305468	-5674.19	-5.991665E-6	NaN
1002	1.000000	0.762613	7.37485e+06	-50239.1	1055.82	-29756.3	0.000000	0.000000	6.763043	0.077811	NaN	0.000000	0.001587	0.001664	28.0837	0.222029	0.001932	114.904	-110.578	-165.378	0.088921	0.761318	-0.296925	-0.298220	0.077811	114.904	-0.297433	-4309.1	-1.805749E-5	NaN
1002	1.000000	0.770607	7.37485e+06	-50239.1	1055.82	-29756.3	0.000000	0.000000	6.771035	0.030257	NaN	0.000000	0.001560	0.001662	28.0837	0.112583	0.002000	56.2934	88.9895	-167.587	-0.021730	0.769349	-0.288931	-0.290189	0.030257	56.2934	-0.289334	-3260.74	-9.279323E-6	NaN
1002	1.000000	0.778615	7.37485e+06	-50239.1	1055.82	-29756.3	0.000000	0.000000	6.779041	-0.011284	NaN	0.000000	0.001579	0.001660	28.0834	0.072272	0.002110	34.2545	54.4035	-163.626	0.087510	0.777341	-0.280923	-0.282197	-0.011284	34.2545	-0.280676	-2416.4	4.669902E-6	NaN
1002	1.000000	0.786628	7.37485e+06	-50239.1	1055.82	-29756.3	0.000000	0.000000	6.787055	0.029896	NaN	0.000000	0.001566	0.001638	28.0837	0.128839	0.001922	67.0256	-103.018	-164.427	0.041219	0.785300	-0.272910	-0.274238	0.029896	67.0256	-0.273245	-1865.54	-1.602539E-5	NaN
1002	1.000000	0.794634	7.37485e+06	-50239.1	1055.82	-29756.3	0.000000	0.000000	6.795063	0.077604	NaN	0.000000	0.001554	0.001679	28.0834	0.128276	0.002009	63.8635	80.0222	-167.147	0.086388	0.793317	-0.264904	-0.266221	0.077604	63.8635	-0.265816	-1438.25	-5.395715E-5	NaN
1002	1.000000	0.802613	7.37485e+06	-50239.1	1055.82	-29756.3	0.000000	0.000000	6.803039	0.010128	NaN	0.000000	0.001576	0.001625	28.0821	0.043082	0.001813	23.761	136.036	-164.463	-0.003539	0.801287	-0.256925	-0.258251	0.010128	23.761	-0.257245	-1063.27	-9.525607E-6	NaN
1002	1.000000	0.810642	7.37485e+06	-50239.1	1055.82	-29756.3	0.000000	0.000000	6.811067	-0.019427	NaN	0.000000	0.001568	0.001648	28.082	0.011796	0.002068	5.703088	34.1864	-166.675	-0.010830	0.809343	-0.248896	-0.250195	-0.019427	5.703088	-0.246341	-721.573	2.692304E-5	NaN
1002	1.000000	0.818629	7.37485e+06	-50239.1	1055.82	-29756.3	0.000000	0.000000	6.819058	0.060122	NaN	0.000000	0.001585	0.001679	28.0822	0.038694	0.002007	19.2812	164.369	-163.615	0.091296	0.817340	-0.240909	-0.242198	0.060122	19.2812	-0.243248	-645.944	-9.307670E-5	NaN
1002	1.000000	0.826652	7.37485e+06	-50239.1	1055.82	-29756.3	0.000000	0.000000	6.827075	-0.092272	NaN	0.000000	0.001551	0.001699	28.0825	0.043446	0.001858	23.3783	76.4829	-167.897	-0.117804	0.825335	-0.232886	-0.234203	-0.092272	23.3783	-0.229926	-399.341	0.000231	NaN
1002	1.000000	0.834665	7.37485e+06	-50239.1	1055.82	-29756.3	0.000000	0.000000	6.835088	-0.077505	NaN	0.000000	0.001530	0.001663	28.0823	0.103595	0.001993	51.9767	-103.498	-165.549	-0.086690	0.833339	-0.224873	-0.226199	-0.077505	51.9767	-0.223755	-318.816	0.000243	NaN
1002	1.000000	0.842654	7.37486e+06	-50239.1	1055.82	-29756.3	0.000000	0.000000	6.843078	-0.042365	NaN	0.000000	0.001539	0.001649	28.0821	0.036781	0.001967	18.7028	4.774079	-162.509	-0.017171	0.841347	-0.216884	-0.218191	-0.042365	18.7028	-0.215186	-232.541	0.000182	NaN
1002	1.000000	0.850661	7.37486e+06	-50239.1	1055.82	-29756.3	0.000000	0.000000	6.851089	0.043033	NaN	0.000000	0.001647	0.001672	28.0818	0.052125	0.001930	27.0023	-37.1355	-164.543	0.022736	0.849375	-0.208877	-0.210163	0.043033	27.0023	-0.210073	-192.307	-0.000224	NaN
1002	1.000000	0.858661	7.37486e+06	-50239.1	1055.82	-29756.3	0.000000	0.000000	6.859089	0.048197	NaN	0.000000	0.001620	0.001657	28.0823	0.040649	0.001935	21.0103	-146.724	-164.214	0.063841	0.857335	-0.200877	-0.202203	0.048197	21.0103	-0.202597	-145.311	-0.000332	NaN
1002	1.000000	0.866661	7.37486e+06	-50239.1	1055.82	-29756.3	0.000000	0.000000	6.867087	0.003620	NaN	0.000000	0.001633	0.001680	28.0823	0.060351	0.001835	32.8842	-72.8103	-164.317	0.049680	0.865359	-0.192877	-0.194179	0.003620	32.8842	-0.192960	-100.775	-3.592577E-5	NaN
1002	1.000000	0.874644	7.37486e+06	-50239.1	1055.82	-29756.3	0.000000	0.000000	6.875071	0.025554	NaN	0.000000	0.001588	0.001662	28.082	0.077521	0.001908	40.6364	97.4462	-168.881	0.010703	0.873419	-0.184894	-0.186119	0.025554	40.6364	-0.185366	-75.2137	-0.000340	NaN
1002	1.000000	0.882672	7.37486e+06	-50239.1	1055.82	-29756.3	0.000000	0.000000	6.883100	0.031598	NaN	0.000000	0.001624	0.001684	28.0823	0.117453	0.001997	58.8096	94.5401	-166.162	0.013747	0.881359	-0.176866	-0.178179	0.031598	58.8096	-0.177269	-54.8119	-0.000576	NaN
1002	1.000000	0.890637	7.37486e+06	-50239.1	1055.82	-29756.3	0.000000	0.000000	6.891064	0.016088	NaN	0.000000	0.001597	0.001651	28.0824	0.050671	0.001930	26.2511	-44.1029	-165.664	0.079467	0.889377	-0.168901	-0.170161	0.016088	26.2511	-0.169360	-40.0404	-0.000402	NaN
1002	1.000000	0.898684	7.37486e+06	-50239.1	1055.82	-29756.3	0.000000	0.000000	6.899109	-0.021256	NaN	0.000000	0.001630	0.001682	28.0821	0.111333	0.002043	54.5028	152.937	-164.506	0.098446	0.897367	-0.160854	-0.162171	-0.021256	54.5028	-0.160562	-28.0516	0.000758	NaN
1002	1.000000	0.906666	7.37486e+06	-50239.1	1055.82	-29756.3	0.000000	0.000000	6.907093	0.035752	NaN	0.000000	0.001601	0.001667	28.0822	0.138189	0.002045	67.5828	-113.132	-163.967	-0.009484	0.905330	-0.152872	-0.154208	0.035752	67.5828	-0.153269	-20.7666	-0.001722	NaN
1002	1.000000	0.914688	7.37486e+06	-50239.1	1055.82	-29756.3	0.000000	0.000000	6.915116	0.050835	NaN	0.000000	0.001612	0.001658	28.0822	0.071508	0.002071	34.5323	-81.9914	-169.303	0.054008	0.913374	-0.144850	-0.146164	0.050835	34.5323	-0.145954	-15.2683	-0.003329	NaN
1002	1.000000	0.922678	7.37486e+06	-50239.1	1055.82	-29756.3	0.000000	0.000000	6.923105	0.024125	NaN	0.000000	0.001643	0.001675	28.0826	0.057902	0.002046	28.2982	-85.7111	-165.151	0.009523	0.921384	-0.136860	-0.138154	0.024125	28.2982	-0.137500	-10.6124	-0.002273	NaN
1002	1.000000	0.930673	7.37486e+06	-50239.1	1055.82	-29756.3	0.000000	0.000000	6.931101	0.028449	NaN	0.000000	0.001601	0.001659	28.0823	0.123699	0.001909	64.7971	77.2493	-166.092	0.089690	0.929355	-0.128865	-0.130183	0.028449	64.7971	-0.129194	-7.350770	-0.003870	NaN
1002	1.000000	0.938715	7.37486e+06	-50239.1	1055.82	-29756.3	0.000000	0.000000	6.939143	0.036194	NaN	0.000000	0.001646	0.001641	28.0836	0.073999	0.002022	36.5899	-118.792	-164.944	0.003676	0.937379	-0.120823	-0.122159	0.036194	36.5899	-0.121564	-5.194647	-0.006967	NaN
1002	1.000000	0.946684	7.37486e+06	-50239.1	1055.82	-29756.3	0.000000	0.000000	6.947110	-0.021282	NaN	0.000000	0.001558	0.001655	28.0836	0.078326	0.002037	38.4546	112.495	-163.482	-0.007514	0.945362	-0.112854	-0.114176	-0.021282	38.4546	-0.112439	-3.380672	0.006295	NaN
1002	1.000000	0.954704	7.37486e+06	-50239.1	1055.82	-29756.3	0.000000	0.000000	6.955130	-0.007931	NaN	0.000000	0.001556	0.001686	28.0835	0.012823	0.001912	6.706570	-150.624	-162.762	0.026441	0.953310	-0.104834	-0.106228	-0.007931	6.706570	-0.103947	-2.230295	0.003556	NaN
1002	1.000000	0.962699	7.37486e+06	-50239.1	1055.82	-29756.3	0.000000	0.000000	6.963126	0.018628	NaN	0.000000	0.001547	0.001652	28.0837	0.053376	0.002002	26.6625	-165.396	-164.631	-0.008096	0.961339	-0.096839	-0.098199	0.018628	26.6625	-0.097363	-1.595485	-0.011676	NaN
1002	1.000000	0.970696	7.37486e+06	-50239.1	1055.82	-29756.3	0.000000	0.000000	6.971122	0.008340	NaN	0.000000	0.001537	0.001679	28.0838	0.096690	0.001943	49.7688	-20.6743	-163.262	-0.037571	0.969401	-0.088842	-0.090137	0.008340	49.7688	-0.088968	-1.022189	-0.008159	NaN
1002	1.000000	0.978719	7.37486e+06	-50239.1	1055.82	-29756.3	0.000000	0.000000	6.979147	0.028496	NaN	0.000000	0.001512	0.001704	28.084	0.011596	0.002068	5.608550	158.291	-162.544	0.029910	0.977427	-0.080819	-0.082111	0.028496	5.608550	-0.084629	-0.804824	-0.035406	NaN
1002	1.000000	0.986685	7.37486e+06	-50239.1	1055.82	-29756.3	0.000000	0.000000	6.987114	0.072633	NaN	0.000000	0.001528	0.001719	28.0836	0.125883	0.001934	65.0783	20.0013	-164.536	0.041763	0.985376	-0.072853	-0.074162	0.072633	65.0783	-0.073690	-0.427058	-0.170078	NaN
1002	1.000000	0.994719	7.37486e+06	-50239.1	1055.82	-29756.3	0.000000	0.000000	6.995149	0.079000	NaN	0.000000	0.001564	0.001671	28.0836	0.052994	0.001965	26.9655	-88.2334	-162.164	0.041745	0.993411	-0.064819	-0.066127	0.079000	26.9655	-0.067016	-0.283209	-0.278946	NaN
1002	1.000000	1.002711	7.37486e+06	-50239.1	1055.82	-29756.3	0.000000	0.000000	7.003139	0.051756	NaN	0.000000	0.001520	0.001650	28.0835	0.056749	0.001960	28.9529	-83.9128	-162.946	-0.020059	1.001382	-0.056827	-0.058156	0.051756	28.9529	-0.058168	-0.159454	-0.324582	NaN
1002	1.000000	1.010728	7.37486e+06	-50239.1	1055.82	-29756.3	0.000000	0.000000	7.011159	0.110056	NaN	0.000000	0.001531	0.001689	28.0845	0.056528	0.001983	28.5073	-13.7411	-169.254	0.081885	1.009432	-0.048810	-0.050106	0.110056	28.5073	-0.051705	-0.102715	-1.071474	NaN
1002	1.000000	1.018733	7.37486e+06	-50239.1	1055.82	-29756.3	0.000000	0.000000	7.019158	-0.028957	NaN	0.000000	0.001547	0.001692	28.0838	0.074167	0.001893	39.1848	-96.7984	-167.022	-0.016388	1.017466	-0.040805	-0.042072	-0.028957	39.1848	-0.040251	-0.046022	0.629201	NaN
1002	1.000000	1.026744	7.37486e+06	-50239.1	1055.82	-29756.3	0.000000	0.000000	7.027171	0.008536	NaN	0.000000	0.001536	0.001661	28.0835	0.035155	0.001964	17.896	-63.7056	-165.349	0.000187	1.025426	-0.032794	-0.034112	0.008536	17.896	-0.033151	-0.028281	-0.301832	NaN
1002	1.000000	1.034729	7.37486e+06	-50239.1	1055.82	-29756.3	0.000000	0.000000	7.035159	0.108744	NaN	0.000000	0.001528	0.001653	28.0839	0.116277	0.001957	59.4058	17.1677	-167.1	0.102379	1.033462	-0.024809	-0.026076	0.108744	59.4058	-0.026182	-0.018123	-6.000371	NaN
1002	1.000000	1.042726	7.37486e+06	-50239.1	1055.82	-29756.3	0.000000	0.000000	7.043154	0.041062	NaN	0.000000	0.001546	0.001663	28.0836	0.069534	0.001955	35.5603	-20.4591	-166.436	0.064142	1.041417	-0.016812	-0.018121	0.041062	35.5603	-0.017678	-0.010950	-3.750108	NaN
1002	1.000000	1.050743	7.37486e+06	-50239.1	1055.82	-29756.3	0.000000	0.000000	7.051170	0.012857	NaN	0.000000	0.001534	0.001629	28.0836	0.104790	0.002035	51.4879	-56.4304	-166.145	0.043113	1.049512	-0.008795	-0.010026	0.012857	51.4879	-0.008982	-0.005803	-2.215800	NaN
1002	1.000000	1.058697	7.37486e+06	-50239.1	1055.82	-29756.3	0.000000	0.000000	7.059145	0.535333	NaN	0.000000	0.001528	0.001674	28.0836	0.784156	0.001975	397.102	20.8113	-166.744	0.183281	1.057480	-0.000841	-0.002058	0.535333	397.102	-0.001852	-0.001337	-400.474	NaN
1002	1.000000	1.066626	7.37486e+06	-50239.1	1055.82	-29756.3	0.000000	0.000000	7.067405	8.582032	NaN	0.000000	0.001528	0.001641	28.0836	8.524164	0.001731	4924.52	12.4191	-173.368	7.076355	1.065427	0.007088	0.005889	8.582032	4924.52	0.005781	0.004858	1766.72	64554.4
1002	2.000000	1.069273	7.37486e+06	-50239.1	1055.82	-29756.3	0.000000	0.000000	7.070166	11.37	NaN	0.000000	0.001520	0.001617	28.0826	10.9104	0.001546	7059.24	12.3073	-179.346	10.8373	1.068929	0.009735	0.009391	11.37	7059.24	0.008527	0.007590	1498.08	74031.9
1002	2.000000	1.071251	7.37486e+06	-50239.1	1055.82	-29756.3	0.000000	0.000000	7.072288	14.8322	NaN	0.000000	0.001545	0.001612	28.0823	13.9542	0.001903	7333.29	7.008013	-172.738	14.4737	1.070997	0.011713	0.011459	14.8322	7333.29	0.010197	0.009401	1577.78	69102.2
1002	2.000000	1.073235	7.37486e+06	-50239.1	1055.82	-29756.3	0.000000	0.000000	7.074428	18.6419	NaN	0.000000	0.001508	0.001670	28.0824	15.5032	0.001742	8901.77	9.213063	-177.394	18.2698	1.072905	0.013697	0.013367	18.6419	8901.77	0.012126	0.011642	1601.28	75376.9
1002	2.000000	1.075224	7.37486e+06	-50239.1	1055.82	-29756.3	0.000000	0.000000	7.076529	21.3853	NaN	0.000000	0.001544	0.001659	28.0824	17.5554	0.001730	10149.9	7.144073	-176.783	20.9974	1.074904	0.015686	0.015366	21.3853	10149.9	0.014105	0.014111	1515.51	78064.9
1002	2.000000	1.077263	7.37486e+06	-50239.1	1055.82	-29756.3	0.000000	0.000000	7.078798	26.971	NaN	0.000000	0.001538	0.001680	28.0822	19.2766	0.001646	11711.6	8.494271	-177.239	27.7403	1.076875	0.017725	0.017337	26.971	11711.6	0.015998	0.016639	1620.96	82951.8
1002	2.000000	1.079219	7.37486e+06	-50239.1	1055.82	-29756.3	0.000000	0.000000	7.080850	29.2919	NaN	0.000000	0.001531	0.001672	28.0827	20.6495	0.001679	12295.5	1.407332	-173.359	28.5447	1.078954	0.019681	0.019416	29.2919	12295.5	0.017895	0.019341	1514.48	80774.9
1002	2.000000	1.081214	7.37486e+06	-50239.1	1055.82	-29756.3	0.000000	0.000000	7.083068	34.7237	NaN	0.000000	0.001514	0.001676	28.0823	24.3267	0.001786	13618.5	7.511156	179.639	33.4851	1.080894	0.021676	0.021356	34.7237	13618.5	0.019764	0.022172	1566.08	83559.2
1002	2.000000	1.083205	7.37486e+06	-50239.1	1055.82	-29756.3	0.000000	0.000000	7.085150	36.9273	NaN	0.000000	0.001524	0.001627	28.0823	24.952	0.001753	14236.5	9.540459	178.394	36.6934	1.082894	0.023667	0.023356	36.9273	14236.5	0.021722	0.025321	1458.37	81740.2
1002	2.000000	1.085207	7.37486e+06	-50239.1	1055.82	-29756.3	0.000000	0.000000	7.087364	42.0745	NaN	0.000000	0.001507	0.001665	28.0823	27.2452	0.001786	15256.9	6.592241	-179.562	42.2104	1.084880	0.025669	0.025342	42.0745	15256.9	0.023601	0.028520	1475.29	82540.6
1002	2.000000	1.087216	7.37486e+06	-50239.1	1055.82	-29756.3	0.000000	0.000000	7.089526	45.8091	NaN	0.000000	0.001515	0.001645	28.0823	29.4609	0.001756	16775.8	8.168864	177.155	45.2489	1.086934	0.027678	0.027396	45.8091	16775.8	0.025630	0.032172	1423.87	85451
1002	2.000000	1.089152	7.37486e+06	-50239.1	1055.82	-29756.3	0.000000	0.000000	7.091720	52.0886	NaN	0.000000	0.001466	0.001683	28.0824	30.8146	0.001832	16815.8	4.965983	-178.757	51.2492	1.088852	0.029614	0.029314	52.0886	16815.8	0.027290	0.035315	1474.99	81754.7
1002	2.000000	1.091168	7.37486e+06	-50239.1	1055.82	-29756.3	0.000000	0.000000	7.094071	60.2295	NaN	0.000000	0.001454	0.001668	28.0825	33.3144	0.001785	18661.2	5.813797	179.145	59.3837	1.090916	0.031630	0.031378	60.2295	18661.2	0.029209	0.039121	1539.59	86200.5
1002	2.000000	1.093160	7.37486e+06	-50239.1	1055.82	-29756.3	0.000000	0.000000	7.096379	67.9142	NaN	0.000000	0.001488	0.001657	28.0826	34.5785	0.001827	18925.3	5.751031	179.371	67.2766	1.092822	0.033622	0.033284	67.9142	18925.3	0.030931	0.042695	1590.69	83681
1002	2.000000	1.095098	7.37486e+06	-50239.1	1055.82	-29756.3	0.000000	0.000000	7.098557	73.7559	NaN	0.000000	0.001491	0.001671	28.0824	36.5999	0.001846	19823.6	5.998656	179.354	70.1311	1.094747	0.035560	0.035209	73.7559	19823.6	0.032770	0.046681	1580.01	83827.4
1002	2.000000	1.097182	7.37486e+06	-50239.1	1055.82	-29756.3	0.000000	0.000000	7.100906	80.1862	NaN	0.000000	0.001507	0.001654	28.0823	38.244	0.001786	21413.7	4.571899	179.025	79.4315	1.096880	0.037644	0.037342	80.1862	21413.7	0.034836	0.051365	1561.12	86324.1
1002	2.000000	1.099185	7.37486e+06	-50239.1	1055.82	-29756.3	0.000000	0.000000	7.103216	87.6739	NaN	0.000000	0.001518	0.001608	28.0828	40.0116	0.001748	22887	8.431545	176.568	88.4834	1.098817	0.039647	0.039279	87.6739	22887	0.036774	0.055957	1566.82	88396.5
1002	2.000000	1.101136	7.37486e+06	-50239.1	1055.82	-29756.3	0.000000	0.000000	7.105482	95.3167	NaN	0.000000	0.001512	0.001648	28.0823	42.3646	0.001731	24467.3	6.448947	175.512	93.7814	1.100866	0.041598	0.041328	95.3167	24467.3	0.038676	0.060652	1571.54	90768.9
1002	2.000000	1.103181	7.37486e+06	-50239.1	1055.82	-29756.3	0.000000	0.000000	7.107678	98.9976	NaN	0.000000	0.001491	0.001645	28.0834	43.2173	0.001679	25738.9	3.310948	179.313	100.247	1.102909	0.043643	0.043371	98.9976	25738.9	0.040759	0.066003	1499.88	91533.4
1002	2.000000	1.105135	7.37486e+06	-50239.1	1055.82	-29756.3	0.000000	0.000000	7.110082	109.961	NaN	0.000000	0.001541	0.001620	28.0838	45.9776	0.001885	24385	5.157209	177.771	109.48	1.104828	0.045597	0.045290	109.961	24385	0.042215	0.069877	1573.64	84281
1002	2.000000	1.107115	7.37486e+06	-50239.1	1055.82	-29756.3	0.000000	0.000000	7.112328	116.407	NaN	0.000000	0.001530	0.001649	28.0835	47.3519	0.001646	28761.4	4.531772	176.076	112.681	1.106805	0.047577	0.047267	116.407	28761.4	0.044541	0.076291	1525.83	95136.7
1002	2.000000	1.109233	7.37486e+06	-50239.1	1055.82	-29756.3	0.000000	0.000000	7.114795	124.883	NaN	0.000000	0.001539	0.001617	28.0842	49.108	0.001802	27250.2	4.349813	177.652	129.213	1.108786	0.049695	0.049248	124.883	27250.2	0.046258	0.081198	1538	87371.4
1002	2.000000	1.111100	7.37486e+06	-50239.1	1055.82	-29756.3	0.000000	0.000000	7.116867	129.889	NaN	0.000000	0.001526	0.001667	28.0837	50.9895	0.001799	28343.2	5.031568	175.739	126.5	1.110984	0.051562	0.051446	129.889	28343.2	0.048125	0.086705	1498.06	87942.7
1002	2.000000	1.113132	7.37486e+06	-50239.1	1055.82	-29756.3	0.000000	0.000000	7.119619	147.393	NaN	0.000000	0.001482	0.001652	28.0836	51.6825	0.001722	30008.7	8.247513	173.181	147.687	1.112725	0.053594	0.053187	147.393	30008.7	0.049910	0.092135	1599.75	90324.8
1002	2.000000	1.115097	7.37486e+06	-50239.1	1055.82	-29756.3	0.000000	0.000000	7.121895	154.961	NaN	0.000000	0.001479	0.001634	28.0838	53.4457	0.001773	30143	1.992028	179.429	152.736	1.114833	0.055559	0.055296	154.961	30143	0.051703	0.097751	1585.27	88084.5
1002	2.000000	1.117150	7.37486e+06	-50239.1	1055.82	-29756.3	0.000000	0.000000	7.124292	163.329	NaN	0.000000	0.001525	0.001663	28.0835	56.2844	0.001716	32806.8	6.566582	173.624	162.942	1.116821	0.057612	0.057283	163.329	32806.8	0.053878	0.104776	1558.83	92598.9
1002	2.000000	1.119172	7.37486e+06	-50239.1	1055.82	-29756.3	0.000000	0.000000	7.126646	171.389	NaN	0.000000	0.001528	0.001607	28.0835	58.5668	0.001795	32624.5	7.851521	173.092	173.608	1.118815	0.059634	0.059277	171.389	32624.5	0.055694	0.110822	1546.53	89537.2
1002	2.000000	1.121113	7.37486e+06	-50239.1	1055.82	-29756.3	0.000000	0.000000	7.128979	180.915	NaN	0.000000	0.001508	0.001656	28.0835	60.5101	0.001912	31647.4	2.378408	178.891	179.603	1.120834	0.061575	0.061296	180.915	31647.4	0.057288	0.116263	1556.08	84799
1002	2.000000	1.123076	7.37486e+06	-50239.1	1055.82	-29756.3	0.000000	0.000000	7.131705	199.485	NaN	0.000000	0.001526	0.001654	28.0835	61.5513	0.001834	33563.8	5.034100	175.802	194.64	1.122633	0.063538	0.063095	199.485	33563.8	0.059080	0.122530	1628.04	87603.8
1002	2.000000	1.125040	7.37486e+06	-50239.1	1055.82	-29756.3	0.000000	0.000000	7.133927	205.739	NaN	0.000000	0.001528	0.001650	28.0837	64.4428	0.001901	33896.6	9.405355	170.543	201.38	1.124846	0.065502	0.065308	205.739	33896.6	0.060950	0.129237	1591.95	86146.2
1002	2.000000	1.127225	7.37486e+06	-50239.1	1055.82	-29756.3	0.000000	0.000000	7.136535	216.047	NaN	0.000000	0.001524	0.001659	28.0836	65.2958	0.001761	37083.2	4.718056	175.06	218.3	1.126784	0.067687	0.067246	216.047	37083.2	0.063317	0.137972	1565.88	91212.5
1002	2.000000	1.129122	7.37486e+06	-50239.1	1055.82	-29756.3	0.000000	0.000000	7.138593	219.974	NaN	0.000000	0.001526	0.001602	28.0836	66.0968	0.001876	35233	3.688181	175.591	219.378	1.128987	0.069584	0.069449	219.974	35233	0.064901	0.143967	1527.95	84838.2
1002	2.000000	1.131087	7.37486e+06	-50239.1	1055.82	-29756.3	0.000000	0.000000	7.141327	238.661	NaN	0.000000	0.001506	0.001641	28.0835	68.4403	0.001724	39701.7	5.419227	172.741	234.836	1.130844	0.071549	0.071306	238.661	39701.7	0.067041	0.152258	1567.48	92959.2
1002	2.000000	1.133083	7.37486e+06	-50239.1	1055.82	-29756.3	0.000000	0.000000	7.143670	247.087	NaN	0.000000	0.001530	0.001638	28.084	69.014	0.001774	38904.8	6.630688	171.87	242.843	1.132921	0.073545	0.073383	247.087	38904.8	0.068782	0.159167	1552.38	89094.2
1002	2.000000	1.135094	7.37486e+06	-50239.1	1055.82	-29756.3	0.000000	0.000000	7.146191	259.498	NaN	0.000000	0.001483	0.001639	28.0838	72.4753	0.001849	39191.9	5.291664	174.19	257.19	1.134796	0.075556	0.075258	259.498	39191.9	0.070591	0.166499	1558.56	87753.5
1002	2.000000	1.137089	7.37486e+06	-50239.1	1055.82	-29756.3	0.000000	0.000000	7.148690	271.768	NaN	0.000000	0.001491	0.001625	28.083	74.3368	0.001811	41039.1	2.918990	176.672	270.001	1.136642	0.077551	0.077104	271.768	41039.1	0.072584	0.174758	1555.11	89691.7
1002	2.000000	1.139123	7.37486e+06	-50239.1	1055.82	-29756.3	0.000000	0.000000	7.151544	291.708	NaN	0.000000	0.001539	0.001660	28.0821	76.9755	0.001828	42097.7	6.862419	171.671	291.248	1.138742	0.079585	0.079204	291.708	42097.7	0.074388	0.182393	1599.34	90058.9
1002	2.000000	1.141101	7.37486e+06	-50239.1	1055.82	-29756.3	0.000000	0.000000	7.154026	303.941	NaN	0.000000	0.001511	0.001649	28.0824	78.3306	0.001893	41375.8	2.067572	177.475	302.331	1.140750	0.081563	0.081212	303.941	41375.8	0.076054	0.189582	1603.22	86820.2
1002	2.000000	1.143217	7.37486e+06	-50239.1	1055.82	-29756.3	0.000000	0.000000	7.156363	309.331	NaN	0.000000	0.001513	0.001610	28.0824	80.1831	0.001791	44763.5	6.105396	172.38	316.527	1.142874	0.083679	0.083336	309.331	44763.5	0.078496	0.200355	1543.91	91368.5
1002	2.000000	1.145131	7.37486e+06	-50239.1	1055.82	-29756.3	0.000000	0.000000	7.158897	324.403	NaN	0.000000	0.001532	0.001612	28.0819	81.624	0.001770	46114.1	5.450185	173.493	323.222	1.144671	0.085593	0.085133	324.403	46114.1	0.080317	0.208570	1555.36	92253.1
1002	2.000000	1.147175	7.37486e+06	-50239.1	1055.82	-29756.3	0.000000	0.000000	7.161492	337.82	NaN	0.000000	0.001523	0.001620	28.0821	84.6135	0.001797	47082	9.019777	169.926	339.253	1.146650	0.087637	0.087112	337.82	47082	0.082255	0.217482	1553.33	92239.3
1002	2.000000	1.149163	7.37486e+06	-50239.1	1055.82	-29756.3	0.000000	0.000000	7.164093	352.71	NaN	0.000000	0.001510	0.001624	28.0819	84.9048	0.001777	47788.2	4.356453	173.311	356.822	1.148757	0.089625	0.089219	352.71	47788.2	0.084090	0.226079	1560.12	91825.6
1002	2.000000	1.151111	7.37486e+06	-50239.1	1055.82	-29756.3	0.000000	0.000000	7.166103	354.233	NaN	0.000000	0.001534	0.001599	28.0824	88.5463	0.001832	48335	1.744520	175.375	353.141	1.150940	0.091573	0.091402	354.233	48335	0.086076	0.235562	1503.77	90987.5
1002	2.000000	1.153140	7.37486e+06	-50239.1	1055.82	-29756.3	0.000000	0.000000	7.168456	362.112	NaN	0.000000	0.001523	0.001632	28.082	88.5282	0.001755	50447.6	1.098190	175.9	362.683	1.153042	0.093602	0.093504	362.112	50447.6	0.088218	0.245992	1472.05	92929.4
1002	2.000000	1.155179	7.37486e+06	-50239.1	1055.82	-29756.3	0.000000	0.000000	7.171528	387.22	NaN	0.000000	0.001504	0.001621	28.0819	92.3449	0.001922	48035.8	10.1086	168.716	392.106	1.154786	0.095641	0.095248	387.22	48035.8	0.089595	0.252810	1531.67	87285.3
1002	2.000000	1.157182	7.37486e+06	-50239.1	1055.82	-29756.3	0.000000	0.000000	7.174226	404.116	NaN	0.000000	0.001513	0.001622	28.082	93.0196	0.001757	52943.4	5.356475	171.888	405.735	1.156711	0.097644	0.097173	404.116	52943.4	0.091920	0.264513	1527.77	94050.5
1002	2.000000	1.159055	7.37486e+06	-50239.1	1055.82	-29756.3	0.000000	0.000000	7.176951	424.841	NaN	0.000000	0.001485	0.001613	28.082	93.4236	0.001795	52049	1.565760	175.964	422.284	1.158702	0.099517	0.099164	424.841	52049	0.093395	0.272072	1561.5	91168.3
1002	2.000000	1.161193	7.37486e+06	-50239.1	1055.82	-29756.3	0.000000	0.000000	7.179251	428.76	NaN	0.000000	0.001459	0.001636	28.0822	98.6295	0.001916	51484.2	6.015656	171.366	432.748	1.160749	0.101655	0.101211	428.76	51484.2	0.095409	0.282549	1517.47	88491.3
1002	2.000000	1.162952	7.37486e+06	-50239.1	1055.82	-29756.3	0.000000	0.000000	7.182074	454.646	NaN	0.000000	0.001533	0.001650	28.082	98.2597	0.001791	54857.9	5.882839	170.794	447.41	1.162703	0.103414	0.103165	454.646	54857.9	0.097199	0.292010	1556.95	92749.8
1002	2.000000	1.165074	7.37486e+06	-50239.1	1055.82	-29756.3	0.000000	0.000000	7.184668	466.133	NaN	0.000000	0.001514	0.001653	28.0822	101.142	0.001688	59907.2	5.549639	170.739	465.832	1.164758	0.105536	0.105220	466.133	59907.2	0.099700	0.305487	1525.87	99027.6
1002	2.000000	1.166087	7.37486e+06	-50239.1	1055.82	-29756.3	0.000000	0.000000	7.186104	476.425	NaN	0.000000	0.001517	0.001634	28.082	101.795	0.001829	55643.4	5.736612	171.286	476.658	1.165666	0.106549	0.106128	476.425	55643.4	0.100127	0.307813	1547.77	91631.2