File: remote_trans/data/nanoindenter/0828-1/data/Data_2025-08-06,11h17m57s/2025-07-22_16-23-58_1_130.txt
2025-07-22, 16:23:58, 1
Index	Phase	Displacement	Time	Pos X	Pos Y	Pos Z	Rot A	Rot B	Piezo Z	Force A	Force B	Gripper	Voltage A	Voltage B	Temperature	Amplitude force	Amplitude pos	Stiffness	Phase shift	Phase excitation	Force A raw	Displacement raw	HMax	HMax raw	Real Force	Real Stiffness	Contact Depth	Area	Hardness	Reduced Mod.
[#]	[#]	[um]	[s]	[um]	[um]	[um]	[m°]	[m°]	[um]	[uN]	[uN]	[V]	[V]	[V]	[°C]	[uN]	[um]	[N/m]	[°]	[°]	[uN]	[um]	[um]	[um]	[uN]	[N/m]	[um]	[um^2]	[MPa]	[MPa]
130	1.000000	0.002429	7.36631e+06	-45139.1	955.818	-29773.9	0.000000	0.000000	6.002808	-0.064070	NaN	0.000000	0.001629	0.001690	28.1305	0.038216	0.001091	35.0276	116.36	-160.886	-0.112231	0.001229	-1.075754	-1.076954	-0.064070	35.0276	-1.074382	-2.270188E+14	2.822245E-16	NaN
130	1.000000	0.010397	7.36631e+06	-45139.1	955.819	-29773.9	0.000000	0.000000	6.010777	-0.037697	NaN	0.000000	0.001675	0.001752	28.1303	0.076741	0.000868	88.4147	-82.6741	-168.434	-0.135730	0.009096	-1.067785	-1.069087	-0.037697	88.4147	-1.067466	-1.832898E+14	2.056667E-16	NaN
130	1.000000	0.018389	7.36631e+06	-45139.1	955.819	-29773.9	0.000000	0.000000	6.018771	0.016543	NaN	0.000000	0.001588	0.001752	28.1302	0.048422	0.001666	29.0719	-59.3467	-166.849	0.014502	0.017054	-1.059794	-1.061129	0.016543	29.0719	-1.060221	-1.464840E+14	-1.129307E-16	NaN
130	1.000000	0.026405	7.36631e+06	-45139.1	955.819	-29773.9	0.000000	0.000000	6.026790	0.074951	NaN	0.000000	0.001608	0.001710	28.1291	0.049346	0.001879	26.269	77.285	-164.498	0.100087	0.025034	-1.051778	-1.053149	0.074951	26.269	-1.053918	-1.205245E+14	-6.218767E-16	NaN
130	1.000000	0.034365	7.36631e+06	-45139.1	955.818	-29773.9	0.000000	0.000000	6.034745	-0.040881	NaN	0.000000	0.001661	0.001746	28.1291	0.028762	0.001908	15.0747	144.409	-165.267	-0.058863	0.033035	-1.043818	-1.045148	-0.040881	15.0747	-1.041784	-8.278585E+13	4.938125E-16	NaN
130	1.000000	0.042388	7.36631e+06	-45139.1	955.819	-29773.9	0.000000	0.000000	6.042775	0.117292	NaN	0.000000	0.001538	0.001748	28.1291	0.030507	0.001937	15.7481	-155.029	-165.275	0.006866	0.041026	-1.035795	-1.037157	0.117292	15.7481	-1.041381	-8.175850E+13	-1.434621E-15	NaN
130	1.000000	0.050366	7.36631e+06	-45139.1	955.818	-29773.9	0.000000	0.000000	6.050750	0.046530	NaN	0.000000	0.001514	0.001684	28.1292	0.073915	0.001984	37.2596	-124.958	-167.915	-0.016438	0.049090	-1.027817	-1.029092	0.046530	37.2596	-1.028753	-5.529834E+13	-8.414280E-16	NaN
130	1.000000	0.058393	7.36631e+06	-45139.1	955.817	-29773.9	0.000000	0.000000	6.058773	-0.022444	NaN	0.000000	0.001507	0.001694	28.1299	0.065789	0.001984	33.1524	177.524	-162.584	-0.053753	0.057082	-1.019790	-1.021101	-0.022444	33.1524	-1.019282	-4.123790E+13	5.442678E-16	NaN
130	1.000000	0.066406	7.36631e+06	-45139.1	955.818	-29773.9	0.000000	0.000000	6.066789	0.033742	NaN	0.000000	0.001513	0.001675	28.1304	0.063808	0.002056	31.0299	-69.6516	-165.373	-0.011811	0.065058	-1.011777	-1.013125	0.033742	31.0299	-1.012593	-3.351771E+13	-1.006678E-15	NaN
130	1.000000	0.074306	7.36631e+06	-45139.1	955.818	-29773.9	0.000000	0.000000	6.074687	-0.008978	NaN	0.000000	0.001536	0.001708	28.131	0.033969	0.002028	16.7482	-20.899	-164.868	-0.056244	0.073036	-1.003877	-1.005147	-0.008978	16.7482	-1.003475	-2.526697E+13	3.553354E-16	NaN
130	1.000000	0.082400	7.36631e+06	-45139.1	955.818	-29773.9	0.000000	0.000000	6.082780	-0.035204	NaN	0.000000	0.001519	0.001743	28.1308	0.115779	0.001968	58.8291	65.5782	-167.131	-0.045392	0.081061	-0.995783	-0.997122	-0.035204	58.8291	-0.995334	-1.963131E+13	1.793274E-15	NaN
130	1.000000	0.090407	7.36631e+06	-45139.1	955.819	-29773.9	0.000000	0.000000	6.090785	-0.084189	NaN	0.000000	0.001527	0.001728	28.1307	0.050754	0.001963	25.8497	-0.045826	-165.991	-0.035605	0.089038	-0.987776	-0.989144	-0.084189	25.8497	-0.985334	-1.439660E+13	5.847808E-15	NaN
130	1.000000	0.098398	7.36631e+06	-45139.1	955.819	-29773.9	0.000000	0.000000	6.098780	0.011414	NaN	0.000000	0.001523	0.001707	28.1308	0.012102	0.002045	5.916914	-39.6427	-164.519	0.018730	0.097129	-0.979785	-0.981054	0.011414	5.916914	-0.981232	-1.267666E+13	-9.003645E-16	NaN
130	1.000000	0.106399	7.36631e+06	-45139.1	955.819	-29773.9	0.000000	0.000000	6.106780	-0.018878	NaN	0.000000	0.001546	0.001680	28.1283	0.036530	0.001938	18.8469	-99.3352	-167.988	-0.008533	0.105048	-0.971783	-0.973135	-0.018878	18.8469	-0.971032	-9.237918E+12	2.043580E-15	NaN
130	1.000000	0.114382	7.36631e+06	-45139.1	955.819	-29773.9	0.000000	0.000000	6.114766	0.045079	NaN	0.000000	0.001555	0.001706	28.1283	0.064773	0.002109	30.7104	-28.3869	-165.911	0.010526	0.113057	-0.963801	-0.965126	0.045079	30.7104	-0.964901	-7.637376E+12	-5.902394E-15	NaN
130	1.000000	0.122437	7.36631e+06	-45139.1	955.818	-29773.9	0.000000	0.000000	6.122818	-0.006531	NaN	0.000000	0.001510	0.001696	28.128	0.004196	0.001801	2.329210	-104.541	-167.871	-0.031765	0.121084	-0.955746	-0.957099	-0.006531	2.329210	-0.953643	-5.384656E+12	1.212885E-15	NaN
130	1.000000	0.130414	7.36631e+06	-45139.1	955.818	-29773.9	0.000000	0.000000	6.130793	-0.046619	NaN	0.000000	0.001551	0.001662	28.128	0.051641	0.001973	26.1778	-99.1766	-163.98	0.062917	0.129077	-0.947769	-0.949105	-0.046619	26.1778	-0.946433	-4.304507E+12	1.083031E-14	NaN
130	1.000000	0.138384	7.36631e+06	-45139.1	955.819	-29773.9	0.000000	0.000000	6.138764	-0.037082	NaN	0.000000	0.001541	0.001723	28.1284	0.089608	0.001974	45.4032	158.668	-165.195	-0.005356	0.137067	-0.939799	-0.941116	-0.037082	45.4032	-0.939186	-3.436841E+12	1.078952E-14	NaN
130	1.000000	0.146409	7.36631e+06	-45139.1	955.817	-29774	0.000000	0.000000	6.146792	0.040147	NaN	0.000000	0.001540	0.001727	28.1291	0.027113	0.001773	15.288	118.003	-164.664	0.059392	0.145089	-0.931774	-0.933094	0.040147	15.288	-0.933743	-2.902136E+12	-1.383347E-14	NaN
130	1.000000	0.154401	7.36631e+06	-45139.1	955.819	-29774	0.000000	0.000000	6.154783	0.005358	NaN	0.000000	0.001510	0.001699	28.1292	0.027663	0.002090	13.2384	-154.096	-164.595	-0.008145	0.153085	-0.923781	-0.925098	0.005358	13.2384	-0.924085	-2.149588E+12	-2.492669E-15	NaN
130	1.000000	0.162413	7.36631e+06	-45139.1	955.819	-29774	0.000000	0.000000	6.162793	-0.034575	NaN	0.000000	0.001528	0.001703	28.1293	0.040143	0.001887	21.2734	-101.718	-166.77	-0.052449	0.161114	-0.915770	-0.917069	-0.034575	21.2734	-0.914551	-1.598185E+12	2.163421E-14	NaN
130	1.000000	0.170413	7.36631e+06	-45139.1	955.818	-29774	0.000000	0.000000	6.170796	0.016717	NaN	0.000000	0.001546	0.001713	28.1296	0.086288	0.001918	44.9907	85.3465	-164.194	0.009335	0.169108	-0.907769	-0.909074	0.016717	44.9907	-0.908048	-1.305562E+12	-1.280435E-14	NaN
130	1.000000	0.178417	7.36631e+06	-45139.1	955.819	-29774	0.000000	0.000000	6.178798	-0.022901	NaN	0.000000	0.001532	0.001700	28.1295	0.049035	0.002026	24.2085	-1.158050	-162.654	-0.008542	0.177108	-0.899766	-0.901074	-0.022901	24.2085	-0.899056	-9.869970E+11	2.320313E-14	NaN
130	1.000000	0.186421	7.36631e+06	-45139.1	955.819	-29774	0.000000	0.000000	6.186804	0.030323	NaN	0.000000	0.001541	0.001718	28.1283	0.173901	0.002082	83.5233	-84.9209	-167.552	0.013282	0.185127	-0.891762	-0.893056	0.030323	83.5233	-0.892034	-7.932469E+11	-3.822650E-14	NaN
130	1.000000	0.194415	7.36631e+06	-45139.1	955.819	-29774	0.000000	0.000000	6.194793	-0.087932	NaN	0.000000	0.001544	0.001725	28.1285	0.022972	0.001907	12.0475	-8.148769	-167.396	-0.089371	0.193113	-0.883768	-0.885070	-0.087932	12.0475	-0.878294	-5.171743E+11	1.700249E-13	NaN
130	1.000000	0.202454	7.36631e+06	-45139.1	955.819	-29774	0.000000	0.000000	6.202837	0.032209	NaN	0.000000	0.001539	0.001698	28.1288	0.045525	0.001989	22.8859	-70.8154	-163.733	0.036041	0.201142	-0.875729	-0.877041	0.032209	22.8859	-0.876784	-4.934197E+11	-6.527745E-14	NaN
130	1.000000	0.210436	7.36631e+06	-45139.1	955.818	-29774	0.000000	0.000000	6.210817	-0.029339	NaN	0.000000	0.001551	0.001770	28.1284	0.057802	0.002100	27.5297	140.964	-167.767	0.041811	0.209098	-0.867746	-0.869084	-0.029339	27.5297	-0.866947	-3.631922E+11	8.077960E-14	NaN
130	1.000000	0.218448	7.36631e+06	-45139.1	955.819	-29774	0.000000	0.000000	6.218829	-0.013259	NaN	0.000000	0.001537	0.001732	28.1284	0.024294	0.002035	11.9358	-108.62	-164.049	0.024226	0.217129	-0.859735	-0.861054	-0.013259	11.9358	-0.858902	-2.826569E+11	4.690810E-14	NaN
130	1.000000	0.226409	7.36631e+06	-45139.1	955.818	-29774	0.000000	0.000000	6.226788	-0.049923	NaN	0.000000	0.001538	0.001749	28.1294	0.093769	0.001962	47.7854	-45.7458	-162.533	0.000675	0.225076	-0.851774	-0.853107	-0.049923	47.7854	-0.850991	-2.208781E+11	2.260209E-13	NaN
130	1.000000	0.234427	7.36631e+06	-45139.1	955.818	-29774	0.000000	0.000000	6.234809	0.007156	NaN	0.000000	0.001537	0.001745	28.1295	0.064962	0.002020	32.1553	86.6866	-164.438	0.078493	0.233101	-0.843756	-0.845082	0.007156	32.1553	-0.843922	-1.771854E+11	-4.038591E-14	NaN
130	1.000000	0.242428	7.36631e+06	-45139.1	955.818	-29774	0.000000	0.000000	6.242812	0.043936	NaN	0.000000	0.001569	0.001701	28.1317	0.158256	0.002030	77.9731	-139.443	-161.292	-0.027781	0.241160	-0.835754	-0.837023	0.043936	77.9731	-0.836177	-1.391540E+11	-3.157341E-13	NaN
130	1.000000	0.250438	7.36631e+06	-45139.1	955.818	-29774	0.000000	0.000000	6.250820	-0.003830	NaN	0.000000	0.001548	0.001749	28.1307	0.082404	0.001952	42.2171	-154.891	-165.643	0.003767	0.249147	-0.827744	-0.829036	-0.003830	42.2171	-0.827676	-1.067303E+11	3.588107E-14	NaN
130	1.000000	0.258429	7.36631e+06	-45139.1	955.819	-29774	0.000000	0.000000	6.258810	-0.017614	NaN	0.000000	0.001595	0.001765	28.1305	0.005237	0.001898	2.759381	-53.9672	-166.14	-0.023484	0.257112	-0.819754	-0.821070	-0.017614	2.759381	-0.814967	-7.177053E+10	2.454224E-13	NaN
130	1.000000	0.266472	7.36631e+06	-45139.1	955.818	-29774	0.000000	0.000000	6.266853	-0.023791	NaN	0.000000	0.001546	0.001732	28.1295	0.022643	0.001988	11.3921	-129.416	-167.016	0.011325	0.265200	-0.811711	-0.812983	-0.023791	11.3921	-0.810144	-6.173471E+10	3.853667E-13	NaN
130	1.000000	0.274455	7.36631e+06	-45139.1	955.818	-29774	0.000000	0.000000	6.274834	-0.055480	NaN	0.000000	0.001547	0.001730	28.1302	0.102447	0.002065	49.6209	177.162	-165.356	-0.009046	0.273128	-0.803728	-0.805055	-0.055480	49.6209	-0.802889	-4.921289E+10	1.127338E-12	NaN
130	1.000000	0.282458	7.36631e+06	-45139.1	955.818	-29774	0.000000	0.000000	6.282837	-0.065222	NaN	0.000000	0.001535	0.001748	28.13	0.073901	0.001917	38.5569	-85.8941	-166.774	-0.117647	0.281157	-0.795725	-0.797025	-0.065222	38.5569	-0.794456	-3.780949E+10	1.725012E-12	NaN
130	1.000000	0.290462	7.36631e+06	-45139.1	955.818	-29774	0.000000	0.000000	6.290843	-0.021239	NaN	0.000000	0.001536	0.001698	28.1296	0.013857	0.001986	6.975764	138.581	-167.013	0.032354	0.289175	-0.787720	-0.789008	-0.021239	6.975764	-0.785437	-2.851692E+10	7.447762E-13	NaN
130	1.000000	0.298451	7.36631e+06	-45139.1	955.819	-29774	0.000000	0.000000	6.298831	-0.045437	NaN	0.000000	0.001527	0.001720	28.1297	0.050971	0.001859	27.4254	-35.5343	-164.535	-0.006711	0.297111	-0.779732	-0.781072	-0.045437	27.4254	-0.778489	-2.294578E+10	1.980199E-12	NaN
130	1.000000	0.306507	7.36631e+06	-45139.1	955.818	-29774	0.000000	0.000000	6.306889	0.002464	NaN	0.000000	0.001525	0.001714	28.1312	0.103707	0.001999	51.8771	-20.7919	-165.983	0.062487	0.305141	-0.771676	-0.773041	0.002464	51.8771	-0.771711	-1.855980E+10	-1.327556E-13	NaN
130	1.000000	0.314454	7.36631e+06	-45139.1	955.818	-29774	0.000000	0.000000	6.314834	-0.029180	NaN	0.000000	0.001549	0.001708	28.1307	0.107246	0.002023	53.0196	-165.886	-165.86	-0.078800	0.313190	-0.763729	-0.764993	-0.029180	53.0196	-0.763316	-1.426969E+10	2.044884E-12	NaN
130	1.000000	0.322493	7.36631e+06	-45139.1	955.819	-29774	0.000000	0.000000	6.322876	0.036639	NaN	0.000000	0.001550	0.001703	28.1309	0.119250	0.001978	60.2944	72.9081	-166.457	0.003474	0.321215	-0.755690	-0.756968	0.036639	60.2944	-0.756145	-1.139878E+10	-3.214278E-12	NaN
130	1.000000	0.330496	7.36631e+06	-45139.1	955.817	-29774	0.000000	0.000000	6.330879	0.033573	NaN	0.000000	0.001537	0.001749	28.1308	0.047346	0.001948	24.3085	152.154	-163.959	0.037116	0.329174	-0.747686	-0.749009	0.033573	24.3085	-0.748722	-9.032890E+9	-3.716757E-12	NaN
130	1.000000	0.338516	7.36631e+06	-45139.1	955.818	-29774	0.000000	0.000000	6.338898	-0.001241	NaN	0.000000	0.001550	0.001749	28.1307	0.109768	0.001979	55.4573	-1.858038	-167.005	0.044422	0.337146	-0.739667	-0.741037	-0.001241	55.4573	-0.739650	-6.796565E+9	1.825832E-13	NaN
130	1.000000	0.346492	7.36631e+06	-45139.1	955.818	-29774	0.000000	0.000000	6.346874	0.002044	NaN	0.000000	0.001562	0.001694	28.13	0.037353	0.001901	19.6519	-157.95	-168.906	0.025861	0.345194	-0.731691	-0.732989	0.002044	19.6519	-0.731769	-5.307760E+9	-3.850129E-13	NaN
130	1.000000	0.354482	7.36631e+06	-45139.1	955.819	-29774	0.000000	0.000000	6.354859	-0.107588	NaN	0.000000	0.001534	0.001683	28.1298	0.022293	0.001995	11.1767	-146.824	-164.361	-0.089100	0.353174	-0.723701	-0.725009	-0.107588	11.1767	-0.716481	-3.284561E+9	3.275557E-11	NaN
130	1.000000	0.362501	7.36631e+06	-45139.1	955.818	-29774	0.000000	0.000000	6.362882	-0.000124	NaN	0.000000	0.001515	0.001688	28.1299	0.117517	0.001909	61.5726	134.426	-165.895	-0.000451	0.361210	-0.715682	-0.716973	-0.000124	61.5726	-0.715680	-3.202982E+9	3.864915E-14	NaN
130	1.000000	0.370495	7.36631e+06	-45139.1	955.818	-29774	0.000000	0.000000	6.370875	-0.042306	NaN	0.000000	0.001560	0.001712	28.1299	0.081290	0.001950	41.6817	-101.113	-169.078	-0.000696	0.369200	-0.707688	-0.708983	-0.042306	41.6817	-0.706927	-2.432782E+9	1.738984E-11	NaN
130	1.000000	0.378509	7.36631e+06	-45139.1	955.818	-29774	0.000000	0.000000	6.378889	-0.054419	NaN	0.000000	0.001511	0.001776	28.1283	0.043078	0.001993	21.6136	22.0454	-163.266	-0.079899	0.377135	-0.699674	-0.701048	-0.054419	21.6136	-0.697785	-1.825083E+9	2.981754E-11	NaN
130	1.000000	0.386500	7.36631e+06	-45139.1	955.819	-29774	0.000000	0.000000	6.386880	-0.047068	NaN	0.000000	0.001530	0.001725	28.1299	0.053371	0.002196	24.3036	99.8935	-164.853	-0.087075	0.385159	-0.691682	-0.693023	-0.047068	24.3036	-0.690230	-1.438999E+9	3.270880E-11	NaN
130	1.000000	0.394519	7.36631e+06	-45139.1	955.819	-29774	0.000000	0.000000	6.394900	-0.005942	NaN	0.000000	0.001502	0.001723	28.1303	0.083688	0.002118	39.5077	100.162	-167.75	-0.050013	0.393239	-0.683664	-0.684943	-0.005942	39.5077	-0.683551	-1.166172E+9	5.095063E-12	NaN
130	1.000000	0.402484	7.36631e+06	-45139.1	955.818	-29774	0.000000	0.000000	6.402867	0.015709	NaN	0.000000	0.001514	0.001737	28.1297	0.067596	0.002061	32.8008	68.022	-165.692	0.032049	0.401208	-0.675699	-0.676974	0.015709	32.8008	-0.676058	-9.210467E+8	-1.705602E-11	NaN
130	1.000000	0.410494	7.36631e+06	-45139.1	955.818	-29774	0.000000	0.000000	6.410876	-0.006570	NaN	0.000000	0.001524	0.001743	28.13	0.077816	0.002087	37.2878	115.632	-163.93	0.013269	0.409202	-0.667688	-0.668981	-0.006570	37.2878	-0.667556	-7.045959E+8	9.324246E-12	NaN
130	1.000000	0.418547	7.36631e+06	-45139.1	955.819	-29774	0.000000	0.000000	6.418929	0.012661	NaN	0.000000	0.001468	0.001735	28.1297	0.093192	0.001845	50.5043	-167.776	-165.899	-0.001898	0.417228	-0.659636	-0.660955	0.012661	50.5043	-0.659824	-5.521487E+8	-2.293063E-11	NaN
130	1.000000	0.426549	7.36631e+06	-45139.1	955.818	-29774	0.000000	0.000000	6.426931	0.016488	NaN	0.000000	0.001511	0.001749	28.1287	0.053952	0.002003	26.9302	-134.387	-163.564	0.029551	0.425260	-0.651634	-0.652923	0.016488	26.9302	-0.652093	-4.326454E+8	-3.810896E-11	NaN
130	1.000000	0.434515	7.36631e+06	-45139.1	955.818	-29774	0.000000	0.000000	6.434896	-0.030825	NaN	0.000000	0.001548	0.001748	28.1286	0.034645	0.002029	17.0705	-4.497200	-165.745	0.012330	0.433198	-0.643667	-0.644985	-0.030825	17.0705	-0.642313	-3.177041E+8	9.702442E-11	NaN
130	1.000000	0.442547	7.36631e+06	-45139.1	955.819	-29774	0.000000	0.000000	6.442929	0.002260	NaN	0.000000	0.001521	0.001743	28.1285	0.037783	0.001987	19.0164	-88.664	-168.655	-0.012671	0.441230	-0.635635	-0.636953	0.002260	19.0164	-0.635724	-2.579978E+8	-8.761462E-12	NaN
130	1.000000	0.450533	7.36631e+06	-45139.1	955.819	-29774	0.000000	0.000000	6.450916	0.022446	NaN	0.000000	0.001549	0.001734	28.1289	0.035708	0.001982	18.0165	-171.588	-164.669	-0.004396	0.449196	-0.627649	-0.628986	0.022446	18.0165	-0.628584	-2.058605E+8	-1.090365E-10	NaN
130	1.000000	0.458553	7.36631e+06	-45139.1	955.818	-29774	0.000000	0.000000	6.458933	-0.059436	NaN	0.000000	0.001506	0.001716	28.1287	0.040986	0.001911	21.4513	-23.4092	-164.331	-0.088912	0.457223	-0.619629	-0.620960	-0.059436	21.4513	-0.617551	-1.452018E+8	4.093321E-10	NaN
130	1.000000	0.466576	7.36631e+06	-45139.1	955.818	-29774	0.000000	0.000000	6.466954	-0.074184	NaN	0.000000	0.001471	0.001723	28.1296	0.088880	0.001976	44.9727	-45.6171	-165.052	-0.058573	0.465220	-0.611607	-0.612963	-0.074184	44.9727	-0.610370	-1.156652E+8	6.413666E-10	NaN
130	1.000000	0.474563	7.36631e+06	-45139.1	955.818	-29774	0.000000	0.000000	6.474944	-0.001728	NaN	0.000000	0.001521	0.001731	28.13	0.143834	0.001983	72.5287	171.647	-165.186	-0.004636	0.473201	-0.603620	-0.604982	-0.001728	72.5287	-0.603602	-9.333809E+7	1.851297E-11	NaN
130	1.000000	0.482544	7.36631e+06	-45139.1	955.818	-29774	0.000000	0.000000	6.482930	0.093075	NaN	0.000000	0.001512	0.001695	28.1297	0.126784	0.002076	61.0596	-101.168	-163.62	0.059697	0.481286	-0.595639	-0.596897	0.093075	61.0596	-0.596782	-7.518537E+7	-1.237940E-9	NaN
130	1.000000	0.490548	7.36631e+06	-45139.1	955.819	-29774	0.000000	0.000000	6.490929	-0.008949	NaN	0.000000	0.001545	0.001747	28.13	0.090291	0.002102	42.9487	48.7946	-167.675	0.026404	0.489268	-0.587635	-0.588914	-0.008949	42.9487	-0.587479	-5.596327E+7	1.599116E-10	NaN
130	1.000000	0.498558	7.36631e+06	-45139.1	955.818	-29774	0.000000	0.000000	6.498940	-0.008837	NaN	0.000000	0.001507	0.001740	28.1297	0.015505	0.002076	7.468331	-140.812	-165.248	-0.039862	0.497242	-0.579625	-0.580941	-0.008837	7.468331	-0.578737	-4.239302E+7	2.084460E-10	NaN
130	1.000000	0.506566	7.36631e+06	-45139.1	955.818	-29774	0.000000	0.000000	6.506948	-0.000392	NaN	0.000000	0.001512	0.001757	28.1285	0.044882	0.002000	22.4437	83.5601	-165.37	-0.027831	0.505240	-0.571617	-0.572943	-0.000392	22.4437	-0.571604	-3.379002E+7	1.161413E-11	NaN
130	1.000000	0.514562	7.36631e+06	-45139.1	955.819	-29774	0.000000	0.000000	6.514943	-0.011761	NaN	0.000000	0.001547	0.001751	28.1297	0.106925	0.001835	58.2669	103.518	-164.251	-0.159232	0.513254	-0.563621	-0.564929	-0.011761	58.2669	-0.563469	-2.608337E+7	4.508933E-10	NaN
130	1.000000	0.522567	7.36631e+06	-45139.1	955.819	-29774	0.000000	0.000000	6.522949	0.009270	NaN	0.000000	0.001541	0.001700	28.1303	0.081089	0.001946	41.6727	-38.6467	-166.841	0.014365	0.521241	-0.555616	-0.556942	0.009270	41.6727	-0.555783	-2.041859E+7	-4.539988E-10	NaN
130	1.000000	0.530568	7.36631e+06	-45139.1	955.818	-29774	0.000000	0.000000	6.530948	-0.042022	NaN	0.000000	0.001538	0.001696	28.1304	0.043054	0.002086	20.6443	-15.5737	-163.412	0.007299	0.529237	-0.547614	-0.548946	-0.042022	20.6443	-0.546088	-1.498842E+7	2.803601E-9	NaN
130	1.000000	0.538570	7.36631e+06	-45139.1	955.818	-29774	0.000000	0.000000	6.538950	-0.027943	NaN	0.000000	0.001546	0.001706	28.1297	0.121457	0.002071	58.6495	173.015	-167.138	-0.035137	0.537202	-0.539613	-0.540981	-0.027943	58.6495	-0.539256	-1.205135E+7	2.318669E-9	NaN
130	1.000000	0.546553	7.36631e+06	-45139.1	955.818	-29774	0.000000	0.000000	6.546934	8.863347E-5	NaN	0.000000	0.001516	0.001744	28.1309	0.036095	0.001855	19.4583	161.24	-165.206	-0.000862	0.545204	-0.531630	-0.532979	8.863347E-5	19.4583	-0.531634	-9.44626e+06	-9.382913E-12	NaN
130	1.000000	0.554578	7.36631e+06	-45139.1	955.819	-29774	0.000000	0.000000	6.554959	-0.024001	NaN	0.000000	0.001537	0.001729	28.1307	0.065092	0.002009	32.3933	135.131	-166.695	-0.068790	0.553201	-0.523605	-0.524982	-0.024001	32.3933	-0.523049	-7.17783e+06	3.343735E-9	NaN
130	1.000000	0.562575	7.36631e+06	-45139.1	955.818	-29774	0.000000	0.000000	6.562957	0.001336	NaN	0.000000	0.001520	0.001742	28.131	0.030541	0.001871	16.3202	52.2634	-165.246	-0.055435	0.561324	-0.515607	-0.516859	0.001336	16.3202	-0.515669	-5.66686e+06	-2.358074E-10	NaN
130	1.000000	0.570630	7.36631e+06	-45139.1	955.818	-29774	0.000000	0.000000	6.571010	-0.044373	NaN	0.000000	0.001557	0.001708	28.1314	0.043447	0.001839	23.6306	139.983	-165.588	0.043209	0.569280	-0.507553	-0.508903	-0.044373	23.6306	-0.506145	-4.17541e+06	1.062727E-8	NaN
130	1.000000	0.578595	7.36631e+06	-45139.1	955.819	-29774	0.000000	0.000000	6.578978	0.013958	NaN	0.000000	0.001569	0.001709	28.131	0.093058	0.001996	46.6242	19.844	-163.603	0.026506	0.577288	-0.499587	-0.500895	0.013958	46.6242	-0.499812	-3.40716e+06	-4.096678E-9	NaN
130	1.000000	0.586569	7.36631e+06	-45139.1	955.818	-29774	0.000000	0.000000	6.586950	-0.033469	NaN	0.000000	0.001565	0.001682	28.1299	0.071604	0.001878	38.1261	-107.556	-167.359	0.005462	0.585281	-0.491613	-0.492902	-0.033469	38.1261	-0.490955	-2.56293e+06	1.305879E-8	NaN
130	1.000000	0.594607	7.36631e+06	-45139.1	955.818	-29774	0.000000	0.000000	6.594989	-0.009156	NaN	0.000000	0.001554	0.001713	28.1301	0.021578	0.001901	11.3486	69.9747	-168.596	-0.027143	0.593306	-0.483575	-0.484876	-0.009156	11.3486	-0.482970	-1.98197e+06	4.619528E-9	NaN
130	1.000000	0.602620	7.36631e+06	-45139.1	955.819	-29774	0.000000	0.000000	6.603002	-0.010197	NaN	0.000000	0.001611	0.001696	28.1301	0.037965	0.001962	19.3544	87.7934	-168.04	0.011283	0.601289	-0.475562	-0.476894	-0.010197	19.3544	-0.475167	-1.54114e+06	6.616715E-9	NaN
130	1.000000	0.610610	7.36631e+06	-45139.1	955.818	-29774	0.000000	0.000000	6.610991	0.000653	NaN	0.000000	0.001559	0.001688	28.1301	0.030223	0.001994	15.1538	-138.151	-166.653	0.016350	0.609235	-0.467573	-0.468948	0.000653	15.1538	-0.467605	-1.2073e+06	-5.408058E-10	NaN
130	1.000000	0.618653	7.36631e+06	-45139.1	955.819	-29774	0.000000	0.000000	6.619032	-0.053944	NaN	0.000000	0.001587	0.001709	28.1302	0.012503	0.002014	6.208956	121.566	-164.475	-0.077670	0.617329	-0.459530	-0.460854	-0.053944	6.208956	-0.453014	-752952	7.164376E-8	NaN
130	1.000000	0.626632	7.36631e+06	-45139.1	955.818	-29774	0.000000	0.000000	6.627012	-0.051507	NaN	0.000000	0.001601	0.001704	28.1313	0.040534	0.002062	19.6555	158.304	-166.24	-0.041382	0.625327	-0.451551	-0.452856	-0.051507	19.6555	-0.449585	-673757	7.644789E-8	NaN
130	1.000000	0.634590	7.36631e+06	-45139.1	955.819	-29774	0.000000	0.000000	6.634974	0.060081	NaN	0.000000	0.001631	0.001696	28.1318	0.045389	0.002133	21.2828	-136.202	-169.283	0.017678	0.633321	-0.443593	-0.444862	0.060081	21.2828	-0.445710	-594161	-1.011191E-7	NaN
130	1.000000	0.642607	7.36631e+06	-45139.1	955.819	-29774	0.000000	0.000000	6.642989	0.004457	NaN	0.000000	0.001622	0.001683	28.1314	0.097725	0.002080	46.9781	-64.3468	-166.262	-0.003048	0.641315	-0.435575	-0.436868	0.004457	46.9781	-0.435647	-428439	-1.040306E-8	NaN
130	1.000000	0.650596	7.36631e+06	-45139.1	955.819	-29774	0.000000	0.000000	6.650975	-0.051731	NaN	0.000000	0.001635	0.001689	28.1303	0.115103	0.001987	57.9244	-163.421	-164.151	-0.042347	0.649335	-0.427587	-0.428848	-0.051731	57.9244	-0.426917	-322427	1.604440E-7	NaN
130	1.000000	0.658615	7.36631e+06	-45139.1	955.818	-29774	0.000000	0.000000	6.658998	0.043247	NaN	0.000000	0.001655	0.001693	28.1302	0.024180	0.001954	12.3768	31.1903	-163.63	0.012441	0.657317	-0.419568	-0.420866	0.043247	12.3768	-0.422189	-276342	-1.564973E-7	NaN
130	1.000000	0.666618	7.36631e+06	-45139.1	955.818	-29774	0.000000	0.000000	6.667000	0.005042	NaN	0.000000	0.001652	0.001718	28.1291	0.072911	0.002038	35.7814	-88.9544	-169.435	0.009851	0.665353	-0.411565	-0.412830	0.005042	35.7814	-0.411670	-195951	-2.573103E-8	NaN
130	1.000000	0.674650	7.36631e+06	-45139.1	955.818	-29774	0.000000	0.000000	6.675031	-0.022737	NaN	0.000000	0.001622	0.001696	28.1298	0.056128	0.002106	26.6498	67.5266	-163.956	-0.002831	0.673300	-0.403532	-0.404883	-0.022737	26.6498	-0.402893	-146970	1.547049E-7	NaN
130	1.000000	0.682655	7.36631e+06	-45139.1	955.818	-29774	0.000000	0.000000	6.683036	-0.024210	NaN	0.000000	0.001656	0.001700	28.1293	0.148101	0.002034	72.7951	3.285375	-164.037	0.047200	0.681300	-0.395528	-0.396883	-0.024210	72.7951	-0.395278	-114449	2.115354E-7	NaN
130	1.000000	0.690628	7.36631e+06	-45139.1	955.817	-29774	0.000000	0.000000	6.691008	-0.051591	NaN	0.000000	0.001637	0.001719	28.129	0.070456	0.001959	35.9739	58.135	-164.118	-0.024905	0.689352	-0.387555	-0.388831	-0.051591	35.9739	-0.386479	-85659.2	6.022805E-7	NaN
130	1.000000	0.698628	7.36631e+06	-45139.1	955.818	-29774	0.000000	0.000000	6.699008	-0.037030	NaN	0.000000	0.001521	0.001710	28.1291	0.037633	0.001887	19.9452	48.9506	-164.23	-0.017439	0.697373	-0.379555	-0.380809	-0.037030	19.9452	-0.378162	-65089	5.689146E-7	NaN
130	1.000000	0.706655	7.36631e+06	-45139.1	955.819	-29774	0.000000	0.000000	6.707036	-0.003536	NaN	0.000000	0.001560	0.001684	28.13	0.123955	0.002061	60.1403	41.8399	-166.811	-0.091062	0.705385	-0.371528	-0.372798	-0.003536	60.1403	-0.371484	-52178.5	6.775892E-8	NaN
130	1.000000	0.714669	7.36631e+06	-45139.1	955.819	-29774	0.000000	0.000000	6.715051	0.006386	NaN	0.000000	0.001526	0.001696	28.1304	0.043034	0.002078	20.7136	-95.2166	-164.537	0.019896	0.713305	-0.363514	-0.364877	0.006386	20.7136	-0.363745	-40359.4	-1.582247E-7	NaN
130	1.000000	0.722656	7.36631e+06	-45139.1	955.818	-29774	0.000000	0.000000	6.723038	0.000196	NaN	0.000000	0.001545	0.001693	28.1303	0.107346	0.002018	53.1834	-27.8491	-165.771	0.065677	0.721330	-0.355526	-0.356852	0.000196	53.1834	-0.355529	-30701.5	-6.384182E-9	NaN
130	1.000000	0.730682	7.36631e+06	-45139.1	955.818	-29774	0.000000	0.000000	6.731066	0.060696	NaN	0.000000	0.001539	0.001729	28.1302	0.111725	0.002025	55.183	-93.5051	-164.009	0.060762	0.729367	-0.347501	-0.348815	0.060696	55.183	-0.348326	-24137.7	-2.514562E-6	NaN
130	1.000000	0.738653	7.36631e+06	-45139.1	955.818	-29774	0.000000	0.000000	6.739034	-0.015205	NaN	0.000000	0.001535	0.001717	28.1306	0.093666	0.002060	45.459	69.2301	-164.797	-0.112191	0.737337	-0.339530	-0.340846	-0.015205	45.459	-0.339279	-17825.6	8.529851E-7	NaN
130	1.000000	0.746655	7.36631e+06	-45139.1	955.818	-29774	0.000000	0.000000	6.747037	0.005713	NaN	0.000000	0.001548	0.001727	28.1297	0.070963	0.002140	33.1636	34.7199	-163.193	0.001341	0.745395	-0.331528	-0.332788	0.005713	33.1636	-0.331657	-13794.7	-4.141468E-7	NaN
130	1.000000	0.754672	7.36631e+06	-45139.1	955.818	-29774	0.000000	0.000000	6.755055	0.026608	NaN	0.000000	0.001520	0.001709	28.1295	0.045231	0.001879	24.0713	95.0992	-169.62	-0.038534	0.753335	-0.323511	-0.324847	0.026608	24.0713	-0.324340	-10775.7	-2.469293E-6	NaN
130	1.000000	0.762659	7.36631e+06	-45139.1	955.819	-29774	0.000000	0.000000	6.763041	0.028340	NaN	0.000000	0.001523	0.001711	28.1293	0.083983	0.002030	41.3641	142.667	-165.155	-0.062978	0.761395	-0.315524	-0.316787	0.028340	41.3641	-0.316038	-8133.23	-3.484427E-6	NaN
130	1.000000	0.770686	7.36631e+06	-45139.1	955.818	-29774	0.000000	0.000000	6.771070	0.064115	NaN	0.000000	0.001551	0.001756	28.1293	0.052732	0.001956	26.9525	-59.1601	-165.14	-0.038908	0.769335	-0.307497	-0.308848	0.064115	26.9525	-0.309281	-6462.61	-9.920889E-6	NaN
130	1.000000	0.778679	7.36631e+06	-45139.1	955.818	-29774	0.000000	0.000000	6.779061	0.013474	NaN	0.000000	0.001564	0.001759	28.1299	0.054791	0.002011	27.2499	14.3529	-165.843	0.073936	0.777338	-0.299504	-0.300845	0.013474	27.2499	-0.299875	-4685.63	-2.875592E-6	NaN
130	1.000000	0.786683	7.36631e+06	-45139.1	955.818	-29774	0.000000	0.000000	6.787060	-0.108849	NaN	0.000000	0.001563	0.001716	28.1314	0.096414	0.001977	48.7678	55.7034	-167.345	-0.089434	0.785360	-0.291499	-0.292823	-0.108849	48.7678	-0.289825	-3316.55	3.282006E-5	NaN
130	1.000000	0.794678	7.36631e+06	-45139.1	955.818	-29774	0.000000	0.000000	6.795059	-0.013624	NaN	0.000000	0.001498	0.001756	28.1318	0.038899	0.001978	19.6683	95.5829	-168.644	0.056695	0.793433	-0.283505	-0.284750	-0.013624	19.6683	-0.282985	-2617.91	5.204283E-6	NaN
130	1.000000	0.802694	7.36631e+06	-45139.1	955.818	-29774	0.000000	0.000000	6.803074	-0.045772	NaN	0.000000	0.001541	0.001757	28.132	0.066443	0.001997	33.2643	26.2617	-165.712	-0.035375	0.801395	-0.275489	-0.276788	-0.045772	33.2643	-0.274457	-1946.14	2.351934E-5	NaN
130	1.000000	0.810694	7.36631e+06	-45139.1	955.819	-29774	0.000000	0.000000	6.811076	0.002742	NaN	0.000000	0.001544	0.001750	28.1318	0.064160	0.001946	32.9679	155.715	-165.998	-0.005156	0.809405	-0.267489	-0.268778	0.002742	32.9679	-0.267551	-1528.56	-1.793578E-6	NaN
130	1.000000	0.818693	7.36631e+06	-45139.1	955.818	-29774	0.000000	0.000000	6.819073	-0.054230	NaN	0.000000	0.001556	0.001755	28.1323	0.080629	0.001955	41.2339	-141.812	-163.997	0.031985	0.817339	-0.259489	-0.260844	-0.054230	41.2339	-0.258503	-1111.62	4.878418E-5	NaN
130	1.000000	0.826710	7.36631e+06	-45139.1	955.817	-29774	0.000000	0.000000	6.827089	-0.051765	NaN	0.000000	0.001565	0.001755	28.1305	0.042360	0.001960	21.6149	115.645	-167.566	-0.033325	0.825335	-0.251473	-0.252848	-0.051765	21.6149	-0.249677	-812.763	6.369027E-5	NaN
130	1.000000	0.834707	7.36631e+06	-45139.1	955.818	-29774	0.000000	0.000000	6.835087	-0.032586	NaN	0.000000	0.001519	0.001751	28.1307	0.086242	0.002087	41.3246	-49.3238	-164.944	0.003945	0.833390	-0.243476	-0.244793	-0.032586	41.3246	-0.242885	-637.594	5.110736E-5	NaN
130	1.000000	0.842689	7.36631e+06	-45139.1	955.819	-29774	0.000000	0.000000	6.843071	0.015667	NaN	0.000000	0.001568	0.001750	28.1311	0.143479	0.002019	71.0539	157.072	-167.34	-0.033807	0.841383	-0.235494	-0.236800	0.015667	71.0539	-0.235659	-491.581	-3.186996E-5	NaN
130	1.000000	0.850715	7.36631e+06	-45139.1	955.818	-29774	0.000000	0.000000	6.851101	0.095469	NaN	0.000000	0.001546	0.001719	28.1309	0.120887	0.001956	61.8138	175.121	-164.398	0.056064	0.849483	-0.227468	-0.228699	0.095469	61.8138	-0.228626	-380.895	-0.000251	NaN
130	1.000000	0.858717	7.36631e+06	-45139.1	955.817	-29774	0.000000	0.000000	6.859098	-0.028828	NaN	0.000000	0.001574	0.001710	28.1309	0.018725	0.002039	9.182195	129.359	-164.201	-0.001063	0.857408	-0.219465	-0.220774	-0.028828	9.182195	-0.217111	-249.699	0.000115	NaN
130	1.000000	0.866700	7.36631e+06	-45139.1	955.818	-29774	0.000000	0.000000	6.867080	-0.035135	NaN	0.000000	0.001544	0.001721	28.1319	0.056401	0.001992	28.3093	7.625312	-163.711	-0.011972	0.865373	-0.211483	-0.212810	-0.035135	28.3093	-0.210552	-195.776	0.000179	NaN
130	1.000000	0.874713	7.36631e+06	-45139.1	955.818	-29774	0.000000	0.000000	6.875094	-0.033252	NaN	0.000000	0.001559	0.001733	28.1322	0.071683	0.001970	36.3929	122.534	-166.105	-0.041228	0.873394	-0.203469	-0.204789	-0.033252	36.3929	-0.202784	-146.337	0.000227	NaN
130	1.000000	0.882698	7.36631e+06	-45139.1	955.818	-29774	0.000000	0.000000	6.883080	0.024929	NaN	0.000000	0.001567	0.001777	28.1322	0.078391	0.002073	37.8213	140.286	-165.045	-0.072346	0.881404	-0.195485	-0.196779	0.024929	37.8213	-0.195979	-113.088	-0.000220	NaN
130	1.000000	0.890719	7.36631e+06	-45139.1	955.819	-29774	0.000000	0.000000	6.891100	-0.025568	NaN	0.000000	0.001537	0.001725	28.1318	0.054132	0.002005	26.9969	5.597164	-166.934	-0.130898	0.889415	-0.187464	-0.188768	-0.025568	26.9969	-0.186754	-79.367	0.000322	NaN
130	1.000000	0.898758	7.36631e+06	-45139.1	955.818	-29774	0.000000	0.000000	6.899141	0.038983	NaN	0.000000	0.001524	0.001753	28.1318	0.113087	0.001986	56.9508	130.303	-165.549	0.011790	0.897384	-0.179425	-0.180798	0.038983	56.9508	-0.179938	-60.8712	-0.000640	NaN
130	1.000000	0.906712	7.36631e+06	-45139.1	955.819	-29774	0.000000	0.000000	6.907095	0.041290	NaN	0.000000	0.001538	0.001759	28.1309	0.039371	0.001976	19.9261	36.1957	-166.41	-0.000132	0.905405	-0.171471	-0.172778	0.041290	19.9261	-0.173025	-46.3414	-0.000891	NaN
130	1.000000	0.914726	7.36631e+06	-45139.1	955.817	-29774	0.000000	0.000000	6.915105	-0.061028	NaN	0.000000	0.001566	0.001763	28.1307	0.097283	0.001980	49.1366	-0.035775	-164.667	-0.071156	0.913390	-0.163457	-0.164793	-0.061028	49.1366	-0.162526	-30.3901	0.002008	NaN
130	1.000000	0.922737	7.36631e+06	-45139.1	955.819	-29774	0.000000	0.000000	6.923116	-0.073741	NaN	0.000000	0.001557	0.001751	28.1303	0.041357	0.001948	21.2271	79.6714	-166.732	-0.034910	0.921418	-0.155446	-0.156765	-0.073741	21.2271	-0.152840	-20.3989	0.003615	NaN
130	1.000000	0.930771	7.36631e+06	-45139.1	955.818	-29774	0.000000	0.000000	6.931154	0.043160	NaN	0.000000	0.001547	0.001702	28.1293	0.083619	0.002013	41.5442	148.1	-166.208	0.024608	0.929386	-0.147412	-0.148797	0.043160	41.5442	-0.148191	-16.7856	-0.002571	NaN
130	1.000000	0.938751	7.36631e+06	-45139.1	955.818	-29774	0.000000	0.000000	6.939134	0.015747	NaN	0.000000	0.001551	0.001748	28.1295	0.104860	0.002096	50.0247	-11.9094	-166.907	-0.004165	0.937406	-0.139431	-0.140777	0.015747	50.0247	-0.139668	-11.6605	-0.001350	NaN
130	1.000000	0.946741	7.36631e+06	-45139.1	955.818	-29774	0.000000	0.000000	6.947123	0.003682	NaN	0.000000	0.001546	0.001714	28.1309	0.090406	0.001976	45.7571	140.975	-167.311	-0.004168	0.945490	-0.131442	-0.132693	0.003682	45.7571	-0.131502	-8.149154	-0.000452	NaN
130	1.000000	0.954766	7.36631e+06	-45139.1	955.819	-29774	0.000000	0.000000	6.955147	-0.002096	NaN	0.000000	0.001560	0.001738	28.1304	0.045191	0.002041	22.147	-49.4565	-166.597	0.093770	0.953401	-0.123417	-0.124782	-0.002096	22.147	-0.123346	-5.638442	0.000372	NaN
130	1.000000	0.962759	7.36631e+06	-45139.1	955.819	-29774	0.000000	0.000000	6.963140	-0.002823	NaN	0.000000	0.001559	0.001730	28.1309	0.068060	0.002045	33.2885	-100.515	-164.625	-0.001156	0.961425	-0.115424	-0.116757	-0.002823	33.2885	-0.115360	-3.886246	0.000726	NaN
130	1.000000	0.970753	7.36631e+06	-45139.1	955.819	-29774	0.000000	0.000000	6.971133	-0.043208	NaN	0.000000	0.001606	0.001729	28.1306	0.038982	0.001939	20.1026	-86.9016	-165.101	0.015743	0.969426	-0.107429	-0.108757	-0.043208	20.1026	-0.105817	-2.447904	0.017651	NaN
130	1.000000	0.978774	7.36631e+06	-45139.1	955.819	-29774	0.000000	0.000000	6.979156	0.002938	NaN	0.000000	0.001568	0.001724	28.1309	0.036733	0.002064	17.7932	-35.5169	-167.255	0.005105	0.977426	-0.099408	-0.100757	0.002938	17.7932	-0.099532	-1.783994	-0.001647	NaN
130	1.000000	0.986761	7.36631e+06	-45139.1	955.818	-29774	0.000000	0.000000	6.987142	0.003844	NaN	0.000000	0.001570	0.001737	28.1301	0.071789	0.002006	35.7936	141.937	-164.877	0.026534	0.985467	-0.091422	-0.092715	0.003844	35.7936	-0.091503	-1.171965	-0.003280	NaN
130	1.000000	0.994741	7.36632e+06	-45139.1	955.819	-29774	0.000000	0.000000	6.995123	0.008614	NaN	0.000000	0.001561	0.001713	28.1298	0.074706	0.001954	38.2282	-2.629985	-164.355	0.048799	0.993441	-0.083442	-0.084742	0.008614	38.2282	-0.083611	-0.760177	-0.011332	NaN
130	1.000000	1.002788	7.36632e+06	-45139.1	955.819	-29774	0.000000	0.000000	7.003167	-0.049886	NaN	0.000000	0.001567	0.001719	28.1301	0.084688	0.001898	44.616	-58.7944	-166.125	-0.069196	1.001492	-0.075395	-0.076691	-0.049886	44.616	-0.074556	-0.449809	0.110905	NaN
130	1.000000	1.010762	7.36632e+06	-45139.1	955.819	-29774	0.000000	0.000000	7.011146	0.065812	NaN	0.000000	0.001582	0.001774	28.1298	0.098994	0.002086	47.4545	83.6295	-162.387	0.016868	1.009521	-0.067421	-0.068662	0.065812	47.4545	-0.068461	-0.310052	-0.212262	NaN
130	1.000000	1.018783	7.36632e+06	-45139.1	955.819	-29774	0.000000	0.000000	7.019165	0.008767	NaN	0.000000	0.001560	0.001776	28.1304	0.069627	0.001987	35.0355	176.527	-165.85	-0.065647	1.017488	-0.059399	-0.060694	0.008767	35.0355	-0.059587	-0.175243	-0.050029	NaN
130	1.000000	1.026769	7.36632e+06	-45139.1	955.82	-29774	0.000000	0.000000	7.027153	0.048006	NaN	0.000000	0.001546	0.001770	28.1312	0.060558	0.002063	29.3593	-107.655	-166.032	0.065670	1.025468	-0.051414	-0.052715	0.048006	29.3593	-0.052640	-0.109561	-0.438166	NaN
130	1.000000	1.034801	7.36632e+06	-45139.1	955.82	-29774	0.000000	0.000000	7.035184	0.024886	NaN	0.000000	0.001549	0.001732	28.1307	0.040351	0.001965	20.5374	-172.782	-163.706	0.004277	1.033492	-0.043382	-0.044690	0.024886	20.5374	-0.044290	-0.061135	-0.407060	NaN
130	1.000000	1.042795	7.36632e+06	-45139.1	955.82	-29774	0.000000	0.000000	7.043173	-0.080200	NaN	0.000000	0.001572	0.001755	28.1309	0.075399	0.002110	35.7395	-168.405	-166.045	-0.054467	1.041432	-0.035388	-0.036751	-0.080200	35.7395	-0.033705	-0.029348	2.732744	NaN
130	1.000000	1.050753	7.36632e+06	-45139.1	955.819	-29774	0.000000	0.000000	7.051133	-0.024159	NaN	0.000000	0.001566	0.001767	28.131	0.063697	0.002082	30.594	-14.0124	-170.06	-0.011563	1.049495	-0.027430	-0.028688	-0.024159	30.594	-0.026838	-0.018865	1.280610	NaN
130	1.000000	1.058775	7.36632e+06	-45139.1	955.82	-29774	0.000000	0.000000	7.059156	-0.016355	NaN	0.000000	0.001546	0.001755	28.1313	0.148782	0.002093	71.0744	103.464	-166.943	-0.023189	1.057510	-0.019408	-0.020672	-0.016355	71.0744	-0.019235	-0.012010	1.361819	NaN
130	1.000000	1.066787	7.36632e+06	-45139.1	955.819	-29774	0.000000	0.000000	7.067169	0.020089	NaN	0.000000	0.001581	0.001746	28.1312	0.053390	0.002088	25.5735	146.955	-168.167	-0.017350	1.065514	-0.011396	-0.012669	0.020089	25.5735	-0.011985	-0.007520	-2.671421	NaN
130	1.000000	1.074783	7.36632e+06	-45139.1	955.819	-29774	0.000000	0.000000	7.075167	0.058088	NaN	0.000000	0.001536	0.001766	28.1314	0.070863	0.002079	34.082	56.2029	-167.704	-0.008643	1.073469	-0.003400	-0.004714	0.058088	34.082	-0.004678	-0.003214	-18.0751	NaN
130	1.000000	1.082770	7.36632e+06	-45139.1	955.819	-29774	0.000000	0.000000	7.083232	1.963719	NaN	0.000000	0.001554	0.001720	28.1311	2.836164	0.001883	1506.39	7.021932	-164.815	0.695900	1.081517	0.004587	0.003334	1.963719	1506.39	0.003609	0.002899	677.306	25560.1
130	2.000000	1.088380	7.36632e+06	-45139.1	955.819	-29774	0.000000	0.000000	7.089151	9.479071	NaN	0.000000	0.001554	0.001751	28.1313	9.041934	0.001568	5765.34	2.925933	-171.332	8.188850	1.088161	0.010197	0.009979	9.479071	5765.34	0.008964	0.008053	1177.14	58698.7
130	2.000000	1.090341	7.36632e+06	-45139.1	955.819	-29774	0.000000	0.000000	7.091226	12.2442	NaN	0.000000	0.001555	0.001762	28.1312	11.2058	0.001603	6991.59	3.335248	-173.445	11.1556	1.090052	0.012158	0.011869	12.2442	6991.59	0.010844	0.010135	1208.1	63450.5
130	2.000000	1.092366	7.36632e+06	-45139.1	955.819	-29774	0.000000	0.000000	7.093409	16.088	NaN	0.000000	0.001560	0.001756	28.1322	13.8439	0.001810	7647.2	7.698816	-175.488	15.0855	1.092082	0.014183	0.013900	16.088	7647.2	0.012605	0.012223	1316.2	63195.5
130	2.000000	1.094318	7.36632e+06	-45139.1	955.819	-29774	0.000000	0.000000	7.095530	20.2123	NaN	0.000000	0.001557	0.001744	28.1321	16.2332	0.001734	9364.26	6.253732	-175.729	19.2691	1.094031	0.016135	0.015848	20.2123	9364.26	0.014516	0.014645	1380.12	70696.3
130	2.000000	1.096394	7.36632e+06	-45139.1	955.819	-29774	0.000000	0.000000	7.097713	22.8059	NaN	0.000000	0.001538	0.001758	28.1323	19.2338	0.001851	10390.9	5.668230	-175.851	25.0342	1.096032	0.018211	0.017849	22.8059	10390.9	0.016565	0.017430	1308.44	71908.8
130	2.000000	1.098326	7.36632e+06	-45139.1	955.819	-29774	0.000000	0.000000	7.099877	28.4446	NaN	0.000000	0.001590	0.001727	28.1343	20.7493	0.001699	12216.1	6.184376	-179.18	26.5543	1.098012	0.020144	0.019829	28.4446	12216.1	0.018397	0.020086	1416.14	78751.4
130	2.000000	1.100358	7.36632e+06	-45139.1	955.82	-29774	0.000000	0.000000	7.102077	32.5331	NaN	0.000000	0.001522	0.001753	28.1322	22.887	0.001773	12911.2	4.657868	-176.401	34.1571	1.100036	0.022175	0.021853	32.5331	12911.2	0.020285	0.022992	1414.96	77794.5
130	2.000000	1.102355	7.36632e+06	-45139.1	955.819	-29774	0.000000	0.000000	7.104224	36.1657	NaN	0.000000	0.001552	0.001725	28.1313	25.7629	0.001836	14032.9	6.406866	-178.877	36.5455	1.102043	0.024173	0.023860	36.1657	14032.9	0.022240	0.026185	1381.18	79231.7
130	2.000000	1.104302	7.36632e+06	-45139.1	955.82	-29774	0.000000	0.000000	7.106360	40.7718	NaN	0.000000	0.001535	0.001748	28.1313	26.7442	0.001692	15809.3	3.149005	-177.219	40.0473	1.103952	0.026119	0.025769	40.7718	15809.3	0.024185	0.029550	1379.75	84024.7
130	2.000000	1.106282	7.36632e+06	-45139.1	955.819	-29774	0.000000	0.000000	7.108747	50.6767	NaN	0.000000	0.001555	0.001723	28.1312	30.7955	0.001801	17101.4	4.823770	179.146	49.3264	1.106009	0.028099	0.027827	50.6767	17101.4	0.025877	0.032630	1553.07	86496.4
130	2.000000	1.108275	7.36632e+06	-45139.1	955.819	-29774	0.000000	0.000000	7.111060	58.4688	NaN	0.000000	0.001542	0.001726	28.1316	31.838	0.001806	17630	8.567376	175.424	57.8899	1.107949	0.030093	0.029766	58.4688	17630	0.027605	0.035926	1627.47	84980.4
130	2.000000	1.110296	7.36632e+06	-45139.1	955.818	-29774	0.000000	0.000000	7.113192	61.1738	NaN	0.000000	0.001561	0.001759	28.1311	34.2107	0.001838	18610.3	6.540446	177.829	60.8537	1.109912	0.032113	0.031730	61.1738	18610.3	0.029648	0.040017	1528.7	84997.4
130	2.000000	1.112240	7.36632e+06	-45139.1	955.819	-29774	0.000000	0.000000	7.115423	68.1376	NaN	0.000000	0.001509	0.001761	28.1326	35.6261	0.001768	20145.9	2.650028	-178.882	64.9983	1.111908	0.034057	0.033725	68.1376	20145.9	0.031521	0.043954	1550.19	87792.9
130	2.000000	1.114354	7.36632e+06	-45139.1	955.82	-29774	0.000000	0.000000	7.117852	75.8112	NaN	0.000000	0.001525	0.001760	28.1322	37.4922	0.001905	19680.8	11.1948	175.447	80.9493	1.113909	0.036171	0.035726	75.8112	19680.8	0.033282	0.047822	1585.28	82224.5
130	2.000000	1.116250	7.36632e+06	-45139.1	955.819	-29774	0.000000	0.000000	7.119835	77.9369	NaN	0.000000	0.001557	0.001753	28.1318	39.8265	0.001800	22127.1	3.940922	178.688	75.5993	1.116052	0.038067	0.037870	77.9369	22127.1	0.035426	0.052742	1477.71	88028.1
130	2.000000	1.118183	7.36632e+06	-45139.1	955.819	-29774	0.000000	0.000000	7.122412	93.6029	NaN	0.000000	0.001550	0.001759	28.1316	40.4769	0.001665	24311.6	-0.225569	-177.499	88.5077	1.117900	0.040000	0.039718	93.6029	24311.6	0.037112	0.056779	1648.56	93216.8
130	2.000000	1.120239	7.36632e+06	-45139.1	955.82	-29774	0.000000	0.000000	7.124545	95.478	NaN	0.000000	0.001623	0.001745	28.1311	43.7509	0.001806	24225.8	4.720124	176.98	93.9541	1.119960	0.042056	0.041777	95.478	24225.8	0.039100	0.061723	1546.88	89089.9
130	2.000000	1.122298	7.36632e+06	-45139.1	955.818	-29774	0.000000	0.000000	7.126977	104.558	NaN	0.000000	0.001606	0.001762	28.1306	45.018	0.001686	26705.1	1.623973	179.837	103.677	1.122033	0.044115	0.043850	104.558	26705.1	0.041179	0.067110	1558.02	94183.3
130	2.000000	1.124271	7.36632e+06	-45139.1	955.819	-29774	0.000000	0.000000	7.129352	114.34	NaN	0.000000	0.001617	0.001753	28.1305	48.0099	0.001783	26930.2	6.886190	175.024	115.346	1.123831	0.046088	0.045648	114.34	26930.2	0.042903	0.071747	1593.66	91856.6
130	2.000000	1.126334	7.36632e+06	-45139.1	955.819	-29774	0.000000	0.000000	7.131734	122.09	NaN	0.000000	0.001607	0.001740	28.1303	50.0964	0.001981	25286.6	6.027484	177.404	125.577	1.125946	0.048151	0.047764	122.09	25286.6	0.044530	0.076259	1600.99	83660
130	2.000000	1.128234	7.36632e+06	-45139.1	955.819	-29774	0.000000	0.000000	7.133936	129.414	NaN	0.000000	0.001617	0.001744	28.1301	50.7693	0.001809	28060.5	7.318123	174.073	130.342	1.127880	0.050052	0.049697	129.414	28060.5	0.046593	0.082173	1574.9	89434.5
130	2.000000	1.130225	7.36632e+06	-45139.1	955.82	-29774	0.000000	0.000000	7.136242	137.088	NaN	0.000000	0.001620	0.001774	28.1299	52.6163	0.001642	32049.9	5.151200	174.418	134.968	1.130004	0.052043	0.051822	137.088	32049.9	0.048835	0.088845	1543	98239
130	2.000000	1.132341	7.36632e+06	-45139.1	955.819	-29774	0.000000	0.000000	7.138812	148.156	NaN	0.000000	0.001614	0.001781	28.1311	55.5585	0.001862	29836	8.065763	174.67	149.731	1.131873	0.054158	0.053691	148.156	29836	0.050434	0.093758	1580.2	89024.7
130	2.000000	1.134274	7.36632e+06	-45139.1	955.82	-29774	0.000000	0.000000	7.141089	156.522	NaN	0.000000	0.001620	0.001765	28.1316	58.0072	0.001763	32895	6.325105	173.536	158.166	1.133881	0.056091	0.055698	156.522	32895	0.052522	0.100368	1559.48	94864.9
130	2.000000	1.136195	7.36632e+06	-45139.1	955.819	-29774	0.000000	0.000000	7.143496	168.318	NaN	0.000000	0.001609	0.001738	28.1312	59.1493	0.001678	35249.9	0.472858	178.546	164.081	1.135896	0.058013	0.057714	168.318	35249.9	0.054431	0.106601	1578.96	98639.5
130	2.000000	1.138223	7.36632e+06	-45139.1	955.82	-29774	0.000000	0.000000	7.146039	180.854	NaN	0.000000	0.001583	0.001743	28.1317	61.1826	0.001718	35604.2	3.730412	174.92	179.304	1.137935	0.060041	0.059752	180.854	35604.2	0.056231	0.112641	1605.58	96923
130	2.000000	1.140275	7.36632e+06	-45139.1	955.819	-29774	0.000000	0.000000	7.148513	191.106	NaN	0.000000	0.001590	0.001733	28.1313	64.6954	0.001860	34776.1	8.313974	171.11	191.467	1.139923	0.062093	0.061740	191.106	34776.1	0.057971	0.118633	1610.89	92246.6
130	2.000000	1.142270	7.36632e+06	-45139.1	955.819	-29774	0.000000	0.000000	7.151196	207.868	NaN	0.000000	0.001620	0.001723	28.1301	67.178	0.001824	36836.2	11.7415	168.681	207.47	1.141763	0.064087	0.063580	207.868	36836.2	0.059855	0.125288	1659.12	95080.8
130	2.000000	1.144179	7.36632e+06	-45139.1	955.819	-29774	0.000000	0.000000	7.153529	218.175	NaN	0.000000	0.001590	0.001757	28.131	66.5349	0.001696	39225.8	1.759796	175.999	214.589	1.143865	0.065997	0.065682	218.175	39225.8	0.061825	0.132434	1647.42	98479.3
130	2.000000	1.146143	7.36632e+06	-45139.1	955.82	-29774	0.000000	0.000000	7.156112	233.226	NaN	0.000000	0.001570	0.001717	28.1305	70.102	0.001789	39194.3	6.430898	171.789	228.55	1.145812	0.067960	0.067629	233.226	39194.3	0.063497	0.138647	1682.15	96170.2
130	2.000000	1.148164	7.36632e+06	-45139.1	955.82	-29774	0.000000	0.000000	7.158700	247.028	NaN	0.000000	0.001581	0.001776	28.1306	69.9344	0.001692	41331.4	3.021322	175.15	242.69	1.147741	0.069982	0.069558	247.028	41331.4	0.065499	0.146262	1688.94	98738.7
130	2.000000	1.150209	7.36632e+06	-45139.1	955.82	-29774	0.000000	0.000000	7.160596	243.406	NaN	0.000000	0.001559	0.001784	28.1315	74.0009	0.001847	40057.6	3.644686	174.451	241.921	1.149962	0.072026	0.071779	243.406	40057.6	0.067469	0.153944	1581.13	93277.4
130	2.000000	1.152140	7.36632e+06	-45139.1	955.82	-29774	0.000000	0.000000	7.163331	262.97	NaN	0.000000	0.001559	0.001773	28.1324	75.1722	0.001841	40835.3	3.029394	174.994	257.877	1.151924	0.073957	0.073741	262.97	40835.3	0.069127	0.160555	1637.88	93110
130	2.000000	1.154314	7.36632e+06	-45139.1	955.82	-29774	0.000000	0.000000	7.166021	275.508	NaN	0.000000	0.001560	0.001735	28.1329	77.1111	0.001780	43322.4	8.561750	169.375	279.839	1.153918	0.076131	0.075735	275.508	43322.4	0.071362	0.169671	1623.78	96091
130	2.000000	1.156201	7.36632e+06	-45139.1	955.82	-29774	0.000000	0.000000	7.168467	289.123	NaN	0.000000	0.001559	0.001692	28.1326	79.0579	0.001813	43597.4	5.205166	171.935	286.326	1.155978	0.078018	0.077795	289.123	43597.4	0.073044	0.176691	1636.31	94760.1
130	2.000000	1.158228	7.36632e+06	-45139.1	955.82	-29774	0.000000	0.000000	7.170921	299.501	NaN	0.000000	0.001552	0.001729	28.1328	79.649	0.001747	45601.7	6.091783	171.032	297.314	1.157904	0.080045	0.079721	299.501	45601.7	0.075119	0.185534	1614.27	96725.9
130	2.000000	1.160221	7.36632e+06	-45139.1	955.821	-29774	0.000000	0.000000	7.173787	320.719	NaN	0.000000	0.001567	0.001753	28.1329	82.1482	0.001765	46551.7	8.007699	170.203	321.926	1.159780	0.082039	0.081598	320.719	46551.7	0.076872	0.193158	1660.39	96772.5
130	2.000000	1.162186	7.36632e+06	-45139.1	955.821	-29774	0.000000	0.000000	7.176516	339.324	NaN	0.000000	0.001526	0.001739	28.1316	83.0818	0.001658	50117.1	3.218277	173.967	335.923	1.161899	0.084003	0.083716	339.324	50117.1	0.078925	0.202277	1677.52	101809
130	2.000000	1.164120	7.36632e+06	-45139.1	955.821	-29774	0.000000	0.000000	7.179365	361.584	NaN	0.000000	0.001524	0.001724	28.132	85.5862	0.001761	48606.6	5.834969	171.003	356.361	1.163862	0.085937	0.085679	361.584	48606.6	0.080358	0.208755	1732.1	97196.3
130	2.000000	1.166201	7.36632e+06	-45139.1	955.821	-29774	0.000000	0.000000	7.182025	375.679	NaN	0.000000	0.001562	0.001702	28.1315	89.5859	0.001731	51765.8	6.307460	169.807	374.381	1.165837	0.088018	0.087654	375.679	51765.8	0.082575	0.218971	1715.66	101070
130	2.000000	1.168500	7.36632e+06	-45139.1	955.82	-29774	0.000000	0.000000	7.184039	368.721	NaN	0.000000	0.001567	0.001668	28.1318	89.4909	0.001663	53814.6	3.405337	173.512	385.855	1.168098	0.090318	0.089916	368.721	53814.6	0.085179	0.231255	1594.43	102242
130	2.000000	1.170283	7.36632e+06	-45139.1	955.82	-29774	0.000000	0.000000	7.186391	382.583	NaN	0.000000	0.001538	0.001777	28.1319	92.7824	0.001769	52443.9	6.287101	170.166	389.959	1.169923	0.092100	0.091740	382.583	52443.9	0.086629	0.238234	1605.91	98167.2
130	2.000000	1.172181	7.36632e+06	-45139.1	955.82	-29774	0.000000	0.000000	7.189636	415.351	NaN	0.000000	0.001537	0.001745	28.1325	94.3297	0.001792	52634.4	6.270566	171.04	412.291	1.171711	0.093998	0.093528	415.351	52634.4	0.088080	0.245312	1693.16	97091.9
130	2.000000	1.174125	7.36632e+06	-45139.1	955.821	-29774	0.000000	0.000000	7.192359	434.293	NaN	0.000000	0.001572	0.001782	28.1327	95.5968	0.001814	52711.2	4.670466	171.52	429.553	1.173816	0.095942	0.095633	434.293	52711.2	0.089763	0.253645	1712.21	95623.1
130	2.000000	1.176193	7.36632e+06	-45139.1	955.821	-29774	0.000000	0.000000	7.195288	455.24	NaN	0.000000	0.001535	0.001728	28.1325	97.0582	0.001759	55178.3	-0.442861	176.896	453.744	1.175870	0.098010	0.097687	455.24	55178.3	0.091823	0.264019	1724.27	98112.3
130	2.000000	1.178212	7.36632e+06	-45139.1	955.82	-29774	0.000000	0.000000	7.198129	475.228	NaN	0.000000	0.001566	0.001747	28.1328	99.1283	0.001849	53620.7	7.617222	169.418	475.774	1.177780	0.100029	0.099597	475.228	53620.7	0.093382	0.272003	1747.14	93933.1
130	2.000000	1.180273	7.36632e+06	-45139.1	955.82	-29774	0.000000	0.000000	7.200545	483.874	NaN	0.000000	0.001577	0.001765	28.1332	101.571	0.001723	58960.9	3.124387	172.811	488.198	1.179909	0.102090	0.101726	483.874	58960.9	0.095935	0.285313	1695.94	100850
130	2.000000	1.182071	7.36632e+06	-45139.1	955.821	-29774	0.000000	0.000000	7.202926	498.051	NaN	0.000000	0.001604	0.001793	28.1313	104.685	0.001795	58310.3	4.104328	171.265	489.03	1.181843	0.103888	0.103660	498.051	58310.3	0.097482	0.293524	1696.8	98332.4
130	2.000000	1.184174	7.36632e+06	-45139.1	955.821	-29774	0.000000	0.000000	7.205736	515.248	NaN	0.000000	0.001580	0.001752	28.1307	105.993	0.001746	60689.7	2.900859	172.789	516.234	1.183905	0.105992	0.105722	515.248	60689.7	0.099624	0.305071	1688.94	100389
130	2.000000	1.186293	7.36632e+06	-45139.1	955.821	-29774	0.000000	0.000000	7.208589	533.124	NaN	0.000000	0.001576	0.001771	28.1304	109.144	0.001606	67978.5	6.768019	167.862	538.638	1.185904	0.108110	0.107721	533.124	67978.5	0.102228	0.319390	1669.19	109896