File: remote_trans/data/nanoindenter/0828-1/data/Data_2025-08-06,11h17m57s/2025-07-22_16-23-58_1_1012.txt
2025-07-22, 16:23:58, 1
Index	Phase	Displacement	Time	Pos X	Pos Y	Pos Z	Rot A	Rot B	Piezo Z	Force A	Force B	Gripper	Voltage A	Voltage B	Temperature	Amplitude force	Amplitude pos	Stiffness	Phase shift	Phase excitation	Force A raw	Displacement raw	HMax	HMax raw	Real Force	Real Stiffness	Contact Depth	Area	Hardness	Reduced Mod.
[#]	[#]	[um]	[s]	[um]	[um]	[um]	[m°]	[m°]	[um]	[uN]	[uN]	[V]	[V]	[V]	[°C]	[uN]	[um]	[N/m]	[°]	[°]	[uN]	[um]	[um]	[um]	[uN]	[N/m]	[um]	[um^2]	[MPa]	[MPa]
1012	1.000000	0.002382	7.37495e+06	-50739.1	1055.82	-29754.7	0.000000	0.000000	6.002806	-0.048441	NaN	0.000000	0.001576	0.001693	28.0843	0.010719	0.001088	9.848146	-77.9941	-164.893	0.010245	0.001108	-1.045955	-1.047228	-0.048441	9.848146	-1.042266	-8.403037E+13	5.764645E-16	NaN
1012	1.000000	0.010321	7.37495e+06	-50739.1	1055.82	-29754.7	0.000000	0.000000	6.010745	-0.059225	NaN	0.000000	0.001544	0.001676	28.0841	0.024288	0.000988	24.5798	76.9156	-161.216	-0.061959	0.008989	-1.038015	-1.039348	-0.059225	24.5798	-1.036208	-6.965893E+13	8.502102E-16	NaN
1012	1.000000	0.018302	7.37495e+06	-50739.1	1055.82	-29754.7	0.000000	0.000000	6.018726	-0.038117	NaN	0.000000	0.001532	0.001665	28.0842	0.097118	0.001709	56.8243	112.565	-164.875	-0.064934	0.017006	-1.030035	-1.031331	-0.038117	56.8243	-1.029532	-5.664778E+13	6.728801E-16	NaN
1012	1.000000	0.026372	7.37495e+06	-50739.1	1055.82	-29754.7	0.000000	0.000000	6.026797	-0.024181	NaN	0.000000	0.001519	0.001713	28.0845	0.072954	0.001879	38.8323	1.939541	-163.355	-0.049977	0.025051	-1.021965	-1.023286	-0.024181	38.8323	-1.021498	-4.416779E+13	5.474909E-16	NaN
1012	1.000000	0.034329	7.37495e+06	-50739.1	1055.82	-29754.7	0.000000	0.000000	6.034752	-0.058217	NaN	0.000000	0.001555	0.001715	28.084	0.055264	0.001871	29.5431	176.945	-161.26	-0.016145	0.033043	-1.014008	-1.015294	-0.058217	29.5431	-1.012530	-3.345297E+13	1.740260E-15	NaN
1012	1.000000	0.042336	7.37495e+06	-50739.1	1055.82	-29754.7	0.000000	0.000000	6.042763	0.015336	NaN	0.000000	0.001559	0.001696	28.085	0.033392	0.002002	16.6803	10.3445	-166.242	-0.024333	0.041040	-1.006000	-1.007297	0.015336	16.6803	-1.006690	-2.791435E+13	-5.493849E-16	NaN
1012	1.000000	0.050324	7.37495e+06	-50739.1	1055.82	-29754.7	0.000000	0.000000	6.050750	0.000450	NaN	0.000000	0.001558	0.001674	28.0838	0.083228	0.001860	44.7401	166.667	-165.515	-0.006854	0.048993	-0.998013	-0.999343	0.000450	44.7401	-0.998021	-2.133625E+13	-2.109407E-17	NaN
1012	1.000000	0.058329	7.37495e+06	-50739.1	1055.82	-29754.7	0.000000	0.000000	6.058755	0.003600	NaN	0.000000	0.001548	0.001715	28.0827	0.044302	0.001918	23.1011	26.6988	-167.116	-0.120761	0.057026	-0.990008	-0.991311	0.003600	23.1011	-0.990125	-1.670302E+13	-2.155432E-16	NaN
1012	1.000000	0.066317	7.37495e+06	-50739.1	1055.82	-29754.7	0.000000	0.000000	6.066741	-0.069225	NaN	0.000000	0.001570	0.001667	28.0829	0.017565	0.001975	8.893746	88.8549	-164.073	-0.045527	0.065009	-0.982019	-0.983327	-0.069225	8.893746	-0.976182	-1.083842E+13	6.386987E-15	NaN
1012	1.000000	0.074298	7.37495e+06	-50739.1	1055.82	-29754.7	0.000000	0.000000	6.074722	-0.053028	NaN	0.000000	0.001598	0.001650	28.0827	0.029715	0.002100	14.1466	71.0656	-164.402	0.042864	0.073027	-0.974039	-0.975310	-0.053028	14.1466	-0.971228	-9.294120E+12	5.705574E-15	NaN
1012	1.000000	0.082300	7.37495e+06	-50739.1	1055.82	-29754.7	0.000000	0.000000	6.082723	-0.084586	NaN	0.000000	0.001559	0.001640	28.083	0.059787	0.002086	28.663	150.253	-167.785	-0.121795	0.081069	-0.966037	-0.967268	-0.084586	28.663	-0.963823	-7.386014E+12	1.145222E-14	NaN
1012	1.000000	0.090313	7.37495e+06	-50739.1	1055.82	-29754.7	0.000000	0.000000	6.090738	-0.026786	NaN	0.000000	0.001566	0.001673	28.0828	0.048323	0.001915	25.2294	179.994	-163.582	-0.031027	0.089013	-0.958024	-0.959324	-0.026786	25.2294	-0.957228	-6.018518E+12	4.450669E-15	NaN
1012	1.000000	0.098362	7.37495e+06	-50739.1	1055.82	-29754.7	0.000000	0.000000	6.098786	-0.048252	NaN	0.000000	0.001557	0.001686	28.0826	0.046025	0.001977	23.2772	146.958	-164.949	-0.101582	0.097023	-0.949975	-0.951314	-0.048252	23.2772	-0.948420	-4.578448E+12	1.053893E-14	NaN
1012	1.000000	0.106323	7.37495e+06	-50739.1	1055.82	-29754.7	0.000000	0.000000	6.106746	-0.088235	NaN	0.000000	0.001543	0.001682	28.0827	0.102437	0.002009	50.9839	-59.1593	-164.203	-0.078033	0.105087	-0.942013	-0.943249	-0.088235	50.9839	-0.940715	-3.604038E+12	2.448227E-14	NaN
1012	1.000000	0.114338	7.37495e+06	-50739.1	1055.82	-29754.7	0.000000	0.000000	6.114762	-0.054630	NaN	0.000000	0.001556	0.001671	28.0827	0.084777	0.002013	42.1153	140.081	-166.766	-0.025163	0.113006	-0.933999	-0.935330	-0.054630	42.1153	-0.933026	-2.838156E+12	1.924837E-14	NaN
1012	1.000000	0.122342	7.37495e+06	-50739.1	1055.82	-29754.7	0.000000	0.000000	6.122768	-0.005781	NaN	0.000000	0.001555	0.001666	28.0829	0.043556	0.002040	21.3515	-90.383	-166.508	0.036717	0.121060	-0.925995	-0.927277	-0.005781	21.3515	-0.925792	-2.266704E+12	2.550200E-15	NaN
1012	1.000000	0.130349	7.37495e+06	-50739.1	1055.82	-29754.7	0.000000	0.000000	6.130773	-0.053279	NaN	0.000000	0.001536	0.001699	28.0829	0.050916	0.002036	25.0057	-69.7881	-162.683	0.016489	0.129047	-0.917987	-0.919290	-0.053279	25.0057	-0.916389	-1.692207E+12	3.148493E-14	NaN
1012	1.000000	0.138356	7.37495e+06	-50739.1	1055.82	-29754.7	0.000000	0.000000	6.138784	0.045174	NaN	0.000000	0.001555	0.001644	28.0836	0.011503	0.001860	6.184365	-66.7236	-167.309	0.007854	0.136986	-0.909980	-0.911351	0.045174	6.184365	-0.915459	-1.643942E+12	-2.747892E-14	NaN
1012	1.000000	0.146379	7.37495e+06	-50739.1	1055.82	-29754.7	0.000000	0.000000	6.146802	-0.086072	NaN	0.000000	0.001514	0.001657	28.083	0.049227	0.002128	23.1339	-127.835	-165.888	-0.046534	0.145017	-0.901958	-0.903320	-0.086072	23.1339	-0.899167	-9.904035E+11	8.690633E-14	NaN
1012	1.000000	0.154378	7.37495e+06	-50739.1	1055.82	-29754.7	0.000000	0.000000	6.154802	-0.054750	NaN	0.000000	0.001605	0.001638	28.0831	0.101786	0.001993	51.0663	6.210943	-164.901	-0.019816	0.153072	-0.893959	-0.895264	-0.054750	51.0663	-0.893155	-8.214111E+11	6.665353E-14	NaN
1012	1.000000	0.162384	7.37495e+06	-50739.1	1055.82	-29754.7	0.000000	0.000000	6.162809	-0.028685	NaN	0.000000	0.001617	0.001663	28.083	0.014483	0.002037	7.110435	30.6489	-165.533	-0.006070	0.161057	-0.885953	-0.887280	-0.028685	7.110435	-0.882927	-5.974311E+11	4.801415E-14	NaN
1012	1.000000	0.170353	7.37495e+06	-50739.1	1055.82	-29754.7	0.000000	0.000000	6.170777	-0.060635	NaN	0.000000	0.001608	0.001655	28.083	0.110619	0.002107	52.5025	-134.229	-163.279	0.000474	0.169072	-0.877984	-0.879265	-0.060635	52.5025	-0.877117	-4.985677E+11	1.216184E-13	NaN
1012	1.000000	0.178380	7.37495e+06	-50739.1	1055.82	-29754.7	0.000000	0.000000	6.178802	-0.088193	NaN	0.000000	0.001564	0.001679	28.0831	0.058376	0.002077	28.1093	-117.482	-165.797	-0.055833	0.177027	-0.869957	-0.871310	-0.088193	28.1093	-0.867604	-3.707022E+11	2.379081E-13	NaN
1012	1.000000	0.186411	7.37495e+06	-50739.1	1055.82	-29754.7	0.000000	0.000000	6.186835	-0.058204	NaN	0.000000	0.001564	0.001648	28.0831	0.080228	0.001934	41.4885	-159.348	-161.855	-0.107980	0.185055	-0.861926	-0.863281	-0.058204	41.4885	-0.860874	-3.005712E+11	1.936439E-13	NaN
1012	1.000000	0.194388	7.37495e+06	-50739.1	1055.82	-29754.7	0.000000	0.000000	6.194812	-0.054174	NaN	0.000000	0.001546	0.001698	28.0841	0.173135	0.001818	95.2318	-91.7898	-167.203	-0.063034	0.193049	-0.853949	-0.855287	-0.054174	95.2318	-0.853522	-2.390172E+11	2.266531E-13	NaN
1012	1.000000	0.202354	7.37495e+06	-50739.1	1055.82	-29754.7	0.000000	0.000000	6.202780	-0.007389	NaN	0.000000	0.001584	0.001687	28.0839	0.052136	0.002010	25.9318	-127.392	-167.508	-0.097059	0.201080	-0.845982	-0.847257	-0.007389	25.9318	-0.845769	-1.876873E+11	3.936625E-14	NaN
1012	1.000000	0.210411	7.37495e+06	-50739.1	1055.82	-29754.7	0.000000	0.000000	6.210834	-0.083323	NaN	0.000000	0.001583	0.001694	28.084	0.023677	0.002065	11.4682	-162.235	-166.262	-0.097654	0.209086	-0.837926	-0.839251	-0.083323	11.4682	-0.832477	-1.239795E+11	6.720709E-13	NaN
1012	1.000000	0.218377	7.37495e+06	-50739.1	1055.82	-29754.7	0.000000	0.000000	6.218798	-0.124155	NaN	0.000000	0.001627	0.001676	28.0842	0.065828	0.002025	32.514	43.069	-167.947	-0.112132	0.217069	-0.829960	-0.831268	-0.124155	32.514	-0.827096	-1.048144E+11	1.184518E-12	NaN
1012	1.000000	0.226412	7.37495e+06	-50739.1	1055.82	-29754.7	0.000000	0.000000	6.226836	-0.057115	NaN	0.000000	0.001598	0.001702	28.0839	0.108072	0.001795	60.2042	18.4801	-166.132	-0.098302	0.225111	-0.821924	-0.823225	-0.057115	60.2042	-0.821213	-8.722865E+10	6.547732E-13	NaN
1012	1.000000	0.234412	7.37495e+06	-50739.1	1055.82	-29754.7	0.000000	0.000000	6.234837	-0.023175	NaN	0.000000	0.001620	0.001733	28.0843	0.005619	0.002105	2.669007	-179.14	-165.237	0.055374	0.233080	-0.813925	-0.815257	-0.023175	2.669007	-0.807413	-5.668463E+10	4.088437E-13	NaN
1012	1.000000	0.242398	7.37495e+06	-50739.1	1055.82	-29754.7	0.000000	0.000000	6.242820	-0.101627	NaN	0.000000	0.001544	0.001681	28.0841	0.121729	0.001949	62.4448	-85.5452	-166.179	-0.072280	0.241084	-0.805939	-0.807252	-0.101627	62.4448	-0.804718	-5.210781E+10	1.950318E-12	NaN
1012	1.000000	0.250403	7.37495e+06	-50739.1	1055.82	-29754.7	0.000000	0.000000	6.250828	-0.036651	NaN	0.000000	0.001540	0.001677	28.0841	0.048406	0.001919	25.2253	-136.995	-162.45	-0.089773	0.249071	-0.797933	-0.799266	-0.036651	25.2253	-0.796844	-4.073913E+10	8.996608E-13	NaN
1012	1.000000	0.258406	7.37495e+06	-50739.1	1055.82	-29754.7	0.000000	0.000000	6.258830	-0.040886	NaN	0.000000	0.001518	0.001698	28.0838	0.091558	0.002012	45.5057	-95.429	-167.139	-0.111434	0.257053	-0.789931	-0.791284	-0.040886	45.5057	-0.789257	-3.213629E+10	1.272262E-12	NaN
1012	1.000000	0.266397	7.37495e+06	-50739.1	1055.82	-29754.7	0.000000	0.000000	6.266820	-0.073617	NaN	0.000000	0.001521	0.001725	28.0837	0.104848	0.001975	53.076	-82.3694	-165.505	0.009553	0.265062	-0.781939	-0.783275	-0.073617	53.076	-0.780899	-2.474282E+10	2.975288E-12	NaN
1012	1.000000	0.274429	7.37495e+06	-50739.1	1055.82	-29754.7	0.000000	0.000000	6.274852	-0.061381	NaN	0.000000	0.001490	0.001677	28.0839	0.016895	0.001985	8.511993	154.835	-165.834	-0.016474	0.273114	-0.773908	-0.775222	-0.061381	8.511993	-0.768500	-1.678432E+10	3.657039E-12	NaN
1012	1.000000	0.282438	7.37495e+06	-50739.1	1055.82	-29754.7	0.000000	0.000000	6.282862	-0.056107	NaN	0.000000	0.001525	0.001682	28.0839	0.048060	0.002126	22.6108	22.4196	-162.487	-0.012770	0.281125	-0.765899	-0.767212	-0.056107	22.6108	-0.764037	-1.459562E+10	3.844092E-12	NaN
1012	1.000000	0.290435	7.37495e+06	-50739.1	1055.82	-29754.7	0.000000	0.000000	6.290857	-0.110793	NaN	0.000000	0.001548	0.001695	28.084	0.076866	0.002046	37.5629	25.2161	-163.574	-0.072776	0.289115	-0.757901	-0.759222	-0.110793	37.5629	-0.755689	-1.123704E+10	9.859629E-12	NaN
1012	1.000000	0.298435	7.37495e+06	-50739.1	1055.82	-29754.7	0.000000	0.000000	6.298859	-0.061414	NaN	0.000000	0.001526	0.001713	28.0835	0.071096	0.002034	34.9579	158.923	-165.351	0.014508	0.297097	-0.749902	-0.751240	-0.061414	34.9579	-0.748584	-8.993869E+9	6.828437E-12	NaN
1012	1.000000	0.306398	7.37495e+06	-50739.1	1055.82	-29754.7	0.000000	0.000000	6.306822	-0.049174	NaN	0.000000	0.001519	0.001694	28.0837	0.058023	0.001967	29.5017	-134.985	-162.719	-0.058899	0.305104	-0.741939	-0.743232	-0.049174	29.5017	-0.740688	-7.021559E+9	7.003287E-12	NaN
1012	1.000000	0.314421	7.37495e+06	-50739.1	1055.82	-29754.7	0.000000	0.000000	6.314844	-0.057533	NaN	0.000000	0.001506	0.001686	28.0838	0.068999	0.002096	32.9139	-173.848	-163.364	-0.062901	0.313128	-0.733916	-0.735208	-0.057533	32.9139	-0.732605	-5.448923E+9	1.055866E-11	NaN
1012	1.000000	0.322428	7.37495e+06	-50739.1	1055.82	-29754.7	0.000000	0.000000	6.322853	-0.012993	NaN	0.000000	0.001607	0.001667	28.0838	0.076590	0.002032	37.6874	161.104	-164.672	-0.065007	0.321095	-0.725909	-0.727241	-0.012993	37.6874	-0.725650	-4.380443E+9	2.966101E-12	NaN
1012	1.000000	0.330447	7.37495e+06	-50739.1	1055.82	-29754.7	0.000000	0.000000	6.330872	-0.036908	NaN	0.000000	0.001637	0.001678	28.0825	0.049727	0.001963	25.3269	-63.5029	-165.07	-0.090900	0.329121	-0.717890	-0.719216	-0.036908	25.3269	-0.716797	-3.317293E+9	1.112589E-11	NaN
1012	1.000000	0.338458	7.37495e+06	-50739.1	1055.82	-29754.7	0.000000	0.000000	6.338880	-0.102926	NaN	0.000000	0.001649	0.001674	28.0825	0.118597	0.002014	58.8838	-11.7731	-161.886	-0.071603	0.337100	-0.709879	-0.711237	-0.102926	58.8838	-0.708568	-2.561557E+9	4.018091E-11	NaN
1012	1.000000	0.346491	7.37495e+06	-50739.1	1055.82	-29754.7	0.000000	0.000000	6.346915	-0.053595	NaN	0.000000	0.001658	0.001647	28.083	0.023287	0.002036	11.4386	11.0494	-165.318	-0.105477	0.345184	-0.701845	-0.703153	-0.053595	11.4386	-0.698331	-1.856688E+9	2.886594E-11	NaN
1012	1.000000	0.354448	7.37495e+06	-50739.1	1055.82	-29754.7	0.000000	0.000000	6.354869	-0.137826	NaN	0.000000	0.001642	0.001670	28.0828	0.077528	0.002075	37.3539	-171.888	-164.707	-0.120580	0.353123	-0.693888	-0.695214	-0.137826	37.3539	-0.691121	-1.479916E+9	9.313086E-11	NaN
1012	1.000000	0.362457	7.37495e+06	-50739.1	1055.82	-29754.7	0.000000	0.000000	6.362881	-0.047367	NaN	0.000000	0.001617	0.001718	28.0829	0.115956	0.001956	59.2705	48.1895	-164.484	-0.088263	0.361168	-0.685880	-0.687169	-0.047367	59.2705	-0.685280	-1.231415E+9	3.846574E-11	NaN
1012	1.000000	0.370465	7.37495e+06	-50739.1	1055.82	-29754.7	0.000000	0.000000	6.370887	-0.100221	NaN	0.000000	0.001636	0.001700	28.0829	0.027346	0.001957	13.9763	-110.481	-164.471	-0.078009	0.369206	-0.677872	-0.679131	-0.100221	13.9763	-0.672494	-8.232213E+8	1.217419E-10	NaN
1012	1.000000	0.378451	7.37495e+06	-50739.1	1055.82	-29754.7	0.000000	0.000000	6.378877	-0.003211	NaN	0.000000	0.001654	0.001732	28.0828	0.143011	0.001987	71.9684	56.7169	-168.371	-0.047022	0.377175	-0.669886	-0.671161	-0.003211	71.9684	-0.669852	-7.574783E+8	4.239515E-12	NaN
1012	1.000000	0.386474	7.37495e+06	-50739.1	1055.82	-29754.7	0.000000	0.000000	6.386899	-0.034153	NaN	0.000000	0.001654	0.001720	28.083	0.164137	0.002128	77.137	175.261	-165.488	-0.093623	0.385169	-0.661863	-0.663168	-0.034153	77.137	-0.661531	-5.826881E+8	5.861270E-11	NaN
1012	1.000000	0.394497	7.37495e+06	-50739.1	1055.82	-29754.7	0.000000	0.000000	6.394922	-0.027371	NaN	0.000000	0.001646	0.001763	28.0827	0.006580	0.002028	3.244615	-87.8633	-161.69	-0.047581	0.393165	-0.653840	-0.655172	-0.027371	3.244615	-0.647513	-3.744032E+8	7.310450E-11	NaN
1012	1.000000	0.402479	7.37495e+06	-50739.1	1055.82	-29754.7	0.000000	0.000000	6.402900	-0.131569	NaN	0.000000	0.001632	0.001718	28.083	0.011977	0.001898	6.310492	-106.723	-162.597	-0.191040	0.401153	-0.645858	-0.647184	-0.131569	6.310492	-0.630221	-2.167991E+8	6.068729E-10	NaN
1012	1.000000	0.410499	7.37495e+06	-50739.1	1055.82	-29754.7	0.000000	0.000000	6.410922	-0.068293	NaN	0.000000	0.001643	0.001756	28.0828	0.069366	0.001966	35.2834	43.0812	-162.969	-0.073116	0.409154	-0.637838	-0.639183	-0.068293	35.2834	-0.636386	-2.634501E+8	2.592266E-10	NaN
1012	1.000000	0.418496	7.37495e+06	-50739.1	1055.82	-29754.7	0.000000	0.000000	6.418917	-0.110038	NaN	0.000000	0.001623	0.001719	28.0828	0.087234	0.002090	41.7408	-100.922	-164.836	-0.168851	0.417130	-0.629841	-0.631207	-0.110038	41.7408	-0.627864	-2.012273E+8	5.468328E-10	NaN
1012	1.000000	0.426481	7.37495e+06	-50739.1	1055.82	-29754.7	0.000000	0.000000	6.426903	-0.095293	NaN	0.000000	0.001647	0.001702	28.083	0.029936	0.001944	15.3983	-108.264	-165.783	-0.052921	0.425156	-0.621855	-0.623181	-0.095293	15.3983	-0.617214	-1.436598E+8	6.633212E-10	NaN
1012	1.000000	0.434485	7.37495e+06	-50739.1	1055.82	-29754.7	0.000000	0.000000	6.434910	-0.028798	NaN	0.000000	0.001661	0.001700	28.0827	0.097718	0.001883	51.8948	176.624	-165.497	-0.076404	0.433223	-0.613852	-0.615114	-0.028798	51.8948	-0.613436	-1.274611E+8	2.259347E-10	NaN
1012	1.000000	0.442470	7.37495e+06	-50739.1	1055.82	-29754.7	0.000000	0.000000	6.442893	-0.089962	NaN	0.000000	0.001620	0.001692	28.0831	0.123785	0.002007	61.6741	-149.592	-165.649	-0.146373	0.441180	-0.605866	-0.607156	-0.089962	61.6741	-0.604772	-9.686583E+7	9.287261E-10	NaN
1012	1.000000	0.450480	7.37495e+06	-50739.1	1055.82	-29754.7	0.000000	0.000000	6.450902	-0.095055	NaN	0.000000	0.001658	0.001713	28.0828	0.006487	0.001974	3.285221	-12.3495	-167.306	-0.133429	0.449208	-0.597857	-0.599129	-0.095055	3.285221	-0.576156	-3.905418E+7	2.433937E-9	NaN
1012	1.000000	0.458472	7.37495e+06	-50739.1	1055.82	-29754.7	0.000000	0.000000	6.458897	-0.025111	NaN	0.000000	0.001653	0.001742	28.0829	0.083659	0.001931	43.3232	-36.6701	-163.486	-0.057660	0.457172	-0.589865	-0.591165	-0.025111	43.3232	-0.589430	-5.954026E+7	4.217401E-10	NaN
1012	1.000000	0.466503	7.37495e+06	-50739.1	1055.82	-29754.7	0.000000	0.000000	6.466926	-0.058842	NaN	0.000000	0.001669	0.001735	28.0843	0.079970	0.001941	41.1961	70.9676	-167.01	-0.068462	0.465144	-0.581834	-0.583192	-0.058842	41.1961	-0.580763	-4.521191E+7	1.301462E-9	NaN
1012	1.000000	0.474479	7.37495e+06	-50739.1	1055.82	-29754.7	0.000000	0.000000	6.474905	-0.007917	NaN	0.000000	0.001669	0.001715	28.084	0.059925	0.001921	31.1904	-170.726	-166.307	-0.016795	0.473173	-0.573857	-0.575163	-0.007917	31.1904	-0.573667	-3.608196E+7	2.194190E-10	NaN
1012	1.000000	0.482508	7.37495e+06	-50739.1	1055.82	-29754.7	0.000000	0.000000	6.482931	-0.091240	NaN	0.000000	0.001609	0.001716	28.0843	0.081802	0.001980	41.3122	-41.9213	-166.52	-0.079704	0.481199	-0.565828	-0.567137	-0.091240	41.3122	-0.564172	-2.667328E+7	3.420634E-9	NaN
1012	1.000000	0.490513	7.37495e+06	-50739.1	1055.82	-29754.7	0.000000	0.000000	6.490936	-0.069096	NaN	0.000000	0.001622	0.001717	28.084	0.071867	0.002063	34.834	-4.439037	-165.957	-0.042341	0.489166	-0.557824	-0.559171	-0.069096	34.834	-0.556336	-2.078166E+7	3.324863E-9	NaN
1012	1.000000	0.498528	7.37495e+06	-50739.1	1055.82	-29754.7	0.000000	0.000000	6.498952	-0.050021	NaN	0.000000	0.001613	0.001708	28.0842	0.081148	0.002023	40.1088	67.7168	-163.39	0.081293	0.497204	-0.549808	-0.551132	-0.050021	40.1088	-0.548873	-1.638119E+7	3.053569E-9	NaN
1012	1.000000	0.506494	7.37495e+06	-50739.1	1055.82	-29754.7	0.000000	0.000000	6.506917	-0.088813	NaN	0.000000	0.001579	0.001739	28.0843	0.081352	0.002100	38.7436	101.626	-163.97	-0.065237	0.505238	-0.541843	-0.543099	-0.088813	38.7436	-0.540123	-1.238991E+7	7.168167E-9	NaN
1012	1.000000	0.514520	7.37495e+06	-50739.1	1055.82	-29754.7	0.000000	0.000000	6.514945	-0.041202	NaN	0.000000	0.001568	0.001712	28.0839	0.155689	0.001973	78.8982	98.3853	-163.944	-0.041941	0.513183	-0.533816	-0.535154	-0.041202	78.8982	-0.533425	-1.000289E+7	4.119030E-9	NaN
1012	1.000000	0.522533	7.37495e+06	-50739.1	1055.82	-29754.7	0.000000	0.000000	6.522958	-0.024129	NaN	0.000000	0.001634	0.001741	28.0839	0.018308	0.002100	8.719603	-40.4007	-164.789	-0.094425	0.521199	-0.525804	-0.527138	-0.024129	8.719603	-0.523729	-7.33568e+06	3.289326E-9	NaN
1012	1.000000	0.530519	7.37495e+06	-50739.1	1055.82	-29754.7	0.000000	0.000000	6.530942	-0.083324	NaN	0.000000	0.001560	0.001745	28.084	0.100864	0.002047	49.2817	170.888	-167.563	-0.070313	0.529197	-0.517817	-0.519139	-0.083324	49.2817	-0.516549	-5.829e+06	1.429467E-8	NaN
1012	1.000000	0.538557	7.37495e+06	-50739.1	1055.82	-29754.7	0.000000	0.000000	6.538980	-0.080985	NaN	0.000000	0.001590	0.001720	28.0844	0.074406	0.002011	36.9988	164.902	-162.843	-0.070746	0.537243	-0.509780	-0.511094	-0.080985	36.9988	-0.508138	-4.45123e+06	1.819385E-8	NaN
1012	1.000000	0.546536	7.37495e+06	-50739.1	1055.82	-29754.7	0.000000	0.000000	6.546960	-0.048885	NaN	0.000000	0.001670	0.001724	28.0842	0.028413	0.001993	14.2526	46.9983	-164.315	-0.009140	0.545224	-0.501801	-0.503112	-0.048885	14.2526	-0.499229	-3.34392e+06	1.461921E-8	NaN
1012	1.000000	0.554537	7.37495e+06	-50739.1	1055.82	-29754.7	0.000000	0.000000	6.554960	-0.082154	NaN	0.000000	0.001598	0.001691	28.0843	0.039564	0.001970	20.0809	-94.0875	-164.405	-0.131665	0.553269	-0.493800	-0.495068	-0.082154	20.0809	-0.490731	-2.54457e+06	3.228595E-8	NaN
1012	1.000000	0.562560	7.37495e+06	-50739.1	1055.82	-29754.7	0.000000	0.000000	6.562981	-0.122805	NaN	0.000000	0.001603	0.001721	28.0842	0.014920	0.002187	6.821437	120.378	-163.577	-0.095256	0.561244	-0.485777	-0.487093	-0.122805	6.821437	-0.472275	-1.4038e+06	8.748033E-8	NaN
1012	1.000000	0.570531	7.37495e+06	-50739.1	1055.82	-29754.7	0.000000	0.000000	6.570959	0.042283	NaN	0.000000	0.001626	0.001702	28.0841	0.155408	0.001940	80.0986	-3.738092	-165.395	0.077415	0.569251	-0.477806	-0.479086	0.042283	80.0986	-0.478202	-1.69962e+06	-2.487813E-8	NaN
1012	1.000000	0.578560	7.37495e+06	-50739.1	1055.82	-29754.7	0.000000	0.000000	6.578984	-0.062615	NaN	0.000000	0.001627	0.001704	28.0842	0.087688	0.002010	43.6321	121.125	-166.18	-0.017690	0.577258	-0.469777	-0.471078	-0.062615	43.6321	-0.468700	-1.25077e+06	5.006145E-8	NaN
1012	1.000000	0.586487	7.37495e+06	-50739.1	1055.82	-29754.7	0.000000	0.000000	6.586911	-0.051036	NaN	0.000000	0.001586	0.001681	28.0843	0.106096	0.001911	55.5297	-78.3254	-165.452	-0.037360	0.585217	-0.461850	-0.463119	-0.051036	55.5297	-0.461160	-980218	5.206578E-8	NaN
1012	1.000000	0.594549	7.37495e+06	-50739.1	1055.82	-29754.7	0.000000	0.000000	6.594971	-0.085124	NaN	0.000000	0.001605	0.001702	28.0845	0.086376	0.002024	42.6709	93.4419	-165.495	-0.056062	0.593229	-0.453788	-0.455108	-0.085124	42.6709	-0.452292	-735545	1.157294E-7	NaN
1012	1.000000	0.602539	7.37495e+06	-50739.1	1055.82	-29754.7	0.000000	0.000000	6.602961	-0.091583	NaN	0.000000	0.001554	0.001706	28.0833	0.011637	0.001935	6.014216	26.1018	-166.448	-0.109010	0.601235	-0.445798	-0.447102	-0.091583	6.014216	-0.434377	-411101	2.227754E-7	NaN
1012	1.000000	0.610571	7.37495e+06	-50739.1	1055.82	-29754.7	0.000000	0.000000	6.610992	-0.103702	NaN	0.000000	0.001554	0.001664	28.083	0.087146	0.001914	45.5417	-12.477	-164.603	-0.096826	0.609241	-0.437766	-0.439096	-0.103702	45.5417	-0.436058	-434217	2.388249E-7	NaN
1012	1.000000	0.618556	7.37495e+06	-50739.1	1055.82	-29754.7	0.000000	0.000000	6.618978	-0.121785	NaN	0.000000	0.001600	0.001679	28.0827	0.081236	0.001870	43.4309	136.82	-167.645	-0.068281	0.617260	-0.429780	-0.431076	-0.121785	43.4309	-0.427677	-330515	3.684708E-7	NaN
1012	1.000000	0.626575	7.37495e+06	-50739.1	1055.82	-29754.7	0.000000	0.000000	6.626997	-0.090371	NaN	0.000000	0.001596	0.001709	28.0829	0.104916	0.002079	50.4618	86.1572	-169.161	-0.045393	0.625233	-0.421762	-0.423104	-0.090371	50.4618	-0.420419	-260826	3.464820E-7	NaN
1012	1.000000	0.634580	7.37495e+06	-50739.1	1055.82	-29754.7	0.000000	0.000000	6.635003	-0.073436	NaN	0.000000	0.001577	0.001709	28.0832	0.060873	0.001948	31.248	-160.34	-161.588	-0.072027	0.633259	-0.413757	-0.415078	-0.073436	31.248	-0.411994	-198039	3.708143E-7	NaN
1012	1.000000	0.642566	7.37495e+06	-50739.1	1055.82	-29754.7	0.000000	0.000000	6.642987	-0.127590	NaN	0.000000	0.001536	0.001711	28.0833	0.018489	0.002046	9.036017	11.4263	-166.015	-0.004817	0.641239	-0.405771	-0.407098	-0.127590	9.036017	-0.395181	-114082	1.118405E-6	NaN
1012	1.000000	0.650595	7.37495e+06	-50739.1	1055.82	-29754.7	0.000000	0.000000	6.651018	-0.077413	NaN	0.000000	0.001572	0.001717	28.083	0.106935	0.002071	51.6314	144.79	-164.134	-0.110320	0.649250	-0.397742	-0.399086	-0.077413	51.6314	-0.396617	-119599	6.472703E-7	NaN
1012	1.000000	0.658551	7.37495e+06	-50739.1	1055.82	-29754.7	0.000000	0.000000	6.658975	-0.038712	NaN	0.000000	0.001547	0.001700	28.0831	0.021835	0.002012	10.855	-104.014	-162.153	-0.015123	0.657248	-0.389786	-0.391088	-0.038712	10.855	-0.387111	-87463.2	4.426109E-7	NaN
1012	1.000000	0.666590	7.37495e+06	-50739.1	1055.82	-29754.7	0.000000	0.000000	6.667014	-0.035388	NaN	0.000000	0.001536	0.001757	28.083	0.017665	0.001914	9.229252	90.7235	-163.866	-0.084088	0.665286	-0.381747	-0.383051	-0.035388	9.229252	-0.378871	-66632.9	5.310828E-7	NaN
1012	1.000000	0.674596	7.37495e+06	-50739.1	1055.82	-29754.7	0.000000	0.000000	6.675023	0.014452	NaN	0.000000	0.001543	0.001717	28.083	0.067589	0.001933	34.9632	6.333049	-162.364	-0.028268	0.673287	-0.373741	-0.375049	0.014452	34.9632	-0.374051	-56810	-2.543974E-7	NaN
1012	1.000000	0.682591	7.37495e+06	-50739.1	1055.82	-29754.7	0.000000	0.000000	6.683015	-0.064157	NaN	0.000000	0.001531	0.001745	28.083	0.054839	0.001959	27.9945	-21.7891	-166.328	-0.025155	0.681272	-0.365746	-0.367064	-0.064157	27.9945	-0.364027	-40739.1	1.574833E-6	NaN
1012	1.000000	0.690585	7.37495e+06	-50739.1	1055.82	-29754.7	0.000000	0.000000	6.691010	-0.032063	NaN	0.000000	0.001538	0.001711	28.0832	0.048584	0.001918	25.3335	6.557765	-162.099	-0.066327	0.689276	-0.357752	-0.359061	-0.032063	25.3335	-0.356803	-32033	1.000931E-6	NaN
1012	1.000000	0.698586	7.37495e+06	-50739.1	1055.82	-29754.7	0.000000	0.000000	6.699011	-0.035704	NaN	0.000000	0.001520	0.001744	28.0831	0.101686	0.001957	51.9718	169.048	-164.428	-0.020683	0.697249	-0.349750	-0.351088	-0.035704	51.9718	-0.349235	-24882.8	1.434890E-6	NaN
1012	1.000000	0.706562	7.37495e+06	-50739.1	1055.82	-29754.7	0.000000	0.000000	6.706986	-0.056552	NaN	0.000000	0.001543	0.001748	28.0833	0.036148	0.001884	19.1894	-148.379	-164.873	-0.124004	0.705266	-0.341775	-0.343071	-0.056552	19.1894	-0.339564	-17997.2	3.142263E-6	NaN
1012	1.000000	0.714631	7.37495e+06	-50739.1	1055.82	-29754.7	0.000000	0.000000	6.715056	-0.031331	NaN	0.000000	0.001548	0.001697	28.083	0.031914	0.001953	16.3397	-56.8233	-158.633	-0.057356	0.713230	-0.333706	-0.335106	-0.031331	16.3397	-0.332268	-14081.2	2.224992E-6	NaN
1012	1.000000	0.722614	7.37495e+06	-50739.1	1055.82	-29754.7	0.000000	0.000000	6.723040	0.002891	NaN	0.000000	0.001555	0.001707	28.0829	0.039762	0.002093	18.9961	-121.651	-168.559	0.002625	0.721369	-0.325723	-0.326967	0.002891	18.9961	-0.325837	-11335.1	-2.550231E-7	NaN
1012	1.000000	0.730612	7.37495e+06	-50739.1	1055.82	-29754.7	0.000000	0.000000	6.731035	-0.078417	NaN	0.000000	0.001570	0.001751	28.0829	0.078766	0.001994	39.495	-141.406	-161.88	-0.058461	0.729329	-0.317725	-0.319008	-0.078417	39.495	-0.316236	-8187.95	9.577138E-6	NaN
1012	1.000000	0.738618	7.37495e+06	-50739.1	1055.82	-29754.7	0.000000	0.000000	6.739039	-0.114232	NaN	0.000000	0.001572	0.001700	28.0843	0.039143	0.002103	18.6152	-143.347	-162.484	-0.106578	0.737329	-0.309719	-0.311008	-0.114232	18.6152	-0.305117	-5606.45	2.037505E-5	NaN
1012	1.000000	0.746624	7.37495e+06	-50739.1	1055.82	-29754.7	0.000000	0.000000	6.747048	-0.058522	NaN	0.000000	0.001609	0.001707	28.0845	0.089250	0.001991	44.8297	-78.3604	-163.753	-0.052846	0.745286	-0.301713	-0.303050	-0.058522	44.8297	-0.300734	-4825.64	1.212737E-5	NaN
1012	1.000000	0.754630	7.37495e+06	-50739.1	1055.82	-29754.7	0.000000	0.000000	6.755050	-0.147136	NaN	0.000000	0.001581	0.001702	28.0841	0.064776	0.001942	33.349	-56.8231	-164.807	-0.065241	0.753301	-0.293707	-0.295036	-0.147136	33.349	-0.290398	-3382.7	4.349669E-5	NaN
1012	1.000000	0.762618	7.37495e+06	-50739.1	1055.82	-29754.7	0.000000	0.000000	6.763043	-0.044346	NaN	0.000000	0.001555	0.001682	28.0844	0.011526	0.002005	5.747813	81.2312	-163.664	-0.056436	0.761322	-0.285718	-0.287015	-0.044346	5.747813	-0.279932	-2354.73	1.883265E-5	NaN
1012	1.000000	0.770643	7.37495e+06	-50739.1	1055.82	-29754.7	0.000000	0.000000	6.771066	-0.090712	NaN	0.000000	0.001535	0.001732	28.0841	0.121107	0.002130	56.8613	-169.8	-165.437	-0.165008	0.769273	-0.277693	-0.279063	-0.090712	56.8613	-0.276497	-2089.55	4.341197E-5	NaN
1012	1.000000	0.778634	7.37495e+06	-50739.1	1055.82	-29754.7	0.000000	0.000000	6.779058	-0.061104	NaN	0.000000	0.001572	0.001732	28.0842	0.032193	0.001970	16.3411	172.004	-165.013	-0.050282	0.777364	-0.269703	-0.270973	-0.061104	16.3411	-0.266898	-1493.95	4.090088E-5	NaN
1012	1.000000	0.786610	7.37495e+06	-50739.1	1055.82	-29754.7	0.000000	0.000000	6.787033	-0.072405	NaN	0.000000	0.001599	0.001727	28.0844	0.016223	0.002065	7.855739	-111.13	-163.122	-0.049567	0.785333	-0.261727	-0.263004	-0.072405	7.855739	-0.254814	-975.569	7.421795E-5	NaN
1012	1.000000	0.794625	7.37495e+06	-50739.1	1055.82	-29754.7	0.000000	0.000000	6.795052	0.036312	NaN	0.000000	0.001590	0.001687	28.084	0.011827	0.002128	5.558788	52.1851	-164.176	0.010449	0.793383	-0.253712	-0.254953	0.036312	5.558788	-0.258611	-1115.89	-3.254109E-5	NaN
1012	1.000000	0.802636	7.37495e+06	-50739.1	1055.82	-29754.7	0.000000	0.000000	6.803062	-0.022709	NaN	0.000000	0.001592	0.001720	28.0842	0.067211	0.001974	34.0519	-171.245	-165.279	0.002977	0.801285	-0.245700	-0.247051	-0.022709	34.0519	-0.245200	-692.726	3.278237E-5	NaN
1012	1.000000	0.810617	7.37495e+06	-50739.1	1055.82	-29754.7	0.000000	0.000000	6.811044	0.001645	NaN	0.000000	0.001574	0.001703	28.0841	0.076405	0.002058	37.1192	-56.5815	-163.592	-0.061471	0.809327	-0.237719	-0.239010	0.001645	37.1192	-0.237753	-530.162	-3.102000E-6	NaN
1012	1.000000	0.818625	7.37495e+06	-50739.1	1055.82	-29754.7	0.000000	0.000000	6.819047	-0.097906	NaN	0.000000	0.001586	0.001716	28.0842	0.055593	0.001983	28.0351	-72.6088	-166.014	-0.028208	0.817330	-0.229712	-0.231007	-0.097906	28.0351	-0.227093	-360.19	0.000272	NaN
1012	1.000000	0.826652	7.37495e+06	-50739.1	1055.82	-29754.7	0.000000	0.000000	6.827077	-0.035924	NaN	0.000000	0.001598	0.001690	28.0842	0.086247	0.002035	42.3844	56.1419	-167.882	-0.081046	0.825309	-0.221685	-0.223028	-0.035924	42.3844	-0.221049	-288.687	0.000124	NaN
1012	1.000000	0.834665	7.37495e+06	-50739.1	1055.82	-29754.7	0.000000	0.000000	6.835090	-0.027848	NaN	0.000000	0.001571	0.001717	28.0842	0.053205	0.001967	27.0515	-162.961	-161.34	-0.083062	0.833329	-0.213672	-0.215008	-0.027848	27.0515	-0.212900	-213.639	0.000130	NaN
1012	1.000000	0.842660	7.37495e+06	-50739.1	1055.82	-29754.7	0.000000	0.000000	6.843085	-0.029410	NaN	0.000000	0.001582	0.001715	28.0843	0.055616	0.001952	28.4895	168.105	-166.574	-0.056604	0.841360	-0.205676	-0.206977	-0.029410	28.4895	-0.204902	-158.474	0.000186	NaN
1012	1.000000	0.850666	7.37495e+06	-50739.1	1055.82	-29754.7	0.000000	0.000000	6.851091	-0.041554	NaN	0.000000	0.001586	0.001722	28.084	0.109583	0.002086	52.5258	-137.094	-164.863	-0.041755	0.849312	-0.197671	-0.199025	-0.041554	52.5258	-0.197077	-117.912	0.000352	NaN
1012	1.000000	0.858659	7.37495e+06	-50739.1	1055.82	-29754.7	0.000000	0.000000	6.859083	-0.059785	NaN	0.000000	0.001597	0.001746	28.0844	0.103435	0.002009	51.4921	-121.423	-165.095	-0.027481	0.857359	-0.189677	-0.190978	-0.059785	51.4921	-0.188807	-85.9156	0.000696	NaN
1012	1.000000	0.866648	7.37495e+06	-50739.1	1055.82	-29754.7	0.000000	0.000000	6.867072	-0.046577	NaN	0.000000	0.001561	0.001734	28.0841	0.069642	0.002161	32.227	-82.7164	-162.802	-0.055885	0.865319	-0.181689	-0.183018	-0.046577	32.227	-0.180605	-62.4811	0.000745	NaN
1012	1.000000	0.874666	7.37495e+06	-50739.1	1055.82	-29754.7	0.000000	0.000000	6.875090	-0.053806	NaN	0.000000	0.001571	0.001736	28.0829	0.099627	0.002071	48.1007	-172.083	-166.481	-0.024064	0.873364	-0.173671	-0.174972	-0.053806	48.1007	-0.172832	-45.988	0.001170	NaN
1012	1.000000	0.882668	7.37495e+06	-50739.1	1055.82	-29754.7	0.000000	0.000000	6.883088	-0.135770	NaN	0.000000	0.001586	0.001705	28.0827	0.050514	0.001956	25.8276	77.4941	-164.993	-0.099748	0.881336	-0.165669	-0.167001	-0.135770	25.8276	-0.161727	-29.4173	0.004615	NaN
1012	1.000000	0.890656	7.37495e+06	-50739.1	1055.82	-29754.7	0.000000	0.000000	6.891082	0.009805	NaN	0.000000	0.001562	0.001731	28.0826	0.067957	0.001943	34.9668	-13.9496	-162.364	-0.071268	0.889347	-0.157681	-0.158990	0.009805	34.9668	-0.157891	-25.1429	-0.000390	NaN
1012	1.000000	0.898673	7.37495e+06	-50739.1	1055.82	-29754.7	0.000000	0.000000	6.899097	-0.044010	NaN	0.000000	0.001584	0.001735	28.0828	0.077884	0.002079	37.4565	158.455	-164.439	-0.017880	0.897342	-0.149664	-0.150995	-0.044010	37.4565	-0.148783	-17.2093	0.002557	NaN
1012	1.000000	0.906685	7.37495e+06	-50739.1	1055.82	-29754.7	0.000000	0.000000	6.907110	-0.040428	NaN	0.000000	0.001562	0.001745	28.0827	0.139740	0.002005	69.7007	112.267	-168.587	-0.161681	0.905402	-0.141651	-0.142934	-0.040428	69.7007	-0.141216	-12.4672	0.003243	NaN
1012	1.000000	0.914673	7.37495e+06	-50739.1	1055.82	-29754.7	0.000000	0.000000	6.915099	-0.017555	NaN	0.000000	0.001557	0.001723	28.0833	0.074059	0.001884	39.3026	0.216771	-163.199	-0.069022	0.913351	-0.133663	-0.134986	-0.017555	39.3026	-0.133328	-8.836568	0.001987	NaN
1012	1.000000	0.922680	7.37495e+06	-50739.1	1055.82	-29754.7	0.000000	0.000000	6.923103	-0.075595	NaN	0.000000	0.001582	0.001748	28.0828	0.104529	0.002102	49.7377	-144.134	-166.81	-0.002397	0.921359	-0.125657	-0.126978	-0.075595	49.7377	-0.124517	-5.948798	0.012708	NaN
1012	1.000000	0.930686	7.37495e+06	-50739.1	1055.82	-29754.7	0.000000	0.000000	6.931109	-0.062800	NaN	0.000000	0.001569	0.001714	28.0827	0.047770	0.001994	23.9602	-109.826	-166.121	0.035193	0.929408	-0.117651	-0.118929	-0.062800	23.9602	-0.115685	-3.946492	0.015913	NaN
1012	1.000000	0.938710	7.37495e+06	-50739.1	1055.82	-29754.7	0.000000	0.000000	6.939134	-0.052029	NaN	0.000000	0.001545	0.001751	28.0834	0.028139	0.001984	14.183	-22.4213	-166.918	-0.113655	0.937399	-0.109627	-0.110938	-0.052029	14.183	-0.106875	-2.579262	0.020172	NaN
1012	1.000000	0.946685	7.37495e+06	-50739.1	1055.82	-29754.7	0.000000	0.000000	6.947112	0.012455	NaN	0.000000	0.001547	0.001727	28.0826	0.039955	0.002015	19.833	-140.857	-165.809	-0.018686	0.945374	-0.101652	-0.102963	0.012455	19.833	-0.102123	-2.034993	-0.006121	NaN
1012	1.000000	0.954703	7.37495e+06	-50739.1	1055.82	-29754.7	0.000000	0.000000	6.955129	-0.018918	NaN	0.000000	0.001550	0.001669	28.0833	0.098005	0.002042	47.9995	139.209	-166.91	0.021960	0.953337	-0.093634	-0.095000	-0.018918	47.9995	-0.093338	-1.292298	0.014639	NaN
1012	1.000000	0.962724	7.37495e+06	-50739.1	1055.82	-29754.7	0.000000	0.000000	6.963149	-0.037555	NaN	0.000000	0.001551	0.001698	28.0827	0.089336	0.001969	45.3603	122.994	-165.521	-0.017390	0.961382	-0.085613	-0.086955	-0.037555	45.3603	-0.084992	-0.821258	0.045729	NaN
1012	1.000000	0.970692	7.37495e+06	-50739.1	1055.82	-29754.7	0.000000	0.000000	6.971117	-0.027352	NaN	0.000000	0.001540	0.001705	28.0829	0.058862	0.001855	31.7346	-31.4801	-163.623	0.014955	0.969433	-0.077644	-0.078903	-0.027352	31.7346	-0.076998	-0.519822	0.052618	NaN
1012	1.000000	0.978702	7.37495e+06	-50739.1	1055.82	-29754.7	0.000000	0.000000	6.979125	-0.079228	NaN	0.000000	0.001549	0.001675	28.0829	0.061332	0.002074	29.5653	-118.165	-165.329	-0.013192	0.977443	-0.069634	-0.070893	-0.079228	29.5653	-0.067625	-0.294254	0.269250	NaN
1012	1.000000	0.986729	7.37495e+06	-50739.1	1055.82	-29754.7	0.000000	0.000000	6.987152	-0.086898	NaN	0.000000	0.001536	0.001657	28.0826	0.022835	0.001912	11.9406	98.2992	-162.172	-0.125219	0.985432	-0.061607	-0.062904	-0.086898	11.9406	-0.056149	-0.139219	0.624184	NaN
1012	1.000000	0.994706	7.37495e+06	-50739.1	1055.82	-29754.7	0.000000	0.000000	6.995130	-0.048709	NaN	0.000000	0.001535	0.001708	28.083	0.175014	0.002016	86.821	-82.2482	-162.613	-0.083725	0.993456	-0.053631	-0.054881	-0.048709	86.821	-0.053210	-0.113944	0.427486	NaN
1012	1.000000	1.002702	7.37495e+06	-50739.1	1055.82	-29754.7	0.000000	0.000000	7.003124	-0.109976	NaN	0.000000	0.001541	0.001687	28.0827	0.049987	0.001998	25.0172	61.9624	-166.578	-0.142496	1.001446	-0.045635	-0.046891	-0.109976	25.0172	-0.042338	-0.053282	2.064031	NaN
1012	1.000000	1.010734	7.37495e+06	-50739.1	1055.82	-29754.7	0.000000	0.000000	7.011157	-0.060897	NaN	0.000000	0.001551	0.001729	28.0841	0.016176	0.002122	7.622102	58.8255	-163.623	-0.071352	1.009422	-0.037603	-0.038915	-0.060897	7.622102	-0.031611	-0.025546	2.383863	NaN
1012	1.000000	1.018674	7.37495e+06	-50739.1	1055.82	-29754.7	0.000000	0.000000	7.019096	-0.113181	NaN	0.000000	0.001540	0.001706	28.0838	0.095917	0.002008	47.7619	-30.3326	-164.573	-0.079157	1.017421	-0.029662	-0.030915	-0.113181	47.7619	-0.027885	-0.020130	5.622447	NaN
1012	1.000000	1.026754	7.37495e+06	-50739.1	1055.82	-29754.7	0.000000	0.000000	7.027179	-0.033979	NaN	0.000000	0.001574	0.001694	28.0842	0.118478	0.002031	58.3472	88.598	-165.629	-0.031186	1.025378	-0.021583	-0.022959	-0.033979	58.3472	-0.021146	-0.013432	2.529687	NaN
1012	1.000000	1.034731	7.37495e+06	-50739.1	1055.82	-29754.7	0.000000	0.000000	7.035159	0.036388	NaN	0.000000	0.001551	0.001698	28.0843	0.120863	0.001985	60.8776	83.1917	-163.86	0.062288	1.033393	-0.013606	-0.014943	0.036388	60.8776	-0.014054	-0.008715	-4.175378	NaN
1012	1.000000	1.042751	7.37495e+06	-50739.1	1055.82	-29754.7	0.000000	0.000000	7.043174	-0.080264	NaN	0.000000	0.001543	0.001702	28.0838	0.058664	0.001923	30.5084	-46.836	-167.399	-0.034930	1.041464	-0.005586	-0.006873	-0.080264	30.5084	-0.003613	-0.002526	31.7704	NaN
1012	1.000000	1.050692	7.37495e+06	-50739.1	1055.82	-29754.7	0.000000	0.000000	7.051343	5.464391	NaN	0.000000	0.001524	0.001680	28.0847	6.174924	0.001681	3672.56	10.4073	-169.771	4.126388	1.049459	0.002356	0.001122	5.464391	3672.56	0.001240	0.000949	5755.95	108900
1012	2.000000	1.054355	7.37495e+06	-50739.1	1055.82	-29754.7	0.000000	0.000000	7.055117	8.148927	NaN	0.000000	0.001560	0.001705	28.0841	9.307714	0.001655	5624.7	2.130385	-166.869	7.903222	1.054021	0.006019	0.005684	8.148927	5624.7	0.004932	0.004071	2001.46	80537
1012	2.000000	1.056376	7.37495e+06	-50739.1	1055.82	-29754.7	0.000000	0.000000	7.057251	10.9177	NaN	0.000000	0.001557	0.001717	28.0842	11.4754	0.001676	6847.45	4.082693	-169.754	11.3054	1.056044	0.008039	0.007707	10.9177	6847.45	0.006843	0.005879	1856.96	81590.3
1012	2.000000	1.058251	7.37495e+06	-50739.1	1055.82	-29754.7	0.000000	0.000000	7.059205	12.8196	NaN	0.000000	0.001563	0.001705	28.0842	13.549	0.001823	7433.74	10.4761	-174.12	12.9246	1.058005	0.009915	0.009669	12.8196	7433.74	0.008621	0.007689	1667.26	77454.2
1012	2.000000	1.060293	7.37495e+06	-50739.1	1055.82	-29754.7	0.000000	0.000000	7.061507	19.1517	NaN	0.000000	0.001550	0.001687	28.084	16.35	0.001707	9575.74	3.078529	-172.564	18.0754	1.059879	0.011956	0.011542	19.1517	9575.74	0.010456	0.009693	1975.8	88861.5
1012	2.000000	1.062238	7.37495e+06	-50739.1	1055.82	-29754.7	0.000000	0.000000	7.063523	20.8822	NaN	0.000000	0.001528	0.001695	28.085	17.4995	0.001729	10122.8	7.476894	-175.05	21.0803	1.062021	0.013901	0.013684	20.8822	10122.8	0.012354	0.011917	1752.37	84722.1
1012	2.000000	1.064255	7.37495e+06	-50739.1	1055.82	-29754.7	0.000000	0.000000	7.065814	27.5296	NaN	0.000000	0.001561	0.001702	28.0842	20.658	0.001710	12081.4	5.865706	-177.303	26.1973	1.063939	0.015919	0.015602	27.5296	12081.4	0.014210	0.014246	1932.45	92479.8
1012	2.000000	1.066244	7.37495e+06	-50739.1	1055.82	-29754.7	0.000000	0.000000	7.067943	30.9437	NaN	0.000000	0.001518	0.001702	28.084	22.7632	0.001758	12950.9	5.662220	-177.014	29.5774	1.065999	0.017907	0.017663	30.9437	12950.9	0.016115	0.016801	1841.74	91285.2
1012	2.000000	1.068215	7.37495e+06	-50739.1	1055.82	-29754.7	0.000000	0.000000	7.070216	38.2953	NaN	0.000000	0.001577	0.001688	28.084	25.1838	0.001771	14219	7.646955	-179.68	37.6955	1.067926	0.019878	0.019590	38.2953	14219	0.017859	0.019288	1985.42	93539.3
1012	2.000000	1.070257	7.37495e+06	-50739.1	1055.82	-29754.7	0.000000	0.000000	7.072363	40.8412	NaN	0.000000	0.001561	0.001666	28.0841	27.1806	0.001789	15190.5	5.685566	-178.067	41.198	1.069979	0.021920	0.021642	40.8412	15190.5	0.019904	0.022391	1823.97	92748
1012	2.000000	1.072190	7.37495e+06	-50739.1	1055.82	-29754.7	0.000000	0.000000	7.074711	50.9413	NaN	0.000000	0.001531	0.001682	28.0847	27.6918	0.001672	16557.7	6.566717	179.895	48.6952	1.071908	0.023853	0.023571	50.9413	16557.7	0.021546	0.025029	2035.26	95619.6
1012	2.000000	1.074207	7.37495e+06	-50739.1	1055.82	-29754.7	0.000000	0.000000	7.076722	50.7903	NaN	0.000000	0.001560	0.001683	28.084	30.8558	0.001785	17283.2	5.572226	-179.542	49.2112	1.073886	0.025870	0.025549	50.7903	17283.2	0.023666	0.028633	1773.81	93317.2
1012	2.000000	1.076233	7.37495e+06	-50739.1	1055.82	-29754.7	0.000000	0.000000	7.079083	58.9381	NaN	0.000000	0.001557	0.001684	28.0828	32.7949	0.001732	18930.9	4.191761	-179.575	57.5271	1.075906	0.027896	0.027570	58.9381	18930.9	0.025561	0.032044	1839.27	96620.7
1012	2.000000	1.078243	7.37495e+06	-50739.1	1055.82	-29754.7	0.000000	0.000000	7.081400	66.393	NaN	0.000000	0.001546	0.001701	28.0828	34.7687	0.001778	19555.8	3.936725	-179.055	66.7107	1.077903	0.029907	0.029567	66.393	19555.8	0.027360	0.035450	1872.85	94894.2
1012	2.000000	1.080197	7.37495e+06	-50739.1	1055.82	-29754.7	0.000000	0.000000	7.083604	72.487	NaN	0.000000	0.001583	0.001686	28.0828	38.1321	0.001817	20981.8	4.984683	178.542	71.5041	1.079989	0.031860	0.031652	72.487	20981.8	0.029269	0.039243	1847.14	96768.7
1012	2.000000	1.082179	7.37495e+06	-50739.1	1055.82	-29754.7	0.000000	0.000000	7.085979	82.0322	NaN	0.000000	0.001571	0.001704	28.0829	39.3923	0.001786	22056.5	6.740518	176.368	79.1362	1.081925	0.033843	0.033588	82.0322	22056.5	0.031053	0.042955	1909.71	97230.2
1012	2.000000	1.084211	7.37495e+06	-50739.1	1055.82	-29754.7	0.000000	0.000000	7.088474	93.3076	NaN	0.000000	0.001579	0.001726	28.0826	40.737	0.001673	24356.1	9.025962	175.609	93.7854	1.083799	0.035874	0.035462	93.3076	24356.1	0.033001	0.047194	1977.1	102432
1012	2.000000	1.086216	7.37495e+06	-50739.1	1055.82	-29754.7	0.000000	0.000000	7.090752	99.9566	NaN	0.000000	0.001596	0.001732	28.0832	43.295	0.001758	24621.5	4.498564	178.592	97.6039	1.085866	0.037879	0.037530	99.9566	24621.5	0.034834	0.051361	1946.17	99259.5
1012	2.000000	1.088214	7.37495e+06	-50739.1	1055.82	-29754.7	0.000000	0.000000	7.093041	107.005	NaN	0.000000	0.001592	0.001724	28.0829	45.9247	0.001928	23814.7	7.136701	176.987	107.247	1.087867	0.039878	0.039530	107.005	23814.7	0.036508	0.055315	1934.47	92511.6
1012	2.000000	1.090141	7.37495e+06	-50739.1	1055.82	-29754.7	0.000000	0.000000	7.095275	114.491	NaN	0.000000	0.001573	0.001739	28.0829	47.7236	0.001814	26309.2	3.111794	179.411	112.582	1.089891	0.041804	0.041555	114.491	26309.2	0.038540	0.060310	1898.38	97878.3
1012	2.000000	1.092131	7.37495e+06	-50739.1	1055.82	-29754.7	0.000000	0.000000	7.097775	126.88	NaN	0.000000	0.001570	0.001714	28.0829	48.1013	0.001757	27380.8	4.178238	177.757	122.437	1.091876	0.043795	0.043540	126.88	27380.8	0.040319	0.064856	1956.34	98230.4
1012	2.000000	1.094225	7.37495e+06	-50739.1	1055.82	-29754.7	0.000000	0.000000	7.100111	132.768	NaN	0.000000	0.001570	0.001734	28.0829	50.717	0.001762	28789.6	4.995109	176.282	133.288	1.093886	0.045888	0.045549	132.768	28789.6	0.042430	0.070458	1884.36	99093.2
1012	2.000000	1.096206	7.37495e+06	-50739.1	1055.82	-29754.7	0.000000	0.000000	7.102480	142.194	NaN	0.000000	0.001579	0.001731	28.0829	53.1528	0.001828	29074.6	8.450967	173.888	141.454	1.095909	0.047870	0.047572	142.194	29074.6	0.044202	0.075337	1887.43	96779.2
1012	2.000000	1.098200	7.37495e+06	-50739.1	1055.82	-29754.7	0.000000	0.000000	7.104727	148.365	NaN	0.000000	0.001542	0.001710	28.0828	54.837	0.001849	29655.7	4.411335	176.809	149.812	1.097853	0.049863	0.049516	148.365	29655.7	0.046111	0.080773	1836.81	95334
1012	2.000000	1.100186	7.37495e+06	-50739.1	1055.82	-29754.7	0.000000	0.000000	7.107083	157.339	NaN	0.000000	0.001575	0.001746	28.083	56.1837	0.001833	30648.5	4.533404	176.916	155.699	1.099888	0.051850	0.051552	157.339	30648.5	0.048000	0.086330	1822.52	95301.7
1012	2.000000	1.102133	7.37495e+06	-50739.1	1055.82	-29754.7	0.000000	0.000000	7.109502	168.832	NaN	0.000000	0.001607	0.001691	28.083	56.8485	0.001732	32820.4	3.890037	176.754	166.183	1.101853	0.053796	0.053517	168.832	32820.4	0.049938	0.092223	1830.7	98741.3
1012	2.000000	1.104143	7.37495e+06	-50739.1	1055.82	-29754.7	0.000000	0.000000	7.111666	172.56	NaN	0.000000	0.001593	0.001715	28.0825	59.0083	0.001768	33369.5	4.520955	175.527	171.343	1.103858	0.055807	0.055521	172.56	33369.5	0.051928	0.098467	1752.47	97158
1012	2.000000	1.106148	7.37495e+06	-50739.1	1055.82	-29754.7	0.000000	0.000000	7.114364	189.425	NaN	0.000000	0.001571	0.001716	28.0828	61.1365	0.001731	35320.8	6.871561	172.856	186.713	1.105886	0.057811	0.057550	189.425	35320.8	0.053789	0.104483	1812.97	99834.5
1012	2.000000	1.108222	7.37495e+06	-50739.1	1055.82	-29754.7	0.000000	0.000000	7.116840	199.202	NaN	0.000000	0.001582	0.001691	28.0828	62.8461	0.001799	34927.2	5.325612	174.805	199.52	1.107791	0.059885	0.059455	199.202	34927.2	0.055608	0.110531	1802.23	95983.3
1012	2.000000	1.110226	7.37495e+06	-50739.1	1055.82	-29754.7	0.000000	0.000000	7.119226	208.503	NaN	0.000000	0.001589	0.001710	28.0844	64.6794	0.001806	35814	3.364909	176.509	208.807	1.109887	0.061889	0.061551	208.503	35814	0.057523	0.117075	1780.94	95630.1
1012	2.000000	1.112131	7.37495e+06	-50739.1	1055.82	-29754.7	0.000000	0.000000	7.121697	222.259	NaN	0.000000	0.001547	0.001719	28.0841	65.7107	0.001706	38527	5.628096	173.361	219.265	1.111862	0.063794	0.063525	222.259	38527	0.059468	0.123907	1793.76	99998
1012	2.000000	1.114030	7.37495e+06	-50739.1	1055.82	-29754.7	0.000000	0.000000	7.124269	238.624	NaN	0.000000	0.001591	0.001735	28.0843	66.8501	0.001711	39076.6	3.480331	175.793	232.321	1.113762	0.065693	0.065426	238.624	39076.6	0.061113	0.129831	1837.97	99083.4
1012	2.000000	1.116064	7.37495e+06	-50739.1	1055.82	-29754.7	0.000000	0.000000	7.126578	245.314	NaN	0.000000	0.001535	0.001752	28.0843	69.6326	0.001802	38650.2	2.157609	177.822	238.39	1.115824	0.067727	0.067487	245.314	38650.2	0.062967	0.136662	1795.04	95521.4
1012	2.000000	1.118162	7.37495e+06	-50739.1	1055.82	-29754.7	0.000000	0.000000	7.128886	250.418	NaN	0.000000	0.001555	0.001757	28.0843	70.9812	0.001735	40914.4	-0.764410	179.029	248.609	1.117978	0.069825	0.069642	250.418	40914.4	0.065235	0.145246	1724.1	98084
1012	2.000000	1.120196	7.37495e+06	-50739.1	1055.82	-29754.7	0.000000	0.000000	7.131650	268.183	NaN	0.000000	0.001577	0.001715	28.0842	74.1861	0.001698	43701.9	2.118411	176.518	270.733	1.119852	0.071859	0.071515	268.183	43701.9	0.067257	0.153107	1751.6	102041
1012	2.000000	1.122270	7.37495e+06	-50739.1	1055.82	-29754.7	0.000000	0.000000	7.134585	289.095	NaN	0.000000	0.001598	0.001713	28.0841	75.0581	0.001856	40445.1	5.391815	175.654	293.051	1.121730	0.073933	0.073393	289.095	40445.1	0.068572	0.158329	1825.91	92866.3
1012	2.000000	1.124113	7.37495e+06	-50739.1	1055.82	-29754.7	0.000000	0.000000	7.136850	299.351	NaN	0.000000	0.001536	0.001741	28.0844	78.2528	0.001865	41968.7	5.295404	173.603	295.648	1.123712	0.075777	0.075376	299.351	41968.7	0.070427	0.165830	1805.17	94160.2
1012	2.000000	1.126150	7.37495e+06	-50739.1	1055.82	-29754.7	0.000000	0.000000	7.139242	308.003	NaN	0.000000	0.001555	0.001732	28.0845	79.5102	0.001751	45407.3	3.968904	174.272	307.623	1.125823	0.077814	0.077486	308.003	45407.3	0.072726	0.175354	1756.46	99069.7
1012	2.000000	1.128130	7.37495e+06	-50739.1	1055.82	-29754.7	0.000000	0.000000	7.142004	327.027	NaN	0.000000	0.001541	0.001753	28.0844	81.621	0.001686	48399.3	7.669580	169.32	325.095	1.127754	0.079793	0.079418	327.027	48399.3	0.074726	0.183842	1778.85	103131
1012	2.000000	1.130088	7.37495e+06	-50739.1	1055.82	-29754.7	0.000000	0.000000	7.144235	333.648	NaN	0.000000	0.001594	0.001740	28.0843	83.2591	0.001843	45184.6	3.069898	174.724	327.959	1.129802	0.081752	0.081466	333.648	45184.6	0.076214	0.190278	1753.47	94638.8
1012	2.000000	1.132107	7.37495e+06	-50739.1	1055.82	-29754.7	0.000000	0.000000	7.147080	353.732	NaN	0.000000	0.001562	0.001709	28.0842	84.4789	0.001780	47463.1	6.914614	170.6	350.918	1.131867	0.083771	0.083530	353.732	47463.1	0.078181	0.198951	1777.99	97220.2
1012	2.000000	1.134065	7.37495e+06	-50739.1	1055.82	-29754.7	0.000000	0.000000	7.149531	365.721	NaN	0.000000	0.001550	0.001717	28.0842	86.3857	0.001765	48934.1	3.543482	173.857	360.656	1.133902	0.085729	0.085566	365.721	48934.1	0.080123	0.207689	1760.91	98102.2
1012	2.000000	1.136124	7.37495e+06	-50739.1	1055.82	-29754.7	0.000000	0.000000	7.152157	379.504	NaN	0.000000	0.001543	0.001763	28.0847	88.5631	0.001815	48803.8	0.959795	177.27	376.806	1.135735	0.087788	0.087399	379.504	48803.8	0.081955	0.216092	1756.21	95919.6
1012	2.000000	1.138157	7.37495e+06	-50739.1	1055.82	-29754.7	0.000000	0.000000	7.154618	389.95	NaN	0.000000	0.001561	0.001745	28.0845	90.4279	0.001826	49524	2.892631	174.493	389.942	1.137926	0.089820	0.089589	389.95	49524	0.083914	0.225250	1731.19	95335.8
1012	2.000000	1.140283	7.37495e+06	-50739.1	1055.82	-29754.7	0.000000	0.000000	7.157310	403.68	NaN	0.000000	0.001548	0.001745	28.084	92.5577	0.001777	52095.9	4.460199	173.394	407.514	1.139832	0.091947	0.091495	403.68	52095.9	0.086135	0.235846	1711.63	98008.3
1012	2.000000	1.142084	7.37495e+06	-50739.1	1055.82	-29754.7	0.000000	0.000000	7.160090	427.482	NaN	0.000000	0.001512	0.001749	28.084	93.4707	0.001822	51301.2	6.055796	171.35	424.632	1.141774	0.093748	0.093437	427.482	51301.2	0.087498	0.242462	1763.09	95187.2
1012	2.000000	1.144084	7.37495e+06	-50739.1	1055.82	-29754.7	0.000000	0.000000	7.162446	436.162	NaN	0.000000	0.001530	0.001772	28.0828	96.0649	0.001744	55095	3.649697	173.216	432.662	1.143774	0.095747	0.095438	436.162	55095	0.089810	0.253880	1717.98	99901.3
1012	2.000000	1.146040	7.37495e+06	-50739.1	1055.82	-29754.7	0.000000	0.000000	7.165013	451.022	NaN	0.000000	0.001562	0.001766	28.0829	99.2818	0.001766	56230.1	6.757278	170.131	444.968	1.145846	0.097703	0.097509	451.022	56230.1	0.091687	0.263332	1712.75	100113
1012	2.000000	1.148065	7.37495e+06	-50739.1	1055.82	-29754.7	0.000000	0.000000	7.167556	463.619	NaN	0.000000	0.001562	0.001776	28.0829	100.912	0.001773	56925.7	5.185970	171.208	459.4	1.147786	0.099729	0.099450	463.619	56925.7	0.093620	0.273233	1696.79	99498.3
1012	2.000000	1.150218	7.37495e+06	-50739.1	1055.82	-29754.7	0.000000	0.000000	7.170467	482.025	NaN	0.000000	0.001535	0.001745	28.0829	103.401	0.001937	53390.4	3.808431	173.324	485.23	1.149831	0.101882	0.101494	482.025	53390.4	0.095111	0.280982	1715.5	92023.1
1012	2.000000	1.151038	7.37495e+06	-50739.1	1055.82	-29754.7	0.000000	0.000000	7.171820	494.996	NaN	0.000000	0.001564	0.001742	28.083	103.428	0.001828	56568.9	4.751672	172.198	489.165	1.150672	0.102701	0.102335	494.996	56568.9	0.096139	0.286388	1728.41	96577.1