File: remote_trans/data/nanoindenter/0828-1/data/Data_2025-08-06,11h17m57s/2025-07-22_16-23-58_1_484.txt
2025-07-22, 16:23:58, 1
Index	Phase	Displacement	Time	Pos X	Pos Y	Pos Z	Rot A	Rot B	Piezo Z	Force A	Force B	Gripper	Voltage A	Voltage B	Temperature	Amplitude force	Amplitude pos	Stiffness	Phase shift	Phase excitation	Force A raw	Displacement raw	HMax	HMax raw	Real Force	Real Stiffness	Contact Depth	Area	Hardness	Reduced Mod.
[#]	[#]	[um]	[s]	[um]	[um]	[um]	[m°]	[m°]	[um]	[uN]	[uN]	[V]	[V]	[V]	[°C]	[uN]	[um]	[N/m]	[°]	[°]	[uN]	[um]	[um]	[um]	[uN]	[N/m]	[um]	[um^2]	[MPa]	[MPa]
484	1.000000	0.002810	7.36979e+06	-52889.1	1005.82	-29748	0.000000	0.000000	6.002786	-0.101605	NaN	0.000000	0.001596	0.001726	28.0806	0.099839	0.000926	107.856	157.425	-170.467	-0.060138	0.001561	-1.074845	-1.076094	-0.101605	107.856	-1.074138	-2.253110E+14	4.509547E-16	NaN
484	1.000000	0.010788	7.36979e+06	-52889.1	1005.82	-29748	0.000000	0.000000	6.010766	-0.060172	NaN	0.000000	0.001593	0.001697	28.0804	0.033963	0.000937	36.2603	100.755	-168.99	0.015995	0.009507	-1.066867	-1.068149	-0.060172	36.2603	-1.065622	-1.731286E+14	3.475546E-16	NaN
484	1.000000	0.018750	7.36979e+06	-52889.1	1005.82	-29748	0.000000	0.000000	6.018730	-0.003950	NaN	0.000000	0.001618	0.001687	28.0803	0.026165	0.001759	14.8741	-110.315	-163.552	0.004187	0.017452	-1.058906	-1.060203	-0.003950	14.8741	-1.058706	-1.397773E+14	2.825937E-17	NaN
484	1.000000	0.026818	7.36979e+06	-52889.1	1005.82	-29748	0.000000	0.000000	6.026796	-0.044833	NaN	0.000000	0.001526	0.001703	28.0802	0.043447	0.001904	22.8219	-106.848	-162.913	0.014001	0.025455	-1.050837	-1.052200	-0.044833	22.8219	-1.049364	-1.046801E+14	4.282861E-16	NaN
484	1.000000	0.034791	7.36979e+06	-52889.1	1005.82	-29748	0.000000	0.000000	6.034771	-0.003967	NaN	0.000000	0.001543	0.001721	28.0803	0.048450	0.001930	25.1055	-74.2455	-167.245	-0.037127	0.033481	-1.042864	-1.044175	-0.003967	25.1055	-1.042746	-8.528815E+13	4.650973E-17	NaN
484	1.000000	0.042741	7.36979e+06	-52889.1	1005.82	-29748	0.000000	0.000000	6.042725	0.092853	NaN	0.000000	0.001524	0.001736	28.0805	0.108787	0.001954	55.6603	-66.2778	-165.837	0.110165	0.041450	-1.034914	-1.036205	0.092853	55.6603	-1.036165	-6.956555E+13	-1.334761E-15	NaN
484	1.000000	0.050749	7.36979e+06	-52889.1	1005.82	-29748	0.000000	0.000000	6.050732	0.059110	NaN	0.000000	0.001509	0.001709	28.0801	0.064819	0.002067	31.357	101.666	-163.137	0.099706	0.049475	-1.026906	-1.028180	0.059110	31.357	-1.028319	-5.456014E+13	-1.083390E-15	NaN
484	1.000000	0.058749	7.36979e+06	-52889.1	1005.82	-29748	0.000000	0.000000	6.058732	0.060307	NaN	0.000000	0.001477	0.001747	28.0806	0.121134	0.001939	62.4801	-100.489	-167.313	0.090156	0.057458	-1.018906	-1.020197	0.060307	62.4801	-1.019630	-4.168460E+13	-1.446750E-15	NaN
484	1.000000	0.066779	7.36979e+06	-52889.1	1005.82	-29748	0.000000	0.000000	6.066758	-0.028814	NaN	0.000000	0.001518	0.001760	28.0803	0.100557	0.001946	51.6785	-172.086	-160.225	-0.016476	0.065457	-1.010876	-1.012198	-0.028814	51.6785	-1.010458	-3.137243E+13	9.184459E-16	NaN
484	1.000000	0.074810	7.36979e+06	-52889.1	1005.82	-29748	0.000000	0.000000	6.074792	0.033643	NaN	0.000000	0.001592	0.001718	28.0802	0.083700	0.001984	42.1771	-89.9814	-161.675	-0.008460	0.073470	-1.002845	-1.004185	0.033643	42.1771	-1.003443	-2.524189E+13	-1.332813E-15	NaN
484	1.000000	0.082770	7.36979e+06	-52889.1	1005.82	-29748	0.000000	0.000000	6.082752	0.045826	NaN	0.000000	0.001565	0.001745	28.0802	0.033798	0.002116	15.969	73.1617	-165.06	0.012129	0.081509	-0.994886	-0.996146	0.045826	15.969	-0.997038	-2.069602E+13	-2.214240E-15	NaN
484	1.000000	0.090792	7.36979e+06	-52889.1	1005.82	-29748	0.000000	0.000000	6.090772	-0.019313	NaN	0.000000	0.001608	0.001722	28.0802	0.148176	0.002112	70.1523	-119.608	-166.987	-0.055251	0.089459	-0.986863	-0.988196	-0.019313	70.1523	-0.986656	-1.499959E+13	1.287588E-15	NaN
484	1.000000	0.098774	7.36979e+06	-52889.1	1005.82	-29748	0.000000	0.000000	6.098754	0.000423	NaN	0.000000	0.001618	0.001761	28.0805	0.044617	0.002064	21.6171	148.339	-164.494	-0.039730	0.097433	-0.978882	-0.980222	0.000423	21.6171	-0.978896	-1.179073E+13	-3.588571E-17	NaN
484	1.000000	0.106782	7.36979e+06	-52889.1	1005.82	-29748	0.000000	0.000000	6.106760	-0.048558	NaN	0.000000	0.001628	0.001746	28.0803	0.078618	0.001965	40.0062	-105.731	-164.976	-0.104978	0.105470	-0.970873	-0.972185	-0.048558	40.0062	-0.969962	-8.936294E+12	5.433783E-15	NaN
484	1.000000	0.114798	7.36979e+06	-52889.1	1005.82	-29748	0.000000	0.000000	6.114779	-0.001131	NaN	0.000000	0.001624	0.001731	28.0802	0.092037	0.001996	46.1164	86.0917	-167.175	0.040885	0.113533	-0.962857	-0.964123	-0.001131	46.1164	-0.962838	-7.163611E+12	1.579372E-16	NaN
484	1.000000	0.122798	7.36979e+06	-52889.1	1005.82	-29748	0.000000	0.000000	6.122780	0.030237	NaN	0.000000	0.001620	0.001704	28.0811	0.035685	0.001808	19.7326	5.833649	-163.364	0.003519	0.121414	-0.954857	-0.956241	0.030237	19.7326	-0.956006	-5.794579E+12	-5.218142E-15	NaN
484	1.000000	0.130811	7.36979e+06	-52889.1	1005.82	-29748	0.000000	0.000000	6.130792	0.024913	NaN	0.000000	0.001596	0.001720	28.0813	0.045113	0.001963	22.9849	61.1207	-163.396	0.022542	0.129536	-0.946845	-0.948119	0.024913	22.9849	-0.947658	-4.471306E+12	-5.571710E-15	NaN
484	1.000000	0.138819	7.36979e+06	-52889.1	1005.82	-29748	0.000000	0.000000	6.138800	0.009462	NaN	0.000000	0.001634	0.001705	28.0814	0.077226	0.001977	39.0535	-104.747	-166.211	0.017487	0.137502	-0.938836	-0.940153	0.009462	39.0535	-0.939017	-3.418853E+12	-2.767586E-15	NaN
484	1.000000	0.146775	7.36979e+06	-52889.1	1005.82	-29748	0.000000	0.000000	6.146758	0.077848	NaN	0.000000	0.001594	0.001740	28.0814	0.138911	0.001936	71.7541	109.619	-164.445	0.067703	0.145490	-0.930880	-0.932165	0.077848	71.7541	-0.931694	-2.723070E+12	-2.858832E-14	NaN
484	1.000000	0.154812	7.36979e+06	-52889.1	1005.82	-29748	0.000000	0.000000	6.154793	0.015415	NaN	0.000000	0.001615	0.001734	28.0819	0.059513	0.001879	31.6666	-9.301035	-165.695	0.012192	0.153522	-0.922843	-0.924133	0.015415	31.6666	-0.923208	-2.091783E+12	-7.369125E-15	NaN
484	1.000000	0.162799	7.36979e+06	-52889.1	1005.82	-29748	0.000000	0.000000	6.162781	0.033080	NaN	0.000000	0.001629	0.001712	28.0816	0.086440	0.002048	42.2135	-168.412	-163.732	-9.568862E-5	0.161512	-0.914856	-0.916143	0.033080	42.2135	-0.915444	-1.643175E+12	-2.013195E-14	NaN
484	1.000000	0.170788	7.36979e+06	-52889.1	1005.82	-29748	0.000000	0.000000	6.170766	-0.049417	NaN	0.000000	0.001612	0.001709	28.0815	0.126409	0.002011	62.8638	-93.7555	-165.298	-0.033819	0.169495	-0.906867	-0.908160	-0.049417	62.8638	-0.906278	-1.235616E+12	3.999416E-14	NaN
484	1.000000	0.178823	7.36979e+06	-52889.1	1005.82	-29748	0.000000	0.000000	6.178805	0.030190	NaN	0.000000	0.001620	0.001722	28.0817	0.097534	0.001997	48.8311	-110.427	-164.355	-0.003915	0.177500	-0.898832	-0.900155	0.030190	48.8311	-0.899295	-9.943635E+11	-3.036160E-14	NaN
484	1.000000	0.186831	7.36979e+06	-52889.1	1005.82	-29748	0.000000	0.000000	6.186811	-0.007023	NaN	0.000000	0.001641	0.001756	28.0814	0.076190	0.002060	36.9813	30.0209	-167.439	0.064724	0.185506	-0.890824	-0.892149	-0.007023	36.9813	-0.890682	-7.605511E+11	9.233509E-15	NaN
484	1.000000	0.194840	7.36979e+06	-52889.1	1005.82	-29748	0.000000	0.000000	6.194819	-0.031312	NaN	0.000000	0.001629	0.001760	28.0816	0.074979	0.001981	37.8483	-134.519	-164.744	-0.010179	0.193522	-0.882815	-0.884133	-0.031312	37.8483	-0.882195	-5.839707E+11	5.361971E-14	NaN
484	1.000000	0.202844	7.36979e+06	-52889.1	1005.82	-29748	0.000000	0.000000	6.202824	0.002189	NaN	0.000000	0.001655	0.001711	28.0814	0.100711	0.002127	47.3486	-171.891	-158.008	-0.009530	0.201519	-0.874811	-0.876136	0.002189	47.3486	-0.874846	-4.645113E+11	-4.712532E-15	NaN
484	1.000000	0.210823	7.36979e+06	-52889.1	1005.82	-29748	0.000000	0.000000	6.210803	-0.005889	NaN	0.000000	0.001607	0.001762	28.0819	0.060075	0.001945	30.8876	-83.1005	-165.29	-0.001359	0.209553	-0.866833	-0.868102	-0.005889	30.8876	-0.866690	-3.602897E+11	1.634609E-14	NaN
484	1.000000	0.218844	7.36979e+06	-52889.1	1005.82	-29748	0.000000	0.000000	6.218823	-0.029914	NaN	0.000000	0.001649	0.001709	28.0811	0.082011	0.002007	40.8681	143.618	-164.853	-0.029611	0.217544	-0.858811	-0.860112	-0.029914	40.8681	-0.858262	-2.770723E+11	1.079653E-13	NaN
484	1.000000	0.226832	7.36979e+06	-52889.1	1005.82	-29748	0.000000	0.000000	6.226812	0.004100	NaN	0.000000	0.001626	0.001706	28.0812	0.110081	0.002010	54.7574	-7.546942	-164.105	0.002654	0.225552	-0.850823	-0.852104	0.004100	54.7574	-0.850879	-2.201122E+11	-1.862883E-14	NaN
484	1.000000	0.234840	7.36979e+06	-52889.1	1005.82	-29748	0.000000	0.000000	6.234820	0.002591	NaN	0.000000	0.001606	0.001699	28.0814	0.052724	0.001997	26.4004	42.2084	-165.661	-0.071227	0.233552	-0.842816	-0.844103	0.002591	26.4004	-0.842889	-1.715666E+11	-1.510231E-14	NaN
484	1.000000	0.242841	7.36979e+06	-52889.1	1005.82	-29748	0.000000	0.000000	6.242821	0.017674	NaN	0.000000	0.001634	0.001713	28.0812	0.068547	0.002057	33.3239	83.9038	-167.118	0.027811	0.241581	-0.834815	-0.836074	0.017674	33.3239	-0.835212	-1.350279E+11	-1.308928E-13	NaN
484	1.000000	0.250847	7.36979e+06	-52889.1	1005.82	-29748	0.000000	0.000000	6.250831	0.082880	NaN	0.000000	0.001628	0.001728	28.0818	0.082255	0.002023	40.6642	-120.6	-165.948	0.063079	0.249541	-0.826808	-0.828114	0.082880	40.6642	-0.828336	-1.089519E+11	-7.607043E-13	NaN
484	1.000000	0.258839	7.36979e+06	-52889.1	1005.82	-29748	0.000000	0.000000	6.258817	-0.049583	NaN	0.000000	0.001646	0.001705	28.0803	0.043206	0.001934	22.3354	-4.754862	-168.664	0.012583	0.257552	-0.818817	-0.820103	-0.049583	22.3354	-0.817152	-7.683906E+10	6.452789E-13	NaN
484	1.000000	0.266915	7.36979e+06	-52889.1	1005.82	-29748	0.000000	0.000000	6.266895	-0.002146	NaN	0.000000	0.001632	0.001706	28.08	0.127408	0.001989	64.0684	-148.495	-165.138	0.019792	0.265513	-0.810741	-0.812143	-0.002146	64.0684	-0.810715	-6.284608E+10	3.415333E-14	NaN
484	1.000000	0.274880	7.36979e+06	-52889.1	1005.82	-29748	0.000000	0.000000	6.274859	-0.030850	NaN	0.000000	0.001658	0.001737	28.08	0.071393	0.001997	35.7541	95.1758	-163.873	0.041676	0.273566	-0.802775	-0.804089	-0.030850	35.7541	-0.802128	-4.805582E+10	6.419602E-13	NaN
484	1.000000	0.282852	7.36979e+06	-52889.1	1005.82	-29748	0.000000	0.000000	6.282830	-0.052905	NaN	0.000000	0.001561	0.001682	28.0803	0.074905	0.001974	37.9458	75.5678	-165.996	0.011168	0.281546	-0.794803	-0.796109	-0.052905	37.9458	-0.793758	-3.699242E+10	1.430166E-12	NaN
484	1.000000	0.290843	7.36979e+06	-52889.1	1005.82	-29748	0.000000	0.000000	6.290824	0.025509	NaN	0.000000	0.001558	0.001696	28.0802	0.066575	0.002077	32.0525	-96.9409	-166.932	0.082320	0.289586	-0.786812	-0.788069	0.025509	32.0525	-0.787409	-3.033129E+10	-8.410056E-13	NaN
484	1.000000	0.298862	7.36979e+06	-52889.1	1005.82	-29748	0.000000	0.000000	6.298843	0.034517	NaN	0.000000	0.001540	0.001676	28.08	0.089794	0.001897	47.3405	9.186797	-166.223	-0.025718	0.297601	-0.778794	-0.780055	0.034517	47.3405	-0.779340	-2.356504E+10	-1.464761E-12	NaN
484	1.000000	0.306874	7.36979e+06	-52889.1	1005.82	-29748	0.000000	0.000000	6.306853	-0.044594	NaN	0.000000	0.001549	0.001715	28.0802	0.107919	0.002107	51.2136	122.88	-165.234	-0.048419	0.305555	-0.770781	-0.772100	-0.044594	51.2136	-0.770128	-1.766215E+10	2.524813E-12	NaN
484	1.000000	0.314884	7.36979e+06	-52889.1	1005.82	-29748	0.000000	0.000000	6.314861	-0.068152	NaN	0.000000	0.001559	0.001734	28.0799	0.089198	0.002013	44.3157	3.493802	-166.731	-0.020894	0.313558	-0.762771	-0.764097	-0.068152	44.3157	-0.761618	-1.353044E+10	5.036916E-12	NaN
484	1.000000	0.322909	7.36979e+06	-52889.1	1005.82	-29748	0.000000	0.000000	6.322890	0.017634	NaN	0.000000	0.001572	0.001675	28.0799	0.067535	0.001985	34.0255	-44.7223	-166.184	-0.018341	0.321560	-0.754746	-0.756095	0.017634	34.0255	-0.755135	-1.104351E+10	-1.596737E-12	NaN
484	1.000000	0.330906	7.36979e+06	-52889.1	1005.82	-29748	0.000000	0.000000	6.330887	0.025054	NaN	0.000000	0.001609	0.001755	28.0799	0.054158	0.002013	26.901	139.362	-166.886	-0.088164	0.329542	-0.746750	-0.748113	0.025054	26.901	-0.747448	-8.679200E+9	-2.886686E-12	NaN
484	1.000000	0.338878	7.36979e+06	-52889.1	1005.82	-29748	0.000000	0.000000	6.338859	0.005312	NaN	0.000000	0.001630	0.001734	28.0799	0.043221	0.002080	20.7811	114.874	-165.723	-0.048387	0.337597	-0.738777	-0.740058	0.005312	20.7811	-0.738969	-6.652844E+9	-7.984469E-13	NaN
484	1.000000	0.346919	7.36979e+06	-52889.1	1005.82	-29748	0.000000	0.000000	6.346900	0.039464	NaN	0.000000	0.001587	0.001745	28.0802	0.157653	0.001900	82.9711	-153.475	-169.875	0.122822	0.345608	-0.730737	-0.732047	0.039464	82.9711	-0.731093	-5.196460E+9	-7.594410E-12	NaN
484	1.000000	0.354899	7.36979e+06	-52889.1	1005.82	-29748	0.000000	0.000000	6.354878	-0.016524	NaN	0.000000	0.001600	0.001721	28.0801	0.060417	0.001924	31.3969	-147.174	-168.745	-0.049787	0.353606	-0.722756	-0.724049	-0.016524	31.3969	-0.722362	-3.950749E+9	4.182443E-12	NaN
484	1.000000	0.362893	7.36979e+06	-52889.1	1005.82	-29748	0.000000	0.000000	6.362875	0.049414	NaN	0.000000	0.001557	0.001714	28.08	0.051931	0.002004	25.9151	-103.44	-166.494	0.007913	0.361605	-0.714762	-0.716050	0.049414	25.9151	-0.716192	-3.254903E+9	-1.518129E-11	NaN
484	1.000000	0.370873	7.36979e+06	-52889.1	1005.82	-29748	0.000000	0.000000	6.370854	0.012572	NaN	0.000000	0.001565	0.001669	28.0799	0.092839	0.002113	43.9278	-169.227	-165.755	0.005466	0.369599	-0.706782	-0.708056	0.012572	43.9278	-0.706996	-2.438110E+9	-5.156537E-12	NaN
484	1.000000	0.378916	7.36979e+06	-52889.1	1005.82	-29748	0.000000	0.000000	6.378894	-0.057652	NaN	0.000000	0.001557	0.001684	28.08	0.051630	0.001997	25.8577	-109.598	-164.945	-0.018537	0.377590	-0.698739	-0.700066	-0.057652	25.8577	-0.697067	-1.784306E+9	3.231053E-11	NaN
484	1.000000	0.386899	7.36979e+06	-52889.1	1005.82	-29748	0.000000	0.000000	6.386878	-0.027714	NaN	0.000000	0.001535	0.001707	28.0802	0.045494	0.001954	23.2855	47.9187	-166.659	-0.064081	0.385611	-0.690757	-0.692044	-0.027714	23.2855	-0.689864	-1.422518E+9	1.948223E-11	NaN
484	1.000000	0.394876	7.36979e+06	-52889.1	1005.82	-29748	0.000000	0.000000	6.394857	0.020329	NaN	0.000000	0.001591	0.001716	28.0808	0.026462	0.001964	13.4735	-13.6063	-163.101	-0.056378	0.393656	-0.682779	-0.683999	0.020329	13.4735	-0.683911	-1.179452E+9	-1.723633E-11	NaN
484	1.000000	0.402944	7.36979e+06	-52889.1	1005.82	-29748	0.000000	0.000000	6.402924	0.016179	NaN	0.000000	0.001593	0.001712	28.0816	0.017072	0.002046	8.343140	61.379	-166.109	0.015417	0.401527	-0.674711	-0.676128	0.016179	8.343140	-0.676166	-9.241904E+8	-1.750610E-11	NaN
484	1.000000	0.410925	7.36979e+06	-52889.1	1005.82	-29748	0.000000	0.000000	6.410904	-0.014897	NaN	0.000000	0.001611	0.001715	28.0812	0.074714	0.002079	35.938	61.4808	-163.191	-0.064691	0.409587	-0.666731	-0.668068	-0.014897	35.938	-0.666420	-6.798000E+8	2.191386E-11	NaN
484	1.000000	0.418925	7.36979e+06	-52889.1	1005.82	-29748	0.000000	0.000000	6.418905	-0.019118	NaN	0.000000	0.001603	0.001728	28.0814	0.055567	0.001954	28.4397	-155.835	-166.345	-0.022536	0.417569	-0.658730	-0.660086	-0.019118	28.4397	-0.658226	-5.250040E+8	3.641470E-11	NaN
484	1.000000	0.426947	7.36979e+06	-52889.1	1005.82	-29748	0.000000	0.000000	6.426927	-0.000740	NaN	0.000000	0.001622	0.001704	28.0814	0.153921	0.002054	74.9217	39.6072	-164.031	-0.018743	0.425551	-0.650708	-0.652104	-0.000740	74.9217	-0.650701	-4.140383E+8	1.786138E-12	NaN
484	1.000000	0.434917	7.36979e+06	-52889.1	1005.82	-29748	0.000000	0.000000	6.434897	-0.007265	NaN	0.000000	0.001565	0.001731	28.0814	0.040087	0.002076	19.3081	25.6725	-169.131	-5.797367E-5	0.433608	-0.642738	-0.644047	-0.007265	19.3081	-0.642456	-3.191390E+8	2.276332E-11	NaN
484	1.000000	0.442944	7.36979e+06	-52889.1	1005.82	-29748	0.000000	0.000000	6.442925	0.033824	NaN	0.000000	0.001588	0.001752	28.0815	0.087764	0.001928	45.5116	-111.37	-165.327	0.016979	0.441660	-0.634711	-0.635995	0.033824	45.5116	-0.635269	-2.543087E+8	-1.330052E-10	NaN
484	1.000000	0.450961	7.36979e+06	-52889.1	1005.82	-29748	0.000000	0.000000	6.450942	0.015340	NaN	0.000000	0.001567	0.001694	28.0811	0.096971	0.001911	50.7547	72.27	-166.324	0.024683	0.449692	-0.626694	-0.627963	0.015340	50.7547	-0.626920	-1.953111E+8	-7.854012E-11	NaN
484	1.000000	0.458937	7.36979e+06	-52889.1	1005.82	-29748	0.000000	0.000000	6.458917	0.005458	NaN	0.000000	0.001631	0.001694	28.0816	0.048183	0.001955	24.651	79.5426	-168.683	-0.021585	0.457661	-0.618719	-0.619994	0.005458	24.651	-0.618885	-1.514612E+8	-3.603322E-11	NaN
484	1.000000	0.466929	7.36979e+06	-52889.1	1005.82	-29748	0.000000	0.000000	6.466910	0.017743	NaN	0.000000	0.001607	0.001727	28.0811	0.104190	0.002083	50.0121	-135.045	-167.082	0.016399	0.465614	-0.610726	-0.612041	0.017743	50.0121	-0.610992	-1.179692E+8	-1.504052E-10	NaN
484	1.000000	0.474932	7.36979e+06	-52889.1	1005.82	-29748	0.000000	0.000000	6.474911	-0.033195	NaN	0.000000	0.001619	0.001714	28.081	0.095855	0.002100	45.6473	82.2919	-163.304	-0.073683	0.473649	-0.602723	-0.604006	-0.033195	45.6473	-0.602178	-8.921714E+7	3.720748E-10	NaN
484	1.000000	0.482939	7.36979e+06	-52889.1	1005.82	-29748	0.000000	0.000000	6.482917	-0.058948	NaN	0.000000	0.001614	0.001715	28.0812	0.078163	0.001901	41.1157	-150.368	-165.889	0.002918	0.481644	-0.594716	-0.596011	-0.058948	41.1157	-0.593641	-6.805306E+7	8.662103E-10	NaN
484	1.000000	0.490979	7.36979e+06	-52889.1	1005.82	-29748	0.000000	0.000000	6.490956	-0.073973	NaN	0.000000	0.001594	0.001694	28.0811	0.137008	0.002056	66.6357	-142.334	-166.113	-0.030997	0.489663	-0.586676	-0.587992	-0.073973	66.6357	-0.585844	-5.313166E+7	1.392264E-9	NaN
484	1.000000	0.498980	7.36979e+06	-52889.1	1005.82	-29748	0.000000	0.000000	6.498960	-0.008215	NaN	0.000000	0.001601	0.001752	28.0816	0.125863	0.001903	66.1229	78.9383	-170.169	0.034393	0.497654	-0.578675	-0.580001	-0.008215	66.1229	-0.578582	-4.218433E+7	1.947429E-10	NaN
484	1.000000	0.506946	7.36979e+06	-52889.1	1005.82	-29748	0.000000	0.000000	6.506926	-0.011612	NaN	0.000000	0.001603	0.001695	28.0812	0.084145	0.002025	41.5558	-109.972	-164.567	0.015747	0.505678	-0.570709	-0.571978	-0.011612	41.5558	-0.570499	-3.262342E+7	3.559298E-10	NaN
484	1.000000	0.514968	7.36979e+06	-52889.1	1005.82	-29748	0.000000	0.000000	6.514946	-0.043760	NaN	0.000000	0.001600	0.001707	28.0813	0.046650	0.002095	22.2714	-17.8813	-165.192	-0.007939	0.513717	-0.562687	-0.563938	-0.043760	22.2714	-0.561214	-2.427549E+7	1.802623E-9	NaN
484	1.000000	0.522958	7.36979e+06	-52889.1	1005.82	-29748	0.000000	0.000000	6.522937	-0.042766	NaN	0.000000	0.001601	0.001683	28.0814	0.057319	0.002041	28.0822	-135.983	-164.406	-0.072795	0.521655	-0.554697	-0.556000	-0.042766	28.0822	-0.553555	-1.901875E+7	2.248634E-9	NaN
484	1.000000	0.530970	7.36979e+06	-52889.1	1005.82	-29748	0.000000	0.000000	6.530951	0.032506	NaN	0.000000	0.001619	0.001660	28.0808	0.115622	0.002072	55.8138	-149.623	-168.841	0.066996	0.529668	-0.546686	-0.547987	0.032506	55.8138	-0.547122	-1.549139E+7	-2.098336E-9	NaN
484	1.000000	0.538997	7.36979e+06	-52889.1	1005.82	-29748	0.000000	0.000000	6.538976	-0.023600	NaN	0.000000	0.001596	0.001666	28.0802	0.054837	0.002054	26.6961	92.6342	-165.479	-0.002376	0.537623	-0.538658	-0.540032	-0.023600	26.6961	-0.537995	-1.157567E+7	2.038787E-9	NaN
484	1.000000	0.546995	7.36979e+06	-52889.1	1005.82	-29748	0.000000	0.000000	6.546974	-0.031902	NaN	0.000000	0.001584	0.001677	28.0799	0.132465	0.001932	68.5798	-102.638	-164.615	0.000223	0.545587	-0.530660	-0.532068	-0.031902	68.5798	-0.530311	-9.05512e+06	3.523051E-9	NaN
484	1.000000	0.554978	7.36979e+06	-52889.1	1005.82	-29748	0.000000	0.000000	6.554960	0.039333	NaN	0.000000	0.001618	0.001708	28.0802	0.101816	0.001938	52.5453	-33.9429	-162.792	0.055024	0.553677	-0.522677	-0.523978	0.039333	52.5453	-0.523238	-7.22142e+06	-5.446688E-9	NaN
484	1.000000	0.562979	7.36979e+06	-52889.1	1005.82	-29748	0.000000	0.000000	6.562959	0.004350	NaN	0.000000	0.001593	0.001690	28.0801	0.041926	0.002037	20.5861	-150.569	-164.048	-0.041976	0.561661	-0.514676	-0.515994	0.004350	20.5861	-0.514835	-5.51739e+06	-7.884977E-10	NaN
484	1.000000	0.570997	7.36979e+06	-52889.1	1005.82	-29748	0.000000	0.000000	6.570975	-0.038174	NaN	0.000000	0.001603	0.001680	28.0801	0.075010	0.002088	35.9215	-125.735	-162.55	0.021125	0.569666	-0.506658	-0.507990	-0.038174	35.9215	-0.505861	-4.13763e+06	9.226048E-9	NaN
484	1.000000	0.578988	7.36979e+06	-52889.1	1005.82	-29748	0.000000	0.000000	6.578970	0.027950	NaN	0.000000	0.001609	0.001690	28.0802	0.053574	0.001872	28.6192	-91.4451	-166.388	0.016671	0.577694	-0.498667	-0.499961	0.027950	28.6192	-0.499399	-3.36231e+06	-8.312622E-9	NaN
484	1.000000	0.587013	7.36979e+06	-52889.1	1005.82	-29748	0.000000	0.000000	6.586990	-0.093087	NaN	0.000000	0.001572	0.001673	28.08	0.109366	0.002107	51.9114	-81.6586	-164.223	-0.091712	0.585698	-0.490642	-0.491957	-0.093087	51.9114	-0.489297	-2.42979e+06	3.831059E-8	NaN
484	1.000000	0.594964	7.36979e+06	-52889.1	1005.82	-29748	0.000000	0.000000	6.594945	0.024933	NaN	0.000000	0.001569	0.001666	28.0805	0.048337	0.002107	22.9365	-93.0823	-164.192	0.024232	0.593754	-0.482691	-0.483901	0.024933	22.9365	-0.483507	-2.01651e+06	-1.236464E-8	NaN
484	1.000000	0.603021	7.36979e+06	-52889.1	1005.82	-29748	0.000000	0.000000	6.603002	0.008766	NaN	0.000000	0.001609	0.001682	28.0802	0.075849	0.001868	40.6031	-40.329	-167.42	0.065199	0.601674	-0.474634	-0.475981	0.008766	40.6031	-0.474796	-1.5228e+06	-5.756721E-9	NaN
484	1.000000	0.610991	7.36979e+06	-52889.1	1005.82	-29748	0.000000	0.000000	6.610970	-0.024511	NaN	0.000000	0.001597	0.001729	28.0801	0.155365	0.001899	81.8344	101.642	-162.347	-0.058149	0.609734	-0.466664	-0.467921	-0.024511	81.8344	-0.466439	-1.16265e+06	2.108190E-8	NaN
484	1.000000	0.619003	7.36979e+06	-52889.1	1005.82	-29748	0.000000	0.000000	6.618983	-0.003426	NaN	0.000000	0.001578	0.001705	28.08	0.012105	0.001981	6.109558	147.74	-169.782	-0.014769	0.617713	-0.458652	-0.459942	-0.003426	6.109558	-0.458232	-891588	3.842113E-9	NaN
484	1.000000	0.627007	7.36979e+06	-52889.1	1005.82	-29748	0.000000	0.000000	6.626990	0.053792	NaN	0.000000	0.001581	0.001683	28.0799	0.038842	0.002057	18.8822	-138.497	-162.241	0.010815	0.625669	-0.450648	-0.451986	0.053792	18.8822	-0.452784	-747380	-7.197440E-8	NaN
484	1.000000	0.635007	7.36979e+06	-52889.1	1005.82	-29748	0.000000	0.000000	6.634987	-0.004150	NaN	0.000000	0.001587	0.001675	28.0802	0.038970	0.002021	19.2797	-57.0466	-169.607	-0.005966	0.633734	-0.442648	-0.443921	-0.004150	19.2797	-0.442487	-535123	7.754551E-9	NaN
484	1.000000	0.643045	7.36979e+06	-52889.1	1005.82	-29748	0.000000	0.000000	6.643023	-0.053687	NaN	0.000000	0.001559	0.001702	28.0802	0.084392	0.001958	43.1007	128.796	-168.561	-0.050055	0.641741	-0.434610	-0.435914	-0.053687	43.1007	-0.433676	-401824	1.336086E-7	NaN
484	1.000000	0.651021	7.36979e+06	-52889.1	1005.82	-29748	0.000000	0.000000	6.651000	-0.032526	NaN	0.000000	0.001587	0.001697	28.0802	0.034566	0.001939	17.823	-77.9557	-165.07	-0.076923	0.649748	-0.426634	-0.427907	-0.032526	17.823	-0.425265	-305520	1.064626E-7	NaN
484	1.000000	0.659033	7.36979e+06	-52889.1	1005.82	-29748	0.000000	0.000000	6.659012	-0.025636	NaN	0.000000	0.001592	0.001723	28.0799	0.020321	0.001929	10.5333	131.529	-168.678	0.026088	0.657702	-0.418622	-0.419954	-0.025636	10.5333	-0.416797	-231721	1.106312E-7	NaN
484	1.000000	0.667037	7.36979e+06	-52889.1	1005.82	-29748	0.000000	0.000000	6.667016	-0.038203	NaN	0.000000	0.001553	0.001714	28.0801	0.006633	0.001929	3.439089	-159.164	-168.061	-0.026659	0.665689	-0.410618	-0.411966	-0.038203	3.439089	-0.402286	-144075	2.651618E-7	NaN
484	1.000000	0.674999	7.36979e+06	-52889.1	1005.82	-29748	0.000000	0.000000	6.674978	-0.035593	NaN	0.000000	0.001640	0.001701	28.0812	0.073363	0.002194	33.4389	-104.115	-166.383	0.035673	0.673680	-0.402656	-0.403975	-0.035593	33.4389	-0.401858	-142064	2.505441E-7	NaN
484	1.000000	0.683034	7.36979e+06	-52889.1	1005.82	-29748	0.000000	0.000000	6.683012	-0.041320	NaN	0.000000	0.001634	0.001703	28.081	0.042929	0.001955	21.9553	19.9756	-167.523	-0.064987	0.681710	-0.394621	-0.395945	-0.041320	21.9553	-0.393210	-106920	3.864553E-7	NaN
484	1.000000	0.691038	7.36979e+06	-52889.1	1005.82	-29748	0.000000	0.000000	6.691018	0.003824	NaN	0.000000	0.001659	0.001688	28.0814	0.087310	0.001837	47.5369	-136.429	-163.354	0.055504	0.689759	-0.386618	-0.387896	0.003824	47.5369	-0.386678	-86222.3	-4.434743E-8	NaN
484	1.000000	0.699035	7.36979e+06	-52889.1	1005.82	-29748	0.000000	0.000000	6.699013	-0.057784	NaN	0.000000	0.001645	0.001706	28.0811	0.110915	0.001944	57.0695	44.4018	-166.28	0.016713	0.697785	-0.378620	-0.379871	-0.057784	57.0695	-0.377861	-64443.6	8.966547E-7	NaN
484	1.000000	0.707047	7.36979e+06	-52889.1	1005.82	-29748	0.000000	0.000000	6.707028	0.012224	NaN	0.000000	0.001600	0.001731	28.0813	0.096665	0.001980	48.8222	72.3362	-165.918	0.007630	0.705731	-0.370608	-0.371924	0.012224	48.8222	-0.370796	-51001.8	-2.396763E-7	NaN
484	1.000000	0.715059	7.36979e+06	-52889.1	1005.82	-29748	0.000000	0.000000	6.715041	0.044421	NaN	0.000000	0.001605	0.001751	28.081	0.045868	0.001998	22.9616	109.176	-168.203	0.034730	0.713741	-0.362596	-0.363914	0.044421	22.9616	-0.364047	-40766.9	-1.089644E-6	NaN
484	1.000000	0.723034	7.36979e+06	-52889.1	1005.82	-29748	0.000000	0.000000	6.723012	-0.041236	NaN	0.000000	0.001578	0.001782	28.0808	0.056661	0.001947	29.0954	-102.113	-162.619	-0.066588	0.721730	-0.354622	-0.355925	-0.041236	29.0954	-0.353559	-28748.4	1.434381E-6	NaN
484	1.000000	0.731046	7.36979e+06	-52889.1	1005.82	-29748	0.000000	0.000000	6.731027	0.020230	NaN	0.000000	0.001555	0.001777	28.0812	0.057227	0.002021	28.3204	-31.3763	-169.5	0.007465	0.729792	-0.346609	-0.347863	0.020230	28.3204	-0.347145	-23202.9	-8.718651E-7	NaN
484	1.000000	0.739053	7.36979e+06	-52889.1	1005.82	-29748	0.000000	0.000000	6.739033	-0.004694	NaN	0.000000	0.001573	0.001802	28.0809	0.069900	0.001938	36.0734	65.9213	-170.542	-0.101051	0.737787	-0.338602	-0.339869	-0.004694	36.0734	-0.338505	-17367.9	2.702732E-7	NaN
484	1.000000	0.747073	7.36979e+06	-52889.1	1005.82	-29748	0.000000	0.000000	6.747053	-0.015256	NaN	0.000000	0.001562	0.001777	28.0816	0.066214	0.001958	33.8206	44.7429	-166.887	-0.090869	0.745774	-0.330582	-0.331881	-0.015256	33.8206	-0.330244	-13152.8	1.159929E-6	NaN
484	1.000000	0.755055	7.36979e+06	-52889.1	1005.82	-29748	0.000000	0.000000	6.755038	0.071036	NaN	0.000000	0.001545	0.001757	28.0808	0.080221	0.001927	41.6321	-48.1683	-165.716	0.055039	0.753774	-0.322600	-0.323881	0.071036	41.6321	-0.323880	-10609.4	-6.695616E-6	NaN
484	1.000000	0.763047	7.36979e+06	-52889.1	1005.82	-29748	0.000000	0.000000	6.763025	-0.053381	NaN	0.000000	0.001566	0.001712	28.0807	0.106576	0.002065	51.5987	150.59	-162.991	0.000651	0.761712	-0.314608	-0.315944	-0.053381	51.5987	-0.313832	-7545.79	7.074219E-6	NaN
484	1.000000	0.771048	7.36979e+06	-52889.1	1005.82	-29748	0.000000	0.000000	6.771028	0.012790	NaN	0.000000	0.001567	0.001691	28.0809	0.097457	0.002029	48.0326	-149.456	-163.616	0.037403	0.769743	-0.306607	-0.307912	0.012790	48.0326	-0.306807	-5939.64	-2.153351E-6	NaN
484	1.000000	0.779082	7.36979e+06	-52889.1	1005.82	-29748	0.000000	0.000000	6.779059	-0.075631	NaN	0.000000	0.001538	0.001670	28.0809	0.036386	0.001953	18.6291	-19.8622	-168.228	-0.026415	0.777714	-0.298574	-0.299941	-0.075631	18.6291	-0.295529	-4036.28	1.873780E-5	NaN
484	1.000000	0.787090	7.36979e+06	-52889.1	1005.82	-29748	0.000000	0.000000	6.787067	-0.087523	NaN	0.000000	0.001581	0.001688	28.0812	0.197355	0.002046	96.4464	-114.208	-165.844	-0.104346	0.785795	-0.290565	-0.291860	-0.087523	96.4464	-0.289884	-3323.29	2.633617E-5	NaN
484	1.000000	0.795060	7.36979e+06	-52889.1	1005.82	-29748	0.000000	0.000000	6.795039	-0.031449	NaN	0.000000	0.001583	0.001757	28.081	0.017067	0.001867	9.142763	170.307	-165.333	-0.007854	0.793740	-0.282595	-0.283915	-0.031449	9.142763	-0.280016	-2361.59	1.331689E-5	NaN
484	1.000000	0.803097	7.36979e+06	-52889.1	1005.82	-29748	0.000000	0.000000	6.803075	-0.049932	NaN	0.000000	0.001597	0.001721	28.0809	0.051972	0.002053	25.3132	34.4799	-166	0.029113	0.801770	-0.274559	-0.275885	-0.049932	25.3132	-0.273079	-1854.78	2.692089E-5	NaN
484	1.000000	0.811065	7.36979e+06	-52889.1	1005.82	-29748	0.000000	0.000000	6.811044	-0.029502	NaN	0.000000	0.001582	0.001781	28.0799	0.013714	0.001972	6.955837	135.535	-164.16	-0.110154	0.809718	-0.266591	-0.267937	-0.029502	6.955837	-0.263410	-1321.6	2.232308E-5	NaN
484	1.000000	0.819086	7.36979e+06	-52889.1	1005.82	-29748	0.000000	0.000000	6.819066	-0.016604	NaN	0.000000	0.001592	0.001758	28.0797	0.080192	0.002101	38.1654	-151.216	-165.296	0.018329	0.817811	-0.258569	-0.259845	-0.016604	38.1654	-0.258243	-1101.45	1.507475E-5	NaN
484	1.000000	0.827082	7.36979e+06	-52889.1	1005.82	-29748	0.000000	0.000000	6.827063	0.016382	NaN	0.000000	0.001613	0.001760	28.0799	0.072093	0.002070	34.8212	99.9942	-167.676	-0.010550	0.825749	-0.250573	-0.251907	0.016382	34.8212	-0.250926	-849.727	-1.927858E-5	NaN
484	1.000000	0.835089	7.36979e+06	-52889.1	1005.82	-29748	0.000000	0.000000	6.835067	-0.060808	NaN	0.000000	0.001608	0.001743	28.0799	0.065684	0.001958	33.5438	-63.2236	-164.897	-0.055274	0.833758	-0.242566	-0.243897	-0.060808	33.5438	-0.241206	-600.322	0.000101	NaN
484	1.000000	0.843103	7.36979e+06	-52889.1	1005.82	-29748	0.000000	0.000000	6.843083	-0.024149	NaN	0.000000	0.001589	0.001752	28.0802	0.102420	0.001906	53.7495	122.452	-161.798	-0.003347	0.841793	-0.234552	-0.235862	-0.024149	53.7495	-0.234215	-466.565	5.175910E-5	NaN
484	1.000000	0.851103	7.36979e+06	-52889.1	1005.82	-29748	0.000000	0.000000	6.851085	0.049481	NaN	0.000000	0.001600	0.001751	28.08	0.106772	0.002021	52.8368	73.1669	-168.269	0.102902	0.849772	-0.226553	-0.227883	0.049481	52.8368	-0.227255	-362.329	-0.000137	NaN
484	1.000000	0.859108	7.36979e+06	-52889.1	1005.82	-29748	0.000000	0.000000	6.859089	0.019151	NaN	0.000000	0.001535	0.001719	28.0799	0.071171	0.002085	34.1416	3.515915	-166.045	0.007264	0.857825	-0.218547	-0.219830	0.019151	34.1416	-0.218968	-267.409	-7.161801E-5	NaN
484	1.000000	0.867098	7.36979e+06	-52889.1	1005.82	-29748	0.000000	0.000000	6.867079	0.017829	NaN	0.000000	0.001611	0.001760	28.0798	0.071837	0.001962	36.6219	155.987	-165.58	0.024552	0.865735	-0.210557	-0.211920	0.017829	36.6219	-0.210922	-198.491	-8.982285E-5	NaN
484	1.000000	0.875102	7.36979e+06	-52889.1	1005.82	-29748	0.000000	0.000000	6.875082	-0.003900	NaN	0.000000	0.001571	0.001664	28.0799	0.021507	0.002044	10.5202	-144.114	-165.375	0.008037	0.873762	-0.202553	-0.203893	-0.003900	10.5202	-0.202275	-143.555	2.716638E-5	NaN
484	1.000000	0.883116	7.36979e+06	-52889.1	1005.82	-29748	0.000000	0.000000	6.883096	-0.004171	NaN	0.000000	0.001536	0.001731	28.0802	0.104702	0.001916	54.6502	159.272	-165.849	0.026290	0.881812	-0.194539	-0.195843	-0.004171	54.6502	-0.194482	-106.811	3.904675E-5	NaN
484	1.000000	0.891136	7.36979e+06	-52889.1	1005.82	-29748	0.000000	0.000000	6.891115	-0.025536	NaN	0.000000	0.001560	0.001669	28.0803	0.043953	0.001923	22.8611	-79.7317	-163.514	-0.037138	0.889820	-0.186519	-0.187835	-0.025536	22.8611	-0.185682	-76.14	0.000335	NaN
484	1.000000	0.899131	7.36979e+06	-52889.1	1005.82	-29748	0.000000	0.000000	6.899114	0.077936	NaN	0.000000	0.001575	0.001709	28.0801	0.048537	0.002110	23.0037	-127.694	-167.409	-0.015824	0.897809	-0.178525	-0.179846	0.077936	23.0037	-0.181066	-63.6175	-0.001225	NaN
484	1.000000	0.907125	7.36979e+06	-52889.1	1005.82	-29748	0.000000	0.000000	6.907109	0.083946	NaN	0.000000	0.001581	0.001679	28.08	0.071800	0.001887	38.0599	-160.695	-164.803	0.131691	0.905778	-0.170530	-0.171878	0.083946	38.0599	-0.172184	-44.8185	-0.001873	NaN
484	1.000000	0.915115	7.36979e+06	-52889.1	1005.82	-29748	0.000000	0.000000	6.915098	0.058744	NaN	0.000000	0.001543	0.001707	28.08	0.096830	0.001967	49.215	-167.175	-166.768	-0.014852	0.913830	-0.162540	-0.163825	0.058744	49.215	-0.163435	-31.5335	-0.001863	NaN
484	1.000000	0.923129	7.36979e+06	-52889.1	1005.82	-29748	0.000000	0.000000	6.923112	0.064571	NaN	0.000000	0.001575	0.001713	28.0802	0.019688	0.002006	9.816751	177.668	-165.57	0.014591	0.921809	-0.154526	-0.155847	0.064571	9.816751	-0.159459	-26.8145	-0.002408	NaN
484	1.000000	0.931144	7.36979e+06	-52889.1	1005.82	-29748	0.000000	0.000000	6.931125	0.015828	NaN	0.000000	0.001566	0.001677	28.0803	0.027586	0.002016	13.6857	23.4837	-164.007	0.008243	0.929824	-0.146511	-0.147831	0.015828	13.6857	-0.147378	-16.2186	-0.000976	NaN
484	1.000000	0.939121	7.36979e+06	-52889.1	1005.82	-29748	0.000000	0.000000	6.939101	-0.016381	NaN	0.000000	0.001571	0.001688	28.0805	0.018240	0.001925	9.475737	173.833	-168.195	0.003495	0.937815	-0.138534	-0.139840	-0.016381	9.475737	-0.137237	-10.4916	0.001561	NaN
484	1.000000	0.947158	7.36979e+06	-52889.1	1005.82	-29748	0.000000	0.000000	6.947137	-0.026761	NaN	0.000000	0.001580	0.001707	28.0814	0.123829	0.002084	59.4291	-115.305	-164.559	0.024126	0.945816	-0.130497	-0.131839	-0.026761	59.4291	-0.130160	-7.675565	0.003487	NaN
484	1.000000	0.955175	7.36979e+06	-52889.1	1005.82	-29748	0.000000	0.000000	6.955154	-0.025593	NaN	0.000000	0.001566	0.001655	28.0817	0.092020	0.002014	45.6833	-130.048	-167.649	-0.074236	0.953892	-0.122480	-0.123764	-0.025593	45.6833	-0.122060	-5.314784	0.004815	NaN
484	1.000000	0.963152	7.36979e+06	-52889.1	1005.82	-29748	0.000000	0.000000	6.963130	-0.047812	NaN	0.000000	0.001577	0.001701	28.0814	0.072574	0.002107	34.4445	-139.459	-171.505	-0.006921	0.961825	-0.114503	-0.115830	-0.047812	34.4445	-0.113462	-3.550604	0.013466	NaN
484	1.000000	0.971184	7.36979e+06	-52889.1	1005.82	-29748	0.000000	0.000000	6.971166	0.041611	NaN	0.000000	0.001547	0.001698	28.0816	0.071453	0.002028	35.2348	173.914	-165.002	0.046870	0.969833	-0.106471	-0.107822	0.041611	35.2348	-0.107357	-2.641141	-0.015755	NaN
484	1.000000	0.979167	7.36979e+06	-52889.1	1005.82	-29748	0.000000	0.000000	6.979149	0.038109	NaN	0.000000	0.001563	0.001667	28.0816	0.060352	0.002034	29.6742	-89.4749	-165.546	0.118536	0.977861	-0.098488	-0.099794	0.038109	29.6742	-0.099451	-1.776602	-0.021451	NaN
484	1.000000	0.987176	7.36979e+06	-52889.1	1005.82	-29748	0.000000	0.000000	6.987154	-0.057562	NaN	0.000000	0.001588	0.001712	28.0815	0.066945	0.002025	33.0535	127.587	-164.368	-0.089856	0.985835	-0.090479	-0.091820	-0.057562	33.0535	-0.089173	-1.033635	0.055689	NaN
484	1.000000	0.995190	7.36979e+06	-52889.1	1005.82	-29748	0.000000	0.000000	6.995168	-0.051075	NaN	0.000000	0.001537	0.001730	28.0818	0.117889	0.001956	60.2731	-143.824	-163.755	-0.008068	0.993824	-0.082465	-0.083831	-0.051075	60.2731	-0.081830	-0.687330	0.074309	NaN
484	1.000000	1.003154	7.36979e+06	-52889.1	1005.82	-29748	0.000000	0.000000	7.003135	0.026475	NaN	0.000000	0.001554	0.001719	28.0815	0.046148	0.001910	24.1602	-22.1439	-165.696	-0.015426	1.001871	-0.074502	-0.075784	0.026475	24.1602	-0.075323	-0.470845	-0.056230	NaN
484	1.000000	1.011156	7.36979e+06	-52889.1	1005.82	-29748	0.000000	0.000000	7.011135	-0.033169	NaN	0.000000	0.001559	0.001679	28.0816	0.078140	0.002078	37.6025	113.973	-166.664	-0.018003	1.009838	-0.066499	-0.067817	-0.033169	37.6025	-0.065837	-0.262868	0.126180	NaN
484	1.000000	1.019143	7.36979e+06	-52889.1	1005.82	-29748	0.000000	0.000000	7.019125	0.048406	NaN	0.000000	0.001556	0.001687	28.0816	0.084923	0.001920	44.2384	179.017	-166.946	-0.013126	1.017874	-0.058512	-0.059781	0.048406	44.2384	-0.059333	-0.172314	-0.280920	NaN
484	1.000000	1.027188	7.36979e+06	-52889.1	1005.82	-29748	0.000000	0.000000	7.027171	0.057206	NaN	0.000000	0.001529	0.001709	28.0816	0.038645	0.001942	19.8994	-81.251	-165.324	0.114008	1.025806	-0.050467	-0.051849	0.057206	19.8994	-0.052623	-0.109432	-0.522757	NaN
484	1.000000	1.035163	7.36979e+06	-52889.1	1005.82	-29748	0.000000	0.000000	7.035145	0.034493	NaN	0.000000	0.001574	0.001726	28.082	0.030714	0.001939	15.8409	-50.047	-166.415	-0.010350	1.033827	-0.042492	-0.043828	0.034493	15.8409	-0.044125	-0.060428	-0.570813	NaN
484	1.000000	1.043174	7.36979e+06	-52889.1	1005.82	-29748	0.000000	0.000000	7.043151	-0.075803	NaN	0.000000	0.001548	0.001713	28.0811	0.045508	0.002031	22.4032	-41.9715	-165.135	-0.056668	1.041883	-0.034482	-0.035772	-0.075803	22.4032	-0.031944	-0.026110	2.903222	NaN
484	1.000000	1.051176	7.36979e+06	-52889.1	1005.82	-29748	0.000000	0.000000	7.051157	0.002668	NaN	0.000000	0.001592	0.001714	28.0816	0.095372	0.001981	48.1394	-105.722	-167.719	-0.001709	1.049835	-0.026479	-0.027820	0.002668	48.1394	-0.026520	-0.018501	-0.144184	NaN
484	1.000000	1.059202	7.36979e+06	-52889.1	1005.82	-29748	0.000000	0.000000	7.059180	-0.041861	NaN	0.000000	0.001543	0.001717	28.0815	0.113112	0.002126	53.1948	-172.739	-164.154	-0.079009	1.057877	-0.018453	-0.019778	-0.041861	53.1948	-0.017863	-0.011072	3.780928	NaN
484	1.000000	1.067171	7.36979e+06	-52889.1	1005.82	-29748	0.000000	0.000000	7.067151	-0.012388	NaN	0.000000	0.001607	0.001715	28.0816	0.072803	0.002008	36.2655	138.669	-165.76	-0.029613	1.065850	-0.010484	-0.011805	-0.012388	36.2655	-0.010228	-0.006518	1.900672	NaN
484	1.000000	1.075189	7.36979e+06	-52889.1	1005.82	-29748	0.000000	0.000000	7.075188	0.446245	NaN	0.000000	0.001575	0.001696	28.0816	0.939306	0.001997	470.243	3.024094	-162.861	0.053791	1.073879	-0.002466	-0.003776	0.446245	470.243	-0.003177	-0.002239	-199.315	NaN
484	2.000000	1.082660	7.36979e+06	-52889.1	1005.82	-29748	0.000000	0.000000	7.082984	8.370061	NaN	0.000000	0.001548	0.001733	28.0802	8.317859	0.001529	5441.31	4.026163	-169.124	7.520153	1.081815	0.005004	0.004160	8.370061	5441.31	0.003851	0.003108	2692.64	89166.5
484	2.000000	1.084838	7.36979e+06	-52889.1	1005.82	-29748	0.000000	0.000000	7.085205	9.423840	NaN	0.000000	0.001597	0.001717	28.0815	9.917550	0.001571	6313.81	4.980004	-171.128	9.354206	1.084531	0.007183	0.006876	9.423840	6313.81	0.006063	0.005125	1838.91	80580.7
484	2.000000	1.086816	7.36979e+06	-52889.1	1005.82	-29748	0.000000	0.000000	7.087325	12.859	NaN	0.000000	0.001571	0.001712	28.0803	13.1269	0.001717	7646.82	8.103435	-175.138	12.7718	1.086511	0.009161	0.008855	12.859	7646.82	0.007899	0.006939	1853.16	83870
484	2.000000	1.088822	7.36979e+06	-52889.1	1005.82	-29748	0.000000	0.000000	7.089482	16.5351	NaN	0.000000	0.001590	0.001690	28.0802	15.6156	0.001778	8780.93	5.429288	-174.068	15.8854	1.088518	0.011167	0.010863	16.5351	8780.93	0.009755	0.008910	1855.75	84990.6
484	2.000000	1.090785	7.36979e+06	-52889.1	1005.82	-29748	0.000000	0.000000	7.091544	18.9458	NaN	0.000000	0.001605	0.001681	28.0801	17.4753	0.001830	9551.53	7.333579	-176.249	17.3662	1.090408	0.013130	0.012753	18.9458	9551.53	0.011642	0.011064	1712.32	82962.6
484	2.000000	1.092770	7.36979e+06	-52889.1	1005.82	-29748	0.000000	0.000000	7.093682	22.6675	NaN	0.000000	0.001614	0.001700	28.0805	19.6047	0.001745	11237	2.935924	-174.353	22.2675	1.092490	0.015114	0.014835	22.6675	11237	0.013601	0.013465	1683.38	88473.8
484	2.000000	1.094727	7.36979e+06	-52889.1	1005.82	-29748	0.000000	0.000000	7.095991	31.2187	NaN	0.000000	0.001596	0.001713	28.081	21.7159	0.001563	13894.2	5.090656	-179.593	29.3803	1.094429	0.017072	0.016774	31.2187	13894.2	0.015386	0.015804	1975.35	100977
484	2.000000	1.096739	7.36979e+06	-52889.1	1005.82	-29748	0.000000	0.000000	7.098126	34.215	NaN	0.000000	0.001613	0.001704	28.0804	24.6147	0.001763	13959.3	5.513703	-178.959	33.4362	1.096409	0.019083	0.018753	34.215	13959.3	0.017245	0.018397	1859.83	94029.7
484	2.000000	1.098731	7.36979e+06	-52889.1	1005.82	-29748	0.000000	0.000000	7.100469	42.7425	NaN	0.000000	0.001634	0.001677	28.0804	26.7578	0.001749	15296.6	4.944983	-179.137	40.2617	1.098445	0.021076	0.020790	42.7425	15296.6	0.018980	0.020965	2038.75	96520.3
484	2.000000	1.100732	7.36979e+06	-52889.1	1005.82	-29748	0.000000	0.000000	7.102731	49.1047	NaN	0.000000	0.001579	0.001654	28.0805	28.8845	0.001635	17664.6	8.267162	176.378	47.5662	1.100351	0.023076	0.022696	49.1047	17664.6	0.020992	0.024124	2035.48	103908
484	2.000000	1.102696	7.36979e+06	-52889.1	1005.82	-29748	0.000000	0.000000	7.104851	52.8736	NaN	0.000000	0.001617	0.001665	28.0806	31.1145	0.001663	18712.6	5.411611	178.232	50.951	1.102476	0.025041	0.024820	52.8736	18712.6	0.022922	0.027343	1933.71	103392
484	2.000000	1.104792	7.36979e+06	-52889.1	1005.82	-29748	0.000000	0.000000	7.107108	56.8	NaN	0.000000	0.001593	0.001677	28.0805	32.1963	0.001695	18990.8	3.263543	-179.296	58.6188	1.104427	0.027136	0.026772	56.8	18990.8	0.024893	0.030822	1842.86	98829.8
484	2.000000	1.106740	7.36979e+06	-52889.1	1005.82	-29748	0.000000	0.000000	7.109437	66.0575	NaN	0.000000	0.001598	0.001673	28.0806	34.6349	0.001754	19742.7	-0.440372	-175.549	65.9229	1.106361	0.029085	0.028705	66.0575	19742.7	0.026575	0.033944	1946.09	97903.7
484	2.000000	1.108756	7.36979e+06	-52889.1	1005.82	-29748	0.000000	0.000000	7.111695	71.9393	NaN	0.000000	0.001611	0.001686	28.0805	37.7512	0.001853	20368.4	6.042010	177.376	71.1593	1.108426	0.031101	0.030770	71.9393	20368.4	0.028452	0.037596	1913.47	95974.9
484	2.000000	1.110710	7.36979e+06	-52889.1	1005.82	-29748	0.000000	0.000000	7.113997	80.4082	NaN	0.000000	0.001582	0.001676	28.0803	38.5462	0.001733	22242.7	2.745304	-179.705	79.3028	1.110336	0.033054	0.032681	80.4082	22242.7	0.030343	0.041458	1939.51	99806.2
484	2.000000	1.112715	7.36979e+06	-52889.1	1005.82	-29748	0.000000	0.000000	7.116300	87.6385	NaN	0.000000	0.001606	0.001700	28.0803	41.7203	0.001775	23509.1	5.020179	176.83	86.2638	1.112352	0.035060	0.034696	87.6385	23509.1	0.032264	0.045568	1923.26	100619
484	2.000000	1.114692	7.36979e+06	-52889.1	1005.82	-29748	0.000000	0.000000	7.118678	97.389	NaN	0.000000	0.001534	0.001682	28.0813	42.9388	0.001788	24017.2	6.296183	175.329	95.9924	1.114406	0.037037	0.036750	97.389	24017.2	0.033996	0.049434	1970.08	98692
484	2.000000	1.116715	7.36979e+06	-52889.1	1005.82	-29748	0.000000	0.000000	7.120907	102.396	NaN	0.000000	0.001544	0.001703	28.0816	45.5872	0.001913	23834.2	4.684797	177.109	101.271	1.116430	0.039060	0.038775	102.396	23834.2	0.035838	0.053715	1906.28	93956.1
484	2.000000	1.118736	7.36979e+06	-52889.1	1005.82	-29748	0.000000	0.000000	7.123242	110.034	NaN	0.000000	0.001562	0.001705	28.0816	46.9034	0.001822	25745.1	2.651993	177.972	110.722	1.118479	0.041081	0.040824	110.034	25745.1	0.037876	0.058654	1876	97122.5
484	2.000000	1.120629	7.36979e+06	-52889.1	1005.82	-29748	0.000000	0.000000	7.125652	122.625	NaN	0.000000	0.001570	0.001694	28.0816	48.0677	0.001840	26129.4	5.836712	175.429	117.755	1.120312	0.042973	0.042657	122.625	26129.4	0.039454	0.062624	1958.11	95396.4
484	2.000000	1.122713	7.36979e+06	-52889.1	1005.82	-29748	0.000000	0.000000	7.127928	127.27	NaN	0.000000	0.001588	0.001641	28.0819	50.4668	0.001802	28012.7	8.295858	171.571	127.484	1.122407	0.045058	0.044752	127.27	28012.7	0.041650	0.068363	1861.67	97885.3
484	2.000000	1.124686	7.36979e+06	-52889.1	1005.82	-29748	0.000000	0.000000	7.130254	135.871	NaN	0.000000	0.001554	0.001691	28.0821	50.6561	0.001795	28220	3.959794	176.638	133.265	1.124389	0.047031	0.046734	135.871	28220	0.043420	0.073164	1857.06	95319.2
484	2.000000	1.126676	7.36979e+06	-52889.1	1005.82	-29748	0.000000	0.000000	7.132684	146.554	NaN	0.000000	0.001518	0.001692	28.0816	53.5155	0.001845	29011.7	6.303405	173.842	144.755	1.126342	0.049021	0.048687	146.554	29011.7	0.045233	0.078249	1872.93	94756.1
484	2.000000	1.128708	7.36979e+06	-52889.1	1005.82	-29748	0.000000	0.000000	7.135159	157.334	NaN	0.000000	0.001569	0.001663	28.0817	54.7148	0.001766	30989.9	2.185811	176.982	157	1.128469	0.051052	0.050814	157.334	30989.9	0.047245	0.084087	1871.07	97640.1
484	2.000000	1.130659	7.36979e+06	-52889.1	1005.82	-29748	0.000000	0.000000	7.137319	162.412	NaN	0.000000	0.001542	0.001705	28.0817	57.367	0.001883	30466.4	6.673850	173.276	159.47	1.130311	0.053004	0.052656	162.412	30466.4	0.049006	0.089365	1817.4	93113
484	2.000000	1.132689	7.36979e+06	-52889.1	1005.82	-29748	0.000000	0.000000	7.139753	172.226	NaN	0.000000	0.001594	0.001697	28.0819	58.6631	0.001761	33314.5	2.905524	175.98	171.174	1.132433	0.055034	0.054777	172.226	33314.5	0.051157	0.096023	1793.59	98224.3
484	2.000000	1.134723	7.36979e+06	-52889.1	1005.82	-29748	0.000000	0.000000	7.142324	185.3	NaN	0.000000	0.001541	0.001654	28.0816	59.7735	0.001779	33595.7	6.427814	172.507	186.98	1.134377	0.057068	0.056722	185.3	33595.7	0.052931	0.101688	1822.25	96255
484	2.000000	1.136603	7.36979e+06	-52889.1	1005.82	-29748	0.000000	0.000000	7.144482	192.063	NaN	0.000000	0.001516	0.001678	28.0818	62.0814	0.001711	36291.1	3.413284	174.292	187.85	1.136357	0.058947	0.058702	192.063	36291.1	0.054978	0.108419	1771.48	100698
484	2.000000	1.138808	7.36979e+06	-52889.1	1005.82	-29748	0.000000	0.000000	7.147050	200.887	NaN	0.000000	0.001558	0.001690	28.082	66.0883	0.001961	33694.3	8.328306	171.021	207.566	1.138393	0.061152	0.060738	200.887	33694.3	0.056681	0.114176	1759.45	91105
484	2.000000	1.140785	7.36979e+06	-52889.1	1005.82	-29748	0.000000	0.000000	7.149474	211.732	NaN	0.000000	0.001553	0.001681	28.0818	66.9751	0.001819	36817.4	8.275761	170.284	215.893	1.140259	0.063130	0.062604	211.732	36817.4	0.058817	0.121600	1741.23	96462.9
484	2.000000	1.142665	7.36979e+06	-52889.1	1005.82	-29748	0.000000	0.000000	7.151743	221.212	NaN	0.000000	0.001541	0.001716	28.0817	68.1178	0.001792	38012.3	4.088742	174.147	221.125	1.142363	0.065010	0.064708	221.212	38012.3	0.060645	0.128132	1726.44	97021.5
484	2.000000	1.144644	7.36979e+06	-52889.1	1005.82	-29748	0.000000	0.000000	7.154192	232.626	NaN	0.000000	0.001527	0.001655	28.0815	69.3543	0.001755	39514.1	3.426698	173.767	231.847	1.144403	0.066989	0.066748	232.626	39514.1	0.062574	0.135199	1720.62	98183.6
484	2.000000	1.146668	7.36979e+06	-52889.1	1005.82	-29748	0.000000	0.000000	7.156716	244.784	NaN	0.000000	0.001541	0.001687	28.0818	71.7986	0.001900	37798	3.671852	174.16	243.658	1.146317	0.069013	0.068661	244.784	37798	0.064156	0.141132	1734.43	91923.9
484	2.000000	1.148813	7.36979e+06	-52889.1	1005.82	-29748	0.000000	0.000000	7.159115	250.979	NaN	0.000000	0.001539	0.001638	28.082	73.7896	0.001885	39151.2	7.091701	170.798	256.243	1.148403	0.071158	0.070748	250.979	39151.2	0.066350	0.149557	1678.15	92494.3
484	2.000000	1.150647	7.36979e+06	-52889.1	1005.82	-29748	0.000000	0.000000	7.161497	264.269	NaN	0.000000	0.001546	0.001660	28.0805	74.6874	0.001678	44508.4	10.1101	166.206	263.147	1.150446	0.072992	0.072790	264.269	44508.4	0.068539	0.158196	1670.51	102239
484	2.000000	1.152662	7.36979e+06	-52889.1	1005.82	-29748	0.000000	0.000000	7.163947	274.86	NaN	0.000000	0.001544	0.001667	28.0802	78.0915	0.001730	45142.7	4.520344	171.747	273.374	1.152388	0.075007	0.074733	274.86	45142.7	0.070440	0.165882	1656.95	101265
484	2.000000	1.154555	7.36979e+06	-52889.1	1005.82	-29748	0.000000	0.000000	7.166383	288.058	NaN	0.000000	0.001548	0.001658	28.0805	77.5798	0.001794	43251	1.809208	175.197	281.707	1.154289	0.076900	0.076634	288.058	43251	0.071905	0.171924	1675.49	95301.6
484	2.000000	1.156711	7.36979e+06	-52889.1	1005.82	-29748	0.000000	0.000000	7.169079	301.201	NaN	0.000000	0.001553	0.001655	28.0805	80.3962	0.001802	44617.7	2.788862	174.399	304.474	1.156397	0.079056	0.078742	301.201	44617.7	0.073993	0.180709	1666.77	95893.8
484	2.000000	1.158768	7.36979e+06	-52889.1	1005.82	-29748	0.000000	0.000000	7.171779	316.816	NaN	0.000000	0.001545	0.001656	28.0808	83.3489	0.001868	44630.7	11.4279	167.131	319.937	1.158218	0.081113	0.080562	316.816	44630.7	0.075789	0.188432	1681.33	93935.6
484	2.000000	1.160543	7.36979e+06	-52889.1	1005.82	-29748	0.000000	0.000000	7.174109	330.327	NaN	0.000000	0.001558	0.001630	28.0807	84.1002	0.001886	44584.4	4.553708	172.732	323.746	1.160100	0.082887	0.082445	330.327	44584.4	0.077331	0.195180	1692.42	92201.6
484	2.000000	1.162616	7.36979e+06	-52889.1	1005.82	-29748	0.000000	0.000000	7.176331	333.953	NaN	0.000000	0.001534	0.001636	28.0802	87.7839	0.001946	45103.1	6.449640	170.73	330.83	1.162326	0.084961	0.084671	333.953	45103.1	0.079408	0.204449	1633.43	91135.4
484	2.000000	1.164638	7.36979e+06	-52889.1	1005.82	-29748	0.000000	0.000000	7.179039	350.641	NaN	0.000000	0.001576	0.001665	28.0804	87.412	0.001715	50978.9	1.684908	173.712	349.904	1.164389	0.086982	0.086734	350.641	50978.9	0.081824	0.215484	1627.23	100336
484	2.000000	1.166590	7.36979e+06	-52889.1	1005.82	-29748	0.000000	0.000000	7.181580	364.951	NaN	0.000000	0.001561	0.001639	28.0804	89.7856	0.001785	50312.4	3.339827	172.958	359.439	1.166220	0.088935	0.088565	364.951	50312.4	0.083495	0.223273	1634.55	97281.4
484	2.000000	1.168668	7.36979e+06	-52889.1	1005.82	-29748	0.000000	0.000000	7.184339	381.517	NaN	0.000000	0.001547	0.001652	28.0806	92.5872	0.001801	51407.8	5.814175	170.425	381.988	1.168218	0.091013	0.090562	381.517	51407.8	0.085447	0.232537	1640.67	97399.3
484	2.000000	1.170560	7.36979e+06	-52889.1	1005.82	-29748	0.000000	0.000000	7.187072	401.946	NaN	0.000000	0.001574	0.001645	28.0805	94.685	0.001805	52450.2	7.864503	167.56	397.929	1.170338	0.092905	0.092683	401.946	52450.2	0.087157	0.240799	1669.22	97654.7
484	2.000000	1.172671	7.36979e+06	-52889.1	1005.82	-29748	0.000000	0.000000	7.189591	411.876	NaN	0.000000	0.001591	0.001624	28.0805	96.6743	0.001807	53511.8	4.176900	171.121	411.635	1.172334	0.095016	0.094679	411.876	53511.8	0.089243	0.251058	1640.56	97574.4
484	2.000000	1.174630	7.36979e+06	-52889.1	1005.82	-29748	0.000000	0.000000	7.192544	436.037	NaN	0.000000	0.001559	0.001639	28.0807	97.1982	0.001889	51450.4	2.173600	173.666	433.912	1.174386	0.096975	0.096731	436.037	51450.4	0.090618	0.257930	1690.52	92557.3
484	2.000000	1.176558	7.36979e+06	-52889.1	1005.82	-29748	0.000000	0.000000	7.195280	455.687	NaN	0.000000	0.001603	0.001654	28.0803	99.2074	0.001849	53653.5	7.902762	167.439	451.777	1.176322	0.098903	0.098667	455.687	53653.5	0.092533	0.267643	1702.59	94753
484	2.000000	1.178595	7.36979e+06	-52889.1	1005.82	-29748	0.000000	0.000000	7.198008	472.48	NaN	0.000000	0.001602	0.001614	28.0804	100.474	0.001838	54672.2	4.438338	171.009	468.691	1.178215	0.100940	0.100560	472.48	54672.2	0.094458	0.277579	1702.15	94808.4
484	2.000000	1.180636	7.36979e+06	-52889.1	1005.82	-29748	0.000000	0.000000	7.200620	486.365	NaN	0.000000	0.001634	0.001633	28.0805	101.067	0.001759	57448.7	3.225811	171.652	485.645	1.180432	0.102981	0.102777	486.365	57448.7	0.096632	0.288996	1682.95	97635.5
484	2.000000	1.181023	7.36979e+06	-52889.1	1005.82	-29748	0.000000	0.000000	7.201372	495.255	NaN	0.000000	0.001625	0.001632	28.0805	101.882	0.001791	56897.3	5.733457	-10.7061	486.919	1.180711	0.103368	0.103056	495.255	56897.3	0.096839	0.290099	1707.2	96514.4