File: remote_trans/data/nanoindenter/0828-1/data/Data_2025-08-06,11h17m57s/2025-07-22_16-23-58_1_735.txt
2025-07-22, 16:23:58, 1
Index	Phase	Displacement	Time	Pos X	Pos Y	Pos Z	Rot A	Rot B	Piezo Z	Force A	Force B	Gripper	Voltage A	Voltage B	Temperature	Amplitude force	Amplitude pos	Stiffness	Phase shift	Phase excitation	Force A raw	Displacement raw	HMax	HMax raw	Real Force	Real Stiffness	Contact Depth	Area	Hardness	Reduced Mod.
[#]	[#]	[um]	[s]	[um]	[um]	[um]	[m°]	[m°]	[um]	[uN]	[uN]	[V]	[V]	[V]	[°C]	[uN]	[um]	[N/m]	[°]	[°]	[uN]	[um]	[um]	[um]	[uN]	[N/m]	[um]	[um^2]	[MPa]	[MPa]
735	1.000000	0.002047	7.37224e+06	-40339.1	1005.82	-29790.2	0.000000	0.000000	6.002818	-0.037997	NaN	0.000000	0.001604	0.001723	28.0822	0.112069	0.000911	123.054	-140.761	-164.406	-0.059281	0.000728	-1.175990	-1.177309	-0.037997	123.054	-1.175758	-5.200475E+15	7.306413E-18	NaN
735	1.000000	0.012072	7.37224e+06	-40339.1	1005.82	-29790.2	0.000000	0.000000	6.012842	-0.060892	NaN	0.000000	0.001599	0.001733	28.0823	0.137861	0.001183	116.557	-23.4808	16.6082	-0.074602	0.010611	-1.165965	-1.167427	-0.060892	116.557	-1.165573	-3.798083E+15	1.603242E-17	NaN
735	1.000000	0.021962	7.37224e+06	-40339.1	1005.82	-29790.2	0.000000	0.000000	6.022735	0.010180	NaN	0.000000	0.001564	0.001690	28.0823	0.088053	0.001647	53.4486	-56.4299	-169.336	0.020070	0.020658	-1.156075	-1.157379	0.010180	53.4486	-1.156218	-2.845599E+15	-3.577553E-18	NaN
735	1.000000	0.031968	7.37224e+06	-40339.1	1005.82	-29790.2	0.000000	0.000000	6.032737	-0.075668	NaN	0.000000	0.001559	0.001703	28.0824	0.092071	0.001954	47.1298	101.617	12.0864	-0.043196	0.030601	-1.146069	-1.147436	-0.075668	47.1298	-1.144865	-2.004364E+15	3.775157E-17	NaN
735	1.000000	0.041985	7.37224e+06	-40339.1	1005.82	-29790.2	0.000000	0.000000	6.042754	-0.064328	NaN	0.000000	0.001588	0.001730	28.0836	0.064896	0.001916	33.8706	-123.987	-166.934	-0.078526	0.040648	-1.136052	-1.137390	-0.064328	33.8706	-1.134628	-1.461142E+15	4.402594E-17	NaN
735	1.000000	0.051971	7.37224e+06	-40339.1	1005.82	-29790.2	0.000000	0.000000	6.052744	0.016692	NaN	0.000000	0.001654	0.001687	28.0838	0.040627	0.001920	21.1635	109.053	12.6004	-0.037107	0.050611	-1.126066	-1.127426	0.016692	21.1635	-1.126658	-1.142323E+15	-1.461274E-17	NaN
735	1.000000	0.061995	7.37224e+06	-40339.1	1005.82	-29790.2	0.000000	0.000000	6.062767	-0.006475	NaN	0.000000	0.001646	0.001717	28.0837	0.126137	0.001927	65.4607	-33.5006	-164.526	-0.030359	0.060752	-1.116042	-1.117285	-0.006475	65.4607	-1.115968	-8.210505E+14	7.885735E-18	NaN
735	1.000000	0.071996	7.37224e+06	-40339.1	1005.82	-29790.2	0.000000	0.000000	6.072767	-0.025427	NaN	0.000000	0.001657	0.001721	28.0839	0.074368	0.002000	37.1763	77.7554	15.7093	-0.057885	0.070618	-1.106041	-1.107419	-0.025427	37.1763	-1.105528	-5.946570E+14	4.275973E-17	NaN
735	1.000000	0.081983	7.37224e+06	-40339.1	1005.82	-29790.2	0.000000	0.000000	6.082754	-0.011719	NaN	0.000000	0.001670	0.001769	28.0837	0.074645	0.001992	37.4718	0.982694	-166.812	0.030087	0.080698	-1.096055	-1.097339	-0.011719	37.4718	-1.095820	-4.405078E+14	2.660385E-17	NaN
735	1.000000	0.092020	7.37224e+06	-40339.1	1005.82	-29790.2	0.000000	0.000000	6.092793	0.042495	NaN	0.000000	0.001639	0.001770	28.0835	0.065717	0.001986	33.0904	8.226922	13.2675	0.088550	0.090593	-1.086018	-1.087444	0.042495	33.0904	-1.086981	-3.351734E+14	-1.267863E-16	NaN
735	1.000000	0.101980	7.37224e+06	-40339.1	1005.82	-29790.2	0.000000	0.000000	6.102748	-0.080438	NaN	0.000000	0.001647	0.001769	28.0836	0.021085	0.001962	10.7485	83.152	-163.378	-0.056130	0.100716	-1.076058	-1.077321	-0.080438	10.7485	-1.070445	-2.009867E+14	4.002136E-16	NaN
735	1.000000	0.111986	7.37224e+06	-40339.1	1005.82	-29790.2	0.000000	0.000000	6.112758	-0.010566	NaN	0.000000	0.001680	0.001779	28.0836	0.029962	0.001956	15.3195	148.548	17.8745	-0.051798	0.110626	-1.066051	-1.067411	-0.010566	15.3195	-1.065534	-1.726567E+14	6.119627E-17	NaN
735	1.000000	0.122016	7.37224e+06	-40339.1	1005.82	-29790.2	0.000000	0.000000	6.122788	-0.000833	NaN	0.000000	0.001674	0.001735	28.0837	0.030611	0.001960	15.62	105.166	-167.551	0.032174	0.120724	-1.056021	-1.057313	-0.000833	15.62	-1.055981	-1.284709E+14	6.480899E-18	NaN
735	1.000000	0.132012	7.37224e+06	-40339.1	1005.82	-29790.2	0.000000	0.000000	6.132778	-0.129458	NaN	0.000000	0.001659	0.001737	28.0835	0.010187	0.001912	5.327238	-88.1267	11.0441	-0.156284	0.130658	-1.046025	-1.047379	-0.129458	5.327238	-1.027800	-5.368870E+13	2.411262E-15	NaN
735	1.000000	0.142008	7.37224e+06	-40339.1	1005.82	-29790.2	0.000000	0.000000	6.142779	-0.010005	NaN	0.000000	0.001572	0.001746	28.0837	0.066078	0.002057	32.1181	116.392	-166.743	-0.020301	0.140690	-1.036029	-1.037347	-0.010005	32.1181	-1.035796	-6.877498E+13	1.454742E-16	NaN
735	1.000000	0.152024	7.37224e+06	-40339.1	1005.82	-29790.2	0.000000	0.000000	6.152795	-0.025138	NaN	0.000000	0.001575	0.001734	28.0834	0.009515	0.001930	4.929934	-126.991	17.2694	-0.017100	0.150660	-1.026013	-1.027377	-0.025138	4.929934	-1.022189	-4.512342E+13	5.571027E-16	NaN
735	1.000000	0.162018	7.37224e+06	-40339.1	1005.82	-29790.2	0.000000	0.000000	6.162789	-0.016061	NaN	0.000000	0.001580	0.001767	28.0835	0.035475	0.002149	16.5069	-130.55	-167.169	-0.021823	0.160741	-1.016019	-1.017296	-0.016061	16.5069	-1.015290	-3.643918E+13	4.407487E-16	NaN
735	1.000000	0.171998	7.37224e+06	-40339.1	1005.82	-29790.2	0.000000	0.000000	6.172769	-0.011533	NaN	0.000000	0.001596	0.001786	28.0836	0.081532	0.002027	40.2295	-169.809	18.0573	-0.004120	0.170653	-1.006039	-1.007384	-0.011533	40.2295	-1.005824	-2.717563E+13	4.243753E-16	NaN
735	1.000000	0.182020	7.37224e+06	-40339.1	1005.82	-29790.2	0.000000	0.000000	6.182794	0.059928	NaN	0.000000	0.001631	0.001721	28.0826	0.091129	0.002027	44.9469	-2.021070	-164.255	0.077675	0.180744	-0.996017	-0.997293	0.059928	44.9469	-0.997017	-2.068278E+13	-2.897474E-15	NaN
735	1.000000	0.192051	7.37224e+06	-40339.1	1005.82	-29790.2	0.000000	0.000000	6.192821	-0.047518	NaN	0.000000	0.001610	0.001774	28.0824	0.052945	0.001962	26.9827	-117.668	16.1693	-0.063358	0.190668	-0.985986	-0.987369	-0.047518	26.9827	-0.984665	-1.410134E+13	3.369750E-15	NaN
735	1.000000	0.202023	7.37224e+06	-40339.1	1005.82	-29790.2	0.000000	0.000000	6.202796	0.035540	NaN	0.000000	0.001612	0.001732	28.0823	0.052570	0.002023	25.9819	131.76	-165.215	0.025280	0.200728	-0.976015	-0.977309	0.035540	25.9819	-0.977040	-1.113104E+13	-3.192856E-15	NaN
735	1.000000	0.212063	7.37224e+06	-40339.1	1005.82	-29790.2	0.000000	0.000000	6.212834	-0.021935	NaN	0.000000	0.001606	0.001772	28.0826	0.055416	0.002081	26.6297	-175.579	17.6829	-0.038276	0.210655	-0.965974	-0.967382	-0.021935	26.6297	-0.965356	-7.745943E+12	2.831826E-15	NaN
735	1.000000	0.222026	7.37224e+06	-40339.1	1005.82	-29790.2	0.000000	0.000000	6.222795	-0.064113	NaN	0.000000	0.001605	0.001749	28.0827	0.137424	0.002012	68.3017	121.799	-162	-0.046719	0.220726	-0.956011	-0.957311	-0.064113	68.3017	-0.955307	-5.670220E+12	1.130690E-14	NaN
735	1.000000	0.232036	7.37224e+06	-40339.1	1005.82	-29790.2	0.000000	0.000000	6.232808	-0.007676	NaN	0.000000	0.001582	0.001790	28.0828	0.152273	0.002012	75.6701	-134.944	18.3872	-0.026180	0.230731	-0.946001	-0.947306	-0.007676	75.6701	-0.945925	-4.237030E+12	1.811706E-15	NaN
735	1.000000	0.242072	7.37224e+06	-40339.1	1005.82	-29790.2	0.000000	0.000000	6.242843	-0.024598	NaN	0.000000	0.001618	0.001774	28.0825	0.111188	0.002046	54.3353	-141.746	-164.011	0.033137	0.240738	-0.935965	-0.937300	-0.024598	54.3353	-0.935625	-3.076889E+12	7.994458E-15	NaN
735	1.000000	0.252056	7.37224e+06	-40339.1	1005.82	-29790.2	0.000000	0.000000	6.252825	-0.056516	NaN	0.000000	0.001624	0.001782	28.0829	0.124259	0.001881	66.0552	-93.0786	16.4102	-0.036752	0.250680	-0.925982	-0.927358	-0.056516	66.0552	-0.925340	-2.235099E+12	2.528579E-14	NaN
735	1.000000	0.262032	7.37224e+06	-40339.1	1005.82	-29790.2	0.000000	0.000000	6.262804	0.004151	NaN	0.000000	0.001583	0.001763	28.0825	0.017928	0.001930	9.291736	-22.5682	-166.1	0.008125	0.260727	-0.916005	-0.917310	0.004151	9.291736	-0.916340	-1.689632E+12	-2.456797E-15	NaN
735	1.000000	0.272107	7.37224e+06	-40339.1	1005.82	-29790.2	0.000000	0.000000	6.272877	-0.027947	NaN	0.000000	0.001604	0.001765	28.0826	0.045250	0.001876	24.1198	132.364	13.0675	-0.015050	0.270680	-0.905931	-0.907357	-0.027947	24.1198	-0.905062	-1.189744E+12	2.348958E-14	NaN
735	1.000000	0.282059	7.37224e+06	-40339.1	1005.82	-29790.2	0.000000	0.000000	6.282831	-0.011375	NaN	0.000000	0.001632	0.001780	28.0826	0.028456	0.002150	13.2352	11.4685	-166.2	-0.069017	0.280807	-0.895978	-0.897230	-0.011375	13.2352	-0.895333	-8.790282E+11	1.294004E-14	NaN
735	1.000000	0.292090	7.37224e+06	-40339.1	1005.82	-29790.2	0.000000	0.000000	6.292861	-0.027406	NaN	0.000000	0.001590	0.001800	28.0828	0.066579	0.001993	33.4079	169.651	13.5853	-0.027700	0.290704	-0.885947	-0.887333	-0.027406	33.4079	-0.885332	-6.438760E+11	4.256407E-14	NaN
735	1.000000	0.302067	7.37224e+06	-40339.1	1005.82	-29790.2	0.000000	0.000000	6.302835	-0.084892	NaN	0.000000	0.001610	0.001815	28.0829	0.062560	0.001979	31.6085	24.8444	-164.724	-0.029418	0.300774	-0.875970	-0.877263	-0.084892	31.6085	-0.873956	-4.518159E+11	1.878900E-13	NaN
735	1.000000	0.312059	7.37224e+06	-40339.1	1005.82	-29790.2	0.000000	0.000000	6.312832	0.010043	NaN	0.000000	0.001633	0.001775	28.0836	0.062220	0.002044	30.4429	90.7026	10.4575	-0.037752	0.310779	-0.865978	-0.867258	0.010043	30.4429	-0.866225	-3.551162E+11	-2.828160E-14	NaN
735	1.000000	0.322082	7.37225e+06	-40339.1	1005.82	-29790.2	0.000000	0.000000	6.322853	-0.028178	NaN	0.000000	0.001650	0.001793	28.0838	0.039381	0.002098	18.7731	159.066	-162.398	-0.096292	0.320737	-0.855955	-0.857300	-0.028178	18.7731	-0.854829	-2.489556E+11	1.131829E-13	NaN
735	1.000000	0.332086	7.37225e+06	-40339.1	1005.82	-29790.2	0.000000	0.000000	6.332852	-0.135320	NaN	0.000000	0.001616	0.001781	28.0837	0.089569	0.001982	45.1964	140.615	13.7411	-0.095404	0.330762	-0.845952	-0.847275	-0.135320	45.1964	-0.843706	-1.759935E+11	7.688911E-13	NaN
735	1.000000	0.342091	7.37225e+06	-40339.1	1005.82	-29790.2	0.000000	0.000000	6.342863	-0.001516	NaN	0.000000	0.001626	0.001784	28.0836	0.009181	0.002096	4.379392	-69.5433	-163.006	-0.031729	0.340835	-0.835946	-0.837202	-0.001516	4.379392	-0.835686	-1.370399E+11	1.106168E-14	NaN
735	1.000000	0.352089	7.37225e+06	-40339.1	1005.82	-29790.2	0.000000	0.000000	6.352860	-0.026534	NaN	0.000000	0.001583	0.001796	28.0839	0.128497	0.002017	63.7024	-110.025	16.6045	-0.063203	0.350780	-0.825948	-0.827257	-0.026534	63.7024	-0.825636	-1.001433E+11	2.649649E-13	NaN
735	1.000000	0.362104	7.37225e+06	-40339.1	1005.82	-29790.2	0.000000	0.000000	6.362876	-0.016017	NaN	0.000000	0.001627	0.001807	28.0839	0.071895	0.002042	35.2045	-50.085	-165.384	-0.083441	0.360791	-0.815933	-0.817246	-0.016017	35.2045	-0.815592	-7.318546E+10	2.188550E-13	NaN
735	1.000000	0.372094	7.37225e+06	-40339.1	1005.82	-29790.2	0.000000	0.000000	6.372864	-0.038885	NaN	0.000000	0.001624	0.001779	28.0838	0.065871	0.001954	33.7034	-94.7372	17.7295	0.039880	0.370667	-0.805943	-0.807370	-0.038885	33.7034	-0.805078	-5.269643E+10	7.378971E-13	NaN
735	1.000000	0.382097	7.37225e+06	-40339.1	1005.82	-29790.2	0.000000	0.000000	6.382869	0.018310	NaN	0.000000	0.001613	0.001758	28.0838	0.057099	0.002030	28.1262	-109.197	-162.817	-0.092573	0.380810	-0.795941	-0.797227	0.018310	28.1262	-0.796429	-4.021439E+10	-4.552983E-13	NaN
735	1.000000	0.392143	7.37225e+06	-40339.1	1005.82	-29790.2	0.000000	0.000000	6.392914	-0.027446	NaN	0.000000	0.001615	0.001790	28.0835	0.024909	0.001965	12.6763	-18.1777	17.9647	-0.107192	0.390758	-0.785894	-0.787279	-0.027446	12.6763	-0.784270	-2.749484E+10	9.982085E-13	NaN
735	1.000000	0.402118	7.37225e+06	-40339.1	1005.82	-29790.2	0.000000	0.000000	6.402892	0.046562	NaN	0.000000	0.001643	0.001833	28.0842	0.017811	0.002115	8.422171	126.297	-164.983	0.064949	0.400813	-0.775919	-0.777224	0.046562	8.422171	-0.780065	-2.410568E+10	-1.931580E-12	NaN
735	1.000000	0.412105	7.37225e+06	-40339.1	1005.82	-29790.2	0.000000	0.000000	6.412879	0.031769	NaN	0.000000	0.001660	0.001798	28.0836	0.022778	0.002009	11.3376	114.893	14.144	-0.028450	0.410810	-0.765932	-0.767227	0.031769	11.3376	-0.768033	-1.654109E+10	-1.920603E-12	NaN
735	1.000000	0.422128	7.37225e+06	-40339.1	1005.82	-29790.2	0.000000	0.000000	6.422900	-0.010617	NaN	0.000000	0.001649	0.001792	28.0837	0.100949	0.001970	51.2554	-50.9296	-165.462	-0.022922	0.420832	-0.755909	-0.757205	-0.010617	51.2554	-0.755754	-1.125967E+10	9.428925E-13	NaN
735	1.000000	0.432175	7.37225e+06	-40339.1	1005.82	-29790.2	0.000000	0.000000	6.432945	-0.026083	NaN	0.000000	0.001616	0.001786	28.0837	0.175792	0.002085	84.3181	131.3	14.551	-0.063666	0.430821	-0.745863	-0.747216	-0.026083	84.3181	-0.745631	-8.198520E+9	3.181378E-12	NaN
735	1.000000	0.442136	7.37225e+06	-40339.1	1005.82	-29790.2	0.000000	0.000000	6.442905	-0.084347	NaN	0.000000	0.001609	0.001824	28.0841	0.082244	0.002010	40.9209	114.614	-166.339	-0.043195	0.440805	-0.735901	-0.737232	-0.084347	40.9209	-0.734355	-5.756487E+9	1.465258E-11	NaN
735	1.000000	0.452138	7.37225e+06	-40339.1	1005.82	-29790.2	0.000000	0.000000	6.452910	0.008971	NaN	0.000000	0.001633	0.001798	28.0826	0.033854	0.001990	17.0125	49.6773	17.909	0.004008	0.450866	-0.725899	-0.727171	0.008971	17.0125	-0.726295	-4.469958E+9	-2.006907E-12	NaN
735	1.000000	0.462157	7.37225e+06	-40339.1	1005.82	-29790.2	0.000000	0.000000	6.462925	-0.082396	NaN	0.000000	0.001644	0.001809	28.0827	0.064070	0.001964	32.6146	-140.998	-165.769	-0.122769	0.460849	-0.715880	-0.717189	-0.082396	32.6146	-0.713986	-3.036920E+9	2.713141E-11	NaN
735	1.000000	0.472162	7.37225e+06	-40339.1	1005.82	-29790.2	0.000000	0.000000	6.472933	-0.010081	NaN	0.000000	0.001640	0.001774	28.0825	0.059459	0.002142	27.7614	121.708	17.5668	-0.007247	0.470765	-0.705875	-0.707272	-0.010081	27.7614	-0.705603	-2.333648E+9	4.319793E-12	NaN
735	1.000000	0.482114	7.37225e+06	-40339.1	1005.82	-29790.2	0.000000	0.000000	6.482882	-0.097818	NaN	0.000000	0.001617	0.001802	28.083	0.091442	0.001877	48.7211	-86.7724	-161.387	-0.088969	0.480865	-0.695923	-0.697172	-0.097818	48.7211	-0.694417	-1.641643E+9	5.958523E-11	NaN
735	1.000000	0.492190	7.37225e+06	-40339.1	1005.82	-29790.2	0.000000	0.000000	6.492962	0.012215	NaN	0.000000	0.001648	0.001797	28.0825	0.138953	0.002084	66.6637	13.7447	14.0127	-0.077102	0.490820	-0.685848	-0.687217	0.012215	66.6637	-0.685985	-1.259043E+9	-9.701877E-12	NaN
735	1.000000	0.502212	7.37225e+06	-40339.1	1005.82	-29790.2	0.000000	0.000000	6.502982	-0.059813	NaN	0.000000	0.001619	0.001795	28.0826	0.073394	0.002100	34.9502	-87.1329	-165.46	-0.074889	0.500861	-0.675825	-0.677176	-0.059813	34.9502	-0.674542	-8.780913E+8	6.811737E-11	NaN
735	1.000000	0.512160	7.37225e+06	-40339.1	1005.82	-29790.2	0.000000	0.000000	6.512932	-0.007203	NaN	0.000000	0.001639	0.001806	28.0827	0.013741	0.001947	7.056532	147.172	15.1336	0.054806	0.510851	-0.665877	-0.667187	-0.007203	7.056532	-0.665111	-6.523305E+8	1.104143E-11	NaN
735	1.000000	0.522185	7.37225e+06	-40339.1	1005.82	-29790.2	0.000000	0.000000	6.522957	0.010929	NaN	0.000000	0.001659	0.001784	28.0827	0.137536	0.002064	66.633	-171.692	-166.74	-0.012934	0.520815	-0.655852	-0.657222	0.010929	66.633	-0.655975	-4.890275E+8	-2.234885E-11	NaN
735	1.000000	0.532151	7.37225e+06	-40339.1	1005.82	-29790.2	0.000000	0.000000	6.532921	-0.043570	NaN	0.000000	0.001645	0.001798	28.0823	0.044969	0.002146	20.9514	-37.3524	15.6156	-0.067605	0.530779	-0.645886	-0.647258	-0.043570	20.9514	-0.644326	-3.385623E+8	1.286909E-10	NaN
735	1.000000	0.542195	7.37225e+06	-40339.1	1005.82	-29790.2	0.000000	0.000000	6.542966	-0.012757	NaN	0.000000	0.001599	0.001753	28.0826	0.060461	0.002050	29.4947	-38.2018	-166.85	-0.046713	0.540905	-0.635843	-0.637132	-0.012757	29.4947	-0.635518	-2.563221E+8	4.976846E-11	NaN
735	1.000000	0.552164	7.37225e+06	-40339.1	1005.82	-29790.2	0.000000	0.000000	6.552935	-0.003952	NaN	0.000000	0.001610	0.001777	28.0826	0.130525	0.002050	63.6845	-97.1809	15.7522	-0.046155	0.550822	-0.625873	-0.627215	-0.003952	63.6845	-0.625827	-1.886711E+8	2.094634E-11	NaN
735	1.000000	0.562207	7.37225e+06	-40339.1	1005.82	-29790.2	0.000000	0.000000	6.562974	-0.126526	NaN	0.000000	0.001658	0.001789	28.0826	0.008526	0.001819	4.688115	11.2998	-161.605	-0.077081	0.560877	-0.615830	-0.617160	-0.126526	4.688115	-0.595589	-7.239250E+7	1.747778E-9	NaN
735	1.000000	0.572214	7.37225e+06	-40339.1	1005.82	-29790.2	0.000000	0.000000	6.572987	0.021354	NaN	0.000000	0.001646	0.001780	28.0827	0.014123	0.002071	6.818269	163.445	13.304	-6.925614E-5	0.570823	-0.605823	-0.607214	0.021354	6.818269	-0.608172	-1.078836E+8	-1.979322E-10	NaN
735	1.000000	0.582203	7.37225e+06	-40339.1	1005.82	-29790.2	0.000000	0.000000	6.582975	-0.004110	NaN	0.000000	0.001587	0.001756	28.0829	0.063370	0.002131	29.7391	92.8659	-165.884	0.056268	0.580947	-0.595834	-0.597090	-0.004110	29.7391	-0.595730	-7.271852E+7	5.651841E-11	NaN
735	1.000000	0.592172	7.37225e+06	-40339.1	1005.82	-29790.2	0.000000	0.000000	6.592945	0.029412	NaN	0.000000	0.001634	0.001769	28.0842	0.080786	0.001895	42.6267	45.9519	14.7133	0.021756	0.590873	-0.585865	-0.587164	0.029412	42.6267	-0.586383	-5.404870E+7	-5.441732E-10	NaN
735	1.000000	0.602220	7.37225e+06	-40339.1	1005.82	-29790.2	0.000000	0.000000	6.602991	-0.024701	NaN	0.000000	0.001621	0.001818	28.0841	0.036955	0.002036	18.147	-10.6285	-165.539	-0.027348	0.600872	-0.575817	-0.577165	-0.024701	18.147	-0.574796	-3.740107E+7	6.604231E-10	NaN
735	1.000000	0.612238	7.37225e+06	-40339.1	1005.82	-29790.2	0.000000	0.000000	6.613005	-0.105859	NaN	0.000000	0.001591	0.001806	28.0842	0.154706	0.001967	78.6352	134.753	18.773	-0.002812	0.610826	-0.565800	-0.567211	-0.105859	78.6352	-0.564790	-2.720335E+7	3.891410E-9	NaN
735	1.000000	0.622224	7.37225e+06	-40339.1	1005.82	-29790.2	0.000000	0.000000	6.622994	-0.051979	NaN	0.000000	0.001592	0.001790	28.084	0.121868	0.001939	62.8536	52.4676	-167.715	0.006383	0.620921	-0.555813	-0.557116	-0.051979	62.8536	-0.555193	-2.003841E+7	2.593955E-9	NaN
735	1.000000	0.632232	7.37225e+06	-40339.1	1005.82	-29790.2	0.000000	0.000000	6.633003	-0.020488	NaN	0.000000	0.001574	0.001801	28.0842	0.121554	0.001958	62.067	-171.728	17.0616	-0.027847	0.630818	-0.545805	-0.547220	-0.020488	62.067	-0.545558	-1.473703E+7	1.390211E-9	NaN
735	1.000000	0.642237	7.37225e+06	-40339.1	1005.82	-29790.2	0.000000	0.000000	6.643012	0.064933	NaN	0.000000	0.001581	0.001816	28.084	0.044862	0.002095	21.4105	140.877	-166.046	-0.038326	0.640927	-0.535800	-0.537110	0.064933	21.4105	-0.538074	-1.160505E+7	-5.595244E-9	NaN
735	1.000000	0.652252	7.37225e+06	-40339.1	1005.82	-29790.2	0.000000	0.000000	6.653021	-0.063351	NaN	0.000000	0.001624	0.001809	28.0839	0.081711	0.002034	40.1662	-86.462	12.9211	-0.013489	0.650867	-0.525785	-0.527170	-0.063351	40.1662	-0.524602	-7.54367e+06	8.397968E-9	NaN
735	1.000000	0.662215	7.37225e+06	-40339.1	1005.82	-29790.2	0.000000	0.000000	6.662985	-0.047652	NaN	0.000000	0.001583	0.001793	28.084	0.124039	0.002035	60.9454	114.515	-164.179	-0.126165	0.660984	-0.515822	-0.517053	-0.047652	60.9454	-0.515236	-5.58879e+06	8.526266E-9	NaN
735	1.000000	0.672243	7.37225e+06	-40339.1	1005.82	-29790.2	0.000000	0.000000	6.673018	0.085454	NaN	0.000000	0.001625	0.001826	28.0842	0.054714	0.002010	27.2212	-153.663	14.7587	-0.020888	0.670879	-0.505794	-0.507158	0.085454	27.2212	-0.508149	-4.45273e+06	-1.919143E-8	NaN
735	1.000000	0.682223	7.37225e+06	-40339.1	1005.82	-29790.2	0.000000	0.000000	6.682993	-0.036580	NaN	0.000000	0.001621	0.001792	28.0838	0.049860	0.001872	26.6356	-153.52	-170.682	-0.085149	0.680949	-0.495815	-0.497088	-0.036580	26.6356	-0.494785	-2.89886e+06	1.261889E-8	NaN
735	1.000000	0.692217	7.37225e+06	-40339.1	1005.82	-29790.2	0.000000	0.000000	6.692986	-0.060621	NaN	0.000000	0.001620	0.001850	28.0839	0.056708	0.001985	28.5614	56.9167	18.8661	-0.003498	0.690911	-0.485820	-0.487127	-0.060621	28.5614	-0.484229	-2.06396e+06	2.937120E-8	NaN
735	1.000000	0.702272	7.37225e+06	-40339.1	1005.82	-29790.2	0.000000	0.000000	6.703042	-0.040375	NaN	0.000000	0.001641	0.001868	28.0837	0.087512	0.001942	45.0736	-49.7993	-166.77	-0.043399	0.700928	-0.475765	-0.477109	-0.040375	45.0736	-0.475094	-1.53749e+06	2.626063E-8	NaN
735	1.000000	0.712262	7.37225e+06	-40339.1	1005.82	-29790.2	0.000000	0.000000	6.713035	0.007438	NaN	0.000000	0.001609	0.001866	28.0839	0.019595	0.001949	10.0559	164.554	17.0831	-0.022933	0.710896	-0.465775	-0.467142	0.007438	10.0559	-0.466330	-1.15854e+06	-6.420418E-9	NaN
735	1.000000	0.722244	7.37225e+06	-40339.1	1005.82	-29790.2	0.000000	0.000000	6.723013	-0.069655	NaN	0.000000	0.001583	0.001798	28.0826	0.042418	0.002091	20.2879	80.7509	-165.054	-0.070863	0.720932	-0.455794	-0.457105	-0.069655	20.2879	-0.453219	-757973	9.189594E-8	NaN
735	1.000000	0.732256	7.37225e+06	-40339.1	1005.82	-29790.2	0.000000	0.000000	6.733025	-0.073970	NaN	0.000000	0.001550	0.001795	28.0826	0.095784	0.002040	46.9581	143.966	13.5407	-0.032837	0.730932	-0.445781	-0.447105	-0.073970	46.9581	-0.444600	-573124	1.290642E-7	NaN
735	1.000000	0.742265	7.37225e+06	-40339.1	1005.82	-29790.2	0.000000	0.000000	6.743035	-0.040597	NaN	0.000000	0.001551	0.001786	28.0826	0.120885	0.002058	58.7332	159.983	-165.683	-0.080625	0.740972	-0.435772	-0.437065	-0.040597	58.7332	-0.435254	-423002	9.597438E-8	NaN
735	1.000000	0.752270	7.37225e+06	-40339.1	1005.82	-29790.2	0.000000	0.000000	6.753043	0.022982	NaN	0.000000	0.001615	0.001785	28.0827	0.101762	0.001934	52.6107	122.204	17.2376	-0.040846	0.750867	-0.425767	-0.427170	0.022982	52.6107	-0.426095	-313896	-7.321651E-8	NaN
735	1.000000	0.762230	7.37225e+06	-40339.1	1005.82	-29790.2	0.000000	0.000000	6.763002	-0.001791	NaN	0.000000	0.001558	0.001769	28.0825	0.059813	0.002071	28.8771	27.1206	-164.673	0.041247	0.760967	-0.415807	-0.417070	-0.001791	28.8771	-0.415761	-224005	7.996301E-9	NaN
735	1.000000	0.772259	7.37225e+06	-40339.1	1005.82	-29790.2	0.000000	0.000000	6.773030	-0.014296	NaN	0.000000	0.001652	0.001796	28.0825	0.062477	0.001976	31.6144	-165.398	13.9762	0.031648	0.770914	-0.405778	-0.407124	-0.014296	31.6144	-0.405439	-159772	8.947979E-8	NaN
735	1.000000	0.782269	7.37225e+06	-40339.1	1005.82	-29790.2	0.000000	0.000000	6.783040	-0.013846	NaN	0.000000	0.001668	0.001782	28.0827	0.037080	0.002109	17.5851	-111.858	-165.566	-0.012632	0.781002	-0.395768	-0.397036	-0.013846	17.5851	-0.395178	-114070	1.213792E-7	NaN
735	1.000000	0.792289	7.37225e+06	-40339.1	1005.82	-29790.2	0.000000	0.000000	6.793062	0.014504	NaN	0.000000	0.001661	0.001760	28.0827	0.070261	0.001847	38.0428	-106.296	13.5237	0.019642	0.790942	-0.385748	-0.387095	0.014504	38.0428	-0.386034	-84411.3	-1.718269E-7	NaN
735	1.000000	0.802310	7.37225e+06	-40339.1	1005.82	-29790.2	0.000000	0.000000	6.803082	-0.010468	NaN	0.000000	0.001659	0.001808	28.0827	0.088752	0.002045	43.3937	50.7635	-165.599	-0.060036	0.800978	-0.375727	-0.377059	-0.010468	43.3937	-0.375546	-59693	1.753638E-7	NaN
735	1.000000	0.812309	7.37225e+06	-40339.1	1005.82	-29790.2	0.000000	0.000000	6.813082	0.016404	NaN	0.000000	0.001636	0.001778	28.0826	0.110925	0.002060	53.8407	174.806	16.8029	0.050329	0.810930	-0.365728	-0.367108	0.016404	53.8407	-0.365956	-43436	-3.776489E-7	NaN
735	1.000000	0.822286	7.37225e+06	-40339.1	1005.82	-29790.2	0.000000	0.000000	6.823057	-0.017841	NaN	0.000000	0.001671	0.001778	28.0828	0.059786	0.002102	28.439	-138.927	-163.094	0.035336	0.820945	-0.355752	-0.357093	-0.017841	28.439	-0.355281	-30448.7	5.859318E-7	NaN
735	1.000000	0.832337	7.37225e+06	-40339.1	1005.82	-29790.2	0.000000	0.000000	6.833109	-0.000688	NaN	0.000000	0.001640	0.001776	28.0824	0.098622	0.002014	48.9792	129.752	13.6729	-0.035734	0.830982	-0.345700	-0.347056	-0.000688	48.9792	-0.345689	-22099.5	3.113318E-8	NaN
735	1.000000	0.842293	7.37225e+06	-40339.1	1005.82	-29790.2	0.000000	0.000000	6.843063	-0.044849	NaN	0.000000	0.001618	0.001781	28.0829	0.019363	0.002042	9.483777	-118.639	-163.571	0.040229	0.840976	-0.335744	-0.337061	-0.044849	9.483777	-0.332197	-14047.8	3.192608E-6	NaN
735	1.000000	0.852311	7.37225e+06	-40339.1	1005.82	-29790.2	0.000000	0.000000	6.853084	0.021427	NaN	0.000000	0.001600	0.001745	28.0826	0.092262	0.001974	46.7274	18.1553	12.5153	-0.017333	0.850923	-0.325726	-0.327115	0.021427	46.7274	-0.326070	-11424.5	-1.875513E-6	NaN
735	1.000000	0.862294	7.37225e+06	-40339.1	1005.82	-29790.2	0.000000	0.000000	6.863068	0.050402	NaN	0.000000	0.001561	0.001742	28.084	0.044432	0.002093	21.229	-145.671	-165.954	0.013335	0.861049	-0.315744	-0.316988	0.050402	21.229	-0.317524	-8554.14	-5.892160E-6	NaN
735	1.000000	0.872311	7.37225e+06	-40339.1	1005.82	-29790.2	0.000000	0.000000	6.873084	0.027139	NaN	0.000000	0.001616	0.001743	28.0838	0.078158	0.001960	39.8742	-40.9623	16.9357	0.079697	0.870978	-0.305726	-0.307060	0.027139	39.8742	-0.306236	-5825.03	-4.659109E-6	NaN
735	1.000000	0.882316	7.37225e+06	-40339.1	1005.82	-29790.2	0.000000	0.000000	6.883086	-0.035471	NaN	0.000000	0.001593	0.001744	28.084	0.062399	0.001983	31.4674	-116.52	-164.144	0.035711	0.881036	-0.295721	-0.297001	-0.035471	31.4674	-0.294876	-3946.72	8.987491E-6	NaN
735	1.000000	0.892310	7.37225e+06	-40339.1	1005.82	-29790.2	0.000000	0.000000	6.893082	-0.008695	NaN	0.000000	0.001594	0.001760	28.0842	0.051863	0.001941	26.7179	-120.568	15.5881	-0.014232	0.890976	-0.285727	-0.287061	-0.008695	26.7179	-0.285483	-2854.45	3.046214E-6	NaN
735	1.000000	0.902355	7.37225e+06	-40339.1	1005.82	-29790.2	0.000000	0.000000	6.903127	0.001609	NaN	0.000000	0.001592	0.001754	28.0839	0.032175	0.001950	16.5	-110.183	-166.731	-0.039113	0.901012	-0.275682	-0.277025	0.001609	16.5	-0.275755	-2036.27	-7.900857E-7	NaN
735	1.000000	0.912334	7.37225e+06	-40339.1	1005.82	-29790.2	0.000000	0.000000	6.913105	-0.029870	NaN	0.000000	0.001604	0.001744	28.0839	0.053586	0.001988	26.9564	-148.166	10.5565	-0.102346	0.910996	-0.265703	-0.267041	-0.029870	26.9564	-0.264872	-1391.36	2.146843E-5	NaN
735	1.000000	0.922323	7.37225e+06	-40339.1	1005.82	-29790.2	0.000000	0.000000	6.923094	-0.004441	NaN	0.000000	0.001630	0.001747	28.0837	0.013547	0.002060	6.577098	-149.886	-163.892	0.034872	0.921083	-0.255715	-0.256954	-0.004441	6.577098	-0.255208	-989.285	4.488782E-6	NaN
735	1.000000	0.932338	7.37225e+06	-40339.1	1005.82	-29790.2	0.000000	0.000000	6.933110	-0.009813	NaN	0.000000	0.001609	0.001784	28.0842	0.063390	0.001980	32.0091	38.7149	12.3977	0.029859	0.931026	-0.245699	-0.247011	-0.009813	32.0091	-0.245469	-699.422	1.403038E-5	NaN
735	1.000000	0.942361	7.37225e+06	-40339.1	1005.82	-29790.2	0.000000	0.000000	6.943132	-0.016165	NaN	0.000000	0.001588	0.001755	28.0839	0.114026	0.001934	58.959	116.789	-161.386	-0.051256	0.941022	-0.235676	-0.237015	-0.016165	58.959	-0.235471	-488.244	3.310770E-5	NaN
735	1.000000	0.952337	7.37225e+06	-40339.1	1005.82	-29790.2	0.000000	0.000000	6.953108	-0.013196	NaN	0.000000	0.001599	0.001752	28.0839	0.011067	0.001991	5.558329	-36.8553	12.3207	-0.017361	0.951034	-0.225701	-0.227003	-0.013196	5.558329	-0.223920	-320.752	4.114067E-5	NaN
735	1.000000	0.962346	7.37225e+06	-40339.1	1005.82	-29790.2	0.000000	0.000000	6.963117	-0.017228	NaN	0.000000	0.001643	0.001752	28.0838	0.057065	0.002079	27.4546	-35.0181	-165.197	-0.003407	0.961038	-0.215691	-0.216999	-0.017228	27.4546	-0.215221	-232.844	7.399028E-5	NaN
735	1.000000	0.972349	7.37225e+06	-40339.1	1005.82	-29790.2	0.000000	0.000000	6.973122	0.034225	NaN	0.000000	0.001602	0.001758	28.084	0.128765	0.002005	64.221	46.7719	14.3801	0.057586	0.970989	-0.205688	-0.207048	0.034225	64.221	-0.206088	-165.686	-0.000207	NaN
735	1.000000	0.982389	7.37225e+06	-40339.1	1005.82	-29790.2	0.000000	0.000000	6.983162	0.014245	NaN	0.000000	0.001636	0.001739	28.0837	0.032361	0.002043	15.8377	11.4129	-165.963	-0.069038	0.981051	-0.195648	-0.196987	0.014245	15.8377	-0.196323	-114.575	-0.000124	NaN
735	1.000000	0.992357	7.37225e+06	-40339.1	1005.82	-29790.2	0.000000	0.000000	6.993127	-0.046100	NaN	0.000000	0.001702	0.001739	28.0839	0.105898	0.001962	53.9782	90.2165	15.4802	-0.043376	0.991038	-0.185680	-0.186999	-0.046100	53.9782	-0.185040	-74.2684	0.000621	NaN
735	1.000000	1.002350	7.37225e+06	-40339.1	1005.82	-29790.2	0.000000	0.000000	7.003120	-0.049962	NaN	0.000000	0.001701	0.001760	28.0827	0.074537	0.001858	40.1222	15.2459	-164.28	-0.033171	1.001070	-0.175687	-0.176968	-0.049962	40.1222	-0.174753	-49.629	0.001007	NaN
735	1.000000	1.012366	7.37225e+06	-40339.1	1005.82	-29790.2	0.000000	0.000000	7.013137	-0.007585	NaN	0.000000	0.001671	0.001774	28.0828	0.095460	0.001978	48.2704	114.182	13.1921	0.010802	1.011048	-0.165672	-0.166990	-0.007585	48.2704	-0.165554	-34.3577	0.000221	NaN
735	1.000000	1.022403	7.37225e+06	-40339.1	1005.82	-29790.2	0.000000	0.000000	7.023171	-0.097304	NaN	0.000000	0.001692	0.001793	28.0824	0.021436	0.002015	10.6369	-32.006	-163.242	-0.056023	1.021044	-0.155635	-0.156993	-0.097304	10.6369	-0.148774	-17.2029	0.005656	NaN
735	1.000000	1.032375	7.37225e+06	-40339.1	1005.82	-29790.2	0.000000	0.000000	7.033145	-0.062354	NaN	0.000000	0.001679	0.001808	28.0826	0.016186	0.001919	8.434873	36.8057	17.0482	-0.029579	1.031000	-0.145662	-0.147037	-0.062354	8.434873	-0.140118	-11.8898	0.005244	NaN
735	1.000000	1.042375	7.37225e+06	-40339.1	1005.82	-29790.2	0.000000	0.000000	7.043145	-0.051474	NaN	0.000000	0.001692	0.001781	28.0826	0.066374	0.002075	31.9806	-57.2971	-167.355	-0.098758	1.041073	-0.135662	-0.136965	-0.051474	31.9806	-0.134455	-9.287075	0.005543	NaN
735	1.000000	1.052351	7.37225e+06	-40339.1	1005.82	-29790.2	0.000000	0.000000	7.053119	-0.098089	NaN	0.000000	0.001658	0.001788	28.0827	0.024342	0.002111	11.5314	154.21	12.7737	-0.060621	1.051045	-0.125686	-0.126992	-0.098089	11.5314	-0.119306	-4.677997	0.020968	NaN
735	1.000000	1.062412	7.37225e+06	-40339.1	1005.82	-29790.2	0.000000	0.000000	7.063183	-0.010756	NaN	0.000000	0.001663	0.001807	28.0823	0.127761	0.001985	64.365	1.874766	-163.695	-0.090302	1.061128	-0.115625	-0.116909	-0.010756	64.365	-0.115500	-3.912030	0.002749	NaN
735	1.000000	1.072418	7.37225e+06	-40339.1	1005.82	-29790.2	0.000000	0.000000	7.073188	-0.053475	NaN	0.000000	0.001664	0.001783	28.0826	0.038452	0.002005	19.1734	78.1081	16.5211	-0.013908	1.071028	-0.105619	-0.107010	-0.053475	19.1734	-0.103527	-2.183937	0.024486	NaN
735	1.000000	1.082391	7.37225e+06	-40339.1	1005.82	-29790.2	0.000000	0.000000	7.083164	0.017858	NaN	0.000000	0.001638	0.001769	28.0827	0.111962	0.002005	55.8466	164.572	-162.86	-0.057631	1.081088	-0.095646	-0.096949	0.017858	55.8466	-0.095886	-1.477553	-0.012086	NaN
735	1.000000	1.092403	7.37225e+06	-40339.1	1005.82	-29790.2	0.000000	0.000000	7.093174	-0.020459	NaN	0.000000	0.001600	0.001765	28.0826	0.047304	0.002013	23.4964	150.056	16.5053	0.029822	1.091048	-0.085634	-0.086989	-0.020459	23.4964	-0.084981	-0.820774	0.024926	NaN
735	1.000000	1.102420	7.37225e+06	-40339.1	1005.82	-29790.2	0.000000	0.000000	7.103190	-0.029293	NaN	0.000000	0.001633	0.001768	28.0825	0.123165	0.001938	63.5655	94.3373	-169.139	-0.060315	1.101093	-0.075617	-0.076944	-0.029293	63.5655	-0.075272	-0.469403	0.062405	NaN
735	1.000000	1.112403	7.37225e+06	-40339.1	1005.82	-29790.2	0.000000	0.000000	7.113170	-0.106831	NaN	0.000000	0.001590	0.001761	28.0827	0.064562	0.001990	32.451	-94.1401	16.2135	0.027730	1.111032	-0.065634	-0.067005	-0.106831	32.451	-0.063165	-0.221493	0.482325	NaN
735	1.000000	1.122435	7.37225e+06	-40339.1	1005.82	-29790.2	0.000000	0.000000	7.123207	-0.004703	NaN	0.000000	0.001610	0.001796	28.0827	0.106670	0.002010	53.0576	-166.979	-165.551	-0.043901	1.121123	-0.055602	-0.056914	-0.004703	53.0576	-0.055535	-0.133550	0.035214	NaN
735	1.000000	1.132436	7.37225e+06	-40339.1	1005.82	-29790.2	0.000000	0.000000	7.133207	-0.040629	NaN	0.000000	0.001575	0.001758	28.0838	0.102777	0.002001	51.3537	-12.1035	12.4576	-0.066003	1.131061	-0.045601	-0.046976	-0.040629	51.3537	-0.045007	-0.064301	0.631853	NaN
735	1.000000	1.142386	7.37225e+06	-40339.1	1005.82	-29790.2	0.000000	0.000000	7.143159	0.034527	NaN	0.000000	0.001582	0.001767	28.0838	0.037241	0.001976	18.8457	-142.143	-163.651	-0.033511	1.141066	-0.035652	-0.036971	0.034527	18.8457	-0.037026	-0.036782	-0.938703	NaN
735	1.000000	1.152410	7.37225e+06	-40339.1	1005.82	-29790.2	0.000000	0.000000	7.153183	0.019111	NaN	0.000000	0.001621	0.001758	28.0839	0.151476	0.001959	77.3209	-110.558	12.2954	-0.015179	1.151051	-0.025627	-0.026986	0.019111	77.3209	-0.025812	-0.017719	-1.078549	NaN
735	1.000000	1.162429	7.37225e+06	-40339.1	1005.82	-29790.2	0.000000	0.000000	7.163204	0.052199	NaN	0.000000	0.001657	0.001788	28.084	0.070845	0.001979	35.7921	-156.795	-162.371	0.060960	1.161129	-0.015608	-0.016908	0.052199	35.7921	-0.016702	-0.010321	-5.057634	NaN
735	1.000000	1.172405	7.37225e+06	-40339.1	1005.82	-29790.2	0.000000	0.000000	7.173176	-0.013291	NaN	0.000000	0.001622	0.001753	28.0838	0.038120	0.002027	18.8053	-170.315	13.2812	-0.056769	1.171121	-0.005632	-0.006916	-0.013291	18.8053	-0.005102	-0.003481	3.818654	NaN
735	1.000000	1.182308	7.37225e+06	-40339.1	1005.82	-29790.2	0.000000	0.000000	7.183411	8.040344	NaN	0.000000	0.001559	0.001757	28.0838	7.462284	0.001590	4692.37	10.5925	-171.64	6.605516	1.181105	0.004271	0.003068	8.040344	4692.37	0.002986	0.002368	3395	88094.3
735	2.000000	1.185481	7.37225e+06	-40339.1	1005.82	-29790.2	0.000000	0.000000	7.186619	8.896375	NaN	0.000000	0.001562	0.001740	28.0837	10.1896	0.001674	6088.27	7.036885	6.924072	8.777725	1.185099	0.007444	0.007061	8.896375	6088.27	0.006348	0.005398	1648.14	75710.7
735	2.000000	1.187944	7.37225e+06	-40339.1	1005.82	-29790.2	0.000000	0.000000	7.189180	11.2874	NaN	0.000000	0.001522	0.001770	28.0839	13.0024	0.001718	7569.3	10.6422	-175.659	11.5125	1.187689	0.009907	0.009652	11.2874	7569.3	0.008789	0.007866	1434.94	77973.8
735	2.000000	1.190456	7.37225e+06	-40339.1	1005.82	-29790.2	0.000000	0.000000	7.191770	13.1829	NaN	0.000000	0.001554	0.001791	28.0838	15.5392	0.001785	8703.68	9.432682	5.487794	13.3373	1.190127	0.012419	0.012090	13.1829	8703.68	0.011283	0.010643	1238.66	77081
735	2.000000	1.192923	7.37225e+06	-40339.1	1005.82	-29790.2	0.000000	0.000000	7.194562	21.0977	NaN	0.000000	0.001560	0.001748	28.084	18.853	0.001703	11067.9	5.694737	-176.168	19.8368	1.192561	0.014886	0.014524	21.0977	11067.9	0.013456	0.013281	1588.55	87745.1
735	2.000000	1.195353	7.37225e+06	-40339.1	1005.82	-29790.2	0.000000	0.000000	7.197156	25.0956	NaN	0.000000	0.001529	0.001745	28.0841	21.5209	0.001737	12391.9	7.413785	1.497122	22.0883	1.194960	0.017316	0.016922	25.0956	12391.9	0.015797	0.016363	1533.71	88508.2
735	2.000000	1.197867	7.37225e+06	-40339.1	1005.82	-29790.2	0.000000	0.000000	7.199736	26.7034	NaN	0.000000	0.001572	0.001779	28.084	24.2906	0.001892	12835.5	7.972488	-178.219	25.4206	1.197551	0.019830	0.019514	26.7034	12835.5	0.018269	0.019895	1342.2	83140
735	2.000000	1.200392	7.37225e+06	-40339.1	1005.82	-29790.2	0.000000	0.000000	7.202566	34.1256	NaN	0.000000	0.001554	0.001778	28.0838	26.5177	0.001760	15064.4	2.260040	5.965361	31.8411	1.200040	0.022355	0.022002	34.1256	15064.4	0.020656	0.023583	1447.03	89624
735	2.000000	1.202867	7.37225e+06	-40339.1	1005.82	-29790.2	0.000000	0.000000	7.204994	32.9841	NaN	0.000000	0.001563	0.001785	28.0838	28.9469	0.001835	15772.8	4.749699	-177.441	31.8255	1.202618	0.024830	0.024581	32.9841	15772.8	0.023261	0.027928	1181.03	86230
735	2.000000	1.205428	7.37225e+06	-40339.1	1005.82	-29790.2	0.000000	0.000000	7.207766	38.1037	NaN	0.000000	0.001536	0.001796	28.0828	30.9859	0.001803	17182.9	4.099026	2.681255	37.668	1.205130	0.027391	0.027092	38.1037	17182.9	0.025728	0.032353	1177.75	87279.7
735	2.000000	1.207891	7.37225e+06	-40339.1	1005.82	-29790.2	0.000000	0.000000	7.210630	47.8798	NaN	0.000000	0.001503	0.001758	28.0826	34.4034	0.001901	18094.1	6.719595	-179.537	48.037	1.207614	0.029854	0.029577	47.8798	18094.1	0.027869	0.036443	1313.84	86597.4
735	2.000000	1.210317	7.37225e+06	-40339.1	1005.82	-29790.2	0.000000	0.000000	7.213509	58.8886	NaN	0.000000	0.001530	0.001748	28.0825	36.1233	0.001787	20218.2	4.975793	1.004928	55.7246	1.209876	0.032280	0.031839	58.8886	20218.2	0.030095	0.040941	1438.37	91292.6
735	2.000000	1.212854	7.37225e+06	-40339.1	1005.82	-29790.2	0.000000	0.000000	7.216323	65.6324	NaN	0.000000	0.001630	0.001730	28.0829	38.0452	0.001729	22005.2	3.313791	-179.525	64.5742	1.212599	0.034817	0.034562	65.6324	22005.2	0.032580	0.046260	1418.76	93474.7
735	2.000000	1.215420	7.37225e+06	-40339.1	1005.82	-29790.2	0.000000	0.000000	7.219253	74.4927	NaN	0.000000	0.001614	0.001785	28.0823	41.5437	0.001835	22643	8.682160	-3.247036	77.7448	1.214956	0.037383	0.036919	74.4927	22643	0.034915	0.051549	1445.1	91116.9
735	2.000000	1.217913	7.37225e+06	-40339.1	1005.82	-29790.2	0.000000	0.000000	7.222106	83.2424	NaN	0.000000	0.001649	0.001725	28.0826	43.4933	0.001814	23976.3	8.027153	176.389	85.0558	1.217486	0.039876	0.039449	83.2424	23976.3	0.037272	0.057168	1456.1	91617.7
735	2.000000	1.220377	7.37225e+06	-40339.1	1005.82	-29790.2	0.000000	0.000000	7.225183	98.1527	NaN	0.000000	0.001569	0.001757	28.0823	45.4558	0.001798	25284.4	1.636733	1.325435	95.3917	1.219954	0.042340	0.041917	98.1527	25284.4	0.039428	0.062559	1568.95	92358.9
735	2.000000	1.222803	7.37225e+06	-40339.1	1005.82	-29790.2	0.000000	0.000000	7.227801	102.848	NaN	0.000000	0.001606	0.001774	28.0828	48.167	0.001835	26245	4.650538	177.709	100.326	1.222479	0.044766	0.044442	102.848	26245	0.041827	0.068834	1494.15	91394.2
735	2.000000	1.225329	7.37225e+06	-40339.1	1005.82	-29790.2	0.000000	0.000000	7.230607	109.644	NaN	0.000000	0.001615	0.001786	28.0824	50.403	0.001791	28141.8	3.517966	-1.343914	108.005	1.225044	0.047292	0.047007	109.644	28141.8	0.044370	0.075808	1446.35	93383.2
735	2.000000	1.227828	7.37225e+06	-40339.1	1005.82	-29790.2	0.000000	0.000000	7.233667	123.305	NaN	0.000000	0.001619	0.001736	28.0823	53.9928	0.001889	28585.3	2.543685	179.346	121.246	1.227544	0.049791	0.049507	123.305	28585.3	0.046556	0.082065	1502.52	91166.6
735	2.000000	1.230346	7.37225e+06	-40339.1	1005.82	-29790.2	0.000000	0.000000	7.236935	141.533	NaN	0.000000	0.001628	0.001764	28.0833	56.1449	0.001821	30823.9	7.174239	-5.621940	139.54	1.229952	0.052309	0.051915	141.533	30823.9	0.048865	0.088938	1591.36	94431.3
735	2.000000	1.232814	7.37225e+06	-40339.1	1005.82	-29790.2	0.000000	0.000000	7.239744	149.841	NaN	0.000000	0.001629	0.001766	28.0826	57.6761	0.001795	32131.2	4.880100	176.225	146.625	1.232474	0.054777	0.054436	149.841	32131.2	0.051280	0.096409	1554.22	94545.6
735	2.000000	1.235289	7.37225e+06	-40339.1	1005.82	-29790.2	0.000000	0.000000	7.243041	169.843	NaN	0.000000	0.001601	0.001765	28.0823	61.0669	0.001808	33780	3.785428	-3.548783	166.768	1.234980	0.057252	0.056943	169.843	33780	0.053481	0.103475	1641.39	95943.2
735	2.000000	1.237865	7.37225e+06	-40339.1	1005.82	-29790.2	0.000000	0.000000	7.246067	180.789	NaN	0.000000	0.001601	0.001784	28.0823	64.2368	0.001712	37528.4	6.386396	172.788	180.672	1.237497	0.059828	0.059460	180.789	37528.4	0.056215	0.112587	1605.77	102186
735	2.000000	1.240487	7.37225e+06	-40339.1	1005.82	-29790.2	0.000000	0.000000	7.249215	193.613	NaN	0.000000	0.001535	0.001775	28.0836	65.635	0.001757	37357.9	6.034759	-5.193200	199.88	1.239925	0.062449	0.061888	193.613	37357.9	0.058562	0.120704	1604.03	98241.6
735	2.000000	1.242880	7.37225e+06	-40339.1	1005.82	-29790.2	0.000000	0.000000	7.252281	209.974	NaN	0.000000	0.001596	0.001742	28.0836	67.619	0.001740	38866.8	3.470732	175.395	210.935	1.242543	0.064843	0.064505	209.974	38866.8	0.060791	0.128659	1632.02	98999.3
735	2.000000	1.245323	7.37225e+06	-40339.1	1005.82	-29790.2	0.000000	0.000000	7.255025	217.309	NaN	0.000000	0.001669	0.001733	28.0835	69.1124	0.001761	39253.4	-0.480262	-0.429569	216.011	1.245014	0.067286	0.066977	217.309	39253.4	0.063134	0.137286	1582.9	96791.7
735	2.000000	1.247821	7.37225e+06	-40339.1	1005.82	-29790.2	0.000000	0.000000	7.257965	228.045	NaN	0.000000	0.001660	0.001742	28.0838	73.458	0.001724	42601.7	6.484035	171.658	226.474	1.247545	0.069784	0.069507	228.045	42601.7	0.065770	0.147306	1548.11	101412
735	2.000000	1.250344	7.37225e+06	-40339.1	1005.82	-29790.2	0.000000	0.000000	7.261640	256.08	NaN	0.000000	0.001598	0.001741	28.0835	75.0549	0.001779	42185.6	4.853034	-6.264158	253.745	1.249971	0.072307	0.071933	256.08	42185.6	0.067754	0.155073	1651.35	97874.3
735	2.000000	1.252811	7.37225e+06	-40339.1	1005.82	-29790.2	0.000000	0.000000	7.263998	253.443	NaN	0.000000	0.001569	0.001728	28.0839	77.798	0.001773	43888.9	2.955667	175.006	252.239	1.252664	0.074774	0.074627	253.443	43888.9	0.070443	0.165893	1527.75	98449.5
735	2.000000	1.255257	7.37225e+06	-40339.1	1005.82	-29790.2	0.000000	0.000000	7.267625	282.182	NaN	0.000000	0.001543	0.001778	28.0834	80.6615	0.001783	45231.3	2.421262	-4.049580	278.418	1.254857	0.077219	0.076820	282.182	45231.3	0.072540	0.174575	1616.39	98905.6
735	2.000000	1.257790	7.37225e+06	-40339.1	1005.82	-29790.2	0.000000	0.000000	7.270828	298.491	NaN	0.000000	0.001566	0.001783	28.0837	84.5603	0.001709	49483.3	7.412551	170.889	297.121	1.257471	0.079753	0.079433	298.491	49483.3	0.075228	0.186005	1604.75	104826
735	2.000000	1.260261	7.37225e+06	-40339.1	1005.82	-29790.2	0.000000	0.000000	7.274026	316.164	NaN	0.000000	0.001570	0.001762	28.0835	85.8349	0.001795	47832	5.043682	-6.769316	310.697	1.259833	0.082224	0.081795	316.164	47832	0.077266	0.194896	1622.22	98989.8
735	2.000000	1.262867	7.37225e+06	-40339.1	1005.82	-29790.2	0.000000	0.000000	7.277288	332.137	NaN	0.000000	0.001615	0.001725	28.0841	87.7694	0.001809	48525.4	5.615349	172.188	335.323	1.262537	0.084830	0.084500	332.137	48525.4	0.079696	0.205752	1614.26	97739.6
735	2.000000	1.265272	7.37225e+06	-40339.1	1005.82	-29790.2	0.000000	0.000000	7.280462	350.845	NaN	0.000000	0.001591	0.001764	28.0835	89.8774	0.001740	51660	4.761510	-7.699295	346.649	1.264929	0.087235	0.086892	350.845	51660	0.082141	0.216952	1617.15	101332
735	2.000000	1.267737	7.37225e+06	-40339.1	1005.82	-29790.2	0.000000	0.000000	7.283713	369.965	NaN	0.000000	0.001555	0.001712	28.0834	93.0714	0.001825	51009.1	1.991695	175.143	365.693	1.267467	0.089700	0.089430	369.965	51009.1	0.084260	0.226886	1630.63	97840.2
735	2.000000	1.270309	7.37225e+06	-40339.1	1005.82	-29790.2	0.000000	0.000000	7.287181	391.776	NaN	0.000000	0.001565	0.001737	28.0832	94.6611	0.001771	53458.6	6.884580	-9.294004	387.956	1.269862	0.092272	0.091825	391.776	53458.6	0.086775	0.238943	1639.62	99918.1
735	2.000000	1.272902	7.37225e+06	-40339.1	1005.82	-29790.2	0.000000	0.000000	7.290092	399.519	NaN	0.000000	0.001587	0.001729	28.0823	97.3088	0.001733	56148.3	5.306046	171.783	407.492	1.272554	0.094865	0.094517	399.519	56148.3	0.089528	0.252476	1582.4	102094
735	2.000000	1.275266	7.37225e+06	-40339.1	1005.82	-29790.2	0.000000	0.000000	7.293367	421.68	NaN	0.000000	0.001578	0.001725	28.0821	101.141	0.001805	56020.6	6.807446	-10.3278	418.579	1.274938	0.097229	0.096901	421.68	56020.6	0.091583	0.262804	1604.54	99840.1
735	2.000000	1.277703	7.37225e+06	-40339.1	1005.82	-29790.2	0.000000	0.000000	7.296500	438.608	NaN	0.000000	0.001601	0.001743	28.0821	104.365	0.001897	55021.5	5.458789	171.25	432.734	1.277574	0.099666	0.099537	438.608	55021.5	0.093687	0.273579	1603.22	96109
735	2.000000	1.280159	7.37225e+06	-40339.1	1005.82	-29790.2	0.000000	0.000000	7.299991	463.805	NaN	0.000000	0.001581	0.001730	28.0823	105.075	0.001764	59551.4	4.552360	-8.083334	453.722	1.279901	0.102122	0.101863	463.805	59551.4	0.096281	0.287139	1615.26	101536
735	2.000000	1.281880	7.37225e+06	-40339.1	1005.82	-29790.2	0.000000	0.000000	7.302300	478.098	NaN	0.000000	0.001587	0.001735	28.0822	107.438	0.001773	60580.6	6.673592	169.676	481.612	1.281498	0.103843	0.103461	478.098	60580.6	0.097924	0.295890	1615.8	101752