File: remote_trans/data/nanoindenter/0828-1/data/Data_2025-08-06,11h17m57s/2025-07-22_16-23-58_1_137.txt
2025-07-22, 16:23:58, 1
Index	Phase	Displacement	Time	Pos X	Pos Y	Pos Z	Rot A	Rot B	Piezo Z	Force A	Force B	Gripper	Voltage A	Voltage B	Temperature	Amplitude force	Amplitude pos	Stiffness	Phase shift	Phase excitation	Force A raw	Displacement raw	HMax	HMax raw	Real Force	Real Stiffness	Contact Depth	Area	Hardness	Reduced Mod.
[#]	[#]	[um]	[s]	[um]	[um]	[um]	[m°]	[m°]	[um]	[uN]	[uN]	[V]	[V]	[V]	[°C]	[uN]	[um]	[N/m]	[°]	[°]	[uN]	[um]	[um]	[um]	[uN]	[N/m]	[um]	[um^2]	[MPa]	[MPa]
137	1.000000	0.002469	7.36638e+06	-45489.1	955.818	-29772.8	0.000000	0.000000	6.002792	-0.050085	NaN	0.000000	0.001652	0.001676	28.0841	0.084033	0.001016	82.7005	-65.2704	-162.866	-0.030547	0.001276	-1.078708	-1.079900	-0.050085	82.7005	-1.078254	-2.558953E+14	1.957250E-16	NaN
137	1.000000	0.010427	7.36638e+06	-45489.1	955.818	-29772.8	0.000000	0.000000	6.010752	-0.037809	NaN	0.000000	0.001630	0.001704	28.0833	0.088467	0.000919	96.232	-141.017	-166.579	-0.052997	0.009133	-1.070749	-1.072043	-0.037809	96.232	-1.070454	-2.010449E+14	1.880607E-16	NaN
137	1.000000	0.018457	7.36638e+06	-45489.1	955.819	-29772.8	0.000000	0.000000	6.018781	-0.044294	NaN	0.000000	0.001663	0.001717	28.0834	0.203204	0.001685	120.615	175.25	-166.092	0.046896	0.017168	-1.062719	-1.064009	-0.044294	120.615	-1.062444	-1.569140E+14	2.822801E-16	NaN
137	1.000000	0.026468	7.36638e+06	-45489.1	955.818	-29772.8	0.000000	0.000000	6.026794	0.013936	NaN	0.000000	0.001676	0.001705	28.0829	0.125220	0.001893	66.1583	-43.6746	-162.742	-0.080374	0.025127	-1.054708	-1.056050	0.013936	66.1583	-1.054866	-1.241152E+14	-1.122802E-16	NaN
137	1.000000	0.034433	7.36638e+06	-45489.1	955.819	-29772.8	0.000000	0.000000	6.034757	-0.047575	NaN	0.000000	0.001664	0.001688	28.0835	0.131016	0.001761	74.3906	43.6419	-167.992	-0.106521	0.033146	-1.046743	-1.048031	-0.047575	74.3906	-1.046264	-9.510122E+13	5.002548E-16	NaN
137	1.000000	0.042446	7.36638e+06	-45489.1	955.819	-29772.8	0.000000	0.000000	6.042768	-0.096188	NaN	0.000000	0.001648	0.001692	28.0826	0.043788	0.002064	21.2153	96.1441	-167.124	-0.039633	0.041125	-1.038731	-1.040051	-0.096188	21.2153	-1.035330	-6.779071E+13	1.418896E-15	NaN
137	1.000000	0.050398	7.36638e+06	-45489.1	955.819	-29772.8	0.000000	0.000000	6.050720	-0.094904	NaN	0.000000	0.001651	0.001716	28.0833	0.099115	0.001960	50.5693	-53.9772	-167.157	-0.064337	0.049112	-1.030778	-1.032065	-0.094904	50.5693	-1.029371	-5.636584E+13	1.683708E-15	NaN
137	1.000000	0.058423	7.36638e+06	-45489.1	955.819	-29772.8	0.000000	0.000000	6.058745	-0.104378	NaN	0.000000	0.001621	0.001734	28.0844	0.082618	0.002039	40.5219	-126.661	-166.757	-0.096828	0.057130	-1.022753	-1.024046	-0.104378	40.5219	-1.020821	-4.325131E+13	2.413293E-15	NaN
137	1.000000	0.066417	7.36638e+06	-45489.1	955.818	-29772.8	0.000000	0.000000	6.066739	-0.104425	NaN	0.000000	0.001636	0.001715	28.0833	0.114845	0.002085	55.0893	27.7734	-163.843	-0.063242	0.065165	-1.014759	-1.016012	-0.104425	55.0893	-1.013337	-3.430038E+13	3.044415E-15	NaN
137	1.000000	0.074420	7.36638e+06	-45489.1	955.818	-29772.8	0.000000	0.000000	6.074743	-0.075805	NaN	0.000000	0.001673	0.001679	28.0828	0.138067	0.002027	68.1126	158.301	-165.596	-0.101950	0.073189	-1.006756	-1.007987	-0.075805	68.1126	-1.005921	-2.725742E+13	2.781093E-15	NaN
137	1.000000	0.082419	7.36638e+06	-45489.1	955.818	-29772.8	0.000000	0.000000	6.082743	-0.039835	NaN	0.000000	0.001669	0.001691	28.0833	0.079322	0.001922	41.2647	-103.984	-165.998	0.021774	0.081126	-0.998758	-1.000050	-0.039835	41.2647	-0.998034	-2.134482E+13	1.866242E-15	NaN
137	1.000000	0.090455	7.36638e+06	-45489.1	955.819	-29772.8	0.000000	0.000000	6.090779	-0.061326	NaN	0.000000	0.001685	0.001721	28.0821	0.107665	0.001913	56.2819	-132.828	-164.952	-0.106736	0.089165	-0.990721	-0.992012	-0.061326	56.2819	-0.989904	-1.658894E+13	3.696774E-15	NaN
137	1.000000	0.098437	7.36638e+06	-45489.1	955.818	-29772.8	0.000000	0.000000	6.098760	-0.064279	NaN	0.000000	0.001608	0.001691	28.0827	0.072974	0.001968	37.083	-123.935	-167.753	0.020823	0.097151	-0.982740	-0.984025	-0.064279	37.083	-0.981440	-1.275863E+13	5.038118E-15	NaN
137	1.000000	0.106461	7.36638e+06	-45489.1	955.818	-29772.8	0.000000	0.000000	6.106782	-0.101605	NaN	0.000000	0.001632	0.001722	28.0822	0.076202	0.001936	39.37	155.28	-162.902	-0.066736	0.105142	-0.974716	-0.976034	-0.101605	39.37	-0.972780	-9.752797E+12	1.041806E-14	NaN
137	1.000000	0.114439	7.36638e+06	-45489.1	955.818	-29772.8	0.000000	0.000000	6.114762	-0.070868	NaN	0.000000	0.001635	0.001701	28.0835	0.107542	0.002038	52.7607	130.693	-167.797	0.025207	0.113133	-0.966738	-0.968043	-0.070868	52.7607	-0.965730	-7.836408E+12	9.043440E-15	NaN
137	1.000000	0.122443	7.36638e+06	-45489.1	955.818	-29772.8	0.000000	0.000000	6.122768	-0.024591	NaN	0.000000	0.001647	0.001712	28.0824	0.053239	0.001996	26.6748	-64.4776	-166.965	-0.028690	0.121116	-0.958733	-0.960061	-0.024591	26.6748	-0.958042	-6.172653E+12	3.983873E-15	NaN
137	1.000000	0.130453	7.36638e+06	-45489.1	955.819	-29772.8	0.000000	0.000000	6.130777	-0.051599	NaN	0.000000	0.001636	0.001699	28.0838	0.060285	0.002058	29.2905	-130.603	-166.016	-0.119539	0.129173	-0.950723	-0.952004	-0.051599	29.2905	-0.949402	-4.720257E+12	1.093132E-14	NaN
137	1.000000	0.138485	7.36638e+06	-45489.1	955.819	-29772.8	0.000000	0.000000	6.138810	-0.032306	NaN	0.000000	0.001614	0.001714	28.0829	0.101605	0.001931	52.6205	-109.48	-168.6	0.008151	0.137157	-0.942691	-0.944020	-0.032306	52.6205	-0.942231	-3.777752E+12	8.551590E-15	NaN
137	1.000000	0.146484	7.36638e+06	-45489.1	955.819	-29772.8	0.000000	0.000000	6.146807	-0.057961	NaN	0.000000	0.001596	0.001715	28.0826	0.049399	0.002007	24.6194	-63.3518	-165.923	-0.079642	0.145165	-0.934693	-0.936011	-0.057961	24.6194	-0.932927	-2.829434E+12	2.048511E-14	NaN
137	1.000000	0.154455	7.36638e+06	-45489.1	955.819	-29772.8	0.000000	0.000000	6.154779	-0.048449	NaN	0.000000	0.001616	0.001687	28.0847	0.093405	0.002023	46.176	90.5007	-167.185	-0.053129	0.153145	-0.926721	-0.928032	-0.048449	46.176	-0.925934	-2.276777E+12	2.127978E-14	NaN
137	1.000000	0.162469	7.36638e+06	-45489.1	955.818	-29772.8	0.000000	0.000000	6.162791	-0.078807	NaN	0.000000	0.001700	0.001698	28.0832	0.048955	0.001990	24.597	139.582	-167.167	-0.077911	0.161217	-0.918708	-0.919960	-0.078807	24.597	-0.916305	-1.687765E+12	4.669301E-14	NaN
137	1.000000	0.170484	7.36638e+06	-45489.1	955.818	-29772.8	0.000000	0.000000	6.170808	-0.027022	NaN	0.000000	0.001683	0.001721	28.0838	0.064691	0.002037	31.7618	132.229	-166.781	-0.055146	0.169169	-0.910693	-0.912007	-0.027022	31.7618	-0.910055	-1.389634E+12	1.944543E-14	NaN
137	1.000000	0.178466	7.36638e+06	-45489.1	955.819	-29772.8	0.000000	0.000000	6.178790	-0.042482	NaN	0.000000	0.001686	0.001702	28.084	0.083795	0.001912	43.8262	-81.3525	-166.115	-0.109432	0.177128	-0.902710	-0.904049	-0.042482	43.8262	-0.901983	-1.081101E+12	3.929483E-14	NaN
137	1.000000	0.186507	7.36638e+06	-45489.1	955.818	-29772.8	0.000000	0.000000	6.186828	-0.120353	NaN	0.000000	0.001692	0.001712	28.0832	0.065814	0.002062	31.9191	126.932	-163.908	-0.155695	0.185143	-0.894670	-0.896033	-0.120353	31.9191	-0.891842	-7.885169E+11	1.526324E-13	NaN
137	1.000000	0.194496	7.36638e+06	-45489.1	955.819	-29772.8	0.000000	0.000000	6.194819	-0.080710	NaN	0.000000	0.001686	0.001685	28.0842	0.066657	0.002094	31.8397	-39.4034	-167.517	-0.075355	0.193209	-0.886680	-0.887967	-0.080710	31.8397	-0.884779	-6.328880E+11	1.275260E-13	NaN
137	1.000000	0.202475	7.36638e+06	-45489.1	955.818	-29772.8	0.000000	0.000000	6.202799	-0.043475	NaN	0.000000	0.001703	0.001713	28.0852	0.052233	0.001862	28.0523	-49.9845	-165.839	-0.039788	0.201157	-0.878702	-0.880019	-0.043475	28.0523	-0.877539	-5.051630E+11	8.606055E-14	NaN
137	1.000000	0.210476	7.36638e+06	-45489.1	955.818	-29772.8	0.000000	0.000000	6.210802	-0.001402	NaN	0.000000	0.001720	0.001682	28.084	0.038156	0.002141	17.8219	-49.1925	-165.482	-0.028584	0.209221	-0.870700	-0.871955	-0.001402	17.8219	-0.870641	-4.074943E+11	3.440709E-15	NaN
137	1.000000	0.218487	7.36638e+06	-45489.1	955.818	-29772.8	0.000000	0.000000	6.218810	-0.067741	NaN	0.000000	0.001666	0.001710	28.0839	0.103207	0.001933	53.4011	72.1837	-165.558	-0.047097	0.217166	-0.862689	-0.864010	-0.067741	53.4011	-0.861738	-3.087771E+11	2.193857E-13	NaN
137	1.000000	0.226487	7.36638e+06	-45489.1	955.819	-29772.8	0.000000	0.000000	6.226808	-0.122836	NaN	0.000000	0.001698	0.001689	28.0842	0.077806	0.002011	38.6832	147.446	-168.836	-0.051790	0.225185	-0.854689	-0.855991	-0.122836	38.6832	-0.852308	-2.301373E+11	5.337521E-13	NaN
137	1.000000	0.234496	7.36638e+06	-45489.1	955.818	-29772.8	0.000000	0.000000	6.234817	-0.108071	NaN	0.000000	0.001639	0.001652	28.0828	0.037414	0.001987	18.8311	45.0686	-167.247	-0.099245	0.233222	-0.846681	-0.847955	-0.108071	18.8311	-0.842376	-1.688445E+11	6.400638E-13	NaN
137	1.000000	0.242488	7.36638e+06	-45489.1	955.819	-29772.8	0.000000	0.000000	6.242811	-0.071040	NaN	0.000000	0.001670	0.001704	28.0824	0.026285	0.002062	12.7484	-153.726	-164.92	-0.054531	0.241213	-0.838689	-0.839963	-0.071040	12.7484	-0.834509	-1.320984E+11	5.377845E-13	NaN
137	1.000000	0.250502	7.36638e+06	-45489.1	955.818	-29772.8	0.000000	0.000000	6.250823	-0.108679	NaN	0.000000	0.001644	0.001712	28.0836	0.071626	0.002062	34.7399	26.8593	-169.754	-0.027124	0.249200	-0.830675	-0.831976	-0.108679	34.7399	-0.828328	-1.089244E+11	9.977474E-13	NaN
137	1.000000	0.258527	7.36638e+06	-45489.1	955.818	-29772.8	0.000000	0.000000	6.258850	-0.079914	NaN	0.000000	0.001667	0.001721	28.0835	0.051842	0.002038	25.4344	69.1672	-163.762	-0.023879	0.257196	-0.822649	-0.823980	-0.079914	25.4344	-0.820293	-8.475826E+10	9.428427E-13	NaN
137	1.000000	0.266524	7.36638e+06	-45489.1	955.818	-29772.8	0.000000	0.000000	6.266849	-0.021045	NaN	0.000000	0.001661	0.001696	28.0837	0.032081	0.002126	15.0914	130.305	-165.611	-0.096833	0.265223	-0.814652	-0.815954	-0.021045	15.0914	-0.813606	-6.878548E+10	3.059508E-13	NaN
137	1.000000	0.274543	7.36638e+06	-45489.1	955.819	-29772.8	0.000000	0.000000	6.274865	-0.089490	NaN	0.000000	0.001688	0.001679	28.0846	0.065059	0.001994	32.6197	81.4737	-165.694	-0.091963	0.273204	-0.806634	-0.807972	-0.089490	32.6197	-0.804576	-5.187685E+10	1.725044E-12	NaN
137	1.000000	0.282538	7.36638e+06	-45489.1	955.819	-29772.8	0.000000	0.000000	6.282861	-0.067999	NaN	0.000000	0.001681	0.001714	28.0844	0.132530	0.002043	64.87	26.2479	-166.232	-0.021269	0.281231	-0.798638	-0.799945	-0.067999	64.87	-0.797852	-4.204421E+10	1.617321E-12	NaN
137	1.000000	0.290524	7.36638e+06	-45489.1	955.819	-29772.8	0.000000	0.000000	6.290847	-0.069337	NaN	0.000000	0.001646	0.001692	28.0841	0.068791	0.002026	33.9504	66.799	-169.479	-0.090514	0.289208	-0.790652	-0.791968	-0.069337	33.9504	-0.789120	-3.199883E+10	2.166868E-12	NaN
137	1.000000	0.298523	7.36638e+06	-45489.1	955.819	-29772.8	0.000000	0.000000	6.298846	-0.078231	NaN	0.000000	0.001671	0.001685	28.083	0.098188	0.001873	52.4184	66.3466	-165.416	-0.029734	0.297207	-0.782653	-0.783970	-0.078231	52.4184	-0.781534	-2.523898E+10	3.099615E-12	NaN
137	1.000000	0.306549	7.36638e+06	-45489.1	955.818	-29772.8	0.000000	0.000000	6.306874	-0.024421	NaN	0.000000	0.001692	0.001690	28.0829	0.038244	0.002088	18.315	-19.4873	-166.912	0.012667	0.305257	-0.774627	-0.775920	-0.024421	18.315	-0.773627	-1.970666E+10	1.239205E-12	NaN
137	1.000000	0.314584	7.36638e+06	-45489.1	955.819	-29772.8	0.000000	0.000000	6.314906	-0.097507	NaN	0.000000	0.001659	0.001709	28.082	0.070040	0.001996	35.0853	-137.649	-168.665	-0.007805	0.313256	-0.766593	-0.767920	-0.097507	35.0853	-0.764508	-1.481242E+10	6.582765E-12	NaN
137	1.000000	0.322529	7.36638e+06	-45489.1	955.817	-29772.8	0.000000	0.000000	6.322852	-0.071100	NaN	0.000000	0.001632	0.001679	28.0816	0.027536	0.002038	13.5128	143.734	-170.653	-0.009380	0.321255	-0.758648	-0.759921	-0.071100	13.5128	-0.754701	-1.089449E+10	6.526266E-12	NaN
137	1.000000	0.330533	7.36638e+06	-45489.1	955.818	-29772.8	0.000000	0.000000	6.330853	-0.137382	NaN	0.000000	0.001669	0.001698	28.0822	0.014543	0.002081	6.988781	-102.234	-165.581	-0.095552	0.329218	-0.750644	-0.751959	-0.137382	6.988781	-0.735901	-6.042431E+9	2.273624E-11	NaN
137	1.000000	0.338537	7.36638e+06	-45489.1	955.818	-29772.8	0.000000	0.000000	6.338863	0.007842	NaN	0.000000	0.001652	0.001653	28.0814	0.091715	0.002079	44.1074	129.504	-167.727	0.003910	0.337231	-0.742640	-0.743946	0.007842	44.1074	-0.742773	-7.495902E+9	-1.046161E-12	NaN
137	1.000000	0.346533	7.36638e+06	-45489.1	955.818	-29772.8	0.000000	0.000000	6.346858	-0.022279	NaN	0.000000	0.001667	0.001685	28.081	0.073838	0.002001	36.893	22.4849	-164.389	0.020533	0.345260	-0.734644	-0.735916	-0.022279	36.893	-0.734191	-5.726883E+9	3.890266E-12	NaN
137	1.000000	0.354535	7.36638e+06	-45489.1	955.818	-29772.8	0.000000	0.000000	6.354858	-0.056992	NaN	0.000000	0.001685	0.001714	28.0841	0.061278	0.002046	29.9557	31.1928	-167.848	-0.107944	0.353243	-0.726641	-0.727933	-0.056992	29.9557	-0.725214	-4.320918E+9	1.318981E-11	NaN
137	1.000000	0.362538	7.36638e+06	-45489.1	955.819	-29772.8	0.000000	0.000000	6.362860	-0.104800	NaN	0.000000	0.001663	0.001693	28.0834	0.045058	0.002004	22.4823	129.437	-167.639	-0.120562	0.361237	-0.718638	-0.719939	-0.104800	22.4823	-0.715142	-3.149261E+9	3.327774E-11	NaN
137	1.000000	0.370567	7.36638e+06	-45489.1	955.818	-29772.8	0.000000	0.000000	6.370888	-0.109348	NaN	0.000000	0.001645	0.001697	28.0829	0.045566	0.002083	21.8778	126.645	-167.555	-0.159259	0.369258	-0.710609	-0.711918	-0.109348	21.8778	-0.706861	-2.427742E+9	4.504084E-11	NaN
137	1.000000	0.378573	7.36638e+06	-45489.1	955.818	-29772.8	0.000000	0.000000	6.378898	-0.024262	NaN	0.000000	0.001657	0.001682	28.0836	0.023265	0.001962	11.859	-9.551270	-166.664	-0.009404	0.377274	-0.702604	-0.703903	-0.024262	11.859	-0.701069	-2.023641E+9	1.198905E-11	NaN
137	1.000000	0.386568	7.36638e+06	-45489.1	955.818	-29772.8	0.000000	0.000000	6.386889	-0.109638	NaN	0.000000	0.001682	0.001699	28.0833	0.055948	0.001981	28.2408	169.582	-165.449	-0.029700	0.385236	-0.694608	-0.695940	-0.109638	28.2408	-0.691697	-1.506970E+9	7.275404E-11	NaN
137	1.000000	0.394584	7.36638e+06	-45489.1	955.819	-29772.8	0.000000	0.000000	6.394909	-0.037639	NaN	0.000000	0.001664	0.001690	28.0823	0.110168	0.002060	53.489	-99.2745	-170.239	0.001502	0.393262	-0.686592	-0.687914	-0.037639	53.489	-0.686064	-1.262190E+9	2.982039E-11	NaN
137	1.000000	0.402570	7.36638e+06	-45489.1	955.818	-29772.8	0.000000	0.000000	6.402894	-0.048710	NaN	0.000000	0.001669	0.001688	28.0828	0.161401	0.001897	85.0956	77.4495	-164.26	-0.010921	0.401243	-0.678606	-0.679933	-0.048710	85.0956	-0.678177	-9.846221E+8	4.947050E-11	NaN
137	1.000000	0.410575	7.36638e+06	-45489.1	955.818	-29772.8	0.000000	0.000000	6.410898	-0.071429	NaN	0.000000	0.001698	0.001707	28.0818	0.098662	0.001952	50.5489	-87.1106	-165.028	-0.034689	0.409245	-0.670601	-0.671931	-0.071429	50.5489	-0.669541	-7.500829E+8	9.522762E-11	NaN
137	1.000000	0.418599	7.36638e+06	-45489.1	955.818	-29772.8	0.000000	0.000000	6.418921	-0.076421	NaN	0.000000	0.001698	0.001701	28.0822	0.072789	0.001927	37.7723	73.7627	-167.36	-0.063158	0.417279	-0.662578	-0.663897	-0.076421	37.7723	-0.661060	-5.741062E+8	1.331123E-10	NaN
137	1.000000	0.426620	7.36638e+06	-45489.1	955.819	-29772.8	0.000000	0.000000	6.426941	-0.105251	NaN	0.000000	0.001704	0.001721	28.0839	0.063628	0.002041	31.1737	-152.484	-169.222	-0.114002	0.425315	-0.654557	-0.655862	-0.105251	31.1737	-0.652025	-4.317061E+8	2.438028E-10	NaN
137	1.000000	0.434592	7.36638e+06	-45489.1	955.817	-29772.8	0.000000	0.000000	6.434915	-0.048345	NaN	0.000000	0.001748	0.001731	28.084	0.100452	0.002007	50.0558	-160.23	-167.349	-0.013230	0.433269	-0.646585	-0.647908	-0.048345	50.0558	-0.645860	-3.553672E+8	1.360435E-10	NaN
137	1.000000	0.442568	7.36638e+06	-45489.1	955.819	-29772.8	0.000000	0.000000	6.442892	-0.038957	NaN	0.000000	0.001701	0.001700	28.0851	0.116701	0.002002	58.2821	-121.073	-166.184	-0.070784	0.441227	-0.638608	-0.639949	-0.038957	58.2821	-0.638107	-2.781728E+8	1.400444E-10	NaN
137	1.000000	0.450617	7.36638e+06	-45489.1	955.818	-29772.8	0.000000	0.000000	6.450942	-0.023109	NaN	0.000000	0.001744	0.001726	28.0841	0.073065	0.001991	36.7021	138.226	-163.447	-0.027170	0.449338	-0.630560	-0.631838	-0.023109	36.7021	-0.630087	-2.158848E+8	1.070434E-10	NaN
137	1.000000	0.458587	7.36638e+06	-45489.1	955.818	-29772.8	0.000000	0.000000	6.458911	-0.045420	NaN	0.000000	0.001723	0.001698	28.0839	0.032121	0.002084	15.4114	119.036	-164.223	-0.078762	0.457285	-0.622589	-0.623891	-0.045420	15.4114	-0.620379	-1.587974E+8	2.860240E-10	NaN
137	1.000000	0.466620	7.36638e+06	-45489.1	955.818	-29772.8	0.000000	0.000000	6.466946	-0.003091	NaN	0.000000	0.001721	0.001719	28.0852	0.069652	0.002059	33.8205	95.4499	-166.127	-0.034914	0.465283	-0.614556	-0.615894	-0.003091	33.8205	-0.614488	-1.317781E+8	2.345987E-11	NaN
137	1.000000	0.474607	7.36638e+06	-45489.1	955.819	-29772.8	0.000000	0.000000	6.474933	0.008645	NaN	0.000000	0.001781	0.001718	28.0842	0.015187	0.001914	7.933607	124.445	-164.818	0.019710	0.473308	-0.606569	-0.607868	0.008645	7.933607	-0.607387	-1.052333E+8	-8.215155E-11	NaN
137	1.000000	0.482626	7.36638e+06	-45489.1	955.817	-29772.8	0.000000	0.000000	6.482949	-0.061322	NaN	0.000000	0.001746	0.001739	28.0831	0.039477	0.001928	20.472	-92.9372	-168.056	-0.084492	0.481330	-0.598551	-0.599846	-0.061322	20.472	-0.596304	-7.405443E+7	8.280669E-10	NaN
137	1.000000	0.490652	7.36638e+06	-45489.1	955.819	-29772.8	0.000000	0.000000	6.490975	-0.080933	NaN	0.000000	0.001732	0.001732	28.0836	0.044229	0.001965	22.5109	-143.136	-167.686	-0.119740	0.489346	-0.590524	-0.591830	-0.080933	22.5109	-0.587828	-5.658667E+7	1.430251E-9	NaN
137	1.000000	0.498605	7.36638e+06	-45489.1	955.818	-29772.8	0.000000	0.000000	6.498927	-0.106400	NaN	0.000000	0.001748	0.001707	28.0834	0.155034	0.002045	75.806	146.367	-165.246	-0.120074	0.497297	-0.582571	-0.583879	-0.106400	75.806	-0.581518	-4.631062E+7	2.297531E-9	NaN
137	1.000000	0.506619	7.36638e+06	-45489.1	955.818	-29772.8	0.000000	0.000000	6.506940	-0.111667	NaN	0.000000	0.001743	0.001716	28.0832	0.100889	0.002017	50.0273	-90.5352	-163.911	-0.187614	0.505292	-0.574557	-0.575885	-0.111667	50.0273	-0.572883	-3.519362E+7	3.172922E-9	NaN
137	1.000000	0.514630	7.36638e+06	-45489.1	955.818	-29772.8	0.000000	0.000000	6.514956	0.015277	NaN	0.000000	0.001722	0.001702	28.0851	0.048510	0.002076	23.3682	106.543	-167.536	0.068421	0.513286	-0.566547	-0.567891	0.015277	23.3682	-0.567037	-2.922019E+7	-5.228315E-10	NaN
137	1.000000	0.522642	7.36638e+06	-45489.1	955.817	-29772.8	0.000000	0.000000	6.522966	-0.033832	NaN	0.000000	0.001739	0.001703	28.085	0.016817	0.002014	8.349877	-128.373	-166.673	0.056441	0.521277	-0.558535	-0.559900	-0.033832	8.349877	-0.555496	-2.023250E+7	1.672185E-9	NaN
137	1.000000	0.530622	7.36638e+06	-45489.1	955.818	-29772.8	0.000000	0.000000	6.530946	-0.059336	NaN	0.000000	0.001743	0.001729	28.0835	0.091325	0.001995	45.7676	135.037	-163.223	-0.119639	0.529325	-0.550554	-0.551851	-0.059336	45.7676	-0.549582	-1.675577E+7	3.541232E-9	NaN
137	1.000000	0.538649	7.36638e+06	-45489.1	955.818	-29772.8	0.000000	0.000000	6.538972	-0.072869	NaN	0.000000	0.001739	0.001718	28.0833	0.045418	0.002066	21.9814	-7.725389	-164.407	-0.044249	0.537346	-0.542527	-0.543831	-0.072869	21.9814	-0.540041	-1.235743E+7	5.896802E-9	NaN
137	1.000000	0.546616	7.36638e+06	-45489.1	955.818	-29772.8	0.000000	0.000000	6.546940	-0.054841	NaN	0.000000	0.001720	0.001735	28.0842	0.117911	0.002002	58.885	48.602	-166.999	-0.032801	0.545355	-0.534560	-0.535821	-0.054841	58.885	-0.533861	-1.014350E+7	5.406471E-9	NaN
137	1.000000	0.554665	7.36638e+06	-45489.1	955.818	-29772.8	0.000000	0.000000	6.554989	-0.041782	NaN	0.000000	0.001718	0.001750	28.0824	0.086611	0.002061	42.0199	-146.095	-168.055	-0.069317	0.553382	-0.526512	-0.527794	-0.041782	42.0199	-0.525766	-7.82984e+06	5.336234E-9	NaN
137	1.000000	0.562672	7.36638e+06	-45489.1	955.818	-29772.8	0.000000	0.000000	6.562994	-0.108172	NaN	0.000000	0.001734	0.001711	28.0821	0.055307	0.001982	27.8979	-123.726	-166.941	-0.146900	0.561347	-0.518504	-0.519830	-0.108172	27.8979	-0.515596	-5.65367e+06	1.913298E-8	NaN
137	1.000000	0.570669	7.36638e+06	-45489.1	955.818	-29772.8	0.000000	0.000000	6.570994	-0.022211	NaN	0.000000	0.001697	0.001684	28.0821	0.103048	0.001933	53.2994	126.791	-165.076	-0.001811	0.569363	-0.510508	-0.511813	-0.022211	53.2994	-0.510195	-4.7548e+06	4.671311E-9	NaN
137	1.000000	0.578644	7.36638e+06	-45489.1	955.818	-29772.8	0.000000	0.000000	6.578967	-0.079877	NaN	0.000000	0.001680	0.001693	28.0812	0.012171	0.001962	6.202961	-26.3494	-164.818	-0.027357	0.577264	-0.502532	-0.503912	-0.079877	6.202961	-0.492874	-2.72615e+06	2.930045E-8	NaN
137	1.000000	0.586656	7.36638e+06	-45489.1	955.818	-29772.8	0.000000	0.000000	6.586980	-0.035745	NaN	0.000000	0.001696	0.001690	28.0823	0.057373	0.002058	27.8757	-31.3889	-166.159	0.044117	0.585330	-0.494520	-0.495846	-0.035745	27.8757	-0.493559	-2.78682e+06	1.282652E-8	NaN
137	1.000000	0.594644	7.36638e+06	-45489.1	955.817	-29772.8	0.000000	0.000000	6.594965	-0.115326	NaN	0.000000	0.001700	0.001723	28.0815	0.086841	0.001989	43.6554	-6.727784	-166.276	-0.022978	0.593354	-0.486532	-0.487822	-0.115326	43.6554	-0.484551	-2.08549e+06	5.529938E-8	NaN
137	1.000000	0.602640	7.36638e+06	-45489.1	955.818	-29772.8	0.000000	0.000000	6.602962	-0.100509	NaN	0.000000	0.001689	0.001689	28.0826	0.072325	0.001948	37.1187	-16.6782	-165.08	-0.134716	0.601359	-0.478536	-0.479818	-0.100509	37.1187	-0.476505	-1.60911e+06	6.246242E-8	NaN
137	1.000000	0.610663	7.36638e+06	-45489.1	955.819	-29772.8	0.000000	0.000000	6.610984	-0.123645	NaN	0.000000	0.001723	0.001648	28.0832	0.084974	0.002060	41.2469	-113.492	-164.418	-0.046189	0.609375	-0.470513	-0.471801	-0.123645	41.2469	-0.468265	-1.23331e+06	1.002553E-7	NaN
137	1.000000	0.618703	7.36638e+06	-45489.1	955.819	-29772.8	0.000000	0.000000	6.619026	-0.073644	NaN	0.000000	0.001709	0.001643	28.083	0.058382	0.002057	28.379	130.441	-167.603	0.025633	0.617413	-0.462474	-0.463763	-0.073644	28.379	-0.460527	-960345	7.668448E-8	NaN
137	1.000000	0.626671	7.36638e+06	-45489.1	955.818	-29772.8	0.000000	0.000000	6.626995	-0.028964	NaN	0.000000	0.001689	0.001629	28.0823	0.119932	0.001983	60.4726	-63.4612	-168.05	-0.016121	0.625322	-0.454506	-0.455855	-0.028964	60.4726	-0.454146	-781104	3.708097E-8	NaN
137	1.000000	0.634659	7.36638e+06	-45489.1	955.819	-29772.8	0.000000	0.000000	6.634982	-0.061766	NaN	0.000000	0.001620	0.001644	28.0824	0.101574	0.001948	52.1386	-6.863245	-164.212	-0.081765	0.633363	-0.446517	-0.447813	-0.061766	52.1386	-0.445629	-592591	1.042296E-7	NaN
137	1.000000	0.642674	7.36638e+06	-45489.1	955.818	-29772.8	0.000000	0.000000	6.642996	-0.099196	NaN	0.000000	0.001654	0.001670	28.0825	0.062376	0.002055	30.3515	76.7263	-166.969	-0.069924	0.641304	-0.438502	-0.439872	-0.099196	30.3515	-0.436051	-434113	2.285032E-7	NaN
137	1.000000	0.650679	7.36638e+06	-45489.1	955.818	-29772.8	0.000000	0.000000	6.651002	-0.066058	NaN	0.000000	0.001652	0.001665	28.0815	0.070022	0.001902	36.8241	43.9424	-170.86	-0.039009	0.649345	-0.430497	-0.431831	-0.066058	36.8241	-0.429152	-346784	1.904884E-7	NaN
137	1.000000	0.658672	7.36638e+06	-45489.1	955.819	-29772.8	0.000000	0.000000	6.658995	-0.065729	NaN	0.000000	0.001676	0.001634	28.0822	0.133740	0.001954	68.4405	20.5234	-162.776	-0.085208	0.657378	-0.422504	-0.423799	-0.065729	68.4405	-0.421784	-272715	2.410180E-7	NaN
137	1.000000	0.666676	7.36638e+06	-45489.1	955.818	-29772.8	0.000000	0.000000	6.666998	-0.093594	NaN	0.000000	0.001664	0.001645	28.0824	0.134816	0.002072	65.0786	82.8236	-167.295	-0.095495	0.665390	-0.414501	-0.415786	-0.093594	65.0786	-0.413422	-207511	4.510341E-7	NaN
137	1.000000	0.674685	7.36638e+06	-45489.1	955.819	-29772.8	0.000000	0.000000	6.675009	-0.040524	NaN	0.000000	0.001647	0.001639	28.0821	0.058751	0.001929	30.4551	-139.696	-167.137	-0.013797	0.673362	-0.406491	-0.407814	-0.040524	30.4551	-0.405493	-160057	2.531875E-7	NaN
137	1.000000	0.682687	7.36638e+06	-45489.1	955.819	-29772.8	0.000000	0.000000	6.683010	-0.075388	NaN	0.000000	0.001661	0.001650	28.0839	0.046430	0.002019	22.999	146.843	-161.197	-0.038670	0.681356	-0.398489	-0.399821	-0.075388	22.999	-0.396031	-117316	6.426046E-7	NaN
137	1.000000	0.690682	7.36638e+06	-45489.1	955.818	-29772.8	0.000000	0.000000	6.691006	-0.029231	NaN	0.000000	0.001617	0.001638	28.0825	0.044602	0.002030	21.9693	-92.2936	-168.6	-0.026281	0.689374	-0.390495	-0.391803	-0.029231	21.9693	-0.389497	-94616.4	3.089468E-7	NaN
137	1.000000	0.698696	7.36638e+06	-45489.1	955.819	-29772.8	0.000000	0.000000	6.699022	0.005022	NaN	0.000000	0.001596	0.001659	28.0834	0.194731	0.002015	96.6396	-72.9702	-165.418	0.087407	0.697388	-0.382480	-0.383788	0.005022	96.6396	-0.382519	-75166.7	-6.681092E-8	NaN
137	1.000000	0.706691	7.36638e+06	-45489.1	955.818	-29772.8	0.000000	0.000000	6.707013	-0.096504	NaN	0.000000	0.001623	0.001693	28.0843	0.111384	0.002022	55.0915	-108.985	-167.291	-0.094975	0.705417	-0.374486	-0.375759	-0.096504	55.0915	-0.373172	-55179.8	1.748902E-6	NaN
137	1.000000	0.714731	7.36638e+06	-45489.1	955.818	-29772.8	0.000000	0.000000	6.715054	-0.077208	NaN	0.000000	0.001675	0.001682	28.083	0.040220	0.001962	20.4959	102.19	-168.072	-0.047812	0.713401	-0.366446	-0.367775	-0.077208	20.4959	-0.363620	-40192.2	1.920978E-6	NaN
137	1.000000	0.722704	7.36638e+06	-45489.1	955.818	-29772.8	0.000000	0.000000	6.723028	-0.036387	NaN	0.000000	0.001641	0.001706	28.0829	0.065191	0.002029	32.1325	-145.946	-165.728	-0.058523	0.721417	-0.358473	-0.359759	-0.036387	32.1325	-0.357624	-32921.2	1.105287E-6	NaN
137	1.000000	0.730724	7.36638e+06	-45489.1	955.817	-29772.8	0.000000	0.000000	6.731049	0.001107	NaN	0.000000	0.001666	0.001691	28.0818	0.021994	0.001957	11.2362	130.991	-162.433	-0.000218	0.729410	-0.350453	-0.351766	0.001107	11.2362	-0.350527	-25980.4	-4.260965E-8	NaN
137	1.000000	0.738706	7.36638e+06	-45489.1	955.818	-29772.8	0.000000	0.000000	6.739030	-0.054106	NaN	0.000000	0.001635	0.001656	28.0822	0.061600	0.002025	30.4184	138.833	-166.719	0.013874	0.737336	-0.342470	-0.343840	-0.054106	30.4184	-0.341136	-18972	2.851908E-6	NaN
137	1.000000	0.746674	7.36638e+06	-45489.1	955.819	-29772.8	0.000000	0.000000	6.746999	-0.013122	NaN	0.000000	0.001679	0.001661	28.0831	0.073414	0.001924	38.1471	-4.651124	-165.841	0.051130	0.745437	-0.334503	-0.335739	-0.013122	38.1471	-0.334245	-15050.6	8.718630E-7	NaN
137	1.000000	0.754723	7.36638e+06	-45489.1	955.819	-29772.8	0.000000	0.000000	6.755049	0.012567	NaN	0.000000	0.001698	0.001659	28.0837	0.049786	0.002013	24.7267	-89.6066	-162.788	-0.025676	0.753424	-0.326453	-0.327752	0.012567	24.7267	-0.326834	-11723.5	-1.071986E-6	NaN
137	1.000000	0.762735	7.36638e+06	-45489.1	955.819	-29772.8	0.000000	0.000000	6.763058	-0.084423	NaN	0.000000	0.001663	0.001639	28.0843	0.028061	0.001869	15.0131	-46.9928	-162.152	0.031075	0.761429	-0.318441	-0.319747	-0.084423	15.0131	-0.314224	-7646.92	1.104009E-5	NaN
137	1.000000	0.770701	7.36638e+06	-45489.1	955.818	-29772.8	0.000000	0.000000	6.771027	-0.009316	NaN	0.000000	0.001665	0.001664	28.0842	0.048381	0.001942	24.9117	140.187	-166.315	-0.141495	0.769398	-0.310475	-0.311778	-0.009316	24.9117	-0.310195	-6667.08	1.397277E-6	NaN
137	1.000000	0.778736	7.36638e+06	-45489.1	955.818	-29772.8	0.000000	0.000000	6.779058	-0.091007	NaN	0.000000	0.001650	0.001649	28.0832	0.121184	0.001956	61.9611	122.372	-164.081	-0.128897	0.777454	-0.302441	-0.303723	-0.091007	61.9611	-0.301339	-4926.78	1.847198E-5	NaN
137	1.000000	0.786734	7.36638e+06	-45489.1	955.819	-29772.8	0.000000	0.000000	6.787059	-0.011910	NaN	0.000000	0.001640	0.001641	28.0843	0.109462	0.002023	54.1206	-82.5173	-167.521	0.030033	0.785438	-0.294442	-0.295739	-0.011910	54.1206	-0.294277	-3866.27	3.080556E-6	NaN
137	1.000000	0.794748	7.36638e+06	-45489.1	955.819	-29772.8	0.000000	0.000000	6.795068	-0.141907	NaN	0.000000	0.001653	0.001655	28.0831	0.060020	0.001998	30.0421	175.036	-169.898	-0.102421	0.793427	-0.286429	-0.287749	-0.141907	30.0421	-0.282886	-2608.94	5.439262E-5	NaN
137	1.000000	0.802759	7.36638e+06	-45489.1	955.818	-29772.8	0.000000	0.000000	6.803084	-0.032658	NaN	0.000000	0.001623	0.001671	28.082	0.027549	0.001962	14.0428	-62.2245	-170.742	-0.079595	0.801457	-0.278417	-0.279719	-0.032658	14.0428	-0.276673	-2102.41	1.553373E-5	NaN
137	1.000000	0.810741	7.36638e+06	-45489.1	955.819	-29772.8	0.000000	0.000000	6.811063	-0.094471	NaN	0.000000	0.001707	0.001674	28.0823	0.059211	0.001980	29.9113	-143.487	-168.273	0.036967	0.809455	-0.270435	-0.271721	-0.094471	29.9113	-0.268067	-1556.45	6.069641E-5	NaN
137	1.000000	0.818786	7.36638e+06	-45489.1	955.819	-29772.8	0.000000	0.000000	6.819107	-0.109681	NaN	0.000000	0.001769	0.001641	28.083	0.037947	0.001999	18.9811	105.836	-165.625	-0.078602	0.817467	-0.262391	-0.263709	-0.109681	18.9811	-0.258057	-1094.24	0.000100	NaN
137	1.000000	0.826760	7.36638e+06	-45489.1	955.818	-29772.8	0.000000	0.000000	6.827080	-0.133539	NaN	0.000000	0.001722	0.001639	28.0826	0.051433	0.001945	26.449	-138.011	-165.792	-0.082999	0.825436	-0.254417	-0.255741	-0.133539	26.449	-0.250630	-840.824	0.000159	NaN
137	1.000000	0.834759	7.36638e+06	-45489.1	955.819	-29772.8	0.000000	0.000000	6.835083	-0.043125	NaN	0.000000	0.001716	0.001658	28.0829	0.097492	0.002099	46.449	120.469	-166.058	-0.067261	0.833421	-0.246417	-0.247756	-0.043125	46.449	-0.245721	-705.756	6.110449E-5	NaN
137	1.000000	0.842775	7.36638e+06	-45489.1	955.819	-29772.8	0.000000	0.000000	6.843100	-0.026158	NaN	0.000000	0.001709	0.001637	28.0817	0.123485	0.001903	64.9036	-48.0561	-168.964	-0.036044	0.841440	-0.238401	-0.239737	-0.026158	64.9036	-0.238099	-536.825	4.872711E-5	NaN
137	1.000000	0.850798	7.36638e+06	-45489.1	955.818	-29772.8	0.000000	0.000000	6.851124	0.018727	NaN	0.000000	0.001708	0.001633	28.0812	0.076081	0.001816	41.8863	106.655	-166.716	-0.028369	0.849416	-0.230379	-0.231760	0.018727	41.8863	-0.230714	-410.95	-4.556891E-5	NaN
137	1.000000	0.858761	7.36638e+06	-45489.1	955.818	-29772.8	0.000000	0.000000	6.859085	-0.045397	NaN	0.000000	0.001682	0.001646	28.0828	0.023593	0.002035	11.5917	12.3451	-164.423	-0.022670	0.857477	-0.222415	-0.223699	-0.045397	11.5917	-0.219478	-272.476	0.000167	NaN
137	1.000000	0.866755	7.36638e+06	-45489.1	955.819	-29772.8	0.000000	0.000000	6.867081	0.012988	NaN	0.000000	0.001672	0.001662	28.0822	0.080324	0.002023	39.7005	135.885	-165.514	-0.066515	0.865453	-0.214422	-0.215724	0.012988	39.7005	-0.214667	-228.118	-5.693350E-5	NaN
137	1.000000	0.874771	7.36638e+06	-45489.1	955.817	-29772.8	0.000000	0.000000	6.875093	-0.091884	NaN	0.000000	0.001676	0.001642	28.0807	0.080941	0.002096	38.6156	-11.325	-168.234	-0.027931	0.873481	-0.206406	-0.207695	-0.091884	38.6156	-0.204621	-156.81	0.000586	NaN
137	1.000000	0.882776	7.36638e+06	-45489.1	955.818	-29772.8	0.000000	0.000000	6.883098	-0.103051	NaN	0.000000	0.001656	0.001648	28.0821	0.040112	0.002067	19.402	-97.6439	-162.026	-0.046444	0.881478	-0.198400	-0.199699	-0.103051	19.402	-0.194417	-106.546	0.000967	NaN
137	1.000000	0.890799	7.36638e+06	-45489.1	955.819	-29772.8	0.000000	0.000000	6.891125	-0.000887	NaN	0.000000	0.001718	0.001666	28.0805	0.054073	0.001979	27.3214	-53.5278	-167.347	-0.001055	0.889467	-0.190377	-0.191709	-0.000887	27.3214	-0.190353	-91.1845	9.722581E-6	NaN
137	1.000000	0.898768	7.36638e+06	-45489.1	955.819	-29772.8	0.000000	0.000000	6.899088	-0.127480	NaN	0.000000	0.001719	0.001677	28.0807	0.127406	0.002045	62.2882	-165.233	-165.165	-0.021375	0.897510	-0.182409	-0.183666	-0.127480	62.2882	-0.180874	-63.1419	0.002019	NaN
137	1.000000	0.906774	7.36638e+06	-45489.1	955.818	-29772.8	0.000000	0.000000	6.907100	0.015049	NaN	0.000000	0.001742	0.001651	28.0808	0.042047	0.001980	21.2408	113.25	-167.451	0.047291	0.905501	-0.174403	-0.175675	0.015049	21.2408	-0.174934	-49.9858	-0.000301	NaN
137	1.000000	0.914789	7.36638e+06	-45489.1	955.818	-29772.8	0.000000	0.000000	6.915109	-0.133021	NaN	0.000000	0.001749	0.001674	28.0816	0.095126	0.002125	44.7553	-98.1185	-165.946	-0.003652	0.913490	-0.166387	-0.167686	-0.133021	44.7553	-0.164158	-32.4719	0.004096	NaN
137	1.000000	0.922805	7.36638e+06	-45489.1	955.819	-29772.8	0.000000	0.000000	6.923129	-0.051456	NaN	0.000000	0.001734	0.001683	28.0828	0.042121	0.002059	20.4589	-89.1624	-166.256	-0.032701	0.921461	-0.158371	-0.159716	-0.051456	20.4589	-0.156485	-23.7273	0.002169	NaN
137	1.000000	0.930800	7.36638e+06	-45489.1	955.819	-29772.8	0.000000	0.000000	6.931122	-0.098218	NaN	0.000000	0.001716	0.001672	28.0813	0.122952	0.001922	63.9871	88.5471	-162.871	-0.086834	0.929496	-0.150376	-0.151680	-0.098218	63.9871	-0.149225	-17.5331	0.005602	NaN
137	1.000000	0.938801	7.36638e+06	-45489.1	955.819	-29772.8	0.000000	0.000000	6.939123	-0.089126	NaN	0.000000	0.001733	0.001691	28.0823	0.084040	0.001960	42.8822	144.439	-167.813	-0.083349	0.937448	-0.142375	-0.143728	-0.089126	42.8822	-0.140816	-12.2541	0.007273	NaN
137	1.000000	0.946821	7.36638e+06	-45489.1	955.819	-29772.8	0.000000	0.000000	6.947145	-0.044365	NaN	0.000000	0.001718	0.001675	28.083	0.046827	0.001920	24.3861	-63.6349	-168.819	-0.041297	0.945553	-0.134356	-0.135623	-0.044365	24.3861	-0.132991	-8.705835	0.005096	NaN
137	1.000000	0.954821	7.36638e+06	-45489.1	955.818	-29772.8	0.000000	0.000000	6.955143	-0.074858	NaN	0.000000	0.001710	0.001623	28.0816	0.097174	0.001794	54.1769	14.7792	-166.359	-0.102530	0.953439	-0.126356	-0.127737	-0.074858	54.1769	-0.125320	-6.170389	0.012132	NaN
137	1.000000	0.962832	7.36638e+06	-45489.1	955.819	-29772.8	0.000000	0.000000	6.963154	-0.089397	NaN	0.000000	0.001672	0.001671	28.0811	0.071339	0.001960	36.4057	-139.359	-167.18	-0.054012	0.961492	-0.118345	-0.119685	-0.089397	36.4057	-0.116503	-4.101907	0.021794	NaN
137	1.000000	0.970813	7.36638e+06	-45489.1	955.818	-29772.8	0.000000	0.000000	6.971136	-0.053321	NaN	0.000000	0.001690	0.001662	28.0824	0.071671	0.002036	35.2097	150.392	-167.882	-0.071267	0.969490	-0.110364	-0.111686	-0.053321	35.2097	-0.109228	-2.894415	0.018422	NaN
137	1.000000	0.978797	7.36638e+06	-45489.1	955.817	-29772.8	0.000000	0.000000	6.979121	-0.064186	NaN	0.000000	0.001622	0.001629	28.082	0.070379	0.002068	34.0351	46.4352	-165.747	-0.055135	0.977479	-0.102379	-0.103697	-0.064186	34.0351	-0.100965	-1.919115	0.033446	NaN
137	1.000000	0.986780	7.36638e+06	-45489.1	955.818	-29772.8	0.000000	0.000000	6.987101	-0.109866	NaN	0.000000	0.001660	0.001637	28.081	0.046497	0.002063	22.5403	126.046	-166.103	-0.041837	0.985567	-0.094397	-0.095610	-0.109866	22.5403	-0.090741	-1.125037	0.097655	NaN
137	1.000000	0.994818	7.36638e+06	-45489.1	955.818	-29772.8	0.000000	0.000000	6.995141	-0.071923	NaN	0.000000	0.001645	0.001652	28.084	0.081202	0.002056	39.4948	95.1261	-171.756	0.037956	0.993492	-0.086358	-0.087685	-0.071923	39.4948	-0.084992	-0.821284	0.087574	NaN
137	1.000000	1.002823	7.36638e+06	-45489.1	955.818	-29772.8	0.000000	0.000000	7.003143	-0.135226	NaN	0.000000	0.001659	0.001665	28.0823	0.181112	0.002047	88.4821	159.457	-166.527	-0.071651	1.001504	-0.078353	-0.079673	-0.135226	88.4821	-0.077207	-0.526241	0.256966	NaN
137	1.000000	1.010837	7.36638e+06	-45489.1	955.819	-29772.8	0.000000	0.000000	7.011159	-0.089743	NaN	0.000000	0.001613	0.001706	28.0822	0.008627	0.002069	4.169554	-8.174258	-168.155	-0.095992	1.009534	-0.070339	-0.071642	-0.089743	4.169554	-0.054197	-0.121912	0.736125	NaN
137	1.000000	1.018855	7.36638e+06	-45489.1	955.817	-29772.8	0.000000	0.000000	7.019178	-0.049686	NaN	0.000000	0.001642	0.001665	28.0832	0.066372	0.001998	33.2211	-9.768373	-165.784	-0.042379	1.017544	-0.062322	-0.063632	-0.049686	33.2211	-0.061200	-0.194890	0.254946	NaN
137	1.000000	1.026817	7.36638e+06	-45489.1	955.817	-29772.8	0.000000	0.000000	7.027140	-0.089514	NaN	0.000000	0.001635	0.001669	28.0828	0.019971	0.002046	9.762318	-113.245	-166.935	-0.061609	1.025541	-0.054359	-0.055636	-0.089514	9.762318	-0.047482	-0.076521	1.169797	NaN
137	1.000000	1.034845	7.36638e+06	-45489.1	955.817	-29772.8	0.000000	0.000000	7.035165	-0.143806	NaN	0.000000	0.001659	0.001657	28.0823	0.069288	0.001990	34.8242	122.468	-165.352	-0.121508	1.033543	-0.046331	-0.047633	-0.143806	34.8242	-0.043234	-0.056753	2.533889	NaN
137	1.000000	1.042817	7.36638e+06	-45489.1	955.818	-29772.8	0.000000	0.000000	7.043143	-0.008568	NaN	0.000000	0.001593	0.001660	28.0818	0.069617	0.002017	34.5085	71.6387	-170.694	-0.044672	1.041549	-0.038359	-0.039627	-0.008568	34.5085	-0.038173	-0.039818	0.215191	NaN
137	1.000000	1.050823	7.36638e+06	-45489.1	955.818	-29772.8	0.000000	0.000000	7.051145	-0.088151	NaN	0.000000	0.001622	0.001642	28.0816	0.070870	0.001974	35.8984	139.41	-170.741	-0.029528	1.049524	-0.030354	-0.031653	-0.088151	35.8984	-0.028512	-0.020937	4.210387	NaN
137	1.000000	1.058834	7.36638e+06	-45489.1	955.818	-29772.8	0.000000	0.000000	7.059156	-0.107160	NaN	0.000000	0.001591	0.001637	28.0817	0.046303	0.001973	23.4742	-92.0701	-168.93	-0.099323	1.057502	-0.022342	-0.023675	-0.107160	23.4742	-0.018918	-0.011787	9.091089	NaN
137	1.000000	1.066853	7.36638e+06	-45489.1	955.817	-29772.8	0.000000	0.000000	7.067176	-0.070033	NaN	0.000000	0.001673	0.001650	28.082	0.036450	0.001981	18.3998	-62.6057	-167.966	-0.044785	1.065524	-0.014323	-0.015652	-0.070033	18.3998	-0.011469	-0.007225	9.692834	NaN
137	1.000000	1.074873	7.36638e+06	-45489.1	955.818	-29772.8	0.000000	0.000000	7.075194	-0.140425	NaN	0.000000	0.001721	0.001678	28.0832	0.076424	0.001991	38.3904	-19.3517	-167.426	-0.131926	1.073506	-0.006303	-0.007670	-0.140425	38.3904	-0.003560	-0.002492	56.3604	NaN
137	1.000000	1.082841	7.36638e+06	-45489.1	955.817	-29772.8	0.000000	0.000000	7.083237	1.722697	NaN	0.000000	0.001682	0.001675	28.0834	2.468731	0.001860	1327.3	2.708719	-164.164	0.764066	1.081551	0.001664	0.000375	1.722697	1327.3	0.000691	0.000523	3291.49	53007.2
137	2.000000	1.089419	7.36638e+06	-45489.1	955.818	-29772.8	0.000000	0.000000	7.090118	9.087798	NaN	0.000000	0.001671	0.001672	28.082	8.917423	0.001591	5606.27	8.497372	-174.395	8.744316	1.089049	0.008242	0.007872	9.087798	5606.27	0.007027	0.006060	1499.59	65796.6
137	2.000000	1.091452	7.36638e+06	-45489.1	955.818	-29772.8	0.000000	0.000000	7.092265	11.8419	NaN	0.000000	0.001672	0.001655	28.0832	11.2555	0.001714	6567.71	6.139466	-175.368	11.4069	1.091138	0.010276	0.009961	11.8419	6567.71	0.008923	0.008009	1478.5	67048.1
137	2.000000	1.093452	7.36638e+06	-45489.1	955.818	-29772.8	0.000000	0.000000	7.094371	14.4241	NaN	0.000000	0.001698	0.001665	28.0819	13.5027	0.001879	7185.49	8.406168	-175.578	13.9032	1.093039	0.012276	0.011863	14.4241	7185.49	0.010770	0.010050	1435.2	65484.9
137	2.000000	1.095434	7.36638e+06	-45489.1	955.818	-29772.8	0.000000	0.000000	7.096481	17.5632	NaN	0.000000	0.001722	0.001659	28.0806	15.594	0.001906	8181.02	10.1305	-178.616	17.6421	1.095089	0.014257	0.013913	17.5632	8181.02	0.012647	0.012274	1430.87	67465.1
137	2.000000	1.097392	7.36638e+06	-45489.1	955.818	-29772.8	0.000000	0.000000	7.098547	20.1774	NaN	0.000000	0.001700	0.001664	28.0816	17.229	0.001797	9585.68	4.521956	-176.262	19.8941	1.097122	0.016215	0.015946	20.1774	9585.68	0.014637	0.014804	1362.96	71978.9
137	2.000000	1.099413	7.36638e+06	-45489.1	955.818	-29772.8	0.000000	0.000000	7.100789	25.5325	NaN	0.000000	0.001676	0.001726	28.0805	18.127	0.001751	10354.8	5.287369	-176.541	24.5147	1.099066	0.018237	0.017890	25.5325	10354.8	0.016388	0.017180	1486.13	72177
137	2.000000	1.101317	7.36638e+06	-45489.1	955.819	-29772.8	0.000000	0.000000	7.102835	29.0003	NaN	0.000000	0.001670	0.001725	28.0804	20.3541	0.001745	11663.8	0.998618	-175.077	27.2695	1.101067	0.020141	0.019891	29.0003	11663.8	0.018276	0.019905	1456.9	75531.7
137	2.000000	1.103394	7.36638e+06	-45489.1	955.818	-29772.8	0.000000	0.000000	7.105073	32.9028	NaN	0.000000	0.001703	0.001680	28.0813	22.9954	0.001827	12587.3	6.470316	-179.576	33.7646	1.103124	0.022218	0.021947	32.9028	12587.3	0.020258	0.022949	1433.76	75915
137	2.000000	1.105344	7.36638e+06	-45489.1	955.818	-29772.8	0.000000	0.000000	7.107302	39.7032	NaN	0.000000	0.001690	0.001696	28.0812	25.4098	0.001805	14078.9	8.315504	177.437	38.3629	1.104990	0.024167	0.023814	39.7032	14078.9	0.022052	0.025871	1534.69	79972.1
137	2.000000	1.107346	7.36638e+06	-45489.1	955.818	-29772.8	0.000000	0.000000	7.109500	44.4922	NaN	0.000000	0.001688	0.001709	28.0818	27.5636	0.001822	15129.1	3.401473	-177.821	44.9016	1.107009	0.026169	0.025833	44.4922	15129.1	0.023964	0.029157	1525.95	80949.5
137	2.000000	1.109311	7.36638e+06	-45489.1	955.819	-29772.8	0.000000	0.000000	7.111689	49.9251	NaN	0.000000	0.001678	0.001684	28.0814	29.331	0.001920	15279	9.768326	175.931	47.8943	1.109055	0.028135	0.027878	49.9251	15279	0.025684	0.032272	1547.03	77706.5
137	2.000000	1.111363	7.36638e+06	-45489.1	955.818	-29772.8	0.000000	0.000000	7.113990	55.9719	NaN	0.000000	0.001665	0.001664	28.0822	31.6891	0.001955	16211.6	4.771695	-179.799	55.4591	1.111064	0.030186	0.029888	55.9719	16211.6	0.027597	0.035910	1558.66	78160.8
137	2.000000	1.113332	7.36638e+06	-45489.1	955.818	-29772.8	0.000000	0.000000	7.116231	62.5782	NaN	0.000000	0.001668	0.001690	28.0816	33.8197	0.001874	18046.6	7.153981	175.805	62.479	1.113043	0.032156	0.031867	62.5782	18046.6	0.029555	0.039827	1571.26	82619
137	2.000000	1.115325	7.36638e+06	-45489.1	955.819	-29772.8	0.000000	0.000000	7.118566	70.9145	NaN	0.000000	0.001668	0.001686	28.0806	34.9619	0.001822	19184.5	8.837027	174.607	70.6218	1.114974	0.034148	0.033797	70.9145	19184.5	0.031376	0.043644	1624.84	83900.1
137	2.000000	1.117311	7.36638e+06	-45489.1	955.819	-29772.8	0.000000	0.000000	7.120689	74.2549	NaN	0.000000	0.001654	0.001700	28.0809	36.7585	0.001784	20610.1	-0.109336	-178.283	71.742	1.117083	0.036134	0.035907	74.2549	20610.1	0.033432	0.048159	1541.88	85805.6
137	2.000000	1.119317	7.36638e+06	-45489.1	955.817	-29772.8	0.000000	0.000000	7.123131	84.8482	NaN	0.000000	0.001693	0.001701	28.0807	37.809	0.001779	21257.3	5.720318	176.582	82.7345	1.119046	0.038141	0.037870	84.8482	21257.3	0.035147	0.052089	1628.9	85095.6
137	2.000000	1.121256	7.36638e+06	-45489.1	955.818	-29772.8	0.000000	0.000000	7.125387	92.5646	NaN	0.000000	0.001641	0.001671	28.082	40.366	0.001897	21280.8	2.839942	179.384	89.4633	1.121096	0.040080	0.039919	92.5646	21280.8	0.036818	0.056063	1651.09	82115.3
137	2.000000	1.123390	7.36638e+06	-45489.1	955.818	-29772.8	0.000000	0.000000	7.127725	97.5398	NaN	0.000000	0.001648	0.001695	28.0809	42.5284	0.001904	22341.3	4.918167	177.928	99.2625	1.123004	0.042213	0.041828	97.5398	22341.3	0.038939	0.061315	1590.8	82432.3
137	2.000000	1.125296	7.36638e+06	-45489.1	955.818	-29772.8	0.000000	0.000000	7.129937	104.963	NaN	0.000000	0.001666	0.001683	28.0809	43.8821	0.001830	23976.1	3.818816	176.749	103.233	1.125018	0.044120	0.043841	104.963	23976.1	0.040837	0.066208	1585.34	85132.3
137	2.000000	1.127297	7.36638e+06	-45489.1	955.819	-29772.8	0.000000	0.000000	7.132384	115.819	NaN	0.000000	0.001684	0.001722	28.0826	45.5792	0.001788	25488.7	4.187421	176.259	115.235	1.127004	0.046121	0.045827	115.819	25488.7	0.042713	0.071227	1626.05	87256.6
137	2.000000	1.129285	7.36638e+06	-45489.1	955.818	-29772.8	0.000000	0.000000	7.134763	125.328	NaN	0.000000	0.001696	0.001701	28.082	46.032	0.001752	26268.9	2.935786	177.774	125.14	1.129019	0.048109	0.047842	125.328	26268.9	0.044531	0.076261	1643.41	86909
137	2.000000	1.131315	7.36638e+06	-45489.1	955.82	-29772.8	0.000000	0.000000	7.137089	132.527	NaN	0.000000	0.001690	0.001710	28.0821	49.2168	0.001743	28238.5	6.071364	174.347	134.01	1.131024	0.050139	0.049847	132.527	28238.5	0.046619	0.082249	1611.28	89960
137	2.000000	1.133346	7.36638e+06	-45489.1	955.819	-29772.8	0.000000	0.000000	7.139417	139.77	NaN	0.000000	0.001675	0.001712	28.0823	50.9787	0.001757	29020.4	2.876593	176.239	136.556	1.133020	0.052170	0.051844	139.77	29020.4	0.048557	0.088006	1588.18	89375.7
137	2.000000	1.135277	7.36638e+06	-45489.1	955.818	-29772.8	0.000000	0.000000	7.141866	152.363	NaN	0.000000	0.001677	0.001721	28.0823	52.5914	0.001815	28968.5	2.578387	176.792	149.538	1.134942	0.054100	0.053766	152.363	28968.5	0.050155	0.092894	1640.18	86837.1
137	2.000000	1.137316	7.36638e+06	-45489.1	955.818	-29772.8	0.000000	0.000000	7.144207	159.696	NaN	0.000000	0.001672	0.001737	28.0819	54.7795	0.001808	30302.2	-0.184485	179.541	159.775	1.136990	0.056140	0.055814	159.696	30302.2	0.052187	0.099294	1608.32	87859.1
137	2.000000	1.139341	7.36638e+06	-45489.1	955.819	-29772.8	0.000000	0.000000	7.146779	173.03	NaN	0.000000	0.001678	0.001749	28.0819	56.2555	0.001874	30018.7	5.160869	174.412	173.244	1.139044	0.058164	0.057867	173.03	30018.7	0.053841	0.104655	1653.35	84778.4
137	2.000000	1.141276	7.36638e+06	-45489.1	955.819	-29772.8	0.000000	0.000000	7.149180	184.352	NaN	0.000000	0.001651	0.001741	28.0808	58.7396	0.001853	31703.1	4.727590	174.742	182.674	1.140902	0.060099	0.059726	184.352	31703.1	0.055738	0.110971	1661.27	86950.2
137	2.000000	1.143328	7.36638e+06	-45489.1	955.818	-29772.8	0.000000	0.000000	7.151604	193.381	NaN	0.000000	0.001649	0.001728	28.0823	61.3983	0.001817	33789.9	7.977667	170.782	193.936	1.142932	0.062152	0.061756	193.381	33789.9	0.057860	0.118246	1635.41	89777.5
137	2.000000	1.145277	7.36638e+06	-45489.1	955.819	-29772.8	0.000000	0.000000	7.153831	200.149	NaN	0.000000	0.001568	0.001720	28.0832	62.4339	0.001776	35152	4.337684	173.23	198.724	1.145037	0.064101	0.063861	200.149	35152	0.059830	0.125201	1598.62	90765.3
137	2.000000	1.147256	7.36638e+06	-45489.1	955.818	-29772.8	0.000000	0.000000	7.156421	215.019	NaN	0.000000	0.001591	0.001745	28.0824	66.1577	0.001932	34242.7	7.005233	171.313	211.353	1.146914	0.066080	0.065738	215.019	34242.7	0.061370	0.130768	1644.28	86514.9
137	2.000000	1.149288	7.36638e+06	-45489.1	955.818	-29772.8	0.000000	0.000000	7.159005	228.456	NaN	0.000000	0.001588	0.001668	28.0826	65.8961	0.001731	38072	5.082764	172.163	228.719	1.148947	0.068112	0.067771	228.456	38072	0.063611	0.139075	1642.69	93272.7
137	2.000000	1.151181	7.36638e+06	-45489.1	955.818	-29772.8	0.000000	0.000000	7.161203	235.895	NaN	0.000000	0.001608	0.001694	28.0828	67.4525	0.001668	40433.3	5.365202	171.252	230.483	1.150979	0.070004	0.069802	235.895	40433.3	0.065629	0.146762	1607.34	96428.6
137	2.000000	1.153375	7.36638e+06	-45489.1	955.818	-29772.8	0.000000	0.000000	7.164023	251.118	NaN	0.000000	0.001593	0.001682	28.0824	70.7555	0.001850	38238.5	5.858045	172.906	253.945	1.152895	0.072198	0.071718	251.118	38238.5	0.067273	0.153172	1639.45	89265.6
137	2.000000	1.155276	7.36638e+06	-45489.1	955.818	-29772.8	0.000000	0.000000	7.166327	260.918	NaN	0.000000	0.001634	0.001680	28.0815	71.9875	0.001820	39543.2	3.308158	173.708	258.406	1.154983	0.074099	0.073807	260.918	39543.2	0.069151	0.160650	1624.14	90137.3
137	2.000000	1.157211	7.36638e+06	-45489.1	955.818	-29772.8	0.000000	0.000000	7.168711	271.813	NaN	0.000000	0.001587	0.001723	28.0813	74.4469	0.001790	41590.8	5.027692	171.447	266.377	1.156939	0.076035	0.075763	271.813	41590.8	0.071133	0.168729	1610.94	92507.1
137	2.000000	1.159274	7.36638e+06	-45489.1	955.818	-29772.8	0.000000	0.000000	7.171649	293.114	NaN	0.000000	0.001605	0.001682	28.082	75.1011	0.001865	40271.1	3.923286	173.696	293.083	1.158893	0.078097	0.077717	293.114	40271.1	0.072638	0.174986	1675.07	87956
137	2.000000	1.161280	7.36638e+06	-45489.1	955.818	-29772.8	0.000000	0.000000	7.174246	307.475	NaN	0.000000	0.001596	0.001699	28.0792	78.158	0.001772	44117.2	8.786701	168.487	306.21	1.160856	0.080104	0.079680	307.475	44117.2	0.074877	0.184490	1666.62	93841.4
137	2.000000	1.163357	7.36638e+06	-45489.1	955.818	-29772.8	0.000000	0.000000	7.176645	315.34	NaN	0.000000	0.001585	0.001644	28.0815	80.6449	0.001703	47360.7	7.912282	168.792	318.174	1.162904	0.082180	0.081728	315.34	47360.7	0.077187	0.194545	1620.91	98102.9
137	2.000000	1.165307	7.36638e+06	-45489.1	955.818	-29772.8	0.000000	0.000000	7.179271	331.762	NaN	0.000000	0.001623	0.001687	28.0815	81.8175	0.001780	45953.5	4.393606	171.893	334.3	1.164981	0.084131	0.083805	331.762	45953.5	0.078716	0.201341	1647.76	93567.6
137	2.000000	1.167155	7.36638e+06	-45489.1	955.819	-29772.8	0.000000	0.000000	7.181762	347.395	NaN	0.000000	0.001588	0.001685	28.0815	84.0683	0.001794	46871.7	2.547726	173.397	341.789	1.166920	0.085979	0.085744	347.395	46871.7	0.080420	0.209040	1661.86	93663.3
137	2.000000	1.169177	7.36638e+06	-45489.1	955.819	-29772.8	0.000000	0.000000	7.184271	359.254	NaN	0.000000	0.001574	0.001678	28.0805	83.977	0.001874	44803.5	-0.324133	176.796	354.575	1.168943	0.088001	0.087766	359.254	44803.5	0.081987	0.216239	1661.37	88027.3
137	2.000000	1.171242	7.36638e+06	-45489.1	955.819	-29772.8	0.000000	0.000000	7.186933	373.782	NaN	0.000000	0.001634	0.001709	28.0811	86.933	0.001784	48733.4	3.436880	173.017	371.394	1.170801	0.090066	0.089625	373.782	48733.4	0.084314	0.227138	1645.62	93423.3
137	2.000000	1.173180	7.36638e+06	-45489.1	955.818	-29772.8	0.000000	0.000000	7.189439	387.595	NaN	0.000000	0.001620	0.001685	28.0805	88.0274	0.001762	49953.8	0.576060	175.32	381.695	1.172929	0.092004	0.091752	387.595	49953.8	0.086185	0.236086	1641.75	93930.5
137	2.000000	1.175159	7.36638e+06	-45489.1	955.819	-29772.8	0.000000	0.000000	7.191765	396.048	NaN	0.000000	0.001631	0.001694	28.0784	89.4583	0.001655	54068.7	1.641734	173.994	390.088	1.174772	0.093982	0.093596	396.048	54068.7	0.088489	0.247324	1601.33	99331.2
137	2.000000	1.177224	7.36638e+06	-45489.1	955.819	-29772.8	0.000000	0.000000	7.194225	405.638	NaN	0.000000	0.001640	0.001689	28.0803	95.0785	0.001923	49432.4	7.157504	168.255	404.444	1.177012	0.096048	0.095836	405.638	49432.4	0.089893	0.254296	1595.14	89560.2
137	2.000000	1.179135	7.36638e+06	-45489.1	955.819	-29772.8	0.000000	0.000000	7.197031	427.423	NaN	0.000000	0.001632	0.001694	28.0798	94.7437	0.001829	51807.6	3.924885	171.261	421.908	1.178925	0.097958	0.097749	427.423	51807.6	0.091771	0.263756	1620.52	92164.9
137	2.000000	1.181331	7.36638e+06	-45489.1	955.819	-29772.8	0.000000	0.000000	7.199993	446.061	NaN	0.000000	0.001641	0.001720	28.0797	96.2086	0.001814	53043.9	3.815348	171.886	450.008	1.180878	0.100154	0.099701	446.061	53043.9	0.093847	0.274406	1625.55	92514.9
137	2.000000	1.183273	7.36638e+06	-45489.1	955.818	-29772.8	0.000000	0.000000	7.202709	464.887	NaN	0.000000	0.001627	0.001697	28.0802	97.9831	0.001855	52830.5	2.108614	173.572	463.544	1.182930	0.102096	0.101753	464.887	52830.5	0.095497	0.283007	1642.67	90731.8
137	2.000000	1.185242	7.36638e+06	-45489.1	955.819	-29772.8	0.000000	0.000000	7.205218	478.01	NaN	0.000000	0.001623	0.001681	28.0807	99.6218	0.001790	55668.3	5.430831	169.778	476.397	1.184940	0.104066	0.103764	478.01	55668.3	0.097626	0.294293	1624.27	93754.4
137	2.000000	1.187303	7.36638e+06	-45489.1	955.819	-29772.8	0.000000	0.000000	7.207546	484.524	NaN	0.000000	0.001616	0.001675	28.082	102.735	0.001777	57803.9	6.014339	168.864	489.163	1.186919	0.106127	0.105743	484.524	57803.9	0.099840	0.306247	1582.14	95432.1