File: remote_trans/data/nanoindenter/0828-1/data/Data_2025-08-06,11h17m57s/2025-07-22_16-23-58_1_1187.txt
2025-07-22, 16:23:58, 1
Index	Phase	Displacement	Time	Pos X	Pos Y	Pos Z	Rot A	Rot B	Piezo Z	Force A	Force B	Gripper	Voltage A	Voltage B	Temperature	Amplitude force	Amplitude pos	Stiffness	Phase shift	Phase excitation	Force A raw	Displacement raw	HMax	HMax raw	Real Force	Real Stiffness	Contact Depth	Area	Hardness	Reduced Mod.
[#]	[#]	[um]	[s]	[um]	[um]	[um]	[m°]	[m°]	[um]	[uN]	[uN]	[V]	[V]	[V]	[°C]	[uN]	[um]	[N/m]	[°]	[°]	[uN]	[um]	[um]	[um]	[uN]	[N/m]	[um]	[um^2]	[MPa]	[MPa]
1187	1.000000	0.002354	7.37665e+06	-56239.1	1105.82	-29739.3	0.000000	0.000000	6.002791	0.001328	NaN	0.000000	0.001569	0.001637	28.0815	0.086036	0.000948	90.7189	118.864	-158.311	-0.033562	0.001110	-1.121053	-1.122297	0.001328	90.7189	-1.121064	-9.610571E+14	-1.381751E-18	NaN
1187	1.000000	0.012402	7.37665e+06	-56239.1	1105.82	-29739.3	0.000000	0.000000	6.012836	-0.073430	NaN	0.000000	0.001578	0.001651	28.0814	0.091311	0.001144	79.8397	155.459	12.6941	-0.117747	0.010969	-1.111005	-1.112438	-0.073430	79.8397	-1.110315	-6.894748E+14	1.065007E-16	NaN
1187	1.000000	0.022353	7.37665e+06	-56239.1	1105.82	-29739.3	0.000000	0.000000	6.022787	-0.077418	NaN	0.000000	0.001592	0.001664	28.0818	0.160306	0.001686	95.0556	165.378	-166.657	-0.118862	0.021017	-1.101054	-1.102389	-0.077418	95.0556	-1.100443	-5.081840E+14	1.523434E-16	NaN
1187	1.000000	0.032314	7.37665e+06	-56239.1	1105.82	-29739.3	0.000000	0.000000	6.032750	-0.022954	NaN	0.000000	0.001597	0.001625	28.0814	0.041899	0.001956	21.4222	-102.384	11.6242	-0.083073	0.030973	-1.091093	-1.092434	-0.022954	21.4222	-1.090289	-3.712748E+14	6.182557E-17	NaN
1187	1.000000	0.042311	7.37665e+06	-56239.1	1105.82	-29739.3	0.000000	0.000000	6.042745	-0.086417	NaN	0.000000	0.001587	0.001650	28.0818	0.062683	0.002111	29.7007	-119.519	-164.051	-0.070441	0.040985	-1.081095	-1.082422	-0.086417	29.7007	-1.078913	-2.611700E+14	3.308843E-16	NaN
1187	1.000000	0.052310	7.37665e+06	-56239.1	1105.82	-29739.3	0.000000	0.000000	6.052745	-0.061559	NaN	0.000000	0.001577	0.001639	28.0817	0.008750	0.001927	4.540163	83.2539	14.1574	-0.034334	0.050969	-1.071097	-1.072437	-0.061559	4.540163	-1.060927	-1.497219E+14	4.111548E-16	NaN
1187	1.000000	0.062305	7.37665e+06	-56239.1	1105.82	-29739.3	0.000000	0.000000	6.062739	-0.079715	NaN	0.000000	0.001567	0.001644	28.0817	0.126376	0.001859	67.9983	-68.3866	-161.771	0.000994	0.061016	-1.061101	-1.062391	-0.079715	67.9983	-1.060222	-1.464899E+14	5.441705E-16	NaN
1187	1.000000	0.072308	7.37665e+06	-56239.1	1105.82	-29739.3	0.000000	0.000000	6.072742	-0.083364	NaN	0.000000	0.001572	0.001620	28.0816	0.079886	0.002037	39.2184	-13.0971	15.5622	-0.095510	0.070985	-1.051098	-1.052422	-0.083364	39.2184	-1.049504	-1.051353E+14	7.929172E-16	NaN
1187	1.000000	0.082325	7.37666e+06	-56239.1	1105.82	-29739.3	0.000000	0.000000	6.082762	0.012090	NaN	0.000000	0.001593	0.001625	28.0814	0.045405	0.002006	22.6365	110.626	-164.834	-0.060548	0.080962	-1.041082	-1.042445	0.012090	22.6365	-1.041483	-8.201738E+13	-1.474088E-16	NaN
1187	1.000000	0.092328	7.37666e+06	-56239.1	1105.82	-29739.3	0.000000	0.000000	6.092764	-0.036725	NaN	0.000000	0.001598	0.001624	28.0829	0.095595	0.001935	49.3922	49.9315	17.0185	0.017676	0.090961	-1.031079	-1.032446	-0.036725	49.3922	-1.030521	-5.841036E+13	6.287431E-16	NaN
1187	1.000000	0.102291	7.37666e+06	-56239.1	1105.82	-29739.3	0.000000	0.000000	6.102723	-0.109385	NaN	0.000000	0.001574	0.001623	28.0828	0.030144	0.002021	14.9167	12.0477	-170.318	-0.124462	0.101048	-1.021116	-1.022359	-0.109385	14.9167	-1.015616	-3.681019E+13	2.971606E-15	NaN
1187	1.000000	0.112320	7.37666e+06	-56239.1	1105.82	-29739.3	0.000000	0.000000	6.112756	-0.035096	NaN	0.000000	0.001561	0.001630	28.0827	0.078832	0.002011	39.2007	105.525	17.3471	0.023830	0.110963	-1.011087	-1.012444	-0.035096	39.2007	-1.010415	-3.133071E+13	1.120194E-15	NaN
1187	1.000000	0.122361	7.37666e+06	-56239.1	1105.82	-29739.3	0.000000	0.000000	6.122798	-0.026337	NaN	0.000000	0.001550	0.001649	28.0825	0.045662	0.002008	22.7358	158.114	-165.546	-0.049327	0.121032	-1.001045	-1.002375	-0.026337	22.7358	-1.000177	-2.281110E+13	1.154569E-15	NaN
1187	1.000000	0.132337	7.37666e+06	-56239.1	1105.82	-29739.3	0.000000	0.000000	6.132772	-0.059432	NaN	0.000000	0.001586	0.001660	28.083	0.073911	0.001987	37.1896	-110.577	12.5743	-0.017617	0.130966	-0.991070	-0.992441	-0.059432	37.1896	-0.989871	-1.657212E+13	3.586284E-15	NaN
1187	1.000000	0.142368	7.37666e+06	-56239.1	1105.82	-29739.3	0.000000	0.000000	6.142801	-0.092893	NaN	0.000000	0.001597	0.001641	28.0824	0.166214	0.002072	80.2358	-105.936	-163.796	-0.056687	0.141024	-0.981039	-0.982383	-0.092893	80.2358	-0.980171	-1.226627E+13	7.573043E-15	NaN
1187	1.000000	0.152356	7.37666e+06	-56239.1	1105.82	-29739.3	0.000000	0.000000	6.152790	-0.096756	NaN	0.000000	0.001563	0.001595	28.0824	0.060657	0.001996	30.3945	99.3468	14.3973	-0.132936	0.150969	-0.971050	-0.972438	-0.096756	30.3945	-0.968663	-8.583079E+12	1.127285E-14	NaN
1187	1.000000	0.162361	7.37666e+06	-56239.1	1105.82	-29739.3	0.000000	0.000000	6.162794	-0.101996	NaN	0.000000	0.001572	0.001627	28.0821	0.026690	0.002018	13.228	-133.582	-166.19	-0.067980	0.161061	-0.961046	-0.962345	-0.101996	13.228	-0.955263	-5.662332E+12	1.801299E-14	NaN
1187	1.000000	0.172329	7.37666e+06	-56239.1	1105.82	-29739.3	0.000000	0.000000	6.172764	-0.045611	NaN	0.000000	0.001583	0.001651	28.0824	0.034408	0.002089	16.4688	-4.094958	12.3816	-0.105170	0.170993	-0.951078	-0.952414	-0.045611	16.4688	-0.949001	-4.661804E+12	9.784017E-15	NaN
1187	1.000000	0.182352	7.37666e+06	-56239.1	1105.82	-29739.3	0.000000	0.000000	6.182788	-0.050155	NaN	0.000000	0.001567	0.001696	28.0824	0.036337	0.001905	19.0796	-0.104878	-164.75	-0.101769	0.181047	-0.941054	-0.942360	-0.050155	19.0796	-0.939083	-3.425818E+12	1.464032E-14	NaN
1187	1.000000	0.192342	7.37666e+06	-56239.1	1105.82	-29739.3	0.000000	0.000000	6.192776	-0.094523	NaN	0.000000	0.001581	0.001669	28.0824	0.093633	0.001948	48.0652	46.6883	16.7003	-0.074160	0.191069	-0.931065	-0.932337	-0.094523	48.0652	-0.929590	-2.550709E+12	3.705741E-14	NaN
1187	1.000000	0.202367	7.37666e+06	-56239.1	1105.82	-29739.3	0.000000	0.000000	6.202801	-0.072454	NaN	0.000000	0.001594	0.001649	28.0823	0.060092	0.002040	29.4553	-167.653	-162.407	-0.137307	0.201033	-0.921040	-0.922374	-0.072454	29.4553	-0.919195	-1.846443E+12	3.923993E-14	NaN
1187	1.000000	0.212383	7.37666e+06	-56239.1	1105.82	-29739.3	0.000000	0.000000	6.212820	0.007321	NaN	0.000000	0.001614	0.001670	28.0824	0.047226	0.001967	24.0044	-92.46	15.7784	-0.022378	0.211006	-0.911024	-0.912400	0.007321	24.0044	-0.911253	-1.442403E+12	-5.075460E-15	NaN
1187	1.000000	0.222389	7.37666e+06	-56239.1	1105.82	-29739.3	0.000000	0.000000	6.222824	-0.049350	NaN	0.000000	0.001551	0.001650	28.0812	0.023939	0.002045	11.7067	175.512	-169.415	-0.005317	0.221082	-0.901018	-0.902325	-0.049350	11.7067	-0.897856	-9.508176E+11	5.190322E-14	NaN
1187	1.000000	0.232408	7.37666e+06	-56239.1	1105.82	-29739.3	0.000000	0.000000	6.232843	-0.053496	NaN	0.000000	0.001602	0.001693	28.0812	0.031257	0.001974	15.8336	-64.5457	15.2891	-0.036610	0.231000	-0.890999	-0.892407	-0.053496	15.8336	-0.888465	-7.098508E+11	7.536201E-14	NaN
1187	1.000000	0.242401	7.37666e+06	-56239.1	1105.82	-29739.3	0.000000	0.000000	6.242836	-0.048495	NaN	0.000000	0.001582	0.001658	28.0813	0.057781	0.001950	29.638	-19.1432	-168.473	-0.015885	0.241103	-0.881006	-0.882304	-0.048495	29.638	-0.879779	-5.416470E+11	8.953213E-14	NaN
1187	1.000000	0.252383	7.37666e+06	-56239.1	1105.82	-29739.3	0.000000	0.000000	6.252815	-0.119304	NaN	0.000000	0.001583	0.001642	28.0811	0.088969	0.002162	41.1594	60.7196	16.9959	-0.128961	0.251042	-0.871024	-0.872365	-0.119304	41.1594	-0.868850	-3.853789E+11	3.095755E-13	NaN
1187	1.000000	0.262388	7.37666e+06	-56239.1	1105.82	-29739.3	0.000000	0.000000	6.262825	-0.011396	NaN	0.000000	0.001594	0.001632	28.081	0.064664	0.002054	31.4852	-170.07	-166.365	-0.093604	0.261082	-0.861019	-0.862325	-0.011396	31.4852	-0.860748	-2.993921E+11	3.806404E-14	NaN
1187	1.000000	0.272366	7.37666e+06	-56239.1	1105.82	-29739.3	0.000000	0.000000	6.272799	-0.105092	NaN	0.000000	0.001584	0.001634	28.0811	0.087996	0.001954	45.0262	-9.165914	18.8208	-0.091147	0.271016	-0.851041	-0.852391	-0.105092	45.0262	-0.849291	-2.094745E+11	5.016915E-13	NaN
1187	1.000000	0.282427	7.37666e+06	-56239.1	1105.82	-29739.3	0.000000	0.000000	6.282860	-0.112830	NaN	0.000000	0.001590	0.001674	28.0813	0.078068	0.001962	39.7972	152.539	-164.617	-0.030520	0.281101	-0.840980	-0.842306	-0.112830	39.7972	-0.838853	-1.512724E+11	7.458703E-13	NaN
1187	1.000000	0.292419	7.37666e+06	-56239.1	1105.82	-29739.3	0.000000	0.000000	6.292850	-0.163867	NaN	0.000000	0.001605	0.001622	28.0812	0.054915	0.001898	28.9389	39.5164	16.5077	-0.126663	0.291074	-0.830987	-0.832333	-0.163867	28.9389	-0.826741	-1.036578E+11	1.580845E-12	NaN
1187	1.000000	0.302407	7.37666e+06	-56239.1	1105.82	-29739.3	0.000000	0.000000	6.302841	-0.072537	NaN	0.000000	0.001596	0.001620	28.0811	0.109716	0.002019	54.3321	-151.168	-167.726	-0.082916	0.301094	-0.821000	-0.822313	-0.072537	54.3321	-0.819999	-8.398314E+10	8.637061E-13	NaN
1187	1.000000	0.312436	7.37666e+06	-56239.1	1105.82	-29739.3	0.000000	0.000000	6.312868	-0.116001	NaN	0.000000	0.001606	0.001622	28.0815	0.050259	0.002128	23.6198	32.9231	14.2758	-0.144165	0.311081	-0.810971	-0.812326	-0.116001	23.6198	-0.807288	-5.646408E+10	2.054417E-12	NaN
1187	1.000000	0.322423	7.37666e+06	-56239.1	1105.82	-29739.3	0.000000	0.000000	6.322857	-0.084206	NaN	0.000000	0.001602	0.001660	28.0814	0.085444	0.001958	43.6454	14.7396	-162.976	-0.067216	0.321094	-0.800984	-0.802313	-0.084206	43.6454	-0.799537	-4.431719E+10	1.900073E-12	NaN
1187	1.000000	0.332434	7.37666e+06	-56239.1	1105.82	-29739.3	0.000000	0.000000	6.332868	-0.070296	NaN	0.000000	0.001627	0.001657	28.0814	0.029390	0.002004	14.6678	130.73	12.7591	-0.010877	0.331079	-0.790973	-0.792328	-0.070296	14.6678	-0.787379	-3.030260E+10	2.319815E-12	NaN
1187	1.000000	0.342437	7.37666e+06	-56239.1	1105.82	-29739.3	0.000000	0.000000	6.342876	0.035847	NaN	0.000000	0.001609	0.001655	28.0812	0.048103	0.002029	23.7086	83.7327	-165.645	-0.040818	0.341108	-0.780969	-0.782299	0.035847	23.7086	-0.782103	-2.569291E+10	-1.395214E-12	NaN
1187	1.000000	0.352438	7.37666e+06	-56239.1	1105.82	-29739.3	0.000000	0.000000	6.352874	-0.034084	NaN	0.000000	0.001593	0.001630	28.0812	0.055532	0.002051	27.0729	53.2668	16.3104	-0.089105	0.351096	-0.770969	-0.772311	-0.034084	27.0729	-0.770025	-1.760524E+10	1.936010E-12	NaN
1187	1.000000	0.362433	7.37666e+06	-56239.1	1105.82	-29739.3	0.000000	0.000000	6.362867	-0.071869	NaN	0.000000	0.001598	0.001677	28.0824	0.085651	0.002016	42.488	144.797	-167.619	-0.103757	0.361144	-0.760974	-0.762263	-0.071869	42.488	-0.759705	-1.274363E+10	5.639611E-12	NaN
1187	1.000000	0.372445	7.37666e+06	-56239.1	1105.82	-29739.3	0.000000	0.000000	6.372882	-0.022415	NaN	0.000000	0.001626	0.001664	28.0823	0.106089	0.001999	53.0776	165.368	14.7007	-0.035510	0.371117	-0.750961	-0.752290	-0.022415	53.0776	-0.750645	-9.593898E+9	2.336410E-12	NaN
1187	1.000000	0.382444	7.37666e+06	-56239.1	1105.82	-29739.3	0.000000	0.000000	6.382878	-0.094610	NaN	0.000000	0.001571	0.001635	28.0822	0.086621	0.002050	42.2484	-142.668	-161.627	-0.092094	0.381132	-0.740963	-0.742275	-0.094610	42.2484	-0.739283	-6.718829E+9	1.408133E-11	NaN
1187	1.000000	0.392435	7.37666e+06	-56239.1	1105.82	-29739.3	0.000000	0.000000	6.392868	-0.101120	NaN	0.000000	0.001576	0.001629	28.0827	0.086114	0.002033	42.3555	163.925	13.1292	-0.125517	0.391082	-0.730972	-0.732325	-0.101120	42.3555	-0.729182	-4.893912E+9	2.066243E-11	NaN
1187	1.000000	0.402445	7.37666e+06	-56239.1	1105.82	-29739.3	0.000000	0.000000	6.402878	-0.097197	NaN	0.000000	0.001587	0.001622	28.0823	0.062942	0.002126	29.6116	59.1193	-164.096	-0.118947	0.401123	-0.720962	-0.722284	-0.097197	29.6116	-0.718500	-3.499600E+9	2.777362E-11	NaN
1187	1.000000	0.412466	7.37666e+06	-56239.1	1105.82	-29739.3	0.000000	0.000000	6.412902	-0.018957	NaN	0.000000	0.001551	0.001621	28.0821	0.037411	0.002153	17.3752	-168.119	14.0717	-0.044270	0.411088	-0.710941	-0.712319	-0.018957	17.3752	-0.710123	-2.689837E+9	7.047676E-12	NaN
1187	1.000000	0.422481	7.37666e+06	-56239.1	1105.82	-29739.3	0.000000	0.000000	6.422917	-0.037456	NaN	0.000000	0.001570	0.001602	28.0824	0.064118	0.001975	32.4664	131.232	-163.029	-0.049471	0.421234	-0.700925	-0.702173	-0.037456	32.4664	-0.700060	-1.960437E+9	1.910618E-11	NaN
1187	1.000000	0.432469	7.37666e+06	-56239.1	1105.82	-29739.3	0.000000	0.000000	6.432901	-0.125371	NaN	0.000000	0.001592	0.001612	28.0821	0.106100	0.001893	56.0378	-140.071	12.9322	-0.150067	0.431104	-0.690938	-0.692303	-0.125371	56.0378	-0.689260	-1.395748E+9	8.982318E-11	NaN
1187	1.000000	0.442486	7.37666e+06	-56239.1	1105.82	-29739.3	0.000000	0.000000	6.442921	-0.057803	NaN	0.000000	0.001579	0.001645	28.0824	0.034908	0.001926	18.1285	20.7131	-167.444	-0.083355	0.441135	-0.680921	-0.682271	-0.057803	18.1285	-0.678529	-9.956181E+8	5.805763E-11	NaN
1187	1.000000	0.452494	7.37666e+06	-56239.1	1105.82	-29739.3	0.000000	0.000000	6.452929	-0.066152	NaN	0.000000	0.001607	0.001649	28.0821	0.033833	0.001894	17.8615	165.774	12.8659	0.021858	0.451121	-0.670913	-0.672286	-0.066152	17.8615	-0.668135	-7.175735E+8	9.218802E-11	NaN
1187	1.000000	0.462504	7.37666e+06	-56239.1	1105.82	-29739.3	0.000000	0.000000	6.462939	-0.046624	NaN	0.000000	0.001672	0.001630	28.0823	0.055516	0.002003	27.7146	-74.3668	-162.405	-0.125963	0.461217	-0.660903	-0.662190	-0.046624	27.7146	-0.659641	-5.489812E+8	8.492870E-11	NaN
1187	1.000000	0.472523	7.37666e+06	-56239.1	1105.82	-29739.3	0.000000	0.000000	6.472959	-0.039559	NaN	0.000000	0.001671	0.001595	28.0821	0.064629	0.002087	30.9679	146.426	15.0413	-0.026543	0.471164	-0.650884	-0.652243	-0.039559	30.9679	-0.649926	-4.040381E+8	9.790958E-11	NaN
1187	1.000000	0.482471	7.37666e+06	-56239.1	1105.82	-29739.3	0.000000	0.000000	6.482905	-0.090207	NaN	0.000000	0.001670	0.001628	28.0821	0.118615	0.001892	62.6793	28.5213	-163.411	0.010425	0.481201	-0.640935	-0.642206	-0.090207	62.6793	-0.639856	-2.939774E+8	3.068490E-10	NaN
1187	1.000000	0.492497	7.37666e+06	-56239.1	1105.82	-29739.3	0.000000	0.000000	6.492933	-0.017182	NaN	0.000000	0.001689	0.001613	28.0821	0.084986	0.002014	42.2036	160.552	14.8435	-0.017101	0.491164	-0.630910	-0.632243	-0.017182	42.2036	-0.630605	-2.194476E+8	7.829875E-11	NaN
1187	1.000000	0.502498	7.37666e+06	-56239.1	1105.82	-29739.3	0.000000	0.000000	6.502931	-0.086952	NaN	0.000000	0.001646	0.001659	28.0811	0.110583	0.002052	53.9013	30.0887	-166.7	-0.103974	0.501176	-0.620909	-0.622230	-0.086952	53.9013	-0.619699	-1.554182E+8	5.594730E-10	NaN
1187	1.000000	0.512527	7.37666e+06	-56239.1	1105.82	-29739.3	0.000000	0.000000	6.512962	-0.058600	NaN	0.000000	0.001640	0.001595	28.0809	0.118527	0.001990	59.5572	-107.296	14.1615	-0.074931	0.511187	-0.610880	-0.612220	-0.058600	59.5572	-0.610142	-1.148336E+8	5.103073E-10	NaN
1187	1.000000	0.522481	7.37666e+06	-56239.1	1105.82	-29739.3	0.000000	0.000000	6.522913	-0.123774	NaN	0.000000	0.001667	0.001623	28.0808	0.093592	0.002053	45.5774	-128.489	-165.205	-0.126618	0.521154	-0.600926	-0.602253	-0.123774	45.5774	-0.598889	-8.038311E+7	1.539804E-9	NaN
1187	1.000000	0.532533	7.37666e+06	-56239.1	1105.82	-29739.3	0.000000	0.000000	6.532965	-0.113841	NaN	0.000000	0.001662	0.001561	28.0811	0.088156	0.002007	43.9297	-83.3098	14.6698	-0.059909	0.531149	-0.590874	-0.592258	-0.113841	43.9297	-0.588931	-5.860321E+7	1.942570E-9	NaN
1187	1.000000	0.542533	7.37666e+06	-56239.1	1105.82	-29739.3	0.000000	0.000000	6.542968	-0.067727	NaN	0.000000	0.001693	0.001596	28.0813	0.058265	0.002038	28.587	145.552	-164.551	-0.049517	0.541174	-0.580874	-0.582233	-0.067727	28.587	-0.579097	-4.288066E+7	1.579422E-9	NaN
1187	1.000000	0.552511	7.37666e+06	-56239.1	1105.82	-29739.3	0.000000	0.000000	6.552942	-0.144330	NaN	0.000000	0.001693	0.001620	28.0812	0.127366	0.002044	62.3157	-162.875	11.2098	-0.171976	0.551203	-0.570896	-0.572204	-0.144330	62.3157	-0.569159	-3.126168E+7	4.616829E-9	NaN
1187	1.000000	0.562511	7.37666e+06	-56239.1	1105.82	-29739.3	0.000000	0.000000	6.562944	-0.096271	NaN	0.000000	0.001674	0.001638	28.081	0.061348	0.002019	30.3791	19.721	-160.606	0.007325	0.561219	-0.560896	-0.562188	-0.096271	30.3791	-0.558519	-2.227893E+7	4.321176E-9	NaN
1187	1.000000	0.572565	7.37666e+06	-56239.1	1105.82	-29739.3	0.000000	0.000000	6.573001	-0.028227	NaN	0.000000	0.001664	0.001673	28.0812	0.024661	0.002053	12.0141	-41.2414	15.1995	-0.049327	0.571162	-0.550842	-0.552245	-0.028227	12.0141	-0.549080	-1.648943E+7	1.711796E-9	NaN
1187	1.000000	0.582523	7.37666e+06	-56239.1	1105.82	-29739.3	0.000000	0.000000	6.582958	-0.064157	NaN	0.000000	0.001633	0.001655	28.0809	0.102990	0.001983	51.9369	-126.608	-167.024	-0.086977	0.581209	-0.540884	-0.542198	-0.064157	51.9369	-0.539958	-1.232451E+7	5.205650E-9	NaN
1187	1.000000	0.592544	7.37666e+06	-56239.1	1105.82	-29739.3	0.000000	0.000000	6.592980	-0.046288	NaN	0.000000	0.001697	0.001661	28.0811	0.045966	0.001924	23.8917	-66.7775	12.8926	-0.048709	0.591138	-0.530863	-0.532268	-0.046288	23.8917	-0.529410	-8.79782e+06	5.261260E-9	NaN
1187	1.000000	0.602523	7.37666e+06	-56239.1	1105.82	-29739.3	0.000000	0.000000	6.602957	-0.095335	NaN	0.000000	0.001654	0.001667	28.0812	0.077173	0.002101	36.7309	143.449	-165.921	-0.060155	0.601199	-0.520883	-0.522208	-0.095335	36.7309	-0.518937	-6.29232e+06	1.515107E-8	NaN
1187	1.000000	0.612563	7.37666e+06	-56239.1	1105.82	-29739.3	0.000000	0.000000	6.612995	-0.139193	NaN	0.000000	0.001681	0.001650	28.0815	0.028392	0.002022	14.0423	86.191	15.9967	-0.158558	0.611189	-0.510844	-0.512218	-0.139193	14.0423	-0.503410	-3.82447e+06	3.639542E-8	NaN
1187	1.000000	0.622586	7.37666e+06	-56239.1	1105.82	-29739.3	0.000000	0.000000	6.623021	-0.058880	NaN	0.000000	0.001680	0.001633	28.0811	0.116441	0.002076	56.0845	-92.5262	-163.759	-0.094673	0.621261	-0.500821	-0.502146	-0.058880	56.0845	-0.500034	-3.43154e+06	1.715851E-8	NaN
1187	1.000000	0.632563	7.37666e+06	-56239.1	1105.82	-29739.3	0.000000	0.000000	6.632998	-0.059535	NaN	0.000000	0.001666	0.001640	28.0824	0.061568	0.002053	29.9952	148.519	14.1379	-0.075228	0.631171	-0.490844	-0.492236	-0.059535	29.9952	-0.489355	-2.43434e+06	2.445621E-8	NaN
1187	1.000000	0.642562	7.37666e+06	-56239.1	1105.82	-29739.3	0.000000	0.000000	6.642998	-0.020626	NaN	0.000000	0.001678	0.001624	28.0825	0.030841	0.001947	15.8416	-64.6231	-164.016	-0.107306	0.641261	-0.480845	-0.482146	-0.020626	15.8416	-0.479869	-1.79346e+06	1.150090E-8	NaN
1187	1.000000	0.652568	7.37666e+06	-56239.1	1105.82	-29739.3	0.000000	0.000000	6.653000	-0.123256	NaN	0.000000	0.001645	0.001663	28.0825	0.067155	0.001977	33.968	169.563	14.0698	-0.091009	0.651213	-0.470839	-0.472194	-0.123256	33.968	-0.468117	-1.22743e+06	1.004181E-7	NaN
1187	1.000000	0.662585	7.37666e+06	-56239.1	1105.82	-29739.3	0.000000	0.000000	6.663018	-0.093171	NaN	0.000000	0.001665	0.001665	28.0823	0.032670	0.002064	15.8264	-84.8133	-166.255	-0.074867	0.661220	-0.460822	-0.462186	-0.093171	15.8264	-0.456407	-840441	1.108599E-7	NaN
1187	1.000000	0.672588	7.37666e+06	-56239.1	1105.82	-29739.3	0.000000	0.000000	6.673023	-0.043155	NaN	0.000000	0.001691	0.001667	28.0825	0.094681	0.002115	44.7726	121.505	13.068	-0.034321	0.671194	-0.450819	-0.452213	-0.043155	44.7726	-0.450096	-685013	6.299817E-8	NaN
1187	1.000000	0.682580	7.37666e+06	-56239.1	1105.82	-29739.3	0.000000	0.000000	6.683014	-0.075847	NaN	0.000000	0.001695	0.001659	28.0824	0.064731	0.001919	33.7339	-68.3067	-165.45	-0.047513	0.681274	-0.440827	-0.442133	-0.075847	33.7339	-0.439141	-479992	1.580170E-7	NaN
1187	1.000000	0.692588	7.37666e+06	-56239.1	1105.82	-29739.3	0.000000	0.000000	6.693024	-0.036989	NaN	0.000000	0.001700	0.001650	28.0825	0.081603	0.001970	41.4288	-172.627	15.981	0.015498	0.691201	-0.430819	-0.432206	-0.036989	41.4288	-0.430149	-358237	1.032530E-7	NaN
1187	1.000000	0.702575	7.37666e+06	-56239.1	1105.82	-29739.3	0.000000	0.000000	6.703011	-0.037802	NaN	0.000000	0.001694	0.001681	28.0821	0.073243	0.002015	36.3405	60.0604	-162.387	-0.039066	0.701280	-0.420832	-0.422127	-0.037802	36.3405	-0.420052	-257719	1.466783E-7	NaN
1187	1.000000	0.712590	7.37666e+06	-56239.1	1105.82	-29739.3	0.000000	0.000000	6.713021	-0.158985	NaN	0.000000	0.001678	0.001658	28.0823	0.050488	0.001966	25.6771	94.5197	14.5761	-0.033548	0.711226	-0.410817	-0.412181	-0.158985	25.6771	-0.406173	-163665	9.714051E-7	NaN
1187	1.000000	0.722582	7.37666e+06	-56239.1	1105.82	-29739.3	0.000000	0.000000	6.723015	-0.111922	NaN	0.000000	0.001659	0.001670	28.0823	0.057583	0.001912	30.1234	169.131	-163.022	-0.146962	0.721305	-0.400825	-0.402102	-0.111922	30.1234	-0.398038	-125317	8.931132E-7	NaN
1187	1.000000	0.732602	7.37666e+06	-56239.1	1105.82	-29739.3	0.000000	0.000000	6.733036	-0.075440	NaN	0.000000	0.001664	0.001626	28.0824	0.065704	0.002028	32.3982	136.688	13.786	-0.111273	0.731278	-0.390805	-0.392129	-0.075440	32.3982	-0.389058	-93259.7	8.089235E-7	NaN
1187	1.000000	0.742606	7.37666e+06	-56239.1	1105.82	-29739.3	0.000000	0.000000	6.743042	-0.046986	NaN	0.000000	0.001652	0.001620	28.0822	0.080258	0.002019	39.7464	-149.425	-168.597	-0.068811	0.741254	-0.380800	-0.382153	-0.046986	39.7464	-0.379914	-68968.6	6.812622E-7	NaN
1187	1.000000	0.752602	7.37666e+06	-56239.1	1105.82	-29739.3	0.000000	0.000000	6.753037	-0.070786	NaN	0.000000	0.001635	0.001638	28.0824	0.111245	0.002054	54.1516	-94.851	14.3994	-0.057555	0.751259	-0.370804	-0.372147	-0.070786	54.1516	-0.369824	-49384.7	1.433360E-6	NaN
1187	1.000000	0.762618	7.37666e+06	-56239.1	1105.82	-29739.3	0.000000	0.000000	6.763054	-0.029281	NaN	0.000000	0.001588	0.001625	28.0823	0.023331	0.002088	11.1756	-91.9942	-163.377	-0.001790	0.761313	-0.360789	-0.362094	-0.029281	11.1756	-0.358824	-34264.5	8.545716E-7	NaN
1187	1.000000	0.772632	7.37666e+06	-56239.1	1105.82	-29739.3	0.000000	0.000000	6.773067	-0.049569	NaN	0.000000	0.001593	0.001605	28.0811	0.091044	0.002041	44.6165	-68.3038	13.1859	-0.144939	0.771296	-0.350775	-0.352111	-0.049569	44.6165	-0.349942	-25477.6	1.945585E-6	NaN
1187	1.000000	0.782625	7.37666e+06	-56239.1	1105.82	-29739.3	0.000000	0.000000	6.783056	-0.168064	NaN	0.000000	0.001589	0.001603	28.081	0.051156	0.002077	24.6256	87.5697	-164.132	-0.133761	0.781330	-0.340781	-0.342076	-0.168064	24.6256	-0.335663	-15785.9	1.064649E-5	NaN
1187	1.000000	0.792608	7.37666e+06	-56239.1	1105.82	-29739.3	0.000000	0.000000	6.793040	-0.139518	NaN	0.000000	0.001621	0.001628	28.0814	0.121462	0.002073	58.6057	109.367	13.8944	-0.106662	0.791236	-0.330799	-0.332170	-0.139518	58.6057	-0.329013	-12618.2	1.105694E-5	NaN
1187	1.000000	0.802647	7.37666e+06	-56239.1	1105.82	-29739.3	0.000000	0.000000	6.803080	-0.110969	NaN	0.000000	0.001621	0.001585	28.0808	0.035573	0.001868	19.0427	-127.503	-168.162	-0.083394	0.801311	-0.320760	-0.322096	-0.110969	19.0427	-0.316389	-8230.8	1.348216E-5	NaN
1187	1.000000	0.812636	7.37666e+06	-56239.1	1105.82	-29739.3	0.000000	0.000000	6.813070	-0.078275	NaN	0.000000	0.001656	0.001612	28.0812	0.128369	0.001901	67.5412	152.598	11.2666	-0.016542	0.811259	-0.310771	-0.312148	-0.078275	67.5412	-0.309902	-6600.89	1.185818E-5	NaN
1187	1.000000	0.822626	7.37666e+06	-56239.1	1105.82	-29739.3	0.000000	0.000000	6.823058	-0.148314	NaN	0.000000	0.001647	0.001622	28.081	0.112699	0.001918	58.7583	-75.7349	-164.24	-0.073530	0.821321	-0.300781	-0.302086	-0.148314	58.7583	-0.298888	-4529.7	3.274259E-5	NaN
1187	1.000000	0.832656	7.37666e+06	-56239.1	1105.82	-29739.3	0.000000	0.000000	6.833089	-0.094093	NaN	0.000000	0.001632	0.001638	28.0814	0.039879	0.002020	19.7442	-139.001	14.6877	-0.035071	0.831258	-0.290751	-0.292149	-0.094093	19.7442	-0.287177	-3026.66	3.108816E-5	NaN
1187	1.000000	0.842636	7.37666e+06	-56239.1	1105.82	-29739.3	0.000000	0.000000	6.843069	-0.108403	NaN	0.000000	0.001680	0.001606	28.0809	0.029315	0.001935	15.1509	-19.8758	-165.419	-0.080766	0.841318	-0.280770	-0.282089	-0.108403	15.1509	-0.275404	-2011.5	5.389161E-5	NaN
1187	1.000000	0.852631	7.37666e+06	-56239.1	1105.82	-29739.3	0.000000	0.000000	6.853067	-0.011548	NaN	0.000000	0.001641	0.001652	28.0811	0.100722	0.002084	48.3344	-152.229	12.4086	-0.007160	0.851344	-0.270776	-0.272063	-0.011548	48.3344	-0.270597	-1700.66	6.790510E-6	NaN
1187	1.000000	0.862645	7.37666e+06	-56239.1	1105.82	-29739.3	0.000000	0.000000	6.863080	-0.072884	NaN	0.000000	0.001636	0.001624	28.0811	0.063151	0.001946	32.4505	176.686	-164.933	-0.041344	0.861367	-0.260762	-0.262040	-0.072884	32.4505	-0.259077	-1134.4	6.424883E-5	NaN
1187	1.000000	0.872661	7.37666e+06	-56239.1	1105.82	-29739.3	0.000000	0.000000	6.873095	-0.076990	NaN	0.000000	0.001645	0.001665	28.0811	0.072552	0.002045	35.4778	128.09	18.7976	-0.034969	0.871390	-0.250746	-0.252017	-0.076990	35.4778	-0.249119	-796.768	9.662812E-5	NaN
1187	1.000000	0.882641	7.37666e+06	-56239.1	1105.82	-29739.3	0.000000	0.000000	6.883075	-0.089579	NaN	0.000000	0.001654	0.001651	28.0809	0.021757	0.002050	10.6139	177.301	-166.412	-0.051444	0.881332	-0.240766	-0.242075	-0.089579	10.6139	-0.234436	-470.319	0.000190	NaN
1187	1.000000	0.892676	7.37666e+06	-56239.1	1105.82	-29739.3	0.000000	0.000000	6.893111	-0.040835	NaN	0.000000	0.001636	0.001648	28.081	0.029422	0.002031	14.4881	-159.235	13.6282	0.004139	0.891320	-0.230731	-0.232087	-0.040835	14.4881	-0.228617	-380.771	0.000107	NaN
1187	1.000000	0.902668	7.37666e+06	-56239.1	1105.82	-29739.3	0.000000	0.000000	6.903101	-0.094690	NaN	0.000000	0.001670	0.001643	28.0812	0.052397	0.002022	25.9153	-59.1321	-163.608	-0.025780	0.901348	-0.220739	-0.222059	-0.094690	25.9153	-0.217999	-258.02	0.000367	NaN
1187	1.000000	0.912666	7.37666e+06	-56239.1	1105.82	-29739.3	0.000000	0.000000	6.913101	-0.061505	NaN	0.000000	0.001684	0.001659	28.0825	0.061440	0.002060	29.8253	-159.426	17.2422	-0.079183	0.911269	-0.210741	-0.212137	-0.061505	29.8253	-0.209194	-186.106	0.000330	NaN
1187	1.000000	0.922664	7.37666e+06	-56239.1	1105.82	-29739.3	0.000000	0.000000	6.923100	-0.025251	NaN	0.000000	0.001618	0.001585	28.0823	0.044960	0.001905	23.6055	-52.9393	-169.959	-0.045748	0.921399	-0.200743	-0.202008	-0.025251	23.6055	-0.199941	-131.439	0.000192	NaN
1187	1.000000	0.932683	7.37666e+06	-56239.1	1105.82	-29739.3	0.000000	0.000000	6.933114	-0.148885	NaN	0.000000	0.001641	0.001635	28.0824	0.015952	0.001881	8.479084	-90.6423	15.1498	-0.065328	0.931309	-0.190724	-0.192098	-0.148885	8.479084	-0.177555	-55.4322	0.002686	NaN
1187	1.000000	0.942684	7.37666e+06	-56239.1	1105.82	-29739.3	0.000000	0.000000	6.943119	-0.050467	NaN	0.000000	0.001657	0.001631	28.0827	0.121155	0.001999	60.6205	-120.049	-163.46	-0.091669	0.941386	-0.180723	-0.182021	-0.050467	60.6205	-0.180098	-61.2551	0.000824	NaN
1187	1.000000	0.952665	7.37666e+06	-56239.1	1105.82	-29739.3	0.000000	0.000000	6.953101	-0.030604	NaN	0.000000	0.001636	0.001646	28.0825	0.042800	0.002003	21.3641	73.6004	13.2838	-0.007855	0.951354	-0.170742	-0.172053	-0.030604	21.3641	-0.169668	-40.5364	0.000755	NaN
1187	1.000000	0.962712	7.37666e+06	-56239.1	1105.82	-29739.3	0.000000	0.000000	6.963146	-0.090127	NaN	0.000000	0.001632	0.001632	28.0826	0.110064	0.002000	55.0273	-132.379	-162.223	-0.141489	0.961323	-0.160695	-0.162084	-0.090127	55.0273	-0.159466	-26.8224	0.003360	NaN
1187	1.000000	0.972696	7.37666e+06	-56239.1	1105.82	-29739.3	0.000000	0.000000	6.973127	-0.150665	NaN	0.000000	0.001607	0.001655	28.0825	0.048862	0.002042	23.9341	178.247	13.235	-0.082536	0.971294	-0.150711	-0.152113	-0.150665	23.9341	-0.145990	-15.2915	0.009853	NaN
1187	1.000000	0.982722	7.37666e+06	-56239.1	1105.82	-29739.3	0.000000	0.000000	6.983158	-0.023715	NaN	0.000000	0.001662	0.001655	28.0828	0.044143	0.002009	21.975	-86.4495	-164.168	-0.070626	0.981424	-0.140685	-0.141983	-0.023715	21.975	-0.139876	-11.7661	0.002016	NaN
1187	1.000000	0.992711	7.37666e+06	-56239.1	1105.82	-29739.3	0.000000	0.000000	6.993143	-0.147753	NaN	0.000000	0.001647	0.001635	28.0824	0.133340	0.002081	64.0866	123.665	14.5836	-0.116068	0.991384	-0.130695	-0.132023	-0.147753	64.0866	-0.128966	-7.276054	0.020307	NaN
1187	1.000000	1.002707	7.37666e+06	-56239.1	1105.82	-29739.3	0.000000	0.000000	7.003140	-0.109786	NaN	0.000000	0.001651	0.001666	28.0825	0.038831	0.001994	19.4699	-77.5574	-168.913	-0.182148	1.001434	-0.120700	-0.121973	-0.109786	19.4699	-0.116471	-4.095744	0.026805	NaN
1187	1.000000	1.012694	7.37666e+06	-56239.1	1105.82	-29739.3	0.000000	0.000000	7.013135	0.080743	NaN	0.000000	0.001686	0.001654	28.0826	0.201955	0.001992	101.396	57.0985	19.024	0.117104	1.011392	-0.110712	-0.112015	0.080743	101.396	-0.111310	-3.201876	-0.025217	NaN
1187	1.000000	1.022718	7.37666e+06	-56239.1	1105.82	-29739.3	0.000000	0.000000	7.023167	0.290957	NaN	0.000000	0.001667	0.001616	28.0827	0.286269	0.001993	143.621	18.1487	-165.665	0.239254	1.021393	-0.100689	-0.102014	0.290957	143.621	-0.102208	-2.043794	-0.142361	NaN
1187	1.000000	1.032677	7.37666e+06	-56239.1	1105.82	-29739.3	0.000000	0.000000	7.033139	0.597629	NaN	0.000000	0.001656	0.001652	28.0822	0.403774	0.002004	201.464	10.6448	10.138	0.611215	1.031364	-0.090730	-0.092043	0.597629	201.464	-0.092955	-1.266305	-0.471947	NaN
1187	1.000000	1.042721	7.37666e+06	-56239.1	1105.82	-29739.3	0.000000	0.000000	7.043204	1.103259	NaN	0.000000	0.001623	0.001694	28.082	0.477189	0.001887	252.839	3.699642	-168.292	1.033898	1.041408	-0.080686	-0.081999	1.103259	252.839	-0.083958	-0.775141	-1.423301	NaN
1187	1.000000	1.052724	7.37666e+06	-56239.1	1105.82	-29739.3	0.000000	0.000000	7.053229	1.643710	NaN	0.000000	0.001638	0.001736	28.0812	0.613951	0.001966	312.286	12.5789	9.791373	1.596512	1.051364	-0.070683	-0.072043	1.643710	312.286	-0.074631	-0.451807	-3.638078	NaN
1187	1.000000	1.062737	7.37666e+06	-56239.1	1105.82	-29739.3	0.000000	0.000000	7.063260	2.060826	NaN	0.000000	0.001637	0.001691	28.082	0.785166	0.002022	388.251	14.6579	-164.988	2.014425	1.061466	-0.060670	-0.061941	2.060826	388.251	-0.064650	-0.243708	-8.456131	NaN
1187	1.000000	1.072735	7.37666e+06	-56239.1	1105.82	-29739.3	0.000000	0.000000	7.073279	2.608913	NaN	0.000000	0.001646	0.001700	28.0811	0.831625	0.002081	399.579	16.0899	11.68	2.597304	1.071461	-0.050672	-0.051946	2.608913	399.579	-0.055569	-0.133856	-19.4905	NaN
1187	1.000000	1.082746	7.37666e+06	-56239.1	1105.82	-29739.3	0.000000	0.000000	7.083304	2.924002	NaN	0.000000	0.001658	0.001723	28.0821	1.028086	0.001986	517.663	20.4342	-166.717	2.879651	1.081423	-0.040661	-0.041984	2.924002	517.663	-0.044897	-0.063805	-45.8275	NaN
1187	1.000000	1.092741	7.37666e+06	-56239.1	1105.82	-29739.3	0.000000	0.000000	7.093310	3.205776	NaN	0.000000	0.001608	0.001700	28.081	0.947365	0.002046	463.073	20.8413	13.9316	3.162956	1.091382	-0.030666	-0.032025	3.205776	463.073	-0.035858	-0.033950	-94.4252	NaN
1187	1.000000	1.102774	7.37666e+06	-56239.1	1105.82	-29739.3	0.000000	0.000000	7.103357	3.533353	NaN	0.000000	0.001592	0.001738	28.082	1.071686	0.002007	534.026	20.6756	-164.926	3.589883	1.101437	-0.020633	-0.021970	3.533353	534.026	-0.025595	-0.017487	-202.053	NaN
1187	1.000000	1.112744	7.37666e+06	-56239.1	1105.82	-29739.3	0.000000	0.000000	7.113347	4.015438	NaN	0.000000	0.001582	0.001735	28.081	1.326420	0.002006	661.184	26.7719	10.972	3.899512	1.111412	-0.010662	-0.011995	4.015438	661.184	-0.015217	-0.009406	-426.902	NaN
1187	1.000000	1.122733	7.37666e+06	-56239.1	1105.82	-29739.3	0.000000	0.000000	7.123438	6.505264	NaN	0.000000	0.001599	0.001799	28.0823	4.141885	0.001824	2270.58	9.349925	-165.767	5.306994	1.121426	-0.000674	-0.001980	6.505264	2270.58	-0.002823	-0.002002	-3250.06	NaN
1187	2.000000	1.126866	7.37666e+06	-56239.1	1105.82	-29739.3	0.000000	0.000000	7.127728	10.3287	NaN	0.000000	0.001602	0.001741	28.0808	8.651067	0.001630	5307.63	8.547647	7.469679	9.276483	1.126463	0.003459	0.003056	10.3287	5307.63	0.002000	0.001555	6643.6	122985
1187	2.000000	1.129307	7.37666e+06	-56239.1	1105.82	-29739.3	0.000000	0.000000	7.130349	14.6964	NaN	0.000000	0.001590	0.001788	28.0816	11.6229	0.001782	6522.76	8.428133	-175.336	13.7241	1.128952	0.005900	0.005546	14.6964	6522.76	0.004210	0.003424	4292.18	101845
1187	2.000000	1.131783	7.37666e+06	-56239.1	1105.82	-29739.3	0.000000	0.000000	7.133022	19.4798	NaN	0.000000	0.001555	0.001739	28.0809	14.4169	0.001800	8009.38	7.656528	5.060045	18.2786	1.131469	0.008376	0.008062	19.4798	8009.38	0.006552	0.005595	3481.66	97830.2
1187	2.000000	1.134280	7.37666e+06	-56239.1	1105.82	-29739.3	0.000000	0.000000	7.135721	24.3881	NaN	0.000000	0.001529	0.001715	28.0818	17.2036	0.001786	9630.03	6.697823	-176.787	23.9407	1.133940	0.010874	0.010533	24.3881	9630.03	0.008974	0.008064	3024.44	97979.3
1187	2.000000	1.136808	7.37666e+06	-56239.1	1105.82	-29739.3	0.000000	0.000000	7.138443	29.1192	NaN	0.000000	0.001566	0.001722	28.0809	19.0632	0.001857	10263.9	7.687176	2.794867	28.4277	1.136440	0.013401	0.013034	29.1192	10263.9	0.011273	0.010631	2739.03	90948.6
1187	2.000000	1.139274	7.37666e+06	-56239.1	1105.82	-29739.3	0.000000	0.000000	7.141145	34.8596	NaN	0.000000	0.001575	0.001733	28.083	21.5008	0.001768	12164.2	3.420364	-176.032	34.2333	1.138935	0.015867	0.015528	34.8596	12164.2	0.013718	0.013613	2560.74	95253.1
1187	2.000000	1.141776	7.37666e+06	-56239.1	1105.82	-29739.3	0.000000	0.000000	7.143829	39.2666	NaN	0.000000	0.001589	0.001728	28.0823	24.4386	0.001995	12251.2	6.831275	1.586918	38.0241	1.141398	0.018369	0.017991	39.2666	12251.2	0.015965	0.016594	2366.28	86890.7
1187	2.000000	1.144233	7.37666e+06	-56239.1	1105.82	-29739.3	0.000000	0.000000	7.146566	46.0742	NaN	0.000000	0.001588	0.001719	28.0837	25.8283	0.001826	14145.2	8.685490	177.04	45.5053	1.143970	0.020826	0.020563	46.0742	14145.2	0.018383	0.020065	2296.19	91234
1187	2.000000	1.146843	7.37666e+06	-56239.1	1105.82	-29739.3	0.000000	0.000000	7.149352	50.3481	NaN	0.000000	0.001621	0.001740	28.0824	26.9288	0.001625	16573.5	6.169277	0.463039	53.5092	1.146301	0.023437	0.022895	50.3481	16573.5	0.021158	0.024395	2063.87	96947.7
1187	2.000000	1.149238	7.37666e+06	-56239.1	1105.82	-29739.3	0.000000	0.000000	7.152015	56.861	NaN	0.000000	0.001539	0.001705	28.0834	29.1491	0.001668	17472.3	4.090770	179.067	55.6403	1.148880	0.025832	0.025473	56.861	17472.3	0.023391	0.028153	2019.71	95139.3
1187	2.000000	1.151784	7.37666e+06	-56239.1	1105.82	-29739.3	0.000000	0.000000	7.154729	60.952	NaN	0.000000	0.001530	0.001669	28.0823	32.936	0.001686	19529.4	9.917779	-6.514788	62.4327	1.151358	0.028377	0.027952	60.952	19529.4	0.026036	0.032928	1851.07	98328.6
1187	2.000000	1.154253	7.37666e+06	-56239.1	1105.82	-29739.3	0.000000	0.000000	7.157394	65.7161	NaN	0.000000	0.001558	0.001712	28.0828	36.6099	0.001897	19297.4	9.795070	173.517	66.8327	1.154003	0.030846	0.030596	65.7161	19297.4	0.028292	0.037278	1762.87	91315.8
1187	2.000000	1.156730	7.37666e+06	-56239.1	1105.82	-29739.3	0.000000	0.000000	7.160308	76.3471	NaN	0.000000	0.001560	0.001730	28.0823	37.4448	0.001829	20468.1	5.344050	-2.206465	74.8697	1.156363	0.033323	0.032956	76.3471	20468.1	0.030526	0.041840	1824.73	91422.8
1187	2.000000	1.159187	7.37666e+06	-56239.1	1105.82	-29739.3	0.000000	0.000000	7.163118	84.9377	NaN	0.000000	0.001570	0.001738	28.0834	39.5648	0.001761	22473.3	7.258905	175.071	83.2934	1.158879	0.035780	0.035472	84.9377	22473.3	0.032945	0.047070	1804.52	94639.2
1187	2.000000	1.161734	7.37666e+06	-56239.1	1105.82	-29739.3	0.000000	0.000000	7.166046	94.1918	NaN	0.000000	0.001539	0.001713	28.0823	41.1385	0.001785	23052.9	5.201132	-2.924480	94.1405	1.161348	0.038327	0.037941	94.1918	23052.9	0.035262	0.052359	1798.98	92045.9
1187	2.000000	1.164187	7.37666e+06	-56239.1	1105.82	-29739.3	0.000000	0.000000	7.168784	101.087	NaN	0.000000	0.001573	0.001693	28.0828	43.7551	0.001740	25145.1	1.931401	179.571	99.7869	1.163911	0.040781	0.040504	101.087	25145.1	0.037765	0.058381	1731.52	95080.4
1187	2.000000	1.166750	7.37666e+06	-56239.1	1105.82	-29739.3	0.000000	0.000000	7.171645	108.345	NaN	0.000000	0.001563	0.001707	28.0821	47.0054	0.001874	25084	7.349752	-6.097272	107.005	1.166475	0.043343	0.043068	108.345	25084	0.040104	0.064297	1685.06	90380.4
1187	2.000000	1.169283	7.37666e+06	-56239.1	1105.82	-29739.3	0.000000	0.000000	7.174694	120.883	NaN	0.000000	0.001589	0.001727	28.0825	49.5586	0.001782	27811.8	6.024840	174.091	122.247	1.168882	0.045876	0.045475	120.883	27811.8	0.042617	0.070965	1703.42	95385
1187	2.000000	1.171671	7.37666e+06	-56239.1	1105.82	-29739.3	0.000000	0.000000	7.177678	135.37	NaN	0.000000	0.001577	0.001693	28.082	50.8001	0.001844	27549.4	3.011216	-2.029627	132.47	1.171326	0.048264	0.047919	135.37	27549.4	0.044579	0.076396	1771.95	91064.7
1187	2.000000	1.174229	7.37666e+06	-56239.1	1105.82	-29739.3	0.000000	0.000000	7.180365	138.528	NaN	0.000000	0.001554	0.001733	28.0818	54.0222	0.001753	30819.3	4.861103	173.737	138.039	1.174065	0.050822	0.050658	138.528	30819.3	0.047451	0.084697	1635.57	96752.5
1187	2.000000	1.176687	7.37666e+06	-56239.1	1105.82	-29739.3	0.000000	0.000000	7.183557	156.353	NaN	0.000000	0.001568	0.001709	28.081	54.833	0.001750	31327	1.623922	-2.123919	152.544	1.176360	0.053281	0.052953	156.353	31327	0.049537	0.090989	1718.38	94885.3
1187	2.000000	1.179118	7.37666e+06	-56239.1	1105.82	-29739.3	0.000000	0.000000	7.186495	168.691	NaN	0.000000	0.001579	0.001687	28.0812	58.783	0.001816	32366.1	9.056501	169.621	165.359	1.178898	0.055711	0.055491	168.691	32366.1	0.051802	0.098064	1720.22	94429.9
1187	2.000000	1.181617	7.37666e+06	-56239.1	1105.82	-29739.3	0.000000	0.000000	7.189512	181.281	NaN	0.000000	0.001582	0.001688	28.081	60.3764	0.001861	32447.8	6.547233	-7.812617	177.183	1.181439	0.058210	0.058032	181.281	32447.8	0.054020	0.105242	1722.52	91382.7
1187	2.000000	1.184116	7.37666e+06	-56239.1	1105.82	-29739.3	0.000000	0.000000	7.192599	195.568	NaN	0.000000	0.001547	0.001733	28.0814	62.8157	0.001865	33689.1	3.445563	175.31	191.414	1.183856	0.060709	0.060450	195.568	33689.1	0.056355	0.113063	1729.73	91538.4
1187	2.000000	1.186678	7.37666e+06	-56239.1	1105.82	-29739.3	0.000000	0.000000	7.195762	210.16	NaN	0.000000	0.001593	0.001725	28.081	64.2573	0.001767	36357.5	6.579909	-6.984636	206.289	1.186189	0.063271	0.062782	210.16	36357.5	0.058936	0.122021	1722.32	95093.3
1187	2.000000	1.189111	7.37666e+06	-56239.1	1105.82	-29739.3	0.000000	0.000000	7.198672	221.768	NaN	0.000000	0.001581	0.001727	28.0814	66.6258	0.001758	37908.7	6.412376	171.12	216.007	1.188831	0.065704	0.065424	221.768	37908.7	0.061316	0.130570	1698.45	95849.4
1187	2.000000	1.191634	7.37666e+06	-56239.1	1105.82	-29739.3	0.000000	0.000000	7.202035	242.171	NaN	0.000000	0.001583	0.001722	28.0812	68.9341	0.001840	37458.8	2.764606	-4.922193	237.733	1.191289	0.068227	0.067882	242.171	37458.8	0.063379	0.138202	1752.3	92059.8
1187	2.000000	1.194143	7.37666e+06	-56239.1	1105.82	-29739.3	0.000000	0.000000	7.205043	254.314	NaN	0.000000	0.001589	0.001725	28.0811	71.8755	0.001697	42362	4.364155	172.439	250.697	1.193811	0.070736	0.070404	254.314	42362	0.066234	0.149106	1705.59	100231
1187	2.000000	1.196687	7.37666e+06	-56239.1	1105.82	-29739.3	0.000000	0.000000	7.208332	272.438	NaN	0.000000	0.001562	0.001743	28.081	73.7759	0.001801	40960.9	4.886392	-6.927380	269.501	1.196196	0.073280	0.072789	272.438	40960.9	0.068292	0.157208	1732.98	94385.5
1187	2.000000	1.199123	7.37666e+06	-56239.1	1105.82	-29739.3	0.000000	0.000000	7.211181	282.445	NaN	0.000000	0.001565	0.001713	28.0812	76.3485	0.001735	44016.8	7.607804	168.885	279.725	1.198766	0.075716	0.075359	282.445	44016.8	0.070904	0.167784	1683.38	98178.4
1187	2.000000	1.201568	7.37666e+06	-56239.1	1105.82	-29739.3	0.000000	0.000000	7.214343	299.896	NaN	0.000000	0.001555	0.001734	28.0814	78.6371	0.001739	45211.9	3.764944	-7.409199	291.42	1.201208	0.078161	0.077802	299.896	45211.9	0.073186	0.177289	1691.57	98103.7
1187	2.000000	1.204124	7.37666e+06	-56239.1	1105.82	-29739.3	0.000000	0.000000	7.217367	311.275	NaN	0.000000	0.001552	0.001768	28.0812	82.8118	0.001862	44467.4	4.053621	172.393	308.038	1.203946	0.080717	0.080539	311.275	44467.4	0.075467	0.187034	1664.27	93941
1187	2.000000	1.206646	7.37666e+06	-56239.1	1105.82	-29739.3	0.000000	0.000000	7.220773	332.767	NaN	0.000000	0.001588	0.001719	28.0821	84.0529	0.001827	46001	5.826703	-9.728576	329.989	1.206402	0.083239	0.082996	332.767	46001	0.077813	0.197316	1686.47	94614.8
1187	2.000000	1.209148	7.37666e+06	-56239.1	1105.82	-29739.3	0.000000	0.000000	7.223827	346.184	NaN	0.000000	0.001590	0.001710	28.0826	85.9657	0.001703	50493	6.161001	168.866	344.627	1.208857	0.085741	0.085451	346.184	50493	0.080599	0.209854	1649.64	100704
1187	2.000000	1.211655	7.37666e+06	-56239.1	1105.82	-29739.3	0.000000	0.000000	7.227323	370.194	NaN	0.000000	0.001575	0.001719	28.0823	88.4183	0.001718	51469.2	2.992453	-7.161687	365.402	1.211267	0.088248	0.087860	370.194	51469.2	0.082854	0.220271	1680.63	100194
1187	2.000000	1.214093	7.37666e+06	-56239.1	1105.82	-29739.3	0.000000	0.000000	7.230589	390.318	NaN	0.000000	0.001599	0.001708	28.0824	92.8483	0.001846	50305.7	6.713253	168.931	385.93	1.213796	0.090687	0.090389	390.318	50305.7	0.084867	0.229769	1698.74	95883.6
1187	2.000000	1.216638	7.37666e+06	-56239.1	1105.82	-29739.3	0.000000	0.000000	7.233817	406.935	NaN	0.000000	0.001582	0.001711	28.0821	93.1167	0.001882	49470.3	2.534927	-6.491137	403.199	1.216426	0.093231	0.093019	406.935	49470.3	0.087061	0.240334	1693.21	92195.6
1187	2.000000	1.219180	7.37666e+06	-56239.1	1105.82	-29739.3	0.000000	0.000000	7.236723	415.767	NaN	0.000000	0.001611	0.001721	28.0823	94.9194	0.001668	56889.2	1.945877	172.563	414.158	1.218984	0.095774	0.095578	415.767	56889.2	0.090292	0.256293	1622.23	102668
1187	2.000000	1.221638	7.37666e+06	-56239.1	1105.82	-29739.3	0.000000	0.000000	7.240320	443.472	NaN	0.000000	0.001572	0.001745	28.082	99.246	0.001907	52050.5	5.002740	-9.717447	439.49	1.221307	0.098231	0.097900	443.472	52050.5	0.091841	0.264114	1679.1	92534.3
1187	2.000000	1.223154	7.37666e+06	-56239.1	1105.82	-29739.3	0.000000	0.000000	7.242402	457.216	NaN	0.000000	0.001537	0.001727	28.0823	98.93	0.001680	58876	4.102661	170.48	455.845	1.222756	0.099747	0.099349	457.216	58876	0.093923	0.274798	1663.82	102613