File: remote_trans/data/nanoindenter/0828-1/data/Data_2025-08-06,11h17m57s/2025-07-22_16-23-58_1_578.txt
2025-07-22, 16:23:58, 1
Index	Phase	Displacement	Time	Pos X	Pos Y	Pos Z	Rot A	Rot B	Piezo Z	Force A	Force B	Gripper	Voltage A	Voltage B	Temperature	Amplitude force	Amplitude pos	Stiffness	Phase shift	Phase excitation	Force A raw	Displacement raw	HMax	HMax raw	Real Force	Real Stiffness	Contact Depth	Area	Hardness	Reduced Mod.
[#]	[#]	[um]	[s]	[um]	[um]	[um]	[m°]	[m°]	[um]	[uN]	[uN]	[V]	[V]	[V]	[°C]	[uN]	[um]	[N/m]	[°]	[°]	[uN]	[um]	[um]	[um]	[uN]	[N/m]	[um]	[um^2]	[MPa]	[MPa]
578	1.000000	0.002464	7.3707e+06	-48189.1	1005.82	-29763.3	0.000000	0.000000	6.002813	0.025746	NaN	0.000000	0.001640	0.001776	28.082	0.065506	0.000854	76.6784	106.251	-166.925	0.026369	0.001191	-1.089052	-1.090325	0.025746	76.6784	-1.089304	-3.601360E+14	-7.148999E-17	NaN
578	1.000000	0.012524	7.3707e+06	-48189.1	1005.82	-29763.3	0.000000	0.000000	6.012871	-0.028104	NaN	0.000000	0.001587	0.001801	28.0823	0.048039	0.001203	39.9383	-93.0501	19.2217	0.053444	0.011099	-1.078991	-1.080417	-0.028104	39.9383	-1.078464	-2.575639E+14	1.091142E-16	NaN
578	1.000000	0.022423	7.3707e+06	-48189.1	1005.82	-29763.3	0.000000	0.000000	6.022770	-0.027147	NaN	0.000000	0.001575	0.001777	28.0817	0.040883	0.001658	24.6527	-77.8351	-163.831	-0.059164	0.021090	-1.069093	-1.070425	-0.027147	24.6527	-1.068267	-1.878937E+14	1.444808E-16	NaN
578	1.000000	0.032392	7.3707e+06	-48189.1	1005.82	-29763.3	0.000000	0.000000	6.032738	-0.049995	NaN	0.000000	0.001615	0.001800	28.0819	0.068490	0.002027	33.7869	-151.263	13.4345	0.007781	0.031076	-1.059124	-1.060440	-0.049995	33.7869	-1.058014	-1.368141E+14	3.654232E-16	NaN
578	1.000000	0.042451	7.3707e+06	-48189.1	1005.82	-29763.3	0.000000	0.000000	6.042797	-0.061483	NaN	0.000000	0.001600	0.001803	28.0822	0.082497	0.001952	42.2638	-75.5605	-163.823	0.013357	0.041132	-1.049065	-1.050384	-0.061483	42.2638	-1.047974	-1.002705E+14	6.131681E-16	NaN
578	1.000000	0.052410	7.3707e+06	-48189.1	1005.82	-29763.3	0.000000	0.000000	6.052758	3.758399E-5	NaN	0.000000	0.001571	0.001766	28.0808	0.086143	0.001935	44.5186	-73.621	14.2851	0.037813	0.051098	-1.039106	-1.040418	3.758399E-5	44.5186	-1.039107	-7.620070E+13	-4.932238E-19	NaN
578	1.000000	0.062417	7.3707e+06	-48189.1	1005.82	-29763.3	0.000000	0.000000	6.062764	-0.031652	NaN	0.000000	0.001567	0.001770	28.0808	0.108668	0.002068	52.54	-114.181	-164.384	-0.033906	0.061108	-1.029099	-1.030407	-0.031652	52.54	-1.028647	-5.511650E+13	5.742742E-16	NaN
578	1.000000	0.072413	7.3707e+06	-48189.1	1005.82	-29763.3	0.000000	0.000000	6.072761	-0.005301	NaN	0.000000	0.001586	0.001787	28.0806	0.044212	0.002002	22.0835	31.3707	17.1327	-0.038883	0.071054	-1.019102	-1.020462	-0.005301	22.0835	-1.018922	-4.078058E+13	1.299926E-16	NaN
578	1.000000	0.082433	7.3707e+06	-48189.1	1005.82	-29763.3	0.000000	0.000000	6.082781	-0.005989	NaN	0.000000	0.001571	0.001771	28.081	0.016093	0.001959	8.213257	-170.417	-164.032	0.004120	0.081134	-1.009083	-1.010382	-0.005989	8.213257	-1.008536	-2.955798E+13	2.026059E-16	NaN
578	1.000000	0.092411	7.3707e+06	-48189.1	1005.82	-29763.3	0.000000	0.000000	6.092760	0.023372	NaN	0.000000	0.001566	0.001761	28.0807	0.054599	0.001952	27.9739	22.7044	15.9595	0.010437	0.091046	-0.999105	-1.000470	0.023372	27.9739	-0.999732	-2.249884E+13	-1.038806E-15	NaN
578	1.000000	0.102417	7.3707e+06	-48189.1	1005.82	-29763.3	0.000000	0.000000	6.102763	-0.068465	NaN	0.000000	0.001566	0.001765	28.0809	0.052606	0.001969	26.716	24.9895	-164.428	-0.052547	0.101081	-0.989099	-0.990435	-0.068465	26.716	-0.987177	-1.524356E+13	4.491383E-15	NaN
578	1.000000	0.112440	7.3707e+06	-48189.1	1005.82	-29763.3	0.000000	0.000000	6.112786	-0.038093	NaN	0.000000	0.001564	0.001805	28.0809	0.008517	0.002049	4.156190	-58.5596	12.9985	-0.131901	0.111091	-0.979076	-0.980425	-0.038093	4.156190	-0.972202	-9.579510E+12	3.976489E-15	NaN
578	1.000000	0.122451	7.3707e+06	-48189.1	1005.82	-29763.3	0.000000	0.000000	6.122799	0.003228	NaN	0.000000	0.001552	0.001777	28.0809	0.093801	0.001967	47.6932	130.429	-168.341	-0.066291	0.121119	-0.969065	-0.970397	0.003228	47.6932	-0.969116	-8.704609E+12	-3.708369E-16	NaN
578	1.000000	0.132443	7.3707e+06	-48189.1	1005.82	-29763.3	0.000000	0.000000	6.132789	-0.065386	NaN	0.000000	0.001555	0.001799	28.0809	0.039164	0.001996	19.6233	152.84	13.2202	-0.016674	0.131084	-0.959073	-0.960432	-0.065386	19.6233	-0.956574	-5.897598E+12	1.108686E-14	NaN
578	1.000000	0.142426	7.3707e+06	-48189.1	1005.82	-29763.3	0.000000	0.000000	6.142776	0.042063	NaN	0.000000	0.001492	0.001791	28.0809	0.058444	0.002068	28.2647	-76.7968	-164.157	0.024468	0.141151	-0.949090	-0.950365	0.042063	28.2647	-0.950206	-4.839515E+12	-8.691625E-15	NaN
578	1.000000	0.152451	7.3707e+06	-48189.1	1005.82	-29763.3	0.000000	0.000000	6.152799	-0.023533	NaN	0.000000	0.001540	0.001760	28.0812	0.056136	0.001962	28.608	52.3264	13.4395	-0.063769	0.151005	-0.939064	-0.940510	-0.023533	28.608	-0.938448	-3.358856E+12	7.006364E-15	NaN
578	1.000000	0.162435	7.3707e+06	-48189.1	1005.82	-29763.3	0.000000	0.000000	6.162785	0.063488	NaN	0.000000	0.001580	0.001811	28.081	0.076618	0.002057	37.2536	113.557	-167.681	-0.026961	0.161125	-0.929081	-0.930391	0.063488	37.2536	-0.930359	-2.612455E+12	-2.430189E-14	NaN
578	1.000000	0.172423	7.3707e+06	-48189.1	1005.82	-29763.3	0.000000	0.000000	6.172771	0.001016	NaN	0.000000	0.001572	0.001853	28.0808	0.115856	0.002056	56.3492	-127.212	17.7978	-0.040979	0.171100	-0.919093	-0.920415	0.001016	56.3492	-0.919106	-1.841368E+12	-5.518006E-16	NaN
578	1.000000	0.182460	7.3707e+06	-48189.1	1005.82	-29763.3	0.000000	0.000000	6.182810	0.057031	NaN	0.000000	0.001619	0.001821	28.0817	0.059399	0.002163	27.4569	-147.865	-162.131	-0.027795	0.181179	-0.909056	-0.910337	0.057031	27.4569	-0.910614	-1.414016E+12	-4.033256E-14	NaN
578	1.000000	0.192455	7.3707e+06	-48189.1	1005.82	-29763.3	0.000000	0.000000	6.192804	0.016068	NaN	0.000000	0.001560	0.001793	28.0822	0.045103	0.001903	23.7035	-24.5752	15.267	-0.065799	0.191045	-0.899061	-0.900471	0.016068	23.7035	-0.899569	-1.002864E+12	-1.602211E-14	NaN
578	1.000000	0.202483	7.3707e+06	-48189.1	1005.82	-29763.3	0.000000	0.000000	6.202831	-0.024564	NaN	0.000000	0.001551	0.001758	28.0818	0.070193	0.002005	35.0074	99.5531	-164.381	-0.073600	0.201163	-0.889033	-0.890353	-0.024564	35.0074	-0.888506	-7.107594E+11	3.456012E-14	NaN
578	1.000000	0.212497	7.3707e+06	-48189.1	1005.82	-29763.3	0.000000	0.000000	6.212843	-0.048787	NaN	0.000000	0.001575	0.001805	28.082	0.141154	0.001989	70.9592	-175.151	11.7962	0.015626	0.211109	-0.879019	-0.880407	-0.048787	70.9592	-0.878503	-5.205506E+11	9.372126E-14	NaN
578	1.000000	0.222481	7.3707e+06	-48189.1	1005.82	-29763.3	0.000000	0.000000	6.222827	-0.049326	NaN	0.000000	0.001599	0.001798	28.0824	0.043855	0.002004	21.8879	-133.312	-165.108	-0.005328	0.221156	-0.869035	-0.870360	-0.049326	21.8879	-0.867345	-3.677248E+11	1.341375E-13	NaN
578	1.000000	0.232491	7.3707e+06	-48189.1	1005.82	-29763.3	0.000000	0.000000	6.232839	0.000848	NaN	0.000000	0.001567	0.001780	28.0822	0.044084	0.001960	22.4938	20.1629	13.9631	-0.003231	0.231112	-0.859025	-0.860404	0.000848	22.4938	-0.859053	-2.839901E+11	-2.987494E-15	NaN
578	1.000000	0.242475	7.3707e+06	-48189.1	1005.82	-29763.3	0.000000	0.000000	6.242822	-0.010393	NaN	0.000000	0.001623	0.001796	28.0822	0.027716	0.002126	13.0371	134.349	-165.57	-0.023989	0.241241	-0.849041	-0.850275	-0.010393	13.0371	-0.848443	-2.040133E+11	5.094366E-14	NaN
578	1.000000	0.252478	7.3707e+06	-48189.1	1005.82	-29763.3	0.000000	0.000000	6.252827	0.016170	NaN	0.000000	0.001612	0.001767	28.0823	0.013946	0.002165	6.442879	113.703	16.6214	0.038078	0.251149	-0.839038	-0.840367	0.016170	6.442879	-0.840920	-1.613471E+11	-1.002174E-13	NaN
578	1.000000	0.262502	7.3707e+06	-48189.1	1005.82	-29763.3	0.000000	0.000000	6.262850	-0.021656	NaN	0.000000	0.001590	0.001784	28.0829	0.029136	0.002074	14.0498	-26.3943	-166.164	-0.018154	0.261230	-0.829014	-0.830286	-0.021656	14.0498	-0.827857	-1.073355E+11	2.017572E-13	NaN
578	1.000000	0.272478	7.3707e+06	-48189.1	1005.82	-29763.3	0.000000	0.000000	6.272826	-0.005917	NaN	0.000000	0.001599	0.001791	28.0825	0.015826	0.001848	8.564046	-23.8066	13.7868	-0.104481	0.271148	-0.819038	-0.820368	-0.005917	8.564046	-0.818520	-8.019350E+10	7.377881E-14	NaN
578	1.000000	0.282484	7.3707e+06	-48189.1	1005.82	-29763.3	0.000000	0.000000	6.282832	-0.005106	NaN	0.000000	0.001571	0.001770	28.0824	0.059790	0.002011	29.7357	3.824626	-167.891	0.046811	0.281197	-0.809031	-0.810319	-0.005106	29.7357	-0.808903	-5.938582E+10	8.598344E-14	NaN
578	1.000000	0.292492	7.3707e+06	-48189.1	1005.82	-29763.3	0.000000	0.000000	6.292838	-0.050237	NaN	0.000000	0.001564	0.001801	28.0825	0.087369	0.002010	43.4579	-64.5412	15.2227	-0.086610	0.291120	-0.799024	-0.800396	-0.050237	43.4579	-0.798157	-4.244675E+10	1.183521E-12	NaN
578	1.000000	0.302491	7.3707e+06	-48189.1	1005.82	-29763.3	0.000000	0.000000	6.302838	-0.012774	NaN	0.000000	0.001583	0.001796	28.0825	0.063112	0.001943	32.4742	9.521886	-164.442	-0.073477	0.301194	-0.789025	-0.790322	-0.012774	32.4742	-0.788730	-3.161085E+10	4.041097E-13	NaN
578	1.000000	0.312541	7.3707e+06	-48189.1	1005.82	-29763.3	0.000000	0.000000	6.312889	-0.003881	NaN	0.000000	0.001530	0.001780	28.0823	0.048127	0.001895	25.3935	-6.559979	14.1965	0.044432	0.311147	-0.778974	-0.780369	-0.003881	25.3935	-0.778860	-2.321338E+10	1.671712E-13	NaN
578	1.000000	0.322517	7.3707e+06	-48189.1	1005.82	-29763.3	0.000000	0.000000	6.322866	0.021852	NaN	0.000000	0.001571	0.001772	28.081	0.064240	0.001954	32.8754	53.9442	-165.789	0.002341	0.321238	-0.768999	-0.770278	0.021852	32.8754	-0.769497	-1.731686E+10	-1.261885E-12	NaN
578	1.000000	0.332494	7.3707e+06	-48189.1	1005.82	-29763.3	0.000000	0.000000	6.332845	0.058455	NaN	0.000000	0.001582	0.001754	28.0813	0.036899	0.002088	17.6749	142.343	14.8044	0.024592	0.331121	-0.759022	-0.760395	0.058455	17.6749	-0.761502	-1.348142E+10	-4.335997E-12	NaN
578	1.000000	0.342538	7.3707e+06	-48189.1	1005.82	-29763.3	0.000000	0.000000	6.342881	-0.105953	NaN	0.000000	0.001554	0.001783	28.0812	0.032790	0.001968	16.6622	149.16	-165.438	-0.114674	0.341210	-0.748978	-0.750306	-0.105953	16.6622	-0.744209	-7.841132E+9	1.351250E-11	NaN
578	1.000000	0.352540	7.3707e+06	-48189.1	1005.82	-29763.3	0.000000	0.000000	6.352889	0.018466	NaN	0.000000	0.001560	0.001748	28.0811	0.068078	0.002116	32.1714	-58.523	17.1935	-0.068870	0.351144	-0.738975	-0.740372	0.018466	32.1714	-0.739406	-6.744740E+9	-2.737866E-12	NaN
578	1.000000	0.362510	7.3707e+06	-48189.1	1005.82	-29763.3	0.000000	0.000000	6.362856	-0.047805	NaN	0.000000	0.001557	0.001755	28.0812	0.036605	0.001970	18.5845	164.348	-165.224	-0.056011	0.361189	-0.729006	-0.730327	-0.047805	18.5845	-0.727077	-4.581035E+9	1.043549E-11	NaN
578	1.000000	0.372559	7.3707e+06	-48189.1	1005.82	-29763.3	0.000000	0.000000	6.372908	0.008186	NaN	0.000000	0.001615	0.001776	28.0814	0.064982	0.001851	35.1082	-103.293	13.5579	-0.067057	0.371118	-0.718957	-0.720398	0.008186	35.1082	-0.719132	-3.569688E+9	-2.293240E-12	NaN
578	1.000000	0.382518	7.3707e+06	-48189.1	1005.82	-29763.3	0.000000	0.000000	6.382866	-0.005447	NaN	0.000000	0.001593	0.001791	28.0808	0.097574	0.001965	49.652	144.235	-168.742	-0.009704	0.381233	-0.708998	-0.710283	-0.005447	49.652	-0.708916	-2.589722E+9	2.103354E-12	NaN
578	1.000000	0.392540	7.3707e+06	-48189.1	1005.82	-29763.3	0.000000	0.000000	6.392887	-0.027624	NaN	0.000000	0.001600	0.001798	28.0807	0.087847	0.002046	42.9412	-26.9982	16.1121	-0.068277	0.391188	-0.698976	-0.700328	-0.027624	42.9412	-0.698493	-1.866189E+9	1.480225E-11	NaN
578	1.000000	0.402562	7.3707e+06	-48189.1	1005.82	-29763.3	0.000000	0.000000	6.402910	0.007511	NaN	0.000000	0.001633	0.001790	28.081	0.106871	0.002028	52.7089	-13.329	-165.975	-0.048413	0.401319	-0.688954	-0.690197	0.007511	52.7089	-0.689061	-1.387025E+9	-5.414952E-12	NaN
578	1.000000	0.412577	7.3707e+06	-48189.1	1005.82	-29763.3	0.000000	0.000000	6.412925	-0.017727	NaN	0.000000	0.001585	0.001773	28.0808	0.008122	0.002044	3.974466	129.318	13.4577	-0.096680	0.411231	-0.678939	-0.680285	-0.017727	3.974466	-0.675593	-9.076733E+8	1.953068E-11	NaN
578	1.000000	0.422520	7.3707e+06	-48189.1	1005.82	-29763.3	0.000000	0.000000	6.422867	-0.030210	NaN	0.000000	0.001584	0.001765	28.0809	0.101759	0.002081	48.8894	-51.8902	-162.532	-0.059845	0.421212	-0.668996	-0.670304	-0.030210	48.8894	-0.668533	-7.266191E+8	4.157652E-11	NaN
578	1.000000	0.432574	7.3707e+06	-48189.1	1005.82	-29763.3	0.000000	0.000000	6.432923	0.007810	NaN	0.000000	0.001583	0.001741	28.081	0.103247	0.002122	48.6525	142.473	14.7806	-0.041199	0.431162	-0.658942	-0.660354	0.007810	48.6525	-0.659062	-5.390401E+8	-1.448963E-11	NaN
578	1.000000	0.442569	7.3707e+06	-48189.1	1005.82	-29763.3	0.000000	0.000000	6.442914	-0.070873	NaN	0.000000	0.001594	0.001728	28.081	0.089570	0.001832	48.8906	-128.243	-166.079	-0.081816	0.441251	-0.648947	-0.650265	-0.070873	48.8906	-0.647860	-3.785223E+8	1.872359E-10	NaN
578	1.000000	0.452572	7.3707e+06	-48189.1	1005.82	-29763.3	0.000000	0.000000	6.452918	-0.048409	NaN	0.000000	0.001624	0.001705	28.0808	0.084044	0.001922	43.7241	-20.6894	13.1974	0.029567	0.451189	-0.638944	-0.640327	-0.048409	43.7241	-0.638114	-2.782329E+8	1.739890E-10	NaN
578	1.000000	0.462549	7.3707e+06	-48189.1	1005.82	-29763.3	0.000000	0.000000	6.462898	0.004325	NaN	0.000000	0.001514	0.001711	28.082	0.078125	0.002073	37.6844	-113.882	-164.464	-0.087225	0.461232	-0.628967	-0.630284	0.004325	37.6844	-0.629053	-2.089360E+8	-2.070090E-11	NaN
578	1.000000	0.472585	7.3707e+06	-48189.1	1005.82	-29763.3	0.000000	0.000000	6.472934	0.009568	NaN	0.000000	0.001508	0.001709	28.082	0.066758	0.002016	33.1177	133.674	14.689	-0.097680	0.471178	-0.618931	-0.620338	0.009568	33.1177	-0.619147	-1.527262E+8	-6.264854E-11	NaN
578	1.000000	0.482602	7.3707e+06	-48189.1	1005.82	-29763.3	0.000000	0.000000	6.482948	-0.038337	NaN	0.000000	0.001544	0.001700	28.082	0.137787	0.001931	71.3594	-147.107	-164.611	-0.051115	0.481254	-0.608914	-0.610262	-0.038337	71.3594	-0.608511	-1.090515E+8	3.515523E-10	NaN
578	1.000000	0.492574	7.3707e+06	-48189.1	1005.82	-29763.3	0.000000	0.000000	6.492920	-0.052448	NaN	0.000000	0.001563	0.001744	28.082	0.174802	0.001983	88.1486	143.831	14.4993	-0.094263	0.491141	-0.598942	-0.600374	-0.052448	88.1486	-0.598495	-7.938484E+7	6.606822E-10	NaN
578	1.000000	0.502599	7.3707e+06	-48189.1	1005.82	-29763.3	0.000000	0.000000	6.502945	-0.047423	NaN	0.000000	0.001562	0.001703	28.0821	0.069142	0.002027	34.1087	-173.087	-167.409	-0.009331	0.501332	-0.588917	-0.590184	-0.047423	34.1087	-0.587874	-5.667048E+7	8.368278E-10	NaN
578	1.000000	0.512586	7.3707e+06	-48189.1	1005.82	-29763.3	0.000000	0.000000	6.512934	0.003191	NaN	0.000000	0.001538	0.001720	28.0822	0.059951	0.001851	32.3812	-158.806	14.1834	0.032927	0.511257	-0.578930	-0.580259	0.003191	32.3812	-0.579004	-4.275383E+7	-7.464518E-11	NaN
578	1.000000	0.522577	7.3707e+06	-48189.1	1005.82	-29763.3	0.000000	0.000000	6.522925	-0.018436	NaN	0.000000	0.001480	0.001716	28.0819	0.064204	0.002036	31.5411	-165.401	-164.615	-0.023731	0.521249	-0.568939	-0.570267	-0.018436	31.5411	-0.568500	-3.061305E+7	6.022367E-10	NaN
578	1.000000	0.532620	7.3707e+06	-48189.1	1005.82	-29763.3	0.000000	0.000000	6.532967	-0.026970	NaN	0.000000	0.001511	0.001734	28.0819	0.074926	0.002078	36.0595	-74.5624	15.8897	0.009549	0.531211	-0.558896	-0.560305	-0.026970	36.0595	-0.558335	-2.214851E+7	1.217700E-9	NaN
578	1.000000	0.542597	7.3707e+06	-48189.1	1005.82	-29763.3	0.000000	0.000000	6.542945	-0.013568	NaN	0.000000	0.001511	0.001719	28.082	0.076700	0.001983	38.6867	68.7031	-165.91	0.014152	0.541286	-0.548919	-0.550230	-0.013568	38.6867	-0.548656	-1.626796E+7	8.340220E-10	NaN
578	1.000000	0.552649	7.3707e+06	-48189.1	1005.82	-29763.3	0.000000	0.000000	6.552996	-0.036614	NaN	0.000000	0.001561	0.001738	28.082	0.079384	0.001966	40.3751	-37.0441	15.1528	-0.058671	0.551305	-0.538867	-0.540210	-0.036614	40.3751	-0.538186	-1.164669E+7	3.143732E-9	NaN
578	1.000000	0.562636	7.3707e+06	-48189.1	1005.82	-29763.3	0.000000	0.000000	6.562984	-0.015085	NaN	0.000000	0.001486	0.001735	28.082	0.146654	0.002048	71.5944	147.076	-166.911	-0.069253	0.561256	-0.528880	-0.530260	-0.015085	71.5944	-0.528722	-8.60636e+06	1.752784E-9	NaN
578	1.000000	0.572646	7.3707e+06	-48189.1	1005.82	-29763.3	0.000000	0.000000	6.572994	-0.003887	NaN	0.000000	0.001564	0.001763	28.0821	0.042383	0.001938	21.8666	-56.5917	12.1727	0.011315	0.571323	-0.518870	-0.520193	-0.003887	21.8666	-0.518736	-6.25205e+06	6.217744E-10	NaN
578	1.000000	0.582654	7.3707e+06	-48189.1	1005.82	-29763.3	0.000000	0.000000	6.583002	0.011822	NaN	0.000000	0.001570	0.001761	28.0822	0.044671	0.001980	22.5669	66.4258	-166.587	-0.027287	0.581298	-0.508862	-0.510218	0.011822	22.5669	-0.509255	-4.61359e+06	-2.562504E-9	NaN
578	1.000000	0.592626	7.3707e+06	-48189.1	1005.82	-29763.3	0.000000	0.000000	6.592971	-0.073366	NaN	0.000000	0.001550	0.001744	28.0811	0.049573	0.002034	24.3738	13.5723	16.7749	-0.094750	0.591262	-0.498890	-0.500254	-0.073366	24.3738	-0.496632	-3.07626e+06	2.384907E-8	NaN
578	1.000000	0.602635	7.3707e+06	-48189.1	1005.82	-29763.3	0.000000	0.000000	6.602984	0.019779	NaN	0.000000	0.001587	0.001746	28.0806	0.096038	0.001969	48.7751	107.278	-162.756	-0.019572	0.601284	-0.488881	-0.490232	0.019779	48.7751	-0.489185	-2.42107e+06	-8.169661E-9	NaN
578	1.000000	0.612655	7.3707e+06	-48189.1	1005.82	-29763.3	0.000000	0.000000	6.613000	-0.066491	NaN	0.000000	0.001616	0.001738	28.0809	0.113108	0.001908	59.2912	-120.45	16.2647	0.053213	0.611249	-0.478861	-0.480267	-0.066491	59.2912	-0.478020	-1.68967e+06	3.935168E-8	NaN
578	1.000000	0.622624	7.3707e+06	-48189.1	1005.82	-29763.3	0.000000	0.000000	6.622974	0.054334	NaN	0.000000	0.001550	0.001714	28.0808	0.036480	0.002087	17.4831	-39.1755	-167.951	0.106974	0.621342	-0.468892	-0.470174	0.054334	17.4831	-0.471223	-1.35694e+06	-4.004171E-8	NaN
578	1.000000	0.632624	7.3707e+06	-48189.1	1005.82	-29763.3	0.000000	0.000000	6.632972	-0.017691	NaN	0.000000	0.001581	0.001696	28.0805	0.081856	0.001942	42.1434	-40.4358	12.3731	-0.032334	0.631308	-0.458892	-0.460208	-0.017691	42.1434	-0.458577	-901604	1.962166E-8	NaN
578	1.000000	0.642640	7.3707e+06	-48189.1	1005.82	-29763.3	0.000000	0.000000	6.642988	-0.014700	NaN	0.000000	0.001545	0.001753	28.0806	0.079915	0.002079	38.4405	-135.018	-165.391	-0.004756	0.641393	-0.448875	-0.450123	-0.014700	38.4405	-0.448589	-652325	2.253493E-8	NaN
578	1.000000	0.652665	7.3707e+06	-48189.1	1005.82	-29763.3	0.000000	0.000000	6.653012	-0.009813	NaN	0.000000	0.001571	0.001747	28.0805	0.114069	0.002024	56.346	-6.556205	15.5806	0.108784	0.651295	-0.438851	-0.440221	-0.009813	56.346	-0.438721	-473482	2.072472E-8	NaN
578	1.000000	0.662684	7.3707e+06	-48189.1	1005.82	-29763.3	0.000000	0.000000	6.663035	0.048062	NaN	0.000000	0.001548	0.001713	28.0808	0.097074	0.001938	50.0911	120.305	-165.027	-0.063731	0.661381	-0.428831	-0.430135	0.048062	50.0911	-0.429551	-351326	-1.368015E-7	NaN
578	1.000000	0.672682	7.3707e+06	-48189.1	1005.82	-29763.3	0.000000	0.000000	6.673027	-0.060753	NaN	0.000000	0.001620	0.001773	28.0806	0.083822	0.001961	42.7397	-141.369	15.5592	-0.017961	0.671288	-0.418834	-0.420228	-0.060753	42.7397	-0.417768	-239196	2.539878E-7	NaN
578	1.000000	0.682684	7.3707e+06	-48189.1	1005.82	-29763.3	0.000000	0.000000	6.683028	-0.090918	NaN	0.000000	0.001587	0.001732	28.0806	0.077751	0.001992	39.0294	130.297	-166.981	-0.046988	0.681405	-0.408832	-0.410111	-0.090918	39.0294	-0.407085	-168629	5.391611E-7	NaN
578	1.000000	0.692655	7.3707e+06	-48189.1	1005.82	-29763.3	0.000000	0.000000	6.693001	-0.063657	NaN	0.000000	0.001610	0.001763	28.0808	0.096918	0.002100	46.1433	-111.493	14.5744	-0.030004	0.691252	-0.398861	-0.400264	-0.063657	46.1433	-0.397826	-124446	5.115226E-7	NaN
578	1.000000	0.702697	7.3707e+06	-48189.1	1005.82	-29763.3	0.000000	0.000000	6.703044	-0.028012	NaN	0.000000	0.001607	0.001768	28.0805	0.075883	0.002065	36.7481	40.4265	-166.634	0.030106	0.701406	-0.388819	-0.390110	-0.028012	36.7481	-0.388247	-90800.6	3.085053E-7	NaN
578	1.000000	0.712664	7.3707e+06	-48189.1	1005.82	-29763.3	0.000000	0.000000	6.713011	-0.023750	NaN	0.000000	0.001612	0.001755	28.0806	0.130827	0.002059	63.531	-65.9603	13.5675	-0.020741	0.711306	-0.378852	-0.380210	-0.023750	63.531	-0.378572	-65976.7	3.599743E-7	NaN
578	1.000000	0.722693	7.3707e+06	-48189.1	1005.82	-29763.3	0.000000	0.000000	6.723039	-0.059570	NaN	0.000000	0.001524	0.001771	28.0807	0.011049	0.001956	5.649303	161.745	-166.655	0.006187	0.721414	-0.368823	-0.370102	-0.059570	5.649303	-0.360914	-36733.5	1.621687E-6	NaN
578	1.000000	0.732685	7.3707e+06	-48189.1	1005.82	-29763.3	0.000000	0.000000	6.733031	-0.042985	NaN	0.000000	0.001570	0.001775	28.0818	0.059896	0.001925	31.119	-153.965	13.5906	-0.074121	0.731305	-0.358831	-0.360210	-0.042985	31.119	-0.357795	-33110.1	1.298230E-6	NaN
578	1.000000	0.742679	7.3707e+06	-48189.1	1005.82	-29763.3	0.000000	0.000000	6.743027	-0.014031	NaN	0.000000	0.001556	0.001790	28.0818	0.068879	0.002083	33.0728	164.919	-161.729	-0.065544	0.741376	-0.348837	-0.350140	-0.014031	33.0728	-0.348519	-24293.8	5.775638E-7	NaN
578	1.000000	0.752704	7.37071e+06	-48189.1	1005.82	-29763.3	0.000000	0.000000	6.753052	0.011228	NaN	0.000000	0.001511	0.001768	28.0819	0.066242	0.002256	29.3686	-171.477	13.4396	0.059387	0.751347	-0.338812	-0.340169	0.011228	29.3686	-0.339099	-17718.1	-6.337018E-7	NaN
578	1.000000	0.762686	7.37071e+06	-48189.1	1005.82	-29763.3	0.000000	0.000000	6.763032	-0.050118	NaN	0.000000	0.001534	0.001774	28.0821	0.110835	0.001954	56.7272	-122.226	-166.179	-0.136272	0.761405	-0.328830	-0.330111	-0.050118	56.7272	-0.328168	-12263.2	4.086860E-6	NaN
578	1.000000	0.772751	7.37071e+06	-48189.1	1005.82	-29763.3	0.000000	0.000000	6.773097	-0.063409	NaN	0.000000	0.001503	0.001758	28.0819	0.021885	0.001987	11.0164	-11.9994	16.2266	-0.040572	0.771376	-0.318764	-0.320140	-0.063409	11.0164	-0.314448	-7705.36	8.229254E-6	NaN
578	1.000000	0.782685	7.37071e+06	-48189.1	1005.82	-29763.3	0.000000	0.000000	6.783028	-0.120176	NaN	0.000000	0.001513	0.001754	28.0818	0.129521	0.002022	64.0607	10.3573	-162.847	-0.125902	0.781414	-0.308831	-0.310102	-0.120176	64.0607	-0.307424	-6066.05	1.981123E-5	NaN
578	1.000000	0.792737	7.37071e+06	-48189.1	1005.82	-29763.3	0.000000	0.000000	6.793085	0.003170	NaN	0.000000	0.001546	0.001720	28.0822	0.056571	0.002004	28.2259	115.128	9.094635	-0.000146	0.791358	-0.298779	-0.300158	0.003170	28.2259	-0.298864	-4525.97	-7.004568E-7	NaN
578	1.000000	0.802712	7.37071e+06	-48189.1	1005.82	-29763.3	0.000000	0.000000	6.803060	-0.023654	NaN	0.000000	0.001561	0.001736	28.0822	0.109983	0.002068	53.1902	-138.153	-166.342	-0.019698	0.801438	-0.288804	-0.290078	-0.023654	53.1902	-0.288470	-3164.96	7.473628E-6	NaN
578	1.000000	0.812739	7.37071e+06	-48189.1	1005.82	-29763.3	0.000000	0.000000	6.813086	-0.011222	NaN	0.000000	0.001570	0.001760	28.0822	0.030774	0.001911	16.1078	1.707656	14.446	-0.054771	0.811362	-0.278777	-0.280154	-0.011222	16.1078	-0.278255	-2221.39	5.051758E-6	NaN
578	1.000000	0.822723	7.37071e+06	-48189.1	1005.82	-29763.3	0.000000	0.000000	6.823070	-0.018893	NaN	0.000000	0.001542	0.001767	28.082	0.028740	0.002170	13.2471	128.395	-167.777	-0.022622	0.821417	-0.268793	-0.270099	-0.018893	13.2471	-0.267723	-1537.81	1.228589E-5	NaN
578	1.000000	0.832733	7.37071e+06	-48189.1	1005.82	-29763.3	0.000000	0.000000	6.833084	0.071809	NaN	0.000000	0.001546	0.001726	28.0822	0.083221	0.001942	42.8595	-126.202	18.3723	0.072620	0.831411	-0.258783	-0.260105	0.071809	42.8595	-0.260039	-1173.61	-6.118694E-5	NaN
578	1.000000	0.842727	7.37071e+06	-48189.1	1005.82	-29763.3	0.000000	0.000000	6.843073	-0.062616	NaN	0.000000	0.001528	0.001748	28.0824	0.024141	0.002181	11.0684	-156.204	-164.094	-0.065754	0.841439	-0.248789	-0.250077	-0.062616	11.0684	-0.244546	-676.7	9.253063E-5	NaN
578	1.000000	0.852731	7.37071e+06	-48189.1	1005.82	-29763.3	0.000000	0.000000	6.853077	-0.055998	NaN	0.000000	0.001539	0.001767	28.0822	0.067555	0.002070	32.6316	125.477	15.8964	-0.026596	0.851331	-0.238784	-0.240185	-0.055998	32.6316	-0.237497	-525.305	0.000107	NaN
578	1.000000	0.862749	7.37071e+06	-48189.1	1005.82	-29763.3	0.000000	0.000000	6.863095	-0.045729	NaN	0.000000	0.001544	0.001795	28.0819	0.028551	0.001904	14.9974	57.9023	-167.036	-0.030602	0.861397	-0.228767	-0.230119	-0.045729	14.9974	-0.226480	-352.228	0.000130	NaN
578	1.000000	0.872768	7.37071e+06	-48189.1	1005.82	-29763.3	0.000000	0.000000	6.873114	-0.060519	NaN	0.000000	0.001581	0.001751	28.0808	0.049210	0.001945	25.2981	175.419	15.1771	-0.022700	0.871404	-0.218748	-0.220112	-0.060519	25.2981	-0.216954	-248.256	0.000244	NaN
578	1.000000	0.882737	7.37071e+06	-48189.1	1005.82	-29763.3	0.000000	0.000000	6.883086	0.006084	NaN	0.000000	0.001564	0.001743	28.0806	0.048029	0.001940	24.7541	-68.0039	-165.756	0.021641	0.881435	-0.208779	-0.210081	0.006084	24.7541	-0.208963	-184.507	-3.297491E-5	NaN
578	1.000000	0.892747	7.37071e+06	-48189.1	1005.82	-29763.3	0.000000	0.000000	6.893092	-0.057461	NaN	0.000000	0.001575	0.001813	28.0806	0.041881	0.002028	20.6536	108.432	14.2816	-0.053004	0.891376	-0.198769	-0.200139	-0.057461	20.6536	-0.196683	-116.156	0.000495	NaN
578	1.000000	0.902779	7.37071e+06	-48189.1	1005.82	-29763.3	0.000000	0.000000	6.903126	-0.021589	NaN	0.000000	0.001611	0.001791	28.0806	0.103219	0.002051	50.3383	101.729	-170.201	-0.016011	0.901374	-0.188737	-0.190142	-0.021589	50.3383	-0.188416	-84.6302	0.000255	NaN
578	1.000000	0.912745	7.37071e+06	-48189.1	1005.82	-29763.3	0.000000	0.000000	6.913092	-0.029747	NaN	0.000000	0.001585	0.001868	28.0809	0.085341	0.002000	42.6737	140.477	12.567	-0.081147	0.911401	-0.178771	-0.180115	-0.029747	42.6737	-0.178248	-56.9661	0.000522	NaN
578	1.000000	0.922735	7.37071e+06	-48189.1	1005.82	-29763.3	0.000000	0.000000	6.923080	-0.055243	NaN	0.000000	0.001599	0.001793	28.0806	0.057877	0.002118	27.3224	50.1312	-165.176	0.023803	0.921455	-0.168781	-0.170061	-0.055243	27.3224	-0.167265	-36.8108	0.001501	NaN
578	1.000000	0.932769	7.37071e+06	-48189.1	1005.82	-29763.3	0.000000	0.000000	6.933114	-0.061491	NaN	0.000000	0.001622	0.001807	28.0806	0.079829	0.002026	39.4072	167.881	13.6281	-0.047838	0.931378	-0.158747	-0.160138	-0.061491	39.4072	-0.157577	-24.8197	0.002478	NaN
578	1.000000	0.942788	7.37071e+06	-48189.1	1005.82	-29763.3	0.000000	0.000000	6.943137	0.034676	NaN	0.000000	0.001646	0.001770	28.0805	0.099672	0.002022	49.2931	16.2708	-166.053	-0.032574	0.941493	-0.148728	-0.150023	0.034676	49.2931	-0.149256	-17.5558	-0.001975	NaN
578	1.000000	0.952774	7.37071e+06	-48189.1	1005.82	-29763.3	0.000000	0.000000	6.953118	-0.103870	NaN	0.000000	0.001593	0.001755	28.0805	0.061365	0.001966	31.216	-177.84	14.0296	-0.115053	0.951413	-0.138742	-0.140103	-0.103870	31.216	-0.136247	-10.047	0.010338	NaN
578	1.000000	0.962770	7.37071e+06	-48189.1	1005.82	-29763.3	0.000000	0.000000	6.963118	-0.015691	NaN	0.000000	0.001616	0.001766	28.0806	0.044256	0.001870	23.6723	-175.1	-164.292	-0.026574	0.961423	-0.128746	-0.130093	-0.015691	23.6723	-0.128249	-7.045073	0.002227	NaN
578	1.000000	0.972778	7.37071e+06	-48189.1	1005.82	-29763.3	0.000000	0.000000	6.973126	0.004482	NaN	0.000000	0.001626	0.001745	28.0807	0.062184	0.001996	31.1622	136.338	12.9416	0.009614	0.971442	-0.118738	-0.120074	0.004482	31.1622	-0.118846	-4.578580	-0.000979	NaN
578	1.000000	0.982796	7.37071e+06	-48189.1	1005.82	-29763.3	0.000000	0.000000	6.983142	-0.055013	NaN	0.000000	0.001638	0.001755	28.0809	0.031680	0.001892	16.746	-150.805	-165.112	-0.043598	0.981463	-0.108720	-0.110053	-0.055013	16.746	-0.106256	-2.501672	0.021990	NaN
578	1.000000	0.992802	7.37071e+06	-48189.1	1005.82	-29763.3	0.000000	0.000000	6.993148	-0.066800	NaN	0.000000	0.001615	0.001769	28.0806	0.074415	0.002019	36.8638	55.6394	10.0173	-0.060424	0.991464	-0.098714	-0.100051	-0.066800	36.8638	-0.097355	-1.594828	0.041886	NaN
578	1.000000	1.002802	7.37071e+06	-48189.1	1005.82	-29763.3	0.000000	0.000000	7.003152	0.037682	NaN	0.000000	0.001622	0.001760	28.0818	0.115726	0.001853	62.4377	127.008	-171.687	0.007146	1.001564	-0.088714	-0.089952	0.037682	62.4377	-0.089166	-1.033257	-0.036469	NaN
578	1.000000	1.012808	7.37071e+06	-48189.1	1005.82	-29763.3	0.000000	0.000000	7.013155	-0.028711	NaN	0.000000	0.001625	0.001747	28.0821	0.086865	0.001983	43.7992	-23.04	13.2685	-0.049449	1.011441	-0.078708	-0.080075	-0.028711	43.7992	-0.078216	-0.558219	0.051433	NaN
578	1.000000	1.022823	7.37071e+06	-48189.1	1005.82	-29763.3	0.000000	0.000000	7.023170	-0.031811	NaN	0.000000	0.001646	0.001772	28.0815	0.071820	0.002041	35.1911	-129.89	-166.317	-0.006456	1.021471	-0.068693	-0.070045	-0.031811	35.1911	-0.068015	-0.301541	0.105496	NaN
578	1.000000	1.032808	7.37071e+06	-48189.1	1005.82	-29763.3	0.000000	0.000000	7.033159	0.052042	NaN	0.000000	0.001575	0.001728	28.0819	0.075326	0.001953	38.5614	-46.694	13.6882	-0.009761	1.031389	-0.058707	-0.060127	0.052042	38.5614	-0.059720	-0.176786	-0.294380	NaN
578	1.000000	1.042829	7.37071e+06	-48189.1	1005.82	-29763.3	0.000000	0.000000	7.043176	-0.040561	NaN	0.000000	0.001532	0.001728	28.0821	0.037356	0.002070	18.0495	136.927	-165.203	-0.020982	1.041502	-0.048687	-0.050014	-0.040561	18.0495	-0.047001	-0.073982	0.548249	NaN
578	1.000000	1.052804	7.37071e+06	-48189.1	1005.82	-29763.3	0.000000	0.000000	7.053151	-0.036799	NaN	0.000000	0.001565	0.001744	28.0821	0.068785	0.002190	31.4108	153.234	13.1707	-0.020780	1.051493	-0.038712	-0.040023	-0.036799	31.4108	-0.037833	-0.038891	0.946192	NaN
578	1.000000	1.062819	7.37071e+06	-48189.1	1005.82	-29763.3	0.000000	0.000000	7.063168	0.014930	NaN	0.000000	0.001549	0.001713	28.0819	0.047502	0.002070	22.949	149.183	-168.631	-0.022489	1.061493	-0.028697	-0.030023	0.014930	22.949	-0.029185	-0.021846	-0.683427	NaN
578	1.000000	1.072823	7.37071e+06	-48189.1	1005.82	-29763.3	0.000000	0.000000	7.073171	-0.003768	NaN	0.000000	0.001561	0.001697	28.082	0.098982	0.001892	52.3293	-98.672	15.8521	0.056237	1.071498	-0.018693	-0.020018	-0.003768	52.3293	-0.018639	-0.011595	0.324977	NaN
578	1.000000	1.082836	7.37071e+06	-48189.1	1005.82	-29763.3	0.000000	0.000000	7.083184	-0.021630	NaN	0.000000	0.001564	0.001748	28.0822	0.070383	0.001812	38.8414	8.286849	-164.616	0.002222	1.081505	-0.008680	-0.010011	-0.021630	38.8414	-0.008262	-0.005385	4.016814	NaN
578	1.000000	1.092798	7.37071e+06	-48189.1	1005.82	-29763.3	0.000000	0.000000	7.093311	4.014780	NaN	0.000000	0.001552	0.001719	28.0824	4.675326	0.001793	2607.38	9.896263	10.0221	2.073795	1.091333	0.001282	-0.000183	4.014780	2607.38	0.000127	9.539987E-5	42083.7	243896
578	2.000000	1.098398	7.37071e+06	-48189.1	1005.82	-29763.3	0.000000	0.000000	7.099184	10.6621	NaN	0.000000	0.001559	0.001693	28.0823	10.1085	0.001676	6029.98	6.495278	-173.684	9.984283	1.098071	0.006882	0.006555	10.6621	6029.98	0.005556	0.004646	2294.73	80822.8
578	2.000000	1.100851	7.37071e+06	-48189.1	1005.82	-29763.3	0.000000	0.000000	7.101805	14.7468	NaN	0.000000	0.001538	0.001737	28.0819	13.4484	0.001806	7447.85	9.133455	1.916316	14.213	1.100508	0.009335	0.008992	14.7468	7447.85	0.007850	0.006889	2140.74	81985.7
578	2.000000	1.103336	7.37071e+06	-48189.1	1005.82	-29763.3	0.000000	0.000000	7.104469	19.088	NaN	0.000000	0.001539	0.001748	28.0816	16.4795	0.001907	8639.72	8.965055	-178.652	19.1296	1.103086	0.011820	0.011570	19.088	8639.72	0.010163	0.009364	2038.55	81574.3
578	2.000000	1.105844	7.37071e+06	-48189.1	1005.82	-29763.3	0.000000	0.000000	7.107229	25.2187	NaN	0.000000	0.001546	0.001730	28.0822	18.1841	0.001761	10324.9	7.310893	2.290104	24.6287	1.105383	0.014328	0.013867	25.2187	10324.9	0.012496	0.012090	2085.98	85793.5
578	2.000000	1.108317	7.37071e+06	-48189.1	1005.82	-29763.3	0.000000	0.000000	7.109968	31.6994	NaN	0.000000	0.001533	0.001754	28.0812	20.4358	0.001858	11000.8	4.042370	-174.585	31.2005	1.108008	0.016801	0.016492	31.6994	11000.8	0.014640	0.014808	2140.66	82593.8
578	2.000000	1.110822	7.37071e+06	-48189.1	1005.82	-29763.3	0.000000	0.000000	7.112681	36.7459	NaN	0.000000	0.001551	0.001760	28.0806	23.1613	0.001812	12780.6	6.294655	1.801751	37.0254	1.110395	0.019306	0.018879	36.7459	12780.6	0.017150	0.018260	2012.42	86413.4
578	2.000000	1.113295	7.37071e+06	-48189.1	1005.82	-29763.3	0.000000	0.000000	7.115442	43.731	NaN	0.000000	0.001543	0.001757	28.0813	25.9837	0.001625	15994.9	5.244223	179.255	42.931	1.112957	0.021780	0.021441	43.731	15994.9	0.019729	0.022118	1977.15	98260.7
578	2.000000	1.115770	7.37071e+06	-48189.1	1005.82	-29763.3	0.000000	0.000000	7.118213	50.9488	NaN	0.000000	0.001522	0.001752	28.0808	27.1931	0.001693	16057.6	1.333474	3.644076	48.7815	1.115421	0.024254	0.023905	50.9488	16057.6	0.021874	0.025573	1992.27	91740.1
578	2.000000	1.118299	7.37071e+06	-48189.1	1005.82	-29763.3	0.000000	0.000000	7.121043	58.2752	NaN	0.000000	0.001572	0.001769	28.0808	30.109	0.001745	17251	6.642665	177.793	58.4055	1.117951	0.026783	0.026435	58.2752	17251	0.024249	0.029664	1964.5	91510.6
578	2.000000	1.120762	7.37071e+06	-48189.1	1005.82	-29763.3	0.000000	0.000000	7.123761	64.4879	NaN	0.000000	0.001545	0.001731	28.0807	32.608	0.001864	17495.9	6.901656	-2.528980	63.4706	1.120389	0.029246	0.028873	64.4879	17495.9	0.026481	0.033766	1909.86	86990.3
578	2.000000	1.123241	7.37071e+06	-48189.1	1005.82	-29763.3	0.000000	0.000000	7.126633	74.0329	NaN	0.000000	0.001549	0.001733	28.0809	34.7558	0.001833	18960.4	4.779885	177.878	71.7597	1.122990	0.031725	0.031475	74.0329	18960.4	0.028797	0.038287	1933.65	88531.4
578	2.000000	1.125766	7.37071e+06	-48189.1	1005.82	-29763.3	0.000000	0.000000	7.129582	84.3348	NaN	0.000000	0.001537	0.001701	28.0806	36.8072	0.001821	20214.9	7.947856	-4.292067	83.624	1.125313	0.034250	0.033797	84.3348	20214.9	0.031121	0.043100	1956.72	88962.5
578	2.000000	1.128302	7.37071e+06	-48189.1	1005.82	-29763.3	0.000000	0.000000	7.132447	92.3508	NaN	0.000000	0.001537	0.001724	28.0818	39.3944	0.001849	21307.1	9.692415	173.359	93.0752	1.127864	0.036786	0.036349	92.3508	21307.1	0.033535	0.048390	1908.47	88495.3
578	2.000000	1.130723	7.37071e+06	-48189.1	1005.82	-29763.3	0.000000	0.000000	7.135211	100.701	NaN	0.000000	0.001555	0.001741	28.0809	42.0229	0.001825	23029.8	7.329827	-5.297127	99.0576	1.130327	0.039207	0.038811	100.701	23029.8	0.035927	0.053928	1867.33	90606.1
578	2.000000	1.133246	7.37071e+06	-48189.1	1005.82	-29763.3	0.000000	0.000000	7.138214	112.376	NaN	0.000000	0.001509	0.001724	28.0809	45.1003	0.001813	24875.2	6.428935	174.546	111.273	1.132920	0.041730	0.041404	112.376	24875.2	0.038342	0.059813	1878.78	92926.8
578	2.000000	1.135716	7.37071e+06	-48189.1	1005.82	-29763.3	0.000000	0.000000	7.140965	119.198	NaN	0.000000	0.001570	0.001754	28.0808	46.6511	0.001821	25625.4	6.404948	-5.753695	114.985	1.135249	0.044200	0.043733	119.198	25625.4	0.040711	0.065879	1809.36	91216.1
578	2.000000	1.138193	7.37071e+06	-48189.1	1005.82	-29763.3	0.000000	0.000000	7.144040	133.745	NaN	0.000000	0.001523	0.001756	28.0812	47.6661	0.001651	28872.1	4.258388	174.466	129.829	1.137858	0.046677	0.046342	133.745	28872.1	0.043203	0.072567	1843.07	97922.7
578	2.000000	1.140732	7.37071e+06	-48189.1	1005.82	-29763.3	0.000000	0.000000	7.147129	147.124	NaN	0.000000	0.001532	0.001777	28.0811	50.5043	0.001726	29268.5	3.846290	-4.098270	146.078	1.140435	0.049216	0.048919	147.124	29268.5	0.045446	0.078859	1865.66	95224.5
578	2.000000	1.143265	7.37071e+06	-48189.1	1005.82	-29763.3	0.000000	0.000000	7.150092	157.575	NaN	0.000000	0.001584	0.001719	28.0819	53.8398	0.001763	30536.8	4.942171	174.267	158.76	1.142925	0.051749	0.051409	157.575	30536.8	0.047879	0.085971	1832.9	95152.8
578	2.000000	1.145717	7.37071e+06	-48189.1	1005.82	-29763.3	0.000000	0.000000	7.153233	174.341	NaN	0.000000	0.001585	0.001735	28.0818	54.8642	0.001807	30355.6	3.270926	-3.955146	171.496	1.145372	0.054201	0.053856	174.341	30355.6	0.049893	0.092084	1893.28	91394.3
578	2.000000	1.148192	7.37071e+06	-48189.1	1005.82	-29763.3	0.000000	0.000000	7.156220	186.782	NaN	0.000000	0.001584	0.001731	28.082	58.0151	0.001762	32933.5	9.253616	168.547	182.955	1.147871	0.056676	0.056355	186.782	32933.5	0.052423	0.100049	1866.91	95127.5
578	2.000000	1.150689	7.37071e+06	-48189.1	1005.82	-29763.3	0.000000	0.000000	7.159282	200.528	NaN	0.000000	0.001554	0.001750	28.0819	59.0099	0.001749	33730.2	2.813418	-4.469391	198.394	1.150391	0.059173	0.058875	200.528	33730.2	0.054715	0.107541	1864.67	93973.3
578	2.000000	1.153200	7.37071e+06	-48189.1	1005.82	-29763.3	0.000000	0.000000	7.162353	214.146	NaN	0.000000	0.001565	0.001719	28.0819	63.631	0.001893	33611.7	3.218358	174.617	212.54	1.152912	0.061684	0.061396	214.146	33611.7	0.056906	0.114948	1862.99	90576.2
578	2.000000	1.155651	7.37071e+06	-48189.1	1005.82	-29763.3	0.000000	0.000000	7.165534	231.912	NaN	0.000000	0.001580	0.001744	28.0819	64.1515	0.001731	37063.3	0.081951	-2.197162	226.612	1.155324	0.064135	0.063808	231.912	37063.3	0.059442	0.123815	1873.05	96234.6
578	2.000000	1.158204	7.37071e+06	-48189.1	1005.82	-29763.3	0.000000	0.000000	7.168694	246.675	NaN	0.000000	0.001566	0.001752	28.0823	67.4882	0.001730	39003.8	3.267226	173.846	247.547	1.157995	0.066688	0.066479	246.675	39003.8	0.061945	0.132876	1856.44	97759.1
578	2.000000	1.160705	7.37071e+06	-48189.1	1005.82	-29763.3	0.000000	0.000000	7.172051	267.487	NaN	0.000000	0.001570	0.001750	28.0819	69.7739	0.001919	36350.4	-0.597642	-1.777537	264.953	1.160342	0.069190	0.068826	267.487	36350.4	0.063671	0.139299	1920.24	88983.3
578	2.000000	1.163244	7.37071e+06	-48189.1	1005.82	-29763.3	0.000000	0.000000	7.175161	281.389	NaN	0.000000	0.001561	0.001748	28.082	71.4766	0.001724	41467.8	-0.115062	177.183	283.332	1.162881	0.071728	0.071365	281.389	41467.8	0.066638	0.150683	1867.43	97600.5
578	2.000000	1.165671	7.37071e+06	-48189.1	1005.82	-29763.3	0.000000	0.000000	7.178595	305.874	NaN	0.000000	0.001576	0.001721	28.082	73.0667	0.001683	43423.9	3.964655	-7.345190	299.846	1.165238	0.074155	0.073722	305.874	43423.9	0.068872	0.159530	1917.34	99330.1
578	2.000000	1.168196	7.37071e+06	-48189.1	1005.82	-29763.3	0.000000	0.000000	7.181690	319.736	NaN	0.000000	0.001580	0.001717	28.0823	75.9069	0.001696	44745.4	6.225724	169.737	318.549	1.167866	0.076680	0.076350	319.736	44745.4	0.071321	0.169503	1886.32	99296.3
578	2.000000	1.170607	7.37071e+06	-48189.1	1005.82	-29763.3	0.000000	0.000000	7.185021	342.111	NaN	0.000000	0.001579	0.001702	28.0822	79.3003	0.001734	45726.4	5.798030	-9.109206	336.139	1.170251	0.079091	0.078735	342.111	45726.4	0.073480	0.178532	1916.24	98874
578	2.000000	1.173185	7.37071e+06	-48189.1	1005.82	-29763.3	0.000000	0.000000	7.188314	359.489	NaN	0.000000	0.001584	0.001710	28.0822	83.0538	0.001885	44063.9	5.125608	171.3	357.965	1.172864	0.081669	0.081348	359.489	44063.9	0.075551	0.187397	1918.33	92998.3
578	2.000000	1.175730	7.37071e+06	-48189.1	1005.82	-29763.3	0.000000	0.000000	7.191567	376.7	NaN	0.000000	0.001584	0.001699	28.0824	85.0854	0.001895	44901	9.517202	-12.3518	374.735	1.175245	0.084215	0.083730	376.7	44901	0.077922	0.197800	1904.45	92239.4
578	2.000000	1.178147	7.37071e+06	-48189.1	1005.82	-29763.3	0.000000	0.000000	7.194704	394.24	NaN	0.000000	0.001573	0.001732	28.0811	86.3903	0.001852	46642.8	3.600741	172.323	391.445	1.177919	0.086631	0.086403	394.24	46642.8	0.080292	0.208454	1891.26	93336.8
578	2.000000	1.180716	7.37071e+06	-48189.1	1005.82	-29763.3	0.000000	0.000000	7.198181	416.315	NaN	0.000000	0.001623	0.001717	28.0809	88.9258	0.001905	46674.5	3.977785	-8.096642	414.936	1.180367	0.089200	0.088851	416.315	46674.5	0.082510	0.218668	1903.86	91192.6
578	2.000000	1.183214	7.37071e+06	-48189.1	1005.82	-29763.3	0.000000	0.000000	7.201631	439.457	NaN	0.000000	0.001613	0.001713	28.0809	91.3924	0.001720	53140.1	6.353160	168.508	439.62	1.182809	0.091698	0.091293	439.457	53140.1	0.085496	0.232774	1887.92	100630
578	2.000000	1.185687	7.37071e+06	-48189.1	1005.82	-29763.3	0.000000	0.000000	7.204995	461.161	NaN	0.000000	0.001572	0.001709	28.0811	92.213	0.001761	52364.8	5.403800	-9.684800	457.161	1.185300	0.094171	0.093784	461.161	52364.8	0.087566	0.242792	1899.4	97094.7
578	2.000000	1.188179	7.37071e+06	-48189.1	1005.82	-29763.3	0.000000	0.000000	7.208269	480.165	NaN	0.000000	0.001589	0.001723	28.0808	95.4147	0.001823	52328.5	5.289462	169.864	478.262	1.187905	0.096663	0.096389	480.165	52328.5	0.089781	0.253737	1892.38	94911.7
578	2.000000	1.190642	7.37071e+06	-48189.1	1005.82	-29763.3	0.000000	0.000000	7.211684	503.313	NaN	0.000000	0.001595	0.001724	28.081	96.7802	0.001742	55554.9	4.236916	-9.331681	498.788	1.190312	0.099126	0.098796	503.313	55554.9	0.092331	0.266610	1887.83	98300.8
578	2.000000	1.193177	7.37071e+06	-48189.1	1005.82	-29763.3	0.000000	0.000000	7.214993	522.16	NaN	0.000000	0.001614	0.001736	28.0808	99.8907	0.001733	57630.5	2.300441	172.28	521.388	1.193002	0.101661	0.101486	522.16	57630.5	0.094865	0.279701	1866.85	99558.7
578	2.000000	1.195127	7.37071e+06	-48189.1	1005.82	-29763.3	0.000000	0.000000	7.217860	544.442	NaN	0.000000	0.001589	0.001733	28.0811	101.345	0.001753	57813.6	5.831773	169.021	542.319	1.194800	0.103611	0.103285	544.442	57813.6	0.096548	0.288554	1886.79	98330.9