File: remote_trans/data/nanoindenter/0828-1/data/Data_2025-08-06,11h17m57s/2025-07-22_16-23-58_1_1114.txt
2025-07-22, 16:23:58, 1
Index	Phase	Displacement	Time	Pos X	Pos Y	Pos Z	Rot A	Rot B	Piezo Z	Force A	Force B	Gripper	Voltage A	Voltage B	Temperature	Amplitude force	Amplitude pos	Stiffness	Phase shift	Phase excitation	Force A raw	Displacement raw	HMax	HMax raw	Real Force	Real Stiffness	Contact Depth	Area	Hardness	Reduced Mod.
[#]	[#]	[um]	[s]	[um]	[um]	[um]	[m°]	[m°]	[um]	[uN]	[uN]	[V]	[V]	[V]	[°C]	[uN]	[um]	[N/m]	[°]	[°]	[uN]	[um]	[um]	[um]	[uN]	[N/m]	[um]	[um^2]	[MPa]	[MPa]
1114	1.000000	0.002783	7.37595e+06	-55839.1	1055.82	-29740.6	0.000000	0.000000	6.002775	0.023566	NaN	0.000000	0.001575	0.001706	28.0839	0.096428	0.000908	106.204	-149.865	-166.063	0.021439	0.001500	-1.039204	-1.040487	0.023566	106.204	-1.039371	-7.682572E+13	-3.067454E-16	NaN
1114	1.000000	0.010772	7.37595e+06	-55839.1	1055.82	-29740.6	0.000000	0.000000	6.010763	-0.011996	NaN	0.000000	0.001562	0.001723	28.0836	0.095301	0.001016	93.7557	74.2234	-163.214	-0.014638	0.009467	-1.031215	-1.032520	-0.011996	93.7557	-1.031120	-5.950294E+13	2.015964E-16	NaN
1114	1.000000	0.018730	7.37595e+06	-55839.1	1055.82	-29740.6	0.000000	0.000000	6.018724	0.063914	NaN	0.000000	0.001545	0.001701	28.0831	0.049014	0.001787	27.4269	121.451	-161.824	0.104232	0.017471	-1.023257	-1.024517	0.063914	27.4269	-1.025005	-4.923698E+13	-1.298096E-15	NaN
1114	1.000000	0.026769	7.37595e+06	-55839.1	1055.82	-29740.6	0.000000	0.000000	6.026760	-0.005460	NaN	0.000000	0.001524	0.001712	28.0823	0.011935	0.001712	6.970104	41.1569	-164.253	-0.087112	0.025453	-1.015219	-1.016535	-0.005460	6.970104	-1.014631	-3.570359E+13	1.529382E-16	NaN
1114	1.000000	0.034753	7.37595e+06	-55839.1	1055.82	-29740.6	0.000000	0.000000	6.034745	0.022082	NaN	0.000000	0.001551	0.001679	28.0822	0.060474	0.001796	33.6693	-48.4545	-161.736	-0.011511	0.033423	-1.007235	-1.008564	0.022082	33.6693	-1.007727	-2.882606E+13	-7.660585E-16	NaN
1114	1.000000	0.042733	7.37595e+06	-55839.1	1055.82	-29740.6	0.000000	0.000000	6.042724	-0.021323	NaN	0.000000	0.001562	0.001687	28.0821	0.099389	0.001880	52.8593	75.0528	-162.253	0.038616	0.041453	-0.999254	-1.000534	-0.021323	52.8593	-0.998952	-2.196124E+13	9.709367E-16	NaN
1114	1.000000	0.050773	7.37595e+06	-55839.1	1055.82	-29740.6	0.000000	0.000000	6.050762	-0.040310	NaN	0.000000	0.001523	0.001700	28.0825	0.034610	0.002004	17.2675	3.669901	-167.798	0.055110	0.049437	-0.991215	-0.992550	-0.040310	17.2675	-0.989464	-1.636424E+13	2.463294E-15	NaN
1114	1.000000	0.058767	7.37595e+06	-55839.1	1055.82	-29740.6	0.000000	0.000000	6.058760	0.043639	NaN	0.000000	0.001538	0.001693	28.0821	0.072677	0.001852	39.2495	116.627	-165.455	0.037061	0.057464	-0.983221	-0.984524	0.043639	39.2495	-0.984055	-1.383672E+13	-3.153882E-15	NaN
1114	1.000000	0.066784	7.37595e+06	-55839.1	1055.82	-29740.6	0.000000	0.000000	6.066775	-0.015298	NaN	0.000000	0.001547	0.001696	28.0823	0.068552	0.002061	33.2622	-58.5109	-162.784	0.024430	0.065459	-0.975203	-0.976529	-0.015298	33.2622	-0.974858	-1.040239E+13	1.470620E-15	NaN
1114	1.000000	0.074765	7.37595e+06	-55839.1	1055.82	-29740.6	0.000000	0.000000	6.074755	-0.017666	NaN	0.000000	0.001584	0.001718	28.0822	0.089936	0.002025	44.4148	-148.905	-163.051	-0.007381	0.073452	-0.967223	-0.968536	-0.017666	44.4148	-0.966925	-8.132292E+12	2.172309E-15	NaN
1114	1.000000	0.082783	7.37595e+06	-55839.1	1055.82	-29740.6	0.000000	0.000000	6.082776	0.027294	NaN	0.000000	0.001536	0.001712	28.0823	0.091791	0.002049	44.8031	101.258	-166.072	0.069201	0.081444	-0.959204	-0.960544	0.027294	44.8031	-0.959661	-6.490830E+12	-4.204977E-15	NaN
1114	1.000000	0.090762	7.37595e+06	-55839.1	1055.82	-29740.6	0.000000	0.000000	6.090753	-0.015256	NaN	0.000000	0.001513	0.001715	28.0824	0.104738	0.002010	52.0991	43.5362	-165.446	0.012912	0.089424	-0.951226	-0.952564	-0.015256	52.0991	-0.951006	-4.961292E+12	3.075094E-15	NaN
1114	1.000000	0.098739	7.37595e+06	-55839.1	1055.82	-29740.6	0.000000	0.000000	6.098731	0.016012	NaN	0.000000	0.001583	0.001667	28.0823	0.041214	0.002007	20.5356	-99.8757	-165.59	-0.010037	0.097481	-0.943248	-0.944507	0.016012	20.5356	-0.943833	-3.970540E+12	-4.032753E-15	NaN
1114	1.000000	0.106780	7.37595e+06	-55839.1	1055.82	-29740.6	0.000000	0.000000	6.106769	-0.045799	NaN	0.000000	0.001561	0.001728	28.0825	0.147204	0.001938	75.9721	-85.2101	-167.664	-0.027558	0.105446	-0.935208	-0.936541	-0.045799	75.9721	-0.934756	-2.994865E+12	1.529248E-14	NaN
1114	1.000000	0.114794	7.37595e+06	-55839.1	1055.82	-29740.6	0.000000	0.000000	6.114784	-0.018861	NaN	0.000000	0.001541	0.001676	28.0822	0.041524	0.001868	22.2268	-71.8482	-168.052	0.104817	0.113537	-0.927194	-0.928450	-0.018861	22.2268	-0.926557	-2.321295E+12	8.125126E-15	NaN
1114	1.000000	0.122801	7.37595e+06	-55839.1	1055.82	-29740.6	0.000000	0.000000	6.122793	0.014958	NaN	0.000000	0.001511	0.001685	28.0825	0.028790	0.002022	14.2392	43.6348	-166.795	-0.042980	0.121511	-0.919187	-0.920476	0.014958	14.2392	-0.919975	-1.891749E+12	-7.907145E-15	NaN
1114	1.000000	0.130802	7.37595e+06	-55839.1	1055.82	-29740.6	0.000000	0.000000	6.130792	-0.025897	NaN	0.000000	0.001526	0.001702	28.0821	0.068217	0.002226	30.6517	-43.8839	-164.001	-0.096832	0.129469	-0.911186	-0.912519	-0.025897	30.6517	-0.910552	-1.411294E+12	1.834967E-14	NaN
1114	1.000000	0.138799	7.37595e+06	-55839.1	1055.82	-29740.6	0.000000	0.000000	6.138791	0.024205	NaN	0.000000	0.001531	0.001704	28.0823	0.034851	0.002025	17.2136	154.896	-163.179	0.016805	0.137472	-0.903189	-0.904515	0.024205	17.2136	-0.904243	-1.159848E+12	-2.086882E-14	NaN
1114	1.000000	0.146785	7.37595e+06	-55839.1	1055.82	-29740.6	0.000000	0.000000	6.146773	-0.070092	NaN	0.000000	0.001536	0.001706	28.0826	0.066703	0.002043	32.6574	-130.1	-166.505	-0.021705	0.145442	-0.895203	-0.896545	-0.070092	32.6574	-0.893593	-8.326855E+11	8.417602E-14	NaN
1114	1.000000	0.154797	7.37595e+06	-55839.1	1055.82	-29740.6	0.000000	0.000000	6.154787	-0.033143	NaN	0.000000	0.001550	0.001695	28.0824	0.048547	0.001978	24.5462	-21.6778	-164.687	-0.004821	0.153530	-0.887191	-0.888458	-0.033143	24.5462	-0.886178	-6.610660E+11	5.013581E-14	NaN
1114	1.000000	0.162773	7.37595e+06	-55839.1	1055.82	-29740.6	0.000000	0.000000	6.162764	-0.018507	NaN	0.000000	0.001544	0.001722	28.0836	0.032980	0.002023	16.3027	-15.656	-166.888	0.043855	0.161489	-0.879214	-0.880499	-0.018507	16.3027	-0.878363	-5.182816E+11	3.570919E-14	NaN
1114	1.000000	0.170787	7.37595e+06	-55839.1	1055.82	-29740.6	0.000000	0.000000	6.170779	0.014080	NaN	0.000000	0.001560	0.001712	28.0834	0.086443	0.001886	45.8324	-33.3775	-164.32	0.048417	0.169464	-0.871201	-0.872523	0.014080	45.8324	-0.871431	-4.176438E+11	-3.371278E-14	NaN
1114	1.000000	0.178802	7.37595e+06	-55839.1	1055.82	-29740.6	0.000000	0.000000	6.178795	0.056525	NaN	0.000000	0.001556	0.001693	28.0834	0.109183	0.002002	54.5275	-41.8761	-163.123	-0.015096	0.177474	-0.863186	-0.864514	0.056525	54.5275	-0.863963	-3.309504E+11	-1.707959E-13	NaN
1114	1.000000	0.186806	7.37595e+06	-55839.1	1055.82	-29740.6	0.000000	0.000000	6.186798	0.010030	NaN	0.000000	0.001559	0.001711	28.0833	0.044110	0.002017	21.8636	-110.95	-167.222	-0.001422	0.185466	-0.855182	-0.856522	0.010030	21.8636	-0.855526	-2.544206E+11	-3.942323E-14	NaN
1114	1.000000	0.194830	7.37595e+06	-55839.1	1055.82	-29740.6	0.000000	0.000000	6.194824	0.066452	NaN	0.000000	0.001560	0.001724	28.0834	0.123191	0.002011	61.2611	129.313	-163.458	0.086916	0.193499	-0.847158	-0.848489	0.066452	61.2611	-0.847971	-2.010319E+11	-3.305543E-13	NaN
1114	1.000000	0.202849	7.37595e+06	-55839.1	1055.82	-29740.6	0.000000	0.000000	6.202840	-0.009534	NaN	0.000000	0.001626	0.001727	28.0835	0.069937	0.002020	34.6234	131.332	-163.931	0.053061	0.201481	-0.839138	-0.840507	-0.009534	34.6234	-0.838932	-1.516427E+11	6.286991E-14	NaN
1114	1.000000	0.210805	7.37595e+06	-55839.1	1055.82	-29740.6	0.000000	0.000000	6.210798	0.033621	NaN	0.000000	0.001593	0.001743	28.0831	0.125385	0.002121	59.1068	110.017	-166.86	-0.001721	0.209445	-0.831182	-0.832542	0.033621	59.1068	-0.831609	-1.206668E+11	-2.786258E-13	NaN
1114	1.000000	0.218817	7.37595e+06	-55839.1	1055.82	-29740.6	0.000000	0.000000	6.218810	0.049610	NaN	0.000000	0.001594	0.001696	28.0838	0.098946	0.001981	49.9494	-29.5133	-162.837	0.054019	0.217538	-0.823170	-0.824449	0.049610	49.9494	-0.823915	-9.490742E+10	-5.227190E-13	NaN
1114	1.000000	0.226837	7.37595e+06	-55839.1	1055.82	-29740.6	0.000000	0.000000	6.226827	-0.022117	NaN	0.000000	0.001610	0.001697	28.0832	0.044698	0.002083	21.4618	-29.1344	-162.753	-0.017079	0.225537	-0.815151	-0.816450	-0.022117	21.4618	-0.814378	-7.046338E+10	3.138749E-13	NaN
1114	1.000000	0.234829	7.37595e+06	-55839.1	1055.82	-29740.6	0.000000	0.000000	6.234821	0.007801	NaN	0.000000	0.001606	0.001729	28.0833	0.073709	0.001946	37.8814	-5.806405	-164.692	0.077857	0.233488	-0.807158	-0.808499	0.007801	37.8814	-0.807313	-5.650825E+10	-1.380449E-13	NaN
1114	1.000000	0.242816	7.37595e+06	-55839.1	1055.82	-29740.6	0.000000	0.000000	6.242808	0.001115	NaN	0.000000	0.001606	0.001723	28.0832	0.025440	0.002063	12.3324	-22.6753	-162.401	-0.005389	0.241554	-0.799171	-0.800434	0.001115	12.3324	-0.799239	-4.390708E+10	-2.539457E-14	NaN
1114	1.000000	0.250819	7.37595e+06	-55839.1	1055.82	-29740.6	0.000000	0.000000	6.250810	0.014383	NaN	0.000000	0.001609	0.001716	28.0832	0.031956	0.002025	15.7797	136.625	-168.72	-0.012924	0.249524	-0.791169	-0.792464	0.014383	15.7797	-0.791853	-3.485319E+10	-4.126792E-13	NaN
1114	1.000000	0.258827	7.37595e+06	-55839.1	1055.82	-29740.6	0.000000	0.000000	6.258818	-0.008769	NaN	0.000000	0.001614	0.001722	28.084	0.121868	0.002115	57.6102	133.983	-165.685	-0.007301	0.257522	-0.783161	-0.784466	-0.008769	57.6102	-0.783046	-2.646225E+10	3.313864E-13	NaN
1114	1.000000	0.266845	7.37595e+06	-55839.1	1055.82	-29740.6	0.000000	0.000000	6.266838	0.029109	NaN	0.000000	0.001599	0.001712	28.0833	0.106129	0.002048	51.8198	104.769	-162.458	-0.046063	0.265554	-0.775142	-0.776433	0.029109	51.8198	-0.775564	-2.093819E+10	-1.390236E-12	NaN
1114	1.000000	0.274838	7.37595e+06	-55839.1	1055.82	-29740.6	0.000000	0.000000	6.274828	-0.018592	NaN	0.000000	0.001532	0.001728	28.0834	0.062023	0.002002	30.9766	88.6005	-167.502	0.016492	0.273561	-0.767150	-0.768426	-0.018592	30.9766	-0.766700	-1.586454E+10	1.171908E-12	NaN
1114	1.000000	0.282832	7.37595e+06	-55839.1	1055.82	-29740.6	0.000000	0.000000	6.282824	0.011893	NaN	0.000000	0.001551	0.001701	28.0834	0.111631	0.001806	61.8027	-124.877	-168.24	0.105605	0.281556	-0.759156	-0.760431	0.011893	61.8027	-0.759300	-1.258281E+10	-9.451883E-13	NaN
1114	1.000000	0.290841	7.37595e+06	-55839.1	1055.82	-29740.6	0.000000	0.000000	6.290833	0.005971	NaN	0.000000	0.001541	0.001729	28.0834	0.073609	0.001954	37.6701	53.384	-165.937	0.042076	0.289524	-0.751146	-0.752464	0.005971	37.6701	-0.751265	-9.782298E+9	-6.103421E-13	NaN
1114	1.000000	0.298875	7.37595e+06	-55839.1	1055.82	-29740.6	0.000000	0.000000	6.298865	-0.037639	NaN	0.000000	0.001525	0.001714	28.0826	0.113631	0.002073	54.803	-138.808	-165.452	0.032079	0.297531	-0.743112	-0.744456	-0.037639	54.803	-0.742597	-7.454689E+9	5.049073E-12	NaN
1114	1.000000	0.306849	7.37595e+06	-55839.1	1055.82	-29740.6	0.000000	0.000000	6.306842	0.028632	NaN	0.000000	0.001556	0.001725	28.0823	0.102725	0.002089	49.1743	-17.8535	-165.887	0.024055	0.305595	-0.735138	-0.736393	0.028632	49.1743	-0.735575	-5.981033E+9	-4.787076E-12	NaN
1114	1.000000	0.314824	7.37595e+06	-55839.1	1055.82	-29740.6	0.000000	0.000000	6.314816	0.037256	NaN	0.000000	0.001527	0.001706	28.0823	0.077182	0.002060	37.4596	-48.2768	-163.604	0.015119	0.313599	-0.727164	-0.728389	0.037256	37.4596	-0.727910	-4.702394E+9	-7.922813E-12	NaN
1114	1.000000	0.322887	7.37595e+06	-55839.1	1055.82	-29740.6	0.000000	0.000000	6.322878	-0.008291	NaN	0.000000	0.001528	0.001720	28.0823	0.092437	0.002062	44.8301	61.1247	-162.721	0.036662	0.321606	-0.719100	-0.720381	-0.008291	44.8301	-0.718962	-3.550681E+9	2.335017E-12	NaN
1114	1.000000	0.330875	7.37595e+06	-55839.1	1055.82	-29740.6	0.000000	0.000000	6.330869	0.061173	NaN	0.000000	0.001523	0.001690	28.0823	0.031860	0.001970	16.1748	-59.5817	-165.125	0.058754	0.329554	-0.711113	-0.712433	0.061173	16.1748	-0.713949	-3.033429E+9	-2.016631E-11	NaN
1114	1.000000	0.338890	7.37595e+06	-55839.1	1055.82	-29740.6	0.000000	0.000000	6.338879	-0.053163	NaN	0.000000	0.001547	0.001664	28.0823	0.023448	0.001952	12.0125	170.447	-164.415	-0.080675	0.337582	-0.703097	-0.704405	-0.053163	12.0125	-0.699778	-1.943115E+9	2.735966E-11	NaN
1114	1.000000	0.346865	7.37595e+06	-55839.1	1055.82	-29740.6	0.000000	0.000000	6.346857	0.014783	NaN	0.000000	0.001568	0.001696	28.0823	0.042288	0.002049	20.6367	66.468	-166.131	0.118562	0.345534	-0.695123	-0.696453	0.014783	20.6367	-0.695660	-1.707068E+9	-8.660079E-12	NaN
1114	1.000000	0.354875	7.37595e+06	-55839.1	1055.82	-29740.6	0.000000	0.000000	6.354866	0.000978	NaN	0.000000	0.001577	0.001671	28.0825	0.037358	0.002007	18.6157	-127.97	-165.945	-0.055677	0.353543	-0.687113	-0.688444	0.000978	18.6157	-0.687152	-1.306145E+9	-7.487004E-13	NaN
1114	1.000000	0.362907	7.37595e+06	-55839.1	1055.82	-29740.6	0.000000	0.000000	6.362900	0.045186	NaN	0.000000	0.001574	0.001737	28.0825	0.010614	0.001777	5.974064	89.9478	-164.641	-0.026474	0.361625	-0.679080	-0.680363	0.045186	5.974064	-0.684753	-1.211154E+9	-3.730815E-11	NaN
1114	1.000000	0.370907	7.37595e+06	-55839.1	1055.82	-29740.6	0.000000	0.000000	6.370897	-0.029691	NaN	0.000000	0.001583	0.001704	28.0825	0.035794	0.001932	18.5301	50.7916	-162.697	-0.074244	0.369591	-0.671081	-0.672397	-0.029691	18.5301	-0.669879	-7.581112E+8	3.916454E-11	NaN
1114	1.000000	0.378885	7.37595e+06	-55839.1	1055.82	-29740.6	0.000000	0.000000	6.378874	-0.057937	NaN	0.000000	0.001593	0.001720	28.0824	0.116475	0.002045	56.9529	-134.538	-164.196	-0.022230	0.377596	-0.663103	-0.664392	-0.057937	56.9529	-0.662340	-5.977397E+8	9.692634E-11	NaN
1114	1.000000	0.386905	7.37595e+06	-55839.1	1055.82	-29740.6	0.000000	0.000000	6.386897	0.020152	NaN	0.000000	0.001582	0.001732	28.0824	0.036450	0.002027	17.98	135.667	-165.744	0.046730	0.385612	-0.655082	-0.656376	0.020152	17.98	-0.655923	-4.882179E+8	-4.127640E-11	NaN
1114	1.000000	0.394918	7.37595e+06	-55839.1	1055.82	-29740.6	0.000000	0.000000	6.394913	0.095101	NaN	0.000000	0.001584	0.001699	28.0841	0.122642	0.001992	61.5538	-89.7935	-166.165	0.109459	0.393589	-0.647070	-0.648399	0.095101	61.5538	-0.648228	-3.829542E+8	-2.483348E-10	NaN
1114	1.000000	0.402857	7.37595e+06	-55839.1	1055.82	-29740.6	0.000000	0.000000	6.402850	0.040301	NaN	0.000000	0.001577	0.001742	28.0828	0.098824	0.001906	51.8574	-104.231	-166.745	0.012028	0.401588	-0.639130	-0.640399	0.040301	51.8574	-0.639713	-2.926547E+8	-1.377090E-10	NaN
1114	1.000000	0.410918	7.37595e+06	-55839.1	1055.82	-29740.6	0.000000	0.000000	6.410911	0.039152	NaN	0.000000	0.001579	0.001753	28.0825	0.062311	0.002093	29.7683	11.6291	-165.072	0.116826	0.409596	-0.631070	-0.632392	0.039152	29.7683	-0.632056	-2.297497E+8	-1.704109E-10	NaN
1114	1.000000	0.418922	7.37595e+06	-55839.1	1055.82	-29740.6	0.000000	0.000000	6.418913	0.010262	NaN	0.000000	0.001585	0.001736	28.0824	0.067188	0.001881	35.7192	95.5798	-168.079	-0.024117	0.417629	-0.623066	-0.624359	0.010262	35.7192	-0.623281	-1.740718E+8	-5.895275E-11	NaN
1114	1.000000	0.426908	7.37595e+06	-55839.1	1055.82	-29740.6	0.000000	0.000000	6.426902	0.056158	NaN	0.000000	0.001600	0.001729	28.0824	0.051464	0.002060	24.9807	71.4317	-164.883	0.008944	0.425570	-0.615079	-0.616418	0.056158	24.9807	-0.616765	-1.416334E+8	-3.965017E-10	NaN
1114	1.000000	0.434906	7.37595e+06	-55839.1	1055.82	-29740.6	0.000000	0.000000	6.434901	0.090855	NaN	0.000000	0.001576	0.001751	28.0837	0.001254	0.002118	0.592131	-2.353206	-167.302	0.062354	0.433655	-0.607081	-0.608332	0.090855	0.592131	-0.722160	-3.925766E+9	-2.314333E-11	NaN
1114	1.000000	0.442945	7.37595e+06	-55839.1	1055.82	-29740.6	0.000000	0.000000	6.442937	0.017693	NaN	0.000000	0.001563	0.001751	28.0837	0.060620	0.001977	30.6577	-124.552	-165.889	-0.018907	0.441575	-0.599043	-0.600412	0.017693	30.6577	-0.599476	-8.189131E+7	-2.160553E-10	NaN
1114	1.000000	0.450930	7.37595e+06	-55839.1	1055.82	-29740.6	0.000000	0.000000	6.450920	-0.022869	NaN	0.000000	0.001557	0.001732	28.0841	0.082611	0.002030	40.6924	-93.2459	-164.588	-0.072875	0.449656	-0.591058	-0.592331	-0.022869	40.6924	-0.590636	-6.186371E+7	3.696700E-10	NaN
1114	1.000000	0.458910	7.37595e+06	-55839.1	1055.82	-29740.6	0.000000	0.000000	6.458901	0.010184	NaN	0.000000	0.001573	0.001711	28.0836	0.039331	0.002094	18.7863	171.276	-162.556	0.000997	0.457591	-0.583078	-0.584397	0.010184	18.7863	-0.583484	-4.929537E+7	-2.065960E-10	NaN
1114	1.000000	0.466941	7.37595e+06	-55839.1	1055.82	-29740.6	0.000000	0.000000	6.466934	0.039231	NaN	0.000000	0.001562	0.001762	28.0839	0.067707	0.001984	34.1274	122.456	-165.49	0.028630	0.465639	-0.575046	-0.576349	0.039231	34.1274	-0.575909	-3.874758E+7	-1.012473E-9	NaN
1114	1.000000	0.474919	7.37595e+06	-55839.1	1055.82	-29740.6	0.000000	0.000000	6.474913	0.073422	NaN	0.000000	0.001591	0.001765	28.0837	0.036778	0.001960	18.7656	-55.2088	-165.912	0.093167	0.473695	-0.567069	-0.568293	0.073422	18.7656	-0.570003	-3.211293E+7	-2.286380E-9	NaN
1114	1.000000	0.482927	7.37595e+06	-55839.1	1055.82	-29740.6	0.000000	0.000000	6.482918	-0.003149	NaN	0.000000	0.001537	0.001797	28.0837	0.104066	0.002038	51.0542	-160.547	-168.013	0.005844	0.481676	-0.559060	-0.560312	-0.003149	51.0542	-0.559014	-2.263269E+7	1.391523E-10	NaN
1114	1.000000	0.490945	7.37595e+06	-55839.1	1055.82	-29740.6	0.000000	0.000000	6.490939	0.059166	NaN	0.000000	0.001547	0.001743	28.0839	0.015122	0.001879	8.048298	-125.932	-164.737	0.100020	0.489606	-0.551042	-0.552381	0.059166	8.048298	-0.556556	-2.092768E+7	-2.827147E-9	NaN
1114	1.000000	0.498912	7.37595e+06	-55839.1	1055.82	-29740.6	0.000000	0.000000	6.498902	-0.017590	NaN	0.000000	0.001523	0.001760	28.0837	0.049736	0.001974	25.1909	-161.208	-166.385	-0.069469	0.497596	-0.543076	-0.544392	-0.017590	25.1909	-0.542552	-1.338905E+7	1.313726E-9	NaN
1114	1.000000	0.506923	7.37595e+06	-55839.1	1055.82	-29740.6	0.000000	0.000000	6.506919	0.102648	NaN	0.000000	0.001535	0.001733	28.084	0.048099	0.001928	24.9475	106.122	-166.574	0.109091	0.505647	-0.535064	-0.536341	0.102648	24.9475	-0.538150	-1.163328E+7	-8.823625E-9	NaN
1114	1.000000	0.514953	7.37595e+06	-55839.1	1055.82	-29740.6	0.000000	0.000000	6.514945	0.013135	NaN	0.000000	0.001536	0.001728	28.0836	0.077134	0.001947	39.6109	38.7067	-164.495	0.039374	0.513676	-0.527034	-0.528311	0.013135	39.6109	-0.527283	-8.21927e+06	-1.598091E-9	NaN
1114	1.000000	0.522946	7.37595e+06	-55839.1	1055.82	-29740.6	0.000000	0.000000	6.522937	0.000424	NaN	0.000000	0.001555	0.001734	28.0837	0.098173	0.001920	51.1359	-26.8794	-161.95	0.102536	0.521654	-0.519042	-0.520334	0.000424	51.1359	-0.519048	-6.3148e+06	-6.718559E-11	NaN
1114	1.000000	0.530965	7.37595e+06	-55839.1	1055.82	-29740.6	0.000000	0.000000	6.530956	-0.024720	NaN	0.000000	0.001554	0.001739	28.0835	0.009666	0.001989	4.859235	-68.1232	-165.477	-0.015017	0.529674	-0.511022	-0.512314	-0.024720	4.859235	-0.507207	-4.32019e+06	5.721933E-9	NaN
1114	1.000000	0.538949	7.37595e+06	-55839.1	1055.82	-29740.6	0.000000	0.000000	6.538938	-0.035532	NaN	0.000000	0.001581	0.001718	28.0835	0.082271	0.002056	40.0055	139.003	-165.055	-0.104392	0.537702	-0.503039	-0.504286	-0.035532	40.0055	-0.502373	-3.69925e+06	9.605130E-9	NaN
1114	1.000000	0.546977	7.37595e+06	-55839.1	1055.82	-29740.6	0.000000	0.000000	6.546969	0.016409	NaN	0.000000	0.001568	0.001712	28.0842	0.094654	0.001856	50.9929	-15.4383	-162.28	0.023174	0.545655	-0.495010	-0.496332	0.016409	50.9929	-0.495251	-2.9427e+06	-5.576201E-9	NaN
1114	1.000000	0.554945	7.37595e+06	-55839.1	1055.82	-29740.6	0.000000	0.000000	6.554938	0.046844	NaN	0.000000	0.001579	0.001716	28.0836	0.185166	0.001910	96.9331	-41.4083	-161.403	0.042587	0.553605	-0.487042	-0.488382	0.046844	96.9331	-0.487405	-2.28623e+06	-2.048951E-8	NaN
1114	1.000000	0.563002	7.37595e+06	-55839.1	1055.82	-29740.6	0.000000	0.000000	6.562993	0.001480	NaN	0.000000	0.001579	0.001721	28.0836	0.041997	0.001988	21.1216	62.2766	-166.817	-0.024826	0.561746	-0.478985	-0.480242	0.001480	21.1216	-0.479038	-1.74606e+06	-8.478286E-10	NaN
1114	1.000000	0.570967	7.37595e+06	-55839.1	1055.82	-29740.6	0.000000	0.000000	6.570959	0.013742	NaN	0.000000	0.001549	0.001689	28.0824	0.044931	0.001967	22.8449	-149.926	-166.521	-0.004517	0.569642	-0.471020	-0.472346	0.013742	22.8449	-0.471472	-1.36787e+06	-1.004642E-8	NaN
1114	1.000000	0.578963	7.37595e+06	-55839.1	1055.82	-29740.6	0.000000	0.000000	6.578957	0.049158	NaN	0.000000	0.001528	0.001704	28.0824	0.049603	0.002005	24.7454	-83.2121	-164.501	0.052532	0.577743	-0.463024	-0.464244	0.049158	24.7454	-0.464514	-1.09251e+06	-4.499541E-8	NaN
1114	1.000000	0.586979	7.37595e+06	-55839.1	1055.82	-29740.6	0.000000	0.000000	6.586973	0.067095	NaN	0.000000	0.001526	0.001701	28.0825	0.037484	0.002016	18.5934	-109.684	-165.717	0.025885	0.585700	-0.455009	-0.456288	0.067095	18.5934	-0.457715	-876807	-7.652212E-8	NaN
1114	1.000000	0.594992	7.37595e+06	-55839.1	1055.82	-29740.6	0.000000	0.000000	6.594983	0.002919	NaN	0.000000	0.001506	0.001690	28.0824	0.121228	0.002016	60.1316	-116.333	-166.039	-0.011743	0.593647	-0.446996	-0.448341	0.002919	60.1316	-0.447032	-620207	-4.705726E-9	NaN
1114	1.000000	0.603001	7.37595e+06	-55839.1	1055.82	-29740.6	0.000000	0.000000	6.602995	0.062245	NaN	0.000000	0.001541	0.001713	28.0825	0.160709	0.002116	75.9568	-77.1454	-162.57	-0.020819	0.601717	-0.438986	-0.440271	0.062245	75.9568	-0.439601	-487225	-1.277546E-7	NaN
1114	1.000000	0.610971	7.37595e+06	-55839.1	1055.82	-29740.6	0.000000	0.000000	6.610963	0.007520	NaN	0.000000	0.001543	0.001685	28.0825	0.024909	0.002148	11.599	110.969	-165.028	-0.016995	0.609627	-0.431016	-0.432361	0.007520	11.599	-0.431503	-374382	-2.008776E-8	NaN
1114	1.000000	0.619000	7.37595e+06	-55839.1	1055.82	-29740.6	0.000000	0.000000	6.618993	0.027233	NaN	0.000000	0.001539	0.001698	28.0826	0.144233	0.002011	71.7368	163.867	-165.887	-0.003392	0.617729	-0.422987	-0.424259	0.027233	71.7368	-0.423272	-286286	-9.512687E-8	NaN
1114	1.000000	0.626972	7.37595e+06	-55839.1	1055.82	-29740.6	0.000000	0.000000	6.626965	0.041463	NaN	0.000000	0.001530	0.001698	28.0825	0.092624	0.002131	43.4682	-102.808	-163.695	0.044290	0.625716	-0.415015	-0.416272	0.041463	43.4682	-0.415731	-223786	-1.852797E-7	NaN
1114	1.000000	0.634998	7.37595e+06	-55839.1	1055.82	-29740.6	0.000000	0.000000	6.634990	0.028178	NaN	0.000000	0.001521	0.001692	28.0826	0.037658	0.001932	19.4961	-92.4301	-165.787	0.032342	0.633655	-0.406990	-0.408332	0.028178	19.4961	-0.408074	-174180	-1.617737E-7	NaN
1114	1.000000	0.643001	7.37595e+06	-55839.1	1055.82	-29740.6	0.000000	0.000000	6.642991	-0.029905	NaN	0.000000	0.001581	0.001731	28.0828	0.044737	0.002012	22.2358	-47.3014	-165.277	0.030581	0.641634	-0.398987	-0.400353	-0.029905	22.2358	-0.397978	-125069	2.391093E-7	NaN
1114	1.000000	0.651002	7.37595e+06	-55839.1	1055.82	-29740.6	0.000000	0.000000	6.650995	0.037357	NaN	0.000000	0.001628	0.001694	28.0827	0.055264	0.002071	26.6838	91.1372	-163.199	-0.002748	0.649645	-0.390985	-0.392343	0.037357	26.6838	-0.392035	-102865	-3.631635E-7	NaN
1114	1.000000	0.659009	7.37595e+06	-55839.1	1055.82	-29740.6	0.000000	0.000000	6.659000	0.000477	NaN	0.000000	0.001635	0.001660	28.0829	0.033555	0.001935	17.3412	24.6268	-165.753	0.019023	0.657642	-0.382979	-0.384345	0.000477	17.3412	-0.382999	-76368.4	-6.247513E-9	NaN
1114	1.000000	0.667019	7.37595e+06	-55839.1	1055.82	-29740.6	0.000000	0.000000	6.667011	0.018019	NaN	0.000000	0.001608	0.001653	28.0825	0.086855	0.001880	46.2042	-93.0448	-166.209	-0.024755	0.665692	-0.374969	-0.376296	0.018019	46.2042	-0.375261	-59132.9	-3.047241E-7	NaN
1114	1.000000	0.675033	7.37595e+06	-55839.1	1055.82	-29740.6	0.000000	0.000000	6.675028	0.094054	NaN	0.000000	0.001589	0.001688	28.0825	0.088028	0.001970	44.6859	-149.103	-164.818	0.041030	0.673661	-0.366955	-0.368326	0.094054	44.6859	-0.368533	-47315.3	-1.987807E-6	NaN
1114	1.000000	0.683011	7.37595e+06	-55839.1	1055.82	-29740.6	0.000000	0.000000	6.683003	0.015950	NaN	0.000000	0.001607	0.001717	28.0827	0.106829	0.002028	52.6652	-70.4425	-167.657	0.113698	0.681702	-0.358976	-0.360285	0.015950	52.6652	-0.359203	-34699.7	-4.596558E-7	NaN
1114	1.000000	0.691011	7.37595e+06	-55839.1	1055.82	-29740.6	0.000000	0.000000	6.691004	0.045923	NaN	0.000000	0.001584	0.001724	28.0827	0.098671	0.001888	52.2532	176.118	-164.959	0.043279	0.689683	-0.350977	-0.352305	0.045923	52.2532	-0.351636	-26960.9	-1.703318E-6	NaN
1114	1.000000	0.699036	7.37595e+06	-55839.1	1055.82	-29740.6	0.000000	0.000000	6.699028	0.019673	NaN	0.000000	0.001611	0.001705	28.0826	0.051891	0.001978	26.237	-58.6283	-163.013	0.005106	0.697734	-0.342951	-0.344254	0.019673	26.237	-0.343514	-20546.2	-9.574915E-7	NaN
1114	1.000000	0.707009	7.37595e+06	-55839.1	1055.82	-29740.6	0.000000	0.000000	6.707001	0.013735	NaN	0.000000	0.001617	0.001696	28.0837	0.126241	0.001994	63.3106	-143.887	-163.285	0.041659	0.705720	-0.334978	-0.336267	0.013735	63.3106	-0.335141	-15511.2	-8.854712E-7	NaN
1114	1.000000	0.715032	7.37595e+06	-55839.1	1055.82	-29740.6	0.000000	0.000000	6.715028	0.103348	NaN	0.000000	0.001613	0.001688	28.0838	0.086294	0.001971	43.7784	26.6205	-165.599	0.078157	0.713726	-0.326955	-0.328262	0.103348	43.7784	-0.328726	-12496.4	-8.270218E-6	NaN
1114	1.000000	0.723026	7.37595e+06	-55839.1	1055.82	-29740.6	0.000000	0.000000	6.723016	-0.016164	NaN	0.000000	0.001609	0.001682	28.0837	0.090378	0.002028	44.5571	150.54	-164.623	-6.568868E-5	0.721722	-0.318962	-0.320265	-0.016164	44.5571	-0.318690	-8899.07	1.816326E-6	NaN
1114	1.000000	0.731039	7.37595e+06	-55839.1	1055.82	-29740.6	0.000000	0.000000	6.731029	-0.030412	NaN	0.000000	0.001632	0.001689	28.0839	0.098575	0.002056	47.9424	125.473	-159.185	0.072515	0.729754	-0.310949	-0.312234	-0.030412	47.9424	-0.310473	-6730.59	4.518507E-6	NaN
1114	1.000000	0.739021	7.37595e+06	-55839.1	1055.82	-29740.6	0.000000	0.000000	6.739012	-0.002790	NaN	0.000000	0.001594	0.001712	28.084	0.207210	0.002022	102.495	113.206	-166.061	-0.017772	0.737797	-0.302966	-0.304190	-0.002790	102.495	-0.302946	-5205.35	5.359811E-7	NaN
1114	1.000000	0.747029	7.37595e+06	-55839.1	1055.82	-29740.6	0.000000	0.000000	6.747021	0.039306	NaN	0.000000	0.001599	0.001700	28.0836	0.019097	0.002136	8.939938	-99.0272	-164.156	-0.017599	0.745769	-0.294959	-0.296219	0.039306	8.939938	-0.298257	-4432.7	-8.867299E-6	NaN
1114	1.000000	0.755083	7.37595e+06	-55839.1	1055.82	-29740.6	0.000000	0.000000	6.755076	0.034125	NaN	0.000000	0.001632	0.001711	28.0839	0.022690	0.001954	11.6129	71.3713	-162.948	0.039517	0.753673	-0.286905	-0.288315	0.034125	11.6129	-0.289108	-3235.5	-1.054692E-5	NaN
1114	1.000000	0.763037	7.37595e+06	-55839.1	1055.82	-29740.6	0.000000	0.000000	6.763029	0.022277	NaN	0.000000	0.001639	0.001713	28.0838	0.014140	0.002042	6.923580	-0.674701	-167.453	0.009686	0.761764	-0.278951	-0.280224	0.022277	6.923580	-0.281364	-2474.79	-9.001640E-6	NaN
1114	1.000000	0.771044	7.37595e+06	-55839.1	1055.82	-29740.6	0.000000	0.000000	6.771036	0.032472	NaN	0.000000	0.001598	0.001701	28.0838	0.073827	0.001946	37.9384	-176.034	-162.005	0.061654	0.769715	-0.270944	-0.272273	0.032472	37.9384	-0.271586	-1760.49	-1.844485E-5	NaN
1114	1.000000	0.779069	7.37595e+06	-55839.1	1055.82	-29740.6	0.000000	0.000000	6.779063	0.057607	NaN	0.000000	0.001634	0.001705	28.0841	0.045483	0.001995	22.802	-147.38	-166.228	0.117493	0.777816	-0.262919	-0.264172	0.057607	22.802	-0.264813	-1388.48	-4.148907E-5	NaN
1114	1.000000	0.787073	7.37595e+06	-55839.1	1055.82	-29740.6	0.000000	0.000000	6.787067	0.072841	NaN	0.000000	0.001610	0.001694	28.0838	0.032430	0.002120	15.3001	-16.2624	-166.145	0.086182	0.785794	-0.254915	-0.256193	0.072841	15.3001	-0.258485	-1110.93	-6.556725E-5	NaN
1114	1.000000	0.795089	7.37595e+06	-55839.1	1055.82	-29740.6	0.000000	0.000000	6.795081	0.014345	NaN	0.000000	0.001617	0.001691	28.0839	0.098652	0.002146	45.9645	44.0916	-163.04	0.027832	0.793748	-0.246898	-0.248239	0.014345	45.9645	-0.247133	-742.263	-1.932598E-5	NaN
1114	1.000000	0.803060	7.37595e+06	-55839.1	1055.82	-29740.6	0.000000	0.000000	6.803058	0.164440	NaN	0.000000	0.001611	0.001680	28.0837	0.114938	0.001956	58.7478	99.2579	-162.916	0.111132	0.801783	-0.238927	-0.240204	0.164440	58.7478	-0.241027	-596.459	-0.000276	NaN
1114	1.000000	0.811081	7.37595e+06	-55839.1	1055.82	-29740.6	0.000000	0.000000	6.811074	0.053626	NaN	0.000000	0.001585	0.001713	28.084	0.051777	0.001769	29.2712	-91.1181	-162.08	-0.000843	0.809767	-0.230907	-0.232220	0.053626	29.2712	-0.232281	-434.996	-0.000123	NaN
1114	1.000000	0.819076	7.37595e+06	-55839.1	1055.82	-29740.6	0.000000	0.000000	6.819067	0.001020	NaN	0.000000	0.001590	0.001705	28.0839	0.081755	0.001979	41.3188	-124.438	-166.228	0.000319	0.817753	-0.222912	-0.224235	0.001020	41.3188	-0.222930	-309.327	-3.298532E-6	NaN
1114	1.000000	0.827094	7.37595e+06	-55839.1	1055.82	-29740.6	0.000000	0.000000	6.827086	0.018195	NaN	0.000000	0.001628	0.001710	28.0838	0.080226	0.002022	39.6824	84.4145	-160.985	0.033785	0.825778	-0.214894	-0.216209	0.018195	39.6824	-0.215238	-232.991	-7.809423E-5	NaN
1114	1.000000	0.835053	7.37595e+06	-55839.1	1055.82	-29740.6	0.000000	0.000000	6.835044	-0.002387	NaN	0.000000	0.001652	0.001740	28.0837	0.064572	0.001933	33.4044	-123.86	-162.583	0.001466	0.833763	-0.206934	-0.208224	-0.002387	33.4044	-0.206881	-170.683	1.398391E-5	NaN
1114	1.000000	0.843076	7.37595e+06	-55839.1	1055.82	-29740.6	0.000000	0.000000	6.843068	0.010062	NaN	0.000000	0.001639	0.001703	28.0824	0.124568	0.001981	62.8918	110.074	-170.352	0.057475	0.841740	-0.198912	-0.200247	0.010062	62.8918	-0.199032	-126.99	-7.923649E-5	NaN
1114	1.000000	0.851096	7.37595e+06	-55839.1	1055.82	-29740.6	0.000000	0.000000	6.851087	0.012201	NaN	0.000000	0.001627	0.001722	28.0826	0.057668	0.002130	27.0713	29.2498	-162.867	-0.055357	0.849756	-0.190892	-0.192232	0.012201	27.0713	-0.191230	-94.3093	-0.000129	NaN
1114	1.000000	0.859102	7.37595e+06	-55839.1	1055.82	-29740.6	0.000000	0.000000	6.859093	-0.013738	NaN	0.000000	0.001619	0.001693	28.0827	0.087520	0.002065	42.3869	-146.027	-165.824	-0.090941	0.857854	-0.182886	-0.184134	-0.013738	42.3869	-0.182643	-67.6571	0.000203	NaN
1114	1.000000	0.867092	7.37595e+06	-55839.1	1055.82	-29740.6	0.000000	0.000000	6.867085	0.039871	NaN	0.000000	0.001589	0.001706	28.0827	0.041448	0.002036	20.3586	-68.5724	-164.917	0.023578	0.865783	-0.174895	-0.176205	0.039871	20.3586	-0.176364	-52.8919	-0.000754	NaN
1114	1.000000	0.875107	7.37595e+06	-55839.1	1055.82	-29740.6	0.000000	0.000000	6.875101	0.055759	NaN	0.000000	0.001592	0.001717	28.083	0.035867	0.002013	17.8176	89.9569	-167.935	0.044190	0.873776	-0.166880	-0.168212	0.055759	17.8176	-0.169227	-39.8279	-0.001400	NaN
1114	1.000000	0.883096	7.37595e+06	-55839.1	1055.82	-29740.6	0.000000	0.000000	6.883089	0.055490	NaN	0.000000	0.001590	0.001702	28.0827	0.015658	0.001919	8.159215	158.731	-165.051	0.056184	0.881814	-0.158892	-0.160174	0.055490	8.159215	-0.163993	-32.2549	-0.001720	NaN
1114	1.000000	0.891121	7.37595e+06	-55839.1	1055.82	-29740.6	0.000000	0.000000	6.891114	0.046578	NaN	0.000000	0.001571	0.001693	28.0827	0.067715	0.001967	34.4248	92.3447	-166.934	0.093855	0.889759	-0.150866	-0.152228	0.046578	34.4248	-0.151881	-19.5986	-0.002377	NaN
1114	1.000000	0.899105	7.37595e+06	-55839.1	1055.82	-29740.6	0.000000	0.000000	6.899093	-0.074601	NaN	0.000000	0.001573	0.001716	28.0827	0.049550	0.001940	25.5409	23.7227	-157.707	-0.040466	0.897811	-0.142883	-0.144176	-0.074601	25.5409	-0.140692	-12.1887	0.006120	NaN
1114	1.000000	0.907084	7.37595e+06	-55839.1	1055.82	-29740.6	0.000000	0.000000	6.907076	0.014693	NaN	0.000000	0.001583	0.001706	28.0827	0.058022	0.001973	29.4149	-43.4234	-164.256	0.044159	0.905799	-0.134903	-0.136189	0.014693	29.4149	-0.135278	-9.629203	-0.001526	NaN
1114	1.000000	0.915109	7.37595e+06	-55839.1	1055.82	-29740.6	0.000000	0.000000	6.915100	-0.013043	NaN	0.000000	0.001587	0.001709	28.0826	0.008449	0.002137	3.953872	-109.044	-166.378	0.012628	0.913753	-0.126878	-0.128235	-0.013043	3.953872	-0.124404	-5.918199	0.002204	NaN
1114	1.000000	0.923114	7.37595e+06	-55839.1	1055.82	-29740.6	0.000000	0.000000	6.923102	-0.080873	NaN	0.000000	0.001576	0.001723	28.0827	0.040393	0.001860	21.7209	24.7851	-166.085	0.002485	0.921769	-0.118874	-0.120218	-0.080873	21.7209	-0.116081	-4.021073	0.020112	NaN
1114	1.000000	0.931125	7.37595e+06	-55839.1	1055.82	-29740.6	0.000000	0.000000	6.931116	-0.018583	NaN	0.000000	0.001607	0.001724	28.0828	0.044582	0.002033	21.9294	-45.8074	-165.615	-0.075508	0.929860	-0.110862	-0.112128	-0.018583	21.9294	-0.110227	-3.038428	0.006116	NaN
1114	1.000000	0.939146	7.37595e+06	-55839.1	1055.82	-29740.6	0.000000	0.000000	6.939137	-0.002206	NaN	0.000000	0.001577	0.001686	28.0828	0.115283	0.002082	55.3659	117.767	-169.706	0.003093	0.937837	-0.102842	-0.104150	-0.002206	55.3659	-0.102812	-2.106890	0.001047	NaN
1114	1.000000	0.947116	7.37595e+06	-55839.1	1055.82	-29740.6	0.000000	0.000000	6.947107	-0.003962	NaN	0.000000	0.001577	0.001699	28.0826	0.087391	0.001957	44.6476	-81.7776	-163.237	0.005523	0.945820	-0.094872	-0.096167	-0.003962	44.6476	-0.094805	-1.396272	0.002837	NaN
1114	1.000000	0.955128	7.37595e+06	-55839.1	1055.82	-29740.6	0.000000	0.000000	6.955120	0.009719	NaN	0.000000	0.001615	0.001722	28.0827	0.047191	0.001943	24.2921	151.337	-162.643	0.020360	0.953824	-0.086859	-0.088164	0.009719	24.2921	-0.087159	-0.925944	-0.010496	NaN
1114	1.000000	0.963140	7.37595e+06	-55839.1	1055.82	-29740.6	0.000000	0.000000	6.963131	0.001971	NaN	0.000000	0.001659	0.001718	28.0829	0.019801	0.001994	9.931166	139.296	-165.624	0.002443	0.961794	-0.078848	-0.080194	0.001971	9.931166	-0.078996	-0.584122	-0.003374	NaN
1114	1.000000	0.971153	7.37595e+06	-55839.1	1055.82	-29740.6	0.000000	0.000000	6.971144	-0.014449	NaN	0.000000	0.001644	0.001713	28.0828	0.143823	0.001989	72.305	-72.0883	-165.045	-0.012073	0.969815	-0.070834	-0.072172	-0.014449	72.305	-0.070684	-0.355781	0.040612	NaN
1114	1.000000	0.979157	7.37595e+06	-55839.1	1055.82	-29740.6	0.000000	0.000000	6.979149	0.019449	NaN	0.000000	0.001644	0.001686	28.0837	0.025696	0.002068	12.4272	5.562844	-164.975	0.047600	0.977824	-0.062830	-0.064164	0.019449	12.4272	-0.064004	-0.233805	-0.083187	NaN
1114	1.000000	0.987132	7.37595e+06	-55839.1	1055.82	-29740.6	0.000000	0.000000	6.987128	0.116485	NaN	0.000000	0.001652	0.001714	28.0839	0.047189	0.002022	23.3336	141.148	-162.904	0.082710	0.985904	-0.054856	-0.056083	0.116485	23.3336	-0.058600	-0.164117	-0.709769	NaN
1114	1.000000	0.995144	7.37595e+06	-55839.1	1055.82	-29740.6	0.000000	0.000000	6.995132	-0.075926	NaN	0.000000	0.001632	0.001721	28.0838	0.051112	0.001936	26.394	-95.0365	-165.487	-0.061558	0.993823	-0.046844	-0.048165	-0.075926	26.394	-0.044686	-0.062863	1.207800	NaN
1114	1.000000	1.003142	7.37595e+06	-55839.1	1055.82	-29740.6	0.000000	0.000000	7.003137	0.089161	NaN	0.000000	0.001625	0.001693	28.0839	0.087043	0.002137	40.7239	-125.332	-163.765	0.094269	1.001864	-0.038845	-0.040124	0.089161	40.7239	-0.040487	-0.046790	-1.905543	NaN
1114	1.000000	1.011171	7.37595e+06	-55839.1	1055.82	-29740.6	0.000000	0.000000	7.011161	-0.034050	NaN	0.000000	0.001649	0.001710	28.084	0.084457	0.002110	40.0362	-135.734	-167.388	-0.032726	1.009831	-0.030817	-0.032156	-0.034050	40.0362	-0.030179	-0.023279	1.462724	NaN
1114	1.000000	1.019145	7.37595e+06	-55839.1	1055.82	-29740.6	0.000000	0.000000	7.019139	0.063521	NaN	0.000000	0.001655	0.001713	28.0839	0.070628	0.002103	33.5886	3.380341	-165.52	0.021115	1.017851	-0.022842	-0.024136	0.063521	33.5886	-0.024261	-0.016140	-3.935699	NaN
1114	1.000000	1.027145	7.37595e+06	-55839.1	1055.82	-29740.6	0.000000	0.000000	7.027140	0.087309	NaN	0.000000	0.001635	0.001687	28.0838	0.086789	0.001909	45.4573	69.4836	-164.808	0.116552	1.025825	-0.014842	-0.016163	0.087309	45.4573	-0.016283	-0.010058	-8.680256	NaN
1114	1.000000	1.035132	7.37595e+06	-55839.1	1055.82	-29740.6	0.000000	0.000000	7.035126	0.071609	NaN	0.000000	0.001654	0.001673	28.0838	0.107150	0.002036	52.6158	67.7773	-164.863	0.097666	1.033828	-0.006856	-0.008160	0.071609	52.6158	-0.007877	-0.005159	-13.8796	NaN
1114	1.000000	1.043135	7.37595e+06	-55839.1	1055.82	-29740.6	0.000000	0.000000	7.043292	4.041292	NaN	0.000000	0.001592	0.001716	28.0839	4.623786	0.001830	2526.84	13.8171	-168.22	2.918181	1.041778	0.001147	-0.000209	4.041292	2526.84	-5.221355E-5	-3.898032E-5	-103675	NaN
1114	2.000000	1.048805	7.37595e+06	-55839.1	1055.82	-29740.6	0.000000	0.000000	7.049149	8.580674	NaN	0.000000	0.001617	0.001729	28.0838	8.615527	0.001642	5246.13	5.382636	-171.044	8.033158	1.048507	0.006817	0.006519	8.580674	5246.13	0.005591	0.004679	1833.91	70071.4
1114	2.000000	1.050775	7.37595e+06	-55839.1	1055.82	-29740.6	0.000000	0.000000	7.051150	9.343969	NaN	0.000000	0.001636	0.001711	28.0838	10.2261	0.001708	5986.61	9.064323	-175.506	8.519904	1.050526	0.008787	0.008538	9.343969	5986.61	0.007617	0.006651	1404.9	67067.3
1114	2.000000	1.052832	7.37595e+06	-55839.1	1055.82	-29740.6	0.000000	0.000000	7.053314	11.9275	NaN	0.000000	0.001623	0.001743	28.0836	12.4042	0.001769	7011.53	13.0697	-177.232	12.6072	1.052459	0.010845	0.010471	11.9275	7011.53	0.009569	0.008706	1369.99	68654.7
1114	2.000000	1.054773	7.37595e+06	-55839.1	1055.82	-29740.6	0.000000	0.000000	7.055319	13.4754	NaN	0.000000	0.001640	0.001729	28.0836	14.1971	0.001742	8151.46	5.815657	-175.65	13.3553	1.054425	0.012786	0.012437	13.4754	8151.46	0.011546	0.010950	1230.58	71169.3
1114	2.000000	1.056746	7.37595e+06	-55839.1	1055.82	-29740.6	0.000000	0.000000	7.057437	17.0049	NaN	0.000000	0.001653	0.001745	28.0838	16.3443	0.001755	9315.25	3.913723	-171.771	16.6648	1.056475	0.014758	0.014487	17.0049	9315.25	0.013389	0.013197	1288.53	74084.6
1114	2.000000	1.058711	7.37595e+06	-55839.1	1055.82	-29740.6	0.000000	0.000000	7.059524	19.9562	NaN	0.000000	0.001642	0.001723	28.084	17.8421	0.001741	10250.4	7.698958	-176.711	18.9159	1.058405	0.016724	0.016418	19.9562	10250.4	0.015264	0.015639	1276.09	74888.3
1114	2.000000	1.060722	7.37595e+06	-55839.1	1055.82	-29740.6	0.000000	0.000000	7.061683	23.561	NaN	0.000000	0.001625	0.001698	28.0839	20.1142	0.001830	10992.8	5.573169	-174.85	23.2812	1.060389	0.018735	0.018402	23.561	10992.8	0.017127	0.018227	1292.62	74390.7
1114	2.000000	1.062767	7.37595e+06	-55839.1	1055.82	-29740.6	0.000000	0.000000	7.063881	27.2971	NaN	0.000000	0.001634	0.001721	28.0837	21.8714	0.001906	11473	4.715827	-173.674	27.7178	1.062433	0.020779	0.020446	27.2971	11473	0.018995	0.020987	1300.65	72355.9
1114	2.000000	1.064691	7.37595e+06	-55839.1	1055.82	-29740.6	0.000000	0.000000	7.065926	30.2305	NaN	0.000000	0.001617	0.001714	28.0825	23.7404	0.001846	12861.9	4.479765	-176.566	29.3453	1.064386	0.022703	0.022398	30.2305	12861.9	0.020940	0.024041	1257.43	75787.8
1114	2.000000	1.066698	7.37595e+06	-55839.1	1055.82	-29740.6	0.000000	0.000000	7.068051	33.1059	NaN	0.000000	0.001682	0.001731	28.0826	25.7691	0.001960	13147.2	5.079185	-175.773	31.7318	1.066356	0.024711	0.024369	33.1059	13147.2	0.022822	0.027172	1218.38	72869.4
1114	2.000000	1.068728	7.37595e+06	-55839.1	1055.82	-29740.6	0.000000	0.000000	7.070323	38.9865	NaN	0.000000	0.001614	0.001749	28.0827	27.3306	0.001778	15371.4	7.926351	179.09	40.2173	1.068443	0.026740	0.026455	38.9865	15371.4	0.024838	0.030721	1269.04	80124.8
1114	2.000000	1.070694	7.37595e+06	-55839.1	1055.82	-29740.6	0.000000	0.000000	7.072440	42.6331	NaN	0.000000	0.001640	0.001764	28.0826	29.2216	0.001813	16120.4	7.031945	179.305	41.8437	1.070415	0.028707	0.028428	42.6331	16120.4	0.026723	0.034226	1245.64	79610.8
1114	2.000000	1.072718	7.37595e+06	-55839.1	1055.82	-29740.6	0.000000	0.000000	7.074716	48.7785	NaN	0.000000	0.001591	0.001761	28.0828	31.6271	0.001867	16944.4	6.232377	179.402	48.6585	1.072404	0.030731	0.030417	48.7785	16944.4	0.028571	0.037835	1289.25	79589.2
1114	2.000000	1.074709	7.37595e+06	-55839.1	1055.82	-29740.6	0.000000	0.000000	7.076831	51.7962	NaN	0.000000	0.001577	0.001749	28.0825	33.7285	0.001991	16936.6	7.206096	178.379	50.3038	1.074461	0.032722	0.032474	51.7962	16936.6	0.030428	0.041635	1244.04	75834.6
1114	2.000000	1.076668	7.37595e+06	-55839.1	1055.82	-29740.6	0.000000	0.000000	7.078897	54.3846	NaN	0.000000	0.001586	0.001706	28.0825	35.2307	0.001845	19090.2	4.627409	178.955	51.99	1.076464	0.034680	0.034476	54.3846	19090.2	0.032544	0.046181	1177.63	81161.7
1114	2.000000	1.078681	7.37595e+06	-55839.1	1055.82	-29740.6	0.000000	0.000000	7.081324	64.4582	NaN	0.000000	0.001567	0.001730	28.0826	36.1731	0.001797	20128.1	7.283306	176.37	63.3449	1.078360	0.036693	0.036372	64.4582	20128.1	0.034291	0.050109	1286.36	82151.8
1114	2.000000	1.080695	7.37595e+06	-55839.1	1055.82	-29740.6	0.000000	0.000000	7.083617	71.236	NaN	0.000000	0.001568	0.001740	28.0826	39.057	0.001913	20417.4	5.604755	178.534	70.7272	1.080394	0.038708	0.038407	71.236	20417.4	0.036091	0.054317	1311.49	80039.9
1114	2.000000	1.082707	7.37595e+06	-55839.1	1055.82	-29740.6	0.000000	0.000000	7.085844	76.4823	NaN	0.000000	0.001549	0.001728	28.0832	40.1602	0.001728	23243	6.510574	176.057	76.4342	1.082394	0.040719	0.040407	76.4823	23243	0.038251	0.059587	1283.53	86993.7
1114	2.000000	1.084649	7.37595e+06	-55839.1	1055.82	-29740.6	0.000000	0.000000	7.087857	78.186	NaN	0.000000	0.001526	0.001708	28.0829	41.1501	0.001718	23953.1	3.784402	177.878	75.5829	1.084449	0.042662	0.042461	78.186	23953.1	0.040214	0.064582	1210.65	86115.2
1114	2.000000	1.086616	7.37595e+06	-55839.1	1055.82	-29740.6	0.000000	0.000000	7.090368	91.4187	NaN	0.000000	0.001535	0.001738	28.0823	44.6361	0.001814	24613.1	5.514622	176.896	88.707	1.086340	0.044629	0.044352	91.4187	24613.1	0.041843	0.068878	1327.26	85684.1
1114	2.000000	1.088640	7.37595e+06	-55839.1	1055.82	-29740.6	0.000000	0.000000	7.092650	97.6963	NaN	0.000000	0.001552	0.001746	28.0826	45.4566	0.001859	24445.7	4.958873	177.303	94.2448	1.088307	0.046653	0.046319	97.6963	24445.7	0.043655	0.073815	1323.52	82205.7
1114	2.000000	1.090638	7.37595e+06	-55839.1	1055.82	-29740.6	0.000000	0.000000	7.094967	105.455	NaN	0.000000	0.001582	0.001758	28.0825	47.2858	0.001671	28295.6	4.496534	175.683	103.598	1.090353	0.048650	0.048365	105.455	28295.6	0.045855	0.080033	1317.65	91381.7
1114	2.000000	1.092696	7.37595e+06	-55839.1	1055.82	-29740.6	0.000000	0.000000	7.097308	112.312	NaN	0.000000	0.001555	0.001750	28.0829	49.162	0.001734	28357	-0.606105	-178.83	110.939	1.092402	0.050709	0.050415	112.312	28357	0.047738	0.085551	1312.81	88577
1114	2.000000	1.094652	7.37595e+06	-55839.1	1055.82	-29740.6	0.000000	0.000000	7.099610	120.723	NaN	0.000000	0.001573	0.001822	28.0821	51.1157	0.001724	29646.6	1.893592	178.657	118.741	1.094366	0.052665	0.052378	120.723	29646.6	0.049611	0.091213	1323.53	89684.8
1114	2.000000	1.096723	7.37595e+06	-55839.1	1055.82	-29740.6	0.000000	0.000000	7.101820	124.103	NaN	0.000000	0.001548	0.001734	28.0822	55.2383	0.001892	29192.4	5.604885	173.73	125.732	1.096503	0.054735	0.054515	124.103	29192.4	0.051547	0.097255	1276.06	85523.8
1114	2.000000	1.098698	7.37595e+06	-55839.1	1055.82	-29740.6	0.000000	0.000000	7.104435	139.662	NaN	0.000000	0.001562	0.001738	28.0841	56.1344	0.001864	30116.1	5.189461	174.762	139.094	1.098344	0.056710	0.056356	139.662	30116.1	0.053232	0.102665	1360.37	85873.9
1114	2.000000	1.100671	7.37595e+06	-55839.1	1055.82	-29740.6	0.000000	0.000000	7.106780	148.696	NaN	0.000000	0.001538	0.001761	28.0839	58.2048	0.001776	32765.5	4.389545	175.438	150.135	1.100311	0.058684	0.058323	148.696	32765.5	0.055280	0.109429	1358.83	90494.7
1114	2.000000	1.102608	7.37595e+06	-55839.1	1055.82	-29740.6	0.000000	0.000000	7.109208	160.666	NaN	0.000000	0.001528	0.001740	28.0841	60.129	0.001783	33729.8	5.444370	174.729	155.529	1.102314	0.060620	0.060327	160.666	33729.8	0.057047	0.115434	1391.84	90702.7
1114	2.000000	1.104583	7.37595e+06	-55839.1	1055.82	-29740.6	0.000000	0.000000	7.111175	160.45	NaN	0.000000	0.001576	0.001734	28.0836	60.9613	0.001585	38454.6	2.885086	174.439	157.421	1.104459	0.062596	0.062472	160.45	38454.6	0.059466	0.123901	1294.98	99812
1114	2.000000	1.106680	7.37595e+06	-55839.1	1055.82	-29740.6	0.000000	0.000000	7.113968	177.363	NaN	0.000000	0.001565	0.001735	28.0837	64.6832	0.001786	36216.9	4.298507	174.324	177.425	1.106327	0.064693	0.064339	177.363	36216.9	0.061020	0.129490	1369.71	91953.1
1114	2.000000	1.108668	7.37595e+06	-55839.1	1055.82	-29740.6	0.000000	0.000000	7.116363	187.28	NaN	0.000000	0.001549	0.001723	28.0842	64.6995	0.001715	37727.4	2.969601	174.575	187.072	1.108308	0.066680	0.066321	187.28	37727.4	0.062957	0.136625	1370.76	93253.5
1114	2.000000	1.110730	7.37595e+06	-55839.1	1055.82	-29740.6	0.000000	0.000000	7.118970	200.522	NaN	0.000000	0.001525	0.001754	28.0838	67.2024	0.001904	35292.1	9.847277	170.429	203.948	1.110200	0.068742	0.068212	200.522	35292.1	0.064481	0.142365	1408.5	85457.3
1114	2.000000	1.112659	7.37595e+06	-55839.1	1055.82	-29740.6	0.000000	0.000000	7.121266	209.441	NaN	0.000000	0.001512	0.001744	28.0844	69.6939	0.001829	38096	8.555504	168.956	209.766	1.112270	0.070671	0.070282	209.441	38096	0.066548	0.150330	1393.21	89769.7
1114	2.000000	1.114655	7.37595e+06	-55839.1	1055.82	-29740.6	0.000000	0.000000	7.123882	224.507	NaN	0.000000	0.001524	0.001746	28.0837	70.5712	0.001811	38978.7	8.559231	169.607	225.026	1.114273	0.072667	0.072285	224.507	38978.7	0.068347	0.157430	1426.07	89754.7
1114	2.000000	1.116670	7.37595e+06	-55839.1	1055.82	-29740.6	0.000000	0.000000	7.125851	223.369	NaN	0.000000	0.001583	0.001741	28.0838	73.67	0.001876	39263.2	4.734382	172.058	221.816	1.116478	0.074683	0.074491	223.369	39263.2	0.070416	0.165785	1347.34	88102.1
1114	2.000000	1.118583	7.37595e+06	-55839.1	1055.82	-29740.6	0.000000	0.000000	7.128545	242.373	NaN	0.000000	0.001565	0.001743	28.0843	74.1406	0.001786	41503.2	3.808476	172.726	238.69	1.118388	0.076595	0.076400	242.373	41503.2	0.072215	0.173215	1399.26	91109.1
1114	2.000000	1.120584	7.37595e+06	-55839.1	1055.82	-29740.6	0.000000	0.000000	7.131230	259.011	NaN	0.000000	0.001514	0.001729	28.0839	75.2495	0.001779	42305.7	4.137228	172.559	253.833	1.120176	0.078596	0.078188	259.011	42305.7	0.074004	0.180757	1432.92	90912.5
1114	2.000000	1.122719	7.37595e+06	-55839.1	1055.82	-29740.6	0.000000	0.000000	7.133704	267.245	NaN	0.000000	0.001559	0.001749	28.084	77.859	0.001770	44000.3	3.335558	174.598	270.633	1.122294	0.080731	0.080307	267.245	44000.3	0.076176	0.190115	1405.71	92198
1114	2.000000	1.124595	7.37595e+06	-55839.1	1055.82	-29740.6	0.000000	0.000000	7.136003	277.532	NaN	0.000000	0.001552	0.001745	28.0838	79.1311	0.001783	44372.6	2.681697	173.625	274.603	1.124402	0.082607	0.082415	277.532	44372.6	0.077916	0.197773	1403.29	91160.1
1114	2.000000	1.126676	7.37595e+06	-55839.1	1055.82	-29740.6	0.000000	0.000000	7.138804	295.022	NaN	0.000000	0.001589	0.001696	28.0838	81.9061	0.001774	46180.9	7.815320	168.924	296.337	1.126275	0.084689	0.084288	295.022	46180.9	0.079897	0.206663	1427.55	92811.9
1114	2.000000	1.128586	7.37595e+06	-55839.1	1055.82	-29740.6	0.000000	0.000000	7.141035	302.831	NaN	0.000000	0.001586	0.001727	28.0842	82.2852	0.001729	47586.4	5.243026	170.461	299.78	1.128373	0.086598	0.086386	302.831	47586.4	0.081825	0.215490	1405.32	93657.5
1114	2.000000	1.130508	7.37595e+06	-55839.1	1055.82	-29740.6	0.000000	0.000000	7.143512	316.311	NaN	0.000000	0.001575	0.001728	28.0839	85.4351	0.001821	46921.9	6.024203	170.093	309.536	1.130228	0.088521	0.088240	316.311	46921.9	0.083465	0.223132	1417.6	90754.4
1114	2.000000	1.132658	7.37595e+06	-55839.1	1055.82	-29740.6	0.000000	0.000000	7.146210	329.626	NaN	0.000000	0.001566	0.001745	28.0831	87.5324	0.001859	47075.7	6.819071	169.019	329.919	1.132308	0.090670	0.090321	329.626	47075.7	0.085419	0.232404	1418.34	89217.2
1114	2.000000	1.134617	7.37595e+06	-55839.1	1055.82	-29740.6	0.000000	0.000000	7.148604	340.192	NaN	0.000000	0.001577	0.001717	28.0827	88.6278	0.001755	50513.5	5.875907	169.528	339.092	1.134351	0.092630	0.092363	340.192	50513.5	0.087579	0.242856	1400.8	93649.6
1114	2.000000	1.136622	7.37595e+06	-55839.1	1055.82	-29740.6	0.000000	0.000000	7.151257	355.939	NaN	0.000000	0.001575	0.001706	28.0827	90.496	0.001849	48931.6	3.460313	172.814	354.764	1.136386	0.094635	0.094398	355.939	48931.6	0.089179	0.250741	1419.55	89279.2
1114	2.000000	1.138508	7.37595e+06	-55839.1	1055.82	-29740.6	0.000000	0.000000	7.153903	374.423	NaN	0.000000	0.001604	0.001708	28.0829	90.5509	0.001660	54540.8	4.482756	170.594	367.24	1.138218	0.096521	0.096230	374.423	54540.8	0.091372	0.261732	1430.56	97401.5
1114	2.000000	1.140594	7.37595e+06	-55839.1	1055.82	-29740.6	0.000000	0.000000	7.156586	388.926	NaN	0.000000	0.001580	0.001725	28.0826	93.2446	0.001708	54603.3	4.658335	170.465	386.843	1.140274	0.098607	0.098286	388.926	54603.3	0.093265	0.271399	1433.04	95760.8
1114	2.000000	1.142679	7.37595e+06	-55839.1	1055.82	-29740.6	0.000000	0.000000	7.159239	402.745	NaN	0.000000	0.001573	0.001741	28.083	96.9424	0.001842	52623.3	7.957815	168.273	401.445	1.142194	0.100692	0.100207	402.745	52623.3	0.094952	0.280152	1437.59	90835.2
1114	2.000000	1.144619	7.37595e+06	-55839.1	1055.82	-29740.6	0.000000	0.000000	7.161915	420.649	NaN	0.000000	0.001575	0.001674	28.083	98.0816	0.001686	58178.4	5.330748	169.034	421.004	1.144275	0.102631	0.102287	420.649	58178.4	0.097208	0.292063	1440.27	98355
1114	2.000000	1.146615	7.37595e+06	-55839.1	1055.82	-29740.6	0.000000	0.000000	7.164527	435.604	NaN	0.000000	0.001546	0.001714	28.0829	102.048	0.001807	56478.3	8.146722	166.926	435.356	1.146277	0.104628	0.104289	435.604	56478.3	0.098843	0.300838	1447.97	94078.1