File: remote_trans/data/nanoindenter/0828-1/data/Data_2025-08-06,11h17m57s/2025-07-22_16-23-58_1_183.txt
2025-07-22, 16:23:58, 1
Index	Phase	Displacement	Time	Pos X	Pos Y	Pos Z	Rot A	Rot B	Piezo Z	Force A	Force B	Gripper	Voltage A	Voltage B	Temperature	Amplitude force	Amplitude pos	Stiffness	Phase shift	Phase excitation	Force A raw	Displacement raw	HMax	HMax raw	Real Force	Real Stiffness	Contact Depth	Area	Hardness	Reduced Mod.
[#]	[#]	[um]	[s]	[um]	[um]	[um]	[m°]	[m°]	[um]	[uN]	[uN]	[V]	[V]	[V]	[°C]	[uN]	[um]	[N/m]	[°]	[°]	[uN]	[um]	[um]	[um]	[uN]	[N/m]	[um]	[um^2]	[MPa]	[MPa]
183	1.000000	0.002535	7.36683e+06	-47789.1	955.819	-29765.1	0.000000	0.000000	6.002803	-0.057575	NaN	0.000000	0.001603	0.001679	28.078	0.094734	0.001008	94.0045	45.2836	-161.559	-0.132143	0.001257	-1.134424	-1.135702	-0.057575	94.0045	-1.133964	-1.431514E+15	4.021940E-17	NaN
183	1.000000	0.012593	7.36683e+06	-47789.1	955.819	-29765.1	0.000000	0.000000	6.012862	-0.028622	NaN	0.000000	0.001590	0.001688	28.0781	0.063026	0.001251	50.3868	-137.836	23.7026	0.002314	0.011111	-1.124366	-1.125848	-0.028622	50.3868	-1.123940	-1.050341E+15	2.725009E-17	NaN
183	1.000000	0.022475	7.36683e+06	-47789.1	955.819	-29765.1	0.000000	0.000000	6.022746	0.009771	NaN	0.000000	0.001641	0.001709	28.078	0.113491	0.001680	67.5601	-109.704	-160.867	0.037071	0.021156	-1.114484	-1.115803	0.009771	67.5601	-1.114592	-7.868893E+14	-1.241714E-17	NaN
183	1.000000	0.032499	7.36683e+06	-47789.1	955.818	-29765.1	0.000000	0.000000	6.032769	0.009430	NaN	0.000000	0.001640	0.001723	28.0779	0.097645	0.001937	50.4098	-81.7952	16.6908	-0.021747	0.031137	-1.104460	-1.105822	0.009430	50.4098	-1.104600	-5.778557E+14	-1.631874E-17	NaN
183	1.000000	0.042486	7.36683e+06	-47789.1	955.819	-29765.1	0.000000	0.000000	6.042755	-0.042131	NaN	0.000000	0.001655	0.001709	28.0781	0.117571	0.002025	58.0711	-99.0416	-162.66	0.022168	0.041157	-1.094473	-1.095802	-0.042131	58.0711	-1.093929	-4.154898E+14	1.014014E-16	NaN
183	1.000000	0.052476	7.36683e+06	-47789.1	955.818	-29765.1	0.000000	0.000000	6.052748	0.048393	NaN	0.000000	0.001644	0.001712	28.0781	0.089891	0.002006	44.8073	107.212	9.301972	-0.019374	0.051127	-1.084483	-1.085832	0.048393	44.8073	-1.085293	-3.181308E+14	-1.521170E-16	NaN
183	1.000000	0.062473	7.36683e+06	-47789.1	955.818	-29765.1	0.000000	0.000000	6.062743	-0.000852	NaN	0.000000	0.001633	0.001687	28.079	0.032921	0.002115	15.5646	94.8606	-165.183	-0.024498	0.061182	-1.074486	-1.075777	-0.000852	15.5646	-1.074445	-2.274608E+14	3.746018E-18	NaN
183	1.000000	0.072496	7.36683e+06	-47789.1	955.818	-29765.1	0.000000	0.000000	6.072766	-0.002553	NaN	0.000000	0.001615	0.001717	28.0791	0.052845	0.001919	27.5401	-63.6851	16.4886	-0.066471	0.071140	-1.064463	-1.065819	-0.002553	27.5401	-1.064394	-1.666723E+14	1.531947E-17	NaN
183	1.000000	0.082472	7.36683e+06	-47789.1	955.818	-29765.1	0.000000	0.000000	6.082743	0.015118	NaN	0.000000	0.001623	0.001679	28.0792	0.016161	0.001994	8.104798	-171.334	-164.463	0.013544	0.081177	-1.054487	-1.055782	0.015118	8.104798	-1.055886	-1.280947E+14	-1.180206E-16	NaN
183	1.000000	0.092489	7.36683e+06	-47789.1	955.818	-29765.1	0.000000	0.000000	6.092758	-0.027528	NaN	0.000000	0.001656	0.001708	28.0791	0.128556	0.002040	63.0231	179.903	12.0319	-0.067528	0.091157	-1.044470	-1.045802	-0.027528	63.0231	-1.044142	-8.905623E+13	3.091071E-16	NaN
183	1.000000	0.102534	7.36683e+06	-47789.1	955.819	-29765.1	0.000000	0.000000	6.102803	-0.027084	NaN	0.000000	0.001673	0.001668	28.0791	0.086577	0.001981	43.6984	94.4434	-166.101	0.003888	0.101200	-1.034425	-1.035759	-0.027084	43.6984	-1.033961	-6.497548E+13	4.168317E-16	NaN
183	1.000000	0.112510	7.36683e+06	-47789.1	955.819	-29765.1	0.000000	0.000000	6.112778	-0.043043	NaN	0.000000	0.001657	0.001681	28.0794	0.104945	0.002009	52.2359	83.9765	16.4008	-0.094511	0.111120	-1.024449	-1.025839	-0.043043	52.2359	-1.023831	-4.747846E+13	9.065733E-16	NaN
183	1.000000	0.122501	7.36683e+06	-47789.1	955.818	-29765.1	0.000000	0.000000	6.122770	-0.024683	NaN	0.000000	0.001659	0.001687	28.0795	0.022389	0.002027	11.0451	-124.137	-166.865	0.018035	0.121203	-1.014458	-1.015757	-0.024683	11.0451	-1.012782	-3.371532E+13	7.321061E-16	NaN
183	1.000000	0.132494	7.36683e+06	-47789.1	955.818	-29765.1	0.000000	0.000000	6.132763	-0.015676	NaN	0.000000	0.001678	0.001689	28.0793	0.060807	0.002007	30.2911	-138.782	17.1049	-0.018736	0.131174	-1.004466	-1.005785	-0.015676	30.2911	-1.004077	-2.574314E+13	6.089267E-16	NaN
183	1.000000	0.142520	7.36683e+06	-47789.1	955.819	-29765.1	0.000000	0.000000	6.142788	-0.056165	NaN	0.000000	0.001666	0.001690	28.079	0.085242	0.001886	45.2079	103.46	-164.148	-0.059030	0.141177	-0.994439	-0.995782	-0.056165	45.2079	-0.993507	-1.854998E+13	3.027743E-15	NaN
183	1.000000	0.152519	7.36683e+06	-47789.1	955.819	-29765.1	0.000000	0.000000	6.152788	-0.025509	NaN	0.000000	0.001633	0.001710	28.0794	0.083694	0.001864	44.8989	-5.571571	15.6808	-0.039514	0.151126	-0.984440	-0.985833	-0.025509	44.8989	-0.984014	-1.381937E+13	1.845890E-15	NaN
183	1.000000	0.162536	7.36683e+06	-47789.1	955.818	-29765.1	0.000000	0.000000	6.162805	-0.015339	NaN	0.000000	0.001645	0.001675	28.0792	0.018064	0.002031	8.894258	-100.15	-166.001	0.013738	0.161200	-0.974424	-0.975759	-0.015339	8.894258	-0.973130	-9.859266E+12	1.555811E-15	NaN
183	1.000000	0.172537	7.36683e+06	-47789.1	955.819	-29765.1	0.000000	0.000000	6.172806	-0.034163	NaN	0.000000	0.001604	0.001725	28.0792	0.030366	0.002127	14.2775	-98.5657	16.8051	0.022467	0.171196	-0.964422	-0.965763	-0.034163	14.2775	-0.962627	-7.116837E+12	4.800316E-15	NaN
183	1.000000	0.182547	7.36683e+06	-47789.1	955.818	-29765.1	0.000000	0.000000	6.182817	-0.007821	NaN	0.000000	0.001635	0.001702	28.079	0.038571	0.001947	19.8089	-75.727	-164.511	0.052268	0.181209	-0.954412	-0.955750	-0.007821	19.8089	-0.954116	-5.464305E+12	1.431356E-15	NaN
183	1.000000	0.192528	7.36683e+06	-47789.1	955.819	-29765.1	0.000000	0.000000	6.192797	-0.022706	NaN	0.000000	0.001621	0.001688	28.0783	0.086425	0.002033	42.5038	-160.581	12.7583	-0.059983	0.191201	-0.944431	-0.945758	-0.022706	42.5038	-0.944030	-3.994930E+12	5.683706E-15	NaN
183	1.000000	0.202535	7.36683e+06	-47789.1	955.818	-29765.1	0.000000	0.000000	6.202805	0.000806	NaN	0.000000	0.001617	0.001692	28.0779	0.075425	0.001982	38.0511	-60.4197	-163.73	0.010671	0.201269	-0.934424	-0.935691	0.000806	38.0511	-0.934440	-2.965635E+12	-2.717360E-16	NaN
183	1.000000	0.212535	7.36683e+06	-47789.1	955.818	-29765.1	0.000000	0.000000	6.212803	-0.034122	NaN	0.000000	0.001628	0.001690	28.0782	0.006266	0.001932	3.243488	159.315	16.5509	-0.128670	0.211170	-0.924424	-0.925789	-0.034122	3.243488	-0.916534	-1.699851E+12	2.007355E-14	NaN
183	1.000000	0.222533	7.36683e+06	-47789.1	955.819	-29765.1	0.000000	0.000000	6.222804	0.016083	NaN	0.000000	0.001644	0.001699	28.0779	0.114390	0.001997	57.2756	146.839	-166.944	0.034565	0.221173	-0.914426	-0.915786	0.016083	57.2756	-0.914636	-1.602440E+12	-1.003636E-14	NaN
183	1.000000	0.232539	7.36683e+06	-47789.1	955.819	-29765.1	0.000000	0.000000	6.232807	-0.047970	NaN	0.000000	0.001659	0.001738	28.0783	0.123961	0.001936	64.0338	173.007	16.0116	-0.097833	0.231163	-0.904420	-0.905796	-0.047970	64.0338	-0.903859	-1.146041E+12	4.185675E-14	NaN
183	1.000000	0.242556	7.36683e+06	-47789.1	955.818	-29765.1	0.000000	0.000000	6.242824	-0.047437	NaN	0.000000	0.001650	0.001698	28.0778	0.040112	0.001980	20.2635	1.607972	-167.013	-0.001259	0.241288	-0.894403	-0.895671	-0.047437	20.2635	-0.892647	-8.085405E+11	5.866932E-14	NaN
183	1.000000	0.252583	7.36683e+06	-47789.1	955.819	-29765.1	0.000000	0.000000	6.252848	-0.122401	NaN	0.000000	0.001641	0.001691	28.0782	0.074381	0.002036	36.5364	88.9764	12.0412	-0.087276	0.251236	-0.884376	-0.885723	-0.122401	36.5364	-0.881863	-5.779688E+11	2.117782E-13	NaN
183	1.000000	0.262561	7.36683e+06	-47789.1	955.818	-29765.1	0.000000	0.000000	6.262831	0.006613	NaN	0.000000	0.001597	0.001731	28.0777	0.088123	0.002153	40.9269	53.6183	-161.412	0.082670	0.261287	-0.874398	-0.875673	0.006613	40.9269	-0.874520	-4.598158E+11	-1.438123E-14	NaN
183	1.000000	0.272546	7.36683e+06	-47789.1	955.818	-29765.1	0.000000	0.000000	6.272815	-0.027742	NaN	0.000000	0.001608	0.001719	28.0779	0.079587	0.001936	41.1148	16.9828	13.653	-0.006438	0.271264	-0.864413	-0.865695	-0.027742	41.1148	-0.863907	-3.303665E+11	8.397395E-14	NaN
183	1.000000	0.282591	7.36683e+06	-47789.1	955.818	-29765.1	0.000000	0.000000	6.282858	-0.081639	NaN	0.000000	0.001637	0.001697	28.0774	0.069506	0.001877	37.0281	63.2279	-165.203	-0.028960	0.281262	-0.854368	-0.855697	-0.081639	37.0281	-0.852714	-2.330738E+11	3.502707E-13	NaN
183	1.000000	0.292579	7.36683e+06	-47789.1	955.819	-29765.1	0.000000	0.000000	6.292847	-0.034505	NaN	0.000000	0.001624	0.001715	28.0778	0.020816	0.001962	10.6116	-131.191	16.3257	0.084089	0.291235	-0.844380	-0.845725	-0.034505	10.6116	-0.841942	-1.665703E+11	2.071515E-13	NaN
183	1.000000	0.302580	7.36683e+06	-47789.1	955.818	-29765.1	0.000000	0.000000	6.302850	-0.008075	NaN	0.000000	0.001632	0.001736	28.0773	0.021579	0.001988	10.8526	170.21	-164.012	-0.009688	0.301233	-0.834379	-0.835727	-0.008075	10.8526	-0.833821	-1.292911E+11	6.245493E-14	NaN
183	1.000000	0.312595	7.36683e+06	-47789.1	955.818	-29765.1	0.000000	0.000000	6.312861	-0.094514	NaN	0.000000	0.001660	0.001718	28.0776	0.078628	0.001995	39.4178	-113.362	13.6748	-0.123071	0.311209	-0.824364	-0.825750	-0.094514	39.4178	-0.822566	-9.099182E+10	1.038705E-12	NaN
183	1.000000	0.322622	7.36683e+06	-47789.1	955.819	-29765.1	0.000000	0.000000	6.322890	-0.028999	NaN	0.000000	0.001656	0.001699	28.0772	0.065922	0.002168	30.4012	78.0833	-164.667	-0.073526	0.321259	-0.814338	-0.815700	-0.028999	30.4012	-0.813622	-6.881929E+10	4.213821E-13	NaN
183	1.000000	0.332611	7.36683e+06	-47789.1	955.819	-29765.1	0.000000	0.000000	6.332884	0.055875	NaN	0.000000	0.001629	0.001718	28.0788	0.071696	0.001971	36.3752	-37.2022	13.582	-0.005785	0.331213	-0.804348	-0.805746	0.055875	36.3752	-0.805500	-5.339632E+10	-1.046429E-12	NaN
183	1.000000	0.342602	7.36683e+06	-47789.1	955.819	-29765.1	0.000000	0.000000	6.342872	-0.017204	NaN	0.000000	0.001652	0.001702	28.0786	0.088348	0.001976	44.7166	70.3769	-163.565	0.031576	0.341275	-0.794357	-0.795684	-0.017204	44.7166	-0.794068	-3.735367E+10	4.605688E-13	NaN
183	1.000000	0.352592	7.36683e+06	-47789.1	955.818	-29765.1	0.000000	0.000000	6.352859	-0.067890	NaN	0.000000	0.001632	0.001665	28.0787	0.058201	0.001938	30.0294	125.045	11.9419	-0.015300	0.351271	-0.784368	-0.785688	-0.067890	30.0294	-0.782672	-2.615397E+10	2.595799E-12	NaN
183	1.000000	0.362597	7.36683e+06	-47789.1	955.818	-29765.1	0.000000	0.000000	6.362867	-0.008596	NaN	0.000000	0.001622	0.001729	28.0784	0.103857	0.002082	49.883	-98.7226	-164.798	-0.004679	0.361343	-0.774362	-0.775616	-0.008596	49.883	-0.774233	-2.008389E+10	4.280129E-13	NaN
183	1.000000	0.372633	7.36683e+06	-47789.1	955.818	-29765.1	0.000000	0.000000	6.372902	-0.020498	NaN	0.000000	0.001654	0.001712	28.0787	0.104980	0.002226	47.167	160.034	16.2665	-0.097001	0.371278	-0.764326	-0.765682	-0.020498	47.167	-0.764000	-1.457853E+10	1.406059E-12	NaN
183	1.000000	0.382625	7.36683e+06	-47789.1	955.818	-29765.1	0.000000	0.000000	6.382892	-0.074494	NaN	0.000000	0.001744	0.001678	28.0788	0.096221	0.002070	46.4773	45.4482	-166.477	-0.053385	0.381325	-0.754334	-0.755634	-0.074494	46.4773	-0.753132	-1.037162E+10	7.182494E-12	NaN
183	1.000000	0.392623	7.36683e+06	-47789.1	955.819	-29765.1	0.000000	0.000000	6.392892	-0.006901	NaN	0.000000	0.001718	0.001676	28.0788	0.042630	0.002137	19.9528	1.604958	15.5112	0.015849	0.391266	-0.744337	-0.745693	-0.006901	19.9528	-0.744077	-7.808779E+9	8.836864E-13	NaN
183	1.000000	0.402612	7.36683e+06	-47789.1	955.819	-29765.1	0.000000	0.000000	6.402879	-0.071601	NaN	0.000000	0.001685	0.001683	28.079	0.065674	0.001863	35.2457	65.0666	-163.197	-0.041823	0.401324	-0.734347	-0.735635	-0.071601	35.2457	-0.732823	-5.486373E+9	1.305072E-11	NaN
183	1.000000	0.412620	7.36683e+06	-47789.1	955.819	-29765.1	0.000000	0.000000	6.412888	-0.044431	NaN	0.000000	0.001725	0.001712	28.0789	0.079983	0.002072	38.5967	-161.565	13.4816	-0.090137	0.411274	-0.724339	-0.725686	-0.044431	38.5967	-0.723476	-4.091371E+9	1.085958E-11	NaN
183	1.000000	0.422641	7.36683e+06	-47789.1	955.818	-29765.1	0.000000	0.000000	6.422913	0.044406	NaN	0.000000	0.001722	0.001679	28.0788	0.033777	0.001876	18.0063	1.728764	-166.842	0.012833	0.421299	-0.714318	-0.715660	0.044406	18.0063	-0.716168	-3.252394E+9	-1.365336E-11	NaN
183	1.000000	0.432637	7.36683e+06	-47789.1	955.818	-29765.1	0.000000	0.000000	6.432904	-0.056263	NaN	0.000000	0.001737	0.001711	28.0787	0.039275	0.001764	22.2645	141.21	12.1301	-0.102844	0.431267	-0.704323	-0.705692	-0.056263	22.2645	-0.702427	-2.111914E+9	2.664073E-11	NaN
183	1.000000	0.442629	7.36683e+06	-47789.1	955.817	-29765.1	0.000000	0.000000	6.442896	-0.075068	NaN	0.000000	0.001728	0.001701	28.0789	0.052050	0.002105	24.7254	-132.567	-165.335	-0.069142	0.441353	-0.694330	-0.695606	-0.075068	24.7254	-0.692053	-1.523948E+9	4.925882E-11	NaN
183	1.000000	0.452635	7.36683e+06	-47789.1	955.819	-29765.1	0.000000	0.000000	6.452903	-0.036940	NaN	0.000000	0.001712	0.001693	28.079	0.077582	0.001989	39.0087	-94.5571	17.1513	-0.073520	0.451301	-0.684324	-0.685658	-0.036940	39.0087	-0.683614	-1.168495E+9	3.161363E-11	NaN
183	1.000000	0.462680	7.36683e+06	-47789.1	955.818	-29765.1	0.000000	0.000000	6.462948	-0.035519	NaN	0.000000	0.001705	0.001719	28.0788	0.066603	0.002082	31.9896	167.118	-164.435	-0.018230	0.461372	-0.674280	-0.675587	-0.035519	31.9896	-0.673447	-8.483226E+8	4.186950E-11	NaN
183	1.000000	0.472644	7.36683e+06	-47789.1	955.817	-29765.1	0.000000	0.000000	6.472911	-0.069640	NaN	0.000000	0.001691	0.001682	28.0776	0.067355	0.002007	33.5657	-64.7433	16.9364	-0.068618	0.471240	-0.664315	-0.665720	-0.069640	33.5657	-0.662759	-6.056978E+8	1.149748E-10	NaN
183	1.000000	0.482673	7.36683e+06	-47789.1	955.818	-29765.1	0.000000	0.000000	6.482943	0.009859	NaN	0.000000	0.001721	0.001708	28.0779	0.010471	0.002024	5.174402	-105.898	-164.226	0.044238	0.481383	-0.654286	-0.655576	0.009859	5.174402	-0.655715	-4.850281E+8	-2.032580E-11	NaN
183	1.000000	0.492687	7.36683e+06	-47789.1	955.818	-29765.1	0.000000	0.000000	6.492957	-0.010746	NaN	0.000000	0.001698	0.001692	28.0778	0.129128	0.001901	67.9283	134.393	14.683	-0.013920	0.491317	-0.644272	-0.645642	-0.010746	67.9283	-0.644153	-3.367158E+8	3.191293E-11	NaN
183	1.000000	0.502673	7.36683e+06	-47789.1	955.818	-29765.1	0.000000	0.000000	6.502940	-0.068835	NaN	0.000000	0.001721	0.001714	28.0777	0.099371	0.001985	50.0619	61.4353	-163.551	-0.060827	0.501426	-0.634286	-0.635533	-0.068835	50.0619	-0.633255	-2.386269E+8	2.884649E-10	NaN
183	1.000000	0.512675	7.36683e+06	-47789.1	955.818	-29765.1	0.000000	0.000000	6.512945	-0.014957	NaN	0.000000	0.001718	0.001702	28.0776	0.044207	0.001951	22.6543	125.995	15.6614	0.035496	0.511321	-0.624284	-0.625638	-0.014957	22.6543	-0.623789	-1.768887E+8	8.455802E-11	NaN
183	1.000000	0.522690	7.36683e+06	-47789.1	955.818	-29765.1	0.000000	0.000000	6.522958	-0.044527	NaN	0.000000	0.001702	0.001692	28.0775	0.044539	0.002007	22.1924	-146.721	-164.261	-0.044671	0.521326	-0.614269	-0.615633	-0.044527	22.1924	-0.612764	-1.247790E+8	3.568460E-10	NaN
183	1.000000	0.532693	7.36683e+06	-47789.1	955.819	-29765.1	0.000000	0.000000	6.532963	-0.015764	NaN	0.000000	0.001776	0.001686	28.0776	0.054724	0.002043	26.7832	22.0338	14.9776	-0.079787	0.531288	-0.604266	-0.605671	-0.015764	26.7832	-0.603824	-9.399869E+7	1.677080E-10	NaN
183	1.000000	0.542695	7.36683e+06	-47789.1	955.819	-29765.1	0.000000	0.000000	6.542966	0.003432	NaN	0.000000	0.001732	0.001731	28.0774	0.067628	0.001946	34.7525	119.18	-166.135	0.099769	0.541392	-0.594264	-0.595567	0.003432	34.7525	-0.594338	-6.957548E+7	-4.933374E-11	NaN
183	1.000000	0.552701	7.36683e+06	-47789.1	955.818	-29765.1	0.000000	0.000000	6.552971	-0.010450	NaN	0.000000	0.001714	0.001712	28.0774	0.117705	0.001981	59.4162	-134.772	14.8306	-0.032621	0.551321	-0.584258	-0.585638	-0.010450	59.4162	-0.584126	-5.031060E+7	2.077069E-10	NaN
183	1.000000	0.562697	7.36683e+06	-47789.1	955.818	-29765.1	0.000000	0.000000	6.562967	-0.007590	NaN	0.000000	0.001766	0.001693	28.0776	0.038359	0.002098	18.2831	69.5985	-166.154	-0.009693	0.561392	-0.574262	-0.575567	-0.007590	18.2831	-0.573951	-3.640916E+7	2.084514E-10	NaN
183	1.000000	0.572696	7.36683e+06	-47789.1	955.818	-29765.1	0.000000	0.000000	6.572964	-0.053457	NaN	0.000000	0.001761	0.001703	28.0774	0.089011	0.002036	43.7098	-49.1855	15.3347	-0.051936	0.571362	-0.564263	-0.565597	-0.053457	43.7098	-0.563346	-2.598077E+7	2.057550E-9	NaN
183	1.000000	0.582704	7.36683e+06	-47789.1	955.819	-29765.1	0.000000	0.000000	6.582974	0.010147	NaN	0.000000	0.001768	0.001728	28.078	0.069281	0.002084	33.2421	154.719	-164.772	-0.108413	0.581385	-0.554255	-0.555574	0.010147	33.2421	-0.554484	-1.959074E+7	-5.179653E-10	NaN
183	1.000000	0.592737	7.36683e+06	-47789.1	955.819	-29765.1	0.000000	0.000000	6.593004	-0.060503	NaN	0.000000	0.001756	0.001731	28.0773	0.053086	0.001928	27.5314	169.09	15.7539	-0.097018	0.591371	-0.544223	-0.545588	-0.060503	27.5314	-0.542574	-1.339846E+7	4.515678E-9	NaN
183	1.000000	0.602716	7.36683e+06	-47789.1	955.818	-29765.1	0.000000	0.000000	6.602985	-0.023536	NaN	0.000000	0.001747	0.001677	28.0788	0.046245	0.001999	23.1357	113.506	-165.231	-0.070085	0.601471	-0.534243	-0.535489	-0.023536	23.1357	-0.533480	-1.002053E+7	2.348765E-9	NaN
183	1.000000	0.612721	7.36683e+06	-47789.1	955.818	-29765.1	0.000000	0.000000	6.612992	0.015839	NaN	0.000000	0.001749	0.001710	28.0786	0.067164	0.002003	33.5277	102.15	14.8169	0.012621	0.611360	-0.524238	-0.525599	0.015839	33.5277	-0.524592	-7.54132e+06	-2.100340E-9	NaN
183	1.000000	0.622704	7.36683e+06	-47789.1	955.819	-29765.1	0.000000	0.000000	6.622973	-0.014942	NaN	0.000000	0.001746	0.001700	28.0786	0.122775	0.002028	60.5349	-150.984	-166.337	-0.034758	0.621357	-0.514255	-0.515602	-0.014942	60.5349	-0.514070	-5.38379e+06	2.775369E-9	NaN
183	1.000000	0.632732	7.36683e+06	-47789.1	955.818	-29765.1	0.000000	0.000000	6.633001	-0.030925	NaN	0.000000	0.001743	0.001707	28.0785	0.023358	0.002036	11.4733	159.759	13.795	-0.029301	0.631320	-0.504227	-0.505639	-0.030925	11.4733	-0.502205	-3.67941e+06	8.404814E-9	NaN
183	1.000000	0.642726	7.36683e+06	-47789.1	955.819	-29765.1	0.000000	0.000000	6.642997	0.013534	NaN	0.000000	0.001740	0.001713	28.079	0.051288	0.001845	27.8023	-49.9276	-165.912	0.022801	0.641462	-0.494233	-0.495497	0.013534	27.8023	-0.494598	-2.8815e+06	-4.696766E-9	NaN
183	1.000000	0.652735	7.36683e+06	-47789.1	955.818	-29765.1	0.000000	0.000000	6.653005	0.008363	NaN	0.000000	0.001742	0.001720	28.0787	0.039067	0.002010	19.4409	48.5426	16.4523	-0.004435	0.651354	-0.484224	-0.485605	0.008363	19.4409	-0.484547	-2.08522e+06	-4.010737E-9	NaN
183	1.000000	0.662753	7.36683e+06	-47789.1	955.819	-29765.1	0.000000	0.000000	6.663027	0.091947	NaN	0.000000	0.001701	0.001714	28.0788	0.054171	0.002119	25.5614	21.9138	-165.675	0.073294	0.661430	-0.474206	-0.475529	0.091947	25.5614	-0.476904	-1.62995e+06	-5.641077E-8	NaN
183	1.000000	0.672730	7.36683e+06	-47789.1	955.818	-29765.1	0.000000	0.000000	6.672998	-0.031433	NaN	0.000000	0.001712	0.001720	28.0786	0.023866	0.001932	12.351	-59.7325	15.2652	-0.023472	0.671443	-0.464230	-0.465516	-0.031433	12.351	-0.462321	-1.01771e+06	3.088637E-8	NaN
183	1.000000	0.682759	7.36683e+06	-47789.1	955.818	-29765.1	0.000000	0.000000	6.683030	0.035587	NaN	0.000000	0.001721	0.001727	28.0789	0.045239	0.002062	21.9369	1.858308	-164.855	-0.047185	0.681469	-0.454201	-0.455490	0.035587	21.9369	-0.455417	-813931	-4.372275E-8	NaN
183	1.000000	0.692753	7.36683e+06	-47789.1	955.818	-29765.1	0.000000	0.000000	6.693023	0.000689	NaN	0.000000	0.001705	0.001692	28.0789	0.079478	0.001978	40.1778	-107.544	12.3554	-0.042609	0.691389	-0.444206	-0.445570	0.000689	40.1778	-0.444219	-566089	-1.216747E-9	NaN
183	1.000000	0.702726	7.36683e+06	-47789.1	955.819	-29765.1	0.000000	0.000000	6.702993	-0.077755	NaN	0.000000	0.001735	0.001776	28.0788	0.094057	0.002045	45.9914	-135.183	-166.853	-0.070633	0.701482	-0.434233	-0.435477	-0.077755	45.9914	-0.432965	-392637	1.980320E-7	NaN
183	1.000000	0.712790	7.36683e+06	-47789.1	955.817	-29765.1	0.000000	0.000000	6.713060	0.016836	NaN	0.000000	0.001692	0.001757	28.0789	0.028086	0.002067	13.5899	-48.9717	15.3468	-0.008622	0.711421	-0.424169	-0.425538	0.016836	13.5899	-0.425099	-303864	-5.540501E-8	NaN
183	1.000000	0.722754	7.36683e+06	-47789.1	955.818	-29765.1	0.000000	0.000000	6.723024	0.002518	NaN	0.000000	0.001751	0.001766	28.0788	0.086234	0.001948	44.2729	47.0241	-165.162	-0.071382	0.721464	-0.414205	-0.415495	0.002518	44.2729	-0.414248	-213193	-1.181305E-8	NaN
183	1.000000	0.732771	7.36683e+06	-47789.1	955.818	-29765.1	0.000000	0.000000	6.733042	0.030133	NaN	0.000000	0.001748	0.001734	28.079	0.063173	0.002059	30.6817	-36.3156	17.0217	-0.001300	0.731372	-0.404189	-0.405587	0.030133	30.6817	-0.404925	-157103	-1.918050E-7	NaN
183	1.000000	0.742756	7.36683e+06	-47789.1	955.818	-29765.1	0.000000	0.000000	6.743026	-0.017638	NaN	0.000000	0.001708	0.001720	28.0774	0.062755	0.002001	31.368	-89.271	-165.405	-0.044120	0.741488	-0.394203	-0.395471	-0.017638	31.368	-0.393781	-108949	1.618965E-7	NaN
183	1.000000	0.752754	7.36683e+06	-47789.1	955.818	-29765.1	0.000000	0.000000	6.753022	-0.065166	NaN	0.000000	0.001696	0.001739	28.0777	0.137362	0.002074	66.2293	-143.172	15.9466	-0.001228	0.751422	-0.384205	-0.385537	-0.065166	66.2293	-0.383467	-77556.4	8.402335E-7	NaN
183	1.000000	0.762805	7.36683e+06	-47789.1	955.817	-29765.1	0.000000	0.000000	6.763071	-0.085085	NaN	0.000000	0.001722	0.001723	28.0775	0.012213	0.001834	6.659184	-103.583	-164.764	-0.038476	0.761511	-0.374154	-0.375448	-0.085085	6.659184	-0.364572	-41483.3	2.051061E-6	NaN
183	1.000000	0.772797	7.36684e+06	-47789.1	955.818	-29765.1	0.000000	0.000000	6.773067	-0.001954	NaN	0.000000	0.001720	0.001730	28.0776	0.063124	0.001986	31.7839	-50.1352	13.667	-0.052405	0.771389	-0.364162	-0.365570	-0.001954	31.7839	-0.364116	-40860.2	4.781166E-8	NaN
183	1.000000	0.782791	7.36684e+06	-47789.1	955.817	-29765.1	0.000000	0.000000	6.783058	-0.064721	NaN	0.000000	0.001696	0.001742	28.0775	0.087243	0.002002	43.5821	113.199	-163.964	-0.166756	0.781495	-0.354169	-0.355464	-0.064721	43.5821	-0.353055	-28269.1	2.289452E-6	NaN
183	1.000000	0.792785	7.36684e+06	-47789.1	955.818	-29765.1	0.000000	0.000000	6.793056	0.015851	NaN	0.000000	0.001695	0.001735	28.0778	0.047001	0.002113	22.2426	172.555	16.8724	-0.001840	0.791437	-0.344174	-0.345522	0.015851	22.2426	-0.344709	-21385.4	-7.412048E-7	NaN
183	1.000000	0.802799	7.36684e+06	-47789.1	955.818	-29765.1	0.000000	0.000000	6.803069	-0.018547	NaN	0.000000	0.001733	0.001692	28.0774	0.074305	0.002008	37.0004	-165.989	-166.484	-0.075283	0.801466	-0.334160	-0.335493	-0.018547	37.0004	-0.333784	-14818.9	1.251542E-6	NaN
183	1.000000	0.812789	7.36684e+06	-47789.1	955.818	-29765.1	0.000000	0.000000	6.813057	-0.052542	NaN	0.000000	0.001715	0.001735	28.0775	0.093401	0.001946	48.0043	163.7	14.9399	-0.013192	0.811415	-0.324171	-0.325544	-0.052542	48.0043	-0.323350	-10420.7	5.042082E-6	NaN
183	1.000000	0.822816	7.36684e+06	-47789.1	955.819	-29765.1	0.000000	0.000000	6.823086	0.018561	NaN	0.000000	0.001749	0.001743	28.0774	0.049966	0.001913	26.116	-131.416	-164.478	-0.016143	0.821488	-0.314144	-0.315471	0.018561	26.116	-0.314677	-7765.59	-2.390098E-6	NaN
183	1.000000	0.832810	7.36684e+06	-47789.1	955.818	-29765.1	0.000000	0.000000	6.833081	0.003769	NaN	0.000000	0.001687	0.001757	28.0777	0.068762	0.001959	35.1024	-113.309	13.1734	-0.078496	0.831451	-0.304149	-0.305508	0.003769	35.1024	-0.304229	-5438.92	-6.930563E-7	NaN
183	1.000000	0.842818	7.36684e+06	-47789.1	955.818	-29765.1	0.000000	0.000000	6.843087	-0.018549	NaN	0.000000	0.001713	0.001740	28.0773	0.076771	0.001988	38.6171	-37.2132	-164.269	-0.075836	0.841549	-0.294141	-0.295410	-0.018549	38.6171	-0.293781	-3800.81	4.880286E-6	NaN
183	1.000000	0.852811	7.36684e+06	-47789.1	955.817	-29765.1	0.000000	0.000000	6.853082	0.016155	NaN	0.000000	0.001713	0.001726	28.0774	0.025155	0.001972	12.7592	146.057	14.1798	0.054138	0.851504	-0.284148	-0.285455	0.016155	12.7592	-0.285098	-2816.68	-5.735465E-6	NaN
183	1.000000	0.862831	7.36684e+06	-47789.1	955.818	-29765.1	0.000000	0.000000	6.863103	0.043720	NaN	0.000000	0.001687	0.001742	28.0774	0.038565	0.001924	20.0489	39.3256	-163.931	-0.084592	0.861460	-0.274128	-0.275500	0.043720	20.0489	-0.275763	-2036.83	-2.146470E-5	NaN
183	1.000000	0.872842	7.36684e+06	-47789.1	955.818	-29765.1	0.000000	0.000000	6.873108	-0.102902	NaN	0.000000	0.001683	0.001712	28.0779	0.067440	0.002022	33.3525	-138.303	13.9953	-0.062878	0.871442	-0.264117	-0.265517	-0.102902	33.3525	-0.261803	-1248.91	8.239303E-5	NaN
183	1.000000	0.882855	7.36684e+06	-47789.1	955.817	-29765.1	0.000000	0.000000	6.883126	0.019818	NaN	0.000000	0.001696	0.001733	28.0785	0.018131	0.002066	8.775773	-94.3228	-164.622	0.003684	0.881506	-0.254104	-0.255453	0.019818	8.775773	-0.255798	-1010.17	-1.961865E-5	NaN
183	1.000000	0.892855	7.36684e+06	-47789.1	955.818	-29765.1	0.000000	0.000000	6.893125	-0.005125	NaN	0.000000	0.001727	0.001738	28.0787	0.038028	0.002112	18.0035	54.3579	13.8052	-0.063499	0.891433	-0.244104	-0.245526	-0.005125	18.0035	-0.243891	-661.001	7.753170E-6	NaN
183	1.000000	0.902837	7.36684e+06	-47789.1	955.818	-29765.1	0.000000	0.000000	6.903109	0.053457	NaN	0.000000	0.001720	0.001710	28.0786	0.047100	0.002034	23.1566	103.604	-162.826	-0.041964	0.901513	-0.234122	-0.235446	0.053457	23.1566	-0.235853	-495.043	-0.000108	NaN
183	1.000000	0.912851	7.36684e+06	-47789.1	955.819	-29765.1	0.000000	0.000000	6.913121	-0.001144	NaN	0.000000	0.001680	0.001732	28.0787	0.132814	0.001999	66.454	-21.9632	11.7734	0.029755	0.911501	-0.224108	-0.225458	-0.001144	66.454	-0.224095	-322.818	3.543868E-6	NaN
183	1.000000	0.922825	7.36684e+06	-47789.1	955.818	-29765.1	0.000000	0.000000	6.923092	-0.091053	NaN	0.000000	0.001725	0.001761	28.0785	0.014757	0.001927	7.656976	-53.4508	-167.477	-0.024397	0.921515	-0.214134	-0.215444	-0.091053	7.656976	-0.205215	-160.349	0.000568	NaN
183	1.000000	0.932857	7.36684e+06	-47789.1	955.819	-29765.1	0.000000	0.000000	6.933128	0.017092	NaN	0.000000	0.001725	0.001737	28.0785	0.090711	0.002005	45.2419	-44.4616	15.1553	0.039290	0.931472	-0.204102	-0.205487	0.017092	45.2419	-0.204385	-155.426	-0.000110	NaN
183	1.000000	0.942872	7.36684e+06	-47789.1	955.819	-29765.1	0.000000	0.000000	6.943141	-0.042875	NaN	0.000000	0.001716	0.001664	28.0788	0.039368	0.002013	19.5557	-22.178	-167.433	0.039990	0.941487	-0.194087	-0.195472	-0.042875	19.5557	-0.192443	-98.7977	0.000434	NaN
183	1.000000	0.952856	7.36684e+06	-47789.1	955.819	-29765.1	0.000000	0.000000	6.953124	-0.042548	NaN	0.000000	0.001729	0.001712	28.0787	0.050228	0.001953	25.7142	-27.8326	15.9441	-0.085087	0.951495	-0.184103	-0.185464	-0.042548	25.7142	-0.182862	-68.2384	0.000624	NaN
183	1.000000	0.962870	7.36684e+06	-47789.1	955.818	-29765.1	0.000000	0.000000	6.963141	0.012714	NaN	0.000000	0.001698	0.001715	28.0788	0.073050	0.002036	35.8846	160.912	-162.105	0.033511	0.961545	-0.174089	-0.175415	0.012714	35.8846	-0.174355	-48.8519	-0.000260	NaN
183	1.000000	0.972878	7.36684e+06	-47789.1	955.818	-29765.1	0.000000	0.000000	6.973146	-0.055418	NaN	0.000000	0.001682	0.001713	28.079	0.017608	0.002000	8.804131	-83.4752	13.7403	-0.003077	0.971498	-0.164081	-0.165461	-0.055418	8.804131	-0.159360	-26.7063	0.002075	NaN
183	1.000000	0.982866	7.36684e+06	-47789.1	955.819	-29765.1	0.000000	0.000000	6.983133	-0.070242	NaN	0.000000	0.001679	0.001690	28.0788	0.063319	0.001908	33.186	74.661	-164.096	-0.035222	0.981534	-0.154093	-0.155425	-0.070242	33.186	-0.152506	-20.1163	0.003492	NaN
183	1.000000	0.992887	7.36684e+06	-47789.1	955.818	-29765.1	0.000000	0.000000	6.993158	0.019462	NaN	0.000000	0.001672	0.001710	28.0787	0.027792	0.002113	13.1556	13.6153	14.6453	-0.012989	0.991539	-0.144072	-0.145420	0.019462	13.1556	-0.145182	-14.7752	-0.001317	NaN
183	1.000000	1.002899	7.36684e+06	-47789.1	955.818	-29765.1	0.000000	0.000000	7.003169	-0.000960	NaN	0.000000	0.001699	0.001700	28.0789	0.016693	0.001914	8.720514	-173.931	-166.707	-0.026518	1.001588	-0.134060	-0.135371	-0.000960	8.720514	-0.133977	-9.093467	0.000106	NaN
183	1.000000	1.012879	7.36684e+06	-47789.1	955.819	-29765.1	0.000000	0.000000	7.013146	-0.061008	NaN	0.000000	0.001689	0.001701	28.0779	0.092231	0.001957	47.135	31.984	11.5849	-0.050322	1.011522	-0.124081	-0.125437	-0.061008	47.135	-0.123110	-5.577698	0.010938	NaN
183	1.000000	1.022898	7.36684e+06	-47789.1	955.819	-29765.1	0.000000	0.000000	7.023168	-0.008920	NaN	0.000000	0.001688	0.001699	28.0778	0.032463	0.001902	17.0645	17.6851	-167.56	-0.028776	1.021590	-0.114061	-0.115369	-0.008920	17.0645	-0.113669	-3.585784	0.002488	NaN
183	1.000000	1.032891	7.36684e+06	-47789.1	955.818	-29765.1	0.000000	0.000000	7.033158	-0.062486	NaN	0.000000	0.001648	0.001692	28.0777	0.017627	0.001805	9.765203	7.522269	14.6583	-0.039276	1.031569	-0.104069	-0.105390	-0.062486	9.765203	-0.099269	-1.760141	0.035501	NaN
183	1.000000	1.042886	7.36684e+06	-47789.1	955.817	-29765.1	0.000000	0.000000	7.043155	-0.026138	NaN	0.000000	0.001693	0.001689	28.0774	0.108007	0.002084	51.8282	174.847	-162.811	-0.076890	1.041595	-0.094073	-0.095364	-0.026138	51.8282	-0.093695	-1.316912	0.019848	NaN
183	1.000000	1.052866	7.36684e+06	-47789.1	955.817	-29765.1	0.000000	0.000000	7.053136	-7.686518E-5	NaN	0.000000	0.001701	0.001726	28.0779	0.084748	0.002000	42.3778	-136.634	14.1996	-0.034811	1.051566	-0.084093	-0.085394	-7.686518E-5	42.3778	-0.084092	-0.780972	9.842245E-5	NaN
183	1.000000	1.062914	7.36684e+06	-47789.1	955.817	-29765.1	0.000000	0.000000	7.063183	-0.008669	NaN	0.000000	0.001682	0.001695	28.0775	0.071194	0.001922	37.0463	-100.001	-166.901	-0.031891	1.061642	-0.074045	-0.075318	-0.008669	37.0463	-0.073870	-0.431689	0.020081	NaN
183	1.000000	1.072902	7.36684e+06	-47789.1	955.818	-29765.1	0.000000	0.000000	7.073173	0.022558	NaN	0.000000	0.001706	0.001744	28.0776	0.060605	0.002092	28.9691	-76.0908	14.3175	-0.038603	1.071561	-0.064057	-0.065398	0.022558	28.9691	-0.064641	-0.243563	-0.092615	NaN
183	1.000000	1.082924	7.36684e+06	-47789.1	955.818	-29765.1	0.000000	0.000000	7.083194	-0.012309	NaN	0.000000	0.001712	0.001753	28.0777	0.037286	0.002008	18.5659	-162.632	-165.736	0.009601	1.081597	-0.054035	-0.055362	-0.012309	18.5659	-0.053538	-0.116536	0.105622	NaN
183	1.000000	1.092894	7.36684e+06	-47789.1	955.819	-29765.1	0.000000	0.000000	7.093162	-0.049618	NaN	0.000000	0.001694	0.001715	28.0777	0.017526	0.001876	9.340392	-3.455206	12.8653	-0.066297	1.091547	-0.044065	-0.045412	-0.049618	9.340392	-0.040081	-0.045478	1.091044	NaN
183	1.000000	1.102906	7.36684e+06	-47789.1	955.819	-29765.1	0.000000	0.000000	7.103176	-0.022849	NaN	0.000000	0.001679	0.001726	28.0776	0.014275	0.001993	7.163493	-9.525489	-166.157	-0.038024	1.101618	-0.034053	-0.035342	-0.022849	7.163493	-0.031660	-0.025629	0.891553	NaN
183	1.000000	1.112916	7.36684e+06	-47789.1	955.819	-29765.1	0.000000	0.000000	7.113186	-0.012900	NaN	0.000000	0.001701	0.001714	28.0775	0.086955	0.002014	43.1675	120.639	14.3861	-0.002336	1.111578	-0.024043	-0.025381	-0.012900	43.1675	-0.023819	-0.015720	0.820572	NaN
183	1.000000	1.122910	7.36684e+06	-47789.1	955.819	-29765.1	0.000000	0.000000	7.123178	-0.055573	NaN	0.000000	0.001705	0.001691	28.0778	0.107755	0.002007	53.6992	-9.250460	-163.399	-0.057690	1.121637	-0.014049	-0.015322	-0.055573	53.6992	-0.013273	-0.008260	6.727889	NaN
183	1.000000	1.132927	7.36684e+06	-47789.1	955.819	-29765.1	0.000000	0.000000	7.133196	-0.016470	NaN	0.000000	0.001668	0.001732	28.0775	0.076423	0.002035	37.5562	-112.45	13.9751	0.031220	1.131626	-0.004033	-0.005333	-0.016470	37.5562	-0.003704	-0.002586	6.368667	NaN
183	1.000000	1.142914	7.36684e+06	-47789.1	955.819	-29765.1	0.000000	0.000000	7.143428	5.941805	NaN	0.000000	0.001677	0.001692	28.0776	5.905095	0.001696	3481	12.1568	-171.065	4.455728	1.141562	0.005954	0.004603	5.941805	3481	0.004674	0.003838	1548.15	51336.2
183	2.000000	1.147122	7.36684e+06	-47789.1	955.819	-29765.1	0.000000	0.000000	7.147815	10.2859	NaN	0.000000	0.001693	0.001725	28.0789	9.773506	0.001802	5424.16	6.960681	8.897154	11.0853	1.146682	0.010163	0.009723	10.2859	5424.16	0.008741	0.007816	1316.07	56056.1
183	2.000000	1.149512	7.36684e+06	-47789.1	955.819	-29765.1	0.000000	0.000000	7.150384	14.6406	NaN	0.000000	0.001724	0.001701	28.079	12.4426	0.001788	6957.38	2.967754	-170.197	13.3386	1.149233	0.012553	0.012274	14.6406	6957.38	0.010975	0.010285	1423.45	62677.3
183	2.000000	1.152024	7.36684e+06	-47789.1	955.819	-29765.1	0.000000	0.000000	7.153058	18.5677	NaN	0.000000	0.001691	0.001744	28.0789	14.3125	0.001759	8136.1	4.455409	8.434207	17.6505	1.151682	0.015065	0.014723	18.5677	8136.1	0.013354	0.013152	1411.76	64817.2
183	2.000000	1.154485	7.36684e+06	-47789.1	955.818	-29765.1	0.000000	0.000000	7.155718	23.4262	NaN	0.000000	0.001679	0.001714	28.0789	16.8451	0.001815	9281.52	3.424007	-173.113	22.4698	1.154225	0.017526	0.017266	23.4262	9281.52	0.015633	0.016139	1451.56	66751.2
183	2.000000	1.157013	7.36684e+06	-47789.1	955.819	-29765.1	0.000000	0.000000	7.158396	27.0792	NaN	0.000000	0.001698	0.001719	28.0788	19.0761	0.001842	10358.8	2.932093	6.458611	25.8001	1.156598	0.020054	0.019639	27.0792	10358.8	0.018093	0.019634	1379.18	67542
183	2.000000	1.159466	7.36684e+06	-47789.1	955.819	-29765.1	0.000000	0.000000	7.161032	31.5139	NaN	0.000000	0.001675	0.001715	28.0792	21.3899	0.001814	11791.4	3.704814	-175.21	30.3659	1.159210	0.022507	0.022251	31.5139	11791.4	0.020502	0.023338	1350.35	70519.4
183	2.000000	1.161996	7.36684e+06	-47789.1	955.82	-29765.1	0.000000	0.000000	7.163899	39.7165	NaN	0.000000	0.001694	0.001679	28.0789	22.9846	0.001744	13179.6	6.137896	2.313110	38.3335	1.161627	0.025037	0.024667	39.7165	13179.6	0.022777	0.027094	1465.86	73153.5
183	2.000000	1.164457	7.36684e+06	-47789.1	955.819	-29765.1	0.000000	0.000000	7.166514	43.467	NaN	0.000000	0.001719	0.001696	28.079	25.3142	0.001794	14107.1	6.612016	-179.952	42.1246	1.164161	0.027498	0.027202	43.467	14107.1	0.025187	0.031356	1386.23	72786.1
183	2.000000	1.166981	7.36684e+06	-47789.1	955.819	-29765.1	0.000000	0.000000	7.169278	49.2959	NaN	0.000000	0.001739	0.001687	28.0789	27.5292	0.001695	16243.4	4.867403	0.370972	47.8466	1.166528	0.030022	0.029569	49.2959	16243.4	0.027746	0.036201	1361.74	77999.5
183	2.000000	1.169466	7.36684e+06	-47789.1	955.82	-29765.1	0.000000	0.000000	7.172110	57.7487	NaN	0.000000	0.001702	0.001687	28.0793	30.9027	0.001872	16504.6	5.779399	-179.858	56.7126	1.169129	0.032507	0.032170	57.7487	16504.6	0.029883	0.040501	1425.86	74928.1
183	2.000000	1.171994	7.36684e+06	-47789.1	955.82	-29765.1	0.000000	0.000000	7.174810	61.924	NaN	0.000000	0.001699	0.001745	28.0789	33.0783	0.001866	17724.9	7.083069	-2.272992	61.3519	1.171702	0.035035	0.034743	61.924	17724.9	0.032415	0.045898	1349.17	75589.3
183	2.000000	1.174451	7.36684e+06	-47789.1	955.819	-29765.1	0.000000	0.000000	7.177710	72.7027	NaN	0.000000	0.001692	0.001689	28.079	34.2046	0.001764	19393.6	3.435171	-178.924	71.2829	1.174116	0.037492	0.037157	72.7027	19393.6	0.034680	0.051004	1425.42	78456.2
183	2.000000	1.176897	7.36684e+06	-47789.1	955.819	-29765.1	0.000000	0.000000	7.180492	80.8733	NaN	0.000000	0.001711	0.001696	28.079	37.3341	0.001882	19840.3	6.229014	-1.707772	77.8255	1.176654	0.039938	0.039695	80.8733	19840.3	0.036881	0.056217	1438.6	76452.1
183	2.000000	1.179462	7.36684e+06	-47789.1	955.82	-29765.1	0.000000	0.000000	7.183289	86.4991	NaN	0.000000	0.001693	0.001695	28.0788	39.2247	0.001820	21549.8	3.251369	179.954	86.009	1.179256	0.042503	0.042297	86.4991	21549.8	0.039493	0.062724	1379.04	78614
183	2.000000	1.181909	7.36684e+06	-47789.1	955.82	-29765.1	0.000000	0.000000	7.186116	95.7653	NaN	0.000000	0.001672	0.001661	28.0776	40.8305	0.001700	24023.8	4.032577	-1.819124	91.3255	1.181570	0.044949	0.044611	95.7653	24023.8	0.041960	0.069191	1384.07	83443.2
183	2.000000	1.184473	7.36684e+06	-47789.1	955.819	-29765.1	0.000000	0.000000	7.189145	107.077	NaN	0.000000	0.001674	0.001700	28.0777	42.9748	0.001776	24201.8	4.694261	177.825	107.576	1.184178	0.047514	0.047219	107.077	24201.8	0.044196	0.075320	1421.62	80568.5
183	2.000000	1.186908	7.36684e+06	-47789.1	955.82	-29765.1	0.000000	0.000000	7.192020	117.765	NaN	0.000000	0.001672	0.001674	28.0779	44.6422	0.001741	25648.3	-0.828147	2.204150	114.162	1.186595	0.049949	0.049636	117.765	25648.3	0.046506	0.081919	1437.58	81873
183	2.000000	1.189402	7.36684e+06	-47789.1	955.82	-29765.1	0.000000	0.000000	7.195010	129.841	NaN	0.000000	0.001689	0.001682	28.078	48.7086	0.001796	27114.9	6.759467	174.814	127.968	1.189154	0.052443	0.052195	129.841	27114.9	0.048851	0.088896	1460.59	83088.1
183	2.000000	1.191966	7.36684e+06	-47789.1	955.82	-29765.1	0.000000	0.000000	7.197978	139.664	NaN	0.000000	0.001668	0.001679	28.0775	50.95	0.001846	27603.8	10.0392	-7.773865	139.788	1.191523	0.055007	0.054564	139.664	27603.8	0.051212	0.096196	1451.87	81313.9
183	2.000000	1.194456	7.36684e+06	-47789.1	955.82	-29765.1	0.000000	0.000000	7.200980	152.105	NaN	0.000000	0.001675	0.001670	28.0779	52.8889	0.001863	28388.4	8.077104	174.02	151.994	1.194088	0.057497	0.057129	152.105	28388.4	0.053478	0.103467	1470.09	80633.3
183	2.000000	1.196885	7.36684e+06	-47789.1	955.819	-29765.1	0.000000	0.000000	7.203615	157.108	NaN	0.000000	0.001658	0.001663	28.0779	55.2448	0.001783	30977.6	8.244624	-8.480268	153.727	1.196589	0.059926	0.059630	157.108	30977.6	0.056122	0.112272	1399.36	84466.6
183	2.000000	1.199363	7.36684e+06	-47789.1	955.821	-29765.1	0.000000	0.000000	7.206926	177.389	NaN	0.000000	0.001704	0.001701	28.0779	57.5315	0.001675	34342.5	5.197085	174.238	173.95	1.199008	0.062404	0.062049	177.389	34342.5	0.058530	0.120589	1471.02	90354.9
183	2.000000	1.201861	7.36684e+06	-47789.1	955.82	-29765.1	0.000000	0.000000	7.209907	189.138	NaN	0.000000	0.001701	0.001680	28.0776	59.3166	0.001845	32156.1	4.528642	-3.907697	183.651	1.201581	0.064902	0.064622	189.138	32156.1	0.060490	0.127572	1482.59	82254.4
183	2.000000	1.204336	7.36684e+06	-47789.1	955.819	-29765.1	0.000000	0.000000	7.212950	202.961	NaN	0.000000	0.001653	0.001689	28.078	60.5777	0.001866	32470.2	2.315911	177.807	197.857	1.204071	0.067377	0.067112	202.961	32470.2	0.062689	0.135626	1496.47	80553.9
183	2.000000	1.206878	7.36684e+06	-47789.1	955.82	-29765.1	0.000000	0.000000	7.215982	214.869	NaN	0.000000	0.001672	0.001678	28.078	62.8867	0.001855	33904.2	2.737388	-3.369130	211.22	1.206484	0.069919	0.069524	214.869	33904.2	0.065166	0.144981	1482.05	81352.5
183	2.000000	1.209461	7.36684e+06	-47789.1	955.821	-29765.1	0.000000	0.000000	7.219016	225.825	NaN	0.000000	0.001773	0.001679	28.0794	66.3974	0.001864	35626	8.576012	170.597	229.208	1.209143	0.072502	0.072184	225.825	35626	0.067748	0.155048	1456.49	82662.3
183	2.000000	1.211901	7.36684e+06	-47789.1	955.821	-29765.1	0.000000	0.000000	7.222243	244.958	NaN	0.000000	0.001788	0.001679	28.0776	66.0606	0.001717	38474.2	5.021672	-5.506671	241.303	1.211559	0.074942	0.074600	244.958	38474.2	0.070167	0.164768	1486.68	86597.7
183	2.000000	1.214368	7.36684e+06	-47789.1	955.819	-29765.1	0.000000	0.000000	7.225443	262.799	NaN	0.000000	0.001755	0.001710	28.0789	69.7146	0.001783	39101.2	6.319257	172.655	260.556	1.214020	0.077409	0.077061	262.799	39101.2	0.072368	0.173854	1511.61	85678.4
183	2.000000	1.216808	7.36684e+06	-47789.1	955.82	-29765.1	0.000000	0.000000	7.228317	273.359	NaN	0.000000	0.001778	0.001697	28.079	73.5456	0.001853	39696.8	7.161783	-9.238373	267.074	1.216648	0.079849	0.079688	273.359	39696.8	0.074684	0.183663	1488.37	84628.7
183	2.000000	1.219310	7.36684e+06	-47789.1	955.82	-29765.1	0.000000	0.000000	7.231764	296.337	NaN	0.000000	0.001779	0.001677	28.0789	75.1427	0.001788	42020.5	4.881239	173.33	292.058	1.219015	0.082351	0.082056	296.337	42020.5	0.077062	0.193995	1527.55	87164.5
183	2.000000	1.221941	7.36684e+06	-47789.1	955.82	-29765.1	0.000000	0.000000	7.235108	313.685	NaN	0.000000	0.001753	0.001688	28.0789	77.3644	0.001793	43140	4.806758	-6.342760	311.668	1.221475	0.084982	0.084515	313.685	43140	0.079528	0.204993	1530.23	87053.1
183	2.000000	1.224274	7.36684e+06	-47789.1	955.82	-29765.1	0.000000	0.000000	7.238304	334.677	NaN	0.000000	0.001763	0.001646	28.0789	78.6596	0.001821	43195.3	5.053469	173.418	326.588	1.223959	0.087315	0.087000	334.677	43195.3	0.081504	0.214006	1563.87	85309.4
183	2.000000	1.226826	7.36684e+06	-47789.1	955.82	-29765.1	0.000000	0.000000	7.241472	349.652	NaN	0.000000	0.001753	0.001687	28.0792	83.7807	0.001857	45123.5	6.249147	-8.717509	344.547	1.226486	0.089867	0.089527	349.652	45123.5	0.084056	0.225918	1547.7	86736.4
183	2.000000	1.229329	7.36684e+06	-47789.1	955.819	-29765.1	0.000000	0.000000	7.244575	364.264	NaN	0.000000	0.001762	0.001652	28.079	85.5918	0.001746	49032.8	5.359401	171.09	359.664	1.229090	0.092370	0.092131	364.264	49032.8	0.086798	0.239053	1523.78	91624.7
183	2.000000	1.231976	7.36684e+06	-47789.1	955.819	-29765.1	0.000000	0.000000	7.248178	387.505	NaN	0.000000	0.001728	0.001667	28.079	87.177	0.001779	48996.1	4.621253	-6.965591	388.439	1.231449	0.095017	0.094490	387.505	48996.1	0.089085	0.250275	1548.32	89480.1
183	2.000000	1.234357	7.36684e+06	-47789.1	955.82	-29765.1	0.000000	0.000000	7.251535	411.26	NaN	0.000000	0.001746	0.001677	28.0791	88.9027	0.001716	51799.6	8.124955	168.857	410.269	1.234018	0.097398	0.097059	411.26	51799.6	0.091443	0.262094	1569.13	92442.4
183	2.000000	1.236829	7.36684e+06	-47789.1	955.821	-29765.1	0.000000	0.000000	7.254649	426.865	NaN	0.000000	0.001724	0.001670	28.079	93.2715	0.001876	49716.7	8.040069	-11.1174	421.934	1.236393	0.099870	0.099434	426.865	49716.7	0.093430	0.272251	1567.91	87054.3
183	2.000000	1.239418	7.36684e+06	-47789.1	955.819	-29765.1	0.000000	0.000000	7.257965	444.544	NaN	0.000000	0.001752	0.001671	28.0789	95.3232	0.001794	53125.9	9.772496	166.131	444.183	1.239108	0.102459	0.102149	444.544	53125.9	0.096183	0.286624	1550.96	90661.6
183	2.000000	1.241851	7.36684e+06	-47789.1	955.819	-29765.1	0.000000	0.000000	7.261400	468.914	NaN	0.000000	0.001756	0.001674	28.0789	95.4165	0.001780	53598.8	1.491253	-5.414634	462.493	1.241552	0.104892	0.104593	468.914	53598.8	0.098331	0.298073	1573.15	89694.8
183	2.000000	1.243304	7.36684e+06	-47789.1	955.821	-29765.1	0.000000	0.000000	7.263110	475.17	NaN	0.000000	0.001746	0.001662	28.0791	98.0807	0.001875	52301.3	1.511163	175.207	472.087	1.243140	0.106345	0.106181	475.17	52301.3	0.099531	0.304564	1560.17	86585.7