File: remote_trans/data/nanoindenter/0828-1/data/Data_2025-08-06,11h17m57s/2025-07-22_16-23-58_1_25.txt
2025-07-22, 16:23:58, 1
Index	Phase	Displacement	Time	Pos X	Pos Y	Pos Z	Rot A	Rot B	Piezo Z	Force A	Force B	Gripper	Voltage A	Voltage B	Temperature	Amplitude force	Amplitude pos	Stiffness	Phase shift	Phase excitation	Force A raw	Displacement raw	HMax	HMax raw	Real Force	Real Stiffness	Contact Depth	Area	Hardness	Reduced Mod.
[#]	[#]	[um]	[s]	[um]	[um]	[um]	[m°]	[m°]	[um]	[uN]	[uN]	[V]	[V]	[V]	[°C]	[uN]	[um]	[N/m]	[°]	[°]	[uN]	[um]	[um]	[um]	[uN]	[N/m]	[um]	[um^2]	[MPa]	[MPa]
25	1.000000	0.002343	7.36528e+06	-39889.1	955.819	-29792.7	0.000000	0.000000	6.002792	0.015734	NaN	0.000000	0.001609	0.001678	28.0866	0.141542	0.001035	136.737	61.8149	-172.548	-0.036907	0.001120	-1.220266	-1.221489	0.015734	136.737	-1.220352	-2.056943E+16	-7.649119E-19	NaN
25	1.000000	0.012440	7.36528e+06	-39889.1	955.818	-29792.7	0.000000	0.000000	6.012889	0.001313	NaN	0.000000	0.001620	0.001711	28.081	0.044501	0.001235	36.0205	170.259	19.2549	-0.044530	0.010961	-1.210169	-1.211649	0.001313	36.0205	-1.210196	-1.504072E+16	-8.730910E-20	NaN
25	1.000000	0.022285	7.36528e+06	-39889.1	955.818	-29792.7	0.000000	0.000000	6.022733	-0.002257	NaN	0.000000	0.001584	0.001710	28.1119	0.104216	0.001780	58.5361	-166.814	-168.139	0.016589	0.020991	-1.200324	-1.201618	-0.002257	58.5361	-1.200295	-1.108422E+16	2.036324E-19	NaN
25	1.000000	0.032347	7.36528e+06	-39889.1	955.818	-29792.7	0.000000	0.000000	6.032796	0.011606	NaN	0.000000	0.001586	0.001689	28.1244	0.067146	0.002016	33.3063	159.787	12.4244	0.011529	0.030976	-1.190262	-1.191634	0.011606	33.3063	-1.190523	-8.200346E+15	-1.415306E-18	NaN
25	1.000000	0.042314	7.36528e+06	-39889.1	955.819	-29792.7	0.000000	0.000000	6.042762	-0.021117	NaN	0.000000	0.001619	0.001683	28.0848	0.044020	0.001993	22.0913	-143.127	-167.512	-0.056301	0.040982	-1.180295	-1.181627	-0.021117	22.0913	-1.179578	-5.850867E+15	3.609220E-18	NaN
25	1.000000	0.052347	7.36528e+06	-39889.1	955.818	-29792.7	0.000000	0.000000	6.052792	-0.088163	NaN	0.000000	0.001568	0.001696	28.0807	0.076547	0.001975	38.7656	72.5919	14.7402	-0.033758	0.050946	-1.170262	-1.171664	-0.088163	38.7656	-1.168556	-4.164288E+15	2.117112E-17	NaN
25	1.000000	0.062301	7.36528e+06	-39889.1	955.818	-29792.7	0.000000	0.000000	6.062750	0.020032	NaN	0.000000	0.001571	0.001703	28.1147	0.050341	0.002067	24.3537	9.004652	-164.153	0.014739	0.061023	-1.160308	-1.161587	0.020032	24.3537	-1.160925	-3.290548E+15	-6.087765E-18	NaN
25	1.000000	0.072315	7.36528e+06	-39889.1	955.818	-29792.7	0.000000	0.000000	6.072764	0.023363	NaN	0.000000	0.001601	0.001710	28.127	0.021260	0.001928	11.0284	-23.2525	16.6206	-0.001196	0.070983	-1.150295	-1.151626	0.023363	11.0284	-1.151883	-2.489254E+15	-9.385348E-18	NaN
25	1.000000	0.082335	7.36528e+06	-39889.1	955.819	-29792.7	0.000000	0.000000	6.082780	-0.075294	NaN	0.000000	0.001516	0.001716	28.0865	0.106031	0.001927	55.0346	94.0731	-166.345	0.063993	0.081015	-1.140274	-1.141594	-0.075294	55.0346	-1.139248	-1.685218E+15	4.467927E-17	NaN
25	1.000000	0.092337	7.36528e+06	-39889.1	955.818	-29792.7	0.000000	0.000000	6.092786	0.011960	NaN	0.000000	0.001574	0.001646	28.0802	0.139589	0.002106	66.2887	-69.0405	13.8183	0.055191	0.090973	-1.130272	-1.131636	0.011960	66.2887	-1.130407	-1.282576E+15	-9.325364E-18	NaN
25	1.000000	0.102323	7.36528e+06	-39889.1	955.818	-29792.7	0.000000	0.000000	6.102770	-0.039624	NaN	0.000000	0.001539	0.001660	28.1131	0.152865	0.001851	82.5889	142.757	-165.179	0.028425	0.100998	-1.120286	-1.121612	-0.039624	82.5889	-1.119926	-9.278628E+14	4.270406E-17	NaN
25	1.000000	0.112324	7.36528e+06	-39889.1	955.818	-29792.7	0.000000	0.000000	6.112771	-0.033083	NaN	0.000000	0.001504	0.001673	28.1258	0.044721	0.002000	22.3566	-71.9663	11.873	-0.053832	0.110972	-1.110285	-1.111637	-0.033083	22.3566	-1.109175	-6.656090E+14	4.970355E-17	NaN
25	1.000000	0.122326	7.36528e+06	-39889.1	955.818	-29792.7	0.000000	0.000000	6.122776	0.049446	NaN	0.000000	0.001555	0.001644	28.084	0.087948	0.002071	42.4751	-139.589	-168.956	-0.001456	0.121017	-1.100284	-1.101592	0.049446	42.4751	-1.101157	-5.195125E+14	-9.517680E-17	NaN
25	1.000000	0.132340	7.36528e+06	-39889.1	955.819	-29792.7	0.000000	0.000000	6.132788	-0.006453	NaN	0.000000	0.001535	0.001657	28.0821	0.112206	0.002021	55.5226	131.868	14.1069	-0.102390	0.130992	-1.090269	-1.091618	-0.006453	55.5226	-1.090182	-3.700478E+14	1.743892E-17	NaN
25	1.000000	0.142316	7.36528e+06	-39889.1	955.818	-29792.7	0.000000	0.000000	6.142766	0.033017	NaN	0.000000	0.001535	0.001658	28.1134	0.063394	0.001947	32.5522	153.678	-164.304	-0.062290	0.141029	-1.080294	-1.081580	0.033017	32.5522	-1.081054	-2.790482E+14	-1.183199E-16	NaN
25	1.000000	0.152365	7.36528e+06	-39889.1	955.82	-29792.7	0.000000	0.000000	6.152811	-0.051830	NaN	0.000000	0.001539	0.001699	28.1268	0.119637	0.002021	59.1826	-159.272	15.1634	-0.099810	0.150950	-1.070244	-1.071659	-0.051830	59.1826	-1.069588	-1.957262E+14	2.648085E-16	NaN
25	1.000000	0.162341	7.36528e+06	-39889.1	955.819	-29792.7	0.000000	0.000000	6.162788	-0.052451	NaN	0.000000	0.001534	0.001692	28.0871	0.064647	0.001989	32.5048	119.215	-167.062	-0.079914	0.161066	-1.060268	-1.061543	-0.052451	32.5048	-1.059058	-1.413055E+14	3.711886E-16	NaN
25	1.000000	0.172352	7.36528e+06	-39889.1	955.818	-29792.7	0.000000	0.000000	6.172799	-0.018319	NaN	0.000000	0.001531	0.001652	28.0815	0.060216	0.002030	29.664	-40.5268	12.4448	0.020018	0.170941	-1.050258	-1.051669	-0.018319	29.664	-1.049794	-1.060841E+14	1.726873E-16	NaN
25	1.000000	0.182355	7.36528e+06	-39889.1	955.819	-29792.7	0.000000	0.000000	6.182803	-0.000410	NaN	0.000000	0.001542	0.001681	28.1132	0.032440	0.001978	16.4034	127.564	-161.199	-0.000447	0.181057	-1.040255	-1.041552	-0.000410	16.4034	-1.040236	-7.891130E+13	5.194567E-18	NaN
25	1.000000	0.192355	7.36528e+06	-39889.1	955.818	-29792.7	0.000000	0.000000	6.192803	-0.015202	NaN	0.000000	0.001536	0.001645	28.1248	0.046177	0.001999	23.1048	59.3151	13.3573	0.070383	0.191044	-1.030254	-1.031566	-0.015202	23.1048	-1.029761	-5.705083E+13	2.664620E-16	NaN
25	1.000000	0.202366	7.36528e+06	-39889.1	955.819	-29792.7	0.000000	0.000000	6.202814	-0.000693	NaN	0.000000	0.001529	0.001683	28.0845	0.020811	0.002034	10.2325	108.42	-163.171	-0.082549	0.200984	-1.020243	-1.021625	-0.000693	10.2325	-1.020193	-4.241750E+13	1.633338E-17	NaN
25	1.000000	0.212360	7.36528e+06	-39889.1	955.818	-29792.7	0.000000	0.000000	6.212809	0.000750	NaN	0.000000	0.001563	0.001706	28.0811	0.131391	0.001834	71.6353	-134.911	10.8539	-0.059418	0.210990	-1.010249	-1.011619	0.000750	71.6353	-1.010257	-3.117716E+13	-2.404014E-17	NaN
25	1.000000	0.222370	7.36528e+06	-39889.1	955.818	-29792.7	0.000000	0.000000	6.222816	-0.064787	NaN	0.000000	0.001528	0.001704	28.1126	0.028428	0.001897	14.9884	-106.309	-167.82	-0.078024	0.221047	-1.000239	-1.001562	-0.064787	14.9884	-0.996997	-2.066976E+13	3.134381E-15	NaN
25	1.000000	0.232373	7.36528e+06	-39889.1	955.818	-29792.7	0.000000	0.000000	6.232823	0.030313	NaN	0.000000	0.001546	0.001657	28.1261	0.051675	0.001996	25.8885	-47.9711	13.2951	-0.002143	0.231071	-0.990237	-0.991538	0.030313	25.8885	-0.991115	-1.722362E+13	-1.759988E-15	NaN
25	1.000000	0.242391	7.36528e+06	-39889.1	955.818	-29792.7	0.000000	0.000000	6.242839	-0.003720	NaN	0.000000	0.001544	0.001714	28.0868	0.125855	0.001929	65.2427	-120.618	-168.145	0.021640	0.241110	-0.980218	-0.981499	-0.003720	65.2427	-0.980175	-1.226799E+13	3.032072E-16	NaN
25	1.000000	0.252414	7.36528e+06	-39889.1	955.818	-29792.7	0.000000	0.000000	6.252864	0.022410	NaN	0.000000	0.001547	0.001650	28.0808	0.102936	0.002016	51.0577	26.6149	14.8371	-0.049674	0.250994	-0.970195	-0.971615	0.022410	51.0577	-0.970524	-9.093458E+12	-2.464448E-15	NaN
25	1.000000	0.262399	7.36528e+06	-39889.1	955.818	-29792.7	0.000000	0.000000	6.262848	0.017505	NaN	0.000000	0.001578	0.001701	28.1107	0.032475	0.001947	16.6826	173.368	-167.798	-0.011220	0.261128	-0.960210	-0.961482	0.017505	16.6826	-0.960997	-6.765705E+12	-2.587254E-15	NaN
25	1.000000	0.272386	7.36528e+06	-39889.1	955.817	-29792.7	0.000000	0.000000	6.272833	-0.033188	NaN	0.000000	0.001529	0.001676	28.1251	0.122824	0.002067	59.432	66.1739	13.2286	-0.014356	0.271023	-0.950223	-0.951587	-0.033188	59.432	-0.949805	-4.779605E+12	6.943681E-15	NaN
25	1.000000	0.282391	7.36528e+06	-39889.1	955.818	-29792.7	0.000000	0.000000	6.282838	-0.034315	NaN	0.000000	0.001546	0.001690	28.0846	0.094469	0.001965	48.0663	-74.896	-168.887	0.019218	0.281085	-0.940218	-0.941524	-0.034315	48.0663	-0.939683	-3.490244E+12	9.831707E-15	NaN
25	1.000000	0.292424	7.36528e+06	-39889.1	955.818	-29792.7	0.000000	0.000000	6.292872	-0.010971	NaN	0.000000	0.001553	0.001620	28.081	0.052657	0.001932	27.2572	-106.82	12.5146	-0.006914	0.291038	-0.930185	-0.931571	-0.010971	27.2572	-0.929883	-2.574063E+12	4.261990E-15	NaN
25	1.000000	0.302401	7.36528e+06	-39889.1	955.819	-29792.7	0.000000	0.000000	6.302847	-0.069393	NaN	0.000000	0.001553	0.001664	28.1118	0.068195	0.001863	36.605	111.158	-168.034	-0.026560	0.301085	-0.920208	-0.921524	-0.069393	36.605	-0.918786	-1.823142E+12	3.806239E-14	NaN
25	1.000000	0.312415	7.36528e+06	-39889.1	955.818	-29792.7	0.000000	0.000000	6.312866	0.059299	NaN	0.000000	0.001555	0.001679	28.1264	0.028152	0.002005	14.0377	7.697143	18.6694	-0.022484	0.311046	-0.910194	-0.911564	0.059299	14.0377	-0.913362	-1.540196E+12	-3.850114E-14	NaN
25	1.000000	0.322415	7.36528e+06	-39889.1	955.818	-29792.7	0.000000	0.000000	6.322865	0.035471	NaN	0.000000	0.001527	0.001673	28.0872	0.137996	0.002036	67.7711	178.285	-170.254	-0.072292	0.321132	-0.900194	-0.901477	0.035471	67.7711	-0.900587	-1.035133E+12	-3.426706E-14	NaN
25	1.000000	0.332403	7.36528e+06	-39889.1	955.818	-29792.7	0.000000	0.000000	6.332854	0.051889	NaN	0.000000	0.001538	0.001683	28.0804	0.056674	0.001949	29.0751	-21.0409	13.4757	0.049434	0.331049	-0.890206	-0.891560	0.051889	29.0751	-0.891545	-7.812615E+11	-6.641736E-14	NaN
25	1.000000	0.342444	7.36528e+06	-39889.1	955.818	-29792.7	0.000000	0.000000	6.342894	0.034206	NaN	0.000000	0.001520	0.001648	28.1117	0.007571	0.001903	3.978108	82.5923	-165.442	0.043337	0.341098	-0.880165	-0.881512	0.034206	3.978108	-0.886614	-6.701023E+11	-5.104601E-14	NaN
25	1.000000	0.352432	7.36528e+06	-39889.1	955.818	-29792.7	0.000000	0.000000	6.352884	0.096055	NaN	0.000000	0.001537	0.001690	28.1273	0.058778	0.002007	29.2888	-84.1384	17.0885	0.028446	0.351096	-0.870177	-0.871513	0.096055	29.2888	-0.872637	-4.336308E+11	-2.215142E-13	NaN
25	1.000000	0.362457	7.36528e+06	-39889.1	955.818	-29792.7	0.000000	0.000000	6.362906	0.019086	NaN	0.000000	0.001569	0.001682	28.0864	0.073604	0.001944	37.8663	126.252	-167.677	0.068216	0.361105	-0.860152	-0.861504	0.019086	37.8663	-0.860530	-2.973725E+11	-6.418073E-14	NaN
25	1.000000	0.372441	7.36528e+06	-39889.1	955.819	-29792.7	0.000000	0.000000	6.372889	-0.033555	NaN	0.000000	0.001564	0.001666	28.0804	0.038598	0.002035	18.969	161.377	10.3818	-0.019976	0.371097	-0.850168	-0.851512	-0.033555	18.969	-0.848841	-2.065596E+11	1.624476E-13	NaN
25	1.000000	0.382446	7.36528e+06	-39889.1	955.818	-29792.7	0.000000	0.000000	6.382897	0.052140	NaN	0.000000	0.001565	0.001662	28.1121	0.011631	0.002089	5.567348	-66.8592	-167.128	0.011037	0.381162	-0.840163	-0.841447	0.052140	5.567348	-0.847187	-1.961733E+11	-2.657841E-13	NaN
25	1.000000	0.392450	7.36528e+06	-39889.1	955.819	-29792.7	0.000000	0.000000	6.392903	0.090246	NaN	0.000000	0.001552	0.001661	28.1281	0.036985	0.002074	17.8347	-36.3114	12.0072	0.057712	0.391088	-0.830159	-0.831521	0.090246	17.8347	-0.833954	-1.298286E+11	-6.951149E-13	NaN
25	1.000000	0.402453	7.36528e+06	-39889.1	955.818	-29792.7	0.000000	0.000000	6.402902	-0.007717	NaN	0.000000	0.001583	0.001671	28.0877	0.027155	0.001875	14.4808	97.2994	-170.643	-0.024701	0.401151	-0.820156	-0.821458	-0.007717	14.4808	-0.819756	-8.334981E+10	9.258351E-14	NaN
25	1.000000	0.412432	7.36528e+06	-39889.1	955.818	-29792.7	0.000000	0.000000	6.412882	0.039663	NaN	0.000000	0.001625	0.001660	28.0798	0.021584	0.001957	11.0298	-129.412	14.7003	0.026537	0.411105	-0.810178	-0.811504	0.039663	11.0298	-0.812875	-6.723135E+10	-5.899544E-13	NaN
25	1.000000	0.422481	7.36529e+06	-39889.1	955.818	-29792.7	0.000000	0.000000	6.422931	0.050491	NaN	0.000000	0.001587	0.001656	28.1111	0.027967	0.002035	13.7428	94.8015	-166.805	-0.025922	0.421142	-0.800129	-0.801467	0.050491	13.7428	-0.802884	-4.920515E+10	-1.026125E-12	NaN
25	1.000000	0.432461	7.36529e+06	-39889.1	955.818	-29792.7	0.000000	0.000000	6.432907	-0.053653	NaN	0.000000	0.001582	0.001675	28.1269	0.067616	0.002048	33.023	-16.7735	13.5401	-0.006914	0.431097	-0.790148	-0.791512	-0.053653	33.023	-0.788930	-3.180873E+10	1.686723E-12	NaN
25	1.000000	0.442465	7.36529e+06	-39889.1	955.818	-29792.7	0.000000	0.000000	6.442911	-0.076867	NaN	0.000000	0.001585	0.001696	28.0855	0.124269	0.002023	61.4161	123.461	-163.019	-0.008137	0.441162	-0.780144	-0.781447	-0.076867	61.4161	-0.779205	-2.346558E+10	3.275729E-12	NaN
25	1.000000	0.452446	7.36529e+06	-39889.1	955.818	-29792.7	0.000000	0.000000	6.452895	0.013848	NaN	0.000000	0.001577	0.001699	28.0809	0.034802	0.001971	17.6568	-123.563	13.5718	-0.013898	0.451137	-0.770163	-0.771472	0.013848	17.6568	-0.770751	-1.801023E+10	-7.688743E-13	NaN
25	1.000000	0.462466	7.36529e+06	-39889.1	955.818	-29792.7	0.000000	0.000000	6.462917	0.051949	NaN	0.000000	0.001567	0.001716	28.1102	0.009215	0.001974	4.668220	61.5539	-163.395	0.043032	0.461133	-0.760143	-0.761477	0.051949	4.668220	-0.768489	-1.677882E+10	-3.096114E-12	NaN
25	1.000000	0.472476	7.36529e+06	-39889.1	955.818	-29792.7	0.000000	0.000000	6.472926	0.038983	NaN	0.000000	0.001592	0.001723	28.1268	0.094167	0.002009	46.87	-45.095	13.9265	0.079352	0.471116	-0.750133	-0.751493	0.038983	46.87	-0.750757	-9.627666E+9	-4.049044E-12	NaN
25	1.000000	0.482487	7.36529e+06	-39889.1	955.818	-29792.7	0.000000	0.000000	6.482935	-0.005868	NaN	0.000000	0.001578	0.001684	28.0871	0.141263	0.002075	68.0912	90.7812	-168.427	-0.022504	0.481240	-0.740123	-0.741369	-0.005868	68.0912	-0.740058	-6.884106E+9	8.523640E-13	NaN
25	1.000000	0.492481	7.36529e+06	-39889.1	955.818	-29792.7	0.000000	0.000000	6.492931	0.038406	NaN	0.000000	0.001575	0.001661	28.0796	0.032987	0.001928	17.1075	-44.3122	13.9001	0.081801	0.491191	-0.730128	-0.731419	0.038406	17.1075	-0.731812	-5.314943E+9	-7.226078E-12	NaN
25	1.000000	0.502488	7.36529e+06	-39889.1	955.819	-29792.7	0.000000	0.000000	6.502938	0.026090	NaN	0.000000	0.001628	0.001654	28.1098	0.091305	0.001944	46.9563	12.4884	-165.607	0.073159	0.501183	-0.720121	-0.721426	0.026090	46.9563	-0.720538	-3.730813E+9	-6.993157E-12	NaN
25	1.000000	0.512515	7.36529e+06	-39889.1	955.818	-29792.7	0.000000	0.000000	6.512964	0.019919	NaN	0.000000	0.001581	0.001649	28.1257	0.046748	0.001946	24.0178	140.434	12.2047	0.043437	0.511122	-0.710094	-0.711487	0.019919	24.0178	-0.710716	-2.740447E+9	-7.268570E-12	NaN
25	1.000000	0.522494	7.36529e+06	-39889.1	955.818	-29792.7	0.000000	0.000000	6.522941	-0.024000	NaN	0.000000	0.001624	0.001689	28.0855	0.136244	0.002083	65.4149	-98.8242	-166.682	0.018948	0.521278	-0.700115	-0.701331	-0.024000	65.4149	-0.699840	-1.946922E+9	1.232692E-11	NaN
25	1.000000	0.532486	7.36529e+06	-39889.1	955.819	-29792.7	0.000000	0.000000	6.532937	0.048400	NaN	0.000000	0.001604	0.001665	28.0791	0.173433	0.001941	89.3356	-58.0773	10.3336	-0.020405	0.531168	-0.690123	-0.691441	0.048400	89.3356	-0.690529	-1.452617E+9	-3.331900E-11	NaN
25	1.000000	0.542509	7.36529e+06	-39889.1	955.818	-29792.7	0.000000	0.000000	6.542959	0.052544	NaN	0.000000	0.001587	0.001723	28.1103	0.018962	0.001937	9.790248	82.6476	-165.851	0.056979	0.541207	-0.680101	-0.681402	0.052544	9.790248	-0.684126	-1.187477E+9	-4.424870E-11	NaN
25	1.000000	0.552495	7.36529e+06	-39889.1	955.818	-29792.7	0.000000	0.000000	6.552946	0.067891	NaN	0.000000	0.001604	0.001675	28.127	0.076243	0.002101	36.2951	149.004	14.5813	0.044628	0.551127	-0.670114	-0.671482	0.067891	36.2951	-0.671517	-7.982835E+8	-8.504670E-11	NaN
25	1.000000	0.562527	7.36529e+06	-39889.1	955.819	-29792.7	0.000000	0.000000	6.562976	0.014855	NaN	0.000000	0.001597	0.001697	28.0874	0.069156	0.001989	34.7762	-64.6083	-170.009	0.004200	0.561169	-0.660082	-0.661440	0.014855	34.7762	-0.660403	-5.623246E+8	-2.641780E-11	NaN
25	1.000000	0.572517	7.36529e+06	-39889.1	955.819	-29792.7	0.000000	0.000000	6.572966	0.001346	NaN	0.000000	0.001548	0.001699	28.0791	0.059564	0.001894	31.4481	-11.3262	13.6057	0.033603	0.571161	-0.650092	-0.651448	0.001346	31.4481	-0.650124	-4.065732E+8	-3.311163E-12	NaN
25	1.000000	0.582507	7.36529e+06	-39889.1	955.818	-29792.7	0.000000	0.000000	6.582955	-0.002842	NaN	0.000000	0.001549	0.001675	28.1098	0.067122	0.001946	34.4919	-132.867	-171.348	0.001614	0.581216	-0.640103	-0.641393	-0.002842	34.4919	-0.640041	-2.956987E+8	9.612765E-12	NaN
25	1.000000	0.592512	7.36529e+06	-39889.1	955.819	-29792.7	0.000000	0.000000	6.592962	0.029038	NaN	0.000000	0.001577	0.001687	28.1261	0.062101	0.001990	31.2063	81.1502	11.9158	-0.044643	0.591207	-0.630097	-0.631402	0.029038	31.2063	-0.630795	-2.207699E+8	-1.315309E-10	NaN
25	1.000000	0.602525	7.36529e+06	-39889.1	955.818	-29792.7	0.000000	0.000000	6.602975	0.038950	NaN	0.000000	0.001563	0.001664	28.0868	0.090878	0.001963	46.3009	-122.533	-166.485	0.027532	0.601213	-0.620084	-0.621396	0.038950	46.3009	-0.620715	-1.604944E+8	-2.426899E-10	NaN
25	1.000000	0.612531	7.36529e+06	-39889.1	955.819	-29792.7	0.000000	0.000000	6.612982	0.055550	NaN	0.000000	0.001552	0.001696	28.0814	0.062540	0.001868	33.4769	27.2628	12.0059	0.076460	0.611182	-0.610078	-0.611427	0.055550	33.4769	-0.611323	-1.192105E+8	-4.659807E-10	NaN
25	1.000000	0.622567	7.36529e+06	-39889.1	955.819	-29792.7	0.000000	0.000000	6.623015	-0.011459	NaN	0.000000	0.001580	0.001647	28.1114	0.030003	0.002017	14.8777	-5.090608	-168.227	0.031345	0.621252	-0.600042	-0.601357	-0.011459	14.8777	-0.599465	-8.186327E+7	1.399772E-10	NaN
25	1.000000	0.632532	7.36529e+06	-39889.1	955.818	-29792.7	0.000000	0.000000	6.632979	-0.014703	NaN	0.000000	0.001582	0.001677	28.1287	0.037220	0.002085	17.8506	-136.334	11.433	-0.053589	0.631238	-0.590078	-0.591371	-0.014703	17.8506	-0.589460	-5.959646E+7	2.467125E-10	NaN
25	1.000000	0.642564	7.36529e+06	-39889.1	955.818	-29792.7	0.000000	0.000000	6.643013	0.008571	NaN	0.000000	0.001570	0.001692	28.0885	0.034059	0.002026	16.8119	-46.1287	-163.086	0.052790	0.641251	-0.580045	-0.581358	0.008571	16.8119	-0.580428	-4.473293E+7	-1.916062E-10	NaN
25	1.000000	0.652564	7.36529e+06	-39889.1	955.819	-29792.7	0.000000	0.000000	6.653013	0.011453	NaN	0.000000	0.001570	0.001672	28.0799	0.014669	0.001941	7.556053	-127.696	12.7254	-0.018986	0.651173	-0.570045	-0.571436	0.011453	7.556053	-0.571182	-3.333945E+7	-3.435299E-10	NaN
25	1.000000	0.662546	7.36529e+06	-39889.1	955.818	-29792.7	0.000000	0.000000	6.662993	-0.024161	NaN	0.000000	0.001562	0.001700	28.1095	0.105966	0.002070	51.188	-86.3862	-166.396	-0.020223	0.661288	-0.560063	-0.561322	-0.024161	51.188	-0.559709	-2.313963E+7	1.044150E-9	NaN
25	1.000000	0.672561	7.36529e+06	-39889.1	955.818	-29792.7	0.000000	0.000000	6.673012	0.068234	NaN	0.000000	0.001536	0.001656	28.1277	0.126130	0.002108	59.8246	39.0582	11.3622	0.121293	0.671167	-0.550048	-0.551443	0.068234	59.8246	-0.550904	-1.747725E+7	-3.904174E-9	NaN
25	1.000000	0.682581	7.36529e+06	-39889.1	955.818	-29792.7	0.000000	0.000000	6.683030	0.005799	NaN	0.000000	0.001550	0.001672	28.0867	0.023756	0.001928	12.3208	149.304	-166.554	-0.011662	0.681274	-0.540028	-0.541335	0.005799	12.3208	-0.540381	-1.249228E+7	-4.641971E-10	NaN
25	1.000000	0.692585	7.36529e+06	-39889.1	955.818	-29792.7	0.000000	0.000000	6.693035	0.025856	NaN	0.000000	0.001572	0.001666	28.0811	0.051193	0.001963	26.0819	90.3659	16.143	0.041529	0.691214	-0.530024	-0.531395	0.025856	26.0819	-0.530767	-9.18824e+06	-2.814021E-9	NaN
25	1.000000	0.702578	7.36529e+06	-39889.1	955.818	-29792.7	0.000000	0.000000	6.703025	-0.032659	NaN	0.000000	0.001575	0.001648	28.1105	0.075834	0.001953	38.8238	70.7347	-168.258	0.034152	0.701242	-0.520032	-0.521367	-0.032659	38.8238	-0.519401	-6.38647e+06	5.113839E-9	NaN
25	1.000000	0.712594	7.36529e+06	-39889.1	955.818	-29792.7	0.000000	0.000000	6.713042	0.002161	NaN	0.000000	0.001606	0.001652	28.1288	0.124104	0.002137	58.0676	7.419280	9.194010	-0.006064	0.711241	-0.510016	-0.511368	0.002161	58.0676	-0.510044	-4.73176e+06	-4.567837E-10	NaN
25	1.000000	0.722594	7.36529e+06	-39889.1	955.818	-29792.7	0.000000	0.000000	6.723041	-0.057717	NaN	0.000000	0.001605	0.001656	28.0879	0.041416	0.001963	21.0963	2.933082	-164.856	-0.014430	0.721277	-0.500015	-0.501333	-0.057717	21.0963	-0.497963	-3.21066e+06	1.797655E-8	NaN
25	1.000000	0.732592	7.36529e+06	-39889.1	955.818	-29792.7	0.000000	0.000000	6.733045	0.118742	NaN	0.000000	0.001596	0.001643	28.0795	0.049586	0.001988	24.9385	87.1525	12.7109	0.109591	0.731269	-0.490018	-0.491341	0.118742	24.9385	-0.493589	-2.78951e+06	-4.256724E-8	NaN
25	1.000000	0.742619	7.36529e+06	-39889.1	955.819	-29792.7	0.000000	0.000000	6.743066	-0.034033	NaN	0.000000	0.001572	0.001661	28.1083	0.020450	0.002076	9.849727	-110.621	-168.813	0.000360	0.741303	-0.479990	-0.481307	-0.034033	9.849727	-0.477399	-1.65616e+06	2.054929E-8	NaN
25	1.000000	0.752571	7.36529e+06	-39889.1	955.818	-29792.7	0.000000	0.000000	6.753019	-0.003669	NaN	0.000000	0.001579	0.001685	28.1266	0.026052	0.001992	13.0814	133.133	12.3597	-0.056166	0.751184	-0.470039	-0.471425	-0.003669	13.0814	-0.469828	-1.29717e+06	2.828774E-9	NaN
25	1.000000	0.762621	7.36529e+06	-39889.1	955.819	-29792.7	0.000000	0.000000	6.763068	-0.036359	NaN	0.000000	0.001543	0.001669	28.0861	0.040604	0.002067	19.6464	11.0042	-167.242	-0.081885	0.761276	-0.459988	-0.461334	-0.036359	19.6464	-0.458600	-902292	4.029580E-8	NaN
25	1.000000	0.772626	7.36529e+06	-39889.1	955.819	-29792.7	0.000000	0.000000	6.773075	0.014998	NaN	0.000000	0.001595	0.001592	28.0806	0.089582	0.002012	44.5195	-2.626945	12.6568	-0.017748	0.771234	-0.449983	-0.451376	0.014998	44.5195	-0.450236	-688114	-2.179646E-8	NaN
25	1.000000	0.782587	7.36529e+06	-39889.1	955.818	-29792.7	0.000000	0.000000	6.783034	-0.034485	NaN	0.000000	0.001576	0.001606	28.1091	0.078814	0.001980	39.809	-71.4474	-167.75	-0.013584	0.781307	-0.440022	-0.441302	-0.034485	39.809	-0.439373	-483625	7.130602E-8	NaN
25	1.000000	0.792591	7.36529e+06	-39889.1	955.819	-29792.7	0.000000	0.000000	6.793041	0.038773	NaN	0.000000	0.001578	0.001631	28.1279	0.059288	0.002120	27.9659	-95.2427	11.8366	0.021370	0.791215	-0.430018	-0.431394	0.038773	27.9659	-0.431058	-369000	-1.050749E-7	NaN
25	1.000000	0.802611	7.36529e+06	-39889.1	955.819	-29792.7	0.000000	0.000000	6.803060	0.009380	NaN	0.000000	0.001558	0.001619	28.0878	0.026112	0.002030	12.8614	88.2924	-171.97	-0.030799	0.801320	-0.419998	-0.421289	0.009380	12.8614	-0.420545	-261907	-3.581537E-8	NaN
25	1.000000	0.812637	7.36529e+06	-39889.1	955.818	-29792.7	0.000000	0.000000	6.813085	-0.018792	NaN	0.000000	0.001527	0.001634	28.0795	0.052428	0.001949	26.9014	35.6272	11.0911	0.086506	0.811298	-0.409972	-0.411311	-0.018792	26.9014	-0.409448	-182201	1.031391E-7	NaN
25	1.000000	0.822635	7.36529e+06	-39889.1	955.818	-29792.7	0.000000	0.000000	6.823085	0.027214	NaN	0.000000	0.001558	0.001613	28.1081	0.018007	0.002077	8.669222	42.5908	-167.056	0.022382	0.821285	-0.399974	-0.401325	0.027214	8.669222	-0.402328	-144275	-1.886235E-7	NaN
25	1.000000	0.832631	7.36529e+06	-39889.1	955.818	-29792.7	0.000000	0.000000	6.833079	-0.004721	NaN	0.000000	0.001593	0.001664	28.127	0.005486	0.001832	2.995338	19.9022	11.1673	-0.063960	0.831247	-0.389978	-0.391362	-0.004721	2.995338	-0.388796	-92458.3	5.105920E-8	NaN
25	1.000000	0.842657	7.36529e+06	-39889.1	955.818	-29792.7	0.000000	0.000000	6.843108	0.066038	NaN	0.000000	0.001563	0.001608	28.087	0.109503	0.002035	53.8082	-55.419	-166.529	0.001751	0.841358	-0.379952	-0.381251	0.066038	53.8082	-0.380873	-71188.9	-9.276474E-7	NaN
25	1.000000	0.852616	7.36529e+06	-39889.1	955.818	-29792.7	0.000000	0.000000	6.853067	0.053032	NaN	0.000000	0.001605	0.001615	28.0807	0.042268	0.001895	22.2991	160.487	11.6926	0.090668	0.851326	-0.369993	-0.371283	0.053032	22.2991	-0.371777	-52687.2	-1.006551E-6	NaN
25	1.000000	0.862635	7.36529e+06	-39889.1	955.819	-29792.7	0.000000	0.000000	6.863085	0.029827	NaN	0.000000	0.001643	0.001635	28.1091	0.086329	0.002052	42.0634	121.747	-166.166	0.047807	0.861320	-0.359974	-0.361289	0.029827	42.0634	-0.360506	-36237.4	-8.231115E-7	NaN
25	1.000000	0.872631	7.36529e+06	-39889.1	955.818	-29792.7	0.000000	0.000000	6.873080	0.022702	NaN	0.000000	0.001570	0.001600	28.1294	0.079252	0.001961	40.4098	75.4945	13.1363	-0.026871	0.871285	-0.349979	-0.351324	0.022702	40.4098	-0.350400	-25870.6	-8.775222E-7	NaN
25	1.000000	0.882644	7.36529e+06	-39889.1	955.819	-29792.7	0.000000	0.000000	6.883095	0.062485	NaN	0.000000	0.001566	0.001639	28.09	0.086472	0.001880	45.9923	28.1724	-164.979	0.104902	0.881326	-0.339966	-0.341283	0.062485	45.9923	-0.340985	-18875.6	-3.310324E-6	NaN
25	1.000000	0.892675	7.36529e+06	-39889.1	955.818	-29792.7	0.000000	0.000000	6.893125	0.021857	NaN	0.000000	0.001577	0.001604	28.0803	0.047498	0.002030	23.4013	-142.936	12.1756	0.034020	0.891287	-0.329934	-0.331323	0.021857	23.4013	-0.330634	-13327.2	-1.640015E-6	NaN
25	1.000000	0.902656	7.36529e+06	-39889.1	955.819	-29792.7	0.000000	0.000000	6.903105	0.032619	NaN	0.000000	0.001575	0.001601	28.1079	0.028358	0.002055	13.8006	73.5101	-167.341	0.013208	0.901340	-0.319954	-0.321269	0.032619	13.8006	-0.321726	-9863.62	-3.306960E-6	NaN
25	1.000000	0.912680	7.36529e+06	-39889.1	955.819	-29792.7	0.000000	0.000000	6.913128	-0.016874	NaN	0.000000	0.001585	0.001591	28.1283	0.066218	0.002048	32.3297	-132.259	12.2692	-0.063509	0.911309	-0.309929	-0.311300	-0.016874	32.3297	-0.309538	-6519.51	2.588228E-6	NaN
25	1.000000	0.922674	7.36529e+06	-39889.1	955.819	-29792.7	0.000000	0.000000	6.923120	-0.073938	NaN	0.000000	0.001600	0.001616	28.0879	0.053385	0.001980	26.9623	-174.442	-164.913	-0.055700	0.921393	-0.299935	-0.301216	-0.073938	26.9623	-0.297879	-4375.56	1.689801E-5	NaN
25	1.000000	0.932667	7.36529e+06	-39889.1	955.819	-29792.7	0.000000	0.000000	6.933114	-0.037710	NaN	0.000000	0.001560	0.001591	28.0809	0.077133	0.001998	38.6051	-117.687	12.9232	-7.990878E-6	0.931307	-0.289942	-0.291302	-0.037710	38.6051	-0.289209	-3246.77	1.161473E-5	NaN
25	1.000000	0.942676	7.36529e+06	-39889.1	955.819	-29792.7	0.000000	0.000000	6.943123	-0.041852	NaN	0.000000	0.001555	0.001687	28.1094	0.095565	0.001939	49.298	160.758	-166.973	-0.029640	0.941358	-0.279933	-0.281251	-0.041852	49.298	-0.279296	-2303.3	1.817061E-5	NaN
25	1.000000	0.952664	7.36529e+06	-39889.1	955.818	-29792.7	0.000000	0.000000	6.953111	-0.031685	NaN	0.000000	0.001491	0.001657	28.1296	0.049555	0.002014	24.6007	-41.8593	14.478	0.025617	0.951338	-0.269946	-0.271272	-0.031685	24.6007	-0.268980	-1607.04	1.971652E-5	NaN
25	1.000000	0.962697	7.36529e+06	-39889.1	955.819	-29792.7	0.000000	0.000000	6.963145	-0.006599	NaN	0.000000	0.001541	0.001644	28.0899	0.033333	0.001902	17.5239	37.0397	-164.253	-0.001578	0.961380	-0.259913	-0.261229	-0.006599	17.5239	-0.259630	-1156.77	5.704540E-6	NaN
25	1.000000	0.972674	7.36529e+06	-39889.1	955.819	-29792.7	0.000000	0.000000	6.973120	-0.055793	NaN	0.000000	0.001500	0.001650	28.079	0.059855	0.001968	30.4172	153.448	16.3836	-0.083255	0.971342	-0.249936	-0.251267	-0.055793	30.4172	-0.248560	-781.048	7.143328E-5	NaN
25	1.000000	0.982686	7.36529e+06	-39889.1	955.818	-29792.7	0.000000	0.000000	6.983137	0.051965	NaN	0.000000	0.001538	0.001652	28.1078	0.011567	0.002086	5.546088	172.354	-166.572	0.077559	0.981405	-0.239923	-0.241204	0.051965	5.546088	-0.246951	-737.46	-7.046531E-5	NaN
25	1.000000	0.992696	7.36529e+06	-39889.1	955.819	-29792.7	0.000000	0.000000	6.993145	-0.008489	NaN	0.000000	0.001527	0.001571	28.1287	0.053540	0.001990	26.9016	-92.2557	11.4603	0.034694	0.991352	-0.229913	-0.231257	-0.008489	26.9016	-0.229676	-395.733	2.145045E-5	NaN
25	1.000000	1.002700	7.36529e+06	-39889.1	955.82	-29792.7	0.000000	0.000000	7.003151	0.051321	NaN	0.000000	0.001514	0.001605	28.0884	0.071478	0.002067	34.5803	-118.803	-166.156	0.036482	1.001446	-0.219909	-0.221163	0.051321	34.5803	-0.221022	-288.404	-0.000178	NaN
25	1.000000	1.012710	7.36529e+06	-39889.1	955.819	-29792.7	0.000000	0.000000	7.013160	0.037174	NaN	0.000000	0.001513	0.001625	28.0794	0.036407	0.002140	17.0094	-36.9746	11.525	0.112646	1.011360	-0.209900	-0.211249	0.037174	17.0094	-0.211539	-203.101	-0.000183	NaN
25	1.000000	1.022714	7.36529e+06	-39889.1	955.819	-29792.7	0.000000	0.000000	7.023164	0.039261	NaN	0.000000	0.001512	0.001610	28.107	0.098838	0.002027	48.7689	23.2861	-164.772	0.089394	1.021295	-0.199895	-0.201315	0.039261	48.7689	-0.200499	-134.244	-0.000292	NaN
25	1.000000	1.032685	7.36529e+06	-39889.1	955.819	-29792.7	0.000000	0.000000	7.033134	0.013299	NaN	0.000000	0.001496	0.001619	28.1282	0.015505	0.002066	7.505329	-115.083	15.8044	-0.009168	1.031348	-0.189924	-0.191261	0.013299	7.505329	-0.191253	-94.3926	-0.000141	NaN
25	1.000000	1.042699	7.36529e+06	-39889.1	955.818	-29792.7	0.000000	0.000000	7.043149	0.040854	NaN	0.000000	0.001496	0.001620	28.0876	0.035528	0.001973	18.0062	-75.2242	-167.583	0.125852	1.041419	-0.179911	-0.181191	0.040854	18.0062	-0.181612	-64.9913	-0.000629	NaN
25	1.000000	1.052712	7.36529e+06	-39889.1	955.819	-29792.7	0.000000	0.000000	7.053160	-0.017793	NaN	0.000000	0.001511	0.001616	28.0783	0.095293	0.001944	49.0207	-136.208	8.814212	-0.022211	1.051354	-0.169897	-0.171255	-0.017793	49.0207	-0.169625	-40.4667	0.000440	NaN
25	1.000000	1.062701	7.36529e+06	-39889.1	955.818	-29792.7	0.000000	0.000000	7.063147	-0.047786	NaN	0.000000	0.001492	0.001582	28.106	0.040098	0.002029	19.7652	33.4099	-168.593	-0.111797	1.061381	-0.159909	-0.161228	-0.047786	19.7652	-0.158095	-25.3548	0.001885	NaN
25	1.000000	1.072715	7.36529e+06	-39889.1	955.819	-29792.7	0.000000	0.000000	7.073164	0.003044	NaN	0.000000	0.001515	0.001613	28.1272	0.086448	0.001970	43.877	149.506	10.9032	-0.029359	1.071353	-0.149894	-0.151256	0.003044	43.877	-0.149946	-18.0726	-0.000168	NaN
25	1.000000	1.082740	7.36529e+06	-39889.1	955.819	-29792.7	0.000000	0.000000	7.083188	-0.005852	NaN	0.000000	0.001492	0.001619	28.0872	0.061673	0.002010	30.6792	1.685871	-164.86	0.008736	1.081327	-0.139869	-0.141282	-0.005852	30.6792	-0.139726	-11.6903	0.000501	NaN
25	1.000000	1.092744	7.36529e+06	-39889.1	955.819	-29792.7	0.000000	0.000000	7.093193	0.015098	NaN	0.000000	0.001507	0.001633	28.0803	0.046453	0.001957	23.7376	-61.6644	10.949	-0.022852	1.091364	-0.129865	-0.131246	0.015098	23.7376	-0.130342	-7.738415	-0.001951	NaN
25	1.000000	1.102731	7.36529e+06	-39889.1	955.819	-29792.7	0.000000	0.000000	7.103181	0.018528	NaN	0.000000	0.001512	0.001596	28.1068	0.088456	0.001957	45.2083	-107.546	-165.036	0.012406	1.101441	-0.119878	-0.121168	0.018528	45.2083	-0.120185	-4.873256	-0.003802	NaN
25	1.000000	1.112776	7.36529e+06	-39889.1	955.82	-29792.7	0.000000	0.000000	7.113225	0.023686	NaN	0.000000	0.001485	0.001610	28.1285	0.106847	0.001997	53.4974	-88.8278	12.2204	-0.036116	1.111376	-0.109834	-0.111234	0.023686	53.4974	-0.110166	-3.029444	-0.007819	NaN
25	1.000000	1.122736	7.36529e+06	-39889.1	955.819	-29792.7	0.000000	0.000000	7.123184	-0.022754	NaN	0.000000	0.001484	0.001598	28.0891	0.105530	0.002039	51.7504	-63.0158	-168.339	0.044908	1.121454	-0.099873	-0.101156	-0.022754	51.7504	-0.099543	-1.785015	0.012747	NaN
25	1.000000	1.132735	7.36529e+06	-39889.1	955.82	-29792.7	0.000000	0.000000	7.133185	0.021179	NaN	0.000000	0.001505	0.001607	28.0784	0.036843	0.001970	18.7012	-109.6	15.5652	-0.064595	1.131425	-0.089874	-0.091184	0.021179	18.7012	-0.090723	-1.123954	-0.018843	NaN
25	1.000000	1.142788	7.36529e+06	-39889.1	955.82	-29792.7	0.000000	0.000000	7.143237	0.024375	NaN	0.000000	0.001485	0.001611	28.1062	0.063754	0.001946	32.7551	93.7354	-164.045	0.023942	1.141424	-0.079822	-0.081185	0.024375	32.7551	-0.080380	-0.632657	-0.038527	NaN
25	1.000000	1.152773	7.36529e+06	-39889.1	955.819	-29792.7	0.000000	0.000000	7.153225	0.082074	NaN	0.000000	0.001499	0.001603	28.1292	0.113843	0.002055	55.4084	143.224	11.018	0.049879	1.151379	-0.069836	-0.071231	0.082074	55.4084	-0.070947	-0.361562	-0.227000	NaN
25	1.000000	1.162783	7.36529e+06	-39889.1	955.818	-29792.7	0.000000	0.000000	7.163235	0.073628	NaN	0.000000	0.001487	0.001625	28.0896	0.116965	0.001990	58.7759	155.734	-167.896	0.013624	1.161435	-0.059826	-0.061174	0.073628	58.7759	-0.060765	-0.189408	-0.388727	NaN
25	1.000000	1.172748	7.36529e+06	-39889.1	955.819	-29792.7	0.000000	0.000000	7.173197	0.005455	NaN	0.000000	0.001585	0.001624	28.0822	0.065218	0.002018	32.3142	171.053	9.194538	-0.017337	1.171367	-0.049861	-0.051242	0.005455	32.3142	-0.049988	-0.091174	-0.059828	NaN
25	1.000000	1.182796	7.36529e+06	-39889.1	955.819	-29792.7	0.000000	0.000000	7.183243	-0.037288	NaN	0.000000	0.001544	0.001606	28.1079	0.130158	0.001898	68.571	-128.475	-167.441	-0.045260	1.181441	-0.039813	-0.041168	-0.037288	68.571	-0.039405	-0.043382	0.859530	NaN
25	1.000000	1.192774	7.36529e+06	-39889.1	955.819	-29792.7	0.000000	0.000000	7.193224	0.036965	NaN	0.000000	0.001524	0.001615	28.1302	0.096779	0.002069	46.7785	-139.908	14.1063	0.030112	1.191383	-0.029835	-0.031227	0.036965	46.7785	-0.030428	-0.023655	-1.562720	NaN
25	1.000000	1.202812	7.36529e+06	-39889.1	955.82	-29792.7	0.000000	0.000000	7.203264	0.076589	NaN	0.000000	0.001545	0.001643	28.0907	0.100668	0.001852	54.3671	-125.387	-166.928	0.023195	1.201488	-0.019797	-0.021121	0.076589	54.3671	-0.020854	-0.013204	-5.800210	NaN
25	1.000000	1.212796	7.36529e+06	-39889.1	955.82	-29792.7	0.000000	0.000000	7.213247	0.080612	NaN	0.000000	0.001569	0.001579	28.0795	0.146560	0.001991	73.6029	173.632	11.2899	0.041820	1.211447	-0.009814	-0.011162	0.080612	73.6029	-0.010635	-0.006750	-11.9425	NaN
25	1.000000	1.222814	7.36529e+06	-39889.1	955.819	-29792.7	0.000000	0.000000	7.223269	0.158199	NaN	0.000000	0.001568	0.001575	28.1068	0.333903	0.001977	168.878	0.798514	-166.827	0.101844	1.221501	0.000205	-0.001108	0.158199	168.878	-0.000498	-0.000369	-429.275	NaN
25	2.000000	1.232447	7.36529e+06	-39889.1	955.819	-29792.7	0.000000	0.000000	7.233284	9.461519	NaN	0.000000	0.001564	0.001584	28.1294	8.874889	0.001633	5434.09	13.9063	1.180110	7.861638	1.231377	0.009838	0.008767	9.461519	5434.09	0.008532	0.007595	1245.78	56969.1
25	2.000000	1.235289	7.36529e+06	-39889.1	955.82	-29792.7	0.000000	0.000000	7.236234	12.0944	NaN	0.000000	0.001539	0.001570	28.089	12.2321	0.001806	6773.52	7.534568	-174.274	11.0736	1.234984	0.012679	0.012374	12.0944	6773.52	0.011340	0.010709	1129.33	59800.7
25	2.000000	1.237805	7.36529e+06	-39889.1	955.82	-29792.7	0.000000	0.000000	7.238975	17.5354	NaN	0.000000	0.001567	0.001563	28.0824	14.5861	0.001643	8880.09	6.411009	3.568803	15.9154	1.237404	0.015196	0.014795	17.5354	8880.09	0.013715	0.013610	1288.42	69544.2
25	2.000000	1.240295	7.36529e+06	-39889.1	955.82	-29792.7	0.000000	0.000000	7.241638	21.7613	NaN	0.000000	0.001571	0.001612	28.1072	16.9334	0.001800	9405.8	5.949108	-176.179	21.4959	1.239979	0.017685	0.017370	21.7613	9405.8	0.015950	0.016573	1313.02	66751.6
25	2.000000	1.242775	7.36529e+06	-39889.1	955.82	-29792.7	0.000000	0.000000	7.244213	24.0878	NaN	0.000000	0.001590	0.001613	28.1304	19.8389	0.001855	10694.8	6.978694	1.801973	23.8244	1.242481	0.020166	0.019872	24.0878	10694.8	0.018477	0.020205	1192.19	68741.5
25	2.000000	1.245242	7.36529e+06	-39889.1	955.819	-29792.7	0.000000	0.000000	7.246990	31.6304	NaN	0.000000	0.001578	0.001598	28.0891	22.201	0.001776	12502.4	6.614956	-179.907	30.572	1.244909	0.022633	0.022299	31.6304	12502.4	0.020735	0.023711	1334.01	74181.2
25	2.000000	1.247761	7.36529e+06	-39889.1	955.819	-29792.7	0.000000	0.000000	7.249826	39.3392	NaN	0.000000	0.001545	0.001658	28.0786	23.7563	0.001676	14175.9	1.395109	5.802997	37.6066	1.247383	0.025151	0.024773	39.3392	14175.9	0.023070	0.027598	1425.43	77962.4
25	2.000000	1.250280	7.36529e+06	-39889.1	955.819	-29792.7	0.000000	0.000000	7.252566	44.7109	NaN	0.000000	0.001575	0.001646	28.1054	27.4452	0.001739	15781.5	7.627697	177.345	46.1625	1.249972	0.027671	0.027363	44.7109	15781.5	0.025546	0.032017	1396.48	80580.9
25	2.000000	1.252754	7.36529e+06	-39889.1	955.82	-29792.7	0.000000	0.000000	7.255342	52.0468	NaN	0.000000	0.001575	0.001643	28.1286	29.8725	0.001803	16564.6	5.879695	-1.151670	52.1396	1.252313	0.030145	0.029704	52.0468	16564.6	0.027788	0.036284	1434.41	79449.9
25	2.000000	1.255241	7.36529e+06	-39889.1	955.82	-29792.7	0.000000	0.000000	7.258210	61.3239	NaN	0.000000	0.001585	0.001635	28.089	32.0856	0.001821	17616.7	1.505183	-177.586	60.6804	1.254866	0.032632	0.032257	61.3239	17616.7	0.030021	0.040787	1503.5	79695.5
25	2.000000	1.257785	7.36529e+06	-39889.1	955.819	-29792.7	0.000000	0.000000	7.260717	60.4449	NaN	0.000000	0.001584	0.001581	28.0796	34.453	0.001668	20651.7	8.717373	-5.904756	61.1067	1.257439	0.035175	0.034830	60.4449	20651.7	0.032980	0.047148	1282.03	86895.9
25	2.000000	1.260236	7.36529e+06	-39889.1	955.819	-29792.7	0.000000	0.000000	7.263757	74.7657	NaN	0.000000	0.001585	0.001586	28.1063	36.134	0.001751	20639.5	2.486442	178.981	74.8609	1.259929	0.037627	0.037320	74.7657	20639.5	0.034910	0.051537	1450.71	83063.6
25	2.000000	1.262733	7.36529e+06	-39889.1	955.82	-29792.7	0.000000	0.000000	7.266498	80.7024	NaN	0.000000	0.001592	0.001621	28.1298	39.2587	0.001785	21998.7	4.241383	-2.546912	79.8113	1.262417	0.040124	0.039807	80.7024	21998.7	0.037373	0.057414	1405.61	83880.1
25	2.000000	1.265218	7.36529e+06	-39889.1	955.82	-29792.7	0.000000	0.000000	7.269497	93.2098	NaN	0.000000	0.001561	0.001617	28.0895	41.8099	0.001775	23560.3	5.797305	175.238	92.7628	1.264981	0.042608	0.042372	93.2098	23560.3	0.039641	0.063105	1477.07	85688.8
25	2.000000	1.267662	7.36529e+06	-39889.1	955.819	-29792.7	0.000000	0.000000	7.272302	101.994	NaN	0.000000	0.001531	0.001628	28.0787	43.677	0.001783	24498.7	6.200939	-6.132172	97.6059	1.267352	0.045052	0.044743	101.994	24498.7	0.041930	0.069111	1475.8	85141.6
25	2.000000	1.270253	7.36529e+06	-39889.1	955.82	-29792.7	0.000000	0.000000	7.275224	110.057	NaN	0.000000	0.001562	0.001607	28.1053	45.1645	0.001716	26315.8	3.216900	177.255	110.847	1.269897	0.047643	0.047288	110.057	26315.8	0.044507	0.076193	1444.44	87102.8
25	2.000000	1.272734	7.36529e+06	-39889.1	955.82	-29792.7	0.000000	0.000000	7.278160	121.107	NaN	0.000000	0.001594	0.001625	28.1284	48.883	0.001655	29539.2	6.108156	-7.013706	120.405	1.272371	0.050125	0.049761	121.107	29539.2	0.047050	0.083514	1450.14	93388.1
25	2.000000	1.275168	7.36529e+06	-39889.1	955.819	-29792.7	0.000000	0.000000	7.280696	123.606	NaN	0.000000	0.001590	0.001577	28.0883	52.0091	0.001863	27921.5	1.450820	178.086	121.524	1.275067	0.052559	0.052458	123.606	27921.5	0.049239	0.090075	1372.27	84998.3
25	2.000000	1.277607	7.36529e+06	-39889.1	955.819	-29792.7	0.000000	0.000000	7.283902	142.269	NaN	0.000000	0.001555	0.001598	28.0803	53.3351	0.001931	27615.4	0.026809	0.098745	136.264	1.277323	0.054997	0.054714	142.269	27615.4	0.051133	0.095949	1482.76	81452.7
25	2.000000	1.280134	7.36529e+06	-39889.1	955.819	-29792.7	0.000000	0.000000	7.287275	162.878	NaN	0.000000	0.001614	0.001568	28.107	54.7836	0.001803	30379.2	2.757285	176.602	158.997	1.279775	0.057524	0.057166	162.878	30379.2	0.053503	0.103548	1572.97	86253.9
25	2.000000	1.282691	7.36529e+06	-39889.1	955.82	-29792.7	0.000000	0.000000	7.290143	170.427	NaN	0.000000	0.001570	0.001586	28.1314	57.5122	0.001727	33293.7	0.852309	-2.608738	168.889	1.282396	0.060081	0.059787	170.427	33293.7	0.056242	0.112679	1512.5	90617.7
25	2.000000	1.285091	7.36529e+06	-39889.1	955.819	-29792.7	0.000000	0.000000	7.293309	189.071	NaN	0.000000	0.001581	0.001594	28.0909	60.7199	0.001794	33845.9	4.415740	174.416	184.462	1.284777	0.062482	0.062168	189.071	33845.9	0.058292	0.119755	1578.81	89357.7
25	2.000000	1.287691	7.36529e+06	-39889.1	955.819	-29792.7	0.000000	0.000000	7.296400	201.02	NaN	0.000000	0.001587	0.001597	28.0805	62.5424	0.001765	35429.3	5.251559	-6.841187	198.1	1.287289	0.065081	0.064680	201.02	35429.3	0.060826	0.128786	1560.88	90198.8
25	2.000000	1.290174	7.36529e+06	-39889.1	955.819	-29792.7	0.000000	0.000000	7.299427	214.241	NaN	0.000000	0.001598	0.001601	28.1055	64.5803	0.001803	35810.3	5.306580	172.901	213.258	1.289850	0.067565	0.067240	214.241	35810.3	0.063078	0.137076	1562.93	88369
25	2.000000	1.292668	7.36529e+06	-39889.1	955.819	-29792.7	0.000000	0.000000	7.302339	224.419	NaN	0.000000	0.001550	0.001584	28.1299	68.4446	0.001825	37510.9	6.338295	-9.201264	221.31	1.292279	0.070058	0.069670	224.419	37510.9	0.065571	0.146541	1531.45	89526.5
25	2.000000	1.295172	7.36529e+06	-39889.1	955.819	-29792.7	0.000000	0.000000	7.305395	237.854	NaN	0.000000	0.001564	0.001620	28.0894	70.5532	0.001758	40140.3	4.782695	171.653	236.818	1.294957	0.072562	0.072347	237.854	40140.3	0.068118	0.156517	1519.67	92698.5
25	2.000000	1.297695	7.36529e+06	-39889.1	955.82	-29792.7	0.000000	0.000000	7.308464	251.133	NaN	0.000000	0.001555	0.001591	28.0807	72.3892	0.001805	40106.2	6.374430	-9.778207	249.346	1.297414	0.075086	0.074805	251.133	40106.2	0.070390	0.165677	1515.79	90022.9
25	2.000000	1.300190	7.36529e+06	-39889.1	955.819	-29792.7	0.000000	0.000000	7.311898	274.006	NaN	0.000000	0.001551	0.001605	28.1062	73.5817	0.001792	41054.2	6.558177	170.481	274.46	1.299854	0.077580	0.077244	274.006	41054.2	0.072575	0.174719	1568.27	89734.8
25	2.000000	1.302597	7.36529e+06	-39889.1	955.819	-29792.7	0.000000	0.000000	7.314905	288.579	NaN	0.000000	0.001557	0.001593	28.1312	76.0627	0.001873	40601.8	2.783266	-5.611407	283.261	1.302202	0.079988	0.079593	288.579	40601.8	0.074657	0.183547	1572.23	86585.4
25	2.000000	1.305085	7.36529e+06	-39889.1	955.82	-29792.7	0.000000	0.000000	7.317975	302.762	NaN	0.000000	0.001588	0.001641	28.0909	76.9686	0.001678	45874	-0.748556	177.229	297.616	1.304793	0.082475	0.082183	302.762	45874	0.077525	0.196041	1544.38	94660
25	2.000000	1.307691	7.36529e+06	-39889.1	955.82	-29792.7	0.000000	0.000000	7.321373	322.036	NaN	0.000000	0.001606	0.001588	28.0797	81.2307	0.001809	44908.3	10.9987	-14.4586	319.779	1.307256	0.085081	0.084646	322.036	44908.3	0.079703	0.205783	1564.93	90447.3
25	2.000000	1.310195	7.36529e+06	-39889.1	955.82	-29792.7	0.000000	0.000000	7.324508	337.362	NaN	0.000000	0.001574	0.001632	28.1048	84.0521	0.001766	47590.5	6.363047	169.744	338.746	1.309815	0.087586	0.087206	337.362	47590.5	0.082269	0.217548	1550.74	93221.4
25	2.000000	1.312629	7.36529e+06	-39889.1	955.818	-29792.7	0.000000	0.000000	7.327924	361.28	NaN	0.000000	0.001575	0.001570	28.1301	86.8164	0.001721	50440.3	3.902788	-8.571418	358.465	1.312225	0.090019	0.089616	361.28	50440.3	0.084647	0.228723	1579.56	96360
25	2.000000	1.315148	7.36529e+06	-39889.1	955.819	-29792.7	0.000000	0.000000	7.330859	371.404	NaN	0.000000	0.001562	0.001603	28.0887	90.3482	0.001871	48292.9	4.029004	172.113	370.147	1.314872	0.092538	0.092262	371.404	48292.9	0.086770	0.238919	1554.51	90267.5
25	2.000000	1.317602	7.36529e+06	-39889.1	955.819	-29792.7	0.000000	0.000000	7.334580	402.231	NaN	0.000000	0.001526	0.001603	28.0791	92.3596	0.001775	52032.7	5.190061	-9.762313	396.187	1.317224	0.094992	0.094615	402.231	52032.7	0.089195	0.250818	1603.68	94922.9
25	2.000000	1.320175	7.36529e+06	-39889.1	955.82	-29792.7	0.000000	0.000000	7.337932	421.201	NaN	0.000000	0.001568	0.001607	28.1045	94.4158	0.001853	50946	6.964643	168.388	421.361	1.319783	0.097566	0.097174	421.201	50946	0.091365	0.261698	1609.49	90987.9
25	2.000000	1.322634	7.36529e+06	-39889.1	955.819	-29792.7	0.000000	0.000000	7.341264	442.442	NaN	0.000000	0.001548	0.001599	28.1303	96.6476	0.001935	49953.2	6.218497	-10.2041	439.647	1.322057	0.100025	0.099448	442.442	49953.2	0.093382	0.272002	1626.61	87508.5
25	2.000000	1.325053	7.36529e+06	-39889.1	955.82	-29792.7	0.000000	0.000000	7.344431	460.63	NaN	0.000000	0.001594	0.001568	28.0897	97.4823	0.001862	52340.9	3.522040	171.94	458.133	1.324782	0.102443	0.102173	460.63	52340.9	0.095843	0.284828	1617.22	89603.1
25	2.000000	1.327611	7.36529e+06	-39889.1	955.819	-29792.7	0.000000	0.000000	7.347984	484.844	NaN	0.000000	0.001551	0.001593	28.0783	99.444	0.001828	54390.7	8.380258	-12.9328	478.65	1.327153	0.105002	0.104543	484.844	54390.7	0.098316	0.297996	1627.01	91031.7
25	2.000000	1.330169	7.36529e+06	-39889.1	955.82	-29792.7	0.000000	0.000000	7.350614	486.585	NaN	0.000000	0.001539	0.001579	28.1035	100.429	0.001733	57959.5	2.279528	172.226	487.039	1.329951	0.107560	0.107342	486.585	57959.5	0.101264	0.314050	1549.39	94492.7
25	2.000000	1.331042	7.36529e+06	-39889.1	955.819	-29792.7	0.000000	0.000000	7.352291	506.169	NaN	0.000000	0.001564	0.001574	28.09	101.576	0.001750	58039.8	0.752872	174.283	499.568	1.330693	0.108433	0.108084	506.169	58039.8	0.101892	0.317525	1594.1	94104.5