File: remote_trans/data/nanoindenter/0828-1/data/Data_2025-08-06,11h17m57s/2025-07-22_16-23-58_1_420.txt
2025-07-22, 16:23:58, 1
Index	Phase	Displacement	Time	Pos X	Pos Y	Pos Z	Rot A	Rot B	Piezo Z	Force A	Force B	Gripper	Voltage A	Voltage B	Temperature	Amplitude force	Amplitude pos	Stiffness	Phase shift	Phase excitation	Force A raw	Displacement raw	HMax	HMax raw	Real Force	Real Stiffness	Contact Depth	Area	Hardness	Reduced Mod.
[#]	[#]	[um]	[s]	[um]	[um]	[um]	[m°]	[m°]	[um]	[uN]	[uN]	[V]	[V]	[V]	[°C]	[uN]	[um]	[N/m]	[°]	[°]	[uN]	[um]	[um]	[um]	[uN]	[N/m]	[um]	[um^2]	[MPa]	[MPa]
420	1.000000	0.002434	7.36917e+06	-56089.1	1005.82	-29740	0.000000	0.000000	6.002794	0.009934	NaN	0.000000	0.001647	0.001674	28.081	0.015114	0.000943	16.0293	-160.3	-168.587	0.011450	0.001180	-1.154685	-1.155939	0.009934	16.0293	-1.155149	-2.753283E+15	-3.608033E-18	NaN
420	1.000000	0.012501	7.36917e+06	-56089.1	1005.82	-29740	0.000000	0.000000	6.012862	0.042171	NaN	0.000000	0.001669	0.001655	28.0806	0.035842	0.001171	30.6076	-86.5265	19.415	0.073896	0.011013	-1.144618	-1.146106	0.042171	30.6076	-1.145651	-2.053593E+15	-2.053521E-17	NaN
420	1.000000	0.022365	7.36917e+06	-56089.1	1005.82	-29740	0.000000	0.000000	6.022727	0.068873	NaN	0.000000	0.001673	0.001665	28.0807	0.100916	0.001713	58.9036	-39.7845	-162.701	-0.063964	0.021104	-1.134754	-1.136015	0.068873	58.9036	-1.135631	-1.507100E+15	-4.569929E-17	NaN
420	1.000000	0.032372	7.36917e+06	-56089.1	1005.82	-29740	0.000000	0.000000	6.032733	0.058094	NaN	0.000000	0.001678	0.001625	28.0794	0.053740	0.001871	28.7282	105.681	13.4909	0.054439	0.031016	-1.124747	-1.126102	0.058094	28.7282	-1.126264	-1.128507E+15	-5.147880E-17	NaN
420	1.000000	0.042399	7.36917e+06	-56089.1	1005.82	-29740	0.000000	0.000000	6.042758	-0.000619	NaN	0.000000	0.001652	0.001626	28.0792	0.072223	0.001911	37.7939	104.282	-166.401	0.030585	0.041094	-1.114720	-1.116025	-0.000619	37.7939	-1.114708	-7.897030E+14	7.835423E-19	NaN
420	1.000000	0.052387	7.36917e+06	-56089.1	1005.82	-29740	0.000000	0.000000	6.052746	-0.007467	NaN	0.000000	0.001617	0.001670	28.079	0.054053	0.002034	26.5708	179.158	13.4179	0.036091	0.051036	-1.104732	-1.106083	-0.007467	26.5708	-1.104521	-5.764348E+14	1.295455E-17	NaN
420	1.000000	0.062385	7.36917e+06	-56089.1	1005.82	-29740	0.000000	0.000000	6.062745	0.017153	NaN	0.000000	0.001653	0.001682	28.0794	0.041307	0.002094	19.7259	80.3055	-162.991	0.065357	0.061090	-1.094734	-1.096029	0.017153	19.7259	-1.095386	-4.346336E+14	-3.946529E-17	NaN
420	1.000000	0.072377	7.36917e+06	-56089.1	1005.82	-29740	0.000000	0.000000	6.072742	0.133843	NaN	0.000000	0.001615	0.001691	28.0793	0.038455	0.001929	19.9306	-48.034	13.112	0.064829	0.071053	-1.084742	-1.086066	0.133843	19.9306	-1.089778	-3.654551E+14	-3.662356E-16	NaN
420	1.000000	0.082402	7.36917e+06	-56089.1	1005.82	-29740	0.000000	0.000000	6.082762	0.009390	NaN	0.000000	0.001628	0.001658	28.0788	0.050775	0.002048	24.7898	-25.6365	-163.834	-0.001469	0.081085	-1.074716	-1.076034	0.009390	24.7898	-1.075000	-2.314007E+14	-4.057963E-17	NaN
420	1.000000	0.092416	7.36917e+06	-56089.1	1005.82	-29740	0.000000	0.000000	6.092776	0.033289	NaN	0.000000	0.001636	0.001661	28.0792	0.082131	0.001954	42.0285	-27.2188	14.8741	0.024580	0.091041	-1.064703	-1.066078	0.033289	42.0285	-1.065297	-1.713968E+14	-1.942219E-16	NaN
420	1.000000	0.102421	7.36917e+06	-56089.1	1005.82	-29740	0.000000	0.000000	6.102782	0.035266	NaN	0.000000	0.001665	0.001676	28.0793	0.085633	0.001956	43.7853	-29.5853	-162.998	0.024246	0.101108	-1.054697	-1.056011	0.035266	43.7853	-1.055301	-1.257981E+14	-2.803396E-16	NaN
420	1.000000	0.112400	7.36917e+06	-56089.1	1005.82	-29740	0.000000	0.000000	6.112760	0.000191	NaN	0.000000	0.001643	0.001653	28.0794	0.116555	0.001982	58.7983	135.665	12.4673	0.015039	0.110985	-1.044718	-1.046133	0.000191	58.7983	-1.044721	-9.066506E+13	-2.105872E-18	NaN
420	1.000000	0.122408	7.36917e+06	-56089.1	1005.82	-29740	0.000000	0.000000	6.122770	0.061028	NaN	0.000000	0.001635	0.001687	28.0791	0.074759	0.001924	38.8631	120.5	-169.234	0.092830	0.121095	-1.034711	-1.036024	0.061028	38.8631	-1.035889	-6.897303E+13	-8.848071E-16	NaN
420	1.000000	0.132411	7.36917e+06	-56089.1	1005.82	-29740	0.000000	0.000000	6.132774	0.093716	NaN	0.000000	0.001634	0.001660	28.0792	0.109925	0.002116	51.9547	39.0983	16.7207	0.075325	0.131054	-1.024707	-1.026064	0.093716	51.9547	-1.026060	-5.087281E+13	-1.842157E-15	NaN
420	1.000000	0.142422	7.36917e+06	-56089.1	1005.82	-29740	0.000000	0.000000	6.142782	0.014313	NaN	0.000000	0.001638	0.001676	28.0795	0.116094	0.001975	58.7889	-60.6186	-169.135	0.053284	0.141165	-1.014697	-1.015954	0.014313	58.7889	-1.014879	-3.597901E+13	-3.978274E-16	NaN
420	1.000000	0.152428	7.36917e+06	-56089.1	1005.82	-29740	0.000000	0.000000	6.152790	0.051569	NaN	0.000000	0.001618	0.001657	28.0789	0.113847	0.001898	59.9758	164.442	13.6945	0.137687	0.151026	-1.004690	-1.006092	0.051569	59.9758	-1.005335	-2.676642E+13	-1.926632E-15	NaN
420	1.000000	0.162465	7.36917e+06	-56089.1	1005.82	-29740	0.000000	0.000000	6.162828	0.099882	NaN	0.000000	0.001655	0.001642	28.0794	0.038533	0.002169	17.765	116.388	-161.936	0.012729	0.161142	-0.994654	-0.995977	0.099882	17.765	-0.998871	-2.190621E+13	-4.559539E-15	NaN
420	1.000000	0.172408	7.36917e+06	-56089.1	1005.82	-29740	0.000000	0.000000	6.172769	0.041281	NaN	0.000000	0.001640	0.001645	28.0803	0.019239	0.002031	9.472921	-74.8703	14.5285	0.111729	0.171099	-0.984711	-0.986020	0.041281	9.472921	-0.987979	-1.562769E+13	-2.641526E-15	NaN
420	1.000000	0.182420	7.36917e+06	-56089.1	1005.82	-29740	0.000000	0.000000	6.182782	0.075733	NaN	0.000000	0.001635	0.001675	28.0803	0.033244	0.001948	17.0698	169.121	-163.674	0.116253	0.181169	-0.974699	-0.975950	0.075733	17.0698	-0.978026	-1.147680E+13	-6.598827E-15	NaN
420	1.000000	0.192466	7.36917e+06	-56089.1	1005.82	-29740	0.000000	0.000000	6.192829	0.077228	NaN	0.000000	0.001655	0.001647	28.0802	0.080286	0.002223	36.1214	162.299	17.6092	0.083697	0.191095	-0.964652	-0.966023	0.077228	36.1214	-0.966256	-7.965244E+12	-9.695576E-15	NaN
420	1.000000	0.202423	7.36917e+06	-56089.1	1005.82	-29740	0.000000	0.000000	6.202783	0.021229	NaN	0.000000	0.001660	0.001697	28.0803	0.022233	0.001921	11.5721	133.22	-165.735	0.018815	0.201150	-0.954696	-0.955968	0.021229	11.5721	-0.956071	-5.806328E+12	-3.656188E-15	NaN
420	1.000000	0.212502	7.36917e+06	-56089.1	1005.82	-29740	0.000000	0.000000	6.212861	-0.002670	NaN	0.000000	0.001619	0.001665	28.0804	0.098981	0.001961	50.4798	-86.1965	12.9301	0.038198	0.211092	-0.944617	-0.946027	-0.002670	50.4798	-0.944577	-4.063340E+12	6.571264E-16	NaN
420	1.000000	0.222447	7.36917e+06	-56089.1	1005.82	-29740	0.000000	0.000000	6.222807	0.021605	NaN	0.000000	0.001629	0.001694	28.0802	0.040097	0.001900	21.1061	119.724	-167.56	0.040848	0.221149	-0.934672	-0.935969	0.021605	21.1061	-0.935440	-3.059195E+12	-7.062313E-15	NaN
420	1.000000	0.232477	7.36917e+06	-56089.1	1005.82	-29740	0.000000	0.000000	6.232838	0.044500	NaN	0.000000	0.001637	0.001680	28.0803	0.099328	0.001971	50.3914	-21.8622	16.1807	0.063385	0.231119	-0.924641	-0.926000	0.044500	50.3914	-0.925304	-2.232578E+12	-1.993218E-14	NaN
420	1.000000	0.242492	7.36917e+06	-56089.1	1005.82	-29740	0.000000	0.000000	6.242854	0.070537	NaN	0.000000	0.001631	0.001699	28.08	0.101120	0.002119	47.711	-89.3794	-164.769	0.064757	0.241185	-0.914627	-0.915933	0.070537	47.711	-0.915736	-1.658163E+12	-4.253925E-14	NaN
420	1.000000	0.252467	7.36917e+06	-56089.1	1005.82	-29740	0.000000	0.000000	6.252830	0.096101	NaN	0.000000	0.001628	0.001678	28.0803	0.016223	0.001959	8.282861	-141.994	17.2503	0.089374	0.251142	-0.904652	-0.905976	0.096101	8.282861	-0.913353	-1.539768E+12	-6.241246E-14	NaN
420	1.000000	0.262478	7.36917e+06	-56089.1	1005.82	-29740	0.000000	0.000000	6.262839	0.026357	NaN	0.000000	0.001607	0.001692	28.08	0.052411	0.002146	24.4247	-138.06	-161.942	0.046274	0.261160	-0.894640	-0.895959	0.026357	24.4247	-0.895450	-8.822139E+11	-2.987648E-14	NaN
420	1.000000	0.272502	7.36917e+06	-56089.1	1005.82	-29740	0.000000	0.000000	6.272864	0.075838	NaN	0.000000	0.001626	0.001614	28.0805	0.072253	0.001957	36.9294	26.0968	12.7961	0.045161	0.271132	-0.884617	-0.885986	0.075838	36.9294	-0.886157	-6.606301E+11	-1.147966E-13	NaN
420	1.000000	0.282493	7.36917e+06	-56089.1	1005.82	-29740	0.000000	0.000000	6.282853	-0.000973	NaN	0.000000	0.001659	0.001637	28.0801	0.047041	0.001959	24.0161	104.36	-163.19	0.044546	0.281171	-0.874625	-0.875948	-0.000973	24.0161	-0.874595	-4.608979E+11	2.110810E-15	NaN
420	1.000000	0.292478	7.36917e+06	-56089.1	1005.82	-29740	0.000000	0.000000	6.292841	0.096432	NaN	0.000000	0.001657	0.001654	28.0801	0.068177	0.001997	34.1436	127.702	16.5161	0.080989	0.291149	-0.864641	-0.865969	0.096432	34.1436	-0.866759	-3.610738E+11	-2.670704E-13	NaN
420	1.000000	0.302487	7.36917e+06	-56089.1	1005.82	-29740	0.000000	0.000000	6.302848	0.056926	NaN	0.000000	0.001621	0.001704	28.0787	0.041245	0.002067	19.9509	2.053256	-165.283	0.124760	0.301189	-0.854632	-0.855930	0.056926	19.9509	-0.856772	-2.645001E+11	-2.152201E-13	NaN
420	1.000000	0.312506	7.36917e+06	-56089.1	1005.82	-29740	0.000000	0.000000	6.312868	0.062356	NaN	0.000000	0.001625	0.001678	28.0791	0.028195	0.002060	13.6878	43.9746	17.0221	0.043988	0.311125	-0.844613	-0.845993	0.062356	13.6878	-0.848030	-2.013975E+11	-3.096183E-13	NaN
420	1.000000	0.322519	7.36917e+06	-56089.1	1005.82	-29740	0.000000	0.000000	6.322879	0.011043	NaN	0.000000	0.001643	0.001674	28.0788	0.026690	0.001963	13.596	8.370715	-169.797	0.022462	0.321156	-0.834599	-0.835962	0.011043	13.596	-0.835209	-1.350125E+11	-8.179604E-14	NaN
420	1.000000	0.332482	7.36917e+06	-56089.1	1005.82	-29740	0.000000	0.000000	6.332845	0.101159	NaN	0.000000	0.001663	0.001651	28.0789	0.038866	0.001969	19.7433	-110.407	14.8664	0.009089	0.331100	-0.824637	-0.826018	0.101159	19.7433	-0.828480	-1.094402E+11	-9.243300E-13	NaN
420	1.000000	0.342526	7.36917e+06	-56089.1	1005.82	-29740	0.000000	0.000000	6.342892	0.157958	NaN	0.000000	0.001602	0.001578	28.0787	0.104077	0.001981	52.5301	-149.635	-166.753	0.161219	0.341212	-0.814593	-0.815907	0.157958	52.5301	-0.816848	-7.611377E+10	-2.075285E-12	NaN
420	1.000000	0.352509	7.36917e+06	-56089.1	1005.82	-29740	0.000000	0.000000	6.352870	0.037772	NaN	0.000000	0.001634	0.001590	28.0787	0.078625	0.001880	41.8237	38.3609	17.7586	0.016698	0.351156	-0.804610	-0.805963	0.037772	41.8237	-0.805287	-5.304237E+10	-7.121147E-13	NaN
420	1.000000	0.362498	7.36917e+06	-56089.1	1005.82	-29740	0.000000	0.000000	6.362858	-0.004624	NaN	0.000000	0.001630	0.001623	28.0787	0.043385	0.002058	21.085	58.7464	-164.335	-0.009750	0.361237	-0.794620	-0.795882	-0.004624	21.085	-0.794456	-3.780873E+10	1.222900E-13	NaN
420	1.000000	0.372511	7.36917e+06	-56089.1	1005.82	-29740	0.000000	0.000000	6.372871	0.011329	NaN	0.000000	0.001657	0.001611	28.0787	0.061710	0.001999	30.8761	175.978	13.5794	0.031964	0.371161	-0.784608	-0.785958	0.011329	30.8761	-0.784883	-2.802687E+10	-4.042079E-13	NaN
420	1.000000	0.382562	7.36917e+06	-56089.1	1005.82	-29740	0.000000	0.000000	6.382924	0.061136	NaN	0.000000	0.001704	0.001623	28.0786	0.093031	0.002005	46.4047	115.382	-165.017	0.064428	0.381157	-0.774557	-0.775962	0.061136	46.4047	-0.775545	-2.092591E+10	-2.921523E-12	NaN
420	1.000000	0.392517	7.36917e+06	-56089.1	1005.82	-29740	0.000000	0.000000	6.392877	0.023434	NaN	0.000000	0.001726	0.001636	28.0789	0.114704	0.002034	56.3851	-138.463	13.2048	0.040828	0.391153	-0.764602	-0.765966	0.023434	56.3851	-0.764913	-1.500146E+10	-1.562119E-12	NaN
420	1.000000	0.402501	7.36917e+06	-56089.1	1005.82	-29740	0.000000	0.000000	6.402863	0.070350	NaN	0.000000	0.001714	0.001640	28.0787	0.098446	0.002040	48.2666	-167.499	-163.853	0.025594	0.401260	-0.754618	-0.755859	0.070350	48.2666	-0.755711	-1.124457E+10	-6.256375E-12	NaN
420	1.000000	0.412525	7.36917e+06	-56089.1	1005.82	-29740	0.000000	0.000000	6.412887	0.060535	NaN	0.000000	0.001680	0.001656	28.0788	0.102057	0.002050	49.7736	-16.2202	14.5763	0.025083	0.411172	-0.744594	-0.745947	0.060535	49.7736	-0.745506	-8.166490E+9	-7.412657E-12	NaN
420	1.000000	0.422537	7.36917e+06	-56089.1	1005.82	-29740	0.000000	0.000000	6.422901	0.109574	NaN	0.000000	0.001692	0.001658	28.0786	0.042821	0.002049	20.9014	115.34	-162.487	0.055690	0.421221	-0.734581	-0.735897	0.109574	20.9014	-0.738513	-6.558521E+9	-1.670717E-11	NaN
420	1.000000	0.432564	7.36917e+06	-56089.1	1005.82	-29740	0.000000	0.000000	6.432924	0.019683	NaN	0.000000	0.001696	0.001666	28.0788	0.083115	0.001975	42.089	-172.695	14.3831	0.014297	0.431256	-0.724555	-0.725863	0.019683	42.089	-0.724905	-4.279204E+9	-4.599760E-12	NaN
420	1.000000	0.442566	7.36917e+06	-56089.1	1005.82	-29740	0.000000	0.000000	6.442926	0.010438	NaN	0.000000	0.001704	0.001616	28.0798	0.097885	0.002007	48.7738	-85.6717	-163.297	-0.033221	0.441250	-0.714552	-0.715869	0.010438	48.7738	-0.714713	-3.107078E+9	-3.359519E-12	NaN
420	1.000000	0.452569	7.36917e+06	-56089.1	1005.82	-29740	0.000000	0.000000	6.452929	0.024049	NaN	0.000000	0.001725	0.001643	28.0798	0.039254	0.001934	20.2979	9.764987	12.9964	0.039363	0.451227	-0.704550	-0.705891	0.024049	20.2979	-0.705439	-2.321611E+9	-1.035858E-11	NaN
420	1.000000	0.462558	7.36917e+06	-56089.1	1005.82	-29740	0.000000	0.000000	6.462919	0.054581	NaN	0.000000	0.001709	0.001652	28.0799	0.029200	0.001981	14.7393	96.6981	-167.902	0.084445	0.461229	-0.694561	-0.695889	0.054581	14.7393	-0.697338	-1.799609E+9	-3.032910E-11	NaN
420	1.000000	0.472571	7.36917e+06	-56089.1	1005.82	-29740	0.000000	0.000000	6.472932	0.054737	NaN	0.000000	0.001704	0.001619	28.0799	0.094820	0.001950	48.6304	-173.528	12.9532	0.016396	0.471204	-0.684548	-0.685915	0.054737	48.6304	-0.685392	-1.235758E+9	-4.429404E-11	NaN
420	1.000000	0.482586	7.36917e+06	-56089.1	1005.82	-29740	0.000000	0.000000	6.482947	0.020666	NaN	0.000000	0.001701	0.001614	28.08	0.007157	0.001844	3.880164	-95.1812	-163.519	0.125625	0.481269	-0.674532	-0.675850	0.020666	3.880164	-0.678527	-9.955332E+8	-2.075909E-11	NaN
420	1.000000	0.492582	7.36917e+06	-56089.1	1005.82	-29740	0.000000	0.000000	6.492944	0.068212	NaN	0.000000	0.001725	0.001648	28.0799	0.087894	0.002090	42.0463	130.758	14.2209	0.078623	0.491217	-0.664537	-0.665901	0.068212	42.0463	-0.665754	-6.656778E+8	-1.024705E-10	NaN
420	1.000000	0.502598	7.36917e+06	-56089.1	1005.82	-29740	0.000000	0.000000	6.502960	0.067214	NaN	0.000000	0.001736	0.001618	28.0801	0.042318	0.002011	21.043	34.424	-167.881	0.098523	0.501291	-0.654521	-0.655827	0.067214	21.043	-0.656917	-5.037654E+8	-1.334228E-10	NaN
420	1.000000	0.512589	7.36917e+06	-56089.1	1005.82	-29740	0.000000	0.000000	6.512953	0.094280	NaN	0.000000	0.001717	0.001624	28.0798	0.086979	0.001953	44.5354	-69.8732	14.2161	0.118265	0.511152	-0.644529	-0.645967	0.094280	44.5354	-0.646117	-3.582580E+8	-2.631612E-10	NaN
420	1.000000	0.522577	7.36917e+06	-56089.1	1005.82	-29740	0.000000	0.000000	6.522936	-0.008612	NaN	0.000000	0.001749	0.001629	28.0799	0.027011	0.002141	12.617	34.7715	-168.671	0.001933	0.521289	-0.634542	-0.635830	-0.008612	12.617	-0.634030	-2.445422E+8	3.521695E-11	NaN
420	1.000000	0.532585	7.36917e+06	-56089.1	1005.82	-29740	0.000000	0.000000	6.532948	0.083543	NaN	0.000000	0.001710	0.001658	28.0805	0.136309	0.002081	65.5008	-32.8208	17.4551	-0.013229	0.531206	-0.624533	-0.625912	0.083543	65.5008	-0.625490	-1.866704E+8	-4.475447E-10	NaN
420	1.000000	0.542591	7.36917e+06	-56089.1	1005.82	-29740	0.000000	0.000000	6.542951	0.029094	NaN	0.000000	0.001735	0.001634	28.0802	0.056845	0.001963	28.9623	-61.0101	-164.798	0.023263	0.541295	-0.614528	-0.615823	0.029094	28.9623	-0.615281	-1.351327E+8	-2.153019E-10	NaN
420	1.000000	0.552589	7.36917e+06	-56089.1	1005.82	-29740	0.000000	0.000000	6.552951	0.062497	NaN	0.000000	0.001715	0.001623	28.0799	0.107108	0.001966	54.4712	114.503	14.6475	0.113862	0.551206	-0.604529	-0.605913	0.062497	54.4712	-0.605390	-9.878048E+7	-6.326873E-10	NaN
420	1.000000	0.562589	7.36917e+06	-56089.1	1005.82	-29740	0.000000	0.000000	6.562954	0.135802	NaN	0.000000	0.001708	0.001589	28.0802	0.064762	0.002080	31.1299	-145.621	-164.204	0.078853	0.561243	-0.594529	-0.595875	0.135802	31.1299	-0.597801	-7.765562E+7	-1.748775E-9	NaN
420	1.000000	0.572599	7.36917e+06	-56089.1	1005.82	-29740	0.000000	0.000000	6.572959	0.023598	NaN	0.000000	0.001717	0.001669	28.0796	0.060743	0.002164	28.0685	10.9684	15.5563	0.036305	0.571261	-0.584520	-0.585858	0.023598	28.0685	-0.585151	-5.197475E+7	-4.540190E-10	NaN
420	1.000000	0.582618	7.36917e+06	-56089.1	1005.82	-29740	0.000000	0.000000	6.582978	-7.712305E-5	NaN	0.000000	0.001740	0.001653	28.0787	0.038038	0.001981	19.2022	-91.7141	-162.186	-0.032304	0.581293	-0.574500	-0.575826	-7.712305E-5	19.2022	-0.574497	-3.704713E+7	2.081755E-12	NaN
420	1.000000	0.592592	7.36917e+06	-56089.1	1005.82	-29740	0.000000	0.000000	6.592952	0.010063	NaN	0.000000	0.001736	0.001625	28.0783	0.025686	0.001983	12.9558	168.435	13.9013	0.007211	0.591254	-0.564526	-0.565865	0.010063	12.9558	-0.565109	-2.748072E+7	-3.661800E-10	NaN
420	1.000000	0.602606	7.36917e+06	-56089.1	1005.82	-29740	0.000000	0.000000	6.602966	0.029266	NaN	0.000000	0.001737	0.001651	28.0786	0.151338	0.001972	76.7465	-117.159	-167.686	0.015699	0.601313	-0.554513	-0.555806	0.029266	76.7465	-0.554799	-1.978804E+7	-1.478991E-9	NaN
420	1.000000	0.612597	7.36917e+06	-56089.1	1005.82	-29740	0.000000	0.000000	6.612960	0.071694	NaN	0.000000	0.001706	0.001628	28.079	0.059665	0.001971	30.2692	86.3179	14.0868	0.074463	0.611270	-0.544521	-0.545848	0.071694	30.2692	-0.546298	-1.508907E+7	-4.751356E-9	NaN
420	1.000000	0.622625	7.36917e+06	-56089.1	1005.82	-29740	0.000000	0.000000	6.622987	0.069649	NaN	0.000000	0.001701	0.001677	28.0787	0.027351	0.002062	13.2644	-24.1896	-164.067	0.047344	0.621290	-0.534494	-0.535829	0.069649	13.2644	-0.538432	-1.173840E+7	-5.933450E-9	NaN
420	1.000000	0.632618	7.36917e+06	-56089.1	1005.82	-29740	0.000000	0.000000	6.632979	0.058308	NaN	0.000000	0.001740	0.001642	28.0787	0.131632	0.002061	63.8734	98.2793	13.863	0.151309	0.631288	-0.524501	-0.525831	0.058308	63.8734	-0.525186	-7.6858e+06	-7.586465E-9	NaN
420	1.000000	0.642656	7.36917e+06	-56089.1	1005.82	-29740	0.000000	0.000000	6.643017	0.044314	NaN	0.000000	0.001696	0.001661	28.0787	0.070458	0.002099	33.5746	131.527	-166.158	0.093414	0.641363	-0.514462	-0.515756	0.044314	33.5746	-0.515452	-5.62766e+06	-7.874241E-9	NaN
420	1.000000	0.652638	7.36917e+06	-56089.1	1005.82	-29740	0.000000	0.000000	6.653001	0.093074	NaN	0.000000	0.001694	0.001669	28.079	0.046478	0.002032	22.8746	38.8764	15.8155	0.157134	0.651281	-0.504480	-0.505838	0.093074	22.8746	-0.507532	-4.36549e+06	-2.132039E-8	NaN
420	1.000000	0.662625	7.36917e+06	-56089.1	1005.82	-29740	0.000000	0.000000	6.662985	0.034202	NaN	0.000000	0.001729	0.001701	28.0789	0.047396	0.001971	24.0513	-165.98	-165.214	0.043983	0.661311	-0.494494	-0.495807	0.034202	24.0513	-0.495560	-2.97207e+06	-1.150780E-8	NaN
420	1.000000	0.672672	7.36917e+06	-56089.1	1005.82	-29740	0.000000	0.000000	6.673035	0.085867	NaN	0.000000	0.001698	0.001660	28.0786	0.085956	0.002009	42.7873	91.7653	16.2184	0.070088	0.671243	-0.484446	-0.485876	0.085867	42.7873	-0.485951	-2.18171e+06	-3.935792E-8	NaN
420	1.000000	0.682663	7.36917e+06	-56089.1	1005.82	-29740	0.000000	0.000000	6.683026	0.088323	NaN	0.000000	0.001718	0.001673	28.0789	0.058481	0.002091	27.9691	160.47	-164.283	0.106972	0.681356	-0.474456	-0.475762	0.088323	27.9691	-0.476824	-1.62575e+06	-5.432750E-8	NaN
420	1.000000	0.692660	7.36917e+06	-56089.1	1005.82	-29740	0.000000	0.000000	6.693020	0.005133	NaN	0.000000	0.001734	0.001633	28.0788	0.032231	0.001898	16.9846	119.202	15.0021	0.093671	0.691358	-0.464458	-0.465761	0.005133	16.9846	-0.464685	-1.09856e+06	-4.672849E-9	NaN
420	1.000000	0.702685	7.36917e+06	-56089.1	1005.82	-29740	0.000000	0.000000	6.703045	0.020718	NaN	0.000000	0.001724	0.001616	28.0787	0.058906	0.001996	29.5135	-106.125	-163.27	-0.020892	0.701328	-0.454434	-0.455790	0.020718	29.5135	-0.454960	-801968	-2.583454E-8	NaN
420	1.000000	0.712668	7.36917e+06	-56089.1	1005.82	-29740	0.000000	0.000000	6.713027	-0.016907	NaN	0.000000	0.001728	0.001611	28.08	0.065284	0.001963	33.2641	169.819	13.7502	0.004773	0.711315	-0.444450	-0.445804	-0.016907	33.2641	-0.444069	-563337	3.001275E-8	NaN
420	1.000000	0.722674	7.36917e+06	-56089.1	1005.82	-29740	0.000000	0.000000	6.723038	0.096896	NaN	0.000000	0.001759	0.001650	28.0801	0.076327	0.002044	37.3423	125.543	-168.009	0.238213	0.721388	-0.434444	-0.435731	0.096896	37.3423	-0.436390	-438933	-2.207539E-7	NaN
420	1.000000	0.732665	7.36917e+06	-56089.1	1005.82	-29740	0.000000	0.000000	6.733027	0.063374	NaN	0.000000	0.001677	0.001643	28.08	0.078359	0.002156	36.351	25.793	14.4695	0.097073	0.731288	-0.424454	-0.425831	0.063374	36.351	-0.425761	-310503	-2.041004E-7	NaN
420	1.000000	0.742694	7.36917e+06	-56089.1	1005.82	-29740	0.000000	0.000000	6.743053	-0.006413	NaN	0.000000	0.001663	0.001663	28.0799	0.036348	0.002033	17.8789	-117.877	-164.405	0.044141	0.741450	-0.414425	-0.415669	-0.006413	17.8789	-0.414155	-212550	3.017047E-8	NaN
420	1.000000	0.752701	7.36917e+06	-56089.1	1005.82	-29740	0.000000	0.000000	6.753060	0.006554	NaN	0.000000	0.001644	0.001661	28.0801	0.050985	0.002139	23.8403	119.761	14.5536	0.027326	0.751297	-0.404418	-0.405821	0.006554	23.8403	-0.404624	-155559	-4.213436E-8	NaN
420	1.000000	0.762697	7.36917e+06	-56089.1	1005.82	-29740	0.000000	0.000000	6.763057	0.027766	NaN	0.000000	0.001674	0.001643	28.08	0.081894	0.002016	40.6274	-42.0203	-165.798	-0.050956	0.761399	-0.394422	-0.395720	0.027766	40.6274	-0.394935	-113162	-2.453637E-7	NaN
420	1.000000	0.772705	7.36917e+06	-56089.1	1005.82	-29740	0.000000	0.000000	6.773064	-0.011420	NaN	0.000000	0.001641	0.001668	28.0801	0.058526	0.001825	32.0709	-4.872635	14.9781	0.021949	0.771341	-0.384413	-0.385778	-0.011420	32.0709	-0.384146	-79314.1	1.439846E-7	NaN
420	1.000000	0.782693	7.36917e+06	-56089.1	1005.82	-29740	0.000000	0.000000	6.783053	0.018646	NaN	0.000000	0.001666	0.001619	28.0796	0.017654	0.001983	8.900959	-81.3121	-163.718	0.092778	0.781392	-0.374426	-0.375727	0.018646	8.900959	-0.375997	-60589.6	-3.077502E-7	NaN
420	1.000000	0.792700	7.36917e+06	-56089.1	1005.82	-29740	0.000000	0.000000	6.793063	0.091626	NaN	0.000000	0.001655	0.001647	28.0802	0.090505	0.002009	45.0584	134.307	14.5102	0.030816	0.791378	-0.364418	-0.365741	0.091626	45.0584	-0.365944	-43417.6	-2.110342E-6	NaN
420	1.000000	0.802695	7.36917e+06	-56089.1	1005.82	-29740	0.000000	0.000000	6.803056	0.055716	NaN	0.000000	0.001633	0.001670	28.0797	0.060972	0.002022	30.1504	125.768	-166.282	0.081197	0.801375	-0.354424	-0.355743	0.055716	30.1504	-0.355810	-30990.1	-1.797862E-6	NaN
420	1.000000	0.812704	7.36917e+06	-56089.1	1005.82	-29740	0.000000	0.000000	6.813064	0.023590	NaN	0.000000	0.001630	0.001654	28.0799	0.117337	0.001881	62.3718	-82.2649	15.2317	0.102215	0.811389	-0.344415	-0.345730	0.023590	62.3718	-0.344699	-21378.2	-1.103437E-6	NaN
420	1.000000	0.822708	7.36917e+06	-56089.1	1005.82	-29740	0.000000	0.000000	6.823068	0.028550	NaN	0.000000	0.001663	0.001642	28.0798	0.083668	0.001864	44.8921	87.0786	-162.02	0.117008	0.821405	-0.334411	-0.335714	0.028550	44.8921	-0.334888	-15379.7	-1.856321E-6	NaN
420	1.000000	0.832722	7.36917e+06	-56089.1	1005.82	-29740	0.000000	0.000000	6.833085	0.091379	NaN	0.000000	0.001675	0.001651	28.0802	0.050776	0.002105	24.1194	-103.194	14.8266	0.021183	0.831322	-0.324396	-0.325797	0.091379	24.1194	-0.327238	-11884.2	-7.689089E-6	NaN
420	1.000000	0.842756	7.36917e+06	-56089.1	1005.82	-29740	0.000000	0.000000	6.843120	0.108119	NaN	0.000000	0.001652	0.001625	28.0799	0.010456	0.002024	5.167200	-171.154	-165.306	0.088610	0.841442	-0.314363	-0.315677	0.108119	5.167200	-0.330056	-13069.8	-8.272416E-6	NaN
420	1.000000	0.852724	7.36917e+06	-56089.1	1005.82	-29740	0.000000	0.000000	6.853084	0.000540	NaN	0.000000	0.001679	0.001640	28.0787	0.065304	0.002032	32.131	-111.673	17.6209	0.018849	0.851400	-0.304394	-0.305718	0.000540	32.131	-0.304407	-5472.06	-9.876044E-8	NaN
420	1.000000	0.862714	7.36917e+06	-56089.1	1005.82	-29740	0.000000	0.000000	6.863072	-0.040591	NaN	0.000000	0.001638	0.001649	28.0786	0.045164	0.002135	21.1504	135.908	-162.558	0.015227	0.861415	-0.294405	-0.295703	-0.040591	21.1504	-0.292965	-3695.6	1.098375E-5	NaN
420	1.000000	0.872708	7.36917e+06	-56089.1	1005.82	-29740	0.000000	0.000000	6.873069	0.044241	NaN	0.000000	0.001623	0.001646	28.0787	0.030579	0.001918	15.9401	-51.9977	14.5771	0.023863	0.871363	-0.284410	-0.285756	0.044241	15.9401	-0.286492	-2955.86	-1.496725E-5	NaN
420	1.000000	0.882751	7.36917e+06	-56089.1	1005.82	-29740	0.000000	0.000000	6.883112	0.056286	NaN	0.000000	0.001640	0.001630	28.0784	0.049426	0.002078	23.7839	-169.489	-164.203	0.116663	0.881391	-0.274368	-0.275728	0.056286	23.7839	-0.276143	-2063.94	-2.727108E-5	NaN
420	1.000000	0.892734	7.36917e+06	-56089.1	1005.82	-29740	0.000000	0.000000	6.893095	0.043564	NaN	0.000000	0.001636	0.001625	28.0787	0.048555	0.002011	24.1401	85.0798	18.2406	-0.010265	0.891385	-0.264385	-0.265734	0.043564	24.1401	-0.265738	-1434.33	-3.037208E-5	NaN
420	1.000000	0.902734	7.36917e+06	-56089.1	1005.82	-29740	0.000000	0.000000	6.903096	0.069825	NaN	0.000000	0.001655	0.001681	28.0787	0.020699	0.002067	10.015	90.8593	-166.363	-0.026073	0.901446	-0.254384	-0.255672	0.069825	10.015	-0.259613	-1156.09	-6.039793E-5	NaN
420	1.000000	0.912770	7.36917e+06	-56089.1	1005.82	-29740	0.000000	0.000000	6.913130	0.015308	NaN	0.000000	0.001655	0.001641	28.0788	0.074364	0.002035	36.5468	3.714362	14.3939	0.046830	0.911391	-0.244349	-0.245728	0.015308	36.5468	-0.244663	-679.538	-2.252748E-5	NaN
420	1.000000	0.922769	7.36917e+06	-56089.1	1005.82	-29740	0.000000	0.000000	6.923130	0.054585	NaN	0.000000	0.001626	0.001677	28.0785	0.055695	0.001981	28.1105	-92.8424	-164.685	0.065349	0.921397	-0.234350	-0.235722	0.054585	28.1105	-0.235806	-494.204	-0.000110	NaN
420	1.000000	0.932744	7.36917e+06	-56089.1	1005.82	-29740	0.000000	0.000000	6.933104	0.011345	NaN	0.000000	0.001608	0.001689	28.0789	0.057565	0.001953	29.477	-65.1558	14.7993	0.051949	0.931379	-0.224374	-0.225740	0.011345	29.477	-0.224663	-329.594	-3.442087E-5	NaN
420	1.000000	0.942773	7.36917e+06	-56089.1	1005.82	-29740	0.000000	0.000000	6.943133	0.020932	NaN	0.000000	0.001645	0.001641	28.0791	0.085633	0.002060	41.5649	-116.15	-162.43	-0.013619	0.941475	-0.214346	-0.215643	0.020932	41.5649	-0.214724	-228.596	-9.156676E-5	NaN
420	1.000000	0.952758	7.36917e+06	-56089.1	1005.82	-29740	0.000000	0.000000	6.953120	0.066745	NaN	0.000000	0.001639	0.001660	28.0788	0.070933	0.002011	35.2647	108.757	14.2127	0.074701	0.951304	-0.204360	-0.205814	0.066745	35.2647	-0.205780	-163.783	-0.000408	NaN
420	1.000000	0.962752	7.36917e+06	-56089.1	1005.82	-29740	0.000000	0.000000	6.963112	0.009811	NaN	0.000000	0.001622	0.001662	28.0785	0.106166	0.001981	53.6036	-178.122	-166.41	0.044097	0.961452	-0.194366	-0.195667	0.009811	53.6036	-0.194504	-106.899	-9.178229E-5	NaN
420	1.000000	0.972759	7.36917e+06	-56089.1	1005.82	-29740	0.000000	0.000000	6.973121	0.058665	NaN	0.000000	0.001690	0.001664	28.079	0.050240	0.002016	24.9187	104.156	15.0303	0.045152	0.971443	-0.184359	-0.185676	0.058665	24.9187	-0.186125	-77.4596	-0.000757	NaN
420	1.000000	0.982761	7.36917e+06	-56089.1	1005.82	-29740	0.000000	0.000000	6.983124	0.084360	NaN	0.000000	0.001684	0.001688	28.0793	0.053227	0.001956	27.2117	-132.983	-166.103	0.061592	0.981449	-0.174357	-0.175670	0.084360	27.2117	-0.176682	-53.5599	-0.001575	NaN
420	1.000000	0.992769	7.36917e+06	-56089.1	1005.82	-29740	0.000000	0.000000	6.993131	0.053691	NaN	0.000000	0.001646	0.001633	28.0802	0.143771	0.001994	72.0975	-150.286	13.4425	0.071304	0.991435	-0.164350	-0.165683	0.053691	72.0975	-0.164908	-33.4728	-0.001604	NaN
420	1.000000	1.002767	7.36917e+06	-56089.1	1005.82	-29740	0.000000	0.000000	7.003129	0.051198	NaN	0.000000	0.001653	0.001701	28.0799	0.021919	0.001866	11.7461	175.998	-163.759	0.055737	1.001512	-0.154351	-0.155607	0.051198	11.7461	-0.157620	-24.8643	-0.002059	NaN
420	1.000000	1.012787	7.36917e+06	-56089.1	1005.82	-29740	0.000000	0.000000	7.013148	0.037344	NaN	0.000000	0.001711	0.001652	28.0802	0.097689	0.002027	48.2	-126.027	13.8565	-0.005311	1.011383	-0.144331	-0.145736	0.037344	48.2	-0.144912	-14.6065	-0.002557	NaN
420	1.000000	1.022792	7.36917e+06	-56089.1	1005.82	-29740	0.000000	0.000000	7.023151	0.003765	NaN	0.000000	0.001722	0.001716	28.0799	0.170092	0.002007	84.7648	-177.656	-166.703	0.041758	1.021488	-0.134327	-0.135630	0.003765	84.7648	-0.134360	-9.248299	-0.000407	NaN
420	1.000000	1.032811	7.36917e+06	-56089.1	1005.82	-29740	0.000000	0.000000	7.033174	0.080459	NaN	0.000000	0.001661	0.001674	28.0798	0.107362	0.001933	55.5275	-113.993	13.782	-0.011943	1.031486	-0.124308	-0.125633	0.080459	55.5275	-0.125394	-6.191410	-0.012995	NaN
420	1.000000	1.042814	7.36917e+06	-56089.1	1005.82	-29740	0.000000	0.000000	7.043177	0.093136	NaN	0.000000	0.001651	0.001683	28.08	0.032645	0.002093	15.6007	171.937	-164.24	0.074371	1.041435	-0.114305	-0.115683	0.093136	15.6007	-0.118782	-4.565064	-0.020402	NaN
420	1.000000	1.052778	7.36917e+06	-56089.1	1005.82	-29740	0.000000	0.000000	7.053140	0.052951	NaN	0.000000	0.001680	0.001673	28.0799	0.079200	0.001957	40.4646	-130.855	14.0906	0.101596	1.051435	-0.104341	-0.105683	0.052951	40.4646	-0.105322	-2.388490	-0.022169	NaN
420	1.000000	1.062797	7.36917e+06	-56089.1	1005.82	-29740	0.000000	0.000000	7.063159	0.054320	NaN	0.000000	0.001671	0.001678	28.0801	0.045376	0.001898	23.9071	-24.7118	-167.055	0.054308	1.061462	-0.094321	-0.095656	0.054320	23.9071	-0.096025	-1.488364	-0.036497	NaN
420	1.000000	1.072790	7.36917e+06	-56089.1	1005.82	-29740	0.000000	0.000000	7.073150	0.022232	NaN	0.000000	0.001678	0.001696	28.0798	0.173171	0.001943	89.1324	74.282	13.4841	0.014084	1.071482	-0.084328	-0.085637	0.022232	89.1324	-0.084516	-0.799717	-0.027799	NaN
420	1.000000	1.082813	7.36917e+06	-56089.1	1005.82	-29740	0.000000	0.000000	7.083172	0.005203	NaN	0.000000	0.001732	0.001662	28.0802	0.102979	0.002046	50.3416	94.0908	-163.416	0.059375	1.081556	-0.074306	-0.075563	0.005203	50.3416	-0.074384	-0.445183	-0.011686	NaN
420	1.000000	1.092805	7.36917e+06	-56089.1	1005.82	-29740	0.000000	0.000000	7.093169	0.114037	NaN	0.000000	0.001700	0.001670	28.0801	0.116334	0.002135	54.491	-68.4078	14.5442	0.129046	1.091454	-0.064314	-0.065665	0.114037	54.491	-0.065883	-0.263636	-0.432555	NaN
420	1.000000	1.102835	7.36917e+06	-56089.1	1005.82	-29740	0.000000	0.000000	7.103199	0.122855	NaN	0.000000	0.001734	0.001667	28.08	0.044571	0.001919	23.2301	123.16	-164.338	0.130078	1.101480	-0.054284	-0.055639	0.122855	23.2301	-0.058250	-0.160333	-0.766252	NaN
420	1.000000	1.112834	7.36917e+06	-56089.1	1005.82	-29740	0.000000	0.000000	7.113192	-0.022653	NaN	0.000000	0.001769	0.001683	28.0802	0.055868	0.002086	26.7817	-67.4559	14.5472	-0.037853	1.111440	-0.044285	-0.045678	-0.022653	26.7817	-0.043650	-0.058441	0.387631	NaN
420	1.000000	1.122840	7.36917e+06	-56089.1	1005.82	-29740	0.000000	0.000000	7.123202	0.063847	NaN	0.000000	0.001736	0.001703	28.079	0.014122	0.001975	7.149098	142.403	-167.558	0.078681	1.121477	-0.034279	-0.035642	0.063847	7.149098	-0.040977	-0.048425	-1.318472	NaN
420	1.000000	1.132852	7.36917e+06	-56089.1	1005.82	-29740	0.000000	0.000000	7.133224	0.306592	NaN	0.000000	0.001736	0.001669	28.079	0.429959	0.001882	228.491	30.8586	10.7417	0.118981	1.131496	-0.024267	-0.025623	0.306592	228.491	-0.025273	-0.017150	-17.8766	NaN
420	1.000000	1.142855	7.36917e+06	-56089.1	1005.82	-29740	0.000000	0.000000	7.143244	0.703745	NaN	0.000000	0.001702	0.001675	28.079	0.286881	0.001988	144.317	18.003	-167.83	0.563784	1.141567	-0.014263	-0.015552	0.703745	144.317	-0.017921	-0.011110	-63.3446	NaN
420	1.000000	1.152840	7.36917e+06	-56089.1	1005.82	-29740	0.000000	0.000000	7.153230	0.749706	NaN	0.000000	0.001695	0.001685	28.079	0.304222	0.002057	147.884	35.9265	16.7301	0.781031	1.151422	-0.004279	-0.005696	0.749706	147.884	-0.008081	-0.005279	-142.016	NaN
420	1.000000	1.162790	7.36917e+06	-56089.1	1005.82	-29740	0.000000	0.000000	7.163374	5.483646	NaN	0.000000	0.001727	0.001646	28.0787	5.406777	0.001744	3100.16	8.624407	-169.265	3.827295	1.161487	0.005671	0.004369	5.483646	3100.16	0.004344	0.003543	1547.81	47586.2
420	2.000000	1.167966	7.36917e+06	-56089.1	1005.82	-29740	0.000000	0.000000	7.168698	9.075828	NaN	0.000000	0.001743	0.001626	28.0786	9.959717	0.001750	5690.34	7.555475	7.800917	8.413931	1.167637	0.010847	0.010519	9.075828	5690.34	0.009651	0.008796	1031.8	55432.8
420	2.000000	1.170397	7.36917e+06	-56089.1	1005.82	-29740	0.000000	0.000000	7.171288	12.9359	NaN	0.000000	0.001730	0.001639	28.079	12.9487	0.001644	7874.53	0.779694	-170.828	12.0106	1.170048	0.013278	0.012929	12.9359	7874.53	0.012046	0.011545	1120.47	66957.8
420	2.000000	1.172869	7.36917e+06	-56089.1	1005.82	-29740	0.000000	0.000000	7.173845	14.9851	NaN	0.000000	0.001712	0.001624	28.079	15.036	0.001735	8666.72	3.653368	7.860721	13.5034	1.172534	0.015750	0.015416	14.9851	8666.72	0.014453	0.014564	1028.95	65613.7
420	2.000000	1.175410	7.36917e+06	-56089.1	1005.82	-29740	0.000000	0.000000	7.176420	15.8176	NaN	0.000000	0.001742	0.001617	28.0791	17.3707	0.001831	9486.91	7.546863	-175.32	15.8181	1.175081	0.018291	0.017963	15.8176	9486.91	0.017041	0.018104	873.718	64419
420	2.000000	1.177957	7.36917e+06	-56089.1	1005.82	-29740	0.000000	0.000000	7.179244	22.5522	NaN	0.000000	0.001719	0.001645	28.0787	21.3509	0.001866	11441.8	12.6306	-0.346181	26.1855	1.177511	0.020838	0.020393	22.5522	11441.8	0.019360	0.021546	1046.68	71216.6
420	2.000000	1.180329	7.36917e+06	-56089.1	1005.82	-29740	0.000000	0.000000	7.181705	24.7052	NaN	0.000000	0.001736	0.001611	28.0792	22.9279	0.001725	13293.5	5.174048	-176.727	23.7656	1.180043	0.023211	0.022925	24.7052	13293.5	0.021817	0.025478	969.666	76090.5
420	2.000000	1.182840	7.36917e+06	-56089.1	1005.82	-29740	0.000000	0.000000	7.184510	31.856	NaN	0.000000	0.001719	0.001656	28.079	25.3454	0.001807	14023.9	6.460743	1.742759	30.678	1.182482	0.025722	0.025363	31.856	14023.9	0.024018	0.029253	1088.97	74912.7
420	2.000000	1.185432	7.36917e+06	-56089.1	1005.82	-29740	0.000000	0.000000	7.187264	35.8133	NaN	0.000000	0.001721	0.001651	28.0789	28.5796	0.001897	15068.7	10.8937	178.225	38.2612	1.185021	0.028313	0.027903	35.8133	15068.7	0.026530	0.033859	1057.72	74819.3
420	2.000000	1.187841	7.36917e+06	-56089.1	1005.82	-29740	0.000000	0.000000	7.189965	42.8958	NaN	0.000000	0.001752	0.001691	28.0788	29.4841	0.001753	16822.7	5.315675	2.161037	41.5436	1.187451	0.030722	0.030332	42.8958	16822.7	0.028810	0.038313	1119.62	78523.1
420	2.000000	1.190303	7.36917e+06	-56089.1	1005.82	-29740	0.000000	0.000000	7.192677	48.9612	NaN	0.000000	0.001709	0.001653	28.0807	32.5013	0.001795	18108	4.398529	-179.057	46.1968	1.189995	0.033185	0.032876	48.9612	18108	0.031157	0.043176	1134	79620.4
420	2.000000	1.192810	7.36917e+06	-56089.1	1005.82	-29740	0.000000	0.000000	7.195499	56.6302	NaN	0.000000	0.001706	0.001644	28.0802	35.4298	0.001797	19720.9	5.166126	-0.395706	54.1885	1.192451	0.035691	0.035333	56.6302	19720.9	0.033538	0.048396	1170.14	81902.1
420	2.000000	1.195327	7.36917e+06	-56089.1	1005.82	-29740	0.000000	0.000000	7.198212	61.4021	NaN	0.000000	0.001707	0.001629	28.081	38.2595	0.001829	20923.4	3.464645	-179.789	59.3471	1.195009	0.038208	0.037890	61.4021	20923.4	0.036007	0.054117	1134.61	82174.6
420	2.000000	1.197836	7.36917e+06	-56089.1	1005.82	-29740	0.000000	0.000000	7.201010	68.4078	NaN	0.000000	0.001757	0.001619	28.0802	40.1904	0.001796	22383	5.232921	-1.881801	65.6634	1.197498	0.040718	0.040379	68.4078	22383	0.038426	0.060023	1139.69	83470.4
420	2.000000	1.200294	7.36917e+06	-56089.1	1005.82	-29740	0.000000	0.000000	7.203785	76.1121	NaN	0.000000	0.001725	0.001617	28.0805	42.1981	0.001713	24637.4	4.721090	177.25	73.4654	1.199962	0.043176	0.042843	76.1121	24637.4	0.040859	0.066266	1148.58	87442.1
420	2.000000	1.202776	7.36917e+06	-56089.1	1005.82	-29740	0.000000	0.000000	7.206400	79.3445	NaN	0.000000	0.001699	0.001635	28.0803	44.6627	0.001789	24967.7	4.325553	-2.953763	74.9421	1.202452	0.045658	0.045333	79.3445	24967.7	0.043274	0.072764	1090.44	84565.7
420	2.000000	1.205322	7.36917e+06	-56089.1	1005.82	-29740	0.000000	0.000000	7.209566	94.4111	NaN	0.000000	0.001704	0.001639	28.0809	47.5999	0.001783	26701.4	4.802132	177.307	94.4752	1.205032	0.048204	0.047914	94.4111	26701.4	0.045552	0.079161	1192.64	86706.4
420	2.000000	1.207799	7.36917e+06	-56089.1	1005.82	-29740	0.000000	0.000000	7.212386	102.773	NaN	0.000000	0.001668	0.001654	28.0806	49.6663	0.001798	27619.1	4.896874	-2.274351	102.111	1.207390	0.050680	0.050272	102.773	27619.1	0.047889	0.086000	1195.03	86046.4
420	2.000000	1.210328	7.36917e+06	-56089.1	1005.82	-29740	0.000000	0.000000	7.215483	116.571	NaN	0.000000	0.001708	0.001629	28.0809	52.1583	0.001817	28702.3	4.739403	176.553	118.32	1.210005	0.053210	0.052886	116.571	28702.3	0.050164	0.092919	1254.54	86027.4
420	2.000000	1.212821	7.36917e+06	-56089.1	1005.82	-29740	0.000000	0.000000	7.218268	123.658	NaN	0.000000	0.001697	0.001619	28.0801	55.241	0.001864	29628	4.793466	-3.491503	122.793	1.212458	0.055703	0.055339	123.658	29628	0.052573	0.100531	1230.05	85374.3
420	2.000000	1.215247	7.36917e+06	-56089.1	1005.82	-29740	0.000000	0.000000	7.221196	135.851	NaN	0.000000	0.001664	0.001628	28.0806	57.6895	0.001836	31425.2	2.432569	177.639	132.741	1.214960	0.058129	0.057841	135.851	31425.2	0.054886	0.108113	1256.56	87319.6
420	2.000000	1.217763	7.36917e+06	-56089.1	1005.82	-29740	0.000000	0.000000	7.224441	153.581	NaN	0.000000	0.001599	0.001627	28.0801	59.7447	0.001864	32044.6	5.419932	-4.510940	150.333	1.217420	0.060644	0.060302	153.581	32044.6	0.057050	0.115442	1330.37	86167.9
420	2.000000	1.220326	7.36917e+06	-56089.1	1005.82	-29740	0.000000	0.000000	7.227459	164.64	NaN	0.000000	0.001606	0.001627	28.0804	61.3005	0.001630	37608.2	3.632630	175.605	165.985	1.219910	0.063207	0.062792	164.64	37608.2	0.059924	0.125536	1311.5	96977.7
420	2.000000	1.222717	7.36917e+06	-56089.1	1005.82	-29740	0.000000	0.000000	7.230454	179.343	NaN	0.000000	0.001604	0.001618	28.0791	64.9565	0.001759	36921.8	6.338492	-6.293320	174.265	1.222320	0.065598	0.065202	179.343	36921.8	0.061955	0.132912	1349.34	92528.3
420	2.000000	1.225343	7.36917e+06	-56089.1	1005.82	-29740	0.000000	0.000000	7.233276	184.105	NaN	0.000000	0.001643	0.001674	28.079	68.528	0.001829	37475.4	6.735492	172.225	186.753	1.224988	0.068224	0.067869	184.105	37475.4	0.064540	0.142589	1291.16	90672.6
420	2.000000	1.227762	7.36917e+06	-56089.1	1005.82	-29740	0.000000	0.000000	7.236560	205.137	NaN	0.000000	0.001589	0.001633	28.0788	69.2743	0.001697	40811.2	5.337466	-6.678882	201.538	1.227352	0.070643	0.070234	205.137	40811.2	0.066873	0.151602	1353.13	95763.4
420	2.000000	1.230201	7.36917e+06	-56089.1	1005.82	-29740	0.000000	0.000000	7.239457	216.271	NaN	0.000000	0.001609	0.001625	28.0789	71.9986	0.001841	39103.5	8.126130	170.414	211.17	1.229871	0.073082	0.072752	216.271	39103.5	0.068934	0.159779	1353.56	89377.7
420	2.000000	1.232759	7.36917e+06	-56089.1	1005.82	-29740	0.000000	0.000000	7.242350	224.403	NaN	0.000000	0.001627	0.001621	28.0786	74.6945	0.001787	41799.2	6.537206	-7.559127	221.893	1.232341	0.075640	0.075223	224.403	41799.2	0.071614	0.170714	1314.5	92428.6
420	2.000000	1.235244	7.36917e+06	-56089.1	1005.82	-29740	0.000000	0.000000	7.245404	238.236	NaN	0.000000	0.001611	0.001660	28.0788	76.6757	0.001718	44624.5	6.341476	171.097	236.811	1.235016	0.078125	0.077897	238.236	44624.5	0.074121	0.181255	1314.37	95763.8
420	2.000000	1.237787	7.36917e+06	-56089.1	1005.82	-29740	0.000000	0.000000	7.248712	256.819	NaN	0.000000	0.001591	0.001645	28.0789	77.5999	0.001702	45603.5	3.802414	-4.943664	254.368	1.237374	0.080669	0.080256	256.819	45603.5	0.076445	0.191290	1342.56	95263.2
420	2.000000	1.240323	7.36917e+06	-56089.1	1005.82	-29740	0.000000	0.000000	7.251287	257.782	NaN	0.000000	0.001622	0.001667	28.0787	81.1191	0.001863	43532.5	4.489625	173.715	261.297	1.240127	0.083204	0.083008	257.782	43532.5	0.078763	0.201551	1278.99	88591.9
420	2.000000	1.242614	7.36917e+06	-56089.1	1005.82	-29740	0.000000	0.000000	7.254468	279.401	NaN	0.000000	0.001577	0.001631	28.0786	82.4945	0.001713	48162.9	3.424597	-6.100975	270.94	1.242330	0.085495	0.085211	279.401	48162.9	0.081145	0.212354	1315.73	95489.5
420	2.000000	1.245196	7.36917e+06	-56089.1	1005.82	-29740	0.000000	0.000000	7.257402	287.96	NaN	0.000000	0.001639	0.001669	28.0786	86.9576	0.001942	44770.3	3.251931	174.274	282.775	1.244980	0.088077	0.087861	287.96	44770.3	0.083253	0.222140	1296.3	86786
420	2.000000	1.247697	7.36917e+06	-56089.1	1005.82	-29740	0.000000	0.000000	7.260642	305.926	NaN	0.000000	0.001619	0.001661	28.0789	88.4842	0.001782	49655.6	8.685266	-11.8565	299.561	1.247308	0.090578	0.090190	305.926	49655.6	0.085958	0.234991	1301.86	93586.9
420	2.000000	1.250242	7.36917e+06	-56089.1	1005.82	-29740	0.000000	0.000000	7.263910	323.505	NaN	0.000000	0.001617	0.001671	28.0787	89.0478	0.001740	51187.5	4.626639	172.179	323.485	1.249957	0.093123	0.092839	323.505	51187.5	0.088383	0.246805	1310.77	94137
420	2.000000	1.252671	7.36917e+06	-56089.1	1005.82	-29740	0.000000	0.000000	7.266826	335.336	NaN	0.000000	0.001666	0.001626	28.0787	92.5849	0.001778	52061.7	6.350465	-9.336911	327.127	1.252312	0.095552	0.095193	335.336	52061.7	0.090721	0.258447	1297.5	93563.2
420	2.000000	1.255212	7.36917e+06	-56089.1	1005.82	-29740	0.000000	0.000000	7.270353	359.296	NaN	0.000000	0.001629	0.001612	28.0789	96.2565	0.001821	52845	8.127597	168.376	358.064	1.254948	0.098094	0.097829	359.296	52845	0.092994	0.270008	1330.69	92915.6
420	2.000000	1.257748	7.36917e+06	-56089.1	1005.82	-29740	0.000000	0.000000	7.273478	373.634	NaN	0.000000	0.001653	0.001650	28.0801	97.2225	0.001725	56350.5	6.495828	-10.0964	370.898	1.257381	0.100629	0.100263	373.634	56350.5	0.095656	0.283845	1316.33	96634.2
420	2.000000	1.260223	7.36917e+06	-56089.1	1005.82	-29740	0.000000	0.000000	7.276678	391.257	NaN	0.000000	0.001668	0.001626	28.08	99.1341	0.001770	55999.3	4.993632	170.957	390.024	1.260045	0.103104	0.102927	391.257	55999.3	0.097864	0.295568	1323.75	94108.2
420	2.000000	1.262760	7.36917e+06	-56089.1	1005.82	-29740	0.000000	0.000000	7.279996	410.228	NaN	0.000000	0.001657	0.001611	28.0801	102.106	0.001802	56662.7	5.075886	-9.011131	409.243	1.262634	0.105642	0.105515	410.228	56662.7	0.100212	0.308276	1330.72	93239.7
420	2.000000	1.264842	7.36917e+06	-56089.1	1005.82	-29740	0.000000	0.000000	7.282877	429.63	NaN	0.000000	0.001678	0.001623	28.0801	104.744	0.001849	56641.8	6.465374	-9.807733	432.391	1.264352	0.107724	0.107233	429.63	56641.8	0.102035	0.318318	1349.69	91723.3