File: remote_trans/data/nanoindenter/0828-1/data/Data_2025-08-06,11h17m57s/2025-07-22_16-23-58_1_356.txt
2025-07-22, 16:23:58, 1
Index	Phase	Displacement	Time	Pos X	Pos Y	Pos Z	Rot A	Rot B	Piezo Z	Force A	Force B	Gripper	Voltage A	Voltage B	Temperature	Amplitude force	Amplitude pos	Stiffness	Phase shift	Phase excitation	Force A raw	Displacement raw	HMax	HMax raw	Real Force	Real Stiffness	Contact Depth	Area	Hardness	Reduced Mod.
[#]	[#]	[um]	[s]	[um]	[um]	[um]	[m°]	[m°]	[um]	[uN]	[uN]	[V]	[V]	[V]	[°C]	[uN]	[um]	[N/m]	[°]	[°]	[uN]	[um]	[um]	[um]	[uN]	[N/m]	[um]	[um^2]	[MPa]	[MPa]
356	1.000000	0.002296	7.36854e+06	-56439.1	955.818	-29739.3	0.000000	0.000000	6.002788	-0.024794	NaN	0.000000	0.001590	0.001770	28.0792	0.103375	0.000924	111.848	-164.069	-161.843	-0.065314	0.001018	-1.032261	-1.033539	-0.024794	111.848	-1.032095	-6.132789E+13	4.042857E-16	NaN
356	1.000000	0.010276	7.36854e+06	-56439.1	955.819	-29739.3	0.000000	0.000000	6.010764	-0.108924	NaN	0.000000	0.001516	0.001722	28.0791	0.029342	0.001004	29.2252	-112.685	-165.305	-0.018522	0.008994	-1.024281	-1.025562	-0.108924	29.2252	-1.021486	-4.415109E+13	2.467070E-15	NaN
356	1.000000	0.018271	7.36854e+06	-56439.1	955.819	-29739.3	0.000000	0.000000	6.018764	-0.004840	NaN	0.000000	0.001534	0.001681	28.0791	0.148907	0.001645	90.5318	-140.786	-165.718	0.008980	0.016948	-1.016285	-1.017609	-0.004840	90.5318	-1.016245	-3.753455E+13	1.289414E-16	NaN
356	1.000000	0.026319	7.36854e+06	-56439.1	955.818	-29739.3	0.000000	0.000000	6.026810	-0.038187	NaN	0.000000	0.001520	0.001728	28.0792	0.056490	0.001853	30.4882	-70.4234	-160.484	0.081098	0.024926	-1.008238	-1.009631	-0.038187	30.4882	-1.007299	-2.844622E+13	1.342434E-15	NaN
356	1.000000	0.034269	7.36854e+06	-56439.1	955.818	-29739.3	0.000000	0.000000	6.034759	-0.057253	NaN	0.000000	0.001550	0.001730	28.0789	0.080380	0.001945	41.3174	-114.493	-166.012	-0.091707	0.032958	-1.000288	-1.001599	-0.057253	41.3174	-0.999249	-2.216445E+13	2.583108E-15	NaN
356	1.000000	0.042284	7.36854e+06	-56439.1	955.818	-29739.3	0.000000	0.000000	6.042777	-0.007182	NaN	0.000000	0.001629	0.001718	28.0792	0.074080	0.002003	36.9913	-152.733	-164.073	0.010696	0.040975	-0.992273	-0.993582	-0.007182	36.9913	-0.992127	-1.777301E+13	4.040913E-16	NaN
356	1.000000	0.050240	7.36854e+06	-56439.1	955.818	-29739.3	0.000000	0.000000	6.050731	-0.054366	NaN	0.000000	0.001611	0.001744	28.0793	0.120697	0.001953	61.8144	-98.1574	-165.756	-0.138878	0.048941	-0.984317	-0.985615	-0.054366	61.8144	-0.983657	-1.366710E+13	3.977855E-15	NaN
356	1.000000	0.058293	7.36854e+06	-56439.1	955.818	-29739.3	0.000000	0.000000	6.058783	-0.082517	NaN	0.000000	0.001609	0.001737	28.0792	0.104094	0.001975	52.7066	-24.2559	-163.804	-0.017641	0.056943	-0.976264	-0.977614	-0.082517	52.7066	-0.975089	-1.047724E+13	7.875879E-15	NaN
356	1.000000	0.066266	7.36854e+06	-56439.1	955.818	-29739.3	0.000000	0.000000	6.066758	-0.049521	NaN	0.000000	0.001615	0.001709	28.0793	0.044321	0.001965	22.5533	-89.3088	-166.039	0.008193	0.064938	-0.968290	-0.969619	-0.049521	22.5533	-0.966643	-8.061664E+12	6.142735E-15	NaN
356	1.000000	0.074277	7.36854e+06	-56439.1	955.818	-29739.3	0.000000	0.000000	6.074766	-0.079749	NaN	0.000000	0.001603	0.001724	28.0792	0.109377	0.001924	56.848	-40.8639	-164.439	-0.037266	0.072943	-0.960280	-0.961613	-0.079749	56.848	-0.959228	-6.404156E+12	1.245273E-14	NaN
356	1.000000	0.082280	7.36854e+06	-56439.1	955.819	-29739.3	0.000000	0.000000	6.082772	-0.028587	NaN	0.000000	0.001547	0.001701	28.0796	0.177943	0.001907	93.3026	174.231	-167.319	0.057953	0.081012	-0.952276	-0.953545	-0.028587	93.3026	-0.952047	-5.124237E+12	5.578726E-15	NaN
356	1.000000	0.090268	7.36854e+06	-56439.1	955.819	-29739.3	0.000000	0.000000	6.090759	-0.053775	NaN	0.000000	0.001517	0.001735	28.0795	0.065417	0.001951	33.5285	-12.6601	-164.049	-0.016801	0.089024	-0.944289	-0.945533	-0.053775	33.5285	-0.943086	-3.879415E+12	1.386163E-14	NaN
356	1.000000	0.098274	7.36854e+06	-56439.1	955.818	-29739.3	0.000000	0.000000	6.098766	-0.022977	NaN	0.000000	0.001506	0.001754	28.0804	0.025741	0.002044	12.5912	131.924	-163.909	0.056276	0.096962	-0.936283	-0.937595	-0.022977	12.5912	-0.934914	-3.009640E+12	7.634459E-15	NaN
356	1.000000	0.106277	7.36854e+06	-56439.1	955.818	-29739.3	0.000000	0.000000	6.106769	-0.027155	NaN	0.000000	0.001492	0.001711	28.0794	0.106843	0.002076	51.4675	-58.4064	-168.275	-0.072119	0.104991	-0.928279	-0.929566	-0.027155	51.4675	-0.927884	-2.418973E+12	1.122590E-14	NaN
356	1.000000	0.114292	7.36854e+06	-56439.1	955.818	-29739.3	0.000000	0.000000	6.114783	-0.051299	NaN	0.000000	0.001514	0.001722	28.0793	0.095601	0.001942	49.2242	-71.8894	-166.458	-0.046525	0.112978	-0.920264	-0.921579	-0.051299	49.2242	-0.919483	-1.863035E+12	2.753491E-14	NaN
356	1.000000	0.122287	7.36854e+06	-56439.1	955.818	-29739.3	0.000000	0.000000	6.122778	-0.064033	NaN	0.000000	0.001510	0.001701	28.0795	0.022263	0.002140	10.4038	26.4689	-163.794	-0.102564	0.120975	-0.912269	-0.913582	-0.064033	10.4038	-0.907653	-1.289622E+12	4.965284E-14	NaN
356	1.000000	0.130278	7.36854e+06	-56439.1	955.818	-29739.3	0.000000	0.000000	6.130769	-0.069115	NaN	0.000000	0.001482	0.001742	28.0805	0.056687	0.002201	25.7509	14.8093	-164.14	-0.093224	0.129010	-0.904278	-0.905547	-0.069115	25.7509	-0.902265	-1.090626E+12	6.337189E-14	NaN
356	1.000000	0.138284	7.36854e+06	-56439.1	955.818	-29739.3	0.000000	0.000000	6.138775	-0.042096	NaN	0.000000	0.001508	0.001718	28.0806	0.038674	0.002076	18.6254	-56.9798	-161.939	0.026224	0.136982	-0.896273	-0.897575	-0.042096	18.6254	-0.894578	-8.585951E+11	4.902854E-14	NaN
356	1.000000	0.146268	7.36854e+06	-56439.1	955.818	-29739.3	0.000000	0.000000	6.146759	-0.034640	NaN	0.000000	0.001530	0.001733	28.0808	0.044503	0.001907	23.3326	-14.1879	-165.571	-0.043015	0.144962	-0.888289	-0.889595	-0.034640	23.3326	-0.887176	-6.819195E+11	5.079821E-14	NaN
356	1.000000	0.154265	7.36854e+06	-56439.1	955.818	-29739.3	0.000000	0.000000	6.154756	-0.058022	NaN	0.000000	0.001607	0.001749	28.0805	0.048513	0.001952	24.8483	109.994	-165.69	-0.158438	0.152972	-0.880292	-0.881585	-0.058022	24.8483	-0.878541	-5.211591E+11	1.113331E-13	NaN
356	1.000000	0.162308	7.36854e+06	-56439.1	955.819	-29739.3	0.000000	0.000000	6.162797	-0.104978	NaN	0.000000	0.001564	0.001746	28.0805	0.069046	0.001996	34.5953	-149.974	-165.879	-0.029728	0.160994	-0.872249	-0.873563	-0.104978	34.5953	-0.869973	-3.990970E+11	2.630399E-13	NaN
356	1.000000	0.170307	7.36854e+06	-56439.1	955.818	-29739.3	0.000000	0.000000	6.170798	-0.033157	NaN	0.000000	0.001556	0.001734	28.08	0.092637	0.002051	45.1565	73.4008	-164.813	-0.024762	0.168993	-0.864250	-0.865564	-0.033157	45.1565	-0.863700	-3.282393E+11	1.010133E-13	NaN
356	1.000000	0.178353	7.36854e+06	-56439.1	955.818	-29739.3	0.000000	0.000000	6.178843	-0.084992	NaN	0.000000	0.001562	0.001702	28.0804	0.028935	0.002092	13.8315	-130.967	-166.235	-0.010434	0.176996	-0.856204	-0.857560	-0.084992	13.8315	-0.851595	-2.250791E+11	3.776087E-13	NaN
356	1.000000	0.186306	7.36854e+06	-56439.1	955.819	-29739.3	0.000000	0.000000	6.186799	-0.002843	NaN	0.000000	0.001576	0.001709	28.0803	0.066207	0.001962	33.7471	-159.786	-166.842	-0.072700	0.184992	-0.848251	-0.849565	-0.002843	33.7471	-0.848188	-2.023934E+11	1.404760E-14	NaN
356	1.000000	0.194299	7.36854e+06	-56439.1	955.818	-29739.3	0.000000	0.000000	6.194792	-0.008894	NaN	0.000000	0.001558	0.001725	28.0805	0.074504	0.001893	39.36	-86.6318	-166.337	-0.012558	0.192993	-0.840257	-0.841564	-0.008894	39.36	-0.840088	-1.572108E+11	5.657204E-14	NaN
356	1.000000	0.202315	7.36854e+06	-56439.1	955.818	-29739.3	0.000000	0.000000	6.202807	-0.027614	NaN	0.000000	0.001553	0.001709	28.0806	0.018010	0.001933	9.318594	-164.355	-163.804	-0.057985	0.201031	-0.832242	-0.833526	-0.027614	9.318594	-0.830019	-1.148270E+11	2.404830E-13	NaN
356	1.000000	0.210308	7.36854e+06	-56439.1	955.819	-29739.3	0.000000	0.000000	6.210798	-0.076150	NaN	0.000000	0.001532	0.001729	28.0805	0.067213	0.002054	32.7209	-11.0052	-166.066	-0.132180	0.209051	-0.824248	-0.825506	-0.076150	32.7209	-0.822503	-9.081382E+10	8.385287E-13	NaN
356	1.000000	0.218310	7.36854e+06	-56439.1	955.818	-29739.3	0.000000	0.000000	6.218801	-0.059813	NaN	0.000000	0.001523	0.001721	28.0808	0.042976	0.001961	21.911	-147.039	-165.898	-0.107862	0.217055	-0.816247	-0.817502	-0.059813	21.911	-0.814199	-7.007129E+10	8.536078E-13	NaN
356	1.000000	0.226313	7.36854e+06	-56439.1	955.818	-29739.3	0.000000	0.000000	6.226804	-0.060641	NaN	0.000000	0.001536	0.001727	28.0809	0.085880	0.001896	45.3016	79.4059	-165.625	-0.089670	0.225069	-0.808243	-0.809487	-0.060641	45.3016	-0.807239	-5.637870E+10	1.075595E-12	NaN
356	1.000000	0.234351	7.36854e+06	-56439.1	955.818	-29739.3	0.000000	0.000000	6.234840	-0.106886	NaN	0.000000	0.001507	0.001697	28.0808	0.073034	0.001968	37.1078	-30.675	-163.199	-0.110534	0.233037	-0.800206	-0.801520	-0.106886	37.1078	-0.798045	-4.229896E+10	2.526915E-12	NaN
356	1.000000	0.242360	7.36854e+06	-56439.1	955.818	-29739.3	0.000000	0.000000	6.242850	-0.091256	NaN	0.000000	0.001508	0.001671	28.0808	0.031038	0.001984	15.6418	22.4486	-165.854	-0.087684	0.240987	-0.792196	-0.793569	-0.091256	15.6418	-0.787821	-3.072447E+10	2.970142E-12	NaN
356	1.000000	0.250343	7.36854e+06	-56439.1	955.819	-29739.3	0.000000	0.000000	6.250835	-0.035205	NaN	0.000000	0.001502	0.001697	28.0805	0.067794	0.002118	32.0129	-25.4645	-165.635	0.018352	0.249026	-0.784214	-0.785530	-0.035205	32.0129	-0.783389	-2.674740E+10	1.316205E-12	NaN
356	1.000000	0.258358	7.36854e+06	-56439.1	955.818	-29739.3	0.000000	0.000000	6.258849	-0.053737	NaN	0.000000	0.001541	0.001675	28.0807	0.095006	0.002062	46.0673	112.938	-167.605	0.000908	0.257028	-0.776199	-0.777528	-0.053737	46.0673	-0.775324	-2.078181E+10	2.585758E-12	NaN
356	1.000000	0.266343	7.36854e+06	-56439.1	955.818	-29739.3	0.000000	0.000000	6.266837	0.017067	NaN	0.000000	0.001582	0.001706	28.0797	0.069713	0.002051	33.9856	-65.9358	-164.489	-0.004730	0.265060	-0.768213	-0.769497	0.017067	33.9856	-0.768590	-1.683193E+10	-1.013956E-12	NaN
356	1.000000	0.274356	7.36854e+06	-56439.1	955.819	-29739.3	0.000000	0.000000	6.274846	-0.073969	NaN	0.000000	0.001589	0.001734	28.0797	0.094376	0.002090	45.165	-142.399	-165.427	-0.007595	0.273007	-0.760201	-0.761549	-0.073969	45.165	-0.758973	-1.245450E+10	5.939151E-12	NaN
356	1.000000	0.282370	7.36854e+06	-56439.1	955.818	-29739.3	0.000000	0.000000	6.282861	-0.044199	NaN	0.000000	0.001603	0.001773	28.0795	0.112274	0.001998	56.1872	-141.937	-160.918	0.046321	0.281038	-0.752187	-0.753519	-0.044199	56.1872	-0.751597	-9.884597E+9	4.471508E-12	NaN
356	1.000000	0.290371	7.36854e+06	-56439.1	955.819	-29739.3	0.000000	0.000000	6.290864	-0.007819	NaN	0.000000	0.001605	0.001749	28.0793	0.071116	0.002104	33.7927	-139.261	-165.788	-0.033349	0.289097	-0.744186	-0.745460	-0.007819	33.7927	-0.744012	-7.792874E+9	1.003415E-12	NaN
356	1.000000	0.298358	7.36854e+06	-56439.1	955.818	-29739.3	0.000000	0.000000	6.298851	-0.002132	NaN	0.000000	0.001606	0.001817	28.0796	0.041967	0.002025	20.7246	-141.392	-162.66	0.025032	0.297018	-0.736198	-0.737539	-0.002132	20.7246	-0.736121	-6.084423E+9	3.504062E-13	NaN
356	1.000000	0.306371	7.36854e+06	-56439.1	955.818	-29739.3	0.000000	0.000000	6.306861	-0.088748	NaN	0.000000	0.001566	0.001783	28.0796	0.039420	0.002035	19.3713	-53.4029	-166.899	-0.091355	0.305097	-0.728185	-0.729460	-0.088748	19.3713	-0.724749	-4.258269E+9	2.084141E-11	NaN
356	1.000000	0.314379	7.36854e+06	-56439.1	955.818	-29739.3	0.000000	0.000000	6.314874	0.048404	NaN	0.000000	0.001532	0.001776	28.0798	0.030261	0.001984	15.254	-100.391	-164.488	0.004525	0.313065	-0.720177	-0.721492	0.048404	15.254	-0.722557	-3.975098E+9	-1.217693E-11	NaN
356	1.000000	0.322375	7.36854e+06	-56439.1	955.819	-29739.3	0.000000	0.000000	6.322865	-0.076936	NaN	0.000000	0.001538	0.001779	28.0794	0.050588	0.001942	26.0562	119.19	-165.989	-0.036521	0.321094	-0.712182	-0.713463	-0.076936	26.0562	-0.709967	-2.676705E+9	2.874298E-11	NaN
356	1.000000	0.330366	7.36854e+06	-56439.1	955.819	-29739.3	0.000000	0.000000	6.330860	0.031883	NaN	0.000000	0.001535	0.001747	28.0797	0.065705	0.002106	31.1972	-26.7885	-162.905	-0.024713	0.329047	-0.704191	-0.705510	0.031883	31.1972	-0.704958	-2.286770E+9	-1.394230E-11	NaN
356	1.000000	0.338379	7.36854e+06	-56439.1	955.818	-29739.3	0.000000	0.000000	6.338870	-0.069349	NaN	0.000000	0.001529	0.001767	28.0797	0.069056	0.001980	34.8834	-89.2259	-162.892	-0.090298	0.337080	-0.696177	-0.697477	-0.069349	34.8834	-0.694686	-1.655583E+9	4.188824E-11	NaN
356	1.000000	0.346417	7.36854e+06	-56439.1	955.819	-29739.3	0.000000	0.000000	6.346910	-0.012838	NaN	0.000000	0.001536	0.001770	28.0796	0.103264	0.001910	54.0695	-108.168	-161.439	0.035716	0.345104	-0.688140	-0.689452	-0.012838	54.0695	-0.687962	-1.339856E+9	9.581440E-12	NaN
356	1.000000	0.354365	7.36854e+06	-56439.1	955.819	-29739.3	0.000000	0.000000	6.354855	-0.085353	NaN	0.000000	0.001536	0.001756	28.0794	0.070376	0.001996	35.2522	-63.1327	-161.328	-0.054556	0.353062	-0.680191	-0.681495	-0.085353	35.2522	-0.678376	-9.908038E+8	8.614509E-11	NaN
356	1.000000	0.362400	7.36854e+06	-56439.1	955.819	-29739.3	0.000000	0.000000	6.362890	-0.074564	NaN	0.000000	0.001510	0.001778	28.0791	0.051948	0.001896	27.3935	23.9691	-168.342	-0.047057	0.361089	-0.672156	-0.673468	-0.074564	27.3935	-0.670115	-7.637720E+8	9.762642E-11	NaN
356	1.000000	0.370432	7.36854e+06	-56439.1	955.818	-29739.3	0.000000	0.000000	6.370923	-0.063106	NaN	0.000000	0.001533	0.001807	28.0794	0.023059	0.001911	12.0687	-92.8861	-167.315	-0.053234	0.369074	-0.664125	-0.665483	-0.063106	12.0687	-0.660203	-5.587919E+8	1.129336E-10	NaN
356	1.000000	0.378377	7.36854e+06	-56439.1	955.819	-29739.3	0.000000	0.000000	6.378870	-0.003623	NaN	0.000000	0.001560	0.001798	28.0793	0.048924	0.002019	24.2268	108.825	-168.5	0.004101	0.377097	-0.656179	-0.657459	-0.003623	24.2268	-0.656067	-4.904458E+8	7.388029E-12	NaN
356	1.000000	0.386385	7.36854e+06	-56439.1	955.818	-29739.3	0.000000	0.000000	6.386875	-0.078344	NaN	0.000000	0.001503	0.001760	28.0794	0.047176	0.001915	24.6392	-114.967	-166.22	0.019871	0.385112	-0.648172	-0.649444	-0.078344	24.6392	-0.645787	-3.545449E+8	2.209701E-10	NaN
356	1.000000	0.394411	7.36854e+06	-56439.1	955.818	-29739.3	0.000000	0.000000	6.394900	-0.083827	NaN	0.000000	0.001533	0.001749	28.0793	0.055170	0.002029	27.1879	-96.232	-165.858	-0.068409	0.393061	-0.640146	-0.641496	-0.083827	27.1879	-0.637833	-2.757789E+8	3.039640E-10	NaN
356	1.000000	0.402387	7.36854e+06	-56439.1	955.818	-29739.3	0.000000	0.000000	6.402878	-0.058209	NaN	0.000000	0.001562	0.001739	28.0805	0.173555	0.001861	93.2584	120.492	-162.59	-0.036480	0.401120	-0.632169	-0.633437	-0.058209	93.2584	-0.631701	-2.271880E+8	2.562144E-10	NaN
356	1.000000	0.410390	7.36854e+06	-56439.1	955.819	-29739.3	0.000000	0.000000	6.410880	-0.077951	NaN	0.000000	0.001536	0.001778	28.0807	0.083906	0.002035	41.2228	47.9813	-164.197	-0.111858	0.409030	-0.624167	-0.625527	-0.077951	41.2228	-0.622749	-1.711628E+8	4.554180E-10	NaN
356	1.000000	0.418374	7.36854e+06	-56439.1	955.818	-29739.3	0.000000	0.000000	6.418863	-0.093502	NaN	0.000000	0.001515	0.001771	28.0805	0.012434	0.001960	6.343516	-73.8399	-166.582	-0.083003	0.417038	-0.616183	-0.617518	-0.093502	6.343516	-0.605128	-9.796445E+7	9.544501E-10	NaN
356	1.000000	0.426428	7.36854e+06	-56439.1	955.819	-29739.3	0.000000	0.000000	6.426917	-0.098927	NaN	0.000000	0.001486	0.001770	28.0806	0.116669	0.001973	59.1293	82.7416	-163.72	-0.067002	0.425043	-0.608129	-0.609513	-0.098927	59.1293	-0.606874	-1.035387E+8	9.554579E-10	NaN
356	1.000000	0.434398	7.36854e+06	-56439.1	955.819	-29739.3	0.000000	0.000000	6.434891	-0.023615	NaN	0.000000	0.001447	0.001780	28.0806	0.019362	0.002164	8.948758	127.952	-163.579	-0.060500	0.433123	-0.600158	-0.601434	-0.023615	8.948758	-0.598179	-7.859235E+7	3.004746E-10	NaN
356	1.000000	0.442449	7.36854e+06	-56439.1	955.818	-29739.3	0.000000	0.000000	6.442938	-0.093811	NaN	0.000000	0.001499	0.001800	28.0804	0.022615	0.001961	11.5326	161.399	-165.175	-0.061461	0.441158	-0.592108	-0.593399	-0.093811	11.5326	-0.586007	-5.340805E+7	1.756489E-9	NaN
356	1.000000	0.450482	7.36854e+06	-56439.1	955.819	-29739.3	0.000000	0.000000	6.450974	-0.012802	NaN	0.000000	0.001513	0.001781	28.0805	0.060810	0.001905	31.9196	156.024	-164.666	0.086138	0.449170	-0.584075	-0.585387	-0.012802	31.9196	-0.583774	-4.975132E+7	2.573223E-10	NaN
356	1.000000	0.458433	7.36854e+06	-56439.1	955.819	-29739.3	0.000000	0.000000	6.458924	-0.047381	NaN	0.000000	0.001527	0.001809	28.0803	0.078076	0.001825	42.7908	150.568	-164.041	-0.084044	0.457126	-0.576124	-0.577430	-0.047381	42.7908	-0.575293	-3.799695E+7	1.246970E-9	NaN
356	1.000000	0.466445	7.36854e+06	-56439.1	955.818	-29739.3	0.000000	0.000000	6.466938	0.004565	NaN	0.000000	0.001488	0.001755	28.0807	0.102070	0.001895	53.8619	123.685	-163.911	-0.007515	0.465119	-0.568112	-0.569438	0.004565	53.8619	-0.568175	-3.029820E+7	-1.506546E-10	NaN
356	1.000000	0.474444	7.36854e+06	-56439.1	955.818	-29739.3	0.000000	0.000000	6.474936	-0.031025	NaN	0.000000	0.001463	0.001709	28.0812	0.038123	0.002027	18.8081	63.2377	-165.682	-0.014068	0.473139	-0.560113	-0.561418	-0.031025	18.8081	-0.558876	-2.253330E+7	1.376872E-9	NaN
356	1.000000	0.482455	7.36854e+06	-56439.1	955.818	-29739.3	0.000000	0.000000	6.482946	-0.049177	NaN	0.000000	0.001491	0.001749	28.0806	0.045927	0.002078	22.1028	109.845	-160.698	-0.059378	0.481134	-0.552102	-0.553423	-0.049177	22.1028	-0.550433	-1.721703E+7	2.856288E-9	NaN
356	1.000000	0.490460	7.36854e+06	-56439.1	955.819	-29739.3	0.000000	0.000000	6.490952	-0.028710	NaN	0.000000	0.001523	0.001732	28.0805	0.021261	0.001951	10.8958	-56.7841	-162.965	0.037063	0.489099	-0.544097	-0.545458	-0.028710	10.8958	-0.542121	-1.320589E+7	2.174023E-9	NaN
356	1.000000	0.498447	7.36854e+06	-56439.1	955.818	-29739.3	0.000000	0.000000	6.498938	-0.053023	NaN	0.000000	0.001510	0.001738	28.0804	0.057524	0.001951	29.4811	169.354	-164.785	-0.050981	0.497129	-0.536109	-0.537427	-0.053023	29.4811	-0.534760	-1.043915E+7	5.079281E-9	NaN
356	1.000000	0.506490	7.36854e+06	-56439.1	955.818	-29739.3	0.000000	0.000000	6.506984	-0.000382	NaN	0.000000	0.001522	0.001765	28.0806	0.090506	0.001970	45.9428	34.5243	-167.447	0.042191	0.505196	-0.528066	-0.529361	-0.000382	45.9428	-0.528060	-8.42617e+06	4.536056E-11	NaN
356	1.000000	0.514452	7.36854e+06	-56439.1	955.818	-29739.3	0.000000	0.000000	6.514941	-0.093372	NaN	0.000000	0.001531	0.001780	28.0807	0.050656	0.002091	24.227	100.43	-164.608	-0.117818	0.513169	-0.520105	-0.521388	-0.093372	24.227	-0.517215	-5.95458e+06	1.568072E-8	NaN
356	1.000000	0.522485	7.36854e+06	-56439.1	955.819	-29739.3	0.000000	0.000000	6.522974	-0.098597	NaN	0.000000	0.001505	0.001706	28.0805	0.092088	0.002057	44.7713	-158.304	-164.528	-0.092552	0.521129	-0.512072	-0.513427	-0.098597	44.7713	-0.510420	-4.78924e+06	2.058714E-8	NaN
356	1.000000	0.530456	7.36854e+06	-56439.1	955.818	-29739.3	0.000000	0.000000	6.530946	-0.071911	NaN	0.000000	0.001508	0.001692	28.0806	0.056063	0.002072	27.0531	-47.5993	-163.93	-0.100766	0.529177	-0.504100	-0.505380	-0.071911	27.0531	-0.502107	-3.6678e+06	1.960595E-8	NaN
356	1.000000	0.538480	7.36854e+06	-56439.1	955.819	-29739.3	0.000000	0.000000	6.538971	-0.047924	NaN	0.000000	0.001541	0.001709	28.0792	0.026828	0.002126	12.6172	-51.4265	-164.419	-0.030962	0.537146	-0.496077	-0.497411	-0.047924	12.6172	-0.493228	-2.75733e+06	1.738075E-8	NaN
356	1.000000	0.546475	7.36854e+06	-56439.1	955.818	-29739.3	0.000000	0.000000	6.546967	-0.031109	NaN	0.000000	0.001541	0.001733	28.0793	0.177089	0.002028	87.3208	-103.229	-163.832	-0.052461	0.545155	-0.488082	-0.489402	-0.031109	87.3208	-0.487814	-2.31656e+06	1.342914E-8	NaN
356	1.000000	0.554495	7.36854e+06	-56439.1	955.818	-29739.3	0.000000	0.000000	6.554987	-0.015696	NaN	0.000000	0.001557	0.001726	28.079	0.016878	0.001989	8.487698	176.712	-163.144	-0.104482	0.553123	-0.480062	-0.481434	-0.015696	8.487698	-0.478675	-1.72575e+06	9.095177E-9	NaN
356	1.000000	0.562503	7.36854e+06	-56439.1	955.818	-29739.3	0.000000	0.000000	6.562993	-0.074550	NaN	0.000000	0.001540	0.001702	28.0794	0.091141	0.002059	44.2538	130.057	-161.541	-0.053387	0.561154	-0.472054	-0.473402	-0.074550	44.2538	-0.470790	-1.3381e+06	5.571281E-8	NaN
356	1.000000	0.570509	7.36854e+06	-56439.1	955.818	-29739.3	0.000000	0.000000	6.570997	-0.136080	NaN	0.000000	0.001530	0.001690	28.0791	0.017927	0.001971	9.094630	3.082850	-166.863	-0.131614	0.569181	-0.464047	-0.465376	-0.136080	9.094630	-0.452825	-748376	1.818333E-7	NaN
356	1.000000	0.578487	7.36854e+06	-56439.1	955.818	-29739.3	0.000000	0.000000	6.578979	-0.023448	NaN	0.000000	0.001481	0.001717	28.0791	0.095835	0.001899	50.4528	158.579	-165.296	0.016950	0.577145	-0.456070	-0.457412	-0.023448	50.4528	-0.455722	-821993	2.852595E-8	NaN
356	1.000000	0.586488	7.36854e+06	-56439.1	955.819	-29739.3	0.000000	0.000000	6.586978	-0.060045	NaN	0.000000	0.001550	0.001670	28.0792	0.105418	0.002104	50.0979	160.518	-164.761	-0.044245	0.585163	-0.448069	-0.449394	-0.060045	50.0979	-0.447170	-622988	9.638170E-8	NaN
356	1.000000	0.594507	7.36854e+06	-56439.1	955.819	-29739.3	0.000000	0.000000	6.594996	-0.093178	NaN	0.000000	0.001511	0.001710	28.0793	0.080097	0.002014	39.7794	178.739	-165.254	-0.121343	0.593148	-0.440050	-0.441408	-0.093178	39.7794	-0.438293	-466943	1.995480E-7	NaN
356	1.000000	0.602521	7.36854e+06	-56439.1	955.819	-29739.3	0.000000	0.000000	6.603012	-0.036666	NaN	0.000000	0.001555	0.001680	28.0794	0.003605	0.001899	1.898454	108.23	-169.212	0.016685	0.601175	-0.432036	-0.433382	-0.036666	1.898454	-0.417551	-237502	1.543832E-7	NaN
356	1.000000	0.610504	7.36854e+06	-56439.1	955.818	-29739.3	0.000000	0.000000	6.610996	-0.018807	NaN	0.000000	0.001557	0.001680	28.0793	0.050260	0.002109	23.8338	-40.5777	-167.055	0.086311	0.609219	-0.424053	-0.425338	-0.018807	23.8338	-0.423461	-288056	6.528771E-8	NaN
356	1.000000	0.618493	7.36854e+06	-56439.1	955.818	-29739.3	0.000000	0.000000	6.618984	-0.070097	NaN	0.000000	0.001548	0.001683	28.0794	0.048640	0.002079	23.391	-136.357	-165.346	-0.027639	0.617239	-0.416063	-0.417318	-0.070097	23.391	-0.413816	-210201	3.334773E-7	NaN
356	1.000000	0.626477	7.36854e+06	-56439.1	955.818	-29739.3	0.000000	0.000000	6.626967	-0.072409	NaN	0.000000	0.001548	0.001669	28.0795	0.048650	0.002058	23.6414	124.167	-168.327	-0.022506	0.625195	-0.408080	-0.409361	-0.072409	23.6414	-0.405783	-161584	4.481178E-7	NaN
356	1.000000	0.634495	7.36854e+06	-56439.1	955.818	-29739.3	0.000000	0.000000	6.634985	-0.069971	NaN	0.000000	0.001554	0.001653	28.0794	0.011968	0.001952	6.130169	-147.077	-166.022	-0.100153	0.633224	-0.400062	-0.401333	-0.069971	6.130169	-0.391501	-101074	6.922740E-7	NaN
356	1.000000	0.642504	7.36854e+06	-56439.1	955.818	-29739.3	0.000000	0.000000	6.642996	-0.044863	NaN	0.000000	0.001552	0.001691	28.0795	0.042571	0.002050	20.7695	-86.4559	-165.225	-0.099687	0.641168	-0.392053	-0.393389	-0.044863	20.7695	-0.390432	-97578.2	4.597683E-7	NaN
356	1.000000	0.650500	7.36854e+06	-56439.1	955.818	-29739.3	0.000000	0.000000	6.650991	-0.045542	NaN	0.000000	0.001527	0.001691	28.0793	0.035672	0.002112	16.8938	138.173	-162.147	-0.001162	0.649151	-0.384057	-0.385406	-0.045542	16.8938	-0.382035	-73975.4	6.156421E-7	NaN
356	1.000000	0.658496	7.36854e+06	-56439.1	955.818	-29739.3	0.000000	0.000000	6.658989	-0.008256	NaN	0.000000	0.001502	0.001684	28.0795	0.126229	0.001916	65.8692	-108.609	-164.559	-0.066282	0.657197	-0.376061	-0.377360	-0.008256	65.8692	-0.375967	-60529.8	1.363972E-7	NaN
356	1.000000	0.666518	7.36854e+06	-56439.1	955.818	-29739.3	0.000000	0.000000	6.667010	-0.040726	NaN	0.000000	0.001485	0.001682	28.0795	0.056050	0.002036	27.5342	50.4493	-162.431	-0.082280	0.665206	-0.368038	-0.369350	-0.040726	27.5342	-0.366929	-44861.8	9.078097E-7	NaN
356	1.000000	0.674528	7.36854e+06	-56439.1	955.818	-29739.3	0.000000	0.000000	6.675019	-0.060379	NaN	0.000000	0.001512	0.001704	28.0804	0.071021	0.002060	34.4741	-100.563	-164.206	0.037402	0.673204	-0.360028	-0.361352	-0.060379	34.4741	-0.358715	-34139.9	1.768583E-6	NaN
356	1.000000	0.682518	7.36854e+06	-56439.1	955.819	-29739.3	0.000000	0.000000	6.683010	-0.032927	NaN	0.000000	0.001527	0.001683	28.0805	0.064906	0.001993	32.5735	70.8694	-164.36	0.032265	0.681170	-0.352039	-0.353387	-0.032927	32.5735	-0.351281	-26643	1.235853E-6	NaN
356	1.000000	0.690508	7.36855e+06	-56439.1	955.819	-29739.3	0.000000	0.000000	6.691002	0.013829	NaN	0.000000	0.001531	0.001697	28.0804	0.044974	0.001959	22.9574	158.048	-162.492	-0.078505	0.689251	-0.344048	-0.345305	0.013829	22.9574	-0.344500	-21236.6	-6.511738E-7	NaN
356	1.000000	0.698531	7.36855e+06	-56439.1	955.818	-29739.3	0.000000	0.000000	6.699022	-0.061820	NaN	0.000000	0.001538	0.001724	28.0807	0.093438	0.002064	45.2661	64.0758	-165.712	-0.075422	0.697247	-0.336026	-0.337310	-0.061820	45.2661	-0.335002	-15438.7	4.004222E-6	NaN
356	1.000000	0.706522	7.36855e+06	-56439.1	955.818	-29739.3	0.000000	0.000000	6.707011	-0.097391	NaN	0.000000	0.001488	0.001662	28.0804	0.101425	0.002025	50.0782	-73.1286	-167.208	-0.128437	0.705247	-0.328034	-0.329310	-0.097391	50.0782	-0.326576	-11621.5	8.380253E-6	NaN
356	1.000000	0.714551	7.36855e+06	-56439.1	955.817	-29739.3	0.000000	0.000000	6.715043	-0.026847	NaN	0.000000	0.001520	0.001645	28.0804	0.135036	0.001943	69.4901	-92.5411	-163.405	0.023534	0.713199	-0.320005	-0.321358	-0.026847	69.4901	-0.319716	-9214.12	2.913708E-6	NaN
356	1.000000	0.722558	7.36855e+06	-56439.1	955.818	-29739.3	0.000000	0.000000	6.723047	-0.098013	NaN	0.000000	0.001489	0.001685	28.0806	0.052025	0.001920	27.1011	-164.238	-165.753	-0.049961	0.721242	-0.311999	-0.313314	-0.098013	27.1011	-0.309287	-6463.9	1.516310E-5	NaN
356	1.000000	0.730515	7.36855e+06	-56439.1	955.819	-29739.3	0.000000	0.000000	6.731006	-0.059872	NaN	0.000000	0.001524	0.001654	28.0805	0.105693	0.001916	55.1503	158.967	-164.047	-0.049814	0.729203	-0.304042	-0.305354	-0.059872	55.1503	-0.303228	-5255.77	1.139172E-5	NaN
356	1.000000	0.738517	7.36855e+06	-56439.1	955.818	-29739.3	0.000000	0.000000	6.739009	-0.029532	NaN	0.000000	0.001501	0.001678	28.081	0.043195	0.001934	22.3298	-83.7275	-166.16	-0.089946	0.737214	-0.296039	-0.297343	-0.029532	22.3298	-0.295048	-3970.07	7.438580E-6	NaN
356	1.000000	0.746580	7.36855e+06	-56439.1	955.818	-29739.3	0.000000	0.000000	6.747070	-0.085265	NaN	0.000000	0.001470	0.001694	28.0807	0.104405	0.002006	52.0553	-137.283	-166.235	-0.054693	0.745257	-0.287976	-0.289300	-0.085265	52.0553	-0.286748	-2982.14	2.859205E-5	NaN
356	1.000000	0.754590	7.36855e+06	-56439.1	955.819	-29739.3	0.000000	0.000000	6.755080	-0.066453	NaN	0.000000	0.001533	0.001669	28.0806	0.063147	0.002093	30.177	72.0647	-165.581	-0.074352	0.753272	-0.279967	-0.281285	-0.066453	30.177	-0.278315	-2226.08	2.985191E-5	NaN
356	1.000000	0.762528	7.36855e+06	-56439.1	955.818	-29739.3	0.000000	0.000000	6.763019	-0.044091	NaN	0.000000	0.001523	0.001690	28.0807	0.082530	0.002056	40.1389	-140.482	-166.251	-0.082900	0.761255	-0.272029	-0.273302	-0.044091	40.1389	-0.271205	-1737.23	2.538004E-5	NaN
356	1.000000	0.770567	7.36855e+06	-56439.1	955.818	-29739.3	0.000000	0.000000	6.771057	-0.089915	NaN	0.000000	0.001533	0.001664	28.0805	0.116600	0.002186	53.3512	128.518	-164.79	-0.127439	0.769251	-0.263989	-0.265305	-0.089915	53.3512	-0.262725	-1290.15	6.969346E-5	NaN
356	1.000000	0.778536	7.36855e+06	-56439.1	955.819	-29739.3	0.000000	0.000000	6.779028	-0.024420	NaN	0.000000	0.001582	0.001688	28.0806	0.045980	0.002036	22.5798	54.5043	-163.312	-0.064900	0.777269	-0.256021	-0.257288	-0.024420	22.5798	-0.255209	-989.325	2.468345E-5	NaN
356	1.000000	0.786540	7.36855e+06	-56439.1	955.818	-29739.3	0.000000	0.000000	6.787031	-0.048634	NaN	0.000000	0.001596	0.001685	28.0804	0.041757	0.002013	20.7406	-18.0611	-166.748	-0.010142	0.785297	-0.248017	-0.249259	-0.048634	20.7406	-0.246259	-719.447	6.759962E-5	NaN
356	1.000000	0.794583	7.36855e+06	-56439.1	955.818	-29739.3	0.000000	0.000000	6.795075	-0.034133	NaN	0.000000	0.001586	0.001697	28.0805	0.014680	0.002026	7.246034	165.133	-166.92	-0.111461	0.793276	-0.239973	-0.241281	-0.034133	7.246034	-0.236441	-505.651	6.750403E-5	NaN
356	1.000000	0.802605	7.36855e+06	-56439.1	955.819	-29739.3	0.000000	0.000000	6.803096	-0.055853	NaN	0.000000	0.001604	0.001689	28.0805	0.100679	0.002010	50.0999	154.876	-164.947	-0.044915	0.801226	-0.231952	-0.233330	-0.055853	50.0999	-0.231115	-416.984	0.000134	NaN
356	1.000000	0.810583	7.36855e+06	-56439.1	955.819	-29739.3	0.000000	0.000000	6.811072	-0.094652	NaN	0.000000	0.001597	0.001699	28.0792	0.064331	0.001948	33.0304	21.1361	-165.484	-0.089214	0.809270	-0.223974	-0.225287	-0.094652	33.0304	-0.221825	-297.036	0.000319	NaN
356	1.000000	0.818574	7.36855e+06	-56439.1	955.819	-29739.3	0.000000	0.000000	6.819065	-0.055093	NaN	0.000000	0.001529	0.001701	28.0792	0.059679	0.001995	29.9166	-15.0985	-167.813	-0.047006	0.817242	-0.215983	-0.217315	-0.055093	29.9166	-0.214601	-227.563	0.000242	NaN
356	1.000000	0.826583	7.36855e+06	-56439.1	955.818	-29739.3	0.000000	0.000000	6.827074	-0.052712	NaN	0.000000	0.001565	0.001724	28.0792	0.058305	0.002038	28.6088	-106.707	-168.436	0.007785	0.825214	-0.207973	-0.209343	-0.052712	28.6088	-0.206591	-168.844	0.000312	NaN
356	1.000000	0.834573	7.36855e+06	-56439.1	955.818	-29739.3	0.000000	0.000000	6.835064	-0.057105	NaN	0.000000	0.001578	0.001687	28.0794	0.035553	0.001946	18.2694	-148.718	-162.231	-0.033157	0.833282	-0.199984	-0.201275	-0.057105	18.2694	-0.197639	-120.457	0.000474	NaN
356	1.000000	0.842597	7.36855e+06	-56439.1	955.818	-29739.3	0.000000	0.000000	6.843087	-0.075902	NaN	0.000000	0.001591	0.001714	28.0793	0.045348	0.001978	22.9238	-35.8011	-163.394	-0.043150	0.841282	-0.191959	-0.193275	-0.075902	22.9238	-0.189476	-88.1598	0.000861	NaN
356	1.000000	0.850607	7.36855e+06	-56439.1	955.818	-29739.3	0.000000	0.000000	6.851095	-0.112409	NaN	0.000000	0.001618	0.001669	28.0793	0.062091	0.001965	31.6053	13.1953	-165.146	-0.079003	0.849275	-0.183950	-0.185281	-0.112409	31.6053	-0.181283	-64.1599	0.001752	NaN
356	1.000000	0.858610	7.36855e+06	-56439.1	955.818	-29739.3	0.000000	0.000000	6.859098	-0.105252	NaN	0.000000	0.001628	0.001653	28.0793	0.075291	0.002082	36.1654	39.5165	-164.297	-0.023187	0.857316	-0.175947	-0.177240	-0.105252	36.1654	-0.173764	-47.7222	0.002206	NaN
356	1.000000	0.866595	7.36855e+06	-56439.1	955.818	-29739.3	0.000000	0.000000	6.867088	-0.001571	NaN	0.000000	0.001630	0.001666	28.0794	0.070962	0.002066	34.3502	-37.796	-163.417	0.048694	0.865306	-0.167962	-0.169251	-0.001571	34.3502	-0.167928	-37.8049	4.155168E-5	NaN
356	1.000000	0.874606	7.36855e+06	-56439.1	955.817	-29739.3	0.000000	0.000000	6.875098	-0.011145	NaN	0.000000	0.001590	0.001681	28.0793	0.046987	0.001919	24.4825	39.4045	-164.594	-0.087680	0.873326	-0.159951	-0.161231	-0.011145	24.4825	-0.159610	-26.9803	0.000413	NaN
356	1.000000	0.882600	7.36855e+06	-56439.1	955.819	-29739.3	0.000000	0.000000	6.883090	-0.072988	NaN	0.000000	0.001624	0.001645	28.0793	0.079803	0.002026	39.3824	57.5615	-167.576	-0.003061	0.881333	-0.151956	-0.153224	-0.072988	39.3824	-0.150566	-18.5493	0.003935	NaN
356	1.000000	0.890607	7.36855e+06	-56439.1	955.818	-29739.3	0.000000	0.000000	6.891098	-0.038774	NaN	0.000000	0.001611	0.001658	28.0795	0.069561	0.001974	35.2304	65.727	-160.587	-0.071306	0.889299	-0.143950	-0.145258	-0.038774	35.2304	-0.143125	-13.5324	0.002865	NaN
356	1.000000	0.898629	7.36855e+06	-56439.1	955.819	-29739.3	0.000000	0.000000	6.899121	-0.044532	NaN	0.000000	0.001602	0.001663	28.0792	0.060808	0.001888	32.2147	68.0839	-167.845	-0.099326	0.897287	-0.135927	-0.137270	-0.044532	32.2147	-0.134891	-9.466794	0.004704	NaN
356	1.000000	0.906634	7.36855e+06	-56439.1	955.818	-29739.3	0.000000	0.000000	6.907125	-0.033599	NaN	0.000000	0.001583	0.001720	28.0794	0.077786	0.002068	37.6079	130.065	-165.3	-0.076209	0.905291	-0.127923	-0.129266	-0.033599	37.6079	-0.127253	-6.735733	0.004988	NaN
356	1.000000	0.914616	7.36855e+06	-56439.1	955.818	-29739.3	0.000000	0.000000	6.915109	-0.006153	NaN	0.000000	0.001607	0.001675	28.0792	0.065624	0.001903	34.4836	75.8761	-169.182	-0.076078	0.913358	-0.119941	-0.121198	-0.006153	34.4836	-0.119807	-4.788378	0.001285	NaN
356	1.000000	0.922606	7.36855e+06	-56439.1	955.819	-29739.3	0.000000	0.000000	6.923097	-0.067018	NaN	0.000000	0.001511	0.001666	28.0791	0.076169	0.002062	36.9336	9.664949	-165.764	-0.069992	0.921329	-0.111950	-0.113228	-0.067018	36.9336	-0.110589	-3.092314	0.021672	NaN
356	1.000000	0.930609	7.36855e+06	-56439.1	955.818	-29739.3	0.000000	0.000000	6.931098	-0.112477	NaN	0.000000	0.001546	0.001668	28.0793	0.085340	0.002015	42.3509	-40.0238	-162.412	-0.164599	0.929344	-0.103947	-0.105213	-0.112477	42.3509	-0.101956	-2.017892	0.055740	NaN
356	1.000000	0.938631	7.36855e+06	-56439.1	955.818	-29739.3	0.000000	0.000000	6.939121	-0.072044	NaN	0.000000	0.001529	0.001654	28.0793	0.002175	0.002007	1.083433	80.4483	-161.265	-0.058996	0.937254	-0.095926	-0.097303	-0.072044	1.083433	-0.046054	-0.069218	1.040835	NaN
356	1.000000	0.946653	7.36855e+06	-56439.1	955.818	-29739.3	0.000000	0.000000	6.947144	-0.053657	NaN	0.000000	0.001509	0.001686	28.0805	0.077965	0.002099	37.1452	149.92	-165.179	-0.028656	0.945322	-0.087903	-0.089235	-0.053657	37.1452	-0.086820	-0.908817	0.059040	NaN
356	1.000000	0.954603	7.36855e+06	-56439.1	955.819	-29739.3	0.000000	0.000000	6.955092	-0.105346	NaN	0.000000	0.001515	0.001662	28.0805	0.150412	0.001997	75.327	-161.675	-167.033	-0.136456	0.953301	-0.079954	-0.081256	-0.105346	75.327	-0.078905	-0.581040	0.181306	NaN
356	1.000000	0.962648	7.36855e+06	-56439.1	955.819	-29739.3	0.000000	0.000000	6.963137	-0.103226	NaN	0.000000	0.001500	0.001695	28.0803	0.090119	0.002036	44.2639	-4.787328	-163.536	-0.129911	0.961314	-0.071909	-0.073243	-0.103226	44.2639	-0.070160	-0.344481	0.299657	NaN
356	1.000000	0.970638	7.36855e+06	-56439.1	955.819	-29739.3	0.000000	0.000000	6.971128	-0.070319	NaN	0.000000	0.001512	0.001683	28.0805	0.057253	0.002121	26.9909	30.4311	-164.893	-0.054166	0.969330	-0.063918	-0.065227	-0.070319	26.9909	-0.061964	-0.204876	0.343228	NaN
356	1.000000	0.978659	7.36855e+06	-56439.1	955.818	-29739.3	0.000000	0.000000	6.979150	-0.040937	NaN	0.000000	0.001520	0.001698	28.0806	0.059943	0.001866	32.1221	167.213	-163.946	0.004713	0.977309	-0.055898	-0.057248	-0.040937	32.1221	-0.054942	-0.128271	0.319147	NaN
356	1.000000	0.986651	7.36855e+06	-56439.1	955.819	-29739.3	0.000000	0.000000	6.987142	-0.069622	NaN	0.000000	0.001490	0.001696	28.0806	0.036658	0.002147	17.071	-155.765	-167.386	-0.126556	0.985334	-0.047905	-0.049223	-0.069622	17.071	-0.044847	-0.063578	1.095079	NaN
356	1.000000	0.994664	7.36855e+06	-56439.1	955.817	-29739.3	0.000000	0.000000	6.995154	-0.065626	NaN	0.000000	0.001515	0.001685	28.0805	0.078617	0.002111	37.2358	-106.72	-167.459	-0.087783	0.993304	-0.039893	-0.041252	-0.065626	37.2358	-0.038571	-0.040933	1.603264	NaN
356	1.000000	1.002664	7.36855e+06	-56439.1	955.818	-29739.3	0.000000	0.000000	7.003156	-0.017233	NaN	0.000000	0.001582	0.001680	28.0805	0.083814	0.002070	40.4975	-22.5308	-166.317	-0.055306	1.001313	-0.031893	-0.033244	-0.017233	40.4975	-0.031574	-0.025484	0.676235	NaN
356	1.000000	1.010657	7.36855e+06	-56439.1	955.818	-29739.3	0.000000	0.000000	7.011146	-0.094526	NaN	0.000000	0.001591	0.001702	28.0809	0.041713	0.001919	21.7403	-117.936	-164.177	-0.040688	1.009352	-0.023900	-0.025204	-0.094526	21.7403	-0.020639	-0.013040	7.249109	NaN
356	1.000000	1.018676	7.36855e+06	-56439.1	955.818	-29739.3	0.000000	0.000000	7.019169	-0.009190	NaN	0.000000	0.001593	0.001740	28.0806	0.066798	0.002053	32.5296	-111.282	-165.69	-0.044083	1.017349	-0.015881	-0.017207	-0.009190	32.5296	-0.015669	-0.009680	0.949345	NaN
356	1.000000	1.026692	7.36855e+06	-56439.1	955.817	-29739.3	0.000000	0.000000	7.027187	0.053670	NaN	0.000000	0.001601	0.001667	28.0803	0.159483	0.002037	78.2983	16.1036	-163.425	0.081469	1.025331	-0.007865	-0.009226	0.053670	78.2983	-0.008379	-0.005453	-9.842152	NaN
356	1.000000	1.034667	7.36855e+06	-56439.1	955.818	-29739.3	0.000000	0.000000	7.035164	0.084098	NaN	0.000000	0.001554	0.001671	28.0804	0.268759	0.001951	137.75	22.7809	-164.587	0.051966	1.033333	0.000111	-0.001223	0.084098	137.75	-0.000347	-0.000258	-326.188	NaN
356	1.000000	1.042639	7.36855e+06	-56439.1	955.818	-29739.3	0.000000	0.000000	7.043383	6.106276	NaN	0.000000	0.001572	0.001668	28.0805	6.132963	0.001794	3419.48	10.6015	-168.325	4.788426	1.041336	0.008082	0.006779	6.106276	3419.48	0.006743	0.005781	1056.25	41089.3
356	2.000000	1.046323	7.36855e+06	-56439.1	955.819	-29739.3	0.000000	0.000000	7.047217	9.738761	NaN	0.000000	0.001578	0.001695	28.0812	9.261028	0.001677	5522.29	11.4034	-176.292	9.693493	1.046008	0.011766	0.011451	9.738761	5522.29	0.010444	0.009679	1006.21	51284.3
356	2.000000	1.048309	7.36855e+06	-56439.1	955.818	-29739.3	0.000000	0.000000	7.049255	11.0015	NaN	0.000000	0.001576	0.001669	28.0804	10.9989	0.001763	6238.57	6.991252	-171.409	10.5737	1.048038	0.013752	0.013481	11.0015	6238.57	0.012430	0.012009	916.117	52012.4
356	2.000000	1.050285	7.36855e+06	-56439.1	955.819	-29739.3	0.000000	0.000000	7.051346	13.794	NaN	0.000000	0.001592	0.001676	28.0805	13.0564	0.001841	7090.48	10.1834	-174.486	13.0648	1.049949	0.015729	0.015393	13.794	7090.48	0.014269	0.014324	963.027	54128.2
356	2.000000	1.052253	7.36855e+06	-56439.1	955.819	-29739.3	0.000000	0.000000	7.053477	17.7703	NaN	0.000000	0.001605	0.001662	28.0803	14.9029	0.001663	8961.22	9.880506	-178.397	17.548	1.051901	0.017696	0.017345	17.7703	8961.22	0.016209	0.016932	1049.53	62920.2
356	2.000000	1.054249	7.36855e+06	-56439.1	955.818	-29739.3	0.000000	0.000000	7.055521	18.9482	NaN	0.000000	0.001579	0.001651	28.0793	17.2461	0.001758	9812.53	7.052955	-176.964	18.6778	1.053965	0.019692	0.019408	18.9482	9812.53	0.018244	0.019857	954.215	63619.9
356	2.000000	1.056242	7.36855e+06	-56439.1	955.819	-29739.3	0.000000	0.000000	7.057668	22.677	NaN	0.000000	0.001563	0.001670	28.0797	18.6178	0.001777	10479	4.732063	-173.72	22.7274	1.055952	0.021685	0.021395	22.677	10479	0.020062	0.022640	1001.65	63629.7
356	2.000000	1.058233	7.36855e+06	-56439.1	955.818	-29739.3	0.000000	0.000000	7.059807	26.2733	NaN	0.000000	0.001594	0.001683	28.0792	21.0912	0.001978	10664.4	5.923751	-175.211	25.7374	1.057905	0.023677	0.023349	26.2733	10664.4	0.021829	0.025498	1030.41	61018
356	2.000000	1.060240	7.36855e+06	-56439.1	955.819	-29739.3	0.000000	0.000000	7.062002	30.8545	NaN	0.000000	0.001540	0.001681	28.0791	22.0783	0.001723	12817.2	3.180559	-174.457	31.2394	1.059873	0.025683	0.025317	30.8545	12817.2	0.023877	0.029005	1063.77	68759.4
356	2.000000	1.062200	7.36855e+06	-56439.1	955.818	-29739.3	0.000000	0.000000	7.064072	33.522	NaN	0.000000	0.001587	0.001667	28.0791	24.2118	0.001822	13289.4	7.252616	-178.53	33.277	1.061865	0.027643	0.027308	33.522	13289.4	0.025752	0.032397	1034.73	67456.8
356	2.000000	1.064192	7.36855e+06	-56439.1	955.818	-29739.3	0.000000	0.000000	7.066339	40.205	NaN	0.000000	0.001577	0.001632	28.0792	26.1093	0.001883	13865.4	5.886921	-176.49	39.4364	1.063936	0.029635	0.029380	40.205	13865.4	0.027460	0.035644	1127.97	67098.6
356	2.000000	1.066219	7.36855e+06	-56439.1	955.819	-29739.3	0.000000	0.000000	7.068505	43.5877	NaN	0.000000	0.001595	0.001666	28.0803	27.3694	0.001742	15713	4.574089	-177.691	42.4919	1.065919	0.031662	0.031363	43.5877	15713	0.029582	0.039881	1092.94	71886.7
356	2.000000	1.068197	7.36855e+06	-56439.1	955.818	-29739.3	0.000000	0.000000	7.070681	48.3866	NaN	0.000000	0.001614	0.001646	28.0793	29.2712	0.001858	15753.2	4.148034	-176.578	46.7942	1.067892	0.033641	0.033335	48.3866	15753.2	0.031337	0.043560	1110.79	68959.6
356	2.000000	1.070201	7.36855e+06	-56439.1	955.818	-29739.3	0.000000	0.000000	7.072934	54.4436	NaN	0.000000	0.001527	0.001682	28.0791	31.3247	0.001703	18397.6	4.654288	-179.951	54.7303	1.069872	0.035644	0.035315	54.4436	18397.6	0.033424	0.048141	1130.92	76608.6
356	2.000000	1.072256	7.36855e+06	-56439.1	955.818	-29739.3	0.000000	0.000000	7.075246	60.7093	NaN	0.000000	0.001541	0.001688	28.0793	32.0041	0.001679	19064.6	3.682993	-177.909	62.424	1.071840	0.037699	0.037283	60.7093	19064.6	0.035310	0.052471	1157	76039.4
356	2.000000	1.074171	7.36855e+06	-56439.1	955.818	-29739.3	0.000000	0.000000	7.077402	66.5409	NaN	0.000000	0.001547	0.001687	28.0791	34.8879	0.001810	19271.4	1.676930	-177.211	64.681	1.073894	0.039614	0.039338	66.5409	19271.4	0.037025	0.056566	1176.35	74030.3
356	2.000000	1.076167	7.36855e+06	-56439.1	955.819	-29739.3	0.000000	0.000000	7.079677	73.3324	NaN	0.000000	0.001537	0.001648	28.0793	36.1912	0.001672	21650.5	6.397611	177.374	71.8238	1.075843	0.041610	0.041286	73.3324	21650.5	0.039070	0.061646	1189.57	79668.8
356	2.000000	1.078121	7.36855e+06	-56439.1	955.818	-29739.3	0.000000	0.000000	7.081892	79.667	NaN	0.000000	0.001525	0.001648	28.0791	39.6406	0.001898	20890.4	6.696865	177.493	76.1661	1.077800	0.043564	0.043244	79.667	20890.4	0.040704	0.065861	1209.62	74371.4
356	2.000000	1.080169	7.36855e+06	-56439.1	955.818	-29739.3	0.000000	0.000000	7.084107	83.7407	NaN	0.000000	0.001514	0.001659	28.079	40.8721	0.001720	23759.4	6.555482	176.406	82.1552	1.079820	0.045612	0.045264	83.7407	23759.4	0.042969	0.071925	1164.27	80940.8
356	2.000000	1.082185	7.36855e+06	-56439.1	955.818	-29739.3	0.000000	0.000000	7.086505	93.0372	NaN	0.000000	0.001538	0.001673	28.0793	42.082	0.001741	24168	5.220063	177.389	93.5758	1.081793	0.047628	0.047237	93.0372	24168	0.044741	0.076853	1210.59	79649.7
356	2.000000	1.084203	7.36855e+06	-56439.1	955.818	-29739.3	0.000000	0.000000	7.088664	96.4525	NaN	0.000000	0.001500	0.001684	28.0792	45.3224	0.001855	24431.1	3.553977	178.638	96.6325	1.083956	0.049646	0.049399	96.4525	24431.1	0.046685	0.082444	1169.91	77738.7
356	2.000000	1.086136	7.36855e+06	-56439.1	955.819	-29739.3	0.000000	0.000000	7.091044	107.314	NaN	0.000000	0.001499	0.001666	28.0794	46.2206	0.001860	24846.9	4.003064	178.137	104.128	1.085931	0.051579	0.051374	107.314	24846.9	0.048340	0.087351	1228.54	76809
356	2.000000	1.088115	7.36855e+06	-56439.1	955.818	-29739.3	0.000000	0.000000	7.093389	116.2	NaN	0.000000	0.001562	0.001697	28.0804	48.626	0.001901	25573.1	5.157668	178.425	113.975	1.087878	0.053559	0.053321	116.2	25573.1	0.050151	0.092880	1251.08	76664.6
356	2.000000	1.090199	7.36855e+06	-56439.1	955.819	-29739.3	0.000000	0.000000	7.095725	122.331	NaN	0.000000	0.001513	0.001703	28.0802	49.965	0.001845	27074.6	3.269590	179.305	120.81	1.089836	0.055642	0.055280	122.331	27074.6	0.052253	0.099505	1229.39	78417.4
356	2.000000	1.092084	7.36855e+06	-56439.1	955.819	-29739.3	0.000000	0.000000	7.097912	129.672	NaN	0.000000	0.001532	0.001723	28.0804	50.7231	0.001657	30602.8	0.025707	-178.881	126.434	1.091841	0.057528	0.057284	129.672	30602.8	0.054350	0.106331	1219.51	85744.4
356	2.000000	1.094161	7.36855e+06	-56439.1	955.818	-29739.3	0.000000	0.000000	7.100160	133.817	NaN	0.000000	0.001563	0.001729	28.0803	54.4919	0.001793	30398.7	3.297866	176.386	132.825	1.093974	0.059605	0.059417	133.817	30398.7	0.056303	0.112886	1185.41	82662.3
356	2.000000	1.096098	7.36855e+06	-56439.1	955.818	-29739.3	0.000000	0.000000	7.102911	153.609	NaN	0.000000	0.001528	0.001731	28.0808	55.3717	0.001796	30833.1	5.421532	175.5	151.359	1.095831	0.061541	0.061274	153.609	30833.1	0.057805	0.118055	1301.17	81987.7
356	2.000000	1.098114	7.36855e+06	-56439.1	955.818	-29739.3	0.000000	0.000000	7.105214	160.602	NaN	0.000000	0.001523	0.001686	28.0803	57.8559	0.001838	31477.6	3.236001	177.38	157.343	1.097893	0.063557	0.063336	160.602	31477.6	0.059730	0.124843	1286.43	81393.9
356	2.000000	1.100143	7.36855e+06	-56439.1	955.818	-29739.3	0.000000	0.000000	7.107653	170.548	NaN	0.000000	0.001557	0.001695	28.0803	59.6175	0.001784	33420.4	6.279780	174.74	167.391	1.099723	0.065587	0.065166	170.548	33420.4	0.061759	0.132193	1290.15	83981
356	2.000000	1.102111	7.36855e+06	-56439.1	955.818	-29739.3	0.000000	0.000000	7.110162	183.716	NaN	0.000000	0.001534	0.001716	28.0803	61.0957	0.001781	34296.7	5.051530	174.913	179.549	1.101733	0.067554	0.067176	183.716	34296.7	0.063537	0.138795	1323.65	84108.1
356	2.000000	1.104162	7.36855e+06	-56439.1	955.818	-29739.3	0.000000	0.000000	7.112459	189.678	NaN	0.000000	0.001528	0.001675	28.0803	63.5536	0.001761	36097.8	4.629224	175.097	190.696	1.103820	0.069605	0.069263	189.678	36097.8	0.065664	0.146900	1291.21	86048.5
356	2.000000	1.106122	7.36855e+06	-56439.1	955.818	-29739.3	0.000000	0.000000	7.115064	205.369	NaN	0.000000	0.001505	0.001671	28.0804	63.8691	0.001743	36647.1	5.425650	174.201	203.186	1.105757	0.071565	0.071201	205.369	36647.1	0.067362	0.153524	1337.7	85452.6
356	2.000000	1.108150	7.36855e+06	-56439.1	955.818	-29739.3	0.000000	0.000000	7.117318	210.861	NaN	0.000000	0.001521	0.001679	28.0805	66.9933	0.001793	37360.7	5.292202	173.858	211.269	1.107802	0.073593	0.073246	210.861	37360.7	0.069361	0.161496	1305.67	84939
356	2.000000	1.110171	7.36855e+06	-56439.1	955.818	-29739.3	0.000000	0.000000	7.119998	226.857	NaN	0.000000	0.001523	0.001659	28.0804	68.7261	0.001861	36936.3	6.656563	173.423	225.671	1.109836	0.075615	0.075280	226.857	36936.3	0.071008	0.168214	1348.62	82280.3
356	2.000000	1.112185	7.36855e+06	-56439.1	955.818	-29739.3	0.000000	0.000000	7.122239	232.39	NaN	0.000000	0.001509	0.001686	28.0805	69.9302	0.001735	40304.8	2.663875	176.361	236.692	1.111842	0.077628	0.077286	232.39	40304.8	0.073304	0.177786	1307.13	87333.5
356	2.000000	1.114055	7.36855e+06	-56439.1	955.818	-29739.3	0.000000	0.000000	7.124871	250.921	NaN	0.000000	0.001511	0.001691	28.0804	72.1561	0.001909	37795.6	2.673244	176.883	246.432	1.113825	0.079498	0.079268	250.921	37795.6	0.074519	0.182956	1371.48	80731.1
356	2.000000	1.116176	7.36855e+06	-56439.1	955.819	-29739.3	0.000000	0.000000	7.127230	256.695	NaN	0.000000	0.001565	0.001674	28.0803	73.1996	0.001707	42870.5	6.582581	171.816	259.705	1.115816	0.081619	0.081259	256.695	42870.5	0.077128	0.194288	1321.21	88860.4
356	2.000000	1.118101	7.36855e+06	-56439.1	955.819	-29739.3	0.000000	0.000000	7.129864	273.935	NaN	0.000000	0.001520	0.001681	28.0805	74.8326	0.001708	43812.5	4.348113	174.018	272.603	1.117861	0.083544	0.083304	273.935	43812.5	0.078855	0.201962	1356.37	89071
356	2.000000	1.120169	7.36855e+06	-56439.1	955.818	-29739.3	0.000000	0.000000	7.132358	284.287	NaN	0.000000	0.001543	0.001719	28.0805	77.9781	0.001833	42540	7.305442	171.936	283.067	1.119739	0.085613	0.085183	284.287	42540	0.080601	0.209863	1354.63	84840.4
356	2.000000	1.122155	7.36855e+06	-56439.1	955.818	-29739.3	0.000000	0.000000	7.134585	290.134	NaN	0.000000	0.001539	0.001745	28.0795	79.3227	0.001833	43278.2	4.115194	173.577	291.129	1.121887	0.087599	0.087330	290.134	43278.2	0.082571	0.218949	1325.12	84502.7
356	2.000000	1.124151	7.36855e+06	-56439.1	955.819	-29739.3	0.000000	0.000000	7.137058	301.744	NaN	0.000000	0.001515	0.001700	28.0791	80.8743	0.001843	43871.6	3.141384	174.78	300.441	1.123892	0.089594	0.089335	301.744	43871.6	0.084436	0.227717	1325.08	83996
356	2.000000	1.126133	7.36855e+06	-56439.1	955.819	-29739.3	0.000000	0.000000	7.139663	316.897	NaN	0.000000	0.001516	0.001737	28.079	81.3342	0.001817	44766.2	3.270797	174.718	317.294	1.125846	0.091576	0.091289	316.897	44766.2	0.086267	0.236482	1340.05	84105.5
356	2.000000	1.128055	7.36855e+06	-56439.1	955.818	-29739.3	0.000000	0.000000	7.142417	337.099	NaN	0.000000	0.001498	0.001714	28.0792	85.7623	0.001824	47015.6	7.356558	170.346	333.658	1.127752	0.093498	0.093196	337.099	47015.6	0.088121	0.245512	1373.04	86691.9
356	2.000000	1.130043	7.36855e+06	-56439.1	955.819	-29739.3	0.000000	0.000000	7.145106	354.134	NaN	0.000000	0.001504	0.001747	28.0792	86.7129	0.001841	47108.6	5.811058	172.293	346.965	1.129608	0.095486	0.095051	354.134	47108.6	0.089848	0.254071	1393.84	85387.8
356	2.000000	1.132064	7.36855e+06	-56439.1	955.819	-29739.3	0.000000	0.000000	7.147602	365.688	NaN	0.000000	0.001521	0.001746	28.0792	88.3135	0.001827	48327.3	7.028679	170.547	361.138	1.131649	0.097507	0.097093	365.688	48327.3	0.091832	0.264067	1384.83	85922.7
356	2.000000	1.134091	7.36855e+06	-56439.1	955.82	-29739.3	0.000000	0.000000	7.150192	379.377	NaN	0.000000	0.001536	0.001742	28.0789	90.6256	0.001813	49996.2	3.883331	172.982	375.937	1.133800	0.099534	0.099243	379.377	49996.2	0.093843	0.274386	1382.64	87202.6
356	2.000000	1.136133	7.36855e+06	-56439.1	955.819	-29739.3	0.000000	0.000000	7.152607	388.431	NaN	0.000000	0.001546	0.001745	28.0789	90.1405	0.001664	54167.1	0.171504	176.277	387.652	1.135822	0.101576	0.101265	388.431	54167.1	0.096198	0.286702	1354.83	92425.9
356	2.000000	1.138119	7.36855e+06	-56439.1	955.819	-29739.3	0.000000	0.000000	7.155075	400.175	NaN	0.000000	0.001543	0.001722	28.079	92.7975	0.001786	51952	3.816575	172.773	399.213	1.137969	0.103562	0.103412	400.175	51952	0.097785	0.295143	1355.87	87369.3
356	2.000000	1.140206	7.36855e+06	-56439.1	955.819	-29739.3	0.000000	0.000000	7.157980	420.039	NaN	0.000000	0.001536	0.001705	28.0791	94.8876	0.001821	52106.6	3.071614	174.373	420.997	1.139875	0.105649	0.105318	420.039	52106.6	0.099603	0.304958	1377.37	86207.6
356	2.000000	1.142052	7.36855e+06	-56439.1	955.819	-29739.3	0.000000	0.000000	7.160760	442.726	NaN	0.000000	0.001536	0.001753	28.0791	96.144	0.001787	53790.9	4.673915	172.726	439.579	1.141745	0.107496	0.107188	442.726	53790.9	0.101323	0.314377	1408.27	87650.9
356	2.000000	1.143098	7.36855e+06	-56439.1	955.819	-29739.3	0.000000	0.000000	7.161943	446.086	NaN	0.000000	0.001549	0.001737	28.079	96.3992	0.001697	56812.4	3.623635	172.5	445.142	1.142842	0.108541	0.108285	446.086	56812.4	0.102652	0.321751	1386.43	91507.4