File: remote_trans/data/nanoindenter/0828-1/data/Data_2025-08-06,11h17m57s/2025-07-22_16-23-58_1_24.txt
2025-07-22, 16:23:58, 1
Index	Phase	Displacement	Time	Pos X	Pos Y	Pos Z	Rot A	Rot B	Piezo Z	Force A	Force B	Gripper	Voltage A	Voltage B	Temperature	Amplitude force	Amplitude pos	Stiffness	Phase shift	Phase excitation	Force A raw	Displacement raw	HMax	HMax raw	Real Force	Real Stiffness	Contact Depth	Area	Hardness	Reduced Mod.
[#]	[#]	[um]	[s]	[um]	[um]	[um]	[m°]	[m°]	[um]	[uN]	[uN]	[V]	[V]	[V]	[°C]	[uN]	[um]	[N/m]	[°]	[°]	[uN]	[um]	[um]	[um]	[uN]	[N/m]	[um]	[um^2]	[MPa]	[MPa]
24	1.000000	0.002304	7.36527e+06	-39839.1	955.818	-29793.1	0.000000	0.000000	6.002767	0.081466	NaN	0.000000	0.001611	0.001717	28.0834	0.057293	0.000904	63.3846	-95.6849	-167.538	0.081332	0.001130	-1.081602	-1.082776	0.081466	63.3846	-1.082566	-2.924035E+14	-2.786072E-16	NaN
24	1.000000	0.010308	7.36527e+06	-39839.1	955.819	-29793.1	0.000000	0.000000	6.010768	0.026647	NaN	0.000000	0.001566	0.001727	28.0817	0.104510	0.000986	105.987	52.6945	-167.008	0.013654	0.008977	-1.073599	-1.074929	0.026647	105.987	-1.073787	-2.228790E+14	-1.195574E-16	NaN
24	1.000000	0.018277	7.36527e+06	-39839.1	955.818	-29793.1	0.000000	0.000000	6.018736	-0.009421	NaN	0.000000	0.001549	0.001768	28.0807	0.062488	0.001662	37.5888	64.0191	-168.889	-0.016312	0.017000	-1.065629	-1.066907	-0.009421	37.5888	-1.065441	-1.721630E+14	5.472061E-17	NaN
24	1.000000	0.026357	7.36527e+06	-39839.1	955.818	-29793.1	0.000000	0.000000	6.026821	0.097490	NaN	0.000000	0.001520	0.001719	28.0813	0.082693	0.001758	47.0397	24.7141	-168.909	0.170935	0.024985	-1.057549	-1.058922	0.097490	47.0397	-1.059103	-1.415049E+14	-6.889491E-16	NaN
24	1.000000	0.034313	7.36527e+06	-39839.1	955.818	-29793.1	0.000000	0.000000	6.034774	0.033151	NaN	0.000000	0.001539	0.001734	28.0821	0.060164	0.001850	32.5212	-125.43	-165.887	-0.027158	0.032974	-1.049594	-1.050932	0.033151	32.5212	-1.050358	-1.079517E+14	-3.070873E-16	NaN
24	1.000000	0.042327	7.36527e+06	-39839.1	955.818	-29793.1	0.000000	0.000000	6.042786	-0.000830	NaN	0.000000	0.001505	0.001684	28.081	0.072811	0.002113	34.462	138.103	-169.053	0.099108	0.041007	-1.041580	-1.042900	-0.000830	34.462	-1.041562	-8.221832E+13	1.008932E-17	NaN
24	1.000000	0.050319	7.36527e+06	-39839.1	955.818	-29793.1	0.000000	0.000000	6.050779	-0.004716	NaN	0.000000	0.001526	0.001652	28.0837	0.057101	0.002015	28.3443	-145.718	-166.377	-0.013591	0.049014	-1.033587	-1.034892	-0.004716	28.3443	-1.033463	-6.398110E+13	7.371161E-17	NaN
24	1.000000	0.058307	7.36527e+06	-39839.1	955.818	-29793.1	0.000000	0.000000	6.058764	-0.063423	NaN	0.000000	0.001475	0.001688	28.0834	0.086251	0.002034	42.4063	-43.2966	-162.94	-0.036200	0.057011	-1.025600	-1.026896	-0.063423	42.4063	-1.024478	-4.843918E+13	1.309339E-15	NaN
24	1.000000	0.066320	7.36527e+06	-39839.1	955.818	-29793.1	0.000000	0.000000	6.066777	-0.055100	NaN	0.000000	0.001477	0.001703	28.0842	0.044401	0.001972	22.5202	151.692	-167.658	-0.031574	0.065056	-1.017587	-1.018850	-0.055100	22.5202	-1.015752	-3.696495E+13	1.490593E-15	NaN
24	1.000000	0.074311	7.36527e+06	-39839.1	955.819	-29793.1	0.000000	0.000000	6.074771	0.021571	NaN	0.000000	0.001494	0.001728	28.0851	0.060291	0.001944	31.0197	-118.896	-168.226	-0.013107	0.072983	-1.009596	-1.010924	0.021571	31.0197	-1.010117	-3.104295E+13	-6.948626E-16	NaN
24	1.000000	0.082303	7.36527e+06	-39839.1	955.818	-29793.1	0.000000	0.000000	6.082763	0.000241	NaN	0.000000	0.001482	0.001713	28.0845	0.069966	0.001993	35.1117	-162.398	-164.565	-0.065624	0.081015	-1.001603	-1.002891	0.000241	35.1117	-1.001608	-2.384630E+13	-1.009638E-17	NaN
24	1.000000	0.090306	7.36527e+06	-39839.1	955.818	-29793.1	0.000000	0.000000	6.090764	-0.042182	NaN	0.000000	0.001511	0.001729	28.0835	0.075740	0.001864	40.6306	17.9108	-168.866	0.007370	0.089003	-0.993600	-0.994903	-0.042182	40.6306	-0.992822	-1.815981E+13	2.322827E-15	NaN
24	1.000000	0.098320	7.36527e+06	-39839.1	955.818	-29793.1	0.000000	0.000000	6.098783	0.078626	NaN	0.000000	0.001497	0.001717	28.083	0.075235	0.001917	39.2561	-46.0491	-165.835	-0.069956	0.097025	-0.985586	-0.986881	0.078626	39.2561	-0.987088	-1.520189E+13	-5.172128E-15	NaN
24	1.000000	0.106342	7.36527e+06	-39839.1	955.818	-29793.1	0.000000	0.000000	6.106800	-0.049014	NaN	0.000000	0.001533	0.001745	28.0813	0.048077	0.002107	22.8199	138.182	-165.744	-0.084492	0.104988	-0.977565	-0.978919	-0.049014	22.8199	-0.975954	-1.076201E+13	4.554319E-15	NaN
24	1.000000	0.114315	7.36527e+06	-39839.1	955.818	-29793.1	0.000000	0.000000	6.114772	-0.073701	NaN	0.000000	0.001508	0.001737	28.0836	0.018087	0.002132	8.483969	-22.4948	-166.874	-0.103371	0.112984	-0.969591	-0.970922	-0.073701	8.483969	-0.963076	-7.216676E+12	1.021265E-14	NaN
24	1.000000	0.122308	7.36527e+06	-39839.1	955.818	-29793.1	0.000000	0.000000	6.122769	0.023979	NaN	0.000000	0.001492	0.001724	28.0829	0.004789	0.002056	2.329770	-62.4028	-167.257	-0.026570	0.121050	-0.961598	-0.962856	0.023979	2.329770	-0.969317	-8.759171E+12	-2.737555E-15	NaN
24	1.000000	0.130348	7.36527e+06	-39839.1	955.819	-29793.1	0.000000	0.000000	6.130810	0.063097	NaN	0.000000	0.001504	0.001713	28.0843	0.033331	0.002000	16.664	-85.9157	-164.421	0.036207	0.128965	-0.953559	-0.954941	0.063097	16.664	-0.956398	-5.865567E+12	-1.075715E-14	NaN
24	1.000000	0.138328	7.36527e+06	-39839.1	955.818	-29793.1	0.000000	0.000000	6.138787	-0.028889	NaN	0.000000	0.001533	0.001710	28.0832	0.141026	0.001879	75.0364	-74.7319	-167.619	-0.143040	0.137043	-0.945578	-0.946863	-0.028889	75.0364	-0.945289	-4.154258E+12	6.954136E-15	NaN
24	1.000000	0.146360	7.36527e+06	-39839.1	955.819	-29793.1	0.000000	0.000000	6.146819	-0.012825	NaN	0.000000	0.001544	0.001742	28.0847	0.042962	0.002025	21.2184	146.02	-165.794	0.092384	0.145001	-0.937546	-0.938905	-0.012825	21.2184	-0.937093	-3.220436E+12	3.982230E-15	NaN
24	1.000000	0.154356	7.36527e+06	-39839.1	955.817	-29793.1	0.000000	0.000000	6.154815	-0.031465	NaN	0.000000	0.001503	0.001736	28.0845	0.046087	0.002036	22.6335	-135.037	-167.386	-0.039734	0.153086	-0.929550	-0.930820	-0.031465	22.6335	-0.928507	-2.466331E+12	1.275779E-14	NaN
24	1.000000	0.162348	7.36527e+06	-39839.1	955.818	-29793.1	0.000000	0.000000	6.162805	-0.048855	NaN	0.000000	0.001513	0.001734	28.0844	0.056977	0.002103	27.0961	144.228	-165.394	-0.044584	0.161043	-0.921559	-0.922863	-0.048855	27.0961	-0.920207	-1.905440E+12	2.563954E-14	NaN
24	1.000000	0.170350	7.36527e+06	-39839.1	955.819	-29793.1	0.000000	0.000000	6.170812	0.053190	NaN	0.000000	0.001530	0.001734	28.0839	0.036711	0.002091	17.5588	157.064	-166.645	0.093077	0.169065	-0.913556	-0.914841	0.053190	17.5588	-0.915828	-1.662942E+12	-3.198574E-14	NaN
24	1.000000	0.178352	7.36527e+06	-39839.1	955.819	-29793.1	0.000000	0.000000	6.178813	0.029185	NaN	0.000000	0.001526	0.001730	28.0824	0.011124	0.002119	5.248339	15.9208	-167.261	-0.132631	0.176996	-0.905554	-0.906910	0.029185	5.248339	-0.909725	-1.375465E+12	-2.121862E-14	NaN
24	1.000000	0.186350	7.36527e+06	-39839.1	955.818	-29793.1	0.000000	0.000000	6.186809	-0.007998	NaN	0.000000	0.001565	0.001714	28.0824	0.085652	0.002021	42.3719	8.871562	-166.666	-0.064605	0.185032	-0.897557	-0.898875	-0.007998	42.3719	-0.897415	-9.378631E+11	8.528359E-15	NaN
24	1.000000	0.194343	7.36527e+06	-39839.1	955.819	-29793.1	0.000000	0.000000	6.194801	-0.049078	NaN	0.000000	0.001550	0.001724	28.0834	0.056704	0.001989	28.5111	149.693	-167.705	-0.032454	0.193023	-0.889563	-0.890883	-0.049078	28.5111	-0.888272	-7.055954E+11	6.955508E-14	NaN
24	1.000000	0.202362	7.36527e+06	-39839.1	955.82	-29793.1	0.000000	0.000000	6.202819	-0.056671	NaN	0.000000	0.001573	0.001684	28.0811	0.048227	0.001920	25.1211	-84.4737	-165.443	-0.082900	0.201067	-0.881545	-0.882840	-0.056671	25.1211	-0.879853	-5.428969E+11	1.043858E-13	NaN
24	1.000000	0.210333	7.36527e+06	-39839.1	955.818	-29793.1	0.000000	0.000000	6.210791	-0.046955	NaN	0.000000	0.001601	0.001744	28.0823	0.011309	0.001894	5.971057	21.0972	-172.841	-0.054068	0.209076	-0.873573	-0.874831	-0.046955	5.971057	-0.867675	-3.715258E+11	1.263854E-13	NaN
24	1.000000	0.218375	7.36527e+06	-39839.1	955.819	-29793.1	0.000000	0.000000	6.218835	0.010771	NaN	0.000000	0.001601	0.001766	28.0837	0.106828	0.002188	48.8202	-173.231	-166.777	-0.004238	0.217070	-0.865531	-0.866836	0.010771	48.8202	-0.865697	-3.493171E+11	-3.083485E-14	NaN
24	1.000000	0.226344	7.36527e+06	-39839.1	955.818	-29793.1	0.000000	0.000000	6.226805	0.038860	NaN	0.000000	0.001613	0.001760	28.0826	0.096337	0.002001	48.1487	-150.768	-166.98	-0.044422	0.225037	-0.857563	-0.858869	0.038860	48.1487	-0.858168	-2.762649E+11	-1.406604E-13	NaN
24	1.000000	0.234381	7.36527e+06	-39839.1	955.818	-29793.1	0.000000	0.000000	6.234840	-0.026271	NaN	0.000000	0.001552	0.001698	28.0825	0.048822	0.001930	25.2985	-114.494	-165.251	-0.026619	0.233057	-0.849525	-0.850850	-0.026271	25.2985	-0.848747	-2.059506E+11	1.275590E-13	NaN
24	1.000000	0.242377	7.36527e+06	-39839.1	955.819	-29793.1	0.000000	0.000000	6.242835	-0.042772	NaN	0.000000	0.001602	0.001676	28.082	0.052272	0.001957	26.7068	-126.985	-166.916	0.029802	0.241062	-0.841530	-0.842844	-0.042772	26.7068	-0.840329	-1.583964E+11	2.700302E-13	NaN
24	1.000000	0.250354	7.36527e+06	-39839.1	955.818	-29793.1	0.000000	0.000000	6.250816	0.062998	NaN	0.000000	0.001612	0.001682	28.0823	0.031576	0.001923	16.421	-104.051	-168.175	0.061107	0.249048	-0.833553	-0.834858	0.062998	16.421	-0.836430	-1.402564E+11	-4.491631E-13	NaN
24	1.000000	0.258382	7.36527e+06	-39839.1	955.819	-29793.1	0.000000	0.000000	6.258838	-0.084256	NaN	0.000000	0.001613	0.001689	28.0823	0.014018	0.002161	6.488321	-39.928	-165.327	0.002288	0.256978	-0.825525	-0.826929	-0.084256	6.488321	-0.815786	-7.363018E+10	1.144309E-12	NaN
24	1.000000	0.266356	7.36527e+06	-39839.1	955.818	-29793.1	0.000000	0.000000	6.266816	-0.007462	NaN	0.000000	0.001612	0.001684	28.083	0.086782	0.001846	47.0082	83.1292	-168.348	-0.047477	0.265106	-0.817550	-0.818800	-0.007462	47.0082	-0.817431	-7.751263E+10	9.626417E-14	NaN
24	1.000000	0.274371	7.36527e+06	-39839.1	955.818	-29793.1	0.000000	0.000000	6.274830	-0.018678	NaN	0.000000	0.001617	0.001710	28.0821	0.029891	0.001981	15.0911	55.4036	-163.562	-0.063809	0.273087	-0.809535	-0.810820	-0.018678	15.0911	-0.808607	-5.884008E+10	3.174432E-13	NaN
24	1.000000	0.282393	7.36527e+06	-39839.1	955.818	-29793.1	0.000000	0.000000	6.282850	-0.052334	NaN	0.000000	0.001532	0.001645	28.0824	0.075371	0.001976	38.1518	117.868	-170.325	-0.077854	0.281076	-0.801514	-0.802830	-0.052334	38.1518	-0.800485	-4.565019E+10	1.146418E-12	NaN
24	1.000000	0.290381	7.36527e+06	-39839.1	955.818	-29793.1	0.000000	0.000000	6.290842	0.033734	NaN	0.000000	0.001537	0.001691	28.084	0.049639	0.001992	24.9198	21.9757	-164.379	0.006480	0.289080	-0.793526	-0.794827	0.033734	24.9198	-0.794541	-3.790956E+10	-8.898633E-13	NaN
24	1.000000	0.298422	7.36527e+06	-39839.1	955.818	-29793.1	0.000000	0.000000	6.298882	0.021004	NaN	0.000000	0.001583	0.001675	28.0837	0.083659	0.002013	41.5497	85.2112	-168.175	-0.091762	0.297136	-0.785485	-0.786770	0.021004	41.5497	-0.785864	-2.890020E+10	-7.267876E-13	NaN
24	1.000000	0.306386	7.36527e+06	-39839.1	955.819	-29793.1	0.000000	0.000000	6.306845	-0.028775	NaN	0.000000	0.001538	0.001701	28.0833	0.085935	0.001859	46.2194	-179.38	-166.198	-0.080504	0.305101	-0.777520	-0.778805	-0.028775	46.2194	-0.777053	-2.193744E+10	1.311696E-12	NaN
24	1.000000	0.314415	7.36527e+06	-39839.1	955.818	-29793.1	0.000000	0.000000	6.314875	0.006848	NaN	0.000000	0.001522	0.001686	28.0827	0.064286	0.001987	32.3482	33.9286	-166.342	0.013933	0.313108	-0.769492	-0.770798	0.006848	32.3482	-0.769650	-1.740015E+10	-3.935382E-13	NaN
24	1.000000	0.322432	7.36527e+06	-39839.1	955.818	-29793	0.000000	0.000000	6.322891	-0.027785	NaN	0.000000	0.001524	0.001706	28.0836	0.093549	0.001936	48.3099	-127.622	-167.591	-0.021038	0.321133	-0.761474	-0.762774	-0.027785	48.3099	-0.761043	-1.328886E+10	2.090837E-12	NaN
24	1.000000	0.330440	7.36527e+06	-39839.1	955.819	-29793.1	0.000000	0.000000	6.330900	0.002423	NaN	0.000000	0.001549	0.001666	28.0816	0.059062	0.001992	29.6505	121.937	-169.121	0.002617	0.329123	-0.753466	-0.754784	0.002423	29.6505	-0.753527	-1.050103E+10	-2.307503E-13	NaN
24	1.000000	0.338397	7.36527e+06	-39839.1	955.819	-29793.1	0.000000	0.000000	6.338855	-0.029917	NaN	0.000000	0.001546	0.001670	28.083	0.100462	0.002047	49.0892	108.871	-163.063	-0.077523	0.337122	-0.745510	-0.746784	-0.029917	49.0892	-0.745053	-8.051265E+9	3.715771E-12	NaN
24	1.000000	0.346440	7.36528e+06	-39839.1	955.819	-29793.1	0.000000	0.000000	6.346898	-0.035136	NaN	0.000000	0.001525	0.001663	28.0836	0.062637	0.001993	31.427	-96.9461	-168.74	-0.024600	0.345125	-0.737467	-0.738781	-0.035136	31.427	-0.736628	-6.181948E+9	5.683710E-12	NaN
24	1.000000	0.354415	7.36528e+06	-39839.1	955.819	-29793	0.000000	0.000000	6.354872	-0.059257	NaN	0.000000	0.001537	0.001674	28.0845	0.072981	0.001933	37.7629	-114.01	-165.936	-0.050603	0.353127	-0.729492	-0.730779	-0.059257	37.7629	-0.728315	-4.762567E+9	1.244216E-11	NaN
24	1.000000	0.362398	7.36528e+06	-39839.1	955.819	-29793	0.000000	0.000000	6.362857	-0.014036	NaN	0.000000	0.001575	0.001643	28.0841	0.054187	0.001966	27.5684	-84.7286	-166.604	-0.021003	0.361118	-0.721509	-0.722788	-0.014036	27.5684	-0.721127	-3.800516E+9	3.693203E-12	NaN
24	1.000000	0.370420	7.36528e+06	-39839.1	955.818	-29793.1	0.000000	0.000000	6.370880	0.010389	NaN	0.000000	0.001543	0.001637	28.0851	0.067328	0.001993	33.7784	-74.897	-167.561	0.001444	0.369074	-0.713486	-0.714833	0.010389	33.7784	-0.713717	-3.011410E+9	-3.449728E-12	NaN
24	1.000000	0.378430	7.36528e+06	-39839.1	955.819	-29793	0.000000	0.000000	6.378894	0.108275	NaN	0.000000	0.001511	0.001655	28.0851	0.066808	0.001903	35.0996	173.15	-164.817	0.061306	0.377136	-0.705477	-0.706770	0.108275	35.0996	-0.707790	-2.499717E+9	-4.331502E-11	NaN
24	1.000000	0.386453	7.36528e+06	-39839.1	955.819	-29793	0.000000	0.000000	6.386910	-0.056220	NaN	0.000000	0.001558	0.001655	28.0848	0.051991	0.001971	26.3818	-14.1242	-162.919	0.006837	0.385090	-0.697454	-0.698816	-0.056220	26.3818	-0.695855	-1.717598E+9	3.273158E-11	NaN
24	1.000000	0.394448	7.36528e+06	-39839.1	955.819	-29793.1	0.000000	0.000000	6.394906	-0.040725	NaN	0.000000	0.001542	0.001649	28.0849	0.070801	0.001974	35.8752	33.1422	-169.079	-0.012669	0.393121	-0.689458	-0.690786	-0.040725	35.8752	-0.688607	-1.367345E+9	2.978389E-11	NaN
24	1.000000	0.402432	7.36528e+06	-39839.1	955.818	-29793.1	0.000000	0.000000	6.402891	-0.027631	NaN	0.000000	0.001560	0.001651	28.0847	0.030932	0.002086	14.8267	164.559	-166.913	-0.002034	0.401132	-0.681474	-0.682774	-0.027631	14.8267	-0.680077	-1.045327E+9	2.643283E-11	NaN
24	1.000000	0.410437	7.36528e+06	-39839.1	955.818	-29793	0.000000	0.000000	6.410894	-0.059600	NaN	0.000000	0.001623	0.001691	28.0843	0.072896	0.002169	33.601	28.2169	-168.467	0.022478	0.409119	-0.673469	-0.674788	-0.059600	33.601	-0.672139	-8.140762E+8	7.321127E-11	NaN
24	1.000000	0.418494	7.36528e+06	-39839.1	955.818	-29793	0.000000	0.000000	6.418955	0.027822	NaN	0.000000	0.001565	0.001681	28.0833	0.066719	0.002024	32.9613	164.514	-166.499	0.052038	0.417124	-0.665412	-0.666782	0.027822	32.9613	-0.666045	-6.718195E+8	-4.141260E-11	NaN
24	1.000000	0.426448	7.36528e+06	-39839.1	955.818	-29793	0.000000	0.000000	6.426906	-0.043385	NaN	0.000000	0.001514	0.001668	28.0844	0.053445	0.002047	26.1084	-173.835	-166.668	-0.020636	0.425172	-0.657458	-0.658735	-0.043385	26.1084	-0.656212	-4.926924E+8	8.805674E-11	NaN
24	1.000000	0.434480	7.36528e+06	-39839.1	955.819	-29793.1	0.000000	0.000000	6.434938	-0.036498	NaN	0.000000	0.001591	0.001673	28.084	0.076720	0.002086	36.783	-177.683	-168.265	-0.006590	0.433138	-0.649426	-0.650768	-0.036498	36.783	-0.648682	-3.884783E+8	9.395216E-11	NaN
24	1.000000	0.442454	7.36528e+06	-39839.1	955.818	-29793	0.000000	0.000000	6.442913	-0.014432	NaN	0.000000	0.001586	0.001671	28.0844	0.048904	0.001965	24.8917	42.0016	-164.541	-0.035000	0.441150	-0.641453	-0.642756	-0.014432	24.8917	-0.641018	-3.049671E+8	4.732197E-11	NaN
24	1.000000	0.450477	7.36528e+06	-39839.1	955.817	-29793	0.000000	0.000000	6.450933	-0.093360	NaN	0.000000	0.001580	0.001696	28.0852	0.045947	0.001917	23.9689	26.0849	-165.922	-0.002664	0.449178	-0.633429	-0.634728	-0.093360	23.9689	-0.630508	-2.187749E+8	4.267409E-10	NaN
24	1.000000	0.458476	7.36528e+06	-39839.1	955.818	-29793.1	0.000000	0.000000	6.458936	0.020817	NaN	0.000000	0.001559	0.001669	28.0848	0.156659	0.002003	78.2183	-179.516	-163.609	-0.057209	0.457174	-0.625431	-0.626733	0.020817	78.2183	-0.625631	-1.875024E+8	-1.110245E-10	NaN
24	1.000000	0.466492	7.36528e+06	-39839.1	955.819	-29793	0.000000	0.000000	6.466954	0.047771	NaN	0.000000	0.001553	0.001695	28.0855	0.035465	0.001902	18.6493	-45.6252	-163.929	0.003146	0.465165	-0.617414	-0.618741	0.047771	18.6493	-0.619335	-1.536367E+8	-3.109373E-10	NaN
24	1.000000	0.474492	7.36528e+06	-39839.1	955.817	-29793	0.000000	0.000000	6.474951	-0.002439	NaN	0.000000	0.001579	0.001716	28.0831	0.057016	0.001913	29.8052	175.999	-168.971	0.034363	0.473218	-0.609415	-0.610688	-0.002439	29.8052	-0.609354	-1.120006E+8	2.177271E-11	NaN
24	1.000000	0.482477	7.36528e+06	-39839.1	955.817	-29793	0.000000	0.000000	6.482935	-0.044379	NaN	0.000000	0.001574	0.001702	28.0831	0.112909	0.001938	58.2739	-75.7939	-168.097	0.036057	0.481188	-0.601430	-0.602718	-0.044379	58.2739	-0.600859	-8.556252E+7	5.186728E-10	NaN
24	1.000000	0.490509	7.36528e+06	-39839.1	955.818	-29793.1	0.000000	0.000000	6.490971	0.048715	NaN	0.000000	0.001535	0.001701	28.0822	0.059733	0.001992	29.9879	92.2474	-168.88	-0.034897	0.489194	-0.593397	-0.594712	0.048715	29.9879	-0.594616	-7.019167E+7	-6.940236E-10	NaN
24	1.000000	0.498479	7.36528e+06	-39839.1	955.818	-29793	0.000000	0.000000	6.498939	0.007776	NaN	0.000000	0.001556	0.001690	28.0825	0.086158	0.002120	40.6448	-149.857	-168.203	0.019846	0.497140	-0.585428	-0.586767	0.007776	40.6448	-0.585571	-5.267347E+7	-1.476219E-10	NaN
24	1.000000	0.506488	7.36528e+06	-39839.1	955.818	-29793	0.000000	0.000000	6.506949	0.015053	NaN	0.000000	0.001550	0.001677	28.0829	0.129123	0.002092	61.7242	163.85	-166.987	-0.045270	0.505131	-0.577418	-0.578776	0.015053	61.7242	-0.577601	-4.088949E+7	-3.681303E-10	NaN
24	1.000000	0.514474	7.36528e+06	-39839.1	955.818	-29793	0.000000	0.000000	6.514933	0.001827	NaN	0.000000	0.001572	0.001681	28.0836	0.074615	0.001928	38.697	-6.437739	-167.499	-0.039082	0.513146	-0.569433	-0.570760	0.001827	38.697	-0.569468	-3.157075E+7	-5.787626E-11	NaN
24	1.000000	0.522479	7.36528e+06	-39839.1	955.819	-29793	0.000000	0.000000	6.522938	-0.020881	NaN	0.000000	0.001494	0.001711	28.082	0.037667	0.001939	19.4234	103.511	-166.135	-0.030073	0.521188	-0.561428	-0.562718	-0.020881	19.4234	-0.560622	-2.382185E+7	8.765390E-10	NaN
24	1.000000	0.530500	7.36528e+06	-39839.1	955.818	-29793	0.000000	0.000000	6.530958	-0.041211	NaN	0.000000	0.001549	0.001677	28.0829	0.106401	0.002039	52.1862	78.3353	-169.19	-0.008782	0.529189	-0.553407	-0.554717	-0.041211	52.1862	-0.552815	-1.857522E+7	2.218575E-9	NaN
24	1.000000	0.538496	7.36528e+06	-39839.1	955.818	-29793.1	0.000000	0.000000	6.538955	-0.023448	NaN	0.000000	0.001566	0.001698	28.0833	0.065937	0.002070	31.8553	120.103	-165.466	-0.072221	0.537186	-0.545410	-0.546721	-0.023448	31.8553	-0.544858	-1.441162E+7	1.627019E-9	NaN
24	1.000000	0.546491	7.36528e+06	-39839.1	955.818	-29793	0.000000	0.000000	6.546950	-0.005868	NaN	0.000000	0.001497	0.001680	28.0822	0.060846	0.002060	29.5377	-165.093	-168.091	0.049597	0.545231	-0.537415	-0.538676	-0.005868	29.5377	-0.537266	-1.130939E+7	5.188842E-10	NaN
24	1.000000	0.554508	7.36528e+06	-39839.1	955.818	-29793	0.000000	0.000000	6.554963	-0.099028	NaN	0.000000	0.001521	0.001660	28.0839	0.055997	0.001883	29.7388	-175.813	-169.305	-0.107031	0.553234	-0.529399	-0.530673	-0.099028	29.7388	-0.526901	-8.11954e+06	1.219630E-8	NaN
24	1.000000	0.562522	7.36528e+06	-39839.1	955.819	-29793	0.000000	0.000000	6.562980	-0.059577	NaN	0.000000	0.001528	0.001674	28.0832	0.094472	0.001926	49.0454	-128.739	-166.21	-0.107077	0.561218	-0.521384	-0.522689	-0.059577	49.0454	-0.520473	-6.60962e+06	9.013655E-9	NaN
24	1.000000	0.570527	7.36528e+06	-39839.1	955.818	-29793	0.000000	0.000000	6.570985	-0.036718	NaN	0.000000	0.001533	0.001676	28.0839	0.038259	0.001945	19.675	114.385	-167.791	-0.052413	0.569207	-0.513380	-0.514699	-0.036718	19.675	-0.511980	-5.03494e+06	7.292741E-9	NaN
24	1.000000	0.578529	7.36528e+06	-39839.1	955.818	-29793	0.000000	0.000000	6.578987	-0.054305	NaN	0.000000	0.001528	0.001674	28.08	0.039552	0.001956	20.2224	126.729	-167.095	-0.004914	0.577204	-0.505377	-0.506702	-0.054305	20.2224	-0.503363	-3.81877e+06	1.422048E-8	NaN
24	1.000000	0.586524	7.36528e+06	-39839.1	955.818	-29793.1	0.000000	0.000000	6.586982	-0.026403	NaN	0.000000	0.001565	0.001668	28.0829	0.042465	0.001945	21.8355	-100.731	-165.366	-0.032859	0.585184	-0.497383	-0.498722	-0.026403	21.8355	-0.496476	-3.06083e+06	8.625931E-9	NaN
24	1.000000	0.594536	7.36528e+06	-39839.1	955.819	-29793	0.000000	0.000000	6.594994	-0.024564	NaN	0.000000	0.001572	0.001664	28.0817	0.067452	0.002119	31.8343	-170.003	-167.713	-0.094555	0.593172	-0.489371	-0.490734	-0.024564	31.8343	-0.488792	-2.39064e+06	1.027500E-8	NaN
24	1.000000	0.602522	7.36528e+06	-39839.1	955.818	-29793	0.000000	0.000000	6.602983	0.015078	NaN	0.000000	0.001630	0.001672	28.0823	0.023862	0.001953	12.2181	-13.8507	-167.424	-0.104122	0.601192	-0.481384	-0.482714	0.015078	12.2181	-0.482310	-1.94024e+06	-7.771312E-9	NaN
24	1.000000	0.610543	7.36528e+06	-39839.1	955.817	-29793	0.000000	0.000000	6.611002	-0.019929	NaN	0.000000	0.001551	0.001672	28.0857	0.133280	0.002026	65.7893	-157.441	-163.957	-0.004448	0.609220	-0.473363	-0.474686	-0.019929	65.7893	-0.473136	-1.44338e+06	1.380688E-8	NaN
24	1.000000	0.618522	7.36528e+06	-39839.1	955.818	-29793	0.000000	0.000000	6.618984	0.067407	NaN	0.000000	0.001515	0.001694	28.0851	0.104882	0.002113	49.6451	57.2102	-165.337	0.056022	0.617237	-0.465385	-0.466670	0.067407	49.6451	-0.466403	-1.16129e+06	-5.804548E-8	NaN
24	1.000000	0.626520	7.36528e+06	-39839.1	955.818	-29793.1	0.000000	0.000000	6.626981	0.020629	NaN	0.000000	0.001538	0.001665	28.0836	0.032983	0.001918	17.192	-123.046	-164.197	0.042765	0.625145	-0.457386	-0.458762	0.020629	17.192	-0.458286	-893163	-2.309686E-8	NaN
24	1.000000	0.634518	7.36528e+06	-39839.1	955.819	-29793	0.000000	0.000000	6.634974	-0.081454	NaN	0.000000	0.001529	0.001685	28.0856	0.029952	0.001967	15.2294	-111.541	-169.07	-0.077627	0.633212	-0.449389	-0.450694	-0.081454	15.2294	-0.445378	-587781	1.385792E-7	NaN
24	1.000000	0.642581	7.36528e+06	-39839.1	955.818	-29793	0.000000	0.000000	6.643036	-0.099083	NaN	0.000000	0.001540	0.001683	28.0854	0.124378	0.002007	61.9621	-121.856	-167.465	-0.042953	0.641275	-0.441326	-0.442632	-0.099083	61.9621	-0.440126	-495620	1.999183E-7	NaN
24	1.000000	0.650559	7.36528e+06	-39839.1	955.817	-29793	0.000000	0.000000	6.651020	0.037011	NaN	0.000000	0.001543	0.001679	28.084	0.045504	0.002087	21.8019	-4.552928	-167.599	-0.003802	0.649234	-0.433347	-0.434673	0.037011	21.8019	-0.434620	-414372	-8.931933E-8	NaN
24	1.000000	0.658542	7.36528e+06	-39839.1	955.818	-29793	0.000000	0.000000	6.659001	-0.007129	NaN	0.000000	0.001548	0.001693	28.085	0.082988	0.002062	40.2479	-173.145	-167.122	0.049720	0.657252	-0.425365	-0.426655	-0.007129	40.2479	-0.425232	-305189	2.335922E-8	NaN
24	1.000000	0.666547	7.36528e+06	-39839.1	955.818	-29793	0.000000	0.000000	6.667006	-0.006340	NaN	0.000000	0.001556	0.001682	28.084	0.132681	0.001897	69.9413	87.9666	-164.47	-0.006574	0.665225	-0.417360	-0.418682	-0.006340	69.9413	-0.417292	-235499	2.692221E-8	NaN
24	1.000000	0.674563	7.36528e+06	-39839.1	955.819	-29793	0.000000	0.000000	6.675026	0.093686	NaN	0.000000	0.001557	0.001651	28.0845	0.079807	0.001926	41.4447	-155.682	-165.257	0.062025	0.673206	-0.409344	-0.410701	0.093686	41.4447	-0.411039	-191945	-4.880902E-7	NaN
24	1.000000	0.682582	7.36528e+06	-39839.1	955.819	-29793	0.000000	0.000000	6.683039	-0.054007	NaN	0.000000	0.001530	0.001680	28.0843	0.062674	0.002129	29.4441	120.43	-167.288	-0.074779	0.681227	-0.401325	-0.402679	-0.054007	29.4441	-0.399949	-133435	4.047410E-7	NaN
24	1.000000	0.690550	7.36528e+06	-39839.1	955.818	-29793	0.000000	0.000000	6.691005	-0.099292	NaN	0.000000	0.001506	0.001702	28.0848	0.098622	0.001921	51.3463	136.697	-166.48	-0.041882	0.689230	-0.393357	-0.394677	-0.099292	51.3463	-0.391906	-102431	9.693530E-7	NaN
24	1.000000	0.698593	7.36528e+06	-39839.1	955.817	-29793	0.000000	0.000000	6.699051	-0.040362	NaN	0.000000	0.001543	0.001742	28.0851	0.128078	0.001883	68.0169	154.915	-168.668	0.000599	0.697258	-0.385314	-0.386649	-0.040362	68.0169	-0.384869	-81228.4	4.968974E-7	NaN
24	1.000000	0.706595	7.36528e+06	-39839.1	955.818	-29793	0.000000	0.000000	6.707055	0.020444	NaN	0.000000	0.001538	0.001704	28.084	0.013184	0.002025	6.510376	62.1866	-165.546	-0.028966	0.705284	-0.377312	-0.378623	0.020444	6.510376	-0.379667	-68408.9	-2.988573E-7	NaN
24	1.000000	0.714576	7.36528e+06	-39839.1	955.818	-29793	0.000000	0.000000	6.715033	-0.055629	NaN	0.000000	0.001551	0.001720	28.0855	0.079598	0.001935	41.1365	48.9604	-167.985	0.027791	0.713270	-0.369331	-0.370637	-0.055629	41.1365	-0.368317	-46975.9	1.184208E-6	NaN
24	1.000000	0.722587	7.36528e+06	-39839.1	955.818	-29793	0.000000	0.000000	6.723046	-0.007284	NaN	0.000000	0.001545	0.001701	28.0852	0.028374	0.002030	13.977	30.156	-167.85	0.006304	0.721229	-0.361319	-0.362677	-0.007284	13.977	-0.360929	-36750.8	1.981997E-7	NaN
24	1.000000	0.730571	7.36528e+06	-39839.1	955.818	-29793	0.000000	0.000000	6.731030	-0.000756	NaN	0.000000	0.001557	0.001682	28.084	0.101578	0.002075	48.9457	-112.743	-169.477	-0.090860	0.729338	-0.353336	-0.354569	-0.000756	48.9457	-0.353324	-28524.5	2.652030E-8	NaN
24	1.000000	0.738615	7.36528e+06	-39839.1	955.818	-29793	0.000000	0.000000	6.739075	0.007788	NaN	0.000000	0.001506	0.001636	28.0837	0.041774	0.001933	21.6096	-108.381	-165.614	0.078475	0.737311	-0.345292	-0.346596	0.007788	21.6096	-0.345562	-22005.4	-3.539304E-7	NaN
24	1.000000	0.746588	7.36528e+06	-39839.1	955.818	-29793	0.000000	0.000000	6.747049	0.016885	NaN	0.000000	0.001504	0.001680	28.0821	0.122062	0.002085	58.5468	31.2665	-166.01	-0.046536	0.745239	-0.337318	-0.338667	0.016885	58.5468	-0.337535	-16811.1	-1.004376E-6	NaN
24	1.000000	0.754607	7.36528e+06	-39839.1	955.818	-29793	0.000000	0.000000	6.755066	-0.016039	NaN	0.000000	0.001509	0.001673	28.0837	0.039372	0.002066	19.0561	-166.978	-166.227	-0.074099	0.753314	-0.329299	-0.330592	-0.016039	19.0561	-0.328668	-12472.1	1.286032E-6	NaN
24	1.000000	0.762589	7.36528e+06	-39839.1	955.818	-29793	0.000000	0.000000	6.763047	-0.026767	NaN	0.000000	0.001526	0.001670	28.0826	0.061897	0.001996	31.0105	-121.723	-165.476	-0.060186	0.761272	-0.321318	-0.322635	-0.026767	31.0105	-0.320670	-9517.02	2.812514E-6	NaN
24	1.000000	0.770606	7.36528e+06	-39839.1	955.817	-29793.1	0.000000	0.000000	6.771068	0.052603	NaN	0.000000	0.001582	0.001671	28.084	0.177653	0.002072	85.7347	52.1569	-166.268	-0.033378	0.769234	-0.313301	-0.314673	0.052603	85.7347	-0.313761	-7527.54	-6.988034E-6	NaN
24	1.000000	0.778580	7.36528e+06	-39839.1	955.817	-29793	0.000000	0.000000	6.779042	0.054140	NaN	0.000000	0.001600	0.001651	28.0837	0.096270	0.002102	45.8065	-163.651	-166.061	-0.009729	0.777316	-0.305326	-0.306590	0.054140	45.8065	-0.306213	-5820.29	-9.301918E-6	NaN
24	1.000000	0.786609	7.36528e+06	-39839.1	955.818	-29793	0.000000	0.000000	6.787067	-0.029925	NaN	0.000000	0.001550	0.001689	28.0838	0.146662	0.002049	71.5641	-129.352	-165.867	0.002817	0.785263	-0.297298	-0.298644	-0.029925	71.5641	-0.296984	-4243.23	7.052318E-6	NaN
24	1.000000	0.794604	7.36528e+06	-39839.1	955.818	-29793	0.000000	0.000000	6.795064	0.004333	NaN	0.000000	0.001578	0.001699	28.0827	0.121499	0.002024	60.0335	131.417	-166.348	-0.074021	0.793275	-0.289303	-0.290631	0.004333	60.0335	-0.289357	-3263.33	-1.327746E-6	NaN
24	1.000000	0.802620	7.36528e+06	-39839.1	955.818	-29793	0.000000	0.000000	6.803080	0.022563	NaN	0.000000	0.001530	0.001701	28.0845	0.153008	0.001930	79.2588	-60.2373	-164.331	0.005974	0.801329	-0.281287	-0.282578	0.022563	79.2588	-0.281500	-2486.52	-9.074291E-6	NaN
24	1.000000	0.810636	7.36528e+06	-39839.1	955.819	-29793	0.000000	0.000000	6.811093	-0.052181	NaN	0.000000	0.001559	0.001694	28.0834	0.075421	0.002063	36.5551	152.674	-166.094	-0.052147	0.809272	-0.273271	-0.274634	-0.052181	36.5551	-0.272200	-1798.7	2.901032E-5	NaN
24	1.000000	0.818628	7.36528e+06	-39839.1	955.818	-29793	0.000000	0.000000	6.819088	0.004226	NaN	0.000000	0.001531	0.001729	28.0828	0.113617	0.001979	57.3984	-98.469	-170.027	0.005458	0.817255	-0.265278	-0.266652	0.004226	57.3984	-0.265334	-1414.1	-2.988271E-6	NaN
24	1.000000	0.826642	7.36528e+06	-39839.1	955.818	-29793	0.000000	0.000000	6.827103	0.036241	NaN	0.000000	0.001501	0.001708	28.0826	0.082210	0.002040	40.2919	153.945	-164.403	0.040512	0.825358	-0.257264	-0.258549	0.036241	40.2919	-0.257939	-1089.69	-3.325808E-5	NaN
24	1.000000	0.834625	7.36528e+06	-39839.1	955.819	-29793	0.000000	0.000000	6.835081	-0.071669	NaN	0.000000	0.001545	0.001663	28.0831	0.076679	0.001993	38.4713	136.797	-165.758	-0.044996	0.833353	-0.249282	-0.250554	-0.071669	38.4713	-0.247885	-762.462	9.399727E-5	NaN
24	1.000000	0.842632	7.36528e+06	-39839.1	955.818	-29793	0.000000	0.000000	6.843091	-0.002458	NaN	0.000000	0.001552	0.001700	28.0829	0.080322	0.002137	37.5945	-16.4996	-167.271	0.047432	0.841341	-0.241275	-0.242565	-0.002458	37.5945	-0.241226	-600.739	4.092407E-6	NaN
24	1.000000	0.850648	7.36528e+06	-39839.1	955.818	-29793	0.000000	0.000000	6.851107	-0.019721	NaN	0.000000	0.001557	0.001685	28.0841	0.046299	0.002082	22.2422	-152.126	-167.013	-0.029599	0.849303	-0.233258	-0.234604	-0.019721	22.2422	-0.232593	-439.952	4.482623E-5	NaN
24	1.000000	0.858633	7.36528e+06	-39839.1	955.818	-29793	0.000000	0.000000	6.859093	-0.001947	NaN	0.000000	0.001549	0.001742	28.0839	0.012029	0.001977	6.084239	-164.612	-163.97	-0.031640	0.857313	-0.225273	-0.226593	-0.001947	6.084239	-0.225033	-334.087	5.828021E-6	NaN
24	1.000000	0.866633	7.36528e+06	-39839.1	955.819	-29793	0.000000	0.000000	6.867091	-0.022064	NaN	0.000000	0.001550	0.001699	28.0846	0.092218	0.001979	46.604	-105.243	-166.521	-0.006046	0.865332	-0.217274	-0.218574	-0.022064	46.604	-0.216919	-247.936	8.899050E-5	NaN
24	1.000000	0.874631	7.36528e+06	-39839.1	955.818	-29793	0.000000	0.000000	6.875091	-0.005062	NaN	0.000000	0.001540	0.001675	28.0844	0.045841	0.001952	23.484	92.0548	-164.424	-0.012258	0.873355	-0.209275	-0.210551	-0.005062	23.484	-0.209114	-185.549	2.728160E-5	NaN
24	1.000000	0.882637	7.36528e+06	-39839.1	955.818	-29793	0.000000	0.000000	6.883100	0.072504	NaN	0.000000	0.001583	0.001666	28.0859	0.043725	0.001933	22.6155	75.2257	-166.156	0.080913	0.881375	-0.201269	-0.202532	0.072504	22.6155	-0.203674	-151.324	-0.000479	NaN
24	1.000000	0.890641	7.36528e+06	-39839.1	955.818	-29793	0.000000	0.000000	6.891102	0.043020	NaN	0.000000	0.001519	0.001699	28.0847	0.089787	0.001971	45.551	-27.6043	-166.924	0.026035	0.889331	-0.193266	-0.194576	0.043020	45.551	-0.193974	-104.759	-0.000411	NaN
24	1.000000	0.898642	7.36528e+06	-39839.1	955.819	-29793	0.000000	0.000000	6.899101	0.001541	NaN	0.000000	0.001512	0.001637	28.0851	0.138718	0.001979	70.0793	-11.9165	-167.733	-0.061250	0.897349	-0.185265	-0.186557	0.001541	70.0793	-0.185281	-74.9677	-2.056049E-5	NaN
24	1.000000	0.906681	7.36528e+06	-39839.1	955.819	-29793	0.000000	0.000000	6.907141	0.016760	NaN	0.000000	0.001539	0.001683	28.0846	0.051896	0.001867	27.8032	-157.458	-163.814	0.129285	0.905318	-0.177226	-0.178588	0.016760	27.8032	-0.177678	-55.7014	-0.000301	NaN
24	1.000000	0.914658	7.36528e+06	-39839.1	955.818	-29793	0.000000	0.000000	6.915117	0.005210	NaN	0.000000	0.001547	0.001706	28.0843	0.092885	0.001994	46.5804	-162.762	-165.618	0.023394	0.913357	-0.169249	-0.170550	0.005210	46.5804	-0.169333	-39.9963	-0.000130	NaN
24	1.000000	0.922637	7.36528e+06	-39839.1	955.819	-29793	0.000000	0.000000	6.923094	-0.078885	NaN	0.000000	0.001556	0.001696	28.0844	0.094602	0.001977	47.847	13.8107	-165.678	-0.103798	0.921363	-0.161269	-0.162544	-0.078885	47.847	-0.160033	-27.4517	0.002874	NaN
24	1.000000	0.930624	7.36528e+06	-39839.1	955.817	-29793	0.000000	0.000000	6.931084	0.010015	NaN	0.000000	0.001567	0.001701	28.0853	0.137831	0.002086	66.0896	-175.592	-165.345	0.039628	0.929323	-0.153283	-0.154584	0.010015	66.0896	-0.153396	-20.8767	-0.000480	NaN
24	1.000000	0.938636	7.36528e+06	-39839.1	955.818	-29793	0.000000	0.000000	6.939095	-0.006204	NaN	0.000000	0.001558	0.001688	28.0855	0.025773	0.002060	12.5109	-165.088	-167.527	-0.040364	0.937364	-0.145271	-0.146542	-0.006204	12.5109	-0.144899	-14.598	0.000425	NaN
24	1.000000	0.946673	7.36528e+06	-39839.1	955.818	-29793	0.000000	0.000000	6.947130	-0.053823	NaN	0.000000	0.001525	0.001655	28.0854	0.157954	0.002077	76.0558	-139.958	-166.267	-0.054594	0.945408	-0.137234	-0.138499	-0.053823	76.0558	-0.136703	-10.2496	0.005251	NaN
24	1.000000	0.954661	7.36528e+06	-39839.1	955.818	-29793	0.000000	0.000000	6.955120	-0.013251	NaN	0.000000	0.001555	0.001644	28.0859	0.034529	0.001893	18.2426	82.1762	-167.674	0.023116	0.953311	-0.129245	-0.130596	-0.013251	18.2426	-0.128700	-7.189642	0.001843	NaN
24	1.000000	0.962672	7.36528e+06	-39839.1	955.819	-29793	0.000000	0.000000	6.963130	-0.030093	NaN	0.000000	0.001555	0.001644	28.0865	0.046000	0.001966	23.4022	105.584	-167.264	-0.076660	0.961403	-0.121235	-0.122504	-0.030093	23.4022	-0.120270	-4.892539	0.006151	NaN
24	1.000000	0.970667	7.36528e+06	-39839.1	955.818	-29793	0.000000	0.000000	6.971126	-0.019491	NaN	0.000000	0.001519	0.001649	28.0849	0.086198	0.001980	43.5318	-101.203	-167.242	-0.039109	0.969367	-0.113239	-0.114539	-0.019491	43.5318	-0.112903	-3.456872	0.005638	NaN
24	1.000000	0.978681	7.36528e+06	-39839.1	955.819	-29793	0.000000	0.000000	6.979140	-0.021834	NaN	0.000000	0.001521	0.001657	28.0852	0.091304	0.002149	42.4953	-76.853	-163.887	0.014255	0.977390	-0.105225	-0.106517	-0.021834	42.4953	-0.104840	-2.331909	0.009363	NaN
24	1.000000	0.986701	7.36528e+06	-39839.1	955.818	-29793	0.000000	0.000000	6.987163	0.066766	NaN	0.000000	0.001523	0.001679	28.0842	0.102105	0.001937	52.7005	-2.703716	-164.883	-0.031367	0.985329	-0.097206	-0.098578	0.066766	52.7005	-0.098156	-1.662243	-0.040166	NaN
24	1.000000	0.994662	7.36528e+06	-39839.1	955.819	-29793	0.000000	0.000000	6.995115	-0.143532	NaN	0.000000	0.001531	0.001676	28.0842	0.126492	0.002029	62.3536	13.9092	-166.702	-0.077897	0.993355	-0.089245	-0.090551	-0.143532	62.3536	-0.087518	-0.944381	0.151986	NaN
24	1.000000	1.002679	7.36528e+06	-39839.1	955.818	-29793	0.000000	0.000000	7.003136	-0.068464	NaN	0.000000	0.001513	0.001664	28.0848	0.091966	0.002021	45.5153	89.7092	-167.687	-0.085485	1.001403	-0.081227	-0.082504	-0.068464	45.5153	-0.080099	-0.622534	0.109976	NaN
24	1.000000	1.010697	7.36528e+06	-39839.1	955.818	-29793	0.000000	0.000000	7.011157	0.013727	NaN	0.000000	0.001534	0.001648	28.0857	0.090404	0.002067	43.74	-122.325	-168.652	-0.005952	1.009386	-0.073210	-0.074521	0.013727	43.74	-0.073445	-0.420801	-0.032620	NaN
24	1.000000	1.018706	7.36528e+06	-39839.1	955.819	-29793	0.000000	0.000000	7.019164	-0.037389	NaN	0.000000	0.001526	0.001670	28.0853	0.075311	0.002049	36.7519	-41.3909	-164.461	-0.005643	1.017354	-0.065201	-0.066552	-0.037389	36.7519	-0.064438	-0.240406	0.155526	NaN
24	1.000000	1.026725	7.36528e+06	-39839.1	955.819	-29793	0.000000	0.000000	7.027182	-0.076966	NaN	0.000000	0.001526	0.001632	28.0838	0.107174	0.002071	51.7512	52.6185	-164.722	-0.083404	1.025384	-0.057181	-0.058522	-0.076966	51.7512	-0.056066	-0.138438	0.555961	NaN
24	1.000000	1.034684	7.36528e+06	-39839.1	955.818	-29793	0.000000	0.000000	7.035144	0.007122	NaN	0.000000	0.001553	0.001670	28.0855	0.092198	0.001942	47.479	43.2074	-167.124	-0.062420	1.033399	-0.049223	-0.050508	0.007122	47.479	-0.049335	-0.087118	-0.081754	NaN
24	1.000000	1.042723	7.36528e+06	-39839.1	955.817	-29793	0.000000	0.000000	7.043185	0.068953	NaN	0.000000	0.001545	0.001671	28.0842	0.114642	0.002009	57.0665	93.9397	-164.603	-0.059799	1.041365	-0.041184	-0.042542	0.068953	57.0665	-0.042090	-0.052362	-1.316864	NaN
24	1.000000	1.050731	7.36528e+06	-39839.1	955.818	-29793	0.000000	0.000000	7.051189	-0.046746	NaN	0.000000	0.001565	0.001688	28.0843	0.078224	0.002034	38.4538	60.3007	-165.974	-0.076454	1.049382	-0.033175	-0.034525	-0.046746	38.4538	-0.032264	-0.026665	1.753057	NaN
24	1.000000	1.058735	7.36528e+06	-39839.1	955.817	-29793	0.000000	0.000000	7.059193	-0.036404	NaN	0.000000	0.001499	0.001688	28.0835	0.101191	0.002005	50.4582	170.877	-167.756	-0.096855	1.057449	-0.025171	-0.026457	-0.036404	50.4582	-0.024630	-0.016500	2.206331	NaN
24	1.000000	1.066709	7.36528e+06	-39839.1	955.819	-29793	0.000000	0.000000	7.067170	0.040279	NaN	0.000000	0.001514	0.001692	28.0835	0.109184	0.002015	54.177	44.9265	-171.03	0.053910	1.065404	-0.017198	-0.018502	0.040279	54.177	-0.017755	-0.011000	-3.661589	NaN
24	1.000000	1.074724	7.36528e+06	-39839.1	955.818	-29793	0.000000	0.000000	7.075182	-0.041136	NaN	0.000000	0.001505	0.001686	28.0831	0.027704	0.001982	13.9785	-152.119	-165.437	0.032951	1.073388	-0.009182	-0.010519	-0.041136	13.9785	-0.006975	-0.004626	8.893031	NaN
24	1.000000	1.082691	7.36528e+06	-39839.1	955.818	-29793	0.000000	0.000000	7.083203	1.258953	NaN	0.000000	0.001487	0.001715	28.084	1.930464	0.001923	1003.99	4.403715	-168.2	0.517039	1.081441	-0.001215	-0.002465	1.258953	1003.99	-0.002156	-0.001547	-813.8	NaN
24	2.000000	1.088311	7.36528e+06	-39839.1	955.818	-29793	0.000000	0.000000	7.089240	11.4143	NaN	0.000000	0.001519	0.001671	28.0843	8.366021	0.001556	5375.58	4.569064	-172.956	11.5881	1.087984	0.004405	0.004077	11.4143	5375.58	0.002812	0.002222	5136.25	104183
24	2.000000	1.090270	7.36528e+06	-39839.1	955.819	-29793	0.000000	0.000000	7.091356	15.2385	NaN	0.000000	0.001509	0.001683	28.0837	9.986345	0.001761	5669.37	3.590287	-169.202	14.6217	1.089953	0.006363	0.006047	15.2385	5669.37	0.004347	0.003546	4297.97	86989.9
24	2.000000	1.092361	7.36528e+06	-39839.1	955.818	-29793	0.000000	0.000000	7.093607	19.1296	NaN	0.000000	0.001505	0.001669	28.0852	12.5562	0.001708	7350.94	7.882880	-174.097	19.3389	1.091931	0.008454	0.008024	19.1296	7350.94	0.006502	0.005547	3448.76	90176.8
24	2.000000	1.094273	7.36528e+06	-39839.1	955.817	-29793	0.000000	0.000000	7.095600	21.1186	NaN	0.000000	0.001535	0.001664	28.0838	13.5163	0.001820	7428.5	1.497071	-173.766	20.7383	1.093952	0.010366	0.010045	21.1186	7428.5	0.008234	0.007284	2899.3	79522.2
24	2.000000	1.096250	7.36528e+06	-39839.1	955.818	-29793	0.000000	0.000000	7.097626	22.2803	NaN	0.000000	0.001532	0.001673	28.085	13.9343	0.001937	7193.37	13.9391	-174.159	22.4988	1.095909	0.012344	0.012003	22.2803	7193.37	0.010021	0.009205	2420.52	68501.3
24	2.000000	1.098225	7.36528e+06	-39839.1	955.818	-29793	0.000000	0.000000	7.099637	23.1796	NaN	0.000000	0.001532	0.001682	28.0847	16.6013	0.001752	9477.46	14.2971	177.499	23.8475	1.097947	0.014319	0.014041	23.1796	9477.46	0.012484	0.012075	1919.59	78798.1
24	2.000000	1.100219	7.36528e+06	-39839.1	955.819	-29793	0.000000	0.000000	7.101837	28.1687	NaN	0.000000	0.001544	0.001662	28.0831	17.6694	0.001647	10730.4	0.585022	-175.827	26.6894	1.099868	0.016313	0.015962	28.1687	10730.4	0.014344	0.014421	1953.37	81639
24	2.000000	1.102273	7.36528e+06	-39839.1	955.819	-29793	0.000000	0.000000	7.103919	28.8752	NaN	0.000000	0.001563	0.001702	28.083	17.8543	0.001991	8965.31	12.8222	-178.379	27.3356	1.101849	0.018366	0.017942	28.8752	8965.31	0.015951	0.016574	1742.22	63624.9
24	2.000000	1.104259	7.36528e+06	-39839.1	955.818	-29793	0.000000	0.000000	7.105998	31.1309	NaN	0.000000	0.001542	0.001663	28.0845	20.8798	0.001897	11006.7	11.6993	179.734	30.9346	1.103941	0.020352	0.020035	31.1309	11006.7	0.018231	0.019838	1569.23	71396.7
24	2.000000	1.106302	7.36528e+06	-39839.1	955.818	-29793	0.000000	0.000000	7.107885	27.3295	NaN	0.000000	0.001573	0.001659	28.0858	19.8159	0.002122	9338.64	14.5235	179.46	29.9688	1.105966	0.022396	0.022060	27.3295	9338.64	0.020201	0.022859	1195.58	56432.6
24	2.000000	1.108205	7.36528e+06	-39839.1	955.819	-29793	0.000000	0.000000	7.109698	25.1264	NaN	0.000000	0.001539	0.001696	28.085	20.2874	0.001983	10231.6	4.356063	-176.233	23.5041	1.107927	0.024299	0.024021	25.1264	10231.6	0.022457	0.026551	946.332	57368.3
24	2.000000	1.110171	7.36528e+06	-39839.1	955.819	-29793	0.000000	0.000000	7.112173	37.5305	NaN	0.000000	0.001550	0.001670	28.0861	24.0747	0.001805	13335.8	4.007478	-177.074	36.7628	1.109910	0.026264	0.026004	37.5305	13335.8	0.024153	0.029494	1272.5	70946.3
24	2.000000	1.112249	7.36528e+06	-39839.1	955.818	-29793	0.000000	0.000000	7.114644	47.0964	NaN	0.000000	0.001560	0.001674	28.0876	26.6446	0.001691	15752.5	4.413625	-179.45	46.3323	1.111858	0.028343	0.027952	47.0964	15752.5	0.026101	0.033048	1425.08	79167.7
24	2.000000	1.114205	7.36528e+06	-39839.1	955.819	-29793	0.000000	0.000000	7.116684	49.1404	NaN	0.000000	0.001564	0.001696	28.087	27.6107	0.001718	16068.3	5.342316	-179.912	48.5557	1.113918	0.030299	0.030012	49.1404	16068.3	0.028005	0.036710	1338.6	76621.3
24	2.000000	1.116242	7.36528e+06	-39839.1	955.819	-29793	0.000000	0.000000	7.118700	48.634	NaN	0.000000	0.001550	0.001673	28.0869	31.0923	0.001799	17284.4	10.853	176.87	52.3997	1.115958	0.032335	0.032052	48.634	17284.4	0.030225	0.041211	1180.12	77789.7
24	2.000000	1.118133	7.36528e+06	-39839.1	955.818	-29793	0.000000	0.000000	7.121009	58.8114	NaN	0.000000	0.001582	0.001701	28.0853	32.4468	0.001787	18156.4	5.800403	177.8	55.2187	1.117929	0.034226	0.034022	58.8114	18156.4	0.031797	0.044551	1320.1	78591.8
24	2.000000	1.120232	7.36528e+06	-39839.1	955.819	-29793	0.000000	0.000000	7.123387	65.5839	NaN	0.000000	0.001594	0.001719	28.0846	33.179	0.001741	19059.8	0.550608	-177.146	67.6625	1.119943	0.036326	0.036037	65.5839	19059.8	0.033745	0.048864	1342.17	78776.6
24	2.000000	1.122294	7.36528e+06	-39839.1	955.819	-29793	0.000000	0.000000	7.125559	68.2665	NaN	0.000000	0.001506	0.001682	28.0859	36.0426	0.001860	19382.2	8.355447	176.439	70.3179	1.121884	0.038388	0.037978	68.2665	19382.2	0.035746	0.053497	1276.07	76561.3
24	2.000000	1.124168	7.36528e+06	-39839.1	955.819	-29793	0.000000	0.000000	7.127707	74.9342	NaN	0.000000	0.001540	0.001719	28.0854	38.3521	0.001798	21327.3	7.097763	175.523	72.9402	1.123837	0.040262	0.039931	74.9342	21327.3	0.037626	0.058038	1291.12	80882.2
24	2.000000	1.126205	7.36528e+06	-39839.1	955.819	-29793	0.000000	0.000000	7.129961	80.2272	NaN	0.000000	0.001585	0.001740	28.085	40.5365	0.001902	21309	6.885969	175.887	80.2796	1.125912	0.042298	0.042006	80.2272	21309	0.039475	0.062678	1279.99	77764.1
24	2.000000	1.128182	7.36528e+06	-39839.1	955.819	-29793	0.000000	0.000000	7.132391	91.2548	NaN	0.000000	0.001560	0.001728	28.0866	40.804	0.001769	23072.1	6.075026	175.534	91.5396	1.127818	0.044275	0.043911	91.2548	23072.1	0.041309	0.067455	1352.83	81162.3
24	2.000000	1.130173	7.36528e+06	-39839.1	955.819	-29793	0.000000	0.000000	7.133556	71.1535	NaN	0.000000	0.001566	0.001744	28.0863	40.7814	0.001914	21306	2.475843	178.909	69.8768	1.129856	0.046266	0.045950	71.1535	21306	0.043762	0.074110	960.102	71505
24	2.000000	1.132234	7.36528e+06	-39839.1	955.819	-29793	0.000000	0.000000	7.136219	85.7719	NaN	0.000000	0.001514	0.001716	28.0864	44.7758	0.001931	23189.4	11.0391	173.099	88.2952	1.131819	0.048328	0.047912	85.7719	23189.4	0.045554	0.079167	1083.43	75299.4
24	2.000000	1.134102	7.36528e+06	-39839.1	955.819	-29793	0.000000	0.000000	7.138464	94.9449	NaN	0.000000	0.001563	0.001736	28.0858	45.7844	0.001863	24573.4	3.289979	179.68	90.1294	1.133790	0.050196	0.049884	94.9449	24573.4	0.047298	0.084245	1127.01	77351
24	2.000000	1.136122	7.36528e+06	-39839.1	955.819	-29793	0.000000	0.000000	7.141236	113.27	NaN	0.000000	0.001558	0.001741	28.0863	48.5315	0.001819	26684.9	7.058973	173.642	110.522	1.135742	0.052215	0.051836	113.27	26684.9	0.049032	0.089444	1266.38	81519.8
24	2.000000	1.138172	7.36528e+06	-39839.1	955.818	-29793	0.000000	0.000000	7.143715	123.691	NaN	0.000000	0.001556	0.001749	28.0846	49.1532	0.001731	28396.9	7.978356	172.88	122.882	1.137780	0.054266	0.053873	123.691	28396.9	0.050999	0.095526	1294.84	83942.6
24	2.000000	1.140208	7.36528e+06	-39839.1	955.819	-29793	0.000000	0.000000	7.145896	127.234	NaN	0.000000	0.001559	0.001704	28.0842	51.3524	0.001706	30100.6	5.124745	173.966	127.633	1.139945	0.056301	0.056039	127.234	30100.6	0.053131	0.102336	1243.29	85967.4
24	2.000000	1.142238	7.36528e+06	-39839.1	955.82	-29793	0.000000	0.000000	7.148307	136.493	NaN	0.000000	0.001578	0.001727	28.0837	54.945	0.001829	30035.2	10.3436	169.577	138.841	1.141907	0.058331	0.058001	136.493	30035.2	0.054923	0.108235	1261.07	83410.1
24	2.000000	1.144097	7.36528e+06	-39839.1	955.819	-29793	0.000000	0.000000	7.150490	144.374	NaN	0.000000	0.001587	0.001741	28.0841	55.1625	0.001784	30912	2.827418	176.084	141.248	1.143936	0.060191	0.060029	144.374	30912	0.056688	0.114200	1264.22	83573.1
24	2.000000	1.146118	7.36528e+06	-39839.1	955.819	-29793	0.000000	0.000000	7.153142	159.759	NaN	0.000000	0.001582	0.001787	28.0835	58.1993	0.001724	33757.1	3.624509	174.72	156.938	1.145793	0.062211	0.061887	159.759	33757.1	0.058662	0.121053	1319.74	88644.3
24	2.000000	1.148103	7.36528e+06	-39839.1	955.818	-29793	0.000000	0.000000	7.155514	169.155	NaN	0.000000	0.001640	0.001755	28.0845	60.0044	0.001838	32653.1	8.385936	171.171	167.124	1.147825	0.064196	0.063919	169.155	32653.1	0.060311	0.126926	1332.71	83738.1
24	2.000000	1.150076	7.36528e+06	-39839.1	955.819	-29793	0.000000	0.000000	7.157757	175.725	NaN	0.000000	0.001666	0.001770	28.085	61.8847	0.001837	33688	2.748626	176.746	171.893	1.149707	0.066169	0.065801	175.725	33688	0.062257	0.134025	1311.13	84072.8
24	2.000000	1.152119	7.36528e+06	-39839.1	955.819	-29793	0.000000	0.000000	7.160321	188.419	NaN	0.000000	0.001649	0.001744	28.085	64.6011	0.001688	38267.7	5.706431	171.298	184.341	1.151813	0.068212	0.067907	188.419	38267.7	0.064519	0.142511	1322.13	92615.1
24	2.000000	1.154199	7.36528e+06	-39839.1	955.819	-29793	0.000000	0.000000	7.162912	200.846	NaN	0.000000	0.001677	0.001765	28.0849	65.6125	0.001787	36720.1	3.369077	174.949	204.266	1.153924	0.070292	0.070018	200.846	36720.1	0.066190	0.148936	1348.54	86931.6
24	2.000000	1.156159	7.36528e+06	-39839.1	955.819	-29793	0.000000	0.000000	7.165191	208.612	NaN	0.000000	0.001659	0.001710	28.085	69.0232	0.001776	38854.5	4.683999	172.394	210.768	1.155838	0.072252	0.071932	208.612	38854.5	0.068225	0.156944	1329.22	89607.1
24	2.000000	1.158096	7.36528e+06	-39839.1	955.819	-29793	0.000000	0.000000	7.167841	225.951	NaN	0.000000	0.001617	0.001754	28.0843	69.7916	0.001772	39394.7	6.729574	170.885	223.369	1.157884	0.074189	0.073978	225.951	39394.7	0.069888	0.163631	1380.86	88977.1
24	2.000000	1.160133	7.36528e+06	-39839.1	955.819	-29793	0.000000	0.000000	7.170252	235.054	NaN	0.000000	0.001620	0.001710	28.0841	73.0442	0.001783	40970.3	3.532027	172.48	234.447	1.159906	0.076227	0.076000	235.054	40970.3	0.071924	0.172002	1366.57	90255.9
24	2.000000	1.162067	7.36528e+06	-39839.1	955.819	-29793	0.000000	0.000000	7.173157	258.672	NaN	0.000000	0.001619	0.001707	28.0836	74.1677	0.001784	41567.4	2.815382	174.696	252.581	1.161728	0.078161	0.077821	258.672	41567.4	0.073493	0.178588	1448.42	89866.9
24	2.000000	1.164199	7.36528e+06	-39839.1	955.82	-29793	0.000000	0.000000	7.175829	271.833	NaN	0.000000	0.001608	0.001752	28.084	76.4129	0.001764	43328.4	7.746346	169.866	274.168	1.163719	0.080292	0.079812	271.833	43328.4	0.075587	0.187555	1449.35	91407.3
24	2.000000	1.166063	7.36528e+06	-39839.1	955.82	-29793	0.000000	0.000000	7.177969	278.558	NaN	0.000000	0.001610	0.001696	28.0828	79.1997	0.001677	47231	6.485184	169.762	273.762	1.165882	0.082156	0.081975	278.558	47231	0.077733	0.196958	1414.3	97232.8
24	2.000000	1.167993	7.36528e+06	-39839.1	955.819	-29793	0.000000	0.000000	7.180735	298.881	NaN	0.000000	0.001632	0.001719	28.0869	79.1618	0.001757	45044.5	1.363372	175.028	291.546	1.167750	0.084086	0.083843	298.881	45044.5	0.079110	0.203107	1471.54	91317.1
24	2.000000	1.170217	7.36528e+06	-39839.1	955.818	-29793	0.000000	0.000000	7.183555	313.402	NaN	0.000000	0.001637	0.001693	28.0851	82.4807	0.001742	47345.1	3.514491	171.911	317.573	1.169798	0.086310	0.085891	313.402	47345.1	0.081346	0.213278	1469.46	93664.5
24	2.000000	1.172078	7.36528e+06	-39839.1	955.819	-29793	0.000000	0.000000	7.186476	339.159	NaN	0.000000	0.001614	0.001720	28.0861	84.6838	0.001779	47610	7.760644	168.978	333.53	1.171766	0.088172	0.087860	339.159	47610	0.082829	0.220155	1540.55	92705.8
24	2.000000	1.174094	7.36528e+06	-39839.1	955.819	-29793	0.000000	0.000000	7.188712	344.549	NaN	0.000000	0.001576	0.001662	28.0872	85.7127	0.001741	49218.6	8.697802	169.361	342.054	1.173870	0.090187	0.089964	344.549	49218.6	0.084937	0.230102	1497.38	93743.9
24	2.000000	1.176125	7.36528e+06	-39839.1	955.819	-29793	0.000000	0.000000	7.191360	359.54	NaN	0.000000	0.001594	0.001708	28.0868	93.0333	0.001763	52781.6	11.243	164.6	357.544	1.175986	0.092219	0.092080	359.54	52781.6	0.087110	0.240570	1494.54	98318.5
24	2.000000	1.177991	7.36528e+06	-39839.1	955.82	-29793	0.000000	0.000000	7.194378	387.57	NaN	0.000000	0.001515	0.001678	28.0857	91.6864	0.001788	51289.8	3.267181	171.884	380.936	1.177891	0.094085	0.093985	387.57	51289.8	0.088417	0.246973	1569.28	94293
24	2.000000	1.179991	7.36528e+06	-39839.1	955.82	-29793	0.000000	0.000000	7.197420	412.924	NaN	0.000000	0.001559	0.001687	28.0852	91.943	0.001751	52504.5	1.425371	173.649	405.276	1.179661	0.096085	0.095754	412.924	52504.5	0.090186	0.255761	1614.49	94853.2
24	2.000000	1.182089	7.36528e+06	-39839.1	955.82	-29793	0.000000	0.000000	7.199809	420.008	NaN	0.000000	0.001558	0.001680	28.0849	95.803	0.001891	50656.3	2.643653	173.489	415.811	1.181961	0.098183	0.098054	420.008	50656.3	0.091964	0.264741	1586.49	89949.1
24	2.000000	1.184179	7.36528e+06	-39839.1	955.819	-29793	0.000000	0.000000	7.203071	448.531	NaN	0.000000	0.001540	0.001682	28.085	97.0947	0.001717	56560.2	4.575591	170.598	450.834	1.183758	0.100273	0.099851	448.531	56560.2	0.094325	0.276885	1619.92	98205.1
24	2.000000	1.186030	7.36528e+06	-39839.1	955.818	-29793	0.000000	0.000000	7.205461	461.659	NaN	0.000000	0.001515	0.001670	28.086	101.13	0.001627	62160.4	6.364124	168.258	458.321	1.185871	0.102124	0.101965	461.659	62160.4	0.096554	0.288583	1599.74	105719