File: remote_trans/data/nanoindenter/0828-1/data/Data_2025-08-06,11h17m57s/2025-07-22_16-23-58_1_644.txt
2025-07-22, 16:23:58, 1
Index	Phase	Displacement	Time	Pos X	Pos Y	Pos Z	Rot A	Rot B	Piezo Z	Force A	Force B	Gripper	Voltage A	Voltage B	Temperature	Amplitude force	Amplitude pos	Stiffness	Phase shift	Phase excitation	Force A raw	Displacement raw	HMax	HMax raw	Real Force	Real Stiffness	Contact Depth	Area	Hardness	Reduced Mod.
[#]	[#]	[um]	[s]	[um]	[um]	[um]	[m°]	[m°]	[um]	[uN]	[uN]	[V]	[V]	[V]	[°C]	[uN]	[um]	[N/m]	[°]	[°]	[uN]	[um]	[um]	[um]	[uN]	[N/m]	[um]	[um^2]	[MPa]	[MPa]
644	1.000000	0.002742	7.37135e+06	-44889.1	1005.82	-29774.3	0.000000	0.000000	6.002801	0.014616	NaN	0.000000	0.001582	0.001781	28.0841	0.142849	0.001055	135.389	-63.3612	-162.483	-0.006703	0.001507	-1.154542	-1.155777	0.014616	135.389	-1.154623	-2.708876E+15	-5.395597E-18	NaN
644	1.000000	0.012816	7.37135e+06	-44889.1	1005.82	-29774.3	0.000000	0.000000	6.012872	-0.042388	NaN	0.000000	0.001530	0.001779	28.0848	0.110772	0.001218	90.9566	-57.2832	18.3868	-0.035167	0.011365	-1.144468	-1.145918	-0.042388	90.9566	-1.144119	-1.958681E+15	2.164128E-17	NaN
644	1.000000	0.022688	7.37135e+06	-44889.1	1005.82	-29774.3	0.000000	0.000000	6.022743	-0.074902	NaN	0.000000	0.001570	0.001775	28.0839	0.010575	0.001715	6.166981	36.548	-166.019	0.009034	0.021390	-1.134595	-1.135894	-0.074902	6.166981	-1.125486	-1.101728E+15	6.798607E-17	NaN
644	1.000000	0.032687	7.37135e+06	-44889.1	1005.82	-29774.3	0.000000	0.000000	6.032745	0.008811	NaN	0.000000	0.001548	0.001764	28.0839	0.092982	0.001926	48.2723	-142.668	13.3046	-0.052724	0.031383	-1.124597	-1.125901	0.008811	48.2723	-1.124734	-1.076407E+15	-8.185403E-18	NaN
644	1.000000	0.042693	7.37135e+06	-44889.1	1005.82	-29774.3	0.000000	0.000000	6.042749	-0.046005	NaN	0.000000	0.001545	0.001724	28.0839	0.043737	0.002036	21.4856	144.518	-165.442	0.008594	0.041408	-1.114591	-1.115876	-0.046005	21.4856	-1.112985	-7.487622E+14	6.144140E-17	NaN
644	1.000000	0.052708	7.37135e+06	-44889.1	1005.82	-29774.3	0.000000	0.000000	6.052764	-0.039083	NaN	0.000000	0.001596	0.001751	28.0842	0.034880	0.001973	17.6812	-177.491	15.633	-0.110660	0.051348	-1.104576	-1.105936	-0.039083	17.6812	-1.102918	-5.485757E+14	7.124418E-17	NaN
644	1.000000	0.062681	7.37135e+06	-44889.1	1005.82	-29774.3	0.000000	0.000000	6.062739	-0.005815	NaN	0.000000	0.001552	0.001762	28.0838	0.101691	0.001920	52.954	-132.859	-164.489	0.016628	0.061414	-1.094603	-1.095869	-0.005815	52.954	-1.094520	-4.231597E+14	1.374146E-17	NaN
644	1.000000	0.072675	7.37135e+06	-44889.1	1005.82	-29774.3	0.000000	0.000000	6.072728	-0.121136	NaN	0.000000	0.001524	0.001755	28.0828	0.039952	0.002003	19.9465	168.62	13.9204	-0.104274	0.071304	-1.084608	-1.085980	-0.121136	19.9465	-1.080054	-2.705449E+14	4.477476E-16	NaN
644	1.000000	0.082697	7.37135e+06	-44889.1	1005.82	-29774.3	0.000000	0.000000	6.082751	-0.098191	NaN	0.000000	0.001569	0.001704	28.0829	0.091915	0.001996	46.0531	76.5334	-164.523	-0.045892	0.081424	-1.074587	-1.075859	-0.098191	46.0531	-1.072988	-2.174332E+14	4.515895E-16	NaN
644	1.000000	0.092703	7.37135e+06	-44889.1	1005.82	-29774.3	0.000000	0.000000	6.092759	-0.047587	NaN	0.000000	0.001552	0.001748	28.0827	0.054150	0.001964	27.5673	46.1728	12.1836	-0.008188	0.091371	-1.064580	-1.065913	-0.047587	27.5673	-1.063286	-1.610550E+14	2.954686E-16	NaN
644	1.000000	0.102724	7.37135e+06	-44889.1	1005.82	-29774.3	0.000000	0.000000	6.102781	-0.029534	NaN	0.000000	0.001593	0.001725	28.0824	0.084026	0.001910	43.9882	-90.2682	-166.188	0.023972	0.101395	-1.054559	-1.055888	-0.029534	43.9882	-1.054056	-1.210402E+14	2.440055E-16	NaN
644	1.000000	0.112715	7.37135e+06	-44889.1	1005.82	-29774.3	0.000000	0.000000	6.112772	-0.050960	NaN	0.000000	0.001614	0.001756	28.0827	0.072001	0.001950	36.9301	-18.5059	11.4019	-0.112698	0.111324	-1.044568	-1.045959	-0.050960	36.9301	-1.043533	-8.739259E+13	5.831148E-16	NaN
644	1.000000	0.122688	7.37135e+06	-44889.1	1005.82	-29774.3	0.000000	0.000000	6.122746	-0.020315	NaN	0.000000	0.001615	0.001763	28.0829	0.103812	0.001994	52.0553	-27.6164	-164.063	-0.015718	0.121441	-1.034595	-1.035843	-0.020315	52.0553	-1.034303	-6.566756E+13	3.093621E-16	NaN
644	1.000000	0.132734	7.37135e+06	-44889.1	1005.82	-29774.3	0.000000	0.000000	6.132791	-0.013346	NaN	0.000000	0.001599	0.001771	28.0828	0.132477	0.002038	65.006	65.9941	12.5558	-0.082336	0.131356	-1.024550	-1.025928	-0.013346	65.006	-1.024396	-4.831641E+13	2.762237E-16	NaN
644	1.000000	0.142726	7.37135e+06	-44889.1	1005.82	-29774.3	0.000000	0.000000	6.142783	-0.020670	NaN	0.000000	0.001582	0.001746	28.0827	0.095211	0.002033	46.8323	-119.569	-166.479	-0.114034	0.141398	-1.014558	-1.015886	-0.020670	46.8323	-1.014227	-3.525898E+13	5.862420E-16	NaN
644	1.000000	0.152727	7.37135e+06	-44889.1	1005.82	-29774.3	0.000000	0.000000	6.152785	0.008544	NaN	0.000000	0.001602	0.001753	28.0828	0.025496	0.002031	12.5542	76.263	16.4827	0.025221	0.151357	-1.004557	-1.005927	0.008544	12.5542	-1.005067	-2.654512E+13	-3.218811E-16	NaN
644	1.000000	0.162709	7.37135e+06	-44889.1	1005.82	-29774.3	0.000000	0.000000	6.162766	-0.018367	NaN	0.000000	0.001647	0.001741	28.0828	0.119172	0.002054	58.0199	110.932	-166.012	-0.118835	0.161422	-0.994575	-0.995861	-0.018367	58.0199	-0.994337	-1.903366E+13	9.649590E-16	NaN
644	1.000000	0.172763	7.37135e+06	-44889.1	1005.82	-29774.3	0.000000	0.000000	6.172822	0.007119	NaN	0.000000	0.001634	0.001768	28.0827	0.068668	0.001999	34.3532	85.3767	13.6903	-0.108355	0.171407	-0.984520	-0.985877	0.007119	34.3532	-0.984675	-1.410573E+13	-5.046835E-16	NaN
644	1.000000	0.182715	7.37135e+06	-44889.1	1005.82	-29774.3	0.000000	0.000000	6.182771	-0.070277	NaN	0.000000	0.001577	0.001762	28.0825	0.045089	0.002080	21.6755	-48.1286	-166.101	-0.044142	0.181455	-0.974568	-0.975829	-0.070277	21.6755	-0.972137	-9.559980E+12	7.351140E-15	NaN
644	1.000000	0.192742	7.37135e+06	-44889.1	1005.82	-29774.3	0.000000	0.000000	6.192799	-0.040328	NaN	0.000000	0.001628	0.001740	28.0829	0.121099	0.001952	62.0341	-8.662600	12.8513	-0.032794	0.191461	-0.964541	-0.965822	-0.040328	62.0341	-0.964054	-7.439025E+12	5.421074E-15	NaN
644	1.000000	0.202777	7.37135e+06	-44889.1	1005.82	-29774.3	0.000000	0.000000	6.202832	-0.082957	NaN	0.000000	0.001584	0.001741	28.084	0.047796	0.002092	22.8509	170.325	-164.255	-0.003367	0.201449	-0.954506	-0.955834	-0.082957	22.8509	-0.951783	-5.082518E+12	1.632198E-14	NaN
644	1.000000	0.212782	7.37135e+06	-44889.1	1005.82	-29774.3	0.000000	0.000000	6.212840	-0.024134	NaN	0.000000	0.001615	0.001730	28.0839	0.094042	0.001997	47.0843	-108.69	16.0558	-0.016872	0.211433	-0.944501	-0.945850	-0.024134	47.0843	-0.944117	-4.005652E+12	6.024969E-15	NaN
644	1.000000	0.222777	7.37135e+06	-44889.1	1005.82	-29774.3	0.000000	0.000000	6.222833	-0.053794	NaN	0.000000	0.001579	0.001717	28.084	0.015905	0.002143	7.420234	152.429	-164.539	-0.039293	0.221479	-0.934507	-0.935804	-0.053794	7.420234	-0.929069	-2.509794E+12	2.143383E-14	NaN
644	1.000000	0.232772	7.37135e+06	-44889.1	1005.82	-29774.3	0.000000	0.000000	6.232826	-0.106051	NaN	0.000000	0.001535	0.001711	28.0839	0.043753	0.001997	21.9119	-111.131	13.5662	-0.068717	0.231408	-0.924512	-0.925876	-0.106051	21.9119	-0.920882	-1.945870E+12	5.450051E-14	NaN
644	1.000000	0.242741	7.37135e+06	-44889.1	1005.82	-29774.3	0.000000	0.000000	6.242797	-0.056274	NaN	0.000000	0.001602	0.001697	28.0835	0.103058	0.002001	51.4937	81.232	-166.173	0.027107	0.241446	-0.914543	-0.915837	-0.056274	51.4937	-0.913723	-1.557576E+12	3.612926E-14	NaN
644	1.000000	0.252794	7.37135e+06	-44889.1	1005.82	-29774.3	0.000000	0.000000	6.252851	-0.013299	NaN	0.000000	0.001604	0.001741	28.0835	0.044339	0.001973	22.4705	172.042	12.9211	-0.106334	0.251399	-0.904490	-0.905884	-0.013299	22.4705	-0.904046	-1.152738E+12	1.153665E-14	NaN
644	1.000000	0.262768	7.37135e+06	-44889.1	1005.82	-29774.3	0.000000	0.000000	6.262826	-0.011557	NaN	0.000000	0.001571	0.001760	28.0834	0.011878	0.002031	5.847851	80.2204	-168.408	-0.043903	0.261415	-0.894516	-0.895868	-0.011557	5.847851	-0.893033	-8.183072E+11	1.412353E-14	NaN
644	1.000000	0.272771	7.37135e+06	-44889.1	1005.82	-29774.3	0.000000	0.000000	6.272827	-0.054281	NaN	0.000000	0.001581	0.001712	28.0837	0.077282	0.001828	42.272	-142.274	12.0823	-0.034897	0.271483	-0.884512	-0.885801	-0.054281	42.272	-0.883549	-6.091214E+11	8.911367E-14	NaN
644	1.000000	0.282788	7.37135e+06	-44889.1	1005.82	-29774.3	0.000000	0.000000	6.282847	0.002788	NaN	0.000000	0.001580	0.001756	28.0837	0.051959	0.002130	24.3984	-166.995	-167.646	0.030868	0.281531	-0.874495	-0.875752	0.002788	24.3984	-0.874581	-4.606943E+11	-6.052815E-15	NaN
644	1.000000	0.292777	7.37135e+06	-44889.1	1005.82	-29774.3	0.000000	0.000000	6.292829	-0.143757	NaN	0.000000	0.001593	0.001776	28.0838	0.078807	0.002079	37.9138	-5.507502	13.1707	-0.093075	0.291407	-0.864507	-0.865876	-0.143757	37.9138	-0.861663	-3.080565E+11	4.666576E-13	NaN
644	1.000000	0.302766	7.37135e+06	-44889.1	1005.82	-29774.3	0.000000	0.000000	6.302827	0.064932	NaN	0.000000	0.001559	0.001770	28.0838	0.062120	0.002103	29.5439	14.7612	-166.773	0.051063	0.301466	-0.854517	-0.855817	0.064932	29.5439	-0.856165	-2.595461E+11	-2.501758E-13	NaN
644	1.000000	0.312781	7.37135e+06	-44889.1	1005.82	-29774.3	0.000000	0.000000	6.312838	-0.019211	NaN	0.000000	0.001612	0.001804	28.0838	0.073053	0.001922	38.0092	-168.336	12.0626	-0.067800	0.311427	-0.844503	-0.845856	-0.019211	38.0092	-0.844124	-1.783003E+11	1.077456E-13	NaN
644	1.000000	0.322786	7.37135e+06	-44889.1	1005.82	-29774.3	0.000000	0.000000	6.322843	-0.017496	NaN	0.000000	0.001631	0.001743	28.0836	0.092748	0.002058	45.0696	-40.1269	-168.065	-0.030732	0.321512	-0.834498	-0.835772	-0.017496	45.0696	-0.834206	-1.308558E+11	1.337079E-13	NaN
644	1.000000	0.332823	7.37135e+06	-44889.1	1005.82	-29774.3	0.000000	0.000000	6.332878	-0.086297	NaN	0.000000	0.001615	0.001804	28.0838	0.104317	0.001936	53.8746	96.2124	11.4054	-0.005388	0.331470	-0.824460	-0.825814	-0.086297	53.8746	-0.823259	-9.298281E+10	9.280977E-13	NaN
644	1.000000	0.342828	7.37135e+06	-44889.1	1005.82	-29774.3	0.000000	0.000000	6.342882	-0.087030	NaN	0.000000	0.001601	0.001767	28.0828	0.066708	0.001885	35.3793	-98.9319	-167.706	0.010055	0.341501	-0.814456	-0.815783	-0.087030	35.3793	-0.812611	-6.667962E+10	1.305198E-12	NaN
644	1.000000	0.352799	7.37135e+06	-44889.1	1005.82	-29774.3	0.000000	0.000000	6.352853	-0.088438	NaN	0.000000	0.001621	0.001749	28.0827	0.073039	0.001899	38.4706	95.8995	15.2017	-0.075131	0.351477	-0.804485	-0.805807	-0.088438	38.4706	-0.802761	-4.901581E+10	1.804267E-12	NaN
644	1.000000	0.362806	7.37135e+06	-44889.1	1005.82	-29774.3	0.000000	0.000000	6.362861	-0.078024	NaN	0.000000	0.001614	0.001768	28.0828	0.058558	0.002034	28.7884	-20.218	-166.827	-0.075864	0.361533	-0.794478	-0.795751	-0.078024	28.7884	-0.792445	-3.550482E+10	2.197572E-12	NaN
644	1.000000	0.372831	7.37135e+06	-44889.1	1005.82	-29774.3	0.000000	0.000000	6.372887	-0.074256	NaN	0.000000	0.001621	0.001754	28.0829	0.038188	0.002068	18.4695	105.69	13.6018	-0.112329	0.371433	-0.784452	-0.785850	-0.074256	18.4695	-0.781437	-2.516257E+10	2.951062E-12	NaN
644	1.000000	0.382829	7.37135e+06	-44889.1	1005.82	-29774.3	0.000000	0.000000	6.382887	0.012667	NaN	0.000000	0.001641	0.001746	28.0828	0.062227	0.001897	32.8034	106.424	-167.047	0.034686	0.381512	-0.774455	-0.775772	0.012667	32.8034	-0.774745	-2.040828E+10	-6.206992E-13	NaN
644	1.000000	0.392851	7.37135e+06	-44889.1	1005.82	-29774.3	0.000000	0.000000	6.392908	-0.026503	NaN	0.000000	0.001577	0.001747	28.0825	0.084800	0.001995	42.5091	-162.368	12.4807	-0.014407	0.391475	-0.764432	-0.765808	-0.026503	42.5091	-0.763965	-1.456233E+10	1.819993E-12	NaN
644	1.000000	0.402861	7.37135e+06	-44889.1	1005.82	-29774.3	0.000000	0.000000	6.402919	-4.459267E-5	NaN	0.000000	0.001614	0.001730	28.0827	0.077770	0.002025	38.4018	-44.63	-165.73	-0.019094	0.401502	-0.754423	-0.755781	-4.459267E-5	38.4018	-0.754422	-1.079960E+10	4.129105E-15	NaN
644	1.000000	0.412820	7.37135e+06	-44889.1	1005.82	-29774.3	0.000000	0.000000	6.412872	-0.135206	NaN	0.000000	0.001580	0.001720	28.0826	0.133070	0.002018	65.9361	146.635	15.4291	-0.131207	0.411453	-0.744464	-0.745830	-0.135206	65.9361	-0.742926	-7.531939E+9	1.795098E-11	NaN
644	1.000000	0.422860	7.37135e+06	-44889.1	1005.82	-29774.3	0.000000	0.000000	6.422915	-0.076730	NaN	0.000000	0.001583	0.001721	28.0827	0.081570	0.001873	43.5503	-168.202	-167.396	-0.048424	0.421566	-0.734424	-0.735717	-0.076730	43.5503	-0.733102	-5.534607E+9	1.386367E-11	NaN
644	1.000000	0.432874	7.37135e+06	-44889.1	1005.82	-29774.3	0.000000	0.000000	6.432928	-0.094740	NaN	0.000000	0.001586	0.001758	28.0825	0.028255	0.001862	15.1711	27.2005	13.0991	-0.053726	0.431530	-0.724410	-0.725754	-0.094740	15.1711	-0.719726	-3.636976E+9	2.604924E-11	NaN
644	1.000000	0.442849	7.37135e+06	-44889.1	1005.82	-29774.3	0.000000	0.000000	6.442903	-0.110823	NaN	0.000000	0.001559	0.001740	28.0827	0.050936	0.002004	25.4189	102.752	-164.198	-0.155845	0.441498	-0.714434	-0.715786	-0.110823	25.4189	-0.711164	-2.779308E+9	3.987447E-11	NaN
644	1.000000	0.452863	7.37135e+06	-44889.1	1005.82	-29774.3	0.000000	0.000000	6.452920	-0.032019	NaN	0.000000	0.001549	0.001735	28.0827	0.097061	0.002016	48.1506	-64.9565	15.5051	-0.093625	0.451543	-0.704420	-0.705741	-0.032019	48.1506	-0.703921	-2.213488E+9	1.446536E-11	NaN
644	1.000000	0.462858	7.37135e+06	-44889.1	1005.82	-29774.3	0.000000	0.000000	6.462916	0.006377	NaN	0.000000	0.001583	0.001743	28.0827	0.079319	0.001892	41.9261	155.922	-166.261	-0.010614	0.461539	-0.694426	-0.695745	0.006377	41.9261	-0.694540	-1.647974E+9	-3.869429E-12	NaN
644	1.000000	0.472856	7.37135e+06	-44889.1	1005.82	-29774.3	0.000000	0.000000	6.472914	0.005437	NaN	0.000000	0.001565	0.001740	28.0835	0.016128	0.001995	8.083319	61.3781	15.9405	0.008523	0.471526	-0.684428	-0.685757	0.005437	8.083319	-0.684932	-1.218011E+9	-4.463959E-12	NaN
644	1.000000	0.482897	7.37135e+06	-44889.1	1005.82	-29774.3	0.000000	0.000000	6.482955	-0.001358	NaN	0.000000	0.001569	0.001739	28.0843	0.067572	0.002017	33.494	-56.1807	-165.764	0.052198	0.481507	-0.674387	-0.675777	-0.001358	33.494	-0.674356	-8.729848E+8	1.555572E-12	NaN
644	1.000000	0.492901	7.37135e+06	-44889.1	1005.82	-29774.3	0.000000	0.000000	6.492958	-0.032146	NaN	0.000000	0.001583	0.001753	28.0842	0.155488	0.002102	73.9694	-162.348	14.8775	-0.019387	0.491509	-0.664383	-0.665775	-0.032146	73.9694	-0.664057	-6.309953E+8	5.094430E-11	NaN
644	1.000000	0.502916	7.37135e+06	-44889.1	1005.82	-29774.3	0.000000	0.000000	6.502974	-0.004647	NaN	0.000000	0.001581	0.001725	28.0847	0.054261	0.001968	27.5762	-26.7554	-164.883	0.018506	0.501584	-0.654368	-0.655699	-0.004647	27.5762	-0.654241	-4.629885E+8	1.003689E-11	NaN
644	1.000000	0.512877	7.37135e+06	-44889.1	1005.82	-29774.3	0.000000	0.000000	6.512934	-0.030509	NaN	0.000000	0.001541	0.001726	28.0841	0.123747	0.002052	60.3049	-127.536	14.8129	-0.091713	0.511442	-0.644407	-0.645842	-0.030509	60.3049	-0.644027	-3.353783E+8	9.096873E-11	NaN
644	1.000000	0.522877	7.37135e+06	-44889.1	1005.82	-29774.3	0.000000	0.000000	6.522932	-0.072946	NaN	0.000000	0.001574	0.001731	28.0844	0.056086	0.002041	27.4825	104.927	-165.744	-0.113817	0.521639	-0.634407	-0.635645	-0.072946	27.4825	-0.632416	-2.323800E+8	3.139078E-10	NaN
644	1.000000	0.532900	7.37135e+06	-44889.1	1005.82	-29774.3	0.000000	0.000000	6.532956	-0.056879	NaN	0.000000	0.001599	0.001715	28.0842	0.037452	0.001960	19.1035	158.074	16.7655	-0.065799	0.531496	-0.624383	-0.625788	-0.056879	19.1035	-0.622150	-1.679513E+8	3.386631E-10	NaN
644	1.000000	0.542890	7.37135e+06	-44889.1	1005.82	-29774.3	0.000000	0.000000	6.542946	-0.047458	NaN	0.000000	0.001590	0.001736	28.0842	0.064682	0.001904	33.9669	-84.8736	-166.769	-0.016272	0.541540	-0.614393	-0.615743	-0.047458	33.9669	-0.613346	-1.270972E+8	3.734024E-10	NaN
644	1.000000	0.552905	7.37135e+06	-44889.1	1005.82	-29774.3	0.000000	0.000000	6.552963	-0.013397	NaN	0.000000	0.001559	0.001704	28.0841	0.174073	0.002110	82.5015	-52.184	12.128	-0.030442	0.551573	-0.604378	-0.605711	-0.013397	82.5015	-0.604257	-9.529524E+7	1.405804E-10	NaN
644	1.000000	0.562927	7.37135e+06	-44889.1	1005.82	-29774.3	0.000000	0.000000	6.562981	-0.092596	NaN	0.000000	0.001608	0.001707	28.0843	0.111836	0.001917	58.3302	96.8745	-163.771	-0.067435	0.561569	-0.594357	-0.595715	-0.092596	58.3302	-0.593166	-6.703672E+7	1.381279E-9	NaN
644	1.000000	0.572918	7.37135e+06	-44889.1	1005.82	-29774.3	0.000000	0.000000	6.572972	-0.086002	NaN	0.000000	0.001576	0.001729	28.084	0.092005	0.002062	44.6149	148.489	13.8674	-0.074350	0.571536	-0.584366	-0.585748	-0.086002	44.6149	-0.582920	-4.841990E+7	1.776168E-9	NaN
644	1.000000	0.582888	7.37135e+06	-44889.1	1005.82	-29774.3	0.000000	0.000000	6.582945	-0.017032	NaN	0.000000	0.001579	0.001698	28.0841	0.021809	0.001988	10.9686	-85.5679	-163.268	-0.015300	0.581620	-0.574396	-0.575664	-0.017032	10.9686	-0.573231	-3.558505E+7	4.786297E-10	NaN
644	1.000000	0.592900	7.37135e+06	-44889.1	1005.82	-29774.3	0.000000	0.000000	6.592957	-0.023310	NaN	0.000000	0.001560	0.001700	28.0841	0.081967	0.002067	39.6614	-72.163	17.5379	-0.006948	0.591565	-0.564384	-0.565719	-0.023310	39.6614	-0.563943	-2.647969E+7	8.803057E-10	NaN
644	1.000000	0.602946	7.37135e+06	-44889.1	1005.82	-29774.3	0.000000	0.000000	6.603000	-0.090558	NaN	0.000000	0.001548	0.001730	28.0843	0.065523	0.001922	34.0856	14.0319	-163.659	-0.074988	0.601690	-0.554338	-0.555594	-0.090558	34.0856	-0.552345	-1.829940E+7	4.948677E-9	NaN
644	1.000000	0.612939	7.37135e+06	-44889.1	1005.82	-29774.3	0.000000	0.000000	6.612998	0.020185	NaN	0.000000	0.001605	0.001741	28.0832	0.020611	0.002064	9.988151	-47.9416	12.9678	0.053809	0.611627	-0.544344	-0.545657	0.020185	9.988151	-0.545860	-1.487988E+7	-1.356553E-9	NaN
644	1.000000	0.622936	7.37135e+06	-44889.1	1005.82	-29774.3	0.000000	0.000000	6.622995	0.036150	NaN	0.000000	0.001569	0.001722	28.083	0.015535	0.001968	7.895258	-140.314	-165.775	-0.025583	0.621578	-0.534348	-0.535705	0.036150	7.895258	-0.537782	-1.149719E+7	-3.144208E-9	NaN
644	1.000000	0.632960	7.37135e+06	-44889.1	1005.82	-29774.3	0.000000	0.000000	6.633015	-0.076421	NaN	0.000000	0.001585	0.001728	28.0834	0.034942	0.002154	16.222	-63.4113	14.1582	0.025496	0.631569	-0.524323	-0.525714	-0.076421	16.222	-0.520790	-6.67703e+06	1.144540E-8	NaN
644	1.000000	0.642982	7.37135e+06	-44889.1	1005.82	-29774.3	0.000000	0.000000	6.643037	-0.064104	NaN	0.000000	0.001561	0.001686	28.0829	0.084325	0.002014	41.8725	-153.798	-165.645	0.003885	0.641649	-0.514302	-0.515635	-0.064104	41.8725	-0.513154	-5.22799e+06	1.226162E-8	NaN
644	1.000000	0.652951	7.37135e+06	-44889.1	1005.82	-29774.3	0.000000	0.000000	6.653007	-0.070524	NaN	0.000000	0.001498	0.001693	28.0832	0.049736	0.001969	25.2546	-65.5804	13.6445	-0.094090	0.651632	-0.504332	-0.505652	-0.070524	25.2546	-0.502238	-3.68324e+06	1.914727E-8	NaN
644	1.000000	0.662952	7.37135e+06	-44889.1	1005.82	-29774.3	0.000000	0.000000	6.663010	-0.009643	NaN	0.000000	0.001504	0.001711	28.0829	0.045315	0.001959	23.1334	115.604	-166.358	-0.063777	0.661681	-0.494331	-0.495603	-0.009643	23.1334	-0.494019	-2.82834e+06	3.409568E-9	NaN
644	1.000000	0.672937	7.37135e+06	-44889.1	1005.82	-29774.3	0.000000	0.000000	6.672994	-0.050784	NaN	0.000000	0.001535	0.001655	28.0833	0.154694	0.002076	74.5287	-3.762108	17.2611	-0.092327	0.671669	-0.484346	-0.485615	-0.050784	74.5287	-0.483835	-2.03796e+06	2.491919E-8	NaN
644	1.000000	0.682958	7.37135e+06	-44889.1	1005.82	-29774.3	0.000000	0.000000	6.683015	-0.032064	NaN	0.000000	0.001589	0.001654	28.0827	0.116860	0.001981	58.9998	-164.693	-168.91	-0.016410	0.681669	-0.474325	-0.475615	-0.032064	58.9998	-0.473918	-1.48024e+06	2.166153E-8	NaN
644	1.000000	0.692964	7.37135e+06	-44889.1	1005.82	-29774.3	0.000000	0.000000	6.693022	0.002627	NaN	0.000000	0.001570	0.001644	28.083	0.056028	0.001909	29.3523	-90.3375	16.7625	0.022415	0.691650	-0.464320	-0.465633	0.002627	29.3523	-0.464387	-1.08802e+06	-2.414140E-9	NaN
644	1.000000	0.702986	7.37135e+06	-44889.1	1005.82	-29774.3	0.000000	0.000000	6.703043	-0.048264	NaN	0.000000	0.001617	0.001715	28.0828	0.081422	0.001967	41.3922	-170.021	-167.699	-0.054502	0.701714	-0.454297	-0.455570	-0.048264	41.3922	-0.453423	-763001	6.325603E-8	NaN
644	1.000000	0.712943	7.37135e+06	-44889.1	1005.82	-29774.3	0.000000	0.000000	6.713002	0.004888	NaN	0.000000	0.001570	0.001703	28.0828	0.054576	0.001985	27.4887	1.491148	13.5899	-0.024024	0.711574	-0.444340	-0.445709	0.004888	27.4887	-0.444474	-570784	-8.564416E-9	NaN
644	1.000000	0.722988	7.37135e+06	-44889.1	1005.82	-29774.3	0.000000	0.000000	6.723045	-0.047706	NaN	0.000000	0.001572	0.001737	28.0826	0.035294	0.001939	18.1986	78.3923	-165.28	-0.018297	0.721635	-0.434295	-0.435649	-0.047706	18.1986	-0.432329	-384594	1.240415E-7	NaN
644	1.000000	0.732981	7.37135e+06	-44889.1	1005.82	-29774.3	0.000000	0.000000	6.733035	-0.091901	NaN	0.000000	0.001579	0.001677	28.0826	0.200899	0.001999	100.515	102.113	12.0113	-0.055340	0.731641	-0.424303	-0.425642	-0.091901	100.515	-0.423617	-289528	3.174145E-7	NaN
644	1.000000	0.742958	7.37135e+06	-44889.1	1005.82	-29774.3	0.000000	0.000000	6.743013	-0.078309	NaN	0.000000	0.001567	0.001740	28.083	0.073194	0.001920	38.1203	121.09	-167.35	-0.062497	0.741731	-0.414326	-0.415553	-0.078309	38.1203	-0.412785	-203230	3.853230E-7	NaN
644	1.000000	0.752978	7.37135e+06	-44889.1	1005.82	-29774.3	0.000000	0.000000	6.753036	0.005098	NaN	0.000000	0.001579	0.001725	28.084	0.093234	0.002031	45.9162	163.812	16.4323	-0.037501	0.751631	-0.404306	-0.405652	0.005098	45.9162	-0.404389	-154365	-3.302281E-8	NaN
644	1.000000	0.762979	7.37135e+06	-44889.1	1005.82	-29774.3	0.000000	0.000000	6.763037	0.008293	NaN	0.000000	0.001560	0.001703	28.0839	0.092836	0.001927	48.1769	-1.056109	-165.853	-0.015735	0.761659	-0.394305	-0.395624	0.008293	48.1769	-0.394434	-111313	-7.450355E-8	NaN
644	1.000000	0.773005	7.37135e+06	-44889.1	1005.82	-29774.3	0.000000	0.000000	6.773061	-0.055816	NaN	0.000000	0.001558	0.001709	28.084	0.118300	0.002019	58.6074	-114.791	14.9675	-0.058470	0.771650	-0.384278	-0.385634	-0.055816	58.6074	-0.383564	-77804.7	7.173813E-7	NaN
644	1.000000	0.783006	7.37135e+06	-44889.1	1005.82	-29774.3	0.000000	0.000000	6.783063	-0.029762	NaN	0.000000	0.001579	0.001674	28.0843	0.062961	0.002055	30.6414	52.9063	-165.589	-0.045702	0.781652	-0.374277	-0.375631	-0.029762	30.6414	-0.373549	-55872.8	5.326657E-7	NaN
644	1.000000	0.793027	7.37135e+06	-44889.1	1005.82	-29774.3	0.000000	0.000000	6.793082	-0.082386	NaN	0.000000	0.001591	0.001688	28.0842	0.103239	0.002034	50.7603	37.4404	16.4167	-0.063573	0.791646	-0.364256	-0.365638	-0.082386	50.7603	-0.363039	-39423	2.089786E-6	NaN
644	1.000000	0.802995	7.37135e+06	-44889.1	1005.82	-29774.3	0.000000	0.000000	6.803053	-0.004729	NaN	0.000000	0.001587	0.001700	28.0842	0.105870	0.001966	53.8448	-174.473	-166.043	-0.045593	0.801701	-0.354288	-0.355582	-0.004729	53.8448	-0.354222	-29392.2	1.608865E-7	NaN
644	1.000000	0.813040	7.37135e+06	-44889.1	1005.82	-29774.3	0.000000	0.000000	6.813092	-0.154773	NaN	0.000000	0.001532	0.001697	28.0842	0.017918	0.002026	8.841756	-20.1184	13.8939	-0.167143	0.811648	-0.344244	-0.345636	-0.154773	8.841756	-0.331115	-13545	1.142658E-5	NaN
644	1.000000	0.823029	7.37135e+06	-44889.1	1005.82	-29774.3	0.000000	0.000000	6.823085	-0.047463	NaN	0.000000	0.001565	0.001698	28.0841	0.053846	0.002090	25.7664	118.833	-165.48	-0.099468	0.821702	-0.334255	-0.335581	-0.047463	25.7664	-0.332873	-14371.3	3.302623E-6	NaN
644	1.000000	0.833009	7.37135e+06	-44889.1	1005.82	-29774.3	0.000000	0.000000	6.833063	-0.094535	NaN	0.000000	0.001579	0.001708	28.0839	0.095645	0.001960	48.8092	-142.509	13.2974	-0.041869	0.831616	-0.324275	-0.325667	-0.094535	48.8092	-0.322822	-10236.4	9.235235E-6	NaN
644	1.000000	0.843038	7.37135e+06	-44889.1	1005.82	-29774.3	0.000000	0.000000	6.843092	-0.102213	NaN	0.000000	0.001580	0.001673	28.0841	0.081795	0.001976	41.3995	158.952	-169.719	-0.097962	0.841733	-0.314245	-0.315550	-0.102213	41.3995	-0.312393	-7185.43	1.422507E-5	NaN
644	1.000000	0.853010	7.37135e+06	-44889.1	1005.82	-29774.3	0.000000	0.000000	6.853067	-0.047322	NaN	0.000000	0.001625	0.001673	28.084	0.113226	0.002137	52.9866	-46.4063	14.0212	-0.100258	0.851696	-0.304273	-0.305587	-0.047322	52.9866	-0.303603	-5323.75	8.888899E-6	NaN
644	1.000000	0.863055	7.37135e+06	-44889.1	1005.82	-29774.3	0.000000	0.000000	6.863110	-0.079430	NaN	0.000000	0.001618	0.001710	28.084	0.057816	0.002079	27.812	-34.8788	-165.81	-0.031656	0.861740	-0.294229	-0.295544	-0.079430	27.812	-0.292087	-3585.43	2.215365E-5	NaN
644	1.000000	0.873030	7.37135e+06	-44889.1	1005.82	-29774.3	0.000000	0.000000	6.873089	0.029313	NaN	0.000000	0.001634	0.001706	28.0839	0.039282	0.001952	20.1252	7.512438	15.5258	0.029688	0.871742	-0.284254	-0.285542	0.029313	20.1252	-0.285346	-2840.98	-1.031782E-5	NaN
644	1.000000	0.883043	7.37135e+06	-44889.1	1005.82	-29774.3	0.000000	0.000000	6.883100	-0.027280	NaN	0.000000	0.001597	0.001705	28.0836	0.067020	0.001992	33.6384	124.333	-170.216	-0.083866	0.881782	-0.274241	-0.275501	-0.027280	33.6384	-0.273633	-1890.98	1.442628E-5	NaN
644	1.000000	0.893066	7.37135e+06	-44889.1	1005.82	-29774.3	0.000000	0.000000	6.893121	-0.070742	NaN	0.000000	0.001610	0.001696	28.0826	0.037557	0.001934	19.423	-14.3388	11.8757	-0.030282	0.891677	-0.264218	-0.265607	-0.070742	19.423	-0.261486	-1235.05	5.727853E-5	NaN
644	1.000000	0.903067	7.37135e+06	-44889.1	1005.82	-29774.3	0.000000	0.000000	6.903124	-0.042407	NaN	0.000000	0.001604	0.001719	28.0831	0.080680	0.002013	40.087	43.5194	-163.929	-0.140118	0.901783	-0.254216	-0.255500	-0.042407	40.087	-0.253423	-928.584	4.566900E-5	NaN
644	1.000000	0.913067	7.37135e+06	-44889.1	1005.82	-29774.3	0.000000	0.000000	6.913123	-0.052421	NaN	0.000000	0.001606	0.001680	28.0824	0.071796	0.001885	38.0873	160.065	12.9497	-0.077922	0.911665	-0.244216	-0.245619	-0.052421	38.0873	-0.243184	-644.475	8.133975E-5	NaN
644	1.000000	0.923041	7.37135e+06	-44889.1	1005.82	-29774.3	0.000000	0.000000	6.923097	-0.047846	NaN	0.000000	0.001585	0.001730	28.0831	0.105458	0.002053	51.3744	76.1767	-167.567	0.007757	0.921726	-0.234243	-0.235557	-0.047846	51.3744	-0.233544	-455.377	0.000105	NaN
644	1.000000	0.933040	7.37135e+06	-44889.1	1005.82	-29774.3	0.000000	0.000000	6.933097	-0.031662	NaN	0.000000	0.001606	0.001721	28.0827	0.080376	0.002119	37.9352	139.8	15.4471	-0.115307	0.931719	-0.224244	-0.225565	-0.031662	37.9352	-0.223618	-317.219	9.980991E-5	NaN
644	1.000000	0.943085	7.37135e+06	-44889.1	1005.82	-29774.3	0.000000	0.000000	6.943141	-0.047260	NaN	0.000000	0.001596	0.001724	28.083	0.047387	0.001984	23.8899	-120.284	-167.961	-0.051735	0.941771	-0.214198	-0.215512	-0.047260	23.8899	-0.212715	-212.178	0.000223	NaN
644	1.000000	0.953086	7.37135e+06	-44889.1	1005.82	-29774.3	0.000000	0.000000	6.953143	-0.037165	NaN	0.000000	0.001639	0.001665	28.0827	0.086214	0.002098	41.0977	-58.6934	14.17	0.007545	0.951734	-0.204197	-0.205549	-0.037165	41.0977	-0.203519	-150.444	0.000247	NaN
644	1.000000	0.963084	7.37135e+06	-44889.1	1005.82	-29774.3	0.000000	0.000000	6.963138	-0.081454	NaN	0.000000	0.001613	0.001659	28.0831	0.047749	0.001991	23.9826	-5.999602	-165.12	-0.050521	0.961697	-0.194200	-0.195586	-0.081454	23.9826	-0.191653	-95.8515	0.000850	NaN
644	1.000000	0.973049	7.37135e+06	-44889.1	1005.82	-29774.3	0.000000	0.000000	6.973110	0.064587	NaN	0.000000	0.001616	0.001650	28.0827	0.030729	0.001973	15.5783	168.63	11.1021	0.011722	0.971719	-0.184235	-0.185564	0.064587	15.5783	-0.187344	-81.1999	-0.000795	NaN
644	1.000000	0.983111	7.37135e+06	-44889.1	1005.82	-29774.3	0.000000	0.000000	6.983168	-0.031130	NaN	0.000000	0.001632	0.001676	28.0828	0.099681	0.001944	51.2644	-22.1359	-165.364	-0.012642	0.981765	-0.174172	-0.175519	-0.031130	51.2644	-0.173717	-47.6322	0.000654	NaN
644	1.000000	0.993120	7.37135e+06	-44889.1	1005.82	-29774.3	0.000000	0.000000	6.993176	-0.043479	NaN	0.000000	0.001612	0.001665	28.0831	0.119212	0.001916	62.2163	-170.924	11.7279	-0.053013	0.991699	-0.164164	-0.165585	-0.043479	62.2163	-0.163640	-31.7964	0.001367	NaN
644	1.000000	1.003076	7.37135e+06	-44889.1	1005.82	-29774.3	0.000000	0.000000	7.003132	-0.033010	NaN	0.000000	0.001616	0.001702	28.0828	0.031997	0.001930	16.5783	56.8101	-164.776	0.000694	1.001792	-0.154208	-0.155492	-0.033010	16.5783	-0.152715	-20.2923	0.001627	NaN
644	1.000000	1.013080	7.37135e+06	-44889.1	1005.82	-29774.3	0.000000	0.000000	7.013139	0.004948	NaN	0.000000	0.001566	0.001629	28.0827	0.058999	0.001987	29.6936	-163.026	12.8275	0.013341	1.011672	-0.144203	-0.145612	0.004948	29.6936	-0.144328	-14.2471	-0.000347	NaN
644	1.000000	1.023099	7.37135e+06	-44889.1	1005.82	-29774.3	0.000000	0.000000	7.023152	-0.130428	NaN	0.000000	0.001543	0.001670	28.084	0.097296	0.002076	46.871	7.072442	-165.124	-0.152585	1.021765	-0.134184	-0.135518	-0.130428	46.871	-0.132097	-8.367595	0.015587	NaN
644	1.000000	1.033115	7.37135e+06	-44889.1	1005.82	-29774.3	0.000000	0.000000	7.033173	0.012020	NaN	0.000000	0.001550	0.001680	28.0841	0.085918	0.002058	41.7534	-138.086	15.6959	-0.015054	1.031707	-0.124169	-0.125576	0.012020	41.7534	-0.124385	-5.912998	-0.002033	NaN
644	1.000000	1.043117	7.37135e+06	-44889.1	1005.82	-29774.3	0.000000	0.000000	7.043174	-0.024691	NaN	0.000000	0.001599	0.001641	28.0839	0.036822	0.001999	18.4229	-94.296	-166.665	0.002282	1.041823	-0.114166	-0.115460	-0.024691	18.4229	-0.113161	-3.499836	0.007055	NaN
644	1.000000	1.053081	7.37135e+06	-44889.1	1005.82	-29774.3	0.000000	0.000000	7.053137	-0.051318	NaN	0.000000	0.001592	0.001666	28.0838	0.077375	0.002064	37.4897	-72.5895	15.1231	-0.092859	1.051711	-0.104202	-0.105572	-0.051318	37.4897	-0.103176	-2.145767	0.023916	NaN
644	1.000000	1.063124	7.37135e+06	-44889.1	1005.82	-29774.3	0.000000	0.000000	7.063182	-0.023032	NaN	0.000000	0.001580	0.001693	28.0839	0.114125	0.001958	58.2847	88.7114	-164.845	-0.054596	1.061841	-0.094159	-0.095442	-0.023032	58.2847	-0.093863	-1.328666	0.017335	NaN
644	1.000000	1.073109	7.37135e+06	-44889.1	1005.82	-29774.3	0.000000	0.000000	7.073164	-0.070765	NaN	0.000000	0.001552	0.001689	28.0838	0.061489	0.001937	31.7448	149.022	12.4866	-0.059854	1.071742	-0.084175	-0.085542	-0.070765	31.7448	-0.082503	-0.714098	0.099097	NaN
644	1.000000	1.083123	7.37135e+06	-44889.1	1005.82	-29774.3	0.000000	0.000000	7.083181	0.007089	NaN	0.000000	0.001593	0.001752	28.0838	0.036098	0.001926	18.738	104.115	-164.249	-0.024671	1.081805	-0.074161	-0.075478	0.007089	18.738	-0.074444	-0.446809	-0.015867	NaN
644	1.000000	1.093114	7.37135e+06	-44889.1	1005.82	-29774.3	0.000000	0.000000	7.093171	-0.023101	NaN	0.000000	0.001662	0.001695	28.0836	0.097748	0.002003	48.7986	-88.2475	14.5102	-0.076417	1.091765	-0.064169	-0.065519	-0.023101	48.7986	-0.063814	-0.230968	0.100016	NaN
644	1.000000	1.103122	7.37135e+06	-44889.1	1005.82	-29774.3	0.000000	0.000000	7.103180	0.000854	NaN	0.000000	0.001649	0.001666	28.0838	0.051480	0.002062	24.9635	69.7692	-165.515	0.027964	1.101879	-0.054162	-0.055404	0.000854	24.9635	-0.054187	-0.121835	-0.007013	NaN
644	1.000000	1.113116	7.37135e+06	-44889.1	1005.82	-29774.3	0.000000	0.000000	7.113173	-0.044726	NaN	0.000000	0.001639	0.001660	28.0836	0.042394	0.002013	21.0612	-149.302	12.7667	-0.079271	1.111758	-0.044167	-0.045525	-0.044726	21.0612	-0.042574	-0.054177	0.825541	NaN
644	1.000000	1.123121	7.37135e+06	-44889.1	1005.82	-29774.3	0.000000	0.000000	7.123177	-0.074278	NaN	0.000000	0.001630	0.001638	28.0838	0.060086	0.001992	30.1677	-57.1163	-168.3	-0.041493	1.121813	-0.034162	-0.035470	-0.074278	30.1677	-0.032315	-0.026757	2.776037	NaN
644	1.000000	1.133126	7.37135e+06	-44889.1	1005.82	-29774.3	0.000000	0.000000	7.133183	-0.024081	NaN	0.000000	0.001617	0.001663	28.0837	0.105651	0.001956	54.024	147.182	16.3493	-0.024609	1.131811	-0.024158	-0.025472	-0.024081	54.024	-0.023823	-0.015725	1.531410	NaN
644	1.000000	1.143131	7.37135e+06	-44889.1	1005.82	-29774.3	0.000000	0.000000	7.143188	-0.028403	NaN	0.000000	0.001684	0.001659	28.0837	0.045862	0.001985	23.1002	-164.972	-164.214	-0.007124	1.141852	-0.014153	-0.015431	-0.028403	23.1002	-0.013230	-0.008235	3.448930	NaN
644	1.000000	1.153158	7.37135e+06	-44889.1	1005.82	-29774.3	0.000000	0.000000	7.153213	-0.078396	NaN	0.000000	0.001662	0.001655	28.0839	0.012480	0.001991	6.269490	-85.9219	15.4966	-0.100854	1.151714	-0.004125	-0.005570	-0.078396	6.269490	0.005253	0.004366	-17.9579	86.6934
644	2.000000	1.162500	7.37135e+06	-44889.1	1005.82	-29774.3	0.000000	0.000000	7.162990	10.5139	NaN	0.000000	0.001631	0.001683	28.0823	9.373283	0.001732	5412.2	8.203254	-171.384	9.653485	1.161746	0.005216	0.004462	10.5139	5412.2	0.003759	0.003029	3470.92	89843.8
644	2.000000	1.165177	7.37135e+06	-44889.1	1005.82	-29774.3	0.000000	0.000000	7.165891	15.9525	NaN	0.000000	0.001647	0.001675	28.0827	11.971	0.001680	7127.49	8.215736	6.019536	15.1271	1.164782	0.007894	0.007498	15.9525	7127.49	0.006215	0.005270	3027.06	89702.7
644	2.000000	1.167618	7.37135e+06	-44889.1	1005.82	-29774.3	0.000000	0.000000	7.168465	19.1783	NaN	0.000000	0.001660	0.001684	28.0824	14.9467	0.001632	9157.95	4.416466	-174.619	19.8169	1.167277	0.010335	0.009994	19.1783	9157.95	0.008764	0.007840	2446.17	94495.3
644	2.000000	1.170067	7.37135e+06	-44889.1	1005.82	-29774.3	0.000000	0.000000	7.171095	23.5951	NaN	0.000000	0.001661	0.001664	28.0827	17.8609	0.001744	10244.2	3.678123	4.454741	22.1655	1.169725	0.012784	0.012441	23.5951	10244.2	0.011056	0.010379	2273.29	91868.3
644	2.000000	1.172544	7.37135e+06	-44889.1	1005.82	-29774.3	0.000000	0.000000	7.173826	29.7655	NaN	0.000000	0.001657	0.001665	28.0824	21.2945	0.001809	11770.8	8.240824	179.171	28.369	1.172291	0.015261	0.015007	29.7655	11770.8	0.013364	0.013165	2260.93	93727.4
644	2.000000	1.175031	7.37135e+06	-44889.1	1005.82	-29774.3	0.000000	0.000000	7.176547	35.4615	NaN	0.000000	0.001648	0.001640	28.0828	22.397	0.001787	12534.3	2.881356	5.012976	33.4191	1.174728	0.017748	0.017444	35.4615	12534.3	0.015626	0.016129	2198.64	90171.8
644	2.000000	1.177552	7.37135e+06	-44889.1	1005.82	-29774.3	0.000000	0.000000	7.179329	41.7932	NaN	0.000000	0.001638	0.001674	28.0824	25.9985	0.001848	14071.4	8.798934	176.68	40.589	1.177229	0.020269	0.019945	41.7932	14071.4	0.018041	0.019558	2136.94	91929.2
644	2.000000	1.180039	7.37135e+06	-44889.1	1005.82	-29774.3	0.000000	0.000000	7.182188	50.8746	NaN	0.000000	0.001631	0.001639	28.0826	28.139	0.001845	15251.5	2.642221	2.986839	47.9157	1.179622	0.022755	0.022338	50.8746	15251.5	0.020254	0.022942	2217.5	91995.8
644	2.000000	1.182596	7.37135e+06	-44889.1	1005.82	-29774.3	0.000000	0.000000	7.185045	58.1575	NaN	0.000000	0.001650	0.001643	28.0824	30.6284	0.001839	16653.1	8.417774	178.403	59.6193	1.182187	0.025312	0.024904	58.1575	16653.1	0.022693	0.026952	2157.82	92677.3
644	2.000000	1.185025	7.37135e+06	-44889.1	1005.82	-29774.3	0.000000	0.000000	7.187856	67.4469	NaN	0.000000	0.001649	0.001663	28.0827	31.5809	0.001611	19608.4	-0.332961	4.838082	64.5485	1.184668	0.027742	0.027385	67.4469	19608.4	0.025162	0.031311	2154.11	101244
644	2.000000	1.187521	7.37135e+06	-44889.1	1005.82	-29774.3	0.000000	0.000000	7.190829	79.0655	NaN	0.000000	0.001627	0.001631	28.0824	34.3374	0.001631	21050.5	5.296901	177.914	78.3337	1.187288	0.030237	0.030004	79.0655	21050.5	0.027420	0.035566	2223.08	101981
644	2.000000	1.189991	7.37135e+06	-44889.1	1005.82	-29774.3	0.000000	0.000000	7.193784	90.8568	NaN	0.000000	0.001634	0.001690	28.0835	37.7202	0.001867	20202.6	1.898267	2.584219	87.7533	1.189683	0.032708	0.032400	90.8568	20202.6	0.029335	0.039376	2307.41	93017.7
644	2.000000	1.192507	7.37135e+06	-44889.1	1005.82	-29774.3	0.000000	0.000000	7.196390	93.049	NaN	0.000000	0.001639	0.001662	28.0826	40.5828	0.001791	22664.7	2.111578	-179.98	91.727	1.192216	0.035224	0.034933	93.049	22664.7	0.032144	0.045306	2053.8	97285.2
644	2.000000	1.195010	7.37135e+06	-44889.1	1005.82	-29774.3	0.000000	0.000000	7.199708	112.88	NaN	0.000000	0.001643	0.001678	28.0838	41.9359	0.001751	23949.2	0.684192	2.339843	108.095	1.194546	0.037726	0.037263	112.88	23949.2	0.034191	0.049880	2263.04	97971.9
644	2.000000	1.197479	7.37135e+06	-44889.1	1005.82	-29774.3	0.000000	0.000000	7.202383	117.895	NaN	0.000000	0.001630	0.001661	28.0837	45.7348	0.001747	26176.4	6.031083	175.086	116.119	1.197142	0.040195	0.039858	117.895	26176.4	0.036817	0.056062	2102.94	101006
644	2.000000	1.200098	7.37135e+06	-44889.1	1005.82	-29774.3	0.000000	0.000000	7.205307	125.307	NaN	0.000000	0.001618	0.001702	28.0848	47.7048	0.001725	27657.2	4.050202	-2.257037	128.41	1.199562	0.042814	0.042279	125.307	27657.2	0.039416	0.062528	2004.01	101052
644	2.000000	1.202519	7.37135e+06	-44889.1	1005.82	-29774.3	0.000000	0.000000	7.208172	136.123	NaN	0.000000	0.001674	0.001689	28.0842	51.4064	0.001777	28932.4	3.698189	176.121	135.833	1.202241	0.045235	0.044957	136.123	28932.4	0.041706	0.068513	1986.83	100988
644	2.000000	1.204981	7.37135e+06	-44889.1	1005.82	-29774.3	0.000000	0.000000	7.211273	151.653	NaN	0.000000	0.001632	0.001652	28.0839	52.9378	0.001788	29604	5.385241	-4.955037	147.776	1.204690	0.047698	0.047406	151.653	29604	0.043856	0.074372	2039.11	99178.8
644	2.000000	1.207530	7.37136e+06	-44889.1	1005.82	-29774.3	0.000000	0.000000	7.214357	164.653	NaN	0.000000	0.001664	0.001679	28.0835	54.0181	0.001798	30041.1	2.492454	178.037	164.61	1.207256	0.050247	0.049973	164.653	30041.1	0.046136	0.080846	2036.63	96529.7
644	2.000000	1.210001	7.37136e+06	-44889.1	1005.82	-29774.3	0.000000	0.000000	7.217342	177.183	NaN	0.000000	0.001645	0.001734	28.0846	58.1249	0.001866	31150.6	6.702242	-6.553883	175.568	1.209589	0.052717	0.052306	177.183	31150.6	0.048451	0.087687	2020.64	96111
644	2.000000	1.212490	7.37136e+06	-44889.1	1005.82	-29774.3	0.000000	0.000000	7.220143	184.767	NaN	0.000000	0.001634	0.001712	28.0838	59.5805	0.001755	33956.3	1.003699	178.875	184.696	1.212196	0.055206	0.054912	184.767	33956.3	0.051125	0.095922	1926.21	100169
644	2.000000	1.214981	7.37136e+06	-44889.1	1005.82	-29774.3	0.000000	0.000000	7.223280	200.492	NaN	0.000000	0.001629	0.001740	28.0841	62.2689	0.001771	35152.8	7.141488	-7.765065	197.16	1.214694	0.057697	0.057411	200.492	35152.8	0.053420	0.103276	1941.32	99938.7
644	2.000000	1.217496	7.37136e+06	-44889.1	1005.82	-29774.3	0.000000	0.000000	7.226552	218.883	NaN	0.000000	0.001642	0.001712	28.0835	63.9586	0.001707	37475	3.473213	175.477	218.236	1.217173	0.060213	0.059889	218.883	37475	0.055832	0.111288	1966.81	102634
644	2.000000	1.219987	7.37136e+06	-44889.1	1005.82	-29774.3	0.000000	0.000000	7.229623	233.012	NaN	0.000000	0.001647	0.001721	28.0842	67.1945	0.001828	36765.6	5.531283	-6.956330	230.268	1.219667	0.062704	0.062383	233.012	36765.6	0.057950	0.118561	1965.34	97553.8
644	2.000000	1.222417	7.37136e+06	-44889.1	1005.82	-29774.3	0.000000	0.000000	7.232767	250.352	NaN	0.000000	0.001568	0.001712	28.0834	69.4164	0.001768	39271	5.456964	173.779	247.444	1.222149	0.065134	0.064865	250.352	39271	0.060353	0.127076	1970.1	100650
644	2.000000	1.224917	7.37136e+06	-44889.1	1005.82	-29774.3	0.000000	0.000000	7.235924	266.367	NaN	0.000000	0.001607	0.001758	28.0836	71.0975	0.001631	43581.6	6.874970	-9.506760	259.33	1.224544	0.067633	0.067261	266.367	43581.6	0.063049	0.136970	1944.71	107588
644	2.000000	1.227353	7.37136e+06	-44889.1	1005.82	-29774.3	0.000000	0.000000	7.239137	285.274	NaN	0.000000	0.001616	0.001712	28.0834	72.504	0.001796	40372.3	3.889032	174.74	278.777	1.227009	0.070069	0.069726	285.274	40372.3	0.064770	0.143465	1988.45	97382.9
644	2.000000	1.229889	7.37136e+06	-44889.1	1005.82	-29774.3	0.000000	0.000000	7.242393	302.774	NaN	0.000000	0.001621	0.001756	28.0826	75.5987	0.001771	42686.2	3.401095	-5.110531	297.034	1.229563	0.072605	0.072279	302.774	42686.2	0.067286	0.153221	1976.05	99632.5
644	2.000000	1.232510	7.37136e+06	-44889.1	1005.82	-29774.3	0.000000	0.000000	7.245648	318.21	NaN	0.000000	0.001625	0.001691	28.0822	78.1944	0.001760	44422.4	-0.553886	178.535	318.689	1.232134	0.075226	0.074851	318.21	44422.4	0.069854	0.163494	1946.31	100374
644	2.000000	1.235017	7.37136e+06	-44889.1	1005.82	-29774.3	0.000000	0.000000	7.248912	336.616	NaN	0.000000	0.001591	0.001716	28.0823	80.5632	0.001722	46787.2	6.340154	-8.622456	335.384	1.234576	0.077733	0.077293	336.616	46787.2	0.072337	0.173725	1937.63	102558
644	2.000000	1.237507	7.37136e+06	-44889.1	1005.82	-29774.3	0.000000	0.000000	7.252249	357.224	NaN	0.000000	0.001603	0.001728	28.0824	82.0806	0.001816	45201.6	4.640080	172.992	359.734	1.237136	0.080224	0.079853	357.224	45201.6	0.074296	0.182003	1962.74	96802.8
644	2.000000	1.239908	7.37136e+06	-44889.1	1005.82	-29774.3	0.000000	0.000000	7.255538	378.833	NaN	0.000000	0.001591	0.001674	28.0828	84.1009	0.001667	50462.5	5.797698	-9.126861	371.965	1.239459	0.082624	0.082176	378.833	50462.5	0.076994	0.193697	1955.8	104756
644	2.000000	1.242452	7.37136e+06	-44889.1	1005.82	-29774.3	0.000000	0.000000	7.258722	394.386	NaN	0.000000	0.001618	0.001697	28.0828	87.9763	0.001660	52992	5.848547	170.348	392.141	1.242064	0.085169	0.084780	394.386	52992	0.079587	0.205257	1921.43	106865
644	2.000000	1.244901	7.37136e+06	-44889.1	1005.82	-29774.3	0.000000	0.000000	7.262125	417.581	NaN	0.000000	0.001662	0.001703	28.0825	87.8407	0.001767	49722.5	0.677422	-3.755442	410.604	1.244531	0.087618	0.087248	417.581	49722.5	0.081319	0.213156	1959.04	98396
644	2.000000	1.247428	7.37136e+06	-44889.1	1005.82	-29774.3	0.000000	0.000000	7.265406	435.938	NaN	0.000000	0.001637	0.001694	28.0826	90.7422	0.001638	55410.5	5.241284	171.105	434.388	1.247132	0.090145	0.089849	435.938	55410.5	0.084244	0.226809	1922.05	106300
644	2.000000	1.249898	7.37136e+06	-44889.1	1005.82	-29774.3	0.000000	0.000000	7.268680	455.499	NaN	0.000000	0.001634	0.001717	28.0824	95.1935	0.001893	50285.9	4.235935	-7.361157	450.642	1.249638	0.092614	0.092354	455.499	50285.9	0.085821	0.234332	1943.82	94908.1
644	2.000000	1.252418	7.37136e+06	-44889.1	1005.82	-29774.3	0.000000	0.000000	7.272139	478.333	NaN	0.000000	0.001584	0.001687	28.0824	98.8577	0.001887	52387.8	7.352257	169.299	475.753	1.252106	0.095135	0.094822	478.333	52387.8	0.088287	0.246331	1941.83	96437.2
644	2.000000	1.254975	7.37136e+06	-44889.1	1005.82	-29774.3	0.000000	0.000000	7.275504	497.987	NaN	0.000000	0.001628	0.001712	28.0824	100.331	0.001805	55583.7	5.883319	-9.333145	496.486	1.254607	0.097692	0.097324	497.987	55583.7	0.090972	0.259714	1917.45	99649.1
644	2.000000	1.257393	7.37136e+06	-44889.1	1005.82	-29774.3	0.000000	0.000000	7.278897	521.721	NaN	0.000000	0.001609	0.001707	28.0826	101.951	0.001853	55018.9	5.457652	171.393	518.716	1.257078	0.100110	0.099794	521.721	55018.9	0.092998	0.270025	1932.12	96734.9
644	2.000000	1.259841	7.37136e+06	-44889.1	1005.82	-29774.3	0.000000	0.000000	7.282351	546.196	NaN	0.000000	0.001586	0.001708	28.0825	104.036	0.001748	59517.5	3.019284	-6.706119	537.718	1.259505	0.102557	0.102221	546.196	59517.5	0.095675	0.283942	1923.62	102048
644	2.000000	1.261007	7.37136e+06	-44889.1	1005.82	-29774.3	0.000000	0.000000	7.283670	549.912	NaN	0.000000	0.001630	0.001716	28.0828	105.129	0.001826	57581.4	4.958360	-8.826175	550.672	1.260690	0.103724	0.103406	549.912	57581.4	0.096561	0.288623	1905.3	97924.3