File: remote_trans/data/nanoindenter/0828-1/data/Data_2025-08-06,11h17m57s/2025-07-22_16-23-58_1_635.txt
2025-07-22, 16:23:58, 1
Index	Phase	Displacement	Time	Pos X	Pos Y	Pos Z	Rot A	Rot B	Piezo Z	Force A	Force B	Gripper	Voltage A	Voltage B	Temperature	Amplitude force	Amplitude pos	Stiffness	Phase shift	Phase excitation	Force A raw	Displacement raw	HMax	HMax raw	Real Force	Real Stiffness	Contact Depth	Area	Hardness	Reduced Mod.
[#]	[#]	[um]	[s]	[um]	[um]	[um]	[m°]	[m°]	[um]	[uN]	[uN]	[V]	[V]	[V]	[°C]	[uN]	[um]	[N/m]	[°]	[°]	[uN]	[um]	[um]	[um]	[uN]	[N/m]	[um]	[um^2]	[MPa]	[MPa]
635	1.000000	0.002168	7.37126e+06	-45339.1	1005.82	-29772.8	0.000000	0.000000	6.002795	0.019398	NaN	0.000000	0.001671	0.001742	28.0827	0.081767	0.001001	81.7079	48.8543	-176.476	-0.042913	0.000889	-1.057118	-1.058397	0.019398	81.7079	-1.057296	-1.338081E+14	-1.449698E-16	NaN
635	1.000000	0.010148	7.37126e+06	-45339.1	1005.82	-29772.8	0.000000	0.000000	6.010771	-0.086815	NaN	0.000000	0.001609	0.001735	28.0826	0.109456	0.001060	103.235	87.8495	-171.042	-0.063011	0.008804	-1.049138	-1.050482	-0.086815	103.235	-1.048507	-1.019400E+14	8.516280E-16	NaN
635	1.000000	0.018136	7.37126e+06	-45339.1	1005.82	-29772.8	0.000000	0.000000	6.018764	0.022566	NaN	0.000000	0.001594	0.001741	28.0824	0.049037	0.001735	28.2691	-7.688953	-161.887	0.018484	0.016837	-1.041150	-1.042449	0.022566	28.2691	-1.041749	-8.269513E+13	-2.728793E-16	NaN
635	1.000000	0.026150	7.37126e+06	-45339.1	1005.82	-29772.8	0.000000	0.000000	6.026778	0.024778	NaN	0.000000	0.001596	0.001723	28.0824	0.127727	0.001883	67.842	58.3965	-167.314	0.045692	0.024773	-1.033136	-1.034513	0.024778	67.842	-1.033410	-6.387616E+13	-3.879076E-16	NaN
635	1.000000	0.034135	7.37126e+06	-45339.1	1005.82	-29772.8	0.000000	0.000000	6.034762	0.002587	NaN	0.000000	0.001598	0.001718	28.0823	0.075871	0.001857	40.8494	65.6229	-166.34	0.046622	0.032824	-1.025151	-1.026462	0.002587	40.8494	-1.025198	-4.953269E+13	-5.222024E-17	NaN
635	1.000000	0.042113	7.37126e+06	-45339.1	1005.82	-29772.8	0.000000	0.000000	6.042739	-0.016831	NaN	0.000000	0.001611	0.001708	28.0824	0.089513	0.002085	42.9278	117.396	-165.095	0.055220	0.040859	-1.017173	-1.018427	-0.016831	42.9278	-1.016879	-3.827841E+13	4.397026E-16	NaN
635	1.000000	0.050134	7.37126e+06	-45339.1	1005.82	-29772.8	0.000000	0.000000	6.050761	0.003411	NaN	0.000000	0.001585	0.001704	28.0822	0.124474	0.001953	63.7189	86.7339	-163.298	-0.098436	0.048803	-1.009152	-1.010483	0.003411	63.7189	-1.009192	-3.016513E+13	-1.130935E-16	NaN
635	1.000000	0.058120	7.37126e+06	-45339.1	1005.82	-29772.8	0.000000	0.000000	6.058746	-0.012035	NaN	0.000000	0.001599	0.001711	28.0821	0.102680	0.001983	51.7681	157.985	-166.931	-0.011906	0.056820	-1.001166	-1.002466	-0.012035	51.7681	-1.000991	-2.339464E+13	5.144426E-16	NaN
635	1.000000	0.066106	7.37126e+06	-45339.1	1005.82	-29772.8	0.000000	0.000000	6.066732	-0.018673	NaN	0.000000	0.001562	0.001671	28.0822	0.072263	0.002021	35.7502	177.015	-169.269	0.025285	0.064874	-0.993180	-0.994412	-0.018673	35.7502	-0.992788	-1.814112E+13	1.029324E-15	NaN
635	1.000000	0.074135	7.37126e+06	-45339.1	1005.82	-29772.8	0.000000	0.000000	6.074762	0.002663	NaN	0.000000	0.001630	0.001703	28.0812	0.042052	0.002068	20.3388	-73.308	-165.126	-0.009890	0.072805	-0.985150	-0.986481	0.002663	20.3388	-0.985249	-1.435872E+13	-1.854613E-16	NaN
635	1.000000	0.082106	7.37126e+06	-45339.1	1005.82	-29772.8	0.000000	0.000000	6.082731	-0.046395	NaN	0.000000	0.001639	0.001742	28.0811	0.093913	0.002020	46.4854	-124.674	-161.338	-0.036777	0.080791	-0.977179	-0.978494	-0.046395	46.4854	-0.976431	-1.092250E+13	4.247617E-15	NaN
635	1.000000	0.090122	7.37126e+06	-45339.1	1005.82	-29772.8	0.000000	0.000000	6.090749	-0.001524	NaN	0.000000	0.001617	0.001750	28.0808	0.106428	0.001996	53.3323	85.5442	-168.388	-0.030536	0.088843	-0.969164	-0.970443	-0.001524	53.3323	-0.969142	-8.711747E+12	1.749327E-16	NaN
635	1.000000	0.098118	7.37126e+06	-45339.1	1005.82	-29772.8	0.000000	0.000000	6.098744	-0.005578	NaN	0.000000	0.001594	0.001750	28.081	0.004674	0.002017	2.317588	-94.9013	-167.72	0.025164	0.096872	-0.961168	-0.962414	-0.005578	2.317588	-0.959363	-6.431062E+12	8.673152E-16	NaN
635	1.000000	0.106146	7.37126e+06	-45339.1	1005.82	-29772.8	0.000000	0.000000	6.106769	-0.085703	NaN	0.000000	0.001578	0.001750	28.081	0.029184	0.001923	15.177	119.269	-171.078	-0.096688	0.104865	-0.953140	-0.954421	-0.085703	15.177	-0.948905	-4.647932E+12	1.843896E-14	NaN
635	1.000000	0.114129	7.37126e+06	-45339.1	1005.82	-29772.8	0.000000	0.000000	6.114756	-0.006635	NaN	0.000000	0.001586	0.001709	28.0809	0.075226	0.002058	36.5511	73.2215	-164.07	-0.015680	0.112851	-0.945156	-0.946435	-0.006635	36.5511	-0.945020	-4.119673E+12	1.610561E-15	NaN
635	1.000000	0.122141	7.37126e+06	-45339.1	1005.82	-29772.8	0.000000	0.000000	6.122767	-0.023237	NaN	0.000000	0.001622	0.001751	28.081	0.065044	0.001990	32.6859	-141.749	-165.048	0.012169	0.120855	-0.937144	-0.938430	-0.023237	32.6859	-0.936611	-3.172599E+12	7.324242E-15	NaN
635	1.000000	0.130175	7.37126e+06	-45339.1	1005.82	-29772.8	0.000000	0.000000	6.130799	-0.063884	NaN	0.000000	0.001627	0.001729	28.081	0.167575	0.001899	88.2402	127.264	-167.206	-0.030648	0.128829	-0.929111	-0.930457	-0.063884	88.2402	-0.928568	-2.470991E+12	2.585358E-14	NaN
635	1.000000	0.138148	7.37126e+06	-45339.1	1005.82	-29772.8	0.000000	0.000000	6.138775	0.001898	NaN	0.000000	0.001571	0.001734	28.0812	0.095805	0.001951	49.1038	-120.504	-164.795	0.034709	0.136855	-0.921138	-0.922431	0.001898	49.1038	-0.921167	-1.963161E+12	-9.666015E-16	NaN
635	1.000000	0.146123	7.37126e+06	-45339.1	1005.82	-29772.8	0.000000	0.000000	6.146754	0.077434	NaN	0.000000	0.001613	0.001747	28.081	0.044259	0.001935	22.8728	-94.3442	-168.174	-0.019899	0.144901	-0.913162	-0.914385	0.077434	22.8728	-0.915701	-1.656392E+12	-4.674839E-14	NaN
635	1.000000	0.154153	7.37126e+06	-45339.1	1005.82	-29772.8	0.000000	0.000000	6.154780	0.019329	NaN	0.000000	0.001587	0.001743	28.0811	0.026031	0.002076	12.5361	141.907	-169.627	-0.002462	0.152864	-0.905133	-0.906422	0.019329	12.5361	-0.906289	-1.236062E+12	-1.563745E-14	NaN
635	1.000000	0.162139	7.37126e+06	-45339.1	1005.82	-29772.8	0.000000	0.000000	6.162762	-0.105947	NaN	0.000000	0.001603	0.001747	28.081	0.151447	0.002042	74.1605	-56.1506	-167.038	-0.102194	0.160828	-0.897147	-0.898458	-0.105947	74.1605	-0.896075	-8.995579E+11	1.177771E-13	NaN
635	1.000000	0.170178	7.37126e+06	-45339.1	1005.82	-29772.8	0.000000	0.000000	6.170806	0.041285	NaN	0.000000	0.001592	0.001730	28.0811	0.021143	0.001943	10.8823	10.9159	-169.982	0.039375	0.168856	-0.889108	-0.890430	0.041285	10.8823	-0.891953	-7.912589E+11	-5.217609E-14	NaN
635	1.000000	0.178167	7.37126e+06	-45339.1	1005.82	-29772.8	0.000000	0.000000	6.178793	-0.031487	NaN	0.000000	0.001639	0.001728	28.0809	0.083130	0.001977	42.0489	42.6573	-164.949	-0.086974	0.176854	-0.881119	-0.882432	-0.031487	42.0489	-0.880557	-5.549342E+11	5.674030E-14	NaN
635	1.000000	0.186171	7.37126e+06	-45339.1	1005.82	-29772.8	0.000000	0.000000	6.186799	0.018800	NaN	0.000000	0.001594	0.001727	28.0809	0.048697	0.002117	23.0003	-18.62	-163.555	-0.005435	0.184859	-0.873115	-0.874427	0.018800	23.0003	-0.873728	-4.486182E+11	-4.190682E-14	NaN
635	1.000000	0.194194	7.37126e+06	-45339.1	1005.82	-29772.8	0.000000	0.000000	6.194818	-0.070061	NaN	0.000000	0.001614	0.001699	28.0809	0.088819	0.001948	45.6007	29.3022	-168.005	0.037792	0.192878	-0.865092	-0.866408	-0.070061	45.6007	-0.863939	-3.307014E+11	2.118558E-13	NaN
635	1.000000	0.202160	7.37126e+06	-45339.1	1005.82	-29772.8	0.000000	0.000000	6.202787	0.003341	NaN	0.000000	0.001576	0.001767	28.0808	0.126680	0.001957	64.7206	-102.48	-166.809	-0.062609	0.200854	-0.857125	-0.858432	0.003341	64.7206	-0.857164	-2.677529E+11	-1.247691E-14	NaN
635	1.000000	0.210175	7.37126e+06	-45339.1	1005.82	-29772.8	0.000000	0.000000	6.210801	-0.045321	NaN	0.000000	0.001578	0.001769	28.0814	0.052222	0.002084	25.0611	-153.926	-163.892	0.012813	0.208918	-0.849110	-0.850367	-0.045321	25.0611	-0.847754	-1.996744E+11	2.269762E-13	NaN
635	1.000000	0.218219	7.37126e+06	-45339.1	1005.82	-29772.8	0.000000	0.000000	6.218845	-0.021711	NaN	0.000000	0.001643	0.001757	28.082	0.107663	0.002105	51.141	-17.239	-162.998	0.019548	0.216907	-0.841067	-0.842378	-0.021711	51.141	-0.840748	-1.604826E+11	1.352869E-13	NaN
635	1.000000	0.226185	7.37126e+06	-45339.1	1005.82	-29772.8	0.000000	0.000000	6.226812	-0.005674	NaN	0.000000	0.001642	0.001716	28.082	0.031811	0.002102	15.1338	-18.5762	-168.819	-0.043000	0.224877	-0.833101	-0.834409	-0.005674	15.1338	-0.832819	-1.253129E+11	4.527802E-14	NaN
635	1.000000	0.234172	7.37126e+06	-45339.1	1005.82	-29772.8	0.000000	0.000000	6.234798	-0.038321	NaN	0.000000	0.001624	0.001763	28.0822	0.061816	0.001953	31.6495	130.517	-168.616	0.004409	0.232878	-0.825113	-0.826408	-0.038321	31.6495	-0.824205	-9.577041E+10	4.001342E-13	NaN
635	1.000000	0.242178	7.37126e+06	-45339.1	1005.82	-29772.8	0.000000	0.000000	6.242805	-0.013215	NaN	0.000000	0.001630	0.001750	28.0822	0.059994	0.001922	31.2207	76.868	-167.636	0.012281	0.240948	-0.817108	-0.818338	-0.013215	31.2207	-0.816790	-7.597674E+10	1.739412E-13	NaN
635	1.000000	0.250210	7.37126e+06	-45339.1	1005.82	-29772.8	0.000000	0.000000	6.250840	0.065642	NaN	0.000000	0.001669	0.001708	28.082	0.100628	0.001953	51.5144	27.1572	-164.29	0.063909	0.248897	-0.809075	-0.810389	0.065642	51.5144	-0.810031	-6.151662E+10	-1.067056E-12	NaN
635	1.000000	0.258219	7.37126e+06	-45339.1	1005.82	-29772.8	0.000000	0.000000	6.258847	0.029294	NaN	0.000000	0.001600	0.001728	28.0822	0.120904	0.002042	59.2176	115.888	-166.58	-0.033590	0.256882	-0.801067	-0.802404	0.029294	59.2176	-0.801438	-4.703055E+10	-6.228778E-13	NaN
635	1.000000	0.266192	7.37126e+06	-45339.1	1005.82	-29772.8	0.000000	0.000000	6.266818	-0.016426	NaN	0.000000	0.001609	0.001722	28.082	0.033740	0.002056	16.4082	161.932	-166.348	-0.021514	0.264900	-0.793094	-0.794386	-0.016426	16.4082	-0.792343	-3.539170E+10	4.641318E-13	NaN
635	1.000000	0.274199	7.37126e+06	-45339.1	1005.82	-29772.8	0.000000	0.000000	6.274824	-0.060389	NaN	0.000000	0.001622	0.001695	28.0824	0.052911	0.001870	28.2951	-153.019	-167.293	-0.025604	0.272859	-0.785087	-0.786427	-0.060389	28.2951	-0.783486	-2.682848E+10	2.250925E-12	NaN
635	1.000000	0.282216	7.37126e+06	-45339.1	1005.82	-29772.8	0.000000	0.000000	6.282840	-0.056026	NaN	0.000000	0.001629	0.001745	28.0822	0.102153	0.002064	49.4811	-132.279	-165.794	-0.045708	0.280939	-0.777070	-0.778347	-0.056026	49.4811	-0.776221	-2.137335E+10	2.621291E-12	NaN
635	1.000000	0.290223	7.37126e+06	-45339.1	1005.82	-29772.8	0.000000	0.000000	6.290850	0.010677	NaN	0.000000	0.001614	0.001674	28.0823	0.068755	0.002098	32.7693	-71.1957	-161.105	-0.004212	0.288945	-0.769063	-0.770341	0.010677	32.7693	-0.769307	-1.721407E+10	-6.202297E-13	NaN
635	1.000000	0.298232	7.37126e+06	-45339.1	1005.82	-29772.8	0.000000	0.000000	6.298857	-0.055003	NaN	0.000000	0.001604	0.001668	28.0823	0.165720	0.002059	80.4942	-92.695	-160.996	-0.115228	0.296963	-0.761054	-0.762323	-0.055003	80.4942	-0.760541	-1.308178E+10	4.204551E-12	NaN
635	1.000000	0.306218	7.37126e+06	-45339.1	1005.82	-29772.8	0.000000	0.000000	6.306844	-0.044785	NaN	0.000000	0.001601	0.001680	28.0821	0.086851	0.002048	42.4154	165.335	-167.365	-0.068958	0.304944	-0.753067	-0.754342	-0.044785	42.4154	-0.752275	-1.009697E+10	4.435491E-12	NaN
635	1.000000	0.314211	7.37126e+06	-45339.1	1005.82	-29772.8	0.000000	0.000000	6.314839	0.035501	NaN	0.000000	0.001626	0.001656	28.0822	0.136612	0.001919	71.2017	91.2914	-165.034	0.046308	0.312886	-0.745075	-0.746400	0.035501	71.2017	-0.745449	-8.152008E+9	-4.354889E-12	NaN
635	1.000000	0.322230	7.37126e+06	-45339.1	1005.82	-29772.8	0.000000	0.000000	6.322857	0.002099	NaN	0.000000	0.001611	0.001682	28.0822	0.126215	0.002040	61.8704	-71.4664	-164.799	0.044496	0.320926	-0.737055	-0.738359	0.002099	61.8704	-0.737081	-6.270368E+9	-3.347757E-13	NaN
635	1.000000	0.330240	7.37126e+06	-45339.1	1005.82	-29772.8	0.000000	0.000000	6.330867	0.001219	NaN	0.000000	0.001631	0.001662	28.082	0.091178	0.002020	45.1428	161.728	-167.626	-0.080922	0.328970	-0.729046	-0.730315	0.001219	45.1428	-0.729066	-4.876234E+9	-2.500140E-13	NaN
635	1.000000	0.338266	7.37126e+06	-45339.1	1005.82	-29772.8	0.000000	0.000000	6.338895	0.030807	NaN	0.000000	0.001605	0.001700	28.0823	0.039158	0.002025	19.3345	-161.984	-168.969	0.065614	0.336963	-0.721019	-0.722322	0.030807	19.3345	-0.722214	-3.932526E+9	-7.833954E-12	NaN
635	1.000000	0.346256	7.37126e+06	-45339.1	1005.82	-29772.8	0.000000	0.000000	6.346881	-0.049592	NaN	0.000000	0.001617	0.001677	28.0817	0.076018	0.001991	38.1777	-88.3484	-161.884	-0.136497	0.344984	-0.713029	-0.714302	-0.049592	38.1777	-0.712055	-2.858199E+9	1.735063E-11	NaN
635	1.000000	0.354271	7.37126e+06	-45339.1	1005.82	-29772.8	0.000000	0.000000	6.354896	-0.031038	NaN	0.000000	0.001584	0.001701	28.0806	0.101719	0.001972	51.593	57.1946	-167.052	-0.009933	0.352952	-0.705015	-0.706334	-0.031038	51.593	-0.704564	-2.258644E+9	1.374169E-11	NaN
635	1.000000	0.362277	7.37126e+06	-45339.1	1005.82	-29772.8	0.000000	0.000000	6.362900	-0.092368	NaN	0.000000	0.001613	0.001700	28.0809	0.040252	0.002008	20.0431	92.8001	-169.725	-0.056299	0.360976	-0.697008	-0.698309	-0.092368	20.0431	-0.693552	-1.597554E+9	5.781825E-11	NaN
635	1.000000	0.370244	7.37126e+06	-45339.1	1005.82	-29772.8	0.000000	0.000000	6.370866	-0.100914	NaN	0.000000	0.001608	0.001695	28.0809	0.061717	0.001973	31.2838	-13.0965	-164.758	-0.101105	0.368948	-0.689042	-0.690338	-0.100914	31.2838	-0.686623	-1.284572E+9	7.855816E-11	NaN
635	1.000000	0.378226	7.37126e+06	-45339.1	1005.82	-29772.8	0.000000	0.000000	6.378852	-0.005088	NaN	0.000000	0.001607	0.001693	28.0806	0.061563	0.001964	31.3453	142.707	-169.225	0.037143	0.376972	-0.681060	-0.682313	-0.005088	31.3453	-0.680938	-1.074089E+9	4.737385E-12	NaN
635	1.000000	0.386262	7.37126e+06	-45339.1	1005.82	-29772.8	0.000000	0.000000	6.386889	0.023210	NaN	0.000000	0.001645	0.001662	28.0808	0.059225	0.002055	28.8217	-156.842	-163.975	-7.217768E-5	0.384947	-0.673024	-0.674339	0.023210	28.8217	-0.673628	-8.531820E+8	-2.720413E-11	NaN
635	1.000000	0.394266	7.37126e+06	-45339.1	1005.82	-29772.8	0.000000	0.000000	6.394894	0.019948	NaN	0.000000	0.001635	0.001681	28.0808	0.010622	0.002154	4.931804	52.3146	-167.672	-0.002907	0.392950	-0.665020	-0.666335	0.019948	4.931804	-0.668054	-7.157277E+8	-2.787096E-11	NaN
635	1.000000	0.402279	7.37126e+06	-45339.1	1005.82	-29772.8	0.000000	0.000000	6.402905	-0.023110	NaN	0.000000	0.001617	0.001677	28.0809	0.078558	0.002012	39.0479	175.341	-163.914	-0.034715	0.400953	-0.657007	-0.658332	-0.023110	39.0479	-0.656563	-4.981793E+8	4.638823E-11	NaN
635	1.000000	0.410263	7.37126e+06	-45339.1	1005.82	-29772.8	0.000000	0.000000	6.410890	0.014634	NaN	0.000000	0.001622	0.001654	28.0808	0.117583	0.001922	61.1629	-45.4765	-165.59	-0.019300	0.408949	-0.649023	-0.650337	0.014634	61.1629	-0.649202	-3.949132E+8	-3.705560E-11	NaN
635	1.000000	0.418269	7.37126e+06	-45339.1	1005.82	-29772.8	0.000000	0.000000	6.418894	-0.065187	NaN	0.000000	0.001639	0.001662	28.0807	0.047984	0.002064	23.2489	-156.779	-168.228	-0.110528	0.416947	-0.641016	-0.642338	-0.065187	23.2489	-0.638913	-2.853512E+8	2.284455E-10	NaN
635	1.000000	0.426251	7.37126e+06	-45339.1	1005.82	-29772.8	0.000000	0.000000	6.426878	-0.009843	NaN	0.000000	0.001621	0.001639	28.0808	0.064791	0.002049	31.6264	157.291	-167.766	-0.116893	0.424972	-0.633034	-0.634314	-0.009843	31.6264	-0.632801	-2.352244E+8	4.184348E-11	NaN
635	1.000000	0.434274	7.37126e+06	-45339.1	1005.82	-29772.8	0.000000	0.000000	6.434902	0.028313	NaN	0.000000	0.001634	0.001663	28.0808	0.068595	0.001867	36.743	-79.7182	-164.664	0.034915	0.432972	-0.625011	-0.626313	0.028313	36.743	-0.625589	-1.872585E+8	-1.511959E-10	NaN
635	1.000000	0.442289	7.37126e+06	-45339.1	1005.82	-29772.8	0.000000	0.000000	6.442913	-0.067246	NaN	0.000000	0.001591	0.001687	28.0808	0.074685	0.001945	38.3988	9.289600	-166.219	0.070286	0.440983	-0.616997	-0.618303	-0.067246	38.3988	-0.615684	-1.368649E+8	4.913295E-10	NaN
635	1.000000	0.450288	7.37126e+06	-45339.1	1005.82	-29772.8	0.000000	0.000000	6.450914	-0.035717	NaN	0.000000	0.001615	0.001655	28.0808	0.087923	0.001943	45.2573	57.5185	-163.962	-0.103662	0.448964	-0.608997	-0.610322	-0.035717	45.2573	-0.608406	-1.086866E+8	3.286210E-10	NaN
635	1.000000	0.458288	7.37126e+06	-45339.1	1005.82	-29772.8	0.000000	0.000000	6.458916	0.044571	NaN	0.000000	0.001653	0.001672	28.0809	0.136738	0.001947	70.2241	-43.7771	-168.238	0.065861	0.456936	-0.600998	-0.602350	0.044571	70.2241	-0.601474	-8.724906E+7	-5.108496E-10	NaN
635	1.000000	0.466317	7.37126e+06	-45339.1	1005.82	-29772.8	0.000000	0.000000	6.466942	-0.041232	NaN	0.000000	0.001655	0.001689	28.0812	0.099800	0.002010	49.6617	-144.692	-167.637	-0.009232	0.464986	-0.592969	-0.594300	-0.041232	49.6617	-0.592346	-6.531427E+7	6.312820E-10	NaN
635	1.000000	0.474318	7.37126e+06	-45339.1	1005.82	-29772.8	0.000000	0.000000	6.474948	0.067252	NaN	0.000000	0.001610	0.001687	28.081	0.033929	0.002044	16.602	118.757	-166.67	0.035592	0.472954	-0.584968	-0.586332	0.067252	16.602	-0.588006	-5.690773E+7	-1.181772E-9	NaN
635	1.000000	0.482330	7.37126e+06	-45339.1	1005.82	-29772.8	0.000000	0.000000	6.482956	-0.008007	NaN	0.000000	0.001611	0.001705	28.081	0.085621	0.002061	41.5355	-135.936	-164.654	-0.028725	0.480999	-0.576956	-0.578287	-0.008007	41.5355	-0.576812	-3.987601E+7	2.008032E-10	NaN
635	1.000000	0.490306	7.37126e+06	-45339.1	1005.82	-29772.8	0.000000	0.000000	6.490932	-0.026001	NaN	0.000000	0.001580	0.001668	28.0821	0.047055	0.002051	22.9446	-67.5283	-168.856	0.047444	0.488999	-0.568980	-0.570287	-0.026001	22.9446	-0.568130	-3.025462E+7	8.594179E-10	NaN
635	1.000000	0.498310	7.37126e+06	-45339.1	1005.82	-29772.8	0.000000	0.000000	6.498936	-0.033747	NaN	0.000000	0.001604	0.001687	28.082	0.116676	0.002176	53.6225	47.3853	-165.909	0.025055	0.497012	-0.560975	-0.562274	-0.033747	53.6225	-0.560503	-2.373234E+7	1.421975E-9	NaN
635	1.000000	0.506311	7.37126e+06	-45339.1	1005.82	-29772.8	0.000000	0.000000	6.506937	-0.035044	NaN	0.000000	0.001658	0.001673	28.0822	0.058142	0.002071	28.0764	85.6981	-164.713	-0.041218	0.504994	-0.552975	-0.554291	-0.035044	28.0764	-0.552039	-1.812129E+7	1.933873E-9	NaN
635	1.000000	0.514302	7.37126e+06	-45339.1	1005.82	-29772.8	0.000000	0.000000	6.514929	0.008776	NaN	0.000000	0.001596	0.001695	28.0821	0.030297	0.001944	15.5833	-68.9554	-164.175	0.057638	0.512999	-0.544984	-0.546287	0.008776	15.5833	-0.545406	-1.466582E+7	-5.984031E-10	NaN
635	1.000000	0.522338	7.37126e+06	-45339.1	1005.82	-29772.8	0.000000	0.000000	6.522964	-0.028850	NaN	0.000000	0.001605	0.001685	28.0823	0.064588	0.002094	30.8468	-43.4117	-165.7	-0.054759	0.521021	-0.536948	-0.538265	-0.028850	30.8468	-0.536246	-1.094681E+7	2.635453E-9	NaN
635	1.000000	0.530333	7.37126e+06	-45339.1	1005.82	-29772.8	0.000000	0.000000	6.530961	0.030158	NaN	0.000000	0.001628	0.001665	28.0821	0.034046	0.001959	17.3816	-43.0606	-168.336	0.031467	0.529025	-0.528953	-0.530261	0.030158	17.3816	-0.530254	-9.03866e+06	-3.336532E-9	NaN
635	1.000000	0.538320	7.37126e+06	-45339.1	1005.82	-29772.8	0.000000	0.000000	6.538943	-0.099131	NaN	0.000000	0.001632	0.001663	28.0821	0.014926	0.001891	7.892805	18.4746	-165.583	-0.062336	0.537010	-0.520966	-0.522276	-0.099131	7.892805	-0.511546	-4.96538e+06	1.996440E-8	NaN
635	1.000000	0.546341	7.37126e+06	-45339.1	1005.82	-29772.8	0.000000	0.000000	6.546965	-0.055181	NaN	0.000000	0.001672	0.001691	28.0822	0.041275	0.002079	19.8527	61.267	-165.055	0.015222	0.545044	-0.512945	-0.514241	-0.055181	19.8527	-0.510860	-4.85735e+06	1.136041E-8	NaN
635	1.000000	0.554351	7.37127e+06	-45339.1	1005.82	-29772.8	0.000000	0.000000	6.554978	-0.005853	NaN	0.000000	0.001634	0.001686	28.0823	0.069719	0.001911	36.4795	132.132	-166.957	0.025641	0.553039	-0.504934	-0.506247	-0.005853	36.4795	-0.504814	-4.00084e+06	1.462978E-9	NaN
635	1.000000	0.562343	7.37127e+06	-45339.1	1005.82	-29772.8	0.000000	0.000000	6.562969	-0.010454	NaN	0.000000	0.001665	0.001688	28.0825	0.050066	0.002076	24.1187	132.996	-166.026	-0.060512	0.561073	-0.496943	-0.498213	-0.010454	24.1187	-0.496618	-3.07485e+06	3.399797E-9	NaN
635	1.000000	0.570339	7.37127e+06	-45339.1	1005.82	-29772.8	0.000000	0.000000	6.570966	0.012109	NaN	0.000000	0.001659	0.001691	28.0826	0.068191	0.002094	32.5577	-89.5881	-164.845	0.012476	0.569089	-0.488947	-0.490196	0.012109	32.5577	-0.489226	-2.42425e+06	-4.995071E-9	NaN
635	1.000000	0.578376	7.37127e+06	-45339.1	1005.82	-29772.8	0.000000	0.000000	6.579001	-0.045015	NaN	0.000000	0.001651	0.001721	28.0825	0.079581	0.001976	40.2677	-9.137719	-167.554	0.001643	0.577043	-0.480910	-0.482243	-0.045015	40.2677	-0.480072	-1.80522e+06	2.493580E-8	NaN
635	1.000000	0.586350	7.37127e+06	-45339.1	1005.82	-29772.8	0.000000	0.000000	6.586976	-0.017961	NaN	0.000000	0.001639	0.001684	28.0825	0.077621	0.002060	37.6715	125.203	-165.813	-0.042805	0.585036	-0.472936	-0.474250	-0.017961	37.6715	-0.472578	-1.41762e+06	1.266953E-8	NaN
635	1.000000	0.594351	7.37127e+06	-45339.1	1005.82	-29772.8	0.000000	0.000000	6.594975	-0.090311	NaN	0.000000	0.001625	0.001655	28.0824	0.087706	0.001933	45.3702	178.285	-167.537	-0.060548	0.593063	-0.464934	-0.466222	-0.090311	45.3702	-0.463441	-1.05527e+06	8.558136E-8	NaN
635	1.000000	0.602347	7.37127e+06	-45339.1	1005.82	-29772.8	0.000000	0.000000	6.602974	-0.014103	NaN	0.000000	0.001655	0.001693	28.0823	0.066491	0.001996	33.3165	-86.0756	-166.923	0.033800	0.601064	-0.456938	-0.458221	-0.014103	33.3165	-0.456621	-846282	1.666490E-8	NaN
635	1.000000	0.610381	7.37127e+06	-45339.1	1005.82	-29772.8	0.000000	0.000000	6.611009	0.023752	NaN	0.000000	0.001591	0.001690	28.0822	0.040929	0.002131	19.2094	143.434	-167.896	-0.030988	0.609039	-0.448905	-0.450246	0.023752	19.2094	-0.449832	-679171	-3.497156E-8	NaN
635	1.000000	0.618358	7.37127e+06	-45339.1	1005.82	-29772.8	0.000000	0.000000	6.618985	0.013367	NaN	0.000000	0.001627	0.001650	28.0823	0.021587	0.002054	10.5112	86.6848	-164.286	0.016753	0.617075	-0.440928	-0.442210	0.013367	10.5112	-0.441882	-524706	-2.547512E-8	NaN
635	1.000000	0.626380	7.37127e+06	-45339.1	1005.82	-29772.8	0.000000	0.000000	6.627006	-0.033817	NaN	0.000000	0.001618	0.001679	28.0811	0.042439	0.002109	20.1217	48.687	-166.422	-0.052831	0.625013	-0.432906	-0.434272	-0.033817	20.1217	-0.431645	-376126	8.990916E-8	NaN
635	1.000000	0.634369	7.37127e+06	-45339.1	1005.82	-29772.8	0.000000	0.000000	6.634994	-0.045449	NaN	0.000000	0.001606	0.001696	28.0808	0.022342	0.001980	11.2836	45.6352	-166.46	0.015022	0.632990	-0.424917	-0.426295	-0.045449	11.2836	-0.421896	-273712	1.660464E-7	NaN
635	1.000000	0.642368	7.37127e+06	-45339.1	1005.82	-29772.8	0.000000	0.000000	6.642994	-0.014935	NaN	0.000000	0.001610	0.001688	28.0808	0.078765	0.001945	40.4958	174.628	-166.037	0.031672	0.641013	-0.416918	-0.418273	-0.014935	40.4958	-0.416641	-230547	6.477954E-8	NaN
635	1.000000	0.650379	7.37127e+06	-45339.1	1005.82	-29772.8	0.000000	0.000000	6.651005	-0.006711	NaN	0.000000	0.001631	0.001676	28.0809	0.090012	0.001994	45.1501	113.912	-166.314	0.032583	0.649080	-0.408907	-0.410206	-0.006711	45.1501	-0.408796	-178349	3.762872E-8	NaN
635	1.000000	0.658383	7.37127e+06	-45339.1	1005.82	-29772.8	0.000000	0.000000	6.659008	-0.050416	NaN	0.000000	0.001607	0.001664	28.0808	0.074945	0.001988	37.6907	-81.2361	-166.461	-0.028465	0.657062	-0.400902	-0.402224	-0.050416	37.6907	-0.399899	-133215	3.784546E-7	NaN
635	1.000000	0.666371	7.37127e+06	-45339.1	1005.82	-29772.8	0.000000	0.000000	6.666998	0.010433	NaN	0.000000	0.001649	0.001647	28.0808	0.028663	0.001987	14.4277	-21.5555	-165.506	0.021703	0.665114	-0.392915	-0.394172	0.010433	14.4277	-0.393457	-107794	-9.678470E-8	NaN
635	1.000000	0.674376	7.37127e+06	-45339.1	1005.82	-29772.8	0.000000	0.000000	6.675003	0.006760	NaN	0.000000	0.001699	0.001682	28.0809	0.093501	0.001830	51.0834	-134.774	-162.541	-0.007715	0.673089	-0.384910	-0.386197	0.006760	51.0834	-0.385009	-81606	-8.283091E-8	NaN
635	1.000000	0.682405	7.37127e+06	-45339.1	1005.82	-29772.8	0.000000	0.000000	6.683033	0.015832	NaN	0.000000	0.001652	0.001672	28.0806	0.077079	0.001982	38.8951	-23.6899	-168.773	0.020200	0.681066	-0.376881	-0.378220	0.015832	38.8951	-0.377186	-63020.7	-2.512214E-7	NaN
635	1.000000	0.690372	7.37127e+06	-45339.1	1005.82	-29772.8	0.000000	0.000000	6.691001	0.045889	NaN	0.000000	0.001675	0.001681	28.0805	0.092994	0.002031	45.7852	65.1391	-167.582	0.056765	0.689109	-0.368914	-0.370177	0.045889	45.7852	-0.369665	-49125.6	-9.341124E-7	NaN
635	1.000000	0.698414	7.37127e+06	-45339.1	1005.82	-29772.8	0.000000	0.000000	6.699040	-0.020260	NaN	0.000000	0.001692	0.001717	28.0805	0.039707	0.002006	19.7968	-86.1632	-166.105	0.057586	0.697082	-0.360871	-0.362203	-0.020260	19.7968	-0.360104	-35755.9	5.666178E-7	NaN
635	1.000000	0.706420	7.37127e+06	-45339.1	1005.82	-29772.8	0.000000	0.000000	6.707044	-0.072459	NaN	0.000000	0.001663	0.001715	28.0804	0.032003	0.001898	16.8645	161.805	-166.455	0.018268	0.705096	-0.352865	-0.354190	-0.072459	16.8645	-0.349643	-25224.3	2.872584E-6	NaN
635	1.000000	0.714405	7.37127e+06	-45339.1	1005.82	-29772.8	0.000000	0.000000	6.715031	-0.036377	NaN	0.000000	0.001648	0.001666	28.0809	0.067652	0.001921	35.2107	-109.662	-167.98	-0.031464	0.713098	-0.344880	-0.346188	-0.036377	35.2107	-0.344106	-20957.7	1.735752E-6	NaN
635	1.000000	0.722408	7.37127e+06	-45339.1	1005.82	-29772.8	0.000000	0.000000	6.723035	-0.014868	NaN	0.000000	0.001677	0.001625	28.0806	0.072909	0.001978	36.8682	-68.2593	-164.4	-0.016064	0.721093	-0.336877	-0.338193	-0.014868	36.8682	-0.336575	-16277.6	9.134182E-7	NaN
635	1.000000	0.730378	7.37127e+06	-45339.1	1005.82	-29772.8	0.000000	0.000000	6.731005	-0.015470	NaN	0.000000	0.001649	0.001687	28.0807	0.125020	0.001982	63.072	63.6896	-164.393	-0.060618	0.729081	-0.328908	-0.330205	-0.015470	63.072	-0.328724	-12495.4	1.238076E-6	NaN
635	1.000000	0.738394	7.37127e+06	-45339.1	1005.82	-29772.8	0.000000	0.000000	6.739021	-0.016979	NaN	0.000000	0.001708	0.001670	28.0806	0.085931	0.001949	44.0818	-66.3143	-168.726	-0.016509	0.737138	-0.320891	-0.322148	-0.016979	44.0818	-0.320602	-9495.19	1.788219E-6	NaN
635	1.000000	0.746414	7.37127e+06	-45339.1	1005.82	-29772.8	0.000000	0.000000	6.747041	-0.003445	NaN	0.000000	0.001683	0.001649	28.0805	0.097027	0.002089	46.436	-12.2444	-164.725	0.007239	0.745118	-0.312872	-0.314168	-0.003445	46.436	-0.312816	-7289.53	4.725855E-7	NaN
635	1.000000	0.754398	7.37127e+06	-45339.1	1005.82	-29772.8	0.000000	0.000000	6.755024	-0.019318	NaN	0.000000	0.001680	0.001684	28.0805	0.079550	0.001983	40.1177	-77.8017	-168.45	0.031010	0.753127	-0.304888	-0.306158	-0.019318	40.1177	-0.304527	-5494.54	3.515934E-6	NaN
635	1.000000	0.762434	7.37127e+06	-45339.1	1005.82	-29772.8	0.000000	0.000000	6.763061	-0.003100	NaN	0.000000	0.001687	0.001699	28.0822	0.093312	0.002098	44.4833	60.6898	-164.473	0.019079	0.761157	-0.296851	-0.298129	-0.003100	44.4833	-0.296799	-4216.37	7.351652E-7	NaN
635	1.000000	0.770401	7.37127e+06	-45339.1	1005.82	-29772.8	0.000000	0.000000	6.771026	-0.042185	NaN	0.000000	0.001689	0.001700	28.0817	0.044872	0.002060	21.7802	45.912	-168.42	-0.050219	0.769118	-0.288885	-0.290168	-0.042185	21.7802	-0.287432	-3053.48	1.381531E-5	NaN
635	1.000000	0.778413	7.37127e+06	-45339.1	1005.82	-29772.8	0.000000	0.000000	6.779039	-0.016604	NaN	0.000000	0.001713	0.001695	28.0819	0.006035	0.001898	3.179618	-23.2163	-165.86	-0.005032	0.777146	-0.280873	-0.282140	-0.016604	3.179618	-0.276956	-2123.23	7.820330E-6	NaN
635	1.000000	0.786467	7.37127e+06	-45339.1	1005.82	-29772.8	0.000000	0.000000	6.787092	-0.058378	NaN	0.000000	0.001714	0.001704	28.0819	0.030577	0.002095	14.596	-18.822	-169.49	-0.068115	0.785072	-0.272819	-0.274214	-0.058378	14.596	-0.269819	-1654.97	3.527454E-5	NaN
635	1.000000	0.794447	7.37127e+06	-45339.1	1005.82	-29772.8	0.000000	0.000000	6.795073	-0.032367	NaN	0.000000	0.001716	0.001722	28.0817	0.078258	0.001957	39.9916	-151.501	-163.151	-0.079154	0.793135	-0.264839	-0.266151	-0.032367	39.9916	-0.264232	-1360.38	2.379269E-5	NaN
635	1.000000	0.802438	7.37127e+06	-45339.1	1005.82	-29772.8	0.000000	0.000000	6.803063	-0.031909	NaN	0.000000	0.001729	0.001707	28.0817	0.050639	0.002039	24.8375	109.585	-165.606	-0.082007	0.801154	-0.256848	-0.258131	-0.031909	24.8375	-0.255885	-1013.27	3.149125E-5	NaN
635	1.000000	0.810424	7.37127e+06	-45339.1	1005.82	-29772.8	0.000000	0.000000	6.811051	-0.016503	NaN	0.000000	0.001689	0.001705	28.0818	0.043168	0.001979	21.8102	57.7801	-165.549	-0.065182	0.809153	-0.248861	-0.250133	-0.016503	21.8102	-0.248294	-773.676	2.133043E-5	NaN
635	1.000000	0.818423	7.37127e+06	-45339.1	1005.82	-29772.8	0.000000	0.000000	6.819046	-0.084544	NaN	0.000000	0.001698	0.001701	28.082	0.069955	0.002037	34.348	73.4075	-166.749	-0.048091	0.817123	-0.240863	-0.242163	-0.084544	34.348	-0.239017	-554.871	0.000152	NaN
635	1.000000	0.826432	7.37127e+06	-45339.1	1005.82	-29772.8	0.000000	0.000000	6.827057	-0.066192	NaN	0.000000	0.001728	0.001738	28.082	0.035702	0.002086	17.1182	-102.95	-165.233	-0.090371	0.825158	-0.232853	-0.234128	-0.066192	17.1182	-0.229953	-399.742	0.000166	NaN
635	1.000000	0.834449	7.37127e+06	-45339.1	1005.82	-29772.8	0.000000	0.000000	6.835076	-0.011383	NaN	0.000000	0.001640	0.001689	28.0818	0.135612	0.002176	62.3264	-59.3314	-164.19	-0.038005	0.833217	-0.224837	-0.226069	-0.011383	62.3264	-0.224700	-330.039	3.448883E-5	NaN
635	1.000000	0.842456	7.37127e+06	-45339.1	1005.82	-29772.8	0.000000	0.000000	6.843081	-0.041850	NaN	0.000000	0.001640	0.001684	28.0818	0.058471	0.002096	27.8938	149.692	-164.728	0.023038	0.841154	-0.216830	-0.218131	-0.041850	27.8938	-0.215705	-237.051	0.000177	NaN
635	1.000000	0.850467	7.37127e+06	-45339.1	1005.82	-29772.8	0.000000	0.000000	6.851090	-0.078498	NaN	0.000000	0.001606	0.001703	28.0816	0.039760	0.002056	19.3376	-102.034	-165.241	-0.080471	0.849159	-0.208819	-0.210127	-0.078498	19.3376	-0.205775	-163.752	0.000479	NaN
635	1.000000	0.858452	7.37127e+06	-45339.1	1005.82	-29772.8	0.000000	0.000000	6.859078	-0.033560	NaN	0.000000	0.001606	0.001719	28.0818	0.023406	0.002002	11.6919	35.619	-167.331	-0.165299	0.857160	-0.200833	-0.202126	-0.033560	11.6919	-0.198680	-125.312	0.000268	NaN
635	1.000000	0.866472	7.37127e+06	-45339.1	1005.82	-29772.8	0.000000	0.000000	6.867096	-0.072765	NaN	0.000000	0.001596	0.001700	28.0825	0.055460	0.001951	28.4322	101.883	-166.339	-0.058133	0.865197	-0.192814	-0.194089	-0.072765	28.4322	-0.190895	-93.1022	0.000782	NaN
635	1.000000	0.874454	7.37127e+06	-45339.1	1005.82	-29772.8	0.000000	0.000000	6.875080	-0.023064	NaN	0.000000	0.001623	0.001702	28.0818	0.082622	0.001999	41.3255	-69.6568	-165.178	-0.004561	0.873136	-0.184832	-0.186150	-0.023064	41.3255	-0.184414	-72.4842	0.000318	NaN
635	1.000000	0.882470	7.37127e+06	-45339.1	1005.82	-29772.8	0.000000	0.000000	6.883098	0.021868	NaN	0.000000	0.001594	0.001679	28.0819	0.010072	0.002057	4.895832	-116.23	-165.515	-0.053790	0.881136	-0.176816	-0.178150	0.021868	4.895832	-0.180166	-61.4164	-0.000356	NaN
635	1.000000	0.890467	7.37127e+06	-45339.1	1005.82	-29772.8	0.000000	0.000000	6.891094	0.013867	NaN	0.000000	0.001560	0.001661	28.0816	0.046588	0.002022	23.0457	141.861	-167.96	-0.008386	0.889178	-0.168819	-0.170107	0.013867	23.0457	-0.169270	-39.8962	-0.000348	NaN
635	1.000000	0.898460	7.37127e+06	-45339.1	1005.82	-29772.8	0.000000	0.000000	6.899082	-0.116556	NaN	0.000000	0.001562	0.001694	28.0805	0.103269	0.002099	49.2094	49.6689	-165.427	-0.064839	0.897224	-0.160826	-0.162062	-0.116556	49.2094	-0.159050	-26.3681	0.004420	NaN
635	1.000000	0.906487	7.37127e+06	-45339.1	1005.82	-29772.8	0.000000	0.000000	6.907111	-0.075322	NaN	0.000000	0.001582	0.001708	28.0807	0.130228	0.002009	64.8245	141.446	-165.651	-0.049283	0.905206	-0.152798	-0.154080	-0.075322	64.8245	-0.151927	-19.6362	0.003836	NaN
635	1.000000	0.914468	7.37127e+06	-45339.1	1005.82	-29772.8	0.000000	0.000000	6.915092	-0.063713	NaN	0.000000	0.001579	0.001741	28.0806	0.117378	0.002022	58.0609	-34.0538	-163.704	-0.018050	0.913165	-0.144818	-0.146121	-0.063713	58.0609	-0.143995	-14.0457	0.004536	NaN
635	1.000000	0.922500	7.37127e+06	-45339.1	1005.82	-29772.8	0.000000	0.000000	6.923130	0.077331	NaN	0.000000	0.001578	0.001757	28.0807	0.104670	0.001923	54.4167	155.959	-163.236	0.053924	0.921170	-0.136786	-0.138115	0.077331	54.4167	-0.137851	-10.7763	-0.007176	NaN
635	1.000000	0.930489	7.37127e+06	-45339.1	1005.82	-29772.8	0.000000	0.000000	6.931113	-0.060271	NaN	0.000000	0.001607	0.001710	28.0805	0.086839	0.002024	42.9042	-28.1477	-165.581	-0.072649	0.929178	-0.128797	-0.130108	-0.060271	42.9042	-0.127743	-6.886440	0.008752	NaN
635	1.000000	0.938464	7.37127e+06	-45339.1	1005.82	-29772.8	0.000000	0.000000	6.939088	-0.064137	NaN	0.000000	0.001579	0.001741	28.0805	0.030996	0.001885	16.4413	-107.594	-166.846	-0.045912	0.937200	-0.120822	-0.122085	-0.064137	16.4413	-0.117896	-4.379564	0.014645	NaN
635	1.000000	0.946509	7.37127e+06	-45339.1	1005.82	-29772.8	0.000000	0.000000	6.947133	-0.071092	NaN	0.000000	0.001640	0.001683	28.0809	0.042389	0.002074	20.4347	-49.0823	-164.712	-0.069949	0.945166	-0.112777	-0.114120	-0.071092	20.4347	-0.110167	-3.029713	0.023465	NaN
635	1.000000	0.954491	7.37127e+06	-45339.1	1005.82	-29772.8	0.000000	0.000000	6.955118	0.002095	NaN	0.000000	0.001606	0.001709	28.0807	0.099737	0.002014	49.5307	-44.7802	-166.495	-0.052221	0.953139	-0.104794	-0.106146	0.002095	49.5307	-0.104826	-2.330319	-0.000899	NaN
635	1.000000	0.962512	7.37127e+06	-45339.1	1005.82	-29772.8	0.000000	0.000000	6.963141	0.040006	NaN	0.000000	0.001607	0.001683	28.0811	0.049183	0.002014	24.4248	-36.1729	-167.506	0.024150	0.961182	-0.096773	-0.098104	0.040006	24.4248	-0.098002	-1.649085	-0.024259	NaN
635	1.000000	0.970537	7.37127e+06	-45339.1	1005.82	-29772.8	0.000000	0.000000	6.971162	-0.028156	NaN	0.000000	0.001620	0.001701	28.0806	0.109031	0.002050	53.1962	-105.664	-163.692	-0.060679	0.969221	-0.088749	-0.090064	-0.028156	53.1962	-0.088352	-0.988465	0.028485	NaN
635	1.000000	0.978503	7.37127e+06	-45339.1	1005.82	-29772.8	0.000000	0.000000	6.979128	-0.046363	NaN	0.000000	0.001616	0.001682	28.0806	0.040419	0.002146	18.8318	69.239	-166.458	-0.029270	0.977204	-0.080783	-0.082082	-0.046363	18.8318	-0.078936	-0.582089	0.079649	NaN
635	1.000000	0.986504	7.37127e+06	-45339.1	1005.82	-29772.8	0.000000	0.000000	6.987130	-0.039162	NaN	0.000000	0.001597	0.001693	28.0808	0.044656	0.002042	21.8678	55.4319	-165.004	0.006569	0.985201	-0.072781	-0.074085	-0.039162	21.8678	-0.071438	-0.372587	0.105107	NaN
635	1.000000	0.994519	7.37127e+06	-45339.1	1005.82	-29772.8	0.000000	0.000000	6.995141	-0.119922	NaN	0.000000	0.001699	0.001696	28.0808	0.011645	0.002040	5.707098	114.109	-166.145	-0.029650	0.993208	-0.064767	-0.066078	-0.119922	5.707098	-0.049007	-0.085145	1.408448	NaN
635	1.000000	1.002535	7.37127e+06	-45339.1	1005.82	-29772.8	0.000000	0.000000	7.003161	-0.017186	NaN	0.000000	0.001677	0.001740	28.0811	0.038193	0.002006	19.0429	-21.4576	-164.167	-0.033396	1.001250	-0.056751	-0.058036	-0.017186	19.0429	-0.056074	-0.138513	0.124073	NaN
635	1.000000	1.010521	7.37127e+06	-45339.1	1005.82	-29772.8	0.000000	0.000000	7.011149	0.033140	NaN	0.000000	0.001664	0.001726	28.0809	0.231679	0.002139	108.303	-164.434	-163.671	0.088594	1.009198	-0.048765	-0.050088	0.033140	108.303	-0.048994	-0.085067	-0.389574	NaN
635	1.000000	1.018551	7.37127e+06	-45339.1	1005.82	-29772.8	0.000000	0.000000	7.019179	0.017920	NaN	0.000000	0.001655	0.001713	28.0808	0.066249	0.001907	34.737	151.748	-166.569	-0.000426	1.017199	-0.040734	-0.042086	0.017920	34.737	-0.041121	-0.048917	-0.366335	NaN
635	1.000000	1.026527	7.37127e+06	-45339.1	1005.82	-29772.8	0.000000	0.000000	7.027151	-0.062903	NaN	0.000000	0.001644	0.001707	28.0808	0.027654	0.002008	13.7718	-69.9484	-166.502	-0.081629	1.025225	-0.032759	-0.034061	-0.062903	13.7718	-0.029333	-0.022053	2.852383	NaN
635	1.000000	1.034523	7.37127e+06	-45339.1	1005.82	-29772.8	0.000000	0.000000	7.035149	-0.037182	NaN	0.000000	0.001640	0.001733	28.0818	0.063415	0.001905	33.2912	36.3023	-166.034	-0.048580	1.033266	-0.024763	-0.026020	-0.037182	33.2912	-0.023925	-0.015820	2.350336	NaN
635	1.000000	1.042532	7.37127e+06	-45339.1	1005.82	-29772.8	0.000000	0.000000	7.043159	-0.003560	NaN	0.000000	0.001703	0.001733	28.082	0.077770	0.002011	38.6809	-45.2934	-165.586	0.036073	1.041283	-0.016754	-0.018003	-0.003560	38.6809	-0.016685	-0.010310	0.345292	NaN
635	1.000000	1.050557	7.37127e+06	-45339.1	1005.82	-29772.8	0.000000	0.000000	7.051184	0.004137	NaN	0.000000	0.001696	0.001690	28.0822	0.033277	0.002070	16.0731	59.4175	-165.69	-0.023102	1.049253	-0.008728	-0.010033	0.004137	16.0731	-0.008921	-0.005768	-0.717281	NaN
635	1.000000	1.058499	7.37127e+06	-45339.1	1005.82	-29772.8	0.000000	0.000000	7.059231	2.542556	NaN	0.000000	0.001767	0.001698	28.0817	3.464343	0.001757	1971.73	9.029819	-169.749	1.378019	1.057254	-0.000787	-0.002032	2.542556	1971.73	-0.001754	-0.001268	-2005.49	NaN
635	2.000000	1.064217	7.37127e+06	-45339.1	1005.82	-29772.8	0.000000	0.000000	7.065208	8.864655	NaN	0.000000	0.001723	0.001722	28.0821	9.889045	0.001760	5618.5	6.876533	-170.428	8.308250	1.063806	0.004931	0.004521	8.864655	5618.5	0.003748	0.003019	2936.17	93422.9
635	2.000000	1.066151	7.37127e+06	-45339.1	1005.82	-29772.8	0.000000	0.000000	7.067226	10.9108	NaN	0.000000	0.001695	0.001703	28.0818	11.5506	0.001770	6525.91	4.503293	-170.291	10.3067	1.065845	0.006865	0.006559	10.9108	6525.91	0.005611	0.004698	2322.36	86986.1
635	2.000000	1.068163	7.37127e+06	-45339.1	1005.82	-29772.8	0.000000	0.000000	7.069355	13.7593	NaN	0.000000	0.001711	0.001737	28.0819	13.9766	0.001709	8179.86	8.614527	-176.529	13.3669	1.067793	0.008877	0.008507	13.7593	8179.86	0.007616	0.006650	2069.08	91645.3
635	2.000000	1.070119	7.37127e+06	-45339.1	1005.82	-29772.8	0.000000	0.000000	7.071450	17.1242	NaN	0.000000	0.001703	0.001735	28.0817	15.4967	0.001590	9748.35	9.438449	-179.217	16.1637	1.069834	0.010833	0.010548	17.1242	9748.35	0.009515	0.008648	1980.14	95773.9
635	2.000000	1.072139	7.37127e+06	-45339.1	1005.82	-29772.8	0.000000	0.000000	7.073596	20.1913	NaN	0.000000	0.001718	0.001751	28.0819	18.4819	0.001674	11038.6	6.024665	-178.447	20.0444	1.071828	0.012853	0.012542	20.1913	11038.6	0.011481	0.010874	1856.77	96712.7
635	2.000000	1.074117	7.37127e+06	-45339.1	1005.82	-29772.8	0.000000	0.000000	7.075771	24.9828	NaN	0.000000	0.001665	0.001730	28.0819	19.8794	0.001709	11631.7	2.261637	-173.542	22.6845	1.073794	0.014831	0.014508	24.9828	11631.7	0.013220	0.012985	1924.01	93260.5
635	2.000000	1.076092	7.37127e+06	-45339.1	1005.82	-29772.8	0.000000	0.000000	7.077907	28.9205	NaN	0.000000	0.001672	0.001720	28.0821	22.8023	0.001753	13010.8	7.643896	179.565	28.3103	1.075776	0.016806	0.016490	28.9205	13010.8	0.015139	0.015471	1869.34	95569.3
635	2.000000	1.078150	7.37127e+06	-45339.1	1005.82	-29772.8	0.000000	0.000000	7.080090	31.9406	NaN	0.000000	0.001680	0.001677	28.082	24.4851	0.001875	13060.6	5.170951	-175.977	32.862	1.077846	0.018865	0.018561	31.9406	13060.6	0.017031	0.018089	1765.73	88721
635	2.000000	1.080117	7.37127e+06	-45339.1	1005.82	-29772.8	0.000000	0.000000	7.082327	38.5226	NaN	0.000000	0.001675	0.001715	28.0819	26.6554	0.001750	15231.4	8.250669	177.612	38.1457	1.079739	0.020831	0.020454	38.5226	15231.4	0.018934	0.020895	1843.61	96269.7
635	2.000000	1.082096	7.37127e+06	-45339.1	1005.82	-29772.8	0.000000	0.000000	7.084462	42.306	NaN	0.000000	0.001719	0.001727	28.0818	28.4599	0.001895	15018.4	7.318961	179.7	42.5699	1.081795	0.022810	0.022510	42.306	15018.4	0.020697	0.023650	1788.83	89223.9
635	2.000000	1.084120	7.37127e+06	-45339.1	1005.82	-29772.8	0.000000	0.000000	7.086842	50.9717	NaN	0.000000	0.001695	0.001715	28.0819	30.3505	0.001786	16989.2	5.544254	-179.564	51.5944	1.083722	0.024834	0.024436	50.9717	16989.2	0.022584	0.026766	1904.34	94875.6
635	2.000000	1.086062	7.37127e+06	-45339.1	1005.82	-29772.8	0.000000	0.000000	7.089032	57.0114	NaN	0.000000	0.001693	0.001719	28.0821	31.4378	0.001770	17760.6	5.255456	179.347	54.8075	1.085699	0.026776	0.026413	57.0114	17760.6	0.024368	0.029876	1908.24	93878.4
635	2.000000	1.088077	7.37127e+06	-45339.1	1005.82	-29772.8	0.000000	0.000000	7.091250	61.9225	NaN	0.000000	0.001706	0.001707	28.0818	34.5683	0.001826	18930	5.178586	178.718	60.4525	1.087766	0.028791	0.028480	61.9225	18930	0.026338	0.033495	1848.71	94500.1
635	2.000000	1.090057	7.37127e+06	-45339.1	1005.82	-29772.8	0.000000	0.000000	7.093608	71.128	NaN	0.000000	0.001698	0.001738	28.0818	35.8914	0.001861	19290	4.871098	-179.995	70.2998	1.089682	0.030771	0.030396	71.128	19290	0.028005	0.036711	1937.5	91982.8
635	2.000000	1.092112	7.37127e+06	-45339.1	1005.82	-29772.8	0.000000	0.000000	7.095880	76.407	NaN	0.000000	0.001729	0.001679	28.0807	38.5966	0.001858	20770.5	4.686239	178.512	77.3636	1.091776	0.032826	0.032490	76.407	20770.5	0.030067	0.040884	1868.89	93852.5
635	2.000000	1.094104	7.37127e+06	-45339.1	1005.82	-29772.8	0.000000	0.000000	7.098330	87.5639	NaN	0.000000	0.001668	0.001695	28.0806	39.4569	0.001724	22891.9	3.234375	179.977	86.2948	1.093708	0.034818	0.034422	87.5639	22891.9	0.031949	0.044881	1951.02	98724.2
635	2.000000	1.096042	7.37127e+06	-45339.1	1005.82	-29772.8	0.000000	0.000000	7.100549	94.3885	NaN	0.000000	0.001677	0.001710	28.0808	41.1094	0.001746	23538.4	5.061992	176.948	93.0165	1.095743	0.036756	0.036457	94.3885	23538.4	0.033749	0.048873	1931.32	97278.8
635	2.000000	1.098035	7.37127e+06	-45339.1	1005.82	-29772.8	0.000000	0.000000	7.102882	102.668	NaN	0.000000	0.001682	0.001691	28.0806	43.8866	0.001861	23577.8	2.821383	-179.866	99.939	1.097807	0.038749	0.038521	102.668	23577.8	0.035483	0.052877	1941.64	93679.3
635	2.000000	1.099997	7.37127e+06	-45339.1	1005.82	-29772.8	0.000000	0.000000	7.105338	114.675	NaN	0.000000	0.001655	0.001698	28.0816	45.0078	0.001785	25214.5	4.272680	177.465	112.25	1.099695	0.040711	0.040409	114.675	25214.5	0.037300	0.057237	2003.52	96291
635	2.000000	1.102027	7.37127e+06	-45339.1	1005.82	-29772.8	0.000000	0.000000	7.107612	120.618	NaN	0.000000	0.001667	0.001676	28.0805	47.3559	0.001731	27357.2	2.375561	178.634	119.482	1.101752	0.042741	0.042466	120.618	27357.2	0.039435	0.062575	1927.58	99918
635	2.000000	1.104067	7.37127e+06	-45339.1	1005.82	-29772.8	0.000000	0.000000	7.110272	135.708	NaN	0.000000	0.001702	0.001710	28.0804	49.5294	0.001710	28959.7	5.446533	175.752	134.416	1.103678	0.044781	0.044392	135.708	28959.7	0.041266	0.067342	2015.2	101958
635	2.000000	1.106068	7.37127e+06	-45339.1	1005.82	-29772.8	0.000000	0.000000	7.112639	144.609	NaN	0.000000	0.001688	0.001693	28.0805	50.9612	0.001728	29490	9.201136	171.372	143.208	1.105618	0.046782	0.046332	144.609	29490	0.043104	0.072297	2000.2	100204
635	2.000000	1.108057	7.37127e+06	-45339.1	1005.82	-29772.8	0.000000	0.000000	7.114808	148.979	NaN	0.000000	0.001723	0.001659	28.0805	53.4574	0.001809	29557	6.997682	173.743	149.027	1.107707	0.048772	0.048421	148.979	29557	0.044991	0.077563	1920.75	96963.3
635	2.000000	1.110051	7.37127e+06	-45339.1	1005.82	-29772.8	0.000000	0.000000	7.117372	162.822	NaN	0.000000	0.001689	0.001710	28.0818	54.5229	0.001720	31703	5.095100	174.911	162.09	1.109682	0.050766	0.050396	162.822	31703	0.046914	0.083113	1959.04	100471
635	2.000000	1.111967	7.37127e+06	-45339.1	1005.82	-29772.8	0.000000	0.000000	7.119686	172.544	NaN	0.000000	0.001691	0.001677	28.0807	55.3935	0.001745	31737.8	3.224627	176.433	168.776	1.111709	0.052681	0.052423	172.544	31737.8	0.048604	0.088146	1957.48	97667.5
635	2.000000	1.114007	7.37127e+06	-45339.1	1005.82	-29772.8	0.000000	0.000000	7.122043	180.238	NaN	0.000000	0.001681	0.001689	28.0807	57.2555	0.001706	33561.9	0.487966	179.53	177.849	1.113815	0.054722	0.054529	180.238	33561.9	0.050694	0.094570	1905.86	99710.8
635	2.000000	1.116052	7.37127e+06	-45339.1	1005.82	-29772.8	0.000000	0.000000	7.124573	192.036	NaN	0.000000	0.001703	0.001683	28.0806	59.2267	0.001823	32485.3	3.157386	176.424	193.858	1.115747	0.056766	0.056462	192.036	32485.3	0.052333	0.099760	1924.98	93968.6
635	2.000000	1.118018	7.37127e+06	-45339.1	1005.82	-29772.8	0.000000	0.000000	7.127056	204.611	NaN	0.000000	0.001658	0.001667	28.0805	61.6901	0.001813	34019.2	6.512725	173.79	203.29	1.117617	0.058732	0.058331	204.611	34019.2	0.054221	0.105906	1932.01	95507.6
635	2.000000	1.120062	7.37127e+06	-45339.1	1005.82	-29772.8	0.000000	0.000000	7.129664	218.316	NaN	0.000000	0.001687	0.001659	28.0808	61.8568	0.001716	36053.8	4.119958	175.331	219.839	1.119663	0.060777	0.060377	218.316	36053.8	0.056235	0.112655	1937.92	98140.7
635	2.000000	1.122000	7.37127e+06	-45339.1	1005.82	-29772.8	0.000000	0.000000	7.131937	226.483	NaN	0.000000	0.001714	0.001688	28.0806	65.8525	0.001869	35236.8	4.127845	175.394	224.18	1.121765	0.062714	0.062480	226.483	35236.8	0.057894	0.118364	1913.44	93575
635	2.000000	1.124019	7.37127e+06	-45339.1	1005.82	-29772.8	0.000000	0.000000	7.134539	240.67	NaN	0.000000	0.001670	0.001671	28.082	66.5684	0.001754	37960	2.060885	176.936	239.866	1.123632	0.064733	0.064347	240.67	37960	0.059978	0.125729	1914.19	97809.5
635	2.000000	1.125994	7.37127e+06	-45339.1	1005.82	-29772.8	0.000000	0.000000	7.137088	254.633	NaN	0.000000	0.001664	0.001732	28.0819	68.4308	0.001695	40366	5.466052	172.752	251.647	1.125676	0.066708	0.066391	254.633	40366	0.061977	0.132992	1914.65	101129
635	2.000000	1.128040	7.37127e+06	-45339.1	1005.82	-29772.8	0.000000	0.000000	7.139309	258.88	NaN	0.000000	0.001663	0.001694	28.082	71.5163	0.001792	39903.1	1.800321	176.145	257.456	1.127936	0.068754	0.068651	258.88	39903.1	0.063889	0.140121	1847.55	97393.3
635	2.000000	1.129916	7.37127e+06	-45339.1	1005.82	-29772.8	0.000000	0.000000	7.141975	278.119	NaN	0.000000	0.001660	0.001691	28.0819	72.3797	0.001779	40677.6	3.916152	174.077	272.25	1.129707	0.070630	0.070421	278.119	40677.6	0.065502	0.146273	1901.37	97173.2
635	2.000000	1.131948	7.37127e+06	-45339.1	1005.82	-29772.8	0.000000	0.000000	7.144615	292.896	NaN	0.000000	0.001671	0.001720	28.0817	74.8517	0.001703	43947	6.962991	170.432	289.305	1.131609	0.072662	0.072323	292.896	43947	0.067664	0.154713	1893.15	102080
635	2.000000	1.134044	7.37127e+06	-45339.1	1005.82	-29772.8	0.000000	0.000000	7.147433	310.441	NaN	0.000000	0.001681	0.001715	28.0816	77.8345	0.001831	42499.6	5.414007	173.151	309.739	1.133679	0.074759	0.074393	310.441	42499.6	0.069280	0.161173	1926.14	96719.1
635	2.000000	1.135930	7.37127e+06	-45339.1	1005.82	-29772.8	0.000000	0.000000	7.149807	322.335	NaN	0.000000	0.001654	0.001737	28.0818	78.2532	0.001816	43091.3	2.448837	175.544	317.084	1.135611	0.076644	0.076325	322.335	43091.3	0.071034	0.168318	1915.03	95961.6
635	2.000000	1.137988	7.37127e+06	-45339.1	1005.82	-29772.8	0.000000	0.000000	7.152379	334.843	NaN	0.000000	0.001659	0.001727	28.0819	81.1308	0.001850	43860.3	5.191510	172.827	332.192	1.137659	0.078702	0.078374	334.843	43860.3	0.072976	0.176404	1898.15	95409.2
635	2.000000	1.139980	7.37127e+06	-45339.1	1005.82	-29772.8	0.000000	0.000000	7.154892	347.496	NaN	0.000000	0.001664	0.001732	28.0819	81.3218	0.001798	45233.8	2.450179	174.959	347.036	1.139716	0.080695	0.080430	347.496	45233.8	0.074933	0.184732	1881.08	96153.5
635	2.000000	1.141970	7.37127e+06	-45339.1	1005.82	-29772.8	0.000000	0.000000	7.157467	361.753	NaN	0.000000	0.001663	0.001698	28.0817	83.2648	0.001730	48135.1	1.712424	175.195	359.201	1.141686	0.082684	0.082401	361.753	48135.1	0.077048	0.193933	1865.36	99864.1
635	2.000000	1.143984	7.37127e+06	-45339.1	1005.82	-29772.8	0.000000	0.000000	7.160169	378.477	NaN	0.000000	0.001681	0.001703	28.0818	86.1331	0.001827	47135.7	5.646791	172.172	374.148	1.143566	0.084698	0.084280	378.477	47135.7	0.078676	0.201161	1881.47	96017.7
635	2.000000	1.145919	7.37127e+06	-45339.1	1005.82	-29772.8	0.000000	0.000000	7.162670	392.262	NaN	0.000000	0.001704	0.001675	28.0821	87.9102	0.001798	48892.7	4.607433	172.57	388.345	1.145572	0.086633	0.086286	392.262	48892.7	0.080616	0.209932	1868.52	97493.9
635	2.000000	1.147931	7.37127e+06	-45339.1	1005.82	-29772.8	0.000000	0.000000	7.165294	407.142	NaN	0.000000	0.001695	0.001660	28.082	89.9455	0.001859	48382.9	4.017443	172.853	402.97	1.147700	0.088645	0.088414	407.142	48382.9	0.082334	0.217848	1868.93	94708.4
635	2.000000	1.149897	7.37127e+06	-45339.1	1005.82	-29772.8	0.000000	0.000000	7.167947	423.837	NaN	0.000000	0.001707	0.001697	28.0817	90.8241	0.001722	52744	6.467575	170.123	417.58	1.149602	0.090611	0.090316	423.837	52744	0.084585	0.228424	1855.49	100827
635	2.000000	1.151909	7.37127e+06	-45339.1	1005.82	-29772.8	0.000000	0.000000	7.170533	437.804	NaN	0.000000	0.001709	0.001703	28.0818	93.4041	0.001860	50230.2	0.943099	176.165	433.113	1.151598	0.092624	0.092312	437.804	50230.2	0.086087	0.235613	1858.15	94545
635	2.000000	1.153995	7.37127e+06	-45339.1	1005.82	-29772.8	0.000000	0.000000	7.173172	451.25	NaN	0.000000	0.001707	0.001666	28.0818	96.8652	0.001869	51835.8	8.097688	168.871	450.845	1.153625	0.094710	0.094339	451.25	51835.8	0.088181	0.245807	1835.79	95522.4
635	2.000000	1.155932	7.37127e+06	-45339.1	1005.82	-29772.8	0.000000	0.000000	7.175966	472.097	NaN	0.000000	0.001732	0.001668	28.0817	96.6455	0.001770	54603.9	4.200011	172.408	470.234	1.155663	0.096647	0.096377	472.097	54603.9	0.090162	0.255641	1846.71	98669.1
635	2.000000	1.157923	7.37127e+06	-45339.1	1005.82	-29772.8	0.000000	0.000000	7.178465	484.453	NaN	0.000000	0.001744	0.001645	28.0806	100.508	0.001913	52541.8	5.277728	171.593	481.981	1.157721	0.098638	0.098436	484.453	52541.8	0.091722	0.263510	1838.46	93514.7
635	2.000000	1.159936	7.37127e+06	-45339.1	1005.82	-29772.8	0.000000	0.000000	7.181463	508.421	NaN	0.000000	0.001745	0.001685	28.0804	100.376	0.001798	55812.7	5.566046	171.013	505.988	1.159572	0.100651	0.100286	508.421	55812.7	0.093819	0.274258	1853.81	97370.4
635	2.000000	1.161926	7.37127e+06	-45339.1	1005.82	-29772.8	0.000000	0.000000	7.184129	524.886	NaN	0.000000	0.001745	0.001676	28.0805	103.924	0.001822	57030.5	6.162256	169.972	520.643	1.161649	0.102640	0.102364	524.886	57030.5	0.095737	0.284272	1846.42	97726.7