File: remote_trans/data/nanoindenter/0828-1/data/Data_2025-08-06,11h17m57s/2025-07-22_16-23-58_1_1195.txt
2025-07-22, 16:23:58, 1
Index	Phase	Displacement	Time	Pos X	Pos Y	Pos Z	Rot A	Rot B	Piezo Z	Force A	Force B	Gripper	Voltage A	Voltage B	Temperature	Amplitude force	Amplitude pos	Stiffness	Phase shift	Phase excitation	Force A raw	Displacement raw	HMax	HMax raw	Real Force	Real Stiffness	Contact Depth	Area	Hardness	Reduced Mod.
[#]	[#]	[um]	[s]	[um]	[um]	[um]	[m°]	[m°]	[um]	[uN]	[uN]	[V]	[V]	[V]	[°C]	[uN]	[um]	[N/m]	[°]	[°]	[uN]	[um]	[um]	[um]	[uN]	[N/m]	[um]	[um^2]	[MPa]	[MPa]
1195	1.000000	0.002665	7.37673e+06	-55839.1	1105.82	-29740.4	0.000000	0.000000	6.002814	0.044659	NaN	0.000000	0.001536	0.001613	28.0824	0.022632	0.000878	25.7839	-74.0809	-164.743	0.051754	0.001405	-1.085741	-1.087000	0.044659	25.7839	-1.087040	-3.357896E+14	-1.329971E-16	NaN
1195	1.000000	0.012704	7.37673e+06	-55839.1	1105.82	-29740.4	0.000000	0.000000	6.012855	0.098026	NaN	0.000000	0.001501	0.001631	28.0828	0.073568	0.001409	52.1972	-156.355	14.9234	-0.014495	0.011247	-1.075702	-1.077159	0.098026	52.1972	-1.077110	-2.470050E+14	-3.968600E-16	NaN
1195	1.000000	0.022577	7.37673e+06	-55839.1	1105.82	-29740.4	0.000000	0.000000	6.022727	0.062638	NaN	0.000000	0.001570	0.001644	28.0827	0.083638	0.001634	51.1843	76.7219	-164.221	0.056200	0.021287	-1.065829	-1.067119	0.062638	51.1843	-1.066747	-1.792580E+14	-3.494293E-16	NaN
1195	1.000000	0.032597	7.37673e+06	-55839.1	1105.82	-29740.4	0.000000	0.000000	6.032741	-0.073635	NaN	0.000000	0.001549	0.001662	28.0827	0.033438	0.001852	18.0538	-103.988	14.8115	-0.025903	0.031270	-1.055809	-1.057136	-0.073635	18.0538	-1.052750	-1.162465E+14	6.334409E-16	NaN
1195	1.000000	0.042612	7.37673e+06	-55839.1	1105.82	-29740.4	0.000000	0.000000	6.042759	-0.004230	NaN	0.000000	0.001530	0.001685	28.0828	0.113926	0.001991	57.2298	-125.914	-165.685	0.080005	0.041339	-1.045794	-1.047067	-0.004230	57.2298	-1.045738	-9.356656E+13	4.521177E-17	NaN
1195	1.000000	0.052577	7.37673e+06	-55839.1	1105.82	-29740.4	0.000000	0.000000	6.052725	0.027676	NaN	0.000000	0.001548	0.001662	28.0824	0.097419	0.002045	47.6487	76.9752	14.9174	0.044055	0.051300	-1.035829	-1.037106	0.027676	47.6487	-1.036265	-6.978078E+13	-3.966153E-16	NaN
1195	1.000000	0.062590	7.37673e+06	-55839.1	1105.82	-29740.4	0.000000	0.000000	6.062738	0.003087	NaN	0.000000	0.001544	0.001663	28.0825	0.050090	0.002272	22.0478	-72.1775	-165.841	-0.002363	0.061259	-1.025816	-1.027147	0.003087	22.0478	-1.025921	-5.065330E+13	-6.093781E-17	NaN
1195	1.000000	0.072633	7.37673e+06	-55839.1	1105.82	-29740.4	0.000000	0.000000	6.072781	0.017427	NaN	0.000000	0.001530	0.001648	28.0827	0.048359	0.001850	26.1431	-153.403	13.1986	0.056151	0.071223	-1.015773	-1.017183	0.017427	26.1431	-1.016273	-3.756632E+13	-4.639027E-16	NaN
1195	1.000000	0.082630	7.37673e+06	-55839.1	1105.82	-29740.4	0.000000	0.000000	6.082777	0.011588	NaN	0.000000	0.001514	0.001666	28.083	0.042235	0.002047	20.6293	-179.678	-164.22	0.038503	0.081350	-1.005776	-1.007056	0.011588	20.6293	-1.006198	-2.749172E+13	-4.214912E-16	NaN
1195	1.000000	0.092600	7.37673e+06	-55839.1	1105.82	-29740.4	0.000000	0.000000	6.092751	0.087114	NaN	0.000000	0.001509	0.001663	28.0829	0.053837	0.002030	26.5196	72.6594	14.2917	0.128171	0.091311	-0.995806	-0.997095	0.087114	26.5196	-0.998270	-2.150170E+13	-4.051480E-15	NaN
1195	1.000000	0.102612	7.37673e+06	-55839.1	1105.82	-29740.4	0.000000	0.000000	6.102761	0.020473	NaN	0.000000	0.001501	0.001691	28.0827	0.070322	0.001986	35.4156	77.4304	-167.612	0.057349	0.101282	-0.985793	-0.987124	0.020473	35.4156	-0.986227	-1.480108E+13	-1.383202E-15	NaN
1195	1.000000	0.112638	7.37673e+06	-55839.1	1105.82	-29740.4	0.000000	0.000000	6.112787	0.026903	NaN	0.000000	0.001508	0.001659	28.0834	0.125330	0.002094	59.8577	119.413	14.605	0.049342	0.111247	-0.975768	-0.977159	0.026903	59.8577	-0.976105	-1.081259E+13	-2.488139E-15	NaN
1195	1.000000	0.122631	7.37673e+06	-55839.1	1105.82	-29740.4	0.000000	0.000000	6.122779	0.013561	NaN	0.000000	0.001539	0.001681	28.0817	0.043665	0.001977	22.0858	49.4749	-167.678	0.047298	0.121339	-0.965775	-0.967066	0.013561	22.0858	-0.966236	-7.960263E+12	-1.703637E-15	NaN
1195	1.000000	0.132597	7.37673e+06	-55839.1	1105.82	-29740.4	0.000000	0.000000	6.132746	0.047978	NaN	0.000000	0.001563	0.001655	28.0818	0.180204	0.001967	91.6036	29.7688	14.5433	0.061716	0.131292	-0.955809	-0.957114	0.047978	91.6036	-0.956202	-5.829829E+12	-8.229779E-15	NaN
1195	1.000000	0.142630	7.37673e+06	-55839.1	1105.82	-29740.4	0.000000	0.000000	6.142778	0.030272	NaN	0.000000	0.001569	0.001661	28.0814	0.133132	0.002033	65.4858	90.5877	-166.188	0.012453	0.141345	-0.945776	-0.947061	0.030272	65.4858	-0.946123	-4.263165E+12	-7.100849E-15	NaN
1195	1.000000	0.152617	7.37673e+06	-55839.1	1105.82	-29740.4	0.000000	0.000000	6.152766	0.026757	NaN	0.000000	0.001593	0.001655	28.0816	0.025408	0.001814	14.0069	80.6867	12.7667	0.014329	0.151284	-0.935789	-0.937122	0.026757	14.0069	-0.937221	-3.233298E+12	-8.275436E-15	NaN
1195	1.000000	0.162656	7.37673e+06	-55839.1	1105.82	-29740.4	0.000000	0.000000	6.162804	0.036792	NaN	0.000000	0.001544	0.001644	28.0812	0.117313	0.001948	60.2152	76.1537	-166.206	0.038474	0.161274	-0.925750	-0.927132	0.036792	60.2152	-0.926209	-2.296263E+12	-1.602257E-14	NaN
1195	1.000000	0.172629	7.37673e+06	-55839.1	1105.82	-29740.4	0.000000	0.000000	6.172778	0.033019	NaN	0.000000	0.001521	0.001640	28.0815	0.013659	0.001908	7.157785	-7.517054	14.8377	0.038382	0.171319	-0.915777	-0.917087	0.033019	7.157785	-0.919237	-1.848845E+12	-1.785926E-14	NaN
1195	1.000000	0.182656	7.37673e+06	-55839.1	1105.82	-29740.4	0.000000	0.000000	6.182806	0.081938	NaN	0.000000	0.001550	0.001677	28.0813	0.163359	0.002144	76.2068	-150.93	-162.526	0.093331	0.181407	-0.905750	-0.906999	0.081938	76.2068	-0.906557	-1.246379E+12	-6.574118E-14	NaN
1195	1.000000	0.192661	7.37673e+06	-55839.1	1105.82	-29740.4	0.000000	0.000000	6.192810	0.027779	NaN	0.000000	0.001544	0.001717	28.0812	0.081202	0.002146	37.838	157.807	15.2066	-0.005357	0.191295	-0.895744	-0.897111	0.027779	37.838	-0.896295	-9.057325E+11	-3.067007E-14	NaN
1195	1.000000	0.202661	7.37673e+06	-55839.1	1105.82	-29740.4	0.000000	0.000000	6.202807	-0.030652	NaN	0.000000	0.001580	0.001675	28.0811	0.057463	0.001854	31.0021	-104.649	-169.056	-0.058504	0.201364	-0.885745	-0.887042	-0.030652	31.0021	-0.885004	-6.373365E+11	4.809426E-14	NaN
1195	1.000000	0.212693	7.37673e+06	-55839.1	1105.82	-29740.4	0.000000	0.000000	6.212842	0.016629	NaN	0.000000	0.001542	0.001707	28.0812	0.043054	0.001908	22.5671	-27.956	12.9059	0.020891	0.211267	-0.875712	-0.877139	0.016629	22.5671	-0.876265	-4.855055E+11	-3.425155E-14	NaN
1195	1.000000	0.222645	7.37673e+06	-55839.1	1105.82	-29740.4	0.000000	0.000000	6.222792	-0.024230	NaN	0.000000	0.001567	0.001684	28.0812	0.045980	0.002064	22.2754	-136.817	-164.739	-0.010969	0.221391	-0.865760	-0.867014	-0.024230	22.2754	-0.864945	-3.412244E+11	7.100922E-14	NaN
1195	1.000000	0.232649	7.37673e+06	-55839.1	1105.82	-29740.4	0.000000	0.000000	6.232797	0.032587	NaN	0.000000	0.001565	0.001682	28.0812	0.083500	0.001821	45.8431	-20.8799	16.4645	0.009845	0.231348	-0.855757	-0.857058	0.032587	45.8431	-0.856290	-2.605584E+11	-1.250658E-13	NaN
1195	1.000000	0.242668	7.37673e+06	-55839.1	1105.82	-29740.4	0.000000	0.000000	6.242818	0.067020	NaN	0.000000	0.001573	0.001667	28.0811	0.021789	0.002132	10.2214	120.928	-165.52	0.010559	0.241393	-0.845738	-0.847013	0.067020	10.2214	-0.850656	-2.185830E+11	-3.066099E-13	NaN
1195	1.000000	0.252708	7.37673e+06	-55839.1	1105.82	-29740.4	0.000000	0.000000	6.252853	-0.058419	NaN	0.000000	0.001587	0.001679	28.0813	0.074095	0.001986	37.304	-0.391202	11.9777	-0.033603	0.251325	-0.835698	-0.837081	-0.058419	37.304	-0.834523	-1.321556E+11	4.420500E-13	NaN
1195	1.000000	0.262694	7.37673e+06	-55839.1	1105.82	-29740.4	0.000000	0.000000	6.262842	0.006503	NaN	0.000000	0.001547	0.001687	28.0828	0.102478	0.001958	52.347	-22.9826	-163.573	-0.011500	0.261405	-0.825711	-0.827001	0.006503	52.347	-0.825805	-1.006732E+11	-6.459730E-14	NaN
1195	1.000000	0.272684	7.37673e+06	-55839.1	1105.82	-29740.4	0.000000	0.000000	6.272834	0.059575	NaN	0.000000	0.001560	0.001697	28.0824	0.100262	0.002061	48.6572	-178.723	13.2069	0.082686	0.271332	-0.815722	-0.817074	0.059575	48.6572	-0.816640	-7.562159E+10	-7.878073E-13	NaN
1195	1.000000	0.282682	7.37673e+06	-55839.1	1105.82	-29740.4	0.000000	0.000000	6.282833	0.078343	NaN	0.000000	0.001548	0.001697	28.0828	0.104063	0.002135	48.74	-123.356	-167.978	0.021379	0.281384	-0.805724	-0.807022	0.078343	48.74	-0.806929	-5.583498E+10	-1.403113E-12	NaN
1195	1.000000	0.292716	7.37673e+06	-55839.1	1105.82	-29740.4	0.000000	0.000000	6.292863	0.000234	NaN	0.000000	0.001595	0.001697	28.0827	0.089458	0.001943	46.0514	153.465	15.44	0.070029	0.291336	-0.795690	-0.797070	0.000234	46.0514	-0.795694	-3.930110E+10	-5.950807E-15	NaN
1195	1.000000	0.302731	7.37673e+06	-55839.1	1105.82	-29740.4	0.000000	0.000000	6.302879	0.010119	NaN	0.000000	0.001572	0.001687	28.0838	0.107178	0.001937	55.3444	-4.717984	-166.698	-0.042976	0.301413	-0.785675	-0.786993	0.010119	55.3444	-0.785812	-2.885312E+10	-3.507065E-13	NaN
1195	1.000000	0.312706	7.37673e+06	-55839.1	1105.82	-29740.4	0.000000	0.000000	6.312854	-0.003329	NaN	0.000000	0.001583	0.001657	28.0827	0.066619	0.001984	33.5771	-70.3359	15.8654	-0.034237	0.311359	-0.775699	-0.777047	-0.003329	33.5771	-0.775625	-2.097847E+10	1.586632E-13	NaN
1195	1.000000	0.322725	7.37673e+06	-55839.1	1105.82	-29740.4	0.000000	0.000000	6.322870	-0.063275	NaN	0.000000	0.001647	0.001645	28.0826	0.032660	0.002196	14.8737	-109.074	-164.359	0.054894	0.321437	-0.765681	-0.766969	-0.063275	14.8737	-0.762490	-1.390512E+10	4.550517E-12	NaN
1195	1.000000	0.332718	7.37673e+06	-55839.1	1105.82	-29740.4	0.000000	0.000000	6.332868	0.060775	NaN	0.000000	0.001655	0.001677	28.0826	0.132204	0.001861	71.0238	-16.8439	19.0095	0.029560	0.331378	-0.755688	-0.757028	0.060775	71.0238	-0.756330	-1.146476E+10	-5.301024E-12	NaN
1195	1.000000	0.342694	7.37673e+06	-55839.1	1105.82	-29740.4	0.000000	0.000000	6.342844	0.064186	NaN	0.000000	0.001653	0.001651	28.0829	0.040996	0.001962	20.8899	151.466	-167.229	-0.019062	0.341427	-0.745712	-0.746979	0.064186	20.8899	-0.748017	-8.835306E+9	-7.264688E-12	NaN
1195	1.000000	0.352716	7.37673e+06	-55839.1	1105.82	-29740.4	0.000000	0.000000	6.352861	-0.049367	NaN	0.000000	0.001669	0.001691	28.0826	0.104124	0.001936	53.7932	-156.906	10.9331	-0.059189	0.351334	-0.735690	-0.737072	-0.049367	53.7932	-0.735002	-5.874475E+9	8.403704E-12	NaN
1195	1.000000	0.362723	7.37673e+06	-55839.1	1105.82	-29740.4	0.000000	0.000000	6.362871	0.004559	NaN	0.000000	0.001639	0.001651	28.0827	0.099473	0.001882	52.8524	-36.6513	-166.437	-0.028095	0.361403	-0.725683	-0.727003	0.004559	52.8524	-0.725747	-4.393804E+9	-1.037559E-12	NaN
1195	1.000000	0.372698	7.37673e+06	-55839.1	1105.82	-29740.4	0.000000	0.000000	6.372847	0.027045	NaN	0.000000	0.001626	0.001688	28.0825	0.043645	0.001905	22.911	-151.971	13.653	0.000240	0.371380	-0.715707	-0.717026	0.027045	22.911	-0.716593	-3.296105E+9	-8.205109E-12	NaN
1195	1.000000	0.382751	7.37673e+06	-55839.1	1105.82	-29740.4	0.000000	0.000000	6.382900	0.047713	NaN	0.000000	0.001601	0.001671	28.0828	0.034288	0.002083	16.4592	9.560649	-167.136	0.084967	0.381408	-0.705655	-0.706997	0.047713	16.4592	-0.707829	-2.502777E+9	-1.906410E-11	NaN
1195	1.000000	0.392731	7.37673e+06	-55839.1	1105.82	-29740.4	0.000000	0.000000	6.392877	-0.039405	NaN	0.000000	0.001626	0.001676	28.0815	0.095314	0.002185	43.6137	-112.51	15.6182	0.023217	0.391380	-0.695675	-0.697025	-0.039405	43.6137	-0.694997	-1.671842E+9	2.356998E-11	NaN
1195	1.000000	0.402769	7.37673e+06	-55839.1	1105.82	-29740.4	0.000000	0.000000	6.402917	0.015788	NaN	0.000000	0.001619	0.001688	28.0816	0.066767	0.001992	33.518	-46.1209	-164.962	0.007455	0.401479	-0.685637	-0.686927	0.015788	33.518	-0.685990	-1.259258E+9	-1.253751E-11	NaN
1195	1.000000	0.412743	7.37673e+06	-55839.1	1105.82	-29740.4	0.000000	0.000000	6.412891	0.008006	NaN	0.000000	0.001610	0.001682	28.0814	0.037475	0.001977	18.9584	131.438	13.948	0.038081	0.411439	-0.675663	-0.676967	0.008006	18.9584	-0.675980	-9.187850E+8	-8.713821E-12	NaN
1195	1.000000	0.422773	7.37673e+06	-55839.1	1105.82	-29740.4	0.000000	0.000000	6.422923	0.064080	NaN	0.000000	0.001604	0.001674	28.0815	0.016689	0.001912	8.729459	83.1077	-163.228	-0.056135	0.421485	-0.665633	-0.666921	0.064080	8.729459	-0.671139	-7.888148E+8	-8.123630E-11	NaN
1195	1.000000	0.432766	7.37673e+06	-55839.1	1105.82	-29740.4	0.000000	0.000000	6.432914	0.019877	NaN	0.000000	0.001637	0.001658	28.0813	0.031975	0.001981	16.1414	79.7418	14.2106	0.021509	0.431386	-0.655640	-0.657020	0.019877	16.1414	-0.656563	-4.981801E+8	-3.989991E-11	NaN
1195	1.000000	0.442775	7.37673e+06	-55839.1	1105.82	-29740.4	0.000000	0.000000	6.442920	-0.050680	NaN	0.000000	0.001611	0.001665	28.0814	0.093329	0.002135	43.7121	-20.7267	-165.133	0.050135	0.441443	-0.645631	-0.646962	-0.050680	43.7121	-0.644762	-3.432489E+8	1.476471E-10	NaN
1195	1.000000	0.452747	7.37673e+06	-55839.1	1105.82	-29740.4	0.000000	0.000000	6.452895	0.021413	NaN	0.000000	0.001653	0.001665	28.0813	0.061361	0.002143	28.6391	70.8884	14.3184	0.016220	0.451451	-0.635659	-0.636955	0.021413	28.6391	-0.636220	-2.620677E+8	-8.170758E-11	NaN
1195	1.000000	0.462774	7.37673e+06	-55839.1	1105.82	-29740.4	0.000000	0.000000	6.462918	-0.085818	NaN	0.000000	0.001629	0.001628	28.0812	0.134878	0.002122	63.5507	82.5757	-163.816	-0.048617	0.461468	-0.625632	-0.626938	-0.085818	63.5507	-0.624619	-1.815964E+8	4.725769E-10	NaN
1195	1.000000	0.472766	7.37673e+06	-55839.1	1105.82	-29740.4	0.000000	0.000000	6.472915	0.045808	NaN	0.000000	0.001578	0.001665	28.081	0.124187	0.001939	64.0371	-145.409	14.5245	0.120665	0.471413	-0.615640	-0.616993	0.045808	64.0371	-0.616176	-1.390156E+8	-3.295184E-10	NaN
1195	1.000000	0.482780	7.37673e+06	-55839.1	1105.82	-29740.4	0.000000	0.000000	6.482928	0.002600	NaN	0.000000	0.001527	0.001640	28.0816	0.016273	0.001883	8.642177	-164.377	-165.429	-0.035243	0.481445	-0.605625	-0.606961	0.002600	8.642177	-0.605851	-1.002350E+8	-2.593625E-11	NaN
1195	1.000000	0.492808	7.37673e+06	-55839.1	1105.82	-29740.4	0.000000	0.000000	6.492956	0.017158	NaN	0.000000	0.001530	0.001649	28.0812	0.069701	0.002025	34.4234	92.5398	15.8911	0.022153	0.491423	-0.595598	-0.596983	0.017158	34.4234	-0.595972	-7.327733E+7	-2.341479E-10	NaN
1195	1.000000	0.502792	7.37673e+06	-55839.1	1105.82	-29740.4	0.000000	0.000000	6.502938	-0.027592	NaN	0.000000	0.001508	0.001709	28.0814	0.078629	0.002052	38.3101	130.082	-164.534	0.003426	0.501476	-0.585614	-0.586929	-0.027592	38.3101	-0.585074	-5.184827E+7	5.321618E-10	NaN
1195	1.000000	0.512801	7.37673e+06	-55839.1	1105.82	-29740.4	0.000000	0.000000	6.512947	-0.020801	NaN	0.000000	0.001519	0.001680	28.0813	0.124526	0.001986	62.6871	-170.419	14.7486	-0.052094	0.511493	-0.575605	-0.576913	-0.020801	62.6871	-0.575356	-3.807304E+7	5.463325E-10	NaN
1195	1.000000	0.522818	7.37673e+06	-55839.1	1105.82	-29740.4	0.000000	0.000000	6.522965	0.005928	NaN	0.000000	0.001503	0.001674	28.0817	0.046840	0.002104	22.2657	117.846	-166.238	-0.000329	0.521482	-0.565588	-0.566924	0.005928	22.2657	-0.565788	-2.808128E+7	-2.110929E-10	NaN
1195	1.000000	0.532792	7.37673e+06	-55839.1	1105.82	-29740.4	0.000000	0.000000	6.532941	0.049775	NaN	0.000000	0.001487	0.001673	28.0825	0.030269	0.001949	15.5328	46.7787	14.9696	0.014153	0.531434	-0.555614	-0.556971	0.049775	15.5328	-0.558017	-2.192548E+7	-2.270173E-9	NaN
1195	1.000000	0.542790	7.37673e+06	-55839.1	1105.82	-29740.4	0.000000	0.000000	6.542934	-0.067623	NaN	0.000000	0.001548	0.001684	28.0828	0.072443	0.002015	35.956	116.798	-161.854	-0.001204	0.541508	-0.545616	-0.546898	-0.067623	35.956	-0.544205	-1.411454E+7	4.791011E-9	NaN
1195	1.000000	0.552763	7.37673e+06	-55839.1	1105.82	-29740.4	0.000000	0.000000	6.552913	0.044975	NaN	0.000000	0.001541	0.001669	28.0825	0.066645	0.002076	32.1029	152.247	16.7197	0.111388	0.551476	-0.535642	-0.536930	0.044975	32.1029	-0.536693	-1.110417E+7	-4.050291E-9	NaN
1195	1.000000	0.562824	7.37673e+06	-55839.1	1105.82	-29740.4	0.000000	0.000000	6.562973	0.028432	NaN	0.000000	0.001538	0.001691	28.083	0.026753	0.001984	13.4815	-100.438	-164.43	-0.014046	0.561483	-0.525582	-0.526923	0.028432	13.4815	-0.527163	-8.18792e+06	-3.472392E-9	NaN
1195	1.000000	0.572838	7.37673e+06	-55839.1	1105.82	-29740.4	0.000000	0.000000	6.572984	-0.019814	NaN	0.000000	0.001549	0.001675	28.0825	0.107342	0.002041	52.6054	-36.5511	18.5218	-0.066788	0.571504	-0.515568	-0.516902	-0.019814	52.6054	-0.515286	-5.59769e+06	3.539661E-9	NaN
1195	1.000000	0.582824	7.37673e+06	-55839.1	1105.82	-29740.4	0.000000	0.000000	6.582969	-0.043537	NaN	0.000000	0.001574	0.001689	28.0826	0.061910	0.001824	33.943	-134.627	-165.11	0.074455	0.581499	-0.505582	-0.506907	-0.043537	33.943	-0.504620	-3.97605e+06	1.094977E-8	NaN
1195	1.000000	0.592807	7.37673e+06	-55839.1	1105.82	-29740.5	0.000000	0.000000	6.592954	-0.009545	NaN	0.000000	0.001564	0.001680	28.0826	0.136042	0.001995	68.2026	-170.725	18.34	-0.047856	0.591502	-0.495599	-0.496904	-0.009545	68.2026	-0.495494	-2.96574e+06	3.218336E-9	NaN
1195	1.000000	0.602830	7.37673e+06	-55839.1	1105.82	-29740.5	0.000000	0.000000	6.602975	-0.052820	NaN	0.000000	0.001560	0.001659	28.0827	0.033115	0.002035	16.2717	-94.8067	-164.709	-0.017941	0.601512	-0.485576	-0.486894	-0.052820	16.2717	-0.483141	-1.9929e+06	2.650395E-8	NaN
1195	1.000000	0.612830	7.37673e+06	-55839.1	1105.82	-29740.5	0.000000	0.000000	6.612977	-0.021005	NaN	0.000000	0.001634	0.001675	28.0827	0.055801	0.001958	28.503	-50.528	11.536	-0.041577	0.611426	-0.475576	-0.476980	-0.021005	28.503	-0.475023	-1.53398e+06	1.369284E-8	NaN
1195	1.000000	0.622821	7.37673e+06	-55839.1	1105.82	-29740.5	0.000000	0.000000	6.622969	0.009750	NaN	0.000000	0.001627	0.001679	28.0827	0.034026	0.001959	17.3732	55.1334	-164.219	0.030982	0.621565	-0.465585	-0.466841	0.009750	17.3732	-0.466006	-1.14648e+06	-8.504440E-9	NaN
1195	1.000000	0.632822	7.37673e+06	-55839.1	1105.82	-29740.5	0.000000	0.000000	6.632967	-0.067333	NaN	0.000000	0.001620	0.001698	28.0829	0.080366	0.001853	43.3683	105.009	11.7191	-0.026431	0.631485	-0.455584	-0.456920	-0.067333	43.3683	-0.454419	-788037	8.544359E-8	NaN
1195	1.000000	0.642836	7.37673e+06	-55839.1	1105.82	-29740.5	0.000000	0.000000	6.642983	-0.002020	NaN	0.000000	0.001629	0.001682	28.0824	0.112887	0.002046	55.1803	-37.7988	-166.637	0.024666	0.641500	-0.445570	-0.446906	-0.002020	55.1803	-0.445542	-590934	3.418779E-9	NaN
1195	1.000000	0.652830	7.37673e+06	-55839.1	1105.82	-29740.5	0.000000	0.000000	6.652977	0.003026	NaN	0.000000	0.001637	0.001713	28.0825	0.130512	0.002058	63.4143	-6.174029	15.8555	-0.067759	0.651498	-0.435576	-0.436907	0.003026	63.4143	-0.435612	-427959	-7.069849E-9	NaN
1195	1.000000	0.662854	7.37673e+06	-55839.1	1105.82	-29740.5	0.000000	0.000000	6.663004	0.056509	NaN	0.000000	0.001618	0.001672	28.0821	0.118336	0.002059	57.4749	92.004	-165.756	0.068550	0.661549	-0.425552	-0.426856	0.056509	57.4749	-0.426289	-315896	-1.788860E-7	NaN
1195	1.000000	0.672859	7.37673e+06	-55839.1	1105.82	-29740.5	0.000000	0.000000	6.673007	0.016528	NaN	0.000000	0.001658	0.001703	28.0814	0.116648	0.001958	59.5627	-111.246	12.9609	-0.040480	0.671459	-0.415547	-0.416947	0.016528	59.5627	-0.415755	-223962	-7.379767E-8	NaN
1195	1.000000	0.682881	7.37673e+06	-55839.1	1105.82	-29740.5	0.000000	0.000000	6.683029	0.026632	NaN	0.000000	0.001594	0.001683	28.0815	0.066512	0.002019	32.9491	-151.657	-164.035	0.053073	0.681576	-0.405525	-0.406830	0.026632	32.9491	-0.406131	-163439	-1.629475E-7	NaN
1195	1.000000	0.692852	7.37674e+06	-55839.1	1105.82	-29740.5	0.000000	0.000000	6.692999	-0.009608	NaN	0.000000	0.001579	0.001701	28.0811	0.054567	0.002028	26.9065	1.041398	13.7856	0.028993	0.691505	-0.395553	-0.396901	-0.009608	26.9065	-0.395286	-114476	8.393146E-8	NaN
1195	1.000000	0.702866	7.37674e+06	-55839.1	1105.82	-29740.5	0.000000	0.000000	6.703012	-0.013062	NaN	0.000000	0.001572	0.001660	28.0812	0.069250	0.001963	35.2771	120.729	-162.534	0.072057	0.701517	-0.385540	-0.386889	-0.013062	35.2771	-0.385263	-82290.3	1.587341E-7	NaN
1195	1.000000	0.712882	7.37674e+06	-55839.1	1105.82	-29740.5	0.000000	0.000000	6.713034	0.116433	NaN	0.000000	0.001575	0.001698	28.0813	0.094855	0.001977	47.9712	-78.453	14.894	0.005697	0.711491	-0.375524	-0.376915	0.116433	47.9712	-0.377344	-63351.7	-1.837875E-6	NaN
1195	1.000000	0.722899	7.37674e+06	-55839.1	1105.82	-29740.5	0.000000	0.000000	6.723045	-0.041462	NaN	0.000000	0.001566	0.001694	28.0814	0.092211	0.002093	44.0478	156.487	-166.266	0.036149	0.721570	-0.365507	-0.366835	-0.041462	44.0478	-0.364801	-41800.4	9.919007E-7	NaN
1195	1.000000	0.732883	7.37674e+06	-55839.1	1105.82	-29740.5	0.000000	0.000000	6.733028	-0.057968	NaN	0.000000	0.001529	0.001709	28.0814	0.111724	0.002091	53.4228	-94.6285	16.7821	-0.020142	0.731530	-0.355523	-0.356876	-0.057968	53.4228	-0.354709	-29873.1	1.940464E-6	NaN
1195	1.000000	0.742879	7.37674e+06	-55839.1	1105.82	-29740.5	0.000000	0.000000	6.743027	0.022329	NaN	0.000000	0.001530	0.001661	28.0813	0.012697	0.002005	6.332457	54.1646	-167.439	0.014668	0.741546	-0.345527	-0.346860	0.022329	6.332457	-0.348171	-24013.4	-9.298372E-7	NaN
1195	1.000000	0.752914	7.37674e+06	-55839.1	1105.82	-29740.5	0.000000	0.000000	6.753061	-0.032267	NaN	0.000000	0.001573	0.001670	28.0812	0.055745	0.002003	27.8336	148.282	17.4003	-0.024762	0.751548	-0.335491	-0.336858	-0.032267	27.8336	-0.334622	-15242.8	2.116849E-6	NaN
1195	1.000000	0.762903	7.37674e+06	-55839.1	1105.82	-29740.5	0.000000	0.000000	6.763052	0.040084	NaN	0.000000	0.001587	0.001706	28.0812	0.110759	0.001976	56.0604	-167.119	-165.806	0.032101	0.761616	-0.325503	-0.326790	0.040084	56.0604	-0.326039	-11412.8	-3.512210E-6	NaN
1195	1.000000	0.772917	7.37674e+06	-55839.1	1105.82	-29740.5	0.000000	0.000000	6.773065	0.008606	NaN	0.000000	0.001535	0.001711	28.0812	0.100176	0.001969	50.8777	99.0863	10.9734	0.051435	0.771543	-0.315489	-0.316863	0.008606	50.8777	-0.315615	-8017.3	-1.073445E-6	NaN
1195	1.000000	0.782898	7.37674e+06	-55839.1	1105.82	-29740.5	0.000000	0.000000	6.783045	-0.005752	NaN	0.000000	0.001601	0.001686	28.0813	0.086806	0.001994	43.5438	-34.6097	-165.548	0.015128	0.781583	-0.305508	-0.306823	-0.005752	43.5438	-0.305409	-5662.7	1.015701E-6	NaN
1195	1.000000	0.792900	7.37674e+06	-55839.1	1105.82	-29740.5	0.000000	0.000000	6.793049	0.036315	NaN	0.000000	0.001608	0.001706	28.081	0.041318	0.002037	20.286	80.8887	14.5991	-0.020412	0.791524	-0.295506	-0.296882	0.036315	20.286	-0.296848	-4223.48	-8.598361E-6	NaN
1195	1.000000	0.802911	7.37674e+06	-55839.1	1105.82	-29740.5	0.000000	0.000000	6.803059	0.017380	NaN	0.000000	0.001583	0.001707	28.0823	0.039763	0.002067	19.2393	-56.4694	-165.386	-0.002713	0.801617	-0.285495	-0.286789	0.017380	19.2393	-0.286173	-2923.41	-5.945233E-6	NaN
1195	1.000000	0.812882	7.37674e+06	-55839.1	1105.82	-29740.5	0.000000	0.000000	6.813028	-0.039234	NaN	0.000000	0.001556	0.001667	28.0825	0.036325	0.001939	18.7344	-98.905	15.7146	0.015929	0.811525	-0.275524	-0.276881	-0.039234	18.7344	-0.273953	-1912.24	2.051713E-5	NaN
1195	1.000000	0.822936	7.37674e+06	-55839.1	1105.82	-29740.5	0.000000	0.000000	6.823085	0.048966	NaN	0.000000	0.001577	0.001616	28.0825	0.027055	0.002050	13.1977	-67.4524	-166.527	-0.019071	0.821681	-0.265470	-0.266724	0.048966	13.1977	-0.268252	-1566.61	-3.125617E-5	NaN
1195	1.000000	0.832961	7.37674e+06	-55839.1	1105.82	-29740.5	0.000000	0.000000	6.833108	0.001700	NaN	0.000000	0.001578	0.001579	28.0823	0.098671	0.001976	49.931	159.11	15.1831	-0.001604	0.831565	-0.255445	-0.256841	0.001700	49.931	-0.255471	-998.527	-1.702402E-6	NaN
1195	1.000000	0.842929	7.37674e+06	-55839.1	1105.82	-29740.5	0.000000	0.000000	6.843076	-0.013105	NaN	0.000000	0.001555	0.001613	28.0824	0.070791	0.002074	34.1247	71.1914	-164.63	-0.028734	0.841630	-0.245477	-0.246776	-0.013105	34.1247	-0.245189	-692.443	1.892554E-5	NaN
1195	1.000000	0.852950	7.37674e+06	-55839.1	1105.82	-29740.5	0.000000	0.000000	6.853096	-0.025653	NaN	0.000000	0.001545	0.001572	28.0824	0.071348	0.002163	32.9925	129.676	13.4227	-0.014961	0.851582	-0.235456	-0.236824	-0.025653	32.9925	-0.234873	-477.801	5.369031E-5	NaN
1195	1.000000	0.862955	7.37674e+06	-55839.1	1105.82	-29740.5	0.000000	0.000000	6.863102	-0.001127	NaN	0.000000	0.001562	0.001557	28.0828	0.061502	0.001879	32.7325	-104.46	-163.96	-0.014324	0.861660	-0.225451	-0.226746	-0.001127	32.7325	-0.225425	-338.915	3.326119E-6	NaN
1195	1.000000	0.872933	7.37674e+06	-55839.1	1105.82	-29740.5	0.000000	0.000000	6.873080	-0.014629	NaN	0.000000	0.001548	0.001579	28.0823	0.114538	0.001879	60.9689	157.806	14.9983	0.032915	0.871556	-0.215472	-0.216849	-0.014629	60.9689	-0.215292	-233.462	6.266221E-5	NaN
1195	1.000000	0.882942	7.37674e+06	-55839.1	1105.82	-29740.5	0.000000	0.000000	6.883091	0.025662	NaN	0.000000	0.001575	0.001596	28.0825	0.007029	0.002032	3.458571	-40.6856	-166.163	0.061649	0.881652	-0.205463	-0.206754	0.025662	3.458571	-0.211028	-199.278	-0.000129	NaN
1195	1.000000	0.892930	7.37674e+06	-55839.1	1105.82	-29740.5	0.000000	0.000000	6.893078	0.007279	NaN	0.000000	0.001539	0.001582	28.0824	0.085237	0.002068	41.2248	-114.145	14.5372	0.080333	0.891551	-0.195476	-0.196855	0.007279	41.2248	-0.195608	-111.499	-6.528373E-5	NaN
1195	1.000000	0.902961	7.37674e+06	-55839.1	1105.82	-29740.5	0.000000	0.000000	6.903107	-0.027495	NaN	0.000000	0.001585	0.001607	28.0824	0.029799	0.001802	16.5391	24.9523	-164.486	-0.024005	0.901604	-0.185445	-0.186801	-0.027495	16.5391	-0.184198	-71.8809	0.000383	NaN
1195	1.000000	0.912953	7.37674e+06	-55839.1	1105.82	-29740.5	0.000000	0.000000	6.913103	0.055108	NaN	0.000000	0.001552	0.001594	28.0821	0.039002	0.002067	18.8708	-123.823	17.0353	0.058537	0.911615	-0.175452	-0.176791	0.055108	18.8708	-0.177643	-55.6246	-0.000991	NaN
1195	1.000000	0.922921	7.37674e+06	-55839.1	1105.82	-29740.5	0.000000	0.000000	6.923067	-0.033529	NaN	0.000000	0.001562	0.001614	28.0823	0.043191	0.001970	21.9223	25.4199	-165.696	-0.002734	0.921617	-0.165484	-0.166789	-0.033529	21.9223	-0.164337	-32.7085	0.001025	NaN
1195	1.000000	0.932956	7.37674e+06	-55839.1	1105.82	-29740.5	0.000000	0.000000	6.933103	0.006324	NaN	0.000000	0.001550	0.001619	28.0826	0.044254	0.002163	20.4586	177.176	11.7415	-0.027623	0.931593	-0.155450	-0.156813	0.006324	20.4586	-0.155682	-22.9532	-0.000276	NaN
1195	1.000000	0.942970	7.37674e+06	-55839.1	1105.82	-29740.5	0.000000	0.000000	6.943115	-0.056665	NaN	0.000000	0.001564	0.001593	28.0812	0.093911	0.002026	46.3561	167.148	-166.359	-0.049830	0.941688	-0.145436	-0.146718	-0.056665	46.3561	-0.144519	-14.3637	0.003945	NaN
1195	1.000000	0.952951	7.37674e+06	-55839.1	1105.82	-29740.5	0.000000	0.000000	6.953101	0.073303	NaN	0.000000	0.001549	0.001619	28.0811	0.034379	0.001847	18.6084	-160.607	15.5967	0.006218	0.951604	-0.135455	-0.136802	0.073303	18.6084	-0.138409	-11.0412	-0.006639	NaN
1195	1.000000	0.962992	7.37674e+06	-55839.1	1105.82	-29740.5	0.000000	0.000000	6.963141	0.024936	NaN	0.000000	0.001532	0.001632	28.0813	0.039054	0.001990	19.6268	101.769	-165.037	0.009610	0.961684	-0.125414	-0.126722	0.024936	19.6268	-0.126367	-6.470890	-0.003853	NaN
1195	1.000000	0.972960	7.37674e+06	-55839.1	1105.82	-29740.5	0.000000	0.000000	6.973108	0.019368	NaN	0.000000	0.001530	0.001586	28.0812	0.061726	0.002041	30.2379	116.231	14.0188	-0.024560	0.971613	-0.115446	-0.116793	0.019368	30.2379	-0.115926	-3.991692	-0.004852	NaN
1195	1.000000	0.982986	7.37674e+06	-55839.1	1105.82	-29740.5	0.000000	0.000000	6.983134	0.014967	NaN	0.000000	0.001562	0.001609	28.0812	0.180168	0.002061	87.436	-30.7029	-165.684	-0.020043	0.981658	-0.105420	-0.106747	0.014967	87.436	-0.105548	-2.415447	-0.006196	NaN
1195	1.000000	0.992984	7.37674e+06	-55839.1	1105.82	-29740.5	0.000000	0.000000	6.993131	-0.023339	NaN	0.000000	0.001595	0.001592	28.081	0.068107	0.001965	34.6629	40.1587	16.4296	-0.031385	0.991636	-0.095422	-0.096770	-0.023339	34.6629	-0.094917	-1.404481	0.016618	NaN
1195	1.000000	1.003014	7.37674e+06	-55839.1	1105.82	-29740.5	0.000000	0.000000	7.003163	0.038130	NaN	0.000000	0.001579	0.001609	28.0812	0.037727	0.002020	18.6789	-54.3165	-163.612	0.025613	1.001701	-0.085392	-0.086705	0.038130	18.6789	-0.086923	-0.913986	-0.041718	NaN
1195	1.000000	1.012992	7.37674e+06	-55839.1	1105.82	-29740.5	0.000000	0.000000	7.013141	0.057384	NaN	0.000000	0.001550	0.001593	28.0812	0.028011	0.002034	13.7686	93.3809	13.9279	0.094280	1.011666	-0.075414	-0.076739	0.057384	13.7686	-0.078540	-0.568855	-0.100877	NaN
1195	1.000000	1.022982	7.37674e+06	-55839.1	1105.82	-29740.5	0.000000	0.000000	7.023130	0.001811	NaN	0.000000	0.001542	0.001596	28.0812	0.045447	0.001915	23.7325	-149.49	-168.528	0.029493	1.021663	-0.065423	-0.066743	0.001811	23.7325	-0.065481	-0.256972	-0.007046	NaN
1195	1.000000	1.032997	7.37674e+06	-55839.1	1105.82	-29740.5	0.000000	0.000000	7.033141	-0.078244	NaN	0.000000	0.001551	0.001620	28.0809	0.073048	0.001943	37.6034	167.628	13.8197	-0.015651	1.031613	-0.055409	-0.056793	-0.078244	37.6034	-0.053849	-0.119044	0.657269	NaN
1195	1.000000	1.043005	7.37674e+06	-55839.1	1105.82	-29740.5	0.000000	0.000000	7.043153	0.019459	NaN	0.000000	0.001532	0.001608	28.0811	0.086406	0.002118	40.8017	56.7216	-163.423	0.037733	1.041696	-0.045401	-0.046709	0.019459	40.8017	-0.045758	-0.067792	-0.287039	NaN
1195	1.000000	1.053004	7.37674e+06	-55839.1	1105.82	-29740.5	0.000000	0.000000	7.053149	-0.048275	NaN	0.000000	0.001556	0.001602	28.0811	0.115185	0.002072	55.5983	-41.9431	16.8406	0.008821	1.051707	-0.035402	-0.036699	-0.048275	55.5983	-0.034751	-0.031488	1.533109	NaN
1195	1.000000	1.063004	7.37674e+06	-55839.1	1105.82	-29740.5	0.000000	0.000000	7.063150	-0.046454	NaN	0.000000	0.001562	0.001582	28.0811	0.100792	0.001838	54.8312	-102.886	-163.117	0.041229	1.061674	-0.025401	-0.026732	-0.046454	54.8312	-0.024766	-0.016635	2.792557	NaN
1195	1.000000	1.073043	7.37674e+06	-55839.1	1105.82	-29740.5	0.000000	0.000000	7.073189	-0.055135	NaN	0.000000	0.001556	0.001595	28.0817	0.043646	0.002049	21.304	-31.996	15.549	-0.039330	1.071639	-0.015362	-0.016767	-0.055135	21.304	-0.013421	-0.008346	6.606143	NaN
1195	1.000000	1.083043	7.37674e+06	-55839.1	1105.82	-29740.5	0.000000	0.000000	7.083192	0.043819	NaN	0.000000	0.001549	0.001616	28.0825	0.219051	0.002007	109.13	25.6435	-164.036	-0.103634	1.081760	-0.005363	-0.006646	0.043819	109.13	-0.005664	-0.003830	-11.4402	NaN
1195	2.000000	1.092075	7.37674e+06	-55839.1	1105.82	-29740.5	0.000000	0.000000	7.092533	7.542096	NaN	0.000000	0.001589	0.001591	28.0825	8.016166	0.001745	4593.31	13.8964	6.488230	7.930716	1.091463	0.003670	0.003057	7.542096	4593.31	0.002438	0.001912	3944.2	95969.3
1195	2.000000	1.094575	7.37674e+06	-55839.1	1105.82	-29740.5	0.000000	0.000000	7.095156	10.5354	NaN	0.000000	0.001566	0.001588	28.0828	10.4844	0.001676	6257.16	8.053352	-172.447	10.4026	1.094247	0.006170	0.005841	10.5354	6257.16	0.004907	0.004048	2602.35	89847.6
1195	2.000000	1.097123	7.37674e+06	-55839.1	1105.82	-29740.5	0.000000	0.000000	7.097874	14.668	NaN	0.000000	0.001555	0.001617	28.0825	13.3485	0.001771	7537.93	8.834356	4.219568	14.591	1.096715	0.008717	0.008309	14.668	7537.93	0.007258	0.006290	2331.93	86835.7
1195	2.000000	1.099557	7.37674e+06	-55839.1	1105.82	-29740.5	0.000000	0.000000	7.100418	17.3563	NaN	0.000000	0.001556	0.001587	28.0826	16.7612	0.001931	8679.47	10.2211	-176.547	17.1776	1.099308	0.011151	0.010902	17.3563	8679.47	0.009651	0.008796	1973.11	84550.1
1195	2.000000	1.102075	7.37674e+06	-55839.1	1105.82	-29740.5	0.000000	0.000000	7.103118	21.7639	NaN	0.000000	0.001550	0.001632	28.0834	18.3967	0.001872	9824.88	5.818346	6.501461	21.1913	1.101699	0.013670	0.013293	21.7639	9824.88	0.012008	0.011500	1892.52	83705.1
1195	2.000000	1.104531	7.37674e+06	-55839.1	1105.82	-29740.5	0.000000	0.000000	7.105829	27.9679	NaN	0.000000	0.001550	0.001622	28.0826	21.4592	0.001806	11884.1	6.904202	-177.88	26.9969	1.104228	0.016126	0.015822	27.9679	11884.1	0.014360	0.014442	1936.56	90349.2
1195	2.000000	1.107069	7.37674e+06	-55839.1	1105.82	-29740.5	0.000000	0.000000	7.108410	29.0271	NaN	0.000000	0.001549	0.001595	28.0828	23.2823	0.001902	12240.1	7.529072	2.485457	29.1846	1.106734	0.018663	0.018328	29.0271	12240.1	0.016884	0.017881	1623.37	83630.8
1195	2.000000	1.109541	7.37674e+06	-55839.1	1105.82	-29740.5	0.000000	0.000000	7.111113	34.6323	NaN	0.000000	0.001499	0.001623	28.0825	25.6062	0.001821	14063.6	7.852052	-179.211	34.5733	1.109235	0.021135	0.020829	34.6323	14063.6	0.019288	0.021435	1615.66	87761.5
1195	2.000000	1.112083	7.37674e+06	-55839.1	1105.82	-29740.5	0.000000	0.000000	7.113874	39.9394	NaN	0.000000	0.001546	0.001589	28.0833	27.4021	0.001737	15771.5	4.415653	2.636580	39.6129	1.111699	0.023677	0.023293	39.9394	15771.5	0.021778	0.025414	1571.58	90388.8
1195	2.000000	1.114516	7.37674e+06	-55839.1	1105.82	-29740.5	0.000000	0.000000	7.116596	46.9665	NaN	0.000000	0.001514	0.001622	28.0824	29.6236	0.001617	18318.8	6.559475	178.207	46.6251	1.114204	0.026111	0.025798	46.9665	18318.8	0.024188	0.029554	1589.15	97355
1195	2.000000	1.117052	7.37674e+06	-55839.1	1105.82	-29740.5	0.000000	0.000000	7.119377	52.9326	NaN	0.000000	0.001582	0.001612	28.0829	32.2848	0.001729	18672.9	3.985187	1.903064	53.5327	1.116645	0.028646	0.028239	52.9326	18672.9	0.026520	0.033839	1564.24	92741.9
1195	2.000000	1.119514	7.37674e+06	-55839.1	1105.82	-29740.5	0.000000	0.000000	7.122107	59.4387	NaN	0.000000	0.001561	0.001573	28.0823	35.939	0.001877	19150.1	3.283569	-177.523	59.7414	1.119222	0.031108	0.030816	59.4387	19150.1	0.028780	0.038254	1553.8	89455.7
1195	2.000000	1.121999	7.37674e+06	-55839.1	1105.82	-29740.5	0.000000	0.000000	7.124830	65.2236	NaN	0.000000	0.001527	0.001554	28.0812	37.7525	0.001719	21960.7	6.673859	-3.007274	62.1963	1.121692	0.033593	0.033286	65.2236	21960.7	0.031366	0.043622	1495.18	96064.9
1195	2.000000	1.124472	7.37674e+06	-55839.1	1105.82	-29740.5	0.000000	0.000000	7.127768	76.54	NaN	0.000000	0.001529	0.001586	28.0809	39.8866	0.001786	22332.7	5.970765	178.461	75.4819	1.124181	0.036066	0.035775	76.54	22332.7	0.033496	0.048302	1584.62	92839.5
1195	2.000000	1.126953	7.37674e+06	-55839.1	1105.82	-29740.5	0.000000	0.000000	7.130626	85.6864	NaN	0.000000	0.001579	0.001564	28.0817	42.2346	0.001721	24535.7	2.978831	0.011771	82.7784	1.126591	0.038547	0.038185	85.6864	24535.7	0.035928	0.053929	1588.87	96529.3
1195	2.000000	1.129483	7.37674e+06	-55839.1	1105.82	-29740.5	0.000000	0.000000	7.133504	94.165	NaN	0.000000	0.001610	0.001580	28.081	46.3431	0.001832	25303.3	7.732275	174.909	94.4302	1.129222	0.041077	0.040816	94.165	25303.3	0.038286	0.059673	1578.02	94637.2
1195	2.000000	1.132012	7.37674e+06	-55839.1	1105.82	-29740.5	0.000000	0.000000	7.136371	102.396	NaN	0.000000	0.001575	0.001614	28.0813	47.7706	0.001840	25967.2	4.096173	-1.087181	100.386	1.131574	0.043606	0.043168	102.396	25967.2	0.040648	0.065715	1558.19	92548.1
1195	2.000000	1.134479	7.37674e+06	-55839.1	1105.82	-29740.5	0.000000	0.000000	7.139356	114.949	NaN	0.000000	0.001587	0.001579	28.081	50.312	0.001849	27204	8.864070	173.984	113.857	1.134085	0.046074	0.045679	114.949	27204	0.042904	0.071750	1602.07	92788.9
1195	2.000000	1.136862	7.37674e+06	-55839.1	1105.82	-29740.5	0.000000	0.000000	7.142142	124.743	NaN	0.000000	0.001578	0.001643	28.0818	52.0813	0.001771	29411.3	3.436934	-1.650716	117.593	1.136587	0.048457	0.048181	124.743	29411.3	0.045276	0.078371	1591.69	95986.2
1195	2.000000	1.139423	7.37674e+06	-55839.1	1105.82	-29740.5	0.000000	0.000000	7.145112	134.705	NaN	0.000000	0.001595	0.001615	28.0814	55.49	0.001719	32272.1	4.793774	175.295	130.97	1.139187	0.051018	0.050781	134.705	32272.1	0.047887	0.085994	1566.45	100546
1195	2.000000	1.142028	7.37674e+06	-55839.1	1105.82	-29740.5	0.000000	0.000000	7.148195	146.303	NaN	0.000000	0.001569	0.001607	28.0814	57.4318	0.001796	31971.2	6.498956	-5.647714	143.804	1.141617	0.053623	0.053212	146.303	31971.2	0.050191	0.093003	1573.1	95782.1
1195	2.000000	1.144472	7.37674e+06	-55839.1	1105.82	-29740.5	0.000000	0.000000	7.150986	154.756	NaN	0.000000	0.001568	0.001635	28.081	58.9185	0.001655	35598.9	2.974837	176.727	154.141	1.144174	0.056067	0.055768	154.756	35598.9	0.052806	0.101284	1527.95	102198
1195	2.000000	1.146970	7.37674e+06	-55839.1	1105.82	-29740.5	0.000000	0.000000	7.154009	167.517	NaN	0.000000	0.001568	0.001614	28.0812	62.6279	0.001808	34635.3	8.147350	-7.777047	168.238	1.146562	0.058564	0.058156	167.517	34635.3	0.054937	0.108281	1547.06	96165
1195	2.000000	1.149385	7.37674e+06	-55839.1	1105.82	-29740.5	0.000000	0.000000	7.157064	183.07	NaN	0.000000	0.001601	0.001620	28.0813	65.0046	0.001712	37960.8	6.766002	172.642	178.842	1.149082	0.060979	0.060676	183.07	37960.8	0.057362	0.116520	1571.15	101603
1195	2.000000	1.152046	7.37674e+06	-55839.1	1105.82	-29740.5	0.000000	0.000000	7.160226	195.254	NaN	0.000000	0.001596	0.001602	28.0813	67.2702	0.001734	38790.8	5.495704	-4.900576	198.463	1.151509	0.063640	0.063103	195.254	38790.8	0.059865	0.125324	1557.99	100112
1195	2.000000	1.154505	7.37674e+06	-55839.1	1105.82	-29740.5	0.000000	0.000000	7.163268	209.427	NaN	0.000000	0.001603	0.001598	28.0811	69.9882	0.001808	38707.9	7.110397	172.89	210.208	1.154052	0.066099	0.065646	209.427	38707.9	0.062041	0.133229	1571.93	96888.7
1195	2.000000	1.156993	7.37674e+06	-55839.1	1105.82	-29740.5	0.000000	0.000000	7.166170	219.491	NaN	0.000000	0.001568	0.001618	28.0824	72.5453	0.001801	40286.1	4.767014	-5.806697	218.032	1.156627	0.068587	0.068221	219.491	40286.1	0.064501	0.142442	1540.92	97523.7
1195	2.000000	1.159391	7.37674e+06	-55839.1	1105.82	-29740.5	0.000000	0.000000	7.169250	236.058	NaN	0.000000	0.001566	0.001580	28.0825	74.3305	0.001833	40543.4	1.628449	177.333	231.163	1.159171	0.070985	0.070766	236.058	40543.4	0.066618	0.150604	1567.41	95449.8
1195	2.000000	1.161956	7.37674e+06	-55839.1	1105.82	-29740.5	0.000000	0.000000	7.172746	258.71	NaN	0.000000	0.001547	0.001601	28.0823	76.4838	0.001694	45144.8	9.198450	-9.865213	257.406	1.161431	0.073550	0.073025	258.71	45144.8	0.069252	0.161058	1606.31	102776
1195	2.000000	1.164440	7.37674e+06	-55839.1	1105.82	-29740.5	0.000000	0.000000	7.175707	270.288	NaN	0.000000	0.001579	0.001593	28.0823	79.5451	0.001803	44109.4	8.469889	170.04	271.383	1.164100	0.076034	0.075694	270.288	44109.4	0.071439	0.169990	1590.03	97744.7
1195	2.000000	1.166979	7.37674e+06	-55839.1	1105.82	-29740.5	0.000000	0.000000	7.179178	292.949	NaN	0.000000	0.001564	0.001571	28.0823	81.2335	0.001894	42885.2	6.609860	-7.132863	293.622	1.166527	0.078573	0.078121	292.949	42885.2	0.073450	0.178404	1642.05	92763.9
1195	2.000000	1.169434	7.37674e+06	-55839.1	1105.82	-29740.5	0.000000	0.000000	7.182434	312.414	NaN	0.000000	0.001559	0.001607	28.0826	83.9785	0.001815	46257.5	8.141179	170.368	310.813	1.169081	0.081028	0.080675	312.414	46257.5	0.075963	0.189187	1651.35	97165
1195	2.000000	1.171903	7.37674e+06	-55839.1	1105.82	-29740.5	0.000000	0.000000	7.185732	332.568	NaN	0.000000	0.001531	0.001614	28.0824	84.5404	0.001779	47532.4	3.010622	-4.642835	326.625	1.171527	0.083497	0.083121	332.568	47532.4	0.078250	0.199257	1669.04	97287.1
1195	2.000000	1.174443	7.37674e+06	-55839.1	1105.82	-29740.5	0.000000	0.000000	7.189126	353.335	NaN	0.000000	0.001564	0.001587	28.0822	88.394	0.001818	48634.5	11.5105	166.531	353.447	1.174020	0.086037	0.085614	353.335	48634.5	0.080588	0.209808	1684.09	97008
1195	2.000000	1.177106	7.37674e+06	-55839.1	1105.82	-29740.5	0.000000	0.000000	7.192372	367.512	NaN	0.000000	0.001617	0.001604	28.0824	91.2543	0.001852	49285.1	12.3126	-14.2226	374.58	1.176467	0.088700	0.088061	367.512	49285.1	0.083107	0.221455	1659.53	95685.4
1195	2.000000	1.179364	7.37674e+06	-55839.1	1105.82	-29740.5	0.000000	0.000000	7.195700	393.525	NaN	0.000000	0.001613	0.001589	28.0823	92.4655	0.001809	51102	3.236233	173.839	389.916	1.179210	0.090958	0.090804	393.525	51102	0.085182	0.231271	1701.57	97084.5
1195	2.000000	1.181884	7.37674e+06	-55839.1	1105.82	-29740.5	0.000000	0.000000	7.199273	419.122	NaN	0.000000	0.001592	0.001595	28.0823	94.1565	0.001804	52203	5.722029	-7.779358	414.357	1.181476	0.093478	0.093070	419.122	52203	0.087457	0.242259	1730.05	96901.1
1195	2.000000	1.184473	7.37674e+06	-55839.1	1105.82	-29740.5	0.000000	0.000000	7.202503	434.693	NaN	0.000000	0.001585	0.001618	28.0821	96.7018	0.001702	56816.7	7.397834	169.066	438.525	1.184060	0.096067	0.095654	434.693	56816.7	0.090329	0.256478	1694.86	102500
1195	2.000000	1.186942	7.37674e+06	-55839.1	1105.82	-29740.5	0.000000	0.000000	7.206148	463.28	NaN	0.000000	0.001595	0.001583	28.0826	97.9414	0.001663	58897	4.367629	-7.432474	462.149	1.186542	0.098536	0.098136	463.28	58897	0.092637	0.268174	1727.53	103910
1195	2.000000	1.189361	7.37674e+06	-55839.1	1105.82	-29740.5	0.000000	0.000000	7.209319	481.534	NaN	0.000000	0.001603	0.001570	28.0818	102.117	0.001777	57468.3	3.891661	172.382	479.192	1.189168	0.100956	0.100762	481.534	57468.3	0.094671	0.278687	1727.87	99458.8
1195	2.000000	1.190343	7.37674e+06	-55839.1	1105.82	-29740.5	0.000000	0.000000	7.211061	500.033	NaN	0.000000	0.001626	0.001586	28.0813	102.253	0.001777	57541.4	3.203617	173.966	495.365	1.190044	0.101937	0.101638	500.033	57541.4	0.095420	0.282603	1769.39	98893