File: remote_trans/data/nanoindenter/0828-1/data/Data_2025-08-06,11h17m57s/2025-07-22_16-23-58_1_621.txt
2025-07-22, 16:23:58, 1
Index	Phase	Displacement	Time	Pos X	Pos Y	Pos Z	Rot A	Rot B	Piezo Z	Force A	Force B	Gripper	Voltage A	Voltage B	Temperature	Amplitude force	Amplitude pos	Stiffness	Phase shift	Phase excitation	Force A raw	Displacement raw	HMax	HMax raw	Real Force	Real Stiffness	Contact Depth	Area	Hardness	Reduced Mod.
[#]	[#]	[um]	[s]	[um]	[um]	[um]	[m°]	[m°]	[um]	[uN]	[uN]	[V]	[V]	[V]	[°C]	[uN]	[um]	[N/m]	[°]	[°]	[uN]	[um]	[um]	[um]	[uN]	[N/m]	[um]	[um^2]	[MPa]	[MPa]
621	1.000000	0.002771	7.37113e+06	-46039.1	1005.82	-29770.5	0.000000	0.000000	6.002797	0.019076	NaN	0.000000	0.001571	0.001713	28.0834	0.063806	0.000917	69.5801	43.3228	-171.558	-0.044920	0.001540	-1.070542	-1.071772	0.019076	69.5801	-1.070747	-2.028754E+14	-9.403057E-17	NaN
621	1.000000	0.010735	7.37113e+06	-46039.1	1005.82	-29770.5	0.000000	0.000000	6.010755	-0.103965	NaN	0.000000	0.001565	0.001762	28.0833	0.045384	0.000883	51.3862	130.042	-166.064	-0.009327	0.009401	-1.062578	-1.063912	-0.103965	51.3862	-1.061060	-1.503388E+14	6.915381E-16	NaN
621	1.000000	0.018711	7.37113e+06	-46039.1	1005.82	-29770.5	0.000000	0.000000	6.018734	-0.040982	NaN	0.000000	0.001579	0.001683	28.0833	0.052374	0.001640	31.9357	60.0689	-167.605	-0.043175	0.017428	-1.054601	-1.055885	-0.040982	31.9357	-1.053639	-1.194888E+14	3.429788E-16	NaN
621	1.000000	0.026758	7.37113e+06	-46039.1	1005.82	-29770.5	0.000000	0.000000	6.026780	-0.066917	NaN	0.000000	0.001567	0.001678	28.0834	0.053912	0.001893	28.4843	-16.9556	-171.019	-0.095541	0.025434	-1.046555	-1.047879	-0.066917	28.4843	-1.044793	-9.086819E+13	7.364197E-16	NaN
621	1.000000	0.034736	7.37113e+06	-46039.1	1005.82	-29770.5	0.000000	0.000000	6.034761	-0.000908	NaN	0.000000	0.001572	0.001706	28.0833	0.059431	0.001969	30.1841	-21.1879	-166.076	0.059978	0.033327	-1.038577	-1.039986	-0.000908	30.1841	-1.038554	-7.490789E+13	1.211789E-17	NaN
621	1.000000	0.042701	7.37113e+06	-46039.1	1005.82	-29770.5	0.000000	0.000000	6.042725	-0.019007	NaN	0.000000	0.001556	0.001676	28.0835	0.081527	0.001899	42.9399	-10.8309	-165.259	0.013730	0.041469	-1.030612	-1.031843	-0.019007	42.9399	-1.030280	-5.797590E+13	3.278368E-16	NaN
621	1.000000	0.050723	7.37113e+06	-46039.1	1005.82	-29770.5	0.000000	0.000000	6.050750	0.047169	NaN	0.000000	0.001590	0.001697	28.0832	0.093525	0.001942	48.1574	37.0552	-168.508	0.072033	0.049407	-1.022589	-1.023906	0.047169	48.1574	-1.023324	-4.673819E+13	-1.009214E-15	NaN
621	1.000000	0.058751	7.37113e+06	-46039.1	1005.82	-29770.5	0.000000	0.000000	6.058774	-0.045546	NaN	0.000000	0.001584	0.001659	28.0833	0.054439	0.002088	26.0693	-105.87	-166.54	-0.101339	0.057466	-1.014562	-1.015846	-0.045546	26.0693	-1.013251	-3.420896E+13	1.331408E-15	NaN
621	1.000000	0.066737	7.37113e+06	-46039.1	1005.82	-29770.5	0.000000	0.000000	6.066756	-0.139160	NaN	0.000000	0.001590	0.001721	28.0835	0.109330	0.001968	55.5419	135.644	-164.324	-0.062460	0.065405	-1.006575	-1.007908	-0.139160	55.5419	-1.004696	-2.624174E+13	5.303000E-15	NaN
621	1.000000	0.074732	7.37113e+06	-46039.1	1005.82	-29770.5	0.000000	0.000000	6.074755	-0.051812	NaN	0.000000	0.001581	0.001741	28.0817	0.090563	0.001998	45.3205	-125.188	-166.833	-0.075863	0.073414	-0.998581	-0.999899	-0.051812	45.3205	-0.997723	-2.114040E+13	2.450833E-15	NaN
621	1.000000	0.082728	7.37113e+06	-46039.1	1005.82	-29770.5	0.000000	0.000000	6.082753	0.011251	NaN	0.000000	0.001546	0.001697	28.0818	0.016305	0.002070	7.874985	-41.4331	-164.704	-0.061585	0.081411	-0.990585	-0.991902	0.011251	7.874985	-0.991657	-1.751553E+13	-6.423562E-16	NaN
621	1.000000	0.090727	7.37113e+06	-46039.1	1005.82	-29770.5	0.000000	0.000000	6.090751	-0.033002	NaN	0.000000	0.001565	0.001732	28.082	0.040580	0.002003	20.2605	116.522	-164.736	-0.013091	0.089480	-0.982585	-0.983833	-0.033002	20.2605	-0.981364	-1.272867E+13	2.592737E-15	NaN
621	1.000000	0.098731	7.37113e+06	-46039.1	1005.82	-29770.5	0.000000	0.000000	6.098755	-0.001483	NaN	0.000000	0.001587	0.001745	28.0819	0.031462	0.002021	15.5706	146.819	-166.283	-0.106377	0.097433	-0.974582	-0.975880	-0.001483	15.5706	-0.974511	-1.029079E+13	1.440825E-16	NaN
621	1.000000	0.106714	7.37113e+06	-46039.1	1005.82	-29770.5	0.000000	0.000000	6.106738	-0.016351	NaN	0.000000	0.001546	0.001747	28.082	0.089173	0.001885	47.3052	-16.3783	-165.397	-0.050287	0.105465	-0.966599	-0.967848	-0.016351	47.3052	-0.966340	-7.986076E+12	2.047439E-15	NaN
621	1.000000	0.114760	7.37113e+06	-46039.1	1005.82	-29770.5	0.000000	0.000000	6.114781	-0.091275	NaN	0.000000	0.001546	0.001761	28.0819	0.143010	0.001980	72.2112	174.169	-164.127	-0.102074	0.113398	-0.958553	-0.959915	-0.091275	72.2112	-0.957605	-6.089387E+12	1.498912E-14	NaN
621	1.000000	0.122762	7.37113e+06	-46039.1	1005.82	-29770.5	0.000000	0.000000	6.122785	-0.040381	NaN	0.000000	0.001557	0.001721	28.0822	0.095552	0.001955	48.8867	-74.742	-162.409	-0.037766	0.121423	-0.950551	-0.951889	-0.040381	48.8867	-0.949931	-4.798407E+12	8.415576E-15	NaN
621	1.000000	0.130743	7.37113e+06	-46039.1	1005.82	-29770.5	0.000000	0.000000	6.130767	-0.011818	NaN	0.000000	0.001577	0.001738	28.0821	0.062853	0.002021	31.0952	-156.191	-162.891	-0.084016	0.129457	-0.942570	-0.943855	-0.011818	31.0952	-0.942285	-3.784076E+12	3.123183E-15	NaN
621	1.000000	0.138742	7.37113e+06	-46039.1	1005.82	-29770.5	0.000000	0.000000	6.138767	0.022123	NaN	0.000000	0.001513	0.001732	28.0818	0.032914	0.002010	16.3774	64.0362	-171.966	0.022836	0.137445	-0.934571	-0.935867	0.022123	16.3774	-0.935584	-3.072967E+12	-7.199150E-15	NaN
621	1.000000	0.146789	7.37113e+06	-46039.1	1005.82	-29770.5	0.000000	0.000000	6.146814	0.005379	NaN	0.000000	0.001535	0.001742	28.0818	0.121628	0.002032	59.861	-76.9521	-166.126	-0.003457	0.145405	-0.926523	-0.927907	0.005379	59.861	-0.926591	-2.323703E+12	-2.314908E-15	NaN
621	1.000000	0.154777	7.37113e+06	-46039.1	1005.82	-29770.5	0.000000	0.000000	6.154802	0.008377	NaN	0.000000	0.001504	0.001724	28.0818	0.093758	0.002107	44.4922	-19.1338	-167.565	0.024082	0.153417	-0.918536	-0.919895	0.008377	44.4922	-0.918677	-1.816950E+12	-4.610256E-15	NaN
621	1.000000	0.162769	7.37113e+06	-46039.1	1005.82	-29770.5	0.000000	0.000000	6.162790	-0.095930	NaN	0.000000	0.001520	0.001748	28.0822	0.106307	0.002005	53.031	-58.5659	-167.888	-0.120103	0.161438	-0.910543	-0.911875	-0.095930	53.031	-0.909187	-1.352621E+12	7.092129E-14	NaN
621	1.000000	0.170773	7.37113e+06	-46039.1	1005.82	-29770.5	0.000000	0.000000	6.170798	0.016420	NaN	0.000000	0.001545	0.001707	28.0818	0.008520	0.001950	4.368366	20.1062	-163.378	0.041952	0.169463	-0.902540	-0.903849	0.016420	4.368366	-0.905359	-1.200805E+12	-1.367396E-14	NaN
621	1.000000	0.178762	7.37113e+06	-46039.1	1005.82	-29770.5	0.000000	0.000000	6.178788	0.028703	NaN	0.000000	0.001518	0.001717	28.0822	0.063313	0.002071	30.5754	-178.855	-167.764	0.029953	0.177484	-0.894551	-0.895829	0.028703	30.5754	-0.895255	-8.768759E+11	-3.273287E-14	NaN
621	1.000000	0.186775	7.37113e+06	-46039.1	1005.82	-29770.5	0.000000	0.000000	6.186794	-0.141404	NaN	0.000000	0.001531	0.001731	28.0823	0.047348	0.001994	23.7469	117.396	-165.381	-0.163852	0.185501	-0.886537	-0.887812	-0.141404	23.7469	-0.882071	-5.817271E+11	2.430765E-13	NaN
621	1.000000	0.194780	7.37113e+06	-46039.1	1005.82	-29770.5	0.000000	0.000000	6.194799	-0.140280	NaN	0.000000	0.001531	0.001738	28.0819	0.031483	0.002087	15.0886	-42.133	-164.284	-0.071563	0.193447	-0.878532	-0.879865	-0.140280	15.0886	-0.871560	-4.193168E+11	3.345438E-13	NaN
621	1.000000	0.202768	7.37113e+06	-46039.1	1005.82	-29770.5	0.000000	0.000000	6.202791	-0.050513	NaN	0.000000	0.001527	0.001713	28.0819	0.113701	0.002033	55.9324	130.905	-168.113	-0.043286	0.201450	-0.870545	-0.871863	-0.050513	55.9324	-0.869867	-3.977841E+11	1.269853E-13	NaN
621	1.000000	0.210821	7.37113e+06	-46039.1	1005.82	-29770.5	0.000000	0.000000	6.210844	-0.029915	NaN	0.000000	0.001495	0.001713	28.083	0.062583	0.002010	31.1324	-23.8085	-167.761	-0.099531	0.209494	-0.862492	-0.863819	-0.029915	31.1324	-0.861771	-3.090955E+11	9.678287E-14	NaN
621	1.000000	0.218771	7.37113e+06	-46039.1	1005.82	-29770.5	0.000000	0.000000	6.218792	-0.090157	NaN	0.000000	0.001530	0.001686	28.083	0.083965	0.001905	44.0805	-2.964635	-167.763	-0.089183	0.217482	-0.854542	-0.855830	-0.090157	44.0805	-0.853008	-2.352178E+11	3.832924E-13	NaN
621	1.000000	0.226809	7.37113e+06	-46039.1	1005.82	-29770.5	0.000000	0.000000	6.226830	-0.101300	NaN	0.000000	0.001521	0.001758	28.0833	0.072467	0.002104	34.4433	59.4939	-165.976	-0.062865	0.225506	-0.846504	-0.847807	-0.101300	34.4433	-0.844298	-1.792721E+11	5.650651E-13	NaN
621	1.000000	0.234812	7.37113e+06	-46039.1	1005.82	-29770.5	0.000000	0.000000	6.234834	-0.064213	NaN	0.000000	0.001507	0.001749	28.083	0.031949	0.002127	15.0207	31.131	-166.089	-0.046623	0.233501	-0.838501	-0.839812	-0.064213	15.0207	-0.835295	-1.353752E+11	4.743307E-13	NaN
621	1.000000	0.242809	7.37113e+06	-46039.1	1005.82	-29770.5	0.000000	0.000000	6.242830	-0.073277	NaN	0.000000	0.001498	0.001754	28.0831	0.074323	0.002138	34.7573	138.863	-166.261	-0.048830	0.241510	-0.830504	-0.831803	-0.073277	34.7573	-0.828923	-1.109642E+11	6.603645E-13	NaN
621	1.000000	0.250819	7.37113e+06	-46039.1	1005.82	-29770.5	0.000000	0.000000	6.250841	-0.076119	NaN	0.000000	0.001503	0.001723	28.0831	0.023946	0.002054	11.6606	-171.572	-168.567	-0.033761	0.249558	-0.822493	-0.823755	-0.076119	11.6606	-0.817597	-7.791606E+10	9.769370E-13	NaN
621	1.000000	0.258794	7.37113e+06	-46039.1	1005.82	-29770.5	0.000000	0.000000	6.258818	-0.014495	NaN	0.000000	0.001530	0.001704	28.0832	0.076473	0.001847	41.3966	-112.924	-167.314	-0.112826	0.257497	-0.814519	-0.815815	-0.014495	41.3966	-0.814256	-7.019541E+10	2.064967E-13	NaN
621	1.000000	0.266822	7.37113e+06	-46039.1	1005.82	-29770.5	0.000000	0.000000	6.266845	-0.025132	NaN	0.000000	0.001539	0.001728	28.0832	0.093635	0.001980	47.2896	108.406	-162.749	-0.014901	0.265509	-0.806491	-0.807803	-0.025132	47.2896	-0.806093	-5.439422E+10	4.620332E-13	NaN
621	1.000000	0.274805	7.37113e+06	-46039.1	1005.82	-29770.5	0.000000	0.000000	6.274828	-0.034645	NaN	0.000000	0.001590	0.001743	28.0835	0.038449	0.002073	18.5484	153.327	-165.68	-0.097192	0.273460	-0.798508	-0.799853	-0.034645	18.5484	-0.797107	-4.107629E+10	8.434232E-13	NaN
621	1.000000	0.282826	7.37113e+06	-46039.1	1005.82	-29770.5	0.000000	0.000000	6.282847	-0.086937	NaN	0.000000	0.001555	0.001702	28.0831	0.098532	0.001880	52.4001	83.6935	-165.588	-0.032866	0.281505	-0.790487	-0.791808	-0.086937	52.4001	-0.789243	-3.212164E+10	2.706490E-12	NaN
621	1.000000	0.290842	7.37113e+06	-46039.1	1005.82	-29770.5	0.000000	0.000000	6.290866	-0.015805	NaN	0.000000	0.001583	0.001722	28.0833	0.082246	0.002051	40.1091	-172.593	-167.926	-0.067222	0.289549	-0.782470	-0.783764	-0.015805	40.1091	-0.782175	-2.575040E+10	6.137906E-13	NaN
621	1.000000	0.298817	7.37113e+06	-46039.1	1005.82	-29770.5	0.000000	0.000000	6.298841	-0.029630	NaN	0.000000	0.001560	0.001693	28.0833	0.045980	0.001885	24.392	-83.6452	-166.311	-0.084242	0.297520	-0.774496	-0.775793	-0.029630	24.392	-0.773585	-1.968060E+10	1.505547E-12	NaN
621	1.000000	0.306853	7.37113e+06	-46039.1	1005.82	-29770.5	0.000000	0.000000	6.306877	-0.023071	NaN	0.000000	0.001564	0.001708	28.0837	0.046554	0.002019	23.0531	-147.203	-168.394	-0.032804	0.305558	-0.766460	-0.767755	-0.023071	23.0531	-0.765709	-1.538013E+10	1.500035E-12	NaN
621	1.000000	0.314831	7.37113e+06	-46039.1	1005.82	-29770.5	0.000000	0.000000	6.314853	-0.060779	NaN	0.000000	0.001606	0.001728	28.0835	0.077185	0.002011	38.3759	116.654	-165.628	-0.016880	0.313536	-0.758481	-0.759777	-0.060779	38.3759	-0.757294	-1.181631E+10	5.143662E-12	NaN
621	1.000000	0.322840	7.37113e+06	-46039.1	1005.82	-29770.5	0.000000	0.000000	6.322861	-0.071103	NaN	0.000000	0.001586	0.001749	28.0835	0.042997	0.002121	20.2697	-24.5479	-165.049	-0.175160	0.321562	-0.750473	-0.751751	-0.071103	20.2697	-0.747842	-8.787130E+9	8.091669E-12	NaN
621	1.000000	0.330827	7.37113e+06	-46039.1	1005.82	-29770.5	0.000000	0.000000	6.330849	-0.066698	NaN	0.000000	0.001556	0.001725	28.0837	0.081979	0.001956	41.9011	-109.627	-169.494	-0.056623	0.329543	-0.742485	-0.743770	-0.066698	41.9011	-0.741291	-7.155578E+9	9.321065E-12	NaN
621	1.000000	0.338837	7.37113e+06	-46039.1	1005.82	-29770.5	0.000000	0.000000	6.338861	-0.019599	NaN	0.000000	0.001536	0.001725	28.0836	0.086694	0.002034	42.6199	104.129	-165.245	-0.092923	0.337509	-0.734476	-0.735804	-0.019599	42.6199	-0.734131	-5.716173E+9	3.428645E-12	NaN
621	1.000000	0.346869	7.37113e+06	-46039.1	1005.82	-29770.5	0.000000	0.000000	6.346894	0.000714	NaN	0.000000	0.001536	0.001738	28.0824	0.065788	0.001913	34.385	105.707	-162.724	-0.063192	0.345599	-0.726443	-0.727713	0.000714	34.385	-0.726459	-4.493037E+9	-1.590155E-13	NaN
621	1.000000	0.354870	7.37113e+06	-46039.1	1005.82	-29770.5	0.000000	0.000000	6.354893	-0.043758	NaN	0.000000	0.001536	0.001757	28.082	0.061402	0.002051	29.9379	23.8726	-166.928	0.003076	0.353518	-0.718443	-0.719795	-0.043758	29.9379	-0.717347	-3.375077E+9	1.296502E-11	NaN
621	1.000000	0.362875	7.37113e+06	-46039.1	1005.82	-29770.5	0.000000	0.000000	6.362898	-0.050421	NaN	0.000000	0.001523	0.001729	28.082	0.029867	0.002033	14.6942	-21.6306	-166.108	-0.065814	0.361573	-0.710438	-0.711739	-0.050421	14.6942	-0.707864	-2.505524E+9	2.012389E-11	NaN
621	1.000000	0.370870	7.37113e+06	-46039.1	1005.82	-29770.5	0.000000	0.000000	6.370891	-0.092910	NaN	0.000000	0.001528	0.001708	28.0822	0.095387	0.001939	49.1919	-152.374	-164.859	-0.070433	0.369543	-0.702443	-0.703770	-0.092910	49.1919	-0.701026	-2.020886E+9	4.597495E-11	NaN
621	1.000000	0.378838	7.37113e+06	-46039.1	1005.82	-29770.5	0.000000	0.000000	6.378859	-0.093275	NaN	0.000000	0.001552	0.001763	28.0822	0.110450	0.001868	59.1265	50.848	-164.206	-0.110628	0.377576	-0.694475	-0.695737	-0.093275	59.1265	-0.693292	-1.584527E+9	5.886595E-11	NaN
621	1.000000	0.386894	7.37113e+06	-46039.1	1005.82	-29770.5	0.000000	0.000000	6.386917	-0.036045	NaN	0.000000	0.001500	0.001771	28.0821	0.031813	0.001953	16.2902	130.901	-166.295	-0.050692	0.385536	-0.686419	-0.687777	-0.036045	16.2902	-0.684760	-1.211400E+9	2.975459E-11	NaN
621	1.000000	0.394878	7.37113e+06	-46039.1	1005.82	-29770.5	0.000000	0.000000	6.394898	-0.104611	NaN	0.000000	0.001544	0.001729	28.082	0.065193	0.001949	33.4517	-74.0364	-166.313	-0.089097	0.393517	-0.678435	-0.679796	-0.104611	33.4517	-0.676089	-9.219653E+8	1.134649E-10	NaN
621	1.000000	0.402894	7.37113e+06	-46039.1	1005.82	-29770.5	0.000000	0.000000	6.402917	-0.046640	NaN	0.000000	0.001551	0.001748	28.082	0.088003	0.001908	46.1259	69.4576	-168.214	-0.141960	0.401579	-0.670419	-0.671733	-0.046640	46.1259	-0.669660	-7.529111E+8	6.194622E-11	NaN
621	1.000000	0.410852	7.37113e+06	-46039.1	1005.82	-29770.5	0.000000	0.000000	6.410876	-0.017155	NaN	0.000000	0.001536	0.001739	28.0822	0.036013	0.001980	18.191	76.6394	-165.513	-0.043953	0.409590	-0.662461	-0.663723	-0.017155	18.191	-0.661754	-5.867943E+8	2.923451E-11	NaN
621	1.000000	0.418883	7.37113e+06	-46039.1	1005.82	-29770.5	0.000000	0.000000	6.418904	-0.086200	NaN	0.000000	0.001530	0.001767	28.0823	0.127570	0.002052	62.1644	42.9126	-166.333	-0.059438	0.417521	-0.654430	-0.655792	-0.086200	62.1644	-0.653390	-4.507147E+8	1.912511E-10	NaN
621	1.000000	0.426895	7.37113e+06	-46039.1	1005.82	-29770.5	0.000000	0.000000	6.426917	-0.055064	NaN	0.000000	0.001504	0.001745	28.0822	0.091627	0.001923	47.6541	-62.6272	-166.556	0.007936	0.425594	-0.646418	-0.647718	-0.055064	47.6541	-0.645551	-3.519169E+8	1.564695E-10	NaN
621	1.000000	0.434872	7.37113e+06	-46039.1	1005.82	-29770.5	0.000000	0.000000	6.434897	0.013844	NaN	0.000000	0.001538	0.001766	28.0822	0.022938	0.002049	11.1929	-117.186	-167.76	-0.035660	0.433554	-0.638441	-0.639758	0.013844	11.1929	-0.639368	-2.894833E+8	-4.782295E-11	NaN
621	1.000000	0.442876	7.37113e+06	-46039.1	1005.82	-29770.5	0.000000	0.000000	6.442899	-0.031020	NaN	0.000000	0.001539	0.001757	28.0823	0.064128	0.002030	31.5972	-163.101	-166.264	-0.107433	0.441582	-0.630437	-0.631730	-0.031020	31.5972	-0.629701	-2.132616E+8	1.454558E-10	NaN
621	1.000000	0.450900	7.37113e+06	-46039.1	1005.82	-29770.5	0.000000	0.000000	6.450922	-0.080292	NaN	0.000000	0.001505	0.001761	28.0822	0.065607	0.001948	33.6763	-120.181	-166.177	-0.059413	0.449612	-0.622412	-0.623700	-0.080292	33.6763	-0.620624	-1.600338E+8	5.017171E-10	NaN
621	1.000000	0.458902	7.37113e+06	-46039.1	1005.82	-29770.5	0.000000	0.000000	6.458926	-0.023068	NaN	0.000000	0.001519	0.001779	28.0822	0.077630	0.001909	40.6754	-85.9356	-165.279	0.003673	0.457614	-0.614411	-0.615699	-0.023068	40.6754	-0.613985	-1.296981E+8	1.778586E-10	NaN
621	1.000000	0.466913	7.37113e+06	-46039.1	1005.82	-29770.5	0.000000	0.000000	6.466937	-0.021755	NaN	0.000000	0.001478	0.001761	28.0823	0.069406	0.001983	34.9924	172.791	-167.003	-0.008508	0.465559	-0.606399	-0.607754	-0.021755	34.9924	-0.605933	-1.004956E+8	2.164780E-10	NaN
621	1.000000	0.474916	7.37113e+06	-46039.1	1005.82	-29770.5	0.000000	0.000000	6.474938	-0.071046	NaN	0.000000	0.001473	0.001744	28.0824	0.004797	0.002051	2.338396	155.076	-164.954	0.015583	0.473601	-0.598397	-0.599712	-0.071046	2.338396	-0.575610	-3.838176E+7	1.851026E-9	NaN
621	1.000000	0.482919	7.37113e+06	-46039.1	1005.82	-29770.5	0.000000	0.000000	6.482938	-0.136726	NaN	0.000000	0.001488	0.001729	28.0838	0.090127	0.001963	45.9211	-78.8295	-168.782	-0.140998	0.481593	-0.590393	-0.591720	-0.136726	45.9211	-0.588160	-5.718738E+7	2.390840E-9	NaN
621	1.000000	0.490898	7.37113e+06	-46039.1	1005.82	-29770.5	0.000000	0.000000	6.490924	0.015256	NaN	0.000000	0.001505	0.001726	28.0835	0.075265	0.001998	37.6712	-64.2589	-168.667	-0.029962	0.489557	-0.582414	-0.583756	0.015256	37.6712	-0.582718	-4.810996E+7	-3.171123E-10	NaN
621	1.000000	0.498957	7.37113e+06	-46039.1	1005.82	-29770.5	0.000000	0.000000	6.498977	-0.100085	NaN	0.000000	0.001509	0.001744	28.0834	0.170535	0.002101	81.1586	-109.439	-166.994	-0.083305	0.497606	-0.574356	-0.575707	-0.100085	81.1586	-0.573431	-3.581211E+7	2.794720E-9	NaN
621	1.000000	0.506906	7.37113e+06	-46039.1	1005.82	-29770.5	0.000000	0.000000	6.506927	-0.079082	NaN	0.000000	0.001511	0.001724	28.0837	0.005858	0.002162	2.710264	-131.088	-165.6	0.077354	0.505616	-0.566407	-0.567696	-0.079082	2.710264	-0.544523	-1.425831E+7	5.546361E-9	NaN
621	1.000000	0.514937	7.37113e+06	-46039.1	1005.82	-29770.5	0.000000	0.000000	6.514962	0.016559	NaN	0.000000	0.001472	0.001761	28.0836	0.038516	0.001921	20.0493	-6.738254	-164.399	0.028287	0.513625	-0.558376	-0.559687	0.016559	20.0493	-0.558995	-2.261911E+7	-7.320633E-10	NaN
621	1.000000	0.522938	7.37113e+06	-46039.1	1005.82	-29770.5	0.000000	0.000000	6.522957	-0.134490	NaN	0.000000	0.001491	0.001783	28.0838	0.122350	0.001916	63.8542	36.6162	-161.974	-0.103847	0.521613	-0.550375	-0.551700	-0.134490	63.8542	-0.548795	-1.634065E+7	8.230409E-9	NaN
621	1.000000	0.530938	7.37113e+06	-46039.1	1005.82	-29770.5	0.000000	0.000000	6.530961	-0.037343	NaN	0.000000	0.001514	0.001735	28.0833	0.025856	0.002104	12.2888	-143.182	-166.057	-0.084309	0.529550	-0.542375	-0.543763	-0.037343	12.2888	-0.540096	-1.237899E+7	3.016652E-9	NaN
621	1.000000	0.538944	7.37113e+06	-46039.1	1005.82	-29770.5	0.000000	0.000000	6.538967	-0.042606	NaN	0.000000	0.001488	0.001730	28.0836	0.154023	0.002133	72.2239	-127.078	-165.581	-0.218172	0.537599	-0.534369	-0.535714	-0.042606	72.2239	-0.533927	-1.016465E+7	4.191599E-9	NaN
621	1.000000	0.546924	7.37113e+06	-46039.1	1005.82	-29770.5	0.000000	0.000000	6.546950	0.023894	NaN	0.000000	0.001517	0.001749	28.0835	0.064393	0.001966	32.7448	-156.871	-164.557	0.013590	0.545638	-0.526388	-0.527674	0.023894	32.7448	-0.526936	-8.12845e+06	-2.939575E-9	NaN
621	1.000000	0.554944	7.37113e+06	-46039.1	1005.82	-29770.5	0.000000	0.000000	6.554967	-0.022223	NaN	0.000000	0.001518	0.001744	28.0837	0.043049	0.001991	21.6184	-142.57	-167.776	-0.115183	0.553674	-0.518369	-0.519639	-0.022223	21.6184	-0.517598	-6.02819e+06	3.686508E-9	NaN
621	1.000000	0.562910	7.37113e+06	-46039.1	1005.82	-29770.5	0.000000	0.000000	6.562932	-0.052971	NaN	0.000000	0.001522	0.001721	28.0835	0.001565	0.001871	0.836408	80.0737	-166.758	-0.092010	0.561683	-0.510403	-0.511629	-0.052971	0.836408	-0.462905	-1.03711e+06	5.107523E-8	NaN
621	1.000000	0.570949	7.37113e+06	-46039.1	1005.82	-29770.5	0.000000	0.000000	6.570972	-0.035190	NaN	0.000000	0.001497	0.001754	28.0835	0.040821	0.001984	20.5739	115.959	-165.71	-0.033923	0.569615	-0.502364	-0.503698	-0.035190	20.5739	-0.501081	-3.54893e+06	9.915536E-9	NaN
621	1.000000	0.578956	7.37113e+06	-46039.1	1005.82	-29770.5	0.000000	0.000000	6.578977	-0.093854	NaN	0.000000	0.001514	0.001730	28.0837	0.188496	0.001915	98.4358	-33.9486	-165.288	0.009428	0.577644	-0.494357	-0.495668	-0.093854	98.4358	-0.493642	-2.79427e+06	3.358792E-8	NaN
621	1.000000	0.586941	7.37113e+06	-46039.1	1005.82	-29770.5	0.000000	0.000000	6.586965	-0.025040	NaN	0.000000	0.001503	0.001730	28.0833	0.111871	0.002027	55.2029	174.112	-164.586	-0.012418	0.585603	-0.486372	-0.487710	-0.025040	55.2029	-0.486031	-2.18733e+06	1.144775E-8	NaN
621	1.000000	0.594944	7.37113e+06	-46039.1	1005.82	-29770.5	0.000000	0.000000	6.594964	-0.106705	NaN	0.000000	0.001516	0.001757	28.0834	0.066462	0.001919	34.6366	153.385	-167.104	-0.119085	0.593708	-0.478369	-0.479605	-0.106705	34.6366	-0.476059	-1.5861e+06	6.727488E-8	NaN
621	1.000000	0.602961	7.37113e+06	-46039.1	1005.82	-29770.5	0.000000	0.000000	6.602983	-0.072130	NaN	0.000000	0.001485	0.001734	28.0833	0.148336	0.002063	71.8998	-62.4023	-161.635	-0.036091	0.601637	-0.470351	-0.471675	-0.072130	71.8998	-0.469599	-1.2876e+06	5.601860E-8	NaN
621	1.000000	0.610966	7.37113e+06	-46039.1	1005.82	-29770.5	0.000000	0.000000	6.610989	-0.045438	NaN	0.000000	0.001527	0.001687	28.0833	0.066740	0.002039	32.7286	-162.997	-167.692	-0.054324	0.609675	-0.462347	-0.463637	-0.045438	32.7286	-0.461305	-984829	4.613778E-8	NaN
621	1.000000	0.619006	7.37113e+06	-46039.1	1005.82	-29770.5	0.000000	0.000000	6.619027	-0.072141	NaN	0.000000	0.001538	0.001724	28.0822	0.062916	0.001872	33.6111	131.027	-166.19	-0.048651	0.617680	-0.454307	-0.455632	-0.072141	33.6111	-0.452697	-745275	9.679794E-8	NaN
621	1.000000	0.626979	7.37113e+06	-46039.1	1005.82	-29770.5	0.000000	0.000000	6.627002	-0.034792	NaN	0.000000	0.001515	0.001716	28.082	0.098864	0.001974	50.0763	-99.3026	-165.223	-0.022029	0.625663	-0.446334	-0.447649	-0.034792	50.0763	-0.445813	-596141	5.836239E-8	NaN
621	1.000000	0.634973	7.37113e+06	-46039.1	1005.82	-29770.5	0.000000	0.000000	6.634992	-0.142223	NaN	0.000000	0.001511	0.001705	28.082	0.060557	0.001988	30.4597	117.514	-165.47	-0.122855	0.633674	-0.438339	-0.439638	-0.142223	30.4597	-0.434838	-417309	3.408104E-7	NaN
621	1.000000	0.642959	7.37113e+06	-46039.1	1005.82	-29770.5	0.000000	0.000000	6.642982	-0.040177	NaN	0.000000	0.001506	0.001748	28.0819	0.025332	0.001975	12.8243	-143.994	-166.709	-0.068188	0.641681	-0.430354	-0.431632	-0.040177	12.8243	-0.428004	-334057	1.202699E-7	NaN
621	1.000000	0.650957	7.37113e+06	-46039.1	1005.82	-29770.5	0.000000	0.000000	6.650979	-0.070991	NaN	0.000000	0.001514	0.001749	28.082	0.025742	0.002076	12.4002	-72.8153	-165.536	-0.125167	0.649699	-0.422356	-0.423613	-0.070991	12.4002	-0.418062	-241504	2.939542E-7	NaN
621	1.000000	0.658990	7.37113e+06	-46039.1	1005.82	-29770.5	0.000000	0.000000	6.659013	-0.033176	NaN	0.000000	0.001548	0.001716	28.0825	0.119580	0.001953	61.2376	5.420128	-166.189	0.035804	0.657635	-0.414323	-0.415678	-0.033176	61.2376	-0.413917	-210897	1.573079E-7	NaN
621	1.000000	0.666990	7.37113e+06	-46039.1	1005.82	-29770.5	0.000000	0.000000	6.667013	-0.041370	NaN	0.000000	0.001494	0.001737	28.0821	0.032375	0.001971	16.4233	45.131	-169.373	-0.038463	0.665683	-0.406322	-0.407629	-0.041370	16.4233	-0.404433	-154587	2.676137E-7	NaN
621	1.000000	0.675010	7.37113e+06	-46039.1	1005.82	-29770.5	0.000000	0.000000	6.675034	-0.031580	NaN	0.000000	0.001504	0.001753	28.082	0.028638	0.001988	14.405	168.696	-165.433	-0.024692	0.673678	-0.398303	-0.399635	-0.031580	14.405	-0.396658	-119761	2.636914E-7	NaN
621	1.000000	0.682983	7.37113e+06	-46039.1	1005.82	-29770.5	0.000000	0.000000	6.683007	-0.029753	NaN	0.000000	0.001512	0.001741	28.082	0.058665	0.001997	29.3788	-57.964	-167.947	-0.041848	0.681680	-0.390330	-0.391632	-0.029753	29.3788	-0.389570	-94845.5	3.136949E-7	NaN
621	1.000000	0.691000	7.37113e+06	-46039.1	1005.82	-29770.5	0.000000	0.000000	6.691022	-0.054228	NaN	0.000000	0.001537	0.001745	28.0821	0.144791	0.001989	72.802	-159.497	-164.056	-0.023443	0.689663	-0.382313	-0.383650	-0.054228	72.802	-0.381754	-73292.5	7.398825E-7	NaN
621	1.000000	0.699013	7.37113e+06	-46039.1	1005.82	-29770.5	0.000000	0.000000	6.699034	-0.073309	NaN	0.000000	0.001522	0.001760	28.0821	0.075873	0.001963	38.6547	-133.775	-165.333	-0.042768	0.697702	-0.374300	-0.375610	-0.073309	38.6547	-0.372878	-54644.8	1.341562E-6	NaN
621	1.000000	0.707008	7.37113e+06	-46039.1	1005.82	-29770.5	0.000000	0.000000	6.707029	-0.104261	NaN	0.000000	0.001527	0.001748	28.0822	0.054216	0.001943	27.9041	130.928	-162.129	-0.043079	0.705667	-0.366304	-0.367646	-0.104261	27.9041	-0.363502	-40034.5	2.604286E-6	NaN
621	1.000000	0.715010	7.37113e+06	-46039.1	1005.82	-29770.5	0.000000	0.000000	6.715031	-0.079275	NaN	0.000000	0.001505	0.001724	28.0823	0.092840	0.002083	44.5763	-171.008	-167.976	-0.048148	0.713723	-0.358303	-0.359590	-0.079275	44.5763	-0.356969	-32211.4	2.461081E-6	NaN
621	1.000000	0.722979	7.37113e+06	-46039.1	1005.82	-29770.5	0.000000	0.000000	6.723003	-0.013015	NaN	0.000000	0.001529	0.001685	28.082	0.083264	0.001907	43.6676	111.695	-164.151	-0.021021	0.721700	-0.350334	-0.351612	-0.013015	43.6676	-0.350110	-25621.3	5.079871E-7	NaN
621	1.000000	0.731018	7.37113e+06	-46039.1	1005.82	-29770.5	0.000000	0.000000	6.731038	-0.100719	NaN	0.000000	0.001504	0.001699	28.082	0.117605	0.001905	61.722	159.843	-166.627	-0.108759	0.729696	-0.342295	-0.343617	-0.100719	61.722	-0.341071	-18930.7	5.320396E-6	NaN
621	1.000000	0.739032	7.37113e+06	-46039.1	1005.82	-29770.5	0.000000	0.000000	6.739054	-0.059540	NaN	0.000000	0.001449	0.001720	28.082	0.077633	0.002131	36.4299	96.2277	-164.611	-0.064533	0.737726	-0.334281	-0.335587	-0.059540	36.4299	-0.333055	-14459.7	4.117666E-6	NaN
621	1.000000	0.747036	7.37113e+06	-46039.1	1005.82	-29770.5	0.000000	0.000000	6.747055	-0.127232	NaN	0.000000	0.001463	0.001691	28.0822	0.031140	0.001968	15.8248	67.3993	-166.261	-0.078507	0.745691	-0.326277	-0.327621	-0.127232	15.8248	-0.320247	-9381.45	1.356203E-5	NaN
621	1.000000	0.755032	7.37113e+06	-46039.1	1005.82	-29770.5	0.000000	0.000000	6.755056	-0.022087	NaN	0.000000	0.001497	0.001686	28.0833	0.126284	0.001982	63.731	94.9754	-165.42	-0.016329	0.753664	-0.318280	-0.319648	-0.022087	63.731	-0.318021	-8699.37	2.538959E-6	NaN
621	1.000000	0.763008	7.37113e+06	-46039.1	1005.82	-29770.5	0.000000	0.000000	6.763033	-0.007869	NaN	0.000000	0.001476	0.001696	28.0834	0.057996	0.001927	30.104	-15.4909	-165.59	-0.020723	0.761692	-0.310304	-0.311621	-0.007869	30.104	-0.310108	-6647.51	1.183763E-6	NaN
621	1.000000	0.771024	7.37113e+06	-46039.1	1005.82	-29770.5	0.000000	0.000000	6.771047	-0.023765	NaN	0.000000	0.001447	0.001728	28.0834	0.020594	0.001876	10.9763	-109.701	-164.414	-0.064200	0.769727	-0.302289	-0.303586	-0.023765	10.9763	-0.300665	-4814.35	4.936331E-6	NaN
621	1.000000	0.779036	7.37113e+06	-46039.1	1005.82	-29770.5	0.000000	0.000000	6.779057	-0.086227	NaN	0.000000	0.001510	0.001714	28.083	0.060747	0.001879	32.335	-4.249667	-163.454	-0.047165	0.777767	-0.294277	-0.295546	-0.086227	32.335	-0.292277	-3609	2.389231E-5	NaN
621	1.000000	0.787029	7.37113e+06	-46039.1	1005.82	-29770.5	0.000000	0.000000	6.787050	-0.075698	NaN	0.000000	0.001513	0.001717	28.083	0.066159	0.002007	32.9629	-59.5035	-165.233	0.007636	0.785727	-0.286284	-0.287586	-0.075698	32.9629	-0.284562	-2764.89	2.737821E-5	NaN
621	1.000000	0.795056	7.37113e+06	-46039.1	1005.82	-29770.5	0.000000	0.000000	6.795079	-0.034616	NaN	0.000000	0.001512	0.001744	28.0832	0.035934	0.002132	16.8553	-134.557	-167.89	0.028564	0.793754	-0.278257	-0.279559	-0.034616	16.8553	-0.276716	-2105.59	1.644020E-5	NaN
621	1.000000	0.803053	7.37113e+06	-46039.1	1005.82	-29770.5	0.000000	0.000000	6.803075	-0.065132	NaN	0.000000	0.001499	0.001736	28.0832	0.094293	0.001994	47.2792	133.946	-167.638	-0.010344	0.801754	-0.270260	-0.271559	-0.065132	47.2792	-0.269226	-1620.99	4.018022E-5	NaN
621	1.000000	0.811028	7.37113e+06	-46039.1	1005.82	-29770.5	0.000000	0.000000	6.811049	-0.102677	NaN	0.000000	0.001499	0.001727	28.0834	0.098274	0.002030	48.4186	12.1647	-166.562	-0.134959	0.809761	-0.262284	-0.263552	-0.102677	48.4186	-0.260694	-1201.02	8.549201E-5	NaN
621	1.000000	0.819021	7.37113e+06	-46039.1	1005.82	-29770.5	0.000000	0.000000	6.819042	-0.090420	NaN	0.000000	0.001534	0.001716	28.0832	0.026783	0.001908	14.0366	-149.104	-168.75	-0.050701	0.817713	-0.254292	-0.255600	-0.090420	14.0366	-0.249460	-806.526	0.000112	NaN
621	1.000000	0.827050	7.37113e+06	-46039.1	1005.82	-29770.5	0.000000	0.000000	6.827074	-0.021077	NaN	0.000000	0.001520	0.001737	28.0833	0.043277	0.002087	20.7374	-108.866	-165.614	-0.005417	0.825733	-0.246262	-0.247580	-0.021077	20.7374	-0.245500	-700.196	3.010192E-5	NaN
621	1.000000	0.835069	7.37113e+06	-46039.1	1005.82	-29770.5	0.000000	0.000000	6.835092	-0.042211	NaN	0.000000	0.001555	0.001731	28.0832	0.099241	0.002002	49.564	-114.835	-161.701	-0.066142	0.833750	-0.238244	-0.239562	-0.042211	49.564	-0.237605	-527.347	8.004443E-5	NaN
621	1.000000	0.843081	7.37113e+06	-46039.1	1005.82	-29770.5	0.000000	0.000000	6.843100	-0.131280	NaN	0.000000	0.001517	0.001704	28.0834	0.039402	0.001917	20.5513	-28.3593	-169.879	-0.132951	0.841748	-0.230232	-0.231565	-0.131280	20.5513	-0.225441	-339.11	0.000387	NaN
621	1.000000	0.851059	7.37113e+06	-46039.1	1005.82	-29770.5	0.000000	0.000000	6.851077	-0.148768	NaN	0.000000	0.001543	0.001720	28.0833	0.090907	0.001940	46.8484	119.002	-164.445	-0.148204	0.849774	-0.222254	-0.223539	-0.148768	46.8484	-0.219873	-276.465	0.000538	NaN
621	1.000000	0.859053	7.37113e+06	-46039.1	1005.82	-29770.5	0.000000	0.000000	6.859077	-0.018534	NaN	0.000000	0.001519	0.001775	28.0836	0.054505	0.002004	27.2004	-165.123	-166.506	-0.103386	0.857732	-0.214260	-0.215581	-0.018534	27.2004	-0.213749	-220.483	8.406198E-5	NaN
621	1.000000	0.867084	7.37113e+06	-46039.1	1005.82	-29770.5	0.000000	0.000000	6.867105	-0.095020	NaN	0.000000	0.001533	0.001718	28.0844	0.049973	0.002038	24.5167	170.41	-166.759	-0.034033	0.865774	-0.206229	-0.207539	-0.095020	24.5167	-0.203322	-149.332	0.000636	NaN
621	1.000000	0.875060	7.37113e+06	-46039.1	1005.82	-29770.5	0.000000	0.000000	6.875081	-0.084435	NaN	0.000000	0.001534	0.001732	28.0833	0.101060	0.002168	46.6168	52.9381	-165.63	-0.071552	0.873778	-0.198253	-0.199535	-0.084435	46.6168	-0.196895	-117.096	0.000721	NaN
621	1.000000	0.883068	7.37113e+06	-46039.1	1005.82	-29770.5	0.000000	0.000000	6.883091	-0.062605	NaN	0.000000	0.001517	0.001726	28.0836	0.094149	0.002064	45.6113	6.161212	-163.868	-0.097671	0.881727	-0.190244	-0.191586	-0.062605	45.6113	-0.189215	-87.2777	0.000717	NaN
621	1.000000	0.891086	7.37113e+06	-46039.1	1005.82	-29770.5	0.000000	0.000000	6.891108	-0.075565	NaN	0.000000	0.001521	0.001704	28.0821	0.031385	0.001960	16.0093	-70.0802	-167.65	-0.076471	0.889738	-0.182227	-0.183574	-0.075565	16.0093	-0.178687	-57.9553	0.001304	NaN
621	1.000000	0.899087	7.37113e+06	-46039.1	1005.82	-29770.5	0.000000	0.000000	6.899110	-0.042317	NaN	0.000000	0.001524	0.001723	28.0821	0.049819	0.001963	25.376	-153.877	-169.872	-0.099540	0.897817	-0.174225	-0.175496	-0.042317	25.376	-0.172975	-46.2494	0.000915	NaN
621	1.000000	0.907081	7.37113e+06	-46039.1	1005.82	-29770.5	0.000000	0.000000	6.907108	0.051407	NaN	0.000000	0.001481	0.001756	28.0824	0.032572	0.001996	16.3201	118.237	-165.352	0.041975	0.905824	-0.166232	-0.167489	0.051407	16.3201	-0.168594	-38.8294	-0.001324	NaN
621	1.000000	0.915083	7.37113e+06	-46039.1	1005.82	-29770.5	0.000000	0.000000	6.915107	-0.029183	NaN	0.000000	0.001494	0.001763	28.0821	0.088495	0.001973	44.8512	151.437	-167.046	-0.087708	0.913801	-0.158229	-0.159512	-0.029183	44.8512	-0.157741	-24.9884	0.001168	NaN
621	1.000000	0.923079	7.37113e+06	-46039.1	1005.82	-29770.5	0.000000	0.000000	6.923104	-0.004165	NaN	0.000000	0.001528	0.001723	28.0821	0.046335	0.002046	22.6479	24.2788	-163.397	-0.030840	0.921785	-0.150233	-0.151528	-0.004165	22.6479	-0.150095	-18.1862	0.000229	NaN
621	1.000000	0.931074	7.37113e+06	-46039.1	1005.82	-29770.5	0.000000	0.000000	6.931098	-0.003006	NaN	0.000000	0.001485	0.001727	28.082	0.137984	0.002111	65.3779	-6.315692	-166.081	-0.017672	0.929798	-0.142239	-0.143514	-0.003006	65.3779	-0.142205	-13.0087	0.000231	NaN
621	1.000000	0.939103	7.37113e+06	-46039.1	1005.82	-29770.5	0.000000	0.000000	6.939126	-0.049460	NaN	0.000000	0.001514	0.001750	28.082	0.030513	0.002014	15.1504	112.838	-169.126	-0.100136	0.937808	-0.134210	-0.135505	-0.049460	15.1504	-0.131761	-8.243603	0.006000	NaN
621	1.000000	0.947094	7.37113e+06	-46039.1	1005.82	-29770.5	0.000000	0.000000	6.947116	-0.071119	NaN	0.000000	0.001523	0.001765	28.0822	0.018888	0.002116	8.926439	178.724	-166.535	-0.016652	0.945789	-0.126219	-0.127524	-0.071119	8.926439	-0.120243	-4.886378	0.014554	NaN
621	1.000000	0.955080	7.37113e+06	-46039.1	1005.82	-29770.5	0.000000	0.000000	6.955100	-0.119509	NaN	0.000000	0.001517	0.001791	28.0823	0.027390	0.002059	13.3035	127.035	-167.298	-0.102164	0.953845	-0.118233	-0.119467	-0.119509	13.3035	-0.111495	-3.230701	0.036992	NaN
621	1.000000	0.963105	7.37113e+06	-46039.1	1005.82	-29770.5	0.000000	0.000000	6.963128	-0.039577	NaN	0.000000	0.001520	0.001740	28.0822	0.116818	0.002093	55.8024	-175.213	-170.458	-0.032807	0.961699	-0.110208	-0.111614	-0.039577	55.8024	-0.109676	-2.958287	0.013378	NaN
621	1.000000	0.971147	7.37113e+06	-46039.1	1005.82	-29770.5	0.000000	0.000000	6.971169	-0.062249	NaN	0.000000	0.001529	0.001749	28.0821	0.114944	0.002014	57.076	123.221	-165.228	-0.111348	0.969833	-0.102166	-0.103480	-0.062249	57.076	-0.101348	-1.956771	0.031812	NaN
621	1.000000	0.979096	7.37113e+06	-46039.1	1005.82	-29770.5	0.000000	0.000000	6.979118	-0.071460	NaN	0.000000	0.001534	0.001688	28.0821	0.047881	0.001854	25.8285	-86.9106	-165.968	-0.060025	0.977801	-0.094217	-0.095512	-0.071460	25.8285	-0.092142	-1.212672	0.058927	NaN
621	1.000000	0.987130	7.37113e+06	-46039.1	1005.82	-29770.5	0.000000	0.000000	6.987156	0.017572	NaN	0.000000	0.001550	0.001656	28.0821	0.009844	0.002031	4.846566	14.1179	-166.093	0.097159	0.985807	-0.086183	-0.087506	0.017572	4.846566	-0.088902	-1.018508	-0.017253	NaN
621	1.000000	0.995122	7.37113e+06	-46039.1	1005.82	-29770.5	0.000000	0.000000	6.995142	-0.109704	NaN	0.000000	0.001523	0.001668	28.0822	0.102527	0.001921	53.3807	52.8782	-166.554	-0.076588	0.993816	-0.078191	-0.079497	-0.109704	53.3807	-0.076650	-0.509281	0.215410	NaN
621	1.000000	1.003137	7.37113e+06	-46039.1	1005.82	-29770.5	0.000000	0.000000	7.003162	0.016827	NaN	0.000000	0.001530	0.001680	28.0824	0.072797	0.001977	36.8167	-36.4424	-165.71	-0.028643	1.001801	-0.070176	-0.071512	0.016827	36.8167	-0.070519	-0.352180	-0.047779	NaN
621	1.000000	1.011111	7.37113e+06	-46039.1	1005.82	-29770.5	0.000000	0.000000	7.011135	-0.021971	NaN	0.000000	0.001505	0.001688	28.082	0.011795	0.001923	6.133382	-103.522	-164.046	-0.081571	1.009820	-0.062202	-0.063493	-0.021971	6.133382	-0.059515	-0.174407	0.125976	NaN
621	1.000000	1.019120	7.37113e+06	-46039.1	1005.82	-29770.5	0.000000	0.000000	7.019141	-0.082127	NaN	0.000000	0.001502	0.001669	28.0823	0.120005	0.002060	58.2502	143.111	-168.126	-0.044496	1.017822	-0.054193	-0.055491	-0.082127	58.2502	-0.053135	-0.113360	0.724474	NaN
621	1.000000	1.027158	7.37113e+06	-46039.1	1005.82	-29770.5	0.000000	0.000000	7.027181	-0.027723	NaN	0.000000	0.001567	0.001704	28.0836	0.055593	0.001940	28.6636	31.4709	-167.191	-0.083203	1.025864	-0.046155	-0.047449	-0.027723	28.6636	-0.045430	-0.066242	0.418505	NaN
621	1.000000	1.035161	7.37113e+06	-46039.1	1005.82	-29770.5	0.000000	0.000000	7.035183	-0.062581	NaN	0.000000	0.001563	0.001688	28.0835	0.120111	0.001861	64.5373	146.834	-165.409	-0.029651	1.033795	-0.038152	-0.039517	-0.062581	64.5373	-0.037425	-0.037808	1.655238	NaN
621	1.000000	1.043125	7.37113e+06	-46039.1	1005.82	-29770.5	0.000000	0.000000	7.043150	0.006360	NaN	0.000000	0.001567	0.001629	28.0835	0.057642	0.001905	30.2658	33.7779	-165.487	-0.059348	1.041845	-0.030188	-0.031468	0.006360	30.2658	-0.030345	-0.023530	-0.270316	NaN
621	1.000000	1.051138	7.37113e+06	-46039.1	1005.82	-29770.5	0.000000	0.000000	7.051160	-0.064322	NaN	0.000000	0.001565	0.001646	28.0837	0.026507	0.002120	12.5042	76.6002	-165.523	-0.123305	1.049822	-0.022174	-0.023491	-0.064322	12.5042	-0.018316	-0.011375	5.654758	NaN
621	1.000000	1.059154	7.37113e+06	-46039.1	1005.82	-29770.5	0.000000	0.000000	7.059177	-0.038993	NaN	0.000000	0.001540	0.001652	28.0836	0.011684	0.002186	5.345373	-102.647	-163.819	0.007711	1.057863	-0.014159	-0.015450	-0.038993	5.345373	-0.008687	-0.005632	6.923336	NaN
621	1.000000	1.067144	7.37113e+06	-46039.1	1005.82	-29770.5	0.000000	0.000000	7.067165	-0.088914	NaN	0.000000	0.001580	0.001646	28.0833	0.033053	0.001857	17.7971	-135.061	-167.789	-0.084634	1.065854	-0.006168	-0.007459	-0.088914	17.7971	-0.002421	-0.001729	51.4146	NaN
621	1.000000	1.075132	7.37113e+06	-46039.1	1005.82	-29770.5	0.000000	0.000000	7.075320	3.964842	NaN	0.000000	0.001528	0.001613	28.0833	4.835732	0.001711	2825.66	12.0414	-172.913	2.420174	1.073751	0.001819	0.000438	3.964842	2825.66	0.000767	0.000582	6815.37	107035
621	2.000000	1.080724	7.37113e+06	-46039.1	1005.82	-29770.5	0.000000	0.000000	7.081188	10.683	NaN	0.000000	0.001535	0.001607	28.0833	10.2099	0.001702	5998.8	5.690085	-172.078	10.2442	1.080390	0.007411	0.007077	10.683	5998.8	0.006076	0.005136	2079.84	76472.5
621	2.000000	1.082663	7.37113e+06	-46039.1	1005.82	-29770.5	0.000000	0.000000	7.083266	14.0856	NaN	0.000000	0.001516	0.001677	28.0841	11.6327	0.001537	7565.96	7.906635	-177.331	13.375	1.082350	0.009350	0.009037	14.0856	7565.96	0.007954	0.006995	2013.72	82651.3
621	2.000000	1.084677	7.37113e+06	-46039.1	1005.82	-29770.5	0.000000	0.000000	7.085406	17.1338	NaN	0.000000	0.001528	0.001688	28.0837	14.1083	0.001668	8458.83	4.668582	-174.547	16.8165	1.084336	0.011364	0.011024	17.1338	8458.83	0.009845	0.009010	1901.69	81419.1
621	2.000000	1.086674	7.37113e+06	-46039.1	1005.82	-29770.5	0.000000	0.000000	7.087512	19.783	NaN	0.000000	0.001517	0.001676	28.0834	16.0313	0.001772	9046.98	4.817045	-172.379	19.5126	1.086360	0.013362	0.013047	19.783	9046.98	0.011722	0.011158	1772.96	78249.1
621	2.000000	1.088585	7.37113e+06	-46039.1	1005.82	-29770.5	0.000000	0.000000	7.089665	25.6795	NaN	0.000000	0.001568	0.001670	28.0834	18.8394	0.001778	10598.4	9.123458	179.02	24.5504	1.088339	0.015272	0.015026	25.6795	10598.4	0.013455	0.013280	1933.68	84026.1
621	2.000000	1.090629	7.37113e+06	-46039.1	1005.82	-29770.5	0.000000	0.000000	7.091839	28.8298	NaN	0.000000	0.001583	0.001690	28.0832	20.6824	0.001733	11935.7	6.555788	-178.969	28.1908	1.090320	0.017316	0.017008	28.8298	11935.7	0.015505	0.015964	1805.89	86306.9
621	2.000000	1.092601	7.37113e+06	-46039.1	1005.82	-29770.5	0.000000	0.000000	7.094085	35.5047	NaN	0.000000	0.001573	0.001658	28.0837	21.8423	0.001770	12340.8	4.259591	-176.484	33.9263	1.092260	0.019288	0.018947	35.5047	12340.8	0.017130	0.018232	1947.4	83502.7
621	2.000000	1.094564	7.37113e+06	-46039.1	1005.82	-29770.5	0.000000	0.000000	7.096169	38.4266	NaN	0.000000	0.001558	0.001690	28.0833	24.5397	0.001733	14156.3	4.685785	-178.973	37.0112	1.094297	0.021252	0.020984	38.4266	14156.3	0.019216	0.021325	1801.94	88568.1
621	2.000000	1.096631	7.37113e+06	-46039.1	1005.82	-29770.5	0.000000	0.000000	7.098536	45.7328	NaN	0.000000	0.001582	0.001655	28.0835	26.2802	0.001788	14697.3	6.096645	-178.888	45.6732	1.096293	0.023319	0.022981	45.7328	14697.3	0.020985	0.024113	1896.56	86473.2
621	2.000000	1.098628	7.37113e+06	-46039.1	1005.82	-29770.5	0.000000	0.000000	7.100696	49.725	NaN	0.000000	0.001557	0.001678	28.0836	28.3064	0.001777	15932.9	4.662534	179.794	48.757	1.098305	0.025315	0.024993	49.725	15932.9	0.022974	0.027433	1812.59	87888
621	2.000000	1.100540	7.37113e+06	-46039.1	1005.82	-29770.5	0.000000	0.000000	7.102790	54.115	NaN	0.000000	0.001577	0.001720	28.0822	30.6848	0.001875	16362.2	4.307996	179.744	51.2348	1.100279	0.027228	0.026967	54.115	16362.2	0.024747	0.030557	1770.95	85518.4
621	2.000000	1.102538	7.37113e+06	-46039.1	1005.82	-29770.5	0.000000	0.000000	7.105117	62.145	NaN	0.000000	0.001557	0.001679	28.0822	31.6949	0.001816	17452.4	3.744281	-179.603	59.9844	1.102335	0.029225	0.029023	62.145	17452.4	0.026554	0.033904	1832.97	86596.9
621	2.000000	1.104536	7.37113e+06	-46039.1	1005.82	-29770.5	0.000000	0.000000	7.107570	73.2014	NaN	0.000000	0.001587	0.001672	28.0822	34.0287	0.001736	19598	1.794426	-179.375	69.8902	1.104258	0.031224	0.030945	73.2014	19598	0.028422	0.037537	1950.11	92417.5
621	2.000000	1.106601	7.37113e+06	-46039.1	1005.82	-29770.5	0.000000	0.000000	7.109773	76.5749	NaN	0.000000	0.001548	0.001658	28.0824	36.2567	0.001851	19591.9	6.852720	177.292	75.3768	1.106323	0.033288	0.033010	76.5749	19591.9	0.030357	0.041486	1845.79	87881.6
621	2.000000	1.108606	7.37113e+06	-46039.1	1005.82	-29770.5	0.000000	0.000000	7.112210	87.0642	NaN	0.000000	0.001565	0.001676	28.0824	37.5681	0.001859	20205	7.858802	176.782	89.0626	1.108189	0.035293	0.034877	87.0642	20205	0.032061	0.045124	1929.43	86901.3
621	2.000000	1.110560	7.37113e+06	-46039.1	1005.82	-29770.5	0.000000	0.000000	7.114578	97.1525	NaN	0.000000	0.001544	0.001701	28.0823	39.9363	0.001895	21073.6	6.322741	176.229	95.488	1.110268	0.037247	0.036956	97.1525	21073.6	0.033789	0.048965	1984.13	87010
621	2.000000	1.112540	7.37113e+06	-46039.1	1005.82	-29770.5	0.000000	0.000000	7.116834	103.869	NaN	0.000000	0.001552	0.001674	28.0822	40.5681	0.001800	22541.5	4.461472	177.912	102.398	1.112224	0.039227	0.038911	103.869	22541.5	0.035771	0.053557	1939.41	88991.5
621	2.000000	1.114518	7.37113e+06	-46039.1	1005.82	-29770.5	0.000000	0.000000	7.119307	115.894	NaN	0.000000	0.001590	0.001700	28.082	42.0297	0.001691	24860.1	3.659057	177.29	113.533	1.114234	0.041206	0.040922	115.894	24860.1	0.037709	0.058242	1989.86	94114.5
621	2.000000	1.116588	7.37113e+06	-46039.1	1005.82	-29770.5	0.000000	0.000000	7.121580	120.831	NaN	0.000000	0.001586	0.001686	28.0823	44.4048	0.001754	25311.6	3.848643	178.809	120.55	1.116241	0.043275	0.042929	120.831	25311.6	0.039695	0.063242	1910.61	91958.2
621	2.000000	1.118518	7.37113e+06	-46039.1	1005.82	-29770.5	0.000000	0.000000	7.123709	125.686	NaN	0.000000	0.001561	0.001694	28.0823	46.8528	0.001850	25331.5	5.966513	174.472	123.195	1.118393	0.045205	0.045080	125.686	25331.5	0.041484	0.067920	1850.51	88804.9
621	2.000000	1.120572	7.37113e+06	-46039.1	1005.82	-29770.5	0.000000	0.000000	7.126437	142.066	NaN	0.000000	0.001534	0.001684	28.0822	48.4498	0.001770	27369.7	4.588348	176.359	141.96	1.120232	0.047259	0.046919	142.066	27369.7	0.043366	0.073017	1945.67	92540.6
621	2.000000	1.122523	7.37113e+06	-46039.1	1005.82	-29770.5	0.000000	0.000000	7.128739	150.606	NaN	0.000000	0.001565	0.001668	28.0821	49.5019	0.001788	27690.6	4.473306	175.941	147.211	1.122221	0.049210	0.048908	150.606	27690.6	0.045131	0.077959	1931.86	90608.9
621	2.000000	1.124530	7.37113e+06	-46039.1	1005.82	-29770.5	0.000000	0.000000	7.130939	155.309	NaN	0.000000	0.001589	0.001655	28.0821	53.2841	0.001934	27553.1	8.650358	172.324	153.458	1.124160	0.051217	0.050848	155.309	27553.1	0.046989	0.083335	1863.67	87202.5
621	2.000000	1.126555	7.37113e+06	-46039.1	1005.82	-29770.5	0.000000	0.000000	7.133565	169.904	NaN	0.000000	0.001592	0.001661	28.0823	55.098	0.001786	30850.8	12.8735	166.841	170.465	1.126207	0.053243	0.052894	169.904	30850.8	0.049112	0.089689	1894.37	94117.5
621	2.000000	1.128532	7.37113e+06	-46039.1	1005.82	-29770.5	0.000000	0.000000	7.136021	181.575	NaN	0.000000	0.001557	0.001668	28.0825	54.8441	0.001667	32899.8	4.754598	174.529	180.909	1.128180	0.055219	0.054867	181.575	32899.8	0.051080	0.095779	1895.77	97125
621	2.000000	1.130568	7.37113e+06	-46039.1	1005.82	-29770.5	0.000000	0.000000	7.138514	192.682	NaN	0.000000	0.001562	0.001684	28.0822	59.4958	0.001886	31539	7.415327	172.402	193.489	1.130166	0.057256	0.056853	192.682	31539	0.052674	0.100856	1910.47	90734.2
621	2.000000	1.132454	7.37113e+06	-46039.1	1005.82	-29770.5	0.000000	0.000000	7.140810	202.675	NaN	0.000000	0.001511	0.001679	28.0822	59.4664	0.001769	33608	6.385318	172.758	198.499	1.132178	0.059141	0.058866	202.675	33608	0.054618	0.107220	1890.26	93773.1
621	2.000000	1.134482	7.37113e+06	-46039.1	1005.82	-29770.5	0.000000	0.000000	7.143101	209.056	NaN	0.000000	0.001497	0.001675	28.0834	62.0105	0.001878	33027.3	3.784799	175.891	204.905	1.134078	0.061169	0.060765	209.056	33027.3	0.056422	0.113292	1845.28	89649.3
621	2.000000	1.136519	7.37113e+06	-46039.1	1005.82	-29770.5	0.000000	0.000000	7.145643	221.353	NaN	0.000000	0.001519	0.001648	28.0838	64.5983	0.001889	34205.2	5.163119	173.408	219.135	1.136286	0.063207	0.062974	221.353	34205.2	0.058353	0.119969	1845.08	90226
621	2.000000	1.138529	7.37113e+06	-46039.1	1005.82	-29770.5	0.000000	0.000000	7.148180	234.148	NaN	0.000000	0.001538	0.001654	28.0835	65.3808	0.001791	36509	1.753201	176.374	233.894	1.138280	0.065217	0.064967	234.148	36509	0.060407	0.127270	1839.77	93499.6
621	2.000000	1.140559	7.37113e+06	-46039.1	1005.82	-29770.5	0.000000	0.000000	7.150575	243.045	NaN	0.000000	0.001510	0.001671	28.0834	68.5125	0.001918	35716.6	6.107301	172.044	244.207	1.140288	0.067247	0.066975	243.045	35716.6	0.062143	0.133605	1819.13	89275.4
621	2.000000	1.142521	7.37113e+06	-46039.1	1005.82	-29770.5	0.000000	0.000000	7.153020	254.794	NaN	0.000000	0.001510	0.001670	28.0834	68.39	0.001850	36970.6	1.343027	176.749	252.839	1.142335	0.069208	0.069022	254.794	36970.6	0.064040	0.140691	1811.03	90052.7
621	2.000000	1.144503	7.37113e+06	-46039.1	1005.82	-29770.5	0.000000	0.000000	7.155741	272.759	NaN	0.000000	0.001508	0.001625	28.0836	68.8847	0.001791	38457.3	4.924516	172.755	270.455	1.144261	0.071191	0.070948	272.759	38457.3	0.065871	0.147699	1846.72	91424.5
621	2.000000	1.146586	7.37113e+06	-46039.1	1005.82	-29770.5	0.000000	0.000000	7.158309	284.547	NaN	0.000000	0.001516	0.001660	28.0835	71.3524	0.001722	41426.2	8.034986	170.006	284.036	1.146147	0.073274	0.072834	284.547	41426.2	0.068122	0.156533	1817.81	95663.2
621	2.000000	1.148537	7.37113e+06	-46039.1	1005.82	-29770.5	0.000000	0.000000	7.160840	298.692	NaN	0.000000	0.001501	0.001702	28.0832	72.4333	0.001801	40212.5	3.072135	174.498	298.658	1.148174	0.075224	0.074862	298.692	40212.5	0.069653	0.162680	1836.07	91089.2
621	2.000000	1.150515	7.37113e+06	-46039.1	1005.82	-29770.5	0.000000	0.000000	7.163323	310.968	NaN	0.000000	0.001531	0.001666	28.0832	75.1037	0.001713	43854.8	6.695481	169.798	310.541	1.150238	0.077202	0.076925	310.968	43854.8	0.071884	0.171837	1809.67	96656.9
621	2.000000	1.152473	7.37113e+06	-46039.1	1005.82	-29770.5	0.000000	0.000000	7.165944	327.105	NaN	0.000000	0.001522	0.001629	28.0833	75.3243	0.001762	42751.1	2.396760	174.861	322.837	1.152188	0.079160	0.078875	327.105	42751.1	0.073421	0.178283	1834.75	92504.9
621	2.000000	1.154372	7.37113e+06	-46039.1	1005.82	-29770.5	0.000000	0.000000	7.168474	342.447	NaN	0.000000	0.001506	0.001643	28.083	80.0983	0.001851	43267.1	6.838388	170.2	334.406	1.154037	0.081059	0.080724	342.447	43267.1	0.075123	0.185549	1845.59	91770
621	2.000000	1.156512	7.37113e+06	-46039.1	1005.82	-29770.5	0.000000	0.000000	7.171068	353.503	NaN	0.000000	0.001573	0.001664	28.0832	81.0943	0.001804	44944.3	4.008442	173.088	351.485	1.156193	0.083199	0.082880	353.503	44944.3	0.077300	0.195044	1812.43	92978.3
621	2.000000	1.158543	7.37113e+06	-46039.1	1005.82	-29770.5	0.000000	0.000000	7.173805	370.664	NaN	0.000000	0.001520	0.001674	28.083	82.4347	0.001734	47528.5	3.913727	172.341	371.101	1.158182	0.085230	0.084869	370.664	47528.5	0.079381	0.204329	1814.06	96064.4
621	2.000000	1.160577	7.37113e+06	-46039.1	1005.82	-29770.5	0.000000	0.000000	7.176299	381.841	NaN	0.000000	0.001517	0.001639	28.0832	85.6173	0.001771	48335.1	5.002357	171.467	385.483	1.160203	0.087264	0.086891	381.841	48335.1	0.081339	0.213249	1790.59	95629.5
621	2.000000	1.162580	7.37113e+06	-46039.1	1005.82	-29770.5	0.000000	0.000000	7.179240	404.644	NaN	0.000000	0.001507	0.001682	28.0832	86.5538	0.001824	47463.9	6.194275	171.147	407.808	1.162136	0.089268	0.088824	404.644	47463.9	0.082874	0.220363	1836.26	92377.6
621	2.000000	1.164444	7.37113e+06	-46039.1	1005.82	-29770.5	0.000000	0.000000	7.181507	414.473	NaN	0.000000	0.001544	0.001672	28.083	89.0353	0.001761	50558.9	6.108954	169.824	408.112	1.164176	0.091131	0.090863	414.473	50558.9	0.084983	0.230321	1799.55	96250.9
621	2.000000	1.166506	7.37113e+06	-46039.1	1005.82	-29770.5	0.000000	0.000000	7.184035	425.808	NaN	0.000000	0.001604	0.001669	28.0832	90.9677	0.001849	49189.7	3.942850	172.474	423.008	1.166215	0.093193	0.092902	425.808	49189.7	0.086700	0.238580	1784.76	92009
621	2.000000	1.168434	7.37113e+06	-46039.1	1005.82	-29770.5	0.000000	0.000000	7.186494	438.734	NaN	0.000000	0.001589	0.001633	28.0819	92.3996	0.001802	51273.6	3.759293	172.124	434.931	1.168204	0.095121	0.094892	438.734	51273.6	0.088703	0.248385	1766.35	93994.9
621	2.000000	1.170493	7.37113e+06	-46039.1	1005.82	-29770.5	0.000000	0.000000	7.189508	461.96	NaN	0.000000	0.001585	0.001705	28.0821	94.8912	0.001858	51082.2	3.276347	172.507	460.786	1.170137	0.097180	0.096825	461.96	51082.2	0.090397	0.256820	1798.77	92093.5
621	2.000000	1.172560	7.37113e+06	-46039.1	1005.82	-29770.5	0.000000	0.000000	7.192178	476.619	NaN	0.000000	0.001583	0.001694	28.0817	95.3645	0.001729	55170.3	3.178835	172.718	482.426	1.172212	0.099247	0.098899	476.619	55170.3	0.092768	0.268844	1772.84	97213.8
621	2.000000	1.174463	7.37113e+06	-46039.1	1005.82	-29770.5	0.000000	0.000000	7.194804	494.206	NaN	0.000000	0.001524	0.001680	28.0818	98.3673	0.001865	52750.3	7.672139	168.249	491.107	1.174180	0.101151	0.100867	494.206	52750.3	0.094124	0.275841	1791.64	91763.4
621	2.000000	1.176477	7.37113e+06	-46039.1	1005.82	-29770.5	0.000000	0.000000	7.197584	512.841	NaN	0.000000	0.001503	0.001663	28.0818	99.9928	0.001779	56197.4	7.036823	168.405	509.712	1.176217	0.103165	0.102905	512.841	56197.4	0.096320	0.287349	1784.73	95782.3
621	2.000000	1.178410	7.37113e+06	-46039.1	1005.82	-29770.5	0.000000	0.000000	7.200056	525.948	NaN	0.000000	0.001539	0.001647	28.0816	100.595	0.001825	55115.7	2.567996	172.868	522.031	1.178237	0.105098	0.104924	525.948	55115.7	0.097941	0.295978	1776.99	92559.1