File: remote_trans/data/nanoindenter/0828-1/data/Data_2025-08-06,11h17m57s/2025-07-22_16-23-58_1_63.txt
2025-07-22, 16:23:58, 1
Index	Phase	Displacement	Time	Pos X	Pos Y	Pos Z	Rot A	Rot B	Piezo Z	Force A	Force B	Gripper	Voltage A	Voltage B	Temperature	Amplitude force	Amplitude pos	Stiffness	Phase shift	Phase excitation	Force A raw	Displacement raw	HMax	HMax raw	Real Force	Real Stiffness	Contact Depth	Area	Hardness	Reduced Mod.
[#]	[#]	[um]	[s]	[um]	[um]	[um]	[m°]	[m°]	[um]	[uN]	[uN]	[V]	[V]	[V]	[°C]	[uN]	[um]	[N/m]	[°]	[°]	[uN]	[um]	[um]	[um]	[uN]	[N/m]	[um]	[um^2]	[MPa]	[MPa]
63	1.000000	0.002706	7.36566e+06	-41789.1	955.819	-29785.6	0.000000	0.000000	6.002796	-0.034184	NaN	0.000000	0.001591	0.001665	28.0851	0.126273	0.000919	137.436	-118.956	-169.24	-0.006478	0.001453	-1.144929	-1.146182	-0.034184	137.436	-1.144743	-1.996798E+15	1.711941E-17	NaN
63	1.000000	0.012786	7.36566e+06	-41789.1	955.818	-29785.6	0.000000	0.000000	6.012877	-0.002013	NaN	0.000000	0.001572	0.001702	28.1238	0.127365	0.001208	105.409	-57.6317	20.9193	0.005790	0.011377	-1.134850	-1.136259	-0.002013	105.409	-1.134835	-1.470531E+15	1.368831E-18	NaN
63	1.000000	0.022668	7.36566e+06	-41789.1	955.819	-29785.6	0.000000	0.000000	6.022754	-0.131881	NaN	0.000000	0.001580	0.001709	28.1138	0.070068	0.001678	41.76	0.244090	-168.48	-0.016487	0.021359	-1.124968	-1.126277	-0.131881	41.76	-1.122599	-1.007723E+15	1.308706E-16	NaN
63	1.000000	0.032670	7.36566e+06	-41789.1	955.818	-29785.6	0.000000	0.000000	6.032758	-0.081116	NaN	0.000000	0.001587	0.001733	28.0807	0.048247	0.001812	26.6287	159.161	13.5117	-0.013741	0.031274	-1.114966	-1.116361	-0.081116	26.6287	-1.112681	-7.417628E+14	1.093559E-16	NaN
63	1.000000	0.042658	7.36566e+06	-41789.1	955.818	-29785.6	0.000000	0.000000	6.042748	-0.047792	NaN	0.000000	0.001573	0.001737	28.0855	0.040356	0.001833	22.018	66.1212	-165.303	-0.022663	0.041341	-1.104977	-1.106294	-0.047792	22.018	-1.103349	-5.559367E+14	8.596641E-17	NaN
63	1.000000	0.052684	7.36566e+06	-41789.1	955.819	-29785.6	0.000000	0.000000	6.052773	-0.059608	NaN	0.000000	0.001626	0.001717	28.1238	0.037994	0.001979	19.1999	12.7655	10.4248	0.026656	0.051261	-1.094952	-1.096374	-0.059608	19.1999	-1.092623	-3.990571E+14	1.493720E-16	NaN
63	1.000000	0.062680	7.36566e+06	-41789.1	955.818	-29785.6	0.000000	0.000000	6.062772	0.013657	NaN	0.000000	0.001607	0.001696	28.1171	0.052571	0.001980	26.5481	-168.089	-166.442	-0.012954	0.061362	-1.084955	-1.086274	0.013657	26.5481	-1.085341	-3.186059E+14	-4.286558E-17	NaN
63	1.000000	0.072695	7.36566e+06	-41789.1	955.818	-29785.6	0.000000	0.000000	6.072787	-0.009662	NaN	0.000000	0.001620	0.001680	28.0836	0.073888	0.001870	39.5112	11.2311	15.3141	-0.037608	0.071333	-1.074940	-1.076302	-0.009662	39.5112	-1.074757	-2.296625E+14	4.207211E-17	NaN
63	1.000000	0.082647	7.36566e+06	-41789.1	955.818	-29785.6	0.000000	0.000000	6.082740	0.034688	NaN	0.000000	0.001598	0.001650	28.0865	0.111145	0.002045	54.3395	21.8274	-165.601	-0.024804	0.081352	-1.064989	-1.066283	0.034688	54.3395	-1.065468	-1.723026E+14	-2.013209E-16	NaN
63	1.000000	0.092672	7.36566e+06	-41789.1	955.818	-29785.6	0.000000	0.000000	6.092760	-0.090948	NaN	0.000000	0.001644	0.001705	28.1239	0.035715	0.001968	18.1469	97.3408	13.4568	-0.046850	0.091303	-1.054963	-1.056332	-0.090948	18.1469	-1.051204	-1.108165E+14	8.207092E-16	NaN
63	1.000000	0.102708	7.36566e+06	-41789.1	955.819	-29785.6	0.000000	0.000000	6.102798	-0.043352	NaN	0.000000	0.001623	0.001681	28.1159	0.066018	0.002076	31.7944	38.5584	-167.284	-0.055499	0.101345	-1.044928	-1.046290	-0.043352	31.7944	-1.043905	-8.840432E+13	4.903818E-16	NaN
63	1.000000	0.112672	7.36566e+06	-41789.1	955.818	-29785.6	0.000000	0.000000	6.112762	-0.043351	NaN	0.000000	0.001615	0.001672	28.0832	0.022006	0.002021	10.8874	-18.8733	13.1081	0.014268	0.111319	-1.034963	-1.036316	-0.043351	10.8874	-1.031977	-6.110397E+13	7.094614E-16	NaN
63	1.000000	0.122712	7.36566e+06	-41789.1	955.819	-29785.6	0.000000	0.000000	6.122802	-0.042094	NaN	0.000000	0.001580	0.001652	28.0874	0.031030	0.001967	15.7771	2.777418	-166.43	-0.009798	0.121395	-1.024924	-1.026240	-0.042094	15.7771	-1.022923	-4.616085E+13	9.118891E-16	NaN
63	1.000000	0.132657	7.36566e+06	-41789.1	955.818	-29785.6	0.000000	0.000000	6.132749	0.011949	NaN	0.000000	0.001637	0.001682	28.1254	0.033982	0.002128	15.968	160.125	12.3029	0.018066	0.131367	-1.014978	-1.016269	0.011949	15.968	-1.015540	-3.672272E+13	-3.253861E-16	NaN
63	1.000000	0.142696	7.36566e+06	-41789.1	955.818	-29785.6	0.000000	0.000000	6.142788	0.029642	NaN	0.000000	0.001661	0.001704	28.1178	0.048550	0.001972	24.6254	151.878	-168.69	0.036627	0.141390	-1.004940	-1.006245	0.029642	24.6254	-1.005843	-2.719098E+13	-1.090134E-15	NaN
63	1.000000	0.152693	7.36566e+06	-41789.1	955.817	-29785.6	0.000000	0.000000	6.152785	0.007496	NaN	0.000000	0.001665	0.001695	28.0835	0.081515	0.002018	40.3969	34.2237	13.2146	-0.046731	0.151353	-0.994943	-0.996283	0.007496	40.3969	-0.995082	-1.947821E+13	-3.848511E-16	NaN
63	1.000000	0.162695	7.36566e+06	-41789.1	955.818	-29785.6	0.000000	0.000000	6.162789	0.051310	NaN	0.000000	0.001682	0.001662	28.0872	0.051806	0.002075	24.9632	49.3503	-166.121	-0.068786	0.161373	-0.984940	-0.986262	0.051310	24.9632	-0.986482	-1.491846E+13	-3.439332E-15	NaN
63	1.000000	0.172681	7.36566e+06	-41789.1	955.818	-29785.6	0.000000	0.000000	6.172771	-0.046104	NaN	0.000000	0.001671	0.001705	28.1241	0.040210	0.002055	19.5712	44.0563	18.422	-0.100657	0.171364	-0.974954	-0.976272	-0.046104	19.5712	-0.973187	-9.876835E+12	4.667909E-15	NaN
63	1.000000	0.182709	7.36566e+06	-41789.1	955.819	-29785.6	0.000000	0.000000	6.182799	-0.054581	NaN	0.000000	0.001686	0.001691	28.1164	0.087497	0.002003	43.6914	81.5911	-165.335	-0.102857	0.181409	-0.964926	-0.966226	-0.054581	43.6914	-0.963989	-7.424172E+12	7.351818E-15	NaN
63	1.000000	0.192690	7.36566e+06	-41789.1	955.819	-29785.6	0.000000	0.000000	6.192778	-0.075420	NaN	0.000000	0.001702	0.001669	28.0824	0.024060	0.001911	12.5917	-103.484	12.3356	-0.001418	0.191398	-0.954946	-0.956237	-0.075420	12.5917	-0.950454	-4.876915E+12	1.546471E-14	NaN
63	1.000000	0.202725	7.36566e+06	-41789.1	955.82	-29785.6	0.000000	0.000000	6.202816	-0.023189	NaN	0.000000	0.001665	0.001698	28.0858	0.055539	0.002009	27.6503	-108.8	-165.676	-0.071893	0.201410	-0.944910	-0.946226	-0.023189	27.6503	-0.944281	-4.026206E+12	5.759576E-15	NaN
63	1.000000	0.212748	7.36566e+06	-41789.1	955.817	-29785.6	0.000000	0.000000	6.212838	-0.047098	NaN	0.000000	0.001650	0.001720	28.1247	0.033510	0.001972	16.9969	-175.806	14.8384	-0.024356	0.211414	-0.934887	-0.936221	-0.047098	16.9969	-0.932809	-2.819086E+12	1.670688E-14	NaN
63	1.000000	0.222726	7.36566e+06	-41789.1	955.818	-29785.6	0.000000	0.000000	6.222818	0.005574	NaN	0.000000	0.001704	0.001690	28.1169	0.042120	0.001879	22.4183	-162.512	-170.031	0.017703	0.221391	-0.924909	-0.926245	0.005574	22.4183	-0.925096	-2.218209E+12	-2.512749E-15	NaN
63	1.000000	0.232739	7.36566e+06	-41789.1	955.818	-29785.6	0.000000	0.000000	6.232830	-0.027880	NaN	0.000000	0.001679	0.001675	28.0827	0.086873	0.002063	42.1059	31.3506	13.2804	-0.104315	0.231394	-0.914896	-0.916242	-0.027880	42.1059	-0.914399	-1.590671E+12	1.752744E-14	NaN
63	1.000000	0.242754	7.36566e+06	-41789.1	955.818	-29785.6	0.000000	0.000000	6.242847	0.020046	NaN	0.000000	0.001647	0.001660	28.0852	0.159186	0.001946	81.7926	-128.278	-168.814	0.003699	0.241488	-0.904881	-0.906147	0.020046	81.7926	-0.905065	-1.189874E+12	-1.684683E-14	NaN
63	1.000000	0.252790	7.36566e+06	-41789.1	955.818	-29785.6	0.000000	0.000000	6.252879	-0.049545	NaN	0.000000	0.001660	0.001675	28.1229	0.051160	0.001927	26.5511	3.804535	13.7971	0.035703	0.251399	-0.894846	-0.896236	-0.049545	26.5511	-0.893446	-8.288882E+11	5.977296E-14	NaN
63	1.000000	0.262741	7.36566e+06	-41789.1	955.818	-29785.6	0.000000	0.000000	6.262829	-0.075540	NaN	0.000000	0.001692	0.001657	28.1162	0.076132	0.002024	37.6129	-134.45	-164.255	0.008284	0.261388	-0.884895	-0.886247	-0.075540	37.6129	-0.883389	-6.060831E+11	1.246358E-13	NaN
63	1.000000	0.272721	7.36566e+06	-41789.1	955.819	-29785.6	0.000000	0.000000	6.272812	-0.010551	NaN	0.000000	0.001604	0.001655	28.0823	0.137923	0.002042	67.5348	23.3347	14.4842	-0.041766	0.271381	-0.874914	-0.876255	-0.010551	67.5348	-0.874797	-4.638104E+11	2.274875E-14	NaN
63	1.000000	0.282755	7.36566e+06	-41789.1	955.82	-29785.6	0.000000	0.000000	6.282844	-0.062394	NaN	0.000000	0.001579	0.001661	28.0857	0.015198	0.002094	7.257237	155.323	-165.261	-0.045697	0.281413	-0.864881	-0.866223	-0.062394	7.257237	-0.858433	-2.785523E+11	2.239954E-13	NaN
63	1.000000	0.292745	7.36566e+06	-41789.1	955.818	-29785.6	0.000000	0.000000	6.292835	-0.024910	NaN	0.000000	0.001570	0.001676	28.1235	0.072166	0.001992	36.2299	62.9226	13.3243	-0.013414	0.291352	-0.854891	-0.856284	-0.024910	36.2299	-0.854375	-2.454589E+11	1.014845E-13	NaN
63	1.000000	0.302798	7.36566e+06	-41789.1	955.819	-29785.6	0.000000	0.000000	6.302890	0.004339	NaN	0.000000	0.001617	0.001677	28.1168	0.101821	0.001951	52.194	138.739	-167.475	-0.126405	0.301449	-0.844837	-0.846186	0.004339	52.194	-0.844899	-1.826675E+11	-2.375595E-14	NaN
63	1.000000	0.312784	7.36566e+06	-41789.1	955.818	-29785.6	0.000000	0.000000	6.312874	-0.048432	NaN	0.000000	0.001623	0.001700	28.0826	0.049600	0.001949	25.4487	97.2371	12.6722	-0.022703	0.311418	-0.834851	-0.836217	-0.048432	25.4487	-0.833424	-1.276997E+11	3.792677E-13	NaN
63	1.000000	0.322754	7.36566e+06	-41789.1	955.819	-29785.6	0.000000	0.000000	6.322844	-0.042070	NaN	0.000000	0.001617	0.001708	28.0849	0.059103	0.002057	28.7309	-47.6282	-166.49	0.005750	0.321537	-0.824881	-0.826099	-0.042070	28.7309	-0.823783	-9.451649E+10	4.451093E-13	NaN
63	1.000000	0.332785	7.36566e+06	-41789.1	955.819	-29785.6	0.000000	0.000000	6.332875	-0.028513	NaN	0.000000	0.001571	0.001656	28.1232	0.016502	0.002016	8.185508	-158.828	15.7933	-0.147678	0.331398	-0.814851	-0.816238	-0.028513	8.185508	-0.812238	-6.590765E+10	4.326138E-13	NaN
63	1.000000	0.342785	7.36566e+06	-41789.1	955.818	-29785.6	0.000000	0.000000	6.342875	-0.045069	NaN	0.000000	0.001574	0.001658	28.1167	0.093083	0.002119	43.9303	-150.406	-162.839	-0.077845	0.341420	-0.804850	-0.806216	-0.045069	43.9303	-0.804081	-5.107994E+10	8.823243E-13	NaN
63	1.000000	0.352781	7.36566e+06	-41789.1	955.819	-29785.6	0.000000	0.000000	6.352871	-0.039611	NaN	0.000000	0.001659	0.001657	28.0828	0.026214	0.002054	12.7621	117.11	13.5152	-0.117075	0.351393	-0.794854	-0.796243	-0.039611	12.7621	-0.792526	-3.559518E+10	1.112833E-12	NaN
63	1.000000	0.362790	7.36566e+06	-41789.1	955.818	-29785.6	0.000000	0.000000	6.362882	0.024679	NaN	0.000000	0.001651	0.001650	28.0867	0.090935	0.002033	44.7354	-25.9957	-165.13	0.026577	0.361498	-0.784846	-0.786138	0.024679	44.7354	-0.785260	-2.835919E+10	-8.702127E-13	NaN
63	1.000000	0.372822	7.36566e+06	-41789.1	955.818	-29785.6	0.000000	0.000000	6.372913	-0.036039	NaN	0.000000	0.001641	0.001633	28.1246	0.080727	0.001855	43.5122	-51.6908	12.5761	0.021114	0.371449	-0.774813	-0.776187	-0.036039	43.5122	-0.774192	-2.005827E+10	1.796739E-12	NaN
63	1.000000	0.382807	7.36566e+06	-41789.1	955.819	-29785.6	0.000000	0.000000	6.382900	0.030226	NaN	0.000000	0.001618	0.001663	28.1189	0.052522	0.002001	26.2496	-108.456	-163.479	0.035856	0.381482	-0.764828	-0.766153	0.030226	26.2496	-0.765692	-1.537185E+10	-1.966348E-12	NaN
63	1.000000	0.392820	7.36566e+06	-41789.1	955.818	-29785.6	0.000000	0.000000	6.392908	-0.071133	NaN	0.000000	0.001635	0.001656	28.084	0.129189	0.001869	69.1291	4.917650	11.5068	-0.063586	0.391450	-0.754816	-0.756186	-0.071133	69.1291	-0.754044	-1.067243E+10	6.665134E-12	NaN
63	1.000000	0.402806	7.36566e+06	-41789.1	955.818	-29785.6	0.000000	0.000000	6.402894	-0.100808	NaN	0.000000	0.001673	0.001675	28.0848	0.057549	0.002036	28.2708	-77.0248	-167.355	-0.091786	0.401449	-0.744829	-0.746187	-0.100808	28.2708	-0.742155	-7.351984E+9	1.371164E-11	NaN
63	1.000000	0.412810	7.36566e+06	-41789.1	955.819	-29785.6	0.000000	0.000000	6.412899	-0.066471	NaN	0.000000	0.001617	0.001644	28.1234	0.036814	0.002010	18.3142	98.6716	13.7947	-0.012799	0.411425	-0.734825	-0.736211	-0.066471	18.3142	-0.732103	-5.363787E+9	1.239247E-11	NaN
63	1.000000	0.422802	7.36566e+06	-41789.1	955.818	-29785.6	0.000000	0.000000	6.422891	-0.064319	NaN	0.000000	0.001615	0.001626	28.1176	0.046182	0.001955	23.6267	-104.852	-168.393	-0.044623	0.421595	-0.724833	-0.726040	-0.064319	23.6267	-0.722792	-4.004440E+9	1.606197E-11	NaN
63	1.000000	0.432810	7.36566e+06	-41789.1	955.818	-29785.6	0.000000	0.000000	6.432903	0.011650	NaN	0.000000	0.001602	0.001667	28.0827	0.117880	0.001961	60.119	132.195	14.5093	-0.025685	0.431452	-0.714825	-0.716184	0.011650	60.119	-0.714970	-3.132329E+9	-3.719150E-12	NaN
63	1.000000	0.442816	7.36566e+06	-41789.1	955.818	-29785.6	0.000000	0.000000	6.442909	0.039640	NaN	0.000000	0.001610	0.001657	28.086	0.137277	0.002124	64.6398	-115.522	-164.704	-0.007518	0.441502	-0.704819	-0.706134	0.039640	64.6398	-0.705279	-2.310011E+9	-1.716030E-11	NaN
63	1.000000	0.452802	7.36566e+06	-41789.1	955.818	-29785.6	0.000000	0.000000	6.452891	-0.072001	NaN	0.000000	0.001600	0.001647	28.1238	0.076162	0.001896	40.1758	84.9696	13.9476	-0.083651	0.451488	-0.694833	-0.696147	-0.072001	40.1758	-0.693489	-1.594391E+9	4.515890E-11	NaN
63	1.000000	0.462846	7.36566e+06	-41789.1	955.819	-29785.6	0.000000	0.000000	6.462937	-0.020157	NaN	0.000000	0.001615	0.001685	28.1193	0.113828	0.001908	59.6532	20.898	-168.074	-0.059227	0.461531	-0.684789	-0.686104	-0.020157	59.6532	-0.684536	-1.202900E+9	1.675679E-11	NaN
63	1.000000	0.472862	7.36566e+06	-41789.1	955.819	-29785.6	0.000000	0.000000	6.472953	-0.024575	NaN	0.000000	0.001594	0.001626	28.0829	0.055749	0.001913	29.1383	-68.4376	17.4643	0.010332	0.471504	-0.674774	-0.676132	-0.024575	29.1383	-0.674141	-8.670794E+8	2.834261E-11	NaN
63	1.000000	0.482843	7.36566e+06	-41789.1	955.818	-29785.6	0.000000	0.000000	6.482933	-0.038132	NaN	0.000000	0.001611	0.001670	28.0842	0.088317	0.002017	43.7804	-130.829	-165.064	-0.028643	0.481440	-0.664792	-0.666195	-0.038132	43.7804	-0.664139	-6.326339E+8	6.027454E-11	NaN
63	1.000000	0.492835	7.36566e+06	-41789.1	955.82	-29785.6	0.000000	0.000000	6.492925	-0.025683	NaN	0.000000	0.001607	0.001678	28.1214	0.069248	0.001933	35.8208	-179.453	13.9347	-0.035807	0.491509	-0.654801	-0.656126	-0.025683	35.8208	-0.654263	-4.633051E+8	5.543520E-11	NaN
63	1.000000	0.502859	7.36566e+06	-41789.1	955.818	-29785.6	0.000000	0.000000	6.502955	0.101139	NaN	0.000000	0.001560	0.001692	28.117	0.079423	0.002096	37.8858	121.866	-166.441	0.026564	0.501521	-0.644777	-0.646115	0.101139	37.8858	-0.646779	-3.658243E+8	-2.764697E-10	NaN
63	1.000000	0.512863	7.36566e+06	-41789.1	955.819	-29785.6	0.000000	0.000000	6.512953	-0.047433	NaN	0.000000	0.001578	0.001705	28.0814	0.094095	0.001981	47.5099	86.5523	13.6442	0.022315	0.511541	-0.634772	-0.636095	-0.047433	47.5099	-0.634023	-2.444914E+8	1.940062E-10	NaN
63	1.000000	0.522846	7.36566e+06	-41789.1	955.817	-29785.6	0.000000	0.000000	6.522937	-0.028830	NaN	0.000000	0.001533	0.001653	28.0853	0.049222	0.001935	25.4428	-68.1331	-166.698	-0.032571	0.521572	-0.624789	-0.626064	-0.028830	25.4428	-0.623939	-1.777340E+8	1.622089E-10	NaN
63	1.000000	0.532868	7.36566e+06	-41789.1	955.819	-29785.6	0.000000	0.000000	6.532958	-0.040952	NaN	0.000000	0.001569	0.001663	28.1219	0.055057	0.002017	27.2977	-122.394	13.5025	-0.042481	0.531487	-0.614767	-0.616149	-0.040952	27.2977	-0.613642	-1.282975E+8	3.191929E-10	NaN
63	1.000000	0.542883	7.36566e+06	-41789.1	955.818	-29785.6	0.000000	0.000000	6.542976	0.037319	NaN	0.000000	0.001571	0.001621	28.1177	0.209062	0.002066	101.188	-92.1716	-171.251	0.096325	0.541592	-0.604753	-0.606043	0.037319	101.188	-0.605029	-9.765860E+7	-3.821337E-10	NaN
63	1.000000	0.552911	7.36566e+06	-41789.1	955.818	-29785.6	0.000000	0.000000	6.553000	-0.069946	NaN	0.000000	0.001567	0.001654	28.0826	0.070655	0.001962	36.0142	-91.4384	14.97	-0.030065	0.551506	-0.594724	-0.596130	-0.069946	36.0142	-0.593268	-6.725254E+7	1.040050E-9	NaN
63	1.000000	0.562891	7.36566e+06	-41789.1	955.818	-29785.6	0.000000	0.000000	6.562980	-0.081349	NaN	0.000000	0.001601	0.001655	28.0835	0.056872	0.002023	28.1111	-72.6757	-164.708	-0.102809	0.561523	-0.584744	-0.586113	-0.081349	28.1111	-0.582574	-4.788958E+7	1.698673E-9	NaN
63	1.000000	0.572885	7.36566e+06	-41789.1	955.819	-29785.6	0.000000	0.000000	6.572981	0.086980	NaN	0.000000	0.001622	0.001646	28.1209	0.112753	0.002056	54.8309	50.2824	15.3553	0.000152	0.571530	-0.574750	-0.576106	0.086980	54.8309	-0.575940	-3.878624E+7	-2.242551E-9	NaN
63	1.000000	0.582901	7.36566e+06	-41789.1	955.818	-29785.6	0.000000	0.000000	6.582988	-0.112873	NaN	0.000000	0.001631	0.001675	28.1158	0.085318	0.002099	40.6459	-177.034	-164.031	-0.056131	0.581579	-0.564734	-0.566056	-0.112873	40.6459	-0.562651	-2.541275E+7	4.441574E-9	NaN
63	1.000000	0.592902	7.36566e+06	-41789.1	955.818	-29785.6	0.000000	0.000000	6.592991	-0.061275	NaN	0.000000	0.001629	0.001635	28.0818	0.054777	0.001981	27.6582	-162.449	15.0438	0.016877	0.591513	-0.554733	-0.556122	-0.061275	27.6582	-0.553072	-1.872806E+7	3.271815E-9	NaN
63	1.000000	0.602890	7.36566e+06	-41789.1	955.819	-29785.6	0.000000	0.000000	6.602980	-0.046557	NaN	0.000000	0.001547	0.001634	28.0844	0.039654	0.002005	19.7744	66.1212	-165.655	-0.061071	0.601571	-0.544746	-0.546065	-0.046557	19.7744	-0.542980	-1.357298E+7	3.430128E-9	NaN
63	1.000000	0.612883	7.36566e+06	-41789.1	955.817	-29785.6	0.000000	0.000000	6.612970	-0.110962	NaN	0.000000	0.001568	0.001651	28.1228	0.038474	0.002047	18.7952	76.8863	17.6226	-0.103499	0.611594	-0.534753	-0.536042	-0.110962	18.7952	-0.530325	-9.05919e+06	1.224854E-8	NaN
63	1.000000	0.622900	7.36566e+06	-41789.1	955.82	-29785.6	0.000000	0.000000	6.622990	-0.044595	NaN	0.000000	0.001583	0.001646	28.1187	0.010615	0.002019	5.257880	76.7541	-169.252	-0.078424	0.621625	-0.524736	-0.526010	-0.044595	5.257880	-0.518375	-6.17999e+06	7.216006E-9	NaN
63	1.000000	0.632906	7.36566e+06	-41789.1	955.819	-29785.6	0.000000	0.000000	6.632997	0.001116	NaN	0.000000	0.001584	0.001641	28.0823	0.090560	0.001993	45.432	-125.517	13.8636	-0.097082	0.631607	-0.514730	-0.516028	0.001116	45.432	-0.514748	-5.50208e+06	-2.028102E-10	NaN
63	1.000000	0.642909	7.36566e+06	-41789.1	955.817	-29785.6	0.000000	0.000000	6.643000	-0.010927	NaN	0.000000	0.001649	0.001667	28.0844	0.033203	0.002001	16.5971	108.15	-166.181	0.007378	0.641595	-0.504727	-0.506040	-0.010927	16.5971	-0.504233	-3.92693e+06	2.782533E-9	NaN
63	1.000000	0.652901	7.36566e+06	-41789.1	955.818	-29785.6	0.000000	0.000000	6.652993	-0.002291	NaN	0.000000	0.001636	0.001661	28.122	0.051424	0.001941	26.4999	129.928	16.9522	0.029531	0.651563	-0.494734	-0.496072	-0.002291	26.4999	-0.494669	-2.88812e+06	7.933136E-10	NaN
63	1.000000	0.662919	7.36566e+06	-41789.1	955.819	-29785.6	0.000000	0.000000	6.663010	-0.028521	NaN	0.000000	0.001634	0.001655	28.1176	0.074758	0.002032	36.7933	169.068	-168.166	0.048841	0.661664	-0.484716	-0.485971	-0.028521	36.7933	-0.484135	-2.05774e+06	1.386009E-8	NaN
63	1.000000	0.672915	7.36566e+06	-41789.1	955.818	-29785.6	0.000000	0.000000	6.673001	-0.132686	NaN	0.000000	0.001618	0.001651	28.083	0.105202	0.001896	55.4795	130.586	13.4536	-0.112309	0.671559	-0.474721	-0.476076	-0.132686	55.4795	-0.472927	-1.43367e+06	9.254946E-8	NaN
63	1.000000	0.682930	7.36566e+06	-41789.1	955.818	-29785.6	0.000000	0.000000	6.683019	-0.066645	NaN	0.000000	0.001645	0.001669	28.0844	0.066785	0.002125	31.426	168.961	-168.635	-0.012950	0.681665	-0.464705	-0.465971	-0.066645	31.426	-0.463115	-1.04417e+06	6.382593E-8	NaN
63	1.000000	0.692949	7.36566e+06	-41789.1	955.818	-29785.6	0.000000	0.000000	6.693038	-0.050108	NaN	0.000000	0.001648	0.001661	28.1229	0.168173	0.002019	83.2796	111.77	11.4993	-0.025012	0.691643	-0.454687	-0.455992	-0.050108	83.2796	-0.454235	-783360	6.396559E-8	NaN
63	1.000000	0.702947	7.36566e+06	-41789.1	955.818	-29785.6	0.000000	0.000000	6.703037	-0.027014	NaN	0.000000	0.001676	0.001659	28.1189	0.060040	0.002036	29.484	-152.792	-169.665	-0.022806	0.701651	-0.444689	-0.445984	-0.027014	29.484	-0.444002	-562105	4.805903E-8	NaN
63	1.000000	0.712932	7.36566e+06	-41789.1	955.818	-29785.6	0.000000	0.000000	6.713023	-0.025989	NaN	0.000000	0.001663	0.001630	28.0834	0.073336	0.001993	36.7959	75.4265	16.0004	-0.016944	0.711551	-0.434703	-0.436084	-0.025989	36.7959	-0.434174	-408393	6.363804E-8	NaN
63	1.000000	0.722915	7.36566e+06	-41789.1	955.819	-29785.6	0.000000	0.000000	6.723006	-0.014896	NaN	0.000000	0.001651	0.001650	28.0846	0.033009	0.002020	16.3378	27.8673	-166.019	-0.073259	0.721635	-0.424721	-0.426001	-0.014896	16.3378	-0.424037	-293520	5.075069E-8	NaN
63	1.000000	0.732947	7.36566e+06	-41789.1	955.819	-29785.6	0.000000	0.000000	6.733035	-0.104144	NaN	0.000000	0.001624	0.001638	28.1213	0.038741	0.002124	18.2403	72.629	11.6052	-0.088646	0.731543	-0.414688	-0.416092	-0.104144	18.2403	-0.410406	-188007	5.539375E-7	NaN
63	1.000000	0.742941	7.36566e+06	-41789.1	955.818	-29785.6	0.000000	0.000000	6.743031	-0.057945	NaN	0.000000	0.001657	0.001588	28.1171	0.065310	0.001997	32.6985	-8.836468	-164.692	0.009194	0.741671	-0.404694	-0.405965	-0.057945	32.6985	-0.403365	-149266	3.881967E-7	NaN
63	1.000000	0.752950	7.36566e+06	-41789.1	955.818	-29785.6	0.000000	0.000000	6.753041	-0.022419	NaN	0.000000	0.001627	0.001611	28.0807	0.062911	0.002025	31.0624	159.199	13.2786	-0.054174	0.751577	-0.394686	-0.396058	-0.022419	31.0624	-0.394144	-110259	2.033323E-7	NaN
63	1.000000	0.762957	7.36566e+06	-41789.1	955.818	-29785.6	0.000000	0.000000	6.763046	-0.065493	NaN	0.000000	0.001635	0.001617	28.0839	0.032851	0.001962	16.7422	-34.9323	-166.494	-0.106668	0.761629	-0.384679	-0.386006	-0.065493	16.7422	-0.381745	-73269.7	8.938563E-7	NaN
63	1.000000	0.772980	7.36566e+06	-41789.1	955.819	-29785.6	0.000000	0.000000	6.773074	0.042341	NaN	0.000000	0.001645	0.001611	28.1214	0.035916	0.001896	18.9385	30.5206	14.21	0.030503	0.771583	-0.374655	-0.376052	0.042341	18.9385	-0.376332	-61265.2	-6.911100E-7	NaN
63	1.000000	0.783008	7.36566e+06	-41789.1	955.818	-29785.6	0.000000	0.000000	6.783096	-0.087211	NaN	0.000000	0.001635	0.001645	28.1182	0.063489	0.001837	34.5639	-173.629	-167.637	-0.138139	0.781682	-0.364628	-0.365954	-0.087211	34.5639	-0.362735	-39026.8	2.234651E-6	NaN
63	1.000000	0.792956	7.36566e+06	-41789.1	955.82	-29785.6	0.000000	0.000000	6.793044	-0.077274	NaN	0.000000	0.001613	0.001646	28.082	0.125810	0.002070	60.7901	-7.382869	13.1995	-0.071914	0.791632	-0.354680	-0.356003	-0.077274	60.7901	-0.353727	-28910	2.672921E-6	NaN
63	1.000000	0.802993	7.36566e+06	-41789.1	955.818	-29785.6	0.000000	0.000000	6.803087	0.049667	NaN	0.000000	0.001647	0.001606	28.0822	0.047516	0.001941	24.4811	-110.565	-163.427	0.111019	0.801666	-0.344643	-0.345969	0.049667	24.4811	-0.346164	-22453.5	-2.211970E-6	NaN
63	1.000000	0.812994	7.36566e+06	-41789.1	955.817	-29785.6	0.000000	0.000000	6.813083	-0.064907	NaN	0.000000	0.001643	0.001612	28.1195	0.083416	0.002084	40.0253	-125.116	12.8262	-0.065579	0.811618	-0.334642	-0.336017	-0.064907	40.0253	-0.333425	-14641	4.433203E-6	NaN
63	1.000000	0.822983	7.36566e+06	-41789.1	955.818	-29785.6	0.000000	0.000000	6.823073	-0.032313	NaN	0.000000	0.001631	0.001619	28.1205	0.172386	0.001967	87.6364	-171.678	-165.572	0.010057	0.821654	-0.324653	-0.325981	-0.032313	87.6364	-0.324376	-10788.9	2.995071E-6	NaN
63	1.000000	0.832981	7.36566e+06	-41789.1	955.818	-29785.6	0.000000	0.000000	6.833073	-0.004111	NaN	0.000000	0.001620	0.001634	28.0855	0.034045	0.002048	16.6197	129.387	15.7534	-0.018368	0.831639	-0.314654	-0.315996	-0.004111	16.6197	-0.314469	-7710.94	5.330908E-7	NaN
63	1.000000	0.843022	7.36566e+06	-41789.1	955.818	-29785.6	0.000000	0.000000	6.843113	-0.019591	NaN	0.000000	0.001645	0.001679	28.0859	0.038844	0.001991	19.5084	-141.802	-164.375	0.051068	0.841682	-0.304613	-0.305954	-0.019591	19.5084	-0.303860	-5370.72	3.647819E-6	NaN
63	1.000000	0.852982	7.36566e+06	-41789.1	955.818	-29785.6	0.000000	0.000000	6.853075	0.024305	NaN	0.000000	0.001614	0.001611	28.1238	0.086004	0.001986	43.3044	147.342	17.5373	-0.041699	0.851699	-0.294653	-0.295936	0.024305	43.3044	-0.295074	-3973.67	-6.116558E-6	NaN
63	1.000000	0.863008	7.36566e+06	-41789.1	955.818	-29785.6	0.000000	0.000000	6.863096	-0.084508	NaN	0.000000	0.001582	0.001629	28.1198	0.112799	0.002057	54.8263	125.305	-168.089	-0.113443	0.861719	-0.284627	-0.285916	-0.084508	54.8263	-0.283471	-2662.4	3.174132E-5	NaN
63	1.000000	0.873033	7.36566e+06	-41789.1	955.819	-29785.6	0.000000	0.000000	6.873123	-0.026633	NaN	0.000000	0.001589	0.001625	28.083	0.050626	0.002003	25.2812	130.67	16.1921	0.019336	0.871619	-0.274603	-0.276016	-0.026633	25.2812	-0.273813	-1902.89	1.399580E-5	NaN
63	1.000000	0.882995	7.36566e+06	-41789.1	955.818	-29785.6	0.000000	0.000000	6.883081	-0.145352	NaN	0.000000	0.001600	0.001644	28.0844	0.029370	0.001930	15.2139	-71.3986	-166.802	-0.130066	0.881688	-0.264640	-0.265947	-0.145352	15.2139	-0.257475	-1071.93	0.000136	NaN
63	1.000000	0.893016	7.36566e+06	-41789.1	955.818	-29785.6	0.000000	0.000000	6.893107	-0.027818	NaN	0.000000	0.001609	0.001630	28.1218	0.113789	0.002018	56.3994	-85.9367	9.383572	-0.081633	0.891687	-0.254619	-0.255949	-0.027818	56.3994	-0.254249	-956.208	2.909166E-5	NaN
63	1.000000	0.903024	7.36566e+06	-41789.1	955.819	-29785.6	0.000000	0.000000	6.903115	-0.036091	NaN	0.000000	0.001599	0.001635	28.1231	0.047263	0.001987	23.7881	74.6907	-165.498	-0.056031	0.901716	-0.244611	-0.245919	-0.036091	23.7881	-0.243473	-651.187	5.542285E-5	NaN
63	1.000000	0.913014	7.36566e+06	-41789.1	955.819	-29785.6	0.000000	0.000000	6.913104	-0.035747	NaN	0.000000	0.001604	0.001626	28.0868	0.064596	0.001962	32.9304	-62.4102	11.5595	-0.086731	0.911701	-0.234621	-0.235934	-0.035747	32.9304	-0.233807	-459.731	7.775721E-5	NaN
63	1.000000	0.923018	7.36566e+06	-41789.1	955.818	-29785.6	0.000000	0.000000	6.923105	-0.102747	NaN	0.000000	0.001589	0.001658	28.0874	0.088428	0.001984	44.5753	63.6205	-164.036	-0.047629	0.921709	-0.224618	-0.225926	-0.102747	44.5753	-0.222889	-308.858	0.000333	NaN
63	1.000000	0.933043	7.36566e+06	-41789.1	955.818	-29785.6	0.000000	0.000000	6.933135	-0.007404	NaN	0.000000	0.001618	0.001663	28.1231	0.045791	0.002007	22.8123	164.816	15.8657	-0.032303	0.931645	-0.214592	-0.215991	-0.007404	22.8123	-0.214349	-225.442	3.284313E-5	NaN
63	1.000000	0.943058	7.36566e+06	-41789.1	955.819	-29785.6	0.000000	0.000000	6.943150	0.000265	NaN	0.000000	0.001583	0.001677	28.1225	0.069051	0.002063	33.4713	48.492	-164.734	0.010445	0.941717	-0.204578	-0.205919	0.000265	33.4713	-0.204584	-156.59	-1.689361E-6	NaN
63	1.000000	0.953067	7.36566e+06	-41789.1	955.819	-29785.6	0.000000	0.000000	6.953157	-0.030812	NaN	0.000000	0.001607	0.001656	28.0871	0.044675	0.001999	22.3468	-0.859268	9.954999	-0.029848	0.951674	-0.194568	-0.195961	-0.030812	22.3468	-0.193534	-103.013	0.000299	NaN
63	1.000000	0.963071	7.36566e+06	-41789.1	955.819	-29785.6	0.000000	0.000000	6.963159	-0.076672	NaN	0.000000	0.001575	0.001635	28.086	0.065527	0.002031	32.2701	43.2129	-168.444	-0.064320	0.961753	-0.184565	-0.185882	-0.076672	32.2701	-0.182783	-68.0282	0.001127	NaN
63	1.000000	0.973045	7.36566e+06	-41789.1	955.818	-29785.6	0.000000	0.000000	6.973135	-0.021465	NaN	0.000000	0.001583	0.001667	28.1224	0.056581	0.001946	29.0772	-47.2229	14.8393	-0.000694	0.971668	-0.174591	-0.175967	-0.021465	29.0772	-0.174037	-48.2412	0.000445	NaN
63	1.000000	0.983073	7.36566e+06	-41789.1	955.819	-29785.6	0.000000	0.000000	6.983161	-0.094832	NaN	0.000000	0.001648	0.001630	28.1221	0.079032	0.001957	40.3818	-85.756	-167.379	-0.147880	0.981725	-0.164562	-0.165911	-0.094832	40.3818	-0.162801	-30.7323	0.003086	NaN
63	1.000000	0.993035	7.36566e+06	-41789.1	955.818	-29785.6	0.000000	0.000000	6.993124	-0.052083	NaN	0.000000	0.001632	0.001677	28.0849	0.050757	0.001995	25.4421	-157.847	10.6234	-0.044670	0.991706	-0.154601	-0.155930	-0.052083	25.4421	-0.153066	-20.5912	0.002529	NaN
63	1.000000	1.003087	7.36566e+06	-41789.1	955.819	-29785.6	0.000000	0.000000	7.003176	-0.043813	NaN	0.000000	0.001597	0.001683	28.0875	0.096911	0.002044	47.4062	-29.2793	-164.176	-0.071392	1.001758	-0.144549	-0.145877	-0.043813	47.4062	-0.143856	-13.9624	0.003138	NaN
63	1.000000	1.013052	7.36566e+06	-41789.1	955.819	-29785.6	0.000000	0.000000	7.013140	-0.080713	NaN	0.000000	0.001569	0.001673	28.1224	0.057118	0.002128	26.8376	172.68	14.6692	-0.006933	1.011706	-0.134583	-0.135929	-0.080713	26.8376	-0.132328	-8.453617	0.009548	NaN
63	1.000000	1.023083	7.36566e+06	-41789.1	955.818	-29785.6	0.000000	0.000000	7.023175	0.003741	NaN	0.000000	0.001548	0.001685	28.1206	0.020211	0.002052	9.846901	-109.751	-164.928	0.056988	1.021696	-0.124553	-0.125939	0.003741	9.846901	-0.124838	-6.036447	-0.000620	NaN
63	1.000000	1.033074	7.36566e+06	-41789.1	955.819	-29785.6	0.000000	0.000000	7.033167	0.042386	NaN	0.000000	0.001602	0.001643	28.0832	0.069124	0.001950	35.4559	-127.773	13.455	0.063746	1.031718	-0.114561	-0.115917	0.042386	35.4559	-0.115458	-3.904252	-0.010856	NaN
63	1.000000	1.043068	7.36566e+06	-41789.1	955.819	-29785.6	0.000000	0.000000	7.043160	0.014994	NaN	0.000000	0.001621	0.001669	28.0827	0.037297	0.001959	19.0354	-138.048	-163.82	0.048104	1.041699	-0.104568	-0.105936	0.014994	19.0354	-0.105158	-2.369150	-0.006329	NaN
63	1.000000	1.053079	7.36566e+06	-41789.1	955.819	-29785.6	0.000000	0.000000	7.053170	-0.002951	NaN	0.000000	0.001556	0.001653	28.1194	0.051718	0.001992	25.9563	-62.7132	18.1204	0.009876	1.051662	-0.094557	-0.095973	-0.002951	25.9563	-0.094471	-1.371985	0.002151	NaN
63	1.000000	1.063094	7.36566e+06	-41789.1	955.818	-29785.6	0.000000	0.000000	7.063186	0.006106	NaN	0.000000	0.001559	0.001655	28.1195	0.066239	0.001968	33.6656	-160.154	-168.116	0.081009	1.061826	-0.084542	-0.085810	0.006106	33.6656	-0.084678	-0.806996	-0.007567	NaN
63	1.000000	1.073073	7.36566e+06	-41789.1	955.818	-29785.6	0.000000	0.000000	7.073161	-0.093315	NaN	0.000000	0.001588	0.001645	28.0834	0.053994	0.002130	25.354	-110.202	12.0774	-0.078186	1.071729	-0.074563	-0.075906	-0.093315	25.354	-0.071802	-0.380953	0.244951	NaN
63	1.000000	1.083061	7.36566e+06	-41789.1	955.819	-29785.6	0.000000	0.000000	7.083152	-0.013764	NaN	0.000000	0.001562	0.001681	28.0844	0.054402	0.001950	27.9054	2.015169	-168.268	-0.005452	1.081771	-0.064574	-0.065865	-0.013764	27.9054	-0.064204	-0.236834	0.058116	NaN
63	1.000000	1.093125	7.36566e+06	-41789.1	955.819	-29785.6	0.000000	0.000000	7.093216	-0.019709	NaN	0.000000	0.001567	0.001690	28.1203	0.101523	0.002094	48.4848	75.2787	10.1875	-0.030667	1.091746	-0.054511	-0.055890	-0.019709	48.4848	-0.054206	-0.121987	0.161570	NaN
63	1.000000	1.103081	7.36566e+06	-41789.1	955.82	-29785.6	0.000000	0.000000	7.103170	-0.070442	NaN	0.000000	0.001571	0.001697	28.121	0.011378	0.001974	5.764687	38.5311	-166.449	-0.069408	1.101785	-0.044554	-0.045850	-0.070442	5.764687	-0.035390	-0.032883	2.142180	NaN
63	1.000000	1.113089	7.36566e+06	-41789.1	955.82	-29785.6	0.000000	0.000000	7.113182	0.036021	NaN	0.000000	0.001554	0.001624	28.0831	0.052210	0.002147	24.3152	-9.092923	14.0281	0.014550	1.111741	-0.034546	-0.035895	0.036021	24.3152	-0.035657	-0.033489	-1.075613	NaN
63	1.000000	1.123113	7.36566e+06	-41789.1	955.818	-29785.6	0.000000	0.000000	7.123202	-0.078944	NaN	0.000000	0.001587	0.001658	28.0823	0.067975	0.001954	34.7807	128.857	-167.677	-0.099847	1.121744	-0.024522	-0.025892	-0.078944	34.7807	-0.022820	-0.014818	5.327480	NaN
63	1.000000	1.133085	7.36566e+06	-41789.1	955.818	-29785.6	0.000000	0.000000	7.133178	0.024793	NaN	0.000000	0.001597	0.001679	28.1189	0.091990	0.001916	48.0207	-97.6284	16.222	-0.017921	1.131756	-0.014550	-0.015880	0.024793	48.0207	-0.014937	-0.009238	-2.683786	NaN
63	1.000000	1.143092	7.36566e+06	-41789.1	955.819	-29785.6	0.000000	0.000000	7.143180	-0.084080	NaN	0.000000	0.001552	0.001688	28.1201	0.059366	0.001923	30.8694	-10.0425	-165.53	-0.062604	1.141733	-0.004544	-0.005903	-0.084080	30.8694	-0.002501	-0.001784	47.1407	NaN
63	1.000000	1.153101	7.36566e+06	-41789.1	955.818	-29785.6	0.000000	0.000000	7.153298	2.565412	NaN	0.000000	0.001581	0.001659	28.0833	3.411926	0.001870	1825.01	10.2786	11.3847	1.346972	1.151743	0.005466	0.004107	2.565412	1825.01	0.004411	0.003603	712.093	27779.8
63	2.000000	1.159694	7.36566e+06	-41789.1	955.817	-29785.6	0.000000	0.000000	7.160206	10.2293	NaN	0.000000	0.001571	0.001645	28.0852	9.587055	0.001696	5653.78	8.248113	-175.369	9.583528	1.159387	0.012058	0.011752	10.2293	5653.78	0.010701	0.009971	1025.88	51729.4
63	2.000000	1.162212	7.36566e+06	-41789.1	955.817	-29785.6	0.000000	0.000000	7.162913	14.8342	NaN	0.000000	0.001570	0.001640	28.1211	12.2563	0.001586	7727.33	5.511830	6.365188	13.7914	1.161848	0.014576	0.014212	14.8342	7727.33	0.013137	0.012880	1151.7	62207
63	2.000000	1.164634	7.36566e+06	-41789.1	955.819	-29785.6	0.000000	0.000000	7.165543	19.8722	NaN	0.000000	0.001551	0.001669	28.1222	15.309	0.001678	9124.43	4.493637	-174.083	18.3815	1.164358	0.016999	0.016722	19.8722	9124.43	0.015365	0.015776	1259.67	66372
63	2.000000	1.167197	7.36566e+06	-41789.1	955.819	-29785.6	0.000000	0.000000	7.168403	27.1153	NaN	0.000000	0.001566	0.001686	28.085	19.0866	0.001773	10762.8	3.240880	5.153811	27.703	1.166839	0.019562	0.019204	27.1153	10762.8	0.017672	0.019016	1425.93	71308.4
63	2.000000	1.169668	7.36566e+06	-41789.1	955.818	-29785.6	0.000000	0.000000	7.171136	33.4788	NaN	0.000000	0.001557	0.001629	28.0847	22.5969	0.001734	13034.3	8.667925	177.142	33.3848	1.169376	0.022033	0.021740	33.4788	13034.3	0.020107	0.022710	1474.19	79022.9
63	2.000000	1.172147	7.36566e+06	-41789.1	955.818	-29785.6	0.000000	0.000000	7.173979	42.3413	NaN	0.000000	0.001580	0.001696	28.1196	24.6901	0.001678	14711.2	2.623087	3.401141	40.9191	1.171731	0.024512	0.024095	42.3413	14711.2	0.022353	0.026376	1605.3	82759.6
63	2.000000	1.174603	7.36566e+06	-41789.1	955.819	-29785.6	0.000000	0.000000	7.176760	50.2375	NaN	0.000000	0.001561	0.001675	28.1224	26.5399	0.001670	15895.8	-1.792864	-173.367	48.9466	1.174253	0.026968	0.026617	50.2375	15895.8	0.024598	0.030288	1658.69	83449.6
63	2.000000	1.177114	7.36566e+06	-41789.1	955.82	-29785.6	0.000000	0.000000	7.179743	61.7374	NaN	0.000000	0.001587	0.001693	28.0839	30.0006	0.001696	17687.8	5.417207	-1.487254	60.3783	1.176703	0.029479	0.029068	61.7374	17687.8	0.026861	0.034489	1790.07	87017.8
63	2.000000	1.179643	7.36566e+06	-41789.1	955.819	-29785.6	0.000000	0.000000	7.182509	67.4945	NaN	0.000000	0.001575	0.001663	28.0859	33.5463	0.001843	18206.6	3.650845	-179.664	68.4082	1.179287	0.032008	0.031651	67.4945	18206.6	0.029227	0.039157	1723.67	84061.3
63	2.000000	1.182130	7.36566e+06	-41789.1	955.818	-29785.6	0.000000	0.000000	7.185413	77.6412	NaN	0.000000	0.001600	0.001646	28.1203	35.2808	0.001799	19606.2	4.175190	-0.733751	76.5322	1.181776	0.034495	0.034140	77.6412	19606.2	0.031525	0.043963	1766.05	85432.2
63	2.000000	1.184563	7.36566e+06	-41789.1	955.819	-29785.6	0.000000	0.000000	7.188291	88.4869	NaN	0.000000	0.001596	0.001668	28.1235	37.4556	0.001728	21678.5	4.346557	177.593	86.5292	1.184340	0.036927	0.036705	88.4869	21678.5	0.033866	0.049138	1800.77	89349.3
63	2.000000	1.187115	7.36566e+06	-41789.1	955.82	-29785.6	0.000000	0.000000	7.191332	100.379	NaN	0.000000	0.001604	0.001683	28.0862	39.9212	0.001745	22881.7	3.496306	-1.929863	100.246	1.186704	0.039479	0.039069	100.379	22881.7	0.036189	0.054551	1840.09	89507.6
63	2.000000	1.189598	7.36566e+06	-41789.1	955.819	-29785.6	0.000000	0.000000	7.194223	110.315	NaN	0.000000	0.001602	0.001624	28.0848	43.1712	0.001783	24215.2	3.685042	177.235	110.702	1.189349	0.041963	0.041714	110.315	24215.2	0.038546	0.060324	1828.71	90077.2
63	2.000000	1.192023	7.36566e+06	-41789.1	955.819	-29785.6	0.000000	0.000000	7.197149	122.506	NaN	0.000000	0.001616	0.001608	28.1177	45.0004	0.001846	24380.6	3.737406	-1.929417	117.219	1.191674	0.044387	0.044038	122.506	24380.6	0.040619	0.065637	1866.43	86945.1
63	2.000000	1.194569	7.36566e+06	-41789.1	955.818	-29785.6	0.000000	0.000000	7.200133	133.154	NaN	0.000000	0.001589	0.001622	28.1207	47.6219	0.001720	27693.8	7.243249	172.068	131.665	1.194271	0.046933	0.046636	133.154	27693.8	0.043327	0.072910	1826.28	93704.8
63	2.000000	1.197067	7.36566e+06	-41789.1	955.818	-29785.6	0.000000	0.000000	7.203153	145.853	NaN	0.000000	0.001598	0.001645	28.084	49.8061	0.001742	28596.2	4.236843	-4.180235	144.319	1.196681	0.049432	0.049045	145.853	28596.2	0.045606	0.079318	1838.84	92767.7
63	2.000000	1.199622	7.36566e+06	-41789.1	955.819	-29785.6	0.000000	0.000000	7.206297	160.201	NaN	0.000000	0.001597	0.001671	28.0818	52.9312	0.001815	29166.5	3.987144	176.513	160.497	1.199246	0.051986	0.051610	160.201	29166.5	0.047867	0.085934	1864.24	90902.6
63	2.000000	1.202059	7.36566e+06	-41789.1	955.819	-29785.6	0.000000	0.000000	7.209423	176.935	NaN	0.000000	0.001635	0.001634	28.1188	54.6105	0.001709	31957.2	3.860990	-5.223287	172.673	1.201743	0.054424	0.054107	176.935	31957.2	0.050271	0.093254	1897.35	95611.4
63	2.000000	1.204647	7.36566e+06	-41789.1	955.819	-29785.6	0.000000	0.000000	7.212508	189.04	NaN	0.000000	0.001605	0.001640	28.1222	57.2928	0.001805	31736.7	4.360293	174.721	194.48	1.204301	0.057012	0.056666	189.04	31736.7	0.052544	0.100439	1882.13	91492
63	2.000000	1.207037	7.36566e+06	-41789.1	955.819	-29785.6	0.000000	0.000000	7.215508	203.882	NaN	0.000000	0.001598	0.001606	28.0846	58.4811	0.001661	35209.5	0.726872	-2.678339	200.83	1.206727	0.059402	0.059091	203.882	35209.5	0.055059	0.108689	1875.83	97575.3
63	2.000000	1.209450	7.36566e+06	-41789.1	955.817	-29785.6	0.000000	0.000000	7.218372	214.857	NaN	0.000000	0.001619	0.001606	28.0824	62.3229	0.001763	35345.3	1.800663	175.631	208.102	1.209264	0.061814	0.061629	214.857	35345.3	0.057255	0.116150	1849.82	94753.4
63	2.000000	1.212033	7.36566e+06	-41789.1	955.818	-29785.6	0.000000	0.000000	7.221825	236.033	NaN	0.000000	0.001549	0.001626	28.118	63.5685	0.001777	35769.4	4.307541	-6.188578	231.016	1.211765	0.064398	0.064129	236.033	35769.4	0.059449	0.123839	1905.97	92865.9
63	2.000000	1.214577	7.36566e+06	-41789.1	955.819	-29785.6	0.000000	0.000000	7.225020	251.848	NaN	0.000000	0.001538	0.001658	28.1211	65.4714	0.001779	36808.7	3.645089	173.943	251.163	1.214284	0.066942	0.066648	251.848	36808.7	0.061810	0.132380	1902.46	92429.9
63	2.000000	1.217081	7.36566e+06	-41789.1	955.819	-29785.6	0.000000	0.000000	7.227859	260.028	NaN	0.000000	0.001543	0.001641	28.0842	68.9351	0.001684	40927.1	7.754741	-10.9379	259.036	1.216523	0.069446	0.068887	260.028	40927.1	0.064680	0.143125	1816.79	98838.7
63	2.000000	1.219459	7.36566e+06	-41789.1	955.818	-29785.6	0.000000	0.000000	7.231411	288.583	NaN	0.000000	0.001582	0.001640	28.084	72.5185	0.001785	40622.4	4.852804	171.918	285.926	1.219141	0.071823	0.071505	288.583	40622.4	0.066495	0.150125	1922.29	95788.2
63	2.000000	1.222011	7.36566e+06	-41789.1	955.818	-29785.6	0.000000	0.000000	7.234302	296.846	NaN	0.000000	0.001566	0.001664	28.1182	74.8334	0.001798	41623.7	5.526293	-7.898176	292.483	1.221636	0.074375	0.074001	296.846	41623.7	0.069026	0.160150	1853.55	95027.8
63	2.000000	1.224518	7.36566e+06	-41789.1	955.819	-29785.6	0.000000	0.000000	7.237541	314.646	NaN	0.000000	0.001553	0.001678	28.1226	77.327	0.001898	40750.8	7.226247	169.387	313.325	1.224258	0.076883	0.076623	314.646	40750.8	0.071092	0.168558	1866.69	90684.9
63	2.000000	1.226979	7.36566e+06	-41789.1	955.818	-29785.6	0.000000	0.000000	7.240794	333.921	NaN	0.000000	0.001535	0.001641	28.085	79.6468	0.001828	43571.1	5.142972	-8.811381	327.936	1.226638	0.079343	0.079003	333.921	43571.1	0.073595	0.179021	1865.26	94085
63	2.000000	1.229516	7.36566e+06	-41789.1	955.817	-29785.6	0.000000	0.000000	7.244022	350.733	NaN	0.000000	0.001565	0.001706	28.0835	80.8782	0.001737	46567.4	0.974443	175.271	348.689	1.229293	0.081880	0.081657	350.733	46567.4	0.076232	0.190357	1842.5	97514.8
63	2.000000	1.231995	7.36566e+06	-41789.1	955.817	-29785.6	0.000000	0.000000	7.247595	377.347	NaN	0.000000	0.001556	0.001641	28.1188	83.125	0.001807	45993.6	8.376449	-10.9782	370.465	1.231579	0.084359	0.083944	377.347	45993.6	0.078206	0.199061	1895.64	94184.2
63	2.000000	1.234588	7.36566e+06	-41789.1	955.818	-29785.6	0.000000	0.000000	7.250715	390.173	NaN	0.000000	0.001580	0.001657	28.1229	85.9693	0.001796	47857.1	3.544113	172.56	392.375	1.234194	0.086953	0.086558	390.173	47857.1	0.080838	0.210949	1849.6	95198.7
63	2.000000	1.237036	7.36566e+06	-41789.1	955.818	-29785.6	0.000000	0.000000	7.254190	415.155	NaN	0.000000	0.001574	0.001644	28.0849	89.2456	0.001854	48135	9.702726	-13.5381	413.011	1.236534	0.089400	0.088898	415.155	48135	0.082932	0.220634	1881.64	93626.2
63	2.000000	1.239404	7.36566e+06	-41789.1	955.818	-29785.6	0.000000	0.000000	7.257458	437.057	NaN	0.000000	0.001545	0.001657	28.0853	90.0085	0.001788	50335.3	2.979002	172.715	429.829	1.239089	0.091768	0.091453	437.057	50335.3	0.085256	0.231624	1886.92	95555.1
63	2.000000	1.242035	7.36566e+06	-41789.1	955.818	-29785.6	0.000000	0.000000	7.261009	459.434	NaN	0.000000	0.001562	0.001647	28.119	91.8884	0.001811	50732.6	8.523009	-11.4147	454.237	1.241566	0.094399	0.093931	459.434	50732.6	0.087607	0.242997	1890.7	94028.5
63	2.000000	1.244381	7.36566e+06	-41789.1	955.818	-29785.6	0.000000	0.000000	7.264014	475.48	NaN	0.000000	0.001632	0.001611	28.124	96.026	0.001792	53593.7	8.365695	167.036	467.585	1.243970	0.096745	0.096334	475.48	53593.7	0.090091	0.255286	1862.54	96911.2
63	2.000000	1.247053	7.36566e+06	-41789.1	955.819	-29785.6	0.000000	0.000000	7.267336	491.282	NaN	0.000000	0.001655	0.001666	28.0853	98.2373	0.001766	55621.1	2.787404	-7.968672	490.365	1.246772	0.099418	0.099136	491.282	55621.1	0.092793	0.268976	1826.49	97984.2
63	2.000000	1.249448	7.36566e+06	-41789.1	955.818	-29785.6	0.000000	0.000000	7.270724	515.463	NaN	0.000000	0.001634	0.001644	28.0844	100.853	0.001906	52920.2	1.955175	173.4	511.469	1.249232	0.101813	0.101596	515.463	52920.2	0.094507	0.277833	1855.3	91728.1
63	2.000000	1.252054	7.36566e+06	-41789.1	955.818	-29785.6	0.000000	0.000000	7.274423	542.057	NaN	0.000000	0.001635	0.001646	28.1174	103.06	0.001881	54777.7	4.964099	-9.554027	541.323	1.251630	0.104418	0.103995	542.057	54777.7	0.096997	0.290935	1863.15	92785.3
63	2.000000	1.254493	7.36566e+06	-41789.1	955.818	-29785.6	0.000000	0.000000	7.277950	568.518	NaN	0.000000	0.001631	0.001663	28.1228	103.696	0.001867	55545.1	2.420571	172.811	565.532	1.254211	0.106858	0.106576	568.518	55545.1	0.099181	0.302666	1878.36	92243.8
63	2.000000	1.256906	7.36566e+06	-41789.1	955.818	-29785.6	0.000000	0.000000	7.281278	590.786	NaN	0.000000	0.001653	0.001646	28.0855	106.102	0.001742	60896.3	4.298069	-9.847369	582.53	1.256668	0.109270	0.109033	590.786	60896.3	0.101994	0.318091	1857.28	98648