File: remote_trans/data/nanoindenter/0828-1/data/Data_2025-08-06,11h17m57s/2025-07-22_16-23-58_1_1091.txt
2025-07-22, 16:23:58, 1
Index	Phase	Displacement	Time	Pos X	Pos Y	Pos Z	Rot A	Rot B	Piezo Z	Force A	Force B	Gripper	Voltage A	Voltage B	Temperature	Amplitude force	Amplitude pos	Stiffness	Phase shift	Phase excitation	Force A raw	Displacement raw	HMax	HMax raw	Real Force	Real Stiffness	Contact Depth	Area	Hardness	Reduced Mod.
[#]	[#]	[um]	[s]	[um]	[um]	[um]	[m°]	[m°]	[um]	[uN]	[uN]	[V]	[V]	[V]	[°C]	[uN]	[um]	[N/m]	[°]	[°]	[uN]	[um]	[um]	[um]	[uN]	[N/m]	[um]	[um^2]	[MPa]	[MPa]
1091	1.000000	0.002453	7.37572e+06	-54689.1	1055.82	-29743	0.000000	0.000000	6.002778	-0.011653	NaN	0.000000	0.001581	0.001600	28.0838	0.051439	0.000908	56.6669	-148.458	-173.755	-0.020111	0.001163	-1.072454	-1.073743	-0.011653	56.6669	-1.072299	-2.128536E+14	5.474702E-17	NaN
1091	1.000000	0.010442	7.37572e+06	-54689.1	1055.82	-29743	0.000000	0.000000	6.010770	0.039805	NaN	0.000000	0.001562	0.001575	28.0837	0.115384	0.000914	126.258	81.3065	-163.602	0.003539	0.009143	-1.064464	-1.065764	0.039805	126.258	-1.064701	-1.682628E+14	-2.365649E-16	NaN
1091	1.000000	0.018458	7.37572e+06	-54689.1	1055.82	-29743	0.000000	0.000000	6.018785	0.031604	NaN	0.000000	0.001524	0.001611	28.0836	0.031077	0.001761	17.6493	-25.6278	-167.795	-0.028266	0.017108	-1.056449	-1.057798	0.031604	17.6493	-1.057792	-1.358758E+14	-2.325969E-16	NaN
1091	1.000000	0.026461	7.37572e+06	-54689.1	1055.82	-29743	0.000000	0.000000	6.026788	0.039394	NaN	0.000000	0.001542	0.001582	28.0838	0.013006	0.001792	7.256880	-0.828498	-162.507	0.008556	0.025155	-1.048446	-1.049752	0.039394	7.256880	-1.052517	-1.154115E+14	-3.413319E-16	NaN
1091	1.000000	0.034394	7.37572e+06	-54689.1	1055.82	-29743	0.000000	0.000000	6.034719	-0.022765	NaN	0.000000	0.001530	0.001590	28.0836	0.065657	0.001940	33.8524	164.524	-166.543	-0.050877	0.033103	-1.040512	-1.041804	-0.022765	33.8524	-1.040008	-7.835668E+13	2.905277E-16	NaN
1091	1.000000	0.042423	7.37572e+06	-54689.1	1055.82	-29743	0.000000	0.000000	6.042749	0.010578	NaN	0.000000	0.001634	0.001584	28.084	0.048538	0.001924	25.2338	-76.4168	-162.956	-0.022394	0.041078	-1.032484	-1.033828	0.010578	25.2338	-1.032798	-6.267779E+13	-1.687716E-16	NaN
1091	1.000000	0.050428	7.37572e+06	-54689.1	1055.82	-29743	0.000000	0.000000	6.050753	-0.024726	NaN	0.000000	0.001615	0.001602	28.0838	0.009520	0.001903	5.001771	-177.082	-166.836	0.009341	0.049143	-1.024478	-1.025764	-0.024726	5.001771	-1.020771	-4.318364E+13	5.725865E-16	NaN
1091	1.000000	0.058447	7.37572e+06	-54689.1	1055.82	-29743	0.000000	0.000000	6.058773	0.001121	NaN	0.000000	0.001626	0.001622	28.0826	0.047562	0.001957	24.2978	-25.7921	-165.607	0.028914	0.057170	-1.016459	-1.017737	0.001121	24.2978	-1.016494	-3.782450E+13	-2.964360E-17	NaN
1091	1.000000	0.066387	7.37572e+06	-54689.1	1055.82	-29743	0.000000	0.000000	6.066713	0.010585	NaN	0.000000	0.001635	0.001634	28.0828	0.041396	0.002054	20.1554	-20.9558	-163.994	0.015579	0.065108	-1.008520	-1.009799	0.010585	20.1554	-1.008914	-2.990613E+13	-3.539312E-16	NaN
1091	1.000000	0.074445	7.37572e+06	-54689.1	1055.82	-29743	0.000000	0.000000	6.074771	0.005482	NaN	0.000000	0.001627	0.001635	28.0827	0.092621	0.002006	46.1747	153.951	-165.719	0.013070	0.073094	-1.000462	-1.001812	0.005482	46.1747	-1.000551	-2.307745E+13	-2.375499E-16	NaN
1091	1.000000	0.082457	7.37572e+06	-54689.1	1055.82	-29743	0.000000	0.000000	6.082781	-0.038332	NaN	0.000000	0.001658	0.001617	28.083	0.019030	0.001912	9.951571	39.1529	-166.631	-0.008737	0.081132	-0.992450	-0.993774	-0.038332	9.951571	-0.989561	-1.641336E+13	2.335393E-15	NaN
1091	1.000000	0.090429	7.37572e+06	-54689.1	1055.82	-29743	0.000000	0.000000	6.090757	0.048835	NaN	0.000000	0.001628	0.001623	28.0827	0.051208	0.001954	26.2013	76.9954	-163.209	0.069912	0.089149	-0.984477	-0.985757	0.048835	26.2013	-0.985875	-1.464048E+13	-3.335613E-15	NaN
1091	1.000000	0.098473	7.37572e+06	-54689.1	1055.82	-29743	0.000000	0.000000	6.098798	-0.006052	NaN	0.000000	0.001651	0.001629	28.0829	0.061321	0.002036	30.1174	125.127	-164.985	-0.003247	0.097107	-0.976434	-0.977800	-0.006052	30.1174	-0.976283	-1.087261E+13	5.566571E-16	NaN
1091	1.000000	0.106437	7.37572e+06	-54689.1	1055.82	-29743	0.000000	0.000000	6.106760	-0.057841	NaN	0.000000	0.001665	0.001633	28.0828	0.030821	0.002017	15.2812	55.9163	-165.994	-0.087797	0.105139	-0.968470	-0.969767	-0.057841	15.2812	-0.965631	-7.812313E+12	7.403800E-15	NaN
1091	1.000000	0.114424	7.37572e+06	-54689.1	1055.82	-29743	0.000000	0.000000	6.114750	-0.015614	NaN	0.000000	0.001664	0.001626	28.0825	0.106725	0.002171	49.1697	145.432	-165.064	-0.084107	0.113137	-0.960482	-0.961769	-0.015614	49.1697	-0.960244	-6.609356E+12	2.362451E-15	NaN
1091	1.000000	0.122431	7.37572e+06	-54689.1	1055.82	-29743	0.000000	0.000000	6.122758	0.021922	NaN	0.000000	0.001654	0.001599	28.0832	0.048899	0.002051	23.8448	116.424	-163.964	-0.026390	0.121105	-0.952476	-0.953801	0.021922	23.8448	-0.953165	-5.305312E+12	-4.132016E-15	NaN
1091	1.000000	0.130441	7.37572e+06	-54689.1	1055.82	-29743	0.000000	0.000000	6.130767	0.001930	NaN	0.000000	0.001616	0.001648	28.0826	0.097273	0.001974	49.2716	-68.8857	-164.137	0.028138	0.129084	-0.944466	-0.945822	0.001930	49.2716	-0.944495	-4.053030E+12	-4.761365E-16	NaN
1091	1.000000	0.138467	7.37572e+06	-54689.1	1055.82	-29743	0.000000	0.000000	6.138792	-0.023336	NaN	0.000000	0.001637	0.001605	28.0829	0.049529	0.002009	24.6526	-125.766	-166.044	0.028686	0.137160	-0.936439	-0.937746	-0.023336	24.6526	-0.935729	-3.086847E+12	7.559830E-15	NaN
1091	1.000000	0.146445	7.37573e+06	-54689.1	1055.82	-29743	0.000000	0.000000	6.146768	-0.061482	NaN	0.000000	0.001650	0.001590	28.0826	0.006850	0.001945	3.521849	147.568	-164.459	0.008494	0.145204	-0.928462	-0.929702	-0.061482	3.521849	-0.915369	-1.639349E+12	3.750416E-14	NaN
1091	1.000000	0.154472	7.37573e+06	-54689.1	1055.82	-29743	0.000000	0.000000	6.154792	-0.125980	NaN	0.000000	0.001651	0.001615	28.0827	0.063008	0.001997	31.5464	-12.6842	-166.959	-0.093710	0.153151	-0.920435	-0.921756	-0.125980	31.5464	-0.917440	-1.748384E+12	7.205507E-14	NaN
1091	1.000000	0.162467	7.37573e+06	-54689.1	1055.82	-29743	0.000000	0.000000	6.162790	-0.052043	NaN	0.000000	0.001636	0.001626	28.0827	0.070102	0.002019	34.7201	178.904	-165.827	-0.055334	0.161137	-0.912440	-0.913770	-0.052043	34.7201	-0.911316	-1.445218E+12	3.601014E-14	NaN
1091	1.000000	0.170466	7.37573e+06	-54689.1	1055.82	-29743	0.000000	0.000000	6.170792	0.004209	NaN	0.000000	0.001622	0.001606	28.0827	0.120789	0.001973	61.2282	-104.196	-163.643	-0.004298	0.169176	-0.904440	-0.905731	0.004209	61.2282	-0.904492	-1.168845E+12	-3.600660E-15	NaN
1091	1.000000	0.178486	7.37573e+06	-54689.1	1055.82	-29743	0.000000	0.000000	6.178811	-0.039740	NaN	0.000000	0.001598	0.001617	28.0828	0.044751	0.001814	24.6762	129.849	-165.792	-0.082292	0.177142	-0.896420	-0.897764	-0.039740	24.6762	-0.895212	-8.757217E+11	4.537998E-14	NaN
1091	1.000000	0.186501	7.37573e+06	-54689.1	1055.82	-29743	0.000000	0.000000	6.186826	-0.003631	NaN	0.000000	0.001608	0.001650	28.0827	0.050562	0.001939	26.0698	109.896	-164.996	-0.018944	0.185122	-0.888406	-0.889785	-0.003631	26.0698	-0.888301	-7.062411E+11	5.140806E-15	NaN
1091	1.000000	0.194486	7.37573e+06	-54689.1	1055.82	-29743	0.000000	0.000000	6.194812	0.010710	NaN	0.000000	0.001649	0.001637	28.0841	0.092813	0.002024	45.8573	-141.459	-164.467	-0.012384	0.193149	-0.880421	-0.881758	0.010710	45.8573	-0.880596	-5.556074E+11	-1.927666E-14	NaN
1091	1.000000	0.202453	7.37573e+06	-54689.1	1055.82	-29743	0.000000	0.000000	6.202779	0.016256	NaN	0.000000	0.001661	0.001666	28.0839	0.006515	0.002044	3.187137	-133.945	-162.879	0.037370	0.201184	-0.872454	-0.873722	0.016256	3.187137	-0.876279	-4.857182E+11	-3.346826E-14	NaN
1091	1.000000	0.210505	7.37573e+06	-54689.1	1055.82	-29743	0.000000	0.000000	6.210830	-0.013835	NaN	0.000000	0.001631	0.001650	28.0841	0.057565	0.002041	28.2097	-37.8712	-164.874	-0.020361	0.209167	-0.864401	-0.865739	-0.013835	28.2097	-0.864034	-3.316746E+11	4.171123E-14	NaN
1091	1.000000	0.218480	7.37573e+06	-54689.1	1055.82	-29743	0.000000	0.000000	6.218808	0.047171	NaN	0.000000	0.001639	0.001636	28.0842	0.039626	0.002042	19.4076	54.5013	-164.266	0.046412	0.217154	-0.856426	-0.857752	0.047171	19.4076	-0.858249	-2.769621E+11	-1.703168E-13	NaN
1091	1.000000	0.226477	7.37573e+06	-54689.1	1055.82	-29743	0.000000	0.000000	6.226802	-0.021562	NaN	0.000000	0.001670	0.001621	28.0838	0.051043	0.001980	25.7773	-127.559	-164.693	-0.015256	0.225229	-0.848429	-0.849678	-0.021562	25.7773	-0.847802	-1.999739E+11	1.078218E-13	NaN
1091	1.000000	0.234495	7.37573e+06	-54689.1	1055.82	-29743	0.000000	0.000000	6.234821	0.015039	NaN	0.000000	0.001623	0.001602	28.0841	0.048989	0.001956	25.0468	6.017948	-165.34	0.011991	0.233154	-0.840412	-0.841752	0.015039	25.0468	-0.840862	-1.610539E+11	-9.337596E-14	NaN
1091	1.000000	0.242500	7.37573e+06	-54689.1	1055.82	-29743	0.000000	0.000000	6.242826	-0.010692	NaN	0.000000	0.001638	0.001612	28.0841	0.061773	0.002171	28.4539	43.9925	-168.309	-0.013017	0.241218	-0.832406	-0.833689	-0.010692	28.4539	-0.832124	-1.226242E+11	8.719152E-14	NaN
1091	1.000000	0.250492	7.37573e+06	-54689.1	1055.82	-29743	0.000000	0.000000	6.250814	-0.096047	NaN	0.000000	0.001638	0.001625	28.084	0.061917	0.001986	31.1764	-11.6732	-164.866	-0.089331	0.249166	-0.824414	-0.825740	-0.096047	31.1764	-0.822104	-8.968875E+10	1.070895E-12	NaN
1091	1.000000	0.258509	7.37573e+06	-54689.1	1055.82	-29743	0.000000	0.000000	6.258832	-0.047903	NaN	0.000000	0.001592	0.001623	28.0841	0.021273	0.001908	11.151	-104.801	-167.479	0.000224	0.257189	-0.816398	-0.817717	-0.047903	11.151	-0.813176	-6.786697E+10	7.058379E-13	NaN
1091	1.000000	0.266557	7.37573e+06	-54689.1	1055.82	-29743	0.000000	0.000000	6.266885	0.059997	NaN	0.000000	0.001563	0.001620	28.0837	0.058049	0.002218	26.1759	-140.282	-163.588	-0.052551	0.265190	-0.808350	-0.809716	0.059997	26.1759	-0.810069	-6.158885E+10	-9.741559E-13	NaN
1091	1.000000	0.274518	7.37573e+06	-54689.1	1055.82	-29743	0.000000	0.000000	6.274840	-0.101449	NaN	0.000000	0.001559	0.001611	28.0839	0.050151	0.002115	23.7139	-42.021	-164.36	-0.072183	0.273212	-0.800388	-0.801695	-0.101449	23.7139	-0.797179	-4.116926E+10	2.464201E-12	NaN
1091	1.000000	0.282522	7.37573e+06	-54689.1	1055.82	-29743	0.000000	0.000000	6.282847	-0.017817	NaN	0.000000	0.001573	0.001621	28.0836	0.057180	0.002035	28.0991	-154.433	-163.613	-0.003094	0.281186	-0.792385	-0.793720	-0.017817	28.0991	-0.791909	-3.491493E+10	5.102865E-13	NaN
1091	1.000000	0.290504	7.37573e+06	-54689.1	1055.82	-29743	0.000000	0.000000	6.290830	-0.013859	NaN	0.000000	0.001639	0.001636	28.0839	0.028861	0.002099	13.7483	34.4374	-164.27	0.043159	0.289222	-0.784402	-0.785685	-0.013859	13.7483	-0.783646	-2.696328E+10	5.139972E-13	NaN
1091	1.000000	0.298523	7.37573e+06	-54689.1	1055.82	-29743	0.000000	0.000000	6.298847	-0.049246	NaN	0.000000	0.001642	0.001641	28.0837	0.106442	0.001904	55.8961	-52.6797	-165.569	-0.042592	0.297277	-0.776384	-0.777630	-0.049246	55.8961	-0.775723	-2.104289E+10	2.340249E-12	NaN
1091	1.000000	0.306528	7.37573e+06	-54689.1	1055.82	-29743	0.000000	0.000000	6.306854	0.004226	NaN	0.000000	0.001652	0.001652	28.0837	0.118103	0.001891	62.4692	-63.7335	-166.517	-0.114000	0.305233	-0.768378	-0.769673	0.004226	62.4692	-0.768429	-1.674717E+10	-2.523606E-13	NaN
1091	1.000000	0.314556	7.37573e+06	-54689.1	1055.82	-29743	0.000000	0.000000	6.314884	0.052300	NaN	0.000000	0.001634	0.001637	28.0841	0.069487	0.001965	35.37	144.625	-161.774	-0.004210	0.313205	-0.760351	-0.761702	0.052300	35.37	-0.761460	-1.346357E+10	-3.884530E-12	NaN
1091	1.000000	0.322540	7.37573e+06	-54689.1	1055.82	-29743	0.000000	0.000000	6.322863	-0.075847	NaN	0.000000	0.001646	0.001607	28.0839	0.046070	0.002065	22.3077	19.2749	-166.727	-0.050395	0.321212	-0.752366	-0.753695	-0.075847	22.3077	-0.749816	-9.348027E+9	8.113714E-12	NaN
1091	1.000000	0.330534	7.37573e+06	-54689.1	1055.82	-29743	0.000000	0.000000	6.330862	0.053660	NaN	0.000000	0.001650	0.001609	28.0826	0.028995	0.001950	14.8691	8.849946	-167.847	0.008434	0.329196	-0.744373	-0.745711	0.053660	14.8691	-0.747080	-8.579510E+9	-6.254423E-12	NaN
1091	1.000000	0.338512	7.37573e+06	-54689.1	1055.82	-29743	0.000000	0.000000	6.338839	0.019425	NaN	0.000000	0.001631	0.001573	28.0825	0.195308	0.002075	94.1427	68.0659	-166.918	-0.028779	0.337226	-0.736395	-0.737681	0.019425	94.1427	-0.736549	-6.166671E+9	-3.150067E-12	NaN
1091	1.000000	0.346545	7.37573e+06	-54689.1	1055.82	-29743	0.000000	0.000000	6.346872	0.018376	NaN	0.000000	0.001653	0.001635	28.0825	0.101331	0.001904	53.2229	-35.4801	-167.624	-0.031221	0.345233	-0.728361	-0.729674	0.018376	53.2229	-0.728620	-4.808435E+9	-3.821688E-12	NaN
1091	1.000000	0.354554	7.37573e+06	-54689.1	1055.82	-29743	0.000000	0.000000	6.354881	0.036362	NaN	0.000000	0.001655	0.001637	28.0826	0.025163	0.001858	13.5439	-117.979	-164.892	-0.031677	0.353241	-0.720353	-0.721665	0.036362	13.5439	-0.722366	-3.951316E+9	-9.202598E-12	NaN
1091	1.000000	0.362565	7.37573e+06	-54689.1	1055.82	-29743	0.000000	0.000000	6.362890	-0.007293	NaN	0.000000	0.001698	0.001618	28.0824	0.117451	0.001958	59.9988	100.215	-166.27	-0.037949	0.361249	-0.712342	-0.713658	-0.007293	59.9988	-0.712251	-2.875802E+9	2.536038E-12	NaN
1091	1.000000	0.370565	7.37573e+06	-54689.1	1055.82	-29743	0.000000	0.000000	6.370892	0.022665	NaN	0.000000	0.001623	0.001622	28.0828	0.018687	0.002033	9.192400	131.066	-168.279	0.046772	0.369212	-0.704341	-0.705694	0.022665	9.192400	-0.706191	-2.377133E+9	-9.534639E-12	NaN
1091	1.000000	0.378565	7.37573e+06	-54689.1	1055.82	-29743	0.000000	0.000000	6.378889	-0.051972	NaN	0.000000	0.001618	0.001615	28.0827	0.065001	0.001981	32.8192	-3.364022	-166.407	0.041235	0.377234	-0.696342	-0.697672	-0.051972	32.8192	-0.695154	-1.680117E+9	3.093370E-11	NaN
1091	1.000000	0.386540	7.37573e+06	-54689.1	1055.82	-29743	0.000000	0.000000	6.386863	-0.060802	NaN	0.000000	0.001626	0.001631	28.0828	0.103217	0.002046	50.4521	-2.765968	-165.308	-0.076880	0.385261	-0.688367	-0.689645	-0.060802	50.4521	-0.687463	-1.318998E+9	4.609712E-11	NaN
1091	1.000000	0.394562	7.37573e+06	-54689.1	1055.82	-29743	0.000000	0.000000	6.394889	0.028915	NaN	0.000000	0.001670	0.001629	28.0828	0.173145	0.002101	82.4031	157.646	-164.528	-0.001720	0.393229	-0.680344	-0.681678	0.028915	82.4031	-0.680608	-1.062958E+9	-2.720209E-11	NaN
1091	1.000000	0.402556	7.37573e+06	-54689.1	1055.82	-29743	0.000000	0.000000	6.402881	0.000934	NaN	0.000000	0.001674	0.001670	28.0829	0.103820	0.001906	54.4727	-123.953	-166.96	-0.034516	0.401301	-0.672351	-0.673605	0.000934	54.4727	-0.672364	-8.198615E+8	-1.139498E-12	NaN
1091	1.000000	0.410594	7.37573e+06	-54689.1	1055.82	-29743	0.000000	0.000000	6.410917	-0.083686	NaN	0.000000	0.001608	0.001618	28.0829	0.069241	0.001869	37.0397	-115.377	-165.972	-0.031928	0.409292	-0.664312	-0.665614	-0.083686	37.0397	-0.662618	-6.030020E+8	1.387822E-10	NaN
1091	1.000000	0.418566	7.37573e+06	-54689.1	1055.82	-29743	0.000000	0.000000	6.418890	-0.027840	NaN	0.000000	0.001573	0.001628	28.0826	0.070656	0.001824	38.7281	-124.744	-166.167	-0.037718	0.417255	-0.656341	-0.657651	-0.027840	38.7281	-0.655802	-4.863541E+8	5.724276E-11	NaN
1091	1.000000	0.426567	7.37573e+06	-54689.1	1055.82	-29743	0.000000	0.000000	6.426892	-0.031607	NaN	0.000000	0.001595	0.001601	28.0826	0.118578	0.002127	55.7456	-70.2201	-165.705	-0.051122	0.425292	-0.648339	-0.649615	-0.031607	55.7456	-0.647914	-3.791756E+8	8.335630E-11	NaN
1091	1.000000	0.434557	7.37573e+06	-54689.1	1055.82	-29743	0.000000	0.000000	6.434881	-0.044685	NaN	0.000000	0.001622	0.001606	28.0825	0.032014	0.001956	16.3656	14.2289	-165.448	-0.034411	0.433248	-0.640349	-0.641658	-0.044685	16.3656	-0.638301	-2.798872E+8	1.596528E-10	NaN
1091	1.000000	0.442587	7.37573e+06	-54689.1	1055.82	-29743	0.000000	0.000000	6.442910	-0.061454	NaN	0.000000	0.001605	0.001589	28.0826	0.071769	0.001968	36.4771	82.6765	-165.169	-0.174329	0.441284	-0.632319	-0.633623	-0.061454	36.4771	-0.631056	-2.225990E+8	2.760769E-10	NaN
1091	1.000000	0.450582	7.37573e+06	-54689.1	1055.82	-29743	0.000000	0.000000	6.450908	0.010288	NaN	0.000000	0.001625	0.001616	28.0828	0.050694	0.002081	24.3566	-144.628	-163.399	-0.017850	0.449255	-0.624325	-0.625652	0.010288	24.3566	-0.624642	-1.817277E+8	-5.661489E-11	NaN
1091	1.000000	0.458617	7.37573e+06	-54689.1	1055.82	-29743	0.000000	0.000000	6.458944	0.019255	NaN	0.000000	0.001642	0.001606	28.0826	0.042567	0.001984	21.4594	157.704	-165.803	0.001342	0.457316	-0.616289	-0.617590	0.019255	21.4594	-0.616962	-1.425189E+8	-1.351029E-10	NaN
1091	1.000000	0.466610	7.37573e+06	-54689.1	1055.82	-29743	0.000000	0.000000	6.466934	-0.047041	NaN	0.000000	0.001635	0.001634	28.0839	0.049142	0.001984	24.7643	-17.8626	-162.82	0.028204	0.465311	-0.608296	-0.609596	-0.047041	24.7643	-0.606871	-1.035293E+8	4.543690E-10	NaN
1091	1.000000	0.474595	7.37573e+06	-54689.1	1055.82	-29743	0.000000	0.000000	6.474922	0.030089	NaN	0.000000	0.001664	0.001626	28.0836	0.031060	0.002080	14.9355	-17.1304	-166.959	0.052558	0.473320	-0.600312	-0.601587	0.030089	14.9355	-0.601823	-8.821837E+7	-3.410791E-10	NaN
1091	1.000000	0.482619	7.37573e+06	-54689.1	1055.82	-29743	0.000000	0.000000	6.482943	-0.053909	NaN	0.000000	0.001634	0.001643	28.0837	0.049050	0.001888	25.9856	-127.552	-166.474	-0.050179	0.481290	-0.592287	-0.593617	-0.053909	25.9856	-0.590731	-6.205078E+7	8.687917E-10	NaN
1091	1.000000	0.490623	7.37573e+06	-54689.1	1055.82	-29743	0.000000	0.000000	6.490949	-0.007522	NaN	0.000000	0.001633	0.001633	28.0836	0.145737	0.002111	69.0285	167.449	-163.773	-0.092135	0.489314	-0.584283	-0.585593	-0.007522	69.0285	-0.584201	-5.043102E+7	1.491447E-10	NaN
1091	1.000000	0.498617	7.37573e+06	-54689.1	1055.82	-29743	0.000000	0.000000	6.498944	0.022314	NaN	0.000000	0.001574	0.001607	28.0838	0.012221	0.001999	6.114586	-96.7138	-168.006	0.070817	0.497281	-0.576289	-0.577625	0.022314	6.114586	-0.579026	-4.278449E+7	-5.215388E-10	NaN
1091	1.000000	0.506632	7.37573e+06	-54689.1	1055.82	-29743	0.000000	0.000000	6.506957	-0.017714	NaN	0.000000	0.001561	0.001612	28.0838	0.089597	0.002002	44.7631	-77.5237	-164.588	0.020442	0.505311	-0.568274	-0.569595	-0.017714	44.7631	-0.567977	-3.010799E+7	5.883421E-10	NaN
1091	1.000000	0.514617	7.37573e+06	-54689.1	1055.82	-29743	0.000000	0.000000	6.514944	0.027928	NaN	0.000000	0.001562	0.001595	28.0835	0.053125	0.002035	26.1061	142.42	-167.814	0.051932	0.513304	-0.560290	-0.561602	0.027928	26.1061	-0.561092	-2.418170E+7	-1.154926E-9	NaN
1091	1.000000	0.522632	7.37573e+06	-54689.1	1055.82	-29743	0.000000	0.000000	6.522958	0.005063	NaN	0.000000	0.001553	0.001598	28.0838	0.087896	0.001972	44.5789	159.364	-165.444	0.079740	0.521308	-0.552275	-0.553599	0.005063	44.5789	-0.552360	-1.830788E+7	-2.765214E-10	NaN
1091	1.000000	0.530654	7.37573e+06	-54689.1	1055.82	-29743	0.000000	0.000000	6.530980	0.001381	NaN	0.000000	0.001531	0.001639	28.0835	0.101570	0.001888	53.7941	-155.268	-164.056	0.008937	0.529319	-0.544253	-0.545587	0.001381	53.7941	-0.544272	-1.414456E+7	-9.764793E-11	NaN
1091	1.000000	0.538652	7.37573e+06	-54689.1	1055.82	-29743	0.000000	0.000000	6.538978	0.013308	NaN	0.000000	0.001566	0.001643	28.0834	0.063977	0.001995	32.066	27.3727	-166.424	0.066408	0.537326	-0.536255	-0.537581	0.013308	32.066	-0.536566	-1.105922E+7	-1.203353E-9	NaN
1091	1.000000	0.546632	7.37573e+06	-54689.1	1055.82	-29743	0.000000	0.000000	6.546960	0.042156	NaN	0.000000	0.001605	0.001616	28.0837	0.023119	0.002014	11.4766	-171.908	-166.83	0.049620	0.545332	-0.528274	-0.529574	0.042156	11.4766	-0.531029	-9.26541e+06	-4.549800E-9	NaN
1091	1.000000	0.554624	7.37573e+06	-54689.1	1055.82	-29743	0.000000	0.000000	6.554950	-0.004167	NaN	0.000000	0.001572	0.001632	28.0834	0.071826	0.002035	35.2883	-176.362	-166.995	-0.033632	0.553377	-0.520282	-0.521530	-0.004167	35.2883	-0.520194	-6.55076e+06	6.360699E-10	NaN
1091	1.000000	0.562615	7.37573e+06	-54689.1	1055.82	-29743	0.000000	0.000000	6.562939	-0.051917	NaN	0.000000	0.001594	0.001606	28.084	0.061179	0.002019	30.2982	62.916	-164.018	-0.055319	0.561261	-0.512292	-0.513646	-0.051917	30.2982	-0.511006	-4.88015e+06	1.063838E-8	NaN
1091	1.000000	0.570664	7.37573e+06	-54689.1	1055.82	-29743	0.000000	0.000000	6.570990	-0.004361	NaN	0.000000	0.001603	0.001610	28.0837	0.109805	0.002008	54.6819	-80.7883	-166.147	-0.009005	0.569332	-0.504242	-0.505574	-0.004361	54.6819	-0.504182	-3.92052e+06	1.112380E-9	NaN
1091	1.000000	0.578629	7.37573e+06	-54689.1	1055.82	-29743	0.000000	0.000000	6.578956	0.041013	NaN	0.000000	0.001608	0.001588	28.0838	0.075207	0.002026	37.1142	142.451	-164.659	0.094097	0.577341	-0.496278	-0.497565	0.041013	37.1142	-0.497106	-3.12348e+06	-1.313049E-8	NaN
1091	1.000000	0.586639	7.37573e+06	-54689.1	1055.82	-29743	0.000000	0.000000	6.586964	-0.029184	NaN	0.000000	0.001647	0.001600	28.0837	0.071270	0.001940	36.7407	-19.2707	-167.15	-0.024733	0.585361	-0.488267	-0.489545	-0.029184	36.7407	-0.487671	-2.30593e+06	1.265586E-8	NaN
1091	1.000000	0.594625	7.37573e+06	-54689.1	1055.82	-29743	0.000000	0.000000	6.594950	-0.032307	NaN	0.000000	0.001603	0.001629	28.0837	0.072186	0.002138	33.7558	73.8568	-162.885	0.029843	0.593406	-0.480281	-0.481501	-0.032307	33.7558	-0.479564	-1.7759e+06	1.819176E-8	NaN
1091	1.000000	0.602655	7.37573e+06	-54689.1	1055.82	-29743	0.000000	0.000000	6.602980	-0.027060	NaN	0.000000	0.001648	0.001570	28.0828	0.027249	0.002031	13.4138	-94.936	-166.216	0.002622	0.601341	-0.472252	-0.473565	-0.027060	13.4138	-0.470739	-1.33588e+06	2.025630E-8	NaN
1091	1.000000	0.610687	7.37573e+06	-54689.1	1055.82	-29743	0.000000	0.000000	6.611012	-0.007623	NaN	0.000000	0.001630	0.001622	28.0824	0.022183	0.002047	10.8376	-143.642	-167.913	-0.075992	0.609320	-0.464220	-0.465587	-0.007623	10.8376	-0.463692	-1.06387e+06	7.165047E-9	NaN
1091	1.000000	0.618666	7.37573e+06	-54689.1	1055.82	-29743	0.000000	0.000000	6.618989	-0.060818	NaN	0.000000	0.001645	0.001614	28.0825	0.016072	0.002132	7.539555	-125.57	-163.678	-0.010817	0.617315	-0.456241	-0.457592	-0.060818	7.539555	-0.450191	-687119	8.851103E-8	NaN
1091	1.000000	0.626636	7.37573e+06	-54689.1	1055.82	-29743	0.000000	0.000000	6.626960	-0.044173	NaN	0.000000	0.001625	0.001620	28.0825	0.027651	0.001970	14.0346	-47.0146	-164.409	0.032002	0.625329	-0.448271	-0.449577	-0.044173	14.0346	-0.445910	-598030	7.386350E-8	NaN
1091	1.000000	0.634676	7.37573e+06	-54689.1	1055.82	-29743	0.000000	0.000000	6.635003	0.026650	NaN	0.000000	0.001625	0.001585	28.0824	0.049251	0.001988	24.7688	117.292	-162.144	-0.032141	0.633399	-0.440231	-0.441507	0.026650	24.7688	-0.441038	-510512	-5.220224E-8	NaN
1091	1.000000	0.642661	7.37573e+06	-54689.1	1055.82	-29743	0.000000	0.000000	6.642986	-0.030477	NaN	0.000000	0.001630	0.001561	28.0828	0.056189	0.001891	29.7171	-55.2559	-165.533	-0.090493	0.641337	-0.432245	-0.433570	-0.030477	29.7171	-0.431476	-374058	8.147723E-8	NaN
1091	1.000000	0.650642	7.37573e+06	-54689.1	1055.82	-29743	0.000000	0.000000	6.650967	-0.010323	NaN	0.000000	0.001639	0.001561	28.0824	0.093603	0.001955	47.8887	-91.9994	-165.668	-0.067370	0.649427	-0.424265	-0.425480	-0.010323	47.8887	-0.424103	-294156	3.509506E-8	NaN
1091	1.000000	0.658679	7.37573e+06	-54689.1	1055.82	-29743	0.000000	0.000000	6.659004	-0.020016	NaN	0.000000	0.001676	0.001618	28.0832	0.066869	0.001884	35.4883	152.037	-164.324	0.017924	0.657416	-0.416228	-0.417490	-0.020016	35.4883	-0.415805	-224328	8.922523E-8	NaN
1091	1.000000	0.666706	7.37573e+06	-54689.1	1055.82	-29743	0.000000	0.000000	6.667031	-0.024841	NaN	0.000000	0.001648	0.001640	28.0825	0.026454	0.001995	13.2608	17.9912	-163.502	0.050647	0.665361	-0.408200	-0.409545	-0.024841	13.2608	-0.406796	-167036	1.487170E-7	NaN
1091	1.000000	0.674681	7.37573e+06	-54689.1	1055.82	-29743	0.000000	0.000000	6.675005	-0.038698	NaN	0.000000	0.001656	0.001628	28.0823	0.077718	0.002187	35.5299	-87.9067	-165.696	-0.033773	0.673392	-0.400225	-0.401515	-0.038698	35.5299	-0.399409	-131087	2.952090E-7	NaN
1091	1.000000	0.682708	7.37573e+06	-54689.1	1055.82	-29743	0.000000	0.000000	6.683031	-0.077010	NaN	0.000000	0.001646	0.001625	28.0825	0.160120	0.001959	81.7407	-127.798	-166.251	-0.017233	0.681375	-0.392199	-0.393531	-0.077010	81.7407	-0.391492	-101042	7.621590E-7	NaN
1091	1.000000	0.690691	7.37573e+06	-54689.1	1055.82	-29743	0.000000	0.000000	6.691016	-0.005051	NaN	0.000000	0.001611	0.001664	28.0825	0.058567	0.002031	28.8432	-85.1429	-164.577	-0.050893	0.689354	-0.384216	-0.385553	-0.005051	28.8432	-0.384085	-79153.4	6.381502E-8	NaN
1091	1.000000	0.698690	7.37573e+06	-54689.1	1055.82	-29743	0.000000	0.000000	6.699018	0.044145	NaN	0.000000	0.001637	0.001655	28.0828	0.141298	0.001986	71.1413	-125.166	-165.013	0.064203	0.697427	-0.376216	-0.377479	0.044145	71.1413	-0.376681	-61977.8	-7.122760E-7	NaN
1091	1.000000	0.706704	7.37573e+06	-54689.1	1055.82	-29743	0.000000	0.000000	6.707029	-0.017250	NaN	0.000000	0.001608	0.001615	28.0829	0.081595	0.002066	39.5032	31.4437	-167.144	0.023281	0.705394	-0.368202	-0.369512	-0.017250	39.5032	-0.367875	-46292.6	3.726248E-7	NaN
1091	1.000000	0.714687	7.37573e+06	-54689.1	1055.82	-29743	0.000000	0.000000	6.715011	-0.032145	NaN	0.000000	0.001609	0.001651	28.0827	0.041065	0.001983	20.705	-174.374	-163.254	-0.034287	0.713363	-0.360220	-0.361543	-0.032145	20.705	-0.359055	-34529.2	9.309593E-7	NaN
1091	1.000000	0.722704	7.37573e+06	-54689.1	1055.82	-29743	0.000000	0.000000	6.723029	-0.012805	NaN	0.000000	0.001630	0.001619	28.0828	0.052349	0.002032	25.7671	-71.9591	-166.484	0.022216	0.721373	-0.352203	-0.353533	-0.012805	25.7671	-0.351830	-27136.6	4.718751E-7	NaN
1091	1.000000	0.730690	7.37573e+06	-54689.1	1055.82	-29743	0.000000	0.000000	6.731017	0.016037	NaN	0.000000	0.001616	0.001606	28.0827	0.073051	0.002009	36.3562	123.549	-166.047	-0.013015	0.729387	-0.344216	-0.345520	0.016037	36.3562	-0.344547	-21269.9	-7.539745E-7	NaN
1091	1.000000	0.738721	7.37573e+06	-54689.1	1055.82	-29743	0.000000	0.000000	6.739047	0.016848	NaN	0.000000	0.001600	0.001613	28.0841	0.073331	0.002126	34.4979	27.1976	-165.725	0.074367	0.737400	-0.336186	-0.337507	0.016848	34.4979	-0.336552	-16265	-1.035825E-6	NaN
1091	1.000000	0.746703	7.37573e+06	-54689.1	1055.82	-29743	0.000000	0.000000	6.747027	-0.044617	NaN	0.000000	0.001615	0.001598	28.0838	0.029459	0.002030	14.5111	89.9184	-166.081	-0.161361	0.745412	-0.328204	-0.329495	-0.044617	14.5111	-0.325898	-11358.3	3.928188E-6	NaN
1091	1.000000	0.754708	7.37573e+06	-54689.1	1055.82	-29743	0.000000	0.000000	6.755032	-0.041570	NaN	0.000000	0.001651	0.001603	28.0838	0.123627	0.001913	64.6232	125.984	-166.049	-0.051133	0.753451	-0.320199	-0.321456	-0.041570	64.6232	-0.319716	-9214.28	4.511505E-6	NaN
1091	1.000000	0.762727	7.37573e+06	-54689.1	1055.82	-29743	0.000000	0.000000	6.763053	0.004695	NaN	0.000000	0.001559	0.001589	28.0837	0.017606	0.001975	8.916569	55.9474	-160.385	-0.032760	0.761360	-0.312179	-0.313546	0.004695	8.916569	-0.312574	-7229.8	-6.493828E-7	NaN
1091	1.000000	0.770729	7.37573e+06	-54689.1	1055.82	-29743	0.000000	0.000000	6.771055	-0.005619	NaN	0.000000	0.001552	0.001609	28.0837	0.095363	0.002031	46.9648	-87.0278	-163.304	-0.002550	0.769427	-0.304177	-0.305480	-0.005619	46.9648	-0.304087	-5412.62	1.038055E-6	NaN
1091	1.000000	0.778723	7.37573e+06	-54689.1	1055.82	-29743	0.000000	0.000000	6.779051	0.053530	NaN	0.000000	0.001565	0.001635	28.0838	0.140228	0.001948	71.9925	-136.348	-163.206	0.017770	0.777428	-0.296184	-0.297478	0.053530	71.9925	-0.296742	-4208.04	-1.272082E-5	NaN
1091	1.000000	0.786742	7.37573e+06	-54689.1	1055.82	-29743	0.000000	0.000000	6.787070	0.035502	NaN	0.000000	0.001569	0.001646	28.0836	0.073436	0.001946	37.732	75.5242	-160.508	0.000180	0.785395	-0.288164	-0.289512	0.035502	37.732	-0.288870	-3208.95	-1.106356E-5	NaN
1091	1.000000	0.794727	7.37573e+06	-54689.1	1055.82	-29743	0.000000	0.000000	6.795055	0.051173	NaN	0.000000	0.001552	0.001613	28.0839	0.063215	0.002043	30.9443	103.925	-167.371	0.122363	0.793401	-0.280180	-0.281506	0.051173	30.9443	-0.281420	-2479.59	-2.063770E-5	NaN
1091	1.000000	0.802717	7.37573e+06	-54689.1	1055.82	-29743	0.000000	0.000000	6.803044	0.031857	NaN	0.000000	0.001549	0.001619	28.0838	0.092462	0.002037	45.3918	-100.927	-168.901	0.039367	0.801395	-0.272189	-0.273512	0.031857	45.3918	-0.272716	-1831.4	-1.739513E-5	NaN
1091	1.000000	0.810731	7.37573e+06	-54689.1	1055.82	-29743	0.000000	0.000000	6.811057	0.003138	NaN	0.000000	0.001553	0.001625	28.0839	0.084384	0.001999	42.2059	64.1226	-164.813	0.005168	0.809430	-0.264175	-0.265476	0.003138	42.2059	-0.264231	-1360.33	-2.306445E-6	NaN
1091	1.000000	0.818742	7.37573e+06	-54689.1	1055.82	-29743	0.000000	0.000000	6.819068	0.003890	NaN	0.000000	0.001542	0.001596	28.0837	0.086245	0.002042	42.2288	-48.1295	-165.614	-0.011444	0.817435	-0.256165	-0.257472	0.003890	42.2288	-0.256234	-1025.9	-3.792219E-6	NaN
1091	1.000000	0.826727	7.37573e+06	-54689.1	1055.82	-29743	0.000000	0.000000	6.827052	-0.026893	NaN	0.000000	0.001584	0.001587	28.0838	0.048081	0.001933	24.8761	95.6556	-166.16	-0.017176	0.825443	-0.248180	-0.249464	-0.026893	24.8761	-0.247369	-748.55	3.592667E-5	NaN
1091	1.000000	0.834762	7.37573e+06	-54689.1	1055.82	-29743	0.000000	0.000000	6.835084	-0.090384	NaN	0.000000	0.001622	0.001598	28.0841	0.009872	0.001902	5.189966	54.1193	-167.221	-0.036194	0.833490	-0.240144	-0.241416	-0.090384	5.189966	-0.227083	-360.063	0.000251	NaN
1091	1.000000	0.842762	7.37573e+06	-54689.1	1055.82	-29743	0.000000	0.000000	6.843088	-0.013831	NaN	0.000000	0.001647	0.001613	28.0839	0.054729	0.002038	26.8483	-178.045	-165.651	-0.085133	0.841419	-0.232144	-0.233488	-0.013831	26.8483	-0.231758	-426.822	3.240400E-5	NaN
1091	1.000000	0.850747	7.37573e+06	-54689.1	1055.82	-29743	0.000000	0.000000	6.851075	0.050887	NaN	0.000000	0.001604	0.001667	28.0842	0.094385	0.002004	47.0967	136.885	-166.955	-0.009854	0.849407	-0.224159	-0.225499	0.050887	47.0967	-0.224970	-333.313	-0.000153	NaN
1091	1.000000	0.858751	7.37573e+06	-54689.1	1055.82	-29743	0.000000	0.000000	6.859078	0.039293	NaN	0.000000	0.001602	0.001664	28.0838	0.110931	0.001985	55.8813	79.8525	-168.087	-0.015130	0.857463	-0.216156	-0.217443	0.039293	55.8813	-0.216683	-245.785	-0.000160	NaN
1091	1.000000	0.866763	7.37573e+06	-54689.1	1055.82	-29743	0.000000	0.000000	6.867088	-0.017553	NaN	0.000000	0.001633	0.001578	28.0838	0.082496	0.001996	41.3323	-62.1918	-166.82	-0.043983	0.865391	-0.208143	-0.209516	-0.017553	41.3323	-0.207825	-176.823	9.926606E-5	NaN
1091	1.000000	0.874775	7.37573e+06	-54689.1	1055.82	-29743	0.000000	0.000000	6.875098	-0.090433	NaN	0.000000	0.001601	0.001626	28.0827	0.086869	0.001884	46.1026	-118.177	-165.545	-0.088083	0.873454	-0.200131	-0.201453	-0.090433	46.1026	-0.198660	-125.214	0.000722	NaN
1091	1.000000	0.882788	7.37573e+06	-54689.1	1055.82	-29743	0.000000	0.000000	6.883114	0.007442	NaN	0.000000	0.001606	0.001630	28.0825	0.075572	0.002101	35.9633	74.5677	-167.96	0.018465	0.881417	-0.192119	-0.193489	0.007442	35.9633	-0.192274	-98.1621	-7.581827E-5	NaN
1091	1.000000	0.890770	7.37573e+06	-54689.1	1055.82	-29743	0.000000	0.000000	6.891094	-0.050035	NaN	0.000000	0.001580	0.001648	28.0827	0.026590	0.001999	13.2983	172.11	-163.385	-0.078118	0.889432	-0.184137	-0.185474	-0.050035	13.2983	-0.181315	-64.2403	0.000779	NaN
1091	1.000000	0.898755	7.37573e+06	-54689.1	1055.82	-29743	0.000000	0.000000	6.899079	-0.060806	NaN	0.000000	0.001610	0.001615	28.0824	0.039231	0.002040	19.2295	-36.845	-166.768	-0.031924	0.897480	-0.176151	-0.177426	-0.060806	19.2295	-0.173780	-47.7511	0.001273	NaN
1091	1.000000	0.906795	7.37573e+06	-54689.1	1055.82	-29743	0.000000	0.000000	6.907117	-0.080442	NaN	0.000000	0.001601	0.001627	28.0826	0.040217	0.001867	21.5435	-31.8775	-165.597	0.048311	0.905463	-0.168112	-0.169444	-0.080442	21.5435	-0.165312	-34.0231	0.002364	NaN
1091	1.000000	0.914771	7.37573e+06	-54689.1	1055.82	-29743	0.000000	0.000000	6.915094	-0.058221	NaN	0.000000	0.001630	0.001638	28.0827	0.039745	0.001971	20.163	23.0807	-164.881	-0.043582	0.913446	-0.160136	-0.161461	-0.058221	20.163	-0.157970	-25.2245	0.002308	NaN
1091	1.000000	0.922777	7.37573e+06	-54689.1	1055.82	-29743	0.000000	0.000000	6.923100	-0.056788	NaN	0.000000	0.001591	0.001656	28.0828	0.054365	0.002071	26.255	132.527	-163.711	-0.016369	0.921463	-0.152130	-0.153444	-0.056788	26.255	-0.150508	-18.5037	0.003069	NaN
1091	1.000000	0.930782	7.37573e+06	-54689.1	1055.82	-29743	0.000000	0.000000	6.931106	-0.043785	NaN	0.000000	0.001642	0.001615	28.0826	0.081010	0.002000	40.5019	161.808	-164.897	0.031577	0.929473	-0.144124	-0.145434	-0.043785	40.5019	-0.143313	-13.6422	0.003210	NaN
1091	1.000000	0.938805	7.37573e+06	-54689.1	1055.82	-29743	0.000000	0.000000	6.939125	-0.133619	NaN	0.000000	0.001591	0.001597	28.0824	0.111044	0.001986	55.9209	122.528	-164.008	-0.009002	0.937517	-0.136102	-0.137389	-0.133619	55.9209	-0.134310	-9.227761	0.014480	NaN
1091	1.000000	0.946778	7.37573e+06	-54689.1	1055.82	-29743	0.000000	0.000000	6.947099	-0.119332	NaN	0.000000	0.001587	0.001641	28.0825	0.156659	0.001959	79.989	-23.1863	-163.267	-0.014006	0.945446	-0.128128	-0.129460	-0.119332	79.989	-0.127009	-6.661914	0.017913	NaN
1091	1.000000	0.954811	7.37573e+06	-54689.1	1055.82	-29743	0.000000	0.000000	6.955135	-0.065921	NaN	0.000000	0.001612	0.001598	28.0826	0.114748	0.002024	56.6819	-172.888	-165.749	-0.017371	0.953439	-0.120095	-0.121468	-0.065921	56.6819	-0.119223	-4.659840	0.014147	NaN
1091	1.000000	0.962802	7.37573e+06	-54689.1	1055.82	-29743	0.000000	0.000000	6.963130	0.034207	NaN	0.000000	0.001631	0.001602	28.0825	0.054325	0.001991	27.286	-33.8495	-165.765	0.017721	0.961485	-0.112104	-0.113422	0.034207	27.286	-0.113044	-3.480286	-0.009829	NaN
1091	1.000000	0.970816	7.37573e+06	-54689.1	1055.82	-29743	0.000000	0.000000	6.971139	-0.068689	NaN	0.000000	0.001630	0.001665	28.0827	0.043216	0.001894	22.8119	-178.176	-163.894	-0.070394	0.969531	-0.104091	-0.105375	-0.068689	22.8119	-0.101832	-2.005375	0.034252	NaN
1091	1.000000	0.978820	7.37573e+06	-54689.1	1055.82	-29743	0.000000	0.000000	6.979144	-0.042329	NaN	0.000000	0.001655	0.001619	28.0825	0.028104	0.002023	13.8934	-174.365	-167.829	-0.069568	0.977512	-0.096086	-0.097395	-0.042329	13.8934	-0.093801	-1.324364	0.031962	NaN
1091	1.000000	0.986833	7.37573e+06	-54689.1	1055.82	-29743	0.000000	0.000000	6.987156	-0.062705	NaN	0.000000	0.001680	0.001597	28.0824	0.053485	0.001974	27.0908	65.7002	-166.765	-0.050966	0.985527	-0.088074	-0.089380	-0.062705	27.0908	-0.086338	-0.884942	0.070858	NaN
1091	1.000000	0.994820	7.37573e+06	-54689.1	1055.82	-29743	0.000000	0.000000	6.995145	-0.008662	NaN	0.000000	0.001648	0.001629	28.0828	0.008103	0.001947	4.161737	18.3402	-164.378	0.023214	0.993521	-0.080087	-0.081386	-0.008662	4.161737	-0.078526	-0.568389	0.015239	NaN
1091	1.000000	1.002842	7.37573e+06	-54689.1	1055.82	-29743	0.000000	0.000000	7.003167	-0.017845	NaN	0.000000	0.001681	0.001628	28.0828	0.069724	0.001969	35.412	173.526	-164.501	-0.070814	1.001536	-0.072064	-0.073371	-0.017845	35.412	-0.071687	-0.378272	0.047176	NaN
1091	1.000000	1.010823	7.37573e+06	-54689.1	1055.82	-29743	0.000000	0.000000	7.011148	-0.013218	NaN	0.000000	0.001661	0.001578	28.0836	0.017258	0.001991	8.668940	170.904	-165.369	0.064579	1.009505	-0.064084	-0.065401	-0.013218	8.668940	-0.062940	-0.218292	0.060553	NaN
1091	1.000000	1.018815	7.37573e+06	-54689.1	1055.82	-29743	0.000000	0.000000	7.019138	-0.050497	NaN	0.000000	0.001643	0.001609	28.0839	0.072446	0.001904	38.0415	-46.4808	-162.526	-0.064676	1.017497	-0.056092	-0.057409	-0.050497	38.0415	-0.055096	-0.129626	0.389559	NaN
1091	1.000000	1.026851	7.37573e+06	-54689.1	1055.82	-29743	0.000000	0.000000	7.027177	0.026318	NaN	0.000000	0.001617	0.001611	28.0838	0.097659	0.002138	45.6708	-155.383	-164.773	0.000655	1.025536	-0.048056	-0.049370	0.026318	45.6708	-0.048488	-0.082110	-0.320516	NaN
1091	1.000000	1.034833	7.37573e+06	-54689.1	1055.82	-29743	0.000000	0.000000	7.035158	-0.001600	NaN	0.000000	0.001672	0.001610	28.0838	0.071884	0.002240	32.0976	-107.955	-161.431	-0.043393	1.033544	-0.040074	-0.041363	-0.001600	32.0976	-0.040036	-0.045337	0.035287	NaN
1091	1.000000	1.042832	7.37573e+06	-54689.1	1055.82	-29743	0.000000	0.000000	7.043156	-0.036475	NaN	0.000000	0.001656	0.001598	28.0838	0.066629	0.001987	33.5273	49.5961	-168.62	-0.018521	1.041512	-0.032075	-0.033394	-0.036475	33.5273	-0.031259	-0.024965	1.461055	NaN
1091	1.000000	1.050859	7.37573e+06	-54689.1	1055.82	-29743	0.000000	0.000000	7.051182	-0.066369	NaN	0.000000	0.001636	0.001586	28.0835	0.008754	0.002012	4.349938	-150.115	-166.66	-0.040350	1.049499	-0.024048	-0.025407	-0.066369	4.349938	-0.012605	-0.007875	8.428067	NaN
1091	1.000000	1.058852	7.37573e+06	-54689.1	1055.82	-29743	0.000000	0.000000	7.059176	-0.045703	NaN	0.000000	0.001635	0.001568	28.0839	0.111747	0.002040	54.7656	-149.108	-166.427	-0.087229	1.057559	-0.016054	-0.017347	-0.045703	54.7656	-0.015428	-0.009534	4.793892	NaN
1091	1.000000	1.066837	7.37573e+06	-54689.1	1055.82	-29743	0.000000	0.000000	7.067163	0.000929	NaN	0.000000	0.001662	0.001603	28.0837	0.045154	0.001884	23.9692	-144.55	-163.902	0.025737	1.065510	-0.008069	-0.009397	0.000929	23.9692	-0.008098	-0.005289	-0.175546	NaN
1091	1.000000	1.074844	7.37573e+06	-54689.1	1055.82	-29743	0.000000	0.000000	7.075201	0.764176	NaN	0.000000	0.001643	0.001615	28.0838	1.375784	0.001899	724.647	14.8158	-169.512	0.176165	1.073544	-6.284001E-5	-0.001362	0.764176	724.647	-0.000854	-0.000628	-1217.47	NaN
1091	1.000000	1.082716	7.37573e+06	-54689.1	1055.82	-29743	0.000000	0.000000	7.083357	7.667034	NaN	0.000000	0.001662	0.001606	28.0836	7.645943	0.001713	4462.63	14.3291	-173.818	6.519724	1.081543	0.007810	0.006637	7.667034	4462.63	0.006521	0.005565	1377.78	54656.3
1091	2.000000	1.085374	7.37573e+06	-54689.1	1055.82	-29743	0.000000	0.000000	7.086142	10.7457	NaN	0.000000	0.001652	0.001602	28.0836	9.840673	0.001674	5876.84	7.821154	-172.02	10.1387	1.085061	0.010467	0.010155	10.7457	5876.84	0.009096	0.008194	1311.37	59314.9
1091	2.000000	1.087385	7.37573e+06	-54689.1	1055.82	-29743	0.000000	0.000000	7.088197	11.8249	NaN	0.000000	0.001645	0.001630	28.0839	11.7965	0.001718	6865.06	4.711520	-171.125	11.3116	1.087088	0.012478	0.012181	11.8249	6865.06	0.011186	0.010530	1122.97	61122.7
1091	2.000000	1.089355	7.37573e+06	-54689.1	1055.82	-29743	0.000000	0.000000	7.090310	15.2806	NaN	0.000000	0.001637	0.001613	28.0837	14.0598	0.001758	7996.17	4.504501	-170.947	14.3369	1.089016	0.014449	0.014110	15.2806	7996.17	0.013016	0.012729	1200.41	64751.5
1091	2.000000	1.091336	7.37573e+06	-54689.1	1055.82	-29743	0.000000	0.000000	7.092460	19.4096	NaN	0.000000	0.001658	0.001610	28.0838	16.2371	0.001694	9584.33	6.236749	-175.617	18.8094	1.090941	0.016429	0.016035	19.4096	9584.33	0.014910	0.015166	1279.81	71104.9
1091	2.000000	1.093309	7.37573e+06	-54689.1	1055.82	-29743	0.000000	0.000000	7.094522	21.5676	NaN	0.000000	0.001582	0.001612	28.0839	18.0251	0.001799	10021.4	3.110442	-172.326	21.5525	1.093024	0.018402	0.018118	21.5676	10021.4	0.016788	0.017744	1215.49	68734.7
1091	2.000000	1.095296	7.37573e+06	-54689.1	1055.82	-29743	0.000000	0.000000	7.096630	24.5011	NaN	0.000000	0.001611	0.001609	28.0837	19.4233	0.001751	11091.6	6.147764	-176.074	23.8847	1.094995	0.020389	0.020089	24.5011	11091.6	0.018733	0.020590	1189.97	70622.3
1091	2.000000	1.097294	7.37573e+06	-54689.1	1055.82	-29743	0.000000	0.000000	7.098823	29.2564	NaN	0.000000	0.001590	0.001575	28.0837	21.4689	0.001807	11883.1	8.002268	-179.027	29.1257	1.096997	0.022387	0.022090	29.2564	11883.1	0.020541	0.023399	1250.34	70975.3
1091	2.000000	1.099274	7.37573e+06	-54689.1	1055.82	-29743	0.000000	0.000000	7.100880	31.105	NaN	0.000000	0.001603	0.001606	28.0831	22.3284	0.001776	12572.6	4.956186	-175.934	29.4217	1.098940	0.024368	0.024034	31.105	12572.6	0.022512	0.026645	1167.41	70371
1091	2.000000	1.101331	7.37573e+06	-54689.1	1055.82	-29743	0.000000	0.000000	7.103169	36.7642	NaN	0.000000	0.001549	0.001602	28.0827	24.0086	0.001809	13269.2	6.043770	-176.373	37.5806	1.100950	0.026424	0.026044	36.7642	13269.2	0.024346	0.029837	1232.16	70184.1
1091	2.000000	1.103295	7.37573e+06	-54689.1	1055.82	-29743	0.000000	0.000000	7.105180	37.9011	NaN	0.000000	0.001591	0.001594	28.0824	26.5243	0.001825	14530.9	6.695406	-179.462	37.1973	1.102968	0.028389	0.028061	37.9011	14530.9	0.026433	0.033674	1125.55	72347.1
1091	2.000000	1.105241	7.37573e+06	-54689.1	1055.82	-29743	0.000000	0.000000	7.107261	41.207	NaN	0.000000	0.001590	0.001586	28.0828	27.2569	0.001741	15655.9	1.373478	-175.646	39.0503	1.104996	0.030334	0.030089	41.207	15655.9	0.028360	0.037413	1101.4	73950.3
1091	2.000000	1.107306	7.37573e+06	-54689.1	1055.82	-29743	0.000000	0.000000	7.109685	49.9169	NaN	0.000000	0.001586	0.001601	28.0825	30.7773	0.001781	17277.1	7.557584	179.243	50.6317	1.106976	0.032400	0.032069	49.9169	17277.1	0.030233	0.041228	1210.77	77741.1
1091	2.000000	1.109282	7.37573e+06	-54689.1	1055.82	-29743	0.000000	0.000000	7.112163	62.1037	NaN	0.000000	0.001584	0.001589	28.0826	32.0982	0.001738	18465.4	2.986804	-175.353	61.2435	1.108938	0.034376	0.034032	62.1037	18465.4	0.031853	0.044672	1390.21	79820.3
1091	2.000000	1.111241	7.37573e+06	-54689.1	1055.82	-29743	0.000000	0.000000	7.114323	67.0005	NaN	0.000000	0.001607	0.001614	28.0826	35.0161	0.001670	20970.7	6.352393	177.647	64.7491	1.110962	0.036334	0.036056	67.0005	20970.7	0.033938	0.049302	1358.98	86288.8
1091	2.000000	1.113253	7.37573e+06	-54689.1	1055.82	-29743	0.000000	0.000000	7.116603	73.5195	NaN	0.000000	0.001614	0.001572	28.0827	38.0359	0.001881	20224.3	7.017373	179.036	71.7053	1.112982	0.038346	0.038075	73.5195	20224.3	0.035620	0.053199	1381.98	80111.9
1091	2.000000	1.115213	7.37573e+06	-54689.1	1055.82	-29743	0.000000	0.000000	7.118957	83.1006	NaN	0.000000	0.001586	0.001595	28.0829	38.9641	0.001694	22998.2	4.385705	179.755	81.0541	1.114934	0.040307	0.040027	83.1006	22998.2	0.037597	0.057965	1433.64	87273.8
1091	2.000000	1.117229	7.37573e+06	-54689.1	1055.82	-29743	0.000000	0.000000	7.121355	92.3744	NaN	0.000000	0.001521	0.001615	28.0827	42.3208	0.001747	24230.4	3.306277	179.228	89.6951	1.116881	0.042322	0.041974	92.3744	24230.4	0.039463	0.062648	1474.49	88446
1091	2.000000	1.119248	7.37573e+06	-54689.1	1055.82	-29743	0.000000	0.000000	7.123627	98.5206	NaN	0.000000	0.001545	0.001632	28.0829	44.4845	0.001747	25460.1	2.426691	-179.875	95.5689	1.118886	0.044342	0.043980	98.5206	25460.1	0.041440	0.067802	1453.06	89333
1091	2.000000	1.121386	7.37573e+06	-54689.1	1055.82	-29743	0.000000	0.000000	7.125782	98.9332	NaN	0.000000	0.001543	0.001589	28.0826	47.5958	0.001904	25000.5	10.1856	172.565	104.378	1.121048	0.046480	0.046141	98.9332	25000.5	0.043512	0.073418	1347.53	84298.4
1091	2.000000	1.123207	7.37573e+06	-54689.1	1055.82	-29743	0.000000	0.000000	7.128236	114.349	NaN	0.000000	0.001534	0.001609	28.0825	47.6216	0.001643	28977.6	1.013899	-179.395	112.201	1.122942	0.048300	0.048035	114.349	28977.6	0.045341	0.078557	1455.61	94459
1091	2.000000	1.125228	7.37573e+06	-54689.1	1055.82	-29743	0.000000	0.000000	7.130619	123.126	NaN	0.000000	0.001513	0.001663	28.0826	49.4012	0.001816	27210	5.490594	177.306	124.088	1.124948	0.050321	0.050041	123.126	27210	0.046928	0.083154	1480.7	86210.6
1091	2.000000	1.127293	7.37573e+06	-54689.1	1055.82	-29743	0.000000	0.000000	7.132857	127.355	NaN	0.000000	0.001524	0.001653	28.0824	52.8993	0.001840	28754.8	7.321145	175.154	129.325	1.126956	0.052386	0.052050	127.355	28754.8	0.049065	0.089544	1422.27	87794.4
1091	2.000000	1.129311	7.37573e+06	-54689.1	1055.82	-29743	0.000000	0.000000	7.135617	145.383	NaN	0.000000	0.001523	0.001686	28.0829	54.2733	0.001796	30216.2	7.099965	174.788	145.961	1.128851	0.054404	0.053944	145.383	30216.2	0.050796	0.094888	1532.15	89620.7
1091	2.000000	1.131240	7.37573e+06	-54689.1	1055.82	-29743	0.000000	0.000000	7.137398	141.776	NaN	0.000000	0.001550	0.001590	28.0824	55.8113	0.001770	31528.1	4.683642	175.531	140.028	1.131013	0.056334	0.056106	141.776	31528.1	0.052961	0.101785	1392.9	90287.9
1091	2.000000	1.133317	7.37573e+06	-54689.1	1055.82	-29743	0.000000	0.000000	7.139759	148.662	NaN	0.000000	0.001575	0.001609	28.0829	58.1318	0.001822	31897.8	5.227238	175.172	148.821	1.133030	0.058411	0.058123	148.662	31897.8	0.054915	0.108210	1373.83	88593.1
1091	2.000000	1.135269	7.37573e+06	-54689.1	1055.82	-29743	0.000000	0.000000	7.142074	157.518	NaN	0.000000	0.001559	0.001603	28.0837	57.3509	0.001645	34854.9	-1.649680	-178.607	157.045	1.135025	0.060362	0.060118	157.518	34854.9	0.056973	0.115177	1367.61	93832.6
1091	2.000000	1.137186	7.37573e+06	-54689.1	1055.82	-29743	0.000000	0.000000	7.144622	172.843	NaN	0.000000	0.001572	0.001601	28.0837	61.1444	0.001785	34248.1	4.375336	176.529	169.688	1.136836	0.062279	0.061930	172.843	34248.1	0.058494	0.120464	1434.8	90153.2
1091	2.000000	1.139269	7.37573e+06	-54689.1	1055.82	-29743	0.000000	0.000000	7.147020	180.496	NaN	0.000000	0.001568	0.001602	28.0842	63.7365	0.001789	35623.6	8.810374	172.254	180.942	1.138842	0.064363	0.063935	180.496	35623.6	0.060563	0.127833	1411.96	91030.9
1091	2.000000	1.141149	7.37573e+06	-54689.1	1055.82	-29743	0.000000	0.000000	7.149513	195.408	NaN	0.000000	0.001566	0.001641	28.0835	64.5898	0.001698	38049.4	5.192961	174.415	190.394	1.140819	0.066242	0.065912	195.408	38049.4	0.062390	0.134519	1452.64	94782.6
1091	2.000000	1.143296	7.37573e+06	-54689.1	1055.82	-29743	0.000000	0.000000	7.151747	197.536	NaN	0.000000	0.001599	0.001614	28.0839	67.8743	0.001798	37741.5	2.723595	176.47	197.693	1.143015	0.068389	0.068108	197.536	37741.5	0.064464	0.142299	1388.17	91409.5
1091	2.000000	1.145236	7.37573e+06	-54689.1	1055.82	-29743	0.000000	0.000000	7.154109	207.781	NaN	0.000000	0.001579	0.001613	28.0836	68.7779	0.001850	37180.2	2.895283	176.353	207.057	1.145032	0.070330	0.070125	207.781	37180.2	0.066138	0.148735	1396.99	88080.3
1091	2.000000	1.147229	7.37573e+06	-54689.1	1055.82	-29743	0.000000	0.000000	7.156681	221.848	NaN	0.000000	0.001557	0.001615	28.0835	71.7314	0.001877	38222.7	7.575761	172.291	221.434	1.146949	0.072323	0.072042	221.848	38222.7	0.067970	0.155927	1422.77	88437
1091	2.000000	1.149295	7.37573e+06	-54689.1	1055.82	-29743	0.000000	0.000000	7.159278	234.756	NaN	0.000000	0.001586	0.001569	28.0841	72.7115	0.001798	40445.7	3.772879	176.219	238.295	1.148854	0.074389	0.073947	234.756	40445.7	0.070035	0.164232	1429.42	91183.7
1091	2.000000	1.151205	7.37573e+06	-54689.1	1055.82	-29743	0.000000	0.000000	7.161825	250.247	NaN	0.000000	0.001557	0.001649	28.0836	74.2891	0.001778	41785.2	6.047299	173.11	248.318	1.150831	0.076299	0.075924	250.247	41785.2	0.071807	0.171516	1459.03	92181.3
1091	2.000000	1.153240	7.37573e+06	-54689.1	1055.82	-29743	0.000000	0.000000	7.164047	254.793	NaN	0.000000	0.001577	0.001644	28.0838	76.3498	0.001771	43107	1.552270	177.637	256.125	1.152984	0.078333	0.078077	254.793	43107	0.073900	0.180316	1413.04	92748
1091	2.000000	1.155276	7.37573e+06	-54689.1	1055.82	-29743	0.000000	0.000000	7.166015	253.152	NaN	0.000000	0.001594	0.001681	28.0835	77.7411	0.001848	42059.6	2.695242	175.816	252.928	1.154976	0.080369	0.080070	253.152	42059.6	0.075855	0.188719	1341.42	88456.7
1091	2.000000	1.157211	7.37573e+06	-54689.1	1055.82	-29743	0.000000	0.000000	7.168731	272.122	NaN	0.000000	0.001577	0.001682	28.0835	80.4928	0.001907	42200.1	3.651815	175.348	270.183	1.156849	0.082305	0.081942	272.122	42200.1	0.077468	0.195788	1389.88	87135.1
1091	2.000000	1.159175	7.37573e+06	-54689.1	1055.82	-29743	0.000000	0.000000	7.171202	284.474	NaN	0.000000	0.001660	0.001666	28.0836	82.1118	0.001764	46538.3	4.736250	172.947	279.391	1.158912	0.084268	0.084005	284.474	46538.3	0.079684	0.205695	1382.99	93750.1
1091	2.000000	1.161146	7.37573e+06	-54689.1	1055.82	-29743	0.000000	0.000000	7.173981	304.105	NaN	0.000000	0.001645	0.001676	28.0834	82.5065	0.001777	46443.2	2.064625	175.66	301.023	1.160944	0.086240	0.086037	304.105	46443.2	0.081329	0.213200	1426.38	91897.1
1091	2.000000	1.163219	7.37573e+06	-54689.1	1055.82	-29743	0.000000	0.000000	7.176431	313.274	NaN	0.000000	0.001659	0.001674	28.0842	85.9624	0.001753	49035.2	5.525494	171.497	311.277	1.163102	0.088312	0.088196	313.274	49035.2	0.083521	0.223395	1402.33	94785.9
1091	2.000000	1.165231	7.37573e+06	-54689.1	1055.82	-29743	0.000000	0.000000	7.179534	339.774	NaN	0.000000	0.001641	0.001665	28.0837	86.2875	0.001790	48192.4	5.489857	172.862	341.763	1.164879	0.090325	0.089973	339.774	48192.4	0.085037	0.230577	1473.58	91694.6
1091	2.000000	1.167180	7.37573e+06	-54689.1	1055.82	-29743	0.000000	0.000000	7.181728	345.736	NaN	0.000000	0.001598	0.001683	28.0835	89.2331	0.001779	50146.6	4.746094	172.501	344.05	1.166969	0.092273	0.092062	345.736	50146.6	0.087102	0.240533	1437.38	93417.3
1091	2.000000	1.169316	7.37573e+06	-54689.1	1055.82	-29743	0.000000	0.000000	7.184252	355.152	NaN	0.000000	0.001646	0.001635	28.0825	91.2527	0.001756	51963.1	3.479683	173.976	359.438	1.168947	0.094410	0.094040	355.152	51963.1	0.089284	0.251260	1413.48	94712.2
1091	2.000000	1.171206	7.37573e+06	-54689.1	1055.82	-29743	0.000000	0.000000	7.186586	365.962	NaN	0.000000	0.001631	0.001623	28.0824	91.9176	0.001724	53315.1	3.311118	173.489	364.489	1.170982	0.096300	0.096075	365.962	53315.1	0.091152	0.260618	1404.21	95416.1
1091	2.000000	1.173215	7.37573e+06	-54689.1	1055.82	-29743	0.000000	0.000000	7.189320	383.598	NaN	0.000000	0.001615	0.001644	28.0825	95.739	0.001823	52527.6	6.932125	170.042	381.288	1.172914	0.098308	0.098007	383.598	52527.6	0.092831	0.269169	1425.12	92501.5
1091	2.000000	1.175204	7.37573e+06	-54689.1	1055.82	-29743	0.000000	0.000000	7.191624	391.233	NaN	0.000000	0.001633	0.001632	28.0824	95.6527	0.001754	54545.9	4.081368	173.121	390.6	1.174854	0.100298	0.099947	391.233	54545.9	0.094918	0.279977	1397.37	94183.3
1091	2.000000	1.177158	7.37573e+06	-54689.1	1055.82	-29743	0.000000	0.000000	7.194357	410.197	NaN	0.000000	0.001604	0.001625	28.0827	97.8718	0.001909	51259	1.698198	175.91	407.365	1.176813	0.102251	0.101907	410.197	51259	0.096249	0.286973	1429.39	87422.4
1091	2.000000	1.179197	7.37573e+06	-54689.1	1055.82	-29743	0.000000	0.000000	7.196914	422.788	NaN	0.000000	0.001636	0.001619	28.0837	99.3091	0.001741	57029.9	5.261593	171.904	419.687	1.178819	0.104291	0.103913	422.788	57029.9	0.098731	0.300229	1408.22	95093.2
1091	2.000000	1.181218	7.37573e+06	-54689.1	1055.82	-29743	0.000000	0.000000	7.199637	439.839	NaN	0.000000	0.001631	0.001605	28.0824	101.082	0.001833	55132.8	5.495720	171.775	439.717	1.180801	0.106312	0.105895	439.839	55132.8	0.100328	0.308913	1423.83	90628.6
1091	2.000000	1.182108	7.37573e+06	-54689.1	1055.82	-29743	0.000000	0.000000	7.201049	452.538	NaN	0.000000	0.001656	0.001615	28.0823	101.632	0.001818	55895.4	5.712610	171.151	447.713	1.181819	0.107201	0.106912	452.538	55895.4	0.101129	0.313309	1444.38	91235.4