File: remote_trans/data/nanoindenter/0828-1/data/Data_2025-08-06,11h17m57s/2025-07-22_16-23-58_1_475.txt
2025-07-22, 16:23:58, 1
Index	Phase	Displacement	Time	Pos X	Pos Y	Pos Z	Rot A	Rot B	Piezo Z	Force A	Force B	Gripper	Voltage A	Voltage B	Temperature	Amplitude force	Amplitude pos	Stiffness	Phase shift	Phase excitation	Force A raw	Displacement raw	HMax	HMax raw	Real Force	Real Stiffness	Contact Depth	Area	Hardness	Reduced Mod.
[#]	[#]	[um]	[s]	[um]	[um]	[um]	[m°]	[m°]	[um]	[uN]	[uN]	[V]	[V]	[V]	[°C]	[uN]	[um]	[N/m]	[°]	[°]	[uN]	[um]	[um]	[um]	[uN]	[N/m]	[um]	[um^2]	[MPa]	[MPa]
475	1.000000	0.002709	7.3697e+06	-53339.1	1005.82	-29746.7	0.000000	0.000000	6.002793	0.068286	NaN	0.000000	0.001529	0.001793	28.0799	0.023879	0.000979	24.386	103.73	-170.223	0.016636	0.001489	-0.995059	-0.996279	0.068286	24.386	-0.997159	-2.077400E+13	-3.287074E-15	NaN
475	1.000000	0.010665	7.3697e+06	-53339.1	1005.82	-29746.7	0.000000	0.000000	6.010744	-0.037002	NaN	0.000000	0.001541	0.001772	28.0797	0.052292	0.000989	52.8499	-15.2134	-162.645	0.056009	0.009347	-0.987104	-0.988421	-0.037002	52.8499	-0.986579	-1.496336E+13	2.472825E-15	NaN
475	1.000000	0.018685	7.3697e+06	-53339.1	1005.82	-29746.7	0.000000	0.000000	6.018768	0.068447	NaN	0.000000	0.001561	0.001768	28.0793	0.078480	0.001659	47.3194	-104.069	-163.981	0.049796	0.017351	-0.979083	-0.980418	0.068447	47.3194	-0.980168	-1.226527E+13	-5.580533E-15	NaN
475	1.000000	0.026705	7.3697e+06	-53339.1	1005.82	-29746.7	0.000000	0.000000	6.026786	0.006394	NaN	0.000000	0.001520	0.001780	28.0793	0.069197	0.001746	39.6218	170.64	-162.651	-0.025668	0.025342	-0.971064	-0.972426	0.006394	39.6218	-0.971185	-9.281708E+12	-6.888669E-16	NaN
475	1.000000	0.034649	7.3697e+06	-53339.1	1005.82	-29746.7	0.000000	0.000000	6.034732	0.069682	NaN	0.000000	0.001528	0.001801	28.0794	0.073253	0.001943	37.6959	-10.7243	-165.028	0.052849	0.033302	-0.963120	-0.964466	0.069682	37.6959	-0.964506	-7.544189E+12	-9.236495E-15	NaN
475	1.000000	0.042668	7.3697e+06	-53339.1	1005.82	-29746.7	0.000000	0.000000	6.042751	0.064774	NaN	0.000000	0.001602	0.001776	28.0801	0.028121	0.002050	13.7158	31.1044	-165.816	0.120293	0.041371	-0.955100	-0.956397	0.064774	13.7158	-0.958642	-6.288742E+12	-1.030001E-14	NaN
475	1.000000	0.050667	7.3697e+06	-53339.1	1005.82	-29746.7	0.000000	0.000000	6.050749	0.040157	NaN	0.000000	0.001551	0.001786	28.0792	0.051396	0.002165	23.7383	-109.108	-164.079	0.091943	0.049367	-0.947101	-0.948401	0.040157	23.7383	-0.948370	-4.571344E+12	-8.784508E-15	NaN
475	1.000000	0.058692	7.3697e+06	-53339.1	1005.82	-29746.7	0.000000	0.000000	6.058774	0.049246	NaN	0.000000	0.001572	0.001805	28.0792	0.116333	0.001855	62.7161	170.39	-163.73	0.038882	0.057403	-0.939077	-0.940365	0.049246	62.7161	-0.939666	-3.488386E+12	-1.411700E-14	NaN
475	1.000000	0.066716	7.3697e+06	-53339.1	1005.82	-29746.7	0.000000	0.000000	6.066802	0.124666	NaN	0.000000	0.001582	0.001825	28.0806	0.046718	0.001954	23.9066	-51.385	-169.245	0.102790	0.065397	-0.931052	-0.932372	0.124666	23.9066	-0.934963	-3.014236E+12	-4.135919E-14	NaN
475	1.000000	0.074675	7.3697e+06	-53339.1	1005.82	-29746.7	0.000000	0.000000	6.074759	0.084871	NaN	0.000000	0.001581	0.001824	28.0806	0.056693	0.002045	27.7175	103.866	-168.52	0.016912	0.073344	-0.923094	-0.924424	0.084871	27.7175	-0.925390	-2.238611E+12	-3.791245E-14	NaN
475	1.000000	0.082680	7.3697e+06	-53339.1	1005.82	-29746.7	0.000000	0.000000	6.082762	0.034264	NaN	0.000000	0.001536	0.001757	28.0809	0.054211	0.001907	28.427	-141.647	-165.453	0.063654	0.081322	-0.915089	-0.916446	0.034264	28.427	-0.915993	-1.671469E+12	-2.049914E-14	NaN
475	1.000000	0.090681	7.3697e+06	-53339.1	1005.82	-29746.7	0.000000	0.000000	6.090762	0.009765	NaN	0.000000	0.001555	0.001821	28.0804	0.094342	0.001947	48.4543	145.806	-167.573	-0.056610	0.089361	-0.907087	-0.908408	0.009765	48.4543	-0.907238	-1.273089E+12	-7.670087E-15	NaN
475	1.000000	0.098644	7.3697e+06	-53339.1	1005.82	-29746.7	0.000000	0.000000	6.098727	0.041346	NaN	0.000000	0.001598	0.001786	28.0807	0.051523	0.001996	25.8104	125.9	-163.975	0.019874	0.097393	-0.899124	-0.900376	0.041346	25.8104	-0.900325	-1.026750E+12	-4.026837E-14	NaN
475	1.000000	0.106691	7.3697e+06	-53339.1	1005.82	-29746.7	0.000000	0.000000	6.106771	-0.026171	NaN	0.000000	0.001615	0.001764	28.0806	0.074892	0.002098	35.6898	13.2627	-167.381	0.025883	0.105345	-0.891077	-0.892423	-0.026171	35.6898	-0.890527	-7.569036E+11	3.457621E-14	NaN
475	1.000000	0.114700	7.3697e+06	-53339.1	1005.82	-29746.7	0.000000	0.000000	6.114783	0.057316	NaN	0.000000	0.001588	0.001752	28.0806	0.078392	0.002025	38.719	6.466135	-165.099	0.054866	0.113364	-0.883068	-0.884404	0.057316	38.719	-0.884179	-6.211737E+11	-9.226976E-14	NaN
475	1.000000	0.122696	7.3697e+06	-53339.1	1005.82	-29746.7	0.000000	0.000000	6.122778	0.024763	NaN	0.000000	0.001583	0.001759	28.0809	0.048753	0.002028	24.0377	-5.888550	-165.57	0.120953	0.121352	-0.875072	-0.876417	0.024763	24.0377	-0.875845	-4.791921E+11	-5.167741E-14	NaN
475	1.000000	0.130723	7.3697e+06	-53339.1	1005.82	-29746.7	0.000000	0.000000	6.130804	-6.112385E-5	NaN	0.000000	0.001583	0.001749	28.0806	0.060950	0.001941	31.4089	32.6556	-165.859	0.016315	0.129398	-0.867045	-0.868371	-6.112385E-5	31.4089	-0.867044	-3.642866E+11	1.677906E-16	NaN
475	1.000000	0.138687	7.3697e+06	-53339.1	1005.82	-29746.7	0.000000	0.000000	6.138769	0.025013	NaN	0.000000	0.001577	0.001756	28.0809	0.066365	0.001993	33.2978	-95.2553	-163.651	-0.029670	0.137407	-0.859081	-0.860362	0.025013	33.2978	-0.859645	-2.892765E+11	-8.646636E-14	NaN
475	1.000000	0.146713	7.3697e+06	-53339.1	1005.82	-29746.7	0.000000	0.000000	6.146796	0.049081	NaN	0.000000	0.001606	0.001789	28.0808	0.045519	0.001955	23.2824	-66.5128	-164.722	0.086262	0.145372	-0.851055	-0.852396	0.049081	23.2824	-0.852636	-2.325049E+11	-2.110975E-13	NaN
475	1.000000	0.154710	7.3697e+06	-53339.1	1005.82	-29746.7	0.000000	0.000000	6.154792	0.039185	NaN	0.000000	0.001569	0.001762	28.0808	0.014496	0.001958	7.404296	-56.5588	-168.57	0.048749	0.153367	-0.843058	-0.844401	0.039185	7.404296	-0.847027	-1.952003E+11	-2.007446E-13	NaN
475	1.000000	0.162691	7.3697e+06	-53339.1	1005.82	-29746.7	0.000000	0.000000	6.162773	0.032603	NaN	0.000000	0.001580	0.001751	28.0809	0.032857	0.002052	16.0128	-79.0602	-168.006	-0.001842	0.161441	-0.835078	-0.836327	0.032603	16.0128	-0.836605	-1.410229E+11	-2.311887E-13	NaN
475	1.000000	0.170742	7.3697e+06	-53339.1	1005.82	-29746.7	0.000000	0.000000	6.170824	0.036183	NaN	0.000000	0.001579	0.001805	28.0807	0.032217	0.001880	17.1395	-169.243	-170.083	0.031461	0.169367	-0.827027	-0.828401	0.036183	17.1395	-0.828610	-1.098868E+11	-3.292791E-13	NaN
475	1.000000	0.178732	7.3697e+06	-53339.1	1005.82	-29746.7	0.000000	0.000000	6.178813	0.025005	NaN	0.000000	0.001563	0.001768	28.0813	0.111967	0.001887	59.3384	158.589	-163.529	0.019748	0.177371	-0.819037	-0.820398	0.025005	59.3384	-0.819353	-8.230635E+10	-3.038016E-13	NaN
475	1.000000	0.186734	7.3697e+06	-53339.1	1005.82	-29746.7	0.000000	0.000000	6.186816	0.031908	NaN	0.000000	0.001577	0.001770	28.0806	0.052411	0.002106	24.8906	150.181	-165.019	0.002618	0.185402	-0.811034	-0.812367	0.031908	24.8906	-0.811996	-6.541015E+10	-4.878121E-13	NaN
475	1.000000	0.194713	7.3697e+06	-53339.1	1005.82	-29746.7	0.000000	0.000000	6.194793	-0.032681	NaN	0.000000	0.001579	0.001751	28.0806	0.084017	0.002048	41.0148	-5.010113	-166.606	0.017142	0.193390	-0.803055	-0.804379	-0.032681	41.0148	-0.802457	-4.855322E+10	6.731006E-13	NaN
475	1.000000	0.202714	7.3697e+06	-53339.1	1005.82	-29746.7	0.000000	0.000000	6.202795	0.013312	NaN	0.000000	0.001578	0.001776	28.0798	0.040286	0.001902	21.178	95.154	-163.65	-0.002493	0.201416	-0.795054	-0.796353	0.013312	21.178	-0.795526	-3.909465E+10	-3.405158E-13	NaN
475	1.000000	0.210734	7.3697e+06	-53339.1	1005.82	-29746.7	0.000000	0.000000	6.210817	0.070023	NaN	0.000000	0.001588	0.001771	28.0795	0.101254	0.002123	47.6834	42.0525	-165.625	0.050963	0.209437	-0.787035	-0.788332	0.070023	47.6834	-0.788136	-3.102893E+10	-2.256710E-12	NaN
475	1.000000	0.218734	7.3697e+06	-53339.1	1005.82	-29746.7	0.000000	0.000000	6.218817	0.063647	NaN	0.000000	0.001580	0.001793	28.0797	0.064915	0.002014	32.2242	175.714	-167.085	0.001414	0.217413	-0.779034	-0.780356	0.063647	32.2242	-0.780515	-2.444761E+10	-2.603409E-12	NaN
475	1.000000	0.226717	7.3697e+06	-53339.1	1005.82	-29746.7	0.000000	0.000000	6.226797	-0.028445	NaN	0.000000	0.001577	0.001806	28.0793	0.108087	0.001912	56.5177	162.309	-166.541	0.022118	0.225422	-0.771051	-0.772346	-0.028445	56.5177	-0.770674	-1.796651E+10	1.583236E-12	NaN
475	1.000000	0.234739	7.3697e+06	-53339.1	1005.82	-29746.7	0.000000	0.000000	6.234820	0.013468	NaN	0.000000	0.001563	0.001788	28.0797	0.021394	0.001956	10.9352	101.2	-166.13	-0.017904	0.233435	-0.763029	-0.764333	0.013468	10.9352	-0.763953	-1.455704E+10	-9.251979E-13	NaN
475	1.000000	0.242758	7.3697e+06	-53339.1	1005.82	-29746.7	0.000000	0.000000	6.242840	0.038171	NaN	0.000000	0.001575	0.001763	28.0795	0.037192	0.001966	18.9161	-104.054	-165.138	0.136264	0.241419	-0.755010	-0.756349	0.038171	18.9161	-0.756524	-1.153473E+10	-3.309249E-12	NaN
475	1.000000	0.250783	7.3697e+06	-53339.1	1005.82	-29746.7	0.000000	0.000000	6.250867	0.087623	NaN	0.000000	0.001633	0.001787	28.0794	0.094912	0.002002	47.4133	-154.665	-164.023	0.075490	0.249429	-0.746985	-0.748340	0.087623	47.4133	-0.748371	-8.934019E+9	-9.807785E-12	NaN
475	1.000000	0.258726	7.3697e+06	-53339.1	1005.82	-29746.7	0.000000	0.000000	6.258810	0.094522	NaN	0.000000	0.001596	0.001779	28.0794	0.050907	0.001873	27.179	96.8941	-164.852	0.085907	0.257376	-0.739042	-0.740392	0.094522	27.179	-0.741651	-7.236689E+9	-1.306148E-11	NaN
475	1.000000	0.266781	7.3697e+06	-53339.1	1005.82	-29746.7	0.000000	0.000000	6.266861	-0.016747	NaN	0.000000	0.001612	0.001781	28.0794	0.096878	0.002012	48.1495	114.856	-165.308	-0.025578	0.265446	-0.730987	-0.732323	-0.016747	48.1495	-0.730726	-5.136988E+9	3.259986E-12	NaN
475	1.000000	0.274780	7.3697e+06	-53339.1	1005.82	-29746.7	0.000000	0.000000	6.274859	-0.032637	NaN	0.000000	0.001625	0.001795	28.0799	0.064931	0.001966	33.0277	-33.6093	-161.159	-0.051930	0.273420	-0.722989	-0.724349	-0.032637	33.0277	-0.722248	-3.936641E+9	8.290609E-12	NaN
475	1.000000	0.282787	7.3697e+06	-53339.1	1005.82	-29746.7	0.000000	0.000000	6.282869	0.015201	NaN	0.000000	0.001675	0.001776	28.08	0.124606	0.001983	62.8242	-29.8324	-165.677	0.064456	0.281436	-0.714981	-0.716332	0.015201	62.8242	-0.715162	-3.151291E+9	-4.823819E-12	NaN
475	1.000000	0.290750	7.3697e+06	-53339.1	1005.82	-29746.7	0.000000	0.000000	6.290830	-0.000975	NaN	0.000000	0.001635	0.001781	28.0801	0.125440	0.002022	62.052	-88.2464	-161.992	-0.011217	0.289442	-0.707019	-0.708327	-0.000975	62.052	-0.707007	-2.438907E+9	3.996098E-13	NaN
475	1.000000	0.298762	7.3697e+06	-53339.1	1005.82	-29746.7	0.000000	0.000000	6.298844	0.026279	NaN	0.000000	0.001569	0.001781	28.0796	0.077497	0.002093	37.0227	175.061	-163.747	-0.069251	0.297462	-0.699006	-0.700306	0.026279	37.0227	-0.699538	-1.928533E+9	-1.362631E-11	NaN
475	1.000000	0.306754	7.3697e+06	-53339.1	1005.82	-29746.7	0.000000	0.000000	6.306837	0.056977	NaN	0.000000	0.001590	0.001770	28.0798	0.103732	0.002128	48.7512	67.0968	-164.848	-0.033407	0.305430	-0.691014	-0.692339	0.056977	48.7512	-0.691891	-1.516187E+9	-3.757932E-11	NaN
475	1.000000	0.314768	7.3697e+06	-53339.1	1005.82	-29746.7	0.000000	0.000000	6.314851	0.068215	NaN	0.000000	0.001589	0.001794	28.0797	0.051441	0.001970	26.1095	83.2071	-169.052	0.092495	0.313526	-0.683001	-0.684243	0.068215	26.1095	-0.684960	-1.219070E+9	-5.595688E-11	NaN
475	1.000000	0.322780	7.3697e+06	-53339.1	1005.82	-29746.7	0.000000	0.000000	6.322860	-0.004097	NaN	0.000000	0.001589	0.001773	28.0797	0.063713	0.001794	35.5078	116.628	-160.737	-0.015014	0.321485	-0.674989	-0.676283	-0.004097	35.5078	-0.674902	-8.881212E+8	4.613402E-12	NaN
475	1.000000	0.330783	7.3697e+06	-53339.1	1005.82	-29746.7	0.000000	0.000000	6.330864	0.012766	NaN	0.000000	0.001594	0.001781	28.08	0.029436	0.001891	15.5699	-75.8682	-164.976	0.013329	0.329471	-0.666986	-0.668297	0.012766	15.5699	-0.667601	-7.055811E+8	-1.809256E-11	NaN
475	1.000000	0.338802	7.3697e+06	-53339.1	1005.82	-29746.7	0.000000	0.000000	6.338886	0.066279	NaN	0.000000	0.001591	0.001771	28.0803	0.089896	0.002046	43.9315	74.1424	-166.744	0.064125	0.337478	-0.658966	-0.660291	0.066279	43.9315	-0.660098	-5.569378E+8	-1.190066E-10	NaN
475	1.000000	0.346788	7.3697e+06	-53339.1	1005.82	-29746.7	0.000000	0.000000	6.346867	-0.035804	NaN	0.000000	0.001573	0.001776	28.081	0.046042	0.002041	22.5549	155.493	-165.8	0.024836	0.345463	-0.650981	-0.652306	-0.035804	22.5549	-0.649790	-4.023091E+8	8.899532E-11	NaN
475	1.000000	0.354802	7.3697e+06	-53339.1	1005.82	-29746.7	0.000000	0.000000	6.354884	0.029291	NaN	0.000000	0.001587	0.001815	28.0809	0.051244	0.001930	26.5569	-168.001	-161.212	0.020878	0.353496	-0.642966	-0.644273	0.029291	26.5569	-0.643793	-3.329116E+8	-8.798496E-11	NaN
475	1.000000	0.362788	7.3697e+06	-53339.1	1005.82	-29746.7	0.000000	0.000000	6.362868	-0.022099	NaN	0.000000	0.001601	0.001795	28.0809	0.007932	0.001975	4.016982	78.4115	-167.986	0.021661	0.361481	-0.634981	-0.636287	-0.022099	4.016982	-0.630855	-2.211864E+8	9.990998E-11	NaN
475	1.000000	0.370839	7.3697e+06	-53339.1	1005.82	-29746.7	0.000000	0.000000	6.370920	0.008213	NaN	0.000000	0.001540	0.001785	28.081	0.014735	0.001983	7.429393	162.953	-168.824	0.067623	0.369456	-0.626930	-0.628312	0.008213	7.429393	-0.627759	-2.005588E+8	-4.095042E-11	NaN
475	1.000000	0.378802	7.3697e+06	-53339.1	1005.82	-29746.7	0.000000	0.000000	6.378885	0.040284	NaN	0.000000	0.001573	0.001823	28.0808	0.088039	0.001881	46.81	82.4477	-161.681	0.018337	0.377497	-0.618966	-0.620271	0.040284	46.81	-0.619611	-1.549859E+8	-2.599215E-10	NaN
475	1.000000	0.386827	7.3697e+06	-53339.1	1005.82	-29746.7	0.000000	0.000000	6.386909	0.035390	NaN	0.000000	0.001520	0.001786	28.0813	0.032397	0.002168	14.9456	-11.0879	-165.86	0.046103	0.385416	-0.610942	-0.612352	0.035390	14.9456	-0.612718	-1.245943E+8	-2.840439E-10	NaN
475	1.000000	0.394824	7.3697e+06	-53339.1	1005.82	-29746.7	0.000000	0.000000	6.394906	0.053577	NaN	0.000000	0.001560	0.001771	28.0809	0.050283	0.001970	25.5292	-35.7552	-169.132	0.138663	0.393495	-0.602945	-0.604274	0.053577	25.5292	-0.604519	-9.609038E+7	-5.575680E-10	NaN
475	1.000000	0.402813	7.3697e+06	-53339.1	1005.82	-29746.7	0.000000	0.000000	6.402895	0.020576	NaN	0.000000	0.001598	0.001786	28.0811	0.082443	0.002066	39.8985	-149.655	-165.784	-0.001444	0.401465	-0.594955	-0.596304	0.020576	39.8985	-0.595342	-7.182755E+7	-2.864572E-10	NaN
475	1.000000	0.410839	7.3697e+06	-53339.1	1005.82	-29746.7	0.000000	0.000000	6.410921	0.033366	NaN	0.000000	0.001523	0.001789	28.0809	0.092691	0.002074	44.6943	-63.4143	-165.75	0.074192	0.409528	-0.586929	-0.588241	0.033366	44.6943	-0.587489	-5.598130E+7	-5.960260E-10	NaN
475	1.000000	0.418802	7.3697e+06	-53339.1	1005.82	-29746.7	0.000000	0.000000	6.418886	0.083412	NaN	0.000000	0.001548	0.001783	28.0809	0.042503	0.001882	22.5802	-142.104	-166.491	0.045794	0.417464	-0.578966	-0.580304	0.083412	22.5802	-0.581737	-4.663323E+7	-1.788682E-9	NaN
475	1.000000	0.426846	7.3697e+06	-53339.1	1005.82	-29746.7	0.000000	0.000000	6.426930	0.095374	NaN	0.000000	0.001561	0.001817	28.0812	0.024207	0.001943	12.4572	54.9181	-167.522	0.100926	0.425502	-0.570923	-0.572266	0.095374	12.4572	-0.576665	-3.969032E+7	-2.402957E-9	NaN
475	1.000000	0.434836	7.3697e+06	-53339.1	1005.82	-29746.7	0.000000	0.000000	6.434917	0.007918	NaN	0.000000	0.001544	0.001805	28.081	0.106382	0.002146	49.5829	150.779	-169.75	-0.048755	0.433512	-0.562933	-0.564257	0.007918	49.5829	-0.563052	-2.573925E+7	-3.076387E-10	NaN
475	1.000000	0.442852	7.3697e+06	-53339.1	1005.82	-29746.7	0.000000	0.000000	6.442936	0.074470	NaN	0.000000	0.001553	0.001795	28.0812	0.073566	0.001988	36.9989	-153.268	-168.244	-0.047667	0.441546	-0.554916	-0.556223	0.074470	36.9989	-0.556426	-2.084112E+7	-3.573202E-9	NaN
475	1.000000	0.450858	7.3697e+06	-53339.1	1005.82	-29746.7	0.000000	0.000000	6.450940	0.021837	NaN	0.000000	0.001566	0.001793	28.0811	0.049981	0.001953	25.5984	-91.9937	-166.437	0.006387	0.449523	-0.546910	-0.548245	0.021837	25.5984	-0.547550	-1.570417E+7	-1.390508E-9	NaN
475	1.000000	0.458866	7.3697e+06	-53339.1	1005.82	-29746.7	0.000000	0.000000	6.458952	0.126805	NaN	0.000000	0.001577	0.001771	28.0813	0.096993	0.002095	46.2941	33.2902	-167.389	0.048290	0.457513	-0.538902	-0.540256	0.126805	46.2941	-0.540957	-1.272399E+7	-9.965853E-9	NaN
475	1.000000	0.466817	7.3697e+06	-53339.1	1005.82	-29746.7	0.000000	0.000000	6.466900	0.059434	NaN	0.000000	0.001551	0.001799	28.0811	0.079019	0.001919	41.177	-174.207	-163.834	0.115885	0.465527	-0.530951	-0.532242	0.059434	41.177	-0.532034	-9.56792e+06	-6.211834E-9	NaN
475	1.000000	0.474836	7.3697e+06	-53339.1	1005.82	-29746.7	0.000000	0.000000	6.474918	0.042230	NaN	0.000000	0.001641	0.001791	28.08	0.076409	0.001899	40.2465	-104.648	-166.16	0.019939	0.473519	-0.522933	-0.524249	0.042230	40.2465	-0.523720	-7.33355e+06	-5.758487E-9	NaN
475	1.000000	0.482859	7.3697e+06	-53339.1	1005.82	-29746.7	0.000000	0.000000	6.482940	0.015462	NaN	0.000000	0.001598	0.001806	28.0797	0.047307	0.001952	24.2342	139.778	-167.386	-0.033462	0.481530	-0.514910	-0.516239	0.015462	24.2342	-0.515388	-5.61609e+06	-2.753158E-9	NaN
475	1.000000	0.490857	7.3697e+06	-53339.1	1005.82	-29746.7	0.000000	0.000000	6.490940	0.059451	NaN	0.000000	0.001658	0.001822	28.0798	0.013776	0.002037	6.763488	-166.952	-168.698	-0.014552	0.489505	-0.506911	-0.508264	0.059451	6.763488	-0.513504	-5.28694e+06	-1.124490E-8	NaN
475	1.000000	0.498849	7.3697e+06	-53339.1	1005.82	-29746.7	0.000000	0.000000	6.498929	0.004496	NaN	0.000000	0.001672	0.001775	28.0798	0.128742	0.002044	62.9858	84.2525	-167.852	0.035318	0.497567	-0.498920	-0.500202	0.004496	62.9858	-0.498973	-3.31662e+06	-1.355495E-9	NaN
475	1.000000	0.506872	7.3697e+06	-53339.1	1005.82	-29746.7	0.000000	0.000000	6.506956	0.103027	NaN	0.000000	0.001643	0.001784	28.0798	0.019216	0.001988	9.667003	-102.263	-164.898	0.098511	0.505514	-0.490897	-0.492255	0.103027	9.667003	-0.498890	-3.30774e+06	-3.114727E-8	NaN
475	1.000000	0.514889	7.3697e+06	-53339.1	1005.82	-29746.7	0.000000	0.000000	6.514971	0.045156	NaN	0.000000	0.001651	0.001788	28.0797	0.033132	0.001957	16.9321	-119.298	-164.422	0.016578	0.513520	-0.482880	-0.484249	0.045156	16.9321	-0.484880	-2.10772e+06	-2.142404E-8	NaN
475	1.000000	0.522871	7.3697e+06	-53339.1	1005.82	-29746.7	0.000000	0.000000	6.522953	0.047380	NaN	0.000000	0.001615	0.001748	28.0796	0.063746	0.002035	31.3235	-38.1433	-166.336	0.061604	0.521593	-0.474898	-0.476175	0.047380	31.3235	-0.476032	-1.58474e+06	-2.989760E-8	NaN
475	1.000000	0.530845	7.3697e+06	-53339.1	1005.82	-29746.7	0.000000	0.000000	6.530925	-0.012131	NaN	0.000000	0.001620	0.001765	28.0798	0.138563	0.002039	67.9574	39.8935	-161.964	-0.007524	0.529559	-0.466923	-0.468209	-0.012131	67.9574	-0.466789	-1.17587e+06	1.031689E-8	NaN
475	1.000000	0.538869	7.3697e+06	-53339.1	1005.82	-29746.7	0.000000	0.000000	6.538949	-0.001562	NaN	0.000000	0.001641	0.001787	28.0799	0.104915	0.001914	54.8203	-25.3474	-163.439	0.076277	0.537610	-0.458900	-0.460158	-0.001562	54.8203	-0.458878	-910449	1.716131E-9	NaN
475	1.000000	0.546899	7.3697e+06	-53339.1	1005.82	-29746.7	0.000000	0.000000	6.546981	0.030490	NaN	0.000000	0.001635	0.001814	28.0799	0.029206	0.002092	13.9636	-57.8157	-170.416	0.111498	0.545570	-0.450870	-0.452198	0.030490	13.9636	-0.452507	-740697	-4.116370E-8	NaN
475	1.000000	0.554859	7.3697e+06	-53339.1	1005.82	-29746.7	0.000000	0.000000	6.554942	0.062932	NaN	0.000000	0.001644	0.001770	28.08	0.052847	0.002016	26.2156	-42.8945	-163.902	0.023983	0.553604	-0.442910	-0.444164	0.062932	26.2156	-0.444710	-575186	-1.094110E-7	NaN
475	1.000000	0.562883	7.3697e+06	-53339.1	1005.82	-29746.7	0.000000	0.000000	6.562964	0.030281	NaN	0.000000	0.001634	0.001851	28.0796	0.016688	0.001996	8.360913	-110.986	-167.422	0.070516	0.561552	-0.434886	-0.436217	0.030281	8.360913	-0.437602	-456574	-6.632219E-8	NaN
475	1.000000	0.570906	7.3697e+06	-53339.1	1005.82	-29746.7	0.000000	0.000000	6.570991	0.109854	NaN	0.000000	0.001641	0.001797	28.0797	0.152535	0.001876	81.3242	107.203	-165.288	0.089888	0.569567	-0.426863	-0.428201	0.109854	81.3242	-0.427876	-332663	-3.302273E-7	NaN
475	1.000000	0.578877	7.3697e+06	-53339.1	1005.82	-29746.7	0.000000	0.000000	6.578960	0.063883	NaN	0.000000	0.001601	0.001805	28.0797	0.023113	0.002051	11.2692	-78.0211	-167.627	0.046673	0.577588	-0.418891	-0.420181	0.063883	11.2692	-0.423143	-285083	-2.240864E-7	NaN
475	1.000000	0.586874	7.3697e+06	-53339.1	1005.82	-29746.7	0.000000	0.000000	6.586957	0.076860	NaN	0.000000	0.001665	0.001796	28.0797	0.092185	0.001935	47.6523	109.648	-167.003	0.015268	0.585605	-0.410895	-0.412163	0.076860	47.6523	-0.412105	-198756	-3.867041E-7	NaN
475	1.000000	0.594889	7.3697e+06	-53339.1	1005.82	-29746.7	0.000000	0.000000	6.594971	0.030369	NaN	0.000000	0.001637	0.001839	28.08	0.030874	0.001986	15.5451	115.333	-166.681	-0.042824	0.593605	-0.402879	-0.404163	0.030369	15.5451	-0.404344	-154138	-1.970236E-7	NaN
475	1.000000	0.602919	7.3697e+06	-53339.1	1005.82	-29746.7	0.000000	0.000000	6.603003	0.069195	NaN	0.000000	0.001670	0.001840	28.0797	0.107407	0.002129	50.4583	-129.818	-165.22	0.047656	0.601577	-0.394849	-0.396192	0.069195	50.4583	-0.395878	-116726	-5.927974E-7	NaN
475	1.000000	0.610899	7.3697e+06	-53339.1	1005.82	-29746.7	0.000000	0.000000	6.610984	0.115197	NaN	0.000000	0.001668	0.001851	28.0802	0.074721	0.002046	36.5182	58.3901	-168.649	0.069629	0.609556	-0.386870	-0.388212	0.115197	36.5182	-0.389235	-93805.5	-1.228038E-6	NaN
475	1.000000	0.618930	7.3697e+06	-53339.1	1005.82	-29746.7	0.000000	0.000000	6.619011	0.025978	NaN	0.000000	0.001653	0.001809	28.0811	0.058992	0.002101	28.0743	-41.9217	-168.273	0.031725	0.617631	-0.378839	-0.380138	0.025978	28.0743	-0.379533	-68106.1	-3.814381E-7	NaN
475	1.000000	0.626903	7.3697e+06	-53339.1	1005.82	-29746.7	0.000000	0.000000	6.626986	0.052864	NaN	0.000000	0.001679	0.001766	28.081	0.088111	0.001879	46.9008	-105.446	-165.487	0.077697	0.625651	-0.370865	-0.372117	0.052864	46.9008	-0.371711	-52572.5	-1.005545E-6	NaN
475	1.000000	0.634908	7.3697e+06	-53339.1	1005.82	-29746.7	0.000000	0.000000	6.634987	-0.025533	NaN	0.000000	0.001664	0.001782	28.081	0.123834	0.001922	64.4144	93.3163	-166.944	-0.108177	0.633651	-0.362861	-0.364118	-0.025533	64.4144	-0.362564	-38804.8	6.579895E-7	NaN
475	1.000000	0.642888	7.3697e+06	-53339.1	1005.82	-29746.7	0.000000	0.000000	6.642971	0.066945	NaN	0.000000	0.001657	0.001813	28.081	0.027209	0.002017	13.4894	55.5928	-165.831	0.113404	0.641602	-0.354880	-0.356167	0.066945	13.4894	-0.358602	-34012.4	-1.968241E-6	NaN
475	1.000000	0.650909	7.3697e+06	-53339.1	1005.82	-29746.7	0.000000	0.000000	6.650991	0.045831	NaN	0.000000	0.001618	0.001813	28.0813	0.103243	0.002010	51.3706	-22.2273	-167.75	0.013735	0.649601	-0.346860	-0.348167	0.045831	51.3706	-0.347529	-23502.5	-1.950024E-6	NaN
475	1.000000	0.658937	7.3697e+06	-53339.1	1005.82	-29746.7	0.000000	0.000000	6.659019	0.038663	NaN	0.000000	0.001688	0.001779	28.081	0.003498	0.001956	1.788352	113.283	-168.849	-0.046425	0.657658	-0.338832	-0.340110	0.038663	1.788352	-0.355046	-30211.1	-1.279751E-6	NaN
475	1.000000	0.666937	7.3697e+06	-53339.1	1005.82	-29746.7	0.000000	0.000000	6.667019	0.052021	NaN	0.000000	0.001704	0.001768	28.0811	0.066877	0.001946	34.36	-38.6943	-166.331	0.036758	0.665609	-0.330832	-0.332160	0.052021	34.36	-0.331967	-13939.5	-3.731922E-6	NaN
475	1.000000	0.674926	7.3697e+06	-53339.1	1005.82	-29746.7	0.000000	0.000000	6.675009	0.057129	NaN	0.000000	0.001642	0.001816	28.0812	0.036431	0.002087	17.4592	-59.0588	-164.211	0.053585	0.673606	-0.322842	-0.324162	0.057129	17.4592	-0.325297	-11129.9	-5.132931E-6	NaN
475	1.000000	0.682933	7.3697e+06	-53339.1	1005.82	-29746.7	0.000000	0.000000	6.683016	0.051250	NaN	0.000000	0.001604	0.001781	28.081	0.026363	0.002002	13.1713	15.2343	-165.14	0.042488	0.681580	-0.314836	-0.316189	0.051250	13.1713	-0.317754	-8621.01	-5.944727E-6	NaN
475	1.000000	0.690947	7.3697e+06	-53339.1	1005.82	-29746.7	0.000000	0.000000	6.691029	0.043140	NaN	0.000000	0.001655	0.001752	28.081	0.108144	0.002112	51.1936	-151.225	-166.235	0.070657	0.689617	-0.306822	-0.308151	0.043140	51.1936	-0.307454	-6072.21	-7.104424E-6	NaN
475	1.000000	0.698941	7.3697e+06	-53339.1	1005.82	-29746.7	0.000000	0.000000	6.699026	0.105803	NaN	0.000000	0.001602	0.001764	28.081	0.029810	0.001982	15.0371	137.116	-165.91	0.093650	0.697629	-0.298827	-0.300139	0.105803	15.0371	-0.304104	-5415.75	-1.953607E-5	NaN
475	1.000000	0.706974	7.3697e+06	-53339.1	1005.82	-29746.7	0.000000	0.000000	6.707058	0.081375	NaN	0.000000	0.001624	0.001739	28.0811	0.166604	0.001930	86.302	178.427	-162.491	0.095025	0.705652	-0.290794	-0.292117	0.081375	86.302	-0.291502	-3513.88	-2.315806E-5	NaN
475	1.000000	0.714933	7.3697e+06	-53339.1	1005.82	-29746.7	0.000000	0.000000	6.715017	0.068445	NaN	0.000000	0.001610	0.001752	28.081	0.047721	0.002011	23.7251	-166.921	-164.898	-0.005459	0.713606	-0.282835	-0.284163	0.068445	23.7251	-0.284999	-2807.03	-2.438353E-5	NaN
475	1.000000	0.722952	7.3697e+06	-53339.1	1005.82	-29746.7	0.000000	0.000000	6.723037	0.115964	NaN	0.000000	0.001644	0.001761	28.0808	0.076706	0.001989	38.5559	-139.944	-164.995	0.086789	0.721572	-0.274816	-0.276197	0.115964	38.5559	-0.277072	-2131.83	-5.439662E-5	NaN
475	1.000000	0.730966	7.3697e+06	-53339.1	1005.82	-29746.7	0.000000	0.000000	6.731048	0.039443	NaN	0.000000	0.001635	0.001766	28.0809	0.085178	0.001851	46.0187	-94.505	-165.991	0.057680	0.729636	-0.266803	-0.268132	0.039443	46.0187	-0.267445	-1522.9	-2.590004E-5	NaN
475	1.000000	0.738989	7.3697e+06	-53339.1	1005.82	-29746.7	0.000000	0.000000	6.739068	-0.024648	NaN	0.000000	0.001660	0.001770	28.0811	0.023075	0.001946	11.855	150.981	-164.656	0.012144	0.737642	-0.258780	-0.260127	-0.024648	11.855	-0.257220	-1062.34	2.320192E-5	NaN
475	1.000000	0.746960	7.3697e+06	-53339.1	1005.82	-29746.7	0.000000	0.000000	6.747043	0.048210	NaN	0.000000	0.001688	0.001768	28.081	0.096673	0.001931	50.0688	100.428	-167.593	0.055809	0.745649	-0.250808	-0.252120	0.048210	50.0688	-0.251530	-868.199	-5.552933E-5	NaN
475	1.000000	0.754979	7.3697e+06	-53339.1	1005.82	-29746.7	0.000000	0.000000	6.755061	0.031890	NaN	0.000000	0.001603	0.001800	28.0795	0.026925	0.001986	13.5556	141.978	-167.768	0.009767	0.753580	-0.242789	-0.244188	0.031890	13.5556	-0.244553	-676.879	-4.711357E-5	NaN
475	1.000000	0.763001	7.3697e+06	-53339.1	1005.82	-29746.7	0.000000	0.000000	6.763085	0.096250	NaN	0.000000	0.001617	0.001748	28.0799	0.079542	0.001996	39.8532	-16.9002	-168.801	0.084332	0.761653	-0.234768	-0.236116	0.096250	39.8532	-0.236579	-508.184	-0.000189	NaN
475	1.000000	0.770957	7.3697e+06	-53339.1	1005.82	-29746.7	0.000000	0.000000	6.771038	0.004085	NaN	0.000000	0.001603	0.001753	28.0798	0.069435	0.002102	33.0366	-56.7219	-165.925	0.018942	0.769664	-0.226812	-0.228104	0.004085	33.0366	-0.226904	-357.722	-1.141917E-5	NaN
475	1.000000	0.778992	7.3697e+06	-53339.1	1005.82	-29746.7	0.000000	0.000000	6.779075	0.052651	NaN	0.000000	0.001634	0.001763	28.0796	0.046101	0.001874	24.5968	-132.42	-164.734	0.040339	0.777671	-0.218776	-0.220098	0.052651	24.5968	-0.220382	-281.693	-0.000187	NaN
475	1.000000	0.786997	7.3697e+06	-53339.1	1005.82	-29746.7	0.000000	0.000000	6.787082	0.113186	NaN	0.000000	0.001606	0.001765	28.0797	0.043786	0.001958	22.3645	25.318	-166.966	0.052749	0.785718	-0.210771	-0.212050	0.113186	22.3645	-0.214567	-227.272	-0.000498	NaN
475	1.000000	0.794946	7.3697e+06	-53339.1	1005.82	-29746.7	0.000000	0.000000	6.795025	-0.030461	NaN	0.000000	0.001603	0.001794	28.0796	0.055597	0.002092	26.5795	-176.624	-166.989	0.007966	0.793696	-0.202823	-0.204072	-0.030461	26.5795	-0.201963	-141.878	0.000215	NaN
475	1.000000	0.802988	7.3697e+06	-53339.1	1005.82	-29746.7	0.000000	0.000000	6.803068	-0.011696	NaN	0.000000	0.001605	0.001789	28.0799	0.088782	0.001953	45.456	113.866	-167.036	0.052797	0.801629	-0.194780	-0.196139	-0.011696	45.456	-0.194587	-107.241	0.000109	NaN
475	1.000000	0.810959	7.3697e+06	-53339.1	1005.82	-29746.7	0.000000	0.000000	6.811042	0.049715	NaN	0.000000	0.001636	0.001799	28.0797	0.055763	0.002099	26.5701	127.788	-166.868	0.017923	0.809709	-0.186809	-0.188059	0.049715	26.5701	-0.188213	-83.9702	-0.000592	NaN
475	1.000000	0.818997	7.3697e+06	-53339.1	1005.82	-29746.7	0.000000	0.000000	6.819079	0.033183	NaN	0.000000	0.001573	0.001738	28.08	0.047691	0.001841	25.9095	-94.9351	-167.244	-0.030157	0.817690	-0.178771	-0.180078	0.033183	25.9095	-0.179732	-60.3819	-0.000550	NaN
475	1.000000	0.826993	7.3697e+06	-53339.1	1005.82	-29746.7	0.000000	0.000000	6.827073	-0.029227	NaN	0.000000	0.001618	0.001735	28.0798	0.061677	0.001975	31.2236	120.559	-165.526	-0.009205	0.825663	-0.170775	-0.172105	-0.029227	31.2236	-0.170073	-41.1988	0.000709	NaN
475	1.000000	0.835000	7.3697e+06	-53339.1	1005.82	-29746.7	0.000000	0.000000	6.835084	0.076897	NaN	0.000000	0.001593	0.001755	28.0797	0.040493	0.002075	19.5125	29.4814	-168.538	0.030485	0.833645	-0.162768	-0.164124	0.076897	19.5125	-0.165724	-34.5946	-0.002223	NaN
475	1.000000	0.843026	7.3697e+06	-53339.1	1005.82	-29746.7	0.000000	0.000000	6.843105	-0.024434	NaN	0.000000	0.001653	0.001772	28.0809	0.087969	0.002043	43.0485	-90.6188	-166.864	0.046295	0.841670	-0.154742	-0.156099	-0.024434	43.0485	-0.154317	-21.6908	0.001126	NaN
475	1.000000	0.851006	7.3697e+06	-53339.1	1005.82	-29746.7	0.000000	0.000000	6.851089	0.060550	NaN	0.000000	0.001617	0.001757	28.0797	0.041903	0.002035	20.5873	-42.6007	-163.764	0.011744	0.849715	-0.146762	-0.148054	0.060550	20.5873	-0.148968	-17.3445	-0.003491	NaN
475	1.000000	0.859014	7.3697e+06	-53339.1	1005.82	-29746.7	0.000000	0.000000	6.859096	0.036749	NaN	0.000000	0.001621	0.001778	28.08	0.055471	0.001963	28.2654	99.2537	-166.567	0.017294	0.857754	-0.138754	-0.140014	0.036749	28.2654	-0.139729	-11.6917	-0.003143	NaN
475	1.000000	0.866983	7.3697e+06	-53339.1	1005.82	-29746.7	0.000000	0.000000	6.867065	0.037288	NaN	0.000000	0.001604	0.001780	28.0798	0.105854	0.002013	52.5818	-140.648	-169.364	0.076719	0.865675	-0.130786	-0.132094	0.037288	52.5818	-0.131318	-8.082495	-0.004613	NaN
475	1.000000	0.875024	7.3697e+06	-53339.1	1005.82	-29746.7	0.000000	0.000000	6.875108	0.080808	NaN	0.000000	0.001633	0.001779	28.0797	0.020671	0.002035	10.1559	-158.494	-166.147	0.158429	0.873720	-0.122745	-0.124048	0.080808	10.1559	-0.128712	-7.193511	-0.011233	NaN
475	1.000000	0.882985	7.3697e+06	-53339.1	1005.82	-29746.7	0.000000	0.000000	6.883068	0.057069	NaN	0.000000	0.001656	0.001809	28.0797	0.047991	0.001980	24.2332	-25.143	-168.954	0.091865	0.881680	-0.114783	-0.116088	0.057069	24.2332	-0.116549	-4.110926	-0.013882	NaN
475	1.000000	0.890993	7.3697e+06	-53339.1	1005.82	-29746.7	0.000000	0.000000	6.891076	0.052026	NaN	0.000000	0.001671	0.001795	28.0809	0.094268	0.002085	45.2047	-132.331	-165.828	0.041628	0.889729	-0.106775	-0.108040	0.052026	45.2047	-0.107639	-2.677946	-0.019428	NaN
475	1.000000	0.899010	7.3697e+06	-53339.1	1005.82	-29746.7	0.000000	0.000000	6.899095	0.107305	NaN	0.000000	0.001648	0.001817	28.0812	0.107222	0.001933	55.4709	44.762	-165.184	0.059604	0.897779	-0.098759	-0.099990	0.107305	55.4709	-0.100209	-1.846771	-0.058104	NaN
475	1.000000	0.907045	7.3697e+06	-53339.1	1005.82	-29746.7	0.000000	0.000000	6.907127	0.047304	NaN	0.000000	0.001610	0.001776	28.0809	0.065858	0.002040	32.2834	3.631008	-166.393	0.117421	0.905751	-0.090723	-0.092018	0.047304	32.2834	-0.091822	-1.192187	-0.039678	NaN
475	1.000000	0.915028	7.3697e+06	-53339.1	1005.82	-29746.7	0.000000	0.000000	6.915112	0.068878	NaN	0.000000	0.001586	0.001823	28.0809	0.044841	0.001926	23.2851	-56.5934	-167.857	0.124784	0.913723	-0.082740	-0.084045	0.068878	23.2851	-0.084959	-0.819742	-0.084024	NaN
475	1.000000	0.923027	7.3697e+06	-53339.1	1005.82	-29746.7	0.000000	0.000000	6.923107	0.001015	NaN	0.000000	0.001641	0.001827	28.0809	0.062787	0.002039	30.7985	-86.6784	-165.035	0.033794	0.921766	-0.074742	-0.076003	0.001015	30.7985	-0.074766	-0.455484	-0.002228	NaN
475	1.000000	0.931019	7.3697e+06	-53339.1	1005.82	-29746.7	0.000000	0.000000	6.931102	0.040887	NaN	0.000000	0.001617	0.001804	28.081	0.033456	0.001955	17.11	73.14	-166.163	-0.092347	0.929723	-0.066749	-0.068045	0.040887	17.11	-0.068541	-0.311611	-0.131213	NaN
475	1.000000	0.939036	7.3697e+06	-53339.1	1005.82	-29746.7	0.000000	0.000000	6.939122	0.137113	NaN	0.000000	0.001633	0.001810	28.0811	0.081177	0.001830	44.3612	-71.0606	-166.651	0.123840	0.937700	-0.058733	-0.060068	0.137113	44.3612	-0.061051	-0.192994	-0.710451	NaN
475	1.000000	0.947095	7.3697e+06	-53339.1	1005.82	-29746.7	0.000000	0.000000	6.947178	0.044907	NaN	0.000000	0.001611	0.001801	28.081	0.072960	0.002050	35.5957	-6.908633	-166.599	0.036074	0.945756	-0.050673	-0.052012	0.044907	35.5957	-0.051619	-0.102106	-0.439810	NaN
475	1.000000	0.955052	7.3697e+06	-53339.1	1005.82	-29746.7	0.000000	0.000000	6.955133	0.003680	NaN	0.000000	0.001624	0.001797	28.0812	0.043453	0.002125	20.4473	56.9431	-169.084	-0.007869	0.953734	-0.042716	-0.044034	0.003680	20.4473	-0.042851	-0.055244	-0.066613	NaN
475	1.000000	0.963035	7.3697e+06	-53339.1	1005.82	-29746.7	0.000000	0.000000	6.963121	0.148618	NaN	0.000000	0.001638	0.001820	28.0814	0.157395	0.001934	81.3693	9.327513	-168.086	0.197376	0.961769	-0.034734	-0.036000	0.148618	81.3693	-0.036104	-0.034525	-4.304664	NaN
475	1.000000	0.971054	7.3697e+06	-53339.1	1005.82	-29746.7	0.000000	0.000000	6.971174	0.966744	NaN	0.000000	0.001620	0.001811	28.081	1.074925	0.002041	526.743	20.762	-167.891	0.890435	0.969760	-0.026714	-0.028009	0.966744	526.743	-0.028091	-0.020391	-47.4112	NaN
475	1.000000	0.979038	7.3697e+06	-53339.1	1005.82	-29746.7	0.000000	0.000000	6.979220	2.478462	NaN	0.000000	0.001626	0.001793	28.0808	1.722055	0.002107	817.318	20.0351	-167.162	2.241059	0.977692	-0.018731	-0.020076	2.478462	817.318	-0.021005	-0.013322	-186.047	NaN
475	1.000000	0.986997	7.3697e+06	-53339.1	1005.82	-29746.7	0.000000	0.000000	6.987282	4.975880	NaN	0.000000	0.001647	0.001816	28.0809	2.882465	0.001849	1558.99	19.2717	-169.952	4.561670	0.985693	-0.010771	-0.012076	4.975880	1558.99	-0.013165	-0.008198	-606.987	NaN
475	2.000000	0.994508	7.3697e+06	-53339.1	1005.82	-29746.7	0.000000	0.000000	6.994952	8.838174	NaN	0.000000	0.001636	0.001786	28.0811	4.976426	0.001699	2928.78	12.5603	-169.468	8.756251	0.993696	-0.003260	-0.004072	8.838174	2928.78	-0.005523	-0.003743	-2361.21	NaN
475	2.000000	0.996664	7.3697e+06	-53339.1	1005.82	-29746.7	0.000000	0.000000	6.997049	7.400251	NaN	0.000000	0.001598	0.001807	28.0816	5.808481	0.002006	2895.22	16.9404	-174.207	7.664901	0.996393	-0.001105	-0.001376	7.400251	2895.22	-0.003022	-0.002135	-3466.09	NaN
475	2.000000	0.998643	7.3697e+06	-53339.1	1005.82	-29746.7	0.000000	0.000000	6.998954	5.608914	NaN	0.000000	0.001625	0.001773	28.0808	6.243522	0.001969	3171.07	17.741	-172.057	6.138541	0.998342	0.000874	0.000573	5.608914	3171.07	-0.000452	-0.000335	-16744	NaN
475	2.000000	1.000572	7.3697e+06	-53339.1	1005.82	-29746.7	0.000000	0.000000	7.000871	5.320572	NaN	0.000000	0.001626	0.001789	28.0809	7.117290	0.002024	3516.65	14.2586	-170.027	5.000827	1.000332	0.002803	0.002563	5.320572	3516.65	0.001669	0.001289	4128.91	89503.8
475	2.000000	1.002558	7.3697e+06	-53339.1	1005.82	-29746.7	0.000000	0.000000	7.002952	7.616812	NaN	0.000000	0.001602	0.001820	28.0797	9.223548	0.001647	5598.79	10.1735	-172.864	6.886843	1.002297	0.004790	0.004529	7.616812	5598.79	0.003769	0.003038	2507.34	92808.4
475	2.000000	1.004603	7.3697e+06	-53339.1	1005.82	-29746.7	0.000000	0.000000	7.005110	10.3733	NaN	0.000000	0.001617	0.001806	28.0799	11.8065	0.001750	6746.52	9.799975	-173.848	10.3808	1.004256	0.006835	0.006488	10.3733	6746.52	0.005682	0.004764	2177.42	89302.8
475	2.000000	1.006579	7.3697e+06	-53339.1	1005.82	-29746.7	0.000000	0.000000	7.007279	15.07	NaN	0.000000	0.001650	0.001813	28.0798	14.7054	0.001937	7593.14	10.9711	-176.242	14.8475	1.006294	0.008810	0.008526	15.07	7593.14	0.007322	0.006354	2371.69	87029.6
475	2.000000	1.008580	7.3697e+06	-53339.1	1005.82	-29746.7	0.000000	0.000000	7.009579	22.3518	NaN	0.000000	0.001638	0.001784	28.0799	17.0174	0.001719	9900.76	7.007048	-176.27	21.8081	1.008245	0.010811	0.010477	22.3518	9900.76	0.009118	0.008218	2719.98	99785.7
475	2.000000	1.010537	7.3697e+06	-53339.1	1005.82	-29746.7	0.000000	0.000000	7.011828	29.4411	NaN	0.000000	0.001604	0.001798	28.0796	19.6085	0.001764	11113	7.756549	-177.843	27.7552	1.010224	0.012768	0.012456	29.4411	11113	0.010781	0.010063	2925.75	101216
475	2.000000	1.012564	7.36971e+06	-53339.1	1005.82	-29746.7	0.000000	0.000000	7.014235	38.6682	NaN	0.000000	0.001658	0.001804	28.0797	21.7839	0.001674	13013.3	3.721345	-175.685	36.3969	1.012225	0.014795	0.014456	38.6682	13013.3	0.012567	0.012176	3175.82	107748
475	2.000000	1.014504	7.36971e+06	-53339.1	1005.82	-29746.7	0.000000	0.000000	7.016652	50.2566	NaN	0.000000	0.001639	0.001784	28.0796	24.1607	0.001690	14293.2	8.231860	177.463	48.2535	1.014254	0.016736	0.016485	50.2566	14293.2	0.014098	0.014102	3563.83	109967
475	2.000000	1.016560	7.36971e+06	-53339.1	1005.82	-29746.7	0.000000	0.000000	7.019246	63.3522	NaN	0.000000	0.001638	0.001810	28.0801	26.8113	0.001807	14838.7	5.699974	-179.74	62.8837	1.016222	0.018791	0.018454	63.3522	14838.7	0.015589	0.016079	3940.06	106916
475	2.000000	1.018521	7.36971e+06	-53339.1	1005.82	-29746.7	0.000000	0.000000	7.021799	77.7246	NaN	0.000000	0.001637	0.001802	28.0798	27.7253	0.001634	16965.5	5.356266	178.595	76.0606	1.018217	0.020753	0.020448	77.7246	16965.5	0.017317	0.018500	4201.33	113961
475	2.000000	1.020532	7.36971e+06	-53339.1	1005.82	-29746.7	0.000000	0.000000	7.024494	94.3686	NaN	0.000000	0.001633	0.001815	28.0794	30.654	0.001766	17362.3	6.194929	177.888	92.583	1.020228	0.022763	0.022459	94.3686	17362.3	0.018687	0.020521	4598.74	110735
475	2.000000	1.022504	7.36971e+06	-53339.1	1005.82	-29746.7	0.000000	0.000000	7.027172	111.544	NaN	0.000000	0.001627	0.001833	28.0796	32.5077	0.001860	17480.8	3.308775	-178.182	108.761	1.022174	0.024735	0.024405	111.544	17480.8	0.019950	0.022463	4965.67	106562
475	2.000000	1.024461	7.36971e+06	-53339.1	1005.82	-29746.7	0.000000	0.000000	7.029813	128.159	NaN	0.000000	0.001654	0.001824	28.0794	33.9316	0.001685	20140.1	3.042333	179.373	124.99	1.024211	0.026692	0.026443	128.159	20140.1	0.021920	0.025650	4996.54	114894
475	2.000000	1.026465	7.36971e+06	-53339.1	1005.82	-29746.7	0.000000	0.000000	7.032597	147.129	NaN	0.000000	0.001623	0.001815	28.081	37.1033	0.001869	19848.3	2.992335	-179.696	143.313	1.026151	0.028696	0.028382	147.129	19848.3	0.023137	0.027713	5308.99	108932
475	2.000000	1.028496	7.36971e+06	-53339.1	1005.82	-29746.7	0.000000	0.000000	7.035339	164.404	NaN	0.000000	0.001618	0.001818	28.0796	38.0839	0.001780	21395.3	3.475174	178.3	161.781	1.028202	0.030728	0.030434	164.404	21395.3	0.024965	0.030952	5311.63	111109
475	2.000000	1.030480	7.36971e+06	-53339.1	1005.82	-29746.7	0.000000	0.000000	7.037944	179.524	NaN	0.000000	0.001651	0.001788	28.0795	41.3577	0.001947	21241.6	7.253294	174.541	177.406	1.030295	0.032711	0.032527	179.524	21241.6	0.026373	0.033560	5349.3	105937
475	2.000000	1.032533	7.36971e+06	-53339.1	1005.82	-29746.7	0.000000	0.000000	7.040966	203.081	NaN	0.000000	0.001614	0.001828	28.0799	42.5187	0.001902	22357.7	6.527921	174.964	201.173	1.032177	0.034765	0.034408	203.081	22357.7	0.027952	0.036606	5547.72	106764
475	2.000000	1.034456	7.36971e+06	-53339.1	1005.82	-29746.7	0.000000	0.000000	7.043693	222.626	NaN	0.000000	0.001649	0.001791	28.0796	43.1096	0.001781	24208.2	4.931467	176.677	220.179	1.034196	0.036687	0.036427	222.626	24208.2	0.029790	0.040309	5522.94	110162
475	2.000000	1.036470	7.36971e+06	-53339.1	1005.82	-29746.7	0.000000	0.000000	7.046577	243.761	NaN	0.000000	0.001730	0.001806	28.0812	44.7427	0.001744	25652.1	1.250783	179.039	240.342	1.036138	0.038702	0.038369	243.761	25652.1	0.031575	0.044071	5531.08	111640
475	2.000000	1.038468	7.36971e+06	-53339.1	1005.82	-29746.7	0.000000	0.000000	7.049325	262.005	NaN	0.000000	0.001658	0.001787	28.0808	45.706	0.001774	25769	3.316267	177.15	259.188	1.038135	0.040700	0.040367	262.005	25769	0.033074	0.047357	5532.52	108188
475	2.000000	1.040461	7.36971e+06	-53339.1	1005.82	-29746.7	0.000000	0.000000	7.052223	284.008	NaN	0.000000	0.001734	0.001798	28.0809	47.9228	0.001793	26725.1	6.610734	173.169	281.026	1.040173	0.042692	0.042405	284.008	26725.1	0.034722	0.051101	5557.77	108013
475	2.000000	1.042472	7.36971e+06	-53339.1	1005.82	-29746.7	0.000000	0.000000	7.054680	294.867	NaN	0.000000	0.001704	0.001800	28.081	49.3746	0.001738	28405.7	3.213279	176.82	291.444	1.042046	0.044703	0.044277	294.867	28405.7	0.036918	0.056306	5236.88	109371
475	2.000000	1.044530	7.36971e+06	-53339.1	1005.82	-29746.7	0.000000	0.000000	7.057441	311.931	NaN	0.000000	0.001740	0.001816	28.0809	50.4732	0.001855	27212.4	8.191311	173.686	313.49	1.044128	0.046762	0.046359	311.931	27212.4	0.038165	0.059371	5253.92	102036
475	2.000000	1.046372	7.36971e+06	-53339.1	1005.82	-29746.7	0.000000	0.000000	7.059997	329.323	NaN	0.000000	0.001750	0.001813	28.0811	52.013	0.001860	27958.6	3.080790	177.385	322.655	1.046105	0.048603	0.048337	329.323	27958.6	0.039769	0.063433	5191.67	101422
475	2.000000	1.048596	7.36971e+06	-53339.1	1005.82	-29746.7	0.000000	0.000000	7.062935	346.667	NaN	0.000000	0.001775	0.001799	28.0808	53.8322	0.001818	29614	8.772197	172.304	350.768	1.048197	0.050827	0.050429	346.667	29614	0.042048	0.069428	4993.2	102684
475	2.000000	1.050541	7.36971e+06	-53339.1	1005.82	-29746.7	0.000000	0.000000	7.065256	355.794	NaN	0.000000	0.001728	0.001796	28.0809	56.025	0.001757	31884.1	6.152274	173.679	356.012	1.050133	0.052773	0.052364	355.794	31884.1	0.044404	0.075903	4687.48	105735
475	2.000000	1.052468	7.36971e+06	-53339.1	1005.82	-29746.7	0.000000	0.000000	7.068131	378.851	NaN	0.000000	0.001694	0.001772	28.0807	56.7426	0.001711	33161.9	5.756567	173.211	375.248	1.052113	0.054700	0.054345	378.851	33161.9	0.046132	0.080833	4686.86	106566
475	2.000000	1.054428	7.36971e+06	-53339.1	1005.82	-29746.7	0.000000	0.000000	7.070789	395.833	NaN	0.000000	0.001680	0.001789	28.0809	58.0787	0.001808	32125.9	1.205926	177.554	391.206	1.054091	0.056659	0.056323	395.833	32125.9	0.047418	0.084600	4678.88	100912
475	2.000000	1.056398	7.36971e+06	-53339.1	1005.82	-29746.7	0.000000	0.000000	7.073505	413.969	NaN	0.000000	0.001681	0.001849	28.081	59.7868	0.001910	31301.6	0.564769	178.252	409.976	1.056185	0.058630	0.058416	413.969	31301.6	0.048711	0.088469	4679.23	96148.5
475	2.000000	1.058432	7.36971e+06	-53339.1	1005.82	-29746.7	0.000000	0.000000	7.075997	425.099	NaN	0.000000	0.001677	0.001825	28.0809	60.6126	0.001785	33959.7	1.744369	176.568	422.472	1.058195	0.060664	0.060426	425.099	33959.7	0.051276	0.096397	4409.88	99932.3
475	2.000000	1.060389	7.36971e+06	-53339.1	1005.82	-29746.7	0.000000	0.000000	7.079154	454.277	NaN	0.000000	0.001623	0.001812	28.0813	62.2057	0.001857	33500.7	3.269438	174.813	447.444	1.060060	0.062621	0.062291	454.277	33500.7	0.052450	0.100138	4536.52	96722.7
475	2.000000	1.062514	7.36971e+06	-53339.1	1005.82	-29746.7	0.000000	0.000000	7.081918	469.817	NaN	0.000000	0.001646	0.001827	28.0807	63.5228	0.001876	33864.8	3.432049	174.863	468.804	1.062323	0.064745	0.064554	469.817	33864.8	0.054340	0.106299	4419.79	94898.1
475	2.000000	1.064482	7.36971e+06	-53339.1	1005.82	-29746.7	0.000000	0.000000	7.084965	496.036	NaN	0.000000	0.001626	0.001800	28.0809	65.7464	0.001792	36693.7	7.299123	172.041	495.679	1.064082	0.066714	0.066313	496.036	36693.7	0.056575	0.113815	4358.28	99372.4
475	2.000000	1.066367	7.36971e+06	-53339.1	1005.82	-29746.7	0.000000	0.000000	7.087199	504.543	NaN	0.000000	0.001594	0.001802	28.0811	66.3435	0.001829	36272.2	2.780543	175.532	498.665	1.066030	0.068598	0.068262	504.543	36272.2	0.058166	0.119313	4228.72	95940.5
475	2.000000	1.068366	7.36971e+06	-53339.1	1005.82	-29746.7	0.000000	0.000000	7.089931	522.344	NaN	0.000000	0.001558	0.001798	28.0809	66.9464	0.001882	35577	4.878854	173.054	515.915	1.068143	0.070597	0.070375	522.344	35577	0.059586	0.124327	4201.36	92184.9
475	2.000000	1.070436	7.36971e+06	-53339.1	1005.82	-29746.7	0.000000	0.000000	7.093342	554.948	NaN	0.000000	0.001590	0.001765	28.0802	68.4513	0.001777	38522.9	5.426838	171.833	552.824	1.070127	0.072668	0.072359	554.948	38522.9	0.061864	0.132576	4185.89	96662.8
475	2.000000	1.072622	7.36971e+06	-53339.1	1005.82	-29746.7	0.000000	0.000000	7.095443	552.887	NaN	0.000000	0.001571	0.001778	28.0797	69.9909	0.001885	37126.6	3.894114	173.701	556.914	1.072444	0.074854	0.074675	552.887	37126.6	0.063685	0.139353	3967.54	90865.8
475	2.000000	1.074477	7.36971e+06	-53339.1	1005.82	-29746.7	0.000000	0.000000	7.098465	581.268	NaN	0.000000	0.001626	0.001780	28.0798	71.7821	0.001825	39335.6	4.754697	172.412	581.701	1.074120	0.076708	0.076352	581.268	39335.6	0.065625	0.146749	3960.95	93814.7
475	2.000000	1.076683	7.36971e+06	-53339.1	1005.82	-29746.7	0.000000	0.000000	7.100830	585.11	NaN	0.000000	0.001644	0.001780	28.0798	73.3657	0.001846	39739.1	7.554175	169.903	598.655	1.076309	0.078915	0.078540	585.11	39739.1	0.067872	0.155539	3761.83	92060.1
475	2.000000	1.078363	7.36971e+06	-53339.1	1005.82	-29746.7	0.000000	0.000000	7.103733	614.862	NaN	0.000000	0.001657	0.001780	28.0796	73.5948	0.001854	39697.6	6.005841	171.684	609.99	1.078006	0.080595	0.080238	614.862	39697.6	0.068978	0.159956	3843.94	90685.2
475	2.000000	1.080451	7.36971e+06	-53339.1	1005.82	-29746.7	0.000000	0.000000	7.106535	632.214	NaN	0.000000	0.001712	0.001758	28.08	75.6014	0.001891	39976.5	4.200196	173.215	631.569	1.080063	0.082683	0.082295	632.214	39976.5	0.070822	0.167447	3775.61	89256.4
475	2.000000	1.082529	7.36971e+06	-53339.1	1005.82	-29746.7	0.000000	0.000000	7.109065	643.2	NaN	0.000000	0.001578	0.001758	28.0795	76.4705	0.001779	42980.3	3.168503	173.849	644.627	1.082161	0.084761	0.084392	643.2	42980.3	0.073537	0.178772	3597.87	92873.7
475	2.000000	1.084472	7.36971e+06	-53339.1	1005.82	-29746.7	0.000000	0.000000	7.111447	653.88	NaN	0.000000	0.001609	0.001768	28.0796	77.8923	0.001936	40226.3	4.532022	172.902	651.874	1.084155	0.086704	0.086387	653.88	40226.3	0.074513	0.182928	3574.52	85929.7
475	2.000000	1.086568	7.36971e+06	-53339.1	1005.82	-29746.7	0.000000	0.000000	7.113700	657.694	NaN	0.000000	0.001648	0.001762	28.0796	79.9143	0.001942	41154	4.492732	172.19	660.69	1.086345	0.088799	0.088577	657.694	41154	0.076813	0.192903	3409.45	85608.2
475	2.000000	1.088359	7.36971e+06	-53339.1	1005.82	-29746.7	0.000000	0.000000	7.116425	680.387	NaN	0.000000	0.001620	0.001781	28.0797	78.9506	0.001777	44422.2	1.799060	174.483	675.426	1.088149	0.090591	0.090380	680.387	44422.2	0.079103	0.203078	3350.37	90061.9
475	2.000000	1.090411	7.36971e+06	-53339.1	1005.82	-29746.7	0.000000	0.000000	7.119741	711.135	NaN	0.000000	0.001602	0.001800	28.0804	81.9191	0.001883	43512.7	1.183100	175.945	708.73	1.090039	0.092643	0.092271	711.135	43512.7	0.080385	0.208881	3404.5	86984.1
475	2.000000	1.092466	7.36971e+06	-53339.1	1005.82	-29746.7	0.000000	0.000000	7.122201	720.962	NaN	0.000000	0.001629	0.001752	28.0795	83.738	0.001839	45525	4.574929	171.966	719.656	1.092110	0.094698	0.094342	720.962	45525	0.082820	0.220114	3275.4	88654.1
475	2.000000	1.092935	7.36971e+06	-53339.1	1005.82	-29746.7	0.000000	0.000000	7.122793	723.974	NaN	0.000000	0.001616	0.001749	28.0796	83.7996	0.001844	45437.1	1.320486	-4.663349	720.557	1.092638	0.095167	0.094869	723.974	45437.1	0.083216	0.221966	3261.63	88112.9