File: remote_trans/data/nanoindenter/0828-1/data/Data_2025-08-06,11h17m57s/2025-07-22_16-23-58_1_641.txt
2025-07-22, 16:23:58, 1
Index	Phase	Displacement	Time	Pos X	Pos Y	Pos Z	Rot A	Rot B	Piezo Z	Force A	Force B	Gripper	Voltage A	Voltage B	Temperature	Amplitude force	Amplitude pos	Stiffness	Phase shift	Phase excitation	Force A raw	Displacement raw	HMax	HMax raw	Real Force	Real Stiffness	Contact Depth	Area	Hardness	Reduced Mod.
[#]	[#]	[um]	[s]	[um]	[um]	[um]	[m°]	[m°]	[um]	[uN]	[uN]	[V]	[V]	[V]	[°C]	[uN]	[um]	[N/m]	[°]	[°]	[uN]	[um]	[um]	[um]	[uN]	[N/m]	[um]	[um^2]	[MPa]	[MPa]
641	1.000000	0.002564	7.37132e+06	-45039.1	1005.82	-29773.8	0.000000	0.000000	6.002782	0.092681	NaN	0.000000	0.001661	0.001698	28.0819	0.068468	0.000832	82.3191	173.562	-168.907	0.070035	0.001331	-0.919564	-0.920797	0.092681	82.3191	-0.920409	-1.917450E+12	-4.833538E-14	NaN
641	1.000000	0.010581	7.37132e+06	-45039.1	1005.82	-29773.8	0.000000	0.000000	6.010796	0.032238	NaN	0.000000	0.001680	0.001728	28.0818	0.079073	0.001090	72.5401	144.928	-162.126	-0.016233	0.009247	-0.911547	-0.912881	0.032238	72.5401	-0.911881	-1.470831E+12	-2.191817E-14	NaN
641	1.000000	0.018544	7.37132e+06	-45039.1	1005.82	-29773.8	0.000000	0.000000	6.018758	0.004648	NaN	0.000000	0.001674	0.001738	28.0819	0.012263	0.001722	7.120640	-83.7547	-165.726	0.119874	0.017232	-0.903584	-0.904896	0.004648	7.120640	-0.904073	-1.153729E+12	-4.028637E-15	NaN
641	1.000000	0.026563	7.37132e+06	-45039.1	1005.82	-29773.8	0.000000	0.000000	6.026779	0.033576	NaN	0.000000	0.001704	0.001757	28.082	0.080279	0.001727	46.4866	-55.3825	-165.083	0.045189	0.025189	-0.895565	-0.896939	0.033576	46.4866	-0.896107	-9.004376E+11	-3.728832E-14	NaN
641	1.000000	0.034548	7.37132e+06	-45039.1	1005.82	-29773.8	0.000000	0.000000	6.034763	0.030629	NaN	0.000000	0.001652	0.001748	28.0831	0.108312	0.001934	56.0166	-5.218584	-162.967	0.115841	0.033201	-0.887580	-0.888927	0.030629	56.0166	-0.887990	-6.994375E+11	-4.379072E-14	NaN
641	1.000000	0.042548	7.37132e+06	-45039.1	1005.82	-29773.8	0.000000	0.000000	6.042761	-0.015782	NaN	0.000000	0.001647	0.001775	28.0831	0.012492	0.001963	6.364579	-106.446	-161.964	0.052826	0.041219	-0.879580	-0.880909	-0.015782	6.364579	-0.877721	-5.080190E+11	3.106502E-14	NaN
641	1.000000	0.050491	7.37132e+06	-45039.1	1005.82	-29773.8	0.000000	0.000000	6.050703	-0.062318	NaN	0.000000	0.001659	0.001749	28.0833	0.026447	0.001916	13.8048	-134.977	-166.732	-0.106381	0.049199	-0.871637	-0.872929	-0.062318	13.8048	-0.868251	-3.782535E+11	1.647510E-13	NaN
641	1.000000	0.058510	7.37132e+06	-45039.1	1005.82	-29773.8	0.000000	0.000000	6.058721	-0.077162	NaN	0.000000	0.001646	0.001740	28.0831	0.095666	0.001971	48.5363	-117.526	-165.239	-0.024551	0.057207	-0.863618	-0.864921	-0.077162	48.5363	-0.862425	-3.154623E+11	2.446003E-13	NaN
641	1.000000	0.066553	7.37132e+06	-45039.1	1005.82	-29773.8	0.000000	0.000000	6.066770	0.064067	NaN	0.000000	0.001645	0.001741	28.0829	0.028774	0.001922	14.9677	133.192	-163.861	0.025837	0.065239	-0.855575	-0.856889	0.064067	14.9677	-0.858785	-2.816298E+11	-2.274875E-13	NaN
641	1.000000	0.074538	7.37132e+06	-45039.1	1005.82	-29773.8	0.000000	0.000000	6.074752	0.007881	NaN	0.000000	0.001662	0.001709	28.0832	0.062516	0.001998	31.2831	44.1459	-166.074	-0.031314	0.073243	-0.847590	-0.848885	0.007881	31.2831	-0.847779	-1.998303E+11	-3.943622E-14	NaN
641	1.000000	0.082566	7.37132e+06	-45039.1	1005.82	-29773.8	0.000000	0.000000	6.082781	0.030025	NaN	0.000000	0.001650	0.001762	28.0829	0.082424	0.001935	42.6029	-108.418	-162.841	0.036744	0.081175	-0.839562	-0.840953	0.030025	42.6029	-0.840091	-1.572257E+11	-1.909645E-13	NaN
641	1.000000	0.090565	7.37132e+06	-45039.1	1005.82	-29773.8	0.000000	0.000000	6.090779	0.003808	NaN	0.000000	0.001640	0.001749	28.0829	0.088937	0.001909	46.5836	-150.757	-165.291	0.016485	0.089245	-0.831563	-0.832883	0.003808	46.5836	-0.831625	-1.207269E+11	-3.154270E-14	NaN
641	1.000000	0.098561	7.37132e+06	-45039.1	1005.82	-29773.8	0.000000	0.000000	6.098777	0.039133	NaN	0.000000	0.001651	0.001755	28.0829	0.085266	0.001985	42.9652	-72.3148	-167.128	0.080245	0.097267	-0.823567	-0.824861	0.039133	42.9652	-0.824250	-9.590353E+10	-4.080475E-13	NaN
641	1.000000	0.106566	7.37132e+06	-45039.1	1005.82	-29773.8	0.000000	0.000000	6.106781	0.004255	NaN	0.000000	0.001644	0.001772	28.083	0.115380	0.002105	54.8094	104.118	-166.137	-0.043767	0.105292	-0.815562	-0.816836	0.004255	54.8094	-0.815620	-7.325045E+10	-5.808684E-14	NaN
641	1.000000	0.114540	7.37132e+06	-45039.1	1005.82	-29773.8	0.000000	0.000000	6.114753	-0.017155	NaN	0.000000	0.001655	0.001780	28.0832	0.072425	0.002163	33.4776	-93.6289	-166.331	0.008672	0.113272	-0.807588	-0.808856	-0.017155	33.4776	-0.807204	-5.631638E+10	3.046178E-13	NaN
641	1.000000	0.122560	7.37132e+06	-45039.1	1005.82	-29773.8	0.000000	0.000000	6.122777	0.060662	NaN	0.000000	0.001629	0.001783	28.0827	0.025721	0.002004	12.8341	-103.848	-166.723	0.067135	0.121232	-0.799568	-0.800896	0.060662	12.8341	-0.803113	-4.955814E+10	-1.224063E-12	NaN
641	1.000000	0.130555	7.37132e+06	-45039.1	1005.82	-29773.8	0.000000	0.000000	6.130771	0.047359	NaN	0.000000	0.001621	0.001793	28.0828	0.031936	0.002032	15.7186	50.7864	-163.036	0.030343	0.129249	-0.791573	-0.792879	0.047359	15.7186	-0.793833	-3.707967E+10	-1.277219E-12	NaN
641	1.000000	0.138558	7.37132e+06	-45039.1	1005.82	-29773.8	0.000000	0.000000	6.138772	-0.025113	NaN	0.000000	0.001634	0.001771	28.0827	0.020291	0.001896	10.6997	59.9792	-167.444	-0.046162	0.137264	-0.783570	-0.784864	-0.025113	10.6997	-0.781809	-2.545754E+10	9.864810E-13	NaN
641	1.000000	0.146584	7.37132e+06	-45039.1	1005.82	-29773.8	0.000000	0.000000	6.146798	-0.006482	NaN	0.000000	0.001670	0.001773	28.083	0.107612	0.002034	52.8942	-88.848	-164.676	0.076025	0.145268	-0.775544	-0.776859	-0.006482	52.8942	-0.775452	-2.086498E+10	3.106600E-13	NaN
641	1.000000	0.154567	7.37132e+06	-45039.1	1005.82	-29773.8	0.000000	0.000000	6.154783	0.033394	NaN	0.000000	0.001659	0.001734	28.0832	0.093834	0.002085	45.0019	72.8583	-166.472	-0.028051	0.153329	-0.767560	-0.768799	0.033394	45.0019	-0.768117	-1.658449E+10	-2.013560E-12	NaN
641	1.000000	0.162560	7.37132e+06	-45039.1	1005.82	-29773.8	0.000000	0.000000	6.162774	-0.006485	NaN	0.000000	0.001642	0.001717	28.0828	0.010515	0.002015	5.219005	178.732	-166.451	-0.014405	0.161282	-0.759567	-0.760845	-0.006485	5.219005	-0.758636	-1.232366E+10	5.261922E-13	NaN
641	1.000000	0.170576	7.37132e+06	-45039.1	1005.82	-29773.8	0.000000	0.000000	6.170792	0.050268	NaN	0.000000	0.001643	0.001748	28.082	0.065948	0.002117	31.1573	-60.3829	-164.934	0.129304	0.169265	-0.751552	-0.752863	0.050268	31.1573	-0.752762	-1.025225E+10	-4.903081E-12	NaN
641	1.000000	0.178553	7.37132e+06	-45039.1	1005.82	-29773.8	0.000000	0.000000	6.178767	-0.002756	NaN	0.000000	0.001682	0.001757	28.0818	0.030639	0.002120	14.4526	94.4352	-165.33	0.005715	0.177292	-0.743575	-0.744835	-0.002756	14.4526	-0.743432	-7.652355E+9	3.602049E-13	NaN
641	1.000000	0.186574	7.37132e+06	-45039.1	1005.82	-29773.8	0.000000	0.000000	6.186789	0.025223	NaN	0.000000	0.001660	0.001741	28.0818	0.018913	0.002027	9.328242	81.8924	-162.903	0.015471	0.185286	-0.735554	-0.736842	0.025223	9.328242	-0.737582	-6.369641E+9	-3.959809E-12	NaN
641	1.000000	0.194583	7.37132e+06	-45039.1	1005.82	-29773.8	0.000000	0.000000	6.194798	0.005190	NaN	0.000000	0.001700	0.001729	28.0817	0.039776	0.001944	20.4636	-54.2567	-162.488	0.069605	0.193276	-0.727545	-0.728852	0.005190	20.4636	-0.727735	-4.676625E+9	-1.109676E-12	NaN
641	1.000000	0.202616	7.37132e+06	-45039.1	1005.82	-29773.8	0.000000	0.000000	6.202831	0.014160	NaN	0.000000	0.001678	0.001742	28.0819	0.107601	0.001949	55.2171	46.9723	-169.405	0.040703	0.201329	-0.719512	-0.720799	0.014160	55.2171	-0.719704	-3.634414E+9	-3.896223E-12	NaN
641	1.000000	0.210584	7.37132e+06	-45039.1	1005.82	-29773.8	0.000000	0.000000	6.210797	-0.041784	NaN	0.000000	0.001655	0.001722	28.0814	0.048373	0.001936	24.9892	-49.8716	-165.02	-0.025242	0.209298	-0.711543	-0.712830	-0.041784	24.9892	-0.710289	-2.703942E+9	1.545303E-11	NaN
641	1.000000	0.218588	7.37132e+06	-45039.1	1005.82	-29773.8	0.000000	0.000000	6.218801	-0.025650	NaN	0.000000	0.001666	0.001717	28.0818	0.027522	0.001950	14.1102	-179.075	-164.243	-0.018354	0.217307	-0.703540	-0.704821	-0.025650	14.1102	-0.702177	-2.095338E+9	1.224170E-11	NaN
641	1.000000	0.226615	7.37132e+06	-45039.1	1005.82	-29773.8	0.000000	0.000000	6.226829	-0.012869	NaN	0.000000	0.001622	0.001745	28.082	0.030222	0.002051	14.7336	98.0249	-165.133	-0.006140	0.225234	-0.695513	-0.696894	-0.012869	14.7336	-0.694858	-1.664541E+9	7.731542E-12	NaN
641	1.000000	0.234604	7.37132e+06	-45039.1	1005.82	-29773.8	0.000000	0.000000	6.234819	0.029513	NaN	0.000000	0.001654	0.001727	28.0813	0.055906	0.002049	27.2821	106.584	-161.628	0.014683	0.233268	-0.687524	-0.688860	0.029513	27.2821	-0.688336	-1.355718E+9	-2.176926E-11	NaN
641	1.000000	0.242587	7.37132e+06	-45039.1	1005.82	-29773.8	0.000000	0.000000	6.242803	0.049058	NaN	0.000000	0.001624	0.001718	28.0819	0.037947	0.002063	18.3945	-127.371	-167.378	0.013670	0.241314	-0.679541	-0.680814	0.049058	18.3945	-0.681541	-1.094675E+9	-4.481520E-11	NaN
641	1.000000	0.250597	7.37132e+06	-45039.1	1005.82	-29773.8	0.000000	0.000000	6.250813	0.021148	NaN	0.000000	0.001697	0.001736	28.0815	0.078881	0.002032	38.8179	-35.1239	-167.762	0.135430	0.249299	-0.671531	-0.672829	0.021148	38.8179	-0.671939	-8.089641E+8	-2.614257E-11	NaN
641	1.000000	0.258615	7.37132e+06	-45039.1	1005.82	-29773.8	0.000000	0.000000	6.258828	-0.036717	NaN	0.000000	0.001686	0.001729	28.0815	0.013447	0.002024	6.642694	-59.8214	-164.969	0.010960	0.257303	-0.663513	-0.664825	-0.036717	6.642694	-0.659368	-5.442588E+8	6.746280E-11	NaN
641	1.000000	0.266643	7.37132e+06	-45039.1	1005.82	-29773.8	0.000000	0.000000	6.266858	0.016513	NaN	0.000000	0.001641	0.001731	28.0815	0.066854	0.002041	32.7566	-64.547	-168.565	0.007588	0.265289	-0.655485	-0.656839	0.016513	32.7566	-0.655863	-4.872999E+8	-3.388631E-11	NaN
641	1.000000	0.274623	7.37132e+06	-45039.1	1005.82	-29773.8	0.000000	0.000000	6.274839	0.052119	NaN	0.000000	0.001671	0.001698	28.0814	0.046984	0.002043	22.9937	1.271652	-167.569	0.072002	0.273322	-0.647505	-0.648806	0.052119	22.9937	-0.649205	-3.949462E+8	-1.319643E-10	NaN
641	1.000000	0.282647	7.37132e+06	-45039.1	1005.82	-29773.8	0.000000	0.000000	6.282861	-0.000884	NaN	0.000000	0.001663	0.001735	28.0818	0.016400	0.002163	7.581683	-46.797	-166.486	0.036147	0.281319	-0.639481	-0.640809	-0.000884	7.581683	-0.639394	-2.897149E+8	3.052599E-12	NaN
641	1.000000	0.290597	7.37132e+06	-45039.1	1005.82	-29773.8	0.000000	0.000000	6.290810	-0.029819	NaN	0.000000	0.001659	0.001739	28.0814	0.140073	0.001919	72.9769	6.911344	-164.612	-0.042883	0.289278	-0.631531	-0.632849	-0.029819	72.9769	-0.631225	-2.237902E+8	1.332462E-10	NaN
641	1.000000	0.298635	7.37132e+06	-45039.1	1005.82	-29773.8	0.000000	0.000000	6.298850	0.009135	NaN	0.000000	0.001641	0.001697	28.0817	0.076488	0.002040	37.4917	-133.286	-167.23	-0.011023	0.297387	-0.623493	-0.624741	0.009135	37.4917	-0.623675	-1.762566E+8	-5.182964E-11	NaN
641	1.000000	0.306631	7.37132e+06	-45039.1	1005.82	-29773.8	0.000000	0.000000	6.306845	-0.003290	NaN	0.000000	0.001664	0.001703	28.0829	0.078168	0.002139	36.5371	-107.429	-165.271	-0.022000	0.305349	-0.615497	-0.616779	-0.003290	36.5371	-0.615429	-1.357675E+8	2.423035E-11	NaN
641	1.000000	0.314651	7.37132e+06	-45039.1	1005.82	-29773.8	0.000000	0.000000	6.314864	-0.049301	NaN	0.000000	0.001636	0.001721	28.0828	0.012651	0.002038	6.207726	-93.2248	-164.699	-0.063260	0.313373	-0.607477	-0.608755	-0.049301	6.207726	-0.601520	-8.737658E+7	5.642362E-10	NaN
641	1.000000	0.322667	7.37132e+06	-45039.1	1005.82	-29773.8	0.000000	0.000000	6.322882	0.006596	NaN	0.000000	0.001665	0.001686	28.0834	0.141332	0.001992	70.9662	111.849	-163.929	0.040709	0.321346	-0.599461	-0.600782	0.006596	70.9662	-0.599531	-8.203419E+7	-8.041045E-11	NaN
641	1.000000	0.330653	7.37132e+06	-45039.1	1005.82	-29773.8	0.000000	0.000000	6.330865	-0.041478	NaN	0.000000	0.001647	0.001736	28.0831	0.026186	0.002045	12.8058	-33.6911	-163.781	-0.031208	0.329310	-0.591475	-0.592818	-0.041478	12.8058	-0.589046	-5.881789E+7	7.051963E-10	NaN
641	1.000000	0.338626	7.37132e+06	-45039.1	1005.82	-29773.8	0.000000	0.000000	6.338839	-0.033722	NaN	0.000000	0.001681	0.001700	28.0831	0.070634	0.002021	34.9535	14.4991	-163.213	-0.039608	0.337332	-0.583501	-0.584796	-0.033722	34.9535	-0.582778	-4.820131E+7	6.996088E-10	NaN
641	1.000000	0.346651	7.37132e+06	-45039.1	1005.82	-29773.8	0.000000	0.000000	6.346863	-0.049384	NaN	0.000000	0.001656	0.001706	28.0829	0.077204	0.002045	37.7533	-177.388	-166.975	-0.014034	0.345365	-0.575477	-0.576763	-0.049384	37.7533	-0.574496	-3.704575E+7	1.333048E-9	NaN
641	1.000000	0.354643	7.37132e+06	-45039.1	1005.82	-29773.8	0.000000	0.000000	6.354854	-0.082316	NaN	0.000000	0.001660	0.001688	28.083	0.089079	0.002102	42.3883	-163.7	-164.575	0.081382	0.353396	-0.567485	-0.568732	-0.082316	42.3883	-0.566028	-2.829712E+7	2.908996E-9	NaN
641	1.000000	0.362670	7.37132e+06	-45039.1	1005.82	-29773.8	0.000000	0.000000	6.362883	-0.016059	NaN	0.000000	0.001672	0.001667	28.0831	0.086527	0.002030	42.6238	71.5391	-162.478	0.042736	0.361392	-0.559458	-0.560736	-0.016059	42.6238	-0.559176	-2.274953E+7	7.059005E-10	NaN
641	1.000000	0.370660	7.37132e+06	-45039.1	1005.82	-29773.8	0.000000	0.000000	6.370872	-0.047294	NaN	0.000000	0.001676	0.001718	28.0829	0.088773	0.001969	45.0858	41.8699	-164.801	-0.004699	0.369357	-0.551468	-0.552771	-0.047294	45.0858	-0.550681	-1.735372E+7	2.725318E-9	NaN
641	1.000000	0.378662	7.37132e+06	-45039.1	1005.82	-29773.8	0.000000	0.000000	6.378876	-0.001585	NaN	0.000000	0.001683	0.001692	28.0831	0.033958	0.001868	18.1788	0.906766	-165.586	-0.007581	0.377328	-0.543466	-0.544800	-0.001585	18.1788	-0.543401	-1.375664E+7	1.152161E-10	NaN
641	1.000000	0.386674	7.37132e+06	-45039.1	1005.82	-29773.8	0.000000	0.000000	6.386889	0.015501	NaN	0.000000	0.001701	0.001723	28.0829	0.029412	0.001992	14.7619	-142.178	-164.898	-0.057016	0.385356	-0.535454	-0.536771	0.015501	14.7619	-0.536241	-1.094506E+7	-1.416235E-9	NaN
641	1.000000	0.394676	7.37132e+06	-45039.1	1005.82	-29773.8	0.000000	0.000000	6.394892	0.019107	NaN	0.000000	0.001681	0.001712	28.0832	0.036262	0.002191	16.5492	18.2292	-167.667	0.027459	0.393398	-0.527451	-0.528730	0.019107	16.5492	-0.528317	-8.49578e+06	-2.249040E-9	NaN
641	1.000000	0.402704	7.37132e+06	-45039.1	1005.82	-29773.8	0.000000	0.000000	6.402920	0.035789	NaN	0.000000	0.001737	0.001726	28.0831	0.066202	0.002046	32.3597	3.831466	-162.185	0.069083	0.401363	-0.519424	-0.520765	0.035789	32.3597	-0.520253	-6.56322e+06	-5.453034E-9	NaN
641	1.000000	0.410690	7.37132e+06	-45039.1	1005.82	-29773.8	0.000000	0.000000	6.410907	0.050727	NaN	0.000000	0.001671	0.001759	28.0829	0.133839	0.002076	64.4714	158.826	-162.428	0.041533	0.409312	-0.511438	-0.512816	0.050727	64.4714	-0.512028	-5.04262e+06	-1.005963E-8	NaN
641	1.000000	0.418673	7.37132e+06	-45039.1	1005.82	-29773.8	0.000000	0.000000	6.418885	-0.050970	NaN	0.000000	0.001700	0.001704	28.0831	0.039107	0.002026	19.3062	14.0111	-166.514	-0.030295	0.417415	-0.503455	-0.504713	-0.050970	19.3062	-0.501475	-3.5941e+06	1.418167E-8	NaN
641	1.000000	0.426692	7.37132e+06	-45039.1	1005.82	-29773.8	0.000000	0.000000	6.426909	0.047084	NaN	0.000000	0.001676	0.001714	28.083	0.113372	0.001968	57.5966	124.093	-164.768	0.021194	0.425366	-0.495436	-0.496761	0.047084	57.5966	-0.496049	-3.01909e+06	-1.559530E-8	NaN
641	1.000000	0.434703	7.37132e+06	-45039.1	1005.82	-29773.8	0.000000	0.000000	6.434922	0.103272	NaN	0.000000	0.001715	0.001684	28.0831	0.092903	0.001900	48.9076	-171.184	-167.168	0.144811	0.433403	-0.487425	-0.488725	0.103272	48.9076	-0.489008	-2.40731e+06	-4.289923E-8	NaN
641	1.000000	0.442711	7.37132e+06	-45039.1	1005.82	-29773.8	0.000000	0.000000	6.442925	-0.020785	NaN	0.000000	0.001626	0.001697	28.0816	0.033453	0.002049	16.3285	50.4154	-163.428	-0.005241	0.441403	-0.479417	-0.480725	-0.020785	16.3285	-0.478462	-1.71392e+06	1.212735E-8	NaN
641	1.000000	0.450697	7.37132e+06	-45039.1	1005.82	-29773.8	0.000000	0.000000	6.450911	0.004066	NaN	0.000000	0.001640	0.001746	28.0817	0.091817	0.001966	46.7032	-101.389	-167.215	-0.030458	0.449387	-0.471431	-0.472741	0.004066	46.7032	-0.471496	-1.36897e+06	-2.970142E-9	NaN
641	1.000000	0.458682	7.37132e+06	-45039.1	1005.82	-29773.8	0.000000	0.000000	6.458896	-0.001470	NaN	0.000000	0.001623	0.001679	28.0816	0.147863	0.001968	75.1282	-9.783534	-163.634	-0.004510	0.457402	-0.463446	-0.464726	-0.001470	75.1282	-0.463431	-1.05492e+06	1.393819E-9	NaN
641	1.000000	0.466695	7.37132e+06	-45039.1	1005.82	-29773.8	0.000000	0.000000	6.466909	-0.013108	NaN	0.000000	0.001611	0.001726	28.0817	0.050098	0.001937	25.8599	-160.506	-164.056	-0.065078	0.465372	-0.455433	-0.456756	-0.013108	25.8599	-0.455053	-804379	1.629589E-8	NaN
641	1.000000	0.474691	7.37132e+06	-45039.1	1005.82	-29773.8	0.000000	0.000000	6.474906	0.017882	NaN	0.000000	0.001611	0.001752	28.0825	0.035623	0.002124	16.7714	25.8613	-162.582	-0.010879	0.473382	-0.447437	-0.448746	0.017882	16.7714	-0.448237	-644928	-2.772742E-8	NaN
641	1.000000	0.482718	7.37132e+06	-45039.1	1005.82	-29773.8	0.000000	0.000000	6.482934	0.039367	NaN	0.000000	0.001662	0.001770	28.0815	0.053170	0.001853	28.6888	65.1884	-165.019	0.064611	0.481404	-0.439410	-0.440724	0.039367	28.6888	-0.440439	-500677	-7.862762E-8	NaN
641	1.000000	0.490757	7.37132e+06	-45039.1	1005.82	-29773.8	0.000000	0.000000	6.490971	-0.000828	NaN	0.000000	0.001644	0.001709	28.0821	0.059301	0.001931	30.7072	175.498	-166.286	-0.009380	0.489370	-0.431371	-0.432758	-0.000828	30.7072	-0.431351	-372536	2.222347E-9	NaN
641	1.000000	0.498733	7.37132e+06	-45039.1	1005.82	-29773.8	0.000000	0.000000	6.498949	0.033430	NaN	0.000000	0.001665	0.001711	28.0819	0.039823	0.002023	19.6871	-54.1886	-166.54	0.033603	0.497425	-0.423395	-0.424703	0.033430	19.6871	-0.424668	-299629	-1.115722E-7	NaN
641	1.000000	0.506719	7.37132e+06	-45039.1	1005.82	-29773.8	0.000000	0.000000	6.506932	-0.032099	NaN	0.000000	0.001679	0.001765	28.0822	0.101832	0.002022	50.3552	-101.094	-162.686	0.040802	0.505414	-0.415409	-0.416714	-0.032099	50.3552	-0.414931	-218009	1.472350E-7	NaN
641	1.000000	0.514733	7.37132e+06	-45039.1	1005.82	-29773.8	0.000000	0.000000	6.514951	0.084676	NaN	0.000000	0.001683	0.001726	28.0818	0.020742	0.002116	9.803708	171.955	-164.739	0.037133	0.513448	-0.407395	-0.408679	0.084676	9.803708	-0.413873	-210592	-4.020879E-7	NaN
641	1.000000	0.522740	7.37132e+06	-45039.1	1005.82	-29773.8	0.000000	0.000000	6.522955	-0.005040	NaN	0.000000	0.001680	0.001763	28.0818	0.098278	0.001895	51.8648	131.047	-164.397	-0.005167	0.521449	-0.399387	-0.400679	-0.005040	51.8648	-0.399315	-130683	3.856565E-8	NaN
641	1.000000	0.530731	7.37132e+06	-45039.1	1005.82	-29773.8	0.000000	0.000000	6.530946	0.020214	NaN	0.000000	0.001688	0.001753	28.0822	0.015946	0.001885	8.459067	-167.886	-164.71	-0.017977	0.529420	-0.391397	-0.392708	0.020214	8.459067	-0.393189	-106846	-1.891850E-7	NaN
641	1.000000	0.538725	7.37132e+06	-45039.1	1005.82	-29773.8	0.000000	0.000000	6.538939	-0.020300	NaN	0.000000	0.001697	0.001728	28.0818	0.059127	0.002062	28.6749	-141.056	-161.089	0.006351	0.537396	-0.383402	-0.384732	-0.020300	28.6749	-0.382872	-76046.6	2.669383E-7	NaN
641	1.000000	0.546790	7.37132e+06	-45039.1	1005.82	-29773.8	0.000000	0.000000	6.547003	-0.030620	NaN	0.000000	0.001671	0.001717	28.082	0.105341	0.001901	55.4016	92.0585	-164.101	0.008979	0.545431	-0.375338	-0.376697	-0.030620	55.4016	-0.374923	-58474.2	5.236511E-7	NaN
641	1.000000	0.554754	7.37132e+06	-45039.1	1005.82	-29773.8	0.000000	0.000000	6.554971	0.066872	NaN	0.000000	0.001672	0.001741	28.0818	0.100915	0.001914	52.7176	-151.084	-161.188	0.074187	0.553428	-0.367374	-0.368700	0.066872	52.7176	-0.368326	-46990	-1.423121E-6	NaN
641	1.000000	0.562744	7.37132e+06	-45039.1	1005.82	-29773.8	0.000000	0.000000	6.562957	-0.026805	NaN	0.000000	0.001689	0.001737	28.0817	0.150342	0.001882	79.8725	-134.735	-164.81	-0.047542	0.561471	-0.359384	-0.360657	-0.026805	79.8725	-0.359132	-34617.6	7.743249E-7	NaN
641	1.000000	0.570784	7.37132e+06	-45039.1	1005.82	-29773.8	0.000000	0.000000	6.570998	-0.020247	NaN	0.000000	0.001714	0.001749	28.0819	0.062170	0.001991	31.2247	-129.872	-164.733	0.025700	0.569469	-0.351344	-0.352659	-0.020247	31.2247	-0.350857	-26269	7.707646E-7	NaN
641	1.000000	0.578762	7.37132e+06	-45039.1	1005.82	-29773.8	0.000000	0.000000	6.578976	-0.016110	NaN	0.000000	0.001652	0.001755	28.0831	0.109814	0.002018	54.412	109.884	-165.306	-0.115416	0.577427	-0.343366	-0.344700	-0.016110	54.412	-0.343144	-20293	7.938796E-7	NaN
641	1.000000	0.586765	7.37132e+06	-45039.1	1005.82	-29773.8	0.000000	0.000000	6.586981	0.033917	NaN	0.000000	0.001666	0.001711	28.0834	0.073334	0.001917	38.2528	-36.0677	-164.661	0.041399	0.585443	-0.335363	-0.336685	0.033917	38.2528	-0.336028	-15980.8	-2.122330E-6	NaN
641	1.000000	0.594774	7.37132e+06	-45039.1	1005.82	-29773.8	0.000000	0.000000	6.594991	0.057950	NaN	0.000000	0.001673	0.001774	28.0831	0.048598	0.002095	23.2005	114.22	-161.316	0.055419	0.593474	-0.327354	-0.328653	0.057950	23.2005	-0.329227	-12709.5	-4.559532E-6	NaN
641	1.000000	0.602746	7.37132e+06	-45039.1	1005.82	-29773.8	0.000000	0.000000	6.602959	-0.017013	NaN	0.000000	0.001661	0.001762	28.0831	0.040618	0.001916	21.1999	-7.120963	-164.168	-0.000991	0.601438	-0.319382	-0.320690	-0.017013	21.1999	-0.318780	-8926.53	1.905845E-6	NaN
641	1.000000	0.610767	7.37132e+06	-45039.1	1005.82	-29773.8	0.000000	0.000000	6.610981	-0.011380	NaN	0.000000	0.001620	0.001756	28.083	0.062760	0.002113	29.7022	3.850539	-167.598	-0.020718	0.609488	-0.311361	-0.312640	-0.011380	29.7022	-0.311073	-6869.68	1.656561E-6	NaN
641	1.000000	0.618775	7.37132e+06	-45039.1	1005.82	-29773.8	0.000000	0.000000	6.618989	-0.014192	NaN	0.000000	0.001647	0.001760	28.0831	0.094053	0.001988	47.3011	80.157	-165.837	0.009136	0.617441	-0.303353	-0.304687	-0.014192	47.3011	-0.303128	-5237.81	2.709624E-6	NaN
641	1.000000	0.626783	7.37132e+06	-45039.1	1005.82	-29773.8	0.000000	0.000000	6.626997	0.001465	NaN	0.000000	0.001664	0.001748	28.0831	0.007848	0.002079	3.774928	-67.7376	-161.517	0.019287	0.625456	-0.295345	-0.296672	0.001465	3.774928	-0.295636	-4051.26	-3.616310E-7	NaN
641	1.000000	0.634789	7.37132e+06	-45039.1	1005.82	-29773.8	0.000000	0.000000	6.635002	-0.030002	NaN	0.000000	0.001641	0.001724	28.0832	0.059772	0.002148	27.8279	147.494	-164.703	-0.044841	0.633452	-0.287339	-0.288676	-0.030002	27.8279	-0.286531	-2959.81	1.013648E-5	NaN
641	1.000000	0.642780	7.37132e+06	-45039.1	1005.82	-29773.8	0.000000	0.000000	6.642995	0.009871	NaN	0.000000	0.001668	0.001738	28.0833	0.096592	0.002116	45.644	59.4531	-168.175	0.045278	0.641472	-0.279347	-0.280656	0.009871	45.644	-0.279510	-2320.44	-4.253775E-6	NaN
641	1.000000	0.650813	7.37132e+06	-45039.1	1005.82	-29773.8	0.000000	0.000000	6.651027	0.001540	NaN	0.000000	0.001672	0.001749	28.083	0.058056	0.001990	29.1756	178.123	-167.073	0.001342	0.649530	-0.271315	-0.272598	0.001540	29.1756	-0.271355	-1746.34	-8.821002E-7	NaN
641	1.000000	0.658793	7.37132e+06	-45039.1	1005.82	-29773.8	0.000000	0.000000	6.659009	0.042393	NaN	0.000000	0.001635	0.001776	28.0827	0.131792	0.002036	64.7363	-87.336	-167.964	0.068310	0.657452	-0.263335	-0.264676	0.042393	64.7363	-0.263826	-1341.1	-3.161054E-5	NaN
641	1.000000	0.666785	7.37132e+06	-45039.1	1005.82	-29773.8	0.000000	0.000000	6.667001	0.049313	NaN	0.000000	0.001637	0.001738	28.0828	0.108326	0.002011	53.8539	-75.3741	-164.49	0.081660	0.665573	-0.255343	-0.256555	0.049313	53.8539	-0.256030	-1018.5	-4.841725E-5	NaN
641	1.000000	0.674812	7.37132e+06	-45039.1	1005.82	-29773.8	0.000000	0.000000	6.675025	-0.014474	NaN	0.000000	0.001641	0.001708	28.0828	0.108578	0.001955	55.5361	150.971	-165.828	0.019526	0.673524	-0.247316	-0.248604	-0.014474	55.5361	-0.247121	-741.952	1.950842E-5	NaN
641	1.000000	0.682803	7.37132e+06	-45039.1	1005.82	-29773.8	0.000000	0.000000	6.683015	-0.060575	NaN	0.000000	0.001638	0.001759	28.083	0.049806	0.001911	26.0658	8.505053	-162.645	-0.044887	0.681465	-0.239324	-0.240663	-0.060575	26.0658	-0.237582	-526.902	0.000115	NaN
641	1.000000	0.690784	7.37132e+06	-45039.1	1005.82	-29773.8	0.000000	0.000000	6.690999	0.009455	NaN	0.000000	0.001665	0.001776	28.0829	0.031556	0.001959	16.1051	-115.09	-165.577	0.049902	0.689541	-0.231344	-0.232587	0.009455	16.1051	-0.231784	-427.23	-2.213107E-5	NaN
641	1.000000	0.698809	7.37132e+06	-45039.1	1005.82	-29773.8	0.000000	0.000000	6.699023	0.000664	NaN	0.000000	0.001616	0.001756	28.0829	0.007559	0.002073	3.646830	116.692	-166.551	0.022479	0.697493	-0.223319	-0.224635	0.000664	3.646830	-0.223455	-315.339	-2.106525E-6	NaN
641	1.000000	0.706792	7.37132e+06	-45039.1	1005.82	-29773.8	0.000000	0.000000	6.707004	-0.040013	NaN	0.000000	0.001647	0.001737	28.0828	0.101403	0.001892	53.6054	117.818	-168.047	-0.038730	0.705422	-0.215336	-0.216706	-0.040013	53.6054	-0.214776	-229.043	0.000175	NaN
641	1.000000	0.714791	7.37132e+06	-45039.1	1005.82	-29773.8	0.000000	0.000000	6.715009	0.100306	NaN	0.000000	0.001669	0.001739	28.0815	0.138924	0.001988	69.8895	5.189012	-166.793	0.122224	0.713506	-0.207337	-0.208622	0.100306	69.8895	-0.208414	-180.759	-0.000555	NaN
641	1.000000	0.722825	7.37132e+06	-45039.1	1005.82	-29773.8	0.000000	0.000000	6.723041	0.048044	NaN	0.000000	0.001654	0.001763	28.0817	0.015784	0.002074	7.608933	-59.4452	-165.011	0.094191	0.721507	-0.199303	-0.200621	0.048044	7.608933	-0.204039	-153.416	-0.000313	NaN
641	1.000000	0.730849	7.37132e+06	-45039.1	1005.82	-29773.8	0.000000	0.000000	6.731065	0.055328	NaN	0.000000	0.001672	0.001727	28.0817	0.055313	0.001904	29.0444	37.1782	-163.773	0.097222	0.729479	-0.191279	-0.192649	0.055328	29.0444	-0.192708	-99.8075	-0.000554	NaN
641	1.000000	0.738815	7.37132e+06	-45039.1	1005.82	-29773.8	0.000000	0.000000	6.739031	0.039171	NaN	0.000000	0.001671	0.001754	28.082	0.093445	0.002142	43.6263	-158.067	-162.963	-0.016623	0.737481	-0.183313	-0.184647	0.039171	43.6263	-0.183986	-71.2901	-0.000549	NaN
641	1.000000	0.746816	7.37132e+06	-45039.1	1005.82	-29773.8	0.000000	0.000000	6.747030	-0.006931	NaN	0.000000	0.001665	0.001724	28.0816	0.015408	0.001992	7.735352	75.848	-165.145	0.000378	0.745531	-0.175312	-0.176597	-0.006931	7.735352	-0.174640	-49.4073	0.000140	NaN
641	1.000000	0.754819	7.37132e+06	-45039.1	1005.82	-29773.8	0.000000	0.000000	6.755035	0.036212	NaN	0.000000	0.001668	0.001715	28.0816	0.105708	0.001850	57.1328	-111.676	-162.941	0.000506	0.753515	-0.167309	-0.168613	0.036212	57.1328	-0.167784	-37.5877	-0.000963	NaN
641	1.000000	0.762811	7.37132e+06	-45039.1	1005.82	-29773.8	0.000000	0.000000	6.763025	-0.010033	NaN	0.000000	0.001657	0.001738	28.0815	0.073606	0.002119	34.7359	130.854	-165.793	0.077597	0.761555	-0.159317	-0.160573	-0.010033	34.7359	-0.159100	-26.4226	0.000380	NaN
641	1.000000	0.770835	7.37132e+06	-45039.1	1005.82	-29773.8	0.000000	0.000000	6.771053	0.081213	NaN	0.000000	0.001684	0.001736	28.0815	0.032534	0.001932	16.8433	-104.362	-166.058	0.077188	0.769507	-0.151292	-0.152621	0.081213	16.8433	-0.154909	-22.2299	-0.003653	NaN
641	1.000000	0.778846	7.37132e+06	-45039.1	1005.82	-29773.8	0.000000	0.000000	6.779061	0.015219	NaN	0.000000	0.001634	0.001754	28.082	0.157562	0.001944	81.0635	119.575	-165.874	0.050354	0.777542	-0.143282	-0.144586	0.015219	81.0635	-0.143423	-13.7063	-0.001110	NaN
641	1.000000	0.786825	7.37132e+06	-45039.1	1005.82	-29773.8	0.000000	0.000000	6.787039	-0.007312	NaN	0.000000	0.001634	0.001712	28.0816	0.146199	0.002157	67.7661	61.0951	-163.034	-0.066809	0.785516	-0.135303	-0.136612	-0.007312	67.7661	-0.135222	-9.605550	0.000761	NaN
641	1.000000	0.794849	7.37132e+06	-45039.1	1005.82	-29773.8	0.000000	0.000000	6.795062	-0.022501	NaN	0.000000	0.001621	0.001706	28.0819	0.025513	0.001982	12.8753	58.3806	-165.158	0.036281	0.793533	-0.127279	-0.128595	-0.022501	12.8753	-0.125968	-6.355023	0.003541	NaN
641	1.000000	0.802846	7.37132e+06	-45039.1	1005.82	-29773.8	0.000000	0.000000	6.803062	0.046961	NaN	0.000000	0.001639	0.001697	28.0816	0.079160	0.001969	40.1945	-145.362	-162.461	0.005020	0.801559	-0.119282	-0.120569	0.046961	40.1945	-0.120159	-4.867218	-0.009648	NaN
641	1.000000	0.810842	7.37132e+06	-45039.1	1005.82	-29773.8	0.000000	0.000000	6.811056	0.005593	NaN	0.000000	0.001676	0.001689	28.0817	0.027517	0.002136	12.8819	55.0428	-169.003	0.008775	0.809564	-0.111286	-0.112564	0.005593	12.8819	-0.111612	-3.248870	-0.001722	NaN
641	1.000000	0.818876	7.37132e+06	-45039.1	1005.82	-29773.8	0.000000	0.000000	6.819091	0.022682	NaN	0.000000	0.001695	0.001713	28.0816	0.028330	0.002047	13.8391	-149.869	-165.468	0.028053	0.817543	-0.103252	-0.104585	0.022682	13.8391	-0.104481	-2.290614	-0.009902	NaN
641	1.000000	0.826867	7.37132e+06	-45039.1	1005.82	-29773.8	0.000000	0.000000	6.827083	0.039083	NaN	0.000000	0.001649	0.001728	28.0814	0.055374	0.002132	25.9699	13.8232	-162.783	0.023342	0.825536	-0.095261	-0.096592	0.039083	25.9699	-0.096390	-1.516904	-0.025765	NaN
641	1.000000	0.834851	7.37132e+06	-45039.1	1005.82	-29773.8	0.000000	0.000000	6.835068	0.062701	NaN	0.000000	0.001681	0.001726	28.0818	0.111386	0.002058	54.1198	-36.2413	-164.511	0.023274	0.833580	-0.087277	-0.088547	0.062701	54.1198	-0.088146	-0.977403	-0.064150	NaN
641	1.000000	0.842860	7.37132e+06	-45039.1	1005.82	-29773.8	0.000000	0.000000	6.843075	0.026898	NaN	0.000000	0.001718	0.001730	28.0815	0.106203	0.001962	54.1322	-101.167	-163.875	-0.032304	0.841586	-0.079268	-0.080541	0.026898	54.1322	-0.079641	-0.606315	-0.044362	NaN
641	1.000000	0.850903	7.37132e+06	-45039.1	1005.82	-29773.8	0.000000	0.000000	6.851119	0.034304	NaN	0.000000	0.001669	0.001738	28.0827	0.094785	0.001998	47.4423	79.1875	-165.368	0.004243	0.849547	-0.071225	-0.072581	0.034304	47.4423	-0.071767	-0.380137	-0.090241	NaN
641	1.000000	0.858861	7.37132e+06	-45039.1	1005.82	-29773.8	0.000000	0.000000	6.859074	-0.034327	NaN	0.000000	0.001681	0.001723	28.0827	0.045497	0.002031	22.4013	-23.2528	-168.529	0.024965	0.857603	-0.063267	-0.064525	-0.034327	22.4013	-0.062118	-0.206933	0.165887	NaN
641	1.000000	0.866885	7.37132e+06	-45039.1	1005.82	-29773.8	0.000000	0.000000	6.867099	-0.008257	NaN	0.000000	0.001679	0.001705	28.0827	0.033943	0.001925	17.6339	-20.7576	-168.793	0.051209	0.865576	-0.055243	-0.056552	-0.008257	17.6339	-0.054892	-0.127835	0.064592	NaN
641	1.000000	0.874854	7.37132e+06	-45039.1	1005.82	-29773.8	0.000000	0.000000	6.875070	0.042358	NaN	0.000000	0.001691	0.001714	28.0828	0.059832	0.002020	29.6226	-81.6298	-164.794	0.017229	0.873599	-0.047274	-0.048528	0.042358	29.6226	-0.048346	-0.081300	-0.521000	NaN
641	1.000000	0.882888	7.37132e+06	-45039.1	1005.82	-29773.8	0.000000	0.000000	6.883106	0.081760	NaN	0.000000	0.001663	0.001755	28.0828	0.050066	0.002106	23.7769	110.593	-162.241	0.010867	0.881531	-0.039239	-0.040597	0.081760	23.7769	-0.041818	-0.051372	-1.591522	NaN
641	1.000000	0.890863	7.37132e+06	-45039.1	1005.82	-29773.8	0.000000	0.000000	6.891077	-0.001083	NaN	0.000000	0.001676	0.001751	28.0828	0.099992	0.002063	48.4699	89.3355	-167.945	-0.032324	0.889553	-0.031265	-0.032574	-0.001083	48.4699	-0.031248	-0.024948	0.043393	NaN
641	1.000000	0.898882	7.37133e+06	-45039.1	1005.82	-29773.8	0.000000	0.000000	6.899097	0.024206	NaN	0.000000	0.001635	0.001740	28.0827	0.059162	0.002051	28.848	8.074474	-165.053	0.032442	0.897540	-0.023246	-0.024588	0.024206	28.848	-0.023875	-0.015773	-1.534606	NaN
641	1.000000	0.906903	7.37133e+06	-45039.1	1005.82	-29773.8	0.000000	0.000000	6.907117	-0.009487	NaN	0.000000	0.001664	0.001745	28.0827	0.170614	0.001973	86.4598	34.9256	-167.407	0.001111	0.905573	-0.015225	-0.016555	-0.009487	86.4598	-0.015143	-0.009361	1.013474	NaN
641	1.000000	0.914864	7.37133e+06	-45039.1	1005.82	-29773.8	0.000000	0.000000	6.915158	1.950462	NaN	0.000000	0.001670	0.001771	28.0829	2.963312	0.001927	1537.67	10.8889	-168.634	0.936949	0.913582	-0.007264	-0.008546	1.950462	1537.67	-0.008216	-0.005358	-364.043	NaN
641	2.000000	0.920451	7.37133e+06	-45039.1	1005.82	-29773.8	0.000000	0.000000	6.921255	14.345	NaN	0.000000	0.001671	0.001748	28.0828	9.703485	0.001594	6087.45	7.645584	-175.867	13.3475	0.920091	-0.001677	-0.002037	14.345	6087.45	-0.003444	-0.002416	-5938.27	NaN
641	2.000000	0.922445	7.37133e+06	-45039.1	1005.82	-29773.8	0.000000	0.000000	6.923561	21.928	NaN	0.000000	0.001660	0.001712	28.0831	8.944490	0.001521	5882.09	7.774168	-173.359	21.2036	0.922197	0.000317	6.922339E-5	21.928	5882.09	-0.002479	-0.001768	-12400.6	NaN
641	2.000000	0.924436	7.37133e+06	-45039.1	1005.82	-29773.8	0.000000	0.000000	6.925923	30.9484	NaN	0.000000	0.001690	0.001683	28.0827	11.4245	0.001712	6672.62	1.273181	-169.167	29.7073	0.924134	0.002309	0.002007	30.9484	6672.62	-0.001170	-0.000855	-36192.1	NaN
641	2.000000	0.926450	7.37133e+06	-45039.1	1005.82	-29773.8	0.000000	0.000000	6.928369	41.4853	NaN	0.000000	0.001686	0.001704	28.0828	13.5094	0.001756	7692.77	4.998013	-176.254	40.7726	0.926161	0.004322	0.004033	41.4853	7692.77	0.000277	0.000208	199279	487125
641	2.000000	0.928366	7.37133e+06	-45039.1	1005.82	-29773.8	0.000000	0.000000	6.930634	49.9814	NaN	0.000000	0.001682	0.001716	28.0827	15.1164	0.001894	7981.53	7.471845	-174.734	47.6786	0.928124	0.006238	0.005996	49.9814	7981.53	0.001541	0.001187	42105.7	211653
641	2.000000	0.930355	7.37133e+06	-45039.1	1005.82	-29773.8	0.000000	0.000000	6.933014	59.4794	NaN	0.000000	0.001707	0.001708	28.0826	14.5407	0.001762	8250.76	3.003683	-172.845	57.4177	0.930080	0.008227	0.007952	59.4794	8250.76	0.002820	0.002229	26683	159662
641	2.000000	0.932357	7.37133e+06	-45039.1	1005.82	-29773.8	0.000000	0.000000	6.935446	69.9439	NaN	0.000000	0.001706	0.001742	28.0829	16.3445	0.001711	9551.92	6.394936	-177.843	67.9324	0.932153	0.010229	0.010026	69.9439	9551.92	0.004737	0.003895	17959.2	139840
641	2.000000	0.934379	7.37133e+06	-45039.1	1005.82	-29773.8	0.000000	0.000000	6.937908	80.6442	NaN	0.000000	0.001643	0.001722	28.0825	17.8984	0.001851	9667.44	6.476598	-177.069	79.4008	0.934143	0.012251	0.012015	80.6442	9667.44	0.005995	0.005060	15938.8	124173
641	2.000000	0.936425	7.37133e+06	-45039.1	1005.82	-29773.8	0.000000	0.000000	6.940421	91.9927	NaN	0.000000	0.001658	0.001746	28.0817	19.2028	0.001799	10675.1	3.962319	-175.72	91.4235	0.936076	0.014297	0.013948	91.9927	10675.1	0.007834	0.006872	13386.7	117654
641	2.000000	0.938395	7.37133e+06	-45039.1	1005.82	-29773.8	0.000000	0.000000	6.942765	101.117	NaN	0.000000	0.001653	0.001704	28.0814	19.6241	0.001897	10347.3	4.189643	-174.414	100.401	0.938087	0.016267	0.015959	101.117	10347.3	0.008937	0.008024	12601.1	105534
641	2.000000	0.940332	7.37133e+06	-45039.1	1005.82	-29773.8	0.000000	0.000000	6.945164	112.324	NaN	0.000000	0.001699	0.001682	28.0814	20.7265	0.002002	10352.8	4.552223	-175.105	110.011	0.940027	0.018204	0.017899	112.324	10352.8	0.010067	0.009256	12134.9	98313.5
641	2.000000	0.942335	7.37133e+06	-45039.1	1005.82	-29773.8	0.000000	0.000000	6.947586	122.513	NaN	0.000000	0.001701	0.001692	28.0815	21.0813	0.001877	11232.5	2.631718	-173.783	120.978	0.942029	0.020207	0.019902	122.513	11232.5	0.012027	0.011523	10632.4	95603.3
641	2.000000	0.944362	7.37133e+06	-45039.1	1005.82	-29773.8	0.000000	0.000000	6.950090	134.12	NaN	0.000000	0.001660	0.001726	28.0814	22.7319	0.001978	11490.3	6.647853	-177.887	132.03	0.944083	0.022234	0.021955	134.12	11490.3	0.013480	0.013312	10075.3	90988.9
641	2.000000	0.946410	7.37133e+06	-45039.1	1005.82	-29773.8	0.000000	0.000000	6.952537	143.842	NaN	0.000000	0.001689	0.001722	28.0816	22.918	0.001968	11642.9	4.626315	-175.941	143.107	0.946027	0.024282	0.023899	143.842	11642.9	0.015016	0.015306	9397.5	85979.7
641	2.000000	0.948312	7.37133e+06	-45039.1	1005.82	-29773.8	0.000000	0.000000	6.954808	152.813	NaN	0.000000	0.001694	0.001720	28.0816	23.5344	0.001847	12739.9	4.114663	-176.698	150.72	0.948099	0.026184	0.025972	152.813	12739.9	0.017188	0.018314	8343.8	86008.3
641	2.000000	0.950347	7.37133e+06	-45039.1	1005.82	-29773.8	0.000000	0.000000	6.957352	165.19	NaN	0.000000	0.001701	0.001753	28.0816	24.7604	0.002027	12216.3	5.059813	-176.683	163.854	0.950063	0.028219	0.027935	165.19	12216.3	0.018078	0.019611	8423.32	79700.8
641	2.000000	0.952379	7.37133e+06	-45039.1	1005.82	-29773.8	0.000000	0.000000	6.959841	176.306	NaN	0.000000	0.001679	0.001710	28.0815	25.5697	0.001977	12931.9	4.939335	-176.644	175.277	0.951957	0.030252	0.029829	176.306	12931.9	0.020027	0.022584	7806.72	78620.5
641	2.000000	0.954339	7.37133e+06	-45039.1	1005.82	-29773.8	0.000000	0.000000	6.962253	187.32	NaN	0.000000	0.001650	0.001703	28.0815	25.7847	0.001836	14045.7	2.447216	-175.335	185.016	0.953992	0.032211	0.031864	187.32	14045.7	0.022208	0.026132	7168.15	79383.5
641	2.000000	0.956353	7.37133e+06	-45039.1	1005.82	-29773.8	0.000000	0.000000	6.964681	197.381	NaN	0.000000	0.001689	0.001742	28.0815	26.5912	0.001919	13856.8	0.120799	-172.005	195.04	0.955961	0.034225	0.033833	197.381	13856.8	0.023542	0.028417	6945.98	75102
641	2.000000	0.958357	7.37133e+06	-45039.1	1005.82	-29773.8	0.000000	0.000000	6.967055	206.387	NaN	0.000000	0.001675	0.001736	28.0814	28.0141	0.001948	14384.5	5.951045	-179.212	204.845	0.958012	0.036229	0.035884	206.387	14384.5	0.025468	0.031873	6475.27	73613
641	2.000000	0.960362	7.37133e+06	-45039.1	1005.82	-29773.8	0.000000	0.000000	6.969509	217.316	NaN	0.000000	0.001715	0.001748	28.0816	28.0841	0.001790	15688	2.687119	-176.793	216.333	0.960041	0.038234	0.037913	217.316	15688	0.027844	0.036394	5971.13	75131.8
641	2.000000	0.962316	7.37133e+06	-45039.1	1005.82	-29773.8	0.000000	0.000000	6.971908	228.131	NaN	0.000000	0.001693	0.001718	28.0817	28.5411	0.001833	15572	2.247115	-175.872	225.728	0.961981	0.040189	0.039853	228.131	15572	0.029201	0.039104	5833.95	71945.9
641	2.000000	0.964341	7.37133e+06	-45039.1	1005.82	-29773.8	0.000000	0.000000	6.974250	235.84	NaN	0.000000	0.001679	0.001751	28.0815	29.3195	0.001846	15887	3.745736	-177.808	234.858	0.964037	0.042213	0.041909	235.84	15887	0.031079	0.043011	5483.27	69988.5
641	2.000000	0.966304	7.37133e+06	-45039.1	1005.82	-29773.8	0.000000	0.000000	6.976618	245.72	NaN	0.000000	0.001698	0.001735	28.0814	30.2549	0.001870	16176.6	4.275807	-178.113	243.736	0.966039	0.044176	0.043912	245.72	16176.6	0.032783	0.046710	5260.51	68384
641	2.000000	0.968347	7.37133e+06	-45039.1	1005.82	-29773.8	0.000000	0.000000	6.979026	254.569	NaN	0.000000	0.001679	0.001706	28.0815	31.1166	0.002022	15389.5	4.378608	-177.387	253.664	0.968030	0.046220	0.045902	254.569	15389.5	0.033813	0.049019	5193.3	63506.2
641	2.000000	0.970311	7.37133e+06	-45039.1	1005.82	-29773.8	0.000000	0.000000	6.981311	262.392	NaN	0.000000	0.001712	0.001696	28.0828	31.8986	0.001924	16575.7	5.756525	-179.385	260.84	0.970037	0.048183	0.047909	262.392	16575.7	0.036311	0.054841	4784.57	64668.1
641	2.000000	0.972355	7.37133e+06	-45039.1	1005.82	-29773.8	0.000000	0.000000	6.983700	270.791	NaN	0.000000	0.001668	0.001700	28.0828	32.2973	0.001838	17572.4	5.122234	179.615	270.236	0.971994	0.050227	0.049866	270.791	17572.4	0.038669	0.060635	4465.95	65199.3
641	2.000000	0.974321	7.37133e+06	-45039.1	1005.82	-29773.8	0.000000	0.000000	6.986091	281.114	NaN	0.000000	0.001700	0.001746	28.0829	33.6378	0.001910	17611.2	4.247743	-178.997	279.261	0.973986	0.052193	0.051858	281.114	17611.2	0.040222	0.064602	4351.46	63305
641	2.000000	0.976342	7.37133e+06	-45039.1	1005.82	-29773.8	0.000000	0.000000	6.988503	290.617	NaN	0.000000	0.001690	0.001739	28.0827	34.5116	0.001920	17971	6.785510	179.223	290.389	0.975960	0.054214	0.053832	290.617	17971	0.042086	0.069530	4179.73	62267.2
641	2.000000	0.978331	7.37133e+06	-45039.1	1005.82	-29773.8	0.000000	0.000000	6.990789	297.847	NaN	0.000000	0.001721	0.001751	28.0829	34.4014	0.001894	18158.7	2.773376	-177.263	296.008	0.978069	0.056203	0.055942	297.847	18158.7	0.043901	0.074499	3997.99	60783
641	2.000000	0.980366	7.37133e+06	-45039.1	1005.82	-29773.8	0.000000	0.000000	6.993173	306.352	NaN	0.000000	0.001707	0.001723	28.0827	35.9726	0.001912	18811.3	4.957527	179.656	306.578	0.980070	0.058238	0.057942	306.352	18811.3	0.046024	0.080521	3804.62	60567.2
641	2.000000	0.982317	7.37133e+06	-45039.1	1005.82	-29773.8	0.000000	0.000000	6.995527	316.16	NaN	0.000000	0.001708	0.001727	28.0827	36.2082	0.001909	18965.1	3.535246	-178.356	314.935	0.982063	0.060189	0.059935	316.16	18965.1	0.047686	0.085395	3702.32	59294.3
641	2.000000	0.984257	7.37133e+06	-45039.1	1005.82	-29773.8	0.000000	0.000000	6.997900	326.69	NaN	0.000000	0.001705	0.001743	28.0828	37.4272	0.002065	18126.8	4.910778	-178.723	323.618	0.984027	0.062129	0.061899	326.69	18126.8	0.048612	0.088172	3705.16	55773.9
641	2.000000	0.986268	7.37133e+06	-45039.1	1005.82	-29773.8	0.000000	0.000000	7.000242	334.74	NaN	0.000000	0.001667	0.001735	28.0828	37.8533	0.001879	20141.8	8.046854	176.29	332.102	0.985907	0.064140	0.063779	334.74	20141.8	0.051676	0.097664	3427.48	58885.2
641	2.000000	0.988288	7.37133e+06	-45039.1	1005.82	-29773.8	0.000000	0.000000	7.002578	342.421	NaN	0.000000	0.001720	0.001745	28.0828	38.0662	0.001856	20505.7	6.334661	177.304	341.913	0.988047	0.066160	0.065919	342.421	20505.7	0.053636	0.103983	3293.04	58098.8
641	2.000000	0.990322	7.37133e+06	-45039.1	1005.82	-29773.8	0.000000	0.000000	7.005136	355.172	NaN	0.000000	0.001673	0.001727	28.0828	38.2744	0.001735	22063.6	4.392860	179.411	353.649	0.989981	0.068194	0.067853	355.172	22063.6	0.056121	0.112268	3163.62	60162.1
641	2.000000	0.992265	7.37133e+06	-45039.1	1005.82	-29773.8	0.000000	0.000000	7.007416	363.359	NaN	0.000000	0.001708	0.001743	28.0827	38.8037	0.001853	20939.6	3.442776	-179.363	361.722	0.991978	0.070137	0.069851	363.359	20939.6	0.057123	0.115694	3140.7	56245.3
641	2.000000	0.994277	7.37133e+06	-45039.1	1005.82	-29773.8	0.000000	0.000000	7.009717	370.39	NaN	0.000000	0.001708	0.001723	28.0828	41.2403	0.001878	21955.9	5.991824	177.308	368.179	0.993990	0.072149	0.071862	370.39	21955.9	0.059497	0.124010	2986.77	56963.4
641	2.000000	0.996354	7.37133e+06	-45039.1	1005.82	-29773.8	0.000000	0.000000	7.012141	378.835	NaN	0.000000	0.001702	0.001694	28.083	41.6619	0.001910	21810.5	2.324254	-178.885	379.262	0.995974	0.074227	0.073846	378.835	21810.5	0.061200	0.130145	2910.87	55236.5
641	2.000000	0.998350	7.37133e+06	-45039.1	1005.82	-29773.8	0.000000	0.000000	7.014618	390.54	NaN	0.000000	0.001707	0.001705	28.0828	42.8048	0.002086	20521.6	5.640432	179.139	391.181	0.998013	0.076222	0.075885	390.54	20521.6	0.061949	0.132890	2938.81	51432.5
641	2.000000	1.000304	7.37133e+06	-45039.1	1005.82	-29773.8	0.000000	0.000000	7.017050	402.18	NaN	0.000000	0.001682	0.001683	28.0827	42.9751	0.001930	22263.7	3.989856	179.142	400.878	0.999947	0.078176	0.077819	402.18	22263.7	0.064627	0.142923	2813.96	53804.6
641	2.000000	1.002268	7.37133e+06	-45039.1	1005.82	-29773.8	0.000000	0.000000	7.019408	411.755	NaN	0.000000	0.001683	0.001662	28.0827	43.3929	0.001913	22686.6	4.891085	178.291	409.644	1.001998	0.080140	0.079870	411.755	22686.6	0.066527	0.150250	2740.47	53473.2
641	2.000000	1.004281	7.37133e+06	-45039.1	1005.82	-29773.8	0.000000	0.000000	7.021722	419.077	NaN	0.000000	0.001684	0.001672	28.0814	44.4188	0.001915	23197.3	2.257125	-179.114	416.916	1.003911	0.082153	0.081783	419.077	23197.3	0.068604	0.158454	2644.79	53242.5
641	2.000000	1.006322	7.37133e+06	-45039.1	1005.82	-29773.8	0.000000	0.000000	7.024106	427.427	NaN	0.000000	0.001651	0.001701	28.0814	45.5104	0.002028	22446.1	3.820103	-179.943	426.534	1.005987	0.084194	0.083859	427.427	22446.1	0.069913	0.163732	2610.52	50681.2
641	2.000000	1.008356	7.37133e+06	-45039.1	1005.82	-29773.8	0.000000	0.000000	7.026549	437.381	NaN	0.000000	0.001681	0.001698	28.0826	45.5955	0.001826	24976.5	3.593619	178.616	438.623	1.008040	0.086228	0.085912	437.381	24976.5	0.073094	0.176902	2472.44	54254.9
641	2.000000	1.010349	7.37133e+06	-45039.1	1005.82	-29773.8	0.000000	0.000000	7.029003	448.585	NaN	0.000000	0.001685	0.001717	28.0815	47.7177	0.002021	23607.9	3.857057	-179.985	450.032	1.009973	0.088222	0.087845	448.585	23607.9	0.073970	0.180613	2483.67	50752.2
641	2.000000	1.012295	7.37133e+06	-45039.1	1005.82	-29773.8	0.000000	0.000000	7.031242	455.722	NaN	0.000000	0.001728	0.001716	28.0814	48.2412	0.002058	23443.2	3.192897	-179.796	454.826	1.011960	0.090167	0.089832	455.722	23443.2	0.075588	0.187558	2429.76	49456.3
641	2.000000	1.014248	7.37133e+06	-45039.1	1005.82	-29773.8	0.000000	0.000000	7.033477	462.59	NaN	0.000000	0.001690	0.001686	28.0814	48.1443	0.001929	24959.9	5.962219	176.524	460.781	1.013988	0.092120	0.091860	462.59	24959.9	0.078220	0.199124	2323.13	51104
641	2.000000	1.016304	7.37133e+06	-45039.1	1005.82	-29773.8	0.000000	0.000000	7.035961	472.967	NaN	0.000000	0.001764	0.001742	28.0815	48.9026	0.001986	24620.7	4.562730	178.313	471.611	1.015959	0.094177	0.093831	472.967	24620.7	0.079769	0.206081	2295.05	49551.1
641	2.000000	1.018352	7.37133e+06	-45039.1	1005.82	-29773.8	0.000000	0.000000	7.038517	485.357	NaN	0.000000	0.001751	0.001663	28.0815	49.3545	0.002004	24623	3.704603	179.19	487.247	1.017986	0.096224	0.095858	485.357	24623	0.081440	0.213714	2271.06	48662.9