File: remote_trans/data/nanoindenter/0828-1/data/Data_2025-08-06,11h17m57s/2025-07-22_16-23-58_1_239.txt
2025-07-22, 16:23:58, 1
Index	Phase	Displacement	Time	Pos X	Pos Y	Pos Z	Rot A	Rot B	Piezo Z	Force A	Force B	Gripper	Voltage A	Voltage B	Temperature	Amplitude force	Amplitude pos	Stiffness	Phase shift	Phase excitation	Force A raw	Displacement raw	HMax	HMax raw	Real Force	Real Stiffness	Contact Depth	Area	Hardness	Reduced Mod.
[#]	[#]	[um]	[s]	[um]	[um]	[um]	[m°]	[m°]	[um]	[uN]	[uN]	[V]	[V]	[V]	[°C]	[uN]	[um]	[N/m]	[°]	[°]	[uN]	[um]	[um]	[um]	[uN]	[N/m]	[um]	[um^2]	[MPa]	[MPa]
239	1.000000	0.002676	7.36738e+06	-50589.1	955.819	-29755.6	0.000000	0.000000	6.002823	-0.015945	NaN	0.000000	0.001558	0.001606	28.0795	0.078060	0.000986	79.1455	-77.5971	-156.248	0.021191	0.001357	-1.039282	-1.040601	-0.015945	79.1455	-1.039131	-7.625647E+13	2.090954E-16	NaN
239	1.000000	0.010618	7.36738e+06	-50589.1	955.819	-29755.6	0.000000	0.000000	6.010766	0.014767	NaN	0.000000	0.001586	0.001583	28.0791	0.045342	0.001032	43.957	168.75	-165.605	0.099861	0.009281	-1.031340	-1.032677	0.014767	43.957	-1.031592	-6.038029E+13	-2.445609E-16	NaN
239	1.000000	0.018612	7.36738e+06	-50589.1	955.82	-29755.6	0.000000	0.000000	6.018756	-0.080471	NaN	0.000000	0.001521	0.001610	28.0792	0.015131	0.001737	8.712477	-73.6534	-166.012	-0.029769	0.017307	-1.023346	-1.024651	-0.080471	8.712477	-1.016419	-3.773655E+13	2.132447E-15	NaN
239	1.000000	0.026617	7.36738e+06	-50589.1	955.819	-29755.6	0.000000	0.000000	6.026759	-0.121074	NaN	0.000000	0.001537	0.001580	28.0792	0.055057	0.001839	29.9381	79.1711	-163.742	-0.165989	0.025298	-1.015341	-1.016659	-0.121074	29.9381	-1.012308	-3.322306E+13	3.644285E-15	NaN
239	1.000000	0.034611	7.36738e+06	-50589.1	955.819	-29755.6	0.000000	0.000000	6.034757	-0.016183	NaN	0.000000	0.001548	0.001585	28.0791	0.072570	0.001955	37.1118	102.419	-166.153	-0.015846	0.033289	-1.007347	-1.008669	-0.016183	37.1118	-1.007020	-2.820150E+13	5.738511E-16	NaN
239	1.000000	0.042591	7.36738e+06	-50589.1	955.819	-29755.6	0.000000	0.000000	6.042736	-0.051360	NaN	0.000000	0.001575	0.001617	28.0801	0.078434	0.001842	42.5765	-74.5198	-168.447	-0.054041	0.041280	-0.999367	-1.000678	-0.051360	42.5765	-0.998462	-2.163034E+13	2.374450E-15	NaN
239	1.000000	0.050591	7.36738e+06	-50589.1	955.818	-29755.6	0.000000	0.000000	6.050738	-0.003044	NaN	0.000000	0.001584	0.001634	28.0792	0.045996	0.001947	23.6219	-93.7454	-164.457	0.023971	0.049259	-0.991367	-0.992699	-0.003044	23.6219	-0.991270	-1.730698E+13	1.759030E-16	NaN
239	1.000000	0.058601	7.36738e+06	-50589.1	955.819	-29755.6	0.000000	0.000000	6.058747	-0.050308	NaN	0.000000	0.001593	0.001605	28.0781	0.039079	0.002129	18.3592	-83.9767	-167.139	-0.036997	0.057302	-0.983357	-0.984656	-0.050308	18.3592	-0.981301	-1.270407E+13	3.959975E-15	NaN
239	1.000000	0.066588	7.36738e+06	-50589.1	955.818	-29755.6	0.000000	0.000000	6.066735	-0.008955	NaN	0.000000	0.001554	0.001629	28.0783	0.053732	0.002166	24.8064	165.166	-162.745	-0.015556	0.065335	-0.975370	-0.976623	-0.008955	24.8064	-0.975099	-1.048050E+13	8.544771E-16	NaN
239	1.000000	0.074623	7.36738e+06	-50589.1	955.819	-29755.6	0.000000	0.000000	6.074767	-0.074567	NaN	0.000000	0.001519	0.001642	28.0778	0.042410	0.001962	21.6201	-81.9487	-165.608	0.044662	0.073301	-0.967335	-0.968657	-0.074567	21.6201	-0.964748	-7.601148E+12	9.809948E-15	NaN
239	1.000000	0.082627	7.36738e+06	-50589.1	955.818	-29755.6	0.000000	0.000000	6.082773	-0.025605	NaN	0.000000	0.001541	0.001633	28.0782	0.053073	0.001985	26.7409	11.5222	-167.48	-0.060655	0.081323	-0.959331	-0.960635	-0.025605	26.7409	-0.958613	-6.283037E+12	4.075213E-15	NaN
239	1.000000	0.090596	7.36738e+06	-50589.1	955.817	-29755.6	0.000000	0.000000	6.090740	-0.078423	NaN	0.000000	0.001559	0.001576	28.0778	0.113952	0.001943	58.659	-91.6026	-163.778	-0.100722	0.089311	-0.951362	-0.952647	-0.078423	58.659	-0.950359	-4.862679E+12	1.612754E-14	NaN
239	1.000000	0.098625	7.36738e+06	-50589.1	955.818	-29755.6	0.000000	0.000000	6.098774	0.032179	NaN	0.000000	0.001525	0.001606	28.0778	0.132371	0.001859	71.217	83.7066	-164.2	-0.036294	0.097337	-0.943333	-0.944621	0.032179	71.217	-0.943672	-3.950656E+12	-8.145286E-15	NaN
239	1.000000	0.106632	7.36738e+06	-50589.1	955.818	-29755.6	0.000000	0.000000	6.106777	-0.040199	NaN	0.000000	0.001506	0.001643	28.0778	0.097640	0.002186	44.6594	175.128	-163.232	0.008726	0.105332	-0.935326	-0.936626	-0.040199	44.6594	-0.934651	-2.985137E+12	1.346638E-14	NaN
239	1.000000	0.114620	7.36738e+06	-50589.1	955.819	-29755.6	0.000000	0.000000	6.114765	-0.038799	NaN	0.000000	0.001529	0.001637	28.0777	0.084661	0.002023	41.8472	-104.451	-166.219	0.034291	0.113302	-0.927338	-0.928656	-0.038799	41.8472	-0.926643	-2.327469E+12	1.666986E-14	NaN
239	1.000000	0.122629	7.36738e+06	-50589.1	955.817	-29755.6	0.000000	0.000000	6.122773	-0.067718	NaN	0.000000	0.001543	0.001648	28.0783	0.056438	0.002016	28.0014	-131.41	-162.889	-0.094963	0.121340	-0.919329	-0.920617	-0.067718	28.0014	-0.917515	-1.752503E+12	3.864053E-14	NaN
239	1.000000	0.130635	7.36738e+06	-50589.1	955.819	-29755.6	0.000000	0.000000	6.130778	-0.113187	NaN	0.000000	0.001584	0.001660	28.0776	0.025405	0.002010	12.64	166.142	-163.276	-0.023020	0.129315	-0.911323	-0.912643	-0.113187	12.64	-0.904607	-1.173032E+12	9.649082E-14	NaN
239	1.000000	0.138609	7.36738e+06	-50589.1	955.818	-29755.6	0.000000	0.000000	6.138754	-0.056320	NaN	0.000000	0.001572	0.001629	28.0778	0.044417	0.002064	21.518	154.277	-166.391	-0.054742	0.137296	-0.903349	-0.904661	-0.056320	21.518	-0.901386	-1.061181E+12	5.307305E-14	NaN
239	1.000000	0.146641	7.36738e+06	-50589.1	955.818	-29755.6	0.000000	0.000000	6.146791	0.048789	NaN	0.000000	0.001534	0.001664	28.0778	0.064738	0.002051	31.5619	-119.065	-163.539	0.025374	0.145342	-0.895317	-0.896616	0.048789	31.5619	-0.896476	-9.108446E+11	-5.356484E-14	NaN
239	1.000000	0.154661	7.36738e+06	-50589.1	955.818	-29755.6	0.000000	0.000000	6.154807	-0.039068	NaN	0.000000	0.001547	0.001649	28.0779	0.107204	0.002059	52.0763	-126.986	-164.521	-0.067485	0.153313	-0.887297	-0.888645	-0.039068	52.0763	-0.886734	-6.726089E+11	5.808371E-14	NaN
239	1.000000	0.162652	7.36738e+06	-50589.1	955.817	-29755.6	0.000000	0.000000	6.162797	-0.046316	NaN	0.000000	0.001566	0.001642	28.0779	0.048962	0.001912	25.6136	-137.567	-165.866	-0.075543	0.161329	-0.879306	-0.880629	-0.046316	25.6136	-0.877950	-5.116567E+11	9.052143E-14	NaN
239	1.000000	0.170668	7.36738e+06	-50589.1	955.819	-29755.6	0.000000	0.000000	6.170814	-0.022442	NaN	0.000000	0.001528	0.001662	28.0776	0.080709	0.001909	42.2779	-140.661	-165.169	-0.040953	0.169323	-0.871290	-0.872635	-0.022442	42.2779	-0.870892	-4.106886E+11	5.464384E-14	NaN
239	1.000000	0.178654	7.36738e+06	-50589.1	955.818	-29755.6	0.000000	0.000000	6.178803	0.035556	NaN	0.000000	0.001586	0.001652	28.0782	0.096086	0.001904	50.4543	143.922	-162.458	0.012979	0.177363	-0.863304	-0.864595	0.035556	50.4543	-0.863832	-3.296020E+11	-1.078757E-13	NaN
239	1.000000	0.186665	7.36738e+06	-50589.1	955.818	-29755.6	0.000000	0.000000	6.186810	-0.062913	NaN	0.000000	0.001544	0.001634	28.0781	0.067951	0.001999	33.9877	-109.483	-164.806	-0.041194	0.185382	-0.855293	-0.856576	-0.062913	33.9877	-0.853905	-2.418839E+11	2.600941E-13	NaN
239	1.000000	0.194669	7.36738e+06	-50589.1	955.818	-29755.6	0.000000	0.000000	6.194817	0.016905	NaN	0.000000	0.001534	0.001642	28.0791	0.063262	0.001968	32.1408	169.712	-168.492	0.008983	0.193325	-0.847289	-0.848633	0.016905	32.1408	-0.847683	-1.992331E+11	-8.485235E-14	NaN
239	1.000000	0.202646	7.36738e+06	-50589.1	955.817	-29755.6	0.000000	0.000000	6.202793	-0.007330	NaN	0.000000	0.001557	0.001649	28.0787	0.058933	0.002091	28.186	-174.934	-163.021	-0.017089	0.201344	-0.839312	-0.840613	-0.007330	28.186	-0.839117	-1.525206E+11	4.805809E-14	NaN
239	1.000000	0.210682	7.36738e+06	-50589.1	955.818	-29755.6	0.000000	0.000000	6.210829	-0.027887	NaN	0.000000	0.001565	0.001650	28.079	0.104199	0.002020	51.5723	-29.0853	-162.565	-0.013519	0.209415	-0.831275	-0.832543	-0.027887	51.5723	-0.830870	-1.179165E+11	2.364952E-13	NaN
239	1.000000	0.218647	7.36738e+06	-50589.1	955.819	-29755.6	0.000000	0.000000	6.218794	-0.002888	NaN	0.000000	0.001524	0.001644	28.0792	0.033901	0.001947	17.4076	57.4396	-164.565	-0.027838	0.217398	-0.823311	-0.824559	-0.002888	17.4076	-0.823186	-9.277232E+10	3.113172E-14	NaN
239	1.000000	0.226689	7.36738e+06	-50589.1	955.818	-29755.6	0.000000	0.000000	6.226835	-0.033439	NaN	0.000000	0.001540	0.001655	28.0791	0.094313	0.002010	46.9246	-17.9723	-164.018	-0.017922	0.225371	-0.815269	-0.816587	-0.033439	46.9246	-0.814735	-7.125235E+10	4.693020E-13	NaN
239	1.000000	0.234665	7.36738e+06	-50589.1	955.819	-29755.6	0.000000	0.000000	6.234812	-0.002390	NaN	0.000000	0.001580	0.001629	28.0795	0.120928	0.002010	60.1577	159.121	-161.972	-0.120564	0.233397	-0.807293	-0.808561	-0.002390	60.1577	-0.807263	-5.642009E+10	4.236774E-14	NaN
239	1.000000	0.242684	7.36738e+06	-50589.1	955.817	-29755.6	0.000000	0.000000	6.242830	-0.043434	NaN	0.000000	0.001556	0.001683	28.0791	0.081807	0.001987	41.1643	169.799	-167.746	0.026929	0.241445	-0.799274	-0.800513	-0.043434	41.1643	-0.798482	-4.288061E+10	1.012895E-12	NaN
239	1.000000	0.250690	7.36738e+06	-50589.1	955.818	-29755.6	0.000000	0.000000	6.250833	-0.109447	NaN	0.000000	0.001533	0.001652	28.0791	0.042290	0.001941	21.792	-77.4325	-161.002	-0.075010	0.249393	-0.791268	-0.792565	-0.109447	21.792	-0.787501	-3.041887E+10	3.598007E-12	NaN
239	1.000000	0.258685	7.36738e+06	-50589.1	955.818	-29755.6	0.000000	0.000000	6.258829	-0.094555	NaN	0.000000	0.001576	0.001655	28.0794	0.084992	0.002087	40.7215	-32.6152	-163.809	-0.061621	0.257395	-0.783273	-0.784563	-0.094555	40.7215	-0.781531	-2.523692E+10	3.746707E-12	NaN
239	1.000000	0.266706	7.36738e+06	-50589.1	955.819	-29755.6	0.000000	0.000000	6.266853	-0.024246	NaN	0.000000	0.001594	0.001649	28.0793	0.062562	0.002029	30.8274	-41.5796	-164.355	-0.006628	0.265394	-0.775252	-0.776564	-0.024246	30.8274	-0.774662	-2.035544E+10	1.191150E-12	NaN
239	1.000000	0.274696	7.36738e+06	-50589.1	955.818	-29755.6	0.000000	0.000000	6.274841	-0.057927	NaN	0.000000	0.001571	0.001645	28.0794	0.057940	0.001951	29.6945	146.425	-163.427	-0.073896	0.273384	-0.767261	-0.768574	-0.057927	29.6945	-0.765798	-1.542309E+10	3.755832E-12	NaN
239	1.000000	0.282700	7.36738e+06	-50589.1	955.818	-29755.6	0.000000	0.000000	6.282848	0.014970	NaN	0.000000	0.001623	0.001638	28.0792	0.050166	0.001961	25.5844	174.198	-164.357	0.011504	0.281396	-0.759258	-0.760562	0.014970	25.5844	-0.759697	-1.274033E+10	-1.175006E-12	NaN
239	1.000000	0.290699	7.36738e+06	-50589.1	955.818	-29755.6	0.000000	0.000000	6.290846	-0.027262	NaN	0.000000	0.001647	0.001658	28.0793	0.080877	0.001935	41.7878	-106.823	-165.221	-0.019771	0.289353	-0.751258	-0.752605	-0.027262	41.7878	-0.750769	-9.631399E+9	2.830558E-12	NaN
239	1.000000	0.298707	7.36738e+06	-50589.1	955.819	-29755.6	0.000000	0.000000	6.298854	-0.023738	NaN	0.000000	0.001643	0.001681	28.0793	0.075573	0.001967	38.4212	-145.569	-165.725	-0.072834	0.297400	-0.743251	-0.744558	-0.023738	38.4212	-0.742787	-7.499227E+9	3.165432E-12	NaN
239	1.000000	0.306729	7.36738e+06	-50589.1	955.818	-29755.6	0.000000	0.000000	6.306874	-0.061361	NaN	0.000000	0.001654	0.001660	28.0796	0.015198	0.001993	7.626830	-42.071	-163.245	-0.043345	0.305430	-0.735229	-0.736528	-0.061361	7.626830	-0.729195	-4.895926E+9	1.253315E-11	NaN
239	1.000000	0.314728	7.36739e+06	-50589.1	955.818	-29755.6	0.000000	0.000000	6.314876	0.023333	NaN	0.000000	0.001623	0.001675	28.0797	0.067161	0.002105	31.9113	-121.671	-165.075	0.052440	0.313412	-0.727230	-0.728546	0.023333	31.9113	-0.727778	-4.683041E+9	-4.982487E-12	NaN
239	1.000000	0.322755	7.36739e+06	-50589.1	955.819	-29755.6	0.000000	0.000000	6.322902	-0.006030	NaN	0.000000	0.001627	0.001644	28.0793	0.048591	0.002119	22.9258	-108.609	-163.345	-0.068233	0.321362	-0.719203	-0.720595	-0.006030	22.9258	-0.719006	-3.555581E+9	1.695950E-12	NaN
239	1.000000	0.330737	7.36739e+06	-50589.1	955.818	-29755.6	0.000000	0.000000	6.330883	-0.042543	NaN	0.000000	0.001556	0.001676	28.0782	0.017267	0.002053	8.409141	57.4178	-166.321	-0.026917	0.329441	-0.711221	-0.712517	-0.042543	8.409141	-0.707426	-2.471290E+9	1.721485E-11	NaN
239	1.000000	0.338739	7.36739e+06	-50589.1	955.819	-29755.6	0.000000	0.000000	6.338884	-0.062630	NaN	0.000000	0.001532	0.001752	28.0782	0.045301	0.002045	22.1471	-28.749	-164.753	-0.049575	0.337420	-0.703219	-0.704538	-0.062630	22.1471	-0.701098	-2.025449E+9	3.092142E-11	NaN
239	1.000000	0.346721	7.36739e+06	-50589.1	955.818	-29755.6	0.000000	0.000000	6.346864	-0.119893	NaN	0.000000	0.001560	0.001624	28.0781	0.040315	0.002009	20.0653	3.879637	-163.781	-0.072202	0.345424	-0.695237	-0.696534	-0.119893	20.0653	-0.690755	-1.462986E+9	8.195073E-11	NaN
239	1.000000	0.354722	7.36739e+06	-50589.1	955.819	-29755.6	0.000000	0.000000	6.354867	-0.064225	NaN	0.000000	0.001587	0.001645	28.0784	0.040444	0.002037	19.8502	22.2747	-162.784	-0.093773	0.353389	-0.687235	-0.688569	-0.064225	19.8502	-0.684809	-1.213274E+9	5.293567E-11	NaN
239	1.000000	0.362731	7.36739e+06	-50589.1	955.818	-29755.6	0.000000	0.000000	6.362880	0.024012	NaN	0.000000	0.001585	0.001613	28.0782	0.094779	0.002016	47.0087	5.755754	-168.814	0.053117	0.361458	-0.679227	-0.680500	0.024012	47.0087	-0.679610	-1.030072E+9	-2.331082E-11	NaN
239	1.000000	0.370720	7.36739e+06	-50589.1	955.818	-29755.6	0.000000	0.000000	6.370865	-0.049103	NaN	0.000000	0.001597	0.001620	28.0786	0.057543	0.001989	28.9348	-34.6338	-162.921	-0.068741	0.369422	-0.671238	-0.672536	-0.049103	28.9348	-0.669965	-7.601767E+8	6.459435E-11	NaN
239	1.000000	0.378734	7.36739e+06	-50589.1	955.817	-29755.6	0.000000	0.000000	6.378882	0.005980	NaN	0.000000	0.001559	0.001602	28.0782	0.036436	0.002010	18.1247	-88.2044	-161.571	0.063526	0.377416	-0.663224	-0.664542	0.005980	18.1247	-0.663471	-6.194546E+8	-9.653990E-12	NaN
239	1.000000	0.386749	7.36739e+06	-50589.1	955.819	-29755.6	0.000000	0.000000	6.386898	0.018242	NaN	0.000000	0.001567	0.001580	28.078	0.062419	0.001885	33.1111	-71.48	-166.922	-0.028375	0.385377	-0.655208	-0.656581	0.018242	33.1111	-0.655622	-4.835977E+8	-3.772140E-11	NaN
239	1.000000	0.394769	7.36739e+06	-50589.1	955.818	-29755.6	0.000000	0.000000	6.394914	-0.056003	NaN	0.000000	0.001533	0.001619	28.0781	0.054391	0.001971	27.5895	-33.4266	-162.875	-0.126341	0.393474	-0.647189	-0.648484	-0.056003	27.5895	-0.645667	-3.531985E+8	1.585589E-10	NaN
239	1.000000	0.402747	7.36739e+06	-50589.1	955.818	-29755.6	0.000000	0.000000	6.402893	-0.026066	NaN	0.000000	0.001534	0.001617	28.078	0.081176	0.001847	43.9548	7.035923	-164.172	-0.063166	0.401443	-0.639211	-0.640515	-0.026066	43.9548	-0.638766	-2.840300E+8	9.177209E-11	NaN
239	1.000000	0.410758	7.36739e+06	-50589.1	955.819	-29755.6	0.000000	0.000000	6.410903	-0.039220	NaN	0.000000	0.001584	0.001664	28.0785	0.061154	0.002014	30.3585	-92.7732	-167.385	-0.033131	0.409411	-0.631200	-0.632546	-0.039220	30.3585	-0.630231	-2.168703E+8	1.808459E-10	NaN
239	1.000000	0.418752	7.36739e+06	-50589.1	955.817	-29755.6	0.000000	0.000000	6.418900	0.020085	NaN	0.000000	0.001561	0.001638	28.0783	0.034990	0.001975	17.7167	-144.429	-165.367	-0.019869	0.417465	-0.623206	-0.624493	0.020085	17.7167	-0.624056	-1.783914E+8	-1.125905E-10	NaN
239	1.000000	0.426766	7.36739e+06	-50589.1	955.817	-29755.6	0.000000	0.000000	6.426916	0.072393	NaN	0.000000	0.001554	0.001653	28.0782	0.085020	0.002121	40.0844	64.0328	-166.002	0.065022	0.425483	-0.615192	-0.616474	0.072393	40.0844	-0.616547	-1.406561E+8	-5.146839E-10	NaN
239	1.000000	0.434778	7.36739e+06	-50589.1	955.819	-29755.6	0.000000	0.000000	6.434923	-0.042375	NaN	0.000000	0.001584	0.001651	28.0782	0.118735	0.002097	56.6211	-72.3383	-163.121	-0.046022	0.433480	-0.607180	-0.608478	-0.042375	56.6211	-0.606619	-1.027039E+8	4.125902E-10	NaN
239	1.000000	0.442758	7.36739e+06	-50589.1	955.818	-29755.6	0.000000	0.000000	6.442905	-0.009974	NaN	0.000000	0.001564	0.001664	28.0782	0.050498	0.001960	25.7656	-63.648	-167.004	0.043796	0.441428	-0.599200	-0.600530	-0.009974	25.7656	-0.598909	-8.043422E+7	1.240008E-10	NaN
239	1.000000	0.450787	7.36739e+06	-50589.1	955.818	-29755.6	0.000000	0.000000	6.450935	0.032607	NaN	0.000000	0.001628	0.001674	28.0783	0.080811	0.001967	41.0738	-169.431	-162.379	0.057514	0.449457	-0.591171	-0.592501	0.032607	41.0738	-0.591767	-6.412387E+7	-5.085062E-10	NaN
239	1.000000	0.458791	7.36739e+06	-50589.1	955.818	-29755.6	0.000000	0.000000	6.458937	-0.032301	NaN	0.000000	0.001598	0.001651	28.0782	0.027317	0.001989	13.7324	-6.936112	-164.575	-0.054762	0.457440	-0.583166	-0.584518	-0.032301	13.7324	-0.581402	-4.614020E+7	7.000520E-10	NaN
239	1.000000	0.466792	7.36739e+06	-50589.1	955.818	-29755.6	0.000000	0.000000	6.466935	-0.098169	NaN	0.000000	0.001584	0.001624	28.0797	0.122872	0.002035	60.3943	153.927	-164.918	-0.003967	0.465483	-0.575166	-0.576474	-0.098169	60.3943	-0.573947	-3.640480E+7	2.696583E-9	NaN
239	1.000000	0.474806	7.36739e+06	-50589.1	955.819	-29755.6	0.000000	0.000000	6.474953	-0.012108	NaN	0.000000	0.001533	0.001610	28.0795	0.075563	0.002130	35.4801	56.2416	-165.144	-0.010944	0.473507	-0.567152	-0.568451	-0.012108	35.4801	-0.566896	-2.908918E+7	4.162438E-10	NaN
239	1.000000	0.482777	7.36739e+06	-50589.1	955.818	-29755.6	0.000000	0.000000	6.482921	-0.075415	NaN	0.000000	0.001565	0.001649	28.0793	0.044166	0.002085	21.1874	-77.4213	-162.992	-0.044975	0.481473	-0.559181	-0.560484	-0.075415	21.1874	-0.556511	-2.089801E+7	3.608732E-9	NaN
239	1.000000	0.490764	7.36739e+06	-50589.1	955.818	-29755.6	0.000000	0.000000	6.490910	-0.046804	NaN	0.000000	0.001510	0.001626	28.0794	0.057294	0.002039	28.1055	-74.7949	-165.805	-0.077113	0.489476	-0.551194	-0.552482	-0.046804	28.1055	-0.549945	-1.695070E+7	2.761205E-9	NaN
239	1.000000	0.498791	7.36739e+06	-50589.1	955.819	-29755.6	0.000000	0.000000	6.498937	-0.025203	NaN	0.000000	0.001554	0.001638	28.0794	0.075395	0.001942	38.827	-165.427	-167.86	0.004201	0.497525	-0.543167	-0.544433	-0.025203	38.827	-0.542680	-1.344389E+7	1.874691E-9	NaN
239	1.000000	0.506781	7.36739e+06	-50589.1	955.817	-29755.6	0.000000	0.000000	6.506925	-0.087236	NaN	0.000000	0.001545	0.001629	28.0793	0.050996	0.001964	25.9628	30.5415	-167.121	-0.110535	0.505519	-0.535177	-0.536439	-0.087236	25.9628	-0.532657	-9.76026e+06	8.937874E-9	NaN
239	1.000000	0.514812	7.36739e+06	-50589.1	955.819	-29755.6	0.000000	0.000000	6.514960	0.004526	NaN	0.000000	0.001554	0.001653	28.0793	0.086858	0.002179	39.8572	39.6206	-164.241	-0.053379	0.513495	-0.527146	-0.528463	0.004526	39.8572	-0.527231	-8.20555e+06	-5.516178E-10	NaN
239	1.000000	0.522790	7.36739e+06	-50589.1	955.819	-29755.6	0.000000	0.000000	6.522934	-0.069828	NaN	0.000000	0.001544	0.001625	28.0795	0.081492	0.001938	42.0467	-33.5849	-162.251	-0.032493	0.521520	-0.519168	-0.520438	-0.069828	42.0467	-0.517922	-6.09112e+06	1.146382E-8	NaN
239	1.000000	0.530811	7.36739e+06	-50589.1	955.818	-29755.6	0.000000	0.000000	6.530958	0.007866	NaN	0.000000	0.001570	0.001652	28.0791	0.016390	0.001959	8.368051	-113.184	-168.348	-0.058567	0.529457	-0.511147	-0.512501	0.007866	8.368051	-0.511852	-5.01429e+06	-1.568673E-9	NaN
239	1.000000	0.538808	7.36739e+06	-50589.1	955.818	-29755.6	0.000000	0.000000	6.538954	-0.027565	NaN	0.000000	0.001531	0.001666	28.0791	0.053111	0.002015	26.3635	5.126261	-162.436	-0.079200	0.537512	-0.503150	-0.504445	-0.027565	26.3635	-0.502366	-3.69842e+06	7.453213E-9	NaN
239	1.000000	0.546809	7.36739e+06	-50589.1	955.819	-29755.6	0.000000	0.000000	6.546949	-0.173233	NaN	0.000000	0.001588	0.001671	28.079	0.086019	0.001951	44.0957	113.466	-162.274	-0.116099	0.545521	-0.495149	-0.496436	-0.173233	44.0957	-0.492202	-2.66787e+06	6.493298E-8	NaN
239	1.000000	0.554816	7.36739e+06	-50589.1	955.819	-29755.6	0.000000	0.000000	6.554961	-0.058606	NaN	0.000000	0.001615	0.001592	28.0791	0.070925	0.002086	33.9924	72.5789	-162.855	-0.103395	0.553524	-0.487142	-0.488434	-0.058606	33.9924	-0.485849	-2.17452e+06	2.695138E-8	NaN
239	1.000000	0.562794	7.36739e+06	-50589.1	955.818	-29755.6	0.000000	0.000000	6.562938	-0.066119	NaN	0.000000	0.001613	0.001652	28.0795	0.034744	0.001874	18.5395	-162.917	-168.116	-0.073081	0.561470	-0.479164	-0.480488	-0.066119	18.5395	-0.476489	-1.6083e+06	4.111116E-8	NaN
239	1.000000	0.570811	7.36739e+06	-50589.1	955.818	-29755.6	0.000000	0.000000	6.570959	0.016293	NaN	0.000000	0.001613	0.001653	28.0791	0.107624	0.001728	62.2691	-59.6285	-166.255	0.004302	0.569477	-0.471147	-0.472481	0.016293	62.2691	-0.471343	-1.36222e+06	-1.196058E-8	NaN
239	1.000000	0.578841	7.36739e+06	-50589.1	955.819	-29755.6	0.000000	0.000000	6.578987	-0.025071	NaN	0.000000	0.001585	0.001634	28.0794	0.091497	0.001984	46.1215	83.4297	-166.073	-0.002821	0.577518	-0.463117	-0.464440	-0.025071	46.1215	-0.462709	-1.03057e+06	2.432700E-8	NaN
239	1.000000	0.586814	7.36739e+06	-50589.1	955.818	-29755.6	0.000000	0.000000	6.586960	-0.024598	NaN	0.000000	0.001612	0.001633	28.0793	0.013476	0.001908	7.062978	126.683	-166.203	0.028193	0.585548	-0.455144	-0.456410	-0.024598	7.062978	-0.452532	-741298	3.318293E-8	NaN
239	1.000000	0.594829	7.36739e+06	-50589.1	955.818	-29755.6	0.000000	0.000000	6.594974	-0.065238	NaN	0.000000	0.001586	0.001647	28.0791	0.044322	0.002008	22.0731	-68.8879	-164.954	-0.056715	0.593504	-0.447128	-0.448454	-0.065238	22.0731	-0.444912	-578958	1.126824E-7	NaN
239	1.000000	0.602820	7.36739e+06	-50589.1	955.818	-29755.6	0.000000	0.000000	6.602967	-0.008733	NaN	0.000000	0.001596	0.001678	28.0787	0.031552	0.002020	15.6224	-56.6294	-162.777	0.011772	0.601482	-0.439137	-0.440475	-0.008733	15.6224	-0.438718	-473446	1.844470E-8	NaN
239	1.000000	0.610842	7.36739e+06	-50589.1	955.819	-29755.6	0.000000	0.000000	6.610986	-0.080558	NaN	0.000000	0.001595	0.001618	28.0779	0.109236	0.002101	51.9831	174.202	-165.614	-0.105513	0.609498	-0.431116	-0.432460	-0.080558	51.9831	-0.429954	-355966	2.263069E-7	NaN
239	1.000000	0.618835	7.36739e+06	-50589.1	955.819	-29755.6	0.000000	0.000000	6.618983	0.005362	NaN	0.000000	0.001583	0.001665	28.078	0.127784	0.002204	57.99	167.789	-165.502	-0.056069	0.617553	-0.423122	-0.424405	0.005362	57.99	-0.423192	-285539	-1.877803E-8	NaN
239	1.000000	0.626806	7.36739e+06	-50589.1	955.818	-29755.6	0.000000	0.000000	6.626953	-0.027256	NaN	0.000000	0.001595	0.001644	28.0778	0.167549	0.001931	86.7713	111.917	-165.031	-0.057846	0.625533	-0.415151	-0.416424	-0.027256	86.7713	-0.414916	-217901	1.250861E-7	NaN
239	1.000000	0.634845	7.36739e+06	-50589.1	955.819	-29755.6	0.000000	0.000000	6.634990	-0.053953	NaN	0.000000	0.001604	0.001572	28.0779	0.040764	0.001941	21.001	104.017	-164.501	-0.033644	0.633571	-0.407113	-0.408387	-0.053953	21.001	-0.405186	-158453	3.404965E-7	NaN
239	1.000000	0.642842	7.36739e+06	-50589.1	955.818	-29755.6	0.000000	0.000000	6.642988	-0.038669	NaN	0.000000	0.001585	0.001557	28.0782	0.036117	0.001974	18.301	-2.427948	-162.433	-0.050929	0.641533	-0.399116	-0.400425	-0.038669	18.301	-0.397531	-123245	3.137548E-7	NaN
239	1.000000	0.650875	7.36739e+06	-50589.1	955.819	-29755.6	0.000000	0.000000	6.651023	0.000881	NaN	0.000000	0.001609	0.001558	28.0781	0.056785	0.001999	28.4094	-81.8386	-163.201	0.042679	0.649553	-0.391083	-0.392405	0.000881	28.4094	-0.391106	-99766.2	-8.826216E-9	NaN
239	1.000000	0.658831	7.36739e+06	-50589.1	955.819	-29755.6	0.000000	0.000000	6.658979	0.018485	NaN	0.000000	0.001595	0.001556	28.0784	0.154266	0.001959	78.7479	45.0953	-165.872	-0.027208	0.657564	-0.383127	-0.384393	0.018485	78.7479	-0.383303	-77137.1	-2.396323E-7	NaN
239	1.000000	0.666863	7.36739e+06	-50589.1	955.818	-29755.6	0.000000	0.000000	6.667011	-0.006466	NaN	0.000000	0.001561	0.001587	28.0782	0.027003	0.002111	12.7946	-13.1998	-162.95	0.003417	0.665502	-0.375094	-0.376456	-0.006466	12.7946	-0.374715	-58073.5	1.113499E-7	NaN
239	1.000000	0.674884	7.36739e+06	-50589.1	955.818	-29755.6	0.000000	0.000000	6.675032	0.027487	NaN	0.000000	0.001587	0.001573	28.0779	0.085646	0.001963	43.6339	142.259	-163.551	-0.067497	0.673618	-0.367074	-0.368340	0.027487	43.6339	-0.367547	-45791.1	-6.002595E-7	NaN
239	1.000000	0.682862	7.36739e+06	-50589.1	955.819	-29755.6	0.000000	0.000000	6.683007	-0.043922	NaN	0.000000	0.001605	0.001558	28.0783	0.089578	0.002038	43.9532	72.7702	-163.476	-0.080062	0.681558	-0.359096	-0.360400	-0.043922	43.9532	-0.358347	-33724	1.302396E-6	NaN
239	1.000000	0.690903	7.36739e+06	-50589.1	955.818	-29755.6	0.000000	0.000000	6.691049	-0.039422	NaN	0.000000	0.001636	0.001570	28.0781	0.050349	0.002170	23.201	-111.211	-166.77	0.045471	0.689582	-0.351055	-0.352376	-0.039422	23.201	-0.349780	-25340.4	1.555683E-6	NaN
239	1.000000	0.698883	7.36739e+06	-50589.1	955.818	-29755.6	0.000000	0.000000	6.699029	-0.023169	NaN	0.000000	0.001651	0.001561	28.0788	0.113512	0.001861	60.9918	152.039	-165.54	-0.062146	0.697592	-0.343075	-0.344366	-0.023169	60.9918	-0.342790	-20053.8	1.155348E-6	NaN
239	1.000000	0.706900	7.36739e+06	-50589.1	955.818	-29755.6	0.000000	0.000000	6.707046	-0.045769	NaN	0.000000	0.001606	0.001600	28.0782	0.143792	0.001938	74.2097	139.383	-160.928	0.027704	0.705569	-0.335058	-0.336388	-0.045769	74.2097	-0.334595	-15228.9	3.005375E-6	NaN
239	1.000000	0.714865	7.36739e+06	-50589.1	955.819	-29755.6	0.000000	0.000000	6.715012	-0.013758	NaN	0.000000	0.001631	0.001570	28.0781	0.107527	0.002069	51.9671	114.233	-166.085	-0.057813	0.713541	-0.327092	-0.328417	-0.013758	51.9671	-0.326894	-11747	1.171173E-6	NaN
239	1.000000	0.722867	7.36739e+06	-50589.1	955.819	-29755.6	0.000000	0.000000	6.723013	-0.017819	NaN	0.000000	0.001609	0.001603	28.0784	0.072099	0.001979	36.4269	94.6493	-164.065	-0.072294	0.721632	-0.319091	-0.320326	-0.017819	36.4269	-0.318724	-8909.51	1.999971E-6	NaN
239	1.000000	0.730899	7.36739e+06	-50589.1	955.819	-29755.6	0.000000	0.000000	6.731048	0.039574	NaN	0.000000	0.001645	0.001597	28.0782	0.027481	0.001927	14.2583	77.1561	-165.381	0.062218	0.729610	-0.311059	-0.312348	0.039574	14.2583	-0.313141	-7370.42	-5.369350E-6	NaN
239	1.000000	0.738903	7.36739e+06	-50589.1	955.819	-29755.6	0.000000	0.000000	6.739052	0.024889	NaN	0.000000	0.001627	0.001606	28.0797	0.073870	0.002033	36.344	-136.167	-165.386	-0.015382	0.737642	-0.303054	-0.304316	0.024889	36.344	-0.303568	-5317.34	-4.680742E-6	NaN
239	1.000000	0.746896	7.36739e+06	-50589.1	955.819	-29755.6	0.000000	0.000000	6.747044	0.007651	NaN	0.000000	0.001634	0.001592	28.0796	0.124177	0.002085	59.5521	-155.105	-164.801	-0.031432	0.745669	-0.295062	-0.296289	0.007651	59.5521	-0.295158	-3985.22	-1.919723E-6	NaN
239	1.000000	0.754863	7.36739e+06	-50589.1	955.819	-29755.6	0.000000	0.000000	6.755004	-0.156439	NaN	0.000000	0.001661	0.001590	28.0796	0.043285	0.002086	20.7479	75.3129	-165.294	-0.157617	0.753561	-0.287095	-0.288397	-0.156439	20.7479	-0.281440	-2481.32	6.304659E-5	NaN
239	1.000000	0.762898	7.36739e+06	-50589.1	955.819	-29755.6	0.000000	0.000000	6.763045	-0.019400	NaN	0.000000	0.001611	0.001566	28.0796	0.034060	0.001995	17.0769	-166.069	-165.864	-0.037808	0.761630	-0.279059	-0.280328	-0.019400	17.0769	-0.278207	-2217.73	8.747644E-6	NaN
239	1.000000	0.770909	7.36739e+06	-50589.1	955.818	-29755.6	0.000000	0.000000	6.771055	-0.023772	NaN	0.000000	0.001667	0.001613	28.0796	0.101912	0.001937	52.6194	-82.5363	-167.16	0.013337	0.769615	-0.271049	-0.272343	-0.023772	52.6194	-0.270710	-1707.4	1.392278E-5	NaN
239	1.000000	0.778896	7.36739e+06	-50589.1	955.819	-29755.6	0.000000	0.000000	6.779043	-0.025029	NaN	0.000000	0.001618	0.001607	28.0796	0.164208	0.001912	85.8999	101.712	-164.397	-0.098757	0.777574	-0.263061	-0.264384	-0.025029	85.8999	-0.262843	-1295.5	1.931967E-5	NaN
239	1.000000	0.786894	7.36739e+06	-50589.1	955.819	-29755.6	0.000000	0.000000	6.787040	-0.031613	NaN	0.000000	0.001586	0.001578	28.0797	0.119887	0.001983	60.4629	-105.752	-162.695	-0.047261	0.785582	-0.255064	-0.256376	-0.031613	60.4629	-0.254671	-970.637	3.256964E-5	NaN
239	1.000000	0.794951	7.36739e+06	-50589.1	955.818	-29755.6	0.000000	0.000000	6.795097	-0.054525	NaN	0.000000	0.001602	0.001553	28.0799	0.063645	0.002089	30.4653	140.3	-163.678	-0.090310	0.793631	-0.247006	-0.248327	-0.054525	30.4653	-0.245664	-704.318	7.741498E-5	NaN
239	1.000000	0.802911	7.36739e+06	-50589.1	955.818	-29755.6	0.000000	0.000000	6.803056	-0.045829	NaN	0.000000	0.001562	0.001554	28.0797	0.047616	0.002096	22.7137	-17.1598	-165.477	-0.022227	0.801589	-0.239047	-0.240369	-0.045829	22.7137	-0.237534	-525.998	8.712679E-5	NaN
239	1.000000	0.810920	7.36739e+06	-50589.1	955.818	-29755.6	0.000000	0.000000	6.811065	-0.058852	NaN	0.000000	0.001559	0.001644	28.0798	0.124207	0.002042	60.8393	-78.5092	-166.838	-0.109819	0.809653	-0.231038	-0.232305	-0.058852	60.8393	-0.230313	-404.999	0.000145	NaN
239	1.000000	0.818924	7.36739e+06	-50589.1	955.818	-29755.6	0.000000	0.000000	6.819069	-0.067175	NaN	0.000000	0.001536	0.001637	28.0797	0.130725	0.001985	65.846	70.6161	-165.476	-0.068362	0.817615	-0.223034	-0.224343	-0.067175	65.846	-0.222269	-301.911	0.000223	NaN
239	1.000000	0.826932	7.36739e+06	-50589.1	955.817	-29755.6	0.000000	0.000000	6.827081	0.036342	NaN	0.000000	0.001556	0.001611	28.0798	0.062432	0.002070	30.1581	-0.387390	-166.642	-0.047206	0.825624	-0.215026	-0.216333	0.036342	30.1581	-0.215929	-239.031	-0.000152	NaN
239	1.000000	0.834947	7.36739e+06	-50589.1	955.819	-29755.6	0.000000	0.000000	6.835095	0.000340	NaN	0.000000	0.001561	0.001589	28.08	0.085778	0.002171	39.5051	-4.615431	-163.618	0.028677	0.833587	-0.207010	-0.208370	0.000340	39.5051	-0.207017	-171.557	-1.981897E-6	NaN
239	1.000000	0.842940	7.36739e+06	-50589.1	955.818	-29755.6	0.000000	0.000000	6.843087	-0.018547	NaN	0.000000	0.001588	0.001615	28.0796	0.012073	0.001995	6.050675	97.4874	-165.924	-0.036869	0.841593	-0.199018	-0.200365	-0.018547	6.050675	-0.196719	-116.315	0.000159	NaN
239	1.000000	0.850921	7.36739e+06	-50589.1	955.819	-29755.6	0.000000	0.000000	6.851067	-0.029224	NaN	0.000000	0.001562	0.001602	28.0797	0.110925	0.001997	55.5452	168.893	-165.778	-0.118932	0.849632	-0.191037	-0.192326	-0.029224	55.5452	-0.190642	-92.204	0.000317	NaN
239	1.000000	0.858929	7.36739e+06	-50589.1	955.818	-29755.6	0.000000	0.000000	6.859078	0.039849	NaN	0.000000	0.001577	0.001614	28.0796	0.051782	0.001990	26.0198	34.3763	-164.175	-0.001794	0.857617	-0.183029	-0.184341	0.039849	26.0198	-0.184178	-71.8224	-0.000555	NaN
239	1.000000	0.866962	7.36739e+06	-50589.1	955.818	-29755.6	0.000000	0.000000	6.867107	-0.050622	NaN	0.000000	0.001587	0.001581	28.0796	0.105338	0.001979	53.2343	-106.656	-163.723	-0.090313	0.865638	-0.174996	-0.176320	-0.050622	53.2343	-0.174283	-48.7133	0.001039	NaN
239	1.000000	0.874931	7.36739e+06	-50589.1	955.818	-29755.6	0.000000	0.000000	6.875076	-0.060256	NaN	0.000000	0.001589	0.001565	28.0785	0.007774	0.001961	3.964055	117.014	-165.988	-0.093964	0.873674	-0.167026	-0.168284	-0.060256	3.964055	-0.155626	-22.9001	0.002631	NaN
239	1.000000	0.882947	7.36739e+06	-50589.1	955.819	-29755.6	0.000000	0.000000	6.883095	0.017201	NaN	0.000000	0.001565	0.001581	28.0785	0.063722	0.002078	30.6682	-137.437	-165.303	0.048755	0.881683	-0.159011	-0.160275	0.017201	30.6682	-0.159431	-26.784	-0.000642	NaN
239	1.000000	0.890956	7.36739e+06	-50589.1	955.818	-29755.6	0.000000	0.000000	6.891105	0.050730	NaN	0.000000	0.001565	0.001558	28.0787	0.028855	0.002089	13.8098	-78.5188	-162.159	0.099083	0.889655	-0.151002	-0.152303	0.050730	13.8098	-0.153757	-21.1924	-0.002394	NaN
239	1.000000	0.898970	7.36739e+06	-50589.1	955.818	-29755.6	0.000000	0.000000	6.899118	0.016722	NaN	0.000000	0.001564	0.001595	28.0782	0.165365	0.001955	84.5844	107.381	-163.364	-0.038040	0.897656	-0.142988	-0.144302	0.016722	84.5844	-0.143136	-13.5391	-0.001235	NaN
239	1.000000	0.906992	7.36739e+06	-50589.1	955.818	-29755.6	0.000000	0.000000	6.907135	-0.110795	NaN	0.000000	0.001604	0.001571	28.0782	0.110673	0.002004	55.2271	114	-162.303	-0.092902	0.905594	-0.134966	-0.136363	-0.110795	55.2271	-0.133461	-8.888528	0.012465	NaN
239	1.000000	0.914978	7.36739e+06	-50589.1	955.819	-29755.6	0.000000	0.000000	6.915120	-0.123115	NaN	0.000000	0.001629	0.001546	28.0784	0.068537	0.002093	32.7527	26.1752	-161.613	-0.029038	0.913609	-0.126980	-0.128348	-0.123115	32.7527	-0.124161	-5.852696	0.021036	NaN
239	1.000000	0.922969	7.36739e+06	-50589.1	955.818	-29755.6	0.000000	0.000000	6.923113	-0.085934	NaN	0.000000	0.001637	0.001587	28.0782	0.038605	0.001965	19.6498	117.484	-166.67	-0.074615	0.921690	-0.118989	-0.120268	-0.085934	19.6498	-0.115709	-3.950941	0.021750	NaN
239	1.000000	0.930970	7.36739e+06	-50589.1	955.819	-29755.6	0.000000	0.000000	6.931117	-0.009172	NaN	0.000000	0.001633	0.001584	28.0791	0.100913	0.002077	48.5786	81.2622	-163.926	0.006013	0.929667	-0.110987	-0.112290	-0.009172	48.5786	-0.110846	-3.130935	0.002930	NaN
239	1.000000	0.938988	7.36739e+06	-50589.1	955.819	-29755.6	0.000000	0.000000	6.939131	-0.084516	NaN	0.000000	0.001643	0.001550	28.0786	0.137930	0.002058	67.0255	42.8698	-165.238	-0.005242	0.937700	-0.102970	-0.104258	-0.084516	67.0255	-0.102025	-2.024942	0.041738	NaN
239	1.000000	0.946964	7.36739e+06	-50589.1	955.818	-29755.6	0.000000	0.000000	6.947111	-0.015422	NaN	0.000000	0.001646	0.001546	28.0784	0.037189	0.002017	18.4375	-148.516	-165.853	-0.112734	0.945658	-0.094994	-0.096300	-0.015422	18.4375	-0.094366	-1.364416	0.011303	NaN
239	1.000000	0.954968	7.36739e+06	-50589.1	955.819	-29755.6	0.000000	0.000000	6.955113	-0.056352	NaN	0.000000	0.001579	0.001568	28.0783	0.089183	0.002001	44.5605	169.653	-165.397	-0.066076	0.953660	-0.086990	-0.088298	-0.056352	44.5605	-0.086041	-0.870556	0.064731	NaN
239	1.000000	0.962969	7.36739e+06	-50589.1	955.818	-29755.6	0.000000	0.000000	6.963112	-0.083857	NaN	0.000000	0.001567	0.001550	28.0783	0.037386	0.002083	17.9494	-168.147	-165.388	-0.111232	0.961708	-0.078989	-0.080250	-0.083857	17.9494	-0.075485	-0.475397	0.176393	NaN
239	1.000000	0.970966	7.36739e+06	-50589.1	955.819	-29755.6	0.000000	0.000000	6.971114	0.021060	NaN	0.000000	0.001576	0.001571	28.0787	0.102303	0.001857	55.0992	-155.886	-161.537	-0.045144	0.969643	-0.070992	-0.072315	0.021060	55.0992	-0.071279	-0.368973	-0.057077	NaN
239	1.000000	0.978977	7.36739e+06	-50589.1	955.818	-29755.6	0.000000	0.000000	6.979123	-0.021398	NaN	0.000000	0.001558	0.001570	28.0784	0.090269	0.001963	45.9763	-165.572	-166.35	-0.047817	0.977674	-0.062981	-0.064284	-0.021398	45.9763	-0.062632	-0.213971	0.100004	NaN
239	1.000000	0.986975	7.36739e+06	-50589.1	955.819	-29755.6	0.000000	0.000000	6.987122	-0.004058	NaN	0.000000	0.001522	0.001582	28.0785	0.034402	0.002032	16.9287	-124.13	-164.67	-0.064016	0.985700	-0.054983	-0.056258	-0.004058	16.9287	-0.054803	-0.127060	0.031934	NaN
239	1.000000	0.995028	7.36739e+06	-50589.1	955.819	-29755.6	0.000000	0.000000	6.995172	-0.076265	NaN	0.000000	0.001558	0.001529	28.0784	0.023641	0.001942	12.172	92.6912	-164.689	-0.109531	0.993714	-0.046930	-0.048243	-0.076265	12.172	-0.042231	-0.052883	1.442135	NaN
239	1.000000	1.003006	7.36739e+06	-50589.1	955.818	-29755.6	0.000000	0.000000	7.003152	-0.028769	NaN	0.000000	0.001561	0.001511	28.0784	0.036969	0.002002	18.4683	-162.454	-161.942	0.042143	1.001704	-0.038952	-0.040254	-0.028769	18.4683	-0.037783	-0.038757	0.742285	NaN
239	1.000000	1.011009	7.36739e+06	-50589.1	955.818	-29755.6	0.000000	0.000000	7.011154	-0.076191	NaN	0.000000	0.001556	0.001505	28.0795	0.019494	0.002091	9.321427	-105.608	-165.673	0.019618	1.009705	-0.030948	-0.032253	-0.076191	9.321427	-0.024818	-0.016687	4.565901	NaN
239	1.000000	1.019013	7.36739e+06	-50589.1	955.819	-29755.6	0.000000	0.000000	7.019157	-0.065984	NaN	0.000000	0.001549	0.001515	28.0796	0.096492	0.002047	47.1369	97.2973	-171.095	-0.087805	1.017704	-0.022945	-0.024254	-0.065984	47.1369	-0.021895	-0.014035	4.701510	NaN
239	1.000000	1.026991	7.36739e+06	-50589.1	955.818	-29755.6	0.000000	0.000000	7.027137	-0.037289	NaN	0.000000	0.001589	0.001488	28.0799	0.132073	0.001947	67.8366	-113.354	-163.743	-0.031692	1.025706	-0.014967	-0.016251	-0.037289	67.8366	-0.014554	-0.009010	4.138646	NaN
239	1.000000	1.035010	7.36739e+06	-50589.1	955.819	-29755.6	0.000000	0.000000	7.035158	0.002956	NaN	0.000000	0.001563	0.001525	28.0796	0.032748	0.002133	15.3547	0.555296	-164.976	-0.089822	1.033715	-0.006948	-0.008243	0.002956	15.3547	-0.007092	-0.004695	-0.629548	NaN
239	1.000000	1.042993	7.36739e+06	-50589.1	955.82	-29755.6	0.000000	0.000000	7.043152	0.270729	NaN	0.000000	0.001586	0.001496	28.0799	0.555464	0.002029	273.822	9.156142	-164.82	0.000305	1.041704	0.001035	-0.000254	0.270729	273.822	0.000294	0.000221	1226.7	16840.1
239	1.000000	1.050993	7.36739e+06	-50589.1	955.818	-29755.6	0.000000	0.000000	7.051417	6.715884	NaN	0.000000	0.001613	0.001481	28.0795	7.382610	0.001694	4358.54	13.5074	-172.185	5.563945	1.049699	0.009035	0.007741	6.715884	4358.54	0.007880	0.006919	970.645	47873.2
239	2.000000	1.054561	7.36739e+06	-50589.1	955.82	-29755.6	0.000000	0.000000	7.055153	10.8013	NaN	0.000000	0.001558	0.001504	28.0797	10.7367	0.001597	6723.26	3.939297	-170.67	10.9893	1.054211	0.012604	0.012253	10.8013	6723.26	0.011399	0.010778	1002.19	59168.5
239	2.000000	1.056647	7.36739e+06	-50589.1	955.819	-29755.6	0.000000	0.000000	7.057331	13.0448	NaN	0.000000	0.001560	0.001518	28.0803	13.2701	0.001833	7239.21	11.2411	-175.34	13.8408	1.056190	0.014689	0.014232	13.0448	7239.21	0.013338	0.013133	993.323	57715.2
239	2.000000	1.058494	7.36739e+06	-50589.1	955.819	-29755.6	0.000000	0.000000	7.059330	16.7583	NaN	0.000000	0.001534	0.001520	28.0796	15.2876	0.001801	8487.47	3.505360	-171.424	15.2335	1.058187	0.016536	0.016229	16.7583	8487.47	0.015055	0.015359	1091.13	62571.2
239	2.000000	1.060500	7.36739e+06	-50589.1	955.819	-29755.6	0.000000	0.000000	7.061401	18.3226	NaN	0.000000	0.001583	0.001528	28.0796	16.8146	0.001836	9159.79	7.090941	-173.155	19.0361	1.060209	0.018542	0.018251	18.3226	9159.79	0.017042	0.018105	1011.99	62194.9
239	2.000000	1.062503	7.36739e+06	-50589.1	955.819	-29755.6	0.000000	0.000000	7.063581	22.6414	NaN	0.000000	0.001613	0.001512	28.0796	18.3982	0.001756	10476.1	3.447592	-172.813	22.4231	1.062173	0.020545	0.020215	22.6414	10476.1	0.018924	0.020880	1084.38	66238.7
239	2.000000	1.064475	7.36739e+06	-50589.1	955.819	-29755.6	0.000000	0.000000	7.065693	26.0188	NaN	0.000000	0.001586	0.001519	28.0796	21.0832	0.001662	12688.4	8.174766	-179.513	25.9865	1.064172	0.022518	0.022215	26.0188	12688.4	0.020980	0.024105	1079.39	74666.3
239	2.000000	1.066557	7.36739e+06	-50589.1	955.819	-29755.6	0.000000	0.000000	7.067990	31.2753	NaN	0.000000	0.001565	0.001529	28.0798	23.464	0.001777	13201.9	8.043156	-178.717	33.8468	1.066204	0.024599	0.024246	31.2753	13201.9	0.022822	0.027173	1150.98	73172
239	2.000000	1.068526	7.36739e+06	-50589.1	955.819	-29755.6	0.000000	0.000000	7.070115	35.0753	NaN	0.000000	0.001585	0.001511	28.0796	25.8706	0.001820	14214.1	9.689895	178.855	37.8674	1.068176	0.026568	0.026218	35.0753	14214.1	0.024717	0.030503	1149.9	74356.8
239	2.000000	1.070445	7.36739e+06	-50589.1	955.82	-29755.6	0.000000	0.000000	7.072332	42.3164	NaN	0.000000	0.001588	0.001528	28.0796	27.4044	0.001731	15832.6	4.136898	-177.168	42.2906	1.070170	0.028487	0.028212	42.3164	15832.6	0.026483	0.033768	1253.15	78717.4
239	2.000000	1.072467	7.36739e+06	-50589.1	955.819	-29755.6	0.000000	0.000000	7.074462	44.9131	NaN	0.000000	0.001608	0.001549	28.0795	28.2115	0.001720	16403.7	5.921221	-179.377	46.0306	1.072215	0.030510	0.030257	44.9131	16403.7	0.028456	0.037604	1194.35	77285.2
239	2.000000	1.074444	7.36739e+06	-50589.1	955.82	-29755.6	0.000000	0.000000	7.076722	51.8096	NaN	0.000000	0.001591	0.001527	28.0793	31.5185	0.001790	17604.8	7.041000	177.503	50.4923	1.074120	0.032486	0.032162	51.8096	17604.8	0.030279	0.041324	1253.73	79122.7
239	2.000000	1.076512	7.36739e+06	-50589.1	955.819	-29755.6	0.000000	0.000000	7.078910	54.7379	NaN	0.000000	0.001538	0.001546	28.0798	32.9436	0.001816	18138.3	8.789746	177.579	56.2843	1.076092	0.034554	0.034134	54.7379	18138.3	0.032290	0.045625	1199.73	77583.4
239	2.000000	1.078441	7.36739e+06	-50589.1	955.82	-29755.6	0.000000	0.000000	7.081106	61.2284	NaN	0.000000	0.001555	0.001546	28.0782	34.4736	0.001704	20234.5	3.931581	179.371	59.034	1.078135	0.036483	0.036177	61.2284	20234.5	0.034214	0.049932	1226.25	82733.1
239	2.000000	1.080458	7.36739e+06	-50589.1	955.819	-29755.6	0.000000	0.000000	7.083381	67.4929	NaN	0.000000	0.001550	0.001534	28.0782	37.1558	0.001930	19247.6	5.898479	-179.65	68.0348	1.080119	0.038500	0.038162	67.4929	19247.6	0.035870	0.053792	1254.7	75821.3
239	2.000000	1.082421	7.36739e+06	-50589.1	955.82	-29755.6	0.000000	0.000000	7.085690	75.9305	NaN	0.000000	0.001550	0.001487	28.0779	37.8026	0.001762	21457.4	6.008811	177.534	74.3732	1.082126	0.040463	0.040168	75.9305	21457.4	0.037809	0.058488	1298.22	81061.7
239	2.000000	1.084393	7.36739e+06	-50589.1	955.818	-29755.6	0.000000	0.000000	7.087929	82.4082	NaN	0.000000	0.001580	0.001538	28.0781	39.1876	0.001840	21292.4	1.720376	-177.658	79.7051	1.084127	0.042435	0.042169	82.4082	21292.4	0.039532	0.062825	1311.72	77612.6
239	2.000000	1.086444	7.36739e+06	-50589.1	955.819	-29755.6	0.000000	0.000000	7.090409	92.8246	NaN	0.000000	0.001538	0.001524	28.0794	41.6428	0.001788	23296.5	6.874797	176.922	92.6449	1.086059	0.044486	0.044102	92.8246	23296.5	0.041498	0.067957	1365.94	81648.3
239	2.000000	1.088428	7.36739e+06	-50589.1	955.819	-29755.6	0.000000	0.000000	7.092817	103.162	NaN	0.000000	0.001545	0.001549	28.078	42.2158	0.001715	24610.2	2.478643	-179.675	103.596	1.088092	0.046470	0.046134	103.162	24610.2	0.043326	0.072906	1414.99	83273.4
239	2.000000	1.090405	7.36739e+06	-50589.1	955.819	-29755.6	0.000000	0.000000	7.094972	107.482	NaN	0.000000	0.001589	0.001543	28.078	45.7762	0.001783	25669.4	4.773632	178.107	106.092	1.090086	0.048447	0.048128	107.482	25669.4	0.045307	0.078461	1369.88	83726.3
239	2.000000	1.092390	7.36739e+06	-50589.1	955.82	-29755.6	0.000000	0.000000	7.097289	115.566	NaN	0.000000	0.001562	0.001521	28.0779	47.6795	0.001795	26556.5	5.074989	177.081	113.5	1.092048	0.050432	0.050091	115.566	26556.5	0.047168	0.083861	1378.06	83784.3
239	2.000000	1.094360	7.36739e+06	-50589.1	955.819	-29755.6	0.000000	0.000000	7.099629	124.56	NaN	0.000000	0.001572	0.001485	28.078	49.8077	0.001784	27916.5	4.898525	176.82	122.428	1.094090	0.052402	0.052132	124.56	27916.5	0.049056	0.089516	1391.49	85247.9
239	2.000000	1.096425	7.36739e+06	-50589.1	955.819	-29755.6	0.000000	0.000000	7.102045	133.077	NaN	0.000000	0.001595	0.001552	28.079	52.0578	0.001766	29485.6	5.215645	175.858	130.885	1.096132	0.054467	0.054174	133.077	29485.6	0.051082	0.095788	1389.29	87041.6
239	2.000000	1.098411	7.36739e+06	-50589.1	955.82	-29755.6	0.000000	0.000000	7.104357	141.015	NaN	0.000000	0.001578	0.001533	28.0778	53.0226	0.001704	31108.6	1.647629	178.911	141.314	1.098167	0.056453	0.056210	141.015	31108.6	0.053053	0.102084	1381.37	88956.2
239	2.000000	1.100482	7.36739e+06	-50589.1	955.82	-29755.6	0.000000	0.000000	7.106813	150.356	NaN	0.000000	0.001554	0.001552	28.0778	57.3051	0.001902	30136	6.934264	174.029	152.943	1.100142	0.058524	0.058184	150.356	30136	0.054783	0.107767	1395.2	83872
239	2.000000	1.102360	7.36739e+06	-50589.1	955.819	-29755.6	0.000000	0.000000	7.109057	159.266	NaN	0.000000	0.001570	0.001508	28.0781	57.502	0.001802	31912.9	6.570196	173.911	156.466	1.102069	0.060402	0.060111	159.266	31912.9	0.056659	0.114102	1395.82	86316.1
239	2.000000	1.104415	7.36739e+06	-50589.1	955.819	-29755.6	0.000000	0.000000	7.111412	166.55	NaN	0.000000	0.001597	0.001529	28.078	58.7276	0.001791	32788.4	2.744389	177.408	165.382	1.104110	0.062458	0.062152	166.55	32788.4	0.058648	0.121005	1376.4	86117.6
239	2.000000	1.106398	7.36739e+06	-50589.1	955.821	-29755.6	0.000000	0.000000	7.113737	174.884	NaN	0.000000	0.001611	0.001590	28.0782	60.3133	0.001801	33484.5	1.851625	178.253	172.007	1.106067	0.064440	0.064110	174.884	33484.5	0.060523	0.127690	1369.6	85612.7
239	2.000000	1.108364	7.36739e+06	-50589.1	955.82	-29755.6	0.000000	0.000000	7.116372	191.166	NaN	0.000000	0.001605	0.001575	28.078	61.8295	0.001741	35512.8	2.765826	176.935	189.514	1.108032	0.066406	0.066074	191.166	35512.8	0.062369	0.134439	1421.95	88490.2
239	2.000000	1.110360	7.36739e+06	-50589.1	955.819	-29755.6	0.000000	0.000000	7.118736	200.092	NaN	0.000000	0.001580	0.001576	28.0795	65.5108	0.001781	36791.8	6.155188	173.113	197.345	1.110081	0.068402	0.068124	200.092	36791.8	0.064324	0.141767	1411.41	89276.4
239	2.000000	1.112390	7.36739e+06	-50589.1	955.82	-29755.6	0.000000	0.000000	7.121260	212.1	NaN	0.000000	0.001563	0.001507	28.0791	66.1473	0.001867	35420.3	3.979973	176.2	210.933	1.112105	0.070432	0.070147	212.1	35420.3	0.065941	0.147971	1433.4	84127.6
239	2.000000	1.114365	7.36739e+06	-50589.1	955.82	-29755.6	0.000000	0.000000	7.123547	219.703	NaN	0.000000	0.001604	0.001524	28.079	67.4306	0.001774	38010	2.836498	176.958	216.367	1.114065	0.072408	0.072107	219.703	38010	0.068072	0.156335	1405.33	87829.9
239	2.000000	1.116468	7.36739e+06	-50589.1	955.819	-29755.6	0.000000	0.000000	7.126092	230.432	NaN	0.000000	0.001544	0.001543	28.0793	70.0834	0.001836	38179.7	4.690236	174.844	230.315	1.116134	0.074510	0.074176	230.432	38179.7	0.069984	0.164022	1404.88	86130
239	2.000000	1.118314	7.36739e+06	-50589.1	955.82	-29755.6	0.000000	0.000000	7.128459	243.113	NaN	0.000000	0.001554	0.001522	28.0792	69.9732	0.001783	39244.2	-0.264833	179.663	238.348	1.118058	0.076356	0.076100	243.113	39244.2	0.071710	0.171113	1420.77	86677.7
239	2.000000	1.120483	7.36739e+06	-50589.1	955.82	-29755.6	0.000000	0.000000	7.130538	240.927	NaN	0.000000	0.001550	0.001524	28.0799	73.5263	0.001874	39235.8	0.929776	177.842	242.32	1.120265	0.078525	0.078307	240.927	39235.8	0.073920	0.180398	1335.54	84399.6
239	2.000000	1.122368	7.36739e+06	-50589.1	955.819	-29755.6	0.000000	0.000000	7.133324	262.829	NaN	0.000000	0.001562	0.001543	28.0792	73.624	0.001734	42465.8	0.160787	178.059	260.406	1.122139	0.080411	0.080181	262.829	42465.8	0.075769	0.188343	1395.48	89400.2
239	2.000000	1.124338	7.36739e+06	-50589.1	955.82	-29755.6	0.000000	0.000000	7.135999	280.002	NaN	0.000000	0.001549	0.001494	28.0789	76.099	0.001670	45563.5	3.440301	174.11	277.085	1.124180	0.082380	0.082222	280.002	45563.5	0.077771	0.197128	1420.41	93759.8
239	2.000000	1.126438	7.36739e+06	-50589.1	955.82	-29755.6	0.000000	0.000000	7.138613	292.473	NaN	0.000000	0.001568	0.001552	28.0793	78.5343	0.001738	45180.4	8.541273	170.659	291.436	1.125942	0.084480	0.083984	292.473	45180.4	0.079625	0.205431	1423.71	91073.2
239	2.000000	1.128352	7.36739e+06	-50589.1	955.82	-29755.6	0.000000	0.000000	7.140812	299.441	NaN	0.000000	0.001560	0.001501	28.0792	80.4814	0.001765	45601	5.012095	172.631	297.536	1.128129	0.086394	0.086171	299.441	45601	0.081469	0.213845	1400.27	90094.5
239	2.000000	1.130322	7.36739e+06	-50589.1	955.82	-29755.6	0.000000	0.000000	7.143466	316.053	NaN	0.000000	0.001563	0.001523	28.0797	82.8721	0.001785	46423.2	1.700775	176.201	313.746	1.130144	0.088365	0.088186	316.053	46423.2	0.083258	0.222164	1422.61	89985.2
239	2.000000	1.132354	7.36739e+06	-50589.1	955.819	-29755.6	0.000000	0.000000	7.146047	329.419	NaN	0.000000	0.001543	0.001521	28.0791	84.0849	0.001747	48126.2	3.523222	173.939	328.083	1.132051	0.090396	0.090093	329.419	48126.2	0.085262	0.231653	1422.03	91355.7
239	2.000000	1.134374	7.36739e+06	-50589.1	955.819	-29755.6	0.000000	0.000000	7.148707	344.967	NaN	0.000000	0.001580	0.001551	28.0794	86.9221	0.001800	48290.1	7.393959	169.962	345.217	1.134041	0.092416	0.092083	344.967	48290.1	0.087058	0.240318	1435.46	89999.1
239	2.000000	1.136353	7.36739e+06	-50589.1	955.82	-29755.6	0.000000	0.000000	7.151222	357.983	NaN	0.000000	0.001657	0.001563	28.0795	87.5697	0.001695	51651.4	4.173099	173.365	353.829	1.135939	0.094395	0.093982	357.983	51651.4	0.089197	0.250831	1427.19	94224.7
239	2.000000	1.138358	7.36739e+06	-50589.1	955.819	-29755.6	0.000000	0.000000	7.153908	374.57	NaN	0.000000	0.001621	0.001538	28.0793	89.8879	0.001860	48327.3	5.957378	172.179	373.332	1.138085	0.096400	0.096127	374.57	48327.3	0.090587	0.257771	1453.11	86965.8
239	2.000000	1.140459	7.36739e+06	-50589.1	955.82	-29755.6	0.000000	0.000000	7.156644	390.013	NaN	0.000000	0.001663	0.001541	28.0793	91.1818	0.001702	53575	3.801259	173.505	392.595	1.139990	0.098501	0.098032	390.013	53575	0.093041	0.270249	1443.16	94157.2
239	2.000000	1.142302	7.36739e+06	-50589.1	955.82	-29755.6	0.000000	0.000000	7.159089	404.642	NaN	0.000000	0.001594	0.001515	28.0793	91.6688	0.001609	56972.4	6.036625	170.171	401.256	1.142030	0.100344	0.100073	404.642	56972.4	0.095017	0.280494	1442.61	98282.5
239	2.000000	1.144350	7.36739e+06	-50589.1	955.82	-29755.6	0.000000	0.000000	7.161760	419.795	NaN	0.000000	0.001594	0.001530	28.079	95.776	0.001811	52888.5	5.974923	171.217	419.065	1.143953	0.102392	0.101995	419.795	52888.5	0.096439	0.287977	1457.74	90044.1
239	2.000000	1.146480	7.36739e+06	-50589.1	955.82	-29755.6	0.000000	0.000000	7.164470	433.885	NaN	0.000000	0.001620	0.001521	28.0782	97.8352	0.001882	51980.3	8.087214	169.307	437.468	1.146050	0.104523	0.104092	433.885	51980.3	0.098262	0.297705	1457.43	87040
239	2.000000	1.148395	7.36739e+06	-50589.1	955.82	-29755.6	0.000000	0.000000	7.167070	450.542	NaN	0.000000	0.001646	0.001521	28.078	97.4492	0.001646	59189.3	4.046498	171.96	452.674	1.148089	0.106437	0.106131	450.542	59189.3	0.100728	0.311105	1448.2	96953.2
239	2.000000	1.150359	7.36739e+06	-50589.1	955.82	-29755.6	0.000000	0.000000	7.169828	469.867	NaN	0.000000	0.001643	0.001508	28.0781	101.235	0.001859	54461.5	4.347726	172.576	466.984	1.149954	0.108401	0.107997	469.867	54461.5	0.101930	0.317736	1478.8	88273.4
239	2.000000	1.151338	7.36739e+06	-50589.1	955.82	-29755.6	0.000000	0.000000	7.170692	467.046	NaN	0.000000	0.001600	0.001489	28.0784	102.127	0.001856	55012.6	5.267389	171.075	464.365	1.151104	0.109381	0.109146	467.046	55012.6	0.103013	0.323768	1442.53	88332