File: remote_trans/data/nanoindenter/0828-1/data/Data_2025-08-06,11h17m57s/2025-07-22_16-23-58_1_642.txt
2025-07-22, 16:23:58, 1
Index	Phase	Displacement	Time	Pos X	Pos Y	Pos Z	Rot A	Rot B	Piezo Z	Force A	Force B	Gripper	Voltage A	Voltage B	Temperature	Amplitude force	Amplitude pos	Stiffness	Phase shift	Phase excitation	Force A raw	Displacement raw	HMax	HMax raw	Real Force	Real Stiffness	Contact Depth	Area	Hardness	Reduced Mod.
[#]	[#]	[um]	[s]	[um]	[um]	[um]	[m°]	[m°]	[um]	[uN]	[uN]	[V]	[V]	[V]	[°C]	[uN]	[um]	[N/m]	[°]	[°]	[uN]	[um]	[um]	[um]	[uN]	[N/m]	[um]	[um^2]	[MPa]	[MPa]
642	1.000000	0.003027	7.37133e+06	-44989.1	1005.82	-29774	0.000000	0.000000	6.002809	0.082077	NaN	0.000000	0.001744	0.001712	28.0837	0.027026	0.000914	29.5766	128.12	-169.669	0.032561	0.001735	-1.062522	-1.063813	0.082077	29.5766	-1.064603	-1.677562E+14	-4.892648E-16	NaN
642	1.000000	0.010992	7.37133e+06	-44989.1	1005.82	-29774	0.000000	0.000000	6.010772	0.003984	NaN	0.000000	0.001746	0.001770	28.0833	0.108500	0.000967	112.243	173.117	-162.719	-0.025684	0.009660	-1.054556	-1.055888	0.003984	112.243	-1.054583	-1.230309E+14	-3.238051E-17	NaN
642	1.000000	0.018972	7.37133e+06	-44989.1	1005.82	-29774	0.000000	0.000000	6.018752	0.012863	NaN	0.000000	0.001760	0.001750	28.0832	0.071187	0.001610	44.226	-21.3025	-167.055	0.069444	0.017669	-1.046577	-1.047880	0.012863	44.226	-1.046795	-9.667774E+13	-1.330472E-16	NaN
642	1.000000	0.027013	7.37133e+06	-44989.1	1005.82	-29774	0.000000	0.000000	6.026794	0.050576	NaN	0.000000	0.001778	0.001720	28.0835	0.032478	0.001814	17.9041	-132.814	-162.744	0.081310	0.025695	-1.038536	-1.039854	0.050576	17.9041	-1.040655	-7.994109E+13	-6.326716E-16	NaN
642	1.000000	0.034960	7.37133e+06	-44989.1	1005.82	-29774	0.000000	0.000000	6.034741	0.039369	NaN	0.000000	0.001730	0.001723	28.0834	0.075187	0.001879	40.0242	61.3056	-165.369	0.010280	0.033648	-1.030588	-1.031900	0.039369	40.0242	-1.031326	-5.988503E+13	-6.574020E-16	NaN
642	1.000000	0.042960	7.37133e+06	-44989.1	1005.82	-29774	0.000000	0.000000	6.042737	-0.042871	NaN	0.000000	0.001777	0.001708	28.0837	0.091338	0.002127	42.943	-146.842	-165.116	-0.054759	0.041619	-1.022589	-1.023930	-0.042871	42.943	-1.021840	-4.463865E+13	9.604006E-16	NaN
642	1.000000	0.050968	7.37133e+06	-44989.1	1005.82	-29774	0.000000	0.000000	6.050746	-0.026328	NaN	0.000000	0.001754	0.001676	28.0822	0.109701	0.002024	54.2027	38.9314	-162.416	0.007171	0.049680	-1.014580	-1.015869	-0.026328	54.2027	-1.014216	-3.524703E+13	7.469616E-16	NaN
642	1.000000	0.058945	7.37133e+06	-44989.1	1005.82	-29774	0.000000	0.000000	6.058726	0.047485	NaN	0.000000	0.001727	0.001696	28.0823	0.081080	0.001967	41.2267	90.5594	-164.776	0.061702	0.057669	-1.006604	-1.007879	0.047485	41.2267	-1.007468	-2.859555E+13	-1.660588E-15	NaN
642	1.000000	0.066994	7.37133e+06	-44989.1	1005.82	-29774	0.000000	0.000000	6.066773	-0.019201	NaN	0.000000	0.001689	0.001696	28.0822	0.062542	0.002069	30.2234	39.855	-165.539	-0.030435	0.065664	-0.998554	-0.999885	-0.019201	30.2234	-0.998078	-2.137411E+13	8.983229E-16	NaN
642	1.000000	0.074988	7.37133e+06	-44989.1	1005.82	-29774	0.000000	0.000000	6.074767	-0.011659	NaN	0.000000	0.001674	0.001711	28.0823	0.139992	0.002078	67.3649	-161.183	-165.716	-0.026270	0.073609	-0.990560	-0.991939	-0.011659	67.3649	-0.990431	-1.686205E+13	6.914467E-16	NaN
642	1.000000	0.082991	7.37133e+06	-44989.1	1005.82	-29774	0.000000	0.000000	6.082772	0.051683	NaN	0.000000	0.001664	0.001708	28.0823	0.017514	0.002052	8.534739	112.037	-163.635	-0.034761	0.081678	-0.982558	-0.983870	0.051683	8.534739	-0.987099	-1.520699E+13	-3.398617E-15	NaN
642	1.000000	0.090989	7.37133e+06	-44989.1	1005.82	-29774	0.000000	0.000000	6.090768	-0.028099	NaN	0.000000	0.001689	0.001727	28.0822	0.083460	0.002099	39.7691	69.532	-163.324	0.058105	0.089637	-0.974559	-0.975911	-0.028099	39.7691	-0.974029	-1.013823E+13	2.771633E-15	NaN
642	1.000000	0.098961	7.37133e+06	-44989.1	1005.82	-29774	0.000000	0.000000	6.098741	0.014797	NaN	0.000000	0.001632	0.001679	28.0824	0.031936	0.002038	15.6667	125.889	-168.405	-0.043670	0.097703	-0.966587	-0.967846	0.014797	15.6667	-0.967296	-8.226458E+12	-1.798651E-15	NaN
642	1.000000	0.106984	7.37133e+06	-44989.1	1005.82	-29774	0.000000	0.000000	6.106765	0.035826	NaN	0.000000	0.001637	0.001666	28.0823	0.123399	0.002020	61.0936	172.141	-166.962	0.017762	0.105719	-0.958565	-0.959830	0.035826	61.0936	-0.959005	-6.359880E+12	-5.633051E-15	NaN
642	1.000000	0.114982	7.37133e+06	-44989.1	1005.82	-29774	0.000000	0.000000	6.114762	0.005698	NaN	0.000000	0.001657	0.001703	28.0825	0.044210	0.001974	22.3963	100.768	-162.988	-0.001702	0.113679	-0.950566	-0.951870	0.005698	22.3963	-0.950757	-4.923055E+12	-1.157429E-15	NaN
642	1.000000	0.122970	7.37133e+06	-44989.1	1005.82	-29774	0.000000	0.000000	6.122748	-0.048879	NaN	0.000000	0.001687	0.001711	28.0822	0.056869	0.002011	28.2794	4.724877	-164.016	-0.022193	0.121680	-0.942578	-0.943868	-0.048879	28.2794	-0.941282	-3.668033E+12	1.332573E-14	NaN
642	1.000000	0.130979	7.37133e+06	-44989.1	1005.82	-29774	0.000000	0.000000	6.130761	0.062742	NaN	0.000000	0.001680	0.001705	28.0825	0.076937	0.001904	40.4056	-145.608	-165.599	-0.045688	0.129752	-0.934569	-0.935797	0.062742	40.4056	-0.935734	-3.087302E+12	-2.032252E-14	NaN
642	1.000000	0.138988	7.37133e+06	-44989.1	1005.82	-29774	0.000000	0.000000	6.138767	0.007205	NaN	0.000000	0.001694	0.001647	28.0826	0.027430	0.002096	13.0896	89.1703	-166.652	-0.066714	0.137696	-0.926561	-0.927853	0.007205	13.0896	-0.926974	-2.351527E+12	-3.064001E-15	NaN
642	1.000000	0.147009	7.37133e+06	-44989.1	1005.82	-29774	0.000000	0.000000	6.146790	0.037774	NaN	0.000000	0.001680	0.001706	28.0824	0.042977	0.002049	20.9699	29.1306	-166.372	0.026684	0.145687	-0.918539	-0.919861	0.037774	20.9699	-0.919890	-1.886787E+12	-2.002046E-14	NaN
642	1.000000	0.155015	7.37133e+06	-44989.1	1005.82	-29774	0.000000	0.000000	6.154794	-0.021547	NaN	0.000000	0.001697	0.001696	28.0823	0.132088	0.002117	62.3983	39.9284	-168.09	-0.029772	0.153749	-0.910533	-0.911799	-0.021547	62.3983	-0.910275	-1.399171E+12	1.540007E-14	NaN
642	1.000000	0.163045	7.37133e+06	-44989.1	1005.82	-29774	0.000000	0.000000	6.162824	-0.014354	NaN	0.000000	0.001670	0.001701	28.0822	0.100685	0.001875	53.708	2.951058	-163.738	0.053080	0.161698	-0.902503	-0.903851	-0.014354	53.708	-0.902303	-1.091896E+12	1.314571E-14	NaN
642	1.000000	0.171034	7.37133e+06	-44989.1	1005.82	-29774	0.000000	0.000000	6.170815	0.038154	NaN	0.000000	0.001670	0.001670	28.0825	0.119289	0.001999	59.6711	-120.661	-165.898	0.031866	0.169736	-0.894515	-0.895813	0.038154	59.6711	-0.894994	-8.697987E+11	-4.386571E-14	NaN
642	1.000000	0.179020	7.37133e+06	-44989.1	1005.82	-29774	0.000000	0.000000	6.178799	0.007001	NaN	0.000000	0.001712	0.001680	28.0823	0.053337	0.001936	27.5457	-140.026	-165.943	0.057262	0.177703	-0.886529	-0.887845	0.007001	27.5457	-0.886720	-6.723063E+11	-1.041323E-14	NaN
642	1.000000	0.187056	7.37133e+06	-44989.1	1005.82	-29774	0.000000	0.000000	6.186840	0.104835	NaN	0.000000	0.001721	0.001725	28.0836	0.096356	0.002002	48.1313	37.1578	-164.097	0.038835	0.185741	-0.878493	-0.879807	0.104835	48.1313	-0.880126	-5.475399E+11	-1.914657E-13	NaN
642	1.000000	0.195048	7.37133e+06	-44989.1	1005.82	-29774	0.000000	0.000000	6.194829	0.030648	NaN	0.000000	0.001711	0.001722	28.0836	0.030334	0.002029	14.9492	-52.029	-169.499	0.061942	0.193726	-0.870500	-0.871822	0.030648	14.9492	-0.872038	-4.256092E+11	-7.200901E-14	NaN
642	1.000000	0.203013	7.37133e+06	-44989.1	1005.82	-29774	0.000000	0.000000	6.202793	0.010318	NaN	0.000000	0.001691	0.001720	28.0836	0.036604	0.001960	18.6781	144.752	-169.16	0.055431	0.201684	-0.862535	-0.863865	0.010318	18.6781	-0.862950	-3.206600E+11	-3.217880E-14	NaN
642	1.000000	0.211073	7.37133e+06	-44989.1	1005.82	-29774	0.000000	0.000000	6.210853	0.015097	NaN	0.000000	0.001685	0.001716	28.0833	0.082313	0.001971	41.7694	120.865	-166.434	0.039124	0.209721	-0.854476	-0.855827	0.015097	41.7694	-0.854747	-2.483198E+11	-6.079520E-14	NaN
642	1.000000	0.219051	7.37133e+06	-44989.1	1005.82	-29774	0.000000	0.000000	6.218834	0.100044	NaN	0.000000	0.001732	0.001745	28.0833	0.069790	0.002121	32.9015	37.5639	-164.469	0.141107	0.217758	-0.846498	-0.847790	0.100044	32.9015	-0.848778	-2.061541E+11	-4.852893E-13	NaN
642	1.000000	0.227013	7.37133e+06	-44989.1	1005.82	-29774	0.000000	0.000000	6.226793	0.017174	NaN	0.000000	0.001651	0.001710	28.0834	0.048291	0.001918	25.1718	-113.907	-163.051	0.001669	0.225711	-0.838535	-0.839838	0.017174	25.1718	-0.839047	-1.521889E+11	-1.128495E-13	NaN
642	1.000000	0.235018	7.37133e+06	-44989.1	1005.82	-29774	0.000000	0.000000	6.234795	-0.056692	NaN	0.000000	0.001696	0.001688	28.0835	0.081771	0.001939	42.171	124.542	-162.031	0.046988	0.233731	-0.830531	-0.831817	-0.056692	42.171	-0.829523	-1.130614E+11	5.014248E-13	NaN
642	1.000000	0.243056	7.37133e+06	-44989.1	1005.82	-29774	0.000000	0.000000	6.242837	0.049809	NaN	0.000000	0.001698	0.001719	28.0835	0.058786	0.001964	29.9324	-41.0431	-163.618	0.098166	0.241794	-0.822493	-0.823754	0.049809	29.9324	-0.823741	-9.439118E+10	-5.276832E-13	NaN
642	1.000000	0.251046	7.37133e+06	-44989.1	1005.82	-29774	0.000000	0.000000	6.250825	0.004323	NaN	0.000000	0.001706	0.001707	28.0838	0.069196	0.001953	35.4215	6.747598	-164.521	0.047575	0.249706	-0.814503	-0.815842	0.004323	35.4215	-0.814594	-7.094057E+10	-6.094078E-14	NaN
642	1.000000	0.259058	7.37133e+06	-44989.1	1005.82	-29774	0.000000	0.000000	6.258837	-0.016308	NaN	0.000000	0.001732	0.001723	28.0834	0.069658	0.002071	33.632	-138.723	-165.126	0.022798	0.257742	-0.806490	-0.807807	-0.016308	33.632	-0.806127	-5.445227E+10	2.994828E-13	NaN
642	1.000000	0.267060	7.37133e+06	-44989.1	1005.82	-29774	0.000000	0.000000	6.266839	-0.010881	NaN	0.000000	0.001688	0.001674	28.0837	0.179405	0.001954	91.8304	-15.3667	-166.287	0.044206	0.265751	-0.798489	-0.799798	-0.010881	91.8304	-0.798400	-4.277034E+10	2.544159E-13	NaN
642	1.000000	0.275049	7.37133e+06	-44989.1	1005.82	-29774	0.000000	0.000000	6.274828	-0.022625	NaN	0.000000	0.001709	0.001717	28.0835	0.027939	0.002005	13.9358	-76.0573	-166.473	0.003937	0.273757	-0.790499	-0.791791	-0.022625	13.9358	-0.789281	-3.216061E+10	7.034878E-13	NaN
642	1.000000	0.283076	7.37133e+06	-44989.1	1005.82	-29774	0.000000	0.000000	6.282858	0.053408	NaN	0.000000	0.001684	0.001704	28.0835	0.101033	0.001965	51.4292	-12.8315	-161.91	0.030823	0.281779	-0.782472	-0.783769	0.053408	51.4292	-0.783251	-2.663238E+10	-2.005369E-12	NaN
642	1.000000	0.291070	7.37133e+06	-44989.1	1005.82	-29774	0.000000	0.000000	6.290847	-0.046327	NaN	0.000000	0.001698	0.001723	28.0836	0.049963	0.001996	25.0321	-45.2687	-164.42	-0.078121	0.289752	-0.774479	-0.775797	-0.046327	25.0321	-0.773091	-1.937879E+10	2.390611E-12	NaN
642	1.000000	0.299067	7.37133e+06	-44989.1	1005.82	-29774	0.000000	0.000000	6.298847	0.015866	NaN	0.000000	0.001678	0.001681	28.0835	0.032034	0.002072	15.4602	12.6627	-163.517	-0.050096	0.297757	-0.766482	-0.767791	0.015866	15.4602	-0.767251	-1.614106E+10	-9.829851E-13	NaN
642	1.000000	0.307026	7.37133e+06	-44989.1	1005.82	-29774	0.000000	0.000000	6.306805	0.001259	NaN	0.000000	0.001714	0.001666	28.0837	0.059128	0.002015	29.3417	159.953	-166.47	0.058078	0.305791	-0.758523	-0.759758	0.001259	29.3417	-0.758555	-1.229256E+10	-1.024373E-13	NaN
642	1.000000	0.315076	7.37133e+06	-44989.1	1005.82	-29774	0.000000	0.000000	6.314856	0.012654	NaN	0.000000	0.001682	0.001674	28.0836	0.045754	0.001995	22.9298	-5.195164	-165.135	0.062171	0.313801	-0.750472	-0.751747	0.012654	22.9298	-0.750886	-9.666766E+9	-1.309021E-12	NaN
642	1.000000	0.323118	7.37133e+06	-44989.1	1005.82	-29774	0.000000	0.000000	6.322898	0.014674	NaN	0.000000	0.001718	0.001696	28.0833	0.049072	0.002061	23.8104	-53.6092	-164.258	-0.029350	0.321793	-0.742430	-0.743756	0.014674	23.8104	-0.742892	-7.523972E+9	-1.950307E-12	NaN
642	1.000000	0.331093	7.37133e+06	-44989.1	1005.82	-29774	0.000000	0.000000	6.330875	0.048392	NaN	0.000000	0.001754	0.001720	28.0823	0.109285	0.001946	56.1465	-14.9384	-167.048	0.124294	0.329774	-0.734455	-0.735774	0.048392	56.1465	-0.735102	-5.892912E+9	-8.211960E-12	NaN
642	1.000000	0.339050	7.37133e+06	-44989.1	1005.82	-29774	0.000000	0.000000	6.338828	-0.034746	NaN	0.000000	0.001649	0.001698	28.0823	0.108328	0.001957	55.3556	-95.4958	-161.859	-0.054050	0.337795	-0.726499	-0.727754	-0.034746	55.3556	-0.726028	-4.432678E+9	7.838514E-12	NaN
642	1.000000	0.347118	7.37133e+06	-44989.1	1005.82	-29774	0.000000	0.000000	6.346896	-0.014565	NaN	0.000000	0.001643	0.001691	28.0825	0.036971	0.001936	19.1008	-109.526	-166.754	0.029484	0.345791	-0.718431	-0.719757	-0.014565	19.1008	-0.717859	-3.429827E+9	4.246581E-12	NaN
642	1.000000	0.355114	7.37133e+06	-44989.1	1005.82	-29774	0.000000	0.000000	6.354893	-0.013236	NaN	0.000000	0.001668	0.001689	28.0824	0.089269	0.001999	44.6521	-52.3487	-167.297	-0.048119	0.353869	-0.710434	-0.711680	-0.013236	44.6521	-0.710212	-2.697385E+9	4.907120E-12	NaN
642	1.000000	0.363096	7.37133e+06	-44989.1	1005.82	-29774	0.000000	0.000000	6.362875	-0.016477	NaN	0.000000	0.001638	0.001733	28.0827	0.014909	0.002054	7.259801	107.255	-167.422	-0.032329	0.361782	-0.702452	-0.703766	-0.016477	7.259801	-0.700750	-2.003430E+9	8.224435E-12	NaN
642	1.000000	0.371084	7.37133e+06	-44989.1	1005.82	-29774	0.000000	0.000000	6.370860	-0.084212	NaN	0.000000	0.001650	0.001720	28.0823	0.075940	0.002034	37.3312	-157.278	-167.645	-0.019061	0.369756	-0.694464	-0.695793	-0.084212	37.3312	-0.692772	-1.558840E+9	5.402226E-11	NaN
642	1.000000	0.379104	7.37133e+06	-44989.1	1005.82	-29774	0.000000	0.000000	6.378886	0.061037	NaN	0.000000	0.001698	0.001711	28.0823	0.068047	0.001897	35.8791	-98.1082	-163.318	-0.054258	0.377818	-0.686444	-0.687730	0.061037	35.8791	-0.687720	-1.329706E+9	-4.590256E-11	NaN
642	1.000000	0.387129	7.37133e+06	-44989.1	1005.82	-29774	0.000000	0.000000	6.386908	-0.010543	NaN	0.000000	0.001678	0.001689	28.0825	0.052358	0.002040	25.6718	-136.112	-162.696	-0.040504	0.385779	-0.678419	-0.679770	-0.010543	25.6718	-0.678111	-9.825842E+8	1.072975E-11	NaN
642	1.000000	0.395139	7.37133e+06	-44989.1	1005.82	-29774	0.000000	0.000000	6.394921	0.072912	NaN	0.000000	0.001636	0.001690	28.0826	0.057617	0.001984	29.035	2.877222	-165.452	0.042328	0.393825	-0.670410	-0.671724	0.072912	29.035	-0.672293	-8.180368E+8	-8.912994E-11	NaN
642	1.000000	0.403115	7.37133e+06	-44989.1	1005.82	-29774	0.000000	0.000000	6.402893	-0.051303	NaN	0.000000	0.001701	0.001694	28.083	0.057704	0.002034	28.3763	-122.781	-166.466	-0.041017	0.401765	-0.662433	-0.663784	-0.051303	28.3763	-0.661077	-5.744139E+8	8.931415E-11	NaN
642	1.000000	0.411148	7.37133e+06	-44989.1	1005.82	-29774	0.000000	0.000000	6.410929	0.029286	NaN	0.000000	0.001661	0.001707	28.0824	0.064427	0.002094	30.7635	124.048	-163.166	0.013828	0.409802	-0.654400	-0.655746	0.029286	30.7635	-0.655114	-4.759205E+8	-6.153615E-11	NaN
642	1.000000	0.419134	7.37133e+06	-44989.1	1005.82	-29774	0.000000	0.000000	6.418914	0.022946	NaN	0.000000	0.001674	0.001717	28.0828	0.058633	0.002026	28.935	72.6547	-168.892	-0.010940	0.417820	-0.646415	-0.647728	0.022946	28.935	-0.647010	-3.684985E+8	-6.226917E-11	NaN
642	1.000000	0.427099	7.37133e+06	-44989.1	1005.82	-29774	0.000000	0.000000	6.426876	-0.058003	NaN	0.000000	0.001671	0.001716	28.0825	0.031529	0.002068	15.2492	154.628	-166.674	-0.038034	0.425848	-0.638449	-0.639700	-0.058003	15.2492	-0.635596	-2.569554E+8	2.257315E-10	NaN
642	1.000000	0.435110	7.37133e+06	-44989.1	1005.82	-29774	0.000000	0.000000	6.434889	-0.006650	NaN	0.000000	0.001676	0.001717	28.0826	0.034452	0.002082	16.5493	84.3263	-162.791	-0.032900	0.433846	-0.630438	-0.631702	-0.006650	16.5493	-0.630137	-2.162251E+8	3.075661E-11	NaN
642	1.000000	0.443160	7.37133e+06	-44989.1	1005.82	-29774	0.000000	0.000000	6.442940	0.017031	NaN	0.000000	0.001673	0.001712	28.0824	0.066160	0.002031	32.5811	0.582958	-165.589	0.037572	0.441820	-0.622389	-0.623729	0.017031	32.5811	-0.622781	-1.713377E+8	-9.940168E-11	NaN
642	1.000000	0.451137	7.37133e+06	-44989.1	1005.82	-29774	0.000000	0.000000	6.450917	-0.006284	NaN	0.000000	0.001679	0.001742	28.0825	0.055102	0.001956	28.1707	114.68	-167.223	-0.012033	0.449842	-0.614411	-0.615707	-0.006284	28.1707	-0.614244	-1.307646E+8	4.805781E-11	NaN
642	1.000000	0.459155	7.37133e+06	-44989.1	1005.82	-29774	0.000000	0.000000	6.458933	-0.047743	NaN	0.000000	0.001704	0.001754	28.0837	0.058629	0.002048	28.6252	-98.2909	-164.642	0.042097	0.457841	-0.606393	-0.607708	-0.047743	28.6252	-0.605142	-9.800817E+7	4.871314E-10	NaN
642	1.000000	0.467134	7.37133e+06	-44989.1	1005.82	-29774	0.000000	0.000000	6.466913	-0.001231	NaN	0.000000	0.001711	0.001714	28.0839	0.020570	0.002149	9.573578	-108.297	-160.051	-0.017869	0.465811	-0.598415	-0.599737	-0.001231	9.573578	-0.598318	-7.893977E+7	1.558831E-11	NaN
642	1.000000	0.475148	7.37133e+06	-44989.1	1005.82	-29774	0.000000	0.000000	6.474929	0.032700	NaN	0.000000	0.001696	0.001737	28.0837	0.053259	0.001970	27.0402	-133.227	-162.569	-0.017653	0.473845	-0.590400	-0.591704	0.032700	27.0402	-0.591307	-6.319561E+7	-5.174355E-10	NaN
642	1.000000	0.483178	7.37133e+06	-44989.1	1005.82	-29774	0.000000	0.000000	6.482955	-0.054729	NaN	0.000000	0.001715	0.001730	28.0836	0.047259	0.002075	22.7711	-124.248	-162.113	-0.030750	0.481858	-0.582371	-0.583691	-0.054729	22.7711	-0.580568	-4.493338E+7	1.217998E-9	NaN
642	1.000000	0.491185	7.37133e+06	-44989.1	1005.82	-29774	0.000000	0.000000	6.490962	-0.050257	NaN	0.000000	0.001716	0.001806	28.0837	0.057458	0.001992	28.8486	-114.509	-166.939	-0.059623	0.489824	-0.574363	-0.575724	-0.050257	28.8486	-0.573057	-3.538846E+7	1.420150E-9	NaN
642	1.000000	0.499163	7.37133e+06	-44989.1	1005.82	-29774	0.000000	0.000000	6.498942	-0.006135	NaN	0.000000	0.001729	0.001783	28.084	0.029290	0.002001	14.6366	-171.757	-163.795	0.004475	0.497868	-0.566385	-0.567681	-0.006135	14.6366	-0.566071	-2.833538E+7	2.165103E-10	NaN
642	1.000000	0.507159	7.37133e+06	-44989.1	1005.82	-29774	0.000000	0.000000	6.506936	-0.069179	NaN	0.000000	0.001737	0.001771	28.0838	0.073350	0.001900	38.6051	28.2266	-165.576	-0.125997	0.505842	-0.558389	-0.559707	-0.069179	38.6051	-0.557045	-2.125675E+7	3.254427E-9	NaN
642	1.000000	0.515159	7.37133e+06	-44989.1	1005.82	-29774	0.000000	0.000000	6.514940	0.039279	NaN	0.000000	0.001691	0.001758	28.0841	0.039651	0.002176	18.2256	-92.3445	-166.229	0.051692	0.513845	-0.550390	-0.551703	0.039279	18.2256	-0.552006	-1.810247E+7	-2.169821E-9	NaN
642	1.000000	0.523156	7.37133e+06	-44989.1	1005.82	-29774	0.000000	0.000000	6.522936	0.016041	NaN	0.000000	0.001705	0.001728	28.0838	0.094190	0.001981	47.5527	-97.2715	-164.324	0.065236	0.521822	-0.542393	-0.543727	0.016041	47.5527	-0.542646	-1.342906E+7	-1.194526E-9	NaN
642	1.000000	0.531183	7.37133e+06	-44989.1	1005.82	-29774	0.000000	0.000000	6.530964	0.042189	NaN	0.000000	0.001708	0.001737	28.0838	0.065603	0.001948	33.6737	-108.914	-164.027	0.049446	0.529848	-0.534366	-0.535700	0.042189	33.6737	-0.535306	-1.062263E+7	-3.971578E-9	NaN
642	1.000000	0.539161	7.37133e+06	-44989.1	1005.82	-29774	0.000000	0.000000	6.538939	-0.042745	NaN	0.000000	0.001710	0.001779	28.0839	0.106804	0.002034	52.5113	54.161	-163.162	-0.070747	0.537869	-0.526387	-0.527680	-0.042745	52.5113	-0.525777	-7.83253e+06	5.457426E-9	NaN
642	1.000000	0.547173	7.37133e+06	-44989.1	1005.82	-29774	0.000000	0.000000	6.546954	0.041534	NaN	0.000000	0.001694	0.001786	28.0836	0.088296	0.001983	44.5196	-137.683	-167.188	0.029095	0.545919	-0.518376	-0.519629	0.041534	44.5196	-0.519075	-6.32028e+06	-6.571532E-9	NaN
642	1.000000	0.555163	7.37133e+06	-44989.1	1005.82	-29774	0.000000	0.000000	6.554946	0.087958	NaN	0.000000	0.001742	0.001760	28.0843	0.058054	0.001974	29.4122	-125.337	-168.291	0.105841	0.553896	-0.510386	-0.511653	0.087958	29.4122	-0.512629	-5.14071e+06	-1.711005E-8	NaN
642	1.000000	0.563152	7.37133e+06	-44989.1	1005.82	-29774	0.000000	0.000000	6.562933	0.049515	NaN	0.000000	0.001724	0.001754	28.0838	0.068172	0.002031	33.571	-65.9645	-164.327	0.025796	0.561873	-0.502397	-0.503676	0.049515	33.571	-0.503503	-3.83596e+06	-1.290821E-8	NaN
642	1.000000	0.571203	7.37133e+06	-44989.1	1005.82	-29774	0.000000	0.000000	6.570983	0.010470	NaN	0.000000	0.001712	0.001762	28.0838	0.042313	0.002087	20.276	-37.5053	-165.125	-0.028329	0.569880	-0.494346	-0.495668	0.010470	20.276	-0.494733	-2.89406e+06	-3.617743E-9	NaN
642	1.000000	0.579173	7.37133e+06	-44989.1	1005.82	-29774	0.000000	0.000000	6.578953	0.021253	NaN	0.000000	0.001710	0.001696	28.0838	0.028924	0.002113	13.6894	-51.8532	-168.838	0.111414	0.577871	-0.486375	-0.487677	0.021253	13.6894	-0.487540	-2.29618e+06	-9.255988E-9	NaN
642	1.000000	0.587223	7.37133e+06	-44989.1	1005.82	-29774	0.000000	0.000000	6.587002	-0.004610	NaN	0.000000	0.001721	0.001780	28.0839	0.032405	0.001961	16.5227	-65.7955	-162.049	-0.013375	0.585829	-0.478326	-0.479720	-0.004610	16.5227	-0.478116	-1.69493e+06	2.719955E-9	NaN
642	1.000000	0.595180	7.37133e+06	-44989.1	1005.82	-29774	0.000000	0.000000	6.594961	0.022251	NaN	0.000000	0.001698	0.001774	28.0834	0.153575	0.002027	75.7768	-51.5228	-166.293	0.025963	0.593910	-0.470368	-0.471639	0.022251	75.7768	-0.470588	-1.32941e+06	-1.673780E-8	NaN
642	1.000000	0.603201	7.37133e+06	-44989.1	1005.82	-29774	0.000000	0.000000	6.602979	-0.039176	NaN	0.000000	0.001710	0.001794	28.083	0.153308	0.001997	76.7604	110.92	-165.643	-0.043223	0.601869	-0.462347	-0.463680	-0.039176	76.7604	-0.461964	-1.00604e+06	3.894069E-8	NaN
642	1.000000	0.611194	7.37133e+06	-44989.1	1005.82	-29774	0.000000	0.000000	6.610973	-0.020466	NaN	0.000000	0.001715	0.001761	28.083	0.048429	0.002039	23.7488	166.649	-165.247	0.055526	0.609887	-0.454354	-0.455661	-0.020466	23.7488	-0.453708	-770086	2.657640E-8	NaN
642	1.000000	0.619200	7.37133e+06	-44989.1	1005.82	-29774	0.000000	0.000000	6.618977	-0.054919	NaN	0.000000	0.001705	0.001737	28.0827	0.080033	0.002097	38.1744	-139.534	-163.898	-0.049762	0.617914	-0.446348	-0.447634	-0.054919	38.1744	-0.445269	-585717	9.376378E-8	NaN
642	1.000000	0.627193	7.37133e+06	-44989.1	1005.82	-29774	0.000000	0.000000	6.626970	-0.041512	NaN	0.000000	0.001692	0.001732	28.0826	0.106007	0.002026	52.3304	128.401	-164.918	-0.078378	0.625882	-0.438356	-0.439666	-0.041512	52.3304	-0.437761	-458936	9.045174E-8	NaN
642	1.000000	0.635217	7.37133e+06	-44989.1	1005.82	-29774	0.000000	0.000000	6.634998	0.041325	NaN	0.000000	0.001662	0.001750	28.0826	0.067676	0.001918	35.289	69.3866	-163.362	-0.040686	0.633901	-0.430332	-0.431648	0.041325	35.289	-0.431210	-370835	-1.114389E-7	NaN
642	1.000000	0.643217	7.37133e+06	-44989.1	1005.82	-29774	0.000000	0.000000	6.642997	0.019193	NaN	0.000000	0.001723	0.001748	28.0827	0.047345	0.002030	23.3282	-108.647	-163.972	0.018922	0.641903	-0.422332	-0.423646	0.019193	23.3282	-0.422949	-283285	-6.775001E-8	NaN
642	1.000000	0.651210	7.37133e+06	-44989.1	1005.82	-29774	0.000000	0.000000	6.650986	-0.089737	NaN	0.000000	0.001685	0.001750	28.083	0.121582	0.002095	58.0336	-165.682	-166.612	-0.096085	0.649873	-0.414338	-0.415675	-0.089737	58.0336	-0.413179	-205865	4.359027E-7	NaN
642	1.000000	0.659230	7.37133e+06	-44989.1	1005.82	-29774	0.000000	0.000000	6.659011	0.035296	NaN	0.000000	0.001661	0.001754	28.0826	0.021209	0.001999	10.6126	147.258	-168.042	0.039640	0.657883	-0.406319	-0.407666	0.035296	10.6126	-0.408813	-178451	-1.977925E-7	NaN
642	1.000000	0.667241	7.37133e+06	-44989.1	1005.82	-29774	0.000000	0.000000	6.667020	-0.005520	NaN	0.000000	0.001635	0.001801	28.0828	0.030316	0.001932	15.6882	-70.2486	-164.609	-0.040038	0.665976	-0.398307	-0.399572	-0.005520	15.6882	-0.398044	-125339	4.403786E-8	NaN
642	1.000000	0.675248	7.37133e+06	-44989.1	1005.82	-29774	0.000000	0.000000	6.675027	-0.011439	NaN	0.000000	0.001704	0.001806	28.0826	0.031629	0.002057	15.375	-114.844	-166.696	-0.025400	0.673892	-0.390300	-0.391657	-0.011439	15.375	-0.389742	-95384.3	1.199226E-7	NaN
642	1.000000	0.683262	7.37133e+06	-44989.1	1005.82	-29774	0.000000	0.000000	6.683042	0.012891	NaN	0.000000	0.001658	0.001793	28.0826	0.060073	0.001909	31.4743	4.980660	-165.404	0.006959	0.681932	-0.382286	-0.383616	0.012891	31.4743	-0.382594	-75351.9	-1.710832E-7	NaN
642	1.000000	0.691231	7.37133e+06	-44989.1	1005.82	-29774	0.000000	0.000000	6.691012	0.036414	NaN	0.000000	0.001642	0.001802	28.0827	0.091145	0.001836	49.6384	55.8118	-164.357	0.100871	0.689906	-0.374317	-0.375642	0.036414	49.6384	-0.374867	-58366.8	-6.238814E-7	NaN
642	1.000000	0.699230	7.37133e+06	-44989.1	1005.82	-29774	0.000000	0.000000	6.699012	0.057426	NaN	0.000000	0.001661	0.001808	28.0824	0.059015	0.002020	29.2217	124.338	-169.589	0.047578	0.697911	-0.366318	-0.367638	0.057426	29.2217	-0.367792	-46165.4	-1.243911E-6	NaN
642	1.000000	0.707240	7.37133e+06	-44989.1	1005.82	-29774	0.000000	0.000000	6.707018	-0.024386	NaN	0.000000	0.001646	0.001805	28.0833	0.040214	0.001980	20.3107	-140.086	-165.239	0.017400	0.705936	-0.358309	-0.359612	-0.024386	20.3107	-0.357409	-32686.2	7.460672E-7	NaN
642	1.000000	0.715249	7.37133e+06	-44989.1	1005.82	-29774	0.000000	0.000000	6.715030	0.030697	NaN	0.000000	0.001661	0.001740	28.0826	0.071892	0.002023	35.5396	-54.2555	-162.41	-0.015983	0.713989	-0.350299	-0.351560	0.030697	35.5396	-0.350947	-26347.9	-1.165047E-6	NaN
642	1.000000	0.723230	7.37133e+06	-44989.1	1005.82	-29774	0.000000	0.000000	6.723012	0.050043	NaN	0.000000	0.001660	0.001781	28.0826	0.108315	0.002036	53.192	-143.442	-165.235	-0.069019	0.721952	-0.342318	-0.343597	0.050043	53.192	-0.343024	-20211.8	-2.475940E-6	NaN
642	1.000000	0.731281	7.37133e+06	-44989.1	1005.82	-29774	0.000000	0.000000	6.731057	-0.064064	NaN	0.000000	0.001742	0.001764	28.083	0.183941	0.001894	97.0972	133.476	-166.117	-0.066387	0.729957	-0.334268	-0.335592	-0.064064	97.0972	-0.333773	-14813.4	4.324749E-6	NaN
642	1.000000	0.739256	7.37133e+06	-44989.1	1005.82	-29774	0.000000	0.000000	6.739033	-0.053031	NaN	0.000000	0.001745	0.001773	28.0837	0.136778	0.001992	68.6632	45.5486	-165.589	-0.068415	0.737902	-0.326292	-0.327647	-0.053031	68.6632	-0.325713	-11287.7	4.698142E-6	NaN
642	1.000000	0.747239	7.37133e+06	-44989.1	1005.82	-29774	0.000000	0.000000	6.747018	-0.005334	NaN	0.000000	0.001740	0.001798	28.0841	0.165427	0.002036	81.27	-174.816	-165.179	-0.095522	0.745901	-0.318309	-0.319647	-0.005334	81.27	-0.318260	-8770.4	6.081395E-7	NaN
642	1.000000	0.755258	7.37133e+06	-44989.1	1005.82	-29774	0.000000	0.000000	6.755038	0.014892	NaN	0.000000	0.001770	0.001814	28.0841	0.050755	0.001938	26.1858	161.402	-168.09	-0.001553	0.753903	-0.310291	-0.311646	0.014892	26.1858	-0.310717	-6786.91	-2.194244E-6	NaN
642	1.000000	0.763265	7.37133e+06	-44989.1	1005.82	-29774	0.000000	0.000000	6.763043	-0.032125	NaN	0.000000	0.001760	0.001767	28.0839	0.062975	0.002035	30.9465	107.341	-166.894	-0.078161	0.761986	-0.302284	-0.303562	-0.032125	30.9465	-0.301505	-4954.83	6.483561E-6	NaN
642	1.000000	0.771279	7.37133e+06	-44989.1	1005.82	-29774	0.000000	0.000000	6.771057	-0.013028	NaN	0.000000	0.001743	0.001792	28.0835	0.040618	0.001963	20.6913	167.911	-167.595	-0.004338	0.769971	-0.294270	-0.295577	-0.013028	20.6913	-0.293798	-3803	3.425646E-6	NaN
642	1.000000	0.779280	7.37133e+06	-44989.1	1005.82	-29774	0.000000	0.000000	6.779060	0.023407	NaN	0.000000	0.001765	0.001774	28.0835	0.027549	0.001866	14.7608	8.316361	-163.143	0.003832	0.777920	-0.286269	-0.287629	0.023407	14.7608	-0.287458	-3056.26	-7.658703E-6	NaN
642	1.000000	0.787309	7.37133e+06	-44989.1	1005.82	-29774	0.000000	0.000000	6.787086	-0.048236	NaN	0.000000	0.001817	0.001787	28.0836	0.018511	0.001905	9.719267	55.5009	-160.593	-0.009387	0.785978	-0.278240	-0.279570	-0.048236	9.719267	-0.274517	-1950.25	2.473327E-5	NaN
642	1.000000	0.795270	7.37133e+06	-44989.1	1005.82	-29774	0.000000	0.000000	6.795050	0.013455	NaN	0.000000	0.001778	0.001775	28.0836	0.046364	0.002100	22.0769	-40.3402	-165.629	0.020693	0.793964	-0.270279	-0.271585	0.013455	22.0769	-0.270736	-1708.94	-7.873187E-6	NaN
642	1.000000	0.803279	7.37133e+06	-44989.1	1005.82	-29774	0.000000	0.000000	6.803058	0.003595	NaN	0.000000	0.001672	0.001796	28.0841	0.041890	0.002032	20.6156	-150.565	-166.504	0.028596	0.801956	-0.262270	-0.263592	0.003595	20.6156	-0.262401	-1275.48	-2.818221E-6	NaN
642	1.000000	0.811255	7.37133e+06	-44989.1	1005.82	-29774	0.000000	0.000000	6.811036	0.027649	NaN	0.000000	0.001716	0.001786	28.0835	0.131230	0.001905	68.8856	124.746	-164.292	0.040840	0.809931	-0.254293	-0.255617	0.027649	68.8856	-0.254594	-967.984	-2.856355E-5	NaN
642	1.000000	0.819279	7.37133e+06	-44989.1	1005.82	-29774	0.000000	0.000000	6.819057	-0.045724	NaN	0.000000	0.001723	0.001771	28.0836	0.116007	0.002032	57.0922	-164.917	-166.44	-0.000168	0.817935	-0.246269	-0.247613	-0.045724	57.0922	-0.245668	-704.428	6.490890E-5	NaN
642	1.000000	0.827261	7.37133e+06	-44989.1	1005.82	-29774	0.000000	0.000000	6.827039	-0.043580	NaN	0.000000	0.001696	0.001810	28.0835	0.040855	0.002032	20.1089	-92.2859	-165.729	-0.038870	0.825985	-0.238287	-0.239563	-0.043580	20.1089	-0.236662	-509.71	8.550055E-5	NaN
642	1.000000	0.835310	7.37133e+06	-44989.1	1005.82	-29774	0.000000	0.000000	6.835089	-0.007674	NaN	0.000000	0.001736	0.001801	28.0834	0.038153	0.002018	18.9107	94.0661	-165.926	0.023146	0.833966	-0.230239	-0.231583	-0.007674	18.9107	-0.229934	-399.467	1.921167E-5	NaN
642	1.000000	0.843308	7.37133e+06	-44989.1	1005.82	-29774	0.000000	0.000000	6.843086	-0.045801	NaN	0.000000	0.001704	0.001821	28.0837	0.076959	0.002111	36.4645	-83.0912	-165.927	-0.074119	0.842023	-0.222240	-0.223526	-0.045801	36.4645	-0.221298	-291.343	0.000157	NaN
642	1.000000	0.851311	7.37133e+06	-44989.1	1005.82	-29774	0.000000	0.000000	6.851090	-0.005382	NaN	0.000000	0.001741	0.001769	28.0835	0.053854	0.002088	25.7962	175.202	-164.497	-0.060225	0.849989	-0.214237	-0.215560	-0.005382	25.7962	-0.214081	-223.214	2.411303E-5	NaN
642	1.000000	0.859310	7.37133e+06	-44989.1	1005.82	-29774	0.000000	0.000000	6.859086	-0.077335	NaN	0.000000	0.001697	0.001786	28.0836	0.121499	0.001978	61.433	35.8299	-165.715	-0.154245	0.857962	-0.206238	-0.207587	-0.077335	61.433	-0.205294	-160.827	0.000481	NaN
642	1.000000	0.867306	7.37133e+06	-44989.1	1005.82	-29774	0.000000	0.000000	6.867085	-0.000992	NaN	0.000000	0.001712	0.001821	28.0831	0.051365	0.001928	26.6377	88.742	-164.524	0.063647	0.865958	-0.198243	-0.199590	-0.000992	26.6377	-0.198215	-123.117	8.058243E-6	NaN
642	1.000000	0.875304	7.37133e+06	-44989.1	1005.82	-29774	0.000000	0.000000	6.875081	-0.060021	NaN	0.000000	0.001720	0.001786	28.0821	0.094458	0.002022	46.7095	116.686	-164.459	-0.093506	0.874006	-0.190244	-0.191543	-0.060021	46.7095	-0.189281	-87.499	0.000686	NaN
642	1.000000	0.883309	7.37133e+06	-44989.1	1005.82	-29774	0.000000	0.000000	6.883090	0.044441	NaN	0.000000	0.001739	0.001789	28.082	0.153149	0.002014	76.0285	131.5	-163.602	0.082321	0.882011	-0.182240	-0.183537	0.044441	76.0285	-0.182678	-67.7514	-0.000656	NaN
642	1.000000	0.891331	7.37133e+06	-44989.1	1005.82	-29774	0.000000	0.000000	6.891110	-0.009754	NaN	0.000000	0.001719	0.001788	28.0821	0.020795	0.002072	10.0368	29.9384	-162.435	-0.000975	0.889982	-0.174218	-0.175566	-0.009754	10.0368	-0.173489	-47.2029	0.000207	NaN
642	1.000000	0.899294	7.37133e+06	-44989.1	1005.82	-29774	0.000000	0.000000	6.899072	-0.042978	NaN	0.000000	0.001739	0.001773	28.0824	0.072250	0.001957	36.914	167.243	-167.262	-0.030113	0.898017	-0.166254	-0.167531	-0.042978	36.914	-0.165381	-34.119	0.001260	NaN
642	1.000000	0.907315	7.37133e+06	-44989.1	1005.82	-29774	0.000000	0.000000	6.907094	0.000374	NaN	0.000000	0.001711	0.001770	28.0823	0.030007	0.001960	15.3114	103.596	-164.497	0.030301	0.906055	-0.158234	-0.159494	0.000374	15.3114	-0.158252	-25.5189	-1.465426E-5	NaN
642	1.000000	0.915316	7.37133e+06	-44989.1	1005.82	-29774	0.000000	0.000000	6.915094	-0.023499	NaN	0.000000	0.001740	0.001796	28.0824	0.030886	0.002083	14.8303	170.141	-170.043	-0.066589	0.914103	-0.150233	-0.151445	-0.023499	14.8303	-0.149044	-17.4	0.001351	NaN
642	1.000000	0.923368	7.37133e+06	-44989.1	1005.82	-29774	0.000000	0.000000	6.923147	0.002264	NaN	0.000000	0.001723	0.001803	28.0823	0.090295	0.001836	49.1691	93.7237	-166.04	0.072011	0.922007	-0.142181	-0.143542	0.002264	49.1691	-0.142215	-13.0146	-0.000174	NaN
642	1.000000	0.931334	7.37133e+06	-44989.1	1005.82	-29774	0.000000	0.000000	6.931113	-0.004411	NaN	0.000000	0.001748	0.001766	28.0823	0.118480	0.001869	63.3894	79.8606	-167.848	0.026344	0.930032	-0.134215	-0.135517	-0.004411	63.3894	-0.134163	-9.168170	0.000481	NaN
642	1.000000	0.939344	7.37133e+06	-44989.1	1005.82	-29774	0.000000	0.000000	6.939123	-0.011169	NaN	0.000000	0.001708	0.001800	28.0826	0.013312	0.002032	6.550873	-2.566537	-166.494	-0.110499	0.938044	-0.126204	-0.127504	-0.011169	6.550873	-0.124925	-6.060645	0.001843	NaN
642	1.000000	0.947337	7.37133e+06	-44989.1	1005.82	-29774	0.000000	0.000000	6.947116	-0.007812	NaN	0.000000	0.001737	0.001776	28.0823	0.034169	0.002132	16.0288	3.353870	-163.798	0.016141	0.946057	-0.118211	-0.119492	-0.007812	16.0288	-0.117846	-4.369299	0.001788	NaN
642	1.000000	0.955350	7.37133e+06	-44989.1	1005.82	-29774	0.000000	0.000000	6.955131	0.041802	NaN	0.000000	0.001732	0.001778	28.0826	0.015927	0.002044	7.793786	-89.6319	-168.279	0.038323	0.954038	-0.110199	-0.111510	0.041802	7.793786	-0.114221	-3.681485	-0.011355	NaN
642	1.000000	0.963346	7.37133e+06	-44989.1	1005.82	-29774	0.000000	0.000000	6.963124	-0.047692	NaN	0.000000	0.001732	0.001760	28.0825	0.104021	0.002024	51.4017	-155.055	-166.935	-0.015455	0.962082	-0.102202	-0.103467	-0.047692	51.4017	-0.101506	-1.972563	0.024177	NaN
642	1.000000	0.971359	7.37133e+06	-44989.1	1005.82	-29774	0.000000	0.000000	6.971137	-0.015236	NaN	0.000000	0.001731	0.001761	28.0825	0.125058	0.002101	59.5284	-75.3224	-167.784	-0.043882	0.970038	-0.094190	-0.095510	-0.015236	59.5284	-0.093998	-1.338190	0.011385	NaN
642	1.000000	0.979342	7.37133e+06	-44989.1	1005.82	-29774	0.000000	0.000000	6.979120	-0.020799	NaN	0.000000	0.001712	0.001772	28.0825	0.060418	0.002011	30.0423	-103.422	-170.056	0.030586	0.978035	-0.086207	-0.087513	-0.020799	30.0423	-0.085687	-0.853654	0.024364	NaN
642	1.000000	0.987332	7.37133e+06	-44989.1	1005.82	-29774	0.000000	0.000000	6.987111	-0.012483	NaN	0.000000	0.001710	0.001751	28.0822	0.133888	0.002062	64.93	99.6774	-168.462	-0.016076	0.986073	-0.078216	-0.079476	-0.012483	64.93	-0.078072	-0.553565	0.022551	NaN
642	1.000000	0.995370	7.37133e+06	-44989.1	1005.82	-29774	0.000000	0.000000	6.995149	-0.020270	NaN	0.000000	0.001734	0.001742	28.0824	0.015285	0.001967	7.770529	7.753195	-162.847	-0.076064	0.994052	-0.070178	-0.071496	-0.020270	7.770529	-0.068222	-0.305465	0.066358	NaN
642	1.000000	1.003375	7.37133e+06	-44989.1	1005.82	-29774	0.000000	0.000000	7.003155	0.009014	NaN	0.000000	0.001738	0.001794	28.0826	0.031137	0.001908	16.3216	-115.741	-165.49	-0.087951	1.002032	-0.062173	-0.063517	0.009014	16.3216	-0.062587	-0.213352	-0.042252	NaN
642	1.000000	1.011396	7.37133e+06	-44989.1	1005.82	-29774	0.000000	0.000000	7.011174	-0.031844	NaN	0.000000	0.001713	0.001766	28.0838	0.069358	0.001965	35.2922	170.572	-169.011	0.022268	1.010067	-0.054153	-0.055481	-0.031844	35.2922	-0.053476	-0.116042	0.274419	NaN
642	1.000000	1.019351	7.37133e+06	-44989.1	1005.82	-29774	0.000000	0.000000	7.019129	-0.023754	NaN	0.000000	0.001717	0.001755	28.0838	0.087719	0.001917	45.7584	54.7492	-166.187	0.057147	1.018058	-0.046198	-0.047490	-0.023754	45.7584	-0.045808	-0.068030	0.349162	NaN
642	1.000000	1.027402	7.37133e+06	-44989.1	1005.82	-29774	0.000000	0.000000	7.027181	-0.004998	NaN	0.000000	0.001815	0.001783	28.0836	0.017325	0.001977	8.762395	20.5159	-166.211	0.000990	1.026070	-0.038147	-0.039479	-0.004998	8.762395	-0.037719	-0.038585	0.129530	NaN
642	1.000000	1.035369	7.37133e+06	-44989.1	1005.82	-29774	0.000000	0.000000	7.035149	0.012915	NaN	0.000000	0.001757	0.001753	28.0838	0.178860	0.001962	91.1732	162.483	-164.817	0.018042	1.034034	-0.030179	-0.031514	0.012915	91.1732	-0.030285	-0.023439	-0.550988	NaN
642	1.000000	1.043370	7.37133e+06	-44989.1	1005.82	-29774	0.000000	0.000000	7.043152	0.072215	NaN	0.000000	0.001752	0.001820	28.0836	0.105376	0.002097	50.2576	-5.396597	-166.851	0.027497	1.042103	-0.022178	-0.023446	0.072215	50.2576	-0.023256	-0.015205	-4.749459	NaN
642	1.000000	1.051371	7.37133e+06	-44989.1	1005.82	-29774	0.000000	0.000000	7.051182	0.759696	NaN	0.000000	0.001750	0.001799	28.0838	0.811196	0.002065	392.902	11.9461	-165.435	0.573349	1.050066	-0.014177	-0.015483	0.759696	392.902	-0.015628	-0.009655	-78.6871	NaN
642	1.000000	1.059372	7.37133e+06	-44989.1	1005.82	-29774	0.000000	0.000000	7.059221	1.708531	NaN	0.000000	0.001784	0.001787	28.0835	1.272238	0.001935	657.543	20.774	-170.704	1.639442	1.058019	-0.006177	-0.007529	1.708531	657.543	-0.008126	-0.005305	-322.052	NaN
642	1.000000	1.067390	7.37133e+06	-44989.1	1005.82	-29774	0.000000	0.000000	7.067268	2.392054	NaN	0.000000	0.001775	0.001800	28.0835	1.974240	0.002030	972.486	14.4674	-168.119	2.343513	1.066098	0.001842	0.000549	2.392054	972.486	-3.293944E-6	-2.461439E-6	-971811	NaN
642	1.000000	1.075331	7.37133e+06	-44989.1	1005.82	-29774	0.000000	0.000000	7.075394	6.892241	NaN	0.000000	0.001788	0.001810	28.0836	6.521912	0.001660	3928.31	9.449381	-170.394	5.524577	1.074074	0.009782	0.008526	6.892241	3928.31	0.008467	0.007527	915.709	41369.3
642	2.000000	1.078968	7.37133e+06	-44989.1	1005.82	-29774	0.000000	0.000000	7.079089	8.306490	NaN	0.000000	0.001736	0.001768	28.0834	9.938269	0.001831	5429.05	4.781446	-169.36	8.358824	1.078657	0.013420	0.013109	8.306490	5429.05	0.012272	0.011818	702.892	45628.1
642	2.000000	1.080928	7.37133e+06	-44989.1	1005.82	-29774	0.000000	0.000000	7.081129	10.2568	NaN	0.000000	0.001707	0.001781	28.0834	11.4226	0.001747	6537.14	8.956480	-175.486	9.818565	1.080619	0.015379	0.015070	10.2568	6537.14	0.014202	0.014236	720.465	50056.6
642	2.000000	1.082910	7.37133e+06	-44989.1	1005.82	-29774	0.000000	0.000000	7.083180	11.9328	NaN	0.000000	0.001772	0.001747	28.0834	13.2997	0.001781	7466.31	3.412476	-171.892	11.5162	1.082587	0.017361	0.017039	11.9328	7466.31	0.016162	0.016867	707.468	52524.5
642	2.000000	1.084900	7.37133e+06	-44989.1	1005.82	-29774	0.000000	0.000000	7.085352	16.3695	NaN	0.000000	0.001723	0.001783	28.0836	15.9234	0.001744	9128.03	5.308692	-174.63	15.8991	1.084566	0.019352	0.019018	16.3695	9128.03	0.018007	0.019506	839.197	59712.3
642	2.000000	1.086866	7.37133e+06	-44989.1	1005.82	-29774	0.000000	0.000000	7.087361	17.3907	NaN	0.000000	0.001708	0.001802	28.0844	17.6253	0.001821	9677.72	8.233684	-177.228	17.9982	1.086586	0.021318	0.021038	17.3907	9677.72	0.019970	0.022495	773.081	58952.3
642	2.000000	1.088877	7.37133e+06	-44989.1	1005.82	-29774	0.000000	0.000000	7.089515	20.8891	NaN	0.000000	0.001701	0.001830	28.0846	20.0233	0.001787	11202.6	5.932880	-177.75	20.7884	1.088532	0.023329	0.022984	20.8891	11202.6	0.021930	0.025667	813.855	63885.7
642	2.000000	1.090845	7.37133e+06	-44989.1	1005.82	-29774	0.000000	0.000000	7.091735	27.0283	NaN	0.000000	0.001681	0.001817	28.0834	22.1306	0.001819	12165.2	7.750700	-177.92	26.0111	1.090486	0.025296	0.024938	27.0283	12165.2	0.023630	0.028570	946.046	65756.5
642	2.000000	1.092835	7.37133e+06	-44989.1	1005.82	-29774	0.000000	0.000000	7.093762	27.9284	NaN	0.000000	0.001667	0.001832	28.0834	23.866	0.001775	13446.9	8.734730	179.094	27.0555	1.092496	0.027286	0.026947	27.9284	13446.9	0.025729	0.032355	863.196	68301.2
642	2.000000	1.094889	7.37134e+06	-44989.1	1005.82	-29774	0.000000	0.000000	7.096106	34.9779	NaN	0.000000	0.001672	0.001827	28.0822	26.5621	0.001774	14972.9	6.705287	-179.454	35.4433	1.094494	0.029341	0.028945	34.9779	14972.9	0.027589	0.035894	974.482	72205.3
642	2.000000	1.096836	7.37134e+06	-44989.1	1005.82	-29774	0.000000	0.000000	7.098365	42.5445	NaN	0.000000	0.001708	0.001753	28.0823	28.6998	0.001777	16153.4	7.110100	179.6	44.1433	1.096552	0.031288	0.031004	42.5445	16153.4	0.029313	0.039331	1081.71	74416.7
642	2.000000	1.098808	7.37134e+06	-44989.1	1005.82	-29774	0.000000	0.000000	7.100616	49.3539	NaN	0.000000	0.001650	0.001775	28.0823	31.22	0.001692	18450.7	2.684114	-178.009	47.2566	1.098460	0.033260	0.032912	49.3539	18450.7	0.031253	0.043382	1137.67	80934.6
642	2.000000	1.100849	7.37134e+06	-44989.1	1005.82	-29774	0.000000	0.000000	7.102787	52.4969	NaN	0.000000	0.001702	0.001781	28.0821	32.4789	0.001726	18820.1	6.494335	177.433	53.2095	1.100507	0.035301	0.034958	52.4969	18820.1	0.033209	0.047658	1101.55	78764.3
642	2.000000	1.102782	7.37134e+06	-44989.1	1005.82	-29774	0.000000	0.000000	7.104873	56.248	NaN	0.000000	0.001728	0.001791	28.0821	35.2686	0.001776	19858.4	4.312451	179.726	54.908	1.102494	0.037233	0.036945	56.248	19858.4	0.035109	0.052000	1081.69	79563.7
642	2.000000	1.104843	7.37134e+06	-44989.1	1005.82	-29774	0.000000	0.000000	7.107301	65.1589	NaN	0.000000	0.001709	0.001823	28.082	37.8454	0.001712	22104	4.238976	178.84	63.4748	1.104558	0.039295	0.039009	65.1589	22104	0.037084	0.056710	1148.99	84804
642	2.000000	1.106810	7.37134e+06	-44989.1	1005.82	-29774	0.000000	0.000000	7.109559	72.2363	NaN	0.000000	0.001711	0.001808	28.0832	39.729	0.001738	22857.2	3.618139	179.024	70.8302	1.106462	0.041262	0.040914	72.2363	22857.2	0.038891	0.061195	1180.43	84418.8
642	2.000000	1.108800	7.37134e+06	-44989.1	1005.82	-29774	0.000000	0.000000	7.111665	75.0666	NaN	0.000000	0.001628	0.001823	28.0825	43.3781	0.001968	22040.3	5.081924	177.551	73.4769	1.108588	0.043252	0.043039	75.0666	22040.3	0.040697	0.065843	1140.08	78475.5
642	2.000000	1.110797	7.37134e+06	-44989.1	1005.82	-29774	0.000000	0.000000	7.114061	84.7634	NaN	0.000000	0.001660	0.001777	28.0821	43.8752	0.001746	25132.6	5.454203	175.839	85.0142	1.110550	0.045249	0.045001	84.7634	25132.6	0.042719	0.071245	1189.75	86027
642	2.000000	1.112783	7.37134e+06	-44989.1	1005.82	-29774	0.000000	0.000000	7.116428	94.0576	NaN	0.000000	0.001665	0.001789	28.0822	46.6013	0.001726	27005.9	6.150495	174.748	93.0146	1.112481	0.047234	0.046932	94.0576	27005.9	0.044622	0.076518	1229.22	89197.1
642	2.000000	1.114883	7.37134e+06	-44989.1	1005.82	-29774	0.000000	0.000000	7.118954	104.401	NaN	0.000000	0.001637	0.001783	28.0822	48.8612	0.001751	27908.6	4.641192	176.144	104.532	1.114469	0.049334	0.048920	104.401	27908.6	0.046529	0.081987	1273.39	89051.1
642	2.000000	1.116756	7.37134e+06	-44989.1	1005.82	-29774	0.000000	0.000000	7.121021	109.121	NaN	0.000000	0.001666	0.001827	28.0824	50.2436	0.001704	29494	3.701444	176.377	106.347	1.116540	0.051207	0.050991	109.121	29494	0.048432	0.087630	1245.25	91029.5
642	2.000000	1.118762	7.37134e+06	-44989.1	1005.82	-29774	0.000000	0.000000	7.123611	123.33	NaN	0.000000	0.001645	0.001795	28.0823	53.5533	0.001844	29038.6	7.230653	173.745	120.796	1.118367	0.053213	0.052818	123.33	29038.6	0.050028	0.092499	1333.32	87233.2
642	2.000000	1.120801	7.37134e+06	-44989.1	1005.82	-29774	0.000000	0.000000	7.126053	133.134	NaN	0.000000	0.001688	0.001786	28.0821	53.3571	0.001757	30371.8	4.109964	176.437	132.659	1.120454	0.055253	0.054905	133.134	30371.8	0.051965	0.098583	1350.47	88377.7
642	2.000000	1.122805	7.37134e+06	-44989.1	1005.82	-29774	0.000000	0.000000	7.128353	140.335	NaN	0.000000	0.001666	0.001784	28.0822	57.3366	0.001804	31781.7	4.415553	175.147	139.725	1.122522	0.057256	0.056973	140.335	31781.7	0.053945	0.104995	1336.59	89612
642	2.000000	1.124878	7.37134e+06	-44989.1	1005.82	-29774	0.000000	0.000000	7.131119	157.192	NaN	0.000000	0.001667	0.001779	28.0824	59.3913	0.001744	34058.7	4.783370	174.472	160.859	1.124562	0.059330	0.059013	157.192	34058.7	0.055868	0.111411	1410.92	93225.8
642	2.000000	1.126849	7.37134e+06	-44989.1	1005.82	-29774	0.000000	0.000000	7.133641	170.614	NaN	0.000000	0.001714	0.001763	28.0826	61.8419	0.001844	33540.6	9.549917	169.723	172.742	1.126442	0.061300	0.060893	170.614	33540.6	0.057485	0.116945	1458.93	89609.4
642	2.000000	1.128723	7.37134e+06	-44989.1	1005.82	-29774	0.000000	0.000000	7.136053	183.686	NaN	0.000000	0.001698	0.001771	28.0837	63.5643	0.001784	35638.6	3.332418	175.808	179.889	1.128494	0.063175	0.062945	183.686	35638.6	0.059309	0.123342	1489.23	92712.3
642	2.000000	1.130741	7.37134e+06	-44989.1	1005.82	-29774	0.000000	0.000000	7.138466	193.303	NaN	0.000000	0.001681	0.001822	28.0835	64.2326	0.001682	38178.9	7.118922	171.24	190.49	1.130382	0.065192	0.064834	193.303	38178.9	0.061395	0.130858	1477.19	96426.5
642	2.000000	1.132708	7.37134e+06	-44989.1	1005.82	-29774	0.000000	0.000000	7.141077	208.975	NaN	0.000000	0.001687	0.001742	28.0834	67.3827	0.001831	36793.8	3.139022	175.52	205.458	1.132449	0.067159	0.066901	208.975	36793.8	0.062899	0.136410	1531.97	91017.4
642	2.000000	1.134699	7.37134e+06	-44989.1	1005.82	-29774	0.000000	0.000000	7.143949	230.391	NaN	0.000000	0.001743	0.001723	28.0831	69.3181	0.001708	40594	2.944903	174.411	224.119	1.134412	0.069151	0.068863	230.391	40594	0.064894	0.143941	1600.59	97755.7
642	2.000000	1.136716	7.37134e+06	-44989.1	1005.82	-29774	0.000000	0.000000	7.146593	245.65	NaN	0.000000	0.001694	0.001759	28.0836	70.8825	0.001811	39138.1	4.045799	173.992	242.255	1.136402	0.071167	0.070854	245.65	39138.1	0.066460	0.149987	1637.81	92330.7
642	2.000000	1.138812	7.37134e+06	-44989.1	1005.82	-29774	0.000000	0.000000	7.149450	264.169	NaN	0.000000	0.001677	0.001755	28.0834	74.0289	0.001831	40433.3	3.635622	174.201	264.35	1.138386	0.073263	0.072838	264.169	40433.3	0.068363	0.157494	1677.33	93085.1
642	2.000000	1.140674	7.37134e+06	-44989.1	1005.82	-29774	0.000000	0.000000	7.151947	279.598	NaN	0.000000	0.001721	0.001727	28.0834	73.4453	0.001695	43318.1	1.058785	175.864	273.682	1.140336	0.075126	0.074787	279.598	43318.1	0.070285	0.165249	1691.98	97358.5
642	2.000000	1.142685	7.37134e+06	-44989.1	1005.82	-29774	0.000000	0.000000	7.154833	300.883	NaN	0.000000	0.001725	0.001747	28.0835	76.6563	0.001859	41231.5	5.702703	171.783	295.909	1.142397	0.077137	0.076849	300.883	41231.5	0.071664	0.170921	1760.36	91118.1
642	2.000000	1.144840	7.37134e+06	-44989.1	1005.82	-29774	0.000000	0.000000	7.157728	318.896	NaN	0.000000	0.001698	0.001765	28.0835	77.4678	0.001709	45335.4	1.101882	175.891	318.909	1.144414	0.079291	0.078866	318.896	45335.4	0.074016	0.180807	1763.74	97410
642	2.000000	1.146674	7.37134e+06	-44989.1	1005.82	-29774	0.000000	0.000000	7.160632	344.908	NaN	0.000000	0.001721	0.001781	28.0837	79.4846	0.001739	45702.3	5.282041	171.434	339.95	1.146381	0.081126	0.080833	344.908	45702.3	0.075466	0.187030	1844.14	96550.9
642	2.000000	1.148716	7.37134e+06	-44989.1	1005.82	-29774	0.000000	0.000000	7.163377	362.029	NaN	0.000000	0.001695	0.001771	28.0835	82.8625	0.001788	46354.9	3.699659	172.704	358.71	1.148381	0.083168	0.082832	362.029	46354.9	0.077310	0.195090	1855.7	95885.2
642	2.000000	1.150740	7.37134e+06	-44989.1	1005.82	-29774	0.000000	0.000000	7.166470	388.03	NaN	0.000000	0.001699	0.001789	28.0838	83.8431	0.001681	49886.3	5.008167	171.168	386.729	1.150360	0.085191	0.084811	388.03	49886.3	0.079358	0.204223	1900.03	100856
642	2.000000	1.152687	7.37134e+06	-44989.1	1005.82	-29774	0.000000	0.000000	7.169058	403.633	NaN	0.000000	0.001680	0.001746	28.0837	86.7177	0.001771	48975	3.845676	172.067	396.675	1.152440	0.087138	0.086891	403.633	48975	0.080957	0.211492	1908.5	97297.3
642	2.000000	1.154831	7.37134e+06	-44989.1	1005.82	-29774	0.000000	0.000000	7.172304	430.432	NaN	0.000000	0.001723	0.001765	28.0831	88.3195	0.001792	49289.1	2.338696	174.092	430.576	1.154422	0.089283	0.088873	430.432	49289.1	0.082733	0.219706	1959.12	96073.3
642	2.000000	1.156692	7.37134e+06	-44989.1	1005.82	-29774	0.000000	0.000000	7.174897	448.249	NaN	0.000000	0.001717	0.001784	28.0837	90.3705	0.001866	48425	2.041229	173.628	443.075	1.156409	0.091144	0.090860	448.249	48425	0.084201	0.226606	1978.1	92941
642	2.000000	1.158953	7.37134e+06	-44989.1	1005.82	-29774	0.000000	0.000000	7.178235	474.435	NaN	0.000000	0.001728	0.001736	28.0836	94.5733	0.001868	50638.1	9.491137	166.465	485.644	1.158441	0.093405	0.092892	474.435	50638.1	0.086378	0.237019	2001.68	95029.8
642	2.000000	1.160644	7.37134e+06	-44989.1	1005.82	-29774	0.000000	0.000000	7.181462	511.799	NaN	0.000000	0.001704	0.001778	28.0839	92.8798	0.001786	52008.4	3.194332	172.722	505.647	1.160207	0.095096	0.094659	511.799	52008.4	0.087715	0.243525	2101.63	96288.7
642	2.000000	1.162624	7.37134e+06	-44989.1	1005.82	-29774	0.000000	0.000000	7.184308	532.869	NaN	0.000000	0.001722	0.001710	28.0821	95.8842	0.001881	50974.6	1.638147	174.308	524.75	1.162397	0.097076	0.096849	532.869	50974.6	0.089235	0.251020	2122.82	92955.1
642	2.000000	1.164634	7.37134e+06	-44989.1	1005.82	-29774	0.000000	0.000000	7.187673	565.843	NaN	0.000000	0.001706	0.001749	28.0821	98.0877	0.001816	54010.9	4.843313	170.555	559.701	1.164353	0.099086	0.098804	565.843	54010.9	0.091228	0.261006	2167.93	96589.4
642	2.000000	1.166724	7.37134e+06	-44989.1	1005.82	-29774	0.000000	0.000000	7.190680	588.167	NaN	0.000000	0.001720	0.001752	28.0824	99.04	0.001796	55131.3	2.884259	172.334	585.811	1.166498	0.101175	0.100949	588.167	55131.3	0.093174	0.270931	2170.91	96770.2
642	2.000000	1.168728	7.37134e+06	-44989.1	1005.82	-29774	0.000000	0.000000	7.193795	615.172	NaN	0.000000	0.001689	0.001798	28.0821	101.983	0.001681	60664.9	3.350393	170.923	614.491	1.168474	0.103179	0.102926	615.172	60664.9	0.095574	0.283413	2170.58	104112
642	2.000000	1.170767	7.37134e+06	-44989.1	1005.82	-29774	0.000000	0.000000	7.196851	639.917	NaN	0.000000	0.001727	0.001737	28.0825	102.365	0.001721	59494.5	3.124276	171.417	639.746	1.170484	0.105219	0.104935	639.917	59494.5	0.097152	0.291762	2193.28	100632
642	2.000000	1.172656	7.37134e+06	-44989.1	1005.82	-29774	0.000000	0.000000	7.200056	671.94	NaN	0.000000	0.001710	0.001763	28.082	105.812	0.001851	57164.2	6.276481	169.05	667.153	1.172443	0.107108	0.106894	671.94	57164.2	0.098292	0.297864	2255.87	95694.9
642	2.000000	1.174609	7.37134e+06	-44989.1	1005.82	-29774	0.000000	0.000000	7.202899	693.584	NaN	0.000000	0.001665	0.001744	28.082	106.28	0.001741	61040.6	4.413274	170.438	685.991	1.174358	0.109061	0.108809	693.584	61040.6	0.100539	0.310067	2236.89	100153
642	2.000000	1.175719	7.37134e+06	-44989.1	1005.82	-29774	0.000000	0.000000	7.204751	711.632	NaN	0.000000	0.001704	0.001759	28.0833	107.964	0.001787	60404.4	5.895954	168.95	711.611	1.175334	0.110170	0.109785	711.632	60404.4	0.101335	0.314442	2263.16	98417.3