File: remote_trans/data/nanoindenter/0828-1/data/Data_2025-08-06,11h17m57s/2025-07-22_16-23-58_1_466.txt
2025-07-22, 16:23:58, 1
Index	Phase	Displacement	Time	Pos X	Pos Y	Pos Z	Rot A	Rot B	Piezo Z	Force A	Force B	Gripper	Voltage A	Voltage B	Temperature	Amplitude force	Amplitude pos	Stiffness	Phase shift	Phase excitation	Force A raw	Displacement raw	HMax	HMax raw	Real Force	Real Stiffness	Contact Depth	Area	Hardness	Reduced Mod.
[#]	[#]	[um]	[s]	[um]	[um]	[um]	[m°]	[m°]	[um]	[uN]	[uN]	[V]	[V]	[V]	[°C]	[uN]	[um]	[N/m]	[°]	[°]	[uN]	[um]	[um]	[um]	[uN]	[N/m]	[um]	[um^2]	[MPa]	[MPa]
466	1.000000	0.002358	7.36961e+06	-53789.1	1005.82	-29745.3	0.000000	0.000000	6.002794	-0.025749	NaN	0.000000	0.001574	0.001697	28.0835	0.098291	0.000973	101.01	-57.6705	-168.346	-0.083819	0.001136	-1.128355	-1.129577	-0.025749	101.01	-1.128164	-1.196715E+15	2.151679E-17	NaN
466	1.000000	0.012431	7.36961e+06	-53789.1	1005.82	-29745.3	0.000000	0.000000	6.012869	0.029191	NaN	0.000000	0.001565	0.001746	28.0835	0.023262	0.001352	17.2039	-95.2816	14.3588	-0.084260	0.010968	-1.118282	-1.119745	0.029191	17.2039	-1.119555	-9.172787E+14	-3.182305E-17	NaN
466	1.000000	0.022294	7.36961e+06	-53789.1	1005.82	-29745.3	0.000000	0.000000	6.022729	-0.046968	NaN	0.000000	0.001570	0.001682	28.0831	0.055423	0.001646	33.6622	-2.785047	-171.462	-0.027249	0.020999	-1.108419	-1.109714	-0.046968	33.6622	-1.107373	-6.295460E+14	7.460580E-17	NaN
466	1.000000	0.032337	7.36961e+06	-53789.1	1005.82	-29745.3	0.000000	0.000000	6.032769	-0.126433	NaN	0.000000	0.001554	0.001712	28.0834	0.071509	0.001801	39.7077	112.304	12.4225	-0.038527	0.030957	-1.098376	-1.099756	-0.126433	39.7077	-1.095988	-4.427997E+14	2.855308E-16	NaN
466	1.000000	0.042306	7.36961e+06	-53789.1	1005.82	-29745.3	0.000000	0.000000	6.042742	-0.034735	NaN	0.000000	0.001538	0.001684	28.0834	0.035520	0.002074	17.1255	116.505	-165.786	-0.004106	0.041011	-1.088407	-1.089702	-0.034735	17.1255	-1.086886	-3.341903E+14	1.039382E-16	NaN
466	1.000000	0.052319	7.36961e+06	-53789.1	1005.82	-29745.3	0.000000	0.000000	6.052753	-0.072781	NaN	0.000000	0.001562	0.001729	28.0819	0.042839	0.001917	22.3455	112.676	15.5937	-0.019728	0.050974	-1.078394	-1.079739	-0.072781	22.3455	-1.075951	-2.383057E+14	3.054098E-16	NaN
466	1.000000	0.062298	7.36961e+06	-53789.1	1005.82	-29745.3	0.000000	0.000000	6.062734	-0.051984	NaN	0.000000	0.001574	0.001685	28.0819	0.021756	0.002050	10.6138	16.9366	-167.089	-0.023790	0.061065	-1.068415	-1.069648	-0.051984	10.6138	-1.064741	-1.684738E+14	3.085575E-16	NaN
466	1.000000	0.072302	7.36961e+06	-53789.1	1005.82	-29745.3	0.000000	0.000000	6.072738	-0.038482	NaN	0.000000	0.001563	0.001730	28.0818	0.016808	0.002013	8.348673	72.7982	13.0412	-0.038196	0.070944	-1.058411	-1.059769	-0.038482	8.348673	-1.054954	-1.244528E+14	3.092062E-16	NaN
466	1.000000	0.082334	7.36961e+06	-53789.1	1005.82	-29745.3	0.000000	0.000000	6.082768	-0.077028	NaN	0.000000	0.001562	0.001694	28.0819	0.060392	0.002055	29.3863	-63.6793	-165.522	-0.090366	0.081046	-1.048379	-1.049667	-0.077028	29.3863	-1.046413	-9.554228E+13	8.062158E-16	NaN
466	1.000000	0.092349	7.36961e+06	-53789.1	1005.82	-29745.3	0.000000	0.000000	6.092785	-0.018261	NaN	0.000000	0.001586	0.001686	28.0819	0.126299	0.002053	61.5302	-55.6111	11.4665	-0.054345	0.090978	-1.038364	-1.039735	-0.018261	61.5302	-1.038142	-7.395713E+13	2.469157E-16	NaN
466	1.000000	0.102362	7.36961e+06	-53789.1	1005.82	-29745.3	0.000000	0.000000	6.102797	-0.049482	NaN	0.000000	0.001552	0.001674	28.0819	0.098749	0.001920	51.4411	133.694	-169.181	0.000564	0.101034	-1.028351	-1.029679	-0.049482	51.4411	-1.027630	-5.340664E+13	9.265047E-16	NaN
466	1.000000	0.112348	7.36961e+06	-53789.1	1005.82	-29745.3	0.000000	0.000000	6.112781	-0.094830	NaN	0.000000	0.001547	0.001663	28.0821	0.054947	0.002020	27.195	153.87	15.0442	-0.099604	0.110970	-1.018365	-1.019743	-0.094830	27.195	-1.015750	-3.696270E+13	2.565564E-15	NaN
466	1.000000	0.122327	7.36962e+06	-53789.1	1005.82	-29745.3	0.000000	0.000000	6.122762	-0.061476	NaN	0.000000	0.001595	0.001673	28.0818	0.016945	0.001971	8.597530	90.2203	-166.311	-0.035515	0.121024	-1.008386	-1.009689	-0.061476	8.597530	-1.003023	-2.491550E+13	2.467365E-15	NaN
466	1.000000	0.132347	7.36962e+06	-53789.1	1005.82	-29745.3	0.000000	0.000000	6.132781	-0.074922	NaN	0.000000	0.001568	0.001689	28.082	0.038198	0.001982	19.2756	-148.662	13.221	-0.133977	0.130994	-0.998366	-0.999718	-0.074922	19.2756	-0.995451	-1.970244E+13	3.802689E-15	NaN
466	1.000000	0.142344	7.36962e+06	-53789.1	1005.82	-29745.3	0.000000	0.000000	6.142778	-0.088800	NaN	0.000000	0.001589	0.001697	28.0818	0.098212	0.001903	51.6158	-102.938	-166.039	-0.037448	0.141031	-0.988369	-0.989681	-0.088800	51.6158	-0.987079	-1.519733E+13	5.843159E-15	NaN
466	1.000000	0.152346	7.36962e+06	-53789.1	1005.82	-29745.3	0.000000	0.000000	6.152783	-0.012162	NaN	0.000000	0.001592	0.001696	28.0821	0.097957	0.002010	48.7255	132.46	18.3006	0.066024	0.151009	-0.978367	-0.979704	-0.012162	48.7255	-0.978180	-1.153144E+13	1.054660E-15	NaN
466	1.000000	0.162337	7.36962e+06	-53789.1	1005.82	-29745.3	0.000000	0.000000	6.162775	-0.001500	NaN	0.000000	0.001585	0.001679	28.0819	0.073031	0.001943	37.5818	141.63	-164.978	0.034316	0.161039	-0.968376	-0.969674	-0.001500	37.5818	-0.968346	-8.498958E+12	1.764830E-16	NaN
466	1.000000	0.172390	7.36962e+06	-53789.1	1005.82	-29745.3	0.000000	0.000000	6.172827	0.002855	NaN	0.000000	0.001587	0.001684	28.0822	0.076348	0.002069	36.9085	-88.3931	12.0435	0.100876	0.170917	-0.958323	-0.959796	0.002855	36.9085	-0.958381	-6.237984E+12	-4.576869E-16	NaN
466	1.000000	0.182357	7.36962e+06	-53789.1	1005.82	-29745.3	0.000000	0.000000	6.182792	-0.038638	NaN	0.000000	0.001556	0.001682	28.0823	0.162093	0.002036	79.5975	111.54	-167.731	-0.086566	0.181018	-0.948356	-0.949695	-0.038638	79.5975	-0.947992	-4.518041E+12	8.551885E-15	NaN
466	1.000000	0.192370	7.36962e+06	-53789.1	1005.82	-29745.3	0.000000	0.000000	6.192804	-0.064375	NaN	0.000000	0.001584	0.001726	28.0834	0.087565	0.002111	41.4755	148.967	11.9392	-0.034048	0.191033	-0.938343	-0.939680	-0.064375	41.4755	-0.937179	-3.229088E+12	1.993585E-14	NaN
466	1.000000	0.202391	7.36962e+06	-53789.1	1005.82	-29745.3	0.000000	0.000000	6.202829	0.016537	NaN	0.000000	0.001559	0.001697	28.0835	0.014048	0.002029	6.922886	45.8387	-166.315	0.004236	0.201040	-0.928322	-0.929673	0.016537	6.922886	-0.930114	-2.592605E+12	-6.378676E-15	NaN
466	1.000000	0.212397	7.36962e+06	-53789.1	1005.82	-29745.3	0.000000	0.000000	6.212834	-0.007394	NaN	0.000000	0.001597	0.001715	28.0834	0.060872	0.001968	30.9251	140.569	14.8652	-0.008097	0.211026	-0.918316	-0.919687	-0.007394	30.9251	-0.918137	-1.786682E+12	4.138492E-15	NaN
466	1.000000	0.222405	7.36962e+06	-53789.1	1005.82	-29745.3	0.000000	0.000000	6.222841	-0.034620	NaN	0.000000	0.001552	0.001709	28.0836	0.122173	0.002023	60.3958	-32.5377	-167.727	-0.009500	0.221079	-0.908308	-0.909634	-0.034620	60.3958	-0.907878	-1.298662E+12	2.665819E-14	NaN
466	1.000000	0.232383	7.36962e+06	-53789.1	1005.82	-29745.3	0.000000	0.000000	6.232817	-0.074794	NaN	0.000000	0.001546	0.001686	28.0831	0.094236	0.002044	46.0949	55.6024	14.9076	-0.087715	0.230997	-0.898330	-0.899716	-0.074794	46.0949	-0.897113	-9.290874E+11	8.050276E-14	NaN
466	1.000000	0.242404	7.36962e+06	-53789.1	1005.82	-29745.3	0.000000	0.000000	6.242841	-0.009665	NaN	0.000000	0.001527	0.001713	28.0833	0.043186	0.001992	21.682	39.1351	-163.235	0.010939	0.241054	-0.888309	-0.889659	-0.009665	21.682	-0.887975	-6.991012E+11	1.382553E-14	NaN
466	1.000000	0.252383	7.36962e+06	-53789.1	1005.82	-29745.3	0.000000	0.000000	6.252817	-0.067465	NaN	0.000000	0.001532	0.001710	28.0832	0.056392	0.002118	26.6218	178.552	12.5562	-0.115595	0.251058	-0.878330	-0.879655	-0.067465	26.6218	-0.876430	-4.880033E+11	1.382473E-13	NaN
466	1.000000	0.262408	7.36962e+06	-53789.1	1005.82	-29745.3	0.000000	0.000000	6.262841	-0.100870	NaN	0.000000	0.001562	0.001761	28.0834	0.097944	0.002158	45.3901	-18.3486	-163.956	-0.028214	0.261027	-0.868305	-0.869686	-0.100870	45.3901	-0.866638	-3.597118E+11	2.804188E-13	NaN
466	1.000000	0.272429	7.36962e+06	-53789.1	1005.82	-29745.3	0.000000	0.000000	6.272864	-0.059731	NaN	0.000000	0.001591	0.001730	28.0833	0.129630	0.001978	65.5308	-152.231	15.6226	-0.078012	0.271093	-0.858284	-0.859620	-0.059731	65.5308	-0.857600	-2.714152E+11	2.200711E-13	NaN
466	1.000000	0.282420	7.36962e+06	-53789.1	1005.82	-29745.3	0.000000	0.000000	6.282858	0.009893	NaN	0.000000	0.001598	0.001706	28.0834	0.108939	0.002093	52.0404	-158.338	-170.073	-0.055818	0.281063	-0.848293	-0.849650	0.009893	52.0404	-0.848436	-2.039641E+11	-4.850443E-14	NaN
466	1.000000	0.292430	7.36962e+06	-53789.1	1005.82	-29745.3	0.000000	0.000000	6.292866	-0.045659	NaN	0.000000	0.001587	0.001696	28.0834	0.040416	0.001997	20.2331	77.7558	13.4331	-0.041994	0.291076	-0.838283	-0.839637	-0.045659	20.2331	-0.836590	-1.409599E+11	3.239183E-13	NaN
466	1.000000	0.302420	7.36962e+06	-53789.1	1005.82	-29745.3	0.000000	0.000000	6.302856	-0.029691	NaN	0.000000	0.001548	0.001721	28.0834	0.009851	0.002070	4.757984	142.073	-167.516	-0.059222	0.301119	-0.828293	-0.829594	-0.029691	4.757984	-0.823613	-9.401585E+10	3.158105E-13	NaN
466	1.000000	0.312410	7.36962e+06	-53789.1	1005.82	-29745.3	0.000000	0.000000	6.312846	-0.020748	NaN	0.000000	0.001553	0.001709	28.0833	0.105015	0.002039	51.4909	24.6937	14.604	-0.006266	0.311072	-0.818303	-0.819641	-0.020748	51.4909	-0.818001	-7.890507E+10	2.629428E-13	NaN
466	1.000000	0.322426	7.36962e+06	-53789.1	1005.82	-29745.3	0.000000	0.000000	6.322863	-0.006294	NaN	0.000000	0.001587	0.001687	28.0833	0.106265	0.001992	53.3441	139.209	-168.571	0.032732	0.321076	-0.808287	-0.809637	-0.006294	53.3441	-0.808199	-5.809413E+10	1.083471E-13	NaN
466	1.000000	0.332416	7.36962e+06	-53789.1	1005.82	-29745.3	0.000000	0.000000	6.332854	0.020584	NaN	0.000000	0.001555	0.001686	28.0821	0.022962	0.002036	11.2803	61.465	14.2999	0.004566	0.331066	-0.798297	-0.799646	0.020584	11.2803	-0.799665	-4.449604E+10	-4.626114E-13	NaN
466	1.000000	0.342415	7.36962e+06	-53789.1	1005.82	-29745.3	0.000000	0.000000	6.342852	-0.015738	NaN	0.000000	0.001561	0.001708	28.0821	0.089049	0.002067	43.0882	151.411	-167.822	0.037871	0.341142	-0.788298	-0.789571	-0.015738	43.0882	-0.788024	-3.092061E+10	5.089740E-13	NaN
466	1.000000	0.352429	7.36962e+06	-53789.1	1005.82	-29745.3	0.000000	0.000000	6.352864	-0.066173	NaN	0.000000	0.001557	0.001657	28.0821	0.150313	0.002000	75.1733	162.289	12.0087	-0.011908	0.351103	-0.778284	-0.779610	-0.066173	75.1733	-0.777623	-2.233233E+10	2.963091E-12	NaN
466	1.000000	0.362448	7.36962e+06	-53789.1	1005.82	-29745.3	0.000000	0.000000	6.362883	-0.073667	NaN	0.000000	0.001563	0.001696	28.0823	0.090222	0.001944	46.4202	20.9311	-170.723	-0.061340	0.361190	-0.768265	-0.769523	-0.073667	46.4202	-0.767074	-1.605184E+10	4.589349E-12	NaN
466	1.000000	0.372440	7.36962e+06	-53789.1	1005.82	-29745.3	0.000000	0.000000	6.372877	-0.000280	NaN	0.000000	0.001562	0.001691	28.0822	0.093225	0.002016	46.2349	-89.5595	15.6092	-0.008415	0.371045	-0.758273	-0.759668	-0.000280	46.2349	-0.758268	-1.218270E+10	2.300033E-14	NaN
466	1.000000	0.382464	7.36962e+06	-53789.1	1005.82	-29745.3	0.000000	0.000000	6.382899	-0.039047	NaN	0.000000	0.001527	0.001725	28.082	0.057183	0.001983	28.8427	78.7581	-166.995	-0.126175	0.381119	-0.748249	-0.749594	-0.039047	28.8427	-0.747234	-8.621176E+9	4.529166E-12	NaN
466	1.000000	0.392483	7.36962e+06	-53789.1	1005.82	-29745.3	0.000000	0.000000	6.392915	-0.119715	NaN	0.000000	0.001503	0.001718	28.0817	0.046246	0.002008	23.0335	30.005	11.0028	-0.164611	0.391101	-0.738230	-0.739612	-0.119715	23.0335	-0.734332	-5.752290E+9	2.081174E-11	NaN
466	1.000000	0.402450	7.36962e+06	-53789.1	1005.82	-29745.3	0.000000	0.000000	6.402886	-0.026108	NaN	0.000000	0.001565	0.001732	28.0819	0.053207	0.002024	26.2822	-85.325	-164.588	0.015717	0.401218	-0.728263	-0.729495	-0.026108	26.2822	-0.727518	-4.644969E+9	5.620760E-12	NaN
466	1.000000	0.412452	7.36962e+06	-53789.1	1005.82	-29745.3	0.000000	0.000000	6.412887	-0.056235	NaN	0.000000	0.001612	0.001727	28.0817	0.094986	0.002017	47.0868	-20.8637	13.5842	-0.034197	0.411069	-0.718261	-0.719644	-0.056235	47.0868	-0.717365	-3.377018E+9	1.665229E-11	NaN
466	1.000000	0.422481	7.36962e+06	-53789.1	1005.82	-29745.3	0.000000	0.000000	6.422916	-0.049026	NaN	0.000000	0.001572	0.001663	28.082	0.114465	0.002000	57.2285	-54.9815	-168.353	-0.050760	0.421173	-0.708232	-0.709540	-0.049026	57.2285	-0.707590	-2.484019E+9	1.973665E-11	NaN
466	1.000000	0.432463	7.36962e+06	-53789.1	1005.82	-29745.3	0.000000	0.000000	6.432898	-0.043413	NaN	0.000000	0.001604	0.001722	28.0819	0.121416	0.001853	65.5349	-178.719	7.395548	-0.088908	0.431088	-0.698250	-0.699625	-0.043413	65.5349	-0.697753	-1.823254E+9	2.381099E-11	NaN
466	1.000000	0.442499	7.36962e+06	-53789.1	1005.82	-29745.3	0.000000	0.000000	6.442932	-0.106594	NaN	0.000000	0.001588	0.001731	28.0822	0.090425	0.002081	43.4596	-117.017	-162.296	-0.055073	0.441159	-0.688214	-0.689554	-0.106594	43.4596	-0.686375	-1.274583E+9	8.363085E-11	NaN
466	1.000000	0.452486	7.36962e+06	-53789.1	1005.82	-29745.3	0.000000	0.000000	6.452922	-0.010720	NaN	0.000000	0.001604	0.001757	28.0819	0.115391	0.001992	57.9352	-174.497	12.5972	-0.094969	0.451146	-0.678227	-0.679567	-0.010720	57.9352	-0.678089	-9.818920E+8	1.091740E-11	NaN
466	1.000000	0.462465	7.36962e+06	-53789.1	1005.82	-29745.3	0.000000	0.000000	6.462901	-0.038254	NaN	0.000000	0.001595	0.001713	28.0832	0.049159	0.002025	24.2739	-47.5	-166.198	-0.079353	0.461160	-0.668248	-0.669553	-0.038254	24.2739	-0.667066	-6.937918E+8	5.513827E-11	NaN
466	1.000000	0.472483	7.36962e+06	-53789.1	1005.82	-29745.3	0.000000	0.000000	6.472915	-0.122646	NaN	0.000000	0.001558	0.001707	28.0832	0.101211	0.001945	52.0478	109.428	10.7375	-0.027404	0.471132	-0.658230	-0.659581	-0.122646	52.0478	-0.656463	-4.966022E+8	2.469696E-10	NaN
466	1.000000	0.482506	7.36962e+06	-53789.1	1005.82	-29745.3	0.000000	0.000000	6.482945	0.043598	NaN	0.000000	0.001601	0.001676	28.0832	0.053175	0.002046	25.9879	-112.078	-167.649	-0.021944	0.481208	-0.648207	-0.649505	0.043598	25.9879	-0.649465	-3.982049E+8	-1.094870E-10	NaN
466	1.000000	0.492509	7.36962e+06	-53789.1	1005.82	-29745.3	0.000000	0.000000	6.492939	-0.167981	NaN	0.000000	0.001586	0.001675	28.0832	0.166739	0.002095	79.5727	-128.811	11.6317	-0.075399	0.491158	-0.638204	-0.639555	-0.167981	79.5727	-0.636621	-2.654107E+8	6.329092E-10	NaN
466	1.000000	0.502503	7.36962e+06	-53789.1	1005.82	-29745.3	0.000000	0.000000	6.502936	-0.095556	NaN	0.000000	0.001632	0.001685	28.083	0.069227	0.002023	34.2218	-34.6927	-167.313	-0.092660	0.501221	-0.628210	-0.629492	-0.095556	34.2218	-0.626116	-1.904050E+8	5.018544E-10	NaN
466	1.000000	0.512522	7.36962e+06	-53789.1	1005.82	-29745.3	0.000000	0.000000	6.512956	-0.081819	NaN	0.000000	0.001617	0.001688	28.0833	0.051494	0.002011	25.604	51.0144	14.1846	-0.088943	0.511135	-0.618191	-0.619577	-0.081819	25.604	-0.615794	-1.373453E+8	5.957159E-10	NaN
466	1.000000	0.522513	7.36962e+06	-53789.1	1005.82	-29745.3	0.000000	0.000000	6.522944	-0.159330	NaN	0.000000	0.001616	0.001678	28.083	0.053685	0.002086	25.7391	165.808	-168.424	-0.076734	0.521230	-0.608200	-0.609483	-0.159330	25.7391	-0.603557	-9.320472E+7	1.709462E-9	NaN
466	1.000000	0.532512	7.36962e+06	-53789.1	1005.82	-29745.3	0.000000	0.000000	6.532947	-0.053762	NaN	0.000000	0.001640	0.001640	28.0833	0.014489	0.002084	6.953249	151.508	14.3339	-0.019026	0.531200	-0.598201	-0.599513	-0.053762	6.953249	-0.592402	-6.543095E+7	8.216631E-10	NaN
466	1.000000	0.542514	7.36962e+06	-53789.1	1005.82	-29745.3	0.000000	0.000000	6.542952	-0.001435	NaN	0.000000	0.001622	0.001672	28.083	0.058706	0.001879	31.2367	-57.4291	-168.394	-0.045310	0.541199	-0.588199	-0.589514	-0.001435	31.2367	-0.588164	-5.719436E+7	2.509191E-11	NaN
466	1.000000	0.552520	7.36962e+06	-53789.1	1005.82	-29745.3	0.000000	0.000000	6.552957	-0.014923	NaN	0.000000	0.001523	0.001684	28.0827	0.063870	0.002056	31.0657	-25.0052	12.9515	-0.015791	0.551152	-0.578193	-0.579561	-0.014923	31.0657	-0.577833	-4.119151E+7	3.622923E-10	NaN
466	1.000000	0.562544	7.36962e+06	-53789.1	1005.82	-29745.3	0.000000	0.000000	6.562979	-0.059262	NaN	0.000000	0.001547	0.001695	28.0832	0.036320	0.001994	18.2154	58.1106	-166.812	-0.049881	0.561248	-0.568169	-0.569465	-0.059262	18.2154	-0.565729	-2.802894E+7	2.114307E-9	NaN
466	1.000000	0.572546	7.36962e+06	-53789.1	1005.82	-29745.3	0.000000	0.000000	6.572979	-0.094869	NaN	0.000000	0.001546	0.001697	28.0832	0.108296	0.002026	53.4517	61.834	15.1594	-0.077129	0.571184	-0.558167	-0.559529	-0.094869	53.4517	-0.556836	-2.111532E+7	4.492910E-9	NaN
466	1.000000	0.582538	7.36962e+06	-53789.1	1005.82	-29745.3	0.000000	0.000000	6.582974	-0.040922	NaN	0.000000	0.001623	0.001703	28.0833	0.097312	0.002015	48.2882	-161.643	-164.626	-0.007528	0.581225	-0.548175	-0.549488	-0.040922	48.2882	-0.547539	-1.569892E+7	2.606654E-9	NaN
466	1.000000	0.592545	7.36962e+06	-53789.1	1005.82	-29745.3	0.000000	0.000000	6.592978	-0.109466	NaN	0.000000	0.001620	0.001677	28.0832	0.132960	0.001983	67.0417	146.933	11.5294	-0.046271	0.591183	-0.538168	-0.539530	-0.109466	67.0417	-0.536944	-1.119333E+7	9.779574E-9	NaN
466	1.000000	0.602539	7.36962e+06	-53789.1	1005.82	-29745.3	0.000000	0.000000	6.602976	-0.006353	NaN	0.000000	0.001517	0.001670	28.0821	0.052591	0.001945	27.0443	93.0048	-167.346	-0.081866	0.601216	-0.528174	-0.529497	-0.006353	27.0443	-0.527998	-8.4094e+06	7.554952E-10	NaN
466	1.000000	0.612556	7.36962e+06	-53789.1	1005.82	-29745.3	0.000000	0.000000	6.612992	-0.024896	NaN	0.000000	0.001566	0.001696	28.0822	0.150573	0.001957	76.9517	-65.3342	9.494630	-0.038514	0.611165	-0.518157	-0.519548	-0.024896	76.9517	-0.517914	-6.0896e+06	4.088343E-9	NaN
466	1.000000	0.622544	7.36962e+06	-53789.1	1005.82	-29745.3	0.000000	0.000000	6.622982	0.017316	NaN	0.000000	0.001574	0.001704	28.0818	0.017556	0.001971	8.905480	-141.396	-164.568	-0.001243	0.621241	-0.508169	-0.509472	0.017316	8.905480	-0.509627	-4.66896e+06	-3.708851E-9	NaN
466	1.000000	0.632592	7.36962e+06	-53789.1	1005.82	-29745.3	0.000000	0.000000	6.633028	-0.022260	NaN	0.000000	0.001552	0.001692	28.0819	0.040855	0.002019	20.2373	130.749	14.2838	-0.067758	0.631187	-0.498121	-0.499526	-0.022260	20.2373	-0.497296	-3.14261e+06	7.083242E-9	NaN
466	1.000000	0.642558	7.36962e+06	-53789.1	1005.82	-29745.3	0.000000	0.000000	6.642995	-0.011906	NaN	0.000000	0.001542	0.001686	28.0818	0.060351	0.002008	30.055	102.016	-164.038	-0.003059	0.641262	-0.488155	-0.489451	-0.011906	30.055	-0.487858	-2.3198e+06	5.132548E-9	NaN
466	1.000000	0.652574	7.36962e+06	-53789.1	1005.82	-29745.3	0.000000	0.000000	6.653009	-0.061558	NaN	0.000000	0.001572	0.001709	28.0822	0.033049	0.001989	16.617	-177.955	9.138892	-0.139763	0.651228	-0.478139	-0.479485	-0.061558	16.617	-0.475361	-1.5508e+06	3.969402E-8	NaN
466	1.000000	0.662577	7.36962e+06	-53789.1	1005.82	-29745.3	0.000000	0.000000	6.663012	-0.062020	NaN	0.000000	0.001552	0.001694	28.0819	0.069682	0.002047	34.0408	-97.1272	-168.322	-0.066918	0.661285	-0.468136	-0.469428	-0.062020	34.0408	-0.466770	-1.17514e+06	5.277681E-8	NaN
466	1.000000	0.672593	7.36962e+06	-53789.1	1005.82	-29745.3	0.000000	0.000000	6.673028	-0.051566	NaN	0.000000	0.001568	0.001679	28.0819	0.012629	0.002112	5.979651	87.2572	12.0202	-0.136863	0.671191	-0.458120	-0.459522	-0.051566	5.979651	-0.451652	-720450	7.157480E-8	NaN
466	1.000000	0.682581	7.36962e+06	-53789.1	1005.82	-29745.3	0.000000	0.000000	6.683017	-0.022523	NaN	0.000000	0.001559	0.001700	28.0817	0.041217	0.002031	20.2933	-21.4499	-166.997	-0.014376	0.681266	-0.448132	-0.449447	-0.022523	20.2933	-0.447300	-625619	3.600038E-8	NaN
466	1.000000	0.692566	7.36962e+06	-53789.1	1005.82	-29745.3	0.000000	0.000000	6.693002	-0.020989	NaN	0.000000	0.001602	0.001698	28.0822	0.047188	0.001909	24.7147	75.9863	13.8913	-0.024091	0.691197	-0.438147	-0.439516	-0.020989	24.7147	-0.437510	-455211	4.610793E-8	NaN
466	1.000000	0.702570	7.36962e+06	-53789.1	1005.82	-29745.3	0.000000	0.000000	6.703006	-0.038465	NaN	0.000000	0.001538	0.001738	28.0819	0.081421	0.001983	41.0649	-63.613	-166.061	0.037070	0.701312	-0.428143	-0.429401	-0.038465	41.0649	-0.427441	-327975	1.172815E-7	NaN
466	1.000000	0.712609	7.36962e+06	-53789.1	1005.82	-29745.3	0.000000	0.000000	6.713045	-0.014481	NaN	0.000000	0.001559	0.001703	28.082	0.030338	0.001919	15.8131	-81.233	11.9343	-0.029888	0.711267	-0.418104	-0.419445	-0.014481	15.8131	-0.417418	-236470	6.124003E-8	NaN
466	1.000000	0.722603	7.36962e+06	-53789.1	1005.82	-29745.3	0.000000	0.000000	6.723039	-0.043336	NaN	0.000000	0.001587	0.001705	28.082	0.077887	0.002020	38.5522	78.5081	-165.992	-0.052340	0.721253	-0.408110	-0.409460	-0.043336	38.5522	-0.407267	-169635	2.554681E-7	NaN
466	1.000000	0.732613	7.36962e+06	-53789.1	1005.82	-29745.3	0.000000	0.000000	6.733050	-0.007248	NaN	0.000000	0.001543	0.001730	28.0824	0.039816	0.002130	18.69	65.6297	13.5716	-0.051141	0.731238	-0.398100	-0.399474	-0.007248	18.69	-0.397809	-124376	5.827411E-8	NaN
466	1.000000	0.742619	7.36962e+06	-53789.1	1005.82	-29745.3	0.000000	0.000000	6.743052	-0.095473	NaN	0.000000	0.001607	0.001682	28.0833	0.074453	0.001952	38.1492	57.6266	-167.339	-0.134308	0.741324	-0.388094	-0.389389	-0.095473	38.1492	-0.386218	-84923.3	1.124224E-6	NaN
466	1.000000	0.752607	7.36962e+06	-53789.1	1005.82	-29745.3	0.000000	0.000000	6.753044	-0.015490	NaN	0.000000	0.001598	0.001725	28.0834	0.071476	0.001926	37.1127	-11.7561	10.2081	-0.035973	0.751176	-0.378106	-0.379537	-0.015490	37.1127	-0.377793	-64299	2.409027E-7	NaN
466	1.000000	0.762587	7.36962e+06	-53789.1	1005.82	-29745.3	0.000000	0.000000	6.763025	0.006497	NaN	0.000000	0.001573	0.001712	28.0837	0.035955	0.002126	16.9136	-29.0917	-167.607	-0.046216	0.761301	-0.368126	-0.369412	0.006497	16.9136	-0.368414	-47127.5	-1.378579E-7	NaN
466	1.000000	0.772618	7.36962e+06	-53789.1	1005.82	-29745.3	0.000000	0.000000	6.773049	-0.134026	NaN	0.000000	0.001581	0.001711	28.0835	0.069615	0.002065	33.7176	104.065	14.9836	-0.132686	0.771275	-0.358095	-0.359438	-0.134026	33.7176	-0.355114	-30279.7	4.426267E-6	NaN
466	1.000000	0.782605	7.36962e+06	-53789.1	1005.82	-29745.3	0.000000	0.000000	6.783040	-0.071336	NaN	0.000000	0.001556	0.001724	28.0836	0.064626	0.002011	32.1298	67.7971	-164.97	-0.065015	0.781325	-0.348108	-0.349388	-0.071336	32.1298	-0.346442	-22663.6	3.147595E-6	NaN
466	1.000000	0.792602	7.36962e+06	-53789.1	1005.82	-29745.3	0.000000	0.000000	6.793037	-0.067465	NaN	0.000000	0.001558	0.001725	28.0834	0.043453	0.001987	21.8679	-140.903	16.5342	-0.142399	0.791281	-0.338111	-0.339431	-0.067465	21.8679	-0.335797	-15857.2	4.254576E-6	NaN
466	1.000000	0.802643	7.36962e+06	-53789.1	1005.82	-29745.3	0.000000	0.000000	6.803074	-0.145040	NaN	0.000000	0.001591	0.001736	28.0834	0.073258	0.001950	37.5731	139.502	-166.867	-0.092961	0.801276	-0.328070	-0.329437	-0.145040	37.5731	-0.325175	-11084.3	1.308509E-5	NaN
466	1.000000	0.812620	7.36962e+06	-53789.1	1005.82	-29745.3	0.000000	0.000000	6.813054	-0.077877	NaN	0.000000	0.001578	0.001688	28.0835	0.011676	0.001908	6.120256	177.892	16.2143	-0.066823	0.811289	-0.318093	-0.319424	-0.077877	6.120256	-0.308550	-6303.57	1.235449E-5	NaN
466	1.000000	0.822637	7.36962e+06	-53789.1	1005.82	-29745.3	0.000000	0.000000	6.823071	-0.081528	NaN	0.000000	0.001572	0.001726	28.0834	0.053614	0.001976	27.1351	150.365	-166.5	-0.118122	0.821302	-0.308076	-0.309411	-0.081528	27.1351	-0.305822	-5743.25	1.419544E-5	NaN
466	1.000000	0.832677	7.36962e+06	-53789.1	1005.82	-29745.3	0.000000	0.000000	6.833113	-0.021137	NaN	0.000000	0.001555	0.001744	28.0834	0.066605	0.001920	34.6936	14.5615	14.2825	-0.058009	0.831244	-0.298036	-0.299469	-0.021137	34.6936	-0.297579	-4330.84	4.880608E-6	NaN
466	1.000000	0.842642	7.36962e+06	-53789.1	1005.82	-29745.3	0.000000	0.000000	6.843079	-0.011506	NaN	0.000000	0.001563	0.001744	28.0834	0.047924	0.002071	23.1381	-119.061	-165.407	-0.012164	0.841313	-0.288071	-0.289400	-0.011506	23.1381	-0.287698	-3081.72	3.733758E-6	NaN
466	1.000000	0.852658	7.36962e+06	-53789.1	1005.82	-29745.3	0.000000	0.000000	6.853094	-0.041666	NaN	0.000000	0.001547	0.001720	28.0833	0.081060	0.002081	38.9617	161.096	13.7128	-0.072747	0.851268	-0.278055	-0.279445	-0.041666	38.9617	-0.277253	-2145.27	1.942208E-5	NaN
466	1.000000	0.862659	7.36962e+06	-53789.1	1005.82	-29745.3	0.000000	0.000000	6.863096	-0.012276	NaN	0.000000	0.001556	0.001715	28.0834	0.105644	0.002093	50.4743	-67.2361	-165.28	-0.035643	0.861365	-0.268054	-0.269348	-0.012276	50.4743	-0.267872	-1545.84	7.941241E-6	NaN
466	1.000000	0.872640	7.36962e+06	-53789.1	1005.82	-29745.3	0.000000	0.000000	6.873075	-0.076165	NaN	0.000000	0.001565	0.001674	28.0823	0.008420	0.002047	4.113997	-91.5027	13.6856	-0.057488	0.871273	-0.258073	-0.259440	-0.076165	4.113997	-0.244187	-668.066	0.000114	NaN
466	1.000000	0.882681	7.36962e+06	-53789.1	1005.82	-29745.3	0.000000	0.000000	6.883117	-0.022133	NaN	0.000000	0.001539	0.001748	28.0822	0.058345	0.002006	29.0829	-75.2129	-167.121	-0.098079	0.881387	-0.248032	-0.249326	-0.022133	29.0829	-0.247462	-751.039	2.946932E-5	NaN
466	1.000000	0.892669	7.36962e+06	-53789.1	1005.82	-29745.3	0.000000	0.000000	6.893103	-0.091786	NaN	0.000000	0.001528	0.001694	28.0818	0.065850	0.002088	31.5382	-153.203	18.8852	-0.107605	0.891317	-0.238044	-0.239396	-0.091786	31.5382	-0.235861	-495.176	0.000185	NaN
466	1.000000	0.902674	7.36962e+06	-53789.1	1005.82	-29745.3	0.000000	0.000000	6.903112	0.011980	NaN	0.000000	0.001571	0.001748	28.0821	0.067480	0.002017	33.4638	-169.823	-165.791	0.031977	0.901386	-0.228039	-0.229327	0.011980	33.4638	-0.228308	-376.503	-3.181899E-5	NaN
466	1.000000	0.912674	7.36962e+06	-53789.1	1005.82	-29745.3	0.000000	0.000000	6.913111	-0.021791	NaN	0.000000	0.001546	0.001707	28.0819	0.095566	0.001993	47.947	-128.202	12.3525	-0.044374	0.911314	-0.218039	-0.219398	-0.021791	47.947	-0.217698	-255.173	8.539743E-5	NaN
466	1.000000	0.922679	7.36962e+06	-53789.1	1005.82	-29745.3	0.000000	0.000000	6.923111	-0.114975	NaN	0.000000	0.001522	0.001714	28.0818	0.041332	0.001913	21.6088	-125.405	-161.514	-0.067128	0.921339	-0.208034	-0.209374	-0.114975	21.6088	-0.204044	-153.444	0.000749	NaN
466	1.000000	0.932714	7.36962e+06	-53789.1	1005.82	-29745.3	0.000000	0.000000	6.933150	-0.028498	NaN	0.000000	0.001629	0.001696	28.0816	0.056028	0.002014	27.8257	-89.6715	13.3554	-0.030168	0.931292	-0.197999	-0.199421	-0.028498	27.8257	-0.197231	-118.603	0.000240	NaN
466	1.000000	0.942687	7.36962e+06	-53789.1	1005.82	-29745.3	0.000000	0.000000	6.943121	-0.077456	NaN	0.000000	0.001567	0.001672	28.0821	0.074716	0.001988	37.5842	95.8118	-171.161	-0.080187	0.941385	-0.188026	-0.189328	-0.077456	37.5842	-0.186480	-78.5329	0.000986	NaN
466	1.000000	0.952684	7.36962e+06	-53789.1	1005.82	-29745.3	0.000000	0.000000	6.953120	-0.035153	NaN	0.000000	0.001569	0.001674	28.0818	0.166009	0.002051	80.925	-84.9133	13.5556	-0.064796	0.951347	-0.178029	-0.179366	-0.035153	80.925	-0.177703	-55.758	0.000630	NaN
466	1.000000	0.962702	7.36962e+06	-53789.1	1005.82	-29745.3	0.000000	0.000000	6.963139	-0.016885	NaN	0.000000	0.001557	0.001700	28.0818	0.099414	0.002030	48.9666	-47.2879	-166.536	0.004292	0.961348	-0.168011	-0.169365	-0.016885	48.9666	-0.167752	-37.5391	0.000450	NaN
466	1.000000	0.972696	7.36962e+06	-53789.1	1005.82	-29745.3	0.000000	0.000000	6.973129	-0.115505	NaN	0.000000	0.001553	0.001726	28.0818	0.097575	0.002080	46.9042	-147.506	14.2244	-0.122196	0.971315	-0.158017	-0.159398	-0.115505	46.9042	-0.156170	-23.4207	0.004932	NaN
466	1.000000	0.982707	7.36962e+06	-53789.1	1005.82	-29745.3	0.000000	0.000000	6.983142	-0.040650	NaN	0.000000	0.001566	0.001730	28.0819	0.028458	0.001985	14.3347	75.2508	-168.015	-0.034578	0.981392	-0.148006	-0.149321	-0.040650	14.3347	-0.145879	-15.22	0.002671	NaN
466	1.000000	0.992715	7.36962e+06	-53789.1	1005.82	-29745.3	0.000000	0.000000	6.993151	-0.039667	NaN	0.000000	0.001591	0.001723	28.0817	0.019106	0.001957	9.761724	-158.321	14.0192	-0.121817	0.991349	-0.137998	-0.139364	-0.039667	9.761724	-0.134951	-9.491723	0.004179	NaN
466	1.000000	1.002722	7.36962e+06	-53789.1	1005.82	-29745.3	0.000000	0.000000	7.003157	-0.036936	NaN	0.000000	0.001601	0.001737	28.0819	0.094325	0.002156	43.7457	171.071	-168.759	-0.030084	1.001433	-0.127991	-0.129280	-0.036936	43.7457	-0.127358	-6.767833	0.005458	NaN
466	1.000000	1.012714	7.36962e+06	-53789.1	1005.82	-29745.3	0.000000	0.000000	7.013148	-0.098129	NaN	0.000000	0.001563	0.001707	28.0836	0.122780	0.001913	64.1762	-170.11	13.9024	-0.056939	1.011355	-0.117999	-0.119358	-0.098129	64.1762	-0.116852	-4.169945	0.023532	NaN
466	1.000000	1.022739	7.36962e+06	-53789.1	1005.82	-29745.3	0.000000	0.000000	7.023170	-0.150353	NaN	0.000000	0.001589	0.001716	28.0833	0.044021	0.002029	21.6952	122.47	-170.252	-0.119997	1.021350	-0.107974	-0.109363	-0.150353	21.6952	-0.102776	-2.103105	0.071491	NaN
466	1.000000	1.032691	7.36962e+06	-53789.1	1005.82	-29745.3	0.000000	0.000000	7.033124	-0.099070	NaN	0.000000	0.001591	0.001708	28.0832	0.085254	0.001787	47.713	-171.614	12.2159	-0.059122	1.031387	-0.098022	-0.099325	-0.099070	47.713	-0.096465	-1.522856	0.065055	NaN
466	1.000000	1.042709	7.36962e+06	-53789.1	1005.82	-29745.3	0.000000	0.000000	7.043144	-0.044044	NaN	0.000000	0.001630	0.001748	28.083	0.035123	0.002026	17.3349	59.4325	-164.912	-0.054205	1.041371	-0.088004	-0.089342	-0.044044	17.3349	-0.086099	-0.873332	0.050432	NaN
466	1.000000	1.052754	7.36962e+06	-53789.1	1005.82	-29745.3	0.000000	0.000000	7.053188	-0.083783	NaN	0.000000	0.001624	0.001717	28.0831	0.087609	0.002023	43.296	-76.1954	17.1113	-0.021009	1.051341	-0.077959	-0.079372	-0.083783	43.296	-0.076508	-0.505040	0.165894	NaN
466	1.000000	1.062719	7.36962e+06	-53789.1	1005.82	-29745.3	0.000000	0.000000	7.063154	-0.079132	NaN	0.000000	0.001652	0.001699	28.0833	0.032533	0.002075	15.6793	119.979	-165.515	-0.071192	1.061430	-0.067994	-0.069282	-0.079132	15.6793	-0.064208	-0.236895	0.334039	NaN
466	1.000000	1.072750	7.36962e+06	-53789.1	1005.82	-29745.3	0.000000	0.000000	7.073186	-0.023567	NaN	0.000000	0.001597	0.001732	28.083	0.015966	0.002013	7.933005	-132.129	16.8838	-0.067314	1.071352	-0.057963	-0.059361	-0.023567	7.933005	-0.055735	-0.135371	0.174091	NaN
466	1.000000	1.082741	7.36962e+06	-53789.1	1005.82	-29745.3	0.000000	0.000000	7.083175	-0.066358	NaN	0.000000	0.001589	0.001717	28.0831	0.033642	0.001955	17.2049	-158.169	-168.056	-0.006336	1.081422	-0.047972	-0.049291	-0.066358	17.2049	-0.045080	-0.064630	1.026745	NaN
466	1.000000	1.092781	7.36962e+06	-53789.1	1005.82	-29745.3	0.000000	0.000000	7.093214	-0.098300	NaN	0.000000	0.001597	0.001724	28.0833	0.080367	0.002022	39.7451	-147.966	13.4668	-0.012284	1.091347	-0.037932	-0.039366	-0.098300	39.7451	-0.036077	-0.034463	2.852322	NaN
466	1.000000	1.102713	7.36962e+06	-53789.1	1005.82	-29745.3	0.000000	0.000000	7.103149	-0.029598	NaN	0.000000	0.001602	0.001715	28.0832	0.074038	0.001954	37.8872	-37.0602	-163.601	-0.046097	1.101466	-0.028000	-0.029247	-0.029598	37.8872	-0.027414	-0.019549	1.514064	NaN
466	1.000000	1.112759	7.36962e+06	-53789.1	1005.82	-29745.3	0.000000	0.000000	7.113196	-0.012771	NaN	0.000000	0.001576	0.001744	28.0832	0.027776	0.001959	14.177	-147.876	12.6019	-0.031177	1.111397	-0.017954	-0.019316	-0.012771	14.177	-0.017278	-0.010689	1.194782	NaN
466	1.000000	1.122746	7.36962e+06	-53789.1	1005.82	-29745.3	0.000000	0.000000	7.123181	-0.059935	NaN	0.000000	0.001594	0.001722	28.0831	0.076723	0.001980	38.7415	118.619	-169.915	-0.143813	1.121467	-0.007967	-0.009246	-0.059935	38.7415	-0.006807	-0.004525	13.2464	NaN
466	1.000000	1.132687	7.36962e+06	-53789.1	1005.82	-29745.3	0.000000	0.000000	7.133423	7.273338	NaN	0.000000	0.001596	0.001697	28.0833	6.770023	0.001724	3927.31	7.723424	10.2769	4.995849	1.131360	0.001974	0.000647	7.273338	3927.31	0.000585	0.000442	16453.1	170658
466	2.000000	1.136345	7.36962e+06	-53789.1	1005.82	-29745.3	0.000000	0.000000	7.137210	10.4097	NaN	0.000000	0.001541	0.001724	28.0824	10.0258	0.001556	6443.7	3.239584	-170.658	10.0943	1.136029	0.005632	0.005316	10.4097	6443.7	0.004420	0.003610	2883.4	97980.9
466	2.000000	1.138815	7.36962e+06	-53789.1	1005.82	-29745.3	0.000000	0.000000	7.139863	14.8432	NaN	0.000000	0.001548	0.001727	28.0822	12.8809	0.001544	8342.56	1.966308	8.150666	13.75	1.138458	0.008102	0.007745	14.8432	8342.56	0.006768	0.005805	2556.85	100037
466	2.000000	1.141302	7.36962e+06	-53789.1	1005.82	-29745.3	0.000000	0.000000	7.142529	19.1791	NaN	0.000000	0.001527	0.001701	28.0817	16.6774	0.001728	9652.03	1.970531	-172.565	19.0059	1.141001	0.010589	0.010288	19.1791	9652.03	0.009099	0.008197	2339.68	97399.4
466	2.000000	1.143845	7.36962e+06	-53789.1	1005.82	-29745.3	0.000000	0.000000	7.145282	24.3119	NaN	0.000000	0.001552	0.001738	28.082	19.0078	0.001779	10683.7	7.051618	2.789592	25.0863	1.143403	0.013132	0.012690	24.3119	10683.7	0.011425	0.010809	2249.24	93886.6
466	2.000000	1.146270	7.36962e+06	-53789.1	1005.82	-29745.3	0.000000	0.000000	7.147937	29.8933	NaN	0.000000	0.001522	0.001753	28.0816	21.209	0.001758	12064.2	1.451600	-172.198	30.3897	1.145939	0.015557	0.015226	29.8933	12064.2	0.013699	0.013590	2199.73	94551.8
466	2.000000	1.148782	7.36962e+06	-53789.1	1005.82	-29745.3	0.000000	0.000000	7.150685	35.6426	NaN	0.000000	0.001523	0.001736	28.0818	24.0825	0.001729	13930.4	4.166290	2.212525	35.2578	1.148371	0.018069	0.017658	35.6426	13930.4	0.016150	0.016850	2115.31	98048.2
466	2.000000	1.151286	7.36962e+06	-53789.1	1005.82	-29745.3	0.000000	0.000000	7.153400	40.7614	NaN	0.000000	0.001548	0.001694	28.0817	26.7332	0.001737	15392.8	4.728788	-179.984	39.9844	1.150982	0.020573	0.020270	40.7614	15392.8	0.018587	0.020371	2000.97	98534.4
466	2.000000	1.153750	7.36962e+06	-53789.1	1005.82	-29745.3	0.000000	0.000000	7.156253	50.2134	NaN	0.000000	0.001545	0.001720	28.0825	29.1154	0.001756	16584	6.465104	-1.827101	48.8132	1.153376	0.023037	0.022663	50.2134	16584	0.020766	0.023760	2113.32	98295.7
466	2.000000	1.156260	7.36962e+06	-53789.1	1005.82	-29745.3	0.000000	0.000000	7.159116	58.7904	NaN	0.000000	0.001523	0.001738	28.0816	31.9576	0.001855	17230.3	8.959606	175.893	59.4607	1.155891	0.025547	0.025178	58.7904	17230.3	0.022988	0.027457	2141.14	95002.6
466	2.000000	1.158821	7.36962e+06	-53789.1	1005.82	-29745.3	0.000000	0.000000	7.161907	64.3833	NaN	0.000000	0.001517	0.001704	28.0823	33.7779	0.001800	18768.1	7.084264	-2.413925	66.4832	1.158368	0.028108	0.027655	64.3833	18768.1	0.025535	0.031997	2012.18	95860.5
466	2.000000	1.161235	7.36962e+06	-53789.1	1005.82	-29745.3	0.000000	0.000000	7.164658	72.573	NaN	0.000000	0.001513	0.001726	28.0819	36.3905	0.001890	19254.9	5.799719	177.64	72.2386	1.160972	0.030522	0.030259	72.573	19254.9	0.027696	0.036103	2010.18	92585.5
466	2.000000	1.163728	7.36962e+06	-53789.1	1005.82	-29745.3	0.000000	0.000000	7.167679	85.4293	NaN	0.000000	0.001502	0.001702	28.0822	37.2297	0.001749	21291.2	4.922964	-1.701444	82.8548	1.163364	0.033015	0.032651	85.4293	21291.2	0.030006	0.040756	2096.13	96356.2
466	2.000000	1.166163	7.36962e+06	-53789.1	1005.82	-29745.3	0.000000	0.000000	7.170451	93.6073	NaN	0.000000	0.001527	0.001722	28.0816	39.008	0.001677	23265.9	2.718072	178.904	90.5316	1.165885	0.035450	0.035172	93.6073	23265.9	0.032433	0.045937	2037.71	99176.7
466	2.000000	1.168710	7.36962e+06	-53789.1	1005.82	-29745.3	0.000000	0.000000	7.173434	104.227	NaN	0.000000	0.001532	0.001704	28.0819	42.7746	0.001755	24366.8	3.031196	-0.594827	102.557	1.168362	0.037997	0.037649	104.227	24366.8	0.034789	0.051255	2033.49	98333.7
466	2.000000	1.171152	7.36962e+06	-53789.1	1005.82	-29745.3	0.000000	0.000000	7.176197	112.009	NaN	0.000000	0.001566	0.001748	28.0831	46.6246	0.001858	25099	4.606880	176.514	107.298	1.170899	0.040439	0.040186	112.009	25099	0.037092	0.056730	1974.42	96277
466	2.000000	1.173707	7.36962e+06	-53789.1	1005.82	-29745.3	0.000000	0.000000	7.179448	128.941	NaN	0.000000	0.001583	0.001734	28.0834	48.0305	0.001770	27131.4	5.086195	-4.312899	126.082	1.173334	0.042994	0.042621	128.941	27131.4	0.039429	0.062562	2061.01	99103.7
466	2.000000	1.176182	7.36962e+06	-53789.1	1005.82	-29745.3	0.000000	0.000000	7.182440	141.525	NaN	0.000000	0.001596	0.001743	28.0829	49.8403	0.001788	27874	3.257651	177.216	138.414	1.175933	0.045469	0.045220	141.525	27874	0.041661	0.068390	2069.38	97381.2
466	2.000000	1.178675	7.36962e+06	-53789.1	1005.82	-29745.3	0.000000	0.000000	7.185358	151.844	NaN	0.000000	0.001594	0.001722	28.0833	53.0751	0.001862	28504.3	5.676726	-4.985336	148.934	1.178262	0.047962	0.047549	151.844	28504.3	0.043967	0.074681	2033.22	95296.7
466	2.000000	1.181203	7.36962e+06	-53789.1	1005.82	-29745.3	0.000000	0.000000	7.188524	167.354	NaN	0.000000	0.001591	0.001753	28.0829	56.0713	0.001814	30902.1	9.386667	170.912	167.432	1.180910	0.050490	0.050197	167.354	30902.1	0.046428	0.081694	2048.55	98779.3
466	2.000000	1.183734	7.36962e+06	-53789.1	1005.82	-29745.3	0.000000	0.000000	7.191652	181.865	NaN	0.000000	0.001583	0.001760	28.0831	56.1245	0.001680	33414.6	2.441542	-2.235410	179.369	1.183334	0.053021	0.052621	181.865	33414.6	0.048939	0.089162	2039.7	102240
466	2.000000	1.186215	7.36962e+06	-53789.1	1005.82	-29745.3	0.000000	0.000000	7.194711	195.927	NaN	0.000000	0.001601	0.001750	28.0829	59.439	0.001675	35480.5	3.570280	175.125	196.767	1.185874	0.055502	0.055161	195.927	35480.5	0.051360	0.096664	2026.88	104263
466	2.000000	1.188607	7.36962e+06	-53789.1	1005.82	-29745.3	0.000000	0.000000	7.197397	203.072	NaN	0.000000	0.001634	0.001766	28.0835	62.5028	0.001798	34760.7	4.944532	-6.002773	197.277	1.188311	0.057894	0.057598	203.072	34760.7	0.053512	0.103578	1960.57	98679.7
466	2.000000	1.191141	7.36962e+06	-53789.1	1005.82	-29745.3	0.000000	0.000000	7.200815	224.552	NaN	0.000000	0.001599	0.001712	28.0829	64.5432	0.001820	35470.3	1.745777	176.727	220.025	1.190852	0.060428	0.060139	224.552	35470.3	0.055680	0.110775	2027.11	97368.5
466	2.000000	1.193702	7.36962e+06	-53789.1	1005.82	-29745.3	0.000000	0.000000	7.204019	240.193	NaN	0.000000	0.001594	0.001734	28.0832	66.2385	0.001729	38303.1	2.208609	-3.504298	237.421	1.193360	0.062989	0.062647	240.193	38303.1	0.058286	0.119733	2006.07	101135
466	2.000000	1.196147	7.36962e+06	-53789.1	1005.82	-29745.3	0.000000	0.000000	7.207106	255.82	NaN	0.000000	0.001635	0.001764	28.0829	68.7792	0.001852	37133.5	2.366001	176.366	252.398	1.195851	0.065434	0.065138	255.82	37133.5	0.060267	0.126767	2018.04	95287.7
466	2.000000	1.198678	7.36962e+06	-53789.1	1005.82	-29745.3	0.000000	0.000000	7.210222	270.019	NaN	0.000000	0.001641	0.001721	28.0834	72.3533	0.001832	39498	3.786488	-6.166000	265.892	1.198336	0.067965	0.067623	270.019	39498	0.062838	0.136180	1982.8	97789.1
466	2.000000	1.201225	7.36962e+06	-53789.1	1005.82	-29745.3	0.000000	0.000000	7.213349	284.146	NaN	0.000000	0.001638	0.001746	28.0828	74.4342	0.001810	41124.3	3.849454	174.044	284.991	1.200989	0.070512	0.070276	284.146	41124.3	0.065330	0.145610	1951.42	98463.8
466	2.000000	1.203727	7.36962e+06	-53789.1	1005.82	-29745.3	0.000000	0.000000	7.216835	308.048	NaN	0.000000	0.001612	0.001731	28.0831	76.9423	0.001773	43403	7.962819	-9.526079	307.942	1.203313	0.073014	0.072600	308.048	43403	0.067691	0.154823	1989.68	100780
466	2.000000	1.206178	7.36962e+06	-53789.1	1005.82	-29745.3	0.000000	0.000000	7.220149	329.027	NaN	0.000000	0.001624	0.001740	28.0815	78.1785	0.001694	46145.6	2.780599	174.961	329.549	1.205824	0.075465	0.075111	329.027	46145.6	0.070118	0.164567	1999.35	103928
466	2.000000	1.208763	7.36962e+06	-53789.1	1005.82	-29745.3	0.000000	0.000000	7.223199	340.33	NaN	0.000000	0.001608	0.001727	28.082	81.5459	0.001746	46703.4	0.640852	-3.620041	341.643	1.208447	0.078050	0.077734	340.33	46703.4	0.072585	0.174762	1947.38	102070
466	2.000000	1.211270	7.36962e+06	-53789.1	1005.82	-29745.3	0.000000	0.000000	7.226519	360.098	NaN	0.000000	0.001628	0.001708	28.0816	86.1908	0.001818	47404.1	7.228768	169.217	366.045	1.210851	0.080558	0.080138	360.098	47404.1	0.074860	0.184419	1952.61	100852
466	2.000000	1.213655	7.36962e+06	-53789.1	1005.82	-29745.3	0.000000	0.000000	7.229766	381.059	NaN	0.000000	0.001618	0.001761	28.0822	86.3124	0.001863	46341.9	1.743197	-4.698172	376.427	1.213236	0.082942	0.082523	381.059	46341.9	0.076775	0.192736	1977.11	96441.9
466	2.000000	1.216161	7.36962e+06	-53789.1	1005.82	-29745.3	0.000000	0.000000	7.233053	400.05	NaN	0.000000	0.001618	0.001713	28.0816	88.4091	0.001781	49645.4	4.657179	171.48	400.199	1.215954	0.085448	0.085241	400.05	49645.4	0.079405	0.204435	1956.86	100317
466	2.000000	1.218526	7.36962e+06	-53789.1	1005.82	-29745.3	0.000000	0.000000	7.236244	420.145	NaN	0.000000	0.001626	0.001725	28.0819	90.4074	0.001784	50681.1	1.836058	-4.972449	411.408	1.218241	0.087813	0.087528	420.145	50681.1	0.081595	0.214427	1959.38	99995.2
466	2.000000	1.221101	7.36962e+06	-53789.1	1005.82	-29745.3	0.000000	0.000000	7.239867	445.595	NaN	0.000000	0.001633	0.001746	28.0815	93.7052	0.001795	52212.2	3.683124	172.252	441.602	1.220818	0.090388	0.090105	445.595	52212.2	0.083987	0.225595	1975.2	100434
466	2.000000	1.223720	7.36962e+06	-53789.1	1005.82	-29745.3	0.000000	0.000000	7.243264	464.531	NaN	0.000000	0.001573	0.001717	28.0816	96.2898	0.001849	52070.7	7.291703	-10.1377	466	1.223179	0.093007	0.092466	464.531	52070.7	0.086316	0.236720	1962.37	97779.9
466	2.000000	1.226135	7.36962e+06	-53789.1	1005.82	-29745.3	0.000000	0.000000	7.246494	484.34	NaN	0.000000	0.001575	0.001717	28.0817	96.274	0.001818	52952.5	3.218765	172.956	482.185	1.225903	0.095422	0.095190	484.34	52952.5	0.088562	0.247685	1955.47	97209.7
466	2.000000	1.228573	7.36962e+06	-53789.1	1005.82	-29745.3	0.000000	0.000000	7.250011	510.575	NaN	0.000000	0.001605	0.001748	28.0817	100.772	0.001908	52813.7	8.169325	-11.9486	503.764	1.228150	0.097860	0.097437	510.575	52813.7	0.090609	0.257885	1979.86	95018.2
466	2.000000	1.231029	7.36962e+06	-53789.1	1005.82	-29745.3	0.000000	0.000000	7.252957	522.484	NaN	0.000000	0.001600	0.001709	28.0815	102.039	0.001824	55930.4	3.438876	172.179	513.482	1.230738	0.100316	0.100026	522.484	55930.4	0.093310	0.271631	1923.51	98046.3
466	2.000000	1.232644	7.36962e+06	-53789.1	1005.82	-29745.3	0.000000	0.000000	7.255369	541.852	NaN	0.000000	0.001609	0.001758	28.082	102.312	0.001835	55767.2	4.165404	-8.038530	540.152	1.232299	0.101931	0.101586	541.852	55767.2	0.094644	0.278546	1945.29	96539.2