File: remote_trans/data/nanoindenter/0828-1/data/Data_2025-08-06,11h17m57s/2025-07-22_16-23-58_1_260.txt
2025-07-22, 16:23:58, 1
Index	Phase	Displacement	Time	Pos X	Pos Y	Pos Z	Rot A	Rot B	Piezo Z	Force A	Force B	Gripper	Voltage A	Voltage B	Temperature	Amplitude force	Amplitude pos	Stiffness	Phase shift	Phase excitation	Force A raw	Displacement raw	HMax	HMax raw	Real Force	Real Stiffness	Contact Depth	Area	Hardness	Reduced Mod.
[#]	[#]	[um]	[s]	[um]	[um]	[um]	[m°]	[m°]	[um]	[uN]	[uN]	[V]	[V]	[V]	[°C]	[uN]	[um]	[N/m]	[°]	[°]	[uN]	[um]	[um]	[um]	[uN]	[N/m]	[um]	[um^2]	[MPa]	[MPa]
260	1.000000	0.002507	7.3676e+06	-51639.1	955.819	-29751.9	0.000000	0.000000	6.002811	-0.003129	NaN	0.000000	0.001542	0.001703	28.0782	0.004868	0.001001	4.863917	-132.584	-160.918	-0.002604	0.001221	-1.022935	-1.024221	-0.003129	4.863917	-1.022452	-4.549308E+13	6.878771E-17	NaN
260	1.000000	0.010420	7.3676e+06	-51639.1	955.819	-29751.9	0.000000	0.000000	6.010723	-0.019055	NaN	0.000000	0.001570	0.001664	28.0781	0.046009	0.001036	44.4228	53.2742	-168.076	-0.022276	0.009165	-1.015022	-1.016277	-0.019055	44.4228	-1.014700	-3.577962E+13	5.325705E-16	NaN
260	1.000000	0.018430	7.3676e+06	-51639.1	955.819	-29751.9	0.000000	0.000000	6.018736	0.055405	NaN	0.000000	0.001530	0.001689	28.0781	0.018466	0.001796	10.2793	139.934	-163.322	0.037724	0.017171	-1.007012	-1.008271	0.055405	10.2793	-1.011054	-3.195761E+13	-1.733718E-15	NaN
260	1.000000	0.026480	7.3676e+06	-51639.1	955.818	-29751.9	0.000000	0.000000	6.026783	-0.004299	NaN	0.000000	0.001533	0.001653	28.0782	0.043528	0.001930	22.5532	139.932	-164.684	0.048276	0.025172	-0.998963	-1.000270	-0.004299	22.5532	-0.998820	-2.187138E+13	1.965570E-16	NaN
260	1.000000	0.034430	7.3676e+06	-51639.1	955.819	-29751.9	0.000000	0.000000	6.034731	-0.056349	NaN	0.000000	0.001543	0.001651	28.078	0.129765	0.001910	67.9403	-99.0955	-164.635	-0.049729	0.033097	-0.991013	-0.992345	-0.056349	67.9403	-0.990391	-1.684115E+13	3.345900E-15	NaN
260	1.000000	0.042479	7.3676e+06	-51639.1	955.82	-29751.9	0.000000	0.000000	6.042784	0.034089	NaN	0.000000	0.001589	0.001636	28.0786	0.078975	0.001940	40.704	118.661	-160.482	-0.016826	0.041150	-0.982963	-0.984292	0.034089	40.704	-0.983591	-1.363917E+13	-2.499312E-15	NaN
260	1.000000	0.050458	7.3676e+06	-51639.1	955.818	-29751.9	0.000000	0.000000	6.050760	-0.035316	NaN	0.000000	0.001603	0.001647	28.0777	0.093656	0.001962	47.7422	127.444	-166.823	0.018403	0.049103	-0.974985	-0.976340	-0.035316	47.7422	-0.974430	-1.026503E+13	3.440453E-15	NaN
260	1.000000	0.058464	7.3676e+06	-51639.1	955.818	-29751.9	0.000000	0.000000	6.058771	0.078101	NaN	0.000000	0.001599	0.001667	28.0777	0.079603	0.002005	39.7022	114.814	-165.902	0.087870	0.057127	-0.966978	-0.968315	0.078101	39.7022	-0.968454	-8.527496E+12	-9.158761E-15	NaN
260	1.000000	0.066446	7.3676e+06	-51639.1	955.819	-29751.9	0.000000	0.000000	6.066749	-0.024739	NaN	0.000000	0.001627	0.001661	28.0792	0.149282	0.002006	74.4178	-167.011	-166.244	-0.028675	0.065193	-0.958996	-0.960250	-0.024739	74.4178	-0.958746	-6.309120E+12	3.921115E-15	NaN
260	1.000000	0.074438	7.3676e+06	-51639.1	955.819	-29751.9	0.000000	0.000000	6.074741	0.003126	NaN	0.000000	0.001621	0.001620	28.0792	0.057204	0.002014	28.3972	-85.1387	-166.807	0.038865	0.073097	-0.951005	-0.952346	0.003126	28.3972	-0.951087	-4.973821E+12	-6.285350E-16	NaN
260	1.000000	0.082479	7.3676e+06	-51639.1	955.819	-29751.9	0.000000	0.000000	6.082783	-0.000805	NaN	0.000000	0.001623	0.001662	28.08	0.148735	0.002084	71.3707	116.943	-163.356	-0.060979	0.081119	-0.942963	-0.944324	-0.000805	71.3707	-0.942954	-3.863623E+12	2.083537E-16	NaN
260	1.000000	0.090464	7.3676e+06	-51639.1	955.819	-29751.9	0.000000	0.000000	6.090767	-0.017855	NaN	0.000000	0.001578	0.001668	28.0792	0.108740	0.002001	54.3421	98.4889	-166.757	-0.074788	0.089140	-0.934978	-0.936302	-0.017855	54.3421	-0.934732	-2.992615E+12	5.966284E-15	NaN
260	1.000000	0.098428	7.3676e+06	-51639.1	955.818	-29751.9	0.000000	0.000000	6.098730	-0.020001	NaN	0.000000	0.001628	0.001674	28.0794	0.056753	0.001984	28.6085	50.8888	-165.586	0.033913	0.097162	-0.927014	-0.928280	-0.020001	28.6085	-0.926490	-2.316446E+12	8.634167E-15	NaN
260	1.000000	0.106461	7.3676e+06	-51639.1	955.818	-29751.9	0.000000	0.000000	6.106763	-0.035000	NaN	0.000000	0.001645	0.001664	28.0795	0.099215	0.001988	49.9168	155.8	-165.543	-0.008417	0.105184	-0.918982	-0.920258	-0.035000	49.9168	-0.918456	-1.804489E+12	1.939621E-14	NaN
260	1.000000	0.114448	7.3676e+06	-51639.1	955.818	-29751.9	0.000000	0.000000	6.114751	-0.003291	NaN	0.000000	0.001620	0.001669	28.0794	0.057908	0.001888	30.6795	143.398	-167.528	0.067325	0.113218	-0.910994	-0.912224	-0.003291	30.6795	-0.910914	-1.427268E+12	2.305825E-15	NaN
260	1.000000	0.122500	7.3676e+06	-51639.1	955.819	-29751.9	0.000000	0.000000	6.122800	-0.081828	NaN	0.000000	0.001635	0.001651	28.0795	0.053387	0.001964	27.177	-25.1891	-165.455	-0.065751	0.121134	-0.902943	-0.904309	-0.081828	27.177	-0.900684	-1.038280E+12	7.881067E-14	NaN
260	1.000000	0.130469	7.3676e+06	-51639.1	955.819	-29751.9	0.000000	0.000000	6.130774	0.037908	NaN	0.000000	0.001628	0.001657	28.0793	0.041979	0.002059	20.3897	-157.678	-166.887	0.074070	0.129114	-0.894973	-0.896328	0.037908	20.3897	-0.896368	-9.077870E+11	-4.175906E-14	NaN
260	1.000000	0.138475	7.3676e+06	-51639.1	955.818	-29751.9	0.000000	0.000000	6.138782	0.094632	NaN	0.000000	0.001631	0.001643	28.0796	0.047314	0.002077	22.7773	-27.4862	-166.709	0.164699	0.137196	-0.886967	-0.888247	0.094632	22.7773	-0.890083	-7.465217E+11	-1.267645E-13	NaN
260	1.000000	0.146445	7.3676e+06	-51639.1	955.819	-29751.9	0.000000	0.000000	6.146749	0.021236	NaN	0.000000	0.001619	0.001652	28.0793	0.151692	0.001930	78.5845	69.9945	-166.833	-0.049870	0.145197	-0.878997	-0.880245	0.021236	78.5845	-0.879200	-5.319699E+11	-3.992021E-14	NaN
260	1.000000	0.154510	7.3676e+06	-51639.1	955.818	-29751.9	0.000000	0.000000	6.154815	0.017359	NaN	0.000000	0.001664	0.001662	28.0794	0.040023	0.001961	20.4132	45.5789	-165.527	0.017295	0.153164	-0.870932	-0.872278	0.017359	20.4132	-0.871570	-4.194494E+11	-4.138505E-14	NaN
260	1.000000	0.162499	7.3676e+06	-51639.1	955.819	-29751.9	0.000000	0.000000	6.162800	-0.053146	NaN	0.000000	0.001574	0.001654	28.0795	0.017204	0.002035	8.453657	134.053	-165.859	-0.022682	0.161139	-0.862943	-0.864303	-0.053146	8.453657	-0.858228	-2.767835E+11	1.920139E-13	NaN
260	1.000000	0.170502	7.3676e+06	-51639.1	955.819	-29751.9	0.000000	0.000000	6.170807	0.018675	NaN	0.000000	0.001558	0.001667	28.0794	0.048109	0.001983	24.2586	67.3084	-164.156	0.084598	0.169156	-0.854940	-0.856286	0.018675	24.2586	-0.855517	-2.543548E+11	-7.341999E-14	NaN
260	1.000000	0.178497	7.3676e+06	-51639.1	955.819	-29751.9	0.000000	0.000000	6.178803	0.060399	NaN	0.000000	0.001549	0.001655	28.0797	0.094919	0.001918	49.4991	-62.1217	-165.146	0.065798	0.177209	-0.846945	-0.848233	0.060399	49.4991	-0.847860	-2.003381E+11	-3.014867E-13	NaN
260	1.000000	0.186507	7.3676e+06	-51639.1	955.818	-29751.9	0.000000	0.000000	6.186812	0.031963	NaN	0.000000	0.001572	0.001676	28.0795	0.071897	0.001969	36.5226	77.315	-168.293	0.039148	0.185247	-0.838935	-0.840195	0.031963	36.5226	-0.839591	-1.547950E+11	-2.064867E-13	NaN
260	1.000000	0.194510	7.3676e+06	-51639.1	955.819	-29751.9	0.000000	0.000000	6.194814	0.001411	NaN	0.000000	0.001557	0.001679	28.0795	0.058968	0.001962	30.0556	-175.535	-165.238	0.063975	0.193184	-0.830932	-0.832258	0.001411	30.0556	-0.830967	-1.182748E+11	-1.192737E-14	NaN
260	1.000000	0.202485	7.3676e+06	-51639.1	955.82	-29751.9	0.000000	0.000000	6.202788	-0.003920	NaN	0.000000	0.001593	0.001672	28.0787	0.083338	0.001967	42.362	31.2976	-164.216	0.042344	0.201188	-0.822958	-0.824254	-0.003920	42.362	-0.822888	-9.191244E+10	4.264919E-14	NaN
260	1.000000	0.210511	7.3676e+06	-51639.1	955.819	-29751.9	0.000000	0.000000	6.210815	0.007838	NaN	0.000000	0.001617	0.001648	28.0782	0.034774	0.002061	16.8706	82.62	-168.43	-0.009938	0.209205	-0.814931	-0.816237	0.007838	16.8706	-0.815280	-7.247577E+10	-1.081513E-13	NaN
260	1.000000	0.218501	7.3676e+06	-51639.1	955.818	-29751.9	0.000000	0.000000	6.218803	-0.035910	NaN	0.000000	0.001608	0.001648	28.0784	0.107212	0.002031	52.7941	-7.327777	-166.246	-0.085676	0.217195	-0.806941	-0.808247	-0.035910	52.7941	-0.806431	-5.497235E+10	6.532435E-13	NaN
260	1.000000	0.226508	7.3676e+06	-51639.1	955.818	-29751.9	0.000000	0.000000	6.226811	-0.028044	NaN	0.000000	0.001597	0.001629	28.0783	0.135867	0.002011	67.5464	-123.649	-167.965	-0.010023	0.225251	-0.798934	-0.800191	-0.028044	67.5464	-0.798623	-4.306909E+10	6.511470E-13	NaN
260	1.000000	0.234534	7.3676e+06	-51639.1	955.818	-29751.9	0.000000	0.000000	6.234839	0.028478	NaN	0.000000	0.001637	0.001624	28.0782	0.071089	0.002076	34.239	-76.5157	-170.606	0.013276	0.233290	-0.790908	-0.792152	0.028478	34.239	-0.791532	-3.450551E+10	-8.253167E-13	NaN
260	1.000000	0.242509	7.3676e+06	-51639.1	955.819	-29751.9	0.000000	0.000000	6.242811	-0.014408	NaN	0.000000	0.001627	0.001643	28.0781	0.039862	0.002106	18.927	-111.656	-166.722	-0.045395	0.241242	-0.782934	-0.784200	-0.014408	18.927	-0.782363	-2.590221E+10	5.562426E-13	NaN
260	1.000000	0.250527	7.3676e+06	-51639.1	955.819	-29751.9	0.000000	0.000000	6.250829	-0.027968	NaN	0.000000	0.001626	0.001624	28.078	0.028348	0.001903	14.8937	-1.580465	-166.667	0.022142	0.249208	-0.774915	-0.776234	-0.027968	14.8937	-0.773507	-1.963275E+10	1.424559E-12	NaN
260	1.000000	0.258518	7.3676e+06	-51639.1	955.817	-29751.9	0.000000	0.000000	6.258822	0.013625	NaN	0.000000	0.001636	0.001637	28.0782	0.046861	0.001920	24.4069	58.5935	-168.353	-0.012287	0.257216	-0.766924	-0.768226	0.013625	24.4069	-0.767343	-1.618723E+10	-8.417053E-13	NaN
260	1.000000	0.266540	7.3676e+06	-51639.1	955.819	-29751.9	0.000000	0.000000	6.266844	0.003308	NaN	0.000000	0.001623	0.001628	28.0782	0.039019	0.001824	21.3941	-129.458	-166.044	0.028603	0.265203	-0.758902	-0.760239	0.003308	21.3941	-0.759018	-1.247229E+10	-2.652648E-13	NaN
260	1.000000	0.274547	7.3676e+06	-51639.1	955.819	-29751.9	0.000000	0.000000	6.274850	-0.004184	NaN	0.000000	0.001621	0.001624	28.0782	0.077628	0.002017	38.4939	21.9499	-169.533	-0.068623	0.273256	-0.750895	-0.752186	-0.004184	38.4939	-0.750814	-9.644848E+9	4.337809E-13	NaN
260	1.000000	0.282533	7.3676e+06	-51639.1	955.818	-29751.9	0.000000	0.000000	6.282838	0.048657	NaN	0.000000	0.001640	0.001656	28.0779	0.159558	0.001934	82.4867	-153.375	-166.001	0.051504	0.281268	-0.742910	-0.744174	0.048657	82.4867	-0.743352	-7.633207E+9	-6.374418E-12	NaN
260	1.000000	0.290551	7.3676e+06	-51639.1	955.819	-29751.9	0.000000	0.000000	6.290853	-0.025437	NaN	0.000000	0.001614	0.001627	28.0779	0.120287	0.001911	62.9284	115.764	-167.479	-0.030981	0.289206	-0.734891	-0.736237	-0.025437	62.9284	-0.734588	-5.798694E+9	4.386707E-12	NaN
260	1.000000	0.298525	7.3676e+06	-51639.1	955.819	-29751.9	0.000000	0.000000	6.298831	0.052748	NaN	0.000000	0.001634	0.001625	28.0781	0.078683	0.001960	40.138	-98.0706	-167.244	-0.010398	0.297211	-0.726917	-0.728231	0.052748	40.138	-0.727903	-4.701317E+9	-1.121987E-11	NaN
260	1.000000	0.306545	7.3676e+06	-51639.1	955.817	-29751.9	0.000000	0.000000	6.306851	0.081697	NaN	0.000000	0.001589	0.001607	28.0782	0.040096	0.002026	19.7936	173.463	-168.774	0.085642	0.305276	-0.718898	-0.720166	0.081697	19.7936	-0.721993	-3.905307E+9	-2.091940E-11	NaN
260	1.000000	0.314543	7.3676e+06	-51639.1	955.819	-29751.9	0.000000	0.000000	6.314850	0.090408	NaN	0.000000	0.001655	0.001654	28.0785	0.076754	0.002016	38.0645	-142.437	-164.89	-0.010551	0.313302	-0.710899	-0.712140	0.090408	38.0645	-0.712681	-2.914923E+9	-3.101568E-11	NaN
260	1.000000	0.322588	7.3676e+06	-51639.1	955.819	-29751.9	0.000000	0.000000	6.322889	-0.070544	NaN	0.000000	0.001565	0.001696	28.0781	0.099373	0.001985	50.0705	-176.766	-164.956	-0.093647	0.321275	-0.702854	-0.704167	-0.070544	50.0705	-0.701797	-2.070498E+9	3.407081E-11	NaN
260	1.000000	0.330578	7.3676e+06	-51639.1	955.818	-29751.9	0.000000	0.000000	6.330881	-0.018859	NaN	0.000000	0.001578	0.001642	28.0782	0.061647	0.002041	30.2011	137.192	-166.493	-0.062671	0.329265	-0.694864	-0.696177	-0.018859	30.2011	-0.694396	-1.640528E+9	1.149576E-11	NaN
260	1.000000	0.338593	7.3676e+06	-51639.1	955.818	-29751.9	0.000000	0.000000	6.338895	-0.039858	NaN	0.000000	0.001607	0.001673	28.0789	0.077716	0.001936	40.1428	-63.7075	-164.032	0.008793	0.337251	-0.686849	-0.688191	-0.039858	40.1428	-0.686104	-1.263779E+9	3.153855E-11	NaN
260	1.000000	0.346568	7.3676e+06	-51639.1	955.819	-29751.9	0.000000	0.000000	6.346874	0.050258	NaN	0.000000	0.001567	0.001642	28.0796	0.161750	0.002027	79.793	35.9708	-166.518	0.017682	0.345295	-0.678874	-0.680148	0.050258	79.793	-0.679346	-1.021561E+9	-4.919683E-11	NaN
260	1.000000	0.354531	7.3676e+06	-51639.1	955.819	-29751.9	0.000000	0.000000	6.354835	-0.000726	NaN	0.000000	0.001541	0.001682	28.0796	0.052764	0.002128	24.7964	126.115	-164.529	0.013054	0.353292	-0.670911	-0.672150	-0.000726	24.7964	-0.670889	-7.826330E+8	9.270924E-13	NaN
260	1.000000	0.362574	7.3676e+06	-51639.1	955.818	-29751.9	0.000000	0.000000	6.362878	-0.007444	NaN	0.000000	0.001583	0.001660	28.0795	0.047615	0.001881	25.3197	48.9896	-171.489	-0.021336	0.361266	-0.662868	-0.664176	-0.007444	25.3197	-0.662647	-6.035687E+8	1.233269E-11	NaN
260	1.000000	0.370566	7.3676e+06	-51639.1	955.818	-29751.9	0.000000	0.000000	6.370872	0.064731	NaN	0.000000	0.001595	0.001656	28.08	0.140396	0.001914	73.3543	-117.808	-165.343	0.117687	0.369289	-0.654876	-0.656154	0.064731	73.3543	-0.655538	-4.823215E+8	-1.342075E-10	NaN
260	1.000000	0.378597	7.3676e+06	-51639.1	955.818	-29751.9	0.000000	0.000000	6.378896	-0.103751	NaN	0.000000	0.001601	0.001649	28.0795	0.085352	0.001983	43.0407	-41.3109	-162.982	-0.073560	0.377205	-0.646845	-0.648237	-0.103751	43.0407	-0.645037	-3.462479E+8	2.996431E-10	NaN
260	1.000000	0.386597	7.3676e+06	-51639.1	955.817	-29751.9	0.000000	0.000000	6.386900	-0.025753	NaN	0.000000	0.001561	0.001673	28.0796	0.104103	0.002017	51.616	72.4568	-171.065	-0.006503	0.385295	-0.638845	-0.640147	-0.025753	51.616	-0.638470	-2.813861E+8	9.152337E-11	NaN
260	1.000000	0.394619	7.3676e+06	-51639.1	955.819	-29751.9	0.000000	0.000000	6.394923	0.005965	NaN	0.000000	0.001563	0.001669	28.081	0.112070	0.002133	52.5486	145.565	-164.644	0.021358	0.393255	-0.630823	-0.632187	0.005965	52.5486	-0.630908	-2.215631E+8	-2.692122E-11	NaN
260	1.000000	0.402589	7.3676e+06	-51639.1	955.82	-29751.9	0.000000	0.000000	6.402892	-0.002791	NaN	0.000000	0.001571	0.001694	28.0796	0.104267	0.002024	51.5191	-60.6152	-163.917	0.064667	0.401284	-0.622853	-0.624158	-0.002791	51.5191	-0.622813	-1.715095E+8	1.627545E-11	NaN
260	1.000000	0.410614	7.3676e+06	-51639.1	955.819	-29751.9	0.000000	0.000000	6.410918	0.010255	NaN	0.000000	0.001575	0.001679	28.0799	0.038990	0.002138	18.2375	27.8879	-167.644	-0.024783	0.409306	-0.614829	-0.616136	0.010255	18.2375	-0.615250	-1.349994E+8	-7.596335E-11	NaN
260	1.000000	0.418633	7.3676e+06	-51639.1	955.819	-29751.9	0.000000	0.000000	6.418936	-0.000587	NaN	0.000000	0.001587	0.001631	28.0793	0.115894	0.001896	61.1243	-120.223	-166.628	-0.042393	0.417307	-0.606809	-0.608135	-0.000587	61.1243	-0.606802	-1.033026E+8	5.683505E-12	NaN
260	1.000000	0.426628	7.3676e+06	-51639.1	955.818	-29751.9	0.000000	0.000000	6.426932	0.011615	NaN	0.000000	0.001539	0.001677	28.0793	0.040604	0.001946	20.8677	-46.5836	-165.053	-0.004731	0.425254	-0.598814	-0.600188	0.011615	20.8677	-0.599231	-8.125961E+7	-1.429388E-10	NaN
260	1.000000	0.434603	7.3676e+06	-51639.1	955.819	-29751.9	0.000000	0.000000	6.434906	-0.002810	NaN	0.000000	0.001531	0.001678	28.0795	0.071040	0.002026	35.0713	-15.9474	-167.262	0.054936	0.433287	-0.590839	-0.592155	-0.002810	35.0713	-0.590779	-6.214552E+7	4.521643E-11	NaN
260	1.000000	0.442610	7.3676e+06	-51639.1	955.819	-29751.9	0.000000	0.000000	6.442914	-0.005968	NaN	0.000000	0.001525	0.001692	28.0792	0.036527	0.002047	17.8446	122.782	-162.846	-0.078142	0.441294	-0.582832	-0.584148	-0.005968	17.8446	-0.582581	-4.790092E+7	1.245901E-10	NaN
260	1.000000	0.450636	7.3676e+06	-51639.1	955.819	-29751.9	0.000000	0.000000	6.450940	0.026476	NaN	0.000000	0.001522	0.001653	28.0796	0.087147	0.001853	47.0344	128.888	-164.089	0.065926	0.449322	-0.574806	-0.576120	0.026476	47.0344	-0.575229	-3.791883E+7	-6.982189E-10	NaN
260	1.000000	0.458638	7.3676e+06	-51639.1	955.819	-29751.9	0.000000	0.000000	6.458945	0.102504	NaN	0.000000	0.001566	0.001669	28.0792	0.018387	0.001940	9.476554	39.3116	-163.954	0.108851	0.457299	-0.566805	-0.568143	0.102504	9.476554	-0.574917	-3.754507E+7	-2.730171E-9	NaN
260	1.000000	0.466670	7.3676e+06	-51639.1	955.818	-29751.9	0.000000	0.000000	6.466975	0.049873	NaN	0.000000	0.001582	0.001657	28.0794	0.041433	0.002036	20.348	-169.706	-170.698	0.073002	0.465332	-0.558773	-0.560110	0.049873	20.348	-0.560611	-2.381382E+7	-2.094289E-9	NaN
260	1.000000	0.474663	7.3676e+06	-51639.1	955.818	-29751.9	0.000000	0.000000	6.474966	-0.021415	NaN	0.000000	0.001602	0.001672	28.0789	0.089948	0.002119	42.4476	-121.549	-165.176	0.085981	0.473298	-0.550779	-0.552144	-0.021415	42.4476	-0.550401	-1.719913E+7	1.245105E-9	NaN
260	1.000000	0.482650	7.3676e+06	-51639.1	955.819	-29751.9	0.000000	0.000000	6.482953	-0.022893	NaN	0.000000	0.001527	0.001685	28.0778	0.062114	0.002196	28.2816	68.3611	-163.441	0.019476	0.481282	-0.542792	-0.544160	-0.022893	28.2816	-0.542185	-1.323288E+7	1.729986E-9	NaN
260	1.000000	0.490652	7.3676e+06	-51639.1	955.819	-29751.9	0.000000	0.000000	6.490956	-0.003787	NaN	0.000000	0.001554	0.001686	28.0781	0.059511	0.001980	30.0598	-42.1531	-166.355	-0.014991	0.489372	-0.534790	-0.536071	-0.003787	30.0598	-0.534696	-1.041752E+7	3.634822E-10	NaN
260	1.000000	0.498614	7.3676e+06	-51639.1	955.818	-29751.9	0.000000	0.000000	6.498919	0.033306	NaN	0.000000	0.001580	0.001668	28.0778	0.059684	0.002034	29.3405	-103.042	-168.146	0.040945	0.497349	-0.526828	-0.528093	0.033306	29.3405	-0.527680	-8.32423e+06	-4.001054E-9	NaN
260	1.000000	0.506657	7.3676e+06	-51639.1	955.817	-29751.9	0.000000	0.000000	6.506962	0.022593	NaN	0.000000	0.001539	0.001688	28.078	0.086546	0.001873	46.2192	-128.419	-167.106	0.002843	0.505311	-0.518785	-0.520131	0.022593	46.2192	-0.519152	-6.33574e+06	-3.565920E-9	NaN
260	1.000000	0.514652	7.3676e+06	-51639.1	955.819	-29751.9	0.000000	0.000000	6.514956	0.012298	NaN	0.000000	0.001547	0.001695	28.0779	0.155264	0.001971	78.7672	-150.897	-165.953	0.022357	0.513303	-0.510790	-0.512140	0.012298	78.7672	-0.510908	-4.8647e+06	-2.528065E-9	NaN
260	1.000000	0.522634	7.3676e+06	-51639.1	955.818	-29751.9	0.000000	0.000000	6.522938	0.017801	NaN	0.000000	0.001554	0.001671	28.0778	0.047066	0.001930	24.384	-129.353	-165.066	-0.026864	0.521375	-0.502808	-0.504067	0.017801	24.384	-0.503356	-3.81787e+06	-4.662598E-9	NaN
260	1.000000	0.530638	7.3676e+06	-51639.1	955.818	-29751.9	0.000000	0.000000	6.530944	0.039826	NaN	0.000000	0.001538	0.001670	28.078	0.030128	0.001991	15.1285	-25.2042	-164.573	0.041180	0.529342	-0.494804	-0.496100	0.039826	15.1285	-0.496778	-3.09071e+06	-1.288569E-8	NaN
260	1.000000	0.538668	7.3676e+06	-51639.1	955.819	-29751.9	0.000000	0.000000	6.538970	-0.038711	NaN	0.000000	0.001564	0.001680	28.0778	0.016906	0.002098	8.057202	-100.919	-167.248	-0.055406	0.537357	-0.486774	-0.488085	-0.038711	8.057202	-0.483170	-1.99479e+06	1.940589E-8	NaN
260	1.000000	0.546672	7.3676e+06	-51639.1	955.817	-29751.9	0.000000	0.000000	6.546975	-0.014227	NaN	0.000000	0.001557	0.001668	28.0782	0.142692	0.002045	69.773	145.263	-166.849	-0.024516	0.545358	-0.478770	-0.480084	-0.014227	69.773	-0.478617	-1.72254e+06	8.259304E-9	NaN
260	1.000000	0.554665	7.3676e+06	-51639.1	955.819	-29751.9	0.000000	0.000000	6.554967	-0.053496	NaN	0.000000	0.001563	0.001708	28.078	0.003667	0.001966	1.865021	1.259242	-166.21	-0.024731	0.553377	-0.470777	-0.472065	-0.053496	1.865021	-0.449264	-666766	8.023243E-8	NaN
260	1.000000	0.562671	7.3676e+06	-51639.1	955.818	-29751.9	0.000000	0.000000	6.562971	-0.090324	NaN	0.000000	0.001538	0.001712	28.0776	0.017235	0.001997	8.628523	65.377	-167.25	-0.036885	0.561387	-0.462771	-0.464055	-0.090324	8.628523	-0.454920	-800932	1.127736E-7	NaN
260	1.000000	0.570656	7.3676e+06	-51639.1	955.819	-29751.9	0.000000	0.000000	6.570962	0.056209	NaN	0.000000	0.001566	0.001652	28.078	0.124848	0.001978	63.12	14.2728	-168.41	0.039592	0.569358	-0.454786	-0.456084	0.056209	63.12	-0.455454	-814898	-6.897719E-8	NaN
260	1.000000	0.578699	7.3676e+06	-51639.1	955.818	-29751.9	0.000000	0.000000	6.579002	0.001923	NaN	0.000000	0.001584	0.001685	28.078	0.089706	0.002062	43.5116	146.572	-166.769	0.020923	0.577347	-0.446744	-0.448095	0.001923	43.5116	-0.446777	-615087	-3.126521E-9	NaN
260	1.000000	0.586662	7.3676e+06	-51639.1	955.819	-29751.9	0.000000	0.000000	6.586966	0.009596	NaN	0.000000	0.001569	0.001645	28.078	0.091160	0.001917	47.5442	-83.983	-166.693	0.081828	0.585378	-0.438780	-0.440064	0.009596	47.5442	-0.438931	-476739	-2.012853E-8	NaN
260	1.000000	0.594698	7.3676e+06	-51639.1	955.818	-29751.9	0.000000	0.000000	6.595003	0.050636	NaN	0.000000	0.001549	0.001653	28.0782	0.051201	0.002087	24.5312	-140.899	-167.303	0.030201	0.593419	-0.430744	-0.432023	0.050636	24.5312	-0.432293	-384137	-1.318171E-7	NaN
260	1.000000	0.602677	7.3676e+06	-51639.1	955.82	-29751.9	0.000000	0.000000	6.602980	-0.019731	NaN	0.000000	0.001556	0.001604	28.0782	0.054394	0.002029	26.8097	-15.6142	-164.561	0.010777	0.601374	-0.422765	-0.424068	-0.019731	26.8097	-0.422213	-276559	7.134592E-8	NaN
260	1.000000	0.610697	7.3676e+06	-51639.1	955.818	-29751.9	0.000000	0.000000	6.611002	0.017852	NaN	0.000000	0.001550	0.001666	28.0781	0.052826	0.001881	28.0808	108.787	-166.528	-0.030179	0.609354	-0.414745	-0.416089	0.017852	28.0808	-0.415222	-220091	-8.111143E-8	NaN
260	1.000000	0.618700	7.3676e+06	-51639.1	955.818	-29751.9	0.000000	0.000000	6.619000	-0.064573	NaN	0.000000	0.001566	0.001660	28.0794	0.091702	0.001996	45.9391	6.090543	-164.777	0.034052	0.617363	-0.406743	-0.408079	-0.064573	45.9391	-0.405688	-161083	4.008651E-7	NaN
260	1.000000	0.626666	7.3676e+06	-51639.1	955.818	-29751.9	0.000000	0.000000	6.626969	-0.012738	NaN	0.000000	0.001554	0.001695	28.0791	0.017824	0.001973	9.031962	2.709822	-166.059	-0.000303	0.625371	-0.398776	-0.400071	-0.012738	9.031962	-0.397719	-124007	1.027168E-7	NaN
260	1.000000	0.634679	7.3676e+06	-51639.1	955.818	-29751.9	0.000000	0.000000	6.634985	0.041325	NaN	0.000000	0.001515	0.001671	28.0793	0.053895	0.001961	27.4821	133.786	-167.239	0.048124	0.633376	-0.390763	-0.392066	0.041325	27.4821	-0.391891	-102377	-4.036520E-7	NaN
260	1.000000	0.642706	7.3676e+06	-51639.1	955.819	-29751.9	0.000000	0.000000	6.643010	0.006652	NaN	0.000000	0.001553	0.001689	28.0794	0.076483	0.001924	39.753	-26.2737	-164.229	0.034923	0.641379	-0.382736	-0.384063	0.006652	39.753	-0.382862	-76022.3	-8.750485E-8	NaN
260	1.000000	0.650687	7.3676e+06	-51639.1	955.818	-29751.9	0.000000	0.000000	6.650992	0.042681	NaN	0.000000	0.001553	0.001659	28.079	0.069933	0.001884	37.1188	-151.052	-163.234	0.052642	0.649370	-0.374755	-0.376072	0.042681	37.1188	-0.375617	-59833.7	-7.133283E-7	NaN
260	1.000000	0.658709	7.3676e+06	-51639.1	955.819	-29751.9	0.000000	0.000000	6.659011	-0.038126	NaN	0.000000	0.001538	0.001661	28.0793	0.024261	0.001941	12.5002	98.7225	-165.755	-0.032070	0.657408	-0.366733	-0.368034	-0.038126	12.5002	-0.364445	-41309.7	9.229386E-7	NaN
260	1.000000	0.666707	7.3676e+06	-51639.1	955.818	-29751.9	0.000000	0.000000	6.667010	-0.002372	NaN	0.000000	0.001568	0.001630	28.0791	0.013824	0.001942	7.118661	135.148	-165.723	-0.024937	0.665385	-0.358736	-0.360057	-0.002372	7.118661	-0.358486	-33880.5	6.999947E-8	NaN
260	1.000000	0.674714	7.3676e+06	-51639.1	955.819	-29751.9	0.000000	0.000000	6.675018	0.020010	NaN	0.000000	0.001530	0.001662	28.0792	0.032077	0.001982	16.1862	-152.365	-166.956	-0.012500	0.673423	-0.350729	-0.352020	0.020010	16.1862	-0.351656	-26979	-7.416823E-7	NaN
260	1.000000	0.682713	7.3676e+06	-51639.1	955.819	-29751.9	0.000000	0.000000	6.683017	0.011386	NaN	0.000000	0.001573	0.001687	28.0794	0.082069	0.002087	39.3325	89.2972	-167.132	-0.036856	0.681417	-0.342729	-0.344025	0.011386	39.3325	-0.342946	-20159.1	-5.647918E-7	NaN
260	1.000000	0.690727	7.3676e+06	-51639.1	955.818	-29751.9	0.000000	0.000000	6.691030	-0.017143	NaN	0.000000	0.001577	0.001653	28.0792	0.056881	0.001996	28.4978	-54.6292	-164.134	0.073793	0.689394	-0.334715	-0.336048	-0.017143	28.4978	-0.334264	-15060.4	1.138302E-6	NaN
260	1.000000	0.698713	7.3676e+06	-51639.1	955.817	-29751.9	0.000000	0.000000	6.699018	0.030729	NaN	0.000000	0.001546	0.001626	28.0796	0.012228	0.002021	6.048849	-142.926	-170.22	0.018651	0.697402	-0.326729	-0.328040	0.030729	6.048849	-0.330540	-13284.7	-2.313118E-6	NaN
260	1.000000	0.706720	7.3676e+06	-51639.1	955.819	-29751.9	0.000000	0.000000	6.707022	-0.041474	NaN	0.000000	0.001556	0.001692	28.079	0.064747	0.001974	32.797	110.76	-166.546	-0.002161	0.705386	-0.318722	-0.320057	-0.041474	32.797	-0.317774	-8626.85	4.807576E-6	NaN
260	1.000000	0.714747	7.3676e+06	-51639.1	955.819	-29751.9	0.000000	0.000000	6.715048	-0.041383	NaN	0.000000	0.001566	0.001712	28.0792	0.065198	0.002125	30.6842	-84.5647	-167.064	-0.125591	0.713420	-0.310696	-0.312022	-0.041383	30.6842	-0.309684	-6552.11	6.316040E-6	NaN
260	1.000000	0.722717	7.3676e+06	-51639.1	955.818	-29751.9	0.000000	0.000000	6.723023	0.063454	NaN	0.000000	0.001558	0.001656	28.0794	0.121595	0.001789	67.9648	-12.5692	-167.587	0.026353	0.721379	-0.302726	-0.304063	0.063454	67.9648	-0.303426	-5291.51	-1.199160E-5	NaN
260	1.000000	0.730713	7.3676e+06	-51639.1	955.818	-29751.9	0.000000	0.000000	6.731019	0.053856	NaN	0.000000	0.001578	0.001665	28.0791	0.036318	0.001897	19.1488	-95.6566	-166.568	-0.023834	0.729385	-0.294729	-0.296057	0.053856	19.1488	-0.296839	-4222.11	-1.275577E-5	NaN
260	1.000000	0.738745	7.3676e+06	-51639.1	955.819	-29751.9	0.000000	0.000000	6.739048	-0.007053	NaN	0.000000	0.001581	0.001672	28.0795	0.064439	0.002118	30.4304	-158.055	-165.986	-0.007730	0.737411	-0.286698	-0.288031	-0.007053	30.4304	-0.286524	-2959.11	2.383376E-6	NaN
260	1.000000	0.746760	7.3676e+06	-51639.1	955.818	-29751.9	0.000000	0.000000	6.747063	0.009400	NaN	0.000000	0.001569	0.001657	28.0793	0.068305	0.001905	35.8529	32.5455	-166.647	-0.055578	0.745446	-0.278683	-0.279996	0.009400	35.8529	-0.278879	-2270.16	-4.140826E-6	NaN
260	1.000000	0.754749	7.3676e+06	-51639.1	955.819	-29751.9	0.000000	0.000000	6.755051	-0.038227	NaN	0.000000	0.001580	0.001631	28.0781	0.038556	0.001988	19.3961	137.454	-168.147	0.010518	0.753440	-0.270693	-0.272002	-0.038227	19.3961	-0.269215	-1620.37	2.359139E-5	NaN
260	1.000000	0.762744	7.3676e+06	-51639.1	955.819	-29751.9	0.000000	0.000000	6.763049	0.026584	NaN	0.000000	0.001600	0.001631	28.0779	0.041797	0.002038	20.5066	69.0296	-165.483	-0.090054	0.761456	-0.262698	-0.263986	0.026584	20.5066	-0.263670	-1333.77	-1.993138E-5	NaN
260	1.000000	0.770731	7.3676e+06	-51639.1	955.819	-29751.9	0.000000	0.000000	6.771036	0.032724	NaN	0.000000	0.001583	0.001666	28.0778	0.112140	0.002072	54.1307	-130.579	-169.964	0.083240	0.769453	-0.254711	-0.255989	0.032724	54.1307	-0.255165	-987.756	-3.312988E-5	NaN
260	1.000000	0.778746	7.3676e+06	-51639.1	955.819	-29751.9	0.000000	0.000000	6.779049	0.002880	NaN	0.000000	0.001581	0.001659	28.0781	0.042247	0.001971	21.4373	178.743	-166.306	0.032304	0.777450	-0.246696	-0.247993	0.002880	21.4373	-0.246797	-733.426	-3.927141E-6	NaN
260	1.000000	0.786770	7.3676e+06	-51639.1	955.818	-29751.9	0.000000	0.000000	6.787072	-0.036529	NaN	0.000000	0.001560	0.001638	28.0777	0.026234	0.002011	13.0436	173.321	-164.822	0.045775	0.785455	-0.238672	-0.239987	-0.036529	13.0436	-0.236572	-508.058	7.189974E-5	NaN
260	1.000000	0.794750	7.3676e+06	-51639.1	955.818	-29751.9	0.000000	0.000000	6.795053	-0.009009	NaN	0.000000	0.001656	0.001641	28.0782	0.070543	0.002038	34.621	-117.023	-165.593	-0.055759	0.793440	-0.230692	-0.232002	-0.009009	34.621	-0.230497	-407.721	2.209685E-5	NaN
260	1.000000	0.802775	7.3676e+06	-51639.1	955.819	-29751.9	0.000000	0.000000	6.803077	-0.038787	NaN	0.000000	0.001630	0.001607	28.0779	0.055086	0.001908	28.875	-82.3717	-165.18	0.003370	0.801426	-0.222667	-0.224016	-0.038787	28.875	-0.221660	-295.241	0.000131	NaN
260	1.000000	0.810765	7.3676e+06	-51639.1	955.819	-29751.9	0.000000	0.000000	6.811067	-0.025280	NaN	0.000000	0.001590	0.001634	28.0778	0.066905	0.002021	33.1029	-62.5456	-167.404	-0.049213	0.809469	-0.214678	-0.215974	-0.025280	33.1029	-0.214105	-223.412	0.000113	NaN
260	1.000000	0.818806	7.3676e+06	-51639.1	955.82	-29751.9	0.000000	0.000000	6.819109	-0.022306	NaN	0.000000	0.001580	0.001629	28.0779	0.150336	0.001936	77.6537	132.139	-165.002	-0.045025	0.817437	-0.206636	-0.208005	-0.022306	77.6537	-0.206421	-167.768	0.000133	NaN
260	1.000000	0.826776	7.3676e+06	-51639.1	955.818	-29751.9	0.000000	0.000000	6.827082	0.040890	NaN	0.000000	0.001579	0.001625	28.0778	0.110993	0.002059	53.9169	111.995	-165.989	0.002449	0.825430	-0.198666	-0.200012	0.040890	53.9169	-0.199235	-127.971	-0.000320	NaN
260	1.000000	0.834785	7.3676e+06	-51639.1	955.818	-29751.9	0.000000	0.000000	6.835087	-0.034664	NaN	0.000000	0.001587	0.001625	28.0782	0.134087	0.002020	66.3774	-64.1067	-168.092	0.041346	0.833488	-0.190657	-0.191954	-0.034664	66.3774	-0.190265	-90.8775	0.000381	NaN
260	1.000000	0.842769	7.3676e+06	-51639.1	955.819	-29751.9	0.000000	0.000000	6.843071	-0.037488	NaN	0.000000	0.001568	0.001620	28.0779	0.138066	0.001941	71.1446	117.391	-167.014	0.003730	0.841470	-0.182673	-0.183972	-0.037488	71.1446	-0.182278	-66.7018	0.000562	NaN
260	1.000000	0.850789	7.3676e+06	-51639.1	955.818	-29751.9	0.000000	0.000000	6.851092	0.006564	NaN	0.000000	0.001527	0.001632	28.078	0.135293	0.001948	69.4511	153.366	-163.364	0.044639	0.849485	-0.174654	-0.175957	0.006564	69.4511	-0.174724	-49.5729	-0.000132	NaN
260	1.000000	0.858749	7.3676e+06	-51639.1	955.818	-29751.9	0.000000	0.000000	6.859055	0.036542	NaN	0.000000	0.001616	0.001630	28.0777	0.028373	0.001893	14.9874	69.4888	-165.406	0.007548	0.857505	-0.166693	-0.167938	0.036542	14.9874	-0.168521	-38.7164	-0.000944	NaN
260	1.000000	0.866787	7.3676e+06	-51639.1	955.819	-29751.9	0.000000	0.000000	6.867090	0.006935	NaN	0.000000	0.001574	0.001618	28.0779	0.054718	0.001984	27.5812	-152.727	-163.87	0.013811	0.865511	-0.158656	-0.159931	0.006935	27.5812	-0.158844	-26.1467	-0.000265	NaN
260	1.000000	0.874807	7.3676e+06	-51639.1	955.819	-29751.9	0.000000	0.000000	6.875112	0.019211	NaN	0.000000	0.001523	0.001559	28.0779	0.074842	0.002018	37.0779	-43.7223	-167.98	0.025828	0.873485	-0.150635	-0.151957	0.019211	37.0779	-0.151024	-18.908	-0.001016	NaN
260	1.000000	0.882790	7.3676e+06	-51639.1	955.819	-29751.9	0.000000	0.000000	6.883095	0.031568	NaN	0.000000	0.001573	0.001589	28.078	0.085481	0.001968	43.4273	-147.24	-163.893	0.003680	0.881464	-0.142653	-0.143978	0.031568	43.4273	-0.143198	-13.5749	-0.002325	NaN
260	1.000000	0.890792	7.3676e+06	-51639.1	955.819	-29751.9	0.000000	0.000000	6.891093	-0.074629	NaN	0.000000	0.001561	0.001587	28.0794	0.034668	0.002078	16.6809	29.8942	-167.316	-0.043214	0.889529	-0.134650	-0.135913	-0.074629	16.6809	-0.131294	-8.074116	0.009243	NaN
260	1.000000	0.898799	7.3676e+06	-51639.1	955.819	-29751.9	0.000000	0.000000	6.899105	0.064646	NaN	0.000000	0.001563	0.001587	28.0791	0.054905	0.001931	28.4326	-48.8239	-163.868	0.072099	0.897496	-0.126643	-0.127946	0.064646	28.4326	-0.128348	-7.076713	-0.009135	NaN
260	1.000000	0.906793	7.3676e+06	-51639.1	955.819	-29751.9	0.000000	0.000000	6.907099	0.051666	NaN	0.000000	0.001568	0.001559	28.0792	0.050131	0.002009	24.9567	51.2378	-164.619	0.093425	0.905503	-0.118649	-0.119939	0.051666	24.9567	-0.120202	-4.876976	-0.010594	NaN
260	1.000000	0.914808	7.3676e+06	-51639.1	955.818	-29751.9	0.000000	0.000000	6.915111	-0.009617	NaN	0.000000	0.001520	0.001598	28.079	0.030130	0.002181	13.8121	52.3682	-165.172	0.021487	0.913550	-0.110634	-0.111892	-0.009617	13.8121	-0.110112	-3.021564	0.003183	NaN
260	1.000000	0.922811	7.3676e+06	-51639.1	955.819	-29751.9	0.000000	0.000000	6.923114	-0.020052	NaN	0.000000	0.001545	0.001611	28.0792	0.063165	0.001801	35.0716	110.359	-165.139	0.012439	0.921423	-0.102631	-0.104019	-0.020052	35.0716	-0.102202	-2.043185	0.009814	NaN
260	1.000000	0.930839	7.3676e+06	-51639.1	955.819	-29751.9	0.000000	0.000000	6.931143	0.019038	NaN	0.000000	0.001582	0.001611	28.0794	0.114981	0.002015	57.0539	75.0656	-165.386	0.109217	0.929516	-0.094603	-0.095926	0.019038	57.0539	-0.094854	-1.399832	-0.013600	NaN
260	1.000000	0.938826	7.3676e+06	-51639.1	955.819	-29751.9	0.000000	0.000000	6.939130	0.011764	NaN	0.000000	0.001589	0.001577	28.0791	0.031098	0.001918	16.2175	42.0395	-163.543	-0.032033	0.937537	-0.086616	-0.087905	0.011764	16.2175	-0.087160	-0.925997	-0.012704	NaN
260	1.000000	0.946814	7.3676e+06	-51639.1	955.819	-29751.9	0.000000	0.000000	6.947115	-0.048749	NaN	0.000000	0.001592	0.001613	28.0796	0.072229	0.001954	36.9605	-32.2698	-165.453	-0.024385	0.945489	-0.078628	-0.079953	-0.048749	36.9605	-0.077639	-0.539732	0.090321	NaN
260	1.000000	0.954808	7.3676e+06	-51639.1	955.819	-29751.9	0.000000	0.000000	6.955112	0.012086	NaN	0.000000	0.001622	0.001576	28.0792	0.008088	0.001969	4.106696	-158.309	-164.418	-0.014772	0.953483	-0.070634	-0.071959	0.012086	4.106696	-0.072841	-0.405746	-0.029788	NaN
260	1.000000	0.962828	7.3676e+06	-51639.1	955.819	-29751.9	0.000000	0.000000	6.963128	-0.085977	NaN	0.000000	0.001600	0.001592	28.0791	0.082282	0.002183	37.6842	-140.358	-162.26	-0.146402	0.961519	-0.062614	-0.063924	-0.085977	37.6842	-0.060903	-0.191130	0.449833	NaN
260	1.000000	0.970808	7.3676e+06	-51639.1	955.819	-29751.9	0.000000	0.000000	6.971111	-0.026852	NaN	0.000000	0.001619	0.001572	28.0794	0.117384	0.001926	60.9452	49.0259	-164.555	-0.064085	0.969497	-0.054634	-0.055945	-0.026852	60.9452	-0.054303	-0.122803	0.218660	NaN
260	1.000000	0.978835	7.3676e+06	-51639.1	955.818	-29751.9	0.000000	0.000000	6.979137	-0.033761	NaN	0.000000	0.001638	0.001566	28.079	0.042621	0.001951	21.85	15.8789	-167.809	-0.000526	0.977546	-0.046607	-0.047896	-0.033761	21.85	-0.045448	-0.066328	0.508994	NaN
260	1.000000	0.986862	7.3676e+06	-51639.1	955.819	-29751.9	0.000000	0.000000	6.987164	-0.041364	NaN	0.000000	0.001659	0.001548	28.0794	0.061156	0.002146	28.4977	-75.3304	-166.602	-0.069318	0.985543	-0.038580	-0.039899	-0.041364	28.4977	-0.037491	-0.037982	1.089042	NaN
260	1.000000	0.994865	7.3676e+06	-51639.1	955.819	-29751.9	0.000000	0.000000	6.995166	-0.061625	NaN	0.000000	0.001656	0.001574	28.0792	0.089958	0.002072	43.419	-149.897	-164.478	-0.003446	0.993546	-0.030578	-0.031896	-0.061625	43.419	-0.029513	-0.022307	2.762562	NaN
260	1.000000	1.002871	7.3676e+06	-51639.1	955.818	-29751.9	0.000000	0.000000	7.003177	0.066866	NaN	0.000000	0.001696	0.001553	28.079	0.055861	0.002078	26.8834	12.9322	-168.608	0.031827	1.001514	-0.022572	-0.023928	0.066866	26.8834	-0.024437	-0.016310	-4.099628	NaN
260	1.000000	1.010835	7.3676e+06	-51639.1	955.817	-29751.9	0.000000	0.000000	7.011136	-0.055575	NaN	0.000000	0.001665	0.001527	28.0792	0.025042	0.002069	12.1009	162.188	-166.494	-0.058038	1.009506	-0.014607	-0.015936	-0.055575	12.1009	-0.011163	-0.007051	7.881944	NaN
260	1.000000	1.018893	7.3676e+06	-51639.1	955.818	-29751.9	0.000000	0.000000	7.019195	-0.040830	NaN	0.000000	0.001666	0.001538	28.079	0.066032	0.002044	32.2994	84.8603	-169.698	-0.000537	1.017569	-0.006549	-0.007873	-0.040830	32.2994	-0.005601	-0.003791	10.7701	NaN
260	1.000000	1.026842	7.3676e+06	-51639.1	955.817	-29751.9	0.000000	0.000000	7.027179	0.815112	NaN	0.000000	0.001636	0.001565	28.0781	1.211311	0.001924	629.554	7.970455	-165.762	0.267140	1.025548	0.001400	0.000106	0.815112	629.554	0.000429	0.000323	2524.14	32007.7
260	2.000000	1.034276	7.3676e+06	-51639.1	955.818	-29751.9	0.000000	0.000000	7.034980	9.746427	NaN	0.000000	0.001629	0.001572	28.0778	6.198810	0.001685	3678.95	8.118043	-170.858	8.729893	1.033448	0.008834	0.008006	9.746427	3678.95	0.006847	0.005883	1656.72	43822.7
260	2.000000	1.036460	7.3676e+06	-51639.1	955.818	-29751.9	0.000000	0.000000	7.037280	12.5678	NaN	0.000000	0.001582	0.001585	28.0776	8.108444	0.001740	4660.43	4.742957	-170.823	12.1221	1.036135	0.011017	0.010693	12.5678	4660.43	0.008995	0.008086	1554.34	47352.4
260	2.000000	1.038438	7.3676e+06	-51639.1	955.817	-29751.9	0.000000	0.000000	7.039396	15.9272	NaN	0.000000	0.001593	0.001588	28.0778	9.830929	0.001750	5617.74	7.478343	-174.401	15.8582	1.038122	0.012996	0.012680	15.9272	5617.74	0.010869	0.010164	1567.06	50910.5
260	2.000000	1.040357	7.3676e+06	-51639.1	955.817	-29751.9	0.000000	0.000000	7.041471	19.704	NaN	0.000000	0.001606	0.001576	28.0778	12.2865	0.001945	6315.81	6.205244	-172.559	18.6676	1.040087	0.014915	0.014645	19.704	6315.81	0.012575	0.012186	1616.89	52271.5
260	2.000000	1.042438	7.3676e+06	-51639.1	955.818	-29751.9	0.000000	0.000000	7.043624	21.442	NaN	0.000000	0.001557	0.001540	28.0782	14.3396	0.001844	7775.82	9.735999	-178.15	21.9463	1.042061	0.016996	0.016619	21.442	7775.82	0.014928	0.015189	1411.65	57643.5
260	2.000000	1.044371	7.3676e+06	-51639.1	955.819	-29751.9	0.000000	0.000000	7.045745	26.0331	NaN	0.000000	0.001487	0.001601	28.0777	15.3073	0.001848	8284.26	5.831523	-173.867	25.5772	1.044045	0.018929	0.018603	26.0331	8284.26	0.016572	0.017439	1492.83	57315.1
260	2.000000	1.046386	7.3676e+06	-51639.1	955.817	-29751.9	0.000000	0.000000	7.047843	28.0509	NaN	0.000000	0.001525	0.001561	28.0779	17.4419	0.001888	9238.22	5.540469	-176.464	27.275	1.046116	0.020944	0.020674	28.0509	9238.22	0.018667	0.020490	1369	58964.3
260	2.000000	1.048372	7.3676e+06	-51639.1	955.818	-29751.9	0.000000	0.000000	7.050039	33.1659	NaN	0.000000	0.001498	0.001602	28.0778	18.6779	0.001843	10134.4	6.721224	-177.417	33.3656	1.048070	0.022929	0.022628	33.1659	10134.4	0.020475	0.023294	1423.78	60666
260	2.000000	1.050376	7.3676e+06	-51639.1	955.817	-29751.9	0.000000	0.000000	7.052182	36.5311	NaN	0.000000	0.001484	0.001574	28.0778	20.8089	0.001748	11903.8	5.922957	-179.635	36.6806	1.050065	0.024934	0.024622	36.5311	11903.8	0.022633	0.026849	1360.61	66373.7
260	2.000000	1.052418	7.3676e+06	-51639.1	955.817	-29751.9	0.000000	0.000000	7.054479	42.7285	NaN	0.000000	0.001588	0.001601	28.0783	22.3568	0.001697	13178	6.860560	-179.055	42.9797	1.052068	0.026976	0.026626	42.7285	13178	0.024544	0.030192	1415.23	69291.1
260	2.000000	1.054310	7.3676e+06	-51639.1	955.818	-29751.9	0.000000	0.000000	7.056515	46.2147	NaN	0.000000	0.001587	0.001565	28.0779	23.9855	0.001850	12965.4	2.222972	-174.103	44.912	1.054063	0.028868	0.028621	46.2147	12965.4	0.026195	0.033225	1390.94	64986.5
260	2.000000	1.056357	7.3676e+06	-51639.1	955.817	-29751.9	0.000000	0.000000	7.058884	54.0631	NaN	0.000000	0.001599	0.001546	28.078	26.5354	0.001910	13895.4	5.803961	-177.886	54.0785	1.056014	0.030915	0.030572	54.0631	13895.4	0.027997	0.036694	1473.36	66274.6
260	2.000000	1.058252	7.3676e+06	-51639.1	955.817	-29751.9	0.000000	0.000000	7.060912	57.296	NaN	0.000000	0.001590	0.001588	28.0786	27.6814	0.001744	15870.4	6.162147	178.566	53.8601	1.058004	0.032809	0.032562	57.296	15870.4	0.030102	0.040955	1399	71648.8
260	2.000000	1.060340	7.3676e+06	-51639.1	955.817	-29751.9	0.000000	0.000000	7.063259	63.6058	NaN	0.000000	0.001598	0.001584	28.0778	30.1153	0.001814	16600.5	5.550974	179.635	63.2362	1.060015	0.034897	0.034573	63.6058	16600.5	0.032024	0.045043	1412.12	71463.1
260	2.000000	1.062368	7.3676e+06	-51639.1	955.817	-29751.9	0.000000	0.000000	7.065533	69.5818	NaN	0.000000	0.001611	0.001592	28.078	32.1208	0.001802	17828.2	7.885629	177.045	70.8212	1.062034	0.036926	0.036591	69.5818	17828.2	0.033999	0.049441	1407.38	73255.1
260	2.000000	1.064315	7.3676e+06	-51639.1	955.818	-29751.9	0.000000	0.000000	7.067683	74.5084	NaN	0.000000	0.001613	0.001576	28.078	33.4446	0.001677	19937.3	3.435678	178.867	73.1359	1.063962	0.038873	0.038519	74.5084	19937.3	0.036070	0.054268	1372.98	78193
260	2.000000	1.066401	7.3676e+06	-51639.1	955.818	-29751.9	0.000000	0.000000	7.069767	74.4479	NaN	0.000000	0.001636	0.001581	28.0794	35.6171	0.001769	20128.6	5.228087	177.954	78.6556	1.066107	0.040959	0.040665	74.4479	20128.6	0.038185	0.059423	1252.86	75441.6
260	2.000000	1.068279	7.3676e+06	-51639.1	955.818	-29751.9	0.000000	0.000000	7.072184	87.5807	NaN	0.000000	0.001605	0.001594	28.0799	36.8737	0.001787	20629.6	10.9182	172.535	84.9627	1.068011	0.042836	0.042568	87.5807	20629.6	0.039652	0.063133	1387.24	75012.7
260	2.000000	1.070261	7.3676e+06	-51639.1	955.819	-29751.9	0.000000	0.000000	7.074467	94.8831	NaN	0.000000	0.001585	0.001576	28.0792	39.1007	0.001761	22205.6	7.585304	174.015	93.0455	1.069955	0.044819	0.044513	94.8831	22205.6	0.041614	0.068267	1389.89	77648.3
260	2.000000	1.072356	7.3676e+06	-51639.1	955.82	-29751.9	0.000000	0.000000	7.076817	101.086	NaN	0.000000	0.001571	0.001563	28.0793	40.8963	0.001804	22668.1	4.933202	178.366	100.303	1.072014	0.046914	0.046572	101.086	22668.1	0.043569	0.073578	1373.87	76351.3
260	2.000000	1.074265	7.3676e+06	-51639.1	955.819	-29751.9	0.000000	0.000000	7.079081	109.714	NaN	0.000000	0.001562	0.001583	28.0797	43.1701	0.001924	22443.1	5.252306	176.687	107.717	1.074002	0.048823	0.048559	109.714	22443.1	0.045157	0.078032	1406	73403.7
260	2.000000	1.076373	7.3676e+06	-51639.1	955.82	-29751.9	0.000000	0.000000	7.081438	115.779	NaN	0.000000	0.001585	0.001632	28.0792	45.8505	0.001807	25369.3	8.112112	173.029	118.414	1.076014	0.050931	0.050572	115.779	25369.3	0.047508	0.084867	1364.25	79563.5
260	2.000000	1.078284	7.3676e+06	-51639.1	955.82	-29751.9	0.000000	0.000000	7.083814	127.087	NaN	0.000000	0.001564	0.001617	28.0793	45.7282	0.001727	26482.5	3.875251	176.545	124.656	1.077913	0.052842	0.052471	127.087	26482.5	0.049243	0.090086	1410.72	80612.5
260	2.000000	1.080294	7.3676e+06	-51639.1	955.819	-29751.9	0.000000	0.000000	7.086226	136.876	NaN	0.000000	0.001579	0.001607	28.0793	49.176	0.001731	28405.9	7.162594	172.807	136.62	1.079934	0.054852	0.054492	136.876	28405.9	0.051238	0.096277	1421.69	83641.2
260	2.000000	1.082392	7.3676e+06	-51639.1	955.819	-29751.9	0.000000	0.000000	7.088678	145.479	NaN	0.000000	0.001578	0.001629	28.0796	50.8464	0.001836	27691.9	8.751637	173.253	147.871	1.081961	0.056950	0.056518	145.479	27691.9	0.053010	0.101942	1427.08	79241
260	2.000000	1.084270	7.3676e+06	-51639.1	955.82	-29751.9	0.000000	0.000000	7.090751	150.193	NaN	0.000000	0.001610	0.001606	28.0792	51.9543	0.001832	28356.3	4.929373	174.905	149.138	1.084027	0.058828	0.058585	150.193	28356.3	0.054856	0.108011	1390.54	78829.4
260	2.000000	1.086318	7.3676e+06	-51639.1	955.819	-29751.9	0.000000	0.000000	7.093311	162.658	NaN	0.000000	0.001596	0.001623	28.0792	54.6525	0.001834	29794	5.351936	173.739	162.122	1.085938	0.060876	0.060496	162.658	29794	0.056781	0.114520	1420.34	80438
260	2.000000	1.088334	7.3676e+06	-51639.1	955.82	-29751.9	0.000000	0.000000	7.095681	171.256	NaN	0.000000	0.001624	0.001608	28.079	55.8937	0.001771	31560.4	8.278957	170.719	172.035	1.087956	0.062892	0.062514	171.256	31560.4	0.058822	0.121619	1408.13	82682.6
260	2.000000	1.090331	7.3676e+06	-51639.1	955.819	-29751.9	0.000000	0.000000	7.098073	180.861	NaN	0.000000	0.001585	0.001621	28.0795	58.171	0.001743	33378.6	3.118570	175.89	182.376	1.089950	0.064889	0.064508	180.861	33378.6	0.060825	0.128785	1404.37	84978.6
260	2.000000	1.092287	7.3676e+06	-51639.1	955.818	-29751.9	0.000000	0.000000	7.100423	190.448	NaN	0.000000	0.001539	0.001603	28.0794	61.0315	0.001811	33700	7.085930	172.105	188.829	1.091925	0.066845	0.066482	190.448	33700	0.062607	0.135321	1407.38	83698.9
260	2.000000	1.094354	7.3676e+06	-51639.1	955.819	-29751.9	0.000000	0.000000	7.102751	196.818	NaN	0.000000	0.001556	0.001620	28.0793	62.4127	0.001654	37727.8	7.023286	170.574	200.029	1.094005	0.068911	0.068563	196.818	37727.8	0.064999	0.144341	1363.56	90727.6
260	2.000000	1.096267	7.3676e+06	-51639.1	955.819	-29751.9	0.000000	0.000000	7.104897	202.484	NaN	0.000000	0.001573	0.001611	28.0792	65.8469	0.001901	34639.3	3.360809	175.337	199.073	1.096078	0.070825	0.070636	202.484	34639.3	0.066440	0.149910	1350.7	81738.5
260	2.000000	1.098226	7.3676e+06	-51639.1	955.819	-29751.9	0.000000	0.000000	7.107380	215.207	NaN	0.000000	0.001548	0.001618	28.0792	66.275	0.001744	38004.9	5.048747	173.047	211.518	1.097932	0.072784	0.072489	215.207	38004.9	0.068537	0.158187	1360.46	87302.7
260	2.000000	1.100271	7.3676e+06	-51639.1	955.819	-29751.9	0.000000	0.000000	7.109656	220.831	NaN	0.000000	0.001567	0.001571	28.0777	68.7073	0.001791	38368.5	2.747064	174.232	218.768	1.100065	0.074829	0.074623	220.831	38368.5	0.070512	0.166178	1328.88	85992.8
260	2.000000	1.102260	7.3676e+06	-51639.1	955.82	-29751.9	0.000000	0.000000	7.112370	238.459	NaN	0.000000	0.001569	0.001588	28.0781	69.4362	0.001770	39219.8	-1.054535	178.383	236.7	1.101936	0.076818	0.076494	238.459	39219.8	0.072258	0.173394	1375.25	86052.1
260	2.000000	1.104315	7.3676e+06	-51639.1	955.819	-29751.9	0.000000	0.000000	7.114934	250.823	NaN	0.000000	0.001605	0.001549	28.0783	72.6257	0.001857	39108.8	6.171703	170.84	249.549	1.104037	0.078873	0.078595	250.823	39108.8	0.074063	0.181006	1385.72	83985.1
260	2.000000	1.106265	7.3676e+06	-51639.1	955.82	-29751.9	0.000000	0.000000	7.117172	257.838	NaN	0.000000	0.001577	0.001557	28.078	74.0533	0.001945	38073.6	6.034432	171.477	256.437	1.106056	0.080822	0.080613	257.838	38073.6	0.075743	0.188233	1369.78	80176.9
260	2.000000	1.108221	7.3676e+06	-51639.1	955.819	-29751.9	0.000000	0.000000	7.119835	275.018	NaN	0.000000	0.001546	0.001533	28.078	73.4415	0.001739	42228.4	3.917381	173.125	271.269	1.107952	0.082779	0.082509	275.018	42228.4	0.077895	0.197677	1391.25	86775.9
260	2.000000	1.110193	7.3676e+06	-51639.1	955.82	-29751.9	0.000000	0.000000	7.122314	287.357	NaN	0.000000	0.001571	0.001566	28.0782	76.5076	0.001799	42538.5	3.186978	173.956	283.403	1.109899	0.084750	0.084457	287.357	42538.5	0.079684	0.205697	1396.99	85692.3
260	2.000000	1.112290	7.3676e+06	-51639.1	955.82	-29751.9	0.000000	0.000000	7.124965	300.822	NaN	0.000000	0.001596	0.001585	28.0785	79.2959	0.001882	42133.4	8.156972	169.62	300.056	1.111971	0.086848	0.086528	300.822	42133.4	0.081493	0.213956	1406	83222
260	2.000000	1.114334	7.3676e+06	-51639.1	955.82	-29751.9	0.000000	0.000000	7.127384	309.942	NaN	0.000000	0.001613	0.001619	28.0783	80.5656	0.001810	44506.9	5.414537	171.21	313.758	1.113946	0.088891	0.088504	309.942	44506.9	0.083669	0.224091	1383.11	85899.1
260	2.000000	1.116288	7.3676e+06	-51639.1	955.82	-29751.9	0.000000	0.000000	7.130069	327.721	NaN	0.000000	0.001622	0.001629	28.0781	81.6375	0.001771	46091.5	-0.057098	176.34	328.384	1.116028	0.090845	0.090586	327.721	46091.5	0.085513	0.232854	1407.41	87267.4
260	2.000000	1.118264	7.3676e+06	-51639.1	955.82	-29751.9	0.000000	0.000000	7.132704	343.752	NaN	0.000000	0.001574	0.001540	28.0781	83.571	0.001777	47040.1	7.556695	169.076	344.498	1.117883	0.092822	0.092441	343.752	47040.1	0.087341	0.241695	1422.26	87419.3
260	2.000000	1.120337	7.3676e+06	-51639.1	955.819	-29751.9	0.000000	0.000000	7.135163	353.126	NaN	0.000000	0.001576	0.001570	28.0782	85.5077	0.001828	46774.4	6.371714	170.535	355.652	1.119912	0.094895	0.094470	353.126	46774.4	0.089233	0.251006	1406.84	85298.2
260	2.000000	1.122238	7.3676e+06	-51639.1	955.82	-29751.9	0.000000	0.000000	7.137820	371.527	NaN	0.000000	0.001556	0.001571	28.0783	87.1807	0.001797	48519.4	7.930347	168.635	368.703	1.121874	0.096795	0.096432	371.527	48519.4	0.091053	0.260118	1428.3	86916.7
260	2.000000	1.124160	7.3676e+06	-51639.1	955.82	-29751.9	0.000000	0.000000	7.140062	379.29	NaN	0.000000	0.001580	0.001587	28.0783	87.9177	0.001830	48055	2.935967	173.344	372.944	1.123924	0.098718	0.098482	379.29	48055	0.092799	0.269003	1409.98	84651.2
260	2.000000	1.126214	7.3676e+06	-51639.1	955.819	-29751.9	0.000000	0.000000	7.142673	392.843	NaN	0.000000	0.001597	0.001531	28.0783	90.1623	0.001618	55714.2	6.919612	167.895	389.414	1.125964	0.100772	0.100522	392.843	55714.2	0.095484	0.282938	1388.44	95695.9
260	2.000000	1.128167	7.3676e+06	-51639.1	955.82	-29751.9	0.000000	0.000000	7.145345	410.324	NaN	0.000000	0.001580	0.001529	28.0781	90.0917	0.001753	51388.8	0.793353	174.871	405.226	1.127931	0.102725	0.102489	410.324	51388.8	0.096736	0.289552	1417.1	87252.6
260	2.000000	1.130345	7.3676e+06	-51639.1	955.82	-29751.9	0.000000	0.000000	7.148094	424.195	NaN	0.000000	0.001592	0.001512	28.0782	95.5142	0.001685	56669.9	7.536780	167.414	429.498	1.129909	0.104903	0.104467	424.195	56669.9	0.099289	0.303250	1398.83	94021
260	2.000000	1.132254	7.3676e+06	-51639.1	955.819	-29751.9	0.000000	0.000000	7.150886	445.685	NaN	0.000000	0.001594	0.001575	28.0781	96.5706	0.001771	54525	1.531810	174.05	443.413	1.131997	0.106812	0.106555	445.685	54525	0.100681	0.310847	1433.78	89350.2
260	2.000000	1.132763	7.3676e+06	-51639.1	955.82	-29751.9	0.000000	0.000000	7.151451	447.039	NaN	0.000000	0.001590	0.001556	28.0781	97.8721	0.001786	54807.5	2.041007	-6.615511	446.261	1.132378	0.107321	0.106936	447.039	54807.5	0.101203	0.313719	1424.97	89401.2