File: remote_trans/data/nanoindenter/0828-1/data/Data_2025-08-06,11h17m57s/2025-07-22_16-23-58_1_292.txt
2025-07-22, 16:23:58, 1
Index	Phase	Displacement	Time	Pos X	Pos Y	Pos Z	Rot A	Rot B	Piezo Z	Force A	Force B	Gripper	Voltage A	Voltage B	Temperature	Amplitude force	Amplitude pos	Stiffness	Phase shift	Phase excitation	Force A raw	Displacement raw	HMax	HMax raw	Real Force	Real Stiffness	Contact Depth	Area	Hardness	Reduced Mod.
[#]	[#]	[um]	[s]	[um]	[um]	[um]	[m°]	[m°]	[um]	[uN]	[uN]	[V]	[V]	[V]	[°C]	[uN]	[um]	[N/m]	[°]	[°]	[uN]	[um]	[um]	[um]	[uN]	[N/m]	[um]	[um^2]	[MPa]	[MPa]
292	1.000000	0.002849	7.36791e+06	-53239.1	955.818	-29747.2	0.000000	0.000000	6.002806	-0.005930	NaN	0.000000	0.001623	0.001684	28.0808	0.043919	0.000963	45.5872	-94.2792	-165.481	-0.001598	0.001613	-1.017763	-1.018999	-0.005930	45.5872	-1.017666	-3.922352E+13	1.511942E-16	NaN
292	1.000000	0.010826	7.36791e+06	-53239.1	955.82	-29747.2	0.000000	0.000000	6.010784	-0.007955	NaN	0.000000	0.001642	0.001680	28.0809	0.119396	0.000911	131.038	46.0369	-167.842	-0.003565	0.009461	-1.009786	-1.011151	-0.007955	131.038	-1.009740	-3.068230E+13	2.592666E-16	NaN
292	1.000000	0.018813	7.36791e+06	-53239.1	955.818	-29747.2	0.000000	0.000000	6.018769	-0.055562	NaN	0.000000	0.001613	0.001694	28.0805	0.088547	0.001632	54.2449	-30.4752	-165.305	-0.091657	0.017461	-1.001799	-1.003151	-0.055562	54.2449	-1.001031	-2.342325E+13	2.372068E-15	NaN
292	1.000000	0.026851	7.36791e+06	-53239.1	955.818	-29747.2	0.000000	0.000000	6.026808	-0.012042	NaN	0.000000	0.001625	0.001707	28.0809	0.141294	0.001912	73.9095	81.9265	-162.562	0.028564	0.025461	-0.993761	-0.995151	-0.012042	73.9095	-0.993639	-1.862610E+13	6.465285E-16	NaN
292	1.000000	0.034789	7.36791e+06	-53239.1	955.82	-29747.2	0.000000	0.000000	6.034743	-0.103911	NaN	0.000000	0.001644	0.001708	28.0809	0.008854	0.002046	4.327955	-137.045	-163.485	-0.085795	0.033518	-0.985823	-0.987094	-0.103911	4.327955	-0.967816	-8.360390E+12	1.242903E-14	NaN
292	1.000000	0.042799	7.36791e+06	-53239.1	955.819	-29747.2	0.000000	0.000000	6.042757	0.010371	NaN	0.000000	0.001629	0.001674	28.081	0.040228	0.001929	20.8573	-163.143	-163.762	0.034594	0.041481	-0.977814	-0.979132	0.010371	20.8573	-0.978187	-1.153395E+13	-8.991747E-16	NaN
292	1.000000	0.050775	7.36791e+06	-53239.1	955.818	-29747.2	0.000000	0.000000	6.050733	0.010808	NaN	0.000000	0.001635	0.001689	28.0809	0.144486	0.001890	76.4414	177.346	-166.846	-0.006728	0.049518	-0.969838	-0.971094	0.010808	76.4414	-0.969944	-8.931047E+12	-1.210181E-15	NaN
292	1.000000	0.058793	7.36791e+06	-53239.1	955.818	-29747.2	0.000000	0.000000	6.058751	0.018367	NaN	0.000000	0.001631	0.001686	28.081	0.062748	0.001943	32.2958	17.7468	-163.67	0.029219	0.057450	-0.961820	-0.963162	0.018367	32.2958	-0.962246	-7.033135E+12	-2.611509E-15	NaN
292	1.000000	0.066803	7.36791e+06	-53239.1	955.819	-29747.2	0.000000	0.000000	6.066761	0.003133	NaN	0.000000	0.001688	0.001690	28.081	0.040367	0.002073	19.4715	6.125482	-165.111	-0.021387	0.065481	-0.953809	-0.955131	0.003133	19.4715	-0.953930	-5.432753E+12	-5.767568E-16	NaN
292	1.000000	0.074826	7.36791e+06	-53239.1	955.818	-29747.2	0.000000	0.000000	6.074783	-0.016367	NaN	0.000000	0.001660	0.001659	28.081	0.065339	0.001953	33.463	-176.791	-166.61	-0.011540	0.073500	-0.945786	-0.947112	-0.016367	33.463	-0.945419	-4.171045E+12	3.923880E-15	NaN
292	1.000000	0.082787	7.36791e+06	-53239.1	955.818	-29747.2	0.000000	0.000000	6.082745	0.007309	NaN	0.000000	0.001622	0.001711	28.0811	0.053896	0.002038	26.4416	-0.796000	-168.6	-0.020370	0.081531	-0.937825	-0.939082	0.007309	26.4416	-0.938032	-3.315797E+12	-2.204412E-15	NaN
292	1.000000	0.090812	7.36791e+06	-53239.1	955.818	-29747.2	0.000000	0.000000	6.090772	0.043356	NaN	0.000000	0.001632	0.001724	28.0808	0.063458	0.001858	34.1611	166.652	-165.501	0.044848	0.089471	-0.929800	-0.931141	0.043356	34.1611	-0.930752	-2.644521E+12	-1.639466E-14	NaN
292	1.000000	0.098822	7.36791e+06	-53239.1	955.818	-29747.2	0.000000	0.000000	6.098780	0.007520	NaN	0.000000	0.001646	0.001687	28.0809	0.172698	0.002206	78.2821	166.32	-162.049	-0.049011	0.097556	-0.921790	-0.923056	0.007520	78.2821	-0.921862	-2.006080E+12	-3.748569E-15	NaN
292	1.000000	0.106824	7.36791e+06	-53239.1	955.818	-29747.2	0.000000	0.000000	6.106783	0.033534	NaN	0.000000	0.001617	0.001708	28.0807	0.076336	0.001932	39.5039	92.3139	-167.712	0.052533	0.105502	-0.913788	-0.915111	0.033534	39.5039	-0.914425	-1.591942E+12	-2.106482E-14	NaN
292	1.000000	0.114815	7.36791e+06	-53239.1	955.819	-29747.2	0.000000	0.000000	6.114774	0.022604	NaN	0.000000	0.001608	0.001711	28.0807	0.031665	0.002030	15.5979	116.555	-168.024	0.030187	0.113487	-0.905797	-0.907125	0.022604	15.5979	-0.906884	-1.259139E+12	-1.795205E-14	NaN
292	1.000000	0.122809	7.36791e+06	-53239.1	955.818	-29747.2	0.000000	0.000000	6.122764	-0.066461	NaN	0.000000	0.001594	0.001727	28.0808	0.018811	0.002009	9.365419	9.514601	-169.352	-0.029998	0.121514	-0.897804	-0.899098	-0.066461	9.365419	-0.892481	-8.043668E+11	8.262545E-14	NaN
292	1.000000	0.130838	7.36791e+06	-53239.1	955.818	-29747.2	0.000000	0.000000	6.130795	-0.028419	NaN	0.000000	0.001637	0.001651	28.0808	0.118188	0.002008	58.8633	136.692	-165.202	-0.008783	0.129480	-0.889774	-0.891132	-0.028419	58.8633	-0.889412	-7.310841E+11	3.887236E-14	NaN
292	1.000000	0.138829	7.36791e+06	-53239.1	955.818	-29747.2	0.000000	0.000000	6.138785	-0.040837	NaN	0.000000	0.001618	0.001692	28.0795	0.028018	0.001956	14.3272	-142.839	-164.853	-0.112144	0.137493	-0.881783	-0.883119	-0.040837	14.3272	-0.879645	-5.393990E+11	7.570887E-14	NaN
292	1.000000	0.146832	7.36791e+06	-53239.1	955.819	-29747.2	0.000000	0.000000	6.146790	-0.002522	NaN	0.000000	0.001627	0.001691	28.0796	0.085461	0.002000	42.7255	172.944	-165.891	0.070521	0.145492	-0.873780	-0.875120	-0.002522	42.7255	-0.873736	-4.487291E+11	5.620323E-15	NaN
292	1.000000	0.154847	7.36791e+06	-53239.1	955.818	-29747.2	0.000000	0.000000	6.154805	-0.013135	NaN	0.000000	0.001615	0.001719	28.0797	0.082833	0.001995	41.5215	136.407	-165.164	-0.001693	0.153528	-0.865765	-0.867085	-0.013135	41.5215	-0.865527	-3.474777E+11	3.780102E-14	NaN
292	1.000000	0.162837	7.36791e+06	-53239.1	955.818	-29747.2	0.000000	0.000000	6.162796	0.016620	NaN	0.000000	0.001610	0.001691	28.0797	0.026205	0.001961	13.362	-142.45	-166.568	-0.178421	0.161494	-0.857775	-0.859119	0.016620	13.362	-0.858708	-2.809503E+11	-5.915495E-14	NaN
292	1.000000	0.170850	7.36791e+06	-53239.1	955.82	-29747.2	0.000000	0.000000	6.170806	-0.050344	NaN	0.000000	0.001605	0.001682	28.0797	0.051133	0.001975	25.8967	22.4771	-168.028	-0.021733	0.169517	-0.849762	-0.851095	-0.050344	25.8967	-0.848304	-2.031268E+11	2.478467E-13	NaN
292	1.000000	0.178829	7.36791e+06	-53239.1	955.819	-29747.2	0.000000	0.000000	6.178785	-0.038549	NaN	0.000000	0.001646	0.001687	28.0795	0.125738	0.002005	62.7183	159.869	-169.636	0.069082	0.177499	-0.841783	-0.843113	-0.038549	62.7183	-0.841322	-1.633817E+11	2.359451E-13	NaN
292	1.000000	0.186822	7.36791e+06	-53239.1	955.819	-29747.2	0.000000	0.000000	6.186781	0.016739	NaN	0.000000	0.001622	0.001689	28.0795	0.007734	0.002100	3.682506	-0.155550	-164.759	0.002157	0.185556	-0.833790	-0.835056	0.016739	3.682506	-0.837199	-1.436622E+11	-1.165162E-13	NaN
292	1.000000	0.194843	7.36791e+06	-53239.1	955.818	-29747.2	0.000000	0.000000	6.194801	0.001597	NaN	0.000000	0.001623	0.001666	28.0796	0.202687	0.002026	100.026	-104.429	-164.787	0.071092	0.193537	-0.825769	-0.827075	0.001597	100.026	-0.825781	-1.005988E+11	-1.587724E-14	NaN
292	1.000000	0.202855	7.36791e+06	-53239.1	955.818	-29747.2	0.000000	0.000000	6.202811	-0.051538	NaN	0.000000	0.001621	0.001706	28.0796	0.068959	0.002173	31.7352	-114.228	-161.141	-0.092171	0.201538	-0.817757	-0.819074	-0.051538	31.7352	-0.816539	-7.538262E+10	6.836884E-13	NaN
292	1.000000	0.210852	7.36791e+06	-53239.1	955.819	-29747.2	0.000000	0.000000	6.210812	0.044606	NaN	0.000000	0.001605	0.001670	28.0794	0.095430	0.002043	46.7044	-145.072	-162.402	-0.032688	0.209575	-0.809760	-0.811037	0.044606	46.7044	-0.810476	-6.237825E+10	-7.150924E-13	NaN
292	1.000000	0.218866	7.36791e+06	-53239.1	955.82	-29747.2	0.000000	0.000000	6.218821	-0.079900	NaN	0.000000	0.001607	0.001685	28.0797	0.055476	0.001914	28.9884	33.0339	-167.103	-0.071150	0.217508	-0.801746	-0.803104	-0.079900	28.9884	-0.799679	-4.451468E+10	1.794913E-12	NaN
292	1.000000	0.226848	7.36791e+06	-53239.1	955.818	-29747.2	0.000000	0.000000	6.226805	-0.000986	NaN	0.000000	0.001606	0.001688	28.0797	0.036436	0.001872	19.4592	-26.9156	-167.049	-0.003703	0.225602	-0.793765	-0.795010	-0.000986	19.4592	-0.793727	-3.695658E+10	2.667705E-14	NaN
292	1.000000	0.234879	7.36791e+06	-53239.1	955.818	-29747.2	0.000000	0.000000	6.234836	-0.029654	NaN	0.000000	0.001629	0.001658	28.0795	0.088712	0.002097	42.313	-149.231	-165.296	-0.014876	0.233543	-0.785733	-0.787069	-0.029654	42.313	-0.785207	-2.831267E+10	1.047388E-12	NaN
292	1.000000	0.242873	7.36791e+06	-53239.1	955.818	-29747.2	0.000000	0.000000	6.242827	-0.094683	NaN	0.000000	0.001638	0.001709	28.0795	0.030386	0.001943	15.637	-32.2527	-166.508	0.024147	0.241531	-0.777739	-0.779081	-0.094683	15.637	-0.773198	-1.944365E+10	4.869595E-12	NaN
292	1.000000	0.250890	7.36791e+06	-53239.1	955.819	-29747.2	0.000000	0.000000	6.250848	-0.005714	NaN	0.000000	0.001638	0.001692	28.0793	0.020155	0.001947	10.3526	-84.594	-163.281	-0.051946	0.249606	-0.769722	-0.771006	-0.005714	10.3526	-0.769308	-1.721451E+10	3.319471E-13	NaN
292	1.000000	0.258897	7.36791e+06	-53239.1	955.819	-29747.2	0.000000	0.000000	6.258854	-0.008766	NaN	0.000000	0.001641	0.001676	28.0797	0.092220	0.001977	46.651	50.6023	-162.958	-0.000756	0.257525	-0.761715	-0.763087	-0.008766	46.651	-0.761574	-1.351192E+10	6.487350E-13	NaN
292	1.000000	0.266892	7.36791e+06	-53239.1	955.818	-29747.2	0.000000	0.000000	6.266848	-0.054055	NaN	0.000000	0.001610	0.001636	28.0793	0.043135	0.002071	20.8286	-152.345	-165.755	-0.077678	0.265551	-0.753720	-0.755061	-0.054055	20.8286	-0.751773	-9.939352E+9	5.438518E-12	NaN
292	1.000000	0.274885	7.36791e+06	-53239.1	955.819	-29747.2	0.000000	0.000000	6.274841	-0.033191	NaN	0.000000	0.001606	0.001701	28.0806	0.047928	0.002039	23.5108	49.1802	-168.259	-0.015883	0.273557	-0.745727	-0.747055	-0.033191	23.5108	-0.744669	-7.954925E+9	4.172347E-12	NaN
292	1.000000	0.282871	7.36791e+06	-53239.1	955.819	-29747.2	0.000000	0.000000	6.282828	-0.018948	NaN	0.000000	0.001601	0.001709	28.0805	0.040182	0.001937	20.7408	2.852482	-164.836	0.036802	0.281569	-0.737742	-0.739043	-0.018948	20.7408	-0.737056	-6.265561E+9	3.024135E-12	NaN
292	1.000000	0.290879	7.36791e+06	-53239.1	955.818	-29747.2	0.000000	0.000000	6.290837	0.007468	NaN	0.000000	0.001625	0.001708	28.0807	0.060661	0.001997	30.3708	-169.139	-165.684	9.580464E-6	0.289548	-0.729733	-0.731064	0.007468	30.3708	-0.729918	-5.008276E+9	-1.491120E-12	NaN
292	1.000000	0.298883	7.36791e+06	-53239.1	955.818	-29747.2	0.000000	0.000000	6.298842	0.024444	NaN	0.000000	0.001620	0.001723	28.0811	0.042424	0.001926	22.0264	-136.365	-165.01	-0.077505	0.297533	-0.721729	-0.723079	0.024444	22.0264	-0.722562	-3.975645E+9	-6.148491E-12	NaN
292	1.000000	0.306904	7.36791e+06	-53239.1	955.819	-29747.2	0.000000	0.000000	6.306861	-0.011092	NaN	0.000000	0.001621	0.001746	28.0806	0.045363	0.001833	24.7452	148.302	-166.758	-0.087837	0.305604	-0.713708	-0.715008	-0.011092	24.7452	-0.713372	-2.978952E+9	3.723415E-12	NaN
292	1.000000	0.314917	7.36791e+06	-53239.1	955.818	-29747.2	0.000000	0.000000	6.314875	0.004785	NaN	0.000000	0.001628	0.001697	28.0808	0.123913	0.002139	57.9281	18.3383	-165.179	0.036698	0.313581	-0.705695	-0.707031	0.004785	57.9281	-0.705757	-2.344975E+9	-2.040504E-12	NaN
292	1.000000	0.322944	7.36791e+06	-53239.1	955.818	-29747.2	0.000000	0.000000	6.322902	-0.009099	NaN	0.000000	0.001595	0.001700	28.0809	0.056172	0.002061	27.2586	66.5909	-166.94	0.043808	0.321585	-0.697668	-0.699027	-0.009099	27.2586	-0.697417	-1.804091E+9	5.043307E-12	NaN
292	1.000000	0.330910	7.36791e+06	-53239.1	955.817	-29747.2	0.000000	0.000000	6.330869	0.025444	NaN	0.000000	0.001597	0.001697	28.0809	0.064447	0.001980	32.551	-168.414	-169.225	-0.052438	0.329625	-0.689702	-0.690987	0.025444	32.551	-0.690288	-1.441629E+9	-1.764969E-11	NaN
292	1.000000	0.338905	7.36791e+06	-53239.1	955.82	-29747.2	0.000000	0.000000	6.338862	-0.007678	NaN	0.000000	0.001617	0.001705	28.081	0.107667	0.002082	51.7062	24.2966	-165.946	0.043961	0.337568	-0.681707	-0.683044	-0.007678	51.7062	-0.681596	-1.096552E+9	7.001928E-12	NaN
292	1.000000	0.346908	7.36791e+06	-53239.1	955.818	-29747.2	0.000000	0.000000	6.346867	0.025945	NaN	0.000000	0.001604	0.001717	28.0809	0.139464	0.002112	66.0199	10.5699	-163.845	0.053936	0.345623	-0.673704	-0.674990	0.025945	66.0199	-0.673998	-8.631929E+8	-3.005722E-11	NaN
292	1.000000	0.354879	7.36791e+06	-53239.1	955.818	-29747.2	0.000000	0.000000	6.354836	-0.019447	NaN	0.000000	0.001589	0.001694	28.0809	0.059006	0.001964	30.0481	165.977	-168.003	0.020908	0.353610	-0.665734	-0.667002	-0.019447	30.0481	-0.665248	-6.551495E+8	2.968259E-11	NaN
292	1.000000	0.362948	7.36791e+06	-53239.1	955.819	-29747.2	0.000000	0.000000	6.362904	-0.036029	NaN	0.000000	0.001622	0.001690	28.081	0.062389	0.001950	31.9944	42.0496	-168.145	-0.054427	0.361641	-0.657664	-0.658971	-0.036029	31.9944	-0.656820	-5.022291E+8	7.173837E-11	NaN
292	1.000000	0.370905	7.36791e+06	-53239.1	955.818	-29747.2	0.000000	0.000000	6.370861	-0.047141	NaN	0.000000	0.001598	0.001740	28.0817	0.100210	0.002013	49.7786	74.955	-165.361	-0.047126	0.369593	-0.649707	-0.651019	-0.047141	49.7786	-0.648997	-3.923623E+8	1.201470E-10	NaN
292	1.000000	0.378941	7.36791e+06	-53239.1	955.819	-29747.2	0.000000	0.000000	6.378894	-0.116883	NaN	0.000000	0.001636	0.001734	28.0808	0.029256	0.001953	14.9837	155.96	-164.526	-0.123319	0.377571	-0.641672	-0.643041	-0.116883	14.9837	-0.635821	-2.587868E+8	4.516562E-10	NaN
292	1.000000	0.386959	7.36791e+06	-53239.1	955.819	-29747.2	0.000000	0.000000	6.386916	-0.032625	NaN	0.000000	0.001607	0.001753	28.0807	0.083661	0.002056	40.6956	95.4288	-165.048	-0.009646	0.385611	-0.633653	-0.635001	-0.032625	40.6956	-0.633052	-2.370955E+8	1.376043E-10	NaN
292	1.000000	0.394941	7.36791e+06	-53239.1	955.819	-29747.2	0.000000	0.000000	6.394898	-0.008136	NaN	0.000000	0.001619	0.001702	28.0807	0.116460	0.002031	57.3414	-158.14	-166.76	-0.050826	0.393628	-0.625671	-0.626984	-0.008136	57.3414	-0.625565	-1.871132E+8	4.348280E-11	NaN
292	1.000000	0.402928	7.36791e+06	-53239.1	955.818	-29747.2	0.000000	0.000000	6.402883	-0.065040	NaN	0.000000	0.001616	0.001709	28.0813	0.019882	0.001955	10.171	-159.196	-167.29	0.047941	0.401621	-0.617685	-0.618991	-0.065040	10.171	-0.612889	-1.252715E+8	5.191893E-10	NaN
292	1.000000	0.410954	7.36791e+06	-53239.1	955.819	-29747.2	0.000000	0.000000	6.410913	0.025305	NaN	0.000000	0.001633	0.001749	28.0794	0.032282	0.001867	17.2867	-39.7268	-165.1	-0.040927	0.409669	-0.609658	-0.610943	0.025305	17.2867	-0.610756	-1.170889E+8	-2.161212E-10	NaN
292	1.000000	0.418912	7.36791e+06	-53239.1	955.818	-29747.2	0.000000	0.000000	6.418868	-0.048898	NaN	0.000000	0.001622	0.001726	28.0795	0.117745	0.001912	61.592	16.8884	-164.783	-0.052350	0.417631	-0.601700	-0.602981	-0.048898	61.592	-0.601105	-8.623343E+7	5.670380E-10	NaN
292	1.000000	0.426949	7.36791e+06	-53239.1	955.819	-29747.2	0.000000	0.000000	6.426903	-0.086072	NaN	0.000000	0.001640	0.001736	28.0793	0.034546	0.001987	17.3842	-58.7291	-167.582	-0.045432	0.425633	-0.593663	-0.594979	-0.086072	17.3842	-0.589950	-6.053053E+7	1.421953E-9	NaN
292	1.000000	0.434977	7.36791e+06	-53239.1	955.818	-29747.2	0.000000	0.000000	6.434934	-0.008671	NaN	0.000000	0.001586	0.001754	28.0794	0.097440	0.002032	47.9488	-16.8052	-166.71	0.069079	0.433668	-0.585635	-0.586944	-0.008671	47.9488	-0.585499	-5.255388E+7	1.649855E-10	NaN
292	1.000000	0.442965	7.36792e+06	-53239.1	955.819	-29747.2	0.000000	0.000000	6.442927	0.101131	NaN	0.000000	0.001609	0.001727	28.0795	0.059502	0.002076	28.665	141.271	-165.123	0.108601	0.441687	-0.577647	-0.578925	0.101131	28.665	-0.580293	-4.454255E+7	-2.270445E-9	NaN
292	1.000000	0.450947	7.36792e+06	-53239.1	955.818	-29747.2	0.000000	0.000000	6.450903	-0.042236	NaN	0.000000	0.001600	0.001736	28.0796	0.069761	0.002164	32.2438	-74.1217	-166.655	0.053430	0.449653	-0.569665	-0.570960	-0.042236	32.2438	-0.568682	-3.079112E+7	1.371688E-9	NaN
292	1.000000	0.458965	7.36792e+06	-53239.1	955.819	-29747.2	0.000000	0.000000	6.458923	0.018025	NaN	0.000000	0.001570	0.001724	28.0795	0.007341	0.001949	3.766599	46.1292	-167.047	0.015744	0.457670	-0.561647	-0.562942	0.018025	3.766599	-0.565236	-2.759262E+7	-6.532535E-10	NaN
292	1.000000	0.466971	7.36792e+06	-53239.1	955.819	-29747.2	0.000000	0.000000	6.466929	0.012975	NaN	0.000000	0.001585	0.001727	28.0795	0.140093	0.001891	74.0776	-35.8083	-161.976	-0.009785	0.465650	-0.553641	-0.554962	0.012975	74.0776	-0.553772	-1.915113E+7	-6.774986E-10	NaN
292	1.000000	0.474975	7.36792e+06	-53239.1	955.819	-29747.2	0.000000	0.000000	6.474935	0.040264	NaN	0.000000	0.001586	0.001714	28.0796	0.046000	0.002060	22.3293	44.5911	-167.468	0.059544	0.473678	-0.545637	-0.546934	0.040264	22.3293	-0.546989	-1.542581E+7	-2.610188E-9	NaN
292	1.000000	0.482960	7.36792e+06	-53239.1	955.818	-29747.2	0.000000	0.000000	6.482916	-0.042129	NaN	0.000000	0.001591	0.001695	28.0796	0.088718	0.002052	43.2339	-176.212	-165.969	-0.102917	0.481698	-0.537652	-0.538914	-0.042129	43.2339	-0.536921	-1.118531E+7	3.766462E-9	NaN
292	1.000000	0.490963	7.36792e+06	-53239.1	955.818	-29747.2	0.000000	0.000000	6.490920	-0.006668	NaN	0.000000	0.001583	0.001677	28.0797	0.082721	0.001951	42.4087	-140.345	-165.068	-0.054874	0.489617	-0.529649	-0.530996	-0.006668	42.4087	-0.529531	-8.83217e+06	7.550027E-10	NaN
292	1.000000	0.498986	7.36792e+06	-53239.1	955.818	-29747.2	0.000000	0.000000	6.498945	0.030948	NaN	0.000000	0.001568	0.001706	28.0795	0.118152	0.002015	58.6403	145.079	-165.141	-0.015918	0.497639	-0.521626	-0.522973	0.030948	58.6403	-0.522022	-6.94562e+06	-4.455687E-9	NaN
292	1.000000	0.506979	7.36792e+06	-53239.1	955.819	-29747.2	0.000000	0.000000	6.506937	0.014694	NaN	0.000000	0.001559	0.001662	28.0796	0.062248	0.002040	30.5169	48.5318	-165.468	-0.015126	0.505662	-0.513633	-0.514950	0.014694	30.5169	-0.513994	-5.37073e+06	-2.735855E-9	NaN
292	1.000000	0.514979	7.36792e+06	-53239.1	955.818	-29747.2	0.000000	0.000000	6.514937	0.009302	NaN	0.000000	0.001559	0.001729	28.0796	0.088172	0.001930	45.6887	-81.2409	-165.068	0.065624	0.513662	-0.505633	-0.506950	0.009302	45.6887	-0.505786	-4.12763e+06	-2.253579E-9	NaN
292	1.000000	0.523000	7.36792e+06	-53239.1	955.819	-29747.2	0.000000	0.000000	6.522957	-0.027680	NaN	0.000000	0.001581	0.001699	28.0794	0.126745	0.001990	63.7053	-157.35	-164.042	0.017192	0.521670	-0.497612	-0.498942	-0.027680	63.7053	-0.497286	-3.14156e+06	8.811073E-9	NaN
292	1.000000	0.530993	7.36792e+06	-53239.1	955.819	-29747.2	0.000000	0.000000	6.530951	0.006370	NaN	0.000000	0.001594	0.001685	28.0796	0.133152	0.002044	65.1457	148.464	-167.279	0.001327	0.529679	-0.489619	-0.490933	0.006370	65.1457	-0.489692	-2.46089e+06	-2.588581E-9	NaN
292	1.000000	0.538990	7.36792e+06	-53239.1	955.819	-29747.2	0.000000	0.000000	6.538947	-0.014312	NaN	0.000000	0.001615	0.001684	28.0796	0.018211	0.002007	9.075061	-24.8349	-165.782	-0.059266	0.537617	-0.481622	-0.482995	-0.014312	9.075061	-0.480439	-1.82673e+06	7.834980E-9	NaN
292	1.000000	0.547004	7.36792e+06	-53239.1	955.819	-29747.2	0.000000	0.000000	6.546962	0.009423	NaN	0.000000	0.001628	0.001689	28.0812	0.079728	0.002145	37.1742	69.9678	-165.955	0.003871	0.545677	-0.473608	-0.474935	0.009423	37.1742	-0.473798	-1.47454e+06	-6.390145E-9	NaN
292	1.000000	0.555004	7.36792e+06	-53239.1	955.818	-29747.2	0.000000	0.000000	6.554965	0.082087	NaN	0.000000	0.001668	0.001677	28.0811	0.081493	0.002009	40.5554	-58.9636	-164.266	0.017129	0.553658	-0.465609	-0.466954	0.082087	40.5554	-0.467127	-1.18877e+06	-6.905234E-8	NaN
292	1.000000	0.563014	7.36792e+06	-53239.1	955.818	-29747.2	0.000000	0.000000	6.562973	0.031945	NaN	0.000000	0.001635	0.001710	28.0808	0.050301	0.001977	25.4425	174.92	-169.077	-0.001120	0.561733	-0.457599	-0.458879	0.031945	25.4425	-0.458540	-900536	-3.547374E-8	NaN
292	1.000000	0.571003	7.36792e+06	-53239.1	955.819	-29747.2	0.000000	0.000000	6.570960	-0.035201	NaN	0.000000	0.001647	0.001682	28.0809	0.054264	0.001971	27.5354	-71.1231	-167.614	-0.056664	0.569737	-0.449609	-0.450875	-0.035201	27.5354	-0.448650	-653626	5.385481E-8	NaN
292	1.000000	0.579010	7.36792e+06	-53239.1	955.818	-29747.2	0.000000	0.000000	6.578968	0.018536	NaN	0.000000	0.001634	0.001714	28.0809	0.072681	0.002074	35.0422	63.8496	-168.651	0.031643	0.577755	-0.441603	-0.442857	0.018536	35.0422	-0.441999	-526714	-3.519179E-8	NaN
292	1.000000	0.587002	7.36792e+06	-53239.1	955.819	-29747.2	0.000000	0.000000	6.586960	0.011708	NaN	0.000000	0.001582	0.001671	28.0812	0.082317	0.001977	41.6433	-68.6122	-164.66	0.007614	0.585653	-0.433611	-0.434960	0.011708	41.6433	-0.433821	-403737	-2.899867E-8	NaN
292	1.000000	0.595001	7.36792e+06	-53239.1	955.819	-29747.2	0.000000	0.000000	6.594955	-0.099273	NaN	0.000000	0.001628	0.001746	28.0809	0.004381	0.002096	2.090537	108.386	-163.409	-0.020585	0.593685	-0.425611	-0.426928	-0.099273	2.090537	-0.389996	-96184.1	1.032116E-6	NaN
292	1.000000	0.603015	7.36792e+06	-53239.1	955.818	-29747.2	0.000000	0.000000	6.602970	-0.057084	NaN	0.000000	0.001583	0.001703	28.0808	0.030440	0.002015	15.1052	112.267	-165.577	-0.043834	0.601691	-0.417597	-0.418921	-0.057084	15.1052	-0.414763	-216816	2.632811E-7	NaN
292	1.000000	0.611043	7.36792e+06	-53239.1	955.819	-29747.2	0.000000	0.000000	6.611001	0.006342	NaN	0.000000	0.001593	0.001675	28.081	0.032740	0.001921	17.0405	-136.9	-163.304	0.003365	0.609751	-0.409570	-0.410862	0.006342	17.0405	-0.409849	-184607	-3.435580E-8	NaN
292	1.000000	0.619034	7.36792e+06	-53239.1	955.818	-29747.2	0.000000	0.000000	6.618990	-0.032890	NaN	0.000000	0.001647	0.001678	28.0808	0.027935	0.002113	13.2175	-124.498	-166.333	-0.073460	0.617712	-0.401578	-0.402900	-0.032890	13.2175	-0.399712	-132400	2.484141E-7	NaN
292	1.000000	0.627020	7.36792e+06	-53239.1	955.818	-29747.2	0.000000	0.000000	6.626976	-0.044885	NaN	0.000000	0.001645	0.001683	28.081	0.012450	0.001987	6.266160	39.5099	-165.668	-0.019093	0.625688	-0.393592	-0.394924	-0.044885	6.266160	-0.388220	-90719.1	4.947710E-7	NaN
292	1.000000	0.635047	7.36792e+06	-53239.1	955.819	-29747.2	0.000000	0.000000	6.635005	0.000852	NaN	0.000000	0.001701	0.001657	28.0809	0.072059	0.001908	37.7596	-123.555	-166.053	-0.036564	0.633753	-0.385565	-0.386859	0.000852	37.7596	-0.385582	-83161.2	-1.025009E-8	NaN
292	1.000000	0.643048	7.36792e+06	-53239.1	955.818	-29747.2	0.000000	0.000000	6.643002	-0.084824	NaN	0.000000	0.001677	0.001721	28.0812	0.130458	0.001943	67.1408	-150.955	-168.694	-0.032199	0.641701	-0.377564	-0.378911	-0.084824	67.1408	-0.376617	-61845.4	1.371549E-6	NaN
292	1.000000	0.651053	7.36792e+06	-53239.1	955.818	-29747.2	0.000000	0.000000	6.651007	-0.093516	NaN	0.000000	0.001677	0.001706	28.0809	0.086767	0.001972	44.004	-61.6421	-165.042	0.007347	0.649719	-0.369559	-0.370893	-0.093516	44.004	-0.367965	-46431	2.014081E-6	NaN
292	1.000000	0.659074	7.36792e+06	-53239.1	955.819	-29747.2	0.000000	0.000000	6.659031	-0.013700	NaN	0.000000	0.001620	0.001715	28.0807	0.033194	0.001948	17.0359	-66.1385	-164.809	-0.005259	0.657742	-0.361539	-0.362870	-0.013700	17.0359	-0.360936	-36759.2	3.726876E-7	NaN
292	1.000000	0.667036	7.36792e+06	-53239.1	955.819	-29747.2	0.000000	0.000000	6.666991	-0.085382	NaN	0.000000	0.001655	0.001715	28.0812	0.066882	0.002080	32.1532	-141.208	-166.481	-0.055647	0.665802	-0.353576	-0.354810	-0.085382	32.1532	-0.351584	-26914.7	3.172332E-6	NaN
292	1.000000	0.675057	7.36792e+06	-53239.1	955.819	-29747.2	0.000000	0.000000	6.675013	-0.038060	NaN	0.000000	0.001668	0.001657	28.0809	0.058120	0.002014	28.8587	-36.8861	-166.918	-0.014973	0.673727	-0.345555	-0.346885	-0.038060	28.8587	-0.344566	-21283.8	1.788218E-6	NaN
292	1.000000	0.683063	7.36792e+06	-53239.1	955.818	-29747.2	0.000000	0.000000	6.683021	0.011422	NaN	0.000000	0.001679	0.001679	28.0798	0.072177	0.001938	37.246	175.712	-166.7	-0.052168	0.681785	-0.337549	-0.338827	0.011422	37.246	-0.337779	-16949.7	-6.738501E-7	NaN
292	1.000000	0.691043	7.36792e+06	-53239.1	955.818	-29747.2	0.000000	0.000000	6.690998	-0.089492	NaN	0.000000	0.001678	0.001682	28.0798	0.019635	0.002109	9.310723	137.587	-166.288	-0.057751	0.689742	-0.329569	-0.330870	-0.089492	9.310723	-0.322360	-10077.5	8.880369E-6	NaN
292	1.000000	0.699071	7.36792e+06	-53239.1	955.818	-29747.2	0.000000	0.000000	6.699029	0.009808	NaN	0.000000	0.001625	0.001671	28.0795	0.022818	0.001863	12.2492	176.176	-166.713	0.015725	0.697803	-0.321541	-0.322810	0.009808	12.2492	-0.322142	-10003.3	-9.804788E-7	NaN
292	1.000000	0.707094	7.36792e+06	-53239.1	955.82	-29747.2	0.000000	0.000000	6.707052	0.005273	NaN	0.000000	0.001688	0.001682	28.0799	0.112662	0.001796	62.7256	-78.5816	-165.635	-0.005893	0.705751	-0.313518	-0.314861	0.005273	62.7256	-0.313581	-7481.76	-7.047982E-7	NaN
292	1.000000	0.715080	7.36792e+06	-53239.1	955.819	-29747.2	0.000000	0.000000	6.715037	-0.018614	NaN	0.000000	0.001652	0.001660	28.0796	0.014370	0.001898	7.572681	-104.72	-168.254	-0.067020	0.713807	-0.305532	-0.306805	-0.018614	7.572681	-0.303688	-5339.26	3.486234E-6	NaN
292	1.000000	0.723063	7.36792e+06	-53239.1	955.819	-29747.2	0.000000	0.000000	6.723020	-0.026066	NaN	0.000000	0.001653	0.001712	28.0798	0.057010	0.002073	27.5041	81.1314	-166.167	0.057131	0.721772	-0.297549	-0.298840	-0.026066	27.5041	-0.296838	-4222.07	6.173747E-6	NaN
292	1.000000	0.731100	7.36792e+06	-53239.1	955.818	-29747.2	0.000000	0.000000	6.731058	-0.005072	NaN	0.000000	0.001693	0.001677	28.0797	0.062962	0.002017	31.2111	33.551	-163.303	0.081450	0.729717	-0.289512	-0.290895	-0.005072	31.2111	-0.289390	-3267.12	1.552461E-6	NaN
292	1.000000	0.739063	7.36792e+06	-53239.1	955.818	-29747.2	0.000000	0.000000	6.739021	0.016676	NaN	0.000000	0.001676	0.001664	28.0795	0.033530	0.002025	16.5604	-134.194	-164.865	0.067279	0.737798	-0.281550	-0.282814	0.016676	16.5604	-0.282305	-2556.9	-6.522108E-6	NaN
292	1.000000	0.747073	7.36792e+06	-53239.1	955.819	-29747.2	0.000000	0.000000	6.747030	-0.034758	NaN	0.000000	0.001655	0.001661	28.0795	0.041897	0.001921	21.808	14.96	-168.965	-0.048217	0.745724	-0.273539	-0.274888	-0.034758	21.808	-0.272343	-1807.72	1.922768E-5	NaN
292	1.000000	0.755105	7.36792e+06	-53239.1	955.818	-29747.2	0.000000	0.000000	6.755062	-0.008398	NaN	0.000000	0.001665	0.001687	28.0796	0.103346	0.001885	54.8125	-3.577277	-166.35	-0.018034	0.753773	-0.265507	-0.266840	-0.008398	54.8125	-0.265393	-1417.03	5.926237E-6	NaN
292	1.000000	0.763114	7.36792e+06	-53239.1	955.818	-29747.2	0.000000	0.000000	6.763070	-0.049361	NaN	0.000000	0.001652	0.001694	28.0797	0.030347	0.002167	14.0061	-98.2822	-164.993	0.024172	0.761778	-0.257498	-0.258834	-0.049361	14.0061	-0.254855	-976.973	5.052390E-5	NaN
292	1.000000	0.771101	7.36792e+06	-53239.1	955.818	-29747.2	0.000000	0.000000	6.771059	0.000251	NaN	0.000000	0.001674	0.001675	28.0796	0.092670	0.002088	44.3854	118.317	-167.734	0.002339	0.769821	-0.249511	-0.250791	0.000251	44.3854	-0.249516	-808.117	-3.105101E-7	NaN
292	1.000000	0.779091	7.36792e+06	-53239.1	955.818	-29747.2	0.000000	0.000000	6.779049	0.008506	NaN	0.000000	0.001687	0.001698	28.0796	0.027098	0.001950	13.8951	-72.4936	-166.368	-0.044882	0.777801	-0.241521	-0.242811	0.008506	13.8951	-0.241980	-617.232	-1.378093E-5	NaN
292	1.000000	0.787120	7.36792e+06	-53239.1	955.819	-29747.2	0.000000	0.000000	6.787076	-0.037918	NaN	0.000000	0.001677	0.001691	28.0794	0.046497	0.001961	23.7112	-127.035	-165.875	0.016434	0.785773	-0.233492	-0.234839	-0.037918	23.7112	-0.232293	-435.186	8.713146E-5	NaN
292	1.000000	0.795074	7.36792e+06	-53239.1	955.818	-29747.2	0.000000	0.000000	6.795030	-0.044386	NaN	0.000000	0.001681	0.001661	28.0796	0.049912	0.002036	24.5161	128.918	-165.166	-0.023422	0.793820	-0.225538	-0.226793	-0.044386	24.5161	-0.224181	-323.827	0.000137	NaN
292	1.000000	0.803146	7.36792e+06	-53239.1	955.818	-29747.2	0.000000	0.000000	6.803105	0.013739	NaN	0.000000	0.001673	0.001669	28.0796	0.077851	0.001911	40.7295	-69.5595	-167.763	0.026407	0.801832	-0.217466	-0.218781	0.013739	40.7295	-0.217719	-255.368	-5.380161E-5	NaN
292	1.000000	0.811115	7.36792e+06	-53239.1	955.819	-29747.2	0.000000	0.000000	6.811073	0.017695	NaN	0.000000	0.001685	0.001698	28.0795	0.055600	0.001952	28.4803	-38.2535	-164.218	0.038174	0.809808	-0.209497	-0.210804	0.017695	28.4803	-0.209963	-191.524	-9.239244E-5	NaN
292	1.000000	0.819126	7.36792e+06	-53239.1	955.818	-29747.2	0.000000	0.000000	6.819083	-0.013190	NaN	0.000000	0.001672	0.001690	28.0808	0.081310	0.001941	41.8907	175.308	-165.379	0.094447	0.817822	-0.201486	-0.202790	-0.013190	41.8907	-0.201250	-138.109	9.550290E-5	NaN
292	1.000000	0.827116	7.36792e+06	-53239.1	955.819	-29747.2	0.000000	0.000000	6.827072	-0.022902	NaN	0.000000	0.001652	0.001680	28.0807	0.142283	0.002074	68.5983	38.2727	-165.443	0.018060	0.825823	-0.193497	-0.194789	-0.022902	68.5983	-0.193246	-101.884	0.000225	NaN
292	1.000000	0.835122	7.36792e+06	-53239.1	955.817	-29747.2	0.000000	0.000000	6.835076	-0.101348	NaN	0.000000	0.001708	0.001694	28.0809	0.080938	0.002061	39.2634	15.5368	-167.314	-0.105305	0.833869	-0.185490	-0.186743	-0.101348	39.2634	-0.183554	-70.1025	0.001446	NaN
292	1.000000	0.843103	7.36792e+06	-53239.1	955.818	-29747.2	0.000000	0.000000	6.843061	-0.001170	NaN	0.000000	0.001698	0.001709	28.0807	0.110769	0.002086	53.1107	-77.5736	-168.922	9.938357E-5	0.841829	-0.177509	-0.178783	-0.001170	53.1107	-0.177493	-55.2974	2.116265E-5	NaN
292	1.000000	0.851121	7.36792e+06	-53239.1	955.818	-29747.2	0.000000	0.000000	6.851078	-0.008742	NaN	0.000000	0.001692	0.001692	28.081	0.035724	0.002035	17.5574	140.045	-167.747	-0.042091	0.849810	-0.169491	-0.170802	-0.008742	17.5574	-0.169118	-39.6532	0.000220	NaN
292	1.000000	0.859135	7.36792e+06	-53239.1	955.818	-29747.2	0.000000	0.000000	6.859093	0.017483	NaN	0.000000	0.001703	0.001671	28.081	0.050914	0.001914	26.6052	-47.8909	-168.421	-0.011830	0.857820	-0.161478	-0.162792	0.017483	26.6052	-0.161970	-29.7109	-0.000588	NaN
292	1.000000	0.867169	7.36792e+06	-53239.1	955.818	-29747.2	0.000000	0.000000	6.867126	-0.033822	NaN	0.000000	0.001670	0.001697	28.0808	0.046129	0.002152	21.4372	0.874338	-166.01	-0.004154	0.865751	-0.153443	-0.154861	-0.033822	21.4372	-0.152260	-19.9109	0.001699	NaN
292	1.000000	0.875161	7.36792e+06	-53239.1	955.819	-29747.2	0.000000	0.000000	6.875120	0.018177	NaN	0.000000	0.001688	0.001630	28.0811	0.056348	0.002014	27.9719	-120.796	-166.632	0.007402	0.873817	-0.145451	-0.146796	0.018177	27.9719	-0.145938	-15.2581	-0.001191	NaN
292	1.000000	0.883157	7.36792e+06	-53239.1	955.818	-29747.2	0.000000	0.000000	6.883113	-0.034183	NaN	0.000000	0.001712	0.001681	28.0809	0.072485	0.001912	37.9183	-89.7427	-168.878	-0.029996	0.881806	-0.137456	-0.138806	-0.034183	37.9183	-0.136780	-10.284	0.003324	NaN
292	1.000000	0.891163	7.36792e+06	-53239.1	955.818	-29747.2	0.000000	0.000000	6.891120	-0.008069	NaN	0.000000	0.001702	0.001653	28.0809	0.098581	0.002087	47.234	145.049	-163.613	-0.046669	0.889844	-0.129449	-0.130768	-0.008069	47.234	-0.129321	-7.392837	0.001092	NaN
292	1.000000	0.899149	7.36792e+06	-53239.1	955.819	-29747.2	0.000000	0.000000	6.899104	-0.048864	NaN	0.000000	0.001679	0.001670	28.081	0.076057	0.002055	37.0197	75.0134	-170.553	-0.002814	0.897901	-0.121463	-0.122711	-0.048864	37.0197	-0.120474	-4.938898	0.009894	NaN
292	1.000000	0.907195	7.36792e+06	-53239.1	955.82	-29747.2	0.000000	0.000000	6.907153	0.004541	NaN	0.000000	0.001684	0.001652	28.0809	0.101695	0.002013	50.5107	121.677	-167.222	-0.005371	0.905827	-0.113417	-0.114785	0.004541	50.5107	-0.113484	-3.554283	-0.001278	NaN
292	1.000000	0.915154	7.36792e+06	-53239.1	955.819	-29747.2	0.000000	0.000000	6.915111	-0.021031	NaN	0.000000	0.001652	0.001666	28.0809	0.063824	0.002030	31.4428	88.8803	-166.587	-0.097402	0.913882	-0.105458	-0.106730	-0.021031	31.4428	-0.104956	-2.345466	0.008967	NaN
292	1.000000	0.923146	7.36792e+06	-53239.1	955.818	-29747.2	0.000000	0.000000	6.923106	0.040300	NaN	0.000000	0.001667	0.001675	28.0808	0.026698	0.001925	13.8727	-52.8989	-167.19	-0.028044	0.921843	-0.097466	-0.098769	0.040300	13.8727	-0.099645	-1.794287	-0.022460	NaN
292	1.000000	0.931149	7.36792e+06	-53239.1	955.818	-29747.2	0.000000	0.000000	6.931107	-0.016237	NaN	0.000000	0.001691	0.001671	28.081	0.075027	0.001954	38.392	-175.197	-165.474	0.005616	0.929832	-0.089463	-0.090780	-0.016237	38.392	-0.089146	-1.032088	0.015733	NaN
292	1.000000	0.939167	7.36792e+06	-53239.1	955.819	-29747.2	0.000000	0.000000	6.939125	0.007890	NaN	0.000000	0.001684	0.001694	28.0811	0.109696	0.002017	54.3939	109.774	-168.228	-0.044443	0.937849	-0.081445	-0.082763	0.007890	54.3939	-0.081554	-0.676620	-0.011661	NaN
292	1.000000	0.947158	7.36792e+06	-53239.1	955.819	-29747.2	0.000000	0.000000	6.947110	-0.123850	NaN	0.000000	0.001679	0.001652	28.0808	0.073032	0.001958	37.2965	-29.159	-166.344	-0.019949	0.945833	-0.073454	-0.074779	-0.123850	37.2965	-0.070964	-0.361932	0.342190	NaN
292	1.000000	0.955180	7.36792e+06	-53239.1	955.817	-29747.2	0.000000	0.000000	6.955134	-0.090014	NaN	0.000000	0.001687	0.001677	28.0797	0.019599	0.002056	9.533419	144.048	-165.699	-0.057305	0.953851	-0.065432	-0.066762	-0.090014	9.533419	-0.058350	-0.161410	0.557676	NaN
292	1.000000	0.963184	7.36792e+06	-53239.1	955.818	-29747.2	0.000000	0.000000	6.963145	0.071676	NaN	0.000000	0.001672	0.001672	28.0796	0.073990	0.001995	37.0809	138.656	-170.19	-0.005059	0.961881	-0.057428	-0.058731	0.071676	37.0809	-0.058878	-0.167183	-0.428728	NaN
292	1.000000	0.971180	7.36792e+06	-53239.1	955.817	-29747.2	0.000000	0.000000	6.971137	-0.020738	NaN	0.000000	0.001679	0.001670	28.0796	0.043903	0.001906	23.028	78.7702	-163.623	-0.000634	0.969870	-0.049432	-0.050742	-0.020738	23.028	-0.048756	-0.083665	0.247871	NaN
292	1.000000	0.979204	7.36792e+06	-53239.1	955.818	-29747.2	0.000000	0.000000	6.979162	0.002011	NaN	0.000000	0.001673	0.001642	28.0797	0.066973	0.002063	32.4595	-17.0844	-167.423	0.069591	0.977866	-0.041408	-0.042746	0.002011	32.4595	-0.041455	-0.050076	-0.040164	NaN
292	1.000000	0.987178	7.36792e+06	-53239.1	955.818	-29747.2	0.000000	0.000000	6.987136	-0.004104	NaN	0.000000	0.001651	0.001661	28.0797	0.033157	0.001959	16.9258	17.4175	-166.632	-0.032930	0.985817	-0.033434	-0.034795	-0.004104	16.9258	-0.033252	-0.028472	0.144139	NaN
292	1.000000	0.995186	7.36792e+06	-53239.1	955.819	-29747.2	0.000000	0.000000	6.995143	-0.007763	NaN	0.000000	0.001641	0.001641	28.0799	0.059176	0.002038	29.0343	-34.6807	-167.951	-0.078887	0.993890	-0.025426	-0.026722	-0.007763	29.0343	-0.025226	-0.017101	0.453936	NaN
292	1.000000	1.003188	7.36792e+06	-53239.1	955.818	-29747.2	0.000000	0.000000	7.003146	0.004992	NaN	0.000000	0.001620	0.001696	28.0797	0.051405	0.002031	25.307	138.558	-167.669	-0.008922	1.001890	-0.017424	-0.018722	0.004992	25.307	-0.017572	-0.010880	-0.458792	NaN
292	1.000000	1.011223	7.36792e+06	-53239.1	955.818	-29747.2	0.000000	0.000000	7.011179	-0.049677	NaN	0.000000	0.001587	0.001622	28.0798	0.057460	0.001972	29.1334	-69.704	-166.885	-0.015975	1.009869	-0.009389	-0.010743	-0.049677	29.1334	-0.008110	-0.005296	9.379637	NaN
292	1.000000	1.019159	7.36792e+06	-53239.1	955.818	-29747.2	0.000000	0.000000	7.019116	-0.019833	NaN	0.000000	0.001618	0.001687	28.0796	0.042440	0.001965	21.6019	152.941	-167.934	-0.109016	1.017912	-0.001454	-0.002701	-0.019833	21.6019	-0.000765	-0.000563	35.2038	NaN
292	1.000000	1.027166	7.36792e+06	-53239.1	955.819	-29747.2	0.000000	0.000000	7.027242	2.893290	NaN	0.000000	0.001629	0.001641	28.0796	3.669350	0.001823	2012.65	13.851	-171.175	1.986994	1.025851	0.006553	0.005239	2.893290	2012.65	0.005475	0.004571	632.929	27197.1
292	2.000000	1.032904	7.36792e+06	-53239.1	955.818	-29747.2	0.000000	0.000000	7.033178	7.700283	NaN	0.000000	0.001610	0.001621	28.0799	8.681953	0.001594	5445.15	11.5888	-176.437	7.752941	1.032585	0.012292	0.011973	7.700283	5445.15	0.011231	0.010582	727.669	48361.1
292	2.000000	1.034839	7.36792e+06	-53239.1	955.819	-29747.2	0.000000	0.000000	7.035197	9.733883	NaN	0.000000	0.001609	0.001639	28.0795	11.133	0.001755	6342.54	5.195465	-172.331	9.366738	1.034560	0.014227	0.013948	9.733883	6342.54	0.013076	0.012804	760.203	51210.4
292	2.000000	1.036891	7.36792e+06	-53239.1	955.819	-29747.2	0.000000	0.000000	7.037413	13.7071	NaN	0.000000	0.001605	0.001593	28.0796	13.4369	0.001653	8129.61	5.979069	-175.841	13.561	1.036520	0.016279	0.015908	13.7071	8129.61	0.015015	0.015305	895.586	60037.8
292	2.000000	1.038816	7.36792e+06	-53239.1	955.818	-29747.2	0.000000	0.000000	7.039446	16.3374	NaN	0.000000	0.001604	0.001666	28.0794	16.0927	0.001760	9142.89	5.488903	-176.554	15.1207	1.038529	0.018204	0.017917	16.3374	9142.89	0.016864	0.017851	915.188	62520.2
292	2.000000	1.040883	7.36792e+06	-53239.1	955.818	-29747.2	0.000000	0.000000	7.041682	20.4543	NaN	0.000000	0.001598	0.001676	28.0795	18.8354	0.001760	10702	8.171370	-178.827	21.1214	1.040565	0.020271	0.019953	20.4543	10702	0.018838	0.020749	985.815	67880.3
292	2.000000	1.042792	7.36792e+06	-53239.1	955.819	-29747.2	0.000000	0.000000	7.043839	26.4927	NaN	0.000000	0.001571	0.001651	28.0799	20.9406	0.001677	12488.4	6.096173	179.876	24.5784	1.042493	0.022180	0.021881	26.4927	12488.4	0.020588	0.023475	1128.53	74468.8
292	2.000000	1.044850	7.36792e+06	-53239.1	955.818	-29747.2	0.000000	0.000000	7.046073	30.7779	NaN	0.000000	0.001591	0.001648	28.0794	23.3841	0.001739	13447	5.103027	-177.378	30.6264	1.044481	0.024238	0.023869	30.7779	13447	0.022521	0.026659	1154.48	75244.3
292	2.000000	1.046786	7.36792e+06	-53239.1	955.818	-29747.2	0.000000	0.000000	7.048298	37.7908	NaN	0.000000	0.001602	0.001712	28.0806	25.3103	0.001806	14012.6	8.610876	178.268	37.1807	1.046506	0.026174	0.025893	37.7908	14012.6	0.024151	0.029490	1281.49	74551.7
292	2.000000	1.048753	7.36792e+06	-53239.1	955.819	-29747.2	0.000000	0.000000	7.050421	41.5796	NaN	0.000000	0.001571	0.001704	28.0808	27.9467	0.001768	15808.7	6.054177	179.056	38.827	1.048414	0.028141	0.027801	41.5796	15808.7	0.026168	0.033175	1253.33	79298
292	2.000000	1.050849	7.36792e+06	-53239.1	955.819	-29747.2	0.000000	0.000000	7.052808	48.6698	NaN	0.000000	0.001553	0.001690	28.0807	29.6891	0.001794	16545.3	4.093086	-178.64	49.0375	1.050450	0.030237	0.029838	48.6698	16545.3	0.028030	0.036760	1323.97	78841.9
292	2.000000	1.052705	7.36792e+06	-53239.1	955.819	-29747.2	0.000000	0.000000	7.055020	57.3117	NaN	0.000000	0.001547	0.001638	28.0808	31.4478	0.001815	17327.9	4.889614	179.336	53.8859	1.052413	0.032093	0.031801	57.3117	17327.9	0.029612	0.039944	1434.8	79212.6
292	2.000000	1.054760	7.36792e+06	-53239.1	955.818	-29747.2	0.000000	0.000000	7.057234	61.1747	NaN	0.000000	0.001538	0.001660	28.0807	33.7237	0.001725	19554.9	5.721195	176.884	59.6774	1.054453	0.034148	0.033841	61.1747	19554.9	0.031801	0.044560	1372.86	84635.9
292	2.000000	1.056809	7.36792e+06	-53239.1	955.819	-29747.2	0.000000	0.000000	7.059737	72.196	NaN	0.000000	0.001555	0.001715	28.0807	35.0685	0.001668	21027.4	6.018284	177.925	72.3192	1.056360	0.036197	0.035748	72.196	21027.4	0.033622	0.048586	1485.93	87156.7
292	2.000000	1.058789	7.36792e+06	-53239.1	955.819	-29747.2	0.000000	0.000000	7.062056	80.4612	NaN	0.000000	0.001561	0.001666	28.0808	38.5571	0.001760	21907.6	8.211616	173.274	79.875	1.058374	0.038177	0.037762	80.4612	21907.6	0.035422	0.052733	1525.82	87161.7
292	2.000000	1.060767	7.36792e+06	-53239.1	955.819	-29747.2	0.000000	0.000000	7.064451	90.5851	NaN	0.000000	0.001561	0.001663	28.081	40.5761	0.001773	22891.3	5.275228	176.861	87.8981	1.060356	0.040155	0.039744	90.5851	22891.3	0.037187	0.056961	1590.3	87630.5
292	2.000000	1.062740	7.36792e+06	-53239.1	955.819	-29747.2	0.000000	0.000000	7.066696	97.212	NaN	0.000000	0.001582	0.001700	28.0819	42.2684	0.001686	25069.6	7.303819	173.323	95.1628	1.062469	0.042128	0.041857	97.212	25069.6	0.039220	0.062027	1567.25	91966.4
292	2.000000	1.064763	7.36792e+06	-53239.1	955.819	-29747.2	0.000000	0.000000	7.069265	110.488	NaN	0.000000	0.001565	0.001694	28.0809	45.5232	0.001762	25840.4	4.767450	175.772	109.089	1.064420	0.044151	0.043808	110.488	25840.4	0.040944	0.066491	1661.69	91556.8
292	2.000000	1.066729	7.36792e+06	-53239.1	955.819	-29747.2	0.000000	0.000000	7.071726	122.517	NaN	0.000000	0.001537	0.001705	28.0808	46.2868	0.001682	27514.1	3.834496	176.275	119.925	1.066472	0.046117	0.045860	122.517	27514.1	0.042777	0.071402	1715.89	94074.9
292	2.000000	1.068730	7.36792e+06	-53239.1	955.819	-29747.2	0.000000	0.000000	7.074245	135.118	NaN	0.000000	0.001548	0.001679	28.0812	49.4292	0.001755	28162.6	2.480815	177.938	132.467	1.068358	0.048118	0.047745	135.118	28162.6	0.044520	0.076229	1772.52	93193.4
292	2.000000	1.070784	7.36792e+06	-53239.1	955.819	-29747.2	0.000000	0.000000	7.076877	149.155	NaN	0.000000	0.001561	0.001691	28.0812	51.8982	0.001790	28985.9	5.153807	175.119	149.539	1.070422	0.050172	0.049810	149.155	28985.9	0.046313	0.081358	1833.31	92845
292	2.000000	1.072818	7.36792e+06	-53239.1	955.818	-29747.2	0.000000	0.000000	7.079338	159.54	NaN	0.000000	0.001540	0.001652	28.0815	53.6695	0.001779	30161.5	2.077572	177.154	159.862	1.072449	0.052206	0.051837	159.54	30161.5	0.048239	0.087047	1832.81	93400.6
292	2.000000	1.074708	7.36792e+06	-53239.1	955.819	-29747.2	0.000000	0.000000	7.081479	165.655	NaN	0.000000	0.001499	0.001684	28.0811	57.0292	0.001864	30587.6	3.268303	175.585	163.568	1.074557	0.054096	0.053945	165.655	30587.6	0.050034	0.092518	1790.51	91876.7
292	2.000000	1.076696	7.36792e+06	-53239.1	955.819	-29747.2	0.000000	0.000000	7.084249	184.644	NaN	0.000000	0.001536	0.001646	28.081	56.8403	0.001624	34993.7	3.201722	175.051	181.568	1.076403	0.056084	0.055791	184.644	34993.7	0.052127	0.099100	1863.2	101561
292	2.000000	1.078745	7.36792e+06	-53239.1	955.819	-29747.2	0.000000	0.000000	7.086514	189.908	NaN	0.000000	0.001530	0.001682	28.0811	59.8651	0.001698	35252.2	7.689402	169.742	190.093	1.078509	0.058133	0.057897	189.908	35252.2	0.054093	0.105481	1800.39	99167.9
292	2.000000	1.080765	7.36792e+06	-53239.1	955.82	-29747.2	0.000000	0.000000	7.089011	201.502	NaN	0.000000	0.001516	0.001665	28.0801	62.0549	0.001798	34511.5	2.608755	176.039	202.653	1.080489	0.060153	0.059877	201.502	34511.5	0.055774	0.111092	1813.83	94601
292	2.000000	1.082749	7.36792e+06	-53239.1	955.818	-29747.2	0.000000	0.000000	7.091441	212.356	NaN	0.000000	0.001525	0.001614	28.0796	64.1069	0.001819	35233.5	3.383242	174.608	211.947	1.082501	0.062137	0.061888	212.356	35233.5	0.057617	0.117400	1808.82	93949.5
292	2.000000	1.084755	7.36792e+06	-53239.1	955.819	-29747.2	0.000000	0.000000	7.093762	220.024	NaN	0.000000	0.001568	0.001665	28.0799	67.524	0.001950	34622.9	5.474393	172.485	219.439	1.084590	0.064143	0.063978	220.024	34622.9	0.059377	0.123582	1780.38	89982.6
292	2.000000	1.086705	7.36792e+06	-53239.1	955.819	-29747.2	0.000000	0.000000	7.096452	238.01	NaN	0.000000	0.001600	0.001665	28.0797	68.9839	0.001847	37358.1	9.309941	168.672	236.911	1.086392	0.066093	0.065779	238.01	37358.1	0.061314	0.130564	1822.95	94459.9
292	2.000000	1.088730	7.36792e+06	-53239.1	955.819	-29747.2	0.000000	0.000000	7.098977	250.168	NaN	0.000000	0.001586	0.001651	28.0796	71.653	0.001929	37136.8	8.645133	169.127	250.447	1.088335	0.068118	0.067723	250.168	37136.8	0.063066	0.137031	1825.63	91657.6
292	2.000000	1.090786	7.36792e+06	-53239.1	955.818	-29747.2	0.000000	0.000000	7.101547	262.645	NaN	0.000000	0.001655	0.001667	28.0797	71.1817	0.001836	38771.1	5.078579	173.491	261.721	1.090334	0.070174	0.069722	262.645	38771.1	0.065093	0.144704	1815.05	93119.7
292	2.000000	1.092775	7.36792e+06	-53239.1	955.819	-29747.2	0.000000	0.000000	7.103803	269.133	NaN	0.000000	0.001621	0.001652	28.0796	73.7053	0.001791	41158.1	8.293292	169.12	272.866	1.092367	0.072163	0.071755	269.133	41158.1	0.067259	0.153117	1757.69	96098.5
292	2.000000	1.094751	7.36792e+06	-53239.1	955.818	-29747.2	0.000000	0.000000	7.106297	281.75	NaN	0.000000	0.001634	0.001674	28.0796	74.9601	0.001814	41327.4	5.915978	171.554	281.561	1.094394	0.074139	0.073781	281.75	41327.4	0.069025	0.160146	1759.33	94352.6
292	2.000000	1.096648	7.36792e+06	-53239.1	955.819	-29747.2	0.000000	0.000000	7.108950	300.106	NaN	0.000000	0.001586	0.001675	28.0798	74.4783	0.001773	42001.7	0.033090	176.925	296.257	1.096314	0.076036	0.075702	300.106	42001.7	0.070677	0.166854	1798.62	93944.7
292	2.000000	1.098736	7.36792e+06	-53239.1	955.819	-29747.2	0.000000	0.000000	7.111312	306.796	NaN	0.000000	0.001592	0.001665	28.0797	77.2269	0.001772	43581.2	1.230208	175.189	304.554	1.098399	0.078124	0.077787	306.796	43581.2	0.072844	0.175850	1744.64	94951.4
292	2.000000	1.100745	7.36792e+06	-53239.1	955.819	-29747.2	0.000000	0.000000	7.113990	323.034	NaN	0.000000	0.001637	0.001658	28.0796	80.4442	0.001858	43301.6	6.390650	170.457	322.755	1.100447	0.080133	0.079835	323.034	43301.6	0.074538	0.183037	1764.86	92471.4
292	2.000000	1.102606	7.36792e+06	-53239.1	955.819	-29747.2	0.000000	0.000000	7.116485	338.484	NaN	0.000000	0.001611	0.001669	28.0796	81.4741	0.001768	46072	5.063072	170.841	332.438	1.102343	0.081993	0.081731	338.484	46072	0.076483	0.191456	1767.94	96200.1
292	2.000000	1.104749	7.36792e+06	-53239.1	955.818	-29747.2	0.000000	0.000000	7.119065	349.111	NaN	0.000000	0.001630	0.001663	28.0796	84.4683	0.001769	47742.9	2.757175	173.17	351.29	1.104409	0.084136	0.083797	349.111	47742.9	0.078652	0.201054	1736.4	97280.4
292	2.000000	1.106622	7.36792e+06	-53239.1	955.819	-29747.2	0.000000	0.000000	7.121414	360.665	NaN	0.000000	0.001638	0.001691	28.08	84.653	0.001797	47110.6	2.868737	173.446	353.963	1.106280	0.086010	0.085668	360.665	47110.6	0.080268	0.208349	1731.06	94296.7
292	2.000000	1.108767	7.36792e+06	-53239.1	955.818	-29747.2	0.000000	0.000000	7.124123	374.369	NaN	0.000000	0.001616	0.001668	28.0799	88.6808	0.001790	49549.3	6.501842	169.535	376.262	1.108389	0.088155	0.087777	374.369	49549.3	0.082489	0.218568	1712.83	96831.7
292	2.000000	1.110650	7.36792e+06	-53239.1	955.819	-29747.2	0.000000	0.000000	7.126518	386.815	NaN	0.000000	0.001604	0.001681	28.0796	90.3961	0.001842	49075.9	4.398307	171.74	382.109	1.110393	0.090038	0.089781	386.815	49075.9	0.084126	0.226252	1709.66	94263.9
292	2.000000	1.112580	7.36792e+06	-53239.1	955.819	-29747.2	0.000000	0.000000	7.128770	394.631	NaN	0.000000	0.001580	0.001696	28.0797	92.2427	0.001854	49762.3	5.023569	170.441	388.629	1.112396	0.091968	0.091784	394.631	49762.3	0.086021	0.235294	1677.18	93727.8
292	2.000000	1.114799	7.36792e+06	-53239.1	955.819	-29747.2	0.000000	0.000000	7.131768	413.591	NaN	0.000000	0.001597	0.001676	28.0804	94.5929	0.001793	52765.9	4.959172	170.3	417.445	1.114389	0.094187	0.093777	413.591	52765.9	0.088308	0.246437	1678.28	97112.2
292	2.000000	1.116746	7.36792e+06	-53239.1	955.819	-29747.2	0.000000	0.000000	7.134157	424.341	NaN	0.000000	0.001611	0.001699	28.0811	94.579	0.001701	55588.9	4.987655	169.546	426.232	1.116547	0.096134	0.095935	424.341	55588.9	0.090409	0.256879	1651.91	100207
292	2.000000	1.118683	7.36792e+06	-53239.1	955.819	-29747.2	0.000000	0.000000	7.137043	447.408	NaN	0.000000	0.001629	0.001679	28.081	98.7964	0.001960	50418.7	5.309768	170.546	445.159	1.118408	0.098071	0.097796	447.408	50418.7	0.091416	0.261955	1707.96	90001.8
292	2.000000	1.120705	7.36792e+06	-53239.1	955.819	-29747.2	0.000000	0.000000	7.139664	461.982	NaN	0.000000	0.001594	0.001704	28.0809	100.191	0.002026	49448.6	4.116869	171.764	461.886	1.120447	0.100093	0.099834	461.982	49448.6	0.093086	0.270478	1708.02	86868.2
292	2.000000	1.122665	7.36792e+06	-53239.1	955.818	-29747.2	0.000000	0.000000	7.142471	482.552	NaN	0.000000	0.001626	0.001689	28.0809	101.923	0.001827	55778.2	8.767790	165.878	480.697	1.122376	0.102053	0.101763	482.552	55778.2	0.095565	0.283365	1702.94	95733.7
292	2.000000	1.124724	7.36792e+06	-53239.1	955.82	-29747.2	0.000000	0.000000	7.145142	497.463	NaN	0.000000	0.001628	0.001674	28.0809	104.396	0.001884	55404.2	7.076668	168.322	496.636	1.124284	0.104111	0.103671	497.463	55404.2	0.097377	0.292964	1698.03	93520.8
292	2.000000	1.126648	7.36792e+06	-53239.1	955.82	-29747.2	0.000000	0.000000	7.147912	518.017	NaN	0.000000	0.001607	0.001695	28.0809	102.792	0.001755	58563.8	1.133089	173.75	515.611	1.126438	0.106035	0.105826	518.017	58563.8	0.099401	0.303861	1704.78	97065.5
292	2.000000	1.128579	7.36792e+06	-53239.1	955.82	-29747.2	0.000000	0.000000	7.150132	525.055	NaN	0.000000	0.001615	0.001687	28.0808	104.848	0.001750	59916.2	-0.667348	175.318	519.086	1.128388	0.107966	0.107776	525.055	59916.2	0.101394	0.314770	1668.06	97571
292	2.000000	1.130574	7.36792e+06	-53239.1	955.819	-29747.2	0.000000	0.000000	7.153388	555.702	NaN	0.000000	0.001634	0.001683	28.0809	108.542	0.001818	59688	5.149723	169.775	548.157	1.130277	0.109962	0.109665	555.702	59688	0.102980	0.323580	1717.35	95867