File: remote_trans/data/nanoindenter/0828-1/data/Data_2025-08-06,11h17m57s/2025-07-22_16-23-58_1_405.txt
2025-07-22, 16:23:58, 1
Index	Phase	Displacement	Time	Pos X	Pos Y	Pos Z	Rot A	Rot B	Piezo Z	Force A	Force B	Gripper	Voltage A	Voltage B	Temperature	Amplitude force	Amplitude pos	Stiffness	Phase shift	Phase excitation	Force A raw	Displacement raw	HMax	HMax raw	Real Force	Real Stiffness	Contact Depth	Area	Hardness	Reduced Mod.
[#]	[#]	[um]	[s]	[um]	[um]	[um]	[m°]	[m°]	[um]	[uN]	[uN]	[V]	[V]	[V]	[°C]	[uN]	[um]	[N/m]	[°]	[°]	[uN]	[um]	[um]	[um]	[uN]	[N/m]	[um]	[um^2]	[MPa]	[MPa]
405	1.000000	0.002458	7.36902e+06	-56839.1	1005.82	-29738.2	0.000000	0.000000	6.002817	-0.001988	NaN	0.000000	0.001706	0.001707	28.082	0.084234	0.000988	85.2844	49.521	-169.837	0.033069	0.001221	-0.976661	-0.977898	-0.001988	85.2844	-0.976644	-1.099489E+13	1.808238E-16	NaN
405	1.000000	0.010410	7.36902e+06	-56839.1	1005.82	-29738.2	0.000000	0.000000	6.010767	-0.063073	NaN	0.000000	0.001676	0.001679	28.082	0.036206	0.000943	38.3805	25.7264	-166.886	-0.040395	0.009062	-0.968709	-0.970057	-0.063073	38.3805	-0.967476	-8.272785E+12	7.624176E-15	NaN
405	1.000000	0.018395	7.36902e+06	-56839.1	1005.82	-29738.2	0.000000	0.000000	6.018750	-0.095396	NaN	0.000000	0.001686	0.001678	28.082	0.052485	0.001751	29.9814	-159.996	-164.301	-0.113656	0.017153	-0.960724	-0.961966	-0.095396	29.9814	-0.958338	-6.229619E+12	1.531323E-14	NaN
405	1.000000	0.026430	7.36902e+06	-56839.1	1005.82	-29738.2	0.000000	0.000000	6.026787	-0.058460	NaN	0.000000	0.001650	0.001663	28.0821	0.069601	0.001886	36.9082	109.578	-164.383	-0.007662	0.025048	-0.952689	-0.954071	-0.058460	36.9082	-0.951501	-5.038122E+12	1.160347E-14	NaN
405	1.000000	0.034402	7.36902e+06	-56839.1	1005.82	-29738.2	0.000000	0.000000	6.034761	-0.000168	NaN	0.000000	0.001611	0.001704	28.0822	0.065710	0.001893	34.7139	70.0557	-164.068	-0.034723	0.033110	-0.944717	-0.946009	-0.000168	34.7139	-0.944714	-4.080605E+12	4.126802E-17	NaN
405	1.000000	0.042382	7.36902e+06	-56839.1	1005.82	-29738.2	0.000000	0.000000	6.042742	0.007043	NaN	0.000000	0.001657	0.001709	28.0819	0.088743	0.001987	44.6515	138.11	-162.998	0.018751	0.041053	-0.936737	-0.938066	0.007043	44.6515	-0.936855	-3.196755E+12	-2.203141E-15	NaN
405	1.000000	0.050398	7.36902e+06	-56839.1	1005.82	-29738.2	0.000000	0.000000	6.050756	-0.035872	NaN	0.000000	0.001606	0.001687	28.0821	0.056367	0.001900	29.6716	13.1136	-165.638	-0.070582	0.049098	-0.928721	-0.930021	-0.035872	29.6716	-0.927814	-2.413781E+12	1.486126E-14	NaN
405	1.000000	0.058393	7.36902e+06	-56839.1	1005.82	-29738.2	0.000000	0.000000	6.058753	0.000163	NaN	0.000000	0.001667	0.001657	28.0819	0.069065	0.002103	32.8434	-9.121683	-163.708	0.006851	0.057113	-0.920726	-0.922006	0.000163	32.8434	-0.920729	-1.936659E+12	-8.435490E-17	NaN
405	1.000000	0.066426	7.36902e+06	-56839.1	1005.82	-29738.2	0.000000	0.000000	6.066783	-0.051544	NaN	0.000000	0.001656	0.001669	28.0818	0.124400	0.001831	67.953	11.6761	-165.562	0.013238	0.065104	-0.912693	-0.914015	-0.051544	67.953	-0.912124	-1.482013E+12	3.477962E-14	NaN
405	1.000000	0.074411	7.36902e+06	-56839.1	1005.82	-29738.2	0.000000	0.000000	6.074771	0.026300	NaN	0.000000	0.001637	0.001660	28.0817	0.089804	0.001908	47.0611	85.6817	-163	0.031715	0.073125	-0.904708	-0.905994	0.026300	47.0611	-0.905127	-1.192170E+12	-2.206086E-14	NaN
405	1.000000	0.082409	7.36902e+06	-56839.1	1005.82	-29738.2	0.000000	0.000000	6.082768	-0.007363	NaN	0.000000	0.001663	0.001643	28.0817	0.049193	0.002010	24.4749	-147.582	-163.616	0.035474	0.081079	-0.896710	-0.898040	-0.007363	24.4749	-0.896484	-9.110813E+11	8.082031E-15	NaN
405	1.000000	0.090404	7.36902e+06	-56839.1	1005.82	-29738.2	0.000000	0.000000	6.090763	0.000936	NaN	0.000000	0.001653	0.001664	28.0821	0.121084	0.002006	60.3599	-55.8603	-166.707	-0.001877	0.089068	-0.888715	-0.890051	0.000936	60.3599	-0.888727	-7.156504E+11	-1.308211E-15	NaN
405	1.000000	0.098433	7.36902e+06	-56839.1	1005.82	-29738.2	0.000000	0.000000	6.098792	0.002225	NaN	0.000000	0.001648	0.001674	28.0803	0.052881	0.002068	25.5717	54.9922	-166.06	0.015604	0.097074	-0.880686	-0.882045	0.002225	25.5717	-0.880752	-5.583086E+11	-3.984643E-15	NaN
405	1.000000	0.106409	7.36902e+06	-56839.1	1005.82	-29738.2	0.000000	0.000000	6.106770	0.022197	NaN	0.000000	0.001660	0.001681	28.0805	0.037513	0.001950	19.2387	-165.71	-163.92	0.031545	0.105113	-0.872710	-0.874006	0.022197	19.2387	-0.873575	-4.464860E+11	-4.971457E-14	NaN
405	1.000000	0.114423	7.36902e+06	-56839.1	1005.82	-29738.2	0.000000	0.000000	6.114784	0.023613	NaN	0.000000	0.001667	0.001659	28.0805	0.056236	0.001941	28.9679	96.742	-163.625	0.009976	0.113102	-0.864696	-0.866018	0.023613	28.9679	-0.865307	-3.451013E+11	-6.842463E-14	NaN
405	1.000000	0.122402	7.36902e+06	-56839.1	1005.82	-29738.2	0.000000	0.000000	6.122762	0.021559	NaN	0.000000	0.001677	0.001675	28.0806	0.036982	0.001991	18.5721	121.743	-166.966	0.022736	0.121066	-0.856717	-0.858053	0.021559	18.5721	-0.857588	-2.713128E+11	-7.946215E-14	NaN
405	1.000000	0.130427	7.36902e+06	-56839.1	1005.82	-29738.2	0.000000	0.000000	6.130786	-0.014724	NaN	0.000000	0.001571	0.001697	28.0809	0.038718	0.001897	20.4057	54.395	-164.928	-0.004988	0.129109	-0.848692	-0.850010	-0.014724	20.4057	-0.848151	-2.021611E+11	7.283228E-14	NaN
405	1.000000	0.138445	7.36902e+06	-56839.1	1005.82	-29738.2	0.000000	0.000000	6.138803	-0.036987	NaN	0.000000	0.001543	0.001665	28.0807	0.101757	0.001986	51.2288	146.997	-166.686	-0.051591	0.137144	-0.840674	-0.841975	-0.036987	51.2288	-0.840133	-1.574302E+11	2.349450E-13	NaN
405	1.000000	0.146427	7.36902e+06	-56839.1	1005.82	-29738.2	0.000000	0.000000	6.146782	-0.092767	NaN	0.000000	0.001593	0.001676	28.081	0.048964	0.002217	22.0838	60.0711	-164.5	-0.029413	0.145153	-0.832692	-0.833966	-0.092767	22.0838	-0.829542	-1.131296E+11	8.200067E-13	NaN
405	1.000000	0.154439	7.36902e+06	-56839.1	1005.82	-29738.2	0.000000	0.000000	6.154797	-0.027604	NaN	0.000000	0.001569	0.001676	28.0808	0.119720	0.002105	56.8613	-148.996	-163.631	-0.018090	0.153102	-0.824680	-0.826017	-0.027604	56.8613	-0.824316	-9.610323E+10	2.872339E-13	NaN
405	1.000000	0.162404	7.36902e+06	-56839.1	1005.82	-29738.2	0.000000	0.000000	6.162763	0.000364	NaN	0.000000	0.001594	0.001640	28.0809	0.044934	0.001885	23.8364	149.979	-161.709	0.022763	0.161153	-0.816715	-0.817966	0.000364	23.8364	-0.816727	-7.582620E+10	-4.803823E-15	NaN
405	1.000000	0.170435	7.36902e+06	-56839.1	1005.82	-29738.2	0.000000	0.000000	6.170795	0.003145	NaN	0.000000	0.001628	0.001671	28.0808	0.062571	0.001962	31.8897	-143.961	-163.607	-0.006967	0.169146	-0.808684	-0.809973	0.003145	31.8897	-0.808758	-5.911740E+10	-5.320425E-14	NaN
405	1.000000	0.178435	7.36902e+06	-56839.1	1005.82	-29738.2	0.000000	0.000000	6.178793	-0.016188	NaN	0.000000	0.001596	0.001718	28.0805	0.128151	0.001962	65.3097	141.203	-165.975	-0.050034	0.177163	-0.800684	-0.801956	-0.016188	65.3097	-0.800499	-4.566994E+10	3.544569E-13	NaN
405	1.000000	0.186429	7.36902e+06	-56839.1	1005.82	-29738.2	0.000000	0.000000	6.186787	-0.020622	NaN	0.000000	0.001591	0.001739	28.0811	0.054826	0.002017	27.1761	28.2595	-168.498	0.023731	0.185121	-0.792690	-0.793998	-0.020622	27.1761	-0.792121	-3.514720E+10	5.867400E-13	NaN
405	1.000000	0.194450	7.36902e+06	-56839.1	1005.82	-29738.2	0.000000	0.000000	6.194809	0.002699	NaN	0.000000	0.001600	0.001721	28.0808	0.158860	0.002045	77.6838	162.128	-163.939	-0.047302	0.193082	-0.784670	-0.786037	0.002699	77.6838	-0.784696	-2.786321E+10	-9.687388E-14	NaN
405	1.000000	0.202449	7.36902e+06	-56839.1	1005.82	-29738.2	0.000000	0.000000	6.202808	-0.007055	NaN	0.000000	0.001590	0.001695	28.0808	0.084286	0.002045	41.2213	-43.6128	-165.408	0.020027	0.201192	-0.776670	-0.777927	-0.007055	41.2213	-0.776541	-2.158881E+10	3.267863E-13	NaN
405	1.000000	0.210469	7.36902e+06	-56839.1	1005.82	-29738.2	0.000000	0.000000	6.210829	0.009638	NaN	0.000000	0.001595	0.001702	28.0808	0.036181	0.002060	17.5619	-116.669	-162.999	0.024414	0.209168	-0.768650	-0.769951	0.009638	17.5619	-0.769062	-1.708233E+10	-5.642202E-13	NaN
405	1.000000	0.218457	7.36902e+06	-56839.1	1005.82	-29738.2	0.000000	0.000000	6.218818	0.029343	NaN	0.000000	0.001599	0.001705	28.0807	0.055399	0.001982	27.9536	139.642	-164.556	0.033399	0.217114	-0.760662	-0.762005	0.029343	27.9536	-0.761449	-1.345897E+10	-2.180216E-12	NaN
405	1.000000	0.226481	7.36902e+06	-56839.1	1005.82	-29738.2	0.000000	0.000000	6.226838	-0.046176	NaN	0.000000	0.001586	0.001699	28.0811	0.081600	0.001972	41.3824	113.003	-164.63	0.010520	0.225159	-0.752638	-0.753960	-0.046176	41.3824	-0.751802	-9.948137E+9	4.641663E-12	NaN
405	1.000000	0.234470	7.36902e+06	-56839.1	1005.82	-29738.2	0.000000	0.000000	6.234828	-0.028324	NaN	0.000000	0.001625	0.001714	28.082	0.056571	0.001920	29.458	-170.128	-167.754	-0.001105	0.233148	-0.744649	-0.745971	-0.028324	29.458	-0.743928	-7.772334E+9	3.644266E-12	NaN
405	1.000000	0.242481	7.36902e+06	-56839.1	1005.82	-29738.2	0.000000	0.000000	6.242843	0.046321	NaN	0.000000	0.001626	0.001665	28.0821	0.032744	0.002112	15.5065	166.973	-167.82	0.012250	0.241179	-0.736638	-0.737941	0.046321	15.5065	-0.738878	-6.633968E+9	-6.982451E-12	NaN
405	1.000000	0.250451	7.36902e+06	-56839.1	1005.82	-29738.2	0.000000	0.000000	6.250810	0.006007	NaN	0.000000	0.001637	0.001651	28.082	0.040395	0.001963	20.5775	111.008	-169.036	-0.039079	0.249169	-0.728668	-0.729950	0.006007	20.5775	-0.728887	-4.848866E+9	-1.238932E-12	NaN
405	1.000000	0.258495	7.36902e+06	-56839.1	1005.82	-29738.2	0.000000	0.000000	6.258853	-0.028935	NaN	0.000000	0.001646	0.001646	28.0819	0.090091	0.002073	43.4574	-149.514	-163.177	-0.049582	0.257193	-0.720624	-0.721926	-0.028935	43.4574	-0.720124	-3.682724E+9	7.857012E-12	NaN
405	1.000000	0.266454	7.36902e+06	-56839.1	1005.82	-29738.2	0.000000	0.000000	6.266812	-0.010720	NaN	0.000000	0.001619	0.001693	28.0821	0.038684	0.002138	18.0918	-140.335	-164	-0.013747	0.265124	-0.712665	-0.713995	-0.010720	18.0918	-0.712221	-2.873146E+9	3.731034E-12	NaN
405	1.000000	0.274472	7.36902e+06	-56839.1	1005.82	-29738.2	0.000000	0.000000	6.274831	0.007502	NaN	0.000000	0.001617	0.001687	28.082	0.045168	0.001988	22.7261	37.2327	-167.136	-0.031479	0.273181	-0.704647	-0.705938	0.007502	22.7261	-0.704895	-2.282258E+9	-3.287314E-12	NaN
405	1.000000	0.282503	7.36902e+06	-56839.1	1005.82	-29738.2	0.000000	0.000000	6.282862	-0.010587	NaN	0.000000	0.001621	0.001698	28.0821	0.032721	0.001933	16.9241	128.561	-161.477	-0.031488	0.281179	-0.696616	-0.697940	-0.010587	16.9241	-0.696147	-1.733422E+9	6.107679E-12	NaN
405	1.000000	0.290496	7.36902e+06	-56839.1	1005.82	-29738.2	0.000000	0.000000	6.290854	-0.017314	NaN	0.000000	0.001602	0.001672	28.0821	0.078622	0.001995	39.4001	-96.1799	-166.873	0.044323	0.289206	-0.688623	-0.689913	-0.017314	39.4001	-0.688294	-1.353935E+9	1.278792E-11	NaN
405	1.000000	0.298503	7.36902e+06	-56839.1	1005.82	-29738.2	0.000000	0.000000	6.298862	-0.011179	NaN	0.000000	0.001694	0.001675	28.0823	0.090968	0.002022	44.9895	155.579	-162.298	-0.037208	0.297215	-0.680616	-0.681904	-0.011179	44.9895	-0.680430	-1.057025E+9	1.057569E-11	NaN
405	1.000000	0.306513	7.36902e+06	-56839.1	1005.82	-29738.2	0.000000	0.000000	6.306870	-0.070245	NaN	0.000000	0.001659	0.001668	28.0822	0.058879	0.002044	28.8124	-52.2692	-162.543	-0.097398	0.305160	-0.672606	-0.673959	-0.070245	28.8124	-0.670777	-7.798841E+8	9.007094E-11	NaN
405	1.000000	0.314498	7.36902e+06	-56839.1	1005.82	-29738.2	0.000000	0.000000	6.314858	0.007744	NaN	0.000000	0.001671	0.001671	28.0821	0.123771	0.001963	63.0476	131.118	-163.526	-0.023230	0.313166	-0.664621	-0.665953	0.007744	63.0476	-0.664713	-6.441854E+8	-1.202200E-11	NaN
405	1.000000	0.322517	7.36902e+06	-56839.1	1005.82	-29738.2	0.000000	0.000000	6.322877	0.012138	NaN	0.000000	0.001688	0.001699	28.0823	0.087209	0.001948	44.7603	-60.0125	-165.289	0.058958	0.321175	-0.656602	-0.657944	0.012138	44.7603	-0.656805	-5.019957E+8	-2.417870E-11	NaN
405	1.000000	0.330519	7.36902e+06	-56839.1	1005.82	-29738.2	0.000000	0.000000	6.330879	0.012134	NaN	0.000000	0.001671	0.001686	28.0822	0.065531	0.001858	35.2717	-146.512	-166.692	0.076753	0.329176	-0.648600	-0.649943	0.012134	35.2717	-0.648858	-3.906464E+8	-3.106250E-11	NaN
405	1.000000	0.338498	7.36902e+06	-56839.1	1005.82	-29738.2	0.000000	0.000000	6.338856	-0.029709	NaN	0.000000	0.001682	0.001715	28.0822	0.038606	0.002012	19.1846	43.4438	-165.311	-0.097347	0.337198	-0.640621	-0.641921	-0.029709	19.1846	-0.639460	-2.903224E+8	1.023318E-10	NaN
405	1.000000	0.346496	7.36902e+06	-56839.1	1005.82	-29738.2	0.000000	0.000000	6.346855	-0.009047	NaN	0.000000	0.001645	0.001649	28.0821	0.062684	0.001962	31.9469	-51.0557	-166.762	0.025210	0.345183	-0.632623	-0.633936	-0.009047	31.9469	-0.632411	-2.323394E+8	3.894048E-11	NaN
405	1.000000	0.354507	7.36902e+06	-56839.1	1005.82	-29738.2	0.000000	0.000000	6.354866	-0.027317	NaN	0.000000	0.001637	0.001691	28.0825	0.119475	0.001918	62.2951	146.73	-169.385	0.006689	0.353185	-0.624612	-0.625934	-0.027317	62.2951	-0.624283	-1.796756E+8	1.520339E-10	NaN
405	1.000000	0.362538	7.36902e+06	-56839.1	1005.82	-29738.2	0.000000	0.000000	6.362897	0.003060	NaN	0.000000	0.001657	0.001678	28.0824	0.053127	0.002000	26.5576	-167.874	-163.205	0.044841	0.361191	-0.616581	-0.617928	0.003060	26.5576	-0.616668	-1.411967E+8	-2.167139E-11	NaN
405	1.000000	0.370527	7.36902e+06	-56839.1	1005.82	-29738.2	0.000000	0.000000	6.370886	-0.004148	NaN	0.000000	0.001672	0.001675	28.081	0.025662	0.002064	12.4362	-155.915	-164.368	-0.029694	0.369214	-0.608592	-0.609905	-0.004148	12.4362	-0.608342	-1.084688E+8	3.824387E-11	NaN
405	1.000000	0.378536	7.36902e+06	-56839.1	1005.82	-29738.2	0.000000	0.000000	6.378893	-0.050284	NaN	0.000000	0.001672	0.001701	28.0809	0.040625	0.002034	19.9768	125.436	-165.201	-0.048120	0.377207	-0.600583	-0.601912	-0.050284	19.9768	-0.598696	-7.989022E+7	6.294194E-10	NaN
405	1.000000	0.386536	7.36902e+06	-56839.1	1005.82	-29738.2	0.000000	0.000000	6.386892	-0.069455	NaN	0.000000	0.001677	0.001720	28.0811	0.038786	0.002074	18.7015	10.369	-165.499	-0.023110	0.385220	-0.592583	-0.593899	-0.069455	18.7015	-0.589798	-6.023927E+7	1.152981E-9	NaN
405	1.000000	0.394541	7.36902e+06	-56839.1	1005.82	-29738.2	0.000000	0.000000	6.394900	0.012540	NaN	0.000000	0.001674	0.001685	28.0813	0.050408	0.001961	25.7093	124.051	-164.316	-0.077725	0.393160	-0.584578	-0.585959	0.012540	25.7093	-0.584944	-5.163514E+7	-2.428518E-10	NaN
405	1.000000	0.402525	7.36902e+06	-56839.1	1005.82	-29738.2	0.000000	0.000000	6.402885	0.004230	NaN	0.000000	0.001654	0.001703	28.0811	0.087800	0.001960	44.7846	-178.959	-168.618	-0.014181	0.401245	-0.576594	-0.577874	0.004230	44.7846	-0.576665	-3.969040E+7	-1.065866E-10	NaN
405	1.000000	0.410535	7.36902e+06	-56839.1	1005.82	-29738.2	0.000000	0.000000	6.410892	-0.074972	NaN	0.000000	0.001677	0.001708	28.0811	0.077877	0.001988	39.1714	-158.946	-159.114	-0.209260	0.409233	-0.568584	-0.569886	-0.074972	39.1714	-0.567148	-2.932377E+7	2.556695E-9	NaN
405	1.000000	0.418538	7.36902e+06	-56839.1	1005.82	-29738.2	0.000000	0.000000	6.418895	-0.057068	NaN	0.000000	0.001660	0.001708	28.0811	0.069185	0.002063	33.5332	2.452873	-163.533	-0.006170	0.417200	-0.560581	-0.561919	-0.057068	33.5332	-0.559305	-2.284345E+7	2.498223E-9	NaN
405	1.000000	0.426557	7.36902e+06	-56839.1	1005.82	-29738.2	0.000000	0.000000	6.426918	0.024637	NaN	0.000000	0.001690	0.001675	28.0811	0.013083	0.001965	6.659375	-137.039	-164.797	-0.024666	0.425205	-0.552562	-0.553914	0.024637	6.659375	-0.555336	-2.013004E+7	-1.223915E-9	NaN
405	1.000000	0.434537	7.36902e+06	-56839.1	1005.82	-29738.2	0.000000	0.000000	6.434897	0.022298	NaN	0.000000	0.001680	0.001693	28.0814	0.036493	0.002165	16.8595	102.896	-162.353	0.031214	0.433220	-0.544582	-0.545899	0.022298	16.8595	-0.545574	-1.474467E+7	-1.512270E-9	NaN
405	1.000000	0.442554	7.36902e+06	-56839.1	1005.82	-29738.2	0.000000	0.000000	6.442912	-0.042240	NaN	0.000000	0.001675	0.001678	28.0812	0.115806	0.001924	60.1864	-102.773	-160.545	0.013674	0.441208	-0.536565	-0.537912	-0.042240	60.1864	-0.536039	-1.087431E+7	3.884345E-9	NaN
405	1.000000	0.450554	7.36902e+06	-56839.1	1005.82	-29738.2	0.000000	0.000000	6.450912	-0.019256	NaN	0.000000	0.001649	0.001730	28.0815	0.096435	0.002021	47.7131	20.5856	-165.744	-0.078100	0.449233	-0.528565	-0.529886	-0.019256	47.7131	-0.528263	-8.48098e+06	2.270466E-9	NaN
405	1.000000	0.458563	7.36902e+06	-56839.1	1005.82	-29738.2	0.000000	0.000000	6.458920	-0.056546	NaN	0.000000	0.001654	0.001722	28.0814	0.027897	0.002107	13.2421	-117.539	-164.16	0.020657	0.457264	-0.520556	-0.521855	-0.056546	13.2421	-0.517353	-5.98112e+06	9.454123E-9	NaN
405	1.000000	0.466560	7.36902e+06	-56839.1	1005.82	-29738.2	0.000000	0.000000	6.466918	-0.027762	NaN	0.000000	0.001675	0.001739	28.081	0.055740	0.001867	29.8508	166.222	-160.711	-0.051911	0.465257	-0.512559	-0.513862	-0.027762	29.8508	-0.511861	-5.01578e+06	5.534876E-9	NaN
405	1.000000	0.474568	7.36902e+06	-56839.1	1005.82	-29738.2	0.000000	0.000000	6.474926	-0.036054	NaN	0.000000	0.001672	0.001700	28.0812	0.038157	0.001924	19.8368	-74.2028	-164.639	-0.002868	0.473246	-0.504551	-0.505873	-0.036054	19.8368	-0.503188	-3.79735e+06	9.494572E-9	NaN
405	1.000000	0.482566	7.36902e+06	-56839.1	1005.82	-29738.2	0.000000	0.000000	6.482927	0.042790	NaN	0.000000	0.001675	0.001718	28.0812	0.060078	0.001960	30.6465	-38.4551	-163.594	-0.011932	0.481240	-0.496553	-0.497879	0.042790	30.6465	-0.497601	-3.17349e+06	-1.348362E-8	NaN
405	1.000000	0.490579	7.36902e+06	-56839.1	1005.82	-29738.2	0.000000	0.000000	6.490937	-0.043126	NaN	0.000000	0.001597	0.001727	28.0813	0.060416	0.001982	30.4767	-135.423	-164.175	-0.002626	0.489238	-0.488540	-0.489881	-0.043126	30.4767	-0.487478	-2.29164e+06	1.881877E-8	NaN
405	1.000000	0.498594	7.36902e+06	-56839.1	1005.82	-29738.2	0.000000	0.000000	6.498953	0.001326	NaN	0.000000	0.001597	0.001745	28.0811	0.170280	0.002052	82.9905	5.432454	-164.755	-0.100849	0.497264	-0.480525	-0.481855	0.001326	82.9905	-0.480537	-1.83252e+06	-7.238413E-10	NaN
405	1.000000	0.506599	7.36902e+06	-56839.1	1005.82	-29738.2	0.000000	0.000000	6.506959	0.014977	NaN	0.000000	0.001577	0.001734	28.0824	0.106567	0.002100	50.7397	-114.143	-165.265	0.011754	0.505313	-0.472520	-0.473806	0.014977	50.7397	-0.472741	-1.42508e+06	-1.050974E-8	NaN
405	1.000000	0.514594	7.36902e+06	-56839.1	1005.82	-29738.2	0.000000	0.000000	6.514951	-0.043409	NaN	0.000000	0.001615	0.001741	28.0824	0.099710	0.001972	50.5547	95.3778	-161.439	-0.055172	0.513334	-0.464525	-0.465785	-0.043409	50.5547	-0.463881	-1.07039e+06	4.055392E-8	NaN
405	1.000000	0.522578	7.36902e+06	-56839.1	1005.82	-29738.2	0.000000	0.000000	6.522939	0.017466	NaN	0.000000	0.001621	0.001724	28.0824	0.119660	0.002102	56.9333	0.769859	-163.938	0.070554	0.521297	-0.456541	-0.457822	0.017466	56.9333	-0.456771	-850395	-2.053917E-8	NaN
405	1.000000	0.530583	7.36902e+06	-56839.1	1005.82	-29738.2	0.000000	0.000000	6.530941	-0.032357	NaN	0.000000	0.001650	0.001748	28.0824	0.121302	0.001968	61.652	95.5638	-166.441	-0.028409	0.529276	-0.448536	-0.449843	-0.032357	61.652	-0.448143	-642961	5.032455E-8	NaN
405	1.000000	0.538556	7.36902e+06	-56839.1	1005.82	-29738.2	0.000000	0.000000	6.538915	-0.002187	NaN	0.000000	0.001621	0.001751	28.0824	0.081594	0.001980	41.2041	45.3105	-163.446	0.007105	0.537285	-0.440563	-0.441834	-0.002187	41.2041	-0.440523	-502049	4.355435E-9	NaN
405	1.000000	0.546621	7.36902e+06	-56839.1	1005.82	-29738.2	0.000000	0.000000	6.546980	-0.024700	NaN	0.000000	0.001616	0.001738	28.0823	0.039876	0.002042	19.524	172.477	-165.425	0.004224	0.545331	-0.432498	-0.433789	-0.024700	19.524	-0.431549	-374946	6.587612E-8	NaN
405	1.000000	0.554622	7.36902e+06	-56839.1	1005.82	-29738.2	0.000000	0.000000	6.554980	-0.050839	NaN	0.000000	0.001573	0.001727	28.0828	0.087561	0.002028	43.1782	-59.4233	-165.706	-0.063559	0.553276	-0.424497	-0.425843	-0.050839	43.1782	-0.423614	-289495	1.756122E-7	NaN
405	1.000000	0.562593	7.36902e+06	-56839.1	1005.82	-29738.2	0.000000	0.000000	6.562953	0.022815	NaN	0.000000	0.001612	0.001741	28.0824	0.124579	0.002031	61.3477	8.584173	-166.749	0.088756	0.561317	-0.416526	-0.417802	0.022815	61.3477	-0.416805	-231782	-9.843436E-8	NaN
405	1.000000	0.570620	7.36902e+06	-56839.1	1005.82	-29738.2	0.000000	0.000000	6.570977	-0.049159	NaN	0.000000	0.001635	0.001725	28.0825	0.048950	0.002002	24.4511	62.4845	-163.375	-0.007699	0.569338	-0.408499	-0.409782	-0.049159	24.4511	-0.406991	-168113	2.924185E-7	NaN
405	1.000000	0.578620	7.36902e+06	-56839.1	1005.82	-29738.2	0.000000	0.000000	6.578978	-0.026306	NaN	0.000000	0.001604	0.001715	28.0824	0.015635	0.001989	7.858924	45.2677	-166.161	-0.053181	0.577374	-0.400499	-0.401745	-0.026306	7.858924	-0.397989	-125112	2.102620E-7	NaN
405	1.000000	0.586646	7.36902e+06	-56839.1	1005.82	-29738.2	0.000000	0.000000	6.587005	-0.009287	NaN	0.000000	0.001568	0.001727	28.0826	0.144090	0.001972	73.0576	-57.4288	-165.108	0.007687	0.585300	-0.392473	-0.393819	-0.009287	73.0576	-0.392377	-104031	8.926831E-8	NaN
405	1.000000	0.594621	7.36902e+06	-56839.1	1005.82	-29738.2	0.000000	0.000000	6.594980	-0.006204	NaN	0.000000	0.001579	0.001724	28.0828	0.046815	0.002003	23.3774	141.917	-162.704	0.066789	0.593329	-0.384498	-0.385790	-0.006204	23.3774	-0.384299	-79714.6	7.782637E-8	NaN
405	1.000000	0.602616	7.36902e+06	-56839.1	1005.82	-29738.2	0.000000	0.000000	6.602974	-0.035501	NaN	0.000000	0.001602	0.001698	28.0825	0.025405	0.001959	12.9687	-150.678	-163.824	-0.013141	0.601297	-0.376503	-0.377822	-0.035501	12.9687	-0.374450	-57565.3	6.167138E-7	NaN
405	1.000000	0.610636	7.36902e+06	-56839.1	1005.82	-29738.2	0.000000	0.000000	6.610995	-0.024799	NaN	0.000000	0.001595	0.001695	28.0826	0.018376	0.001951	9.416404	79.7632	-161.814	0.018654	0.609268	-0.368483	-0.369851	-0.024799	9.416404	-0.366508	-44238.4	5.605743E-7	NaN
405	1.000000	0.618605	7.36902e+06	-56839.1	1005.82	-29738.2	0.000000	0.000000	6.618963	-0.050498	NaN	0.000000	0.001620	0.001706	28.0825	0.075780	0.001860	40.7442	10.5814	-164.688	0.011466	0.617362	-0.360514	-0.361757	-0.050498	40.7442	-0.359584	-35142.6	1.436938E-6	NaN
405	1.000000	0.626651	7.36902e+06	-56839.1	1005.82	-29738.2	0.000000	0.000000	6.627009	-0.026476	NaN	0.000000	0.001595	0.001680	28.0828	0.032991	0.001997	16.5166	108.546	-167.916	-0.024405	0.625302	-0.352468	-0.353817	-0.026476	16.5166	-0.351266	-26629.7	9.942157E-7	NaN
405	1.000000	0.634632	7.36902e+06	-56839.1	1005.82	-29738.2	0.000000	0.000000	6.634992	0.026091	NaN	0.000000	0.001620	0.001697	28.0826	0.107126	0.001838	58.2777	11.2103	-168.568	-0.012340	0.633314	-0.344487	-0.345805	0.026091	58.2777	-0.344823	-21467.7	-1.215375E-6	NaN
405	1.000000	0.642639	7.36902e+06	-56839.1	1005.82	-29738.2	0.000000	0.000000	6.642998	-0.024172	NaN	0.000000	0.001630	0.001706	28.0811	0.091542	0.002031	45.0662	100.63	-163.998	-0.029512	0.641326	-0.336480	-0.337793	-0.024172	45.0662	-0.336077	-16007.5	1.510066E-6	NaN
405	1.000000	0.650663	7.36902e+06	-56839.1	1005.82	-29738.2	0.000000	0.000000	6.651024	0.035436	NaN	0.000000	0.001639	0.001706	28.0812	0.074384	0.002170	34.2716	18.3507	-165.507	-0.004365	0.649364	-0.328456	-0.329755	0.035436	34.2716	-0.329231	-12711.3	-2.787767E-6	NaN
405	1.000000	0.658637	7.36902e+06	-56839.1	1005.82	-29738.2	0.000000	0.000000	6.658997	0.028783	NaN	0.000000	0.001651	0.001693	28.0811	0.057899	0.002061	28.0879	-147.706	-168.498	-0.074475	0.657333	-0.320482	-0.321786	0.028783	28.0879	-0.321251	-9706.07	-2.965478E-6	NaN
405	1.000000	0.666643	7.36902e+06	-56839.1	1005.82	-29738.2	0.000000	0.000000	6.667001	-0.036416	NaN	0.000000	0.001691	0.001702	28.0812	0.083488	0.002030	41.1186	-106.645	-163.841	-0.001552	0.665312	-0.312476	-0.313807	-0.036416	41.1186	-0.311812	-7044.52	5.169400E-6	NaN
405	1.000000	0.674659	7.36903e+06	-56839.1	1005.82	-29738.2	0.000000	0.000000	6.675018	0.003428	NaN	0.000000	0.001680	0.001693	28.0812	0.055116	0.001887	29.2099	-64.396	-163.483	-0.070788	0.673304	-0.304460	-0.305816	0.003428	29.2099	-0.304548	-5498.58	-6.234134E-7	NaN
405	1.000000	0.682654	7.36903e+06	-56839.1	1005.82	-29738.2	0.000000	0.000000	6.683012	-0.038460	NaN	0.000000	0.001686	0.001729	28.0812	0.063937	0.002013	31.7659	144.346	-167.001	-0.049430	0.681359	-0.296465	-0.297760	-0.038460	31.7659	-0.295557	-4040.18	9.519358E-6	NaN
405	1.000000	0.690673	7.36903e+06	-56839.1	1005.82	-29738.2	0.000000	0.000000	6.691032	-0.021202	NaN	0.000000	0.001714	0.001675	28.0811	0.078969	0.002048	38.5545	136.165	-161.915	0.012054	0.689369	-0.288446	-0.289750	-0.021202	38.5545	-0.288033	-3117.57	6.800872E-6	NaN
405	1.000000	0.698678	7.36903e+06	-56839.1	1005.82	-29738.2	0.000000	0.000000	6.699034	-0.095750	NaN	0.000000	0.001667	0.001671	28.0811	0.046652	0.001893	24.6454	-48.7878	-163.597	-0.056799	0.697307	-0.280441	-0.281812	-0.095750	24.6454	-0.277527	-2165.84	4.420920E-5	NaN
405	1.000000	0.706668	7.36903e+06	-56839.1	1005.82	-29738.2	0.000000	0.000000	6.707028	0.016803	NaN	0.000000	0.001659	0.001682	28.0812	0.038953	0.002073	18.7873	47.696	-162.131	0.006299	0.705349	-0.272451	-0.273770	0.016803	18.7873	-0.273122	-1857.57	-9.045920E-6	NaN
405	1.000000	0.714664	7.36903e+06	-56839.1	1005.82	-29738.2	0.000000	0.000000	6.715021	-0.037242	NaN	0.000000	0.001659	0.001670	28.081	0.148267	0.002106	70.3857	93.2061	-166.776	-0.078556	0.713352	-0.264455	-0.265767	-0.037242	70.3857	-0.264059	-1352.12	2.754376E-5	NaN
405	1.000000	0.722693	7.36903e+06	-56839.1	1005.82	-29738.2	0.000000	0.000000	6.723049	-0.066403	NaN	0.000000	0.001671	0.001694	28.0812	0.108735	0.002011	54.0768	162.226	-164.332	-0.078114	0.721358	-0.256426	-0.257761	-0.066403	54.0768	-0.255505	-999.757	6.641888E-5	NaN
405	1.000000	0.730670	7.36903e+06	-56839.1	1005.82	-29738.2	0.000000	0.000000	6.731027	-0.039936	NaN	0.000000	0.001644	0.001685	28.081	0.132894	0.002066	64.3302	-138.416	-166.357	-0.034229	0.729382	-0.248449	-0.249737	-0.039936	64.3302	-0.247984	-765.16	5.219360E-5	NaN
405	1.000000	0.738682	7.36903e+06	-56839.1	1005.82	-29738.2	0.000000	0.000000	6.739038	-0.073358	NaN	0.000000	0.001651	0.001729	28.081	0.103123	0.002063	49.9875	168.148	-164.725	-0.032501	0.737401	-0.240437	-0.241718	-0.073358	49.9875	-0.239337	-561.29	0.000131	NaN
405	1.000000	0.746668	7.36903e+06	-56839.1	1005.82	-29738.2	0.000000	0.000000	6.747028	0.023838	NaN	0.000000	0.001664	0.001757	28.0811	0.065596	0.001975	33.2162	128.159	-163.179	-0.033480	0.745329	-0.232451	-0.233790	0.023838	33.2162	-0.232989	-446.316	-5.341127E-5	NaN
405	1.000000	0.754712	7.36903e+06	-56839.1	1005.82	-29738.2	0.000000	0.000000	6.755069	-0.050273	NaN	0.000000	0.001685	0.001709	28.081	0.042668	0.001903	22.4251	53.5351	-166.107	-0.091357	0.753353	-0.224407	-0.225766	-0.050273	22.4251	-0.222726	-307.016	0.000164	NaN
405	1.000000	0.762672	7.36903e+06	-56839.1	1005.82	-29738.2	0.000000	0.000000	6.763031	0.002533	NaN	0.000000	0.001645	0.001683	28.081	0.055200	0.002057	26.8333	144.154	-162.771	0.014433	0.761379	-0.216447	-0.217741	0.002533	26.8333	-0.216518	-244.289	-1.036792E-5	NaN
405	1.000000	0.770698	7.36903e+06	-56839.1	1005.82	-29738.2	0.000000	0.000000	6.771056	-0.013222	NaN	0.000000	0.001664	0.001694	28.081	0.079969	0.002096	38.1613	-78.3329	-161.552	-0.045125	0.769403	-0.208421	-0.209716	-0.013222	38.1613	-0.208161	-179.063	7.384008E-5	NaN
405	1.000000	0.778672	7.36903e+06	-56839.1	1005.82	-29738.2	0.000000	0.000000	6.779030	-0.016911	NaN	0.000000	0.001658	0.001757	28.082	0.068898	0.002090	32.9691	126.183	-166.581	-0.080162	0.777425	-0.200447	-0.201694	-0.016911	32.9691	-0.200063	-132.046	0.000128	NaN
405	1.000000	0.786694	7.36903e+06	-56839.1	1005.82	-29738.2	0.000000	0.000000	6.787053	-0.003173	NaN	0.000000	0.001641	0.001745	28.0823	0.024083	0.002011	11.9742	-13.8462	-167.04	-0.041571	0.785418	-0.192425	-0.193701	-0.003173	11.9742	-0.192226	-97.9821	3.238805E-5	NaN
405	1.000000	0.794713	7.36903e+06	-56839.1	1005.82	-29738.2	0.000000	0.000000	6.795071	-0.037148	NaN	0.000000	0.001653	0.001752	28.0821	0.010341	0.001939	5.331848	143.628	-165.322	-0.048212	0.793350	-0.184406	-0.185769	-0.037148	5.331848	-0.179180	-59.0896	0.000629	NaN
405	1.000000	0.802695	7.36903e+06	-56839.1	1005.82	-29738.2	0.000000	0.000000	6.803055	0.013600	NaN	0.000000	0.001654	0.001720	28.0826	0.020131	0.002057	9.788148	55.3912	-169.098	0.007457	0.801409	-0.176424	-0.177710	0.013600	9.788148	-0.177466	-55.2392	-0.000246	NaN
405	1.000000	0.810707	7.36903e+06	-56839.1	1005.82	-29738.2	0.000000	0.000000	6.811066	-0.004425	NaN	0.000000	0.001661	0.001677	28.0822	0.135995	0.001930	70.4546	-6.850494	-167.202	-0.077999	0.809368	-0.168412	-0.169751	-0.004425	70.4546	-0.168365	-38.4741	0.000115	NaN
405	1.000000	0.818728	7.36903e+06	-56839.1	1005.82	-29738.2	0.000000	0.000000	6.819086	-0.030650	NaN	0.000000	0.001668	0.001705	28.0824	0.021579	0.001930	11.1794	52.5744	-167.714	0.002441	0.817467	-0.160391	-0.161653	-0.030650	11.1794	-0.158335	-25.6058	0.001197	NaN
405	1.000000	0.826717	7.36903e+06	-56839.1	1005.82	-29738.2	0.000000	0.000000	6.827076	0.012966	NaN	0.000000	0.001657	0.001660	28.0822	0.060095	0.002072	29.0039	118.871	-161.142	-0.027263	0.825401	-0.152402	-0.153718	0.012966	29.0039	-0.152738	-20.3118	-0.000638	NaN
405	1.000000	0.834718	7.36903e+06	-56839.1	1005.82	-29738.2	0.000000	0.000000	6.835077	-0.004564	NaN	0.000000	0.001667	0.001695	28.0823	0.007154	0.002082	3.435565	15.5959	-162.501	0.030313	0.833410	-0.144401	-0.145709	-0.004564	3.435565	-0.143405	-13.6959	0.000333	NaN
405	1.000000	0.842695	7.36903e+06	-56839.1	1005.82	-29738.2	0.000000	0.000000	6.843054	0.008430	NaN	0.000000	0.001664	0.001679	28.0826	0.083587	0.001806	46.2872	-95.6088	-168.203	0.043163	0.841441	-0.136424	-0.137678	0.008430	46.2872	-0.136561	-10.1863	-0.000828	NaN
405	1.000000	0.850727	7.36903e+06	-56839.1	1005.82	-29738.2	0.000000	0.000000	6.851084	-0.056240	NaN	0.000000	0.001675	0.001695	28.0822	0.052751	0.002181	24.1812	-121.171	-164.992	-0.034633	0.849383	-0.128392	-0.129736	-0.056240	24.1812	-0.126648	-6.553868	0.008581	NaN
405	1.000000	0.858719	7.36903e+06	-56839.1	1005.82	-29738.2	0.000000	0.000000	6.859077	-0.039238	NaN	0.000000	0.001703	0.001720	28.0824	0.101195	0.002142	47.2341	-37.2848	-169.093	0.028961	0.857428	-0.120400	-0.121691	-0.039238	47.2341	-0.119777	-4.781634	0.008206	NaN
405	1.000000	0.866732	7.36903e+06	-56839.1	1005.82	-29738.2	0.000000	0.000000	6.867089	-0.057572	NaN	0.000000	0.001696	0.001729	28.0821	0.092909	0.002061	45.0758	-161.116	-161.194	-0.097904	0.865398	-0.112387	-0.113721	-0.057572	45.0758	-0.111429	-3.220354	0.017878	NaN
405	1.000000	0.874778	7.36903e+06	-56839.1	1005.82	-29738.2	0.000000	0.000000	6.875132	-0.119233	NaN	0.000000	0.001677	0.001754	28.0822	0.047211	0.002027	23.2901	96.142	-164.914	-0.046108	0.873465	-0.104342	-0.105654	-0.119233	23.2901	-0.100502	-1.874495	0.063608	NaN
405	1.000000	0.882725	7.36903e+06	-56839.1	1005.82	-29738.2	0.000000	0.000000	6.883085	0.020372	NaN	0.000000	0.001673	0.001721	28.0823	0.086688	0.001968	44.0597	-176.401	-167.413	-0.069548	0.881427	-0.096394	-0.097692	0.020372	44.0597	-0.096741	-1.544828	-0.013187	NaN
405	1.000000	0.890733	7.36903e+06	-56839.1	1005.82	-29738.2	0.000000	0.000000	6.891093	0.011586	NaN	0.000000	0.001719	0.001721	28.082	0.054753	0.001949	28.0887	146.383	-166.931	0.047308	0.889451	-0.088386	-0.089668	0.011586	28.0887	-0.088695	-1.007110	-0.011504	NaN
405	1.000000	0.898763	7.36903e+06	-56839.1	1005.82	-29738.2	0.000000	0.000000	6.899124	0.033967	NaN	0.000000	0.001660	0.001742	28.0827	0.061617	0.001959	31.4602	60.732	-164.938	0.005664	0.897409	-0.080356	-0.081710	0.033967	31.4602	-0.081166	-0.661792	-0.051326	NaN
405	1.000000	0.906772	7.36903e+06	-56839.1	1005.82	-29738.2	0.000000	0.000000	6.907129	-0.055102	NaN	0.000000	0.001672	0.001735	28.0822	0.068541	0.002055	33.3491	39.9515	-165.885	-0.036511	0.905473	-0.072347	-0.073646	-0.055102	33.3491	-0.071108	-0.365144	0.150906	NaN
405	1.000000	0.914744	7.36903e+06	-56839.1	1005.82	-29738.2	0.000000	0.000000	6.915105	0.060009	NaN	0.000000	0.001661	0.001719	28.0811	0.033832	0.002018	16.7664	2.481945	-165.305	0.049619	0.913412	-0.064375	-0.065707	0.060009	16.7664	-0.067060	-0.283995	-0.211303	NaN
405	1.000000	0.922744	7.36903e+06	-56839.1	1005.82	-29738.2	0.000000	0.000000	6.923104	0.020785	NaN	0.000000	0.001638	0.001738	28.0809	0.111515	0.002026	55.0427	-113.839	-164.438	0.034947	0.921411	-0.056375	-0.057708	0.020785	55.0427	-0.056658	-0.144088	-0.144253	NaN
405	1.000000	0.930755	7.36903e+06	-56839.1	1005.82	-29738.2	0.000000	0.000000	6.931112	-0.054324	NaN	0.000000	0.001636	0.001711	28.0807	0.030434	0.002123	14.3349	124.567	-163.256	-0.089884	0.929481	-0.048364	-0.049638	-0.054324	14.3349	-0.045522	-0.066674	0.814766	NaN
405	1.000000	0.938771	7.36903e+06	-56839.1	1005.82	-29738.2	0.000000	0.000000	6.939132	0.048050	NaN	0.000000	0.001570	0.001700	28.0812	0.089682	0.002025	44.2775	135.052	-167.72	-0.002537	0.937445	-0.040348	-0.041674	0.048050	44.2775	-0.041162	-0.049058	-0.979442	NaN
405	1.000000	0.946752	7.36903e+06	-56839.1	1005.82	-29738.2	0.000000	0.000000	6.947112	0.009611	NaN	0.000000	0.001569	0.001713	28.0811	0.065176	0.001973	33.0295	105.611	-163.01	-0.049882	0.945467	-0.032367	-0.033652	0.009611	33.0295	-0.032585	-0.027237	-0.352856	NaN
405	1.000000	0.954758	7.36903e+06	-56839.1	1005.82	-29738.2	0.000000	0.000000	6.955116	-0.022163	NaN	0.000000	0.001570	0.001702	28.0811	0.082511	0.001944	42.4466	131.934	-164.632	-0.057870	0.953423	-0.024361	-0.025696	-0.022163	42.4466	-0.023970	-0.015862	1.397216	NaN
405	1.000000	0.962763	7.36903e+06	-56839.1	1005.82	-29738.2	0.000000	0.000000	6.963120	-0.057247	NaN	0.000000	0.001583	0.001651	28.0808	0.039950	0.002114	18.8962	-147.288	-167.532	-0.063559	0.961485	-0.016356	-0.017634	-0.057247	18.8962	-0.014084	-0.008733	6.555547	NaN
405	1.000000	0.970786	7.36903e+06	-56839.1	1005.82	-29738.2	0.000000	0.000000	6.971145	-0.003440	NaN	0.000000	0.001557	0.001679	28.0811	0.148676	0.001981	75.0538	116.84	-165.008	-0.039725	0.969419	-0.008333	-0.009700	-0.003440	75.0538	-0.008298	-0.005406	0.636379	NaN
405	1.000000	0.978759	7.36903e+06	-56839.1	1005.82	-29738.2	0.000000	0.000000	6.979120	0.028361	NaN	0.000000	0.001552	0.001702	28.0811	0.054212	0.001908	28.4163	11.5934	-163.297	-0.056958	0.977406	-0.000360	-0.001713	0.028361	28.4163	-0.001108	-0.000811	-34.9785	NaN
405	1.000000	0.986768	7.36903e+06	-56839.1	1005.82	-29738.2	0.000000	0.000000	6.987406	6.780546	NaN	0.000000	0.001549	0.001697	28.0812	7.272104	0.001739	4182.65	14.0064	-171.152	5.649605	0.985435	0.007648	0.006316	6.780546	4182.65	0.006433	0.005479	1237.51	51625.8
405	2.000000	0.990367	7.36903e+06	-56839.1	1005.82	-29738.2	0.000000	0.000000	6.991221	12.0318	NaN	0.000000	0.001582	0.001671	28.0813	10.6886	0.001590	6721.03	5.649344	-173.065	11.534	0.990077	0.011248	0.010958	12.0318	6721.03	0.009905	0.009076	1325.63	64454.8
405	2.000000	0.992337	7.36903e+06	-56839.1	1005.82	-29738.2	0.000000	0.000000	6.993190	12.0004	NaN	0.000000	0.001603	0.001689	28.0811	12.9806	0.001696	7652.86	6.790708	-173.178	11.8671	0.992087	0.013218	0.012968	12.0004	7652.86	0.012042	0.011541	1039.82	65084.7
405	2.000000	0.994323	7.36903e+06	-56839.1	1005.82	-29738.2	0.000000	0.000000	6.995316	15.4104	NaN	0.000000	0.001577	0.001705	28.0813	14.378	0.001635	8796.13	3.134914	-171.714	14.9582	0.994052	0.015203	0.014933	15.4104	8796.13	0.013890	0.013833	1114.03	68329.2
405	2.000000	0.996346	7.36903e+06	-56839.1	1005.82	-29738.2	0.000000	0.000000	6.997474	18.6656	NaN	0.000000	0.001615	0.001628	28.081	16.9787	0.001816	9350.95	9.721272	-176.76	19.5276	0.995951	0.017227	0.016832	18.6656	9350.95	0.015730	0.016271	1147.15	66975.6
405	2.000000	0.998355	7.36903e+06	-56839.1	1005.82	-29738.2	0.000000	0.000000	6.999575	20.9287	NaN	0.000000	0.001568	0.001650	28.0809	19.096	0.001790	10670.5	3.291615	-171.525	21.4672	0.997989	0.019236	0.018870	20.9287	10670.5	0.017764	0.019150	1092.86	70448.2
405	2.000000	1.000312	7.36903e+06	-56839.1	1005.82	-29738.2	0.000000	0.000000	7.001689	24.7288	NaN	0.000000	0.001589	0.001681	28.0814	21.3615	0.001821	11732.1	7.799981	-177.837	24.3638	0.999956	0.021193	0.020837	24.7288	11732.1	0.019612	0.021936	1127.3	72371.5
405	2.000000	1.002279	7.36903e+06	-56839.1	1005.82	-29738.2	0.000000	0.000000	7.003749	26.9983	NaN	0.000000	0.001612	0.001661	28.0811	23.9961	0.001869	12839	9.802089	178.733	25.4671	1.001913	0.023160	0.022794	26.9983	12839	0.021583	0.025091	1076.02	74053.8
405	2.000000	1.004228	7.36903e+06	-56839.1	1005.82	-29738.2	0.000000	0.000000	7.005909	32.1144	NaN	0.000000	0.001615	0.001684	28.0823	24.8072	0.001832	13539.7	1.858183	-174.287	30.1826	1.003969	0.025109	0.024850	32.1144	13539.7	0.023330	0.028048	1144.98	73863.7
405	2.000000	1.006295	7.36903e+06	-56839.1	1005.82	-29738.2	0.000000	0.000000	7.008250	38.7836	NaN	0.000000	0.001609	0.001632	28.0824	27.4418	0.001752	15663.5	4.072434	-177.5	38.7939	1.005961	0.027176	0.026842	38.7836	15663.5	0.025319	0.031599	1227.36	80505.2
405	2.000000	1.008331	7.36903e+06	-56839.1	1005.82	-29738.2	0.000000	0.000000	7.010425	42.1735	NaN	0.000000	0.001630	0.001651	28.0822	30.1938	0.001789	16875.9	7.907553	178.181	42.5692	1.007975	0.029212	0.028856	42.1735	16875.9	0.027338	0.035406	1191.13	81940.6
405	2.000000	1.010244	7.36903e+06	-56839.1	1005.82	-29738.2	0.000000	0.000000	7.012508	46.2908	NaN	0.000000	0.001593	0.001649	28.0826	31.1551	0.001821	17107.5	2.837526	-176.731	44.5092	1.009967	0.031125	0.030848	46.2908	17107.5	0.029096	0.038890	1190.3	79257.6
405	2.000000	1.012267	7.36903e+06	-56839.1	1005.82	-29738.2	0.000000	0.000000	7.014768	52.0418	NaN	0.000000	0.001598	0.001633	28.0821	33.3427	0.001812	18400.7	4.688710	-178.625	51.6991	1.011961	0.033148	0.032841	52.0418	18400.7	0.031027	0.042899	1213.11	81167.4
405	2.000000	1.014262	7.36903e+06	-56839.1	1005.82	-29738.2	0.000000	0.000000	7.016963	56.9166	NaN	0.000000	0.001576	0.001638	28.0824	34.9492	0.001858	18813.3	6.395216	178.712	55.6962	1.013810	0.035143	0.034691	56.9166	18813.3	0.032874	0.046911	1213.29	79359.7
405	2.000000	1.016251	7.36903e+06	-56839.1	1005.82	-29738.2	0.000000	0.000000	7.019176	62.3661	NaN	0.000000	0.001560	0.001655	28.0826	37.0079	0.001794	20633.9	6.163882	177.8	61.0189	1.015918	0.037132	0.036799	62.3661	20633.9	0.034865	0.051432	1212.6	83126.6
405	2.000000	1.018260	7.36903e+06	-56839.1	1005.82	-29738.2	0.000000	0.000000	7.021398	67.5463	NaN	0.000000	0.001553	0.001596	28.0822	39.0341	0.001787	21844.1	5.580626	178.803	67.5065	1.017906	0.039141	0.038787	67.5463	21844.1	0.036822	0.056073	1204.62	84281.4
405	2.000000	1.020232	7.36903e+06	-56839.1	1005.82	-29738.2	0.000000	0.000000	7.023604	73.2329	NaN	0.000000	0.001530	0.001652	28.0824	40.5129	0.001892	21407.1	5.311510	179.014	72.4428	1.020017	0.041113	0.040898	73.2329	21407.1	0.038547	0.060328	1213.92	79629.3
405	2.000000	1.022259	7.36903e+06	-56839.1	1005.82	-29738.2	0.000000	0.000000	7.025734	75.7248	NaN	0.000000	0.001567	0.001633	28.0823	42.3153	0.001808	23405.2	3.110894	179.48	73.5787	1.022027	0.043140	0.042908	75.7248	23405.2	0.040714	0.065886	1149.34	83308.5
405	2.000000	1.024250	7.36903e+06	-56839.1	1005.82	-29738.2	0.000000	0.000000	7.028334	90.5178	NaN	0.000000	0.001652	0.001633	28.0825	43.1672	0.001706	25307.1	3.706226	179.178	89.5464	1.023864	0.045131	0.044745	90.5178	25307.1	0.042449	0.070510	1283.75	87074.2
405	2.000000	1.026188	7.36903e+06	-56839.1	1005.82	-29738.2	0.000000	0.000000	7.030550	97.2901	NaN	0.000000	0.001671	0.001604	28.0827	46.2215	0.001860	24854	2.142123	-179.682	92.8785	1.025836	0.047069	0.046717	97.2901	24854	0.044133	0.075146	1294.69	82835.8
405	2.000000	1.028253	7.36903e+06	-56839.1	1005.82	-29738.2	0.000000	0.000000	7.032956	105.579	NaN	0.000000	0.001627	0.001635	28.0826	47.7965	0.001765	27079.4	2.931828	179.18	104.248	1.027898	0.049134	0.048779	105.579	27079.4	0.046209	0.081058	1302.52	86899.1
405	2.000000	1.030217	7.36903e+06	-56839.1	1005.82	-29738.2	0.000000	0.000000	7.035192	112.168	NaN	0.000000	0.001535	0.001672	28.0825	49.7346	0.001873	26551.1	4.708286	177.551	111.787	1.029930	0.051098	0.050811	112.168	26551.1	0.047930	0.086122	1302.43	82660.6
405	2.000000	1.032161	7.36903e+06	-56839.1	1005.82	-29738.2	0.000000	0.000000	7.037319	116.631	NaN	0.000000	0.001573	0.001629	28.0824	51.1621	0.001774	28843.6	0.592418	-179.801	112.518	1.032035	0.053042	0.052916	116.631	28843.6	0.050010	0.092443	1261.66	86673.5
405	2.000000	1.034143	7.36903e+06	-56839.1	1005.82	-29738.2	0.000000	0.000000	7.039975	133.022	NaN	0.000000	0.001569	0.001662	28.0823	52.0229	0.001817	28635.6	4.031832	177.428	128.669	1.033856	0.055024	0.054737	133.022	28635.6	0.051540	0.097231	1368.1	83902.9
405	2.000000	1.036155	7.36903e+06	-56839.1	1005.82	-29738.2	0.000000	0.000000	7.042276	140.056	NaN	0.000000	0.001614	0.001604	28.0825	54.6587	0.001793	30489.6	5.283640	175.804	136.093	1.035889	0.057036	0.056770	140.056	30489.6	0.053590	0.103833	1348.86	86448.5
405	2.000000	1.038273	7.36903e+06	-56839.1	1005.82	-29738.2	0.000000	0.000000	7.044634	145.875	NaN	0.000000	0.001596	0.001622	28.0811	57.1705	0.001838	31096.8	6.470381	174.676	149.537	1.037894	0.059154	0.058775	145.875	31096.8	0.055636	0.110625	1318.64	85420.4
405	2.000000	1.040293	7.36903e+06	-56839.1	1005.82	-29738.2	0.000000	0.000000	7.046975	153.68	NaN	0.000000	0.001631	0.001675	28.0816	58.2649	0.001811	32164.7	7.319827	173.453	156.788	1.039868	0.061173	0.060749	153.68	32164.7	0.057590	0.117309	1310.05	85800.1
405	2.000000	1.042187	7.36903e+06	-56839.1	1005.82	-29738.2	0.000000	0.000000	7.049404	166.683	NaN	0.000000	0.001661	0.001643	28.0812	60.3641	0.001666	36230.8	5.241518	174.547	165.545	1.041856	0.063068	0.062737	166.683	36230.8	0.059618	0.124440	1339.46	93836.2
405	2.000000	1.044187	7.36903e+06	-56839.1	1005.82	-29738.2	0.000000	0.000000	7.051827	176.955	NaN	0.000000	0.001669	0.001654	28.0811	61.4868	0.001734	35453.3	2.917987	176.734	173.901	1.043896	0.065068	0.064777	176.955	35453.3	0.061325	0.130602	1354.91	89630.2
405	2.000000	1.046163	7.36903e+06	-56839.1	1005.82	-29738.2	0.000000	0.000000	7.054027	182.397	NaN	0.000000	0.001712	0.001585	28.0812	64.785	0.001774	36529.3	1.380984	177.806	177.971	1.045863	0.067044	0.066744	182.397	36529.3	0.063299	0.137905	1322.63	89872.1
405	2.000000	1.048257	7.36903e+06	-56839.1	1005.82	-29738.2	0.000000	0.000000	7.056612	194.346	NaN	0.000000	0.001701	0.001620	28.0811	67.7082	0.001786	37916.8	5.164911	174.223	195.827	1.047898	0.069138	0.068779	194.346	37916.8	0.065294	0.145472	1335.97	90827.1
405	2.000000	1.050208	7.36903e+06	-56839.1	1005.82	-29738.2	0.000000	0.000000	7.059087	207.079	NaN	0.000000	0.001672	0.001639	28.0814	69.6665	0.001741	40020.7	7.171006	171.839	208.781	1.049887	0.071089	0.070768	207.079	40020.7	0.067208	0.152916	1354.2	93504.1
405	2.000000	1.052152	7.36903e+06	-56839.1	1005.82	-29738.2	0.000000	0.000000	7.061599	220.869	NaN	0.000000	0.001657	0.001621	28.0814	71.1675	0.001846	38547.6	1.668612	177.323	216.115	1.051975	0.073033	0.072855	220.869	38547.6	0.068736	0.158984	1389.26	88327.3
405	2.000000	1.054192	7.36903e+06	-56839.1	1005.82	-29738.2	0.000000	0.000000	7.064086	231.756	NaN	0.000000	0.001653	0.001655	28.0811	72.4283	0.001736	41722.1	6.403010	172.17	231.445	1.053835	0.075073	0.074716	231.756	41722.1	0.070907	0.167795	1381.18	93057.1
405	2.000000	1.056107	7.36903e+06	-56839.1	1005.82	-29738.2	0.000000	0.000000	7.066383	241.022	NaN	0.000000	0.001688	0.001629	28.0813	74.951	0.001785	41999.4	5.023416	173.073	235.879	1.055971	0.076988	0.076852	241.022	41999.4	0.072684	0.175179	1375.87	91680.2
405	2.000000	1.058263	7.36903e+06	-56839.1	1005.82	-29738.2	0.000000	0.000000	7.069263	258.625	NaN	0.000000	0.001610	0.001654	28.0811	75.8661	0.001844	41150.5	3.006413	176.177	258.524	1.057916	0.079144	0.078797	258.625	41150.5	0.074430	0.182576	1416.54	87988.8
405	2.000000	1.060185	7.36903e+06	-56839.1	1005.82	-29738.2	0.000000	0.000000	7.071622	269.27	NaN	0.000000	0.001616	0.001690	28.0814	77.4553	0.001668	46438.2	3.378007	173.852	268.531	1.059834	0.081065	0.080715	269.27	46438.2	0.076717	0.192479	1398.96	96706.9
405	2.000000	1.062202	7.36903e+06	-56839.1	1005.82	-29738.2	0.000000	0.000000	7.074126	281.087	NaN	0.000000	0.001586	0.001632	28.0815	81.2337	0.001833	44316.8	3.983096	174.583	279.629	1.061908	0.083083	0.082789	281.087	44316.8	0.078326	0.199598	1408.27	90628.3
405	2.000000	1.064207	7.36903e+06	-56839.1	1005.82	-29738.2	0.000000	0.000000	7.076918	300.214	NaN	0.000000	0.001634	0.001663	28.0813	81.8357	0.001804	45353.9	5.608930	173.211	300.346	1.063753	0.085088	0.084634	300.214	45353.9	0.080123	0.207689	1445.5	90924.6
405	2.000000	1.066112	7.36903e+06	-56839.1	1005.82	-29738.2	0.000000	0.000000	7.079330	312.55	NaN	0.000000	0.001634	0.001701	28.0813	84.4846	0.001769	47766.9	2.743270	175.414	306.484	1.065716	0.086993	0.086597	312.55	47766.9	0.082085	0.216694	1442.36	93751.2
405	2.000000	1.068191	7.36903e+06	-56839.1	1005.82	-29738.2	0.000000	0.000000	7.081562	316.259	NaN	0.000000	0.001673	0.001689	28.0811	87.8129	0.001866	47071.8	4.046809	173.438	313.203	1.067959	0.089072	0.088840	316.259	47071.8	0.084033	0.225808	1400.56	90503.3
405	2.000000	1.070196	7.36903e+06	-56839.1	1005.82	-29738.2	0.000000	0.000000	7.084412	336.81	NaN	0.000000	0.001695	0.001628	28.0811	88.6228	0.001894	46785.6	1.542807	176.559	336.053	1.069831	0.091076	0.090712	336.81	46785.6	0.085677	0.233643	1441.56	88431.9
405	2.000000	1.072117	7.36903e+06	-56839.1	1005.82	-29738.2	0.000000	0.000000	7.086943	351.614	NaN	0.000000	0.001660	0.001623	28.0819	91.7514	0.001780	51548.5	3.566338	173.204	346.768	1.071882	0.092998	0.092763	351.614	51548.5	0.087882	0.244343	1439.02	95277.3
405	2.000000	1.074109	7.36903e+06	-56839.1	1005.82	-29738.2	0.000000	0.000000	7.089410	363.175	NaN	0.000000	0.001687	0.001633	28.0824	91.4906	0.001655	55275.5	1.835797	174.976	358.186	1.073880	0.094990	0.094761	363.175	55275.5	0.090062	0.255142	1423.43	99980.4
405	2.000000	1.076083	7.36903e+06	-56839.1	1005.82	-29738.2	0.000000	0.000000	7.091692	370.669	NaN	0.000000	0.001685	0.001640	28.0826	93.8984	0.001726	54394.8	1.580790	175.026	364.516	1.075847	0.096964	0.096728	370.669	54394.8	0.091853	0.264174	1403.13	96691
405	2.000000	1.078147	7.36903e+06	-56839.1	1005.82	-29738.2	0.000000	0.000000	7.094772	395.365	NaN	0.000000	0.001675	0.001640	28.0823	97.2811	0.001859	52322.4	6.172696	170.845	391.218	1.077912	0.099028	0.098793	395.365	52322.4	0.093360	0.271892	1454.12	91677.5
405	2.000000	1.080143	7.36903e+06	-56839.1	1005.82	-29738.2	0.000000	0.000000	7.097522	413.69	NaN	0.000000	0.001683	0.001655	28.0824	98.3948	0.001819	54088.9	3.236543	173.676	411.208	1.079779	0.101024	0.100660	413.69	54088.9	0.095287	0.281908	1467.46	93073.8
405	2.000000	1.082221	7.36903e+06	-56839.1	1005.82	-29738.2	0.000000	0.000000	7.099874	420.351	NaN	0.000000	0.001682	0.001639	28.0823	101.574	0.001879	54053.6	4.778852	171.932	422.149	1.081991	0.103102	0.102872	420.351	54053.6	0.097269	0.292388	1437.65	91330.9
405	2.000000	1.084329	7.36903e+06	-56839.1	1005.82	-29738.2	0.000000	0.000000	7.102511	433.204	NaN	0.000000	0.001668	0.001615	28.0825	101.898	0.001782	57187.7	4.190848	172.766	442.216	1.083880	0.105210	0.104761	433.204	57187.7	0.099528	0.304551	1422.43	94677.3
405	2.000000	1.086139	7.36903e+06	-56839.1	1005.82	-29738.2	0.000000	0.000000	7.105137	453.044	NaN	0.000000	0.001672	0.001659	28.0827	103.756	0.001809	57346.5	5.279605	171.234	449.789	1.085857	0.107020	0.106738	453.044	57346.5	0.101095	0.313120	1446.87	93632.2
405	2.000000	1.087150	7.36903e+06	-56839.1	1005.82	-29738.2	0.000000	0.000000	7.106518	462.008	NaN	0.000000	0.001706	0.001653	28.0823	103.604	0.001684	61519	3.625588	172.223	461.637	1.086855	0.108031	0.107736	462.008	61519	0.102399	0.320339	1442.25	99306.5