File: remote_trans/data/nanoindenter/0828-1/data/Data_2025-08-06,11h17m57s/2025-07-22_16-23-58_1_60.txt
2025-07-22, 16:23:58, 1
Index	Phase	Displacement	Time	Pos X	Pos Y	Pos Z	Rot A	Rot B	Piezo Z	Force A	Force B	Gripper	Voltage A	Voltage B	Temperature	Amplitude force	Amplitude pos	Stiffness	Phase shift	Phase excitation	Force A raw	Displacement raw	HMax	HMax raw	Real Force	Real Stiffness	Contact Depth	Area	Hardness	Reduced Mod.
[#]	[#]	[um]	[s]	[um]	[um]	[um]	[m°]	[m°]	[um]	[uN]	[uN]	[V]	[V]	[V]	[°C]	[uN]	[um]	[N/m]	[°]	[°]	[uN]	[um]	[um]	[um]	[uN]	[N/m]	[um]	[um^2]	[MPa]	[MPa]
60	1.000000	0.002696	7.36563e+06	-41639.1	955.819	-29786.3	0.000000	0.000000	6.002786	-0.034382	NaN	0.000000	0.001665	0.001722	28.081	0.064711	0.000924	70.0561	-104.237	-165.102	-0.035672	0.001402	-0.981885	-0.983178	-0.034382	70.0561	-0.981517	-1.278926E+13	2.688381E-15	NaN
60	1.000000	0.010685	7.36563e+06	-41639.1	955.82	-29786.3	0.000000	0.000000	6.010775	-0.029583	NaN	0.000000	0.001669	0.001732	28.0831	0.063158	0.000969	65.1848	7.809256	-166.808	-0.056296	0.009366	-0.973896	-0.975215	-0.029583	65.1848	-0.973555	-9.990186E+12	2.961234E-15	NaN
60	1.000000	0.018655	7.36563e+06	-41639.1	955.819	-29786.3	0.000000	0.000000	6.018748	0.037077	NaN	0.000000	0.001603	0.001720	28.0816	0.112942	0.001693	66.7027	98.5908	-163.41	-0.026689	0.017329	-0.965926	-0.967251	0.037077	66.7027	-0.966343	-7.986750E+12	-4.642254E-15	NaN
60	1.000000	0.026739	7.36563e+06	-41639.1	955.818	-29786.3	0.000000	0.000000	6.026829	-0.039264	NaN	0.000000	0.001591	0.001743	28.081	0.071846	0.001918	37.4565	-159.67	-162.515	0.006331	0.025370	-0.957842	-0.959210	-0.039264	37.4565	-0.957056	-5.986520E+12	6.558813E-15	NaN
60	1.000000	0.034647	7.36563e+06	-41639.1	955.819	-29786.3	0.000000	0.000000	6.034738	-0.011923	NaN	0.000000	0.001597	0.001735	28.0821	0.064434	0.002033	31.6921	-62.4851	-166.238	0.029888	0.033310	-0.949934	-0.951270	-0.011923	31.6921	-0.949652	-4.756967E+12	2.506327E-15	NaN
60	1.000000	0.042671	7.36563e+06	-41639.1	955.819	-29786.3	0.000000	0.000000	6.042762	-0.012429	NaN	0.000000	0.001626	0.001736	28.0798	0.048968	0.002020	24.2452	160.399	-163.836	0.001929	0.041364	-0.941909	-0.943216	-0.012429	24.2452	-0.941525	-3.695808E+12	3.362987E-15	NaN
60	1.000000	0.050664	7.36563e+06	-41639.1	955.819	-29786.3	0.000000	0.000000	6.050755	-0.005276	NaN	0.000000	0.001567	0.001755	28.0803	0.042355	0.002020	20.9706	-143.175	-165.036	0.039347	0.049340	-0.933917	-0.935241	-0.005276	20.9706	-0.933728	-2.900731E+12	1.818908E-15	NaN
60	1.000000	0.058653	7.36563e+06	-41639.1	955.819	-29786.3	0.000000	0.000000	6.058746	0.039941	NaN	0.000000	0.001601	0.001759	28.0804	0.175650	0.002041	86.0676	-160.769	-163.911	0.053848	0.057320	-0.925928	-0.927261	0.039941	86.0676	-0.926276	-2.301064E+12	-1.735769E-14	NaN
60	1.000000	0.066684	7.36563e+06	-41639.1	955.819	-29786.3	0.000000	0.000000	6.066777	0.044298	NaN	0.000000	0.001606	0.001697	28.0802	0.151748	0.002030	74.7612	-150.044	-164.22	0.131868	0.065316	-0.917897	-0.919264	0.044298	74.7612	-0.918341	-1.798084E+12	-2.463634E-14	NaN
60	1.000000	0.074667	7.36563e+06	-41639.1	955.819	-29786.3	0.000000	0.000000	6.074760	0.050333	NaN	0.000000	0.001588	0.001725	28.0803	0.044666	0.001997	22.3627	77.881	-166.199	-0.036283	0.073385	-0.909914	-0.911195	0.050333	22.3627	-0.911602	-1.458137E+12	-3.451865E-14	NaN
60	1.000000	0.082659	7.36563e+06	-41639.1	955.819	-29786.3	0.000000	0.000000	6.082752	0.021124	NaN	0.000000	0.001555	0.001733	28.0804	0.150281	0.001997	75.2375	79.9691	-162.08	0.087667	0.081368	-0.901921	-0.903212	0.021124	75.2375	-0.902132	-1.086111E+12	-1.944897E-14	NaN
60	1.000000	0.090707	7.36563e+06	-41639.1	955.819	-29786.3	0.000000	0.000000	6.090800	0.023342	NaN	0.000000	0.001566	0.001776	28.0807	0.060799	0.001927	31.5588	115.183	-165.932	0.035606	0.089357	-0.893874	-0.895224	0.023342	31.5588	-0.894428	-8.546184E+11	-2.731320E-14	NaN
60	1.000000	0.098707	7.36563e+06	-41639.1	955.818	-29786.3	0.000000	0.000000	6.098797	-0.023847	NaN	0.000000	0.001599	0.001779	28.0814	0.106239	0.001947	54.5519	119.322	-163.86	0.002733	0.097375	-0.885874	-0.887205	-0.023847	54.5519	-0.885546	-6.481885E+11	3.678949E-14	NaN
60	1.000000	0.106682	7.36563e+06	-41639.1	955.818	-29786.3	0.000000	0.000000	6.106776	0.060096	NaN	0.000000	0.001599	0.001761	28.0803	0.047156	0.002017	23.3793	99.3838	-166.587	0.082413	0.105411	-0.877899	-0.879169	0.060096	23.3793	-0.879827	-5.424566E+11	-1.107856E-13	NaN
60	1.000000	0.114690	7.36563e+06	-41639.1	955.818	-29786.3	0.000000	0.000000	6.114785	0.081100	NaN	0.000000	0.001646	0.001709	28.081	0.118545	0.002002	59.2189	-86.0836	-161.606	0.114237	0.113337	-0.869891	-0.871244	0.081100	59.2189	-0.870918	-4.110169E+11	-1.973167E-13	NaN
60	1.000000	0.122690	7.36563e+06	-41639.1	955.818	-29786.3	0.000000	0.000000	6.122781	-0.019703	NaN	0.000000	0.001656	0.001706	28.0796	0.032432	0.001932	16.7894	50.2825	-167.551	-0.008194	0.121370	-0.861890	-0.863210	-0.019703	16.7894	-0.861010	-3.018507E+11	6.527421E-14	NaN
60	1.000000	0.130698	7.36563e+06	-41639.1	955.819	-29786.3	0.000000	0.000000	6.130791	0.033145	NaN	0.000000	0.001679	0.001658	28.0787	0.054202	0.002059	26.3228	-169.182	-167.245	-0.012072	0.129394	-0.853883	-0.855186	0.033145	26.3228	-0.854827	-2.489426E+11	-1.331443E-13	NaN
60	1.000000	0.138698	7.36563e+06	-41639.1	955.818	-29786.3	0.000000	0.000000	6.138791	0.018029	NaN	0.000000	0.001677	0.001721	28.0786	0.057493	0.002000	28.7412	-154.004	-164.911	0.058922	0.137388	-0.845882	-0.847193	0.018029	28.7412	-0.846353	-1.911371E+11	-9.432497E-14	NaN
60	1.000000	0.146712	7.36563e+06	-41639.1	955.818	-29786.3	0.000000	0.000000	6.146804	0.018322	NaN	0.000000	0.001646	0.001735	28.078	0.154355	0.001933	79.8595	-155.403	-162.366	0.054629	0.145366	-0.837869	-0.839214	0.018322	79.8595	-0.838041	-1.474863E+11	-1.242253E-13	NaN
60	1.000000	0.154709	7.36563e+06	-41639.1	955.818	-29786.3	0.000000	0.000000	6.154800	-0.002126	NaN	0.000000	0.001630	0.001707	28.0791	0.020488	0.001952	10.4937	-112.913	-162.778	-0.068809	0.153428	-0.829872	-0.831153	-0.002126	10.4937	-0.829720	-1.137600E+11	1.868664E-14	NaN
60	1.000000	0.162685	7.36563e+06	-41639.1	955.818	-29786.3	0.000000	0.000000	6.162777	0.008744	NaN	0.000000	0.001633	0.001736	28.0783	0.152502	0.002077	73.4407	61.5511	-165.066	0.091101	0.161369	-0.821896	-0.823211	0.008744	73.4407	-0.821985	-8.935717E+10	-9.785624E-14	NaN
60	1.000000	0.170722	7.36563e+06	-41639.1	955.818	-29786.3	0.000000	0.000000	6.170814	0.028020	NaN	0.000000	0.001656	0.001704	28.0804	0.116506	0.002009	57.9813	-159.467	-165.182	-0.032349	0.169393	-0.813859	-0.815188	0.028020	57.9813	-0.814221	-7.011952E+10	-3.996000E-13	NaN
60	1.000000	0.178709	7.36563e+06	-41639.1	955.819	-29786.3	0.000000	0.000000	6.178801	-0.008400	NaN	0.000000	0.001597	0.001733	28.0802	0.101983	0.002035	50.1229	44.6267	-164.313	0.010563	0.177396	-0.805871	-0.807185	-0.008400	50.1229	-0.805746	-5.380750E+10	1.561073E-13	NaN
60	1.000000	0.186705	7.36563e+06	-41639.1	955.818	-29786.3	0.000000	0.000000	6.186795	-0.025602	NaN	0.000000	0.001593	0.001710	28.0796	0.077200	0.001935	39.9063	46.8708	-164.805	0.038452	0.185365	-0.797876	-0.799215	-0.025602	39.9063	-0.797395	-4.144740E+10	6.177100E-13	NaN
60	1.000000	0.194710	7.36563e+06	-41639.1	955.819	-29786.3	0.000000	0.000000	6.194803	0.018608	NaN	0.000000	0.001634	0.001703	28.081	0.059124	0.001941	30.4663	-135.526	-166.823	-0.020051	0.193406	-0.789870	-0.791175	0.018608	30.4663	-0.790328	-3.323100E+10	-5.599542E-13	NaN
60	1.000000	0.202715	7.36563e+06	-41639.1	955.819	-29786.3	0.000000	0.000000	6.202806	-0.009383	NaN	0.000000	0.001623	0.001730	28.0783	0.066892	0.002025	33.0313	-129.598	-162.879	0.045099	0.201418	-0.781866	-0.783162	-0.009383	33.0313	-0.781653	-2.533309E+10	3.703833E-13	NaN
60	1.000000	0.210745	7.36563e+06	-41639.1	955.819	-29786.3	0.000000	0.000000	6.210837	0.004577	NaN	0.000000	0.001664	0.001685	28.0796	0.128893	0.001988	64.8295	127.479	-162.674	0.011067	0.209416	-0.773835	-0.775164	0.004577	64.8295	-0.773888	-1.986853E+10	-2.303709E-13	NaN
60	1.000000	0.218729	7.36563e+06	-41639.1	955.819	-29786.3	0.000000	0.000000	6.218818	-0.059697	NaN	0.000000	0.001614	0.001724	28.0785	0.037977	0.001952	19.4525	-106.577	-166.599	-0.083195	0.217444	-0.765852	-0.767136	-0.059697	19.4525	-0.763550	-1.437452E+10	4.152967E-12	NaN
60	1.000000	0.226719	7.36563e+06	-41639.1	955.818	-29786.3	0.000000	0.000000	6.226813	0.055938	NaN	0.000000	0.001599	0.001717	28.0796	0.065267	0.001984	32.8921	-98.1594	-163.694	0.060813	0.225454	-0.757862	-0.759127	0.055938	32.8921	-0.759137	-1.251877E+10	-4.468348E-12	NaN
60	1.000000	0.234729	7.36563e+06	-41639.1	955.819	-29786.3	0.000000	0.000000	6.234825	0.091529	NaN	0.000000	0.001559	0.001712	28.0785	0.065421	0.002059	31.7735	-142.499	-161.904	0.056086	0.233382	-0.749851	-0.751199	0.091529	31.7735	-0.752012	-1.001386E+10	-9.140207E-12	NaN
60	1.000000	0.242745	7.36563e+06	-41639.1	955.819	-29786.3	0.000000	0.000000	6.242838	0.039475	NaN	0.000000	0.001542	0.001720	28.0808	0.038804	0.001972	19.6735	-138.028	-163.602	0.121624	0.241443	-0.741836	-0.743138	0.039475	19.6735	-0.743340	-7.630456E+9	-5.173388E-12	NaN
60	1.000000	0.250733	7.36563e+06	-41639.1	955.818	-29786.3	0.000000	0.000000	6.250825	-0.005669	NaN	0.000000	0.001581	0.001738	28.0814	0.046289	0.001954	23.69	-125.025	-165.569	-0.017609	0.249432	-0.733847	-0.735148	-0.005669	23.69	-0.733668	-5.633699E+9	1.006268E-12	NaN
60	1.000000	0.258748	7.36563e+06	-41639.1	955.819	-29786.3	0.000000	0.000000	6.258840	0.011076	NaN	0.000000	0.001613	0.001763	28.0802	0.016696	0.002014	8.290700	45.8149	-162.263	-0.040386	0.257448	-0.725832	-0.727133	0.011076	8.290700	-0.726834	-4.546277E+9	-2.436258E-12	NaN
60	1.000000	0.266738	7.36563e+06	-41639.1	955.819	-29786.3	0.000000	0.000000	6.266832	0.043940	NaN	0.000000	0.001610	0.001764	28.0803	0.046787	0.001954	23.9475	-128.032	-163.951	-0.022224	0.265381	-0.717842	-0.719199	0.043940	23.9475	-0.719218	-3.579434E+9	-1.227577E-11	NaN
60	1.000000	0.274766	7.36563e+06	-41639.1	955.818	-29786.3	0.000000	0.000000	6.274858	0.001416	NaN	0.000000	0.001609	0.001722	28.0817	0.088108	0.001939	45.4517	-151.324	-162.16	-0.001152	0.273454	-0.709815	-0.711127	0.001416	45.4517	-0.709838	-2.665856E+9	-5.312955E-13	NaN
60	1.000000	0.282753	7.36563e+06	-41639.1	955.817	-29786.3	0.000000	0.000000	6.282848	0.086297	NaN	0.000000	0.001618	0.001756	28.0796	0.145467	0.002052	70.8973	120.838	-164.739	0.029679	0.281432	-0.701828	-0.703148	0.086297	70.8973	-0.702741	-2.132829E+9	-4.046118E-11	NaN
60	1.000000	0.290779	7.36563e+06	-41639.1	955.818	-29786.3	0.000000	0.000000	6.290872	0.016309	NaN	0.000000	0.001644	0.001730	28.0793	0.042433	0.002112	20.087	-156.614	-166.936	0.110514	0.289465	-0.693801	-0.695115	0.016309	20.087	-0.694410	-1.641259E+9	-9.936948E-12	NaN
60	1.000000	0.298757	7.36563e+06	-41639.1	955.819	-29786.3	0.000000	0.000000	6.298848	-0.032483	NaN	0.000000	0.001625	0.001728	28.0799	0.113235	0.001919	59.0054	173.801	-163.718	-0.042154	0.297453	-0.685823	-0.687127	-0.032483	59.0054	-0.685410	-1.236473E+9	2.627029E-11	NaN
60	1.000000	0.306793	7.36563e+06	-41639.1	955.818	-29786.3	0.000000	0.000000	6.306885	0.019349	NaN	0.000000	0.001585	0.001748	28.0794	0.076052	0.002086	36.4563	-61.2934	-162.958	0.036606	0.305452	-0.677788	-0.679128	0.019349	36.4563	-0.678186	-9.849107E+8	-1.964526E-11	NaN
60	1.000000	0.314789	7.36563e+06	-41639.1	955.819	-29786.3	0.000000	0.000000	6.314881	0.008435	NaN	0.000000	0.001634	0.001713	28.0807	0.025058	0.002035	12.3118	-68.6852	-164.774	-0.009539	0.313446	-0.669792	-0.671135	0.008435	12.3118	-0.670306	-7.683792E+8	-1.097733E-11	NaN
60	1.000000	0.322777	7.36563e+06	-41639.1	955.819	-29786.3	0.000000	0.000000	6.322868	-0.009354	NaN	0.000000	0.001602	0.001708	28.0812	0.081906	0.001922	42.6083	171.366	-165.994	-0.094754	0.321488	-0.661804	-0.663093	-0.009354	42.6083	-0.661639	-5.846837E+8	1.599824E-11	NaN
60	1.000000	0.330774	7.36563e+06	-41639.1	955.819	-29786.3	0.000000	0.000000	6.330864	-0.040141	NaN	0.000000	0.001615	0.001677	28.0805	0.062081	0.002002	31.0089	-172.76	-161.431	-0.064437	0.329462	-0.653806	-0.655118	-0.040141	31.0089	-0.652836	-4.428978E+8	9.063373E-11	NaN
60	1.000000	0.338783	7.36563e+06	-41639.1	955.819	-29786.3	0.000000	0.000000	6.338878	0.089258	NaN	0.000000	0.001611	0.001688	28.0817	0.065647	0.001984	33.0932	-176.135	-161.652	0.057938	0.337451	-0.645798	-0.647129	0.089258	33.0932	-0.647821	-3.780558E+8	-2.360971E-10	NaN
60	1.000000	0.346753	7.36563e+06	-41639.1	955.818	-29786.3	0.000000	0.000000	6.346846	0.042840	NaN	0.000000	0.001609	0.001702	28.0804	0.082770	0.002025	40.8662	-104.418	-162.68	0.005310	0.345410	-0.637828	-0.639171	0.042840	40.8662	-0.638614	-2.826673E+8	-1.515567E-10	NaN
60	1.000000	0.354742	7.36563e+06	-41639.1	955.818	-29786.3	0.000000	0.000000	6.354834	0.018815	NaN	0.000000	0.001609	0.001720	28.0808	0.062303	0.002109	29.5486	-157.437	-160.471	0.000910	0.353457	-0.629839	-0.631124	0.018815	29.5486	-0.630316	-2.174531E+8	-8.652360E-11	NaN
60	1.000000	0.362772	7.36563e+06	-41639.1	955.818	-29786.3	0.000000	0.000000	6.362865	0.022470	NaN	0.000000	0.001573	0.001652	28.0797	0.048274	0.002114	22.8378	-75.5898	-166.172	0.032125	0.361509	-0.621808	-0.623072	0.022470	22.8378	-0.622546	-1.700702E+8	-1.321190E-10	NaN
60	1.000000	0.370782	7.36563e+06	-41639.1	955.819	-29786.3	0.000000	0.000000	6.370873	-0.001683	NaN	0.000000	0.001587	0.001669	28.0798	0.077255	0.001959	39.4339	106.973	-167.039	0.030341	0.369482	-0.613799	-0.615098	-0.001683	39.4339	-0.613767	-1.288047E+8	1.306460E-11	NaN
60	1.000000	0.378777	7.36563e+06	-41639.1	955.819	-29786.3	0.000000	0.000000	6.378867	-0.025425	NaN	0.000000	0.001575	0.001631	28.0799	0.109116	0.001940	56.2597	126.686	-163.848	-0.070635	0.377491	-0.605804	-0.607090	-0.025425	56.2597	-0.605465	-9.901587E+7	2.567780E-10	NaN
60	1.000000	0.386798	7.36563e+06	-41639.1	955.818	-29786.3	0.000000	0.000000	6.386890	0.020103	NaN	0.000000	0.001588	0.001618	28.0793	0.071135	0.002023	35.1572	-46.9655	-166.237	0.045295	0.385475	-0.597783	-0.599106	0.020103	35.1572	-0.598212	-7.867323E+7	-2.555231E-10	NaN
60	1.000000	0.394789	7.36563e+06	-41639.1	955.819	-29786.3	0.000000	0.000000	6.394880	-0.007301	NaN	0.000000	0.001591	0.001672	28.0789	0.109816	0.002039	53.8464	162.246	-167.749	-0.063900	0.393451	-0.589792	-0.591129	-0.007301	53.8464	-0.589690	-6.003395E+7	1.216132E-10	NaN
60	1.000000	0.402796	7.36563e+06	-41639.1	955.818	-29786.3	0.000000	0.000000	6.402887	-0.037212	NaN	0.000000	0.001579	0.001650	28.0796	0.155964	0.002048	76.1478	97.8163	-164.089	0.045087	0.401508	-0.581784	-0.583073	-0.037212	76.1478	-0.581418	-4.616255E+7	8.061165E-10	NaN
60	1.000000	0.410812	7.36563e+06	-41639.1	955.818	-29786.3	0.000000	0.000000	6.410906	0.047338	NaN	0.000000	0.001592	0.001697	28.0801	0.024212	0.002022	11.9757	49.8568	-163.162	0.019255	0.409492	-0.573768	-0.575089	0.047338	11.9757	-0.576733	-3.977664E+7	-1.190089E-9	NaN
60	1.000000	0.418816	7.36563e+06	-41639.1	955.819	-29786.3	0.000000	0.000000	6.418907	-0.013793	NaN	0.000000	0.001569	0.001686	28.0801	0.104982	0.002241	46.8476	-73.2408	-165.347	0.007477	0.417479	-0.565764	-0.567102	-0.013793	46.8476	-0.565544	-2.786376E+7	4.950158E-10	NaN
60	1.000000	0.426806	7.36563e+06	-41639.1	955.819	-29786.3	0.000000	0.000000	6.426900	0.051191	NaN	0.000000	0.001595	0.001652	28.0801	0.075910	0.001886	40.2429	-99.0335	-167.026	0.036973	0.425505	-0.557775	-0.559076	0.051191	40.2429	-0.558729	-2.242798E+7	-2.282454E-9	NaN
60	1.000000	0.434848	7.36563e+06	-41639.1	955.818	-29786.3	0.000000	0.000000	6.434941	0.030997	NaN	0.000000	0.001586	0.001710	28.0799	0.104418	0.001965	53.1351	-163.869	-162.431	0.010616	0.433518	-0.549733	-0.551063	0.030997	53.1351	-0.550170	-1.707305E+7	-1.815538E-9	NaN
60	1.000000	0.442848	7.36563e+06	-41639.1	955.819	-29786.3	0.000000	0.000000	6.442941	0.032921	NaN	0.000000	0.001579	0.001675	28.0787	0.073926	0.002057	35.9454	47.0977	-167.071	0.007675	0.441459	-0.541732	-0.543121	0.032921	35.9454	-0.542419	-1.333229E+7	-2.469272E-9	NaN
60	1.000000	0.450829	7.36563e+06	-41639.1	955.819	-29786.3	0.000000	0.000000	6.450918	-0.058952	NaN	0.000000	0.001590	0.001652	28.0789	0.038341	0.001880	20.3991	-87.5937	-164.28	-0.053260	0.449523	-0.533752	-0.535058	-0.058952	20.3991	-0.531585	-9.43145e+06	6.250586E-9	NaN
60	1.000000	0.458829	7.36563e+06	-41639.1	955.818	-29786.3	0.000000	0.000000	6.458920	-0.023370	NaN	0.000000	0.001616	0.001675	28.0787	0.056625	0.001892	29.9253	72.5389	-166.071	-0.022469	0.457512	-0.525751	-0.527069	-0.023370	29.9253	-0.525165	-7.68087e+06	3.042636E-9	NaN
60	1.000000	0.466849	7.36563e+06	-41639.1	955.819	-29786.3	0.000000	0.000000	6.466940	-0.004409	NaN	0.000000	0.001580	0.001675	28.0794	0.065684	0.001970	33.3433	82.4528	-169.767	-0.001639	0.465539	-0.517732	-0.519041	-0.004409	33.3433	-0.517633	-6.03484e+06	7.305602E-10	NaN
60	1.000000	0.474857	7.36563e+06	-41639.1	955.818	-29786.3	0.000000	0.000000	6.474947	-0.049097	NaN	0.000000	0.001602	0.001680	28.0788	0.073211	0.001897	38.5884	-179.213	-166.814	-0.039548	0.473511	-0.509723	-0.511070	-0.049097	38.5884	-0.508769	-4.54225e+06	1.080906E-8	NaN
60	1.000000	0.482836	7.36563e+06	-41639.1	955.817	-29786.3	0.000000	0.000000	6.482930	0.056087	NaN	0.000000	0.001572	0.001650	28.0807	0.005603	0.001877	2.984931	50.9399	-167.376	0.091995	0.481517	-0.501745	-0.503063	0.056087	2.984931	-0.515837	-5.69749e+06	-9.844132E-9	NaN
60	1.000000	0.490843	7.36563e+06	-41639.1	955.818	-29786.3	0.000000	0.000000	6.490934	-0.007151	NaN	0.000000	0.001605	0.001670	28.0803	0.047425	0.002063	22.9849	-146.719	-166.763	0.058208	0.489534	-0.493738	-0.495046	-0.007151	22.9849	-0.493504	-2.78194e+06	2.570420E-9	NaN
60	1.000000	0.498823	7.36563e+06	-41639.1	955.819	-29786.3	0.000000	0.000000	6.498914	-0.012392	NaN	0.000000	0.001584	0.001684	28.0812	0.032139	0.001976	16.2615	12.5142	-163.864	-0.004694	0.497562	-0.485757	-0.487018	-0.012392	16.2615	-0.485186	-2.12859e+06	5.821613E-9	NaN
60	1.000000	0.506871	7.36563e+06	-41639.1	955.818	-29786.3	0.000000	0.000000	6.506965	0.042102	NaN	0.000000	0.001598	0.001698	28.0799	0.020898	0.002053	10.178	-135.622	-164.802	0.001784	0.505506	-0.477709	-0.479074	0.042102	10.178	-0.480812	-1.8488e+06	-2.277274E-8	NaN
60	1.000000	0.514856	7.36563e+06	-41639.1	955.818	-29786.3	0.000000	0.000000	6.514948	-0.000777	NaN	0.000000	0.001576	0.001666	28.0819	0.054704	0.002101	26.0358	-154.756	-162.015	-0.086362	0.513562	-0.469724	-0.471019	-0.000777	26.0358	-0.469702	-1.29189e+06	6.013908E-10	NaN
60	1.000000	0.522832	7.36563e+06	-41639.1	955.818	-29786.3	0.000000	0.000000	6.522925	0.011267	NaN	0.000000	0.001648	0.001660	28.0806	0.080324	0.001993	40.2983	50.6242	-165.319	-0.023614	0.521554	-0.461748	-0.463027	0.011267	40.2983	-0.461958	-1.00583e+06	-1.120181E-8	NaN
60	1.000000	0.530864	7.36563e+06	-41639.1	955.817	-29786.3	0.000000	0.000000	6.530956	-0.005861	NaN	0.000000	0.001602	0.001649	28.0804	0.047724	0.001987	24.0185	50.5671	-165.916	-0.025019	0.529560	-0.453716	-0.455020	-0.005861	24.0185	-0.453533	-765738	7.654121E-9	NaN
60	1.000000	0.538878	7.36563e+06	-41639.1	955.819	-29786.3	0.000000	0.000000	6.538970	0.003276	NaN	0.000000	0.001580	0.001694	28.0804	0.059402	0.001962	30.2692	85.0682	-160.893	0.022615	0.537582	-0.445703	-0.446999	0.003276	30.2692	-0.445784	-595585	-5.501123E-9	NaN
60	1.000000	0.546881	7.36563e+06	-41639.1	955.818	-29786.3	0.000000	0.000000	6.546976	0.069328	NaN	0.000000	0.001597	0.001698	28.0786	0.049853	0.001905	26.1668	123.367	-165.679	0.091402	0.545539	-0.437699	-0.439042	0.069328	26.1668	-0.439686	-488582	-1.418955E-7	NaN
60	1.000000	0.554866	7.36563e+06	-41639.1	955.819	-29786.3	0.000000	0.000000	6.554957	-0.011222	NaN	0.000000	0.001599	0.001673	28.08	0.079054	0.002147	36.8163	114.656	-163.976	0.026621	0.553568	-0.429715	-0.431012	-0.011222	36.8163	-0.429486	-350581	3.200931E-8	NaN
60	1.000000	0.562913	7.36563e+06	-41639.1	955.818	-29786.3	0.000000	0.000000	6.563004	0.000539	NaN	0.000000	0.001602	0.001673	28.0814	0.079623	0.001936	41.1196	-171.76	-164.676	-0.027393	0.561528	-0.421668	-0.423052	0.000539	41.1196	-0.421678	-271772	-1.984600E-9	NaN
60	1.000000	0.570890	7.36563e+06	-41639.1	955.819	-29786.3	0.000000	0.000000	6.570983	0.026453	NaN	0.000000	0.001596	0.001673	28.0806	0.020073	0.002014	9.967376	145.486	-167.357	0.087083	0.569543	-0.413690	-0.415038	0.026453	9.967376	-0.415681	-223420	-1.184000E-7	NaN
60	1.000000	0.578891	7.36563e+06	-41639.1	955.818	-29786.3	0.000000	0.000000	6.578984	0.030852	NaN	0.000000	0.001586	0.001684	28.0812	0.025495	0.002014	12.6591	53.5903	-164.783	0.015063	0.577580	-0.405690	-0.407001	0.030852	12.6591	-0.407518	-171035	-1.803838E-7	NaN
60	1.000000	0.586875	7.36563e+06	-41639.1	955.818	-29786.3	0.000000	0.000000	6.586965	-0.029075	NaN	0.000000	0.001586	0.001680	28.0808	0.128360	0.002050	62.6128	-130.742	-168.043	-0.016309	0.585564	-0.397706	-0.399016	-0.029075	62.6128	-0.397357	-122544	2.372596E-7	NaN
60	1.000000	0.594872	7.36563e+06	-41639.1	955.818	-29786.3	0.000000	0.000000	6.594963	-0.017052	NaN	0.000000	0.001585	0.001684	28.079	0.081652	0.001996	40.902	-28.6791	-167.757	0.014511	0.593614	-0.389708	-0.390967	-0.017052	40.902	-0.389395	-94301.5	1.808276E-7	NaN
60	1.000000	0.602895	7.36563e+06	-41639.1	955.819	-29786.3	0.000000	0.000000	6.602986	-0.008399	NaN	0.000000	0.001583	0.001688	28.081	0.052243	0.002019	25.8725	93.9902	-166.01	0.046595	0.601583	-0.381686	-0.382998	-0.008399	25.8725	-0.381442	-72541	1.157884E-7	NaN
60	1.000000	0.610879	7.36563e+06	-41639.1	955.819	-29786.3	0.000000	0.000000	6.610973	0.037409	NaN	0.000000	0.001575	0.001664	28.0801	0.090129	0.001894	47.5985	121.642	-165.713	-0.009885	0.609611	-0.373701	-0.374969	0.037409	47.5985	-0.374291	-57262.6	-6.532845E-7	NaN
60	1.000000	0.618892	7.36563e+06	-41639.1	955.818	-29786.3	0.000000	0.000000	6.618985	0.019567	NaN	0.000000	0.001574	0.001677	28.0803	0.066848	0.002014	33.1938	166.314	-165.701	0.012663	0.617556	-0.365688	-0.367024	0.019567	33.1938	-0.366130	-43687.5	-4.478783E-7	NaN
60	1.000000	0.626921	7.36563e+06	-41639.1	955.818	-29786.3	0.000000	0.000000	6.627013	0.019222	NaN	0.000000	0.001561	0.001676	28.0788	0.059299	0.002039	29.0826	7.855098	-166.775	0.044325	0.625599	-0.357660	-0.358982	0.019222	29.0826	-0.358156	-33509.9	-5.736232E-7	NaN
60	1.000000	0.634896	7.36563e+06	-41639.1	955.818	-29786.3	0.000000	0.000000	6.634988	0.001019	NaN	0.000000	0.001563	0.001687	28.0797	0.049730	0.001963	25.3353	152.98	-161.977	-0.010659	0.633630	-0.349684	-0.350950	0.001019	25.3353	-0.349714	-25284.6	-4.030443E-8	NaN
60	1.000000	0.642889	7.36563e+06	-41639.1	955.819	-29786.3	0.000000	0.000000	6.642980	-0.008607	NaN	0.000000	0.001538	0.001702	28.0806	0.087201	0.001994	43.7369	36.6437	-163.427	0.052899	0.641586	-0.341691	-0.342995	-0.008607	43.7369	-0.341544	-19233.2	4.474927E-7	NaN
60	1.000000	0.650923	7.36563e+06	-41639.1	955.818	-29786.3	0.000000	0.000000	6.651019	0.099365	NaN	0.000000	0.001558	0.001645	28.0788	0.040880	0.002057	19.8747	-153.517	-165.702	-0.005759	0.649576	-0.333657	-0.335005	0.099365	19.8747	-0.337407	-16739.2	-5.936097E-6	NaN
60	1.000000	0.658931	7.36563e+06	-41639.1	955.817	-29786.3	0.000000	0.000000	6.659023	0.017587	NaN	0.000000	0.001555	0.001681	28.0802	0.030662	0.002102	14.5873	26.7056	-163.272	-0.022788	0.657572	-0.325650	-0.327009	0.017587	14.5873	-0.326554	-11612.8	-1.514447E-6	NaN
60	1.000000	0.666908	7.36563e+06	-41639.1	955.819	-29786.3	0.000000	0.000000	6.667001	0.030089	NaN	0.000000	0.001584	0.001716	28.079	0.040721	0.002000	20.3587	48.661	-166.69	0.045974	0.665638	-0.317672	-0.318943	0.030089	20.3587	-0.318781	-8926.56	-3.370673E-6	NaN
60	1.000000	0.674914	7.36563e+06	-41639.1	955.818	-29786.3	0.000000	0.000000	6.675007	0.046962	NaN	0.000000	0.001526	0.001750	28.0802	0.106350	0.002081	51.0938	109.923	-163.467	0.018912	0.673626	-0.309667	-0.310955	0.046962	51.0938	-0.310356	-6703.92	-7.005161E-6	NaN
60	1.000000	0.682942	7.36563e+06	-41639.1	955.818	-29786.3	0.000000	0.000000	6.683033	-0.017651	NaN	0.000000	0.001559	0.001727	28.0784	0.050280	0.001968	25.5528	83.6059	-165.655	0.012833	0.681637	-0.301638	-0.302943	-0.017651	25.5528	-0.301120	-4889.95	3.609606E-6	NaN
60	1.000000	0.690957	7.36563e+06	-41639.1	955.818	-29786.3	0.000000	0.000000	6.691049	0.007499	NaN	0.000000	0.001566	0.001694	28.079	0.065485	0.002080	31.4815	7.577145	-160.475	-0.095622	0.689616	-0.293624	-0.294964	0.007499	31.4815	-0.293802	-3803.63	-1.971647E-6	NaN
60	1.000000	0.698971	7.36563e+06	-41639.1	955.818	-29786.3	0.000000	0.000000	6.699060	-0.064795	NaN	0.000000	0.001589	0.001682	28.0784	0.088091	0.001969	44.7417	52.9974	-162.652	-0.048524	0.697614	-0.285610	-0.286967	-0.064795	44.7417	-0.284524	-2761.24	2.346594E-5	NaN
60	1.000000	0.706998	7.36563e+06	-41639.1	955.819	-29786.3	0.000000	0.000000	6.707090	0.004607	NaN	0.000000	0.001552	0.001693	28.0775	0.128698	0.001963	65.5458	-126.883	-163.833	0.027784	0.705653	-0.277583	-0.278927	0.004607	65.5458	-0.277635	-2174.03	-2.118993E-6	NaN
60	1.000000	0.714937	7.36563e+06	-41639.1	955.818	-29786.3	0.000000	0.000000	6.715030	0.028440	NaN	0.000000	0.001561	0.001689	28.0776	0.077102	0.001987	38.807	138.054	-166.831	-0.034632	0.713613	-0.269644	-0.270968	0.028440	38.807	-0.270193	-1676.81	-1.696089E-5	NaN
60	1.000000	0.722925	7.36563e+06	-41639.1	955.818	-29786.3	0.000000	0.000000	6.723014	-0.075845	NaN	0.000000	0.001567	0.001643	28.0793	0.095110	0.002012	47.2608	-128.186	-163.634	-0.093867	0.721616	-0.261655	-0.262964	-0.075845	47.2608	-0.260452	-1190.8	6.369258E-5	NaN
60	1.000000	0.730916	7.36563e+06	-41639.1	955.817	-29786.3	0.000000	0.000000	6.731009	0.028487	NaN	0.000000	0.001573	0.001663	28.0799	0.055863	0.001946	28.713	-104.188	-162.449	0.026915	0.729671	-0.253665	-0.254909	0.028487	28.713	-0.254409	-961.645	-2.962320E-5	NaN
60	1.000000	0.738954	7.36563e+06	-41639.1	955.818	-29786.3	0.000000	0.000000	6.739046	0.024274	NaN	0.000000	0.001539	0.001692	28.0785	0.095468	0.002016	47.3467	48.8085	-160.385	-0.053565	0.737658	-0.245627	-0.246923	0.024274	47.3467	-0.246011	-713.118	-3.403918E-5	NaN
60	1.000000	0.746940	7.36563e+06	-41639.1	955.819	-29786.3	0.000000	0.000000	6.747034	0.061890	NaN	0.000000	0.001587	0.001680	28.0798	0.124324	0.001955	63.5782	97.6746	-162.542	0.062943	0.745623	-0.237641	-0.238957	0.061890	63.5782	-0.238371	-542.105	-0.000114	NaN
60	1.000000	0.754954	7.36563e+06	-41639.1	955.818	-29786.3	0.000000	0.000000	6.755045	-0.028634	NaN	0.000000	0.001592	0.001680	28.0801	0.023572	0.001981	11.9006	174.807	-167.825	-0.011678	0.753656	-0.229626	-0.230925	-0.028634	11.9006	-0.227822	-369.895	7.741188E-5	NaN
60	1.000000	0.762965	7.36563e+06	-41639.1	955.819	-29786.3	0.000000	0.000000	6.763056	-0.013740	NaN	0.000000	0.001541	0.001670	28.0795	0.053064	0.002055	25.8196	-27.055	-168.849	0.009769	0.761696	-0.221616	-0.222884	-0.013740	25.8196	-0.221217	-290.474	4.730221E-5	NaN
60	1.000000	0.770933	7.36563e+06	-41639.1	955.818	-29786.3	0.000000	0.000000	6.771025	0.027832	NaN	0.000000	0.001559	0.001713	28.0789	0.076465	0.002006	38.1097	81.7244	-163.941	0.017791	0.769696	-0.213648	-0.214884	0.027832	38.1097	-0.214196	-224.166	-0.000124	NaN
60	1.000000	0.778976	7.36563e+06	-41639.1	955.818	-29786.3	0.000000	0.000000	6.779070	0.055717	NaN	0.000000	0.001564	0.001708	28.0783	0.030231	0.002091	14.4591	-101.775	-162.356	0.051633	0.777667	-0.205604	-0.206913	0.055717	14.4591	-0.208495	-181.307	-0.000307	NaN
60	1.000000	0.786962	7.36563e+06	-41639.1	955.818	-29786.3	0.000000	0.000000	6.787055	0.032359	NaN	0.000000	0.001542	0.001698	28.0803	0.062543	0.001921	32.5654	30.8554	-166.182	0.067817	0.785716	-0.197618	-0.198865	0.032359	32.5654	-0.198364	-123.815	-0.000261	NaN
60	1.000000	0.794972	7.36563e+06	-41639.1	955.818	-29786.3	0.000000	0.000000	6.795061	-0.063578	NaN	0.000000	0.001545	0.001674	28.08	0.086069	0.001919	44.8454	97.67	-163.637	-0.051385	0.793654	-0.189608	-0.190926	-0.063578	44.8454	-0.188545	-85.0533	0.000748	NaN
60	1.000000	0.802972	7.36563e+06	-41639.1	955.818	-29786.3	0.000000	0.000000	6.803066	0.059012	NaN	0.000000	0.001554	0.001684	28.0804	0.010330	0.001973	5.235376	112.995	-165.85	0.078314	0.801699	-0.181608	-0.182881	0.059012	5.235376	-0.190062	-90.1707	-0.000654	NaN
60	1.000000	0.810975	7.36563e+06	-41639.1	955.818	-29786.3	0.000000	0.000000	6.811066	-0.015806	NaN	0.000000	0.001564	0.001678	28.0804	0.072226	0.002021	35.7404	35.3104	-162.961	-0.019725	0.809660	-0.173606	-0.174921	-0.015806	35.7404	-0.173274	-46.8029	0.000338	NaN
60	1.000000	0.818967	7.36563e+06	-41639.1	955.818	-29786.3	0.000000	0.000000	6.819056	-0.069616	NaN	0.000000	0.001567	0.001701	28.0808	0.087504	0.001980	44.1983	72.2904	-165.119	-0.058766	0.817697	-0.165613	-0.166883	-0.069616	44.1983	-0.164432	-32.8339	0.002120	NaN
60	1.000000	0.826986	7.36563e+06	-41639.1	955.818	-29786.3	0.000000	0.000000	6.827081	0.083618	NaN	0.000000	0.001563	0.001694	28.0818	0.120923	0.001906	63.4299	168.742	-166.121	0.079951	0.825666	-0.157594	-0.158915	0.083618	63.4299	-0.158583	-25.8682	-0.003232	NaN
60	1.000000	0.834976	7.36563e+06	-41639.1	955.818	-29786.3	0.000000	0.000000	6.835068	0.023839	NaN	0.000000	0.001571	0.001716	28.0804	0.066836	0.001966	34.0025	83.6986	-162.614	-0.009830	0.833669	-0.149605	-0.150912	0.023839	34.0025	-0.150131	-18.2133	-0.001309	NaN
60	1.000000	0.843003	7.36563e+06	-41639.1	955.818	-29786.3	0.000000	0.000000	6.843095	0.021448	NaN	0.000000	0.001553	0.001690	28.0794	0.086507	0.001979	43.7028	-127.238	-165.095	-0.015023	0.841675	-0.141578	-0.142905	0.021448	43.7028	-0.141946	-12.8649	-0.001667	NaN
60	1.000000	0.851021	7.36563e+06	-41639.1	955.818	-29786.3	0.000000	0.000000	6.851117	0.093201	NaN	0.000000	0.001564	0.001710	28.0782	0.080771	0.001946	41.4995	-111.685	-162.519	0.044722	0.849705	-0.133559	-0.134875	0.093201	41.4995	-0.135244	-9.614724	-0.009694	NaN
60	1.000000	0.859008	7.36563e+06	-41639.1	955.819	-29786.3	0.000000	0.000000	6.859104	0.086522	NaN	0.000000	0.001554	0.001652	28.0804	0.096327	0.002002	48.1173	145.979	-163.968	0.053055	0.857708	-0.125572	-0.126873	0.086522	48.1173	-0.126921	-6.635332	-0.013040	NaN
60	1.000000	0.866986	7.36563e+06	-41639.1	955.818	-29786.3	0.000000	0.000000	6.867079	0.035708	NaN	0.000000	0.001556	0.001694	28.0803	0.122626	0.002001	61.285	-29.723	-162.18	0.025861	0.865684	-0.117595	-0.118897	0.035708	61.285	-0.118032	-4.407592	-0.008101	NaN
60	1.000000	0.874998	7.36563e+06	-41639.1	955.819	-29786.3	0.000000	0.000000	6.875089	-0.018934	NaN	0.000000	0.001551	0.001706	28.0796	0.030172	0.001953	15.4502	93.2835	-162.759	-0.098304	0.873735	-0.109583	-0.110845	-0.018934	15.4502	-0.108664	-2.815819	0.006724	NaN
60	1.000000	0.882984	7.36563e+06	-41639.1	955.818	-29786.3	0.000000	0.000000	6.883075	-0.011259	NaN	0.000000	0.001561	0.001691	28.0806	0.029583	0.002034	14.5456	-78.2405	-162.46	0.045908	0.881705	-0.101597	-0.102876	-0.011259	14.5456	-0.101017	-1.924179	0.005851	NaN
60	1.000000	0.890999	7.36563e+06	-41639.1	955.817	-29786.3	0.000000	0.000000	6.891090	-0.020266	NaN	0.000000	0.001543	0.001708	28.0808	0.066227	0.002051	32.295	68.9003	-165.982	0.032444	0.889751	-0.093581	-0.094830	-0.020266	32.295	-0.093111	-1.276826	0.015872	NaN
60	1.000000	0.899041	7.36563e+06	-41639.1	955.818	-29786.3	0.000000	0.000000	6.899132	-0.002911	NaN	0.000000	0.001579	0.001675	28.0808	0.114793	0.002030	56.5478	113.367	-166.636	0.013121	0.897734	-0.085540	-0.086846	-0.002911	56.5478	-0.085501	-0.844876	0.003445	NaN
60	1.000000	0.907019	7.36563e+06	-41639.1	955.818	-29786.3	0.000000	0.000000	6.907107	-0.093667	NaN	0.000000	0.001548	0.001661	28.0814	0.066469	0.001988	33.4374	-134.681	-166.334	-0.081472	0.905747	-0.077561	-0.078833	-0.093667	33.4374	-0.075460	-0.474690	0.197323	NaN
60	1.000000	0.915035	7.36563e+06	-41639.1	955.818	-29786.3	0.000000	0.000000	6.915127	0.015939	NaN	0.000000	0.001585	0.001662	28.0806	0.081899	0.001985	41.2632	-163.956	-162.88	-0.049516	0.913685	-0.069546	-0.070896	0.015939	41.2632	-0.069835	-0.337657	-0.047204	NaN
60	1.000000	0.923041	7.36563e+06	-41639.1	955.819	-29786.3	0.000000	0.000000	6.923135	0.061560	NaN	0.000000	0.001589	0.001641	28.079	0.023065	0.002058	11.2062	123.085	-163.863	0.028139	0.921669	-0.061540	-0.062911	0.061560	11.2062	-0.065660	-0.259917	-0.236846	NaN
60	1.000000	0.931043	7.36563e+06	-41639.1	955.818	-29786.3	0.000000	0.000000	6.931131	-0.084231	NaN	0.000000	0.001574	0.001661	28.0785	0.108389	0.001925	56.2918	-17.0438	-167.465	-0.118145	0.929761	-0.053538	-0.054819	-0.084231	56.2918	-0.052415	-0.107879	0.780791	NaN
60	1.000000	0.939011	7.36563e+06	-41639.1	955.818	-29786.3	0.000000	0.000000	6.939105	0.071410	NaN	0.000000	0.001594	0.001664	28.0776	0.069757	0.002024	34.4706	-62.8354	-163.312	-0.007228	0.937716	-0.045570	-0.046864	0.071410	34.4706	-0.047124	-0.074620	-0.956985	NaN
60	1.000000	0.947030	7.36563e+06	-41639.1	955.818	-29786.3	0.000000	0.000000	6.947119	-0.058114	NaN	0.000000	0.001595	0.001651	28.0776	0.064896	0.002109	30.7665	148.161	-163.506	-0.061065	0.945724	-0.037551	-0.038856	-0.058114	30.7665	-0.036134	-0.034597	1.679766	NaN
60	1.000000	0.955022	7.36563e+06	-41639.1	955.818	-29786.3	0.000000	0.000000	6.955115	0.032513	NaN	0.000000	0.001621	0.001648	28.078	0.056487	0.001999	28.2567	-135.287	-165.191	0.015233	0.953732	-0.029559	-0.030849	0.032513	28.2567	-0.030422	-0.023646	-1.374984	NaN
60	1.000000	0.963047	7.36563e+06	-41639.1	955.819	-29786.3	0.000000	0.000000	6.963137	-0.055755	NaN	0.000000	0.001609	0.001642	28.0796	0.055597	0.001981	28.0612	12.7466	-161.88	-0.033355	0.961734	-0.021533	-0.022847	-0.055755	28.0612	-0.020043	-0.012593	4.427551	NaN
60	1.000000	0.971049	7.36563e+06	-41639.1	955.818	-29786.3	0.000000	0.000000	6.971140	-0.010604	NaN	0.000000	0.001610	0.001610	28.0812	0.156243	0.001937	80.6636	110.996	-164.615	-0.075845	0.969709	-0.013532	-0.014872	-0.010604	80.6636	-0.013433	-0.008353	1.269510	NaN
60	1.000000	0.979025	7.36563e+06	-41639.1	955.818	-29786.3	0.000000	0.000000	6.979132	0.357721	NaN	0.000000	0.001632	0.001610	28.079	0.382381	0.001955	195.639	27.7513	-167.178	0.220544	0.977719	-0.005555	-0.006861	0.357721	195.639	-0.006927	-0.004597	-77.8233	NaN
60	1.000000	0.987066	7.36563e+06	-41639.1	955.818	-29786.3	0.000000	0.000000	6.987202	1.068584	NaN	0.000000	0.001591	0.001632	28.0806	1.007838	0.001860	541.835	26.01	-164.391	0.897839	0.985744	0.002486	0.001164	1.068584	541.835	0.001007	0.000767	1392.78	17872.1
60	1.000000	0.995046	7.36563e+06	-41639.1	955.818	-29786.3	0.000000	0.000000	6.995236	2.383347	NaN	0.000000	0.001583	0.001675	28.0799	2.261474	0.001928	1172.73	25.2288	-167.455	1.972166	0.993776	0.010465	0.009196	2.383347	1172.73	0.008941	0.008028	296.867	11958
60	1.000000	1.003042	7.36563e+06	-41639.1	955.817	-29786.3	0.000000	0.000000	7.003411	6.754788	NaN	0.000000	0.001611	0.001660	28.0773	6.277891	0.001866	3365.02	15.9833	-168.123	5.414673	1.001764	0.018461	0.017183	6.754788	3365.02	0.016956	0.017983	375.628	22926.3
60	2.000000	1.006621	7.36563e+06	-41639.1	955.817	-29786.3	0.000000	0.000000	7.007125	10.0175	NaN	0.000000	0.001622	0.001673	28.0782	9.290654	0.001700	5464.82	9.689858	-172.03	10.3661	1.006326	0.022041	0.021746	10.0175	5464.82	0.020666	0.023599	424.481	32501.2
60	2.000000	1.008567	7.36563e+06	-41639.1	955.817	-29786.3	0.000000	0.000000	7.009181	12.7184	NaN	0.000000	0.001588	0.001667	28.0784	11.6203	0.001901	6114.17	9.721606	-174.912	12.3487	1.008328	0.023986	0.023748	12.7184	6114.17	0.022426	0.026499	479.952	34315.7
60	2.000000	1.010565	7.36563e+06	-41639.1	955.818	-29786.3	0.000000	0.000000	7.011377	17.5315	NaN	0.000000	0.001595	0.001664	28.0792	13.5289	0.001768	7653.07	4.006523	-170.701	16.9958	1.010282	0.025985	0.025702	17.5315	7653.07	0.024266	0.029695	590.391	40576
60	2.000000	1.012557	7.36563e+06	-41639.1	955.819	-29786.3	0.000000	0.000000	7.013422	18.8224	NaN	0.000000	0.001593	0.001677	28.0788	14.6978	0.001766	8323.84	9.825886	-175.268	19.0858	1.012217	0.027977	0.027637	18.8224	8323.84	0.026281	0.033387	563.766	41620.7
60	2.000000	1.014517	7.36563e+06	-41639.1	955.819	-29786.3	0.000000	0.000000	7.015479	21.1647	NaN	0.000000	0.001606	0.001691	28.0792	16.9811	0.001890	8984.31	8.277235	-175.228	19.9537	1.014213	0.029937	0.029632	21.1647	8984.31	0.028170	0.037036	571.47	42652.9
60	2.000000	1.016570	7.36563e+06	-41639.1	955.819	-29786.3	0.000000	0.000000	7.017621	23.3309	NaN	0.000000	0.001625	0.001667	28.079	17.8533	0.001774	10064.4	7.847858	-176.051	23.4658	1.016234	0.031990	0.031654	23.3309	10064.4	0.030251	0.041265	565.387	45265.5
60	2.000000	1.018535	7.36563e+06	-41639.1	955.818	-29786.3	0.000000	0.000000	7.019705	26.226	NaN	0.000000	0.001585	0.001701	28.0794	20.5277	0.001871	10969.5	7.619809	-177.254	26.1641	1.018305	0.033955	0.033724	26.226	10969.5	0.032162	0.045343	578.386	47065.5
60	2.000000	1.020550	7.36563e+06	-41639.1	955.819	-29786.3	0.000000	0.000000	7.021877	30.0519	NaN	0.000000	0.001577	0.001674	28.0811	22.1731	0.001795	12352.3	4.711347	-175.473	30.164	1.020199	0.035970	0.035618	30.0519	12352.3	0.034145	0.049774	603.766	50584.8
60	2.000000	1.022522	7.36563e+06	-41639.1	955.82	-29786.3	0.000000	0.000000	7.024086	35.8251	NaN	0.000000	0.001576	0.001685	28.0802	23.1947	0.001744	13296	3.976230	-175.497	35.3181	1.022226	0.037942	0.037646	35.8251	13296	0.035921	0.053912	664.511	52317.9
60	2.000000	1.024529	7.36563e+06	-41639.1	955.819	-29786.3	0.000000	0.000000	7.026245	39.5339	NaN	0.000000	0.001599	0.001691	28.0801	25.8901	0.001699	15240.5	9.682189	176.965	38.6665	1.024231	0.039948	0.039651	39.5339	15240.5	0.038003	0.058969	670.423	57340.8
60	2.000000	1.026474	7.36563e+06	-41639.1	955.82	-29786.3	0.000000	0.000000	7.028370	43.9103	NaN	0.000000	0.001569	0.001662	28.0794	26.6751	0.001897	14059.2	5.385473	-176.531	42.2674	1.026181	0.041893	0.041600	43.9103	14059.2	0.039551	0.062873	698.396	51227.2
60	2.000000	1.028422	7.36563e+06	-41639.1	955.82	-29786.3	0.000000	0.000000	7.030552	49.5976	NaN	0.000000	0.001582	0.001652	28.0794	28.9239	0.001822	15876.6	4.999748	-178.926	46.9092	1.028197	0.043841	0.043616	49.5976	15876.6	0.041498	0.067958	729.828	55643
60	2.000000	1.030461	7.36563e+06	-41639.1	955.82	-29786.3	0.000000	0.000000	7.032709	52.4853	NaN	0.000000	0.001559	0.001699	28.0798	29.8902	0.001780	16792	1.920060	-174.872	50.1668	1.030174	0.045880	0.045593	52.4853	16792	0.043536	0.073485	714.229	56594.8
60	2.000000	1.032472	7.36563e+06	-41639.1	955.819	-29786.3	0.000000	0.000000	7.034855	55.7561	NaN	0.000000	0.001536	0.001681	28.0809	31.7559	0.001818	17471.1	4.403630	-178.221	54.3265	1.032270	0.047891	0.047689	55.7561	17471.1	0.045498	0.079006	705.717	56788.9
60	2.000000	1.034481	7.36563e+06	-41639.1	955.819	-29786.3	0.000000	0.000000	7.037069	60.7498	NaN	0.000000	0.001544	0.001677	28.0798	33.4034	0.001848	18074.5	5.993746	179.546	59.4619	1.034207	0.049900	0.049627	60.7498	18074.5	0.047380	0.084486	719.052	56813.1
60	2.000000	1.036502	7.36563e+06	-41639.1	955.819	-29786.3	0.000000	0.000000	7.039377	67.7246	NaN	0.000000	0.001578	0.001661	28.0807	34.1675	0.001771	19291.4	5.482108	-179.297	68.6235	1.036123	0.051921	0.051542	67.7246	19291.4	0.049288	0.090226	750.614	58677.4
60	2.000000	1.038491	7.36563e+06	-41639.1	955.819	-29786.3	0.000000	0.000000	7.041645	74.4971	NaN	0.000000	0.001591	0.001639	28.0813	36.8572	0.001817	20288.9	3.710298	-178.813	74.1244	1.038131	0.053911	0.053551	74.4971	20288.9	0.051157	0.096022	775.833	59819.8
60	2.000000	1.040492	7.36563e+06	-41639.1	955.819	-29786.3	0.000000	0.000000	7.043864	79.8376	NaN	0.000000	0.001603	0.001671	28.0804	39.2406	0.001907	20577.6	6.375433	178.51	79.5129	1.040099	0.055911	0.055519	79.8376	20577.6	0.053001	0.101915	783.375	58891.1
60	2.000000	1.042411	7.36563e+06	-41639.1	955.82	-29786.3	0.000000	0.000000	7.046176	89.373	NaN	0.000000	0.001607	0.001654	28.0807	40.1356	0.001681	23878.5	4.822008	177.859	86.0635	1.042138	0.057831	0.057558	89.373	23878.5	0.055024	0.108571	823.178	66210.1
60	2.000000	1.044382	7.36563e+06	-41639.1	955.819	-29786.3	0.000000	0.000000	7.048269	92.3431	NaN	0.000000	0.001584	0.001687	28.0791	41.7273	0.001753	23808.9	3.043800	-179.605	87.4619	1.044112	0.059801	0.059532	92.3431	23808.9	0.056892	0.114901	803.676	64172.7
60	2.000000	1.046463	7.36563e+06	-41639.1	955.82	-29786.3	0.000000	0.000000	7.050650	99.6621	NaN	0.000000	0.001648	0.001670	28.0813	43.8442	0.001766	24824.9	7.044578	175.469	99.3751	1.046091	0.061882	0.061510	99.6621	24824.9	0.058871	0.121792	818.295	64990.5
60	2.000000	1.048457	7.36563e+06	-41639.1	955.82	-29786.3	0.000000	0.000000	7.053006	108.445	NaN	0.000000	0.001610	0.001678	28.0795	46.0077	0.001690	27230.7	2.674508	178.774	106.712	1.048138	0.063877	0.063557	108.445	27230.7	0.060890	0.129019	840.539	69263.8
60	2.000000	1.050520	7.36563e+06	-41639.1	955.82	-29786.3	0.000000	0.000000	7.055404	116.619	NaN	0.000000	0.001626	0.001647	28.0795	49.2555	0.001921	25637.2	6.066262	177.191	118.274	1.050126	0.065939	0.065545	116.619	25637.2	0.062528	0.135028	863.661	63742.9
60	2.000000	1.052396	7.36563e+06	-41639.1	955.818	-29786.3	0.000000	0.000000	7.057711	127.1	NaN	0.000000	0.001623	0.001685	28.0791	50.2535	0.001867	26919.8	6.006515	176.663	123.276	1.052112	0.067815	0.067532	127.1	26919.8	0.064274	0.141578	897.738	65365.2
60	2.000000	1.054441	7.36563e+06	-41639.1	955.819	-29786.3	0.000000	0.000000	7.059921	131.103	NaN	0.000000	0.001606	0.001707	28.0789	52.5667	0.001814	28979.3	2.979186	178.487	129.519	1.054157	0.069860	0.069577	131.103	28979.3	0.066467	0.150015	873.93	68358.8
60	2.000000	1.056427	7.36563e+06	-41639.1	955.82	-29786.3	0.000000	0.000000	7.062486	145.2	NaN	0.000000	0.001585	0.001669	28.08	53.7292	0.001728	31101.5	4.803486	176.226	143.613	1.056112	0.071847	0.071531	145.2	31101.5	0.068345	0.157422	922.363	71617.9
60	2.000000	1.058450	7.36563e+06	-41639.1	955.82	-29786.3	0.000000	0.000000	7.064924	155.296	NaN	0.000000	0.001575	0.001670	28.0799	56.5736	0.001885	30009.4	4.430143	177.231	156.027	1.058182	0.073869	0.073601	155.296	30009.4	0.069988	0.164040	946.695	67694.9
60	2.000000	1.060476	7.36563e+06	-41639.1	955.819	-29786.3	0.000000	0.000000	7.067299	163.798	NaN	0.000000	0.001607	0.001676	28.0798	58.4017	0.001763	33120.2	5.750538	175.069	165.95	1.060161	0.075895	0.075581	163.798	33120.2	0.072186	0.173095	946.289	72731.7
60	2.000000	1.062426	7.36563e+06	-41639.1	955.82	-29786.3	0.000000	0.000000	7.070024	182.646	NaN	0.000000	0.001545	0.001675	28.0803	58.9254	0.001710	34456.8	3.548958	176.272	180.836	1.062082	0.077846	0.077502	182.646	34456.8	0.073870	0.180187	1013.65	74162.8
60	2.000000	1.064440	7.36563e+06	-41639.1	955.82	-29786.3	0.000000	0.000000	7.072351	190.273	NaN	0.000000	0.001589	0.001664	28.0778	61.8367	0.001810	34169.3	5.860081	175.269	191.408	1.064145	0.079859	0.079565	190.273	34169.3	0.075683	0.187971	1012.25	72005.3
60	2.000000	1.066403	7.36564e+06	-41639.1	955.819	-29786.3	0.000000	0.000000	7.074660	198.678	NaN	0.000000	0.001576	0.001665	28.0783	62.5054	0.001820	34350.3	3.159787	177.781	197.123	1.066106	0.081822	0.081525	198.678	34350.3	0.077484	0.195858	1014.4	70914.1
60	2.000000	1.068384	7.36564e+06	-41639.1	955.82	-29786.3	0.000000	0.000000	7.077297	214.643	NaN	0.000000	0.001587	0.001649	28.0784	64.873	0.001671	38812.7	1.643282	177.983	211.197	1.068132	0.083803	0.083551	214.643	38812.7	0.079655	0.205568	1044.15	78211.4
60	2.000000	1.070467	7.36564e+06	-41639.1	955.819	-29786.3	0.000000	0.000000	7.079937	228.206	NaN	0.000000	0.001597	0.001674	28.0789	67.8939	0.001725	39352.1	3.615444	176.041	227.679	1.070009	0.085886	0.085429	228.206	39352.1	0.081537	0.214159	1065.59	77691.4
60	2.000000	1.072405	7.36564e+06	-41639.1	955.819	-29786.3	0.000000	0.000000	7.082313	238.847	NaN	0.000000	0.001576	0.001715	28.0783	70.0892	0.001694	41382.5	5.202715	173.432	236.013	1.072077	0.087825	0.087496	238.847	41382.5	0.083496	0.223280	1069.72	80013.8
60	2.000000	1.074395	7.36564e+06	-41639.1	955.819	-29786.3	0.000000	0.000000	7.084890	253.131	NaN	0.000000	0.001615	0.001658	28.0788	72.2523	0.001676	43119.4	3.509455	175.043	251.575	1.074105	0.089814	0.089524	253.131	43119.4	0.085412	0.232369	1089.35	81725.4
60	2.000000	1.076414	7.36564e+06	-41639.1	955.818	-29786.3	0.000000	0.000000	7.087531	268.262	NaN	0.000000	0.001588	0.001683	28.0802	74.1028	0.001743	42510.6	6.588347	171.873	268.033	1.076070	0.091834	0.091489	268.262	42510.6	0.087101	0.240525	1115.32	79193.6
60	2.000000	1.078331	7.36564e+06	-41639.1	955.819	-29786.3	0.000000	0.000000	7.089981	281.228	NaN	0.000000	0.001581	0.001692	28.0788	76.0059	0.001813	41924.8	2.017092	176.482	274.196	1.078077	0.093751	0.093496	281.228	41924.8	0.088720	0.248465	1131.86	76844.4
60	2.000000	1.080492	7.36564e+06	-41639.1	955.818	-29786.3	0.000000	0.000000	7.092713	295.125	NaN	0.000000	0.001582	0.001668	28.0789	78.6794	0.001836	42849.4	5.588553	173.026	297.98	1.080106	0.095912	0.095526	295.125	42849.4	0.090746	0.258574	1141.36	76988.5
60	2.000000	1.082405	7.36564e+06	-41639.1	955.819	-29786.3	0.000000	0.000000	7.095334	312.377	NaN	0.000000	0.001600	0.001706	28.0788	78.9348	0.001786	44189.9	0.871147	177.792	311.711	1.082047	0.097824	0.097466	312.377	44189.9	0.092522	0.267588	1167.38	78048.2
60	2.000000	1.084375	7.36564e+06	-41639.1	955.818	-29786.3	0.000000	0.000000	7.098023	329.845	NaN	0.000000	0.001603	0.001672	28.0784	83.1639	0.001925	43199.9	5.538555	172.971	326.258	1.084051	0.099794	0.099470	329.845	43199.9	0.094068	0.275550	1197.04	75189.3
60	2.000000	1.086410	7.36564e+06	-41639.1	955.819	-29786.3	0.000000	0.000000	7.100834	348.738	NaN	0.000000	0.001614	0.001644	28.0789	83.2047	0.001791	46457.4	4.836636	173.398	348.001	1.086030	0.101829	0.101450	348.738	46457.4	0.096199	0.286707	1216.35	79270
60	2.000000	1.088394	7.36564e+06	-41639.1	955.82	-29786.3	0.000000	0.000000	7.103515	365.695	NaN	0.000000	0.001619	0.001685	28.0788	86.2563	0.001764	48909.7	7.398597	170.436	364.184	1.088092	0.103813	0.103511	365.695	48909.7	0.098205	0.297399	1229.64	81940.5
60	2.000000	1.090466	7.36564e+06	-41639.1	955.82	-29786.3	0.000000	0.000000	7.106371	384.777	NaN	0.000000	0.001609	0.001694	28.0795	88.5283	0.001784	49636.8	8.030328	169.999	384.777	1.090012	0.105885	0.105431	384.777	49636.8	0.100071	0.307507	1251.28	81780.4
60	2.000000	1.092406	7.36564e+06	-41639.1	955.819	-29786.3	0.000000	0.000000	7.109063	403.061	NaN	0.000000	0.001607	0.001746	28.0807	88.7353	0.001757	50490.4	1.557102	175.897	400.663	1.092083	0.107826	0.107503	403.061	50490.4	0.101838	0.317228	1270.57	81902.4
60	2.000000	1.094406	7.36564e+06	-41639.1	955.82	-29786.3	0.000000	0.000000	7.111632	416.913	NaN	0.000000	0.001582	0.001702	28.0811	91.4187	0.001788	51139.4	1.587437	175.559	415.41	1.094157	0.109826	0.109576	416.913	51139.4	0.103711	0.327684	1272.3	81620.8
60	2.000000	1.096348	7.36564e+06	-41639.1	955.82	-29786.3	0.000000	0.000000	7.114637	442.788	NaN	0.000000	0.001608	0.001684	28.0801	92.1573	0.001775	51923.2	3.103874	174.394	439.49	1.096006	0.111767	0.111426	442.788	51923.2	0.105371	0.337085	1313.58	81708.1
60	2.000000	1.098409	7.36564e+06	-41639.1	955.821	-29786.3	0.000000	0.000000	7.117809	469.8	NaN	0.000000	0.001606	0.001696	28.0805	94.6734	0.001802	52541.1	6.439186	170.958	467.485	1.097946	0.113829	0.113365	469.8	52541.1	0.107123	0.347138	1353.35	81474.4
60	2.000000	1.100297	7.36564e+06	-41639.1	955.82	-29786.3	0.000000	0.000000	7.120277	483.923	NaN	0.000000	0.001590	0.001691	28.0794	96.3689	0.001811	53219.9	0.944396	176.459	477.004	1.100076	0.115717	0.115495	483.923	53219.9	0.108897	0.357466	1353.76	81326.1
60	2.000000	1.102324	7.36564e+06	-41639.1	955.82	-29786.3	0.000000	0.000000	7.123105	503.417	NaN	0.000000	0.001592	0.001697	28.0805	98.939	0.001750	56547.8	6.985064	169.573	500.324	1.102065	0.117743	0.117485	503.417	56547.8	0.111067	0.370287	1359.53	84902.4
60	2.000000	1.103362	7.36564e+06	-41639.1	955.82	-29786.3	0.000000	0.000000	7.124603	514.607	NaN	0.000000	0.001601	0.001667	28.1304	100.916	0.001829	55175.8	8.928803	167.976	512.696	1.103067	0.118782	0.118487	514.607	55175.8	0.111787	0.374589	1373.79	82365.4