File: remote_trans/data/nanoindenter/0828-1/data/Data_2025-08-06,11h17m57s/2025-07-22_16-23-58_1_1166.txt
2025-07-22, 16:23:58, 1
Index	Phase	Displacement	Time	Pos X	Pos Y	Pos Z	Rot A	Rot B	Piezo Z	Force A	Force B	Gripper	Voltage A	Voltage B	Temperature	Amplitude force	Amplitude pos	Stiffness	Phase shift	Phase excitation	Force A raw	Displacement raw	HMax	HMax raw	Real Force	Real Stiffness	Contact Depth	Area	Hardness	Reduced Mod.
[#]	[#]	[um]	[s]	[um]	[um]	[um]	[m°]	[m°]	[um]	[uN]	[uN]	[V]	[V]	[V]	[°C]	[uN]	[um]	[N/m]	[°]	[°]	[uN]	[um]	[um]	[um]	[uN]	[N/m]	[um]	[um^2]	[MPa]	[MPa]
1166	1.000000	0.002300	7.37645e+06	-57289.1	1105.82	-29737	0.000000	0.000000	6.002804	-0.000883	NaN	0.000000	0.001672	0.001704	28.0829	0.097238	0.000975	99.6988	-5.362985	-161.162	0.044729	0.001047	-1.099133	-1.100387	-0.000883	99.6988	-1.099127	-4.879136E+14	1.809524E-18	NaN
1166	1.000000	0.012356	7.37645e+06	-57289.1	1105.82	-29737	0.000000	0.000000	6.012860	0.013625	NaN	0.000000	0.001636	0.001700	28.0827	0.104396	0.001287	81.1028	66.7191	16.6664	0.053306	0.010928	-1.089078	-1.090506	0.013625	81.1028	-1.089204	-3.590224E+14	-3.794980E-17	NaN
1166	1.000000	0.022249	7.37645e+06	-57289.1	1105.82	-29737	0.000000	0.000000	6.022752	-0.021160	NaN	0.000000	0.001663	0.001666	28.0828	0.046408	0.001628	28.5031	-146.754	-168.551	-0.085083	0.020921	-1.079185	-1.080513	-0.021160	28.5031	-1.078628	-2.588749E+14	8.173823E-17	NaN
1166	1.000000	0.032235	7.37645e+06	-57289.1	1105.82	-29737	0.000000	0.000000	6.032737	-0.055753	NaN	0.000000	0.001677	0.001654	28.0826	0.044691	0.001954	22.8718	12.8521	12.3228	-0.127402	0.030841	-1.069199	-1.070592	-0.055753	22.8718	-1.067371	-1.827516E+14	3.050727E-16	NaN
1166	1.000000	0.042257	7.37645e+06	-57289.1	1105.82	-29737	0.000000	0.000000	6.042761	-0.008257	NaN	0.000000	0.001611	0.001701	28.0827	0.052204	0.001933	27.0102	26.7831	-165.286	-0.024025	0.040925	-1.059177	-1.060509	-0.008257	27.0102	-1.058947	-1.408231E+14	5.863094E-17	NaN
1166	1.000000	0.052268	7.37645e+06	-57289.1	1105.82	-29737	0.000000	0.000000	6.052772	0.007677	NaN	0.000000	0.001680	0.001741	28.0828	0.119591	0.001957	61.1065	-14.7145	12.1794	0.062611	0.050946	-1.049165	-1.050487	0.007677	61.1065	-1.049260	-1.043428E+14	-7.357930E-17	NaN
1166	1.000000	0.062235	7.37645e+06	-57289.1	1105.82	-29737	0.000000	0.000000	6.062740	0.016213	NaN	0.000000	0.001664	0.001731	28.0826	0.024974	0.001996	12.5122	-130.344	-166.05	0.028844	0.060967	-1.039198	-1.040466	0.016213	12.5122	-1.040170	-7.875018E+13	-2.058852E-16	NaN
1166	1.000000	0.072269	7.37645e+06	-57289.1	1105.82	-29737	0.000000	0.000000	6.072772	-0.025705	NaN	0.000000	0.001670	0.001700	28.0828	0.088924	0.002149	41.3868	159.688	9.199307	-0.080308	0.070869	-1.029164	-1.030564	-0.025705	41.3868	-1.028698	-5.520409E+13	4.656325E-16	NaN
1166	1.000000	0.082242	7.37645e+06	-57289.1	1105.82	-29737	0.000000	0.000000	6.082745	-0.043183	NaN	0.000000	0.001632	0.001717	28.0829	0.099531	0.001922	51.7857	-33.9295	-164.681	-0.075751	0.080901	-1.019191	-1.020533	-0.043183	51.7857	-1.018566	-4.033217E+13	1.070676E-15	NaN
1166	1.000000	0.092261	7.37645e+06	-57289.1	1105.82	-29737	0.000000	0.000000	6.092768	0.058813	NaN	0.000000	0.001642	0.001674	28.0826	0.068668	0.001810	37.9407	-31.1056	15.9153	0.010635	0.090886	-1.009172	-1.010547	0.058813	37.9407	-1.010335	-3.125285E+13	-1.881836E-15	NaN
1166	1.000000	0.102268	7.37645e+06	-57289.1	1105.82	-29737	0.000000	0.000000	6.102771	-0.036981	NaN	0.000000	0.001659	0.001650	28.0825	0.044600	0.002033	21.9339	-69.7398	-162.885	-0.028096	0.100947	-0.999166	-1.000487	-0.036981	21.9339	-0.997901	-2.125736E+13	1.739698E-15	NaN
1166	1.000000	0.112265	7.37645e+06	-57289.1	1105.82	-29737	0.000000	0.000000	6.112767	-0.056128	NaN	0.000000	0.001572	0.001663	28.0829	0.160260	0.002045	78.3839	117.084	13.0096	-0.076566	0.110900	-0.989168	-0.990533	-0.056128	78.3839	-0.988631	-1.594694E+13	3.519655E-15	NaN
1166	1.000000	0.122282	7.37645e+06	-57289.1	1105.82	-29737	0.000000	0.000000	6.122789	0.051390	NaN	0.000000	0.001596	0.001683	28.0827	0.111080	0.001982	56.0378	-173.415	-163.358	0.078491	0.121038	-0.979151	-0.980395	0.051390	56.0378	-0.979839	-1.214064E+13	-4.232871E-15	NaN
1166	1.000000	0.132267	7.37646e+06	-57289.1	1105.82	-29737	0.000000	0.000000	6.132773	0.034760	NaN	0.000000	0.001630	0.001710	28.0814	0.131655	0.001906	69.062	-158.206	11.0796	-0.018239	0.130951	-0.969166	-0.970482	0.034760	69.062	-0.969543	-8.820852E+12	-3.940626E-15	NaN
1166	1.000000	0.142278	7.37646e+06	-57289.1	1105.82	-29737	0.000000	0.000000	6.142782	-0.005084	NaN	0.000000	0.001623	0.001677	28.0814	0.074931	0.001941	38.6085	5.459985	-166.832	0.014738	0.140952	-0.959156	-0.960481	-0.005084	38.6085	-0.959057	-6.370224E+12	7.980433E-16	NaN
1166	1.000000	0.152253	7.37646e+06	-57289.1	1105.82	-29737	0.000000	0.000000	6.152759	0.031781	NaN	0.000000	0.001581	0.001745	28.0815	0.025009	0.001984	12.6049	164.261	15.7049	-0.028329	0.150942	-0.949180	-0.950492	0.031781	12.6049	-0.951071	-4.971349E+12	-6.392860E-15	NaN
1166	1.000000	0.162289	7.37646e+06	-57289.1	1105.82	-29737	0.000000	0.000000	6.162791	-0.043242	NaN	0.000000	0.001617	0.001681	28.0813	0.037478	0.002022	18.5366	137.638	-167.507	0.053628	0.160982	-0.939144	-0.940452	-0.043242	18.5366	-0.937395	-3.250783E+12	1.330188E-14	NaN
1166	1.000000	0.172292	7.37646e+06	-57289.1	1105.82	-29737	0.000000	0.000000	6.172797	0.019055	NaN	0.000000	0.001631	0.001696	28.0813	0.058615	0.002067	28.3515	112.037	11.7613	-0.066428	0.170929	-0.929142	-0.930505	0.019055	28.3515	-0.929646	-2.555141E+12	-7.457689E-15	NaN
1166	1.000000	0.182281	7.37646e+06	-57289.1	1105.82	-29737	0.000000	0.000000	6.182785	-0.009865	NaN	0.000000	0.001584	0.001678	28.0813	0.037109	0.002044	18.1539	-112.58	-164.934	-0.093076	0.180972	-0.919152	-0.920462	-0.009865	18.1539	-0.918745	-1.820791E+12	5.418051E-15	NaN
1166	1.000000	0.192316	7.37646e+06	-57289.1	1105.82	-29737	0.000000	0.000000	6.192820	-0.025255	NaN	0.000000	0.001612	0.001661	28.0817	0.030777	0.002000	15.3848	-86.6004	16.7501	-0.026349	0.190983	-0.909117	-0.910450	-0.025255	15.3848	-0.907886	-1.298989E+12	1.944226E-14	NaN
1166	1.000000	0.202314	7.37646e+06	-57289.1	1105.82	-29737	0.000000	0.000000	6.202819	0.002493	NaN	0.000000	0.001587	0.001691	28.0814	0.098689	0.002022	48.7965	-174.108	-164.995	-0.077974	0.200983	-0.899119	-0.900450	0.002493	48.7965	-0.899158	-9.901084E+11	-2.517850E-15	NaN
1166	1.000000	0.212336	7.37646e+06	-57289.1	1105.82	-29737	0.000000	0.000000	6.212837	-0.081442	NaN	0.000000	0.001501	0.001680	28.0812	0.031936	0.002068	15.4443	-73.9934	15.4905	-0.011790	0.210971	-0.889098	-0.890462	-0.081442	15.4443	-0.885143	-6.401028E+11	1.272328E-13	NaN
1166	1.000000	0.222311	7.37646e+06	-57289.1	1105.82	-29737	0.000000	0.000000	6.222816	0.023629	NaN	0.000000	0.001604	0.001711	28.0815	0.089483	0.001865	47.985	-77.4629	-166.575	0.034687	0.220900	-0.879122	-0.880533	0.023629	47.985	-0.879492	-5.368270E+11	-4.401611E-14	NaN
1166	1.000000	0.232290	7.37646e+06	-57289.1	1105.82	-29737	0.000000	0.000000	6.232794	-0.001732	NaN	0.000000	0.001573	0.001726	28.0815	0.079417	0.002005	39.6034	22.3245	13.3803	0.002131	0.230965	-0.869144	-0.870469	-0.001732	39.6034	-0.869111	-3.885231E+11	4.458671E-15	NaN
1166	1.000000	0.242361	7.37646e+06	-57289.1	1105.82	-29737	0.000000	0.000000	6.242864	-0.041409	NaN	0.000000	0.001561	0.001710	28.0815	0.041389	0.002059	20.1023	-138.135	-165.847	-0.000743	0.241047	-0.859072	-0.860386	-0.041409	20.1023	-0.857528	-2.708028E+11	1.529131E-13	NaN
1166	1.000000	0.252327	7.37646e+06	-57289.1	1105.82	-29737	0.000000	0.000000	6.252831	-0.008293	NaN	0.000000	0.001524	0.001714	28.0816	0.076204	0.001983	38.4381	-168.452	13.8067	0.048415	0.250968	-0.849106	-0.850465	-0.008293	38.4381	-0.848944	-2.072239E+11	4.002097E-14	NaN
1166	1.000000	0.262324	7.37646e+06	-57289.1	1105.82	-29737	0.000000	0.000000	6.262826	-0.041856	NaN	0.000000	0.001561	0.001731	28.0818	0.079377	0.002053	38.6594	-173.911	-165.748	-0.124076	0.261045	-0.839109	-0.840389	-0.041856	38.6594	-0.838297	-1.486712E+11	2.815319E-13	NaN
1166	1.000000	0.272344	7.37646e+06	-57289.1	1105.82	-29737	0.000000	0.000000	6.272849	0.027830	NaN	0.000000	0.001546	0.001754	28.0828	0.052604	0.002031	25.9053	-35.8467	13.206	0.018543	0.270905	-0.829090	-0.830529	0.027830	25.9053	-0.829896	-1.143851E+11	-2.433041E-13	NaN
1166	1.000000	0.282336	7.37646e+06	-57289.1	1105.82	-29737	0.000000	0.000000	6.282838	-0.052526	NaN	0.000000	0.001571	0.001730	28.0829	0.061808	0.002086	29.636	-25.1143	-165.489	-0.058652	0.281019	-0.819098	-0.820414	-0.052526	29.636	-0.817768	-7.833321E+10	6.705441E-13	NaN
1166	1.000000	0.292339	7.37646e+06	-57289.1	1105.82	-29737	0.000000	0.000000	6.292842	-0.035393	NaN	0.000000	0.001530	0.001713	28.0829	0.129148	0.002045	63.1417	47.3626	14.1547	-0.021971	0.291011	-0.809095	-0.810423	-0.035393	63.1417	-0.808674	-5.896364E+10	6.002589E-13	NaN
1166	1.000000	0.302357	7.37646e+06	-57289.1	1105.82	-29737	0.000000	0.000000	6.302862	0.017242	NaN	0.000000	0.001575	0.001698	28.0832	0.125635	0.001963	64.014	-92.2458	-164.917	-0.031717	0.301103	-0.799076	-0.800331	0.017242	64.014	-0.799278	-4.396055E+10	-3.922178E-13	NaN
1166	1.000000	0.312317	7.37646e+06	-57289.1	1105.82	-29737	0.000000	0.000000	6.312819	-0.053366	NaN	0.000000	0.001591	0.001737	28.0828	0.040690	0.001982	20.5258	-22.9413	15.4856	-0.094945	0.310949	-0.789117	-0.790485	-0.053366	20.5258	-0.787167	-3.010250E+10	1.772796E-12	NaN
1166	1.000000	0.322347	7.37646e+06	-57289.1	1105.82	-29737	0.000000	0.000000	6.322849	-0.056504	NaN	0.000000	0.001580	0.001767	28.0828	0.079739	0.002004	39.7806	-155.495	-162.987	-0.023581	0.321057	-0.779087	-0.780377	-0.056504	39.7806	-0.778022	-2.261231E+10	2.498807E-12	NaN
1166	1.000000	0.332347	7.37646e+06	-57289.1	1105.82	-29737	0.000000	0.000000	6.332852	0.014875	NaN	0.000000	0.001611	0.001745	28.0827	0.043841	0.002047	21.42	-1.701400	14.7874	0.007016	0.331030	-0.769086	-0.770404	0.014875	21.42	-0.769607	-1.737648E+10	-8.560153E-13	NaN
1166	1.000000	0.342348	7.37646e+06	-57289.1	1105.82	-29737	0.000000	0.000000	6.342852	-0.008167	NaN	0.000000	0.001609	0.001718	28.0827	0.048507	0.001876	25.8588	-148.368	-165.124	0.009586	0.341018	-0.759086	-0.760415	-0.008167	25.8588	-0.758849	-1.240630E+10	6.582595E-13	NaN
1166	1.000000	0.352360	7.37646e+06	-57289.1	1105.82	-29737	0.000000	0.000000	6.352862	-0.048415	NaN	0.000000	0.001558	0.001700	28.0828	0.012643	0.001915	6.603696	178.493	11.2834	-0.024194	0.350988	-0.749074	-0.750445	-0.048415	6.603696	-0.743575	-7.686820E+9	6.298489E-12	NaN
1166	1.000000	0.362378	7.37646e+06	-57289.1	1105.82	-29737	0.000000	0.000000	6.362879	-0.069011	NaN	0.000000	0.001557	0.001713	28.0829	0.050093	0.002145	23.3575	-147.703	-167.48	-0.098797	0.361067	-0.739055	-0.740366	-0.069011	23.3575	-0.736839	-6.223055E+9	1.108957E-11	NaN
1166	1.000000	0.372370	7.37646e+06	-57289.1	1105.82	-29737	0.000000	0.000000	6.372873	-0.033581	NaN	0.000000	0.001583	0.001717	28.0832	0.021990	0.002060	10.6756	-168.977	10.4476	0.012192	0.371013	-0.729064	-0.730421	-0.033581	10.6756	-0.726704	-4.527808E+9	7.416588E-12	NaN
1166	1.000000	0.382381	7.37646e+06	-57289.1	1105.82	-29737	0.000000	0.000000	6.382884	-0.021929	NaN	0.000000	0.001575	0.001695	28.0826	0.063684	0.002129	29.917	-62.1118	-165.444	-0.015410	0.381078	-0.719053	-0.720355	-0.021929	29.917	-0.718503	-3.499906E+9	6.265610E-12	NaN
1166	1.000000	0.392398	7.37646e+06	-57289.1	1105.82	-29737	0.000000	0.000000	6.392901	-0.051045	NaN	0.000000	0.001600	0.001727	28.0828	0.055380	0.001976	28.0285	89.6845	12.8452	-0.040210	0.391068	-0.709035	-0.710365	-0.051045	28.0285	-0.707669	-2.490213E+9	2.049812E-11	NaN
1166	1.000000	0.402382	7.37646e+06	-57289.1	1105.82	-29737	0.000000	0.000000	6.402886	-0.004342	NaN	0.000000	0.001604	0.001727	28.082	0.135885	0.001979	68.6752	-177.236	-163.928	0.011408	0.401057	-0.699051	-0.700376	-0.004342	68.6752	-0.699004	-1.896377E+9	2.289711E-12	NaN
1166	1.000000	0.412435	7.37646e+06	-57289.1	1105.82	-29737	0.000000	0.000000	6.412937	-0.037455	NaN	0.000000	0.001577	0.001697	28.0819	0.054125	0.002145	25.2277	-152.871	13.8587	-0.109237	0.411010	-0.688999	-0.690424	-0.037455	25.2277	-0.687885	-1.336641E+9	2.802161E-11	NaN
1166	1.000000	0.422420	7.37646e+06	-57289.1	1105.82	-29737	0.000000	0.000000	6.422921	-0.077895	NaN	0.000000	0.001594	0.001693	28.0817	0.044308	0.001909	23.2083	124.976	-165.559	-0.038812	0.421100	-0.679013	-0.680334	-0.077895	23.2083	-0.676496	-9.338520E+8	8.341206E-11	NaN
1166	1.000000	0.432394	7.37646e+06	-57289.1	1105.82	-29737	0.000000	0.000000	6.432896	-0.053613	NaN	0.000000	0.001676	0.001692	28.0817	0.053829	0.001894	28.4217	-149.123	12.1263	0.020589	0.431091	-0.669039	-0.670343	-0.053613	28.4217	-0.667625	-7.061158E+8	7.592655E-11	NaN
1166	1.000000	0.442409	7.37646e+06	-57289.1	1105.82	-29737	0.000000	0.000000	6.442911	-0.043590	NaN	0.000000	0.001654	0.001685	28.0821	0.029476	0.001878	15.6916	142.807	-167.398	-0.000931	0.441056	-0.659025	-0.660377	-0.043590	15.6916	-0.656941	-5.041579E+8	8.646029E-11	NaN
1166	1.000000	0.452444	7.37646e+06	-57289.1	1105.82	-29737	0.000000	0.000000	6.452949	0.011135	NaN	0.000000	0.001665	0.001687	28.0818	0.089164	0.002043	43.6377	-141.744	12.5623	-0.058019	0.451025	-0.648990	-0.650408	0.011135	43.6377	-0.649181	-3.946466E+8	-2.821457E-11	NaN
1166	1.000000	0.462412	7.37646e+06	-57289.1	1105.82	-29737	0.000000	0.000000	6.462912	-0.100391	NaN	0.000000	0.001631	0.001740	28.0818	0.113049	0.002154	52.473	-115.421	-165.937	-0.059290	0.461087	-0.639021	-0.640347	-0.100391	52.473	-0.637587	-2.736352E+8	3.668797E-10	NaN
1166	1.000000	0.472408	7.37646e+06	-57289.1	1105.82	-29737	0.000000	0.000000	6.472912	0.000903	NaN	0.000000	0.001574	0.001762	28.0819	0.105857	0.001863	56.8195	-163.662	14.825	-0.049289	0.471018	-0.629025	-0.630415	0.000903	56.8195	-0.629037	-2.088343E+8	-4.323199E-12	NaN
1166	1.000000	0.482416	7.37646e+06	-57289.1	1105.82	-29737	0.000000	0.000000	6.482922	0.030183	NaN	0.000000	0.001569	0.001732	28.0822	0.064017	0.002024	31.6239	55.2101	-166.523	0.035852	0.481058	-0.619017	-0.620375	0.030183	31.6239	-0.619733	-1.555838E+8	-1.939979E-10	NaN
1166	1.000000	0.492430	7.37646e+06	-57289.1	1105.82	-29737	0.000000	0.000000	6.492932	-0.044053	NaN	0.000000	0.001590	0.001719	28.0818	0.012235	0.002042	5.992061	62.5918	15.139	-0.006668	0.491047	-0.609003	-0.610387	-0.044053	5.992061	-0.603490	-9.300603E+7	4.736543E-10	NaN
1166	1.000000	0.502440	7.37646e+06	-57289.1	1105.82	-29737	0.000000	0.000000	6.502943	-0.029469	NaN	0.000000	0.001605	0.001704	28.0819	0.018659	0.002076	8.987313	155.346	-163.835	-0.035824	0.501130	-0.598994	-0.600304	-0.029469	8.987313	-0.596534	-7.459715E+7	3.950367E-10	NaN
1166	1.000000	0.512420	7.37646e+06	-57289.1	1105.82	-29737	0.000000	0.000000	6.512924	-0.026672	NaN	0.000000	0.001587	0.001682	28.0819	0.050374	0.001999	25.1963	-162.768	16.1988	0.060312	0.511093	-0.589013	-0.590340	-0.026672	25.1963	-0.588219	-5.729430E+7	4.655257E-10	NaN
1166	1.000000	0.522451	7.37646e+06	-57289.1	1105.82	-29737	0.000000	0.000000	6.522955	-0.007989	NaN	0.000000	0.001618	0.001715	28.0821	0.080176	0.002030	39.5026	-151.538	-168.061	0.072704	0.521125	-0.578983	-0.580308	-0.007989	39.5026	-0.578831	-4.251969E+7	1.878933E-10	NaN
1166	1.000000	0.532469	7.37646e+06	-57289.1	1105.82	-29737	0.000000	0.000000	6.532973	-0.007450	NaN	0.000000	0.001555	0.001694	28.0817	0.046164	0.001947	23.7073	-140.652	14.112	-0.054819	0.531043	-0.568965	-0.570390	-0.007450	23.7073	-0.568729	-3.083683E+7	2.415795E-10	NaN
1166	1.000000	0.542442	7.37646e+06	-57289.1	1105.82	-29737	0.000000	0.000000	6.542943	-0.086962	NaN	0.000000	0.001533	0.001704	28.0831	0.111887	0.002068	54.105	44.5313	-167.532	-0.031342	0.541133	-0.558991	-0.560300	-0.086962	54.105	-0.557786	-2.176429E+7	3.995638E-9	NaN
1166	1.000000	0.552444	7.37646e+06	-57289.1	1105.82	-29737	0.000000	0.000000	6.552947	-0.028980	NaN	0.000000	0.001542	0.001695	28.0834	0.057591	0.001939	29.6997	-97.2868	12.5747	-0.009597	0.551143	-0.548989	-0.550291	-0.028980	29.6997	-0.548257	-1.606260E+7	1.804214E-9	NaN
1166	1.000000	0.562448	7.37646e+06	-57289.1	1105.82	-29737	0.000000	0.000000	6.562950	-0.044774	NaN	0.000000	0.001572	0.001727	28.0831	0.083161	0.002105	39.4997	120.856	-168.203	-0.152802	0.561150	-0.538986	-0.540284	-0.044774	39.4997	-0.538136	-1.162782E+7	3.850611E-9	NaN
1166	1.000000	0.572498	7.37646e+06	-57289.1	1105.82	-29737	0.000000	0.000000	6.572999	-0.087699	NaN	0.000000	0.001572	0.001677	28.0831	0.056724	0.002128	26.6599	72.7303	15.275	-0.031938	0.571100	-0.528936	-0.530333	-0.087699	26.6599	-0.526468	-8.00784e+06	1.095169E-8	NaN
1166	1.000000	0.582474	7.37646e+06	-57289.1	1105.82	-29737	0.000000	0.000000	6.582981	0.066838	NaN	0.000000	0.001583	0.001686	28.083	0.103868	0.002062	50.3791	-61.3453	-164.394	0.019647	0.581115	-0.518959	-0.520319	0.066838	50.3791	-0.519955	-6.50077e+06	-1.028161E-8	NaN
1166	1.000000	0.592470	7.37646e+06	-57289.1	1105.82	-29737	0.000000	0.000000	6.592974	-0.003457	NaN	0.000000	0.001548	0.001688	28.0833	0.012007	0.002036	5.896491	-39.9747	14.2777	-0.000693	0.591115	-0.508963	-0.510318	-0.003457	5.896491	-0.508524	-4.50661e+06	7.670260E-10	NaN
1166	1.000000	0.602474	7.37646e+06	-57289.1	1105.82	-29737	0.000000	0.000000	6.602977	-0.030081	NaN	0.000000	0.001553	0.001708	28.0828	0.054542	0.001954	27.9116	-17.3902	-169.752	-0.042479	0.601149	-0.498960	-0.500284	-0.030081	27.9116	-0.498151	-3.23017e+06	9.312542E-9	NaN
1166	1.000000	0.612467	7.37646e+06	-57289.1	1105.82	-29737	0.000000	0.000000	6.612969	-0.035858	NaN	0.000000	0.001580	0.001698	28.083	0.105539	0.002032	51.9485	106.558	11.4776	-0.021436	0.611093	-0.488967	-0.490341	-0.035858	51.9485	-0.488449	-2.36439e+06	1.516588E-8	NaN
1166	1.000000	0.622476	7.37646e+06	-57289.1	1105.82	-29737	0.000000	0.000000	6.622979	-0.030722	NaN	0.000000	0.001597	0.001684	28.0829	0.092757	0.001950	47.5785	-82.2938	-166.188	-0.107773	0.621158	-0.478958	-0.480275	-0.030722	47.5785	-0.478473	-1.71456e+06	1.791838E-8	NaN
1166	1.000000	0.632506	7.37646e+06	-57289.1	1105.82	-29737	0.000000	0.000000	6.633011	0.026174	NaN	0.000000	0.001575	0.001695	28.0829	0.059742	0.002031	29.421	38.5843	9.638247	0.001572	0.631149	-0.468928	-0.470285	0.026174	29.421	-0.469595	-1.28744e+06	-2.033002E-8	NaN
1166	1.000000	0.642510	7.37646e+06	-57289.1	1105.82	-29737	0.000000	0.000000	6.643011	-0.085544	NaN	0.000000	0.001589	0.001705	28.0827	0.037309	0.002120	17.5944	-168.555	-168.55	0.006224	0.641139	-0.458923	-0.460294	-0.085544	17.5944	-0.455276	-810227	1.055801E-7	NaN
1166	1.000000	0.652486	7.37646e+06	-57289.1	1105.82	-29737	0.000000	0.000000	6.652987	-0.087202	NaN	0.000000	0.001600	0.001699	28.083	0.146417	0.002019	72.5233	79.2346	12.8035	0.012573	0.651142	-0.448947	-0.450291	-0.087202	72.5233	-0.448045	-640927	1.360561E-7	NaN
1166	1.000000	0.662505	7.37646e+06	-57289.1	1105.82	-29737	0.000000	0.000000	6.663008	-0.028160	NaN	0.000000	0.001583	0.001693	28.083	0.009006	0.001881	4.786828	78.043	-169.424	-0.064480	0.661222	-0.438929	-0.440212	-0.028160	4.786828	-0.434517	-412977	6.818742E-8	NaN
1166	1.000000	0.672494	7.37646e+06	-57289.1	1105.82	-29737	0.000000	0.000000	6.672996	-0.061961	NaN	0.000000	0.001568	0.001682	28.0828	0.145787	0.001993	73.1456	63.2282	10.4849	-0.080261	0.671133	-0.428939	-0.430300	-0.061961	73.1456	-0.428304	-337332	1.836791E-7	NaN
1166	1.000000	0.682487	7.37646e+06	-57289.1	1105.82	-29737	0.000000	0.000000	6.682991	0.006804	NaN	0.000000	0.001563	0.001661	28.0816	0.112153	0.002041	54.9476	-52.3612	-165.056	0.089617	0.681229	-0.418947	-0.420204	0.006804	54.9476	-0.419040	-249340	-2.728607E-8	NaN
1166	1.000000	0.692525	7.37646e+06	-57289.1	1105.82	-29737	0.000000	0.000000	6.693030	0.007347	NaN	0.000000	0.001570	0.001699	28.0817	0.045194	0.002027	22.2939	31.6648	14.3936	0.017483	0.691177	-0.408908	-0.410256	0.007347	22.2939	-0.409156	-180464	-4.071072E-8	NaN
1166	1.000000	0.702526	7.37646e+06	-57289.1	1105.82	-29737	0.000000	0.000000	6.703029	-0.028960	NaN	0.000000	0.001586	0.001704	28.0817	0.023168	0.001968	11.7717	-164.158	-166.216	0.036425	0.701182	-0.398907	-0.400251	-0.028960	11.7717	-0.397062	-121362	2.386224E-7	NaN
1166	1.000000	0.712548	7.37646e+06	-57289.1	1105.82	-29737	0.000000	0.000000	6.713052	-0.007446	NaN	0.000000	0.001604	0.001708	28.0817	0.057042	0.001973	28.9057	120.282	14.5205	-0.000197	0.711130	-0.388885	-0.390303	-0.007446	28.9057	-0.388692	-92141.7	8.081033E-8	NaN
1166	1.000000	0.722532	7.37646e+06	-57289.1	1105.82	-29737	0.000000	0.000000	6.723036	-0.003775	NaN	0.000000	0.001614	0.001711	28.0818	0.043736	0.002016	21.6971	101.649	-163.902	0.003410	0.721199	-0.378902	-0.380235	-0.003775	21.6971	-0.378771	-66412.3	5.684675E-8	NaN
1166	1.000000	0.732543	7.37646e+06	-57289.1	1105.82	-29737	0.000000	0.000000	6.733047	-0.006954	NaN	0.000000	0.001585	0.001675	28.082	0.016402	0.001980	8.284226	-166.163	13.6625	-0.010229	0.731164	-0.368890	-0.370269	-0.006954	8.284226	-0.368261	-46888.7	1.483177E-7	NaN
1166	1.000000	0.742530	7.37646e+06	-57289.1	1105.82	-29737	0.000000	0.000000	6.743034	-0.007210	NaN	0.000000	0.001615	0.001684	28.0818	0.104081	0.001925	54.0689	-13.3241	-168.282	0.018355	0.741245	-0.358903	-0.360189	-0.007210	54.0689	-0.358803	-34240.6	2.105822E-7	NaN
1166	1.000000	0.752517	7.37646e+06	-57289.1	1105.82	-29737	0.000000	0.000000	6.753021	-0.016582	NaN	0.000000	0.001628	0.001696	28.0817	0.053202	0.002087	25.489	-66.6931	12.7141	0.066948	0.751171	-0.348916	-0.350262	-0.016582	25.489	-0.348428	-24220.3	6.846336E-7	NaN
1166	1.000000	0.762565	7.37646e+06	-57289.1	1105.82	-29737	0.000000	0.000000	6.763070	0.021844	NaN	0.000000	0.001615	0.001716	28.0817	0.042859	0.002061	20.7964	54.8518	-165.019	0.003824	0.761196	-0.338869	-0.340237	0.021844	20.7964	-0.339656	-18052.8	-1.210011E-6	NaN
1166	1.000000	0.772550	7.37646e+06	-57289.1	1105.82	-29737	0.000000	0.000000	6.773049	-0.111042	NaN	0.000000	0.001620	0.001740	28.0821	0.049551	0.001982	25.0068	149.535	11.3339	-0.084623	0.771194	-0.328884	-0.330239	-0.111042	25.0068	-0.325553	-11226.9	9.890726E-6	NaN
1166	1.000000	0.782566	7.37646e+06	-57289.1	1105.82	-29737	0.000000	0.000000	6.783070	-0.000501	NaN	0.000000	0.001607	0.001693	28.0818	0.102544	0.002060	49.7878	-117.282	-166.717	-0.094200	0.781242	-0.318868	-0.320192	-0.000501	49.7878	-0.318860	-8950.72	5.602874E-8	NaN
1166	1.000000	0.792545	7.37646e+06	-57289.1	1105.82	-29737	0.000000	0.000000	6.793051	0.023217	NaN	0.000000	0.001601	0.001685	28.0821	0.111966	0.002045	54.7585	51.8271	13.3227	0.017787	0.791169	-0.308888	-0.310264	0.023217	54.7585	-0.309206	-6446.17	-3.601648E-6	NaN
1166	1.000000	0.802552	7.37646e+06	-57289.1	1105.82	-29737	0.000000	0.000000	6.803056	-0.027370	NaN	0.000000	0.001617	0.001700	28.0819	0.032508	0.001979	16.4278	-110.558	-164.663	-0.020742	0.801243	-0.298881	-0.300190	-0.027370	16.4278	-0.297631	-4338.6	6.308414E-6	NaN
1166	1.000000	0.812573	7.37646e+06	-57289.1	1105.82	-29737	0.000000	0.000000	6.813077	-0.011510	NaN	0.000000	0.001565	0.001697	28.0833	0.092978	0.001893	49.1048	-164.604	13.0823	-0.035880	0.811187	-0.288860	-0.290246	-0.011510	49.1048	-0.288684	-3188.48	3.609970E-6	NaN
1166	1.000000	0.822564	7.37646e+06	-57289.1	1105.82	-29737	0.000000	0.000000	6.823071	0.062959	NaN	0.000000	0.001579	0.001695	28.0834	0.066353	0.002030	32.6904	-112.921	-168.039	-0.052828	0.821249	-0.278870	-0.280185	0.062959	32.6904	-0.280314	-2386.2	-2.638477E-5	NaN
1166	1.000000	0.832559	7.37646e+06	-57289.1	1105.82	-29737	0.000000	0.000000	6.833063	0.000605	NaN	0.000000	0.001554	0.001639	28.0834	0.037124	0.001874	19.8074	-12.1489	11.1588	-0.004683	0.831278	-0.268874	-0.270155	0.000605	19.8074	-0.268897	-1602.42	-3.778159E-7	NaN
1166	1.000000	0.842564	7.37646e+06	-57289.1	1105.82	-29737	0.000000	0.000000	6.843067	-0.024349	NaN	0.000000	0.001580	0.001671	28.0837	0.029569	0.002128	13.8966	-14.2742	-167.829	-0.008801	0.841269	-0.258870	-0.260164	-0.024349	13.8966	-0.257556	-1075.02	2.264945E-5	NaN
1166	1.000000	0.852597	7.37646e+06	-57289.1	1105.82	-29737	0.000000	0.000000	6.853100	-0.017174	NaN	0.000000	0.001574	0.001692	28.0835	0.066046	0.002070	31.9068	102.607	14.5423	-0.009960	0.851215	-0.248837	-0.250219	-0.017174	31.9068	-0.248433	-777.524	2.208748E-5	NaN
1166	1.000000	0.862596	7.37646e+06	-57289.1	1105.82	-29737	0.000000	0.000000	6.863097	-0.084891	NaN	0.000000	0.001594	0.001662	28.0834	0.093530	0.002005	46.6388	-43.4971	-167.025	-0.071484	0.861256	-0.238838	-0.240177	-0.084891	46.6388	-0.237472	-524.834	0.000162	NaN
1166	1.000000	0.872576	7.37646e+06	-57289.1	1105.82	-29737	0.000000	0.000000	6.873079	-0.034887	NaN	0.000000	0.001607	0.001670	28.0836	0.016125	0.002002	8.053155	153.088	15.8846	-0.000640	0.871169	-0.228857	-0.230264	-0.034887	8.053155	-0.225608	-341.187	0.000102	NaN
1166	1.000000	0.882597	7.37646e+06	-57289.1	1105.82	-29737	0.000000	0.000000	6.883099	-0.067115	NaN	0.000000	0.001596	0.001702	28.0838	0.070267	0.001967	35.7222	26.738	-167.382	-0.016426	0.881293	-0.218836	-0.220140	-0.067115	35.7222	-0.217427	-252.635	0.000266	NaN
1166	1.000000	0.892632	7.37646e+06	-57289.1	1105.82	-29737	0.000000	0.000000	6.893136	-0.014864	NaN	0.000000	0.001567	0.001666	28.0833	0.053866	0.002092	25.7496	158.448	14.4462	0.010911	0.891228	-0.208802	-0.210205	-0.014864	25.7496	-0.208369	-180.455	8.236724E-5	NaN
1166	1.000000	0.902593	7.37646e+06	-57289.1	1105.82	-29737	0.000000	0.000000	6.903095	-0.051512	NaN	0.000000	0.001608	0.001677	28.0833	0.061092	0.001937	31.5423	171.649	-163.678	-0.072347	0.901334	-0.198840	-0.200099	-0.051512	31.5423	-0.197615	-120.347	0.000428	NaN
1166	1.000000	0.912590	7.37646e+06	-57289.1	1105.82	-29737	0.000000	0.000000	6.913093	-0.034063	NaN	0.000000	0.001601	0.001695	28.0834	0.067333	0.002071	32.5121	12.8835	15.4756	0.068402	0.911268	-0.188843	-0.190165	-0.034063	32.5121	-0.188058	-83.469	0.000408	NaN
1166	1.000000	0.922589	7.37646e+06	-57289.1	1105.82	-29737	0.000000	0.000000	6.923092	-0.033809	NaN	0.000000	0.001580	0.001679	28.0835	0.047425	0.002022	23.4566	-154.271	-167.815	-0.060517	0.921308	-0.178845	-0.180125	-0.033809	23.4566	-0.177764	-55.8903	0.000605	NaN
1166	1.000000	0.932623	7.37646e+06	-57289.1	1105.82	-29737	0.000000	0.000000	6.933126	-0.038602	NaN	0.000000	0.001608	0.001677	28.083	0.124897	0.001938	64.4541	167.427	12.2902	-0.071597	0.931272	-0.168811	-0.170162	-0.038602	64.4541	-0.168361	-38.4687	0.001003	NaN
1166	1.000000	0.942636	7.37646e+06	-57289.1	1105.82	-29737	0.000000	0.000000	6.943139	-0.031150	NaN	0.000000	0.001575	0.001678	28.0833	0.058574	0.001943	30.1463	-128.292	-164.764	-0.079050	0.941311	-0.158797	-0.160123	-0.031150	30.1463	-0.158022	-25.2786	0.001232	NaN
1166	1.000000	0.952630	7.37646e+06	-57289.1	1105.82	-29737	0.000000	0.000000	6.953132	-0.054107	NaN	0.000000	0.001610	0.001687	28.0819	0.017919	0.002016	8.889268	134.69	8.997558	-0.082540	0.951226	-0.148803	-0.150207	-0.054107	8.889268	-0.144238	-14.1925	0.003812	NaN
1166	1.000000	0.962628	7.37646e+06	-57289.1	1105.82	-29737	0.000000	0.000000	6.963129	-0.085107	NaN	0.000000	0.001571	0.001700	28.082	0.091260	0.002051	44.4933	-175.836	-168.018	-0.095672	0.961327	-0.138805	-0.140106	-0.085107	44.4933	-0.137371	-10.5529	0.008065	NaN
1166	1.000000	0.972612	7.37646e+06	-57289.1	1105.82	-29737	0.000000	0.000000	6.973115	-0.029299	NaN	0.000000	0.001611	0.001701	28.0818	0.141180	0.002082	67.7954	153.132	12.1142	-0.010411	0.971276	-0.128822	-0.130157	-0.029299	67.7954	-0.128497	-7.124346	0.004113	NaN
1166	1.000000	0.982621	7.37646e+06	-57289.1	1105.82	-29737	0.000000	0.000000	6.983122	-0.076354	NaN	0.000000	0.001600	0.001663	28.082	0.068171	0.002029	33.6022	-104.228	-167.654	-0.032631	0.981350	-0.118812	-0.120083	-0.076354	33.6022	-0.117108	-4.220497	0.018091	NaN
1166	1.000000	0.992630	7.37646e+06	-57289.1	1105.82	-29737	0.000000	0.000000	6.993137	0.068955	NaN	0.000000	0.001563	0.001686	28.0817	0.063527	0.002007	31.6545	-21.1937	12.0573	0.007911	0.991246	-0.108803	-0.110188	0.068955	31.6545	-0.110437	-3.069606	-0.022464	NaN
1166	1.000000	1.002624	7.37646e+06	-57289.1	1105.82	-29737	0.000000	0.000000	7.003131	0.082589	NaN	0.000000	0.001618	0.001675	28.0818	0.059734	0.001880	31.7683	-129.936	-166.318	0.045099	1.001324	-0.098810	-0.100110	0.082589	31.7683	-0.100759	-1.899216	-0.043486	NaN
1166	1.000000	1.012623	7.37646e+06	-57289.1	1105.82	-29737	0.000000	0.000000	7.013128	0.016290	NaN	0.000000	0.001617	0.001654	28.0817	0.047273	0.002013	23.4803	54.1638	14.5061	-0.009743	1.011282	-0.088810	-0.090152	0.016290	23.4803	-0.089331	-1.042517	-0.015625	NaN
1166	1.000000	1.022661	7.37646e+06	-57289.1	1105.82	-29737	0.000000	0.000000	7.023161	-0.095044	NaN	0.000000	0.001625	0.001635	28.0821	0.053075	0.001956	27.1352	-169.965	-169.814	-0.089572	1.021339	-0.078773	-0.080095	-0.095044	27.1352	-0.076146	-0.494357	0.192259	NaN
1166	1.000000	1.032633	7.37646e+06	-57289.1	1105.82	-29737	0.000000	0.000000	7.033137	-0.008243	NaN	0.000000	0.001608	0.001630	28.0816	0.097139	0.001968	49.3477	-66.1566	10.9734	0.056874	1.031329	-0.068800	-0.070105	-0.008243	49.3477	-0.068675	-0.314216	0.026233	NaN
1166	1.000000	1.042670	7.37646e+06	-57289.1	1105.82	-29737	0.000000	0.000000	7.043173	-0.027729	NaN	0.000000	0.001566	0.001655	28.0818	0.068351	0.002037	33.5584	-12.016	-165.723	0.004009	1.041315	-0.058763	-0.060119	-0.027729	33.5584	-0.058143	-0.159194	0.174181	NaN
1166	1.000000	1.052659	7.37646e+06	-57289.1	1105.82	-29737	0.000000	0.000000	7.053161	-0.062893	NaN	0.000000	0.001563	0.001657	28.0817	0.069383	0.002007	34.5691	60.5732	12.4216	-0.089387	1.051279	-0.048774	-0.050154	-0.062893	34.5691	-0.047409	-0.076132	0.826104	NaN
1166	1.000000	1.062665	7.37646e+06	-57289.1	1105.82	-29737	0.000000	0.000000	7.063168	-0.011330	NaN	0.000000	0.001573	0.001679	28.0828	0.036725	0.002021	18.1723	-1.021179	-165.446	0.051577	1.061369	-0.038769	-0.040065	-0.011330	18.1723	-0.038301	-0.040173	0.282039	NaN
1166	1.000000	1.072668	7.37646e+06	-57289.1	1105.82	-29737	0.000000	0.000000	7.073171	-0.033790	NaN	0.000000	0.001562	0.001682	28.0817	0.104856	0.001975	53.0948	64.6265	13.0039	-0.018868	1.071320	-0.028766	-0.030113	-0.033790	53.0948	-0.028288	-0.020645	1.636754	NaN
1166	1.000000	1.082679	7.37646e+06	-57289.1	1105.82	-29737	0.000000	0.000000	7.083180	-0.082177	NaN	0.000000	0.001559	0.001646	28.0817	0.048776	0.001940	25.1441	-93.3021	-166.186	-0.056170	1.081347	-0.018754	-0.020086	-0.082177	25.1441	-0.016303	-0.010071	8.159859	NaN
1166	1.000000	1.092684	7.37646e+06	-57289.1	1105.82	-29737	0.000000	0.000000	7.093187	-0.036129	NaN	0.000000	0.001592	0.001636	28.083	0.200430	0.001980	101.216	-146.659	15.3057	-0.029920	1.091342	-0.008749	-0.010091	-0.036129	101.216	-0.008482	-0.005513	6.553750	NaN
1166	1.000000	1.102657	7.37646e+06	-57289.1	1105.82	-29737	0.000000	0.000000	7.103353	4.658632	NaN	0.000000	0.001612	0.001659	28.0831	5.502857	0.001643	3350.25	7.289927	-168.459	3.724038	1.101387	0.001224	-4.609749E-5	4.658632	3350.25	0.000181	0.000135	34393.6	263003
1166	2.000000	1.107764	7.37646e+06	-57289.1	1105.82	-29737	0.000000	0.000000	7.108723	11.0533	NaN	0.000000	0.001538	0.001617	28.0826	10.675	0.001670	6390.38	5.644095	6.981969	10.5412	1.107376	0.006330	0.005943	11.0533	6390.38	0.005033	0.004164	2654.72	90482.2
1166	2.000000	1.110234	7.37646e+06	-57289.1	1105.82	-29737	0.000000	0.000000	7.111346	14.7728	NaN	0.000000	0.001547	0.001643	28.0831	13.968	0.001675	8339.25	6.268440	-177.302	13.648	1.109913	0.008801	0.008479	14.7728	8339.25	0.007472	0.006505	2270.9	94464.5
1166	2.000000	1.112736	7.37646e+06	-57289.1	1105.82	-29737	0.000000	0.000000	7.114035	19.3332	NaN	0.000000	0.001548	0.001689	28.0833	16.2566	0.001770	9186.88	9.764247	0.848646	18.9142	1.112343	0.011302	0.010910	19.3332	9186.88	0.009724	0.008876	2178.05	89089
1166	2.000000	1.115196	7.37646e+06	-57289.1	1105.82	-29737	0.000000	0.000000	7.116699	24.2776	NaN	0.000000	0.001548	0.001657	28.0831	19.0791	0.001709	11165.2	7.675558	179.641	23.2917	1.114908	0.013762	0.013474	24.2776	11165.2	0.012132	0.011648	2084.24	94517
1166	2.000000	1.117715	7.37646e+06	-57289.1	1105.82	-29737	0.000000	0.000000	7.119443	29.7324	NaN	0.000000	0.001562	0.001666	28.083	22.014	0.001873	11752.8	5.009283	2.177068	30.1723	1.117377	0.016282	0.015944	29.7324	11752.8	0.014384	0.014473	2054.31	89254.9
1166	2.000000	1.120160	7.37646e+06	-57289.1	1105.82	-29737	0.000000	0.000000	7.122144	35.9672	NaN	0.000000	0.001583	0.001648	28.0832	24.49	0.001881	13020.4	5.478663	-178.278	34.7808	1.119911	0.018726	0.018478	35.9672	13020.4	0.016655	0.017556	2048.77	89782.4
1166	2.000000	1.122736	7.37646e+06	-57289.1	1105.82	-29737	0.000000	0.000000	7.124942	41.3646	NaN	0.000000	0.001538	0.001676	28.0834	26.4883	0.001806	14664.8	0.046319	5.527717	40.0788	1.122432	0.021303	0.020998	41.3646	14664.8	0.019187	0.021281	1943.73	91844.5
1166	2.000000	1.125173	7.37646e+06	-57289.1	1105.82	-29737	0.000000	0.000000	7.127676	48.5697	NaN	0.000000	0.001585	0.001688	28.0832	29.1463	0.001782	16360.3	7.255548	176.488	47.252	1.124858	0.023740	0.023425	48.5697	16360.3	0.021513	0.024976	1944.67	94581.3
1166	2.000000	1.127768	7.37646e+06	-57289.1	1105.82	-29737	0.000000	0.000000	7.130619	57.0399	NaN	0.000000	0.001561	0.001674	28.083	31.9917	0.001842	17370	6.779483	-0.080935	62.347	1.127226	0.026334	0.025792	57.0399	17370	0.023871	0.028994	1967.28	93200
1166	2.000000	1.130176	7.37646e+06	-57289.1	1105.82	-29737	0.000000	0.000000	7.133397	66.0371	NaN	0.000000	0.001619	0.001699	28.083	33.9627	0.001871	18153.3	3.387888	-179.169	67.3947	1.129865	0.028743	0.028431	66.0371	18153.3	0.026014	0.032887	2008.02	91457.2
1166	2.000000	1.132608	7.37646e+06	-57289.1	1105.82	-29737	0.000000	0.000000	7.136441	80.8999	NaN	0.000000	0.001678	0.001682	28.0829	36.0429	0.001763	20439	5.218243	-2.671253	77.0498	1.132311	0.031175	0.030877	80.8999	20439	0.028206	0.037108	2180.11	96938.9
1166	2.000000	1.135162	7.37646e+06	-57289.1	1105.82	-29737	0.000000	0.000000	7.139006	81.1543	NaN	0.000000	0.001674	0.001706	28.0821	37.812	0.001712	22089.2	3.518365	177.384	79.9691	1.134870	0.033729	0.033437	81.1543	22089.2	0.030974	0.042786	1896.76	97567.3
1166	2.000000	1.137661	7.37646e+06	-57289.1	1105.82	-29737	0.000000	0.000000	7.141995	93.0773	NaN	0.000000	0.001659	0.001688	28.082	41.1545	0.001777	23162.9	6.455274	-5.507906	92.1037	1.137316	0.036228	0.035882	93.0773	23162.9	0.033214	0.047669	1952.57	96927.6
1166	2.000000	1.140111	7.37646e+06	-57289.1	1105.82	-29737	0.000000	0.000000	7.145115	109.364	NaN	0.000000	0.001632	0.001677	28.082	43.5292	0.001811	24033.8	1.628526	179.139	107.881	1.139788	0.038678	0.038355	109.364	24033.8	0.035265	0.052365	2088.5	95957.2
1166	2.000000	1.142641	7.37646e+06	-57289.1	1105.82	-29737	0.000000	0.000000	7.148094	120.284	NaN	0.000000	0.001634	0.001681	28.0816	44.4297	0.001696	26198.1	1.215927	-0.896785	118.166	1.142332	0.041208	0.040899	120.284	26198.1	0.037764	0.058378	2060.44	99064.4
1166	2.000000	1.145129	7.37646e+06	-57289.1	1105.82	-29737	0.000000	0.000000	7.150953	129.292	NaN	0.000000	0.001685	0.001670	28.0819	47.984	0.001819	26376.8	4.694770	175.439	127.849	1.144750	0.043696	0.043317	129.292	26376.8	0.040020	0.064079	2017.68	95199.9
1166	2.000000	1.147677	7.37646e+06	-57289.1	1105.82	-29737	0.000000	0.000000	7.153923	139.554	NaN	0.000000	0.001663	0.001702	28.0819	51.7007	0.001735	29797.5	7.372140	-7.676121	140.58	1.147247	0.046244	0.045814	139.554	29797.5	0.042731	0.071278	1957.89	101971
1166	2.000000	1.150127	7.37646e+06	-57289.1	1105.82	-29737	0.000000	0.000000	7.156895	152.254	NaN	0.000000	0.001630	0.001684	28.0821	54.4982	0.001763	30907.9	1.205741	177.986	151.316	1.149818	0.048693	0.048385	152.254	30907.9	0.044999	0.077583	1962.46	101382
1166	2.000000	1.152660	7.37646e+06	-57289.1	1105.82	-29737	0.000000	0.000000	7.160069	167.829	NaN	0.000000	0.001655	0.001685	28.0818	57.0422	0.001864	30599.4	5.398191	-5.333630	168.137	1.152201	0.051226	0.050768	167.829	30599.4	0.047113	0.083698	2005.18	96633.9
1166	2.000000	1.155030	7.37646e+06	-57289.1	1105.82	-29737	0.000000	0.000000	7.162736	175.023	NaN	0.000000	0.001690	0.001727	28.0818	57.8769	0.001684	34376	0.804299	176.531	170.815	1.154837	0.053597	0.053403	175.023	34376	0.049778	0.091729	1908.04	103699
1166	2.000000	1.157601	7.37646e+06	-57289.1	1105.82	-29737	0.000000	0.000000	7.166109	194.53	NaN	0.000000	0.001638	0.001718	28.0819	61.702	0.001792	34432.3	2.196510	-3.936356	191.798	1.157301	0.056168	0.055868	194.53	34432.3	0.051930	0.098473	1975.46	100249
1166	2.000000	1.160194	7.37646e+06	-57289.1	1105.82	-29737	0.000000	0.000000	7.169014	202.103	NaN	0.000000	0.001629	0.001696	28.082	65.3345	0.001876	34832.6	6.365647	171.934	204.877	1.159781	0.058761	0.058348	202.103	34832.6	0.054409	0.106528	1897.18	97505
1166	2.000000	1.162592	7.37646e+06	-57289.1	1105.82	-29737	0.000000	0.000000	7.172154	220.135	NaN	0.000000	0.001643	0.001722	28.082	66.5143	0.001842	36105.2	4.234830	-6.505163	215.667	1.162309	0.061159	0.060875	220.135	36105.2	0.056586	0.113852	1933.52	97762.5
1166	2.000000	1.165089	7.37646e+06	-57289.1	1105.82	-29737	0.000000	0.000000	7.175285	235.544	NaN	0.000000	0.001661	0.001730	28.0819	68.8515	0.001884	36540.6	3.093747	174.635	232.385	1.164857	0.063656	0.063423	235.544	36540.6	0.058821	0.121615	1936.8	95731.7
1166	2.000000	1.167517	7.37646e+06	-57289.1	1105.82	-29737	0.000000	0.000000	7.178507	254.864	NaN	0.000000	0.001638	0.001719	28.0821	70.1912	0.001826	38438.9	2.864222	-5.707701	248.32	1.167178	0.066083	0.065744	254.864	38438.9	0.061111	0.129821	1963.2	97470.1
1166	2.000000	1.170087	7.37646e+06	-57289.1	1105.82	-29737	0.000000	0.000000	7.181822	272.957	NaN	0.000000	0.001608	0.001707	28.083	73.5084	0.001779	41312.7	6.328038	170.584	269.764	1.169747	0.068654	0.068314	272.957	41312.7	0.063698	0.139404	1958.04	101093
1166	2.000000	1.172591	7.37646e+06	-57289.1	1105.82	-29737	0.000000	0.000000	7.184770	283.747	NaN	0.000000	0.001624	0.001651	28.0831	73.8919	0.001791	41251.7	1.242653	-4.464141	278.208	1.172288	0.071158	0.070854	283.747	41251.7	0.065999	0.148195	1914.68	97903.3
1166	2.000000	1.175071	7.37646e+06	-57289.1	1105.82	-29737	0.000000	0.000000	7.188265	308.416	NaN	0.000000	0.001620	0.001669	28.0832	76.209	0.001748	43593.8	5.016064	171.582	305.963	1.174755	0.073638	0.073321	308.416	43593.8	0.068331	0.157367	1959.86	100402
1166	2.000000	1.177543	7.37646e+06	-57289.1	1105.82	-29737	0.000000	0.000000	7.191552	328.223	NaN	0.000000	0.001601	0.001682	28.0831	78.1187	0.001723	45341.3	1.302880	-4.575829	323.516	1.177147	0.076109	0.075714	328.223	45341.3	0.070680	0.166866	1966.99	101411
1166	2.000000	1.180121	7.37646e+06	-57289.1	1105.82	-29737	0.000000	0.000000	7.194717	342.494	NaN	0.000000	0.001620	0.001689	28.0831	82.5842	0.001790	46139.6	4.047469	172.229	343.339	1.179766	0.078688	0.078333	342.494	46139.6	0.073120	0.177012	1934.86	100195
1166	2.000000	1.182545	7.37646e+06	-57289.1	1105.82	-29737	0.000000	0.000000	7.197882	360.518	NaN	0.000000	0.001567	0.001682	28.0833	83.0747	0.001764	47097.9	8.322935	-10.9814	354.347	1.182187	0.081111	0.080753	360.518	47097.9	0.075370	0.186617	1931.86	99609
1166	2.000000	1.184987	7.37646e+06	-57289.1	1105.82	-29737	0.000000	0.000000	7.201033	377.721	NaN	0.000000	0.001552	0.001677	28.0833	85.5958	0.001629	52552.8	3.422197	171.617	372.981	1.184629	0.083554	0.083195	377.721	52552.8	0.078163	0.198871	1899.32	107667
1166	2.000000	1.187622	7.37646e+06	-57289.1	1105.82	-29737	0.000000	0.000000	7.204416	395.922	NaN	0.000000	0.001574	0.001692	28.0833	88.4736	0.001739	50880.2	3.074775	-7.718924	395.388	1.187263	0.086189	0.085829	395.922	50880.2	0.080353	0.208732	1896.8	101748
1166	2.000000	1.189965	7.37646e+06	-57289.1	1105.82	-29737	0.000000	0.000000	7.207405	411.624	NaN	0.000000	0.001549	0.001710	28.0831	91.4369	0.001796	50906.7	0.042571	175.271	403.54	1.189627	0.088532	0.088194	411.624	50906.7	0.082467	0.218468	1884.14	99507.2
1166	2.000000	1.192519	7.37646e+06	-57289.1	1105.82	-29737	0.000000	0.000000	7.211080	438.852	NaN	0.000000	0.001581	0.001718	28.0834	93.1361	0.001804	51621.1	2.516929	-7.069394	431.948	1.192204	0.091086	0.090770	438.852	51621.1	0.084710	0.229019	1916.22	98551.7
1166	2.000000	1.195061	7.37646e+06	-57289.1	1105.82	-29737	0.000000	0.000000	7.214601	462.669	NaN	0.000000	0.001562	0.001713	28.083	96.0033	0.001759	54580.5	5.304579	169.883	462.518	1.194707	0.093627	0.093274	462.669	54580.5	0.087270	0.241347	1917.03	101506
1166	2.000000	1.197552	7.37646e+06	-57289.1	1105.82	-29737	0.000000	0.000000	7.217880	481.807	NaN	0.000000	0.001572	0.001744	28.0829	99.3098	0.001928	51510.8	3.714375	-8.371157	478.667	1.197246	0.096119	0.095812	481.807	51510.8	0.089104	0.250366	1924.41	94055.4
1166	2.000000	1.200026	7.37646e+06	-57289.1	1105.82	-29737	0.000000	0.000000	7.221002	497.573	NaN	0.000000	0.001596	0.001713	28.0832	100.493	0.001825	55067.5	3.595877	171.6	494.685	1.199835	0.098592	0.098402	497.573	55067.5	0.091816	0.263983	1884.87	97922
1166	2.000000	1.202502	7.37646e+06	-57289.1	1105.82	-29737	0.000000	0.000000	7.224346	518.665	NaN	0.000000	0.001570	0.001751	28.0837	101.81	0.001794	56756.6	1.147281	-6.226675	510.833	1.202227	0.101068	0.100793	518.665	56756.6	0.094214	0.276310	1877.12	98648.7
1166	2.000000	1.204512	7.37646e+06	-57289.1	1105.82	-29737	0.000000	0.000000	7.227133	537.537	NaN	0.000000	0.001571	0.001708	28.0817	104.087	0.001699	61277.8	3.617740	-9.074914	531.293	1.204065	0.103079	0.102632	537.537	61277.8	0.096500	0.288299	1864.51	104269