File: remote_trans/data/nanoindenter/0828-1/data/Data_2025-08-06,11h17m57s/2025-07-22_16-23-58_1_208.txt
2025-07-22, 16:23:58, 1
Index	Phase	Displacement	Time	Pos X	Pos Y	Pos Z	Rot A	Rot B	Piezo Z	Force A	Force B	Gripper	Voltage A	Voltage B	Temperature	Amplitude force	Amplitude pos	Stiffness	Phase shift	Phase excitation	Force A raw	Displacement raw	HMax	HMax raw	Real Force	Real Stiffness	Contact Depth	Area	Hardness	Reduced Mod.
[#]	[#]	[um]	[s]	[um]	[um]	[um]	[m°]	[m°]	[um]	[uN]	[uN]	[V]	[V]	[V]	[°C]	[uN]	[um]	[N/m]	[°]	[°]	[uN]	[um]	[um]	[um]	[uN]	[N/m]	[um]	[um^2]	[MPa]	[MPa]
208	1.000000	0.002242	7.36708e+06	-49039.1	955.816	-29760.8	0.000000	0.000000	6.002814	0.026969	NaN	0.000000	0.001741	0.001700	28.079	0.047018	0.001175	40.0083	150.744	-171.062	-0.054983	0.000976	-0.962908	-0.964174	0.026969	40.0083	-0.963414	-7.292786E+12	-3.698037E-15	NaN
208	1.000000	0.010201	7.36708e+06	-49039.1	955.819	-29760.8	0.000000	0.000000	6.010772	-0.004594	NaN	0.000000	0.001682	0.001668	28.079	0.080471	0.000928	86.6803	152.413	-164.969	0.073115	0.008890	-0.954949	-0.956260	-0.004594	86.6803	-0.954909	-5.600581E+12	8.202566E-16	NaN
208	1.000000	0.018195	7.36708e+06	-49039.1	955.818	-29760.8	0.000000	0.000000	6.018767	0.029011	NaN	0.000000	0.001705	0.001671	28.0791	0.008428	0.001671	5.042971	-90.3809	-164.58	0.067378	0.016889	-0.946955	-0.948262	0.029011	5.042971	-0.951270	-5.002138E+12	-5.799697E-15	NaN
208	1.000000	0.026206	7.36708e+06	-49039.1	955.819	-29760.8	0.000000	0.000000	6.026775	-0.056076	NaN	0.000000	0.001697	0.001680	28.0791	0.070199	0.001925	36.4742	-102.584	-165.301	0.032311	0.024859	-0.938944	-0.940292	-0.056076	36.4742	-0.937791	-3.291065E+12	1.703898E-14	NaN
208	1.000000	0.034150	7.36708e+06	-49039.1	955.818	-29760.8	0.000000	0.000000	6.034721	0.010360	NaN	0.000000	0.001697	0.001668	28.0791	0.082259	0.001964	41.8776	90.7314	-165.769	-0.001654	0.032845	-0.931001	-0.932305	0.010360	41.8776	-0.931186	-2.680435E+12	-3.865017E-15	NaN
208	1.000000	0.042171	7.36708e+06	-49039.1	955.818	-29760.8	0.000000	0.000000	6.042744	0.048057	NaN	0.000000	0.001647	0.001733	28.0778	0.034229	0.001965	17.4176	-100.066	-163.575	0.043549	0.040873	-0.922979	-0.924277	0.048057	17.4176	-0.925048	-2.214927E+12	-2.169701E-14	NaN
208	1.000000	0.050188	7.36708e+06	-49039.1	955.818	-29760.8	0.000000	0.000000	6.050760	0.008297	NaN	0.000000	0.001683	0.001649	28.0778	0.031928	0.002044	15.6195	6.324585	-162.267	0.030214	0.048910	-0.914962	-0.916240	0.008297	15.6195	-0.915360	-1.638926E+12	-5.062416E-15	NaN
208	1.000000	0.058200	7.36708e+06	-49039.1	955.819	-29760.8	0.000000	0.000000	6.058768	-0.080068	NaN	0.000000	0.001648	0.001634	28.0778	0.062663	0.002035	30.7863	-83.0637	-166.191	0.018541	0.056817	-0.906950	-0.908333	-0.080068	30.7863	-0.904999	-1.187434E+12	6.742906E-14	NaN
208	1.000000	0.066176	7.36708e+06	-49039.1	955.819	-29760.8	0.000000	0.000000	6.066748	0.008482	NaN	0.000000	0.001695	0.001676	28.0777	0.032455	0.001948	16.6624	-136.147	-164.978	-0.022871	0.064846	-0.898974	-0.900304	0.008482	16.6624	-0.899356	-9.962380E+11	-8.514455E-15	NaN
208	1.000000	0.074164	7.36708e+06	-49039.1	955.819	-29760.8	0.000000	0.000000	6.074732	-0.063557	NaN	0.000000	0.001613	0.001636	28.0778	0.063624	0.001902	33.4496	145.586	-164.641	-0.079031	0.072923	-0.890986	-0.892227	-0.063557	33.4496	-0.889561	-7.344855E+11	8.653251E-14	NaN
208	1.000000	0.082190	7.36708e+06	-49039.1	955.818	-29760.8	0.000000	0.000000	6.082759	-0.062795	NaN	0.000000	0.001704	0.001699	28.0777	0.029669	0.002076	14.2899	54.3199	-166.53	-0.002883	0.080856	-0.882960	-0.884294	-0.062795	14.2899	-0.879664	-5.397173E+11	1.163476E-13	NaN
208	1.000000	0.090168	7.36708e+06	-49039.1	955.819	-29760.8	0.000000	0.000000	6.090736	-0.062829	NaN	0.000000	0.001649	0.001678	28.0777	0.043940	0.002070	21.2311	127.626	-167.414	-0.060595	0.088882	-0.874982	-0.876268	-0.062829	21.2311	-0.872763	-4.353323E+11	1.443243E-13	NaN
208	1.000000	0.098210	7.36708e+06	-49039.1	955.819	-29760.8	0.000000	0.000000	6.098784	0.064452	NaN	0.000000	0.001687	0.001662	28.0778	0.104011	0.002006	51.8489	81.0246	-166.505	0.157832	0.096796	-0.866940	-0.868354	0.064452	51.8489	-0.867872	-3.738110E+11	-1.724195E-13	NaN
208	1.000000	0.106188	7.36708e+06	-49039.1	955.819	-29760.8	0.000000	0.000000	6.106760	0.036506	NaN	0.000000	0.001668	0.001680	28.0777	0.049442	0.001870	26.4337	-101.691	-166.32	-0.022818	0.104878	-0.858963	-0.860272	0.036506	26.4337	-0.859998	-2.924817E+11	-1.248151E-13	NaN
208	1.000000	0.114199	7.36708e+06	-49039.1	955.817	-29760.8	0.000000	0.000000	6.114771	0.022981	NaN	0.000000	0.001651	0.001671	28.0775	0.116783	0.002020	57.8117	-110.665	-168.171	0.004782	0.112920	-0.850951	-0.852230	0.022981	57.8117	-0.851249	-2.226662E+11	-1.032088E-13	NaN
208	1.000000	0.122215	7.36708e+06	-49039.1	955.818	-29760.8	0.000000	0.000000	6.122791	0.109465	NaN	0.000000	0.001673	0.001669	28.0778	0.054277	0.001919	28.2909	135.222	-164.609	0.104296	0.120849	-0.842935	-0.844301	0.109465	28.2909	-0.845837	-1.880884E+11	-5.819878E-13	NaN
208	1.000000	0.130201	7.36708e+06	-49039.1	955.817	-29760.8	0.000000	0.000000	6.130775	0.049491	NaN	0.000000	0.001711	0.001676	28.0777	0.039161	0.001826	21.4509	128.567	-165.878	0.024087	0.128907	-0.834949	-0.836243	0.049491	21.4509	-0.836679	-1.413513E+11	-3.501289E-13	NaN
208	1.000000	0.138208	7.36708e+06	-49039.1	955.819	-29760.8	0.000000	0.000000	6.138776	-0.083626	NaN	0.000000	0.001679	0.001686	28.0774	0.081992	0.002056	39.8713	28.8164	-167.376	-0.061828	0.136877	-0.826942	-0.828274	-0.083626	39.8713	-0.825369	-9.931403E+10	8.420372E-13	NaN
208	1.000000	0.146204	7.36708e+06	-49039.1	955.818	-29760.8	0.000000	0.000000	6.146776	0.026148	NaN	0.000000	0.001703	0.001662	28.0777	0.080797	0.002116	38.1905	53.1718	-163.167	-0.058937	0.144886	-0.818946	-0.820264	0.026148	38.1905	-0.819460	-8.258191E+10	-3.166329E-13	NaN
208	1.000000	0.154203	7.36708e+06	-49039.1	955.818	-29760.8	0.000000	0.000000	6.154773	-0.015525	NaN	0.000000	0.001737	0.001664	28.0777	0.159409	0.002088	76.3457	-72.5716	-162.878	0.024559	0.152952	-0.810948	-0.812198	-0.015525	76.3457	-0.810795	-6.300244E+10	2.464133E-13	NaN
208	1.000000	0.162229	7.36708e+06	-49039.1	955.819	-29760.8	0.000000	0.000000	6.162801	0.015284	NaN	0.000000	0.001722	0.001679	28.0779	0.014716	0.002001	7.353948	-148.986	-166.605	0.019979	0.160910	-0.802921	-0.804240	0.015284	7.353948	-0.804479	-5.172014E+10	-2.955044E-13	NaN
208	1.000000	0.170211	7.36708e+06	-49039.1	955.818	-29760.8	0.000000	0.000000	6.170782	-0.016790	NaN	0.000000	0.001726	0.001674	28.0778	0.098324	0.001852	53.083	109.495	-164.292	-0.033330	0.168946	-0.794939	-0.796204	-0.016790	53.083	-0.794702	-3.810076E+10	4.406753E-13	NaN
208	1.000000	0.178247	7.36708e+06	-49039.1	955.819	-29760.8	0.000000	0.000000	6.178816	-0.059815	NaN	0.000000	0.001690	0.001640	28.0789	0.051152	0.002016	25.3785	-157.851	-164.078	-0.080738	0.176938	-0.786903	-0.788212	-0.059815	25.3785	-0.785135	-2.824887E+10	2.117432E-12	NaN
208	1.000000	0.186252	7.36708e+06	-49039.1	955.818	-29760.8	0.000000	0.000000	6.186823	-0.017976	NaN	0.000000	0.001664	0.001673	28.0792	0.079814	0.001924	41.4749	97.3003	-169.232	0.013175	0.184915	-0.778898	-0.780235	-0.017976	41.4749	-0.778573	-2.300568E+10	7.813553E-13	NaN
208	1.000000	0.194223	7.36708e+06	-49039.1	955.818	-29760.8	0.000000	0.000000	6.194797	0.055281	NaN	0.000000	0.001679	0.001658	28.0788	0.037821	0.001806	20.9436	-42.7769	-167.355	-0.018388	0.192893	-0.770927	-0.772257	0.055281	20.9436	-0.772906	-1.926724E+10	-2.869164E-12	NaN
208	1.000000	0.202275	7.36708e+06	-49039.1	955.817	-29760.8	0.000000	0.000000	6.202844	-0.057710	NaN	0.000000	0.001681	0.001638	28.0789	0.067471	0.002188	30.8427	162.813	-166.836	0.022022	0.200926	-0.762875	-0.764224	-0.057710	30.8427	-0.761472	-1.346858E+10	4.284785E-12	NaN
208	1.000000	0.210253	7.36708e+06	-49039.1	955.819	-29760.8	0.000000	0.000000	6.210825	0.005121	NaN	0.000000	0.001662	0.001675	28.0789	0.020578	0.002088	9.853605	-84.9243	-165.605	-0.018250	0.208900	-0.754897	-0.756250	0.005121	9.853605	-0.755287	-1.109610E+10	-4.615075E-13	NaN
208	1.000000	0.218221	7.36708e+06	-49039.1	955.819	-29760.8	0.000000	0.000000	6.218795	0.057305	NaN	0.000000	0.001673	0.001696	28.079	0.101891	0.002127	47.9131	-9.291990	-167.642	-0.026239	0.216980	-0.746929	-0.748170	0.057305	47.9131	-0.747826	-8.782569E+9	-6.524864E-12	NaN
208	1.000000	0.226251	7.36708e+06	-49039.1	955.819	-29760.8	0.000000	0.000000	6.226823	0.022123	NaN	0.000000	0.001662	0.001655	28.0793	0.053489	0.002074	25.7919	45.5762	-164.953	-0.047596	0.224930	-0.738899	-0.740220	0.022123	25.7919	-0.739542	-6.773632E+9	-3.265995E-12	NaN
208	1.000000	0.234259	7.36708e+06	-49039.1	955.819	-29760.8	0.000000	0.000000	6.234827	-0.069772	NaN	0.000000	0.001678	0.001630	28.0789	0.054718	0.001952	28.0254	132.46	-164.859	-0.090501	0.232943	-0.730892	-0.732208	-0.069772	28.0254	-0.729024	-4.869791E+9	1.432749E-11	NaN
208	1.000000	0.242256	7.36708e+06	-49039.1	955.819	-29760.8	0.000000	0.000000	6.242826	-0.041371	NaN	0.000000	0.001676	0.001703	28.0789	0.040376	0.002157	18.7207	94.5877	-163.181	-0.099301	0.240976	-0.722894	-0.724174	-0.041371	18.7207	-0.721236	-3.813596E+9	1.084836E-11	NaN
208	1.000000	0.250245	7.36708e+06	-49039.1	955.817	-29760.8	0.000000	0.000000	6.250817	0.024297	NaN	0.000000	0.001650	0.001686	28.0788	0.035528	0.001990	17.8535	118.037	-163.994	-0.006577	0.248963	-0.714905	-0.716187	0.024297	17.8535	-0.715926	-3.227751E+9	-7.527414E-12	NaN
208	1.000000	0.258255	7.36708e+06	-49039.1	955.819	-29760.8	0.000000	0.000000	6.258823	-0.068611	NaN	0.000000	0.001677	0.001698	28.079	0.106428	0.002001	53.186	-56.0871	-164.096	-0.039051	0.256955	-0.706895	-0.708195	-0.068611	53.186	-0.705928	-2.357571E+9	2.910254E-11	NaN
208	1.000000	0.266276	7.36708e+06	-49039.1	955.818	-29760.8	0.000000	0.000000	6.266848	0.019488	NaN	0.000000	0.001699	0.001713	28.0793	0.090984	0.002070	43.9434	-55.2042	-168.455	0.070323	0.264958	-0.698874	-0.700192	0.019488	43.9434	-0.699207	-1.908520E+9	-1.021102E-11	NaN
208	1.000000	0.274293	7.36708e+06	-49039.1	955.818	-29760.8	0.000000	0.000000	6.274865	0.032341	NaN	0.000000	0.001669	0.001708	28.0787	0.095052	0.002036	46.676	61.2333	-163.95	0.026125	0.272998	-0.690857	-0.692152	0.032341	46.676	-0.691377	-1.491890E+9	-2.167772E-11	NaN
208	1.000000	0.282262	7.36708e+06	-49039.1	955.819	-29760.8	0.000000	0.000000	6.282834	0.004650	NaN	0.000000	0.001709	0.001711	28.079	0.132586	0.002038	65.0711	-32.1274	-169.776	-0.011441	0.280957	-0.682888	-0.684193	0.004650	65.0711	-0.682941	-1.144005E+9	-4.064729E-12	NaN
208	1.000000	0.290272	7.36708e+06	-49039.1	955.818	-29760.8	0.000000	0.000000	6.290842	-0.031272	NaN	0.000000	0.001693	0.001682	28.0789	0.095537	0.001945	49.1182	-125.695	-166.833	-0.053018	0.288974	-0.674878	-0.676176	-0.031272	49.1182	-0.674401	-8.742051E+8	3.577206E-11	NaN
208	1.000000	0.298303	7.36708e+06	-49039.1	955.818	-29760.8	0.000000	0.000000	6.298875	0.036577	NaN	0.000000	0.001692	0.001745	28.079	0.082415	0.002032	40.5686	10.7183	-166.286	-0.044603	0.296943	-0.666847	-0.668207	0.036577	40.5686	-0.667524	-7.038730E+8	-5.196489E-11	NaN
208	1.000000	0.306289	7.36708e+06	-49039.1	955.819	-29760.8	0.000000	0.000000	6.306858	-0.050647	NaN	0.000000	0.001670	0.001679	28.0792	0.096323	0.002009	47.9371	65.7129	-165.014	-0.009507	0.304995	-0.658861	-0.660156	-0.050647	47.9371	-0.658068	-5.224073E+8	9.694962E-11	NaN
208	1.000000	0.314265	7.36708e+06	-49039.1	955.819	-29760.8	0.000000	0.000000	6.314837	0.025287	NaN	0.000000	0.001707	0.001664	28.0783	0.116564	0.001892	61.6041	161.067	-165.705	0.036387	0.312975	-0.650885	-0.652176	0.025287	61.6041	-0.651193	-4.205277E+8	-6.013256E-11	NaN
208	1.000000	0.322272	7.36708e+06	-49039.1	955.818	-29760.8	0.000000	0.000000	6.322843	-0.004524	NaN	0.000000	0.001689	0.001663	28.078	0.020204	0.001889	10.6942	0.635950	-162.912	0.132860	0.320961	-0.642878	-0.644189	-0.004524	10.6942	-0.642561	-3.202026E+8	1.412884E-11	NaN
208	1.000000	0.330312	7.36708e+06	-49039.1	955.818	-29760.8	0.000000	0.000000	6.330887	0.078287	NaN	0.000000	0.001688	0.001657	28.078	0.040980	0.001995	20.5456	34.842	-166.615	0.031745	0.328970	-0.634838	-0.636180	0.078287	20.5456	-0.637696	-2.745804E+8	-2.851143E-10	NaN
208	1.000000	0.338308	7.36708e+06	-49039.1	955.819	-29760.8	0.000000	0.000000	6.338880	0.018123	NaN	0.000000	0.001668	0.001640	28.0781	0.076859	0.002017	38.1059	48.5169	-167.698	-0.035778	0.337011	-0.626842	-0.628139	0.018123	38.1059	-0.627198	-1.970354E+8	-9.197985E-11	NaN
208	1.000000	0.346298	7.36708e+06	-49039.1	955.819	-29760.8	0.000000	0.000000	6.346869	-0.006071	NaN	0.000000	0.001712	0.001652	28.0778	0.082297	0.002041	40.3129	26.4415	-164.211	0.036157	0.345016	-0.618852	-0.620134	-0.006071	40.3129	-0.618739	-1.507652E+8	4.026648E-11	NaN
208	1.000000	0.354297	7.36708e+06	-49039.1	955.818	-29760.8	0.000000	0.000000	6.354864	-0.092737	NaN	0.000000	0.001668	0.001666	28.0776	0.045752	0.002082	21.9713	18.5101	-164.224	0.048044	0.353031	-0.610853	-0.612119	-0.092737	21.9713	-0.607688	-1.062418E+8	8.728858E-10	NaN
208	1.000000	0.362287	7.36708e+06	-49039.1	955.818	-29760.8	0.000000	0.000000	6.362860	0.036313	NaN	0.000000	0.001712	0.001668	28.0792	0.070986	0.002041	34.7747	83.1628	-165.568	0.031248	0.361006	-0.602863	-0.604144	0.036313	34.7747	-0.603646	-9.346970E+7	-3.884953E-10	NaN
208	1.000000	0.370324	7.36708e+06	-49039.1	955.819	-29760.8	0.000000	0.000000	6.370896	0.021153	NaN	0.000000	0.001729	0.001694	28.082	0.114917	0.001916	59.9753	164.415	-163.088	0.063861	0.368997	-0.594826	-0.596153	0.021153	59.9753	-0.595091	-7.125795E+7	-2.968455E-10	NaN
208	1.000000	0.378304	7.36708e+06	-49039.1	955.819	-29760.8	0.000000	0.000000	6.378873	-0.064045	NaN	0.000000	0.001701	0.001684	28.0788	0.073605	0.002027	36.3196	53.4735	-167.427	-0.002961	0.376993	-0.586846	-0.588158	-0.064045	36.3196	-0.585523	-5.259362E+7	1.217738E-9	NaN
208	1.000000	0.386306	7.36708e+06	-49039.1	955.818	-29760.8	0.000000	0.000000	6.386878	0.016319	NaN	0.000000	0.001716	0.001686	28.0784	0.081978	0.001984	41.315	81.899	-164.048	0.051397	0.384981	-0.578844	-0.580169	0.016319	41.315	-0.579140	-4.293951E+7	-3.800532E-10	NaN
208	1.000000	0.394322	7.36708e+06	-49039.1	955.818	-29760.8	0.000000	0.000000	6.394892	-0.011967	NaN	0.000000	0.001734	0.001689	28.0779	0.111777	0.002000	55.8854	-163.817	-166.582	-0.062681	0.392999	-0.570828	-0.572151	-0.011967	55.8854	-0.570668	-3.279885E+7	3.648622E-10	NaN
208	1.000000	0.402338	7.36708e+06	-49039.1	955.818	-29760.8	0.000000	0.000000	6.402909	0.013284	NaN	0.000000	0.001705	0.001664	28.0778	0.047559	0.002016	23.5921	-138.503	-161.369	-0.053098	0.401011	-0.562812	-0.564139	0.013284	23.5921	-0.563235	-2.588913E+7	-5.131071E-10	NaN
208	1.000000	0.410341	7.36708e+06	-49039.1	955.819	-29760.8	0.000000	0.000000	6.410911	-0.044916	NaN	0.000000	0.001706	0.001659	28.078	0.099734	0.002014	49.521	-135.942	-168.966	0.106943	0.408987	-0.554809	-0.556163	-0.044916	49.521	-0.554128	-1.936973E+7	2.318868E-9	NaN
208	1.000000	0.418321	7.36708e+06	-49039.1	955.818	-29760.8	0.000000	0.000000	6.418890	-0.046564	NaN	0.000000	0.001709	0.001678	28.0778	0.064113	0.001833	34.9772	-114.178	-167.553	-0.061184	0.417059	-0.546830	-0.548091	-0.046564	34.9772	-0.545831	-1.486614E+7	3.132236E-9	NaN
208	1.000000	0.426336	7.36708e+06	-49039.1	955.818	-29760.8	0.000000	0.000000	6.426906	-0.022138	NaN	0.000000	0.001730	0.001695	28.0778	0.053220	0.001871	28.4387	56.2446	-164.855	0.004648	0.425009	-0.538814	-0.540141	-0.022138	28.4387	-0.538230	-1.166302E+7	1.898158E-9	NaN
208	1.000000	0.434331	7.36708e+06	-49039.1	955.818	-29760.8	0.000000	0.000000	6.434905	0.056739	NaN	0.000000	0.001719	0.001672	28.0777	0.019603	0.002091	9.374241	-95.1936	-168.56	0.071870	0.432957	-0.530819	-0.532193	0.056739	9.374241	-0.535358	-1.064056E+7	-5.332300E-9	NaN
208	1.000000	0.442352	7.36708e+06	-49039.1	955.818	-29760.8	0.000000	0.000000	6.442923	0.001260	NaN	0.000000	0.001657	0.001693	28.0778	0.040355	0.002028	19.898	-64.0352	-165.061	0.042804	0.441029	-0.522799	-0.524121	0.001260	19.898	-0.522846	-7.13135e+06	-1.766319E-10	NaN
208	1.000000	0.450345	7.36708e+06	-49039.1	955.818	-29760.8	0.000000	0.000000	6.450917	1.719705E-5	NaN	0.000000	0.001696	0.001688	28.0784	0.047804	0.001887	25.3366	7.081581	-166.749	0.011920	0.449050	-0.514805	-0.516100	1.719705E-5	25.3366	-0.514805	-5.51216e+06	-3.119836E-12	NaN
208	1.000000	0.458353	7.36708e+06	-49039.1	955.818	-29760.8	0.000000	0.000000	6.458923	-0.028990	NaN	0.000000	0.001670	0.001735	28.079	0.050315	0.001877	26.804	165.632	-164.228	-0.064104	0.457057	-0.506797	-0.508093	-0.028990	26.804	-0.505986	-4.15423e+06	6.978396E-9	NaN
208	1.000000	0.466377	7.36708e+06	-49039.1	955.818	-29760.8	0.000000	0.000000	6.466948	-0.001078	NaN	0.000000	0.001653	0.001687	28.079	0.030274	0.002050	14.766	-30.8754	-166.05	-0.061757	0.465078	-0.498773	-0.500072	-0.001078	14.766	-0.498718	-3.28951e+06	3.276337E-10	NaN
208	1.000000	0.474367	7.36708e+06	-49039.1	955.819	-29760.8	0.000000	0.000000	6.474939	0.028923	NaN	0.000000	0.001656	0.001710	28.0788	0.064548	0.002001	32.262	-112.301	-166.991	0.000153	0.472999	-0.490784	-0.492151	0.028923	32.262	-0.491456	-2.60457e+06	-1.110469E-8	NaN
208	1.000000	0.482375	7.36708e+06	-49039.1	955.819	-29760.8	0.000000	0.000000	6.482947	0.009646	NaN	0.000000	0.001605	0.001701	28.0792	0.099707	0.002132	46.7772	125.27	-164.685	-0.037131	0.481033	-0.482775	-0.484117	0.009646	46.7772	-0.482929	-1.97936e+06	-4.873348E-9	NaN
208	1.000000	0.490370	7.36708e+06	-49039.1	955.818	-29760.8	0.000000	0.000000	6.490942	0.018929	NaN	0.000000	0.001647	0.001713	28.0791	0.092154	0.001889	48.7899	-79.0932	-168.233	0.005144	0.489047	-0.474780	-0.476103	0.018929	48.7899	-0.475071	-1.53637e+06	-1.232066E-8	NaN
208	1.000000	0.498380	7.36708e+06	-49039.1	955.82	-29760.8	0.000000	0.000000	6.498951	0.013649	NaN	0.000000	0.001637	0.001695	28.079	0.040414	0.001885	21.4354	-100.894	-162.829	0.049544	0.497074	-0.466771	-0.468076	0.013649	21.4354	-0.467248	-1.19344e+06	-1.143627E-8	NaN
208	1.000000	0.506376	7.36708e+06	-49039.1	955.818	-29760.8	0.000000	0.000000	6.506948	0.017669	NaN	0.000000	0.001676	0.001685	28.0791	0.108070	0.002046	52.8211	132.455	-166.639	0.062120	0.505082	-0.458774	-0.460068	0.017669	52.8211	-0.459025	-914766	-1.931532E-8	NaN
208	1.000000	0.514358	7.36708e+06	-49039.1	955.818	-29760.8	0.000000	0.000000	6.514930	0.026677	NaN	0.000000	0.001690	0.001678	28.0788	0.021456	0.002008	10.6835	-29.4451	-167.377	0.028082	0.513111	-0.450792	-0.452039	0.026677	10.6835	-0.452665	-744500	-3.583150E-8	NaN
208	1.000000	0.522350	7.36708e+06	-49039.1	955.818	-29760.8	0.000000	0.000000	6.522920	-0.028188	NaN	0.000000	0.001677	0.001656	28.0792	0.125521	0.001992	63.0018	108.242	-167.546	-0.030634	0.521114	-0.442800	-0.444036	-0.028188	63.0018	-0.442465	-534735	5.271323E-8	NaN
208	1.000000	0.530377	7.36708e+06	-49039.1	955.818	-29760.8	0.000000	0.000000	6.530945	-0.076714	NaN	0.000000	0.001676	0.001728	28.0792	0.072632	0.002035	35.6966	-126.333	-164.783	0.045241	0.529080	-0.434773	-0.436070	-0.076714	35.6966	-0.433162	-395160	1.941339E-7	NaN
208	1.000000	0.538368	7.36708e+06	-49039.1	955.818	-29760.8	0.000000	0.000000	6.538939	0.000152	NaN	0.000000	0.001654	0.001726	28.0791	0.056013	0.002057	27.2296	-1.651283	-164.706	0.038907	0.537102	-0.426782	-0.428048	0.000152	27.2296	-0.426786	-321056	-4.724386E-10	NaN
208	1.000000	0.546384	7.36708e+06	-49039.1	955.818	-29760.8	0.000000	0.000000	6.546958	0.086688	NaN	0.000000	0.001645	0.001743	28.079	0.071594	0.002009	35.6413	-100.42	-169.353	0.077574	0.545139	-0.418767	-0.420011	0.086688	35.6413	-0.420591	-262296	-3.304960E-7	NaN
208	1.000000	0.554412	7.36708e+06	-49039.1	955.818	-29760.8	0.000000	0.000000	6.554980	-0.062625	NaN	0.000000	0.001638	0.001751	28.0794	0.040908	0.001971	20.7541	88.0574	-162.663	0.015593	0.553086	-0.410738	-0.412064	-0.062625	20.7541	-0.408475	-176488	3.548413E-7	NaN
208	1.000000	0.562390	7.36708e+06	-49039.1	955.817	-29760.8	0.000000	0.000000	6.562961	-0.014007	NaN	0.000000	0.001636	0.001744	28.0789	0.066760	0.002196	30.407	160.033	-165.269	0.015771	0.561091	-0.402760	-0.404059	-0.014007	30.407	-0.402415	-144682	9.681211E-8	NaN
208	1.000000	0.570365	7.36708e+06	-49039.1	955.819	-29760.8	0.000000	0.000000	6.570937	0.022001	NaN	0.000000	0.001658	0.001770	28.0788	0.076939	0.002196	35.0413	-10.1191	-166.493	-0.054730	0.569087	-0.394786	-0.396063	0.022001	35.0413	-0.395256	-114366	-1.923710E-7	NaN
208	1.000000	0.578412	7.36708e+06	-49039.1	955.819	-29760.8	0.000000	0.000000	6.578979	-0.104692	NaN	0.000000	0.001659	0.001753	28.079	0.026817	0.001905	14.0789	47.5412	-164.013	-0.096145	0.577080	-0.386738	-0.388070	-0.104692	14.0789	-0.381161	-71870.9	1.456662E-6	NaN
208	1.000000	0.586421	7.36708e+06	-49039.1	955.818	-29760.8	0.000000	0.000000	6.586992	-0.009872	NaN	0.000000	0.001647	0.001749	28.0782	0.056727	0.002046	27.7222	-64.0447	-162.634	0.045127	0.585108	-0.378729	-0.380042	-0.009872	27.7222	-0.378462	-65736.3	1.501719E-7	NaN
208	1.000000	0.594389	7.36708e+06	-49039.1	955.819	-29760.8	0.000000	0.000000	6.594961	0.022816	NaN	0.000000	0.001674	0.001754	28.0777	0.062201	0.002011	30.9303	179.024	-162.942	-0.024500	0.593148	-0.370761	-0.372002	0.022816	30.9303	-0.371314	-51886.4	-4.397382E-7	NaN
208	1.000000	0.602448	7.36708e+06	-49039.1	955.818	-29760.8	0.000000	0.000000	6.603019	0.002988	NaN	0.000000	0.001647	0.001723	28.0776	0.029028	0.001968	14.7506	-42.7371	-166.863	0.002960	0.601086	-0.362702	-0.364064	0.002988	14.7506	-0.362854	-39181.7	-7.626465E-8	NaN
208	1.000000	0.610394	7.36708e+06	-49039.1	955.819	-29760.8	0.000000	0.000000	6.610961	-0.098778	NaN	0.000000	0.001640	0.001752	28.0776	0.089453	0.001947	45.9404	-172.764	-161.715	-0.006323	0.609123	-0.354756	-0.356027	-0.098778	45.9404	-0.353143	-28352.7	3.483894E-6	NaN
208	1.000000	0.618435	7.36708e+06	-49039.1	955.819	-29760.8	0.000000	0.000000	6.619007	0.029525	NaN	0.000000	0.001646	0.001747	28.0777	0.078235	0.001918	40.79	-36.0555	-164.441	0.082476	0.617085	-0.346715	-0.348065	0.029525	40.79	-0.347258	-23290.9	-1.267675E-6	NaN
208	1.000000	0.626413	7.36708e+06	-49039.1	955.819	-29760.8	0.000000	0.000000	6.626986	0.026476	NaN	0.000000	0.001659	0.001750	28.0776	0.027645	0.001844	14.9938	-131.967	-160.677	0.004305	0.625064	-0.338737	-0.340086	0.026476	14.9938	-0.340061	-18299.7	-1.446783E-6	NaN
208	1.000000	0.634423	7.36708e+06	-49039.1	955.819	-29760.8	0.000000	0.000000	6.634992	-0.045148	NaN	0.000000	0.001688	0.001754	28.0778	0.072423	0.001995	36.2958	60.1014	-164.5	-0.070958	0.633142	-0.330728	-0.332008	-0.045148	36.2958	-0.329795	-12955.1	3.484978E-6	NaN
208	1.000000	0.642423	7.36708e+06	-49039.1	955.818	-29760.8	0.000000	0.000000	6.642993	-0.032517	NaN	0.000000	0.001712	0.001748	28.0776	0.060232	0.001928	31.2431	-170.375	-167.813	-0.024880	0.641130	-0.322727	-0.324020	-0.032517	31.2431	-0.321947	-9937.48	3.272190E-6	NaN
208	1.000000	0.650412	7.36708e+06	-49039.1	955.817	-29760.8	0.000000	0.000000	6.650985	0.034189	NaN	0.000000	0.001716	0.001719	28.0775	0.049229	0.001940	25.3778	-164.263	-164.341	0.000900	0.649085	-0.314738	-0.316065	0.034189	25.3778	-0.315748	-8053.56	-4.245208E-6	NaN
208	1.000000	0.658434	7.36708e+06	-49039.1	955.817	-29760.8	0.000000	0.000000	6.659008	0.065461	NaN	0.000000	0.001704	0.001793	28.0777	0.064056	0.002051	31.2375	160.222	-165.57	0.014492	0.657111	-0.306716	-0.308039	0.065461	31.2375	-0.308288	-6247.52	-1.047796E-5	NaN
208	1.000000	0.666444	7.36708e+06	-49039.1	955.818	-29760.8	0.000000	0.000000	6.667012	-0.075934	NaN	0.000000	0.001701	0.001759	28.0775	0.134078	0.001973	67.9403	-74.4536	-167.668	-0.034965	0.665127	-0.298706	-0.300023	-0.075934	67.9403	-0.297868	-4373.95	1.736049E-5	NaN
208	1.000000	0.674437	7.36708e+06	-49039.1	955.819	-29760.8	0.000000	0.000000	6.675010	0.055941	NaN	0.000000	0.001682	0.001758	28.0777	0.076066	0.002020	37.654	129.604	-167.19	-0.068085	0.673146	-0.290713	-0.292004	0.055941	37.654	-0.291827	-3553.56	-1.574216E-5	NaN
208	1.000000	0.682449	7.36708e+06	-49039.1	955.819	-29760.8	0.000000	0.000000	6.683021	0.021621	NaN	0.000000	0.001708	0.001776	28.0773	0.024234	0.002017	12.0122	-175.111	-166.465	-0.018454	0.681093	-0.282701	-0.284057	0.021621	12.0122	-0.284051	-2716.4	-7.959253E-6	NaN
208	1.000000	0.690482	7.36708e+06	-49039.1	955.818	-29760.8	0.000000	0.000000	6.691052	-0.033463	NaN	0.000000	0.001712	0.001715	28.0775	0.122663	0.002081	58.9496	-77.378	-165.541	0.035565	0.689159	-0.274668	-0.275991	-0.033463	58.9496	-0.274242	-1931.64	1.732380E-5	NaN
208	1.000000	0.698454	7.36708e+06	-49039.1	955.819	-29760.8	0.000000	0.000000	6.699023	-0.044223	NaN	0.000000	0.001701	0.001707	28.0775	0.076428	0.001932	39.5675	-164.26	-168.695	-0.144776	0.697142	-0.266696	-0.268008	-0.044223	39.5675	-0.265858	-1440.39	3.070206E-5	NaN
208	1.000000	0.706438	7.36708e+06	-49039.1	955.818	-29760.8	0.000000	0.000000	6.707006	-0.063787	NaN	0.000000	0.001711	0.001733	28.0773	0.169565	0.002059	82.3692	-102.772	-163.605	-0.010179	0.705127	-0.258712	-0.260023	-0.063787	82.3692	-0.258132	-1097.13	5.813952E-5	NaN
208	1.000000	0.714471	7.36708e+06	-49039.1	955.819	-29760.8	0.000000	0.000000	6.715043	0.012954	NaN	0.000000	0.001712	0.001734	28.0775	0.033708	0.002073	16.26	-109.743	-170.565	0.019820	0.713142	-0.250679	-0.252008	0.012954	16.26	-0.251276	-860.384	-1.505580E-5	NaN
208	1.000000	0.722443	7.36708e+06	-49039.1	955.819	-29760.8	0.000000	0.000000	6.723016	0.033057	NaN	0.000000	0.001729	0.001703	28.0776	0.143991	0.001751	82.2184	-147.63	-165.014	0.056788	0.721130	-0.242707	-0.244020	0.033057	82.2184	-0.243009	-640.434	-5.161658E-5	NaN
208	1.000000	0.730445	7.36708e+06	-49039.1	955.818	-29760.8	0.000000	0.000000	6.731017	0.023549	NaN	0.000000	0.001707	0.001770	28.0788	0.061404	0.001988	30.8949	170.851	-163.129	0.037116	0.729177	-0.234705	-0.235973	0.023549	30.8949	-0.235277	-484.831	-4.857167E-5	NaN
208	1.000000	0.738464	7.36708e+06	-49039.1	955.818	-29760.8	0.000000	0.000000	6.739036	0.030502	NaN	0.000000	0.001675	0.001727	28.0789	0.025213	0.001949	12.9372	61.665	-166.108	0.026286	0.737138	-0.226687	-0.228012	0.030502	12.9372	-0.228455	-378.526	-8.058048E-5	NaN
208	1.000000	0.746494	7.36708e+06	-49039.1	955.818	-29760.8	0.000000	0.000000	6.747061	-0.102369	NaN	0.000000	0.001660	0.001676	28.0788	0.011956	0.001973	6.058446	-169.755	-162.647	-0.089915	0.745165	-0.218656	-0.219985	-0.102369	6.058446	-0.205983	-165.037	0.000620	NaN
208	1.000000	0.754486	7.36708e+06	-49039.1	955.818	-29760.8	0.000000	0.000000	6.755057	0.003008	NaN	0.000000	0.001670	0.001703	28.0791	0.120989	0.002082	58.0991	141.681	-165.529	-0.013821	0.753190	-0.210664	-0.211960	0.003008	58.0991	-0.210703	-196.879	-1.527891E-5	NaN
208	1.000000	0.762492	7.36708e+06	-49039.1	955.818	-29760.8	0.000000	0.000000	6.763063	-0.000726	NaN	0.000000	0.001642	0.001670	28.0788	0.117982	0.002124	55.5384	-178.904	-163.202	-0.024655	0.761207	-0.202658	-0.203943	-0.000726	55.5384	-0.202648	-145.591	4.988007E-6	NaN
208	1.000000	0.770478	7.36708e+06	-49039.1	955.819	-29760.8	0.000000	0.000000	6.771049	-0.018996	NaN	0.000000	0.001654	0.001694	28.0787	0.067036	0.001975	33.9429	-98.3483	-168.674	-0.013293	0.769202	-0.194672	-0.195948	-0.018996	33.9429	-0.194252	-105.878	0.000179	NaN
208	1.000000	0.778470	7.36708e+06	-49039.1	955.818	-29760.8	0.000000	0.000000	6.779040	-0.009584	NaN	0.000000	0.001687	0.001659	28.079	0.135137	0.001998	67.6488	127.881	-162.762	0.031346	0.777109	-0.186681	-0.188041	-0.009584	67.6488	-0.186574	-78.8185	0.000122	NaN
208	1.000000	0.786489	7.36708e+06	-49039.1	955.818	-29760.8	0.000000	0.000000	6.787059	-0.025596	NaN	0.000000	0.001688	0.001675	28.0789	0.094287	0.001874	50.3201	-171.913	-163.897	-0.020644	0.785173	-0.178661	-0.179977	-0.025596	50.3201	-0.178280	-57.0358	0.000449	NaN
208	1.000000	0.794497	7.36708e+06	-49039.1	955.819	-29760.8	0.000000	0.000000	6.795069	0.001513	NaN	0.000000	0.001640	0.001654	28.0787	0.040760	0.001865	21.8499	-137.715	-167.532	-0.069857	0.793190	-0.170653	-0.171961	0.001513	21.8499	-0.170705	-42.2514	-3.580306E-5	NaN
208	1.000000	0.802501	7.36708e+06	-49039.1	955.817	-29760.8	0.000000	0.000000	6.803075	0.058714	NaN	0.000000	0.001661	0.001632	28.0787	0.071309	0.002012	35.437	157.817	-164.722	-0.015738	0.801233	-0.162649	-0.163917	0.058714	35.437	-0.163891	-32.1227	-0.001828	NaN
208	1.000000	0.810506	7.36708e+06	-49039.1	955.818	-29760.8	0.000000	0.000000	6.811077	-0.014683	NaN	0.000000	0.001664	0.001702	28.0788	0.143560	0.001858	77.2603	-18.821	-161.945	-0.139228	0.809184	-0.154644	-0.155966	-0.014683	77.2603	-0.154502	-21.8577	0.000672	NaN
208	1.000000	0.818501	7.36708e+06	-49039.1	955.817	-29760.8	0.000000	0.000000	6.819073	0.022759	NaN	0.000000	0.001627	0.001666	28.0786	0.068357	0.002015	33.9182	27.773	-165.525	0.021972	0.817181	-0.146649	-0.147969	0.022759	33.9182	-0.147152	-16.0642	-0.001417	NaN
208	1.000000	0.826510	7.36708e+06	-49039.1	955.818	-29760.8	0.000000	0.000000	6.827080	-0.032979	NaN	0.000000	0.001610	0.001664	28.0789	0.046986	0.001967	23.891	91.504	-163.831	0.016692	0.825270	-0.138640	-0.139880	-0.032979	23.891	-0.137605	-10.6612	0.003093	NaN
208	1.000000	0.834513	7.36708e+06	-49039.1	955.818	-29760.8	0.000000	0.000000	6.835086	0.032544	NaN	0.000000	0.001634	0.001675	28.0786	0.095097	0.001971	48.2372	-68.0081	-164.313	0.002544	0.833240	-0.130637	-0.131910	0.032544	48.2372	-0.131143	-8.019827	-0.004058	NaN
208	1.000000	0.842511	7.36708e+06	-49039.1	955.819	-29760.8	0.000000	0.000000	6.843083	0.004123	NaN	0.000000	0.001682	0.001692	28.0786	0.062163	0.002021	30.7562	-42.6591	-164.928	0.041055	0.841170	-0.122639	-0.123980	0.004123	30.7562	-0.122739	-5.483570	-0.000752	NaN
208	1.000000	0.850515	7.36708e+06	-49039.1	955.818	-29760.8	0.000000	0.000000	6.851085	-0.024772	NaN	0.000000	0.001645	0.001689	28.0789	0.038655	0.002025	19.0919	-171.938	-165.849	-0.002500	0.849193	-0.114635	-0.115957	-0.024772	19.0919	-0.113662	-3.584629	0.006911	NaN
208	1.000000	0.858513	7.36708e+06	-49039.1	955.818	-29760.8	0.000000	0.000000	6.859084	-0.003222	NaN	0.000000	0.001662	0.001677	28.0784	0.054889	0.001954	28.0934	66.6774	-164.643	-0.063087	0.857224	-0.106637	-0.107927	-0.003222	28.0934	-0.106551	-2.538351	0.001269	NaN
208	1.000000	0.866508	7.36708e+06	-49039.1	955.819	-29760.8	0.000000	0.000000	6.867080	0.009090	NaN	0.000000	0.001652	0.001702	28.0776	0.070648	0.002041	34.6171	-154.513	-168.251	0.065531	0.865195	-0.098642	-0.099955	0.009090	34.6171	-0.098839	-1.721705	-0.005280	NaN
208	1.000000	0.874535	7.36708e+06	-49039.1	955.818	-29760.8	0.000000	0.000000	6.875107	0.014029	NaN	0.000000	0.001639	0.001696	28.0775	0.031041	0.002232	13.9074	-82.0124	-168.254	0.015864	0.873240	-0.090615	-0.091910	0.014029	13.9074	-0.091372	-1.163767	-0.012055	NaN
208	1.000000	0.882552	7.36708e+06	-49039.1	955.819	-29760.8	0.000000	0.000000	6.883124	0.010527	NaN	0.000000	0.001658	0.001675	28.0779	0.117186	0.001908	61.4207	105.263	-164.159	-0.059723	0.881166	-0.082598	-0.083984	0.010527	61.4207	-0.082726	-0.723185	-0.014556	NaN
208	1.000000	0.890536	7.36708e+06	-49039.1	955.818	-29760.8	0.000000	0.000000	6.891108	0.029110	NaN	0.000000	0.001653	0.001692	28.0777	0.008094	0.002040	3.968521	85.5518	-163.584	-0.007843	0.889249	-0.074614	-0.075901	0.029110	3.968521	-0.080115	-0.623121	-0.046716	NaN
208	1.000000	0.898525	7.36708e+06	-49039.1	955.818	-29760.8	0.000000	0.000000	6.899097	0.011098	NaN	0.000000	0.001596	0.001674	28.0774	0.041787	0.001843	22.6713	125.229	-166.941	0.047707	0.897242	-0.066625	-0.067909	0.011098	22.6713	-0.066992	-0.282781	-0.039245	NaN
208	1.000000	0.906537	7.36708e+06	-49039.1	955.817	-29760.8	0.000000	0.000000	6.907107	-0.021890	NaN	0.000000	0.001647	0.001654	28.0778	0.179586	0.001988	90.3175	-18.9995	-163.986	-0.043090	0.905256	-0.058613	-0.059894	-0.021890	90.3175	-0.058431	-0.162284	0.134888	NaN
208	1.000000	0.914532	7.36708e+06	-49039.1	955.818	-29760.8	0.000000	0.000000	6.915101	-0.033945	NaN	0.000000	0.001650	0.001668	28.0776	0.073441	0.002098	35.0052	-32.6087	-162.686	0.044782	0.913273	-0.050618	-0.051877	-0.033945	35.0052	-0.049891	-0.090561	0.374829	NaN
208	1.000000	0.922554	7.36709e+06	-49039.1	955.819	-29760.8	0.000000	0.000000	6.923125	-0.010444	NaN	0.000000	0.001673	0.001640	28.078	0.102594	0.001919	53.4733	-174.969	-163.993	0.033800	0.921275	-0.042596	-0.043875	-0.010444	53.4733	-0.042449	-0.053703	0.194484	NaN
208	1.000000	0.930551	7.36709e+06	-49039.1	955.818	-29760.8	0.000000	0.000000	6.931123	0.024553	NaN	0.000000	0.001705	0.001655	28.0777	0.025952	0.001975	13.1421	-77.7897	-161.618	0.011700	0.929185	-0.034599	-0.035965	0.024553	13.1421	-0.036001	-0.034283	-0.716190	NaN
208	1.000000	0.938558	7.36709e+06	-49039.1	955.818	-29760.8	0.000000	0.000000	6.939130	0.027077	NaN	0.000000	0.001671	0.001643	28.0777	0.079864	0.001967	40.6112	-107.599	-165.967	0.045506	0.937218	-0.026593	-0.027932	0.027077	40.6112	-0.027093	-0.019164	-1.412895	NaN
208	1.000000	0.946555	7.36709e+06	-49039.1	955.817	-29760.8	0.000000	0.000000	6.947126	-0.004803	NaN	0.000000	0.001675	0.001675	28.0779	0.183834	0.001928	95.3404	37.5001	-161.644	0.039740	0.945251	-0.018596	-0.019899	-0.004803	95.3404	-0.018558	-0.011539	0.416244	NaN
208	1.000000	0.954563	7.36709e+06	-49039.1	955.818	-29760.8	0.000000	0.000000	6.955172	0.914188	NaN	0.000000	0.001668	0.001694	28.0777	0.771705	0.001957	394.281	3.413384	-165.774	0.720542	0.953241	-0.010587	-0.011909	0.914188	394.281	-0.012326	-0.007715	-118.493	NaN
208	1.000000	0.962573	7.36709e+06	-49039.1	955.82	-29760.8	0.000000	0.000000	6.963234	2.195960	NaN	0.000000	0.001657	0.001681	28.078	1.201838	0.001922	625.263	11.8525	-165.551	2.035576	0.961303	-0.002577	-0.003847	2.195960	625.263	-0.005211	-0.003549	-618.736	NaN
208	1.000000	0.970542	7.36709e+06	-49039.1	955.819	-29760.8	0.000000	0.000000	6.971243	3.153624	NaN	0.000000	0.001571	0.001661	28.0777	1.695285	0.001820	931.359	14.6626	-168.224	2.897385	0.969235	0.005392	0.004085	3.153624	931.359	0.002853	0.002256	1397.63	17913.6
208	1.000000	0.978514	7.36709e+06	-49039.1	955.819	-29760.8	0.000000	0.000000	6.979233	3.589514	NaN	0.000000	0.001568	0.001666	28.0776	2.902151	0.001989	1459.46	14.779	-167.092	2.942990	0.977267	0.013364	0.012117	3.589514	1459.46	0.011519	0.010919	328.728	12760.5
208	2.000000	0.986049	7.36709e+06	-49039.1	955.819	-29760.8	0.000000	0.000000	6.986945	7.898299	NaN	0.000000	0.001550	0.001675	28.078	7.454635	0.001747	4267.61	11.8891	-171.825	7.624850	0.985199	0.020899	0.020049	7.898299	4267.61	0.019511	0.021780	362.639	26419.7
208	2.000000	0.988248	7.36709e+06	-49039.1	955.819	-29760.8	0.000000	0.000000	6.989196	9.178950	NaN	0.000000	0.001570	0.001687	28.0777	9.080970	0.001814	5006.88	10.1691	-173.696	9.231991	0.987914	0.023098	0.022764	9.178950	5006.88	0.021723	0.025322	362.487	28746.8
208	2.000000	0.990210	7.36709e+06	-49039.1	955.818	-29760.8	0.000000	0.000000	6.991287	12.3002	NaN	0.000000	0.001590	0.001687	28.0791	11.3568	0.001702	6671.04	9.735753	-176.916	11.5983	0.989879	0.025060	0.024729	12.3002	6671.04	0.023677	0.028653	429.282	36006.5
208	2.000000	0.992176	7.36709e+06	-49039.1	955.818	-29760.8	0.000000	0.000000	6.993364	14.9934	NaN	0.000000	0.001617	0.001661	28.079	12.8024	0.001752	7305.56	4.296219	-171.318	13.9199	0.991882	0.027026	0.026732	14.9934	7305.56	0.025487	0.031908	469.899	37366.2
208	2.000000	0.994193	7.36709e+06	-49039.1	955.819	-29760.8	0.000000	0.000000	6.995459	16.9031	NaN	0.000000	0.001572	0.001711	28.0791	15.0334	0.001817	8274.74	8.309897	-175.96	16.2593	0.993885	0.029043	0.028735	16.9031	8274.74	0.027511	0.035742	472.919	39988.8
208	2.000000	0.996238	7.36709e+06	-49039.1	955.819	-29760.8	0.000000	0.000000	6.997743	22.6997	NaN	0.000000	0.001599	0.001677	28.0796	17.0513	0.001739	9803.78	6.608989	-175.536	22.4024	0.995828	0.031088	0.030678	22.6997	9803.78	0.029352	0.039411	575.982	45119.1
208	2.000000	0.998213	7.36709e+06	-49039.1	955.819	-29760.8	0.000000	0.000000	6.999732	23.0402	NaN	0.000000	0.001604	0.001646	28.0787	18.4567	0.001782	10359.2	7.707369	-176.916	22.6346	0.997877	0.033063	0.032727	23.0402	10359.2	0.031395	0.043684	527.426	45283
208	2.000000	1.000197	7.36709e+06	-49039.1	955.819	-29760.8	0.000000	0.000000	7.001911	27.8066	NaN	0.000000	0.001614	0.001646	28.079	21.4897	0.001870	11491.5	3.798111	-174.034	28.2047	0.999894	0.035047	0.034744	27.8066	11491.5	0.033232	0.047709	582.841	48067.2
208	2.000000	1.002178	7.36709e+06	-49039.1	955.819	-29760.8	0.000000	0.000000	7.004031	31.177	NaN	0.000000	0.001600	0.001669	28.0789	22.7685	0.001834	12412.8	7.475607	-177.514	31.9693	1.001840	0.037027	0.036690	31.177	12412.8	0.035144	0.052081	598.623	49693.7
208	2.000000	1.004163	7.36709e+06	-49039.1	955.818	-29760.8	0.000000	0.000000	7.006323	38.6449	NaN	0.000000	0.001576	0.001679	28.079	25.381	0.001829	13879.7	7.076114	-178.911	38.3194	1.003833	0.039012	0.038683	38.6449	13879.7	0.036924	0.056321	686.149	53433.8
208	2.000000	1.006202	7.36709e+06	-49039.1	955.819	-29760.8	0.000000	0.000000	7.008461	41.0434	NaN	0.000000	0.001577	0.001689	28.0791	27.1813	0.001836	14806.8	8.351718	-179.461	40.9598	1.005818	0.041052	0.040668	41.0434	14806.8	0.038973	0.061402	668.44	54594
208	2.000000	1.008106	7.36709e+06	-49039.1	955.819	-29760.8	0.000000	0.000000	7.010648	47.946	NaN	0.000000	0.001588	0.001670	28.0788	29.1228	0.001892	15392.1	5.200452	-178.184	45.9737	1.007832	0.042955	0.042682	47.946	15392.1	0.040619	0.065638	730.457	54890
208	2.000000	1.010115	7.36709e+06	-49039.1	955.82	-29760.8	0.000000	0.000000	7.012788	51.114	NaN	0.000000	0.001608	0.001666	28.079	30.9343	0.001800	17189.3	4.148807	-178.081	49.2741	1.009881	0.044965	0.044731	51.114	17189.3	0.042735	0.071287	717.019	58820.4
208	2.000000	1.012187	7.36709e+06	-49039.1	955.819	-29760.8	0.000000	0.000000	7.015226	60.0066	NaN	0.000000	0.001661	0.001685	28.079	32.5162	0.001812	17949	6.887078	179.687	61.1507	1.011745	0.047037	0.046595	60.0066	17949	0.044530	0.076258	786.89	59384.2
208	2.000000	1.014099	7.36709e+06	-49039.1	955.82	-29760.8	0.000000	0.000000	7.017307	64.1176	NaN	0.000000	0.001705	0.001717	28.0792	34.7605	0.001849	18799.4	0.080303	-174.817	62.0521	1.013872	0.048949	0.048722	64.1176	18799.4	0.046391	0.081586	785.89	60132.4
208	2.000000	1.016211	7.36709e+06	-49039.1	955.82	-29760.8	0.000000	0.000000	7.019745	72.0578	NaN	0.000000	0.001706	0.001691	28.0803	37.1007	0.001831	20261.2	6.431627	179.08	73.4273	1.015736	0.051061	0.050586	72.0578	20261.2	0.048394	0.087514	823.387	62575
208	2.000000	1.018106	7.36709e+06	-49039.1	955.82	-29760.8	0.000000	0.000000	7.022011	81.0805	NaN	0.000000	0.001718	0.001691	28.079	38.7607	0.001849	20960.4	7.616792	177.575	80.7413	1.017774	0.052956	0.052624	81.0805	20960.4	0.050054	0.092581	875.776	62937.6
208	2.000000	1.020147	7.36709e+06	-49039.1	955.819	-29760.8	0.000000	0.000000	7.024073	81.5733	NaN	0.000000	0.001735	0.001714	28.0789	41.1209	0.001917	21448.5	4.657736	179.079	80.2158	1.019848	0.054997	0.054698	81.5733	21448.5	0.052145	0.099158	822.663	62231.1
208	2.000000	1.022094	7.36709e+06	-49039.1	955.82	-29760.8	0.000000	0.000000	7.026441	91.8342	NaN	0.000000	0.001722	0.001687	28.079	41.9924	0.001807	23233.3	5.561842	177.911	90.5227	1.021755	0.056943	0.056605	91.8342	23233.3	0.053979	0.105107	873.719	65473.8
208	2.000000	1.024100	7.36709e+06	-49039.1	955.819	-29760.8	0.000000	0.000000	7.028890	102.627	NaN	0.000000	0.001742	0.001656	28.0777	44.3459	0.001747	25378.1	7.144231	175.949	102.311	1.023816	0.058949	0.058666	102.627	25378.1	0.055917	0.111574	919.808	69414.4
208	2.000000	1.026171	7.36709e+06	-49039.1	955.82	-29760.8	0.000000	0.000000	7.031413	113.617	NaN	0.000000	0.001727	0.001685	28.0784	47.0641	0.001887	24935.7	8.687980	175.291	113.901	1.025760	0.061021	0.060609	113.617	24935.7	0.057603	0.117355	968.15	66503.5
208	2.000000	1.028139	7.36709e+06	-49039.1	955.82	-29760.8	0.000000	0.000000	7.033604	119.032	NaN	0.000000	0.001771	0.001699	28.0777	47.877	0.001851	25867.5	2.492758	-179.738	119.851	1.027829	0.062989	0.062679	119.032	25867.5	0.059538	0.124155	958.733	67072.6
208	2.000000	1.030177	7.36709e+06	-49039.1	955.82	-29760.8	0.000000	0.000000	7.035955	126.648	NaN	0.000000	0.001738	0.001690	28.0775	50.4761	0.001792	28163.7	4.804747	176.945	128.076	1.029816	0.065027	0.064666	126.648	28163.7	0.061654	0.131807	960.862	70875.2
208	2.000000	1.032171	7.36709e+06	-49039.1	955.819	-29760.8	0.000000	0.000000	7.038369	136.826	NaN	0.000000	0.001728	0.001677	28.0778	51.7269	0.001843	28065.1	7.824826	174.356	139.884	1.031779	0.067021	0.066629	136.826	28065.1	0.063365	0.138150	990.416	68986.5
208	2.000000	1.034097	7.36709e+06	-49039.1	955.818	-29760.8	0.000000	0.000000	7.040731	147.448	NaN	0.000000	0.001699	0.001706	28.0778	53.8886	0.001768	30487	5.542946	175.75	146.027	1.033821	0.068947	0.068671	147.448	30487	0.065320	0.145571	1012.89	73004.4
208	2.000000	1.036154	7.36709e+06	-49039.1	955.82	-29760.8	0.000000	0.000000	7.043277	159.347	NaN	0.000000	0.001678	0.001722	28.0783	56.8911	0.001924	29574.6	11.9471	171.081	160.283	1.035745	0.071004	0.070595	159.347	29574.6	0.066963	0.151954	1048.65	69316.4
208	2.000000	1.038078	7.36709e+06	-49039.1	955.819	-29760.8	0.000000	0.000000	7.045505	166.744	NaN	0.000000	0.001719	0.001713	28.0776	57.459	0.001742	32983.8	2.485934	178.036	164.758	1.037746	0.072928	0.072596	166.744	32983.8	0.069136	0.160592	1038.31	75199
208	2.000000	1.040118	7.36709e+06	-49039.1	955.82	-29760.8	0.000000	0.000000	7.047986	177.478	NaN	0.000000	0.001717	0.001720	28.0776	59.6582	0.001835	32513.9	3.709459	176.9	178.445	1.039846	0.074968	0.074696	177.478	32513.9	0.070874	0.167660	1058.56	72548.3
208	2.000000	1.042084	7.36709e+06	-49039.1	955.82	-29760.8	0.000000	0.000000	7.050546	191.912	NaN	0.000000	0.001731	0.001716	28.0776	60.6346	0.001732	35010.5	6.089371	174.965	190.451	1.041652	0.076934	0.076502	191.912	35010.5	0.072823	0.175761	1091.89	76297.5
208	2.000000	1.044120	7.36709e+06	-49039.1	955.82	-29760.8	0.000000	0.000000	7.052899	199.635	NaN	0.000000	0.001620	0.001687	28.0777	62.9746	0.001826	34480.6	4.752065	175.208	198.75	1.043735	0.078969	0.078585	199.635	34480.6	0.074627	0.183418	1088.41	73557.5
208	2.000000	1.046159	7.36709e+06	-49039.1	955.82	-29760.8	0.000000	0.000000	7.055418	211.282	NaN	0.000000	0.001647	0.001699	28.0778	63.7334	0.001698	37531.7	1.515290	178.324	212.135	1.045827	0.081009	0.080677	211.282	37531.7	0.076787	0.192788	1095.93	78096.3
208	2.000000	1.048092	7.36709e+06	-49039.1	955.819	-29760.8	0.000000	0.000000	7.057935	225.488	NaN	0.000000	0.001678	0.001697	28.0779	65.2979	0.001752	37268.1	2.351826	177.152	225.048	1.047789	0.082942	0.082639	225.488	37268.1	0.078404	0.199946	1127.74	76147.2
208	2.000000	1.049987	7.36709e+06	-49039.1	955.82	-29760.8	0.000000	0.000000	7.060185	234.111	NaN	0.000000	0.001664	0.001679	28.0778	67.1726	0.001797	37374.5	2.561662	177.108	228.522	1.049771	0.084837	0.084621	234.111	37374.5	0.080139	0.207762	1126.82	74914.5
208	2.000000	1.052124	7.36709e+06	-49039.1	955.82	-29760.8	0.000000	0.000000	7.062720	243.816	NaN	0.000000	0.001634	0.001677	28.0776	67.5256	0.001651	40891.1	0.951352	177.898	245.516	1.051787	0.086974	0.086637	243.816	40891.1	0.082502	0.218628	1115.21	79900.5
208	2.000000	1.054034	7.36709e+06	-49039.1	955.819	-29760.8	0.000000	0.000000	7.065087	254.931	NaN	0.000000	0.001667	0.001703	28.0776	69.8359	0.001646	42423.4	0.275526	177.968	250.7	1.053740	0.088884	0.088590	254.931	42423.4	0.084377	0.227438	1120.88	81273.2
208	2.000000	1.056277	7.36709e+06	-49039.1	955.82	-29760.8	0.000000	0.000000	7.067860	267.827	NaN	0.000000	0.001654	0.001686	28.0775	73.7478	0.001796	41068	3.361973	175.935	275.679	1.055747	0.091127	0.090597	267.827	41068	0.086236	0.236332	1133.27	77181.9
208	2.000000	1.058105	7.36709e+06	-49039.1	955.819	-29760.8	0.000000	0.000000	7.070436	285.987	NaN	0.000000	0.001657	0.001698	28.079	74.7422	0.001799	41554.5	4.756290	174.881	286.563	1.057697	0.092955	0.092547	285.987	41554.5	0.087794	0.243908	1172.52	76873.6
208	2.000000	1.060072	7.36709e+06	-49039.1	955.819	-29760.8	0.000000	0.000000	7.072834	296.478	NaN	0.000000	0.001685	0.001693	28.079	78.3436	0.001835	42697.3	6.947386	172.112	295.156	1.059783	0.094922	0.094633	296.478	42697.3	0.089714	0.253402	1169.99	77494
208	2.000000	1.062014	7.36709e+06	-49039.1	955.82	-29760.8	0.000000	0.000000	7.075272	308.565	NaN	0.000000	0.001724	0.001674	28.079	78.7589	0.001842	42756.2	4.846688	174.792	304.317	1.061569	0.096863	0.096419	308.565	42756.2	0.091451	0.262132	1177.13	76297.7
208	2.000000	1.064042	7.36709e+06	-49039.1	955.82	-29760.8	0.000000	0.000000	7.077845	321.808	NaN	0.000000	0.001691	0.001691	28.0789	81.8774	0.001877	43621.1	7.056571	170.954	318.662	1.063731	0.098892	0.098581	321.808	43621.1	0.093359	0.271885	1183.62	76432.3
208	2.000000	1.066167	7.36709e+06	-49039.1	955.82	-29760.8	0.000000	0.000000	7.080608	337.316	NaN	0.000000	0.001658	0.001717	28.079	82.6941	0.001712	48293.5	6.660854	171.68	340.104	1.065775	0.101017	0.100625	337.316	48293.5	0.095779	0.284490	1185.69	82723.3
208	2.000000	1.068037	7.36709e+06	-49039.1	955.82	-29760.8	0.000000	0.000000	7.083124	353.046	NaN	0.000000	0.001683	0.001700	28.0793	83.0662	0.001765	47068.1	1.196024	176.604	350.955	1.067756	0.102887	0.102606	353.046	47068.1	0.097261	0.292344	1207.64	79534
208	2.000000	1.070179	7.36709e+06	-49039.1	955.82	-29760.8	0.000000	0.000000	7.085401	356.317	NaN	0.000000	0.001654	0.001678	28.0793	87.1696	0.001805	48286.9	4.815051	173.085	363.231	1.069801	0.105029	0.104651	356.317	48286.9	0.099495	0.304369	1170.68	79965.6
208	2.000000	1.072148	7.36709e+06	-49039.1	955.82	-29760.8	0.000000	0.000000	7.088549	384.997	NaN	0.000000	0.001689	0.001673	28.0789	88.1821	0.001837	47999.8	7.059770	171.473	387.997	1.071636	0.106998	0.106486	384.997	47999.8	0.100982	0.312501	1231.99	78448.9
208	2.000000	1.073964	7.36709e+06	-49039.1	955.82	-29760.8	0.000000	0.000000	7.090793	395.386	NaN	0.000000	0.001671	0.001682	28.0789	90.1926	0.001742	51768.8	4.625663	172.328	388.863	1.073785	0.108814	0.108635	395.386	51768.8	0.103086	0.324174	1219.67	83071.5
208	2.000000	1.076063	7.36709e+06	-49039.1	955.82	-29760.8	0.000000	0.000000	7.093538	411.107	NaN	0.000000	0.001670	0.001711	28.0791	92.1723	0.001815	50785.7	3.452766	173.863	409.038	1.075791	0.110913	0.110641	411.107	50785.7	0.104842	0.334071	1230.6	80277.7
208	2.000000	1.078017	7.36709e+06	-49039.1	955.82	-29760.8	0.000000	0.000000	7.096060	424.929	NaN	0.000000	0.001651	0.001643	28.0803	93.7023	0.001878	49883.5	3.493279	174.309	422.93	1.077696	0.112867	0.112546	424.929	49883.5	0.106478	0.343423	1237.33	77770.7
208	2.000000	1.080158	7.36709e+06	-49039.1	955.82	-29760.8	0.000000	0.000000	7.098516	432.592	NaN	0.000000	0.001683	0.001680	28.0792	96.6248	0.001829	52839.3	4.310145	172.06	433.577	1.079910	0.115007	0.114760	432.592	52839.3	0.108867	0.357291	1210.76	80764.3
208	2.000000	1.081944	7.36709e+06	-49039.1	955.819	-29760.8	0.000000	0.000000	7.101548	462.902	NaN	0.000000	0.001681	0.001683	28.0794	95.9458	0.001913	50152.8	1.853770	176.276	456.591	1.081601	0.116794	0.116450	462.902	50152.8	0.109871	0.363195	1274.52	76032.4
208	2.000000	1.084079	7.36709e+06	-49039.1	955.82	-29760.8	0.000000	0.000000	7.104127	473.712	NaN	0.000000	0.001672	0.001702	28.079	99.9751	0.001969	50783.2	7.290707	170.562	473.853	1.083710	0.118928	0.118560	473.712	50783.2	0.111932	0.375463	1261.68	75719.8
208	2.000000	1.084544	7.36709e+06	-49039.1	955.82	-29760.8	0.000000	0.000000	7.104683	475.915	NaN	0.000000	0.001648	0.001710	28.0791	99.4184	0.001759	56524.8	6.847320	-9.970596	472.825	1.084222	0.119394	0.119072	475.915	56524.8	0.113079	0.382371	1244.64	83515.9