File: remote_trans/data/nanoindenter/0828-1/data/Data_2025-08-06,11h17m57s/2025-07-22_16-23-58_1_662.txt
2025-07-22, 16:23:58, 1
Index	Phase	Displacement	Time	Pos X	Pos Y	Pos Z	Rot A	Rot B	Piezo Z	Force A	Force B	Gripper	Voltage A	Voltage B	Temperature	Amplitude force	Amplitude pos	Stiffness	Phase shift	Phase excitation	Force A raw	Displacement raw	HMax	HMax raw	Real Force	Real Stiffness	Contact Depth	Area	Hardness	Reduced Mod.
[#]	[#]	[um]	[s]	[um]	[um]	[um]	[m°]	[m°]	[um]	[uN]	[uN]	[V]	[V]	[V]	[°C]	[uN]	[um]	[N/m]	[°]	[°]	[uN]	[um]	[um]	[um]	[uN]	[N/m]	[um]	[um^2]	[MPa]	[MPa]
662	1.000000	0.002618	7.37153e+06	-43989.1	1005.82	-29777.2	0.000000	0.000000	6.002801	0.057569	NaN	0.000000	0.001608	0.001741	28.0838	0.039880	0.000955	41.739	-88.0538	-166.689	0.122919	0.001395	-1.038683	-1.039906	0.057569	41.739	-1.039718	-7.765507E+13	-7.413384E-16	NaN
662	1.000000	0.010608	7.37153e+06	-43989.1	1005.82	-29777.2	0.000000	0.000000	6.010789	-0.000965	NaN	0.000000	0.001597	0.001745	28.0837	0.144698	0.000914	158.286	-164.772	-165.031	-0.057066	0.009197	-1.030693	-1.032104	-0.000965	158.286	-1.030688	-5.871352E+13	1.643902E-17	NaN
662	1.000000	0.018544	7.37153e+06	-43989.1	1005.82	-29777.2	0.000000	0.000000	6.018724	-0.016681	NaN	0.000000	0.001573	0.001719	28.0833	0.081958	0.001790	45.7775	-86.1808	-166.709	0.091424	0.017251	-1.022757	-1.024050	-0.016681	45.7775	-1.022484	-4.553759E+13	3.663163E-16	NaN
662	1.000000	0.026582	7.37153e+06	-43989.1	1005.82	-29777.2	0.000000	0.000000	6.026763	0.015068	NaN	0.000000	0.001583	0.001748	28.0833	0.057511	0.001808	31.8037	59.1946	-167.721	-0.010535	0.025265	-1.014720	-1.016036	0.015068	31.8037	-1.015075	-3.619774E+13	-4.162764E-16	NaN
662	1.000000	0.034575	7.37153e+06	-43989.1	1005.82	-29777.2	0.000000	0.000000	6.034758	0.054823	NaN	0.000000	0.001599	0.001717	28.0832	0.020447	0.001754	11.658	-46.0792	-168.064	0.061926	0.033274	-1.006726	-1.008027	0.054823	11.658	-1.010253	-3.117350E+13	-1.758646E-15	NaN
662	1.000000	0.042543	7.37153e+06	-43989.1	1005.82	-29777.2	0.000000	0.000000	6.042726	0.036162	NaN	0.000000	0.001577	0.001722	28.0833	0.002847	0.002034	1.400157	-168.535	-169.624	-0.059900	0.041270	-0.998758	-1.000031	0.036162	1.400157	-1.018128	-3.978920E+13	-9.088297E-16	NaN
662	1.000000	0.050590	7.37153e+06	-43989.1	1005.82	-29777.2	0.000000	0.000000	6.050775	0.112168	NaN	0.000000	0.001580	0.001752	28.0833	0.111568	0.001981	56.3249	140.385	-171.558	0.106370	0.049293	-0.990711	-0.992008	0.112168	56.3249	-0.992205	-1.781589E+13	-6.295981E-15	NaN
662	1.000000	0.058556	7.37153e+06	-43989.1	1005.82	-29777.2	0.000000	0.000000	6.058738	0.012206	NaN	0.000000	0.001612	0.001754	28.0834	0.037582	0.001966	19.1194	-33.0679	-163.826	0.002923	0.057273	-0.982745	-0.984028	0.012206	19.1194	-0.983224	-1.348465E+13	-9.051417E-16	NaN
662	1.000000	0.066579	7.37153e+06	-43989.1	1005.82	-29777.2	0.000000	0.000000	6.066760	-0.007556	NaN	0.000000	0.001594	0.001722	28.0832	0.042715	0.002029	21.0478	-164.136	-167.49	0.021304	0.065308	-0.974722	-0.975994	-0.007556	21.0478	-0.974453	-1.027224E+13	7.356157E-16	NaN
662	1.000000	0.074561	7.37153e+06	-43989.1	1005.82	-29777.2	0.000000	0.000000	6.074743	0.045411	NaN	0.000000	0.001546	0.001714	28.0831	0.030233	0.001927	15.6901	43.1442	-165.864	0.035227	0.073269	-0.966741	-0.968033	0.045411	15.6901	-0.968911	-8.649493E+12	-5.250169E-15	NaN
662	1.000000	0.082585	7.37153e+06	-43989.1	1005.82	-29777.2	0.000000	0.000000	6.082768	0.043251	NaN	0.000000	0.001610	0.001718	28.0835	0.093713	0.002029	46.1921	6.522835	-170.269	0.012153	0.081256	-0.958716	-0.960045	0.043251	46.1921	-0.959418	-6.442083E+12	-6.713754E-15	NaN
662	1.000000	0.090594	7.37153e+06	-43989.1	1005.82	-29777.2	0.000000	0.000000	6.090775	-0.014942	NaN	0.000000	0.001580	0.001743	28.0835	0.074659	0.002140	34.8952	-70.0378	-167.792	0.014380	0.089249	-0.950707	-0.952052	-0.014942	34.8952	-0.950386	-4.866639E+12	3.070217E-15	NaN
662	1.000000	0.098600	7.37153e+06	-43989.1	1005.82	-29777.2	0.000000	0.000000	6.098781	0.014843	NaN	0.000000	0.001576	0.001707	28.0833	0.103997	0.002004	51.8987	-27.2124	-167.254	0.019478	0.097234	-0.942701	-0.944067	0.014843	51.8987	-0.942916	-3.858990E+12	-3.846406E-15	NaN
662	1.000000	0.106589	7.37153e+06	-43989.1	1005.82	-29777.2	0.000000	0.000000	6.106771	0.021862	NaN	0.000000	0.001577	0.001727	28.0832	0.014866	0.001938	7.669254	-38.2287	-165.542	0.013396	0.105310	-0.934712	-0.935991	0.021862	7.669254	-0.936850	-3.196244E+12	-6.840024E-15	NaN
662	1.000000	0.114590	7.37153e+06	-43989.1	1005.82	-29777.2	0.000000	0.000000	6.114772	0.027484	NaN	0.000000	0.001566	0.001711	28.0832	0.160451	0.002090	76.7555	13.6311	-164.988	0.032490	0.113266	-0.926711	-0.928035	0.027484	76.7555	-0.926979	-2.351946E+12	-1.168550E-14	NaN
662	1.000000	0.122583	7.37153e+06	-43989.1	1005.82	-29777.2	0.000000	0.000000	6.122764	0.005384	NaN	0.000000	0.001566	0.001705	28.083	0.096309	0.001963	49.0627	-65.4301	-166.375	0.026174	0.121297	-0.918718	-0.920004	0.005384	49.0627	-0.918801	-1.823944E+12	-2.951746E-15	NaN
662	1.000000	0.130575	7.37153e+06	-43989.1	1005.82	-29777.2	0.000000	0.000000	6.130755	-0.024046	NaN	0.000000	0.001537	0.001678	28.0817	0.115337	0.001936	59.5842	-159.23	-165.504	-0.091826	0.129277	-0.910727	-0.912024	-0.024046	59.5842	-0.910424	-1.405685E+12	1.710605E-14	NaN
662	1.000000	0.138614	7.37153e+06	-43989.1	1005.82	-29777.2	0.000000	0.000000	6.138796	0.026494	NaN	0.000000	0.001543	0.001694	28.082	0.063212	0.001948	32.4531	63.0445	-166.565	-0.010537	0.137298	-0.902687	-0.904003	0.026494	32.4531	-0.903299	-1.126268E+12	-2.352362E-14	NaN
662	1.000000	0.146612	7.37153e+06	-43989.1	1005.82	-29777.2	0.000000	0.000000	6.146797	0.101385	NaN	0.000000	0.001558	0.001690	28.0816	0.103211	0.001956	52.7543	-121.821	-167.822	0.035023	0.145288	-0.894689	-0.896013	0.101385	52.7543	-0.896131	-9.011168E+11	-1.125099E-13	NaN
662	1.000000	0.154601	7.37153e+06	-43989.1	1005.82	-29777.2	0.000000	0.000000	6.154782	-0.011992	NaN	0.000000	0.001535	0.001695	28.0816	0.011876	0.002117	5.608933	68.8282	-167.476	-0.007249	0.153313	-0.886700	-0.887988	-0.011992	5.608933	-0.885096	-6.391794E+11	1.876112E-14	NaN
662	1.000000	0.162613	7.37153e+06	-43989.1	1005.82	-29777.2	0.000000	0.000000	6.162793	-0.038101	NaN	0.000000	0.001549	0.001682	28.0818	0.109120	0.001949	55.981	-11.4983	-168.61	-0.011354	0.161314	-0.878688	-0.879987	-0.038101	55.981	-0.878177	-5.152981E+11	7.393968E-14	NaN
662	1.000000	0.170614	7.37153e+06	-43989.1	1005.82	-29777.2	0.000000	0.000000	6.170796	0.022640	NaN	0.000000	0.001556	0.001725	28.0817	0.062827	0.001841	34.1311	38.6008	-169.348	-0.011593	0.169312	-0.870687	-0.871990	0.022640	34.1311	-0.871185	-4.144488E+11	-5.462787E-14	NaN
662	1.000000	0.178586	7.37153e+06	-43989.1	1005.82	-29777.2	0.000000	0.000000	6.178766	-0.030174	NaN	0.000000	0.001576	0.001735	28.0818	0.076044	0.001963	38.7286	97.1627	-167.668	-0.023449	0.177317	-0.862715	-0.863984	-0.030174	38.7286	-0.862131	-3.125779E+11	9.653231E-14	NaN
662	1.000000	0.186614	7.37153e+06	-43989.1	1005.82	-29777.2	0.000000	0.000000	6.186796	0.024132	NaN	0.000000	0.001566	0.001708	28.0819	0.049148	0.002011	24.4416	110.51	-166.14	0.040930	0.185279	-0.854687	-0.856022	0.024132	24.4416	-0.855427	-2.536424E+11	-9.514217E-14	NaN
662	1.000000	0.194639	7.37153e+06	-43989.1	1005.82	-29777.2	0.000000	0.000000	6.194820	0.008020	NaN	0.000000	0.001579	0.001644	28.0821	0.120088	0.002095	57.335	46.5344	-168.148	-0.010719	0.193351	-0.846663	-0.847950	0.008020	57.335	-0.846767	-1.936250E+11	-4.142235E-14	NaN
662	1.000000	0.202679	7.37153e+06	-43989.1	1005.82	-29777.2	0.000000	0.000000	6.202859	-0.017975	NaN	0.000000	0.001579	0.001671	28.0818	0.055211	0.001954	28.261	-122.789	-166.786	-0.065666	0.201330	-0.838622	-0.839971	-0.017975	28.261	-0.838145	-1.479672E+11	1.214823E-13	NaN
662	1.000000	0.210665	7.37153e+06	-43989.1	1005.82	-29777.2	0.000000	0.000000	6.210848	0.032108	NaN	0.000000	0.001560	0.001685	28.0817	0.081610	0.001968	41.4592	-136.68	-165.295	-0.039386	0.209262	-0.830636	-0.832039	0.032108	41.4592	-0.831217	-1.191995E+11	-2.693639E-13	NaN
662	1.000000	0.218663	7.37153e+06	-43989.1	1005.82	-29777.2	0.000000	0.000000	6.218839	-0.108218	NaN	0.000000	0.001554	0.001688	28.0816	0.067353	0.001973	34.1372	-173.112	-166.905	-0.128527	0.217314	-0.822638	-0.823988	-0.108218	34.1372	-0.820261	-8.467377E+10	1.278059E-12	NaN
662	1.000000	0.226647	7.37153e+06	-43989.1	1005.82	-29777.2	0.000000	0.000000	6.226829	0.023127	NaN	0.000000	0.001547	0.001683	28.0817	0.020951	0.002037	10.2844	138.883	-167.034	0.009781	0.225335	-0.814654	-0.815966	0.023127	10.2844	-0.816341	-7.491829E+10	-3.087023E-13	NaN
662	1.000000	0.234653	7.37153e+06	-43989.1	1005.82	-29777.2	0.000000	0.000000	6.234831	-0.063070	NaN	0.000000	0.001558	0.001690	28.0818	0.116264	0.001949	59.6625	105.445	-164.018	-0.013430	0.233306	-0.806648	-0.807995	-0.063070	59.6625	-0.805856	-5.399297E+10	1.168113E-12	NaN
662	1.000000	0.242635	7.37153e+06	-43989.1	1005.82	-29777.2	0.000000	0.000000	6.242815	-0.023103	NaN	0.000000	0.001558	0.001672	28.0815	0.074297	0.002101	35.3641	-176.875	-169.176	0.050013	0.241323	-0.798666	-0.799978	-0.023103	35.3641	-0.798176	-4.247200E+10	5.439573E-13	NaN
662	1.000000	0.250668	7.37153e+06	-43989.1	1005.82	-29777.2	0.000000	0.000000	6.250852	0.059807	NaN	0.000000	0.001548	0.001702	28.0819	0.079623	0.002034	39.145	-20.85	-168.146	0.024529	0.249372	-0.790633	-0.791929	0.059807	39.145	-0.791779	-3.477279E+10	-1.719947E-12	NaN
662	1.000000	0.258694	7.37153e+06	-43989.1	1005.82	-29777.2	0.000000	0.000000	6.258878	0.066724	NaN	0.000000	0.001573	0.001678	28.0816	0.011773	0.002019	5.832178	-87.9198	-167.375	0.022803	0.257353	-0.782607	-0.783948	0.066724	5.832178	-0.791188	-3.413596E+10	-1.954659E-12	NaN
662	1.000000	0.266661	7.37153e+06	-43989.1	1005.82	-29777.2	0.000000	0.000000	6.266842	0.012750	NaN	0.000000	0.001589	0.001676	28.0829	0.069389	0.001837	37.7692	-18.5481	-170.534	0.042732	0.265363	-0.774641	-0.775938	0.012750	37.7692	-0.774894	-2.050381E+10	-6.218595E-13	NaN
662	1.000000	0.274630	7.37153e+06	-43989.1	1005.82	-29777.2	0.000000	0.000000	6.274813	0.037402	NaN	0.000000	0.001567	0.001700	28.0826	0.033786	0.001884	17.9338	162.808	-167.571	-0.020822	0.273349	-0.766671	-0.767952	0.037402	17.9338	-0.768235	-1.664587E+10	-2.246906E-12	NaN
662	1.000000	0.282665	7.37153e+06	-43989.1	1005.82	-29777.2	0.000000	0.000000	6.282847	0.019834	NaN	0.000000	0.001523	0.001695	28.083	0.036559	0.002117	17.2723	133.075	-163.335	0.026215	0.281337	-0.758636	-0.759965	0.019834	17.2723	-0.759497	-1.266086E+10	-1.566580E-12	NaN
662	1.000000	0.290672	7.37153e+06	-43989.1	1005.82	-29777.2	0.000000	0.000000	6.290853	-0.002906	NaN	0.000000	0.001556	0.001693	28.0833	0.065232	0.002040	31.9818	110.862	-165.94	-0.045911	0.289318	-0.750629	-0.751983	-0.002906	31.9818	-0.750561	-9.568847E+9	3.036551E-13	NaN
662	1.000000	0.298679	7.37153e+06	-43989.1	1005.82	-29777.2	0.000000	0.000000	6.298863	0.081114	NaN	0.000000	0.001552	0.001721	28.0828	0.082543	0.001990	41.4717	39.0254	-169.09	0.004774	0.297371	-0.742622	-0.743930	0.081114	41.4717	-0.744089	-7.811742E+9	-1.038359E-11	NaN
662	1.000000	0.306651	7.37153e+06	-43989.1	1005.82	-29777.2	0.000000	0.000000	6.306832	0.002788	NaN	0.000000	0.001614	0.001668	28.0831	0.034861	0.001809	19.2678	123.998	-162.32	-0.024393	0.305385	-0.734651	-0.735917	0.002788	19.2678	-0.734759	-5.829890E+9	-4.782620E-13	NaN
662	1.000000	0.314686	7.37153e+06	-43989.1	1005.82	-29777.2	0.000000	0.000000	6.314867	-0.002391	NaN	0.000000	0.001586	0.001672	28.0829	0.072042	0.001874	38.4487	168.842	-166.503	0.031836	0.313380	-0.726615	-0.727921	-0.002391	38.4487	-0.726568	-4.508499E+9	5.303946E-13	NaN
662	1.000000	0.322698	7.37153e+06	-43989.1	1005.82	-29777.2	0.000000	0.000000	6.322879	0.009741	NaN	0.000000	0.001566	0.001695	28.0829	0.076424	0.001963	38.9276	172.099	-167.031	-0.002033	0.321365	-0.718603	-0.719937	0.009741	38.9276	-0.718791	-3.531712E+9	-2.758279E-12	NaN
662	1.000000	0.330717	7.37153e+06	-43989.1	1005.82	-29777.2	0.000000	0.000000	6.330901	0.074967	NaN	0.000000	0.001595	0.001678	28.0831	0.064445	0.001896	33.9874	-156.37	-166.864	0.088502	0.329356	-0.710584	-0.711945	0.074967	33.9874	-0.712238	-2.874697E+9	-2.607814E-11	NaN
662	1.000000	0.338688	7.37153e+06	-43989.1	1005.82	-29777.2	0.000000	0.000000	6.338870	0.023051	NaN	0.000000	0.001563	0.001699	28.0829	0.093508	0.002083	44.8815	6.007522	-164.644	-0.082157	0.337337	-0.702613	-0.703965	0.023051	44.8815	-0.702998	-2.150148E+9	-1.072068E-11	NaN
662	1.000000	0.346704	7.37153e+06	-43989.1	1005.82	-29777.2	0.000000	0.000000	6.346884	-0.020006	NaN	0.000000	0.001547	0.001691	28.0832	0.027578	0.002015	13.6883	-100.973	-167.415	-0.094903	0.345395	-0.694597	-0.695906	-0.020006	13.6883	-0.693501	-1.594997E+9	1.254325E-11	NaN
662	1.000000	0.354708	7.37153e+06	-43989.1	1005.82	-29777.2	0.000000	0.000000	6.354891	0.049916	NaN	0.000000	0.001552	0.001714	28.0831	0.079819	0.001976	40.3951	-149.53	-167.73	-0.020261	0.353395	-0.686593	-0.687907	0.049916	40.3951	-0.687520	-1.321374E+9	-3.777591E-11	NaN
662	1.000000	0.362679	7.37153e+06	-43989.1	1005.82	-29777.2	0.000000	0.000000	6.362858	-0.028849	NaN	0.000000	0.001568	0.001714	28.0829	0.094456	0.002094	45.1103	138.796	-167.341	0.017880	0.361357	-0.678623	-0.679944	-0.028849	45.1103	-0.678143	-9.835693E+8	2.933109E-11	NaN
662	1.000000	0.370695	7.37153e+06	-43989.1	1005.82	-29777.2	0.000000	0.000000	6.370874	-0.044410	NaN	0.000000	0.001589	0.001697	28.083	0.062376	0.002081	29.9669	-177.057	-166.148	0.006204	0.369373	-0.670606	-0.671928	-0.044410	29.9669	-0.669494	-7.489773E+8	5.929422E-11	NaN
662	1.000000	0.378675	7.37153e+06	-43989.1	1005.82	-29777.2	0.000000	0.000000	6.378856	0.015093	NaN	0.000000	0.001579	0.001765	28.0831	0.080387	0.001842	43.652	-178.907	-168.459	-0.016134	0.377396	-0.662626	-0.663905	0.015093	43.652	-0.662886	-6.081222E+8	-2.481846E-11	NaN
662	1.000000	0.386739	7.37153e+06	-43989.1	1005.82	-29777.2	0.000000	0.000000	6.386918	-0.037090	NaN	0.000000	0.001615	0.001695	28.0833	0.073269	0.002189	33.4661	-137.342	-164.225	-0.044403	0.385412	-0.654563	-0.655889	-0.037090	33.4661	-0.653731	-4.555985E+8	8.140881E-11	NaN
662	1.000000	0.394718	7.37153e+06	-43989.1	1005.82	-29777.2	0.000000	0.000000	6.394901	0.058827	NaN	0.000000	0.001609	0.001695	28.0831	0.125933	0.002089	60.2736	-44.6467	-166.098	0.099453	0.393377	-0.646584	-0.647924	0.058827	60.2736	-0.647316	-3.720766E+8	-1.581034E-10	NaN
662	1.000000	0.402744	7.37153e+06	-43989.1	1005.82	-29777.2	0.000000	0.000000	6.402924	-0.011823	NaN	0.000000	0.001615	0.001696	28.0819	0.067526	0.002025	33.3425	126.04	-164.611	-0.147289	0.401419	-0.638557	-0.639882	-0.011823	33.3425	-0.638292	-2.797994E+8	4.225385E-11	NaN
662	1.000000	0.410727	7.37153e+06	-43989.1	1005.82	-29777.2	0.000000	0.000000	6.410912	0.111149	NaN	0.000000	0.001644	0.001671	28.0819	0.089745	0.002072	43.3213	-90.7464	-165.998	0.122810	0.409392	-0.630574	-0.631909	0.111149	43.3213	-0.632499	-2.329877E+8	-4.770575E-10	NaN
662	1.000000	0.418718	7.37153e+06	-43989.1	1005.82	-29777.2	0.000000	0.000000	6.418899	-0.004321	NaN	0.000000	0.001588	0.001700	28.0818	0.069327	0.002126	32.6096	-156.688	-165.475	0.028287	0.417390	-0.622583	-0.623911	-0.004321	32.6096	-0.622483	-1.697320E+8	2.545626E-11	NaN
662	1.000000	0.426716	7.37153e+06	-43989.1	1005.82	-29777.2	0.000000	0.000000	6.426900	0.088297	NaN	0.000000	0.001634	0.001690	28.0818	0.017851	0.001890	9.443248	-60.089	-164.677	0.012364	0.425450	-0.614585	-0.615851	0.088297	9.443248	-0.621598	-1.650429E+8	-5.349929E-10	NaN
662	1.000000	0.434744	7.37153e+06	-43989.1	1005.82	-29777.2	0.000000	0.000000	6.434924	-0.017926	NaN	0.000000	0.001618	0.001705	28.0822	0.039922	0.001863	21.43	-172.261	-164.58	-0.028337	0.433387	-0.606557	-0.607914	-0.017926	21.43	-0.605930	-1.004855E+8	1.783938E-10	NaN
662	1.000000	0.442731	7.37153e+06	-43989.1	1005.82	-29777.2	0.000000	0.000000	6.442911	-0.008684	NaN	0.000000	0.001610	0.001720	28.082	0.102650	0.002151	47.7299	131.99	-167.202	-0.046257	0.441452	-0.598570	-0.599849	-0.008684	47.7299	-0.598434	-7.923022E+7	1.095985E-10	NaN
662	1.000000	0.450720	7.37153e+06	-43989.1	1005.82	-29777.2	0.000000	0.000000	6.450901	0.007566	NaN	0.000000	0.001596	0.001716	28.0821	0.081770	0.002006	40.771	150.547	-165.904	0.020746	0.449428	-0.590581	-0.591873	0.007566	40.771	-0.590720	-6.202958E+7	-1.219681E-10	NaN
662	1.000000	0.458744	7.37153e+06	-43989.1	1005.82	-29777.2	0.000000	0.000000	6.458926	0.024995	NaN	0.000000	0.001623	0.001695	28.0821	0.125590	0.002017	62.2668	-131.361	-163.851	0.059850	0.457435	-0.582557	-0.583866	0.024995	62.2668	-0.582858	-4.832462E+7	-5.172236E-10	NaN
662	1.000000	0.466745	7.37153e+06	-43989.1	1005.82	-29777.2	0.000000	0.000000	6.466927	0.034088	NaN	0.000000	0.001591	0.001733	28.082	0.079736	0.001965	40.5847	-163.086	-167.91	-0.072325	0.465381	-0.574556	-0.575920	0.034088	40.5847	-0.575186	-3.786737E+7	-9.001830E-10	NaN
662	1.000000	0.474766	7.37153e+06	-43989.1	1005.82	-29777.2	0.000000	0.000000	6.474948	0.026263	NaN	0.000000	0.001605	0.001696	28.0822	0.135209	0.001892	71.4515	166.859	-162.942	0.052490	0.473402	-0.566535	-0.567900	0.026263	71.4515	-0.566810	-2.901038E+7	-9.053031E-10	NaN
662	1.000000	0.482741	7.37153e+06	-43989.1	1005.82	-29777.2	0.000000	0.000000	6.482921	-0.038756	NaN	0.000000	0.001582	0.001718	28.082	0.109344	0.002034	53.7713	110.428	-164.955	-0.017341	0.481459	-0.558560	-0.559842	-0.038756	53.7713	-0.558019	-2.192666E+7	1.767547E-9	NaN
662	1.000000	0.490747	7.37153e+06	-43989.1	1005.82	-29777.2	0.000000	0.000000	6.490929	0.030237	NaN	0.000000	0.001549	0.001708	28.082	0.090786	0.001926	47.1369	-38.5668	-163.067	0.010392	0.489385	-0.550554	-0.551916	0.030237	47.1369	-0.551035	-1.755081E+7	-1.722798E-9	NaN
662	1.000000	0.498754	7.37153e+06	-43989.1	1005.82	-29777.2	0.000000	0.000000	6.498934	-0.016225	NaN	0.000000	0.001551	0.001719	28.0821	0.097436	0.001977	49.2862	-37.987	-164.639	0.007754	0.497426	-0.542547	-0.543876	-0.016225	49.2862	-0.542300	-1.328175E+7	1.221599E-9	NaN
662	1.000000	0.506749	7.37153e+06	-43989.1	1005.82	-29777.2	0.000000	0.000000	6.506933	0.066606	NaN	0.000000	0.001573	0.001719	28.0818	0.131924	0.001941	67.9651	116.443	-167.082	0.088996	0.505442	-0.534552	-0.535859	0.066606	67.9651	-0.535287	-1.061631E+7	-6.273939E-9	NaN
662	1.000000	0.514778	7.37153e+06	-43989.1	1005.82	-29777.2	0.000000	0.000000	6.514959	-0.001961	NaN	0.000000	0.001586	0.001695	28.0826	0.116514	0.001935	60.2018	-132.505	-166.877	-0.039419	0.513457	-0.526523	-0.527844	-0.001961	60.2018	-0.526498	-8.01551e+06	2.445943E-10	NaN
662	1.000000	0.522762	7.37153e+06	-43989.1	1005.82	-29777.2	0.000000	0.000000	6.522941	-0.038619	NaN	0.000000	0.001566	0.001705	28.0817	0.080725	0.002060	39.1913	-16.7467	-166.442	0.019106	0.521459	-0.518539	-0.519842	-0.038619	39.1913	-0.517800	-6.06738e+06	6.365012E-9	NaN
662	1.000000	0.530769	7.37153e+06	-43989.1	1005.82	-29777.2	0.000000	0.000000	6.530950	0.003309	NaN	0.000000	0.001606	0.001713	28.0819	0.091339	0.001896	48.182	71.697	-166.191	0.086236	0.529460	-0.510532	-0.511841	0.003309	48.182	-0.510583	-4.8144e+06	-6.873647E-10	NaN
662	1.000000	0.538773	7.37153e+06	-43989.1	1005.82	-29777.2	0.000000	0.000000	6.538955	0.010093	NaN	0.000000	0.001596	0.001713	28.0831	0.096913	0.002075	46.6977	-73.4645	-165.408	0.025920	0.537409	-0.502528	-0.503892	0.010093	46.6977	-0.502690	-3.7371e+06	-2.700864E-9	NaN
662	1.000000	0.546772	7.37153e+06	-43989.1	1005.82	-29777.2	0.000000	0.000000	6.546951	-0.037750	NaN	0.000000	0.001576	0.001734	28.083	0.011820	0.002027	5.831674	79.508	-167.302	-0.019684	0.545452	-0.494529	-0.495850	-0.037750	5.831674	-0.489675	-2.45949e+06	1.534874E-8	NaN
662	1.000000	0.554749	7.37153e+06	-43989.1	1005.82	-29777.2	0.000000	0.000000	6.554930	0.003884	NaN	0.000000	0.001591	0.001717	28.0835	0.066176	0.001871	35.3613	-98.3046	-166.224	0.060717	0.553432	-0.486553	-0.487869	0.003884	35.3613	-0.486635	-2.23026e+06	-1.741331E-9	NaN
662	1.000000	0.562754	7.37153e+06	-43989.1	1005.82	-29777.2	0.000000	0.000000	6.562935	-0.005568	NaN	0.000000	0.001609	0.001719	28.0831	0.088601	0.002006	44.1693	-97.49	-166.705	-0.000416	0.561480	-0.478547	-0.479821	-0.005568	44.1693	-0.478452	-1.71341e+06	3.249840E-9	NaN
662	1.000000	0.570800	7.37153e+06	-43989.1	1005.82	-29777.2	0.000000	0.000000	6.570981	-0.007792	NaN	0.000000	0.001589	0.001680	28.0829	0.007554	0.001963	3.848884	138.809	-169.606	-0.024389	0.569497	-0.470501	-0.471804	-0.007792	3.848884	-0.468983	-1.26222e+06	6.172929E-9	NaN
662	1.000000	0.578838	7.37153e+06	-43989.1	1005.82	-29777.2	0.000000	0.000000	6.579017	-0.066998	NaN	0.000000	0.001604	0.001717	28.083	0.067839	0.001934	35.0749	107.956	-169.124	-0.023170	0.577509	-0.462463	-0.463793	-0.066998	35.0749	-0.461030	-976098	6.863817E-8	NaN
662	1.000000	0.586760	7.37153e+06	-43989.1	1005.82	-29777.2	0.000000	0.000000	6.586941	-0.014365	NaN	0.000000	0.001601	0.001730	28.0829	0.067850	0.002217	30.6056	-14.808	-165.144	-0.052344	0.585559	-0.454541	-0.455742	-0.014365	30.6056	-0.454189	-782178	1.836522E-8	NaN
662	1.000000	0.594788	7.37153e+06	-43989.1	1005.82	-29777.2	0.000000	0.000000	6.594967	-0.055366	NaN	0.000000	0.001585	0.001701	28.0831	0.092226	0.002026	45.5241	-5.794863	-163.029	-0.119964	0.593541	-0.446513	-0.447760	-0.055366	45.5241	-0.445601	-592059	9.351476E-8	NaN
662	1.000000	0.602787	7.37153e+06	-43989.1	1005.82	-29777.2	0.000000	0.000000	6.602964	-0.081880	NaN	0.000000	0.001604	0.001701	28.0831	0.116454	0.001991	58.4932	84.4457	-168.202	-0.114489	0.601492	-0.438514	-0.439809	-0.081880	58.4932	-0.437464	-454535	1.801397E-7	NaN
662	1.000000	0.610841	7.37153e+06	-43989.1	1005.82	-29777.2	0.000000	0.000000	6.611023	0.020312	NaN	0.000000	0.001620	0.001709	28.0833	0.080899	0.002122	38.1279	-78.8602	-167.067	-0.009058	0.609527	-0.430460	-0.431774	0.020312	38.1279	-0.430859	-366621	-5.540218E-8	NaN
662	1.000000	0.618802	7.37153e+06	-43989.1	1005.82	-29777.2	0.000000	0.000000	6.618986	0.078929	NaN	0.000000	0.001553	0.001674	28.0833	0.047399	0.002067	22.9336	-40.8644	-164.173	-0.019735	0.617506	-0.422499	-0.423796	0.078929	22.9336	-0.425080	-303682	-2.599057E-7	NaN
662	1.000000	0.626798	7.37153e+06	-43989.1	1005.82	-29777.2	0.000000	0.000000	6.626979	0.008595	NaN	0.000000	0.001578	0.001709	28.0835	0.013641	0.001982	6.882289	-9.150580	-166.602	-0.009123	0.625519	-0.414503	-0.415783	0.008595	6.882289	-0.415440	-221668	-3.877572E-8	NaN
662	1.000000	0.634803	7.37153e+06	-43989.1	1005.82	-29777.2	0.000000	0.000000	6.634985	0.014517	NaN	0.000000	0.001589	0.001663	28.0835	0.090008	0.001945	46.2847	76.7198	-169.236	-0.004768	0.633496	-0.406498	-0.407805	0.014517	46.2847	-0.406733	-166696	-8.708526E-8	NaN
662	1.000000	0.642805	7.37153e+06	-43989.1	1005.82	-29777.2	0.000000	0.000000	6.642985	-0.018846	NaN	0.000000	0.001622	0.001697	28.0833	0.082674	0.002037	40.5889	102.946	-168.946	-0.050076	0.641458	-0.398496	-0.399844	-0.018846	40.5889	-0.398148	-125770	1.498444E-7	NaN
662	1.000000	0.650839	7.37153e+06	-43989.1	1005.82	-29777.2	0.000000	0.000000	6.651020	0.003120	NaN	0.000000	0.001625	0.001682	28.0835	0.033098	0.001943	17.0344	92.2506	-164.602	0.020510	0.649462	-0.390462	-0.391839	0.003120	17.0344	-0.390600	-98116.9	-3.180096E-8	NaN
662	1.000000	0.658824	7.37153e+06	-43989.1	1005.82	-29777.2	0.000000	0.000000	6.659004	-0.025513	NaN	0.000000	0.001605	0.001727	28.0833	0.039127	0.001899	20.607	22.4564	-168.482	-0.048148	0.657561	-0.382477	-0.383740	-0.025513	20.607	-0.381548	-72795.1	3.504779E-7	NaN
662	1.000000	0.666849	7.37153e+06	-43989.1	1005.82	-29777.2	0.000000	0.000000	6.667031	0.033921	NaN	0.000000	0.001543	0.001702	28.0833	0.020812	0.002005	10.3783	147.692	-163.057	0.022418	0.665526	-0.374452	-0.375775	0.033921	10.3783	-0.376904	-62434.8	-5.433026E-7	NaN
662	1.000000	0.674825	7.37153e+06	-43989.1	1005.82	-29777.2	0.000000	0.000000	6.675008	0.046964	NaN	0.000000	0.001563	0.001724	28.0818	0.095802	0.001973	48.5641	102.934	-166.624	-0.083112	0.673499	-0.366476	-0.367802	0.046964	48.5641	-0.367202	-45269.7	-1.037421E-6	NaN
662	1.000000	0.682843	7.37153e+06	-43989.1	1005.82	-29777.2	0.000000	0.000000	6.683022	-0.062809	NaN	0.000000	0.001609	0.001704	28.082	0.058931	0.002019	29.1893	-90.5402	-165.358	-0.095108	0.681532	-0.358458	-0.359769	-0.062809	29.1893	-0.356844	-32077.2	1.958043E-6	NaN
662	1.000000	0.690823	7.37153e+06	-43989.1	1005.82	-29777.2	0.000000	0.000000	6.691004	-0.006349	NaN	0.000000	0.001620	0.001680	28.082	0.048398	0.002052	23.5839	145.007	-166.208	0.002564	0.689529	-0.350478	-0.351772	-0.006349	23.5839	-0.350276	-25763.6	2.464349E-7	NaN
662	1.000000	0.698861	7.37153e+06	-43989.1	1005.82	-29777.2	0.000000	0.000000	6.699042	0.002737	NaN	0.000000	0.001596	0.001725	28.0819	0.084831	0.001974	42.9741	-51.97	-165.046	0.003268	0.697512	-0.342441	-0.343789	0.002737	42.9741	-0.342488	-19852.1	-1.378572E-7	NaN
662	1.000000	0.706847	7.37153e+06	-43989.1	1005.82	-29777.2	0.000000	0.000000	6.707028	0.020603	NaN	0.000000	0.001576	0.001717	28.0821	0.164935	0.001885	87.5009	-162.566	-168.082	0.065890	0.705557	-0.334454	-0.335744	0.020603	87.5009	-0.334631	-15247.4	-1.351238E-6	NaN
662	1.000000	0.714827	7.37153e+06	-43989.1	1005.82	-29777.2	0.000000	0.000000	6.715008	0.002219	NaN	0.000000	0.001633	0.001801	28.0819	0.016296	0.002025	8.048579	33.588	-167.308	0.017408	0.713551	-0.326474	-0.327750	0.002219	8.048579	-0.326681	-11662.8	-1.902923E-7	NaN
662	1.000000	0.722823	7.37153e+06	-43989.1	1005.82	-29777.2	0.000000	0.000000	6.723003	-0.001950	NaN	0.000000	0.001614	0.001727	28.0821	0.047388	0.002071	22.8798	-98.3352	-165.904	0.059114	0.721513	-0.318479	-0.319788	-0.001950	22.8798	-0.318415	-8816.45	2.212081E-7	NaN
662	1.000000	0.730868	7.37153e+06	-43989.1	1005.82	-29777.2	0.000000	0.000000	6.731049	0.005914	NaN	0.000000	0.001585	0.001736	28.0818	0.116246	0.001880	61.8323	-93.4393	-169.13	0.010609	0.729489	-0.310433	-0.311812	0.005914	61.8323	-0.310505	-6737.89	-8.777069E-7	NaN
662	1.000000	0.738847	7.37153e+06	-43989.1	1005.82	-29777.2	0.000000	0.000000	6.739028	0.004476	NaN	0.000000	0.001589	0.001749	28.0819	0.062689	0.002105	29.7867	74.0487	-167.976	-0.022243	0.737589	-0.302455	-0.303713	0.004476	29.7867	-0.302567	-5138.33	-8.711316E-7	NaN
662	1.000000	0.746850	7.37153e+06	-43989.1	1005.82	-29777.2	0.000000	0.000000	6.747030	-0.015719	NaN	0.000000	0.001608	0.001718	28.0818	0.110451	0.002075	53.2256	47.4098	-170.896	0.004123	0.745527	-0.294451	-0.295774	-0.015719	53.2256	-0.294230	-3859.97	4.072392E-6	NaN
662	1.000000	0.754869	7.37153e+06	-43989.1	1005.82	-29777.2	0.000000	0.000000	6.755050	0.005305	NaN	0.000000	0.001613	0.001723	28.0817	0.093059	0.001873	49.693	116	-164.914	0.014258	0.753574	-0.286433	-0.287728	0.005305	49.693	-0.286513	-2957.96	-1.793372E-6	NaN
662	1.000000	0.762894	7.37153e+06	-43989.1	1005.82	-29777.2	0.000000	0.000000	6.763074	-0.009041	NaN	0.000000	0.001616	0.001715	28.0823	0.054287	0.002086	26.0188	-5.865376	-169.658	-0.046815	0.761528	-0.278407	-0.279774	-0.009041	26.0188	-0.278147	-2213.07	4.085281E-6	NaN
662	1.000000	0.770870	7.37153e+06	-43989.1	1005.82	-29777.2	0.000000	0.000000	6.771052	0.013651	NaN	0.000000	0.001587	0.001727	28.0816	0.103016	0.001886	54.633	141.865	-168.8	-0.012802	0.769539	-0.270431	-0.271762	0.013651	54.633	-0.270618	-1701.93	-8.020701E-6	NaN
662	1.000000	0.778852	7.37153e+06	-43989.1	1005.82	-29777.2	0.000000	0.000000	6.779031	-0.051356	NaN	0.000000	0.001602	0.001732	28.0819	0.007376	0.001979	3.726799	-29.9439	-169.313	-0.038552	0.777537	-0.262449	-0.263764	-0.051356	3.726799	-0.252114	-886.398	5.793763E-5	NaN
662	1.000000	0.786847	7.37153e+06	-43989.1	1005.82	-29777.2	0.000000	0.000000	6.787026	-0.051974	NaN	0.000000	0.001597	0.001725	28.0817	0.071013	0.001945	36.5141	154.486	-163.059	-0.116194	0.785554	-0.254454	-0.255748	-0.051974	36.5141	-0.253387	-927.384	5.604397E-5	NaN
662	1.000000	0.794865	7.37153e+06	-43989.1	1005.82	-29777.2	0.000000	0.000000	6.795048	0.068058	NaN	0.000000	0.001570	0.001733	28.0818	0.058296	0.002079	28.0361	151.159	-164.541	0.099292	0.793570	-0.246436	-0.247731	0.068058	28.0361	-0.248257	-772.66	-8.808286E-5	NaN
662	1.000000	0.802878	7.37153e+06	-43989.1	1005.82	-29777.2	0.000000	0.000000	6.803058	-0.002460	NaN	0.000000	0.001600	0.001728	28.0823	0.090624	0.002024	44.7664	-127.29	-163.476	-0.034448	0.801588	-0.238424	-0.239713	-0.002460	44.7664	-0.238382	-542.332	4.536071E-6	NaN
662	1.000000	0.810871	7.37153e+06	-43989.1	1005.82	-29777.2	0.000000	0.000000	6.811052	0.016316	NaN	0.000000	0.001607	0.001749	28.0831	0.023439	0.001940	12.0801	85.0315	-168.201	0.077004	0.809588	-0.230431	-0.231714	0.016316	12.0801	-0.231444	-421.981	-3.866572E-5	NaN
662	1.000000	0.818894	7.37153e+06	-43989.1	1005.82	-29777.2	0.000000	0.000000	6.819076	0.022339	NaN	0.000000	0.001590	0.001746	28.0834	0.097843	0.001959	49.9356	-100.062	-163.07	-0.037462	0.817594	-0.222407	-0.223707	0.022339	49.9356	-0.222742	-307.205	-7.271838E-5	NaN
662	1.000000	0.826891	7.37153e+06	-43989.1	1005.82	-29777.2	0.000000	0.000000	6.827072	-0.011688	NaN	0.000000	0.001589	0.001717	28.083	0.105664	0.002066	51.1497	-67.9467	-165.677	0.088527	0.825530	-0.214410	-0.215771	-0.011688	51.1497	-0.214238	-224.521	5.205700E-5	NaN
662	1.000000	0.834915	7.37153e+06	-43989.1	1005.82	-29777.2	0.000000	0.000000	6.835096	-0.000127	NaN	0.000000	0.001604	0.001714	28.083	0.059347	0.002063	28.7717	-39.0957	-167.034	-0.020751	0.833573	-0.206386	-0.207729	-0.000127	28.7717	-0.206382	-167.527	7.583249E-7	NaN
662	1.000000	0.842899	7.37153e+06	-43989.1	1005.82	-29777.2	0.000000	0.000000	6.843078	-0.032582	NaN	0.000000	0.001583	0.001752	28.0831	0.040724	0.001932	21.0754	-62.4384	-168.426	0.016629	0.841564	-0.198402	-0.199737	-0.032582	21.0754	-0.197243	-118.655	0.000275	NaN
662	1.000000	0.850885	7.37153e+06	-43989.1	1005.82	-29777.2	0.000000	0.000000	6.851067	0.019936	NaN	0.000000	0.001620	0.001756	28.0829	0.052143	0.001975	26.3986	-170.583	-163.918	0.046103	0.849510	-0.190416	-0.191792	0.019936	26.3986	-0.190983	-93.4175	-0.000213	NaN
662	1.000000	0.858939	7.37153e+06	-43989.1	1005.82	-29777.2	0.000000	0.000000	6.859118	-0.058846	NaN	0.000000	0.001602	0.001723	28.0832	0.067458	0.001955	34.5113	27.1659	-170.417	-0.015222	0.857634	-0.182362	-0.183667	-0.058846	34.5113	-0.181083	-63.6612	0.000924	NaN
662	1.000000	0.866927	7.37153e+06	-43989.1	1005.82	-29777.2	0.000000	0.000000	6.867107	-0.025506	NaN	0.000000	0.001534	0.001745	28.083	0.025091	0.002097	11.9655	-71.6209	-170.511	-0.066361	0.865590	-0.174374	-0.175711	-0.025506	11.9655	-0.172775	-45.8846	0.000556	NaN
662	1.000000	0.874924	7.37153e+06	-43989.1	1005.82	-29777.2	0.000000	0.000000	6.875106	0.016959	NaN	0.000000	0.001545	0.001707	28.0829	0.040575	0.002058	19.7153	-137.906	-167.317	0.009532	0.873620	-0.166377	-0.167682	0.016959	19.7153	-0.167022	-36.4528	-0.000465	NaN
662	1.000000	0.882905	7.37153e+06	-43989.1	1005.82	-29777.2	0.000000	0.000000	6.883084	-0.037479	NaN	0.000000	0.001538	0.001748	28.0829	0.031093	0.002044	15.2124	48.3929	-168.179	-0.031515	0.881634	-0.158396	-0.159667	-0.037479	15.2124	-0.156549	-23.7898	0.001575	NaN
662	1.000000	0.890926	7.37153e+06	-43989.1	1005.82	-29777.2	0.000000	0.000000	6.891106	-0.020611	NaN	0.000000	0.001592	0.001749	28.0831	0.103525	0.002062	50.2124	82.0906	-165.698	-0.002083	0.889601	-0.150375	-0.151700	-0.020611	50.2124	-0.150068	-18.1651	0.001135	NaN
662	1.000000	0.898869	7.37153e+06	-43989.1	1005.82	-29777.2	0.000000	0.000000	6.899048	-0.041149	NaN	0.000000	0.001574	0.001752	28.0832	0.133408	0.002033	65.6146	-99.8323	-161.27	-0.021136	0.897612	-0.142432	-0.143689	-0.041149	65.6146	-0.141962	-12.8736	0.003196	NaN
662	1.000000	0.906922	7.37153e+06	-43989.1	1005.82	-29777.2	0.000000	0.000000	6.907106	0.077532	NaN	0.000000	0.001535	0.001737	28.0829	0.086963	0.001935	44.943	-69.0539	-167.336	0.024580	0.905560	-0.134379	-0.135741	0.077532	44.943	-0.135673	-9.797667	-0.007913	NaN
662	1.000000	0.914953	7.37153e+06	-43989.1	1005.82	-29777.2	0.000000	0.000000	6.915133	-0.008019	NaN	0.000000	0.001588	0.001706	28.0832	0.048180	0.001977	24.3697	-69.5149	-166.903	0.078043	0.913593	-0.126348	-0.127708	-0.008019	24.3697	-0.126102	-6.393585	0.001254	NaN
662	1.000000	0.922938	7.37153e+06	-43989.1	1005.82	-29777.2	0.000000	0.000000	6.923120	0.014047	NaN	0.000000	0.001578	0.001708	28.083	0.137402	0.001880	73.0716	132.593	-167.951	0.022931	0.921648	-0.118363	-0.119653	0.014047	73.0716	-0.118507	-4.506715	-0.003117	NaN
662	1.000000	0.930934	7.37153e+06	-43989.1	1005.82	-29777.2	0.000000	0.000000	6.931117	0.038878	NaN	0.000000	0.001569	0.001686	28.0828	0.013603	0.001855	7.331923	-68.1962	-165.574	-0.002438	0.929590	-0.110367	-0.111712	0.038878	7.331923	-0.114344	-3.703065	-0.010499	NaN
662	1.000000	0.938977	7.37153e+06	-43989.1	1005.82	-29777.2	0.000000	0.000000	6.939158	-0.013158	NaN	0.000000	0.001614	0.001717	28.0829	0.031810	0.001897	16.7671	80.4065	-165.39	0.036928	0.937604	-0.102324	-0.103697	-0.013158	16.7671	-0.101735	-1.995549	0.006594	NaN
662	1.000000	0.946962	7.37153e+06	-43989.1	1005.82	-29777.2	0.000000	0.000000	6.947140	-0.064920	NaN	0.000000	0.001598	0.001745	28.0817	0.030875	0.002115	14.5949	145.222	-168.588	-0.008318	0.945623	-0.094339	-0.095678	-0.064920	14.5949	-0.091003	-1.141009	0.056897	NaN
662	1.000000	0.954943	7.37153e+06	-43989.1	1005.82	-29777.2	0.000000	0.000000	6.955125	0.010754	NaN	0.000000	0.001630	0.001712	28.082	0.096137	0.002161	44.4898	-99.2197	-165.206	-0.044113	0.953641	-0.086358	-0.087660	0.010754	44.4898	-0.086539	-0.894845	-0.012018	NaN
662	1.000000	0.962934	7.37153e+06	-43989.1	1005.82	-29777.2	0.000000	0.000000	6.963115	0.008965	NaN	0.000000	0.001602	0.001732	28.0819	0.142963	0.001952	73.2472	168.737	-169.818	0.070760	0.961632	-0.078367	-0.079669	0.008965	73.2472	-0.078459	-0.566168	-0.015835	NaN
662	1.000000	0.970951	7.37153e+06	-43989.1	1005.82	-29777.2	0.000000	0.000000	6.971132	0.004888	NaN	0.000000	0.001606	0.001737	28.0818	0.099731	0.002036	48.9912	49.4242	-166.941	0.129522	0.969591	-0.070350	-0.071710	0.004888	48.9912	-0.070425	-0.350146	-0.013959	NaN
662	1.000000	0.978930	7.37153e+06	-43989.1	1005.82	-29777.2	0.000000	0.000000	6.979111	-0.003961	NaN	0.000000	0.001611	0.001746	28.0815	0.090163	0.001931	46.7013	57.2968	-167.755	0.070253	0.977667	-0.062371	-0.063634	-0.003961	46.7013	-0.062307	-0.209504	0.018908	NaN
662	1.000000	0.986951	7.37153e+06	-43989.1	1005.82	-29777.2	0.000000	0.000000	6.987132	0.009036	NaN	0.000000	0.001583	0.001718	28.0816	0.059841	0.002015	29.6946	124.841	-166.755	0.060053	0.985606	-0.054350	-0.055695	0.009036	29.6946	-0.054578	-0.125130	-0.072215	NaN
662	1.000000	0.994942	7.37153e+06	-43989.1	1005.82	-29777.2	0.000000	0.000000	6.995121	-0.034531	NaN	0.000000	0.001610	0.001721	28.0815	0.045308	0.002135	21.2238	88.9632	-168.678	-0.061463	0.993685	-0.046359	-0.047616	-0.034531	21.2238	-0.045139	-0.064900	0.532060	NaN
662	1.000000	1.002973	7.37153e+06	-43989.1	1005.82	-29777.2	0.000000	0.000000	7.003151	-0.074570	NaN	0.000000	0.001584	0.001741	28.0816	0.009848	0.001979	4.975747	46.4308	-168.677	-0.062884	1.001642	-0.038328	-0.039659	-0.074570	4.975747	-0.027088	-0.019159	3.892189	NaN
662	1.000000	1.010952	7.37153e+06	-43989.1	1005.82	-29777.2	0.000000	0.000000	7.011131	-0.028226	NaN	0.000000	0.001583	0.001747	28.082	0.016140	0.001965	8.215356	33.9422	-167.393	0.004185	1.009648	-0.030350	-0.031653	-0.028226	8.215356	-0.027773	-0.019990	1.412016	NaN
662	1.000000	1.018962	7.37153e+06	-43989.1	1005.82	-29777.2	0.000000	0.000000	7.019142	-0.017733	NaN	0.000000	0.001605	0.001721	28.0814	0.084341	0.002037	41.4016	107.237	-168.87	0.017966	1.017702	-0.022339	-0.023599	-0.017733	41.4016	-0.022018	-0.014136	1.254429	NaN
662	1.000000	1.026974	7.37153e+06	-43989.1	1005.82	-29777.2	0.000000	0.000000	7.027155	0.004634	NaN	0.000000	0.001572	0.001729	28.0815	0.075532	0.002067	36.5426	-39.0657	-166.843	-0.040497	1.025666	-0.014327	-0.015636	0.004634	36.5426	-0.014422	-0.008932	-0.518810	NaN
662	1.000000	1.034981	7.37153e+06	-43989.1	1005.82	-29777.2	0.000000	0.000000	7.035161	-0.011080	NaN	0.000000	0.001575	0.001734	28.0815	0.073104	0.001877	38.9468	7.798812	-165.699	-0.065443	1.033661	-0.006320	-0.007641	-0.011080	38.9468	-0.006107	-0.004102	2.701368	NaN
662	1.000000	1.042931	7.37153e+06	-43989.1	1005.82	-29777.2	0.000000	0.000000	7.043286	4.228033	NaN	0.000000	0.001585	0.001756	28.0814	5.302372	0.001822	2910.41	13.5075	-173.248	2.848529	1.041635	0.001630	0.000334	4.228033	2910.41	0.000540	0.000408	10364	131650
662	2.000000	1.047560	7.37153e+06	-43989.1	1005.82	-29777.2	0.000000	0.000000	7.048164	10.3007	NaN	0.000000	0.001587	0.001756	28.0819	9.854458	0.001760	5598.29	8.217669	-174.543	9.504170	1.047298	0.006259	0.005996	10.3007	5598.29	0.004879	0.004023	2560.31	80638.2
662	2.000000	1.049573	7.37153e+06	-43989.1	1005.82	-29777.2	0.000000	0.000000	7.050295	13.1777	NaN	0.000000	0.001584	0.001762	28.0815	12.2717	0.001694	7242.38	9.522055	-177.443	13.467	1.049262	0.008272	0.007961	13.1777	7242.38	0.006907	0.005942	2217.72	85839.7
662	2.000000	1.051531	7.37153e+06	-43989.1	1005.82	-29777.2	0.000000	0.000000	7.052434	17.5664	NaN	0.000000	0.001565	0.001744	28.0817	14.2415	0.001773	8031.78	7.546470	-174.781	17.2068	1.051194	0.010230	0.009892	17.5664	8031.78	0.008590	0.007656	2294.52	83866.5
662	2.000000	1.053564	7.37153e+06	-43989.1	1005.82	-29777.2	0.000000	0.000000	7.054627	21.4599	NaN	0.000000	0.001517	0.001780	28.0814	16.2682	0.001673	9724.08	6.404187	-175.8	22.3751	1.053137	0.012263	0.011836	21.4599	9724.08	0.010608	0.009865	2175.34	89448.1
662	2.000000	1.055549	7.37153e+06	-43989.1	1005.82	-29777.2	0.000000	0.000000	7.056743	24.6595	NaN	0.000000	0.001595	0.001751	28.0828	19.1008	0.001738	10992.7	5.865543	-178.435	24.5794	1.055247	0.014248	0.013946	24.6595	10992.7	0.012565	0.012174	2025.6	91025.1
662	2.000000	1.057456	7.37153e+06	-43989.1	1005.82	-29777.2	0.000000	0.000000	7.058887	30.4147	NaN	0.000000	0.001609	0.001723	28.083	20.4876	0.001829	11200.1	5.845160	-177.813	28.9369	1.057143	0.016155	0.015842	30.4147	11200.1	0.014118	0.014127	2152.88	86092
662	2.000000	1.059483	7.37153e+06	-43989.1	1005.82	-29777.2	0.000000	0.000000	7.061077	34.3712	NaN	0.000000	0.001573	0.001761	28.0827	23.1202	0.001862	12414.2	4.721553	-177.668	33.2729	1.059196	0.018182	0.017895	34.3712	12414.2	0.016106	0.016788	2047.33	87536.6
662	2.000000	1.061528	7.37153e+06	-43989.1	1005.82	-29777.2	0.000000	0.000000	7.063329	39.401	NaN	0.000000	0.001558	0.001758	28.0833	24.6491	0.001787	13793.9	2.760808	-176.947	39.1204	1.061209	0.020227	0.019908	39.401	13793.9	0.018085	0.019622	2008.05	89969.3
662	2.000000	1.063499	7.37153e+06	-43989.1	1005.82	-29777.2	0.000000	0.000000	7.065499	44.2546	NaN	0.000000	0.001566	0.001722	28.0829	26.5246	0.001722	15401.1	6.158043	179.25	44.7113	1.063110	0.022198	0.021808	44.2546	15401.1	0.020043	0.022610	1957.29	93578
662	2.000000	1.065490	7.37153e+06	-43989.1	1005.82	-29777.2	0.000000	0.000000	7.067660	48.4027	NaN	0.000000	0.001556	0.001783	28.0828	29.1497	0.001799	16205	6.593860	178.286	49.9397	1.065187	0.024188	0.023886	48.4027	16205	0.021948	0.025697	1883.62	92360
662	2.000000	1.067435	7.37153e+06	-43989.1	1005.82	-29777.2	0.000000	0.000000	7.069896	55.4638	NaN	0.000000	0.001581	0.001754	28.0828	30.4019	0.001887	16111	7.018705	177.613	53.5692	1.067207	0.026134	0.025906	55.4638	16111	0.023552	0.028434	1950.62	87292.4
662	2.000000	1.069461	7.37153e+06	-43989.1	1005.82	-29777.2	0.000000	0.000000	7.072277	64.1205	NaN	0.000000	0.001538	0.001739	28.0828	32.3999	0.001774	18259.9	5.502238	177.971	64.1095	1.069112	0.028160	0.027810	64.1205	18259.9	0.025526	0.031980	2005.04	93290
662	2.000000	1.071453	7.37153e+06	-43989.1	1005.82	-29777.2	0.000000	0.000000	7.074525	70.3186	NaN	0.000000	0.001561	0.001741	28.0831	34.2151	0.001761	19425.6	4.638770	179.136	68.9802	1.071103	0.030152	0.029801	70.3186	19425.6	0.027437	0.035599	1975.28	94064.4
662	2.000000	1.073421	7.37153e+06	-43989.1	1005.82	-29777.2	0.000000	0.000000	7.076805	77.9319	NaN	0.000000	0.001551	0.001776	28.0831	36.1013	0.001974	18291.7	3.723459	-179.582	75.6048	1.073160	0.032120	0.031859	77.9319	18291.7	0.028925	0.038545	2021.86	85122.7
662	2.000000	1.075512	7.37153e+06	-43989.1	1005.82	-29777.2	0.000000	0.000000	7.079143	83.9386	NaN	0.000000	0.001537	0.001772	28.0832	38.4832	0.001778	21643.9	8.042467	173.799	87.4414	1.075204	0.034211	0.033903	83.9386	21643.9	0.031303	0.043487	1930.21	94826.4
662	2.000000	1.077453	7.37153e+06	-43989.1	1005.82	-29777.2	0.000000	0.000000	7.081598	96.4429	NaN	0.000000	0.001544	0.001757	28.0831	39.0802	0.001712	22826.4	5.353303	177.527	95.7617	1.077088	0.036152	0.035787	96.4429	22826.4	0.032983	0.047154	2045.3	96040.3
662	2.000000	1.079404	7.37153e+06	-43989.1	1005.82	-29777.2	0.000000	0.000000	7.083865	104.131	NaN	0.000000	0.001534	0.001760	28.083	42.0252	0.001747	24052	6.655474	174.081	101.818	1.079087	0.038103	0.037785	104.131	24052	0.034856	0.051411	2025.48	96916.5
662	2.000000	1.081465	7.37153e+06	-43989.1	1005.82	-29777.2	0.000000	0.000000	7.086308	113.425	NaN	0.000000	0.001574	0.001764	28.0832	43.6999	0.001814	24095.6	2.991607	178.657	112.078	1.081182	0.040164	0.039881	113.425	24095.6	0.036633	0.055617	2039.38	93348
662	2.000000	1.083435	7.37153e+06	-43989.1	1005.82	-29777.2	0.000000	0.000000	7.088481	118.36	NaN	0.000000	0.001577	0.001757	28.083	46.7888	0.001841	25416	8.188390	171.904	119.209	1.083116	0.042133	0.041815	118.36	25416	0.038641	0.060563	1954.34	94357.8
662	2.000000	1.085389	7.37153e+06	-43989.1	1005.82	-29777.2	0.000000	0.000000	7.090993	131.936	NaN	0.000000	0.001604	0.001737	28.0831	46.9843	0.001609	29205.6	3.309159	176.214	129.251	1.085023	0.044088	0.043722	131.936	29205.6	0.040700	0.065850	2003.57	103983
662	2.000000	1.087455	7.37153e+06	-43989.1	1005.82	-29777.2	0.000000	0.000000	7.093559	144.094	NaN	0.000000	0.001545	0.001769	28.0829	48.5668	0.001759	27609.7	3.723679	175.998	142.854	1.087104	0.046154	0.045803	144.094	27609.7	0.042240	0.069945	2060.09	95379.7
662	2.000000	1.089381	7.37153e+06	-43989.1	1005.82	-29777.2	0.000000	0.000000	7.095892	153.999	NaN	0.000000	0.001549	0.001750	28.0818	51.8339	0.001769	29302.7	2.774923	177.037	151.496	1.089002	0.048080	0.047701	153.999	29302.7	0.044138	0.075160	2048.95	97653.8
662	2.000000	1.091472	7.37153e+06	-43989.1	1005.82	-29777.2	0.000000	0.000000	7.098457	165.546	NaN	0.000000	0.001565	0.001747	28.0826	54.9506	0.001781	30860.7	8.636278	171.741	166.099	1.091134	0.050171	0.049833	165.546	30860.7	0.046147	0.080878	2046.86	99143.5
662	2.000000	1.093447	7.37153e+06	-43989.1	1005.82	-29777.2	0.000000	0.000000	7.100907	177.081	NaN	0.000000	0.001529	0.001732	28.0817	55.4233	0.001768	31350.2	5.638456	174.461	178.868	1.092998	0.052146	0.051697	177.081	31350.2	0.047910	0.086062	2057.61	97635.6
662	2.000000	1.095447	7.37153e+06	-43989.1	1005.82	-29777.2	0.000000	0.000000	7.103280	186.158	NaN	0.000000	0.001595	0.001755	28.0818	58.2227	0.001763	33018.3	1.787448	177.342	185.945	1.095118	0.054146	0.053817	186.158	33018.3	0.049917	0.092158	2019.99	99371.7
662	2.000000	1.097400	7.37153e+06	-43989.1	1005.82	-29777.2	0.000000	0.000000	7.105798	199.91	NaN	0.000000	0.001531	0.001734	28.0818	59.7076	0.001736	34400.6	6.450277	172.225	199.733	1.097043	0.056099	0.055741	199.91	34400.6	0.051740	0.097869	2042.63	100466
662	2.000000	1.099372	7.37153e+06	-43989.1	1005.82	-29777.2	0.000000	0.000000	7.108289	212.528	NaN	0.000000	0.001537	0.001740	28.0819	62.6957	0.001758	35671.5	4.675283	173.078	208.04	1.099065	0.058071	0.057764	212.528	35671.5	0.053603	0.103874	2046.02	101121
662	2.000000	1.101420	7.37153e+06	-43989.1	1005.82	-29777.2	0.000000	0.000000	7.110802	223.859	NaN	0.000000	0.001518	0.001760	28.0819	64.8943	0.001746	37169.9	2.264313	176.025	220.121	1.101079	0.060119	0.059778	223.859	37169.9	0.055602	0.110510	2025.69	102156
662	2.000000	1.103400	7.37153e+06	-43989.1	1005.82	-29777.2	0.000000	0.000000	7.113313	236.777	NaN	0.000000	0.001563	0.001743	28.0816	66.4214	0.001803	36847.9	3.787604	174.085	235.072	1.103095	0.062099	0.061793	236.777	36847.9	0.057279	0.116234	2037.08	98746.2
662	2.000000	1.105381	7.37153e+06	-43989.1	1005.82	-29777.2	0.000000	0.000000	7.115401	239.387	NaN	0.000000	0.001539	0.001754	28.0816	68.4141	0.001841	37166.5	-1.164106	178.209	236.736	1.105303	0.064080	0.064002	239.387	37166.5	0.059249	0.123129	1944.2	96770.9
662	2.000000	1.107376	7.37153e+06	-43989.1	1005.82	-29777.2	0.000000	0.000000	7.118433	264.613	NaN	0.000000	0.001570	0.001742	28.082	70.0007	0.001764	39682.8	4.432134	173.84	262.869	1.107003	0.066074	0.065702	264.613	39682.8	0.061073	0.129685	2040.43	100677
662	2.000000	1.109416	7.37153e+06	-43989.1	1005.82	-29777.2	0.000000	0.000000	7.120814	272.911	NaN	0.000000	0.001578	0.001758	28.0819	71.7118	0.001822	39357.7	4.324079	174.425	272.724	1.109053	0.068115	0.067752	272.911	39357.7	0.062914	0.136465	1999.86	97340.4
662	2.000000	1.111492	7.37153e+06	-43989.1	1005.82	-29777.2	0.000000	0.000000	7.123440	286.285	NaN	0.000000	0.001544	0.001767	28.0821	73.4028	0.001843	39830.7	2.865621	175.344	286.584	1.111110	0.070191	0.069809	286.285	39830.7	0.064800	0.143580	1993.9	96038.1
662	2.000000	1.113388	7.37153e+06	-43989.1	1005.82	-29777.2	0.000000	0.000000	7.125965	301.571	NaN	0.000000	0.001569	0.001769	28.0821	74.7996	0.001735	43104.7	7.724227	169.501	301.103	1.113021	0.072087	0.071720	301.571	43104.7	0.066840	0.151472	1990.94	101189
662	2.000000	1.115331	7.37153e+06	-43989.1	1005.82	-29777.2	0.000000	0.000000	7.128338	312.033	NaN	0.000000	0.001546	0.001743	28.0817	77.9856	0.001693	46067.4	2.494587	173.217	308.422	1.115135	0.074030	0.073834	312.033	46067.4	0.068950	0.159843	1952.12	105274
662	2.000000	1.117324	7.37153e+06	-43989.1	1005.82	-29777.2	0.000000	0.000000	7.130971	327.624	NaN	0.000000	0.001538	0.001773	28.0818	78.8768	0.001684	46846.5	5.123556	170.492	323.454	1.117018	0.076023	0.075717	327.624	46846.5	0.070777	0.167265	1958.71	104652
662	2.000000	1.119366	7.37153e+06	-43989.1	1005.82	-29777.2	0.000000	0.000000	7.133326	335.221	NaN	0.000000	0.001571	0.001776	28.082	81.6718	0.001736	47055.7	2.673553	173.13	334.73	1.118998	0.078065	0.077696	335.221	47055.7	0.072722	0.175336	1911.88	102671
662	2.000000	1.121388	7.37153e+06	-43989.1	1005.82	-29777.2	0.000000	0.000000	7.136210	356.203	NaN	0.000000	0.001588	0.001734	28.0816	83.5074	0.001797	46461.7	5.049690	171.678	353.936	1.121068	0.080086	0.079767	356.203	46461.7	0.074336	0.182174	1955.29	99454.8
662	2.000000	1.123426	7.37153e+06	-43989.1	1005.82	-29777.2	0.000000	0.000000	7.138656	366.13	NaN	0.000000	0.001541	0.001718	28.0828	86.6641	0.001846	46957.7	7.082327	168.828	368.619	1.123047	0.082125	0.081746	366.13	46957.7	0.076277	0.190557	1921.37	98280.7
662	2.000000	1.125366	7.37153e+06	-43989.1	1005.82	-29777.2	0.000000	0.000000	7.141455	387.036	NaN	0.000000	0.001580	0.001739	28.0829	86.865	0.001728	50255.3	3.103591	172.816	385.337	1.124995	0.084064	0.083694	387.036	50255.3	0.078288	0.199429	1940.72	102816
662	2.000000	1.127418	7.37153e+06	-43989.1	1005.82	-29777.2	0.000000	0.000000	7.144044	400.085	NaN	0.000000	0.001574	0.001722	28.0828	88.2495	0.001645	53640.8	5.896868	169.426	401.816	1.127064	0.086117	0.085763	400.085	53640.8	0.080523	0.209510	1909.63	107070
662	2.000000	1.129376	7.37153e+06	-43989.1	1005.82	-29777.2	0.000000	0.000000	7.146857	420.903	NaN	0.000000	0.001574	0.001699	28.0828	90.9076	0.001820	49961	4.130060	171.842	419.762	1.129035	0.088074	0.087734	420.903	49961	0.081756	0.215170	1956.14	98404.2
662	2.000000	1.131356	7.37153e+06	-43989.1	1005.82	-29777.2	0.000000	0.000000	7.149088	426.993	NaN	0.000000	0.001589	0.001719	28.0829	92.4271	0.001818	50829.3	0.913421	175.035	422.265	1.131099	0.090055	0.089798	426.993	50829.3	0.083754	0.224495	1902.01	98013
662	2.000000	1.133360	7.37153e+06	-43989.1	1005.82	-29777.3	0.000000	0.000000	7.152002	449.131	NaN	0.000000	0.001596	0.001714	28.0831	92.8323	0.001762	52670.9	3.528977	172.001	446.77	1.132982	0.092059	0.091681	449.131	52670.9	0.085663	0.233577	1922.84	99570.1
662	2.000000	1.135342	7.37153e+06	-43989.1	1005.82	-29777.3	0.000000	0.000000	7.154610	464.369	NaN	0.000000	0.001560	0.001746	28.0833	95.6012	0.001787	53501.3	4.812300	170.588	461.506	1.135043	0.094041	0.093742	464.369	53501.3	0.087531	0.242623	1913.95	99236.4
662	2.000000	1.137258	7.37153e+06	-43989.1	1005.82	-29777.2	0.000000	0.000000	7.157091	478.103	NaN	0.000000	0.001571	0.001753	28.083	95.1791	0.001787	53267.2	5.309395	170.285	469.731	1.136868	0.095957	0.095567	478.103	53267.2	0.089225	0.250969	1905.03	97145.6
662	2.000000	1.139327	7.37153e+06	-43989.1	1005.82	-29777.2	0.000000	0.000000	7.159565	487.977	NaN	0.000000	0.001594	0.001719	28.0828	98.9268	0.001736	56985.8	2.636854	172.239	486.525	1.139171	0.098026	0.097869	487.977	56985.8	0.091603	0.262906	1856.09	101541
662	2.000000	1.141402	7.37153e+06	-43989.1	1005.82	-29777.3	0.000000	0.000000	7.162557	510.265	NaN	0.000000	0.001586	0.001715	28.0829	101.832	0.001794	56777.5	7.468193	168.074	508.88	1.141030	0.100101	0.099729	510.265	56777.5	0.093361	0.271892	1876.72	99483.5
662	2.000000	1.143370	7.37153e+06	-43989.1	1005.82	-29777.3	0.000000	0.000000	7.165310	529.373	NaN	0.000000	0.001571	0.001737	28.083	104.349	0.001847	56489.1	6.508226	169.296	529.331	1.142923	0.102068	0.101622	529.373	56489.1	0.095040	0.280613	1886.49	97428
662	2.000000	1.144869	7.37153e+06	-43989.1	1005.82	-29777.3	0.000000	0.000000	7.167123	537.022	NaN	0.000000	0.001600	0.001720	28.083	105.596	0.001865	56626.3	4.496064	-9.193352	535.262	1.144562	0.103568	0.103261	537.022	56626.3	0.096455	0.288061	1864.26	96393.8