File: remote_trans/data/nanoindenter/0828-1/data/Data_2025-08-06,11h17m57s/2025-07-22_16-23-58_1_186.txt
2025-07-22, 16:23:58, 1
Index	Phase	Displacement	Time	Pos X	Pos Y	Pos Z	Rot A	Rot B	Piezo Z	Force A	Force B	Gripper	Voltage A	Voltage B	Temperature	Amplitude force	Amplitude pos	Stiffness	Phase shift	Phase excitation	Force A raw	Displacement raw	HMax	HMax raw	Real Force	Real Stiffness	Contact Depth	Area	Hardness	Reduced Mod.
[#]	[#]	[um]	[s]	[um]	[um]	[um]	[m°]	[m°]	[um]	[uN]	[uN]	[V]	[V]	[V]	[°C]	[uN]	[um]	[N/m]	[°]	[°]	[uN]	[um]	[um]	[um]	[uN]	[N/m]	[um]	[um^2]	[MPa]	[MPa]
186	1.000000	0.002412	7.36686e+06	-47939.1	955.818	-29764.7	0.000000	0.000000	6.002805	-0.010144	NaN	0.000000	0.001634	0.001689	28.0786	0.072864	0.000950	76.6779	52.0108	-168.479	0.069493	0.001170	-1.042514	-1.043756	-0.010144	76.6779	-1.042415	-8.441828E+13	1.201673E-16	NaN
186	1.000000	0.010370	7.36686e+06	-47939.1	955.819	-29764.7	0.000000	0.000000	6.010764	0.033816	NaN	0.000000	0.001614	0.001642	28.0789	0.056674	0.000962	58.8871	44.0505	-159.931	0.022511	0.009048	-1.034556	-1.035879	0.033816	58.8871	-1.034987	-6.707436E+13	-5.041566E-16	NaN
186	1.000000	0.018373	7.36686e+06	-47939.1	955.819	-29764.7	0.000000	0.000000	6.018766	-0.004730	NaN	0.000000	0.001636	0.001647	28.079	0.064258	0.001715	37.4671	151.342	-166.349	0.000969	0.017099	-1.026553	-1.027827	-0.004730	37.4671	-1.026458	-5.150404E+13	9.183717E-17	NaN
186	1.000000	0.026419	7.36686e+06	-47939.1	955.819	-29764.7	0.000000	0.000000	6.026813	0.014075	NaN	0.000000	0.001625	0.001659	28.0792	0.032230	0.001904	16.9281	53.6485	-166.752	0.014576	0.025023	-1.018507	-1.019903	0.014075	16.9281	-1.019131	-4.104446E+13	-3.429198E-16	NaN
186	1.000000	0.034387	7.36686e+06	-47939.1	955.818	-29764.7	0.000000	0.000000	6.034782	0.070956	NaN	0.000000	0.001622	0.001693	28.0791	0.109988	0.001890	58.1804	-14.454	-168.453	0.121874	0.033076	-1.010540	-1.011850	0.070956	58.1804	-1.011454	-3.235623E+13	-2.192963E-15	NaN
186	1.000000	0.042353	7.36686e+06	-47939.1	955.819	-29764.7	0.000000	0.000000	6.042745	-0.034937	NaN	0.000000	0.001612	0.001678	28.0796	0.095674	0.001810	52.8519	36.0777	-164.178	-0.032871	0.041066	-1.002573	-1.003861	-0.034937	52.8519	-1.002077	-2.419547E+13	1.443959E-15	NaN
186	1.000000	0.050383	7.36686e+06	-47939.1	955.819	-29764.7	0.000000	0.000000	6.050777	0.036509	NaN	0.000000	0.001595	0.001689	28.0793	0.027771	0.001944	14.2836	-65.3825	-163.278	0.013115	0.049086	-0.994543	-0.995840	0.036509	14.2836	-0.996460	-2.032855E+13	-1.795930E-15	NaN
186	1.000000	0.058348	7.36686e+06	-47939.1	955.818	-29764.7	0.000000	0.000000	6.058739	-0.048084	NaN	0.000000	0.001574	0.001673	28.0791	0.106757	0.001912	55.8314	-72.8773	-165.749	0.076870	0.057070	-0.986578	-0.987856	-0.048084	55.8314	-0.985932	-1.466637E+13	3.278511E-15	NaN
186	1.000000	0.066407	7.36686e+06	-47939.1	955.819	-29764.7	0.000000	0.000000	6.066803	0.078060	NaN	0.000000	0.001598	0.001722	28.0792	0.116386	0.002060	56.5054	-117.003	-164.746	0.132749	0.065032	-0.978519	-0.979894	0.078060	56.5054	-0.979555	-1.203412E+13	-6.486591E-15	NaN
186	1.000000	0.074375	7.36686e+06	-47939.1	955.819	-29764.7	0.000000	0.000000	6.074768	-0.009319	NaN	0.000000	0.001616	0.001711	28.0789	0.061379	0.002059	29.8126	109.893	-168.543	0.045753	0.073042	-0.970551	-0.971884	-0.009319	29.8126	-0.970317	-9.035057E+12	1.031374E-15	NaN
186	1.000000	0.082353	7.36686e+06	-47939.1	955.818	-29764.7	0.000000	0.000000	6.082746	0.006367	NaN	0.000000	0.001627	0.001674	28.0792	0.144146	0.001994	72.2733	116.715	-164.369	-0.013898	0.081059	-0.962573	-0.963868	0.006367	72.2733	-0.962639	-7.119526E+12	-8.942966E-16	NaN
186	1.000000	0.090379	7.36686e+06	-47939.1	955.819	-29764.7	0.000000	0.000000	6.090771	-0.023565	NaN	0.000000	0.001617	0.001704	28.079	0.005814	0.002044	2.844912	-66.7126	-162.324	-0.052791	0.089059	-0.954547	-0.955868	-0.023565	2.844912	-0.948335	-4.566371E+12	5.160446E-15	NaN
186	1.000000	0.098374	7.36686e+06	-47939.1	955.819	-29764.7	0.000000	0.000000	6.098765	-0.027451	NaN	0.000000	0.001635	0.001675	28.0791	0.061067	0.002028	30.1107	-35.7898	-166.268	-0.053732	0.097116	-0.946553	-0.947811	-0.027451	30.1107	-0.945869	-4.229683E+12	6.490042E-15	NaN
186	1.000000	0.106373	7.36686e+06	-47939.1	955.819	-29764.7	0.000000	0.000000	6.106764	-0.042251	NaN	0.000000	0.001634	0.001633	28.0795	0.190409	0.001943	98.0157	-113.323	-167.023	-0.005212	0.105056	-0.938554	-0.939870	-0.042251	98.0157	-0.938231	-3.336286E+12	1.266406E-14	NaN
186	1.000000	0.114369	7.36686e+06	-47939.1	955.818	-29764.7	0.000000	0.000000	6.114760	-0.034238	NaN	0.000000	0.001593	0.001623	28.079	0.040265	0.002041	19.7239	55.8341	-165.086	-0.036341	0.113041	-0.930557	-0.931886	-0.034238	19.7239	-0.929256	-2.524347E+12	1.356323E-14	NaN
186	1.000000	0.122373	7.36686e+06	-47939.1	955.818	-29764.7	0.000000	0.000000	6.122766	0.015007	NaN	0.000000	0.001640	0.001651	28.079	0.029479	0.001950	15.1183	-114.74	-161.847	-0.035123	0.121071	-0.922554	-0.923855	0.015007	15.1183	-0.923298	-2.097647E+12	-7.154389E-15	NaN
186	1.000000	0.130393	7.36686e+06	-47939.1	955.819	-29764.7	0.000000	0.000000	6.130781	-0.097851	NaN	0.000000	0.001596	0.001642	28.0788	0.164849	0.001976	83.431	-85.0798	-167.984	-0.105802	0.129079	-0.914534	-0.915848	-0.097851	83.431	-0.913654	-1.554224E+12	6.295841E-14	NaN
186	1.000000	0.138375	7.36686e+06	-47939.1	955.819	-29764.7	0.000000	0.000000	6.138765	-0.082194	NaN	0.000000	0.001608	0.001671	28.0786	0.034642	0.001877	18.4581	-135.662	-165.759	0.003540	0.137081	-0.906551	-0.907845	-0.082194	18.4581	-0.903211	-1.123189E+12	7.317899E-14	NaN
186	1.000000	0.146360	7.36686e+06	-47939.1	955.818	-29764.7	0.000000	0.000000	6.146754	0.014537	NaN	0.000000	0.001646	0.001665	28.078	0.089053	0.001912	46.5771	-173.423	-166.39	-0.005662	0.145051	-0.898566	-0.899875	0.014537	46.5771	-0.898800	-9.791605E+11	-1.484647E-14	NaN
186	1.000000	0.154408	7.36686e+06	-47939.1	955.819	-29764.7	0.000000	0.000000	6.154800	-0.006271	NaN	0.000000	0.001646	0.001633	28.0775	0.186643	0.001976	94.473	7.513495	-167.13	-0.071244	0.153110	-0.890518	-0.891817	-0.006271	94.473	-0.890469	-7.555271E+11	8.299950E-15	NaN
186	1.000000	0.162382	7.36686e+06	-47939.1	955.819	-29764.7	0.000000	0.000000	6.162775	0.001553	NaN	0.000000	0.001656	0.001642	28.0774	0.034335	0.002014	17.044	33.0195	-163.483	-0.026508	0.161058	-0.882544	-0.883868	0.001553	17.044	-0.882612	-5.916065E+11	-2.625534E-15	NaN
186	1.000000	0.170413	7.36686e+06	-47939.1	955.818	-29764.7	0.000000	0.000000	6.170807	0.023017	NaN	0.000000	0.001607	0.001629	28.0775	0.081232	0.002013	40.3475	-74.4535	-161.657	-0.016381	0.169061	-0.874513	-0.875865	0.023017	40.3475	-0.874941	-4.658931E+11	-4.940477E-14	NaN
186	1.000000	0.178421	7.36686e+06	-47939.1	955.818	-29764.7	0.000000	0.000000	6.178809	-0.113900	NaN	0.000000	0.001608	0.001616	28.0776	0.082259	0.002029	40.5378	-0.344265	-162.668	0.027492	0.177054	-0.866505	-0.867873	-0.113900	40.5378	-0.864398	-3.354617E+11	3.395329E-13	NaN
186	1.000000	0.186396	7.36686e+06	-47939.1	955.819	-29764.7	0.000000	0.000000	6.186789	0.006313	NaN	0.000000	0.001600	0.001627	28.0774	0.092328	0.001913	48.2678	36.4661	-164.515	-0.053707	0.185128	-0.858531	-0.859798	0.006313	48.2678	-0.858629	-2.802594E+11	-2.252406E-14	NaN
186	1.000000	0.194426	7.36686e+06	-47939.1	955.818	-29764.7	0.000000	0.000000	6.194818	-0.016807	NaN	0.000000	0.001585	0.001628	28.0771	0.080168	0.001963	40.8375	137.949	-162.563	-0.097871	0.193116	-0.850500	-0.851810	-0.016807	40.8375	-0.850191	-2.154418E+11	7.800961E-14	NaN
186	1.000000	0.202440	7.36686e+06	-47939.1	955.819	-29764.7	0.000000	0.000000	6.202831	-0.038266	NaN	0.000000	0.001579	0.001620	28.0771	0.104051	0.001983	52.4591	-172.025	-160.962	-0.040691	0.201113	-0.842486	-0.843814	-0.038266	52.4591	-0.841939	-1.665562E+11	2.297511E-13	NaN
186	1.000000	0.210416	7.36686e+06	-47939.1	955.818	-29764.7	0.000000	0.000000	6.210807	-0.057797	NaN	0.000000	0.001574	0.001652	28.077	0.089293	0.001988	44.9224	-115.41	-169.301	-0.124096	0.209149	-0.834510	-0.835777	-0.057797	44.9224	-0.833545	-1.281826E+11	4.508940E-13	NaN
186	1.000000	0.218431	7.36686e+06	-47939.1	955.818	-29764.7	0.000000	0.000000	6.218824	0.000471	NaN	0.000000	0.001578	0.001644	28.0771	0.131724	0.001903	69.2336	-52.5943	-163.246	0.034823	0.217121	-0.826495	-0.827806	0.000471	69.2336	-0.826501	-1.028842E+11	-4.578974E-15	NaN
186	1.000000	0.226434	7.36686e+06	-47939.1	955.818	-29764.7	0.000000	0.000000	6.226824	-0.052851	NaN	0.000000	0.001624	0.001624	28.0772	0.086925	0.002128	40.8451	52.5686	-162.969	-0.073092	0.225118	-0.818493	-0.819809	-0.052851	40.8451	-0.817522	-7.773396E+10	6.798897E-13	NaN
186	1.000000	0.234412	7.36686e+06	-47939.1	955.819	-29764.7	0.000000	0.000000	6.234805	0.001155	NaN	0.000000	0.001620	0.001664	28.0776	0.172506	0.001930	89.3866	-106.287	-165.323	0.050065	0.233114	-0.810514	-0.811812	0.001155	89.3866	-0.810524	-6.247108E+10	-1.849082E-14	NaN
186	1.000000	0.242439	7.36686e+06	-47939.1	955.82	-29764.7	0.000000	0.000000	6.242829	-0.065440	NaN	0.000000	0.001621	0.001661	28.0777	0.037745	0.002073	18.2042	16.5604	-163.61	-0.121904	0.241143	-0.802487	-0.803783	-0.065440	18.2042	-0.799791	-4.467140E+10	1.464929E-12	NaN
186	1.000000	0.250455	7.36686e+06	-47939.1	955.819	-29764.7	0.000000	0.000000	6.250846	-0.035490	NaN	0.000000	0.001614	0.001658	28.0778	0.018698	0.002059	9.082320	-113.41	-166.156	-0.096940	0.249166	-0.794472	-0.795761	-0.035490	9.082320	-0.791541	-3.451523E+10	1.028242E-12	NaN
186	1.000000	0.258442	7.36686e+06	-47939.1	955.818	-29764.7	0.000000	0.000000	6.258836	0.023514	NaN	0.000000	0.001636	0.001663	28.0775	0.075558	0.002043	36.9774	-51.6809	-164.995	0.123089	0.257100	-0.786484	-0.787827	0.023514	36.9774	-0.786961	-2.990905E+10	-7.861810E-13	NaN
186	1.000000	0.266440	7.36686e+06	-47939.1	955.817	-29764.7	0.000000	0.000000	6.266834	0.034519	NaN	0.000000	0.001638	0.001665	28.0776	0.057211	0.001961	29.175	59.2683	-165.722	-0.027320	0.265167	-0.778486	-0.779759	0.034519	29.175	-0.779374	-2.358963E+10	-1.463329E-12	NaN
186	1.000000	0.274459	7.36686e+06	-47939.1	955.819	-29764.7	0.000000	0.000000	6.274849	-0.071779	NaN	0.000000	0.001639	0.001662	28.0774	0.071546	0.001949	36.7165	8.591773	-163.837	-0.073284	0.273162	-0.770467	-0.771765	-0.071779	36.7165	-0.769001	-1.704995E+10	4.209900E-12	NaN
186	1.000000	0.282479	7.36686e+06	-47939.1	955.818	-29764.7	0.000000	0.000000	6.282871	-0.034985	NaN	0.000000	0.001603	0.001640	28.0789	0.027639	0.001897	14.5672	-51.1676	-163.448	-0.051091	0.281123	-0.762447	-0.763804	-0.034985	14.5672	-0.760646	-1.312461E+10	2.665622E-12	NaN
186	1.000000	0.290442	7.36686e+06	-47939.1	955.819	-29764.7	0.000000	0.000000	6.290834	-0.007425	NaN	0.000000	0.001603	0.001638	28.079	0.087897	0.002016	43.6001	5.520866	-162.465	0.023915	0.289153	-0.754485	-0.755773	-0.007425	43.6001	-0.754357	-1.077753E+10	6.889620E-13	NaN
186	1.000000	0.298465	7.36686e+06	-47939.1	955.817	-29764.7	0.000000	0.000000	6.298855	-0.074251	NaN	0.000000	0.001575	0.001642	28.0789	0.031614	0.001886	16.7586	-91.825	-163.948	-0.052722	0.297167	-0.746461	-0.747759	-0.074251	16.7586	-0.743138	-7.582170E+9	9.792780E-12	NaN
186	1.000000	0.306464	7.36686e+06	-47939.1	955.818	-29764.7	0.000000	0.000000	6.306854	-0.058430	NaN	0.000000	0.001581	0.001664	28.0788	0.101707	0.002058	49.4195	151.679	-165.066	-0.113019	0.305147	-0.738462	-0.739779	-0.058430	49.4195	-0.737576	-6.368443E+9	9.174964E-12	NaN
186	1.000000	0.314472	7.36686e+06	-47939.1	955.818	-29764.7	0.000000	0.000000	6.314864	-0.026255	NaN	0.000000	0.001579	0.001629	28.0788	0.075236	0.002025	37.1494	32.1779	-169.659	-0.018252	0.313187	-0.730454	-0.731740	-0.026255	37.1494	-0.729924	-5.009310E+9	5.241180E-12	NaN
186	1.000000	0.322453	7.36686e+06	-47939.1	955.819	-29764.7	0.000000	0.000000	6.322845	-0.026563	NaN	0.000000	0.001562	0.001666	28.0788	0.025917	0.002017	12.8474	46.7042	-164.463	0.098788	0.321140	-0.722473	-0.723786	-0.026563	12.8474	-0.720923	-3.776204E+9	7.034398E-12	NaN
186	1.000000	0.330482	7.36686e+06	-47939.1	955.819	-29764.7	0.000000	0.000000	6.330873	-0.032615	NaN	0.000000	0.001586	0.001646	28.0792	0.095385	0.002069	46.1072	-72.5693	-164.535	0.074042	0.329162	-0.714445	-0.715764	-0.032615	46.1072	-0.713914	-3.030118E+9	1.076364E-11	NaN
186	1.000000	0.338469	7.36686e+06	-47939.1	955.819	-29764.7	0.000000	0.000000	6.338864	0.060063	NaN	0.000000	0.001587	0.001656	28.0789	0.124784	0.002133	58.4944	-156.443	-164.72	0.003571	0.337132	-0.706457	-0.707794	0.060063	58.4944	-0.707227	-2.455862E+9	-2.445712E-11	NaN
186	1.000000	0.346487	7.36686e+06	-47939.1	955.819	-29764.7	0.000000	0.000000	6.346880	0.011336	NaN	0.000000	0.001589	0.001630	28.0788	0.064258	0.002007	32.0235	148.432	-164.015	-0.030305	0.345159	-0.698439	-0.699768	0.011336	32.0235	-0.698705	-1.878630E+9	-6.034316E-12	NaN
186	1.000000	0.354449	7.36686e+06	-47939.1	955.818	-29764.7	0.000000	0.000000	6.354842	0.006957	NaN	0.000000	0.001565	0.001627	28.0786	0.143239	0.001875	76.411	-92.8045	-164.322	-0.003563	0.353147	-0.690477	-0.691780	0.006957	76.411	-0.690546	-1.453359E+9	-4.786629E-12	NaN
186	1.000000	0.362484	7.36686e+06	-47939.1	955.819	-29764.7	0.000000	0.000000	6.362881	0.080300	NaN	0.000000	0.001604	0.001647	28.0787	0.083862	0.002034	41.2319	-175.624	-163.993	0.000288	0.361199	-0.682442	-0.683728	0.080300	41.2319	-0.683902	-1.179150E+9	-6.809968E-11	NaN
186	1.000000	0.370483	7.36686e+06	-47939.1	955.819	-29764.7	0.000000	0.000000	6.370875	-0.011580	NaN	0.000000	0.001604	0.001639	28.0788	0.104005	0.001864	55.7965	-157.58	-163.288	-0.076223	0.369179	-0.674444	-0.675747	-0.011580	55.7965	-0.674288	-8.710996E+8	1.329400E-11	NaN
186	1.000000	0.378503	7.36686e+06	-47939.1	955.818	-29764.7	0.000000	0.000000	6.378895	-0.024186	NaN	0.000000	0.001578	0.001653	28.0788	0.028075	0.002022	13.8867	70.6496	-161.855	0.042173	0.377129	-0.666423	-0.667797	-0.024186	13.8867	-0.665117	-6.524455E+8	3.707034E-11	NaN
186	1.000000	0.386515	7.36686e+06	-47939.1	955.818	-29764.7	0.000000	0.000000	6.386904	-0.077326	NaN	0.000000	0.001556	0.001624	28.0789	0.026181	0.001880	13.9296	-82.598	-165.097	-0.106520	0.385162	-0.658412	-0.659764	-0.077326	13.9296	-0.654248	-4.630889E+8	1.669793E-10	NaN
186	1.000000	0.394503	7.36686e+06	-47939.1	955.819	-29764.7	0.000000	0.000000	6.394897	0.034646	NaN	0.000000	0.001571	0.001623	28.0787	0.047288	0.002098	22.5382	88.2925	-165.571	-0.021977	0.393233	-0.650423	-0.651693	0.034646	22.5382	-0.651576	-4.256409E+8	-8.139810E-11	NaN
186	1.000000	0.402504	7.36686e+06	-47939.1	955.818	-29764.7	0.000000	0.000000	6.402896	-0.015556	NaN	0.000000	0.001595	0.001658	28.0787	0.088641	0.001909	46.4242	123.036	-165.561	-0.022340	0.401205	-0.642422	-0.643721	-0.015556	46.4242	-0.642171	-3.162803E+8	4.918413E-11	NaN
186	1.000000	0.410493	7.36686e+06	-47939.1	955.819	-29764.7	0.000000	0.000000	6.410886	-0.003878	NaN	0.000000	0.001577	0.001619	28.0786	0.033406	0.001881	17.756	-79.7653	-167.74	-0.075367	0.409206	-0.634433	-0.635720	-0.003878	17.756	-0.634269	-2.464010E+8	1.573872E-11	NaN
186	1.000000	0.418516	7.36686e+06	-47939.1	955.819	-29764.7	0.000000	0.000000	6.418910	0.027205	NaN	0.000000	0.001604	0.001644	28.0775	0.048178	0.002121	22.7197	124.939	-164.443	0.014096	0.417138	-0.626410	-0.627788	0.027205	22.7197	-0.627308	-1.977216E+8	-1.375899E-10	NaN
186	1.000000	0.426509	7.36686e+06	-47939.1	955.818	-29764.7	0.000000	0.000000	6.426900	-0.027314	NaN	0.000000	0.001611	0.001626	28.0776	0.005381	0.001880	2.862399	-111.83	-164.842	0.013513	0.425239	-0.618418	-0.619687	-0.027314	2.862399	-0.611261	-1.189762E+8	2.295786E-10	NaN
186	1.000000	0.434523	7.36686e+06	-47939.1	955.819	-29764.7	0.000000	0.000000	6.434915	-0.013887	NaN	0.000000	0.001545	0.001642	28.0781	0.108625	0.001949	55.7406	-161.319	-162.978	-0.036174	0.433211	-0.610403	-0.611715	-0.013887	55.7406	-0.610217	-1.151049E+8	1.206459E-10	NaN
186	1.000000	0.442539	7.36686e+06	-47939.1	955.82	-29764.7	0.000000	0.000000	6.442931	-0.012801	NaN	0.000000	0.001588	0.001619	28.0779	0.024780	0.002110	11.7425	15.8215	-166.715	0.020061	0.441206	-0.602387	-0.603720	-0.012801	11.7425	-0.601570	-8.751384E+7	1.462789E-10	NaN
186	1.000000	0.450521	7.36686e+06	-47939.1	955.819	-29764.7	0.000000	0.000000	6.450914	0.000811	NaN	0.000000	0.001545	0.001640	28.0775	0.023526	0.002090	11.2583	9.564187	-163.677	0.035448	0.449220	-0.594405	-0.595707	0.000811	11.2583	-0.594459	-6.984378E+7	-1.161476E-11	NaN
186	1.000000	0.458523	7.36686e+06	-47939.1	955.819	-29764.7	0.000000	0.000000	6.458915	-0.040185	NaN	0.000000	0.001569	0.001646	28.0776	0.040808	0.002106	19.3787	-146.115	-163.409	-0.042700	0.457218	-0.586403	-0.587709	-0.040185	19.3787	-0.584848	-5.147696E+7	7.806401E-10	NaN
186	1.000000	0.466537	7.36686e+06	-47939.1	955.819	-29764.7	0.000000	0.000000	6.466927	-0.050093	NaN	0.000000	0.001522	0.001626	28.0777	0.151343	0.001944	77.8364	1.266489	-166.253	-0.006130	0.465195	-0.578390	-0.579731	-0.050093	77.8364	-0.577907	-4.128894E+7	1.213219E-9	NaN
186	1.000000	0.474565	7.36686e+06	-47939.1	955.818	-29764.7	0.000000	0.000000	6.474958	0.005214	NaN	0.000000	0.001517	0.001648	28.0776	0.032453	0.002024	16.0344	138.894	-164.719	0.013563	0.473204	-0.570361	-0.571722	0.005214	16.0344	-0.570605	-3.273331E+7	-1.592826E-10	NaN
186	1.000000	0.482565	7.36686e+06	-47939.1	955.82	-29764.7	0.000000	0.000000	6.482959	0.016846	NaN	0.000000	0.001502	0.001627	28.0779	0.061157	0.002074	29.4839	-69.7927	-165.834	0.006383	0.481262	-0.562361	-0.563664	0.016846	29.4839	-0.562790	-2.552481E+7	-6.599829E-10	NaN
186	1.000000	0.490545	7.36686e+06	-47939.1	955.819	-29764.7	0.000000	0.000000	6.490934	-0.076956	NaN	0.000000	0.001491	0.001634	28.0777	0.068171	0.001998	34.1148	-84.8439	-166.655	0.009953	0.489240	-0.554381	-0.555686	-0.076956	34.1148	-0.552690	-1.850133E+7	4.159464E-9	NaN
186	1.000000	0.498554	7.36686e+06	-47939.1	955.82	-29764.7	0.000000	0.000000	6.498947	0.024279	NaN	0.000000	0.001535	0.001655	28.078	0.147274	0.001968	74.825	136.066	-163.592	-0.018512	0.497213	-0.546373	-0.547713	0.024279	74.825	-0.546616	-1.524317E+7	-1.592772E-9	NaN
186	1.000000	0.506541	7.36686e+06	-47939.1	955.819	-29764.7	0.000000	0.000000	6.506930	-0.073304	NaN	0.000000	0.001539	0.001598	28.0778	0.048820	0.002049	23.8282	33.314	-162.783	-0.085270	0.505281	-0.538386	-0.539646	-0.073304	23.8282	-0.536078	-1.088818E+7	6.732413E-9	NaN
186	1.000000	0.514540	7.36686e+06	-47939.1	955.819	-29764.7	0.000000	0.000000	6.514930	-0.062577	NaN	0.000000	0.001542	0.001615	28.0778	0.026697	0.001966	13.5799	57.2647	-163.95	0.004289	0.513213	-0.530387	-0.531713	-0.062577	13.5799	-0.526930	-8.12712e+06	7.699828E-9	NaN
186	1.000000	0.522577	7.36686e+06	-47939.1	955.819	-29764.7	0.000000	0.000000	6.522967	-0.058798	NaN	0.000000	0.001566	0.001600	28.078	0.098121	0.002033	48.2614	-153.019	-166.25	-0.063705	0.521349	-0.522350	-0.523577	-0.058798	48.2614	-0.521436	-6.81658e+06	8.625703E-9	NaN
186	1.000000	0.530570	7.36686e+06	-47939.1	955.819	-29764.7	0.000000	0.000000	6.530962	-0.019019	NaN	0.000000	0.001523	0.001612	28.078	0.061196	0.001991	30.74	99.4427	-164.704	-0.054133	0.529289	-0.514357	-0.515638	-0.019019	30.74	-0.513893	-5.35329e+06	3.552695E-9	NaN
186	1.000000	0.538558	7.36686e+06	-47939.1	955.818	-29764.7	0.000000	0.000000	6.538948	-0.065564	NaN	0.000000	0.001506	0.001632	28.0783	0.055085	0.002001	27.53	123.477	-165.081	-0.014763	0.537314	-0.506369	-0.507613	-0.065564	27.53	-0.504583	-3.97123e+06	1.650966E-8	NaN
186	1.000000	0.546588	7.36686e+06	-47939.1	955.818	-29764.7	0.000000	0.000000	6.546981	-0.007765	NaN	0.000000	0.001580	0.001660	28.078	0.007289	0.001976	3.688876	90.7363	-165.801	-0.044406	0.545247	-0.498338	-0.499680	-0.007765	3.688876	-0.496760	-3.08886e+06	2.513723E-9	NaN
186	1.000000	0.554592	7.36686e+06	-47939.1	955.819	-29764.7	0.000000	0.000000	6.554982	-0.053174	NaN	0.000000	0.001550	0.001632	28.0791	0.060044	0.002012	29.8476	110.607	-166.93	-0.035190	0.553258	-0.490335	-0.491668	-0.053174	29.8476	-0.488998	-2.40656e+06	2.209529E-8	NaN
186	1.000000	0.562574	7.36686e+06	-47939.1	955.819	-29764.7	0.000000	0.000000	6.562967	0.005536	NaN	0.000000	0.001574	0.001663	28.0791	0.033309	0.001912	17.4172	33.047	-163.886	-0.082634	0.561273	-0.482353	-0.483653	0.005536	17.4172	-0.482591	-1.9579e+06	-2.827572E-9	NaN
186	1.000000	0.570596	7.36686e+06	-47939.1	955.819	-29764.7	0.000000	0.000000	6.570986	-0.083864	NaN	0.000000	0.001568	0.001652	28.079	0.014687	0.001975	7.435435	55.0747	-166.522	0.021180	0.569249	-0.474330	-0.475677	-0.083864	7.435435	-0.465871	-1.14148e+06	7.346982E-8	NaN
186	1.000000	0.578578	7.36686e+06	-47939.1	955.819	-29764.7	0.000000	0.000000	6.578973	0.048920	NaN	0.000000	0.001574	0.001630	28.0792	0.056617	0.002078	27.243	135.213	-163.624	0.043450	0.577207	-0.466348	-0.467719	0.048920	27.243	-0.467695	-1.2108e+06	-4.040285E-8	NaN
186	1.000000	0.586595	7.36686e+06	-47939.1	955.819	-29764.7	0.000000	0.000000	6.586985	-0.076378	NaN	0.000000	0.001541	0.001653	28.0787	0.067710	0.001974	34.298	-63.8632	-164.372	-0.050917	0.585281	-0.458331	-0.459645	-0.076378	34.298	-0.456661	-847382	9.013357E-8	NaN
186	1.000000	0.594615	7.36686e+06	-47939.1	955.819	-29764.7	0.000000	0.000000	6.595007	-0.036883	NaN	0.000000	0.001542	0.001639	28.079	0.165866	0.001973	84.0636	-97.1284	-166.752	0.019801	0.593299	-0.450311	-0.451627	-0.036883	84.0636	-0.449982	-682476	5.404229E-8	NaN
186	1.000000	0.602574	7.36686e+06	-47939.1	955.819	-29764.7	0.000000	0.000000	6.602965	-0.029933	NaN	0.000000	0.001552	0.001591	28.079	0.054353	0.001899	28.6193	-159.937	-164.461	0.013606	0.601281	-0.442352	-0.443645	-0.029933	28.6193	-0.441568	-519386	5.763225E-8	NaN
186	1.000000	0.610608	7.36686e+06	-47939.1	955.818	-29764.7	0.000000	0.000000	6.610998	-0.075619	NaN	0.000000	0.001580	0.001667	28.0789	0.061814	0.002111	29.2764	-90.3324	-161.988	-0.064395	0.609370	-0.434318	-0.435556	-0.075619	29.2764	-0.432381	-385242	1.962889E-7	NaN
186	1.000000	0.618603	7.36686e+06	-47939.1	955.819	-29764.7	0.000000	0.000000	6.618995	-0.018436	NaN	0.000000	0.001568	0.001621	28.079	0.050876	0.001971	25.8163	-81.2621	-166.016	-0.007439	0.617283	-0.426323	-0.427644	-0.018436	25.8163	-0.425788	-310768	5.932550E-8	NaN
186	1.000000	0.626609	7.36686e+06	-47939.1	955.819	-29764.7	0.000000	0.000000	6.626997	-0.119662	NaN	0.000000	0.001646	0.001675	28.079	0.041377	0.002108	19.6299	-96.2102	-164.077	-0.066416	0.625245	-0.418317	-0.419681	-0.119662	19.6299	-0.413745	-209717	5.705889E-7	NaN
186	1.000000	0.634591	7.36686e+06	-47939.1	955.819	-29764.7	0.000000	0.000000	6.634982	-0.043506	NaN	0.000000	0.001633	0.001615	28.079	0.071658	0.002002	35.7951	-51.6067	-163.869	0.047601	0.633262	-0.410335	-0.411664	-0.043506	35.7951	-0.409424	-182057	2.389719E-7	NaN
186	1.000000	0.642612	7.36686e+06	-47939.1	955.818	-29764.7	0.000000	0.000000	6.643001	-0.089562	NaN	0.000000	0.001638	0.001613	28.079	0.155974	0.002058	75.797	-132.636	-164.385	-0.053221	0.641315	-0.402315	-0.403612	-0.089562	75.797	-0.401428	-140075	6.393900E-7	NaN
186	1.000000	0.650602	7.36686e+06	-47939.1	955.818	-29764.7	0.000000	0.000000	6.650996	0.038089	NaN	0.000000	0.001623	0.001617	28.0788	0.092697	0.001957	47.3629	168.508	-162.677	0.060512	0.649297	-0.394324	-0.395629	0.038089	47.3629	-0.394927	-113135	-3.366678E-7	NaN
186	1.000000	0.658636	7.36686e+06	-47939.1	955.818	-29764.7	0.000000	0.000000	6.659031	0.039848	NaN	0.000000	0.001664	0.001635	28.0788	0.022995	0.001919	11.9847	-162.94	-160.286	-0.005158	0.657362	-0.386290	-0.387564	0.039848	11.9847	-0.388784	-92420.2	-4.311587E-7	NaN
186	1.000000	0.666639	7.36686e+06	-47939.1	955.818	-29764.7	0.000000	0.000000	6.667034	0.065897	NaN	0.000000	0.001589	0.001650	28.0789	0.088230	0.001963	44.9452	-60.9917	-165.08	-0.029802	0.665282	-0.378287	-0.379645	0.065897	44.9452	-0.379387	-67778.1	-9.722392E-7	NaN
186	1.000000	0.674651	7.36686e+06	-47939.1	955.819	-29764.7	0.000000	0.000000	6.675045	0.011769	NaN	0.000000	0.001540	0.001625	28.0789	0.101130	0.001954	51.7632	-67.626	-166.321	-0.035277	0.673288	-0.370275	-0.371638	0.011769	51.7632	-0.370446	-50413.1	-2.334549E-7	NaN
186	1.000000	0.682627	7.36686e+06	-47939.1	955.818	-29764.7	0.000000	0.000000	6.683018	-0.041956	NaN	0.000000	0.001590	0.001619	28.0789	0.033541	0.002048	16.3798	95.1301	-165.991	-0.036951	0.681374	-0.362299	-0.363553	-0.041956	16.3798	-0.360378	-36083.5	1.162753E-6	NaN
186	1.000000	0.690631	7.36686e+06	-47939.1	955.819	-29764.7	0.000000	0.000000	6.691021	-0.069926	NaN	0.000000	0.001613	0.001640	28.0778	0.028216	0.002065	13.6647	31.0783	-167.163	-0.102992	0.689318	-0.354295	-0.355608	-0.069926	13.6647	-0.350457	-25920	2.697746E-6	NaN
186	1.000000	0.698630	7.36686e+06	-47939.1	955.819	-29764.7	0.000000	0.000000	6.699024	0.045703	NaN	0.000000	0.001581	0.001629	28.0776	0.037723	0.002021	18.6657	58.8311	-163.563	-0.039710	0.697274	-0.346297	-0.347652	0.045703	18.6657	-0.348133	-23982.6	-1.905667E-6	NaN
186	1.000000	0.706600	7.36686e+06	-47939.1	955.819	-29764.7	0.000000	0.000000	6.706989	-0.075202	NaN	0.000000	0.001562	0.001622	28.0776	0.105077	0.002011	52.2586	-66.0676	-166.237	-0.033611	0.705311	-0.338326	-0.339615	-0.075202	52.2586	-0.337247	-16649.5	4.516769E-6	NaN
186	1.000000	0.714653	7.36686e+06	-47939.1	955.818	-29764.7	0.000000	0.000000	6.715044	-0.042100	NaN	0.000000	0.001607	0.001605	28.0776	0.086068	0.001998	43.0803	-163.758	-168.903	-0.110926	0.713428	-0.330273	-0.331498	-0.042100	43.0803	-0.329540	-12844.4	3.277697E-6	NaN
186	1.000000	0.722660	7.36686e+06	-47939.1	955.82	-29764.7	0.000000	0.000000	6.723055	0.046128	NaN	0.000000	0.001586	0.001616	28.0777	0.103790	0.001950	53.2195	-93.3233	-166.647	-0.049205	0.721334	-0.322266	-0.323592	0.046128	53.2195	-0.322916	-10269.1	-4.491940E-6	NaN
186	1.000000	0.730637	7.36686e+06	-47939.1	955.818	-29764.7	0.000000	0.000000	6.731028	-0.038396	NaN	0.000000	0.001591	0.001625	28.0776	0.075217	0.001963	38.32	-39.4782	-165.136	-0.063744	0.729371	-0.314289	-0.315555	-0.038396	38.32	-0.313538	-7470.64	5.139589E-6	NaN
186	1.000000	0.738632	7.36686e+06	-47939.1	955.819	-29764.7	0.000000	0.000000	6.739023	-0.048503	NaN	0.000000	0.001575	0.001566	28.0775	0.036719	0.001952	18.8106	-9.010730	-164.239	-0.009584	0.737328	-0.306294	-0.307598	-0.048503	18.8106	-0.304360	-5463.29	8.878022E-6	NaN
186	1.000000	0.746655	7.36686e+06	-47939.1	955.819	-29764.7	0.000000	0.000000	6.747044	-0.074246	NaN	0.000000	0.001573	0.001575	28.0777	0.018746	0.002009	9.332723	-139.099	-168.128	-0.118538	0.745346	-0.298272	-0.299580	-0.074246	9.332723	-0.292305	-3612.51	2.055260E-5	NaN
186	1.000000	0.754677	7.36686e+06	-47939.1	955.819	-29764.7	0.000000	0.000000	6.755070	0.010390	NaN	0.000000	0.001578	0.001587	28.0775	0.030293	0.002029	14.9278	118.053	-160.105	0.021944	0.753383	-0.290249	-0.291543	0.010390	14.9278	-0.290771	-3426.52	-3.032261E-6	NaN
186	1.000000	0.762661	7.36686e+06	-47939.1	955.819	-29764.7	0.000000	0.000000	6.763053	0.001690	NaN	0.000000	0.001579	0.001598	28.0777	0.137451	0.002058	66.7844	-38.916	-164.744	0.036198	0.761316	-0.282266	-0.283610	0.001690	66.7844	-0.282285	-2555.11	-6.615809E-7	NaN
186	1.000000	0.770668	7.36686e+06	-47939.1	955.818	-29764.7	0.000000	0.000000	6.771061	-0.007116	NaN	0.000000	0.001536	0.001602	28.0777	0.110579	0.002002	55.2345	-161.534	-165.707	-0.014570	0.769373	-0.274258	-0.275553	-0.007116	55.2345	-0.274161	-1926.18	3.694561E-6	NaN
186	1.000000	0.778690	7.36686e+06	-47939.1	955.818	-29764.7	0.000000	0.000000	6.779082	-0.017770	NaN	0.000000	0.001545	0.001621	28.0775	0.107893	0.001950	55.3357	17.0552	-162.649	-0.056345	0.777328	-0.266236	-0.267598	-0.017770	55.3357	-0.265995	-1447.35	1.227771E-5	NaN
186	1.000000	0.786654	7.36686e+06	-47939.1	955.818	-29764.7	0.000000	0.000000	6.787047	0.011255	NaN	0.000000	0.001572	0.001637	28.0778	0.029296	0.001965	14.9111	-101.413	-163.565	-0.000394	0.785409	-0.258273	-0.259517	0.011255	14.9111	-0.258839	-1124.89	-1.000515E-5	NaN
186	1.000000	0.794668	7.36686e+06	-47939.1	955.82	-29764.7	0.000000	0.000000	6.795062	0.016937	NaN	0.000000	0.001544	0.001669	28.0776	0.009145	0.001941	4.711928	134.879	-164.16	-0.001436	0.793434	-0.250258	-0.251492	0.016937	4.711928	-0.252954	-913.244	-1.854630E-5	NaN
186	1.000000	0.802681	7.36686e+06	-47939.1	955.818	-29764.7	0.000000	0.000000	6.803072	-0.045208	NaN	0.000000	0.001570	0.001661	28.0774	0.041214	0.002002	20.5873	140.846	-163.418	-0.002407	0.801345	-0.242245	-0.243582	-0.045208	20.5873	-0.240598	-587.348	7.696936E-5	NaN
186	1.000000	0.810695	7.36686e+06	-47939.1	955.818	-29764.7	0.000000	0.000000	6.811090	0.052418	NaN	0.000000	0.001581	0.001650	28.0774	0.179888	0.002147	83.7778	-115.067	-166.142	0.001032	0.809435	-0.234231	-0.235491	0.052418	83.7778	-0.234701	-474.838	-0.000110	NaN
186	1.000000	0.818675	7.36686e+06	-47939.1	955.818	-29764.7	0.000000	0.000000	6.819066	-0.025285	NaN	0.000000	0.001589	0.001655	28.0777	0.039457	0.002038	19.3613	140.949	-164.219	-0.023077	0.817397	-0.226252	-0.227529	-0.025285	19.3613	-0.225272	-337.021	7.502417E-5	NaN
186	1.000000	0.826706	7.36686e+06	-47939.1	955.818	-29764.7	0.000000	0.000000	6.827097	-0.034811	NaN	0.000000	0.001532	0.001666	28.0791	0.083037	0.002006	41.3911	156.385	-163.018	-0.009563	0.825367	-0.218221	-0.219560	-0.034811	41.3911	-0.217590	-254.155	0.000137	NaN
186	1.000000	0.834676	7.36686e+06	-47939.1	955.818	-29764.7	0.000000	0.000000	6.835070	0.043435	NaN	0.000000	0.001534	0.001654	28.0789	0.115719	0.001950	59.3332	-63.5208	-165.652	-0.025860	0.833336	-0.210251	-0.211590	0.043435	59.3332	-0.210800	-197.588	-0.000220	NaN
186	1.000000	0.842688	7.36686e+06	-47939.1	955.818	-29764.7	0.000000	0.000000	6.843081	0.015158	NaN	0.000000	0.001563	0.001633	28.0787	0.058608	0.002017	29.0511	-117.106	-165.615	0.070075	0.841404	-0.202239	-0.203523	0.015158	29.0511	-0.202630	-145.49	-0.000104	NaN
186	1.000000	0.850698	7.36686e+06	-47939.1	955.818	-29764.7	0.000000	0.000000	6.851089	-0.040992	NaN	0.000000	0.001559	0.001661	28.0787	0.121036	0.002040	59.3413	-178.767	-164.943	-0.002808	0.849416	-0.194229	-0.195510	-0.040992	59.3413	-0.193711	-103.71	0.000395	NaN
186	1.000000	0.858712	7.36686e+06	-47939.1	955.818	-29764.7	0.000000	0.000000	6.859104	-0.036641	NaN	0.000000	0.001555	0.001693	28.0788	0.103846	0.002008	51.7143	-145.496	-167.407	-0.072962	0.857359	-0.186214	-0.187568	-0.036641	51.7143	-0.185683	-76.1429	0.000481	NaN
186	1.000000	0.866712	7.36686e+06	-47939.1	955.818	-29764.7	0.000000	0.000000	6.867102	-0.049530	NaN	0.000000	0.001513	0.001675	28.0788	0.076777	0.002170	35.3833	-96.638	-166.991	-0.049621	0.865422	-0.178215	-0.179504	-0.049530	35.3833	-0.177165	-54.5878	0.000907	NaN
186	1.000000	0.874725	7.36686e+06	-47939.1	955.819	-29764.7	0.000000	0.000000	6.875118	-0.015033	NaN	0.000000	0.001535	0.001673	28.0787	0.035394	0.001965	18.0104	-149.982	-166.945	0.075862	0.873388	-0.170201	-0.171538	-0.015033	18.0104	-0.169575	-40.3857	0.000372	NaN
186	1.000000	0.882728	7.36686e+06	-47939.1	955.819	-29764.7	0.000000	0.000000	6.883117	-0.092937	NaN	0.000000	0.001554	0.001656	28.0789	0.010998	0.001996	5.508612	-0.044881	-162.39	-0.065341	0.881408	-0.162198	-0.163518	-0.092937	5.508612	-0.149544	-17.7702	0.005230	NaN
186	1.000000	0.890702	7.36686e+06	-47939.1	955.819	-29764.7	0.000000	0.000000	6.891094	-0.012667	NaN	0.000000	0.001552	0.001664	28.0792	0.026006	0.002073	12.5456	-100.81	-163.894	-0.095208	0.889380	-0.154224	-0.155546	-0.012667	12.5456	-0.153467	-20.938	0.000605	NaN
186	1.000000	0.898731	7.36686e+06	-47939.1	955.818	-29764.7	0.000000	0.000000	6.899124	-0.007085	NaN	0.000000	0.001594	0.001670	28.0788	0.097355	0.002029	47.9759	-60.7556	-163.584	0.004424	0.897411	-0.146195	-0.147515	-0.007085	47.9759	-0.146084	-15.353	0.000461	NaN
186	1.000000	0.906739	7.36686e+06	-47939.1	955.818	-29764.7	0.000000	0.000000	6.907131	-0.005761	NaN	0.000000	0.001594	0.001696	28.0787	0.030681	0.001912	16.0484	-137.897	-163.888	0.036511	0.905426	-0.138188	-0.139501	-0.005761	16.0484	-0.137918	-10.8078	0.000533	NaN
186	1.000000	0.914736	7.36686e+06	-47939.1	955.818	-29764.7	0.000000	0.000000	6.915128	-0.018040	NaN	0.000000	0.001590	0.001686	28.0787	0.095478	0.002059	46.373	-0.588636	-167.018	0.019112	0.913390	-0.130190	-0.131536	-0.018040	46.373	-0.129898	-7.586368	0.002378	NaN
186	1.000000	0.922712	7.36686e+06	-47939.1	955.819	-29764.7	0.000000	0.000000	6.923103	-0.032851	NaN	0.000000	0.001591	0.001700	28.0788	0.043222	0.001839	23.4983	153.556	-165.562	-0.020556	0.921391	-0.122215	-0.123535	-0.032851	23.4983	-0.121166	-5.099915	0.006441	NaN
186	1.000000	0.930733	7.36686e+06	-47939.1	955.82	-29764.7	0.000000	0.000000	6.931124	-0.034665	NaN	0.000000	0.001600	0.001662	28.0788	0.030338	0.001787	16.9804	24.8513	-166.585	-0.049234	0.929429	-0.114193	-0.115497	-0.034665	16.9804	-0.112662	-3.417175	0.010144	NaN
186	1.000000	0.938733	7.36686e+06	-47939.1	955.819	-29764.7	0.000000	0.000000	6.939126	0.004944	NaN	0.000000	0.001583	0.001650	28.0789	0.028707	0.001979	14.5051	-86.9075	-161.003	0.002446	0.937391	-0.106193	-0.107535	0.004944	14.5051	-0.106449	-2.525590	-0.001958	NaN
186	1.000000	0.946740	7.36686e+06	-47939.1	955.819	-29764.7	0.000000	0.000000	6.947132	-0.041731	NaN	0.000000	0.001585	0.001686	28.0785	0.040373	0.001989	20.293	173.814	-166.096	0.010669	0.945385	-0.098186	-0.099541	-0.041731	20.293	-0.096644	-1.537058	0.027150	NaN
186	1.000000	0.954724	7.36686e+06	-47939.1	955.818	-29764.7	0.000000	0.000000	6.955115	-0.042791	NaN	0.000000	0.001581	0.001665	28.0789	0.059248	0.001984	29.8625	128.429	-167.414	-0.017210	0.953455	-0.090202	-0.091471	-0.042791	29.8625	-0.089127	-1.031061	0.041501	NaN
186	1.000000	0.962739	7.36686e+06	-47939.1	955.819	-29764.7	0.000000	0.000000	6.963130	-0.035856	NaN	0.000000	0.001596	0.001684	28.0777	0.038672	0.001971	19.622	-114.592	-162.162	-0.065427	0.961414	-0.082188	-0.083513	-0.035856	19.622	-0.080817	-0.648734	0.055271	NaN
186	1.000000	0.970765	7.36686e+06	-47939.1	955.818	-29764.7	0.000000	0.000000	6.971157	-0.026483	NaN	0.000000	0.001593	0.001655	28.0775	0.059730	0.001970	30.3191	73.5429	-157.97	0.030909	0.969410	-0.074161	-0.075517	-0.026483	30.3191	-0.073506	-0.422341	0.062706	NaN
186	1.000000	0.978716	7.36686e+06	-47939.1	955.819	-29764.7	0.000000	0.000000	6.979104	-0.117468	NaN	0.000000	0.001587	0.001652	28.0779	0.042343	0.002008	21.0864	69.9667	-166.684	-0.162078	0.977460	-0.066210	-0.067466	-0.117468	21.0864	-0.062032	-0.205785	0.570829	NaN
186	1.000000	0.986769	7.36687e+06	-47939.1	955.819	-29764.7	0.000000	0.000000	6.987162	0.024232	NaN	0.000000	0.001611	0.001662	28.0774	0.133974	0.001889	70.9375	-14.5335	-165.12	-0.068380	0.985418	-0.058158	-0.059508	0.024232	70.9375	-0.058414	-0.162094	-0.149496	NaN
186	1.000000	0.994790	7.36687e+06	-47939.1	955.819	-29764.7	0.000000	0.000000	6.995183	-0.011783	NaN	0.000000	0.001619	0.001687	28.0777	0.104165	0.001941	53.6781	-60.1717	-163.733	-0.056344	0.993444	-0.050136	-0.051483	-0.011783	53.6781	-0.049971	-0.091068	0.129382	NaN
186	1.000000	1.002748	7.36687e+06	-47939.1	955.818	-29764.7	0.000000	0.000000	7.003139	-0.039254	NaN	0.000000	0.001593	0.001665	28.0775	0.092455	0.001930	47.9098	-143.38	-163.046	-0.026955	1.001466	-0.042179	-0.043460	-0.039254	47.9098	-0.041564	-0.050463	0.777873	NaN
186	1.000000	1.010786	7.36687e+06	-47939.1	955.819	-29764.7	0.000000	0.000000	7.011178	-0.016407	NaN	0.000000	0.001609	0.001676	28.0771	0.068221	0.002006	34.0035	-26.6294	-166.09	-0.011791	1.009475	-0.034140	-0.035451	-0.016407	34.0035	-0.033778	-0.029492	0.556320	NaN
186	1.000000	1.018779	7.36687e+06	-47939.1	955.818	-29764.7	0.000000	0.000000	7.019171	-0.023087	NaN	0.000000	0.001590	0.001658	28.0776	0.007638	0.001895	4.029527	-96.036	-164.637	-0.002828	1.017443	-0.026147	-0.027483	-0.023087	4.029527	-0.021850	-0.013997	1.649417	NaN
186	1.000000	1.026779	7.36687e+06	-47939.1	955.819	-29764.7	0.000000	0.000000	7.027170	-0.036583	NaN	0.000000	0.001579	0.001676	28.0776	0.128066	0.002103	60.8895	86.84	-164.767	-0.062874	1.025404	-0.018147	-0.019522	-0.036583	60.8895	-0.017696	-0.010962	3.337358	NaN
186	1.000000	1.034783	7.36687e+06	-47939.1	955.818	-29764.7	0.000000	0.000000	7.035174	-0.047390	NaN	0.000000	0.001604	0.001675	28.0779	0.040119	0.002080	19.286	34.6007	-164.029	-0.039793	1.033445	-0.010143	-0.011482	-0.047390	19.286	-0.008300	-0.005407	8.764215	NaN
186	1.000000	1.042760	7.36687e+06	-47939.1	955.818	-29764.7	0.000000	0.000000	7.043150	-0.058838	NaN	0.000000	0.001586	0.001644	28.0774	0.041172	0.002037	20.2075	-128.743	-162.318	-0.011915	1.041452	-0.002167	-0.003474	-0.058838	20.2075	1.708087E-5	1.276892E-5	-4607.9	5166.66
186	1.000000	1.050760	7.36687e+06	-47939.1	955.819	-29764.7	0.000000	0.000000	7.051280	3.092301	NaN	0.000000	0.001591	0.001653	28.0774	3.693904	0.001804	2047.1	7.563499	-164.325	1.731150	1.049489	0.005833	0.004563	3.092301	2047.1	0.004700	0.003862	800.764	30097
186	2.000000	1.057279	7.36687e+06	-47939.1	955.82	-29764.7	0.000000	0.000000	7.058038	8.927018	NaN	0.000000	0.001593	0.001640	28.0774	9.173791	0.001753	5233.93	10.9301	-171.763	9.197987	1.056929	0.012352	0.012002	8.927018	5233.93	0.011073	0.010399	858.49	46893.8
186	2.000000	1.059266	7.36687e+06	-47939.1	955.819	-29764.7	0.000000	0.000000	7.060194	13.0225	NaN	0.000000	0.001601	0.001653	28.0774	12.034	0.001693	7107.24	6.475650	-172.902	12.1817	1.058947	0.014340	0.014021	13.0225	7107.24	0.012966	0.012667	1028.04	57694.1
186	2.000000	1.061235	7.36687e+06	-47939.1	955.819	-29764.7	0.000000	0.000000	7.062323	16.9037	NaN	0.000000	0.001611	0.001652	28.0779	14.1672	0.001723	8222.25	6.119469	-174.248	16.4815	1.060908	0.016309	0.015981	16.9037	8222.25	0.014767	0.014976	1128.7	61385
186	2.000000	1.063233	7.36687e+06	-47939.1	955.819	-29764.7	0.000000	0.000000	7.064502	21.3223	NaN	0.000000	0.001622	0.001657	28.0774	17.0036	0.001601	10621.2	1.868876	-173.339	20.7798	1.062965	0.018307	0.018039	21.3223	10621.2	0.016801	0.017763	1200.41	72810.7
186	2.000000	1.065224	7.36687e+06	-47939.1	955.819	-29764.7	0.000000	0.000000	7.066790	28.5307	NaN	0.000000	0.001616	0.001618	28.0772	18.5528	0.001735	10694.4	8.802425	-177.075	28.8569	1.064872	0.020298	0.019945	28.5307	10694.4	0.018297	0.019937	1431.08	69200
186	2.000000	1.067188	7.36687e+06	-47939.1	955.818	-29764.7	0.000000	0.000000	7.068953	33.3766	NaN	0.000000	0.001615	0.001621	28.0786	21.7412	0.001710	12714.3	5.995074	-178.85	31.8447	1.066879	0.022262	0.021953	33.3766	12714.3	0.020293	0.023005	1450.86	76587.4
186	2.000000	1.069174	7.36687e+06	-47939.1	955.819	-29764.7	0.000000	0.000000	7.071147	38.4175	NaN	0.000000	0.001628	0.001652	28.0785	24.0326	0.001916	12541.6	6.221098	-176.487	35.8806	1.068883	0.024248	0.023957	38.4175	12541.6	0.021951	0.025701	1494.8	71474.8
186	2.000000	1.071199	7.36687e+06	-47939.1	955.818	-29764.7	0.000000	0.000000	7.073454	45.2942	NaN	0.000000	0.001604	0.001600	28.079	25.591	0.001767	14478.9	3.387003	-176.417	44.4186	1.070820	0.026273	0.025894	45.2942	14478.9	0.023927	0.029092	1556.95	77557.7
186	2.000000	1.073159	7.36687e+06	-47939.1	955.819	-29764.7	0.000000	0.000000	7.075658	51.2294	NaN	0.000000	0.001591	0.001602	28.0786	28.511	0.001810	15753.4	3.663839	-177.662	50.075	1.072889	0.028233	0.027963	51.2294	15753.4	0.025794	0.032476	1577.44	79866.7
186	2.000000	1.075112	7.36687e+06	-47939.1	955.819	-29764.7	0.000000	0.000000	7.077911	58.518	NaN	0.000000	0.001569	0.001612	28.0789	29.2239	0.001681	17381	1.169767	-175.963	55.5147	1.074846	0.030186	0.029920	58.518	17381	0.027661	0.036034	1623.96	83654.5
186	2.000000	1.077183	7.36687e+06	-47939.1	955.818	-29764.7	0.000000	0.000000	7.080357	67.6647	NaN	0.000000	0.001616	0.001605	28.0786	32.4254	0.001754	18491.2	3.678751	-178.11	67.1183	1.076920	0.032256	0.031994	67.6647	18491.2	0.029512	0.039738	1702.76	84749
186	2.000000	1.079163	7.36687e+06	-47939.1	955.819	-29764.7	0.000000	0.000000	7.082732	77.2461	NaN	0.000000	0.001634	0.001615	28.0786	34.8228	0.001860	18721.2	6.711923	179.604	76.4233	1.078849	0.034237	0.033923	77.2461	18721.2	0.031142	0.043144	1790.41	82346.6
186	2.000000	1.081166	7.36687e+06	-47939.1	955.819	-29764.7	0.000000	0.000000	7.084971	82.9878	NaN	0.000000	0.001643	0.001598	28.0787	36.4962	0.001808	20181.1	6.219996	178.78	82.3054	1.080894	0.036240	0.035968	82.9878	20181.1	0.033156	0.047538	1745.7	84565.9
186	2.000000	1.083202	7.36687e+06	-47939.1	955.819	-29764.7	0.000000	0.000000	7.087297	90.0364	NaN	0.000000	0.001635	0.001621	28.0786	38.6128	0.001890	20432.9	0.519060	-175.624	92.2222	1.082845	0.038276	0.037919	90.0364	20432.9	0.034971	0.051679	1742.23	82119.6
186	2.000000	1.085137	7.36687e+06	-47939.1	955.819	-29764.7	0.000000	0.000000	7.089575	98.3941	NaN	0.000000	0.001633	0.001618	28.0798	40.3514	0.001844	21882.9	7.284327	176.705	97.5972	1.084879	0.040211	0.039953	98.3941	21882.9	0.036838	0.056113	1753.49	84400.7
186	2.000000	1.087123	7.36687e+06	-47939.1	955.819	-29764.7	0.000000	0.000000	7.092111	111.766	NaN	0.000000	0.001649	0.001619	28.0788	41.7059	0.001746	23882.2	3.921294	179.71	110.801	1.086835	0.042197	0.041909	111.766	23882.2	0.038687	0.060678	1841.96	88579.1
186	2.000000	1.089123	7.36687e+06	-47939.1	955.819	-29764.7	0.000000	0.000000	7.094417	119.202	NaN	0.000000	0.001649	0.001613	28.0783	44.1542	0.001781	24789.5	3.906073	179.043	117.027	1.088812	0.044197	0.043886	119.202	24789.5	0.040591	0.065564	1818.11	88452.3
186	2.000000	1.091070	7.36687e+06	-47939.1	955.819	-29764.7	0.000000	0.000000	7.096498	122.463	NaN	0.000000	0.001669	0.001614	28.0786	46.118	0.001864	24736.5	6.927963	175.487	118.447	1.090857	0.046144	0.045931	122.463	24736.5	0.042431	0.070461	1738.03	85140.8
186	2.000000	1.093154	7.36687e+06	-47939.1	955.819	-29764.7	0.000000	0.000000	7.099135	135.934	NaN	0.000000	0.001636	0.001666	28.0785	47.893	0.001778	26933.3	6.328768	176.187	134.846	1.092737	0.048227	0.047811	135.934	26933.3	0.044442	0.076011	1788.34	89253.2
186	2.000000	1.095205	7.36687e+06	-47939.1	955.818	-29764.7	0.000000	0.000000	7.101462	142.631	NaN	0.000000	0.001669	0.001645	28.0793	48.3489	0.001696	28507.1	6.624612	175.847	147.268	1.094841	0.050279	0.049914	142.631	28507.1	0.046526	0.081978	1739.86	90965.3
186	2.000000	1.097167	7.36687e+06	-47939.1	955.819	-29764.7	0.000000	0.000000	7.103928	154.903	NaN	0.000000	0.001664	0.001603	28.0786	51.222	0.001880	27251.9	4.807193	177.997	155	1.096727	0.052240	0.051800	154.903	27251.9	0.047977	0.086264	1795.69	84772.9
186	2.000000	1.099121	7.36687e+06	-47939.1	955.819	-29764.7	0.000000	0.000000	7.106299	165.024	NaN	0.000000	0.001636	0.001650	28.0799	52.5528	0.001820	28881.7	1.470058	179.759	163.61	1.098829	0.054195	0.053903	165.024	28881.7	0.049910	0.092135	1791.12	86933.1
186	2.000000	1.101108	7.36687e+06	-47939.1	955.819	-29764.7	0.000000	0.000000	7.108586	172.311	NaN	0.000000	0.001643	0.001593	28.0772	54.8176	0.001867	29367.9	4.166253	177.498	170.178	1.100715	0.056182	0.055789	172.311	29367.9	0.051782	0.098000	1758.28	85710.5
186	2.000000	1.103105	7.36687e+06	-47939.1	955.819	-29764.7	0.000000	0.000000	7.110980	181.985	NaN	0.000000	0.001644	0.001571	28.0774	57.1127	0.001912	29864	4.394827	176.788	180.328	1.102793	0.058179	0.057867	181.985	29864	0.053609	0.103893	1751.65	84650
186	2.000000	1.105060	7.36687e+06	-47939.1	955.818	-29764.7	0.000000	0.000000	7.113480	195.241	NaN	0.000000	0.001608	0.001608	28.0777	57.536	0.001711	33631.3	6.478770	174.073	191.929	1.104779	0.060133	0.059852	195.241	33631.3	0.055779	0.111110	1757.19	92180.8
186	2.000000	1.107146	7.36687e+06	-47939.1	955.82	-29764.7	0.000000	0.000000	7.115740	199.462	NaN	0.000000	0.001555	0.001625	28.0776	60.275	0.001812	33271.3	4.562569	175.585	201.012	1.106821	0.062220	0.061895	199.462	33271.3	0.057724	0.117773	1693.62	88576.8
186	2.000000	1.109004	7.36687e+06	-47939.1	955.819	-29764.7	0.000000	0.000000	7.118334	217.384	NaN	0.000000	0.001573	0.001640	28.0777	61.5503	0.001879	32754.3	3.381215	177.547	211.072	1.108796	0.064077	0.063869	217.384	32754.3	0.059100	0.122600	1773.11	85466.4
186	2.000000	1.111100	7.36687e+06	-47939.1	955.82	-29764.7	0.000000	0.000000	7.121049	232.444	NaN	0.000000	0.001586	0.001678	28.0775	62.5929	0.001870	33465.8	5.528373	175.471	229.649	1.110697	0.066174	0.065770	232.444	33465.8	0.060964	0.129289	1797.87	85034.3
186	2.000000	1.113100	7.36687e+06	-47939.1	955.819	-29764.7	0.000000	0.000000	7.123198	236.059	NaN	0.000000	0.001586	0.001630	28.0775	65.4538	0.001825	35873.9	3.348191	176.333	234.222	1.112957	0.068173	0.068031	236.059	35873.9	0.063238	0.137676	1714.6	88333.1
186	2.000000	1.115030	7.36687e+06	-47939.1	955.819	-29764.7	0.000000	0.000000	7.126074	259.074	NaN	0.000000	0.001594	0.001645	28.0777	65.0623	0.001646	39527.2	2.966346	176.504	254.909	1.114804	0.070103	0.069878	259.074	39527.2	0.065188	0.145065	1785.92	94817.4
186	2.000000	1.117039	7.36687e+06	-47939.1	955.82	-29764.7	0.000000	0.000000	7.128532	270.001	NaN	0.000000	0.001591	0.001663	28.0777	68.3637	0.001606	42568.6	3.587340	175.206	266.686	1.116772	0.072112	0.071846	270.001	42568.6	0.067355	0.153496	1759	99269
186	2.000000	1.119162	7.36687e+06	-47939.1	955.82	-29764.7	0.000000	0.000000	7.131053	279.663	NaN	0.000000	0.001610	0.001631	28.0778	72.0043	0.001780	40454.4	5.750686	173.818	279.664	1.118758	0.074235	0.073832	279.663	40454.4	0.069051	0.160247	1745.2	92330.3
186	2.000000	1.121126	7.36687e+06	-47939.1	955.82	-29764.7	0.000000	0.000000	7.133619	294.328	NaN	0.000000	0.001588	0.001659	28.0775	73.9506	0.001842	40154.8	2.610590	176.776	295.533	1.120769	0.076199	0.075842	294.328	40154.8	0.070702	0.166955	1762.91	89786.3
186	2.000000	1.123072	7.36687e+06	-47939.1	955.819	-29764.7	0.000000	0.000000	7.136041	305.895	NaN	0.000000	0.001592	0.001651	28.0778	76.1947	0.001815	41981.8	3.935151	174.801	303.294	1.122780	0.078145	0.077853	305.895	41981.8	0.072681	0.175163	1746.35	91646
186	2.000000	1.124999	7.36687e+06	-47939.1	955.819	-29764.7	0.000000	0.000000	7.138529	319.533	NaN	0.000000	0.001592	0.001660	28.0777	76.74	0.001716	44708.9	5.137459	172.834	313.342	1.124758	0.080073	0.079832	319.533	44708.9	0.074712	0.183784	1738.63	95282.5
186	2.000000	1.127105	7.36687e+06	-47939.1	955.819	-29764.7	0.000000	0.000000	7.141415	338.506	NaN	0.000000	0.001582	0.001651	28.0775	78.7997	0.001717	45885.7	6.535249	172.798	336.952	1.126654	0.082179	0.081727	338.506	45885.7	0.076646	0.192168	1761.51	95633.5
186	2.000000	1.129044	7.36687e+06	-47939.1	955.818	-29764.7	0.000000	0.000000	7.143956	353.142	NaN	0.000000	0.001582	0.001653	28.0778	81.3129	0.001836	44295.3	1.413833	177.225	348.579	1.128825	0.084118	0.083898	353.142	44295.3	0.078138	0.198760	1776.72	90774.9
186	2.000000	1.131060	7.36687e+06	-47939.1	955.819	-29764.7	0.000000	0.000000	7.146639	369.363	NaN	0.000000	0.001570	0.001622	28.0775	83.2019	0.001788	46545.9	4.956107	173.23	367.117	1.130806	0.086134	0.085880	369.363	46545.9	0.080183	0.207958	1776.15	93253.9
186	2.000000	1.133159	7.36687e+06	-47939.1	955.819	-29764.7	0.000000	0.000000	7.149086	377.837	NaN	0.000000	0.001580	0.001654	28.0776	86.0112	0.001713	50204.4	2.875297	174.282	378.393	1.132828	0.088233	0.087902	377.837	50204.4	0.082588	0.219030	1725.04	98008.3
186	2.000000	1.134998	7.36687e+06	-47939.1	955.818	-29764.7	0.000000	0.000000	7.151608	394.427	NaN	0.000000	0.001573	0.001638	28.0787	86.7473	0.001764	49179.1	2.945810	174.594	388.717	1.134770	0.090072	0.089844	394.427	49179.1	0.084057	0.225923	1745.84	94530.8
186	2.000000	1.137156	7.36687e+06	-47939.1	955.819	-29764.7	0.000000	0.000000	7.154721	417.677	NaN	0.000000	0.001573	0.001635	28.0788	90.8053	0.001833	49550.3	7.153141	170.43	421.455	1.136753	0.092229	0.091826	417.677	49550.3	0.085907	0.234750	1779.24	93436.6
186	2.000000	1.139042	7.36687e+06	-47939.1	955.819	-29764.7	0.000000	0.000000	7.157364	436.08	NaN	0.000000	0.001565	0.001657	28.0791	91.3841	0.001700	53743.4	5.444963	172.251	430.914	1.138697	0.094115	0.093771	436.08	53743.4	0.088030	0.245067	1779.43	99187.4
186	2.000000	1.141025	7.36687e+06	-47939.1	955.82	-29764.7	0.000000	0.000000	7.159961	451.002	NaN	0.000000	0.001607	0.001669	28.0789	94.1834	0.001794	52493.9	8.264176	168.816	448.033	1.140797	0.096099	0.095871	451.002	52493.9	0.089655	0.253109	1781.85	95329.7
186	2.000000	1.143060	7.36687e+06	-47939.1	955.819	-29764.7	0.000000	0.000000	7.162285	458.059	NaN	0.000000	0.001604	0.001648	28.079	96.9005	0.001696	57121.2	7.828899	167.979	455.593	1.142880	0.098134	0.097953	458.059	57121.2	0.092119	0.265530	1725.07	101278
186	2.000000	1.144989	7.36687e+06	-47939.1	955.819	-29764.7	0.000000	0.000000	7.165005	477.299	NaN	0.000000	0.001611	0.001641	28.0787	97.3	0.001875	51890.1	3.751730	173.117	473.363	1.144848	0.100062	0.099922	477.299	51890.1	0.093164	0.270878	1762.05	91090
186	2.000000	1.147026	7.36687e+06	-47939.1	955.819	-29764.7	0.000000	0.000000	7.167935	498.999	NaN	0.000000	0.001661	0.001608	28.0788	100.504	0.001829	54941	4.641522	172.087	497.178	1.146824	0.102100	0.101897	498.999	54941	0.095288	0.281913	1770.05	94539.3
186	2.000000	1.149145	7.36687e+06	-47939.1	955.82	-29764.7	0.000000	0.000000	7.171055	523.378	NaN	0.000000	0.001678	0.001641	28.079	102.528	0.001792	57213.7	5.755589	171.255	527.064	1.148810	0.104218	0.103884	523.378	57213.7	0.097357	0.292858	1787.14	96592.9
186	2.000000	1.151039	7.36687e+06	-47939.1	955.82	-29764.7	0.000000	0.000000	7.173688	541.33	NaN	0.000000	0.001645	0.001658	28.0789	102.399	0.001682	60868.3	2.779186	173.594	539.032	1.150717	0.106113	0.105791	541.33	60868.3	0.099442	0.304084	1780.2	100848
186	2.000000	1.152977	7.36687e+06	-47939.1	955.82	-29764.7	0.000000	0.000000	7.176334	558.534	NaN	0.000000	0.001660	0.001623	28.0793	106.628	0.001900	56128.5	4.425707	172.497	553.785	1.152810	0.108051	0.107883	558.534	56128.5	0.100588	0.310335	1799.78	92053.7
186	2.000000	1.155160	7.36687e+06	-47939.1	955.82	-29764.7	0.000000	0.000000	7.179196	575.078	NaN	0.000000	0.001619	0.001613	28.0789	107.62	0.001838	58546.3	7.371418	169.178	581.06	1.154730	0.110233	0.109803	575.078	58546.3	0.102866	0.322947	1780.72	94125.5