File: remote_trans/data/nanoindenter/0828-1/data/Data_2025-08-06,11h17m57s/2025-07-22_16-23-58_1_317.txt
2025-07-22, 16:23:58, 1
Index	Phase	Displacement	Time	Pos X	Pos Y	Pos Z	Rot A	Rot B	Piezo Z	Force A	Force B	Gripper	Voltage A	Voltage B	Temperature	Amplitude force	Amplitude pos	Stiffness	Phase shift	Phase excitation	Force A raw	Displacement raw	HMax	HMax raw	Real Force	Real Stiffness	Contact Depth	Area	Hardness	Reduced Mod.
[#]	[#]	[um]	[s]	[um]	[um]	[um]	[m°]	[m°]	[um]	[uN]	[uN]	[V]	[V]	[V]	[°C]	[uN]	[um]	[N/m]	[°]	[°]	[uN]	[um]	[um]	[um]	[uN]	[N/m]	[um]	[um^2]	[MPa]	[MPa]
317	1.000000	0.002006	7.36816e+06	-54489.1	955.819	-29743.1	0.000000	0.000000	6.002812	0.000922	NaN	0.000000	0.001595	0.001734	28.0784	0.060721	0.000907	66.9611	-109.161	-172.83	-0.040122	0.000733	-1.734019	-1.735292	0.000922	66.9611	-1.734029	-1.440131E+23	-6.403572E-27	NaN
317	1.000000	0.013994	7.36816e+06	-54489.1	955.819	-29743.1	0.000000	0.000000	6.014799	-0.031726	NaN	0.000000	0.001622	0.001711	28.0785	0.018018	0.001744	10.3283	-30.1946	-165.897	-0.049692	0.012818	-1.722030	-1.723207	-0.031726	10.3283	-1.719726	-9.299533E+22	3.411561E-25	NaN
317	1.000000	0.026017	7.36816e+06	-54489.1	955.819	-29743.1	0.000000	0.000000	6.026824	0.042412	NaN	0.000000	0.001584	0.001764	28.08	0.046410	0.001824	25.4402	162.973	-167.571	0.035091	0.024646	-1.710008	-1.711379	0.042412	25.4402	-1.711258	-7.177690E+22	-5.908816E-25	NaN
317	1.000000	0.037985	7.36816e+06	-54489.1	955.818	-29743.1	0.000000	0.000000	6.038791	0.012226	NaN	0.000000	0.001583	0.001730	28.0798	0.052732	0.001837	28.7066	-9.290126	-166.447	-0.005155	0.036600	-1.698040	-1.699425	0.012226	28.7066	-1.698359	-4.837743E+22	-2.527160E-25	NaN
317	1.000000	0.049925	7.36816e+06	-54489.1	955.818	-29743.1	0.000000	0.000000	6.050730	0.013742	NaN	0.000000	0.001589	0.001737	28.0798	0.117309	0.001975	59.4118	179.718	-163.704	0.060760	0.048614	-1.686100	-1.687410	0.013742	59.4118	-1.686274	-3.342561E+22	-4.111352E-25	NaN
317	1.000000	0.061941	7.36816e+06	-54489.1	955.819	-29743.1	0.000000	0.000000	6.062750	0.083379	NaN	0.000000	0.001710	0.001740	28.0798	0.049834	0.001913	26.0513	32.3122	-166.611	-0.021727	0.060633	-1.674083	-1.675391	0.083379	26.0513	-1.676484	-2.477424E+22	-3.365537E-24	NaN
317	1.000000	0.073954	7.36816e+06	-54489.1	955.818	-29743.1	0.000000	0.000000	6.074760	0.027485	NaN	0.000000	0.001686	0.001700	28.0795	0.091351	0.001872	48.8036	-44.176	-163.623	0.089484	0.072654	-1.662071	-1.663370	0.027485	48.8036	-1.662493	-1.614657E+22	-1.702205E-24	NaN
317	1.000000	0.085936	7.36816e+06	-54489.1	955.818	-29743.1	0.000000	0.000000	6.086742	0.021773	NaN	0.000000	0.001685	0.001675	28.0797	0.005543	0.001946	2.848073	12.7604	-163.971	0.083293	0.084624	-1.650089	-1.651401	0.021773	2.848073	-1.655823	-1.316508E+22	-1.653873E-24	NaN
317	1.000000	0.097960	7.36816e+06	-54489.1	955.819	-29743.1	0.000000	0.000000	6.098765	-0.007115	NaN	0.000000	0.001676	0.001689	28.0797	0.101121	0.002173	46.5288	-38.217	-167.919	0.054269	0.096646	-1.638065	-1.639379	-0.007115	46.5288	-1.637950	-7.618172E+21	9.340046E-25	NaN
317	1.000000	0.109995	7.36816e+06	-54489.1	955.818	-29743.1	0.000000	0.000000	6.110801	0.014892	NaN	0.000000	0.001708	0.001722	28.0799	0.094649	0.001883	50.2611	176.123	-165.219	-0.020518	0.108663	-1.626030	-1.627362	0.014892	50.2611	-1.626252	-5.325143E+21	-2.796491E-24	NaN
317	1.000000	0.121991	7.36816e+06	-54489.1	955.819	-29743.1	0.000000	0.000000	6.122793	-0.080546	NaN	0.000000	0.001735	0.001719	28.0801	0.119011	0.001967	60.5002	-60.6572	-164.336	-0.068649	0.120650	-1.614034	-1.615375	-0.080546	60.5002	-1.613035	-3.552898E+21	2.267054E-23	NaN
317	1.000000	0.134007	7.36816e+06	-54489.1	955.819	-29743.1	0.000000	0.000000	6.134813	0.007879	NaN	0.000000	0.001658	0.001684	28.0797	0.093747	0.001999	46.8926	-133.352	-168.116	0.000840	0.132673	-1.602018	-1.603352	0.007879	46.8926	-1.602144	-2.545305E+21	-3.095677E-24	NaN
317	1.000000	0.145997	7.36816e+06	-54489.1	955.818	-29743.1	0.000000	0.000000	6.146801	-0.029977	NaN	0.000000	0.001592	0.001725	28.0797	0.105081	0.002084	50.4206	152.052	-164.484	-0.007378	0.144659	-1.590027	-1.591366	-0.029977	50.4206	-1.589581	-1.732396E+21	1.730367E-23	NaN
317	1.000000	0.158006	7.36816e+06	-54489.1	955.818	-29743.1	0.000000	0.000000	6.158812	0.036438	NaN	0.000000	0.001609	0.001685	28.0785	0.024615	0.002052	11.996	141.304	-163.523	0.073628	0.156700	-1.578019	-1.579325	0.036438	11.996	-1.580297	-1.303589E+21	-2.795201E-23	NaN
317	1.000000	0.169987	7.36816e+06	-54489.1	955.818	-29743.1	0.000000	0.000000	6.170791	-0.020340	NaN	0.000000	0.001609	0.001717	28.0783	0.100557	0.002044	49.1987	142.289	-164.328	-0.117928	0.168692	-1.566038	-1.567332	-0.020340	49.1987	-1.565728	-8.342501E+20	2.438155E-23	NaN
317	1.000000	0.182005	7.36816e+06	-54489.1	955.818	-29743.1	0.000000	0.000000	6.182814	0.067640	NaN	0.000000	0.001642	0.001700	28.0785	0.061190	0.002102	29.1149	-114.913	-166.843	0.040929	0.180681	-1.554019	-1.555344	0.067640	29.1149	-1.555762	-6.147184E+20	-1.100339E-22	NaN
317	1.000000	0.193986	7.36816e+06	-54489.1	955.819	-29743.1	0.000000	0.000000	6.194791	-0.011821	NaN	0.000000	0.001642	0.001724	28.0784	0.039831	0.002037	19.5563	34.6541	-163.672	-0.093717	0.192717	-1.542039	-1.543308	-0.011821	19.5563	-1.541585	-3.981037E+20	2.969400E-23	NaN
317	1.000000	0.206025	7.36816e+06	-54489.1	955.818	-29743.1	0.000000	0.000000	6.206828	-0.066628	NaN	0.000000	0.001612	0.001673	28.0785	0.071775	0.002030	35.3515	0.051942	-166.241	-0.077292	0.204662	-1.529999	-1.531363	-0.066628	35.3515	-1.528586	-2.672706E+20	2.492922E-22	NaN
317	1.000000	0.218011	7.36816e+06	-54489.1	955.818	-29743.1	0.000000	0.000000	6.218817	0.015451	NaN	0.000000	0.001613	0.001697	28.0787	0.058632	0.001919	30.5488	64.0837	-167.198	0.056312	0.216746	-1.518014	-1.519278	0.015451	30.5488	-1.518393	-1.955462E+20	-7.901304E-23	NaN
317	1.000000	0.230014	7.36817e+06	-54489.1	955.817	-29743.1	0.000000	0.000000	6.230819	-0.002729	NaN	0.000000	0.001656	0.001725	28.0784	0.132537	0.002041	64.9476	35.7685	-165.612	-0.006288	0.228723	-1.506011	-1.507302	-0.002729	64.9476	-1.505979	-1.336429E+20	2.041727E-23	NaN
317	1.000000	0.242021	7.36817e+06	-54489.1	955.819	-29743.1	0.000000	0.000000	6.242826	-0.010488	NaN	0.000000	0.001657	0.001739	28.0784	0.062784	0.001913	32.8278	-67.2969	-164.255	0.107615	0.240746	-1.494004	-1.495279	-0.010488	32.8278	-1.493764	-9.188757E+19	1.141408E-22	NaN
317	1.000000	0.254027	7.36817e+06	-54489.1	955.818	-29743.1	0.000000	0.000000	6.254831	-0.021954	NaN	0.000000	0.001662	0.001701	28.0784	0.069870	0.002068	33.7786	2.097981	-168.422	-0.088106	0.252698	-1.481998	-1.483327	-0.021954	33.7786	-1.481511	-6.310042E+19	3.479204E-22	NaN
317	1.000000	0.266019	7.36817e+06	-54489.1	955.82	-29743.1	0.000000	0.000000	6.266827	0.053619	NaN	0.000000	0.001630	0.001711	28.0785	0.058301	0.001975	29.5202	147.5	-167.859	0.125183	0.264745	-1.470005	-1.471280	0.053619	29.5202	-1.471368	-4.622699E+19	-1.159906E-21	NaN
317	1.000000	0.278036	7.36817e+06	-54489.1	955.818	-29743.1	0.000000	0.000000	6.278842	0.010167	NaN	0.000000	0.001639	0.001711	28.0786	0.037394	0.002107	17.7447	171.354	-165.979	0.030102	0.276698	-1.457989	-1.459327	0.010167	17.7447	-1.458419	-3.107044E+19	-3.272245E-22	NaN
317	1.000000	0.290013	7.36817e+06	-54489.1	955.819	-29743.1	0.000000	0.000000	6.290817	-0.039426	NaN	0.000000	0.001602	0.001707	28.0783	0.040547	0.001925	21.0589	-55.4184	-161.794	-0.047354	0.288721	-1.446011	-1.447304	-0.039426	21.0589	-1.444607	-2.033606E+19	1.938704E-21	NaN
317	1.000000	0.302020	7.36817e+06	-54489.1	955.819	-29743.1	0.000000	0.000000	6.302826	0.026028	NaN	0.000000	0.001613	0.001714	28.0799	0.129523	0.001842	70.3186	-70.0478	-168.717	0.076320	0.300708	-1.434005	-1.435316	0.026028	70.3186	-1.434282	-1.481267E+19	-1.757174E-21	NaN
317	1.000000	0.314029	7.36817e+06	-54489.1	955.819	-29743.1	0.000000	0.000000	6.314834	-0.009620	NaN	0.000000	0.001635	0.001705	28.0799	0.109931	0.001947	56.4714	38.1794	-166.712	-0.015566	0.312772	-1.421996	-1.423253	-0.009620	56.4714	-1.421868	-1.011852E+19	9.507045E-22	NaN
317	1.000000	0.326047	7.36817e+06	-54489.1	955.818	-29743.1	0.000000	0.000000	6.326854	0.038879	NaN	0.000000	0.001604	0.001686	28.0797	0.045998	0.001925	23.8924	95.6365	-168.741	0.012096	0.324731	-1.409978	-1.411293	0.038879	23.8924	-1.411198	-7.291622E+18	-5.332037E-21	NaN
317	1.000000	0.338077	7.36817e+06	-54489.1	955.819	-29743.1	0.000000	0.000000	6.338882	-0.004872	NaN	0.000000	0.001612	0.001689	28.0795	0.070087	0.002109	33.2374	20.7144	-165.699	-0.065613	0.336795	-1.397948	-1.399230	-0.004872	33.2374	-1.397838	-4.837542E+18	1.007169E-21	NaN
317	1.000000	0.350082	7.36817e+06	-54489.1	955.818	-29743.1	0.000000	0.000000	6.350888	0.010526	NaN	0.000000	0.001626	0.001673	28.0797	0.111139	0.002007	55.3788	-129.402	-163.62	0.028045	0.348818	-1.385942	-1.387207	0.010526	55.3788	-1.386085	-3.371564E+18	-3.122047E-21	NaN
317	1.000000	0.362070	7.36817e+06	-54489.1	955.819	-29743.1	0.000000	0.000000	6.362876	0.012531	NaN	0.000000	0.001638	0.001721	28.0796	0.088777	0.002038	43.5683	-73.6299	-165.867	0.003079	0.360735	-1.373955	-1.375290	0.012531	43.5683	-1.374171	-2.338036E+18	-5.359479E-21	NaN
317	1.000000	0.374084	7.36817e+06	-54489.1	955.819	-29743.1	0.000000	0.000000	6.374888	-0.031510	NaN	0.000000	0.001641	0.001726	28.0797	0.177869	0.002169	82.012	-175.235	-168.543	0.008475	0.372822	-1.361941	-1.363202	-0.031510	82.012	-1.361653	-1.591433E+18	1.979950E-20	NaN
317	1.000000	0.386058	7.36817e+06	-54489.1	955.818	-29743.1	0.000000	0.000000	6.386861	-0.061750	NaN	0.000000	0.001651	0.001712	28.0796	0.014604	0.002125	6.873221	159.14	-167.053	0.008268	0.384753	-1.349966	-1.351272	-0.061750	6.873221	-1.343228	-9.032699E+17	6.836310E-20	NaN
317	1.000000	0.398085	7.36817e+06	-54489.1	955.819	-29743.1	0.000000	0.000000	6.398889	-0.023009	NaN	0.000000	0.001587	0.001699	28.0798	0.143188	0.002043	70.0739	-33.6979	-166.084	-0.048359	0.396775	-1.337940	-1.339250	-0.023009	70.0739	-1.337694	-7.619267E+17	3.019808E-20	NaN
317	1.000000	0.410074	7.36817e+06	-54489.1	955.819	-29743.1	0.000000	0.000000	6.410878	-0.045103	NaN	0.000000	0.001623	0.001697	28.0795	0.081996	0.001989	41.225	-38.8918	-164.545	-0.068790	0.408790	-1.325951	-1.327235	-0.045103	41.225	-1.325130	-5.177608E+17	8.711155E-20	NaN
317	1.000000	0.422079	7.36817e+06	-54489.1	955.817	-29743.1	0.000000	0.000000	6.422884	-0.000605	NaN	0.000000	0.001632	0.001698	28.0795	0.029190	0.001984	14.7112	-108.28	-166.678	-0.008244	0.420834	-1.313946	-1.315191	-0.000605	14.7112	-1.313915	-3.667096E+17	1.649135E-21	NaN
317	1.000000	0.434122	7.36817e+06	-54489.1	955.819	-29743.1	0.000000	0.000000	6.434929	0.047800	NaN	0.000000	0.001638	0.001730	28.0783	0.039055	0.001930	20.2328	130.64	-164.245	0.085571	0.432792	-1.301903	-1.303233	0.047800	20.2328	-1.303675	-2.676072E+17	-1.786213E-19	NaN
317	1.000000	0.446120	7.36817e+06	-54489.1	955.818	-29743.1	0.000000	0.000000	6.446926	0.001686	NaN	0.000000	0.001649	0.001714	28.0783	0.101555	0.002011	50.4971	-145.493	-165.504	-0.001842	0.444783	-1.289904	-1.291241	0.001686	50.4971	-1.289929	-1.753120E+17	-9.619932E-21	NaN
317	1.000000	0.458111	7.36817e+06	-54489.1	955.819	-29743.1	0.000000	0.000000	6.458914	-0.058117	NaN	0.000000	0.001591	0.001734	28.0783	0.046042	0.001932	23.8335	35.7518	-166.533	-0.006918	0.456788	-1.277914	-1.279237	-0.058117	23.8335	-1.276085	-1.144849E+17	5.076399E-19	NaN
317	1.000000	0.470104	7.36817e+06	-54489.1	955.818	-29743.1	0.000000	0.000000	6.470910	0.020860	NaN	0.000000	0.001693	0.001717	28.0784	0.040390	0.001980	20.3987	107.389	-160.371	-0.024108	0.468843	-1.265921	-1.267182	0.020860	20.3987	-1.266688	-8.572366E+16	-2.433346E-19	NaN
317	1.000000	0.482152	7.36817e+06	-54489.1	955.818	-29743.1	0.000000	0.000000	6.482957	-0.007076	NaN	0.000000	0.001673	0.001715	28.0783	0.079440	0.002167	36.6507	72.2425	-167.226	-0.056564	0.480816	-1.253873	-1.255209	-0.007076	36.6507	-1.253728	-5.751625E+16	1.230227E-19	NaN
317	1.000000	0.494152	7.36817e+06	-54489.1	955.819	-29743.1	0.000000	0.000000	6.494958	0.032758	NaN	0.000000	0.001660	0.001694	28.0788	0.102613	0.001994	51.4688	-99.6565	-166.008	0.042336	0.492845	-1.241873	-1.243180	0.032758	51.4688	-1.242351	-4.051263E+16	-8.085975E-19	NaN
317	1.000000	0.506146	7.36817e+06	-54489.1	955.819	-29743.1	0.000000	0.000000	6.506949	-0.058045	NaN	0.000000	0.001645	0.001702	28.0787	0.101302	0.002061	49.1551	145.149	-164.491	-0.049175	0.504804	-1.229879	-1.231221	-0.058045	49.1551	-1.228993	-2.684510E+16	2.162203E-18	NaN
317	1.000000	0.518121	7.36817e+06	-54489.1	955.817	-29743.1	0.000000	0.000000	6.518926	-0.011561	NaN	0.000000	0.001635	0.001728	28.0786	0.075902	0.002054	36.9534	44.6843	-164.937	-0.040864	0.516811	-1.217904	-1.219214	-0.011561	36.9534	-1.217669	-1.893688E+16	6.105044E-19	NaN
317	1.000000	0.530178	7.36817e+06	-54489.1	955.817	-29743.1	0.000000	0.000000	6.530979	-0.105775	NaN	0.000000	0.001672	0.001710	28.0783	0.057365	0.002000	28.6879	-22.0752	-167.679	-0.046696	0.528810	-1.205847	-1.207215	-0.105775	28.6879	-1.203082	-1.207846E+16	8.757321E-18	NaN
317	1.000000	0.542155	7.36817e+06	-54489.1	955.818	-29743.1	0.000000	0.000000	6.542959	-0.017607	NaN	0.000000	0.001637	0.001716	28.0786	0.214755	0.002095	102.527	102.277	-163.976	-0.071707	0.540878	-1.193870	-1.195147	-0.017607	102.527	-1.193741	-9.055907E+15	1.944222E-18	NaN
317	1.000000	0.554157	7.36817e+06	-54489.1	955.818	-29743.1	0.000000	0.000000	6.554963	0.020604	NaN	0.000000	0.001626	0.001743	28.0785	0.064141	0.002131	30.0942	42.6441	-163.194	0.099232	0.552843	-1.181868	-1.183182	0.020604	30.0942	-1.182381	-6.379266E+15	-3.229784E-18	NaN
317	1.000000	0.566152	7.36817e+06	-54489.1	955.818	-29743.1	0.000000	0.000000	6.566957	-0.025423	NaN	0.000000	0.001673	0.001728	28.0785	0.108856	0.001948	55.8928	28.6785	-167.023	-0.009636	0.564888	-1.169872	-1.171137	-0.025423	55.8928	-1.169531	-4.291469E+15	5.923972E-18	NaN
317	1.000000	0.578168	7.36817e+06	-54489.1	955.818	-29743.1	0.000000	0.000000	6.578971	-0.047441	NaN	0.000000	0.001644	0.001698	28.08	0.054307	0.002066	26.2886	-130.447	-166.062	-0.069661	0.576854	-1.157857	-1.159171	-0.047441	26.2886	-1.156503	-2.870791E+15	1.652537E-17	NaN
317	1.000000	0.590161	7.36817e+06	-54489.1	955.818	-29743.1	0.000000	0.000000	6.590967	0.006806	NaN	0.000000	0.001655	0.001710	28.0797	0.066734	0.002024	32.9669	-147.467	-170.414	-0.041215	0.588852	-1.145864	-1.147172	0.006806	32.9669	-1.146018	-2.077006E+15	-3.276673E-18	NaN
317	1.000000	0.602197	7.36817e+06	-54489.1	955.819	-29743.1	0.000000	0.000000	6.603003	0.024707	NaN	0.000000	0.001616	0.001701	28.0797	0.068662	0.001926	35.6586	63.2053	-165.496	-0.039874	0.600880	-1.133828	-1.135145	0.024707	35.6586	-1.134347	-1.448545E+15	-1.705651E-17	NaN
317	1.000000	0.614205	7.36817e+06	-54489.1	955.819	-29743.1	0.000000	0.000000	6.615010	-0.026680	NaN	0.000000	0.001590	0.001677	28.0797	0.056016	0.001899	29.4967	-78.4734	-162.094	-0.027176	0.612889	-1.121819	-1.123135	-0.026680	29.4967	-1.121141	-9.633413E+14	2.769512E-17	NaN
317	1.000000	0.626176	7.36817e+06	-54489.1	955.818	-29743.1	0.000000	0.000000	6.626980	-0.038305	NaN	0.000000	0.001612	0.001696	28.0797	0.079206	0.001957	40.4782	50.551	-162.463	0.037522	0.624905	-1.109849	-1.111119	-0.038305	40.4782	-1.109139	-6.648646E+14	5.761305E-17	NaN
317	1.000000	0.638210	7.36817e+06	-54489.1	955.818	-29743.1	0.000000	0.000000	6.639017	0.027847	NaN	0.000000	0.001603	0.001656	28.0796	0.063259	0.002000	31.6336	65.1822	-167.891	0.030057	0.636882	-1.097814	-1.099142	0.027847	31.6336	-1.098475	-4.781796E+14	-5.823618E-17	NaN
317	1.000000	0.650202	7.36817e+06	-54489.1	955.819	-29743.1	0.000000	0.000000	6.651002	-0.109362	NaN	0.000000	0.001598	0.001690	28.0798	0.062409	0.002113	29.5319	176.79	-169.72	-0.093020	0.648887	-1.085823	-1.087138	-0.109362	29.5319	-1.083046	-2.967737E+14	3.685044E-16	NaN
317	1.000000	0.662190	7.36817e+06	-54489.1	955.819	-29743.1	0.000000	0.000000	6.662995	0.002751	NaN	0.000000	0.001597	0.001744	28.0799	0.059731	0.001918	31.1497	-168.153	-167.084	-0.046321	0.660898	-1.073835	-1.075127	0.002751	31.1497	-1.073901	-2.236653E+14	-1.230180E-17	NaN
317	1.000000	0.674232	7.36817e+06	-54489.1	955.818	-29743.1	0.000000	0.000000	6.675036	-0.031388	NaN	0.000000	0.001550	0.001672	28.0797	0.102515	0.002040	50.257	-100.065	-166.045	0.025401	0.672906	-1.061792	-1.063118	-0.031388	50.257	-1.061324	-1.515701E+14	2.070880E-16	NaN
317	1.000000	0.686193	7.36817e+06	-54489.1	955.818	-29743.1	0.000000	0.000000	6.686997	-0.023858	NaN	0.000000	0.001582	0.001680	28.0798	0.099672	0.001883	52.9421	65.224	-163.015	0.023360	0.684949	-1.049832	-1.051076	-0.023858	52.9421	-1.049494	-1.051022E+14	2.269945E-16	NaN
317	1.000000	0.698218	7.36817e+06	-54489.1	955.818	-29743.1	0.000000	0.000000	6.699022	-0.044544	NaN	0.000000	0.001614	0.001689	28.0796	0.071368	0.001971	36.208	-134.492	-165.927	-0.068744	0.696892	-1.037806	-1.039132	-0.044544	36.208	-1.036884	-7.113153E+13	6.262171E-16	NaN
317	1.000000	0.710227	7.36817e+06	-54489.1	955.818	-29743.1	0.000000	0.000000	6.711031	-0.031398	NaN	0.000000	0.001618	0.001700	28.0783	0.126313	0.002077	60.8015	32.2329	-168.733	-0.054632	0.708933	-1.025798	-1.027091	-0.031398	60.8015	-1.025410	-4.985863E+13	6.297313E-16	NaN
317	1.000000	0.722207	7.36817e+06	-54489.1	955.818	-29743.1	0.000000	0.000000	6.723015	0.049150	NaN	0.000000	0.001640	0.001695	28.0782	0.094242	0.002028	46.4799	11.3152	-167.13	0.095844	0.720939	-1.013817	-1.015086	0.049150	46.4799	-1.014610	-3.568048E+13	-1.377516E-15	NaN
317	1.000000	0.734212	7.36817e+06	-54489.1	955.818	-29743.1	0.000000	0.000000	6.735019	0.056445	NaN	0.000000	0.001641	0.001706	28.078	0.061664	0.001998	30.8561	-94.8633	-163.028	0.042626	0.732907	-1.001813	-1.003117	0.056445	30.8561	-1.003185	-2.504081E+13	-2.254128E-15	NaN
317	1.000000	0.746233	7.36817e+06	-54489.1	955.818	-29743.1	0.000000	0.000000	6.747038	-0.005997	NaN	0.000000	0.001645	0.001695	28.0782	0.016701	0.002003	8.339865	-146.326	-161.819	0.001798	0.744885	-0.989792	-0.991140	-0.005997	8.339865	-0.989252	-1.625713E+13	3.688609E-16	NaN
317	1.000000	0.758244	7.36817e+06	-54489.1	955.819	-29743.1	0.000000	0.000000	6.759049	0.004689	NaN	0.000000	0.001623	0.001663	28.0783	0.069299	0.002060	33.6353	-86.8942	-166.978	-0.035920	0.756898	-0.977781	-0.979127	0.004689	33.6353	-0.977886	-1.142678E+13	-4.103447E-16	NaN
317	1.000000	0.770244	7.36817e+06	-54489.1	955.818	-29743.1	0.000000	0.000000	6.771050	0.029016	NaN	0.000000	0.001639	0.001667	28.0782	0.039971	0.002108	18.9602	99.9098	-164.499	0.011023	0.768966	-0.965781	-0.967058	0.029016	18.9602	-0.966929	-8.133389E+12	-3.567566E-15	NaN
317	1.000000	0.782255	7.36817e+06	-54489.1	955.818	-29743.1	0.000000	0.000000	6.783058	-0.057618	NaN	0.000000	0.001592	0.001653	28.0782	0.057013	0.001953	29.1986	83.2386	-163.946	-0.080480	0.780974	-0.953770	-0.955051	-0.057618	29.1986	-0.952290	-5.163025E+12	1.115968E-14	NaN
317	1.000000	0.794276	7.36817e+06	-54489.1	955.818	-29743.1	0.000000	0.000000	6.795083	0.029871	NaN	0.000000	0.001599	0.001678	28.0783	0.057668	0.001868	30.8648	107.619	-167.432	0.036014	0.792975	-0.941749	-0.943049	0.029871	30.8648	-0.942475	-3.806455E+12	-7.847563E-15	NaN
317	1.000000	0.806260	7.36817e+06	-54489.1	955.819	-29743.1	0.000000	0.000000	6.807066	0.026273	NaN	0.000000	0.001603	0.001688	28.0783	0.039873	0.002037	19.5751	157.338	-165.187	-0.001522	0.804983	-0.929765	-0.931042	0.026273	19.5751	-0.930772	-2.646142E+12	-9.928710E-15	NaN
317	1.000000	0.818263	7.36817e+06	-54489.1	955.818	-29743.1	0.000000	0.000000	6.819068	-0.003888	NaN	0.000000	0.001576	0.001676	28.0782	0.029300	0.002031	14.4259	-122.279	-165.148	0.030593	0.816949	-0.917762	-0.919076	-0.003888	14.4259	-0.917560	-1.754909E+12	2.215765E-15	NaN
317	1.000000	0.830293	7.36817e+06	-54489.1	955.818	-29743.1	0.000000	0.000000	6.831098	-0.004384	NaN	0.000000	0.001556	0.001652	28.0781	0.106875	0.001888	56.6213	-8.405464	-166.373	-0.071573	0.828968	-0.905732	-0.907056	-0.004384	56.6213	-0.905674	-1.212615E+12	3.615342E-15	NaN
317	1.000000	0.842320	7.36817e+06	-54489.1	955.818	-29743.1	0.000000	0.000000	6.843124	-0.028758	NaN	0.000000	0.001569	0.001672	28.0796	0.078983	0.002085	37.882	-50.0301	-165.185	-0.011090	0.841000	-0.893705	-0.895025	-0.028758	37.882	-0.893136	-8.209212E+11	3.503080E-14	NaN
317	1.000000	0.854298	7.36817e+06	-54489.1	955.818	-29743.1	0.000000	0.000000	6.855103	-0.010360	NaN	0.000000	0.001626	0.001631	28.0796	0.086457	0.002048	42.211	176.175	-168.457	-0.041053	0.852962	-0.881727	-0.883063	-0.010360	42.211	-0.881543	-5.722280E+11	1.810390E-14	NaN
317	1.000000	0.866296	7.36817e+06	-54489.1	955.819	-29743.1	0.000000	0.000000	6.867101	-0.006192	NaN	0.000000	0.001601	0.001681	28.0794	0.038267	0.001979	19.3336	101.629	-167.893	-0.009455	0.865003	-0.869729	-0.871022	-0.006192	19.3336	-0.869488	-3.931186E+11	1.575037E-14	NaN
317	1.000000	0.878279	7.36817e+06	-54489.1	955.819	-29743.1	0.000000	0.000000	6.879086	0.049928	NaN	0.000000	0.001645	0.001662	28.0796	0.029990	0.001920	15.6238	148.31	-163.384	0.098149	0.877002	-0.857746	-0.859023	0.049928	15.6238	-0.860142	-2.937982E+11	-1.699389E-13	NaN
317	1.000000	0.890303	7.36817e+06	-54489.1	955.817	-29743.1	0.000000	0.000000	6.891107	-0.033270	NaN	0.000000	0.001635	0.001647	28.0795	0.044938	0.001825	24.6227	125.669	-167.359	-0.088319	0.888980	-0.845722	-0.847045	-0.033270	24.6227	-0.844708	-1.815812E+11	1.832215E-13	NaN
317	1.000000	0.902305	7.36817e+06	-54489.1	955.819	-29743.1	0.000000	0.000000	6.903110	-0.017721	NaN	0.000000	0.001712	0.001656	28.0793	0.051302	0.001941	26.4348	-154.46	-167.728	-0.103612	0.901038	-0.833719	-0.834986	-0.017721	26.4348	-0.833217	-1.268759E+11	1.396753E-13	NaN
317	1.000000	0.914295	7.36817e+06	-54489.1	955.819	-29743.1	0.000000	0.000000	6.915100	-0.020018	NaN	0.000000	0.001691	0.001640	28.0794	0.097516	0.001993	48.9358	12.4345	-164.063	0.004040	0.913002	-0.821730	-0.823022	-0.020018	48.9358	-0.821423	-8.780230E+10	2.279914E-13	NaN
317	1.000000	0.926324	7.36817e+06	-54489.1	955.818	-29743.1	0.000000	0.000000	6.927129	-0.002141	NaN	0.000000	0.001701	0.001646	28.0794	0.191981	0.002132	90.0546	174.186	-164.057	-0.072799	0.925066	-0.809701	-0.810958	-0.002141	90.0546	-0.809683	-6.085177E+10	3.517672E-14	NaN
317	1.000000	0.938312	7.36817e+06	-54489.1	955.818	-29743.1	0.000000	0.000000	6.939120	0.043295	NaN	0.000000	0.001706	0.001646	28.0796	0.035177	0.001875	18.7587	-40.3122	-165.698	-0.047932	0.937029	-0.797712	-0.798995	0.043295	18.7587	-0.799443	-4.418809E+10	-9.797832E-13	NaN
317	1.000000	0.950326	7.36817e+06	-54489.1	955.819	-29743.1	0.000000	0.000000	6.951132	-0.001372	NaN	0.000000	0.001678	0.001648	28.0798	0.026406	0.002107	12.533	175.371	-166.997	0.022464	0.949055	-0.785698	-0.786970	-0.001372	12.533	-0.785616	-2.867746E+10	4.783449E-14	NaN
317	1.000000	0.962301	7.36817e+06	-54489.1	955.819	-29743.1	0.000000	0.000000	6.963106	0.004769	NaN	0.000000	0.001611	0.001627	28.0797	0.064281	0.001902	33.7929	110.731	-165.144	-0.003412	0.961004	-0.773724	-0.775021	0.004769	33.7929	-0.773830	-1.983218E+10	-2.404529E-13	NaN
317	1.000000	0.974318	7.36817e+06	-54489.1	955.818	-29743.1	0.000000	0.000000	6.975125	0.026068	NaN	0.000000	0.001619	0.001677	28.0801	0.009968	0.002081	4.790380	97.9536	-168.312	0.056744	0.973068	-0.761706	-0.762957	0.026068	4.790380	-0.765787	-1.541783E+10	-1.690740E-12	NaN
317	1.000000	0.986320	7.36817e+06	-54489.1	955.819	-29743.1	0.000000	0.000000	6.987127	0.039622	NaN	0.000000	0.001615	0.001670	28.0782	0.098784	0.001961	50.3768	-116.043	-164.373	-0.004385	0.985106	-0.749705	-0.750918	0.039622	50.3768	-0.750295	-9.489340E+9	-4.175465E-12	NaN
317	1.000000	0.998317	7.36817e+06	-54489.1	955.818	-29743.1	0.000000	0.000000	6.999122	-0.013780	NaN	0.000000	0.001621	0.001698	28.0782	0.040565	0.001903	21.3171	84.1897	-164.64	0.035644	0.997039	-0.737708	-0.738986	-0.013780	21.3171	-0.737223	-6.298384E+9	2.187917E-12	NaN
317	1.000000	1.010334	7.36817e+06	-54489.1	955.819	-29743.1	0.000000	0.000000	7.011137	-0.047499	NaN	0.000000	0.001625	0.001653	28.0782	0.042838	0.001985	21.5852	23.2936	-167.07	-0.046555	1.009053	-0.725691	-0.726972	-0.047499	21.5852	-0.724041	-4.164603E+9	1.140538E-11	NaN
317	1.000000	1.022352	7.36817e+06	-54489.1	955.819	-29743.1	0.000000	0.000000	7.023156	-0.053688	NaN	0.000000	0.001646	0.001616	28.078	0.027227	0.002032	13.396	-107.03	-165.651	-0.022127	1.021031	-0.713672	-0.714993	-0.053688	13.396	-0.710666	-2.736174E+9	1.962153E-11	NaN
317	1.000000	1.034350	7.36817e+06	-54489.1	955.82	-29743.1	0.000000	0.000000	7.035154	-0.044895	NaN	0.000000	0.001631	0.001659	28.0782	0.049270	0.001949	25.2822	107.699	-166.238	-0.008398	1.033060	-0.701674	-0.702965	-0.044895	25.2822	-0.700343	-1.977929E+9	2.269779E-11	NaN
317	1.000000	1.046384	7.36817e+06	-54489.1	955.82	-29743.1	0.000000	0.000000	7.047190	0.029050	NaN	0.000000	0.001639	0.001678	28.0781	0.036586	0.001894	19.3123	-65.0165	-162.108	-0.016587	1.045039	-0.689641	-0.690985	0.029050	19.3123	-0.690769	-1.463630E+9	-1.984791E-11	NaN
317	1.000000	1.058368	7.36817e+06	-54489.1	955.819	-29743.1	0.000000	0.000000	7.059173	-0.018620	NaN	0.000000	0.001641	0.001654	28.0782	0.003942	0.002072	1.902176	157.586	-165.213	0.055333	1.057088	-0.677656	-0.678937	-0.018620	1.902176	-0.670315	-7.685975E+8	2.422558E-11	NaN
317	1.000000	1.070356	7.36817e+06	-54489.1	955.819	-29743.1	0.000000	0.000000	7.071161	-0.008753	NaN	0.000000	0.001643	0.001621	28.0782	0.022817	0.002121	10.7577	56.402	-165.607	0.012327	1.069005	-0.665668	-0.667020	-0.008753	10.7577	-0.665058	-6.512355E+8	1.344091E-11	NaN
317	1.000000	1.082372	7.36817e+06	-54489.1	955.818	-29743.1	0.000000	0.000000	7.083176	-0.029632	NaN	0.000000	0.001621	0.001662	28.0782	0.056292	0.002076	27.121	-141.159	-165.55	0.028689	1.081127	-0.653653	-0.654898	-0.029632	27.121	-0.652833	-4.428653E+8	6.690954E-11	NaN
317	1.000000	1.094388	7.36817e+06	-54489.1	955.819	-29743.1	0.000000	0.000000	7.095193	-0.011211	NaN	0.000000	0.001659	0.001605	28.0785	0.119200	0.002049	58.1792	136.09	-164.262	0.060114	1.093062	-0.641637	-0.642963	-0.011211	58.1792	-0.641492	-3.095712E+8	3.621321E-11	NaN
317	1.000000	1.106372	7.36817e+06	-54489.1	955.817	-29743.1	0.000000	0.000000	7.107178	0.011580	NaN	0.000000	0.001607	0.001643	28.0783	0.048436	0.002107	22.9886	-82.612	-164.434	-0.006450	1.105018	-0.629653	-0.631006	0.011580	22.9886	-0.630031	-2.155001E+8	-5.373717E-11	NaN
317	1.000000	1.118411	7.36817e+06	-54489.1	955.818	-29743.1	0.000000	0.000000	7.119216	-0.013019	NaN	0.000000	0.001599	0.001621	28.0794	0.137329	0.001934	71.0076	-103.722	-167.209	-0.016755	1.117128	-0.617614	-0.618897	-0.013019	71.0076	-0.617476	-1.448568E+8	8.987545E-11	NaN
317	1.000000	1.130391	7.36817e+06	-54489.1	955.819	-29743.1	0.000000	0.000000	7.131194	-0.047943	NaN	0.000000	0.001594	0.001621	28.0794	0.037675	0.001930	19.5189	-80.8105	-164.017	0.023498	1.129017	-0.605634	-0.607008	-0.047943	19.5189	-0.603792	-9.390133E+7	5.105704E-10	NaN
317	1.000000	1.142367	7.36817e+06	-54489.1	955.82	-29743.1	0.000000	0.000000	7.143171	-0.036904	NaN	0.000000	0.001612	0.001645	28.0795	0.033424	0.002115	15.8009	-162.951	-167.783	-0.012168	1.141070	-0.593658	-0.594955	-0.036904	15.8009	-0.591906	-6.440902E+7	5.729614E-10	NaN
317	1.000000	1.154400	7.36817e+06	-54489.1	955.82	-29743.1	0.000000	0.000000	7.155206	0.007788	NaN	0.000000	0.001622	0.001624	28.0796	0.035674	0.001997	17.8654	55.7863	-163.667	-0.004824	1.153126	-0.581625	-0.582898	0.007788	17.8654	-0.581952	-4.695261E+7	-1.658694E-10	NaN
317	1.000000	1.166394	7.36817e+06	-54489.1	955.819	-29743.1	0.000000	0.000000	7.167200	0.003805	NaN	0.000000	0.001628	0.001593	28.0796	0.105807	0.002014	52.5382	106.356	-163.117	0.047606	1.165082	-0.569631	-0.570942	0.003805	52.5382	-0.569685	-3.178907E+7	-1.196855E-10	NaN
317	1.000000	1.178411	7.36817e+06	-54489.1	955.818	-29743.1	0.000000	0.000000	7.179220	0.088697	NaN	0.000000	0.001581	0.001633	28.0798	0.036790	0.001978	18.602	153.653	-164.528	0.108116	1.177076	-0.557614	-0.558949	0.088697	18.602	-0.561190	-2.425697E+7	-3.656570E-9	NaN
317	1.000000	1.190411	7.36817e+06	-54489.1	955.819	-29743.1	0.000000	0.000000	7.191213	-0.072425	NaN	0.000000	0.001614	0.001644	28.0794	0.080096	0.001925	41.6027	90.4179	-168.481	-0.040961	1.189123	-0.545614	-0.546902	-0.072425	41.6027	-0.544308	-1.416083E+7	5.114442E-9	NaN
317	1.000000	1.202418	7.36817e+06	-54489.1	955.818	-29743.1	0.000000	0.000000	7.203223	-0.003966	NaN	0.000000	0.001636	0.001635	28.0797	0.103898	0.002067	50.2758	-53.3393	-164.114	-0.022987	1.201105	-0.533607	-0.534920	-0.003966	50.2758	-0.533548	-1.004237E+7	3.949698E-10	NaN
317	1.000000	1.214424	7.36817e+06	-54489.1	955.819	-29743.1	0.000000	0.000000	7.215230	-0.002414	NaN	0.000000	0.001627	0.001620	28.0795	0.044025	0.002016	21.8409	67.1229	-165.361	0.017350	1.213118	-0.521600	-0.522906	-0.002414	21.8409	-0.521518	-6.8344e+06	3.532386E-10	NaN
317	1.000000	1.226400	7.36817e+06	-54489.1	955.82	-29743.1	0.000000	0.000000	7.227207	0.040385	NaN	0.000000	0.001577	0.001617	28.0795	0.008489	0.001868	4.543745	27.7207	-163.916	0.011731	1.225140	-0.509625	-0.510884	0.040385	4.543745	-0.516291	-5.78091e+06	-6.985960E-9	NaN
317	1.000000	1.238432	7.36817e+06	-54489.1	955.819	-29743.1	0.000000	0.000000	7.239234	-0.072766	NaN	0.000000	0.001642	0.001634	28.0796	0.023814	0.001875	12.7042	-54.6076	-168.743	-0.084292	1.237151	-0.497593	-0.498873	-0.072766	12.7042	-0.493297	-2.76349e+06	2.633115E-8	NaN
317	1.000000	1.250439	7.36817e+06	-54489.1	955.819	-29743.1	0.000000	0.000000	7.251243	-0.014737	NaN	0.000000	0.001643	0.001634	28.0787	0.047255	0.002137	22.1089	95.1676	-164.998	-0.067578	1.249133	-0.485586	-0.486892	-0.014737	22.1089	-0.485086	-2.12176e+06	6.945664E-9	NaN
317	1.000000	1.262468	7.36817e+06	-54489.1	955.818	-29743.1	0.000000	0.000000	7.263274	0.002306	NaN	0.000000	0.001635	0.001603	28.0785	0.039874	0.001931	20.6451	-124.545	-169.483	0.026603	1.261116	-0.473556	-0.474909	0.002306	20.6451	-0.473640	-1.46705e+06	-1.571620E-9	NaN
317	1.000000	1.274421	7.36817e+06	-54489.1	955.819	-29743.1	0.000000	0.000000	7.275228	0.041975	NaN	0.000000	0.001637	0.001610	28.0783	0.008125	0.001922	4.228187	-166.407	-163.235	0.009186	1.273192	-0.461604	-0.462833	0.041975	4.228187	-0.469049	-1.26495e+06	-3.318285E-8	NaN
317	1.000000	1.286473	7.36817e+06	-54489.1	955.819	-29743.1	0.000000	0.000000	7.287277	-0.024901	NaN	0.000000	0.001610	0.001659	28.0783	0.085108	0.001971	43.1885	67.4818	-166.971	-0.068998	1.285111	-0.449552	-0.450914	-0.024901	43.1885	-0.449120	-663660	3.752103E-8	NaN
317	1.000000	1.298453	7.36817e+06	-54489.1	955.818	-29743.1	0.000000	0.000000	7.299258	-0.007678	NaN	0.000000	0.001624	0.001657	28.0781	0.032757	0.002171	15.0894	29.7504	-163.789	-0.050956	1.297171	-0.437572	-0.438854	-0.007678	15.0894	-0.437190	-450497	1.704236E-8	NaN
317	1.000000	1.310489	7.36817e+06	-54489.1	955.818	-29743.1	0.000000	0.000000	7.311292	-0.054239	NaN	0.000000	0.001592	0.001638	28.0779	0.020150	0.001867	10.791	-31.3085	-165.772	0.063339	1.309137	-0.425535	-0.426888	-0.054239	10.791	-0.421766	-272553	1.990027E-7	NaN
317	1.000000	1.322481	7.36817e+06	-54489.1	955.819	-29743.1	0.000000	0.000000	7.323288	0.037100	NaN	0.000000	0.001631	0.001635	28.0781	0.126805	0.002115	59.9671	-131.743	-165.896	0.056889	1.321164	-0.413544	-0.414860	0.037100	59.9671	-0.414008	-211527	-1.753910E-7	NaN
317	1.000000	1.334485	7.36817e+06	-54489.1	955.819	-29743.1	0.000000	0.000000	7.335291	0.035545	NaN	0.000000	0.001603	0.001690	28.078	0.057565	0.002101	27.3964	-153.984	-164.727	-0.014770	1.333150	-0.401540	-0.402874	0.035545	27.3964	-0.402513	-145152	-2.448791E-7	NaN
317	1.000000	1.346494	7.36817e+06	-54489.1	955.818	-29743.1	0.000000	0.000000	7.347300	0.014277	NaN	0.000000	0.001616	0.001681	28.078	0.066104	0.002037	32.4521	52.3117	-166.237	0.034366	1.345169	-0.389531	-0.390855	0.014277	32.4521	-0.389861	-95758	-1.490971E-7	NaN
317	1.000000	1.358478	7.36817e+06	-54489.1	955.817	-29743.1	0.000000	0.000000	7.359284	0.035517	NaN	0.000000	0.001611	0.001661	28.0782	0.065969	0.001980	33.3227	30.044	-170.135	0.055020	1.357205	-0.377547	-0.378820	0.035517	33.3227	-0.378346	-65486.5	-5.423508E-7	NaN
317	1.000000	1.370480	7.36817e+06	-54489.1	955.818	-29743.1	0.000000	0.000000	7.371286	0.010890	NaN	0.000000	0.001606	0.001681	28.0782	0.108613	0.002142	50.7039	80.9557	-167.279	0.026673	1.369229	-0.365545	-0.366796	0.010890	50.7039	-0.365706	-43076.1	-2.528170E-7	NaN
317	1.000000	1.382489	7.36817e+06	-54489.1	955.818	-29743.1	0.000000	0.000000	7.383296	0.051591	NaN	0.000000	0.001599	0.001679	28.0784	0.077001	0.001867	41.2436	-53.5552	-165.063	0.060513	1.381152	-0.353536	-0.354872	0.051591	41.2436	-0.354474	-29640.1	-1.740580E-6	NaN
317	1.000000	1.394502	7.36817e+06	-54489.1	955.816	-29743.1	0.000000	0.000000	7.395306	-0.031825	NaN	0.000000	0.001619	0.001645	28.0792	0.015112	0.002015	7.499788	84.6448	-165.341	-0.069333	1.393253	-0.341523	-0.342771	-0.031825	7.499788	-0.338340	-17272.4	1.842524E-6	NaN
317	1.000000	1.406499	7.36817e+06	-54489.1	955.817	-29743.1	0.000000	0.000000	7.407303	-0.019073	NaN	0.000000	0.001612	0.001652	28.0793	0.042561	0.001996	21.3249	38.7815	-169.207	-0.064196	1.405204	-0.329526	-0.330821	-0.019073	21.3249	-0.328855	-12551.1	1.519643E-6	NaN
317	1.000000	1.418514	7.36817e+06	-54489.1	955.818	-29743.1	0.000000	0.000000	7.419320	0.022289	NaN	0.000000	0.001601	0.001622	28.0797	0.042925	0.002045	20.9904	136.838	-164.196	0.006682	1.417210	-0.317511	-0.318815	0.022289	20.9904	-0.318307	-8784.36	-2.537357E-6	NaN
317	1.000000	1.430508	7.36817e+06	-54489.1	955.818	-29743.1	0.000000	0.000000	7.431313	0.005918	NaN	0.000000	0.001608	0.001671	28.0792	0.094892	0.002089	45.432	169.353	-165.221	0.053886	1.429175	-0.305517	-0.306850	0.005918	45.432	-0.305615	-5702.65	-1.037703E-6	NaN
317	1.000000	1.442535	7.36817e+06	-54489.1	955.817	-29743.1	0.000000	0.000000	7.443341	0.015180	NaN	0.000000	0.001636	0.001666	28.0794	0.025714	0.001998	12.8717	-37.0643	-166.424	0.066523	1.441213	-0.293490	-0.294811	0.015180	12.8717	-0.294375	-3879.26	-3.913096E-6	NaN
317	1.000000	1.454516	7.36817e+06	-54489.1	955.818	-29743.1	0.000000	0.000000	7.455323	0.036613	NaN	0.000000	0.001630	0.001642	28.0792	0.079067	0.002062	38.3445	-37.067	-166.529	-0.011404	1.453272	-0.281508	-0.282753	0.036613	38.3445	-0.282224	-2549.77	-1.435947E-5	NaN
317	1.000000	1.466531	7.36817e+06	-54489.1	955.818	-29743.1	0.000000	0.000000	7.467336	-0.017451	NaN	0.000000	0.001651	0.001670	28.0794	0.064911	0.001990	32.617	176.819	-165.413	-0.038334	1.465229	-0.269493	-0.270796	-0.017451	32.617	-0.269092	-1613.39	1.081644E-5	NaN
317	1.000000	1.478559	7.36817e+06	-54489.1	955.817	-29743.1	0.000000	0.000000	7.479365	0.007100	NaN	0.000000	0.001607	0.001625	28.0798	0.043623	0.001901	22.9453	-60.5015	-167.963	0.037791	1.477203	-0.257465	-0.258822	0.007100	22.9453	-0.257697	-1080.42	-6.571179E-6	NaN
317	1.000000	1.490540	7.36817e+06	-54489.1	955.818	-29743.1	0.000000	0.000000	7.491345	-0.000910	NaN	0.000000	0.001620	0.001599	28.0795	0.045691	0.001914	23.8743	-162.983	-165.105	0.024320	1.489257	-0.245485	-0.246767	-0.000910	23.8743	-0.245456	-699.106	1.301328E-6	NaN
317	1.000000	1.502528	7.36817e+06	-54489.1	955.819	-29743.1	0.000000	0.000000	7.503333	-0.013685	NaN	0.000000	0.001608	0.001660	28.0794	0.071646	0.002062	34.7515	-122.839	-164.675	-0.028595	1.501262	-0.233496	-0.234763	-0.013685	34.7515	-0.233201	-449.752	3.042864E-5	NaN
317	1.000000	1.514554	7.36817e+06	-54489.1	955.818	-29743.1	0.000000	0.000000	7.515360	0.009068	NaN	0.000000	0.001591	0.001621	28.0793	0.064454	0.001919	33.5885	-11.3556	-168.925	0.018295	1.513213	-0.221470	-0.222812	0.009068	33.5885	-0.221673	-295.38	-3.069778E-5	NaN
317	1.000000	1.526594	7.36817e+06	-54489.1	955.818	-29743.1	0.000000	0.000000	7.527401	0.037660	NaN	0.000000	0.001623	0.001641	28.0784	0.047725	0.002051	23.2654	96.1045	-165.685	0.006826	1.525255	-0.209431	-0.210770	0.037660	23.2654	-0.210645	-196.453	-0.000192	NaN
317	1.000000	1.538568	7.36817e+06	-54489.1	955.819	-29743.1	0.000000	0.000000	7.539373	2.050697E-5	NaN	0.000000	0.001605	0.001615	28.0782	0.033965	0.001977	17.1844	87.7141	-163.103	0.084268	1.537234	-0.197457	-0.198791	2.050697E-5	17.1844	-0.197458	-119.629	-1.714218E-7	NaN
317	1.000000	1.550586	7.36817e+06	-54489.1	955.819	-29743.1	0.000000	0.000000	7.551390	-0.037984	NaN	0.000000	0.001573	0.001611	28.078	0.090741	0.001973	45.9917	-148.552	-163.978	0.027251	1.549274	-0.185438	-0.186751	-0.037984	45.9917	-0.184819	-73.6344	0.000516	NaN
317	1.000000	1.562586	7.36817e+06	-54489.1	955.819	-29743.1	0.000000	0.000000	7.563390	-0.032676	NaN	0.000000	0.001578	0.001623	28.0783	0.147212	0.001948	75.5884	-107.627	-163.81	-0.050701	1.561271	-0.173439	-0.174754	-0.032676	75.5884	-0.173115	-46.5074	0.000703	NaN
317	1.000000	1.574584	7.36817e+06	-54489.1	955.819	-29743.1	0.000000	0.000000	7.575390	0.007808	NaN	0.000000	0.001616	0.001577	28.0783	0.071896	0.002003	35.8994	-135.983	-166.387	0.027181	1.573322	-0.161440	-0.162702	0.007808	35.8994	-0.161603	-29.27	-0.000267	NaN
317	1.000000	1.586591	7.36817e+06	-54489.1	955.819	-29743.1	0.000000	0.000000	7.587396	-0.019660	NaN	0.000000	0.001591	0.001654	28.0782	0.008280	0.002020	4.098776	173.433	-170.428	-0.015486	1.585278	-0.149433	-0.150747	-0.019660	4.098776	-0.145836	-15.192	0.001294	NaN
317	1.000000	1.598605	7.36817e+06	-54489.1	955.82	-29743.1	0.000000	0.000000	7.599412	0.039265	NaN	0.000000	0.001637	0.001645	28.0782	0.131312	0.002122	61.8785	-100.313	-169.412	0.036690	1.597285	-0.137419	-0.138740	0.039265	61.8785	-0.137895	-10.797	-0.003637	NaN
317	1.000000	1.610595	7.36817e+06	-54489.1	955.818	-29743.1	0.000000	0.000000	7.611399	-0.027865	NaN	0.000000	0.001642	0.001624	28.0784	0.069218	0.002004	34.5323	-98.492	-165.577	-0.051882	1.609307	-0.125430	-0.126718	-0.027865	34.5323	-0.124825	-6.032860	0.004619	NaN
317	1.000000	1.622577	7.36817e+06	-54489.1	955.819	-29743.1	0.000000	0.000000	7.623382	-0.008177	NaN	0.000000	0.001654	0.001628	28.0781	0.141881	0.001947	72.8874	149.728	-170.325	0.036977	1.621315	-0.113448	-0.114710	-0.008177	72.8874	-0.113364	-3.533892	0.002314	NaN
317	1.000000	1.634606	7.36817e+06	-54489.1	955.819	-29743.1	0.000000	0.000000	7.635410	-0.048438	NaN	0.000000	0.001690	0.001622	28.0784	0.082038	0.001863	44.0312	-98.5345	-164.801	0.025872	1.633342	-0.101418	-0.102683	-0.048438	44.0312	-0.100593	-1.883232	0.025721	NaN
317	1.000000	1.646642	7.36817e+06	-54489.1	955.818	-29743.1	0.000000	0.000000	7.647448	0.004152	NaN	0.000000	0.001685	0.001654	28.0784	0.084201	0.002036	41.3487	60.7411	-166.987	-0.010747	1.645281	-0.089382	-0.090744	0.004152	41.3487	-0.089458	-1.049711	-0.003955	NaN
317	1.000000	1.658611	7.36817e+06	-54489.1	955.819	-29743.1	0.000000	0.000000	7.659416	0.001859	NaN	0.000000	0.001683	0.001633	28.0786	0.041685	0.002093	19.9139	155.261	-166.502	0.000905	1.657323	-0.077414	-0.078702	0.001859	19.9139	-0.077484	-0.534848	-0.003476	NaN
317	1.000000	1.670629	7.36817e+06	-54489.1	955.82	-29743.1	0.000000	0.000000	7.671432	-0.041947	NaN	0.000000	0.001672	0.001606	28.0796	0.021917	0.001855	11.813	26.981	-165.541	-0.031898	1.669344	-0.065396	-0.066681	-0.041947	11.813	-0.062733	-0.215377	0.194759	NaN
317	1.000000	1.682637	7.36817e+06	-54489.1	955.819	-29743.1	0.000000	0.000000	7.683442	0.002019	NaN	0.000000	0.001616	0.001630	28.0795	0.144474	0.001967	73.4454	166.223	-165.667	0.060289	1.681312	-0.053388	-0.054713	0.002019	73.4454	-0.053408	-0.115505	-0.017477	NaN
317	1.000000	1.694632	7.36817e+06	-54489.1	955.819	-29743.1	0.000000	0.000000	7.695438	-0.005378	NaN	0.000000	0.001604	0.001598	28.0794	0.085084	0.001925	44.1911	2.293074	-167.994	-0.020517	1.693303	-0.041392	-0.042722	-0.005378	44.1911	-0.041301	-0.049539	0.108560	NaN
317	1.000000	1.706611	7.36817e+06	-54489.1	955.819	-29743.1	0.000000	0.000000	7.707416	-0.009451	NaN	0.000000	0.001621	0.001648	28.0792	0.017207	0.001892	9.092471	-3.043455	-166.293	0.002393	1.705339	-0.029413	-0.030686	-0.009451	9.092471	-0.028634	-0.021098	0.447967	NaN
317	1.000000	1.718689	7.36817e+06	-54489.1	955.819	-29743.1	0.000000	0.000000	7.719493	-0.042340	NaN	0.000000	0.001609	0.001673	28.0794	0.096818	0.001869	51.8003	2.162879	-164.744	-0.001200	1.717336	-0.017336	-0.018689	-0.042340	51.8003	-0.016723	-0.010334	4.097026	NaN
317	1.000000	1.730683	7.36817e+06	-54489.1	955.82	-29743.1	0.000000	0.000000	7.731489	0.002666	NaN	0.000000	0.001628	0.001635	28.0794	0.028606	0.002108	13.5687	-40.7331	-165.548	0.003527	1.729347	-0.005341	-0.006678	0.002666	13.5687	-0.005489	-0.003722	-0.716442	NaN
317	1.000000	1.742649	7.36817e+06	-54489.1	955.82	-29743.1	0.000000	0.000000	7.743610	3.797096	NaN	0.000000	0.001643	0.001615	28.0792	4.770400	0.001804	2644.53	11.6504	-170.454	2.406715	1.741297	0.006624	0.005272	3.797096	2644.53	0.005547	0.004638	818.675	35477.3
317	2.000000	1.749205	7.36817e+06	-54489.1	955.819	-29743.1	0.000000	0.000000	7.750501	11.9235	NaN	0.000000	0.001639	0.001613	28.0801	10.4957	0.001715	6120.97	7.099008	-173.581	12.1879	1.748912	0.013180	0.012888	11.9235	6120.97	0.011719	0.011156	1068.83	52947.5
317	2.000000	1.752136	7.36817e+06	-54489.1	955.819	-29743.1	0.000000	0.000000	7.753587	15.6824	NaN	0.000000	0.001632	0.001627	28.0794	14.3446	0.001645	8718.63	8.628340	-179.717	14.6832	1.751831	0.016112	0.015807	15.6824	8718.63	0.014763	0.014970	1047.58	65104.2
317	2.000000	1.755133	7.36817e+06	-54489.1	955.819	-29743.1	0.000000	0.000000	7.756728	19.1799	NaN	0.000000	0.001707	0.001623	28.0796	17.3257	0.001668	10387.1	3.252247	-175.302	19.0282	1.754865	0.019108	0.018841	19.1799	10387.1	0.017724	0.019091	1004.68	68684.1
317	2.000000	1.758077	7.36817e+06	-54489.1	955.818	-29743.1	0.000000	0.000000	7.759890	24.4965	NaN	0.000000	0.001727	0.001638	28.0801	20.6709	0.001783	11592.5	3.388511	-176.159	23.7002	1.757814	0.022052	0.021790	24.4965	11592.5	0.020467	0.023282	1052.18	69413.2
317	2.000000	1.761122	7.36817e+06	-54489.1	955.819	-29743.1	0.000000	0.000000	7.763148	29.6709	NaN	0.000000	0.001659	0.001631	28.0781	24.1506	0.001870	12916.6	2.802904	-175.344	29.8361	1.760852	0.025097	0.024827	29.6709	12916.6	0.023374	0.028124	1054.99	70369.1
317	2.000000	1.764141	7.36817e+06	-54489.1	955.819	-29743.1	0.000000	0.000000	7.766547	38.9175	NaN	0.000000	0.001717	0.001674	28.0779	27.0528	0.001749	15464.9	4.025620	-178.221	38.9478	1.763784	0.028116	0.027760	38.9175	15464.9	0.026229	0.033290	1169.06	77440.1
317	2.000000	1.767105	7.36817e+06	-54489.1	955.82	-29743.1	0.000000	0.000000	7.769784	45.5497	NaN	0.000000	0.001710	0.001649	28.0782	29.5726	0.001904	15528.6	4.881657	-178.608	44.001	1.766741	0.031080	0.030716	45.5497	15528.6	0.028880	0.038455	1184.5	72348.7
317	2.000000	1.770049	7.36817e+06	-54489.1	955.82	-29743.1	0.000000	0.000000	7.773046	53.2664	NaN	0.000000	0.001693	0.001674	28.0782	31.4235	0.001744	18018.6	2.825732	-178.787	50.1014	1.769775	0.034024	0.033750	53.2664	18018.6	0.031807	0.044573	1195.04	77975.4
317	2.000000	1.773046	7.36817e+06	-54489.1	955.819	-29743.1	0.000000	0.000000	7.776420	62.4326	NaN	0.000000	0.001673	0.001654	28.0786	33.9473	0.001770	19182.6	3.314856	-179.094	60.8291	1.772785	0.037021	0.036760	62.4326	19182.6	0.034581	0.050774	1229.63	77778.7
317	2.000000	1.776049	7.36817e+06	-54489.1	955.82	-29743.1	0.000000	0.000000	7.779740	70.1344	NaN	0.000000	0.001668	0.001669	28.0784	37.2831	0.001700	21934.1	4.112942	178.254	68.279	1.775728	0.040025	0.039703	70.1344	21934.1	0.037627	0.058039	1208.41	83183
317	2.000000	1.779077	7.36817e+06	-54489.1	955.82	-29743.1	0.000000	0.000000	7.783007	75.9513	NaN	0.000000	0.001689	0.001608	28.0782	40.6526	0.001890	21508.5	4.029402	179.778	76.6177	1.778722	0.043053	0.042697	75.9513	21508.5	0.040404	0.065078	1167.09	77031.3
317	2.000000	1.782066	7.36817e+06	-54489.1	955.819	-29743.1	0.000000	0.000000	7.786479	87.6936	NaN	0.000000	0.001616	0.001621	28.0782	43.3775	0.001763	24606.7	6.202698	176.088	88.5879	1.781656	0.046041	0.045631	87.6936	24606.7	0.043369	0.073024	1200.89	83194.6
317	2.000000	1.785004	7.36817e+06	-54489.1	955.82	-29743.1	0.000000	0.000000	7.789834	97.8375	NaN	0.000000	0.001581	0.001649	28.0782	46.3321	0.001794	25821.6	1.061544	179.58	94.4349	1.784778	0.048979	0.048753	97.8375	25821.6	0.046138	0.080849	1210.12	82969.4
317	2.000000	1.788013	7.36817e+06	-54489.1	955.82	-29743.1	0.000000	0.000000	7.793270	108.226	NaN	0.000000	0.001606	0.001674	28.0789	49.4297	0.001842	26833.3	2.659167	177.694	105.389	1.787748	0.051988	0.051723	108.226	26833.3	0.048963	0.089236	1212.81	82068.8
317	2.000000	1.791062	7.36817e+06	-54489.1	955.82	-29743.1	0.000000	0.000000	7.796975	124.172	NaN	0.000000	0.001615	0.001660	28.0783	52.3612	0.001887	27753.6	4.307315	177.044	124.066	1.790716	0.055037	0.054691	124.172	27753.6	0.051682	0.097683	1271.18	81130.4
317	2.000000	1.794081	7.36817e+06	-54489.1	955.819	-29743.1	0.000000	0.000000	7.800492	136.266	NaN	0.000000	0.001596	0.001632	28.0792	55.4304	0.001941	28558.4	7.569949	173.885	136.229	1.793680	0.058056	0.057655	136.266	28558.4	0.054478	0.106755	1276.44	79857
317	2.000000	1.797139	7.36817e+06	-54489.1	955.819	-29743.1	0.000000	0.000000	7.804135	150.496	NaN	0.000000	0.001605	0.001680	28.0797	58.2218	0.001796	32408.9	5.783399	174.223	153.389	1.796728	0.061115	0.060703	150.496	32408.9	0.057632	0.117454	1281.32	86398.1
317	2.000000	1.800128	7.36817e+06	-54489.1	955.819	-29743.1	0.000000	0.000000	7.807727	165.136	NaN	0.000000	0.001594	0.001647	28.0798	60.3516	0.001786	33799.4	7.227444	172.522	167.621	1.799761	0.064104	0.063736	165.136	33799.4	0.060439	0.127389	1296.31	86520.1
317	2.000000	1.803066	7.36817e+06	-54489.1	955.82	-29743.1	0.000000	0.000000	7.811390	182.767	NaN	0.000000	0.001578	0.001674	28.08	61.9985	0.001703	36412.9	4.516586	174.782	183.132	1.802664	0.067042	0.066640	182.767	36412.9	0.063277	0.137822	1326.11	89612.7
317	2.000000	1.806076	7.36817e+06	-54489.1	955.82	-29743.1	0.000000	0.000000	7.814762	191.581	NaN	0.000000	0.001615	0.001641	28.0797	66.3168	0.001805	36745.5	9.341719	168.963	193.808	1.805770	0.070052	0.069745	191.581	36745.5	0.066141	0.148746	1287.97	87047.1
317	2.000000	1.808991	7.36817e+06	-54489.1	955.819	-29743.1	0.000000	0.000000	7.818491	211.358	NaN	0.000000	0.001612	0.001695	28.0795	68.7662	0.001883	36513.1	6.623409	172.13	211.275	1.808705	0.072967	0.072681	211.358	36513.1	0.068625	0.158541	1333.14	83782.2
317	2.000000	1.812137	7.36817e+06	-54489.1	955.819	-29743.1	0.000000	0.000000	7.821951	219.01	NaN	0.000000	0.001569	0.001650	28.0797	70.7286	0.001852	38180.3	2.340235	175.755	225.418	1.811729	0.076112	0.075704	219.01	38180.3	0.071810	0.171528	1276.81	84225.8
317	2.000000	1.814963	7.36817e+06	-54489.1	955.82	-29743.1	0.000000	0.000000	7.825689	241.175	NaN	0.000000	0.001615	0.001650	28.0795	73.3199	0.001792	40905.3	4.388922	172.709	237.323	1.814670	0.078938	0.078646	241.175	40905.3	0.074516	0.182943	1318.31	87376.7
317	2.000000	1.817994	7.36817e+06	-54489.1	955.821	-29743.1	0.000000	0.000000	7.829473	259.466	NaN	0.000000	0.001600	0.001676	28.0799	76.1138	0.001832	41552.7	3.800239	173.939	258.654	1.817669	0.081969	0.081644	259.466	41552.7	0.077286	0.194984	1330.7	85975.3
317	2.000000	1.821038	7.36817e+06	-54489.1	955.82	-29743.1	0.000000	0.000000	7.833141	274.666	NaN	0.000000	0.001581	0.001684	28.0796	79.2756	0.001746	45403.7	6.989631	170.142	276.419	1.820638	0.085013	0.084613	274.666	45403.7	0.080476	0.209294	1312.34	90674.7
317	2.000000	1.824068	7.36817e+06	-54489.1	955.82	-29743.1	0.000000	0.000000	7.837017	295.205	NaN	0.000000	0.001590	0.001655	28.0797	81.2388	0.001821	44614.3	3.332155	174	298.869	1.823713	0.088043	0.087688	295.205	44614.3	0.083081	0.221331	1333.77	86641.5
317	2.000000	1.827162	7.36817e+06	-54489.1	955.819	-29743.1	0.000000	0.000000	7.840595	306.986	NaN	0.000000	0.001633	0.001648	28.0799	84.5366	0.001819	46477.7	7.056533	169.774	316.876	1.826747	0.091138	0.090722	306.986	46477.7	0.086184	0.236081	1300.34	87395
317	2.000000	1.830021	7.36817e+06	-54489.1	955.819	-29743.1	0.000000	0.000000	7.844248	326.3	NaN	0.000000	0.001601	0.001657	28.0785	86.4882	0.001790	48326.1	9.422635	166.347	325.399	1.829810	0.093996	0.093785	326.3	48326.1	0.088932	0.249514	1307.74	88390.8
317	2.000000	1.832978	7.36817e+06	-54489.1	955.819	-29743.1	0.000000	0.000000	7.848103	348.101	NaN	0.000000	0.001617	0.001639	28.0784	88.6569	0.001870	47406.5	4.644949	172.132	347.805	1.832749	0.096954	0.096724	348.101	47406.5	0.091446	0.262110	1328.07	84599.7
317	2.000000	1.836013	7.36817e+06	-54489.1	955.819	-29743.1	0.000000	0.000000	7.851808	364.406	NaN	0.000000	0.001612	0.001649	28.0782	91.3671	0.001702	53671.6	7.254408	168.405	365.447	1.835704	0.099988	0.099679	364.406	53671.6	0.094896	0.279862	1302.09	92692.8
317	2.000000	1.838913	7.36817e+06	-54489.1	955.819	-29743.1	0.000000	0.000000	7.855392	381.031	NaN	0.000000	0.001600	0.001645	28.0784	94.664	0.001773	53385.8	3.982692	171.275	376.366	1.838650	0.102888	0.102625	381.031	53385.8	0.097535	0.293807	1296.87	89984.6
317	2.000000	1.841907	7.36817e+06	-54489.1	955.82	-29743.1	0.000000	0.000000	7.859345	404.354	NaN	0.000000	0.001591	0.001649	28.079	97.5202	0.001738	56101.8	3.785620	171.814	398.859	1.841681	0.105882	0.105656	404.354	56101.8	0.100477	0.309726	1305.52	92100.2
317	2.000000	1.844997	7.36817e+06	-54489.1	955.82	-29743.1	0.000000	0.000000	7.863397	427.721	NaN	0.000000	0.001581	0.001635	28.0783	102.141	0.001987	51394.5	8.876316	168.291	427.276	1.844508	0.108972	0.108483	427.721	51394.5	0.102731	0.322189	1327.55	82724.5
317	2.000000	1.845915	7.36817e+06	-54489.1	955.819	-29743.1	0.000000	0.000000	7.864238	425.88	NaN	0.000000	0.001605	0.001711	28.0781	100.658	0.001777	56639.4	2.203266	173.019	420.833	1.845656	0.109890	0.109631	425.88	56639.4	0.104250	0.330723	1287.72	89982.8