File: remote_trans/data/nanoindenter/0828-1/data/Data_2025-08-06,11h17m57s/2025-07-22_16-23-58_1_1021.txt
2025-07-22, 16:23:58, 1
Index	Phase	Displacement	Time	Pos X	Pos Y	Pos Z	Rot A	Rot B	Piezo Z	Force A	Force B	Gripper	Voltage A	Voltage B	Temperature	Amplitude force	Amplitude pos	Stiffness	Phase shift	Phase excitation	Force A raw	Displacement raw	HMax	HMax raw	Real Force	Real Stiffness	Contact Depth	Area	Hardness	Reduced Mod.
[#]	[#]	[um]	[s]	[um]	[um]	[um]	[m°]	[m°]	[um]	[uN]	[uN]	[V]	[V]	[V]	[°C]	[uN]	[um]	[N/m]	[°]	[°]	[uN]	[um]	[um]	[um]	[uN]	[N/m]	[um]	[um^2]	[MPa]	[MPa]
1021	1.000000	0.002652	7.37503e+06	-51189.1	1055.82	-29753.1	0.000000	0.000000	6.002824	0.059109	NaN	0.000000	0.001604	0.001705	28.0833	0.098113	0.000941	104.272	-136.73	-168.41	0.011057	0.001402	-1.027084	-1.028335	0.059109	104.272	-1.027510	-5.320862E+13	-1.110893E-15	NaN
1021	1.000000	0.010595	7.37503e+06	-51189.1	1055.82	-29753.1	0.000000	0.000000	6.010766	0.033186	NaN	0.000000	0.001637	0.001719	28.0824	0.075224	0.001010	74.4948	-106.737	-160.52	-0.019267	0.009289	-1.019142	-1.020448	0.033186	74.4948	-1.019476	-4.148651E+13	-7.999151E-16	NaN
1021	1.000000	0.018609	7.37504e+06	-51189.1	1055.82	-29753.1	0.000000	0.000000	6.018779	0.008019	NaN	0.000000	0.001665	0.001696	28.0824	0.050824	0.001668	30.4759	2.852345	-160.869	0.088125	0.017240	-1.011128	-1.012497	0.008019	30.4759	-1.011326	-3.222724E+13	-2.488329E-16	NaN
1021	1.000000	0.026610	7.37504e+06	-51189.1	1055.82	-29753.1	0.000000	0.000000	6.026780	0.003316	NaN	0.000000	0.001645	0.001728	28.082	0.039940	0.001767	22.6027	-146.763	-168.022	-0.020486	0.025313	-1.003126	-1.004424	0.003316	22.6027	-1.003236	-2.508078E+13	-1.322226E-16	NaN
1021	1.000000	0.034581	7.37504e+06	-51189.1	1055.82	-29753.1	0.000000	0.000000	6.034752	0.025806	NaN	0.000000	0.001631	0.001693	28.0811	0.053696	0.001900	28.2538	-23.3399	-164.21	0.094320	0.033334	-0.995156	-0.996403	0.025806	28.2538	-0.995841	-1.994191E+13	-1.294083E-15	NaN
1021	1.000000	0.042551	7.37504e+06	-51189.1	1055.82	-29753.1	0.000000	0.000000	6.042724	0.077473	NaN	0.000000	0.001664	0.001733	28.0813	0.028919	0.001898	15.2399	32.8898	-164.07	0.063632	0.041279	-0.987186	-0.988457	0.077473	15.2399	-0.990999	-1.716168E+13	-4.514276E-15	NaN
1021	1.000000	0.050589	7.37504e+06	-51189.1	1055.82	-29753.1	0.000000	0.000000	6.050761	0.063042	NaN	0.000000	0.001660	0.001714	28.0811	0.058617	0.001938	30.2406	-108.631	-166.5	-0.008708	0.049273	-0.979148	-0.980464	0.063042	30.2406	-0.980711	-1.247366E+13	-5.054019E-15	NaN
1021	1.000000	0.058578	7.37504e+06	-51189.1	1055.82	-29753.1	0.000000	0.000000	6.058751	0.074812	NaN	0.000000	0.001613	0.001747	28.0812	0.097581	0.002117	46.0894	172.121	-167.338	0.071711	0.057306	-0.971158	-0.972431	0.074812	46.0894	-0.972376	-9.631174E+12	-7.767676E-15	NaN
1021	1.000000	0.066584	7.37504e+06	-51189.1	1055.82	-29753.1	0.000000	0.000000	6.066757	0.077693	NaN	0.000000	0.001616	0.001723	28.0812	0.093566	0.001964	47.6516	-46.1159	-164.316	0.064268	0.065320	-0.963153	-0.964416	0.077693	47.6516	-0.964376	-7.513815E+12	-1.033999E-14	NaN
1021	1.000000	0.074588	7.37504e+06	-51189.1	1055.82	-29753.1	0.000000	0.000000	6.074760	0.050899	NaN	0.000000	0.001576	0.001747	28.0811	0.077644	0.001994	38.9449	-68.5833	-166.695	0.056467	0.073302	-0.955149	-0.956435	0.050899	38.9449	-0.956129	-5.816714E+12	-8.750429E-15	NaN
1021	1.000000	0.082592	7.37504e+06	-51189.1	1055.82	-29753.1	0.000000	0.000000	6.082764	0.057897	NaN	0.000000	0.001603	0.001723	28.0815	0.078732	0.002021	38.9521	100.87	-165.152	0.009319	0.081242	-0.947145	-0.948494	0.057897	38.9521	-0.948260	-4.555689E+12	-1.270866E-14	NaN
1021	1.000000	0.090593	7.37504e+06	-51189.1	1055.82	-29753.1	0.000000	0.000000	6.090765	0.051904	NaN	0.000000	0.001590	0.001738	28.0813	0.006287	0.001959	3.208927	115.195	-165.763	0.041092	0.089300	-0.939143	-0.940437	0.051904	3.208927	-0.951275	-5.002843E+12	-1.037490E-14	NaN
1021	1.000000	0.098599	7.37504e+06	-51189.1	1055.82	-29753.1	0.000000	0.000000	6.098772	0.086614	NaN	0.000000	0.001629	0.001682	28.0813	0.010267	0.002110	4.865284	-175.286	-167.868	0.067613	0.097257	-0.931138	-0.932480	0.086614	4.865284	-0.944490	-4.052350E+12	-2.137389E-14	NaN
1021	1.000000	0.106594	7.37504e+06	-51189.1	1055.82	-29753.1	0.000000	0.000000	6.106764	0.016304	NaN	0.000000	0.001632	0.001716	28.081	0.090405	0.002009	45.0037	127.818	-164.665	0.022379	0.105297	-0.923143	-0.924440	0.016304	45.0037	-0.923415	-2.105276E+12	-7.744234E-15	NaN
1021	1.000000	0.114603	7.37504e+06	-51189.1	1055.82	-29753.1	0.000000	0.000000	6.114776	0.084081	NaN	0.000000	0.001656	0.001667	28.0813	0.065255	0.001839	35.49	-74.2955	-169.236	-0.003322	0.113266	-0.915134	-0.916470	0.084081	35.49	-0.916911	-1.719870E+12	-4.888802E-14	NaN
1021	1.000000	0.122614	7.37504e+06	-51189.1	1055.82	-29753.1	0.000000	0.000000	6.122784	-0.007858	NaN	0.000000	0.001672	0.001687	28.0811	0.055142	0.002139	25.7763	73.5712	-167.844	0.070816	0.121362	-0.907122	-0.908375	-0.007858	25.7763	-0.906894	-1.259515E+12	6.239295E-15	NaN
1021	1.000000	0.130608	7.37504e+06	-51189.1	1055.82	-29753.1	0.000000	0.000000	6.130779	0.050356	NaN	0.000000	0.001644	0.001675	28.0811	0.067995	0.001989	34.1802	88.5666	-165.812	0.007348	0.129295	-0.899129	-0.900442	0.050356	34.1802	-0.900234	-1.023836E+12	-4.918384E-14	NaN
1021	1.000000	0.138584	7.37504e+06	-51189.1	1055.82	-29753.1	0.000000	0.000000	6.138757	0.087581	NaN	0.000000	0.001644	0.001702	28.0811	0.094159	0.002064	45.6285	2.271935	-164.944	0.034255	0.137299	-0.891153	-0.892438	0.087581	45.6285	-0.892592	-8.071561E+11	-1.085062E-13	NaN
1021	1.000000	0.146622	7.37504e+06	-51189.1	1055.82	-29753.1	0.000000	0.000000	6.146796	0.094347	NaN	0.000000	0.001632	0.001674	28.0812	0.052471	0.002106	24.9162	86.3945	-165.244	0.097320	0.145336	-0.883114	-0.884400	0.094347	24.9162	-0.885954	-6.564805E+11	-1.437158E-13	NaN
1021	1.000000	0.154635	7.37504e+06	-51189.1	1055.82	-29753.1	0.000000	0.000000	6.154806	0.053370	NaN	0.000000	0.001607	0.001693	28.0812	0.075721	0.002051	36.9117	128.216	-168.807	0.070047	0.153357	-0.875102	-0.876379	0.053370	36.9117	-0.876187	-4.843223E+11	-1.101949E-13	NaN
1021	1.000000	0.162606	7.37504e+06	-51189.1	1055.82	-29753.1	0.000000	0.000000	6.162776	0.023056	NaN	0.000000	0.001621	0.001706	28.0811	0.063295	0.001942	32.5858	-2.476784	-165.361	-0.011773	0.161389	-0.867131	-0.868348	0.023056	32.5858	-0.867662	-3.713711E+11	-6.208233E-14	NaN
1021	1.000000	0.170630	7.37504e+06	-51189.1	1055.82	-29753.1	0.000000	0.000000	6.170801	0.038289	NaN	0.000000	0.001600	0.001663	28.0824	0.092811	0.002090	44.4113	11.5634	-167.188	0.131742	0.169391	-0.859107	-0.860346	0.038289	44.4113	-0.859753	-2.902554E+11	-1.319160E-13	NaN
1021	1.000000	0.178628	7.37504e+06	-51189.1	1055.82	-29753.1	0.000000	0.000000	6.178801	0.085711	NaN	0.000000	0.001621	0.001682	28.0823	0.111722	0.002042	54.7247	-140.933	-169.098	0.101269	0.177334	-0.851109	-0.852403	0.085711	54.7247	-0.852284	-2.299630E+11	-3.727186E-13	NaN
1021	1.000000	0.186622	7.37504e+06	-51189.1	1055.82	-29753.1	0.000000	0.000000	6.186793	0.036507	NaN	0.000000	0.001645	0.001668	28.0826	0.112837	0.002140	52.7342	75.6972	-163.247	0.066745	0.185333	-0.843115	-0.844404	0.036507	52.7342	-0.843634	-1.755993E+11	-2.078997E-13	NaN
1021	1.000000	0.194629	7.37504e+06	-51189.1	1055.82	-29753.1	0.000000	0.000000	6.194802	0.082634	NaN	0.000000	0.001660	0.001702	28.0823	0.104525	0.002026	51.5926	150.865	-164.658	0.069844	0.193383	-0.835108	-0.836353	0.082634	51.5926	-0.836309	-1.397303E+11	-5.913851E-13	NaN
1021	1.000000	0.202632	7.37504e+06	-51189.1	1055.82	-29753.1	0.000000	0.000000	6.202802	0.005131	NaN	0.000000	0.001618	0.001676	28.0823	0.070778	0.001965	36.0135	98.7162	-166.373	-0.006470	0.201315	-0.827105	-0.828421	0.005131	36.0135	-0.827212	-1.051939E+11	-4.878101E-14	NaN
1021	1.000000	0.210627	7.37504e+06	-51189.1	1055.82	-29753.1	0.000000	0.000000	6.210799	0.058548	NaN	0.000000	0.001685	0.001694	28.0824	0.082738	0.002026	40.837	-110.169	-166.653	0.041529	0.209325	-0.819110	-0.820412	0.058548	40.837	-0.820185	-8.447430E+10	-6.930907E-13	NaN
1021	1.000000	0.218636	7.37504e+06	-51189.1	1055.82	-29753.1	0.000000	0.000000	6.218809	0.086708	NaN	0.000000	0.001656	0.001701	28.0822	0.050515	0.002110	23.9464	-51.6609	-168.023	0.053637	0.217359	-0.811101	-0.812378	0.086708	23.9464	-0.813817	-6.923834E+10	-1.252311E-12	NaN
1021	1.000000	0.226641	7.37504e+06	-51189.1	1055.82	-29753.1	0.000000	0.000000	6.226812	0.034081	NaN	0.000000	0.001618	0.001703	28.0826	0.099925	0.002016	49.57	-6.605239	-165.348	0.049521	0.225359	-0.803095	-0.804378	0.034081	49.57	-0.803611	-5.033577E+10	-6.770750E-13	NaN
1021	1.000000	0.234691	7.37504e+06	-51189.1	1055.82	-29753.1	0.000000	0.000000	6.234862	0.022302	NaN	0.000000	0.001635	0.001691	28.0825	0.034108	0.001940	17.5811	-78.2119	-167.804	0.073507	0.233290	-0.795046	-0.796447	0.022302	17.5811	-0.795997	-3.967534E+10	-5.621225E-13	NaN
1021	1.000000	0.242685	7.37504e+06	-51189.1	1055.82	-29753.1	0.000000	0.000000	6.242857	0.055454	NaN	0.000000	0.001665	0.001653	28.0824	0.094218	0.002133	44.181	32.6523	-168.171	0.049645	0.241356	-0.787052	-0.788381	0.055454	44.181	-0.787994	-3.089100E+10	-1.795135E-12	NaN
1021	1.000000	0.250635	7.37504e+06	-51189.1	1055.82	-29753.1	0.000000	0.000000	6.250802	-0.059530	NaN	0.000000	0.001683	0.001665	28.0827	0.064601	0.002127	30.3788	-148.937	-165.226	-0.018096	0.249341	-0.779102	-0.780396	-0.059530	30.3788	-0.777632	-2.233857E+10	2.664884E-12	NaN
1021	1.000000	0.258652	7.37504e+06	-51189.1	1055.82	-29753.1	0.000000	0.000000	6.258823	0.025259	NaN	0.000000	0.001647	0.001721	28.0823	0.111469	0.001975	56.4382	109.98	-164.671	0.115243	0.257363	-0.771085	-0.772374	0.025259	56.4382	-0.771420	-1.839151E+10	-1.373398E-12	NaN
1021	1.000000	0.266682	7.37504e+06	-51189.1	1055.82	-29753.1	0.000000	0.000000	6.266853	0.029197	NaN	0.000000	0.001655	0.001711	28.0824	0.093685	0.002153	43.5231	87.0889	-167.895	0.083698	0.265370	-0.763055	-0.764367	0.029197	43.5231	-0.763558	-1.437798E+10	-2.030667E-12	NaN
1021	1.000000	0.274657	7.37504e+06	-51189.1	1055.82	-29753.1	0.000000	0.000000	6.274828	0.038618	NaN	0.000000	0.001651	0.001680	28.0824	0.130602	0.001994	65.4897	18.9554	-167.792	0.055552	0.273355	-0.755080	-0.756382	0.038618	65.4897	-0.755522	-1.117844E+10	-3.454651E-12	NaN
1021	1.000000	0.282664	7.37504e+06	-51189.1	1055.82	-29753.1	0.000000	0.000000	6.282834	-0.015980	NaN	0.000000	0.001621	0.001663	28.0822	0.029848	0.002043	14.6074	-31.0549	-166.921	-0.003823	0.281302	-0.747072	-0.748435	-0.015980	14.6074	-0.746252	-8.359754E+9	1.911489E-12	NaN
1021	1.000000	0.290673	7.37504e+06	-51189.1	1055.82	-29753.1	0.000000	0.000000	6.290843	-0.002143	NaN	0.000000	0.001659	0.001685	28.0832	0.059631	0.002080	28.6631	157.053	-163.229	0.092111	0.289378	-0.739064	-0.740359	-0.002143	28.6631	-0.739008	-6.661013E+9	3.217951E-13	NaN
1021	1.000000	0.298665	7.37504e+06	-51189.1	1055.82	-29753.1	0.000000	0.000000	6.298833	-0.023809	NaN	0.000000	0.001618	0.001676	28.0823	0.097818	0.001903	51.4112	-83.285	-165.154	-0.011447	0.297402	-0.731072	-0.732335	-0.023809	51.4112	-0.730725	-5.136738E+9	4.635114E-12	NaN
1021	1.000000	0.306699	7.37504e+06	-51189.1	1055.82	-29753.1	0.000000	0.000000	6.306871	0.038400	NaN	0.000000	0.001628	0.001712	28.0811	0.063636	0.002073	30.7031	-101.427	-165.687	-0.031380	0.305400	-0.723037	-0.724337	0.038400	30.7031	-0.723975	-4.156055E+9	-9.239498E-12	NaN
1021	1.000000	0.314686	7.37504e+06	-51189.1	1055.82	-29753.1	0.000000	0.000000	6.314856	0.002358	NaN	0.000000	0.001657	0.001693	28.0811	0.155082	0.002027	76.515	85.2326	-164.872	0.048780	0.313310	-0.715051	-0.716427	0.002358	76.515	-0.715074	-3.142553E+9	-7.502842E-13	NaN
1021	1.000000	0.322693	7.37504e+06	-51189.1	1055.82	-29753.1	0.000000	0.000000	6.322863	0.010159	NaN	0.000000	0.001636	0.001689	28.0811	0.010132	0.001967	5.151667	29.8319	-163.129	0.004804	0.321363	-0.707044	-0.708373	0.010159	5.151667	-0.708523	-2.557944E+9	-3.971459E-12	NaN
1021	1.000000	0.330692	7.37504e+06	-51189.1	1055.82	-29753.1	0.000000	0.000000	6.330862	0.002359	NaN	0.000000	0.001644	0.001662	28.0813	0.097020	0.002003	48.4383	101.02	-166.368	0.041646	0.329408	-0.699045	-0.700329	0.002359	48.4383	-0.699082	-1.901026E+9	-1.241111E-12	NaN
1021	1.000000	0.338711	7.37504e+06	-51189.1	1055.82	-29753.1	0.000000	0.000000	6.338885	0.100498	NaN	0.000000	0.001613	0.001686	28.081	0.045338	0.002003	22.6403	142.079	-165.608	0.021190	0.337409	-0.691026	-0.692327	0.100498	22.6403	-0.694355	-1.638409E+9	-6.133863E-11	NaN
1021	1.000000	0.346688	7.37504e+06	-51189.1	1055.82	-29753.1	0.000000	0.000000	6.346858	0.004605	NaN	0.000000	0.001639	0.001671	28.0812	0.029659	0.001959	15.1366	150.971	-168.096	-0.006005	0.345408	-0.683049	-0.684329	0.004605	15.1366	-0.683277	-1.156170E+9	-3.982764E-12	NaN
1021	1.000000	0.354722	7.37504e+06	-51189.1	1055.82	-29753.1	0.000000	0.000000	6.354896	0.110268	NaN	0.000000	0.001622	0.001696	28.081	0.092695	0.002020	45.8807	-147.657	-163.116	0.048885	0.353333	-0.675015	-0.676404	0.110268	45.8807	-0.676817	-9.433548E+8	-1.168889E-10	NaN
1021	1.000000	0.362693	7.37504e+06	-51189.1	1055.82	-29753.1	0.000000	0.000000	6.362864	0.047789	NaN	0.000000	0.001647	0.001695	28.0812	0.050726	0.002029	25.0011	10.7462	-163.399	0.078870	0.361417	-0.667044	-0.668320	0.047789	25.0011	-0.668478	-7.253616E+8	-6.588324E-11	NaN
1021	1.000000	0.370692	7.37504e+06	-51189.1	1055.82	-29753.1	0.000000	0.000000	6.370864	0.039130	NaN	0.000000	0.001639	0.001664	28.0811	0.060133	0.002119	28.3782	51.3792	-166.607	0.092272	0.369420	-0.659044	-0.660317	0.039130	28.3782	-0.660078	-5.566005E+8	-7.030124E-11	NaN
1021	1.000000	0.378740	7.37504e+06	-51189.1	1055.82	-29753.1	0.000000	0.000000	6.378909	-0.010001	NaN	0.000000	0.001632	0.001668	28.0812	0.040720	0.002091	19.4776	-13.8934	-167.254	-0.020101	0.377400	-0.650997	-0.652337	-0.010001	19.4776	-0.650612	-4.128828E+8	2.422242E-11	NaN
1021	1.000000	0.386729	7.37504e+06	-51189.1	1055.82	-29753.1	0.000000	0.000000	6.386903	0.101930	NaN	0.000000	0.001622	0.001701	28.0813	0.058481	0.001926	30.3708	33.3345	-167.44	0.210746	0.385412	-0.643008	-0.644325	0.101930	30.3708	-0.645525	-3.516225E+8	-2.898837E-10	NaN
1021	1.000000	0.394709	7.37504e+06	-51189.1	1055.82	-29753.1	0.000000	0.000000	6.394882	0.060753	NaN	0.000000	0.001619	0.001672	28.0813	0.009488	0.001986	4.776306	-17.6316	-168.711	0.024880	0.393414	-0.635027	-0.636323	0.060753	4.776306	-0.644567	-3.411473E+8	-1.780849E-10	NaN
1021	1.000000	0.402723	7.37504e+06	-51189.1	1055.82	-29753.1	0.000000	0.000000	6.402892	-0.023443	NaN	0.000000	0.001626	0.001675	28.0813	0.031647	0.001913	16.5444	-62.0538	-162.025	-0.018370	0.401449	-0.627014	-0.628288	-0.023443	16.5444	-0.625951	-1.894128E+8	1.237669E-10	NaN
1021	1.000000	0.410740	7.37504e+06	-51189.1	1055.82	-29753.1	0.000000	0.000000	6.410914	0.090253	NaN	0.000000	0.001634	0.001672	28.081	0.090970	0.002141	42.4954	-167.583	-165.634	0.037266	0.409434	-0.618996	-0.620302	0.090253	42.4954	-0.620589	-1.598571E+8	-5.645877E-10	NaN
1021	1.000000	0.418730	7.37504e+06	-51189.1	1055.82	-29753.1	0.000000	0.000000	6.418899	-0.012764	NaN	0.000000	0.001613	0.001739	28.0811	0.039379	0.001985	19.8395	113.242	-164.14	0.074589	0.417477	-0.611007	-0.612260	-0.012764	19.8395	-0.610525	-1.162335E+8	1.098103E-10	NaN
1021	1.000000	0.426756	7.37504e+06	-51189.1	1055.82	-29753.1	0.000000	0.000000	6.426927	0.029633	NaN	0.000000	0.001672	0.001791	28.081	0.068131	0.002015	33.8087	149.133	-166.855	0.100791	0.425466	-0.602981	-0.604270	0.029633	33.8087	-0.603638	-9.344600E+7	-3.171092E-10	NaN
1021	1.000000	0.434752	7.37504e+06	-51189.1	1055.82	-29753.1	0.000000	0.000000	6.434921	-0.020128	NaN	0.000000	0.001659	0.001771	28.0811	0.168641	0.001831	92.0788	173.462	-167.752	-0.012072	0.433437	-0.594984	-0.596300	-0.020128	92.0788	-0.594820	-7.064917E+7	2.849074E-10	NaN
1021	1.000000	0.442738	7.37504e+06	-51189.1	1055.82	-29753.1	0.000000	0.000000	6.442909	0.033605	NaN	0.000000	0.001658	0.001726	28.0824	0.014769	0.001907	7.742913	86.5236	-165.783	0.004062	0.441389	-0.586999	-0.588348	0.033605	7.742913	-0.590254	-6.111782E+7	-5.498362E-10	NaN
1021	1.000000	0.450754	7.37504e+06	-51189.1	1055.82	-29753.1	0.000000	0.000000	6.450925	0.040808	NaN	0.000000	0.001718	0.001735	28.0822	0.065378	0.001938	33.7349	164.007	-167.492	0.027968	0.449449	-0.578983	-0.580288	0.040808	33.7349	-0.579891	-4.397592E+7	-9.279671E-10	NaN
1021	1.000000	0.458726	7.37504e+06	-51189.1	1055.82	-29753.1	0.000000	0.000000	6.458900	0.090985	NaN	0.000000	0.001703	0.001711	28.0825	0.032758	0.002026	16.1705	162.861	-165.664	0.078514	0.457488	-0.571011	-0.572249	0.090985	16.1705	-0.575231	-3.792119E+7	-2.399320E-9	NaN
1021	1.000000	0.466757	7.37504e+06	-51189.1	1055.82	-29753.1	0.000000	0.000000	6.466925	-0.018563	NaN	0.000000	0.001722	0.001716	28.0822	0.078426	0.001869	41.959	173.005	-166.193	0.068956	0.465453	-0.562980	-0.564284	-0.018563	41.959	-0.562648	-2.541030E+7	7.305252E-10	NaN
1021	1.000000	0.474738	7.37504e+06	-51189.1	1055.82	-29753.1	0.000000	0.000000	6.474910	0.071292	NaN	0.000000	0.001697	0.001756	28.0824	0.086730	0.001812	47.8594	-165.813	-171.188	0.126798	0.473416	-0.554999	-0.556321	0.071292	47.8594	-0.556116	-2.063675E+7	-3.454611E-9	NaN
1021	1.000000	0.482740	7.37504e+06	-51189.1	1055.82	-29753.1	0.000000	0.000000	6.482912	0.073755	NaN	0.000000	0.001731	0.001770	28.0824	0.014286	0.001976	7.228576	-157.572	-167.712	0.128167	0.481425	-0.546997	-0.548312	0.073755	7.228576	-0.554650	-1.969418E+7	-3.745002E-9	NaN
1021	1.000000	0.490777	7.37504e+06	-51189.1	1055.82	-29753.1	0.000000	0.000000	6.490945	-0.035586	NaN	0.000000	0.001739	0.001759	28.0824	0.030436	0.002015	15.1011	-106.313	-166.081	0.027030	0.489452	-0.538960	-0.540284	-0.035586	15.1011	-0.537192	-1.128272E+7	3.154048E-9	NaN
1021	1.000000	0.498774	7.37504e+06	-51189.1	1055.82	-29753.1	0.000000	0.000000	6.498946	0.054343	NaN	0.000000	0.001678	0.001761	28.0826	0.038034	0.002038	18.6633	135.697	-164.845	0.082146	0.497500	-0.530963	-0.532236	0.054343	18.6633	-0.533147	-9.91434e+06	-5.481300E-9	NaN
1021	1.000000	0.506766	7.37504e+06	-51189.1	1055.82	-29753.1	0.000000	0.000000	6.506934	-0.031852	NaN	0.000000	0.001697	0.001745	28.0821	0.116641	0.002082	56.0165	-132.368	-166.265	0.022219	0.505446	-0.522971	-0.524291	-0.031852	56.0165	-0.522544	-7.06278e+06	4.509832E-9	NaN
1021	1.000000	0.514781	7.37504e+06	-51189.1	1055.82	-29753.1	0.000000	0.000000	6.514952	0.050006	NaN	0.000000	0.001710	0.001714	28.0824	0.005789	0.002109	2.744585	118.186	-168.808	0.012762	0.513543	-0.514956	-0.516194	0.050006	2.744585	-0.528621	-8.57876e+06	-5.829071E-9	NaN
1021	1.000000	0.522770	7.37504e+06	-51189.1	1055.82	-29753.1	0.000000	0.000000	6.522941	0.033928	NaN	0.000000	0.001699	0.001722	28.0823	0.030808	0.001957	15.741	-139.133	-169.143	0.050245	0.521478	-0.506967	-0.508259	0.033928	15.741	-0.508584	-4.5153e+06	-7.513954E-9	NaN
1021	1.000000	0.530784	7.37504e+06	-51189.1	1055.82	-29753.1	0.000000	0.000000	6.530956	0.049023	NaN	0.000000	0.001697	0.001714	28.0822	0.118562	0.001880	63.0661	127.054	-164.445	-8.859867E-5	0.529462	-0.498952	-0.500275	0.049023	63.0661	-0.499535	-3.37703e+06	-1.451649E-8	NaN
1021	1.000000	0.538787	7.37504e+06	-51189.1	1055.82	-29753.1	0.000000	0.000000	6.538960	0.074102	NaN	0.000000	0.001733	0.001715	28.0825	0.110009	0.002042	53.8738	-140.837	-163.923	0.086668	0.537452	-0.490949	-0.492285	0.074102	53.8738	-0.491981	-2.64893e+06	-2.797432E-8	NaN
1021	1.000000	0.546784	7.37504e+06	-51189.1	1055.82	-29753.1	0.000000	0.000000	6.546956	0.041699	NaN	0.000000	0.001724	0.001744	28.0823	0.162616	0.002037	79.8342	155.468	-168.308	0.065856	0.545435	-0.482953	-0.484301	0.041699	79.8342	-0.483344	-2.006e+06	-2.078729E-8	NaN
1021	1.000000	0.554784	7.37504e+06	-51189.1	1055.82	-29753.1	0.000000	0.000000	6.554957	0.077349	NaN	0.000000	0.001727	0.001705	28.0825	0.030170	0.002048	14.7296	-121.754	-165.214	0.072796	0.553484	-0.474953	-0.476253	0.077349	14.7296	-0.478891	-1.73782e+06	-4.450926E-8	NaN
1021	1.000000	0.562803	7.37504e+06	-51189.1	1055.82	-29753.1	0.000000	0.000000	6.562972	0.006341	NaN	0.000000	0.001769	0.001758	28.0822	0.037450	0.001866	20.0728	-71.4319	-166.446	-0.056925	0.561440	-0.466934	-0.468297	0.006341	20.0728	-0.467171	-1.19048e+06	-5.326453E-9	NaN
1021	1.000000	0.570790	7.37504e+06	-51189.1	1055.82	-29753.1	0.000000	0.000000	6.570961	0.025134	NaN	0.000000	0.001734	0.001728	28.0822	0.080863	0.002028	39.8733	-46.0582	-166.631	0.040579	0.569502	-0.458946	-0.460235	0.025134	39.8733	-0.459419	-926519	-2.712708E-8	NaN
1021	1.000000	0.578799	7.37504e+06	-51189.1	1055.82	-29753.1	0.000000	0.000000	6.578969	0.009529	NaN	0.000000	0.001739	0.001771	28.0814	0.038127	0.001882	20.2538	127.415	-166.584	-0.009875	0.577505	-0.450937	-0.452231	0.009529	20.2538	-0.451290	-712050	-1.338213E-8	NaN
1021	1.000000	0.586820	7.37504e+06	-51189.1	1055.82	-29753.1	0.000000	0.000000	6.586994	0.088632	NaN	0.000000	0.001718	0.001773	28.0809	0.065745	0.002042	32.2043	23.9635	-165.871	0.059308	0.585457	-0.442916	-0.444279	0.088632	32.2043	-0.444981	-580254	-1.527470E-7	NaN
1021	1.000000	0.594794	7.37504e+06	-51189.1	1055.82	-29753.1	0.000000	0.000000	6.594968	0.105432	NaN	0.000000	0.001724	0.001775	28.0811	0.153296	0.001832	83.6597	72.9982	-166.438	0.099887	0.593478	-0.434943	-0.436259	0.105432	83.6597	-0.435888	-431819	-2.441575E-7	NaN
1021	1.000000	0.602805	7.37504e+06	-51189.1	1055.82	-29753.1	0.000000	0.000000	6.602977	0.055975	NaN	0.000000	0.001716	0.001757	28.0809	0.082579	0.002150	38.4044	158.497	-166.997	0.047105	0.601487	-0.426931	-0.428250	0.055975	38.4044	-0.428025	-334278	-1.674511E-7	NaN
1021	1.000000	0.610825	7.37504e+06	-51189.1	1055.82	-29753.1	0.000000	0.000000	6.610999	0.083416	NaN	0.000000	0.001750	0.001729	28.0813	0.075023	0.002071	36.2177	-61.0177	-166.158	0.110032	0.609494	-0.418911	-0.420243	0.083416	36.2177	-0.420639	-262708	-3.175259E-7	NaN
1021	1.000000	0.618811	7.37504e+06	-51189.1	1055.82	-29753.1	0.000000	0.000000	6.618983	0.049165	NaN	0.000000	0.001735	0.001723	28.0812	0.124020	0.002063	60.127	-10.3759	-166.358	0.135151	0.617476	-0.410926	-0.412261	0.049165	60.127	-0.411539	-195111	-2.519825E-7	NaN
1021	1.000000	0.626815	7.37504e+06	-51189.1	1055.82	-29753.1	0.000000	0.000000	6.626984	-0.005674	NaN	0.000000	0.001749	0.001730	28.0811	0.131757	0.002044	64.4645	49.0463	-170.948	0.017332	0.625515	-0.402922	-0.404222	-0.005674	64.4645	-0.402856	-146794	3.865107E-8	NaN
1021	1.000000	0.634818	7.37504e+06	-51189.1	1055.82	-29753.1	0.000000	0.000000	6.634989	0.035555	NaN	0.000000	0.001752	0.001739	28.081	0.076098	0.001998	38.0801	149.497	-169.899	0.042202	0.633564	-0.394919	-0.396173	0.035555	38.0801	-0.395619	-115739	-3.072009E-7	NaN
1021	1.000000	0.642818	7.37504e+06	-51189.1	1055.82	-29753.1	0.000000	0.000000	6.642991	0.080197	NaN	0.000000	0.001731	0.001718	28.0811	0.044410	0.001957	22.6911	85.2945	-166.495	0.122291	0.641515	-0.386919	-0.388222	0.080197	22.6911	-0.389569	-94843.3	-8.455737E-7	NaN
1021	1.000000	0.650822	7.37504e+06	-51189.1	1055.82	-29753.1	0.000000	0.000000	6.650993	0.031081	NaN	0.000000	0.001736	0.001730	28.0812	0.084680	0.001924	44.0134	-99.5309	-168.922	0.053472	0.649515	-0.378914	-0.380222	0.031081	44.0134	-0.379444	-67906.2	-4.576986E-7	NaN
1021	1.000000	0.658851	7.37504e+06	-51189.1	1055.82	-29753.1	0.000000	0.000000	6.659021	0.005177	NaN	0.000000	0.001735	0.001736	28.0811	0.048617	0.002064	23.5519	-51.416	-169.76	0.046111	0.657539	-0.370886	-0.372197	0.005177	23.5519	-0.371050	-51434.3	-1.006478E-7	NaN
1021	1.000000	0.666839	7.37504e+06	-51189.1	1055.82	-29753.1	0.000000	0.000000	6.667011	0.072753	NaN	0.000000	0.001713	0.001713	28.0812	0.108719	0.002089	52.0466	-145.925	-166.093	0.022635	0.665544	-0.362898	-0.364193	0.072753	52.0466	-0.363947	-40630.5	-1.790595E-6	NaN
1021	1.000000	0.674835	7.37504e+06	-51189.1	1055.82	-29753.1	0.000000	0.000000	6.675008	0.084817	NaN	0.000000	0.001722	0.001714	28.081	0.049974	0.002041	24.4898	-38.4519	-164.848	0.078404	0.673549	-0.354902	-0.356188	0.084817	24.4898	-0.357500	-32785.7	-2.587018E-6	NaN
1021	1.000000	0.682849	7.37504e+06	-51189.1	1055.82	-29753.1	0.000000	0.000000	6.683022	0.068054	NaN	0.000000	0.001735	0.001726	28.0811	0.124623	0.001994	62.5147	156.124	-165.699	0.065032	0.681520	-0.346888	-0.348216	0.068054	62.5147	-0.347704	-23641	-2.878642E-6	NaN
1021	1.000000	0.690835	7.37504e+06	-51189.1	1055.82	-29753.1	0.000000	0.000000	6.691007	0.033433	NaN	0.000000	0.001647	0.001699	28.0811	0.091072	0.001894	48.0879	-148.848	-164.98	-0.040366	0.689537	-0.338901	-0.340200	0.033433	48.0879	-0.339423	-17911.8	-1.866555E-6	NaN
1021	1.000000	0.698878	7.37504e+06	-51189.1	1055.82	-29753.1	0.000000	0.000000	6.699048	0.014606	NaN	0.000000	0.001624	0.001716	28.0812	0.113782	0.001988	57.2225	-168.39	-165.463	-0.078446	0.697507	-0.330859	-0.332230	0.014606	57.2225	-0.331050	-13515.4	-1.080675E-6	NaN
1021	1.000000	0.706865	7.37504e+06	-51189.1	1055.82	-29753.1	0.000000	0.000000	6.707035	0.006580	NaN	0.000000	0.001645	0.001731	28.0813	0.080100	0.001928	41.5428	143.483	-169.583	0.034351	0.705467	-0.322872	-0.324270	0.006580	41.5428	-0.322991	-10294.9	-6.391544E-7	NaN
1021	1.000000	0.714880	7.37504e+06	-51189.1	1055.82	-29753.1	0.000000	0.000000	6.715050	0.013729	NaN	0.000000	0.001660	0.001699	28.082	0.052568	0.002107	24.9478	-35.8412	-166.794	0.075261	0.713536	-0.314857	-0.316201	0.013729	24.9478	-0.315269	-7923.62	-1.732651E-6	NaN
1021	1.000000	0.722879	7.37504e+06	-51189.1	1055.82	-29753.1	0.000000	0.000000	6.723053	0.098749	NaN	0.000000	0.001695	0.001730	28.0823	0.100741	0.001997	50.4563	-89.2902	-165.976	0.105324	0.721524	-0.306858	-0.308213	0.098749	50.4563	-0.308326	-6255.54	-1.578586E-5	NaN
1021	1.000000	0.730817	7.37504e+06	-51189.1	1055.82	-29753.1	0.000000	0.000000	6.730990	0.093853	NaN	0.000000	0.001683	0.001741	28.0822	0.013652	0.001979	6.897212	-167.98	-164.805	0.071242	0.729545	-0.298920	-0.300192	0.093853	6.897212	-0.309126	-6428.58	-1.459927E-5	NaN
1021	1.000000	0.738861	7.37504e+06	-51189.1	1055.82	-29753.1	0.000000	0.000000	6.739031	0.015214	NaN	0.000000	0.001673	0.001781	28.082	0.074593	0.002062	36.1774	-115.833	-163.237	-0.008748	0.737534	-0.290876	-0.292203	0.015214	36.1774	-0.291191	-3476.52	-4.376258E-6	NaN
1021	1.000000	0.746865	7.37504e+06	-51189.1	1055.82	-29753.1	0.000000	0.000000	6.747036	0.031149	NaN	0.000000	0.001690	0.001773	28.0823	0.206919	0.002013	102.766	5.425743	-166.307	0.064856	0.745579	-0.282872	-0.284158	0.031149	102.766	-0.283100	-2628.32	-1.185123E-5	NaN
1021	1.000000	0.754887	7.37504e+06	-51189.1	1055.82	-29753.1	0.000000	0.000000	6.755061	0.100820	NaN	0.000000	0.001688	0.001771	28.082	0.132235	0.001973	67.0056	-113.794	-167.867	0.109750	0.753568	-0.274850	-0.276169	0.100820	67.0056	-0.275978	-2052.14	-4.912945E-5	NaN
1021	1.000000	0.762877	7.37504e+06	-51189.1	1055.82	-29753.1	0.000000	0.000000	6.763047	0.006439	NaN	0.000000	0.001657	0.001773	28.0826	0.084444	0.002011	41.9909	-100.523	-165.993	0.059195	0.761578	-0.266860	-0.268159	0.006439	41.9909	-0.266975	-1497.98	-4.298428E-6	NaN
1021	1.000000	0.770876	7.37504e+06	-51189.1	1055.82	-29753.1	0.000000	0.000000	6.771050	0.093484	NaN	0.000000	0.001665	0.001773	28.0821	0.137281	0.001870	73.3996	150.892	-164.052	0.112892	0.769621	-0.258860	-0.260116	0.093484	73.3996	-0.259816	-1164.37	-8.028674E-5	NaN
1021	1.000000	0.778864	7.37504e+06	-51189.1	1055.82	-29753.1	0.000000	0.000000	6.779030	-0.071323	NaN	0.000000	0.001672	0.001757	28.0823	0.059145	0.002003	29.5289	-116.461	-166.221	-0.054682	0.777622	-0.250873	-0.252114	-0.071323	29.5289	-0.249062	-795.148	8.969767E-5	NaN
1021	1.000000	0.786898	7.37504e+06	-51189.1	1055.82	-29753.1	0.000000	0.000000	6.787069	0.033386	NaN	0.000000	0.001698	0.001780	28.0823	0.065866	0.002020	32.6074	111.446	-165.523	0.001924	0.785526	-0.242839	-0.244210	0.033386	32.6074	-0.243607	-654.315	-5.102502E-5	NaN
1021	1.000000	0.794874	7.37504e+06	-51189.1	1055.82	-29753.1	0.000000	0.000000	6.795046	0.055764	NaN	0.000000	0.001658	0.001806	28.0822	0.114006	0.001994	57.1637	-21.5622	-167.942	0.096533	0.793645	-0.234862	-0.236091	0.055764	57.1637	-0.235594	-490.425	-0.000114	NaN
1021	1.000000	0.802888	7.37504e+06	-51189.1	1055.82	-29753.1	0.000000	0.000000	6.803061	0.081430	NaN	0.000000	0.001644	0.001802	28.0823	0.072172	0.001889	38.2157	103.527	-160.46	0.028143	0.801602	-0.226849	-0.228135	0.081430	38.2157	-0.228447	-378.417	-0.000215	NaN
1021	1.000000	0.810866	7.37504e+06	-51189.1	1055.82	-29753.1	0.000000	0.000000	6.811038	0.048335	NaN	0.000000	0.001648	0.001803	28.0821	0.122009	0.001953	62.4655	-149.718	-164.146	-0.003414	0.809583	-0.218871	-0.220154	0.048335	62.4655	-0.219451	-272.208	-0.000178	NaN
1021	1.000000	0.818880	7.37504e+06	-51189.1	1055.82	-29753.1	0.000000	0.000000	6.819053	0.080768	NaN	0.000000	0.001663	0.001818	28.0824	0.081824	0.002114	38.7146	134.294	-166.605	0.060650	0.817675	-0.210857	-0.212062	0.080768	38.7146	-0.212421	-209.878	-0.000385	NaN
1021	1.000000	0.826910	7.37504e+06	-51189.1	1055.82	-29753.1	0.000000	0.000000	6.827083	0.071149	NaN	0.000000	0.001634	0.001778	28.0826	0.206919	0.001959	105.627	-52.6161	-167.731	0.093623	0.825599	-0.202827	-0.204138	0.071149	105.627	-0.203332	-149.39	-0.000476	NaN
1021	1.000000	0.834896	7.37504e+06	-51189.1	1055.82	-29753.1	0.000000	0.000000	6.835064	-0.061811	NaN	0.000000	0.001622	0.001805	28.0823	0.064939	0.002059	31.5394	-110.083	-165.534	-0.025595	0.833591	-0.194840	-0.196146	-0.061811	31.5394	-0.193371	-102.37	0.000604	NaN
1021	1.000000	0.842918	7.37504e+06	-51189.1	1055.82	-29753.1	0.000000	0.000000	6.843090	0.071885	NaN	0.000000	0.001665	0.001807	28.0824	0.094225	0.001953	48.246	-145.088	-164.332	-0.023634	0.841625	-0.186819	-0.188112	0.071885	48.246	-0.187937	-83.0796	-0.000865	NaN
1021	1.000000	0.850905	7.37504e+06	-51189.1	1055.82	-29753.1	0.000000	0.000000	6.851077	0.062914	NaN	0.000000	0.001609	0.001796	28.081	0.059495	0.002030	29.302	165.52	-166	0.093775	0.849646	-0.178832	-0.180090	0.062914	29.302	-0.180442	-62.0848	-0.001013	NaN
1021	1.000000	0.858916	7.37504e+06	-51189.1	1055.82	-29753.1	0.000000	0.000000	6.859087	0.029577	NaN	0.000000	0.001654	0.001784	28.081	0.051259	0.001889	27.1368	-58.8879	-169.837	0.064193	0.857607	-0.170821	-0.172130	0.029577	27.1368	-0.171638	-43.8547	-0.000674	NaN
1021	1.000000	0.866945	7.37504e+06	-51189.1	1055.82	-29753.1	0.000000	0.000000	6.867115	-0.001371	NaN	0.000000	0.001647	0.001786	28.0811	0.059110	0.001938	30.4973	74.665	-165.583	0.042915	0.865591	-0.162792	-0.164146	-0.001371	30.4973	-0.162758	-30.6784	4.468906E-5	NaN
1021	1.000000	0.874918	7.37504e+06	-51189.1	1055.82	-29753.1	0.000000	0.000000	6.875088	0.019490	NaN	0.000000	0.001636	0.001802	28.0812	0.046514	0.002004	23.2122	28.4377	-163.797	-0.035829	0.873608	-0.154819	-0.156129	0.019490	23.2122	-0.155449	-22.7326	-0.000857	NaN
1021	1.000000	0.882939	7.37504e+06	-51189.1	1055.82	-29753.1	0.000000	0.000000	6.883112	0.063986	NaN	0.000000	0.001634	0.001786	28.081	0.053469	0.002092	25.564	-144.962	-167.33	0.135775	0.881638	-0.146798	-0.148098	0.063986	25.564	-0.148675	-17.1314	-0.003735	NaN
1021	1.000000	0.890944	7.37504e+06	-51189.1	1055.82	-29753.1	0.000000	0.000000	6.891116	0.049803	NaN	0.000000	0.001633	0.001814	28.0809	0.096143	0.001987	48.3865	173.531	-168.643	0.058267	0.889598	-0.138793	-0.140139	0.049803	48.3865	-0.139565	-11.6086	-0.004290	NaN
1021	1.000000	0.898919	7.37504e+06	-51189.1	1055.82	-29753.1	0.000000	0.000000	6.899087	-0.054956	NaN	0.000000	0.001646	0.001776	28.0809	0.045503	0.001932	23.5507	-24.5635	-166.436	0.016052	0.897562	-0.130818	-0.132175	-0.054956	23.5507	-0.129068	-7.309170	0.007519	NaN
1021	1.000000	0.906946	7.37504e+06	-51189.1	1055.82	-29753.1	0.000000	0.000000	6.907117	0.040343	NaN	0.000000	0.001620	0.001756	28.081	0.030858	0.001838	16.7849	-151.004	-167.121	0.020937	0.905569	-0.122791	-0.124167	0.040343	16.7849	-0.124594	-5.969679	-0.006758	NaN
1021	1.000000	0.914922	7.37504e+06	-51189.1	1055.82	-29753.1	0.000000	0.000000	6.915094	0.049196	NaN	0.000000	0.001632	0.001763	28.0808	0.035414	0.001929	18.3626	-134.122	-167.777	0.063877	0.913615	-0.114815	-0.116122	0.049196	18.3626	-0.116824	-4.164526	-0.011813	NaN
1021	1.000000	0.922962	7.37504e+06	-51189.1	1055.82	-29753.1	0.000000	0.000000	6.923131	-0.015988	NaN	0.000000	0.001632	0.001796	28.0809	0.105010	0.002067	50.8005	10.7831	-167.497	0.074177	0.921646	-0.106774	-0.108091	-0.015988	50.8005	-0.106538	-2.536750	0.006303	NaN
1021	1.000000	0.930973	7.37504e+06	-51189.1	1055.82	-29753.1	0.000000	0.000000	6.931146	0.092284	NaN	0.000000	0.001627	0.001779	28.0811	0.035801	0.001975	18.1269	60.0877	-167.31	0.166704	0.929627	-0.098764	-0.100109	0.092284	18.1269	-0.102582	-2.082696	-0.044310	NaN
1021	1.000000	0.938920	7.37504e+06	-51189.1	1055.82	-29753.1	0.000000	0.000000	6.939095	0.125813	NaN	0.000000	0.001646	0.001788	28.081	0.037042	0.001900	19.498	61.0347	-168.327	0.067231	0.937623	-0.090817	-0.092114	0.125813	19.498	-0.095656	-1.459952	-0.086176	NaN
1021	1.000000	0.946963	7.37504e+06	-51189.1	1055.82	-29753.1	0.000000	0.000000	6.947133	0.018159	NaN	0.000000	0.001632	0.001751	28.081	0.034713	0.002057	16.8728	-105.361	-162.836	0.036691	0.945716	-0.082774	-0.084020	0.018159	16.8728	-0.083581	-0.758903	-0.023928	NaN
1021	1.000000	0.954975	7.37504e+06	-51189.1	1055.82	-29753.1	0.000000	0.000000	6.955147	0.065352	NaN	0.000000	0.001640	0.001775	28.0809	0.102220	0.002073	49.316	171.146	-168.407	0.026008	0.953589	-0.074762	-0.076147	0.065352	49.316	-0.075756	-0.483094	-0.135279	NaN
1021	1.000000	0.962964	7.37504e+06	-51189.1	1055.82	-29753.1	0.000000	0.000000	6.963135	0.033577	NaN	0.000000	0.001642	0.001778	28.081	0.030819	0.002016	15.2877	179.731	-163.319	0.065595	0.961665	-0.066773	-0.068072	0.033577	15.2877	-0.068420	-0.309264	-0.108572	NaN
1021	1.000000	0.970973	7.37504e+06	-51189.1	1055.82	-29753.1	0.000000	0.000000	6.971146	0.081314	NaN	0.000000	0.001607	0.001772	28.0812	0.050166	0.002106	23.818	43.9244	-165.527	0.116294	0.969610	-0.058764	-0.060126	0.081314	23.818	-0.061324	-0.196484	-0.413844	NaN
1021	1.000000	0.978993	7.37504e+06	-51189.1	1055.82	-29753.1	0.000000	0.000000	6.979166	0.082849	NaN	0.000000	0.001630	0.001784	28.0811	0.072137	0.001809	39.8673	-28.6206	-163.717	0.113680	0.977647	-0.050744	-0.052090	0.082849	39.8673	-0.052303	-0.107043	-0.773979	NaN
1021	1.000000	0.986980	7.37504e+06	-51189.1	1055.82	-29753.1	0.000000	0.000000	6.987153	0.074414	NaN	0.000000	0.001607	0.001778	28.0822	0.092503	0.002037	45.4157	88.0806	-164.615	0.067893	0.985640	-0.042756	-0.044097	0.074414	45.4157	-0.043985	-0.059836	-1.243633	NaN
1021	1.000000	0.994959	7.37504e+06	-51189.1	1055.82	-29753.1	0.000000	0.000000	6.995131	0.043540	NaN	0.000000	0.001612	0.001778	28.0822	0.021841	0.002156	10.1318	87.2994	-166.783	-0.000199	0.993665	-0.034778	-0.036071	0.043540	10.1318	-0.038001	-0.039344	-1.106640	NaN
1021	1.000000	1.002937	7.37504e+06	-51189.1	1055.82	-29753.1	0.000000	0.000000	7.003105	-0.031634	NaN	0.000000	0.001643	0.001747	28.0821	0.010775	0.001985	5.428959	78.7213	-163.911	-0.047078	1.001701	-0.026800	-0.028036	-0.031634	5.428959	-0.022430	-0.014482	2.184416	NaN
1021	1.000000	1.010953	7.37504e+06	-51189.1	1055.82	-29753.1	0.000000	0.000000	7.011124	0.009677	NaN	0.000000	0.001630	0.001772	28.0824	0.005760	0.001985	2.901845	-11.1917	-163.234	0.009875	1.009585	-0.018783	-0.020152	0.009677	2.901845	-0.021284	-0.013541	-0.714609	NaN
1021	1.000000	1.018975	7.37504e+06	-51189.1	1055.82	-29753.1	0.000000	0.000000	7.019147	0.042344	NaN	0.000000	0.001655	0.001757	28.0821	0.089387	0.001956	45.704	130.945	-164.385	0.086003	1.017700	-0.010762	-0.012037	0.042344	45.704	-0.011457	-0.007218	-5.866104	NaN
1021	1.000000	1.026970	7.37504e+06	-51189.1	1055.82	-29753.1	0.000000	0.000000	7.027166	0.634700	NaN	0.000000	0.001663	0.001732	28.0823	1.032667	0.001922	537.414	5.617073	-164.514	0.272612	1.025652	-0.002767	-0.004085	0.634700	537.414	-0.003652	-0.002552	-248.66	NaN
1021	2.000000	1.034468	7.37504e+06	-51189.1	1055.82	-29753.1	0.000000	0.000000	7.034975	8.210060	NaN	0.000000	0.001608	0.001727	28.0824	7.979048	0.001766	4518.13	3.634664	-164.41	8.063805	1.033610	0.004731	0.003873	8.210060	4518.13	0.003368	0.002692	3049.61	79557.4
1021	2.000000	1.036559	7.37504e+06	-51189.1	1055.82	-29753.1	0.000000	0.000000	7.037192	11.2611	NaN	0.000000	0.001634	0.001775	28.0821	10.5824	0.001720	6152.77	5.799474	-172.454	10.8996	1.036179	0.006822	0.006443	11.2611	6152.77	0.005450	0.004547	2476.4	83361.1
1021	2.000000	1.038499	7.37504e+06	-51189.1	1055.82	-29753.1	0.000000	0.000000	7.039263	14.4419	NaN	0.000000	0.001660	0.001788	28.0821	12.443	0.001593	7808.95	9.117244	-177.405	13.4825	1.038245	0.008763	0.008508	14.4419	7808.95	0.007376	0.006408	2253.72	89125.9
1021	2.000000	1.040523	7.37504e+06	-51189.1	1055.82	-29753.1	0.000000	0.000000	7.041324	15.3471	NaN	0.000000	0.001633	0.001763	28.082	14.1901	0.001767	8030.88	5.193819	-173.172	15.1697	1.040281	0.010786	0.010544	15.3471	8030.88	0.009353	0.008471	1811.61	79718
1021	2.000000	1.042538	7.37504e+06	-51189.1	1055.82	-29753.1	0.000000	0.000000	7.043568	20.9191	NaN	0.000000	0.001589	0.001756	28.082	16.9158	0.001763	9595.41	7.070260	-176.785	19.6998	1.042186	0.012801	0.012450	20.9191	9595.41	0.011166	0.010506	1991.17	85530.2
1021	2.000000	1.044506	7.37504e+06	-51189.1	1055.82	-29753.1	0.000000	0.000000	7.045586	22.123	NaN	0.000000	0.001646	0.001734	28.0829	18.4338	0.001727	10674.1	5.871907	-175.889	21.5258	1.044179	0.014770	0.014443	22.123	10674.1	0.013215	0.012978	1704.6	85604.1
1021	2.000000	1.046510	7.37504e+06	-51189.1	1055.82	-29753.1	0.000000	0.000000	7.047838	28.1684	NaN	0.000000	0.001652	0.001710	28.0822	20.9766	0.001819	11534.1	5.769979	-177.245	27.1568	1.046188	0.016773	0.016451	28.1684	11534.1	0.014942	0.015208	1852.26	85453.1
1021	2.000000	1.048441	7.37504e+06	-51189.1	1055.82	-29753.1	0.000000	0.000000	7.049932	32.1218	NaN	0.000000	0.001629	0.001756	28.0829	21.436	0.001718	12477.4	2.628013	-174.855	29.5377	1.048205	0.018704	0.018469	32.1218	12477.4	0.016774	0.017724	1812.36	85628.6
1021	2.000000	1.050484	7.37504e+06	-51189.1	1055.82	-29753.1	0.000000	0.000000	7.052127	35.8191	NaN	0.000000	0.001633	0.001752	28.0823	23.914	0.001871	12783.7	3.178675	-174.557	34.3397	1.050109	0.020747	0.020372	35.8191	12783.7	0.018646	0.020458	1750.82	81656.8
1021	2.000000	1.052504	7.37504e+06	-51189.1	1055.82	-29753.1	0.000000	0.000000	7.054334	40.3724	NaN	0.000000	0.001648	0.001769	28.0823	25.4913	0.001806	14114.7	6.148872	-178.968	39.4348	1.052232	0.022767	0.022495	40.3724	14114.7	0.020622	0.023529	1715.86	84070.4
1021	2.000000	1.054472	7.37504e+06	-51189.1	1055.82	-29753.1	0.000000	0.000000	7.056539	46.1259	NaN	0.000000	0.001637	0.001745	28.0828	26.7721	0.001644	16284	3.609977	-177.262	46.1002	1.054095	0.024735	0.024359	46.1259	16284	0.022611	0.026812	1720.35	90859.5
1021	2.000000	1.056485	7.37504e+06	-51189.1	1055.82	-29753.1	0.000000	0.000000	7.058766	51.3311	NaN	0.000000	0.001676	0.001745	28.0813	29.1525	0.001757	16593.9	-0.642326	-173.985	50.6625	1.056135	0.026749	0.026399	51.3311	16593.9	0.024428	0.029984	1711.94	87553.8
1021	2.000000	1.058470	7.37504e+06	-51189.1	1055.82	-29753.1	0.000000	0.000000	7.060941	55.956	NaN	0.000000	0.001632	0.001760	28.0811	30.294	0.001734	17466.5	2.226445	-176.239	55.7922	1.058141	0.028733	0.028404	55.956	17466.5	0.026331	0.033481	1671.28	87212.7
1021	2.000000	1.060435	7.37504e+06	-51189.1	1055.82	-29753.1	0.000000	0.000000	7.063044	59.3033	NaN	0.000000	0.001614	0.001757	28.081	32.5735	0.001817	17931.6	-1.835815	-173.127	56.979	1.060137	0.030699	0.030400	59.3033	17931.6	0.028218	0.037132	1597.11	85019.5
1021	2.000000	1.062519	7.37504e+06	-51189.1	1055.82	-29753.1	0.000000	0.000000	7.065499	68.3412	NaN	0.000000	0.001650	0.001757	28.081	34.4713	0.001819	18952.5	4.244653	-178.443	68.7374	1.062072	0.032782	0.032335	68.3412	18952.5	0.030077	0.040904	1670.76	85616.2
1021	2.000000	1.064419	7.37504e+06	-51189.1	1055.82	-29753.1	0.000000	0.000000	7.067591	72.9963	NaN	0.000000	0.001640	0.001756	28.0813	36.2878	0.001793	20236.4	5.664501	177.867	70.6051	1.064191	0.034682	0.034454	72.9963	20236.4	0.031977	0.044941	1624.28	87213.8
1021	2.000000	1.066453	7.37504e+06	-51189.1	1055.82	-29753.1	0.000000	0.000000	7.069938	80.6194	NaN	0.000000	0.001603	0.001732	28.0814	38.2425	0.001805	21190.3	1.325856	-177.001	80.3124	1.066134	0.036717	0.036398	80.6194	21190.3	0.033863	0.049132	1640.88	87343.3
1021	2.000000	1.068450	7.37504e+06	-51189.1	1055.82	-29753.1	0.000000	0.000000	7.072256	88.4283	NaN	0.000000	0.001612	0.001716	28.0813	39.6295	0.001818	21794.1	5.000415	178.032	87.3681	1.068261	0.038713	0.038525	88.4283	21794.1	0.035670	0.053317	1658.55	86234.4
1021	2.000000	1.070466	7.37504e+06	-51189.1	1055.82	-29753.1	0.000000	0.000000	7.074565	95.5261	NaN	0.000000	0.001594	0.001753	28.0813	42.2473	0.001772	23835.2	2.855490	-179.547	95.811	1.070089	0.040730	0.040352	95.5261	23835.2	0.037724	0.058278	1639.14	90206.9
1021	2.000000	1.072500	7.37504e+06	-51189.1	1055.82	-29753.1	0.000000	0.000000	7.077093	107.558	NaN	0.000000	0.001617	0.001715	28.0809	44.0708	0.001760	25040.7	8.846183	175.705	109.736	1.072079	0.042763	0.042342	107.558	25040.7	0.039542	0.062850	1711.35	91257.3
1021	2.000000	1.074435	7.37504e+06	-51189.1	1055.82	-29753.1	0.000000	0.000000	7.079404	116.705	NaN	0.000000	0.001657	0.001754	28.0817	45.9847	0.001860	24727.7	5.132968	177.559	116.522	1.074142	0.044699	0.044405	116.705	24727.7	0.041159	0.067057	1740.37	87243.5
1021	2.000000	1.076401	7.37504e+06	-51189.1	1055.82	-29753.1	0.000000	0.000000	7.081758	126.144	NaN	0.000000	0.001685	0.001724	28.081	47.659	0.001771	26916.2	3.702183	178.557	123.686	1.076130	0.046664	0.046393	126.144	26916.2	0.043149	0.072420	1741.83	91381.1
1021	2.000000	1.078377	7.37504e+06	-51189.1	1055.82	-29753.1	0.000000	0.000000	7.083979	132.106	NaN	0.000000	0.001715	0.001735	28.0812	48.7871	0.001747	27931	2.905390	177.9	128.206	1.078161	0.048640	0.048424	132.106	27931	0.045093	0.077851	1696.92	91459.3
1021	2.000000	1.080406	7.37504e+06	-51189.1	1055.82	-29753.1	0.000000	0.000000	7.086261	138.24	NaN	0.000000	0.001644	0.001768	28.0811	51.7816	0.001824	28396.7	1.595058	179.562	135.842	1.080109	0.050670	0.050372	138.24	28396.7	0.047019	0.083421	1657.13	89826.3
1021	2.000000	1.082435	7.37504e+06	-51189.1	1055.82	-29753.1	0.000000	0.000000	7.088817	151.05	NaN	0.000000	0.001606	0.001738	28.0811	53.7934	0.001751	30717.1	2.905077	178.422	149.374	1.082085	0.052699	0.052348	151.05	30717.1	0.049010	0.089379	1690	93871.8
1021	2.000000	1.084435	7.37504e+06	-51189.1	1055.82	-29753.1	0.000000	0.000000	7.091102	158.011	NaN	0.000000	0.001582	0.001736	28.0816	55.9051	0.001880	29741.7	6.351858	174.021	156.031	1.084171	0.054698	0.054434	158.011	29741.7	0.050713	0.094631	1669.76	88332.8
1021	2.000000	1.086437	7.37504e+06	-51189.1	1055.82	-29753.1	0.000000	0.000000	7.093372	164.509	NaN	0.000000	0.001654	0.001746	28.081	57.78	0.001859	31088.7	3.995824	176.163	162.139	1.086138	0.056700	0.056402	164.509	31088.7	0.052732	0.101043	1628.11	89355.7
1021	2.000000	1.088367	7.37504e+06	-51189.1	1055.82	-29753.1	0.000000	0.000000	7.096010	181.734	NaN	0.000000	0.001659	0.001723	28.0812	57.8179	0.001760	32857.9	3.284980	176.646	177.636	1.088149	0.058630	0.058412	181.734	32857.9	0.054482	0.106768	1702.13	91873.8
1021	2.000000	1.090418	7.37504e+06	-51189.1	1055.82	-29753.1	0.000000	0.000000	7.098451	191.232	NaN	0.000000	0.001657	0.001731	28.0823	60.8557	0.001866	32608.3	4.387284	175.71	189.265	1.090102	0.060681	0.060366	191.232	32608.3	0.056282	0.112816	1695.08	88698.6
1021	2.000000	1.092411	7.37504e+06	-51189.1	1055.82	-29753.1	0.000000	0.000000	7.100935	203.143	NaN	0.000000	0.001697	0.001728	28.0822	62.3165	0.001838	33905.8	6.954011	174.064	201.659	1.092063	0.062675	0.062326	203.143	33905.8	0.058181	0.119366	1701.85	89661.6
1021	2.000000	1.094421	7.37504e+06	-51189.1	1055.82	-29753.1	0.000000	0.000000	7.103404	214.316	NaN	0.000000	0.001701	0.001693	28.0826	63.903	0.001792	35664.8	5.386500	173.378	212.196	1.094120	0.064684	0.064383	214.316	35664.8	0.060177	0.126445	1694.93	91635.1
1021	2.000000	1.096445	7.37504e+06	-51189.1	1055.82	-29753.1	0.000000	0.000000	7.105524	216.648	NaN	0.000000	0.001713	0.001771	28.0821	66.9243	0.001813	36920.3	6.313019	172.366	215.335	1.096152	0.066708	0.066415	216.648	36920.3	0.062307	0.134212	1614.22	92075.2
1021	2.000000	1.098450	7.37504e+06	-51189.1	1055.82	-29753.1	0.000000	0.000000	7.108080	230.054	NaN	0.000000	0.001710	0.001762	28.0824	66.7663	0.001639	40725	2.410182	175.797	231.724	1.098176	0.068713	0.068440	230.054	40725	0.064476	0.142347	1616.15	98619
1021	2.000000	1.100446	7.37504e+06	-51189.1	1055.82	-29753.1	0.000000	0.000000	7.110838	248.568	NaN	0.000000	0.001676	0.001713	28.0821	70.1168	0.001745	40189.3	9.766125	169.314	249.719	1.099980	0.070709	0.070243	248.568	40189.3	0.066071	0.148472	1674.17	95293.1
1021	2.000000	1.102411	7.37504e+06	-51189.1	1055.82	-29753.1	0.000000	0.000000	7.113305	260.785	NaN	0.000000	0.001687	0.001732	28.0821	71.463	0.001866	38307	4.760840	174.32	258.439	1.102166	0.072674	0.072429	260.785	38307	0.067568	0.154336	1689.72	89087.7
1021	2.000000	1.104350	7.37504e+06	-51189.1	1055.82	-29753.1	0.000000	0.000000	7.115772	273.623	NaN	0.000000	0.001704	0.001727	28.0824	72.1507	0.001675	43064.2	3.708535	174.661	268.863	1.104067	0.074614	0.074330	273.623	43064.2	0.069848	0.163471	1673.83	97312.5
1021	2.000000	1.106395	7.37504e+06	-51189.1	1055.82	-29753.1	0.000000	0.000000	7.118303	285.437	NaN	0.000000	0.001610	0.001719	28.0821	75.8129	0.001801	42094.1	1.919882	176.347	283.938	1.106081	0.076659	0.076344	285.437	42094.1	0.071573	0.170545	1673.67	93126.8
1021	2.000000	1.108262	7.37504e+06	-51189.1	1055.82	-29753.1	0.000000	0.000000	7.120621	296.415	NaN	0.000000	0.001641	0.001716	28.0827	76.193	0.001690	45088.6	4.191201	173.485	289.308	1.108003	0.078525	0.078266	296.415	45088.6	0.073595	0.179017	1655.79	97362.6
1021	2.000000	1.110373	7.37504e+06	-51189.1	1055.82	-29753.1	0.000000	0.000000	7.123356	311.579	NaN	0.000000	0.001610	0.001712	28.0823	78.9949	0.001788	44191.7	2.629219	175.158	309.426	1.110109	0.080637	0.080372	311.579	44191.7	0.075349	0.186524	1670.45	93486
1021	2.000000	1.112457	7.37504e+06	-51189.1	1055.82	-29753.1	0.000000	0.000000	7.125987	324.893	NaN	0.000000	0.001642	0.001731	28.0823	81.6558	0.001866	43758.1	5.866959	172.415	324.172	1.112134	0.082720	0.082397	324.893	43758.1	0.077152	0.194390	1671.35	90676.4
1021	2.000000	1.114445	7.37504e+06	-51189.1	1055.82	-29753.1	0.000000	0.000000	7.128547	338.794	NaN	0.000000	0.001622	0.001750	28.0823	82.8302	0.001843	44934.3	5.426678	172.831	342.98	1.114089	0.084708	0.084352	338.794	44934.3	0.079054	0.202854	1670.14	91150.6
1021	2.000000	1.116460	7.37504e+06	-51189.1	1055.82	-29753.1	0.000000	0.000000	7.130954	348.319	NaN	0.000000	0.001646	0.001750	28.0824	83.9833	0.001734	48431.7	4.980958	172.451	353.05	1.116149	0.086723	0.086413	348.319	48431.7	0.081329	0.213202	1633.75	95831.2
1021	2.000000	1.118336	7.37504e+06	-51189.1	1055.82	-29753.1	0.000000	0.000000	7.133570	366.303	NaN	0.000000	0.001587	0.001733	28.0825	84.3526	0.001644	51299.5	4.890862	172.14	364.082	1.117938	0.088600	0.088202	366.303	51299.5	0.083244	0.222097	1649.29	99452.3
1021	2.000000	1.120397	7.37504e+06	-51189.1	1055.82	-29753.1	0.000000	0.000000	7.136343	383.648	NaN	0.000000	0.001596	0.001751	28.0823	87.684	0.001748	50174.6	4.510260	173.032	383.067	1.120025	0.090660	0.090288	383.648	50174.6	0.084925	0.230045	1667.71	95576.4
1021	2.000000	1.122371	7.37504e+06	-51189.1	1055.82	-29753.1	0.000000	0.000000	7.138851	396.6	NaN	0.000000	0.001624	0.001724	28.0823	88.5925	0.001781	49731.5	4.003930	173.177	393.642	1.122050	0.092634	0.092314	396.6	49731.5	0.086653	0.238352	1663.92	93066.9
1021	2.000000	1.124349	7.37504e+06	-51189.1	1055.82	-29753.1	0.000000	0.000000	7.141312	408.364	NaN	0.000000	0.001635	0.001748	28.0811	91.4351	0.001812	50466.6	7.888386	169.178	405.319	1.124029	0.094612	0.094292	408.364	50466.6	0.088543	0.247593	1649.34	92663.4
1021	2.000000	1.126381	7.37504e+06	-51189.1	1055.82	-29753.1	0.000000	0.000000	7.143485	411.787	NaN	0.000000	0.001660	0.001752	28.081	91.5463	0.001747	52393.9	-1.482274	178.185	410.296	1.126186	0.096644	0.096449	411.787	52393.9	0.090750	0.258591	1592.43	94134.1
1021	2.000000	1.128399	7.37504e+06	-51189.1	1055.82	-29753.1	0.000000	0.000000	7.146414	433.947	NaN	0.000000	0.001661	0.001743	28.0813	94.4842	0.001761	53646.2	7.391868	169.232	435.056	1.128075	0.098662	0.098338	433.947	53646.2	0.092595	0.267962	1619.44	94683.8
1021	2.000000	1.130352	7.37504e+06	-51189.1	1055.82	-29753.1	0.000000	0.000000	7.149131	452.524	NaN	0.000000	0.001640	0.001772	28.0811	97.1058	0.001901	51087	4.046930	173.639	450.815	1.129919	0.100615	0.100182	452.524	51087	0.093971	0.275050	1645.24	88997.6
1021	2.000000	1.132452	7.37504e+06	-51189.1	1055.82	-29753.1	0.000000	0.000000	7.151855	467.676	NaN	0.000000	0.001624	0.001751	28.081	99.7182	0.001748	57045.5	11.3904	166.542	470.966	1.131955	0.102716	0.102218	467.676	57045.5	0.096567	0.288653	1620.2	97007.7
1021	2.000000	1.133073	7.37504e+06	-51189.1	1055.82	-29753.1	0.000000	0.000000	7.151954	454.996	NaN	0.000000	0.001632	0.001746	28.0813	99.7574	0.001747	57089.1	3.811009	-7.627851	461.222	1.132807	0.103337	0.103071	454.996	57089.1	0.097359	0.292867	1553.59	96381