File: remote_trans/data/nanoindenter/0828-1/data/Data_2025-08-06,11h17m57s/2025-07-22_16-23-58_1_647.txt
2025-07-22, 16:23:58, 1
Index	Phase	Displacement	Time	Pos X	Pos Y	Pos Z	Rot A	Rot B	Piezo Z	Force A	Force B	Gripper	Voltage A	Voltage B	Temperature	Amplitude force	Amplitude pos	Stiffness	Phase shift	Phase excitation	Force A raw	Displacement raw	HMax	HMax raw	Real Force	Real Stiffness	Contact Depth	Area	Hardness	Reduced Mod.
[#]	[#]	[um]	[s]	[um]	[um]	[um]	[m°]	[m°]	[um]	[uN]	[uN]	[V]	[V]	[V]	[°C]	[uN]	[um]	[N/m]	[°]	[°]	[uN]	[um]	[um]	[um]	[uN]	[N/m]	[um]	[um^2]	[MPa]	[MPa]
647	1.000000	0.003107	7.37138e+06	-44739.1	1005.82	-29774.9	0.000000	0.000000	6.002803	0.156042	NaN	0.000000	0.001577	0.001667	28.0838	0.090258	0.000979	92.1656	-153.587	-164.298	0.119955	0.001828	-1.042316	-1.043594	0.156042	92.1656	-1.043586	-8.753492E+13	-1.782621E-15	NaN
647	1.000000	0.011066	7.37138e+06	-44739.1	1005.82	-29774.9	0.000000	0.000000	6.010758	0.045809	NaN	0.000000	0.001574	0.001662	28.084	0.080217	0.000822	97.5777	107.579	-157.579	-0.014256	0.009707	-1.034356	-1.035716	0.045809	97.5777	-1.034708	-6.649791E+13	-6.888825E-16	NaN
647	1.000000	0.019049	7.37138e+06	-44739.1	1005.82	-29774.9	0.000000	0.000000	6.018741	0.037527	NaN	0.000000	0.001609	0.001640	28.0836	0.099056	0.001733	57.1742	-173.063	-166.186	0.133444	0.017724	-1.026374	-1.027698	0.037527	57.1742	-1.026866	-5.215803E+13	-7.194918E-16	NaN
647	1.000000	0.027074	7.37138e+06	-44739.1	1005.82	-29774.9	0.000000	0.000000	6.026767	0.051592	NaN	0.000000	0.001601	0.001627	28.0838	0.067788	0.001711	39.624	-71.9772	-166.307	0.068441	0.025720	-1.018348	-1.019702	0.051592	39.624	-1.019325	-4.129226E+13	-1.249425E-15	NaN
647	1.000000	0.035055	7.37138e+06	-44739.1	1005.82	-29774.9	0.000000	0.000000	6.034750	0.109862	NaN	0.000000	0.001593	0.001621	28.0824	0.044382	0.001899	23.3708	-106.442	-166.871	0.092816	0.033695	-1.010368	-1.011727	0.109862	23.3708	-1.013893	-3.489615E+13	-3.148268E-15	NaN
647	1.000000	0.043055	7.37138e+06	-44739.1	1005.82	-29774.9	0.000000	0.000000	6.042747	0.053967	NaN	0.000000	0.001582	0.001588	28.0823	0.046306	0.001977	23.4274	-67.2256	-167.376	0.084547	0.041746	-1.002368	-1.003676	0.053967	23.4274	-1.004096	-2.575770E+13	-2.095174E-15	NaN
647	1.000000	0.051079	7.37138e+06	-44739.1	1005.82	-29774.9	0.000000	0.000000	6.050769	0.008403	NaN	0.000000	0.001568	0.001652	28.0826	0.123437	0.001995	61.8748	-128.773	-164.11	0.088934	0.049740	-0.994344	-0.995683	0.008403	61.8748	-0.994446	-1.909776E+13	-4.399773E-16	NaN
647	1.000000	0.059031	7.37138e+06	-44739.1	1005.82	-29774.9	0.000000	0.000000	6.058723	0.060335	NaN	0.000000	0.001547	0.001644	28.0818	0.090370	0.002017	44.7974	65.6271	-167.107	0.082290	0.057803	-0.986392	-0.987620	0.060335	44.7974	-0.987402	-1.535054E+13	-3.930486E-15	NaN
647	1.000000	0.067063	7.37138e+06	-44739.1	1005.82	-29774.9	0.000000	0.000000	6.066754	0.028909	NaN	0.000000	0.001535	0.001679	28.0818	0.069161	0.001984	34.8612	-91.5933	-167.988	0.095880	0.065781	-0.978360	-0.979641	0.028909	34.8612	-0.978982	-1.182209E+13	-2.445307E-15	NaN
647	1.000000	0.075053	7.37138e+06	-44739.1	1005.82	-29774.9	0.000000	0.000000	6.074747	0.100642	NaN	0.000000	0.001576	0.001718	28.0819	0.067006	0.002028	33.0459	80.1806	-167.379	0.061790	0.073776	-0.970370	-0.971647	0.100642	33.0459	-0.972654	-9.714788E+12	-1.035971E-14	NaN
647	1.000000	0.083062	7.37138e+06	-44739.1	1005.82	-29774.9	0.000000	0.000000	6.082755	0.070722	NaN	0.000000	0.001554	0.001703	28.082	0.054375	0.002049	26.5386	60.4545	-166.717	0.055031	0.081772	-0.962360	-0.963651	0.070722	26.5386	-0.964359	-7.509863E+12	-9.417248E-15	NaN
647	1.000000	0.091067	7.37138e+06	-44739.1	1005.82	-29774.9	0.000000	0.000000	6.090757	-0.001629	NaN	0.000000	0.001555	0.001657	28.083	0.064055	0.002078	30.8234	-8.289657	-165.144	-0.009517	0.089743	-0.954356	-0.955680	-0.001629	30.8234	-0.954316	-5.498352E+12	2.962950E-16	NaN
647	1.000000	0.099035	7.37138e+06	-44739.1	1005.82	-29774.9	0.000000	0.000000	6.098728	0.081745	NaN	0.000000	0.001627	0.001681	28.082	0.109194	0.001915	57.0191	94.3594	-168.684	0.143814	0.097758	-0.946388	-0.947664	0.081745	57.0191	-0.947463	-4.444377E+12	-1.839288E-14	NaN
647	1.000000	0.107073	7.37138e+06	-44739.1	1005.82	-29774.9	0.000000	0.000000	6.106767	0.099044	NaN	0.000000	0.001569	0.001673	28.0818	0.047541	0.001905	24.9497	-57.7888	-162.32	0.043033	0.105758	-0.938350	-0.939665	0.099044	24.9497	-0.941327	-3.673175E+12	-2.696426E-14	NaN
647	1.000000	0.115084	7.37138e+06	-44739.1	1005.82	-29774.9	0.000000	0.000000	6.114776	0.054202	NaN	0.000000	0.001605	0.001652	28.0819	0.024768	0.001995	12.414	75.7787	-168.699	0.138344	0.113767	-0.930339	-0.931656	0.054202	12.414	-0.933614	-2.890456E+12	-1.875218E-14	NaN
647	1.000000	0.123103	7.37138e+06	-44739.1	1005.82	-29774.9	0.000000	0.000000	6.122795	0.039291	NaN	0.000000	0.001574	0.001664	28.0819	0.067209	0.002004	33.539	100.92	-161.269	0.052841	0.121728	-0.922320	-0.923695	0.039291	33.539	-0.923198	-2.091163E+12	-1.878909E-14	NaN
647	1.000000	0.131096	7.37138e+06	-44739.1	1005.82	-29774.9	0.000000	0.000000	6.130789	0.056254	NaN	0.000000	0.001591	0.001633	28.0819	0.021520	0.001924	11.1841	-167.379	-166.759	0.055712	0.129781	-0.914326	-0.915642	0.056254	11.1841	-0.918099	-1.784578E+12	-3.152215E-14	NaN
647	1.000000	0.139096	7.37138e+06	-44739.1	1005.82	-29774.9	0.000000	0.000000	6.138786	0.012589	NaN	0.000000	0.001603	0.001615	28.0819	0.079644	0.001981	40.2077	-4.164248	-164.072	0.008594	0.137788	-0.906327	-0.907635	0.012589	40.2077	-0.906562	-1.246578E+12	-1.009851E-14	NaN
647	1.000000	0.147089	7.37138e+06	-44739.1	1005.82	-29774.9	0.000000	0.000000	6.146778	-0.019546	NaN	0.000000	0.001588	0.001623	28.0818	0.050916	0.002064	24.6632	-60.4942	-164.089	0.007494	0.145766	-0.898334	-0.899657	-0.019546	24.6632	-0.897740	-9.473743E+11	2.063186E-14	NaN
647	1.000000	0.155106	7.37138e+06	-44739.1	1005.82	-29774.9	0.000000	0.000000	6.154800	0.100586	NaN	0.000000	0.001576	0.001622	28.0818	0.074397	0.001887	39.4318	-21.3242	-167.352	0.119178	0.153827	-0.890317	-0.891596	0.100586	39.4318	-0.892230	-7.981099E+11	-1.260297E-13	NaN
647	1.000000	0.163104	7.37138e+06	-44739.1	1005.82	-29774.9	0.000000	0.000000	6.162796	0.042678	NaN	0.000000	0.001546	0.001672	28.0817	0.078188	0.002092	37.3736	74.564	-162.173	-0.034361	0.161755	-0.882319	-0.883668	0.042678	37.3736	-0.883175	-6.020720E+11	-7.088562E-14	NaN
647	1.000000	0.171104	7.37138e+06	-44739.1	1005.82	-29774.9	0.000000	0.000000	6.170801	0.166100	NaN	0.000000	0.001558	0.001637	28.083	0.070676	0.002068	34.178	-70.6675	-166.141	0.122318	0.169778	-0.874318	-0.875645	0.166100	34.178	-0.877963	-5.118743E+11	-3.244935E-13	NaN
647	1.000000	0.179110	7.37138e+06	-44739.1	1005.82	-29774.9	0.000000	0.000000	6.178802	0.063283	NaN	0.000000	0.001558	0.001610	28.0831	0.072560	0.002009	36.1156	171.559	-163.974	0.028624	0.177815	-0.866313	-0.867607	0.063283	36.1156	-0.867627	-3.709728E+11	-1.705868E-13	NaN
647	1.000000	0.187125	7.37138e+06	-44739.1	1005.82	-29774.9	0.000000	0.000000	6.186817	0.028339	NaN	0.000000	0.001578	0.001647	28.0831	0.025571	0.002176	11.7489	-121.319	-167.236	-0.076972	0.185803	-0.858297	-0.859620	0.028339	11.7489	-0.860106	-2.934672E+11	-9.656611E-14	NaN
647	1.000000	0.195100	7.37138e+06	-44739.1	1005.82	-29774.9	0.000000	0.000000	6.194790	0.015451	NaN	0.000000	0.001654	0.001634	28.0833	0.133075	0.002089	63.7069	111.047	-168.469	0.000371	0.193793	-0.850323	-0.851630	0.015451	63.7069	-0.850505	-2.175584E+11	-7.101941E-14	NaN
647	1.000000	0.203105	7.37138e+06	-44739.1	1005.82	-29774.9	0.000000	0.000000	6.202797	0.026475	NaN	0.000000	0.001641	0.001645	28.083	0.132789	0.002009	66.085	128.577	-166.777	0.057007	0.201815	-0.842317	-0.843608	0.026475	66.085	-0.842618	-1.701202E+11	-1.556280E-13	NaN
647	1.000000	0.211118	7.37138e+06	-44739.1	1005.82	-29774.9	0.000000	0.000000	6.210810	0.022849	NaN	0.000000	0.001571	0.001637	28.0832	0.104923	0.002014	52.1092	-54.3543	-165.453	0.075559	0.209788	-0.834304	-0.835635	0.022849	52.1092	-0.834633	-1.326098E+11	-1.723003E-13	NaN
647	1.000000	0.219140	7.37138e+06	-44739.1	1005.82	-29774.9	0.000000	0.000000	6.218830	0.017626	NaN	0.000000	0.001597	0.001665	28.0831	0.035039	0.002131	16.4458	119.205	-166.113	0.025682	0.217801	-0.826283	-0.827621	0.017626	16.4458	-0.827087	-1.047848E+11	-1.682148E-13	NaN
647	1.000000	0.227150	7.37138e+06	-44739.1	1005.82	-29774.9	0.000000	0.000000	6.226842	0.033986	NaN	0.000000	0.001582	0.001649	28.083	0.129790	0.001993	65.1207	75.6638	-164.912	0.067694	0.225821	-0.818273	-0.819602	0.033986	65.1207	-0.818664	-8.055531E+10	-4.218959E-13	NaN
647	1.000000	0.235151	7.37138e+06	-44739.1	1005.82	-29774.9	0.000000	0.000000	6.234845	0.078802	NaN	0.000000	0.001586	0.001656	28.0832	0.063365	0.001966	32.2385	-95.2552	-167.293	-0.033728	0.233807	-0.810271	-0.811616	0.078802	32.2385	-0.812105	-6.563305E+10	-1.200640E-12	NaN
647	1.000000	0.243112	7.37138e+06	-44739.1	1005.82	-29774.9	0.000000	0.000000	6.242804	0.060816	NaN	0.000000	0.001614	0.001659	28.0831	0.040291	0.001976	20.3936	168.587	-166.223	0.057062	0.241818	-0.802311	-0.803605	0.060816	20.3936	-0.804548	-5.183082E+10	-1.173365E-12	NaN
647	1.000000	0.251149	7.37138e+06	-44739.1	1005.82	-29774.9	0.000000	0.000000	6.250839	-0.013054	NaN	0.000000	0.001624	0.001646	28.0833	0.063219	0.001989	31.777	85.0262	-163.198	0.058440	0.249832	-0.794273	-0.795590	-0.013054	31.777	-0.793965	-3.723341E+10	3.505920E-13	NaN
647	1.000000	0.259136	7.37138e+06	-44739.1	1005.82	-29774.9	0.000000	0.000000	6.258830	0.089735	NaN	0.000000	0.001585	0.001660	28.0831	0.141221	0.002027	69.6556	85.8389	-168.799	0.133112	0.257838	-0.786287	-0.787585	0.089735	69.6556	-0.787253	-3.018353E+10	-2.972992E-12	NaN
647	1.000000	0.267129	7.37138e+06	-44739.1	1005.82	-29774.9	0.000000	0.000000	6.266822	0.057367	NaN	0.000000	0.001608	0.001643	28.0831	0.030954	0.002060	15.0262	-9.913502	-164.988	0.087904	0.265805	-0.778293	-0.779617	0.057367	15.0262	-0.781157	-2.494307E+10	-2.299920E-12	NaN
647	1.000000	0.275150	7.37138e+06	-44739.1	1005.82	-29774.9	0.000000	0.000000	6.274844	0.073572	NaN	0.000000	0.001579	0.001645	28.0832	0.059651	0.002017	29.5751	-55.2258	-167.801	0.060085	0.273905	-0.770272	-0.771518	0.073572	29.5751	-0.772138	-1.880939E+10	-3.911466E-12	NaN
647	1.000000	0.283134	7.37138e+06	-44739.1	1005.82	-29774.9	0.000000	0.000000	6.282826	0.050958	NaN	0.000000	0.001517	0.001661	28.0838	0.028925	0.002050	14.1082	90.1842	-164.597	0.032768	0.281896	-0.762289	-0.763527	0.050958	14.1082	-0.764998	-1.504115E+10	-3.387901E-12	NaN
647	1.000000	0.291173	7.37138e+06	-44739.1	1005.82	-29774.9	0.000000	0.000000	6.290866	0.061401	NaN	0.000000	0.001604	0.001633	28.0833	0.094785	0.002028	46.7425	129.897	-166.456	0.057212	0.289898	-0.754250	-0.755524	0.061401	46.7425	-0.755235	-1.107813E+10	-5.542507E-12	NaN
647	1.000000	0.299172	7.37138e+06	-44739.1	1005.82	-29774.9	0.000000	0.000000	6.298862	-0.011233	NaN	0.000000	0.001595	0.001627	28.0832	0.050927	0.002078	24.51	71.2879	-165.444	0.008324	0.297822	-0.746251	-0.747601	-0.011233	24.51	-0.745907	-8.269892E+9	1.358270E-12	NaN
647	1.000000	0.307148	7.37138e+06	-44739.1	1005.82	-29774.9	0.000000	0.000000	6.306838	0.000118	NaN	0.000000	0.001625	0.001608	28.0822	0.054833	0.001971	27.8146	158.236	-168.149	0.082600	0.305810	-0.738274	-0.739613	0.000118	27.8146	-0.738278	-6.510202E+9	-1.812943E-14	NaN
647	1.000000	0.315140	7.37138e+06	-44739.1	1005.82	-29774.9	0.000000	0.000000	6.314831	0.010280	NaN	0.000000	0.001603	0.001617	28.0818	0.047663	0.002013	23.682	78.2981	-166.579	-0.111728	0.313862	-0.730282	-0.731560	0.010280	23.682	-0.730608	-5.117932E+9	-2.008652E-12	NaN
647	1.000000	0.323192	7.37138e+06	-44739.1	1005.82	-29774.9	0.000000	0.000000	6.322885	0.064864	NaN	0.000000	0.001616	0.001600	28.0819	0.076041	0.001966	38.6748	20.4503	-166.805	0.045234	0.321888	-0.722231	-0.723535	0.064864	38.6748	-0.723489	-4.093018E+9	-1.584746E-11	NaN
647	1.000000	0.331194	7.37138e+06	-44739.1	1005.82	-29774.9	0.000000	0.000000	6.330886	0.030203	NaN	0.000000	0.001594	0.001645	28.082	0.097769	0.001841	53.1053	153.612	-164.453	0.081640	0.329860	-0.714228	-0.715563	0.030203	53.1053	-0.714655	-3.101445E+9	-9.738327E-12	NaN
647	1.000000	0.339156	7.37138e+06	-44739.1	1005.82	-29774.9	0.000000	0.000000	6.338849	0.056576	NaN	0.000000	0.001606	0.001639	28.0822	0.034716	0.001954	17.7631	-50.8039	-167.717	0.054778	0.337873	-0.706267	-0.707550	0.056576	17.7631	-0.708655	-2.568598E+9	-2.202605E-11	NaN
647	1.000000	0.347188	7.37138e+06	-44739.1	1005.82	-29774.9	0.000000	0.000000	6.346877	-0.014527	NaN	0.000000	0.001609	0.001682	28.0821	0.065884	0.001934	34.0686	170.875	-164.306	0.016222	0.345848	-0.698235	-0.699574	-0.014527	34.0686	-0.697915	-1.832563E+9	7.927383E-12	NaN
647	1.000000	0.355157	7.37138e+06	-44739.1	1005.82	-29774.9	0.000000	0.000000	6.354849	0.053012	NaN	0.000000	0.001629	0.001651	28.0818	0.028527	0.002022	14.1066	131.55	-164.528	0.010039	0.353848	-0.690266	-0.691575	0.053012	14.1066	-0.693085	-1.574230E+9	-3.367470E-11	NaN
647	1.000000	0.363182	7.37138e+06	-44739.1	1005.82	-29774.9	0.000000	0.000000	6.362874	0.051468	NaN	0.000000	0.001600	0.001661	28.082	0.038288	0.002178	17.5797	-142.595	-166.367	-0.026307	0.361862	-0.682241	-0.683561	0.051468	17.5797	-0.684436	-1.199141E+9	-4.292094E-11	NaN
647	1.000000	0.371183	7.37138e+06	-44739.1	1005.82	-29774.9	0.000000	0.000000	6.370875	0.033713	NaN	0.000000	0.001587	0.001625	28.0818	0.134237	0.001966	68.2623	101.824	-168.733	0.059666	0.369896	-0.674239	-0.675527	0.033713	68.2623	-0.674610	-8.799817E+8	-3.831098E-11	NaN
647	1.000000	0.379191	7.37138e+06	-44739.1	1005.82	-29774.9	0.000000	0.000000	6.378882	0.011125	NaN	0.000000	0.001582	0.001737	28.0821	0.027890	0.001903	14.6567	-144.624	-165.713	0.076828	0.377943	-0.666232	-0.667480	0.011125	14.6567	-0.666801	-6.880159E+8	-1.616939E-11	NaN
647	1.000000	0.387239	7.37138e+06	-44739.1	1005.82	-29774.9	0.000000	0.000000	6.386931	0.048032	NaN	0.000000	0.001614	0.001691	28.082	0.058433	0.002031	28.7692	-145.992	-166.056	0.081277	0.385842	-0.658184	-0.659581	0.048032	28.7692	-0.659436	-5.454403E+8	-8.806153E-11	NaN
647	1.000000	0.395209	7.37138e+06	-44739.1	1005.82	-29774.9	0.000000	0.000000	6.394903	0.095207	NaN	0.000000	0.001629	0.001686	28.0818	0.080081	0.002049	39.0814	-146.311	-168.129	0.018968	0.393920	-0.650214	-0.651503	0.095207	39.0814	-0.652041	-4.319341E+8	-2.204194E-10	NaN
647	1.000000	0.403208	7.37138e+06	-44739.1	1005.82	-29774.9	0.000000	0.000000	6.402900	0.035923	NaN	0.000000	0.001609	0.001648	28.082	0.048198	0.002000	24.0945	47.9205	-165.231	0.048058	0.401868	-0.642214	-0.643555	0.035923	24.0945	-0.643332	-3.281003E+8	-1.094866E-10	NaN
647	1.000000	0.411209	7.37138e+06	-44739.1	1005.82	-29774.9	0.000000	0.000000	6.410899	-0.004134	NaN	0.000000	0.001609	0.001650	28.0818	0.053900	0.002116	25.4689	48.0897	-166.031	-0.003191	0.409821	-0.634213	-0.635602	-0.004134	25.4689	-0.634092	-2.450203E+8	1.687393E-11	NaN
647	1.000000	0.419202	7.37138e+06	-44739.1	1005.82	-29774.9	0.000000	0.000000	6.418894	0.065101	NaN	0.000000	0.001644	0.001687	28.0819	0.056766	0.002037	27.8738	-37.6875	-167.803	0.116975	0.417934	-0.626221	-0.627489	0.065101	27.8738	-0.627973	-2.019215E+8	-3.224065E-10	NaN
647	1.000000	0.427204	7.37138e+06	-44739.1	1005.82	-29774.9	0.000000	0.000000	6.426894	0.002718	NaN	0.000000	0.001652	0.001719	28.0818	0.050810	0.001907	26.6449	-90.2276	-162.598	0.038943	0.425889	-0.618219	-0.619533	0.002718	26.6449	-0.618295	-1.486616E+8	-1.828029E-11	NaN
647	1.000000	0.435211	7.37138e+06	-44739.1	1005.82	-29774.9	0.000000	0.000000	6.434904	0.059074	NaN	0.000000	0.001598	0.001702	28.082	0.034123	0.002058	16.5831	47.091	-168.196	0.071623	0.433948	-0.610212	-0.611475	0.059074	16.5831	-0.612883	-1.252502E+8	-4.716499E-10	NaN
647	1.000000	0.443248	7.37138e+06	-44739.1	1005.82	-29774.9	0.000000	0.000000	6.442938	-0.006320	NaN	0.000000	0.001634	0.001725	28.0829	0.150155	0.001969	76.2559	-146.418	-168.329	0.044518	0.441886	-0.602175	-0.603536	-0.006320	76.2559	-0.602112	-8.903268E+7	7.098069E-11	NaN
647	1.000000	0.451209	7.37138e+06	-44739.1	1005.82	-29774.9	0.000000	0.000000	6.450901	0.044858	NaN	0.000000	0.001620	0.001720	28.0831	0.052674	0.002008	26.2271	-2.758038	-163.847	0.074324	0.449968	-0.594213	-0.595455	0.044858	26.2271	-0.595496	-7.218000E+7	-6.214703E-10	NaN
647	1.000000	0.459191	7.37138e+06	-44739.1	1005.82	-29774.9	0.000000	0.000000	6.458884	0.068610	NaN	0.000000	0.001578	0.001703	28.0833	0.041614	0.002047	20.3314	116.771	-166.09	0.037168	0.457917	-0.586231	-0.587506	0.068610	20.3314	-0.588762	-5.829090E+7	-1.177023E-9	NaN
647	1.000000	0.467220	7.37138e+06	-44739.1	1005.82	-29774.9	0.000000	0.000000	6.466913	0.062959	NaN	0.000000	0.001625	0.001700	28.0833	0.029401	0.001969	14.9346	120.884	-166.56	0.025918	0.465943	-0.578202	-0.579480	0.062959	14.9346	-0.581364	-4.608421E+7	-1.366168E-9	NaN
647	1.000000	0.475229	7.37138e+06	-44739.1	1005.82	-29774.9	0.000000	0.000000	6.474919	-1.874220E-5	NaN	0.000000	0.001589	0.001708	28.0834	0.017258	0.001941	8.891570	-115.425	-166.616	0.029581	0.473936	-0.570194	-0.571486	-1.874220E-5	8.891570	-0.570192	-3.230620E+7	5.801427E-13	NaN
647	1.000000	0.483241	7.37138e+06	-44739.1	1005.82	-29774.9	0.000000	0.000000	6.482931	0.001418	NaN	0.000000	0.001605	0.001687	28.0832	0.141304	0.002062	68.5389	-64.5982	-163.901	0.013591	0.481963	-0.562182	-0.563459	0.001418	68.5389	-0.562197	-2.504796E+7	-5.661310E-11	NaN
647	1.000000	0.491248	7.37138e+06	-44739.1	1005.82	-29774.9	0.000000	0.000000	6.490941	0.056608	NaN	0.000000	0.001632	0.001711	28.0829	0.034443	0.002070	16.636	-103.16	-167.725	-0.043043	0.489951	-0.554174	-0.555472	0.056608	16.636	-0.556727	-2.104191E+7	-2.690258E-9	NaN
647	1.000000	0.499223	7.37138e+06	-44739.1	1005.82	-29774.9	0.000000	0.000000	6.498912	-0.022808	NaN	0.000000	0.001602	0.001662	28.0831	0.011692	0.001881	6.216448	-35.3891	-167.162	0.044561	0.497925	-0.546200	-0.547497	-0.022808	6.216448	-0.543448	-1.377760E+7	1.655423E-9	NaN
647	1.000000	0.507261	7.37138e+06	-44739.1	1005.82	-29774.9	0.000000	0.000000	6.506953	0.047962	NaN	0.000000	0.001571	0.001705	28.083	0.029816	0.002038	14.6275	-168.851	-161.747	-0.022921	0.505929	-0.538161	-0.539494	0.047962	14.6275	-0.540621	-1.258826E+7	-3.810081E-9	NaN
647	1.000000	0.515250	7.37138e+06	-44739.1	1005.82	-29774.9	0.000000	0.000000	6.514943	0.068755	NaN	0.000000	0.001623	0.001721	28.0829	0.035558	0.002000	17.7805	-81.7338	-166.781	0.094053	0.513971	-0.530173	-0.531452	0.068755	17.7805	-0.533073	-9.89113e+06	-6.951194E-9	NaN
647	1.000000	0.523281	7.37138e+06	-44739.1	1005.82	-29774.9	0.000000	0.000000	6.522972	0.018733	NaN	0.000000	0.001624	0.001738	28.0831	0.018372	0.002038	9.015829	75.8071	-164.385	0.052927	0.521914	-0.522142	-0.523509	0.018733	9.015829	-0.523700	-7.32897e+06	-2.555956E-9	NaN
647	1.000000	0.531247	7.37138e+06	-44739.1	1005.82	-29774.9	0.000000	0.000000	6.530937	0.000775	NaN	0.000000	0.001628	0.001687	28.083	0.117244	0.001989	58.9437	55.3512	-166.172	0.059580	0.529937	-0.514176	-0.515486	0.000775	58.9437	-0.514186	-5.40376e+06	-1.434978E-10	NaN
647	1.000000	0.539268	7.37138e+06	-44739.1	1005.82	-29774.9	0.000000	0.000000	6.538959	0.020382	NaN	0.000000	0.001619	0.001723	28.0831	0.065111	0.001942	33.5194	-135.562	-164.127	0.020995	0.537982	-0.506154	-0.507441	0.020382	33.5194	-0.506610	-4.23829e+06	-4.808987E-9	NaN
647	1.000000	0.547279	7.37138e+06	-44739.1	1005.82	-29774.9	0.000000	0.000000	6.546973	0.097285	NaN	0.000000	0.001611	0.001718	28.0829	0.043801	0.001820	24.0641	157.524	-165.172	0.118798	0.545948	-0.498144	-0.499475	0.097285	24.0641	-0.501176	-3.55977e+06	-2.732902E-8	NaN
647	1.000000	0.555263	7.37138e+06	-44739.1	1005.82	-29774.9	0.000000	0.000000	6.554951	-0.044628	NaN	0.000000	0.001629	0.001698	28.0829	0.055335	0.001985	27.8712	125.316	-160.759	-0.044702	0.553935	-0.490160	-0.491488	-0.044628	27.8712	-0.488959	-2.40351e+06	1.856787E-8	NaN
647	1.000000	0.563270	7.37138e+06	-44739.1	1005.82	-29774.9	0.000000	0.000000	6.562962	0.052784	NaN	0.000000	0.001603	0.001658	28.083	0.120184	0.001952	61.5838	88.0375	-166.704	0.065488	0.561964	-0.482153	-0.483459	0.052784	61.5838	-0.482796	-1.97087e+06	-2.678218E-8	NaN
647	1.000000	0.571261	7.37138e+06	-44739.1	1005.82	-29774.9	0.000000	0.000000	6.570952	0.035564	NaN	0.000000	0.001590	0.001678	28.083	0.091994	0.001963	46.8716	123.404	-164.972	0.065924	0.569968	-0.474162	-0.475454	0.035564	46.8716	-0.474731	-1.51962e+06	-2.340348E-8	NaN
647	1.000000	0.579279	7.37138e+06	-44739.1	1005.82	-29774.9	0.000000	0.000000	6.578973	0.082983	NaN	0.000000	0.001630	0.001778	28.0827	0.109732	0.001888	58.1295	-92.4841	-164.704	0.086023	0.577971	-0.466143	-0.467451	0.082983	58.1295	-0.467214	-1.19213e+06	-6.960930E-8	NaN
647	1.000000	0.587290	7.37138e+06	-44739.1	1005.82	-29774.9	0.000000	0.000000	6.586984	0.096841	NaN	0.000000	0.001609	0.001748	28.0818	0.171922	0.002060	83.4732	-13.2483	-166.849	0.003320	0.586003	-0.458133	-0.459420	0.096841	83.4732	-0.459003	-914126	-1.059388E-7	NaN
647	1.000000	0.595294	7.37138e+06	-44739.1	1005.82	-29774.9	0.000000	0.000000	6.594986	0.050454	NaN	0.000000	0.001543	0.001761	28.0818	0.031882	0.002246	14.1942	112.572	-168.768	0.012199	0.594005	-0.450129	-0.451417	0.050454	14.1942	-0.452795	-747634	-6.748443E-8	NaN
647	1.000000	0.603291	7.37138e+06	-44739.1	1005.82	-29774.9	0.000000	0.000000	6.602981	0.012992	NaN	0.000000	0.001579	0.001745	28.0818	0.069624	0.002012	34.6014	40.5084	-164.974	0.067713	0.601998	-0.442132	-0.443425	0.012992	34.6014	-0.442414	-533851	-2.433551E-8	NaN
647	1.000000	0.611269	7.37138e+06	-44739.1	1005.82	-29774.9	0.000000	0.000000	6.610962	0.053161	NaN	0.000000	0.001560	0.001677	28.0817	0.080012	0.002148	37.2554	-84.3056	-164.046	0.074528	0.609996	-0.434153	-0.435426	0.053161	37.2554	-0.435224	-422584	-1.258003E-7	NaN
647	1.000000	0.619311	7.37138e+06	-44739.1	1005.82	-29774.9	0.000000	0.000000	6.619002	0.006566	NaN	0.000000	0.001583	0.001692	28.0819	0.044527	0.002028	21.9578	-179.605	-164.12	-0.063597	0.617980	-0.426111	-0.427443	0.006566	21.9578	-0.426336	-316373	-2.075449E-8	NaN
647	1.000000	0.627322	7.37138e+06	-44739.1	1005.82	-29774.9	0.000000	0.000000	6.627014	0.044825	NaN	0.000000	0.001604	0.001673	28.0819	0.014556	0.002000	7.277931	103.961	-164.12	0.031720	0.625955	-0.418101	-0.419468	0.044825	7.277931	-0.422720	-281175	-1.594206E-7	NaN
647	1.000000	0.635280	7.37138e+06	-44739.1	1005.82	-29774.9	0.000000	0.000000	6.634973	0.055157	NaN	0.000000	0.001594	0.001654	28.0819	0.028090	0.001969	14.2672	-79.1581	-169.389	0.102376	0.633995	-0.410143	-0.411428	0.055157	14.2672	-0.413042	-204947	-2.691271E-7	NaN
647	1.000000	0.643316	7.37138e+06	-44739.1	1005.82	-29774.9	0.000000	0.000000	6.643011	0.114264	NaN	0.000000	0.001560	0.001641	28.0816	0.160148	0.001962	81.6317	127.478	-163.239	0.103999	0.641994	-0.402107	-0.403428	0.114264	81.6317	-0.403157	-148249	-7.707622E-7	NaN
647	1.000000	0.651300	7.37138e+06	-44739.1	1005.82	-29774.9	0.000000	0.000000	6.650992	0.057984	NaN	0.000000	0.001593	0.001685	28.0816	0.081018	0.002075	39.0367	32.6447	-163.915	0.065063	0.650004	-0.394123	-0.395419	0.057984	39.0367	-0.395237	-114293	-5.073287E-7	NaN
647	1.000000	0.659302	7.37138e+06	-44739.1	1005.82	-29774.9	0.000000	0.000000	6.658993	0.015783	NaN	0.000000	0.001637	0.001663	28.0816	0.067886	0.002058	32.9862	168.81	-167.922	0.062847	0.657972	-0.386121	-0.387451	0.015783	32.9862	-0.386480	-85661	-1.842452E-7	NaN
647	1.000000	0.667315	7.37138e+06	-44739.1	1005.82	-29774.9	0.000000	0.000000	6.667005	0.004820	NaN	0.000000	0.001694	0.001666	28.0819	0.032388	0.001910	16.9564	-30.7128	-166.672	-0.038257	0.666024	-0.378108	-0.379398	0.004820	16.9564	-0.378321	-65431	-7.366328E-8	NaN
647	1.000000	0.675318	7.37138e+06	-44739.1	1005.82	-29774.9	0.000000	0.000000	6.675010	0.033394	NaN	0.000000	0.001652	0.001642	28.082	0.120049	0.001821	65.9345	90.9401	-164.939	0.061478	0.674009	-0.370105	-0.371414	0.033394	65.9345	-0.370485	-50478.3	-6.615608E-7	NaN
647	1.000000	0.683319	7.37138e+06	-44739.1	1005.82	-29774.9	0.000000	0.000000	6.683012	0.069125	NaN	0.000000	0.001642	0.001652	28.0817	0.055000	0.001912	28.7631	67.0653	-167.393	0.096876	0.681988	-0.362104	-0.363435	0.069125	28.7631	-0.363907	-40576.5	-1.703569E-6	NaN
647	1.000000	0.691307	7.37138e+06	-44739.1	1005.82	-29774.9	0.000000	0.000000	6.690998	0.021650	NaN	0.000000	0.001615	0.001671	28.0817	0.024560	0.001931	12.7162	152.097	-165.78	0.001899	0.690010	-0.354116	-0.355413	0.021650	12.7162	-0.355393	-30562.4	-7.083811E-7	NaN
647	1.000000	0.699290	7.37138e+06	-44739.1	1005.82	-29774.9	0.000000	0.000000	6.698979	-0.025075	NaN	0.000000	0.001599	0.001651	28.0816	0.112929	0.001987	56.8242	-110.302	-167.518	0.014185	0.698012	-0.346132	-0.347410	-0.025075	56.8242	-0.345801	-22182.6	1.130400E-6	NaN
647	1.000000	0.707309	7.37138e+06	-44739.1	1005.82	-29774.9	0.000000	0.000000	6.707001	0.032696	NaN	0.000000	0.001608	0.001668	28.0819	0.062484	0.001956	31.9484	124.459	-169.636	0.010527	0.705959	-0.338114	-0.339463	0.032696	31.9484	-0.338881	-17589	-1.858899E-6	NaN
647	1.000000	0.715318	7.37138e+06	-44739.1	1005.82	-29774.9	0.000000	0.000000	6.715011	0.067467	NaN	0.000000	0.001647	0.001649	28.0821	0.031897	0.002096	15.2212	-69.6635	-160.81	0.030703	0.714038	-0.330105	-0.331385	0.067467	15.2212	-0.333429	-14642.9	-4.607494E-6	NaN
647	1.000000	0.723337	7.37138e+06	-44739.1	1005.82	-29774.9	0.000000	0.000000	6.723033	0.163103	NaN	0.000000	0.001673	0.001646	28.0832	0.070061	0.001992	35.177	-166.435	-164.918	0.086803	0.722032	-0.322086	-0.323390	0.163103	35.177	-0.325564	-11230.8	-1.452289E-5	NaN
647	1.000000	0.731340	7.37138e+06	-44739.1	1005.82	-29774.9	0.000000	0.000000	6.731034	0.083068	NaN	0.000000	0.001669	0.001618	28.0832	0.080447	0.001977	40.687	-152.266	-165.039	0.110275	0.730024	-0.314082	-0.315399	0.083068	40.687	-0.315614	-8016.83	-1.036176E-5	NaN
647	1.000000	0.739341	7.37138e+06	-44739.1	1005.82	-29774.9	0.000000	0.000000	6.739034	0.067699	NaN	0.000000	0.001654	0.001625	28.083	0.079298	0.002159	36.7239	-3.990212	-166.149	0.069035	0.738067	-0.306082	-0.307356	0.067699	36.7239	-0.307464	-6074.42	-1.114491E-5	NaN
647	1.000000	0.747312	7.37138e+06	-44739.1	1005.82	-29774.9	0.000000	0.000000	6.747005	0.087313	NaN	0.000000	0.001591	0.001694	28.0832	0.093988	0.002038	46.1277	-22.6592	-167.011	0.106527	0.745983	-0.298111	-0.299440	0.087313	46.1277	-0.299531	-4630.72	-1.885512E-5	NaN
647	1.000000	0.755342	7.37138e+06	-44739.1	1005.82	-29774.9	0.000000	0.000000	6.755034	0.027918	NaN	0.000000	0.001632	0.001670	28.0831	0.018595	0.001970	9.438282	61.1137	-166.237	-0.001343	0.754033	-0.290080	-0.291390	0.027918	9.438282	-0.292299	-3611.73	-7.729828E-6	NaN
647	1.000000	0.763377	7.37138e+06	-44739.1	1005.82	-29774.9	0.000000	0.000000	6.763070	0.063473	NaN	0.000000	0.001630	0.001633	28.0831	0.066371	0.002025	32.7681	-31.3035	-167.918	0.106165	0.762036	-0.282046	-0.283387	0.063473	32.7681	-0.283498	-2664.9	-2.381803E-5	NaN
647	1.000000	0.771394	7.37138e+06	-44739.1	1005.82	-29774.9	0.000000	0.000000	6.771088	0.085742	NaN	0.000000	0.001620	0.001647	28.083	0.064269	0.002051	31.333	130.752	-166.415	0.024276	0.770079	-0.274029	-0.275344	0.085742	31.333	-0.276081	-2059.51	-4.163233E-5	NaN
647	1.000000	0.779377	7.37138e+06	-44739.1	1005.82	-29774.9	0.000000	0.000000	6.779072	0.121750	NaN	0.000000	0.001573	0.001593	28.0829	0.014554	0.001948	7.471329	61.1952	-167.69	0.100641	0.778080	-0.266045	-0.267342	0.121750	7.471329	-0.278267	-2222.35	-5.478436E-5	NaN
647	1.000000	0.787388	7.37138e+06	-44739.1	1005.82	-29774.9	0.000000	0.000000	6.787083	0.113994	NaN	0.000000	0.001585	0.001629	28.0832	0.104197	0.002018	51.6383	-9.754910	-166.711	0.093864	0.786061	-0.258034	-0.259362	0.113994	51.6383	-0.259690	-1159.22	-9.833634E-5	NaN
647	1.000000	0.795362	7.37138e+06	-44739.1	1005.82	-29774.9	0.000000	0.000000	6.795054	0.054003	NaN	0.000000	0.001620	0.001643	28.0829	0.125987	0.002064	61.0522	100.441	-168.506	0.094104	0.794056	-0.250061	-0.251367	0.054003	61.0522	-0.250724	-843.654	-6.401124E-5	NaN
647	1.000000	0.803355	7.37138e+06	-44739.1	1005.82	-29774.9	0.000000	0.000000	6.803047	0.032265	NaN	0.000000	0.001606	0.001661	28.0831	0.156173	0.002004	77.9371	91.504	-168.115	0.065132	0.802028	-0.242068	-0.243395	0.032265	77.9371	-0.242378	-626.112	-5.153241E-5	NaN
647	1.000000	0.811364	7.37138e+06	-44739.1	1005.82	-29774.9	0.000000	0.000000	6.811056	0.036638	NaN	0.000000	0.001608	0.001657	28.0831	0.022218	0.001933	11.4953	164.884	-166.293	0.026547	0.810083	-0.234059	-0.235340	0.036638	11.4953	-0.236449	-505.812	-7.243420E-5	NaN
647	1.000000	0.819385	7.37138e+06	-44739.1	1005.82	-29774.9	0.000000	0.000000	6.819079	0.096601	NaN	0.000000	0.001621	0.001594	28.0831	0.086831	0.001961	44.2707	81.4682	-168.679	0.054651	0.818083	-0.226037	-0.227340	0.096601	44.2707	-0.227674	-367.908	-0.000263	NaN
647	1.000000	0.827395	7.37138e+06	-44739.1	1005.82	-29774.9	0.000000	0.000000	6.827086	0.033716	NaN	0.000000	0.001634	0.001659	28.0832	0.066317	0.002006	33.0526	22.5708	-165.783	0.043479	0.826105	-0.218028	-0.219318	0.033716	33.0526	-0.218793	-265.69	-0.000127	NaN
647	1.000000	0.835389	7.37138e+06	-44739.1	1005.82	-29774.9	0.000000	0.000000	6.835083	0.079310	NaN	0.000000	0.001608	0.001701	28.083	0.093139	0.002086	44.6561	155.653	-166.637	0.066066	0.834091	-0.210033	-0.211332	0.079310	44.6561	-0.211365	-201.794	-0.000393	NaN
647	1.000000	0.843379	7.37138e+06	-44739.1	1005.82	-29774.9	0.000000	0.000000	6.843070	0.018889	NaN	0.000000	0.001635	0.001671	28.0832	0.046065	0.001961	23.489	-121.696	-164.719	0.022007	0.842040	-0.202044	-0.203383	0.018889	23.489	-0.202647	-145.584	-0.000130	NaN
647	1.000000	0.851403	7.37138e+06	-44739.1	1005.82	-29774.9	0.000000	0.000000	6.851095	0.036310	NaN	0.000000	0.001596	0.001705	28.0831	0.050789	0.002031	25.0035	124.225	-167.476	-0.003831	0.850056	-0.194020	-0.195366	0.036310	25.0035	-0.195109	-109.397	-0.000332	NaN
647	1.000000	0.859387	7.37138e+06	-44739.1	1005.82	-29774.9	0.000000	0.000000	6.859079	0.047098	NaN	0.000000	0.001618	0.001617	28.082	0.025800	0.002040	12.6465	75.3118	-167.116	-0.035863	0.858065	-0.186036	-0.187358	0.047098	12.6465	-0.188829	-85.9897	-0.000548	NaN
647	1.000000	0.867372	7.37138e+06	-44739.1	1005.82	-29774.9	0.000000	0.000000	6.867065	0.068445	NaN	0.000000	0.001621	0.001662	28.0819	0.034409	0.001992	17.2714	-165.765	-167.703	0.008376	0.866077	-0.178050	-0.179346	0.068445	17.2714	-0.181023	-63.5109	-0.001078	NaN
647	1.000000	0.875374	7.37138e+06	-44739.1	1005.82	-29774.9	0.000000	0.000000	6.875066	0.047736	NaN	0.000000	0.001612	0.001663	28.082	0.037961	0.001827	20.7813	165.576	-165.887	0.031036	0.874058	-0.170049	-0.171365	0.047736	20.7813	-0.171772	-44.0882	-0.001083	NaN
647	1.000000	0.883411	7.37138e+06	-44739.1	1005.82	-29774.9	0.000000	0.000000	6.883102	0.018879	NaN	0.000000	0.001607	0.001627	28.082	0.134048	0.002074	64.6322	73.1841	-164.569	-0.059455	0.882083	-0.162012	-0.163340	0.018879	64.6322	-0.162231	-30.0277	-0.000629	NaN
647	1.000000	0.891393	7.37138e+06	-44739.1	1005.82	-29774.9	0.000000	0.000000	6.891088	0.119330	NaN	0.000000	0.001588	0.001684	28.082	0.073742	0.002004	36.7961	135.483	-168.264	0.070200	0.890114	-0.154030	-0.155308	0.119330	36.7961	-0.156462	-23.705	-0.005034	NaN
647	1.000000	0.899433	7.37138e+06	-44739.1	1005.82	-29774.9	0.000000	0.000000	6.899123	0.007154	NaN	0.000000	0.001613	0.001720	28.0835	0.103697	0.001832	56.5881	50.1311	-164.792	-0.013551	0.898088	-0.145990	-0.147335	0.007154	56.5881	-0.146085	-15.3534	-0.000466	NaN
647	1.000000	0.907402	7.37138e+06	-44739.1	1005.82	-29774.9	0.000000	0.000000	6.907093	0.019260	NaN	0.000000	0.001622	0.001646	28.0819	0.046086	0.001975	23.3367	-154.713	-162.906	0.018775	0.906063	-0.138021	-0.139359	0.019260	23.3367	-0.138640	-11.1524	-0.001727	NaN
647	1.000000	0.915421	7.37138e+06	-44739.1	1005.82	-29774.9	0.000000	0.000000	6.915113	0.048801	NaN	0.000000	0.001616	0.001655	28.082	0.165089	0.002144	76.9866	-87.2259	-167.059	0.076419	0.914137	-0.130002	-0.131286	0.048801	76.9866	-0.130477	-7.785221	-0.006268	NaN
647	1.000000	0.923435	7.37138e+06	-44739.1	1005.82	-29774.9	0.000000	0.000000	6.923129	0.089033	NaN	0.000000	0.001610	0.001676	28.0821	0.082819	0.001857	44.6041	-34.0162	-167.499	-0.040575	0.922116	-0.121987	-0.123307	0.089033	44.6041	-0.123484	-5.674353	-0.015690	NaN
647	1.000000	0.931444	7.37138e+06	-44739.1	1005.82	-29774.9	0.000000	0.000000	6.931138	0.089905	NaN	0.000000	0.001618	0.001668	28.082	0.130268	0.001943	67.0295	-66.2496	-167.784	0.122101	0.930121	-0.113978	-0.115302	0.089905	67.0295	-0.114984	-3.817549	-0.023551	NaN
647	1.000000	0.939415	7.37138e+06	-44739.1	1005.82	-29774.9	0.000000	0.000000	6.939105	0.019536	NaN	0.000000	0.001596	0.001660	28.0824	0.073041	0.002045	35.7106	31.6782	-166.977	0.026984	0.938109	-0.106008	-0.107313	0.019536	35.7106	-0.106419	-2.521787	-0.007747	NaN
647	1.000000	0.947404	7.37138e+06	-44739.1	1005.82	-29774.9	0.000000	0.000000	6.947097	0.076494	NaN	0.000000	0.001634	0.001668	28.0821	0.114326	0.001865	61.3026	-109.604	-165.361	0.082275	0.946120	-0.098019	-0.099303	0.076494	61.3026	-0.098955	-1.731946	-0.044167	NaN
647	1.000000	0.955433	7.37138e+06	-44739.1	1005.82	-29774.9	0.000000	0.000000	6.955125	0.059943	NaN	0.000000	0.001618	0.001653	28.0823	0.139282	0.001849	75.3308	6.815175	-167.245	0.063407	0.954122	-0.089990	-0.091301	0.059943	75.3308	-0.090587	-1.115729	-0.053725	NaN
647	1.000000	0.963431	7.37138e+06	-44739.1	1005.82	-29774.9	0.000000	0.000000	6.963123	0.034186	NaN	0.000000	0.001641	0.001658	28.0821	0.064320	0.002078	30.9588	55.8453	-166.75	0.015055	0.962167	-0.081992	-0.083255	0.034186	30.9588	-0.082820	-0.727008	-0.047023	NaN
647	1.000000	0.971467	7.37138e+06	-44739.1	1005.82	-29774.9	0.000000	0.000000	6.971160	0.054281	NaN	0.000000	0.001676	0.001685	28.082	0.158703	0.002095	75.7578	-55.7038	-169.054	-0.059290	0.970086	-0.073955	-0.075336	0.054281	75.7578	-0.074493	-0.448097	-0.121136	NaN
647	1.000000	0.979425	7.37138e+06	-44739.1	1005.82	-29774.9	0.000000	0.000000	6.979116	0.023614	NaN	0.000000	0.001712	0.001665	28.0822	0.010160	0.001924	5.281350	-13.0307	-170.333	0.008284	0.978191	-0.065998	-0.067232	0.023614	5.281350	-0.069351	-0.327695	-0.072061	NaN
647	1.000000	0.987482	7.37138e+06	-44739.1	1005.82	-29774.9	0.000000	0.000000	6.987175	0.067519	NaN	0.000000	0.001679	0.001671	28.082	0.104389	0.002114	49.3794	129.73	-167.925	0.145925	0.986172	-0.057941	-0.059250	0.067519	49.3794	-0.058966	-0.168168	-0.401499	NaN
647	1.000000	0.995431	7.37138e+06	-44739.1	1005.82	-29774.9	0.000000	0.000000	6.995120	-0.019303	NaN	0.000000	0.001593	0.001623	28.0836	0.047056	0.001936	24.3045	170.086	-165.673	0.084380	0.994174	-0.049992	-0.051249	-0.019303	24.3045	-0.049396	-0.087489	0.220634	NaN
647	1.000000	1.003473	7.37138e+06	-44739.1	1005.82	-29774.9	0.000000	0.000000	7.003167	0.098396	NaN	0.000000	0.001637	0.001608	28.0833	0.139159	0.002071	67.1952	137.16	-164.998	0.011141	1.002096	-0.041950	-0.043327	0.098396	67.1952	-0.043048	-0.056015	-1.756607	NaN
647	1.000000	1.011448	7.37138e+06	-44739.1	1005.82	-29774.9	0.000000	0.000000	7.011140	0.040574	NaN	0.000000	0.001589	0.001634	28.0833	0.154328	0.002076	74.3376	-82.036	-164.6	0.034166	1.010155	-0.033974	-0.035268	0.040574	74.3376	-0.034384	-0.030717	-1.320877	NaN
647	1.000000	1.019489	7.37138e+06	-44739.1	1005.82	-29774.9	0.000000	0.000000	7.019180	0.034765	NaN	0.000000	0.001633	0.001648	28.0834	0.088344	0.001984	44.5281	-177.49	-170.36	0.048801	1.018184	-0.025934	-0.027238	0.034765	44.5281	-0.026520	-0.018500	-1.879163	NaN
647	1.000000	1.027457	7.37138e+06	-44739.1	1005.82	-29774.9	0.000000	0.000000	7.027148	0.024375	NaN	0.000000	0.001616	0.001655	28.0833	0.084961	0.002012	42.2371	127.109	-163.409	0.059062	1.026145	-0.017966	-0.019278	0.024375	42.2371	-0.018398	-0.011430	-2.132503	NaN
647	1.000000	1.035428	7.37138e+06	-44739.1	1005.82	-29774.9	0.000000	0.000000	7.035121	0.062912	NaN	0.000000	0.001612	0.001667	28.0839	0.121072	0.002037	59.4281	139.662	-165.935	0.055614	1.034163	-0.009995	-0.011260	0.062912	59.4281	-0.010789	-0.006838	-9.200943	NaN
647	1.000000	1.043456	7.37138e+06	-44739.1	1005.82	-29774.9	0.000000	0.000000	7.043214	1.649768	NaN	0.000000	0.001592	0.001631	28.0834	2.311794	0.002001	1155.3	6.511535	-165.33	0.684509	1.042164	-0.001967	-0.003259	1.649768	1155.3	-0.003038	-0.002146	-768.857	NaN
647	2.000000	1.050936	7.37138e+06	-44739.1	1005.82	-29774.9	0.000000	0.000000	7.050996	9.012745	NaN	0.000000	0.001609	0.001664	28.0833	8.744303	0.001674	5224.9	8.390230	-171.324	8.273688	1.050061	0.005513	0.004639	9.012745	5224.9	0.004219	0.003432	2625.99	81483.5
647	2.000000	1.053073	7.37138e+06	-44739.1	1005.82	-29774.9	0.000000	0.000000	7.053267	12.2458	NaN	0.000000	0.001656	0.001696	28.0832	11.3203	0.001739	6509.6	9.910577	-177.429	12.6802	1.052727	0.007650	0.007305	12.2458	6509.6	0.006239	0.005293	2313.52	81746.7
647	2.000000	1.055057	7.37138e+06	-44739.1	1005.82	-29774.9	0.000000	0.000000	7.055354	14.7772	NaN	0.000000	0.001600	0.001671	28.0831	13.3128	0.001839	7238.52	7.449920	-174.11	14.0629	1.054692	0.009634	0.009269	14.7772	7238.52	0.008103	0.007149	2067.15	78219.2
647	2.000000	1.057044	7.37138e+06	-44739.1	1005.82	-29774.9	0.000000	0.000000	7.057422	16.7391	NaN	0.000000	0.001651	0.001665	28.0838	15.0153	0.001797	8357.5	8.377986	-176.831	16.7955	1.056761	0.011621	0.011338	16.7391	8357.5	0.010119	0.009314	1797.26	79120.3
647	2.000000	1.058974	7.37138e+06	-44739.1	1005.82	-29774.9	0.000000	0.000000	7.059487	20.0151	NaN	0.000000	0.001631	0.001677	28.0833	17.8002	0.001873	9502.53	5.198161	-172.851	19.1911	1.058688	0.013551	0.013265	20.0151	9502.53	0.011972	0.011456	1747.1	81113.5
647	2.000000	1.060946	7.37138e+06	-44739.1	1005.82	-29774.9	0.000000	0.000000	7.061597	23.3775	NaN	0.000000	0.001669	0.001664	28.0835	19.5612	0.001780	10990.7	6.943425	-178.445	21.8458	1.060704	0.015523	0.015281	23.3775	10990.7	0.013928	0.013882	1683.99	85225.9
647	2.000000	1.062998	7.37138e+06	-44739.1	1005.82	-29774.9	0.000000	0.000000	7.063808	27.2316	NaN	0.000000	0.001660	0.001670	28.0833	22.1998	0.001866	11897.8	4.848018	-176.762	27.5205	1.062643	0.017575	0.017221	27.2316	11897.8	0.015859	0.016448	1655.66	84759.6
647	2.000000	1.065043	7.37138e+06	-44739.1	1005.82	-29774.9	0.000000	0.000000	7.066106	33.4117	NaN	0.000000	0.001602	0.001687	28.0831	23.8436	0.001790	13317.4	1.650475	-173.861	34.9372	1.064637	0.019620	0.019215	33.4117	13317.4	0.017739	0.019113	1748.16	88010.2
647	2.000000	1.067011	7.37138e+06	-44739.1	1005.82	-29774.9	0.000000	0.000000	7.068296	38.7999	NaN	0.000000	0.001635	0.001684	28.0834	26.1163	0.001767	14781.4	8.635662	178.853	40.0801	1.066594	0.021589	0.021171	38.7999	14781.4	0.019620	0.021948	1767.77	91156.5
647	2.000000	1.068993	7.37138e+06	-44739.1	1005.82	-29774.9	0.000000	0.000000	7.070499	44.1751	NaN	0.000000	0.001571	0.001696	28.0832	28.3764	0.001848	15352.8	0.788841	-175.721	43.7616	1.068634	0.023570	0.023212	44.1751	15352.8	0.021412	0.024810	1780.56	89053.1
647	2.000000	1.070991	7.37138e+06	-44739.1	1005.82	-29774.9	0.000000	0.000000	7.072692	48.9255	NaN	0.000000	0.001603	0.001675	28.0825	29.8712	0.001762	16950.7	6.328179	178.824	49.0808	1.070645	0.025568	0.025222	48.9255	16950.7	0.023403	0.028175	1736.51	92263.8
647	2.000000	1.072950	7.37138e+06	-44739.1	1005.82	-29774.9	0.000000	0.000000	7.074915	55.3525	NaN	0.000000	0.001654	0.001695	28.0821	32.6787	0.001875	17428.1	5.932301	177.682	53.3254	1.072582	0.027527	0.027159	55.3525	17428.1	0.025145	0.031280	1769.6	90031.2
647	2.000000	1.074923	7.37138e+06	-44739.1	1005.82	-29774.9	0.000000	0.000000	7.077274	64.7492	NaN	0.000000	0.001710	0.001701	28.0821	34.0728	0.001843	18486.4	4.036453	179.739	60.9275	1.074615	0.029500	0.029192	64.7492	18486.4	0.026873	0.034511	1876.17	90916.8
647	2.000000	1.076915	7.37138e+06	-44739.1	1005.82	-29774.9	0.000000	0.000000	7.079420	68.4667	NaN	0.000000	0.001692	0.001673	28.0826	35.738	0.001786	20014.9	3.920156	177.747	66.5171	1.076713	0.031493	0.031290	68.4667	20014.9	0.028927	0.038549	1776.08	93136
647	2.000000	1.078931	7.37138e+06	-44739.1	1005.82	-29774.9	0.000000	0.000000	7.081731	75.6707	NaN	0.000000	0.001666	0.001632	28.0821	38.7382	0.001752	22106.2	7.966818	174.006	75.7628	1.078660	0.033508	0.033237	75.6707	22106.2	0.030941	0.042716	1771.49	97722
647	2.000000	1.080913	7.37138e+06	-44739.1	1005.82	-29774.9	0.000000	0.000000	7.084062	84.1423	NaN	0.000000	0.001699	0.001658	28.0824	39.5211	0.001816	21764.5	5.265235	176.925	82.5874	1.080653	0.035490	0.035230	84.1423	21764.5	0.032591	0.046285	1817.92	92427.5
647	2.000000	1.082854	7.37138e+06	-44739.1	1005.82	-29774.9	0.000000	0.000000	7.086395	93.6741	NaN	0.000000	0.001710	0.001656	28.0822	41.4525	0.001791	23150.7	3.067696	179.733	89.8086	1.082558	0.037431	0.037136	93.6741	23150.7	0.034397	0.050351	1860.44	94261.6
647	2.000000	1.084949	7.37138e+06	-44739.1	1005.82	-29774.9	0.000000	0.000000	7.088849	102.428	NaN	0.000000	0.001720	0.001627	28.0825	43.9216	0.001799	24412.2	6.542836	175.883	101.451	1.084615	0.039526	0.039193	102.428	24412.2	0.036379	0.055006	1862.12	95098.8
647	2.000000	1.086875	7.37138e+06	-44739.1	1005.82	-29774.9	0.000000	0.000000	7.091000	107.887	NaN	0.000000	0.001700	0.001653	28.0822	45.858	0.001725	26578.5	6.981017	173.573	104.949	1.086622	0.041452	0.041199	107.887	26578.5	0.038408	0.059979	1798.74	99152.5
647	2.000000	1.088904	7.37138e+06	-44739.1	1005.82	-29774.9	0.000000	0.000000	7.093282	114.054	NaN	0.000000	0.001683	0.001637	28.0821	48.3877	0.001775	27257.8	3.104334	176.642	112.551	1.088688	0.043481	0.043265	114.054	27257.8	0.040343	0.064917	1756.91	97742.8
647	2.000000	1.090981	7.37138e+06	-44739.1	1005.82	-29774.9	0.000000	0.000000	7.095811	125.052	NaN	0.000000	0.001690	0.001677	28.0822	49.2628	0.001784	27608.7	2.315527	178.326	126.96	1.090670	0.045558	0.045247	125.052	27608.7	0.042161	0.069732	1793.32	95521.8
647	2.000000	1.092908	7.37138e+06	-44739.1	1005.82	-29774.9	0.000000	0.000000	7.098109	134.083	NaN	0.000000	0.001675	0.001710	28.0822	52.2657	0.001811	28866.9	3.581828	175.845	132.937	1.092605	0.047485	0.047182	134.083	28866.9	0.044001	0.074778	1793.09	96446.9
647	2.000000	1.094903	7.37138e+06	-44739.1	1005.82	-29774.9	0.000000	0.000000	7.100517	144.11	NaN	0.000000	0.001705	0.001699	28.0822	54.4549	0.001935	28140.9	3.977898	176.877	141.095	1.094561	0.049481	0.049138	144.11	28140.9	0.045640	0.079414	1814.66	91234.9
647	2.000000	1.097010	7.37138e+06	-44739.1	1005.82	-29774.9	0.000000	0.000000	7.103186	157.777	NaN	0.000000	0.001711	0.001676	28.082	55.1818	0.001825	30233.5	3.155947	177.374	160.981	1.096562	0.051588	0.051139	157.777	30233.5	0.047674	0.085358	1848.4	94545.2
647	2.000000	1.098949	7.37138e+06	-44739.1	1005.82	-29774.9	0.000000	0.000000	7.105408	164.671	NaN	0.000000	0.001667	0.001649	28.0822	59.1034	0.001897	31154.5	4.458532	175.081	165.9	1.098636	0.053526	0.053214	164.671	31154.5	0.049562	0.091064	1808.29	94323.7
647	2.000000	1.100936	7.37138e+06	-44739.1	1005.82	-29774.9	0.000000	0.000000	7.107934	177.789	NaN	0.000000	0.001624	0.001680	28.0821	58.7367	0.001707	34400	2.904556	175.857	177.491	1.100571	0.055513	0.055148	177.789	34400	0.051637	0.097539	1822.75	100633
647	2.000000	1.102879	7.37138e+06	-44739.1	1005.82	-29774.9	0.000000	0.000000	7.110200	185.641	NaN	0.000000	0.001668	0.001672	28.0822	61.8749	0.001856	33338.1	2.713880	175.957	182.605	1.102618	0.057456	0.057195	185.641	33338.1	0.053280	0.102820	1805.5	94989.6
647	2.000000	1.104905	7.37138e+06	-44739.1	1005.82	-29774.9	0.000000	0.000000	7.112761	198.662	NaN	0.000000	0.001617	0.001647	28.0833	63.1377	0.001738	36328.8	4.008338	173.866	197.141	1.104550	0.059482	0.059128	198.662	36328.8	0.055381	0.109767	1809.85	100182
647	2.000000	1.106869	7.37138e+06	-44739.1	1005.82	-29774.9	0.000000	0.000000	7.115486	217.169	NaN	0.000000	0.001609	0.001649	28.0833	64.4191	0.001641	39255.2	2.839756	174.523	214.186	1.106499	0.061447	0.061076	217.169	39255.2	0.057297	0.116296	1867.38	105169
647	2.000000	1.108936	7.37138e+06	-44739.1	1005.82	-29774.9	0.000000	0.000000	7.118024	228.622	NaN	0.000000	0.001647	0.001672	28.0835	68.8323	0.001876	36699	6.174571	172.11	230.55	1.108588	0.063513	0.063165	228.622	36699	0.058841	0.121686	1878.79	96118.7
647	2.000000	1.110853	7.37138e+06	-44739.1	1005.82	-29774.9	0.000000	0.000000	7.120581	244.184	NaN	0.000000	0.001626	0.001648	28.0838	69.1657	0.001785	38744.2	5.474337	172.375	240.499	1.110534	0.065430	0.065111	244.184	38744.2	0.060704	0.128344	1902.58	98808.2
647	2.000000	1.112897	7.37139e+06	-44739.1	1005.82	-29774.9	0.000000	0.000000	7.123044	254.393	NaN	0.000000	0.001646	0.001707	28.0833	72.2696	0.001859	38870.8	8.171158	169.927	253.938	1.112538	0.067474	0.067115	254.393	38870.8	0.062566	0.135170	1882.03	96595.5
647	2.000000	1.114850	7.37139e+06	-44739.1	1005.82	-29774.9	0.000000	0.000000	7.125688	271.211	NaN	0.000000	0.001648	0.001681	28.0832	72.2859	0.001742	41490	0.923556	175.945	265.695	1.114600	0.069427	0.069177	271.211	41490	0.064524	0.142530	1902.84	100407
647	2.000000	1.116864	7.37139e+06	-44739.1	1005.82	-29774.9	0.000000	0.000000	7.128299	285.724	NaN	0.000000	0.001655	0.001704	28.0831	74.5131	0.001853	40206.2	2.456534	174.902	280.802	1.116461	0.071441	0.071038	285.724	40206.2	0.066111	0.148629	1922.4	95282.8
647	2.000000	1.118919	7.37139e+06	-44739.1	1005.82	-29774.9	0.000000	0.000000	7.130789	296.292	NaN	0.000000	0.001610	0.001664	28.0835	77.6204	0.001682	46154.1	7.063029	168.676	299.16	1.118663	0.073497	0.073240	296.292	46154.1	0.068682	0.158767	1866.2	105829
647	2.000000	1.120876	7.37139e+06	-44739.1	1005.82	-29774.9	0.000000	0.000000	7.133445	313.322	NaN	0.000000	0.001584	0.001653	28.0836	76.7972	0.001690	45442.5	3.209458	173.028	312.602	1.120556	0.075453	0.075133	313.322	45442.5	0.070282	0.165237	1896.2	102137
647	2.000000	1.122767	7.37139e+06	-44739.1	1005.82	-29774.9	0.000000	0.000000	7.135996	329.377	NaN	0.000000	0.001606	0.001644	28.0833	79.6246	0.001735	45880.1	2.210411	174.298	322.659	1.122557	0.077344	0.077135	329.377	45880.1	0.071960	0.172152	1913.3	101028
647	2.000000	1.124959	7.37139e+06	-44739.1	1005.82	-29774.9	0.000000	0.000000	7.138812	344.547	NaN	0.000000	0.001590	0.001672	28.0832	82.8383	0.001832	45218.3	7.177427	170.719	345.189	1.124392	0.079536	0.078969	344.547	45218.3	0.073821	0.179979	1914.37	97381.5
647	2.000000	1.126893	7.37139e+06	-44739.1	1005.82	-29774.9	0.000000	0.000000	7.141260	357.063	NaN	0.000000	0.001596	0.001694	28.0833	84.2804	0.001809	46578.1	3.727859	172.579	356.74	1.126482	0.081470	0.081059	357.063	46578.1	0.075721	0.188134	1897.92	98111.9
647	2.000000	1.128876	7.37139e+06	-44739.1	1005.82	-29774.9	0.000000	0.000000	7.143856	371.972	NaN	0.000000	0.001587	0.001667	28.0834	86.8574	0.001753	49543.8	5.119625	170.993	371.622	1.128491	0.083453	0.083068	371.972	49543.8	0.077822	0.197356	1884.78	101891
647	2.000000	1.130895	7.37139e+06	-44739.1	1005.82	-29774.9	0.000000	0.000000	7.146557	388.546	NaN	0.000000	0.001630	0.001664	28.0832	88.5829	0.001883	47056	6.976907	169.243	388.675	1.130502	0.085472	0.085080	388.546	47056	0.079280	0.203871	1905.84	95216
647	2.000000	1.132902	7.37139e+06	-44739.1	1005.82	-29774.9	0.000000	0.000000	7.149163	403.139	NaN	0.000000	0.001630	0.001676	28.0835	90.0961	0.001758	51261.5	3.003407	172.512	401.569	1.132528	0.087479	0.087106	403.139	51261.5	0.081581	0.214361	1880.65	101156
647	2.000000	1.134784	7.37139e+06	-44739.1	1005.82	-29774.9	0.000000	0.000000	7.151660	418.095	NaN	0.000000	0.001595	0.001656	28.0835	91.9736	0.001797	51184.6	3.960585	171.712	410.957	1.134559	0.089362	0.089136	418.095	51184.6	0.083235	0.222055	1882.84	99238.9
647	2.000000	1.136842	7.37139e+06	-44739.1	1005.82	-29774.9	0.000000	0.000000	7.154440	435.646	NaN	0.000000	0.001616	0.001703	28.0833	93.2155	0.001785	52235.5	5.055410	170.749	433.612	1.136412	0.091420	0.090989	435.646	52235.5	0.085165	0.231188	1884.38	99256
647	2.000000	1.138896	7.37139e+06	-44739.1	1005.82	-29774.9	0.000000	0.000000	7.157119	450.846	NaN	0.000000	0.001665	0.001650	28.0822	95.6666	0.001796	53258.8	4.606816	170.549	450.75	1.138539	0.093474	0.093116	450.846	53258.8	0.087125	0.240642	1873.51	99192.5
647	2.000000	1.140807	7.37139e+06	-44739.1	1005.82	-29774.9	0.000000	0.000000	7.159878	471.505	NaN	0.000000	0.001637	0.001686	28.082	96.3713	0.001799	53567	7.397074	167.829	467.896	1.140538	0.095384	0.095116	471.505	53567	0.088782	0.248775	1895.31	98122.2
647	2.000000	1.142838	7.37139e+06	-44739.1	1005.82	-29774.9	0.000000	0.000000	7.162422	483.991	NaN	0.000000	0.001702	0.001663	28.0824	98.542	0.001751	56288.6	3.918074	170.831	482.783	1.142517	0.097415	0.097094	483.991	56288.6	0.090966	0.259682	1863.78	100919
647	2.000000	1.144813	7.37139e+06	-44739.1	1005.82	-29774.9	0.000000	0.000000	7.165299	505.901	NaN	0.000000	0.001635	0.001662	28.0822	100.843	0.001768	57027.8	4.560288	171.001	499.844	1.144403	0.099391	0.098980	505.901	57027.8	0.092737	0.268688	1882.86	100516
647	2.000000	1.146937	7.37139e+06	-44739.1	1005.82	-29774.9	0.000000	0.000000	7.167978	519.407	NaN	0.000000	0.001625	0.001673	28.0821	103.575	0.001790	57869.9	8.577240	167.165	521.641	1.146481	0.101514	0.101059	519.407	57869.9	0.094783	0.279270	1859.88	100049
647	2.000000	1.148896	7.37139e+06	-44739.1	1005.82	-29774.9	0.000000	0.000000	7.170404	530.783	NaN	0.000000	0.001649	0.001663	28.0819	106.981	0.001808	59159.1	5.110250	169.814	534.171	1.148573	0.103473	0.103150	530.783	59159.1	0.096744	0.289594	1832.85	100438
647	2.000000	1.149272	7.37139e+06	-44739.1	1005.82	-29774.9	0.000000	0.000000	7.171003	536.207	NaN	0.000000	0.001621	0.001678	28.082	106.088	0.001751	60593.2	1.802033	-6.999402	529.218	1.149031	0.103849	0.103608	536.207	60593.2	0.097212	0.292084	1835.8	102434