File: remote_trans/data/nanoindenter/0828-1/data/Data_2025-08-06,11h17m57s/2025-07-22_16-23-58_1_1111.txt
2025-07-22, 16:23:58, 1
Index	Phase	Displacement	Time	Pos X	Pos Y	Pos Z	Rot A	Rot B	Piezo Z	Force A	Force B	Gripper	Voltage A	Voltage B	Temperature	Amplitude force	Amplitude pos	Stiffness	Phase shift	Phase excitation	Force A raw	Displacement raw	HMax	HMax raw	Real Force	Real Stiffness	Contact Depth	Area	Hardness	Reduced Mod.
[#]	[#]	[um]	[s]	[um]	[um]	[um]	[m°]	[m°]	[um]	[uN]	[uN]	[V]	[V]	[V]	[°C]	[uN]	[um]	[N/m]	[°]	[°]	[uN]	[um]	[um]	[um]	[uN]	[N/m]	[um]	[um^2]	[MPa]	[MPa]
1111	1.000000	0.002470	7.37591e+06	-55689.1	1055.82	-29740.4	0.000000	0.000000	6.002829	-0.000815	NaN	0.000000	0.001569	0.001801	28.081	0.033787	0.000932	36.2622	-77.7577	-167.8	0.012299	0.001223	-1.707196	-1.708443	-0.000815	36.2622	-1.707179	-6.335822E+22	1.285912E-26	NaN
1111	1.000000	0.014448	7.37591e+06	-55689.1	1055.82	-29740.4	0.000000	0.000000	6.014809	0.033761	NaN	0.000000	0.001571	0.001770	28.0808	0.023016	0.001571	14.6522	-133.6	-167.913	0.074549	0.013294	-1.695218	-1.696372	0.033761	14.6522	-1.696946	-4.633011E+22	-7.287007E-25	NaN
1111	1.000000	0.026450	7.37591e+06	-55689.1	1055.82	-29740.4	0.000000	0.000000	6.026810	0.034961	NaN	0.000000	0.001537	0.001738	28.0807	0.099683	0.002010	49.5944	-160.033	-167.768	0.002835	0.025093	-1.683216	-1.684573	0.034961	49.5944	-1.683745	-3.093720E+22	-1.130078E-24	NaN
1111	1.000000	0.038383	7.37591e+06	-55689.1	1055.82	-29740.4	0.000000	0.000000	6.038746	0.090684	NaN	0.000000	0.001578	0.001767	28.0804	0.055683	0.001842	30.2329	-54.165	-164.07	0.023415	0.037059	-1.671283	-1.672607	0.090684	30.2329	-1.673532	-2.263499E+22	-4.006346E-24	NaN
1111	1.000000	0.050386	7.37592e+06	-55689.1	1055.82	-29740.4	0.000000	0.000000	6.050747	0.033321	NaN	0.000000	0.001562	0.001747	28.0818	0.131582	0.001982	66.3846	168.641	-166.077	-0.001878	0.049092	-1.659280	-1.660574	0.033321	66.3846	-1.659656	-1.480390E+22	-2.250851E-24	NaN
1111	1.000000	0.062388	7.37592e+06	-55689.1	1055.82	-29740.4	0.000000	0.000000	6.062749	0.035861	NaN	0.000000	0.001544	0.001725	28.0818	0.081397	0.001986	40.9884	107.415	-164.68	0.008703	0.061089	-1.647278	-1.648577	0.035861	40.9884	-1.647934	-1.034129E+22	-3.467725E-24	NaN
1111	1.000000	0.074415	7.37592e+06	-55689.1	1055.82	-29740.4	0.000000	0.000000	6.074771	-0.080082	NaN	0.000000	0.001607	0.001739	28.0817	0.076546	0.001863	41.082	-14.9992	-166.128	-0.082911	0.073142	-1.635251	-1.636524	-0.080082	41.082	-1.633789	-6.707070E+21	1.193997E-23	NaN
1111	1.000000	0.086428	7.37592e+06	-55689.1	1055.82	-29740.4	0.000000	0.000000	6.086789	0.041390	NaN	0.000000	0.001634	0.001738	28.0822	0.090401	0.001856	48.7019	-39.8235	-163.835	0.069118	0.085095	-1.623238	-1.624571	0.041390	48.7019	-1.623876	-4.951422E+21	-8.359188E-24	NaN
1111	1.000000	0.098404	7.37592e+06	-55689.1	1055.82	-29740.3	0.000000	0.000000	6.098765	0.035399	NaN	0.000000	0.001601	0.001732	28.0818	0.150626	0.002207	68.2524	136.285	-163.487	-0.048659	0.097102	-1.611262	-1.612564	0.035399	68.2524	-1.611651	-3.405473E+21	-1.039466E-23	NaN
1111	1.000000	0.110407	7.37592e+06	-55689.1	1055.82	-29740.3	0.000000	0.000000	6.110769	0.051634	NaN	0.000000	0.001644	0.001670	28.0817	0.051947	0.002023	25.6736	-59.3382	-168.587	0.009130	0.109124	-1.599259	-1.600542	0.051634	25.6736	-1.600767	-2.440202E+21	-2.115987E-23	NaN
1111	1.000000	0.122421	7.37592e+06	-55689.1	1055.82	-29740.3	0.000000	0.000000	6.122782	0.047846	NaN	0.000000	0.001646	0.001695	28.0815	0.054218	0.001969	27.5294	-151.785	-163.198	-0.006539	0.121157	-1.587245	-1.588509	0.047846	27.5294	-1.588549	-1.678458E+21	-2.850586E-23	NaN
1111	1.000000	0.134440	7.37592e+06	-55689.1	1055.82	-29740.3	0.000000	0.000000	6.134800	0.030847	NaN	0.000000	0.001654	0.001678	28.0817	0.009608	0.002009	4.782073	-85.2737	-165.23	0.027824	0.133090	-1.575226	-1.576576	0.030847	4.782073	-1.580064	-1.294308E+21	-2.383292E-23	NaN
1111	1.000000	0.146426	7.37592e+06	-55689.1	1055.82	-29740.3	0.000000	0.000000	6.146785	0.000279	NaN	0.000000	0.001664	0.001707	28.0819	0.059436	0.002015	29.493	26.2606	-161.222	-0.064920	0.145131	-1.563240	-1.564535	0.000279	29.493	-1.563248	-7.732007E+20	-3.614157E-25	NaN
1111	1.000000	0.158432	7.37592e+06	-55689.1	1055.82	-29740.3	0.000000	0.000000	6.158793	0.024860	NaN	0.000000	0.001666	0.001717	28.0817	0.074364	0.001960	37.9407	-99.9845	-164.992	0.057702	0.157076	-1.551234	-1.552590	0.024860	37.9407	-1.551725	-5.431933E+20	-4.576564E-23	NaN
1111	1.000000	0.170440	7.37592e+06	-55689.1	1055.82	-29740.3	0.000000	0.000000	6.170799	-0.006973	NaN	0.000000	0.001668	0.001714	28.0818	0.111206	0.002031	54.7542	-27.2776	-166.431	-0.017475	0.169148	-1.539226	-1.540518	-0.006973	54.7542	-1.539131	-3.692517E+20	1.888531E-23	NaN
1111	1.000000	0.182430	7.37592e+06	-55689.1	1055.82	-29740.3	0.000000	0.000000	6.182791	0.034051	NaN	0.000000	0.001633	0.001767	28.0821	0.053102	0.001926	27.5677	-129.174	-167.209	-0.016920	0.181073	-1.527236	-1.528593	0.034051	27.5677	-1.528162	-2.638249E+20	-1.290663E-22	NaN
1111	1.000000	0.194456	7.37592e+06	-55689.1	1055.82	-29740.3	0.000000	0.000000	6.194818	0.050692	NaN	0.000000	0.001622	0.001767	28.0808	0.074989	0.001960	38.2669	158.486	-166.14	0.088769	0.193103	-1.515210	-1.516563	0.050692	38.2669	-1.516203	-1.828463E+20	-2.772364E-22	NaN
1111	1.000000	0.206436	7.37592e+06	-55689.1	1055.82	-29740.3	0.000000	0.000000	6.206795	-0.003754	NaN	0.000000	0.001606	0.001798	28.0807	0.040172	0.002138	18.7872	-34.649	-168.478	0.115851	0.205149	-1.503230	-1.504517	-0.003754	18.7872	-1.503080	-1.222753E+20	3.069772E-23	NaN
1111	1.000000	0.218460	7.37592e+06	-55689.1	1055.82	-29740.3	0.000000	0.000000	6.218822	0.060616	NaN	0.000000	0.001660	0.001767	28.0806	0.009310	0.001973	4.718066	-91.4274	-165.512	0.052022	0.217204	-1.491206	-1.492462	0.060616	4.718066	-1.500841	-1.141612E+20	-5.309727E-22	NaN
1111	1.000000	0.230444	7.37592e+06	-55689.1	1055.82	-29740.3	0.000000	0.000000	6.230805	0.043986	NaN	0.000000	0.001627	0.001762	28.0809	0.025053	0.001867	13.4186	152.08	-161.773	-0.037402	0.229184	-1.479222	-1.480482	0.043986	13.4186	-1.481681	-6.343021E+19	-6.934540E-22	NaN
1111	1.000000	0.242484	7.37592e+06	-55689.1	1055.82	-29740.3	0.000000	0.000000	6.242843	0.009751	NaN	0.000000	0.001616	0.001783	28.0807	0.104977	0.002047	51.2946	39.0241	-167.278	-0.036287	0.241172	-1.467182	-1.468494	0.009751	51.2946	-1.467325	-4.083473E+19	-2.387952E-22	NaN
1111	1.000000	0.254453	7.37592e+06	-55689.1	1055.82	-29740.3	0.000000	0.000000	6.254813	0.012927	NaN	0.000000	0.001632	0.001794	28.0806	0.038440	0.002033	18.907	60.0859	-164.781	0.093546	0.253156	-1.455213	-1.456510	0.012927	18.907	-1.455726	-2.860633E+19	-4.519099E-22	NaN
1111	1.000000	0.266501	7.37592e+06	-55689.1	1055.82	-29740.3	0.000000	0.000000	6.266860	0.009455	NaN	0.000000	0.001630	0.001734	28.0806	0.056614	0.001971	28.7266	169.449	-166.415	0.058182	0.265157	-1.443165	-1.444509	0.009455	28.7266	-1.443412	-1.960364E+19	-4.822891E-22	NaN
1111	1.000000	0.278478	7.37592e+06	-55689.1	1055.82	-29740.3	0.000000	0.000000	6.278838	0.002816	NaN	0.000000	0.001573	0.001755	28.0806	0.059492	0.002031	29.2951	-131.121	-167.326	-0.031343	0.277132	-1.431188	-1.432534	0.002816	29.2951	-1.431260	-1.349999E+19	-2.085999E-22	NaN
1111	1.000000	0.290503	7.37592e+06	-55689.1	1055.82	-29740.3	0.000000	0.000000	6.290862	-0.016114	NaN	0.000000	0.001579	0.001796	28.0805	0.044138	0.001959	22.5352	157.991	-164.208	0.002869	0.289144	-1.419163	-1.420522	-0.016114	22.5352	-1.418626	-9.159774E+18	1.759226E-21	NaN
1111	1.000000	0.302479	7.37592e+06	-55689.1	1055.82	-29740.3	0.000000	0.000000	6.302840	0.040551	NaN	0.000000	0.001592	0.001763	28.0802	0.050936	0.001953	26.079	62.4212	-162.943	0.065313	0.301178	-1.407187	-1.408488	0.040551	26.079	-1.408353	-6.681630E+18	-6.069056E-21	NaN
1111	1.000000	0.314512	7.37592e+06	-55689.1	1055.82	-29740.3	0.000000	0.000000	6.314872	0.014803	NaN	0.000000	0.001604	0.001759	28.0803	0.057899	0.002115	27.3772	17.3755	-168.166	0.043428	0.313219	-1.395154	-1.396447	0.014803	27.3772	-1.395559	-4.510517E+18	-3.281804E-21	NaN
1111	1.000000	0.326516	7.37592e+06	-55689.1	1055.82	-29740.3	0.000000	0.000000	6.326877	0.056139	NaN	0.000000	0.001651	0.001767	28.0817	0.034548	0.002007	17.2181	55.812	-164.634	0.071751	0.325213	-1.383150	-1.384453	0.056139	17.2181	-1.385596	-3.321260E+18	-1.690306E-20	NaN
1111	1.000000	0.338489	7.37592e+06	-55689.1	1055.82	-29740.3	0.000000	0.000000	6.338851	0.066549	NaN	0.000000	0.001652	0.001794	28.0818	0.086875	0.002015	43.1071	-96.4713	-168.113	0.095342	0.337175	-1.371177	-1.372491	0.066549	43.1071	-1.372335	-2.209791E+18	-3.011559E-20	NaN
1111	1.000000	0.350505	7.37592e+06	-55689.1	1055.82	-29740.3	0.000000	0.000000	6.350868	0.070336	NaN	0.000000	0.001638	0.001791	28.0817	0.021686	0.001823	11.896	144.879	-162.72	0.042208	0.349188	-1.359161	-1.360478	0.070336	11.896	-1.363595	-1.689305E+18	-4.163592E-20	NaN
1111	1.000000	0.362507	7.37592e+06	-55689.1	1055.82	-29740.3	0.000000	0.000000	6.362868	0.044971	NaN	0.000000	0.001582	0.001782	28.0817	0.095931	0.002092	45.8461	56.7741	-165.685	-0.003140	0.361271	-1.347159	-1.348395	0.044971	45.8461	-1.347895	-1.042606E+18	-4.313299E-20	NaN
1111	1.000000	0.374494	7.37592e+06	-55689.1	1055.82	-29740.3	0.000000	0.000000	6.374856	0.049223	NaN	0.000000	0.001624	0.001781	28.0819	0.017474	0.002031	8.605101	105.933	-166.126	0.032343	0.373252	-1.335172	-1.336414	0.049223	8.605101	-1.339462	-8.045036E+17	-6.118442E-20	NaN
1111	1.000000	0.386508	7.37592e+06	-55689.1	1055.82	-29740.3	0.000000	0.000000	6.386868	-0.000535	NaN	0.000000	0.001622	0.001769	28.0818	0.118839	0.002002	59.3489	-58.281	-166.067	0.010680	0.385214	-1.323158	-1.324452	-0.000535	59.3489	-1.323151	-4.871823E+17	1.098228E-21	NaN
1111	1.000000	0.398536	7.37592e+06	-55689.1	1055.82	-29740.3	0.000000	0.000000	6.398897	0.038368	NaN	0.000000	0.001650	0.001759	28.0821	0.080271	0.001955	41.0587	-137.796	-166.327	0.003774	0.397217	-1.311130	-1.312449	0.038368	41.0587	-1.311831	-3.439359E+17	-1.115569E-19	NaN
1111	1.000000	0.410562	7.37592e+06	-55689.1	1055.82	-29740.3	0.000000	0.000000	6.410923	0.040246	NaN	0.000000	0.001610	0.001771	28.0818	0.096093	0.002090	45.9725	-63.9995	-165.563	0.065715	0.409228	-1.299104	-1.300438	0.040246	45.9725	-1.299761	-2.372474E+17	-1.696358E-19	NaN
1111	1.000000	0.422533	7.37592e+06	-55689.1	1055.82	-29740.3	0.000000	0.000000	6.422893	0.008129	NaN	0.000000	0.001629	0.001786	28.0821	0.046932	0.002077	22.594	101.835	-163.267	-0.009967	0.421236	-1.287133	-1.288430	0.008129	22.594	-1.287403	-1.621954E+17	-5.011677E-20	NaN
1111	1.000000	0.434573	7.37592e+06	-55689.1	1055.82	-29740.3	0.000000	0.000000	6.434935	0.063136	NaN	0.000000	0.001590	0.001752	28.0824	0.081683	0.001918	42.5854	117.391	-165.248	0.030393	0.433189	-1.275093	-1.276477	0.063136	42.5854	-1.276205	-1.149092E+17	-5.494427E-19	NaN
1111	1.000000	0.446564	7.37592e+06	-55689.1	1055.82	-29740.3	0.000000	0.000000	6.446929	0.137135	NaN	0.000000	0.001603	0.001791	28.0821	0.076408	0.002070	36.9196	-87.2902	-168.089	0.084440	0.445310	-1.263102	-1.264356	0.137135	36.9196	-1.265888	-8.363885E+16	-1.639613E-18	NaN
1111	1.000000	0.458558	7.37592e+06	-55689.1	1055.82	-29740.3	0.000000	0.000000	6.458918	0.005251	NaN	0.000000	0.001591	0.001767	28.0816	0.068845	0.001967	34.9944	-109.861	-165.725	-0.010068	0.457257	-1.251108	-1.252409	0.005251	34.9944	-1.251220	-5.324098E+16	-9.863170E-20	NaN
1111	1.000000	0.470549	7.37592e+06	-55689.1	1055.82	-29740.3	0.000000	0.000000	6.470910	0.022437	NaN	0.000000	0.001580	0.001810	28.0807	0.024801	0.002031	12.2102	60.8196	-168.659	0.052139	0.469262	-1.239117	-1.240404	0.022437	12.2102	-1.240495	-3.826171E+16	-5.864164E-19	NaN
1111	1.000000	0.482545	7.37592e+06	-55689.1	1055.82	-29740.3	0.000000	0.000000	6.482905	0.035723	NaN	0.000000	0.001676	0.001759	28.0806	0.083205	0.001984	41.9332	-45.6904	-166.729	0.010156	0.481223	-1.227121	-1.228443	0.035723	41.9332	-1.227760	-2.584435E+16	-1.382253E-18	NaN
1111	1.000000	0.494573	7.37592e+06	-55689.1	1055.82	-29740.3	0.000000	0.000000	6.494934	0.050003	NaN	0.000000	0.001681	0.001765	28.0808	0.112835	0.001973	57.1844	72.8733	-166.644	-0.016766	0.493289	-1.215093	-1.216377	0.050003	57.1844	-1.215749	-1.784848E+16	-2.801554E-18	NaN
1111	1.000000	0.506585	7.37592e+06	-55689.1	1055.82	-29740.3	0.000000	0.000000	6.506948	0.092384	NaN	0.000000	0.001652	0.001746	28.0802	0.097587	0.001966	49.6331	-21.2931	-164.899	-0.003389	0.505279	-1.203081	-1.204387	0.092384	49.6331	-1.204477	-1.260934E+16	-7.326649E-18	NaN
1111	1.000000	0.518590	7.37592e+06	-55689.1	1055.82	-29740.3	0.000000	0.000000	6.518952	0.078746	NaN	0.000000	0.001644	0.001798	28.0807	0.097161	0.002023	48.0277	-85.7774	-166.294	0.076104	0.517202	-1.191076	-1.192464	0.078746	48.0277	-1.192306	-8.663873E+15	-9.088966E-18	NaN
1111	1.000000	0.530617	7.37592e+06	-55689.1	1055.82	-29740.3	0.000000	0.000000	6.530978	0.042970	NaN	0.000000	0.001653	0.001803	28.0808	0.047043	0.002017	23.3209	68.011	-168.525	0.028752	0.529273	-1.179049	-1.180393	0.042970	23.3209	-1.180431	-6.006810E+15	-7.153555E-18	NaN
1111	1.000000	0.542597	7.37592e+06	-55689.1	1055.82	-29740.3	0.000000	0.000000	6.542960	0.081941	NaN	0.000000	0.001680	0.001793	28.0809	0.021075	0.001911	11.0309	-96.1409	-165.997	0.112790	0.541298	-1.167069	-1.168368	0.081941	11.0309	-1.172640	-4.723522E+15	-1.734740E-17	NaN
1111	1.000000	0.554599	7.37592e+06	-55689.1	1055.82	-29740.3	0.000000	0.000000	6.554959	0.008718	NaN	0.000000	0.001607	0.001786	28.0807	0.079763	0.002060	38.7284	-136.048	-166.325	-0.020878	0.553313	-1.155067	-1.156353	0.008718	38.7284	-1.155236	-2.760634E+15	-3.157965E-18	NaN
1111	1.000000	0.566633	7.37592e+06	-55689.1	1055.82	-29740.3	0.000000	0.000000	6.566995	0.063437	NaN	0.000000	0.001614	0.001796	28.0807	0.078341	0.001930	40.5933	33.8257	-163.746	0.132290	0.565316	-1.143033	-1.144350	0.063437	40.5933	-1.144205	-1.963925E+15	-3.230130E-17	NaN
1111	1.000000	0.578595	7.37592e+06	-55689.1	1055.82	-29740.3	0.000000	0.000000	6.578956	0.041008	NaN	0.000000	0.001579	0.001749	28.0807	0.130120	0.002034	63.9671	-56.3665	-167.225	-0.053694	0.577316	-1.131071	-1.132350	0.041008	63.9671	-1.131551	-1.328716E+15	-3.086313E-17	NaN
1111	1.000000	0.590623	7.37592e+06	-55689.1	1055.82	-29740.3	0.000000	0.000000	6.590986	0.082909	NaN	0.000000	0.001572	0.001741	28.0808	0.046549	0.001900	24.495	59.2159	-165.442	-0.011804	0.589292	-1.119043	-1.120374	0.082909	24.495	-1.121581	-9.765390E+14	-8.490117E-17	NaN
1111	1.000000	0.602608	7.37592e+06	-55689.1	1055.82	-29740.3	0.000000	0.000000	6.602969	0.029546	NaN	0.000000	0.001613	0.001716	28.0822	0.050886	0.002032	25.0468	119.821	-167.15	-0.007683	0.601272	-1.107058	-1.108394	0.029546	25.0468	-1.107942	-6.407265E+14	-4.611274E-17	NaN
1111	1.000000	0.614647	7.37592e+06	-55689.1	1055.82	-29740.3	0.000000	0.000000	6.615008	0.046246	NaN	0.000000	0.001583	0.001749	28.0821	0.009852	0.001905	5.171069	-71.3531	-166.287	0.037524	0.613296	-1.095019	-1.096370	0.046246	5.171069	-1.101727	-5.287459E+14	-8.746402E-17	NaN
1111	1.000000	0.626628	7.37592e+06	-55689.1	1055.82	-29740.3	0.000000	0.000000	6.626991	0.089415	NaN	0.000000	0.001629	0.001761	28.082	0.080833	0.001966	41.1216	74.7918	-164.607	0.036269	0.625283	-1.083038	-1.084383	0.089415	41.1216	-1.084669	-3.120459E+14	-2.865452E-16	NaN
1111	1.000000	0.638664	7.37592e+06	-55689.1	1055.82	-29740.3	0.000000	0.000000	6.639027	0.098571	NaN	0.000000	0.001610	0.001752	28.0818	0.034917	0.002009	17.3821	-78.6147	-162.72	0.068175	0.637291	-1.071002	-1.072375	0.098571	17.3821	-1.075255	-2.332335E+14	-4.226287E-16	NaN
1111	1.000000	0.650642	7.37592e+06	-55689.1	1055.82	-29740.3	0.000000	0.000000	6.651003	0.042548	NaN	0.000000	0.001623	0.001732	28.0817	0.030656	0.001961	15.6341	-34.5228	-168.792	-0.029941	0.649308	-1.059024	-1.060358	0.042548	15.6341	-1.061065	-1.503590E+14	-2.829779E-16	NaN
1111	1.000000	0.662645	7.37592e+06	-55689.1	1055.82	-29740.3	0.000000	0.000000	6.663006	0.039415	NaN	0.000000	0.001601	0.001745	28.0816	0.121484	0.001944	62.4977	-172.134	-173.578	0.136257	0.661331	-1.047021	-1.048335	0.039415	62.4977	-1.047494	-9.879211E+13	-3.989704E-16	NaN
1111	1.000000	0.674633	7.37592e+06	-55689.1	1055.82	-29740.3	0.000000	0.000000	6.674991	-0.014027	NaN	0.000000	0.001570	0.001752	28.0819	0.041289	0.002053	20.1156	126.613	-164.872	0.054504	0.673375	-1.035033	-1.036291	-0.014027	20.1156	-1.034510	-6.609124E+13	2.122328E-16	NaN
1111	1.000000	0.686675	7.37592e+06	-55689.1	1055.82	-29740.3	0.000000	0.000000	6.687035	0.007522	NaN	0.000000	0.001599	0.001780	28.0821	0.084756	0.001900	44.6014	95.181	-163.311	-0.007611	0.685314	-1.022991	-1.024352	0.007522	44.6014	-1.023117	-4.644010E+13	-1.619735E-16	NaN
1111	1.000000	0.698672	7.37592e+06	-55689.1	1055.82	-29740.3	0.000000	0.000000	6.699032	0.019977	NaN	0.000000	0.001606	0.001733	28.0818	0.053989	0.002066	26.1264	-149.681	-165.824	-0.010482	0.697384	-1.010994	-1.012282	0.019977	26.1264	-1.011567	-3.246961E+13	-6.152471E-16	NaN
1111	1.000000	0.710704	7.37592e+06	-55689.1	1055.82	-29740.3	0.000000	0.000000	6.711066	0.057519	NaN	0.000000	0.001581	0.001721	28.0818	0.094026	0.001970	47.7312	115.059	-166.985	0.086047	0.709368	-0.998962	-1.000298	0.057519	47.7312	-0.999866	-2.259220E+13	-2.545977E-15	NaN
1111	1.000000	0.722652	7.37592e+06	-55689.1	1055.82	-29740.3	0.000000	0.000000	6.723011	0.008547	NaN	0.000000	0.001596	0.001718	28.0822	0.094552	0.002065	45.7893	-138.874	-166.056	0.007327	0.721371	-0.987014	-0.988295	0.008547	45.7893	-0.987154	-1.523304E+13	-5.610818E-16	NaN
1111	1.000000	0.734647	7.37592e+06	-55689.1	1055.82	-29740.3	0.000000	0.000000	6.735010	0.083221	NaN	0.000000	0.001581	0.001740	28.0807	0.028314	0.001996	14.1861	165.077	-167.324	-0.020985	0.733376	-0.975019	-0.976290	0.083221	14.1861	-0.979418	-1.198323E+13	-6.944779E-15	NaN
1111	1.000000	0.746709	7.37592e+06	-55689.1	1055.82	-29740.3	0.000000	0.000000	6.747066	-0.041885	NaN	0.000000	0.001548	0.001749	28.0808	0.145544	0.001893	76.9041	-68.6424	-163.872	-0.040409	0.745349	-0.962957	-0.964317	-0.041885	76.9041	-0.962549	-7.099537E+12	5.899690E-15	NaN
1111	1.000000	0.758698	7.37592e+06	-55689.1	1055.82	-29740.3	0.000000	0.000000	6.759055	-0.056183	NaN	0.000000	0.001568	0.001766	28.0806	0.058896	0.001902	30.9707	47.2453	-167.15	-0.100581	0.757353	-0.950968	-0.952313	-0.056183	30.9707	-0.949608	-4.750473E+12	1.182674E-14	NaN
1111	1.000000	0.770707	7.37592e+06	-55689.1	1055.82	-29740.3	0.000000	0.000000	6.771068	0.045269	NaN	0.000000	0.001584	0.001756	28.0806	0.076271	0.002102	36.2782	138.72	-166.038	0.061986	0.769368	-0.938959	-0.940298	0.045269	36.2782	-0.939895	-3.513370E+12	-1.288476E-14	NaN
1111	1.000000	0.782674	7.37592e+06	-55689.1	1055.82	-29740.3	0.000000	0.000000	6.783031	-0.072540	NaN	0.000000	0.001602	0.001721	28.0807	0.126268	0.001883	67.069	-104.102	-166.446	0.036167	0.781410	-0.926992	-0.928256	-0.072540	67.069	-0.926180	-2.294260E+12	3.161794E-14	NaN
1111	1.000000	0.794711	7.37592e+06	-55689.1	1055.82	-29740.3	0.000000	0.000000	6.795069	-0.027014	NaN	0.000000	0.001578	0.001773	28.0804	0.174854	0.001918	91.1587	179.365	-166.303	-0.041302	0.793457	-0.914955	-0.916209	-0.027014	91.1587	-0.914733	-1.607249E+12	1.680790E-14	NaN
1111	1.000000	0.806680	7.37592e+06	-55689.1	1055.82	-29740.3	0.000000	0.000000	6.807041	0.041562	NaN	0.000000	0.001563	0.001723	28.0809	0.134412	0.001979	67.9213	147.377	-164.587	-0.011552	0.805421	-0.902986	-0.904245	0.041562	67.9213	-0.903444	-1.131374E+12	-3.673607E-14	NaN
1111	1.000000	0.818725	7.37592e+06	-55689.1	1055.82	-29740.3	0.000000	0.000000	6.819088	0.084750	NaN	0.000000	0.001555	0.001745	28.0808	0.105192	0.002033	51.7465	-19.6781	-167.237	0.055164	0.817379	-0.890941	-0.892287	0.084750	51.7465	-0.892169	-7.965929E+11	-1.063902E-13	NaN
1111	1.000000	0.830700	7.37592e+06	-55689.1	1055.82	-29740.3	0.000000	0.000000	6.831060	0.037555	NaN	0.000000	0.001583	0.001768	28.081	0.038421	0.001990	19.3076	-23.4968	-166.096	0.074501	0.829390	-0.878966	-0.880276	0.037555	19.3076	-0.880425	-5.526602E+11	-6.795240E-14	NaN
1111	1.000000	0.842723	7.37592e+06	-55689.1	1055.82	-29740.3	0.000000	0.000000	6.843083	0.009759	NaN	0.000000	0.001550	0.001757	28.0806	0.036034	0.001845	19.5334	84.3348	-164.397	0.042936	0.841406	-0.866943	-0.868260	0.009759	19.5334	-0.867318	-3.674121E+11	-2.656141E-14	NaN
1111	1.000000	0.854717	7.37592e+06	-55689.1	1055.82	-29740.3	0.000000	0.000000	6.855081	0.109503	NaN	0.000000	0.001602	0.001756	28.0807	0.038313	0.002026	18.9143	-31.3412	-165.171	0.123985	0.853448	-0.854949	-0.856218	0.109503	18.9143	-0.859291	-2.861057E+11	-3.827370E-13	NaN
1111	1.000000	0.866723	7.37592e+06	-55689.1	1055.82	-29740.3	0.000000	0.000000	6.867082	-0.013042	NaN	0.000000	0.001562	0.001732	28.0808	0.027785	0.002028	13.698	39.3918	-168.301	0.013121	0.865369	-0.842943	-0.844297	-0.013042	13.698	-0.842228	-1.680665E+11	7.760121E-14	NaN
1111	1.000000	0.878735	7.37592e+06	-55689.1	1055.82	-29740.3	0.000000	0.000000	6.879098	0.086029	NaN	0.000000	0.001553	0.001745	28.082	0.111915	0.001931	57.9504	137.746	-169.881	0.052048	0.877395	-0.830931	-0.832271	0.086029	57.9504	-0.832044	-1.223180E+11	-7.033189E-13	NaN
1111	1.000000	0.890772	7.37592e+06	-55689.1	1055.82	-29740.3	0.000000	0.000000	6.891130	-0.008520	NaN	0.000000	0.001574	0.001776	28.0819	0.027156	0.001854	14.6433	63.3004	-169.081	0.025341	0.889396	-0.818894	-0.820270	-0.008520	14.6433	-0.818458	-8.003900E+10	1.064427E-13	NaN
1111	1.000000	0.902741	7.37592e+06	-55689.1	1055.82	-29740.3	0.000000	0.000000	6.903099	-0.034201	NaN	0.000000	0.001660	0.001721	28.0821	0.089153	0.002087	42.728	-22.342	-163.512	-0.074055	0.901394	-0.806925	-0.808272	-0.034201	42.728	-0.806325	-5.479033E+10	6.242224E-13	NaN
1111	1.000000	0.914738	7.37592e+06	-55689.1	1055.82	-29740.3	0.000000	0.000000	6.915097	-0.011222	NaN	0.000000	0.001677	0.001745	28.0821	0.126878	0.001943	65.2942	39.7681	-161.841	0.013188	0.913469	-0.794928	-0.796197	-0.011222	65.2942	-0.794799	-3.821672E+10	2.936401E-13	NaN
1111	1.000000	0.926732	7.37592e+06	-55689.1	1055.82	-29740.3	0.000000	0.000000	6.927091	-0.002114	NaN	0.000000	0.001649	0.001740	28.0817	0.085581	0.002008	42.6217	-85.2721	-164.112	0.003512	0.925439	-0.782934	-0.784227	-0.002114	42.6217	-0.782897	-2.633846E+10	8.027354E-14	NaN
1111	1.000000	0.938747	7.37592e+06	-55689.1	1055.82	-29740.3	0.000000	0.000000	6.939107	0.008469	NaN	0.000000	0.001624	0.001752	28.0818	0.152368	0.001944	78.3943	24.3634	-166.418	0.014308	0.937424	-0.770919	-0.772242	0.008469	78.3943	-0.771000	-1.815095E+10	-4.665752E-13	NaN
1111	1.000000	0.950776	7.37592e+06	-55689.1	1055.82	-29740.3	0.000000	0.000000	6.951135	-0.024866	NaN	0.000000	0.001665	0.001757	28.0818	0.074385	0.002052	36.2534	-20.7107	-168.397	-0.057564	0.949447	-0.758890	-0.760219	-0.024866	36.2534	-0.758375	-1.222353E+10	2.034256E-12	NaN
1111	1.000000	0.962747	7.37592e+06	-55689.1	1055.82	-29740.3	0.000000	0.000000	6.963107	0.013270	NaN	0.000000	0.001692	0.001696	28.0818	0.032658	0.002015	16.2058	-176.553	-166.862	0.072158	0.961517	-0.746919	-0.748149	0.013270	16.2058	-0.747533	-8.702453E+9	-1.524857E-12	NaN
1111	1.000000	0.974740	7.37592e+06	-55689.1	1055.82	-29740.3	0.000000	0.000000	6.975100	0.015941	NaN	0.000000	0.001658	0.001793	28.082	0.025605	0.001915	13.3726	-87.2676	-165.056	-0.032702	0.973483	-0.734926	-0.736183	0.015941	13.3726	-0.735820	-6.027129E+9	-2.644792E-12	NaN
1111	1.000000	0.986746	7.37592e+06	-55689.1	1055.82	-29740.3	0.000000	0.000000	6.987104	-0.022640	NaN	0.000000	0.001644	0.001753	28.0819	0.031131	0.002171	14.3425	97.0787	-166.459	-0.056889	0.985490	-0.722920	-0.724176	-0.022640	14.3425	-0.721736	-3.873925E+9	5.844290E-12	NaN
1111	1.000000	0.998766	7.37592e+06	-55689.1	1055.82	-29740.3	0.000000	0.000000	6.999125	-0.005163	NaN	0.000000	0.001617	0.001740	28.082	0.038114	0.002013	18.934	9.402364	-163.394	0.052645	0.997515	-0.710900	-0.712151	-0.005163	18.934	-0.710696	-2.738681E+9	1.885074E-12	NaN
1111	1.000000	1.010771	7.37592e+06	-55689.1	1055.82	-29740.3	0.000000	0.000000	7.011131	0.025597	NaN	0.000000	0.001611	0.001742	28.0805	0.034117	0.001934	17.6409	10.3769	-167.577	0.099801	1.009514	-0.698895	-0.700152	0.025597	17.6409	-0.699984	-1.955729E+9	-1.308809E-11	NaN
1111	1.000000	1.022793	7.37592e+06	-55689.1	1055.82	-29740.3	0.000000	0.000000	7.023155	0.075366	NaN	0.000000	0.001573	0.001716	28.0804	0.052608	0.002007	26.2168	-94.9582	-166.362	0.107149	1.021468	-0.686873	-0.688198	0.075366	26.2168	-0.689029	-1.385649E+9	-5.439029E-11	NaN
1111	1.000000	1.034792	7.37592e+06	-55689.1	1055.82	-29740.3	0.000000	0.000000	7.035152	0.028020	NaN	0.000000	0.001595	0.001745	28.0805	0.031185	0.002118	14.7254	65.7529	-168.652	-0.003689	1.033454	-0.674874	-0.676212	0.028020	14.7254	-0.676302	-9.281470E+8	-3.018895E-11	NaN
1111	1.000000	1.046802	7.37592e+06	-55689.1	1055.82	-29740.3	0.000000	0.000000	7.047162	0.021150	NaN	0.000000	0.001550	0.001744	28.0804	0.109156	0.001955	55.8317	49.1748	-167.195	0.027833	1.045514	-0.662864	-0.664152	0.021150	55.8317	-0.663149	-6.131853E+8	-3.449231E-11	NaN
1111	1.000000	1.058804	7.37592e+06	-55689.1	1055.82	-29740.3	0.000000	0.000000	7.059167	0.093563	NaN	0.000000	0.001536	0.001717	28.0803	0.083815	0.001952	42.9407	65.2521	-165.211	0.042529	1.057524	-0.650862	-0.652142	0.093563	42.9407	-0.652496	-4.381818E+8	-2.135246E-10	NaN
1111	1.000000	1.070816	7.37592e+06	-55689.1	1055.82	-29740.3	0.000000	0.000000	7.071178	0.058088	NaN	0.000000	0.001565	0.001715	28.0803	0.023319	0.001959	11.9009	77.7995	-170.618	0.001142	1.069534	-0.638850	-0.640132	0.058088	11.9009	-0.642510	-3.196915E+8	-1.817009E-10	NaN
1111	1.000000	1.082818	7.37592e+06	-55689.1	1055.82	-29740.3	0.000000	0.000000	7.083177	-0.002872	NaN	0.000000	0.001520	0.001732	28.0805	0.050986	0.001997	25.5363	-96.8349	-163.485	-0.032062	1.081530	-0.626848	-0.628136	-0.002872	25.5363	-0.626764	-1.943471E+8	1.477796E-11	NaN
1111	1.000000	1.094843	7.37592e+06	-55689.1	1055.82	-29740.3	0.000000	0.000000	7.095205	0.048691	NaN	0.000000	0.001541	0.001734	28.0805	0.100710	0.001996	50.4621	70.9002	-165.237	-0.015405	1.093505	-0.614823	-0.616161	0.048691	50.4621	-0.615546	-1.362716E+8	-3.573114E-10	NaN
1111	1.000000	1.106839	7.37592e+06	-55689.1	1055.82	-29740.3	0.000000	0.000000	7.107201	0.062353	NaN	0.000000	0.001561	0.001726	28.0802	0.073642	0.002081	35.3813	-127.432	-168.36	0.079818	1.105552	-0.602827	-0.604114	0.062353	35.3813	-0.604148	-9.496866E+7	-6.565660E-10	NaN
1111	1.000000	1.118847	7.37592e+06	-55689.1	1055.82	-29740.3	0.000000	0.000000	7.119207	0.010883	NaN	0.000000	0.001576	0.001745	28.0804	0.103558	0.002076	49.8802	130.266	-166.401	-0.001317	1.117586	-0.590819	-0.592080	0.010883	49.8802	-0.590982	-6.254729E+7	-1.740011E-10	NaN
1111	1.000000	1.130846	7.37592e+06	-55689.1	1055.82	-29740.3	0.000000	0.000000	7.131207	0.047350	NaN	0.000000	0.001584	0.001764	28.0803	0.083319	0.001965	42.392	80.8012	-163.55	0.001859	1.129535	-0.578820	-0.580131	0.047350	42.392	-0.579658	-4.365242E+7	-1.084701E-9	NaN
1111	1.000000	1.142840	7.37592e+06	-55689.1	1055.82	-29740.3	0.000000	0.000000	7.143201	0.045685	NaN	0.000000	0.001594	0.001738	28.0815	0.060229	0.002057	29.2773	151.128	-161.934	-0.049467	1.141550	-0.566826	-0.568116	0.045685	29.2773	-0.567996	-3.012609E+7	-1.516464E-9	NaN
1111	1.000000	1.154855	7.37592e+06	-55689.1	1055.82	-29740.3	0.000000	0.000000	7.155213	-0.019158	NaN	0.000000	0.001562	0.001737	28.0818	0.044872	0.001986	22.5897	-145.41	-169.246	0.079783	1.153546	-0.554811	-0.556120	-0.019158	22.5897	-0.554175	-1.939849E+7	9.876174E-10	NaN
1111	1.000000	1.166866	7.37592e+06	-55689.1	1055.82	-29740.3	0.000000	0.000000	7.167225	-0.015960	NaN	0.000000	0.001543	0.001736	28.0819	0.057435	0.002137	26.8802	-74.5124	-163.356	0.012235	1.165559	-0.542800	-0.544107	-0.015960	26.8802	-0.542355	-1.330479E+7	1.199565E-9	NaN
1111	1.000000	1.178862	7.37592e+06	-55689.1	1055.82	-29740.3	0.000000	0.000000	7.179222	0.002201	NaN	0.000000	0.001644	0.001784	28.0816	0.076225	0.001954	39.0033	-77.9094	-166.22	-0.016928	1.177537	-0.530804	-0.532129	0.002201	39.0033	-0.530846	-9.21135e+06	-2.389245E-10	NaN
1111	1.000000	1.190859	7.37592e+06	-55689.1	1055.82	-29740.3	0.000000	0.000000	7.191219	0.019685	NaN	0.000000	0.001649	0.001698	28.0816	0.082405	0.001997	41.2718	171.483	-164.5	0.053181	1.189545	-0.518807	-0.520121	0.019685	41.2718	-0.519165	-6.33837e+06	-3.105738E-9	NaN
1111	1.000000	1.202867	7.37592e+06	-55689.1	1055.82	-29740.3	0.000000	0.000000	7.203226	-0.007047	NaN	0.000000	0.001671	0.001725	28.0816	0.006309	0.002087	3.022791	23.6166	-164.569	0.057147	1.201541	-0.506799	-0.508125	-0.007047	3.022791	-0.505051	-4.03137e+06	1.748131E-9	NaN
1111	1.000000	1.214843	7.37592e+06	-55689.1	1055.82	-29740.3	0.000000	0.000000	7.215202	-0.012873	NaN	0.000000	0.001621	0.001723	28.0814	0.089126	0.002134	41.7676	-110.996	-165.749	-0.010293	1.213536	-0.494823	-0.496130	-0.012873	41.7676	-0.494592	-2.88093e+06	4.468386E-9	NaN
1111	1.000000	1.226861	7.37592e+06	-55689.1	1055.82	-29740.3	0.000000	0.000000	7.227225	0.109381	NaN	0.000000	0.001621	0.001726	28.0823	0.108782	0.001799	60.463	-151.702	-166.868	0.084030	1.225607	-0.482805	-0.484059	0.109381	60.463	-0.484162	-2.05953e+06	-5.310978E-8	NaN
1111	1.000000	1.238854	7.37592e+06	-55689.1	1055.82	-29740.3	0.000000	0.000000	7.239217	0.083880	NaN	0.000000	0.001548	0.001755	28.0818	0.102025	0.002030	50.2657	-179.563	-164.539	0.013958	1.237576	-0.470812	-0.472090	0.083880	50.2657	-0.472064	-1.39426e+06	-6.016091E-8	NaN
1111	1.000000	1.250896	7.37592e+06	-55689.1	1055.82	-29740.3	0.000000	0.000000	7.251257	0.050863	NaN	0.000000	0.001555	0.001747	28.0815	0.103531	0.001858	55.7079	106.282	-167.701	-0.039146	1.249552	-0.458770	-0.460114	0.050863	55.7079	-0.459455	-927594	-5.483325E-8	NaN
1111	1.000000	1.262869	7.37592e+06	-55689.1	1055.82	-29740.3	0.000000	0.000000	7.263230	0.038738	NaN	0.000000	0.001588	0.001756	28.0817	0.044412	0.002045	21.7139	169.414	-164.995	0.079864	1.261566	-0.446797	-0.448100	0.038738	21.7139	-0.448135	-642805	-6.026401E-8	NaN
1111	1.000000	1.274907	7.37592e+06	-55689.1	1055.82	-29740.3	0.000000	0.000000	7.275267	0.015778	NaN	0.000000	0.001572	0.001761	28.0817	0.040357	0.001988	20.299	47.9963	-165.89	0.025737	1.273596	-0.434759	-0.436070	0.015778	20.299	-0.435342	-424221	-3.719183E-8	NaN
1111	1.000000	1.286921	7.37592e+06	-55689.1	1055.82	-29740.3	0.000000	0.000000	7.287282	0.032578	NaN	0.000000	0.001601	0.001777	28.0806	0.051167	0.002121	24.1241	-96.7776	-164.899	-0.020918	1.285609	-0.422745	-0.424057	0.032578	24.1241	-0.423758	-290858	-1.120071E-7	NaN
1111	1.000000	1.298907	7.37592e+06	-55689.1	1055.82	-29740.3	0.000000	0.000000	7.299267	0.020040	NaN	0.000000	0.001614	0.001764	28.0805	0.040944	0.001906	21.4833	170.587	-166.369	-0.004525	1.297634	-0.410759	-0.412032	0.020040	21.4833	-0.411459	-194599	-1.029825E-7	NaN
1111	1.000000	1.310943	7.37592e+06	-55689.1	1055.82	-29740.3	0.000000	0.000000	7.311304	0.042715	NaN	0.000000	0.001589	0.001735	28.0804	0.054083	0.002016	26.8301	34.55	-167.381	0.109794	1.309579	-0.398723	-0.400087	0.042715	26.8301	-0.399917	-133295	-3.204536E-7	NaN
1111	1.000000	1.322915	7.37592e+06	-55689.1	1055.82	-29740.3	0.000000	0.000000	7.323277	0.075178	NaN	0.000000	0.001589	0.001719	28.0809	0.043982	0.002069	21.2581	-165.724	-167.332	0.015346	1.321638	-0.386751	-0.388028	0.075178	21.2581	-0.389403	-94326	-7.969984E-7	NaN
1111	1.000000	1.334947	7.37592e+06	-55689.1	1055.82	-29740.3	0.000000	0.000000	7.335309	0.062427	NaN	0.000000	0.001543	0.001712	28.0804	0.030021	0.001928	15.5744	-51.7001	-159.172	0.062458	1.333597	-0.374719	-0.376069	0.062427	15.5744	-0.377726	-64155.6	-9.730612E-7	NaN
1111	1.000000	1.346911	7.37592e+06	-55689.1	1055.82	-29740.3	0.000000	0.000000	7.347269	-0.025803	NaN	0.000000	0.001543	0.001744	28.0806	0.045925	0.001966	23.3631	-112.782	-169.166	-0.006920	1.345653	-0.362755	-0.364013	-0.025803	23.3631	-0.361927	-37991.6	6.791679E-7	NaN
1111	1.000000	1.358907	7.37592e+06	-55689.1	1055.82	-29740.3	0.000000	0.000000	7.359267	0.023866	NaN	0.000000	0.001591	0.001748	28.0806	0.034218	0.001886	18.1458	-72.3218	-163.313	-0.023668	1.357643	-0.350759	-0.352023	0.023866	18.1458	-0.351746	-27060.1	-8.819685E-7	NaN
1111	1.000000	1.370946	7.37592e+06	-55689.1	1055.82	-29740.3	0.000000	0.000000	7.371306	0.019987	NaN	0.000000	0.001582	0.001740	28.0805	0.046974	0.002034	23.0985	27.628	-166.665	0.005504	1.369580	-0.338720	-0.340086	0.019987	23.0985	-0.339369	-17879.7	-1.117856E-6	NaN
1111	1.000000	1.382972	7.37592e+06	-55689.1	1055.82	-29740.3	0.000000	0.000000	7.383334	0.079411	NaN	0.000000	0.001595	0.001740	28.0805	0.009840	0.001971	4.993433	-108.604	-165.145	0.050383	1.381640	-0.326694	-0.328026	0.079411	4.993433	-0.338622	-17436.4	-4.554323E-6	NaN
1111	1.000000	1.394953	7.37592e+06	-55689.1	1055.82	-29740.3	0.000000	0.000000	7.395315	0.063206	NaN	0.000000	0.001585	0.001726	28.0804	0.083772	0.001946	43.0415	-79.0022	-166.597	0.048427	1.393671	-0.314713	-0.315995	0.063206	43.0415	-0.315814	-8071.69	-7.830592E-6	NaN
1111	1.000000	1.406945	7.37592e+06	-55689.1	1055.82	-29740.3	0.000000	0.000000	7.407308	0.110066	NaN	0.000000	0.001577	0.001739	28.0805	0.134141	0.002033	65.9889	-163.485	-165.123	0.049618	1.405635	-0.302721	-0.304031	0.110066	65.9889	-0.303972	-5391.36	-2.041523E-5	NaN
1111	1.000000	1.418935	7.37592e+06	-55689.1	1055.82	-29740.3	0.000000	0.000000	7.419294	-0.018494	NaN	0.000000	0.001568	0.001710	28.082	0.006386	0.001988	3.212418	105.179	-166.465	-0.032479	1.417659	-0.290731	-0.292007	-0.018494	3.212418	-0.286413	-2947.82	6.273820E-6	NaN
1111	1.000000	1.430959	7.37592e+06	-55689.1	1055.82	-29740.3	0.000000	0.000000	7.431325	0.154099	NaN	0.000000	0.001576	0.001753	28.0823	0.043689	0.001981	22.0563	-43.8137	-166.828	-0.005838	1.429654	-0.278707	-0.280012	0.154099	22.0563	-0.283947	-2706.6	-5.693439E-5	NaN
1111	1.000000	1.442965	7.37592e+06	-55689.1	1055.82	-29740.3	0.000000	0.000000	7.443325	0.012332	NaN	0.000000	0.001565	0.001727	28.0822	0.156708	0.002126	73.7161	-111.217	-165.649	0.046920	1.441651	-0.266701	-0.268015	0.012332	73.7161	-0.266826	-1490.19	-8.275119E-6	NaN
1111	1.000000	1.454966	7.37592e+06	-55689.1	1055.82	-29740.3	0.000000	0.000000	7.455327	0.041227	NaN	0.000000	0.001563	0.001745	28.082	0.066784	0.001896	35.2201	155.193	-164.855	0.002296	1.453718	-0.254700	-0.255948	0.041227	35.2201	-0.255578	-1002.33	-4.113122E-5	NaN
1111	1.000000	1.466982	7.37592e+06	-55689.1	1055.82	-29740.3	0.000000	0.000000	7.467343	0.042286	NaN	0.000000	0.001541	0.001768	28.0819	0.096684	0.001985	48.7103	-55.7988	-167.218	0.068463	1.465651	-0.242684	-0.244015	0.042286	48.7103	-0.243335	-647.976	-6.525802E-5	NaN
1111	1.000000	1.478989	7.37592e+06	-55689.1	1055.82	-29740.3	0.000000	0.000000	7.479348	-0.013532	NaN	0.000000	0.001559	0.001766	28.0819	0.143203	0.002154	66.4967	87.9321	-163.82	-0.049213	1.477676	-0.230677	-0.231990	-0.013532	66.4967	-0.230524	-408.12	3.315707E-5	NaN
1111	1.000000	1.491007	7.37592e+06	-55689.1	1055.82	-29740.3	0.000000	0.000000	7.491366	0.004883	NaN	0.000000	0.001554	0.001711	28.0819	0.015099	0.002093	7.213285	-97.6135	-165.524	0.000459	1.489674	-0.218659	-0.219992	0.004883	7.213285	-0.219167	-269.376	-1.812548E-5	NaN
1111	1.000000	1.503010	7.37592e+06	-55689.1	1055.82	-29740.3	0.000000	0.000000	7.503372	0.065275	NaN	0.000000	0.001527	0.001728	28.082	0.128466	0.001976	65.0165	-145.33	-165.415	0.130119	1.501678	-0.206656	-0.207988	0.065275	65.0165	-0.207409	-174.096	-0.000375	NaN
1111	1.000000	1.515026	7.37592e+06	-55689.1	1055.82	-29740.3	0.000000	0.000000	7.515396	0.246488	NaN	0.000000	0.001553	0.001720	28.0818	0.207957	0.002031	102.389	13.046	-163.876	0.255390	1.513681	-0.194640	-0.195985	0.246488	102.389	-0.196445	-115.11	-0.002141	NaN
1111	1.000000	1.527011	7.37592e+06	-55689.1	1055.82	-29740.3	0.000000	0.000000	7.527392	0.528516	NaN	0.000000	0.001550	0.001757	28.0821	0.305764	0.001893	161.525	23.6814	-165.412	0.486947	1.525680	-0.182655	-0.183986	0.528516	161.525	-0.185109	-74.4673	-0.007097	NaN
1111	1.000000	1.539021	7.37592e+06	-55689.1	1055.82	-29740.3	0.000000	0.000000	7.539415	0.846818	NaN	0.000000	0.001540	0.001787	28.0823	0.464310	0.002006	231.483	34.5395	-167.161	0.842428	1.537684	-0.170645	-0.171982	0.846818	231.483	-0.173389	-47.0164	-0.018011	NaN
1111	1.000000	1.551030	7.37592e+06	-55689.1	1055.82	-29740.3	0.000000	0.000000	7.551431	1.015211	NaN	0.000000	0.001569	0.001708	28.0812	0.339718	0.001965	172.92	17.3011	-164.774	1.023875	1.549706	-0.158636	-0.159960	1.015211	172.92	-0.163039	-31.0304	-0.032717	NaN
1111	1.000000	1.562998	7.37592e+06	-55689.1	1055.82	-29740.3	0.000000	0.000000	7.563410	1.277422	NaN	0.000000	0.001532	0.001740	28.0806	0.461761	0.001877	246.014	19.642	-170.498	1.251900	1.561734	-0.146668	-0.147932	1.277422	246.014	-0.150562	-18.5461	-0.068878	NaN
1111	1.000000	1.575044	7.37592e+06	-55689.1	1055.82	-29740.3	0.000000	0.000000	7.575469	1.583848	NaN	0.000000	0.001558	0.001746	28.0807	0.595856	0.001993	299.028	20.6754	-168.069	1.616928	1.573765	-0.134622	-0.135901	1.583848	299.028	-0.138594	-11.1301	-0.142303	NaN
1111	1.000000	1.587029	7.37592e+06	-55689.1	1055.82	-29740.3	0.000000	0.000000	7.587462	1.793827	NaN	0.000000	0.001560	0.001715	28.0805	0.695046	0.001932	359.843	24.9763	-168.559	1.702528	1.585731	-0.122637	-0.123935	1.793827	359.843	-0.126376	-6.473561	-0.277101	NaN
1111	1.000000	1.599063	7.37592e+06	-55689.1	1055.82	-29740.3	0.000000	0.000000	7.599509	2.108258	NaN	0.000000	0.001633	0.001747	28.0807	0.612396	0.001969	310.985	22.8489	-164.384	2.061074	1.597752	-0.110603	-0.111914	2.108258	310.985	-0.115687	-3.946882	-0.534158	NaN
1111	1.000000	1.611052	7.37592e+06	-55689.1	1055.82	-29740.3	0.000000	0.000000	7.611508	2.336281	NaN	0.000000	0.001642	0.001715	28.0807	0.713644	0.002028	351.97	22.8086	-165.688	2.302423	1.609727	-0.098614	-0.099939	2.336281	351.97	-0.103592	-2.191048	-1.066285	NaN
1111	1.000000	1.623054	7.37592e+06	-55689.1	1055.82	-29740.3	0.000000	0.000000	7.623513	2.404843	NaN	0.000000	0.001645	0.001727	28.0808	0.723651	0.001874	386.114	17.5224	-166.784	2.349168	1.621784	-0.086612	-0.087882	2.404843	386.114	-0.091283	-1.158248	-2.076277	NaN
1111	1.000000	1.635043	7.37592e+06	-55689.1	1055.82	-29740.3	0.000000	0.000000	7.635519	2.822350	NaN	0.000000	0.001642	0.001748	28.0807	0.810224	0.002069	391.529	18.964	-166.33	2.751885	1.633762	-0.074623	-0.075904	2.822350	391.529	-0.080029	-0.620036	-4.551915	NaN
1111	1.000000	1.647078	7.37592e+06	-55689.1	1055.82	-29740.3	0.000000	0.000000	7.647553	2.799599	NaN	0.000000	0.001579	0.001670	28.0805	0.784840	0.001902	412.628	16.6367	-166.678	2.774276	1.645760	-0.062588	-0.063906	2.799599	412.628	-0.067677	-0.295215	-9.483243	NaN
1111	1.000000	1.659050	7.37592e+06	-55689.1	1055.82	-29740.3	0.000000	0.000000	7.659536	3.091919	NaN	0.000000	0.001584	0.001698	28.0811	0.781185	0.002124	367.741	18.6104	-165.527	2.999328	1.657782	-0.050616	-0.051884	3.091919	367.741	-0.056922	-0.146674	-21.0803	NaN
1111	1.000000	1.671051	7.37592e+06	-55689.1	1055.82	-29740.3	0.000000	0.000000	7.671551	3.401050	NaN	0.000000	0.001558	0.001717	28.0807	0.980640	0.001994	491.744	12.2914	-166.29	3.338504	1.669774	-0.038615	-0.039892	3.401050	491.744	-0.043802	-0.059068	-57.5789	NaN
1111	1.000000	1.683071	7.37592e+06	-55689.1	1055.82	-29740.3	0.000000	0.000000	7.683585	3.774353	NaN	0.000000	0.001560	0.001727	28.0806	0.868716	0.001905	455.951	23.3128	-166.553	3.683420	1.681799	-0.026595	-0.027867	3.774353	455.951	-0.032804	-0.027635	-136.577	NaN
1111	1.000000	1.695087	7.37592e+06	-55689.1	1055.82	-29740.3	0.000000	0.000000	7.695614	4.057308	NaN	0.000000	0.001572	0.001715	28.0817	1.006872	0.001920	524.51	9.026831	-164.088	4.088261	1.693800	-0.014579	-0.015866	4.057308	524.51	-0.020380	-0.012844	-315.901	NaN
1111	1.000000	1.707074	7.37592e+06	-55689.1	1055.82	-29740.3	0.000000	0.000000	7.707613	4.371896	NaN	0.000000	0.001591	0.001703	28.0819	1.094419	0.002072	528.127	18.3189	-165.559	4.283462	1.705789	-0.002592	-0.003877	4.371896	528.127	-0.008801	-0.005698	-767.308	NaN
1111	1.000000	1.718976	7.37592e+06	-55689.1	1055.82	-29740.3	0.000000	0.000000	7.719664	7.985966	NaN	0.000000	0.001568	0.001684	28.0824	5.642937	0.002046	2757.95	14.2505	-170.199	7.274485	1.717757	0.009310	0.008091	7.985966	2757.95	0.007139	0.006171	1294.05	32075.4
1111	2.000000	1.722638	7.37592e+06	-55689.1	1055.82	-29740.3	0.000000	0.000000	7.723436	10.6495	NaN	0.000000	0.001605	0.001698	28.0818	8.506177	0.001657	5132.54	6.190667	-172.177	10.16	1.722404	0.012972	0.012738	10.6495	5132.54	0.011416	0.010798	986.22	45126
1111	2.000000	1.725648	7.37592e+06	-55689.1	1055.82	-29740.3	0.000000	0.000000	7.726554	13.2695	NaN	0.000000	0.001545	0.001723	28.0818	11.3911	0.001745	6528.4	6.955920	-174.87	13.1007	1.725378	0.015982	0.015712	13.2695	6528.4	0.014458	0.014569	910.786	49415.2
1111	2.000000	1.728606	7.37592e+06	-55689.1	1055.82	-29740.3	0.000000	0.000000	7.729632	16.2013	NaN	0.000000	0.001538	0.001690	28.0819	14.5566	0.001843	7896.71	6.998772	-175.205	15.2194	1.728316	0.018940	0.018650	16.2013	7896.71	0.017401	0.018622	869.998	52869.3
1111	2.000000	1.731656	7.37592e+06	-55689.1	1055.82	-29740.3	0.000000	0.000000	7.732880	21.0229	NaN	0.000000	0.001558	0.001707	28.0815	17.7968	0.001848	9631.19	9.478302	179.796	21.6864	1.731304	0.021990	0.021638	21.0229	9631.19	0.020353	0.023100	910.087	57896
1111	2.000000	1.734598	7.37592e+06	-55689.1	1055.82	-29740.3	0.000000	0.000000	7.735854	21.8076	NaN	0.000000	0.001551	0.001734	28.0824	19.5849	0.001670	11728.3	4.358057	-175.779	21.28	1.734351	0.024932	0.024685	21.8076	11728.3	0.023537	0.028408	767.654	63575.3
1111	2.000000	1.737602	7.37592e+06	-55689.1	1055.82	-29740.3	0.000000	0.000000	7.739269	31.8057	NaN	0.000000	0.001528	0.001713	28.0816	24.1335	0.001926	12531.8	7.773372	-178.706	31.667	1.737209	0.027936	0.027543	31.8057	12531.8	0.026032	0.032920	966.142	63103.5
1111	2.000000	1.740577	7.37592e+06	-55689.1	1055.82	-29740.3	0.000000	0.000000	7.742368	34.8131	NaN	0.000000	0.001554	0.001708	28.0819	27.5297	0.001827	15067.2	8.625683	177.108	34.8841	1.740265	0.030911	0.030599	34.8131	15067.2	0.029178	0.039057	891.345	69655.9
1111	2.000000	1.743601	7.37592e+06	-55689.1	1055.82	-29740.3	0.000000	0.000000	7.745593	39.6855	NaN	0.000000	0.001558	0.001688	28.0823	30.9054	0.001931	16008.1	7.834072	177.114	39.4162	1.743280	0.033935	0.033614	39.6855	16008.1	0.032076	0.045156	878.853	68826.6
1111	2.000000	1.746567	7.37592e+06	-55689.1	1055.82	-29740.3	0.000000	0.000000	7.748825	46.16	NaN	0.000000	0.001657	0.001720	28.0806	32.4096	0.001814	17865.6	3.586467	-178.305	43.9475	1.746252	0.036901	0.036586	46.16	17865.6	0.034963	0.051661	893.52	71814.1
1111	2.000000	1.749577	7.37592e+06	-55689.1	1055.82	-29740.3	0.000000	0.000000	7.752336	58.3154	NaN	0.000000	0.001638	0.001676	28.0814	34.8273	0.001775	19623.8	3.329412	-178.956	56.8421	1.749194	0.039911	0.039528	58.3154	19623.8	0.037682	0.058176	1002.39	74333.2
1111	2.000000	1.752579	7.37592e+06	-55689.1	1055.82	-29740.3	0.000000	0.000000	7.755361	58.8943	NaN	0.000000	0.001598	0.001657	28.0805	37.3694	0.001720	21723.8	3.722524	178.379	59.9472	1.752272	0.042913	0.042606	58.8943	21723.8	0.040879	0.066321	888.024	77070
1111	2.000000	1.755509	7.37592e+06	-55689.1	1055.82	-29740.3	0.000000	0.000000	7.758698	68.8003	NaN	0.000000	0.001542	0.001705	28.0805	40.729	0.001837	22165.7	5.890915	176.284	66.5301	1.755237	0.045843	0.045571	68.8003	22165.7	0.043515	0.073427	936.988	74735.6
1111	2.000000	1.758548	7.37592e+06	-55689.1	1055.82	-29740.3	0.000000	0.000000	7.762294	82.3122	NaN	0.000000	0.001537	0.001660	28.0806	42.8355	0.001716	24968.9	6.909735	175.168	81.8058	1.758160	0.048882	0.048494	82.3122	24968.9	0.046410	0.081640	1008.24	79840.3
1111	2.000000	1.761484	7.37592e+06	-55689.1	1055.82	-29740.3	0.000000	0.000000	7.765439	87.404	NaN	0.000000	0.001569	0.001655	28.0804	45.3652	0.001884	24084.4	1.181358	-178.641	86.1013	1.761209	0.051818	0.051543	87.404	24084.4	0.049096	0.089640	975.058	73495.2
1111	2.000000	1.764553	7.37592e+06	-55689.1	1055.82	-29740.3	0.000000	0.000000	7.769184	103.847	NaN	0.000000	0.001564	0.001714	28.0816	48.6591	0.001824	26673.8	7.440279	174.139	105.066	1.764179	0.054887	0.054513	103.847	26673.8	0.051967	0.098590	1053.31	77614.2
1111	2.000000	1.767552	7.37592e+06	-55689.1	1055.82	-29740.3	0.000000	0.000000	7.772580	113.488	NaN	0.000000	0.001589	0.001676	28.0807	51.5727	0.001988	25946.7	5.029189	177.479	114.532	1.767176	0.057886	0.057510	113.488	25946.7	0.054605	0.107178	1058.88	72410.8
1111	2.000000	1.770463	7.37592e+06	-55689.1	1055.82	-29740.3	0.000000	0.000000	7.776012	126.158	NaN	0.000000	0.001584	0.001731	28.0808	53.5265	0.001743	30718	6.539584	173.464	123.72	1.770140	0.060797	0.060474	126.158	30718	0.057717	0.117748	1071.42	81787.9
1111	2.000000	1.773498	7.37592e+06	-55689.1	1055.82	-29740.3	0.000000	0.000000	7.779475	136.561	NaN	0.000000	0.001557	0.001699	28.0805	55.3263	0.001830	30228	3.350086	178.013	136.682	1.773328	0.063832	0.063662	136.561	30228	0.060444	0.127404	1071.88	77373.4
1111	2.000000	1.776467	7.37592e+06	-55689.1	1055.82	-29740.3	0.000000	0.000000	7.782743	143.82	NaN	0.000000	0.001569	0.001710	28.0804	58.8202	0.001918	30666.5	4.550546	175.589	139.335	1.776303	0.066801	0.066637	143.82	30666.5	0.063284	0.137846	1043.33	75464
1111	2.000000	1.779459	7.37592e+06	-55689.1	1055.82	-29740.3	0.000000	0.000000	7.786543	163.473	NaN	0.000000	0.001570	0.001683	28.0814	60.1775	0.001770	33995.3	2.570939	176.353	158.295	1.779196	0.069793	0.069530	163.473	33995.3	0.066187	0.148922	1097.71	80484.6
1111	2.000000	1.782457	7.37592e+06	-55689.1	1055.82	-29740.3	0.000000	0.000000	7.790088	176.773	NaN	0.000000	0.001596	0.001698	28.0816	63.9096	0.001831	34901.2	7.543826	171.417	174.207	1.782285	0.072791	0.072619	176.773	34901.2	0.068992	0.160012	1104.75	79714.4
1111	2.000000	1.785462	7.37592e+06	-55689.1	1055.82	-29740.3	0.000000	0.000000	7.793707	191.694	NaN	0.000000	0.001584	0.001676	28.0819	66.2401	0.001807	36655.2	4.737983	173.744	189.161	1.785252	0.075796	0.075586	191.694	36655.2	0.071873	0.171792	1115.85	80799.2
1111	2.000000	1.788535	7.37592e+06	-55689.1	1055.82	-29740.3	0.000000	0.000000	7.797325	204.941	NaN	0.000000	0.001555	0.001667	28.0818	69.2826	0.001753	39526.9	4.799663	173.094	205.477	1.788194	0.078869	0.078528	204.941	39526.9	0.074980	0.184936	1108.18	83976.1
1111	2.000000	1.791453	7.37592e+06	-55689.1	1055.82	-29740.3	0.000000	0.000000	7.801214	228.531	NaN	0.000000	0.001577	0.001713	28.0819	71.4355	0.001737	41114.7	2.661899	175.181	224.565	1.791157	0.081787	0.081491	228.531	41114.7	0.077618	0.196451	1163.3	84750.7
1111	2.000000	1.794443	7.37592e+06	-55689.1	1055.82	-29740.3	0.000000	0.000000	7.804765	242.176	NaN	0.000000	0.001545	0.001704	28.0823	75.3157	0.001785	42197.2	4.124609	173.422	237.241	1.794204	0.084777	0.084538	242.176	42197.2	0.080472	0.209277	1157.2	84274.4
1111	2.000000	1.797496	7.37592e+06	-55689.1	1055.82	-29740.3	0.000000	0.000000	7.808228	252.126	NaN	0.000000	0.001513	0.001653	28.0829	80.5149	0.001878	42864	6.163976	170.722	250.198	1.797358	0.087830	0.087692	252.126	42864	0.083419	0.222916	1131.04	82946
1111	2.000000	1.800440	7.37592e+06	-55689.1	1055.82	-29740.3	0.000000	0.000000	7.812317	279.969	NaN	0.000000	0.001526	0.001674	28.0819	80.3303	0.001805	44497.9	-0.402936	177.722	277.781	1.800155	0.090774	0.090489	279.969	44497.9	0.086056	0.235463	1189.01	83782
1111	2.000000	1.803473	7.37593e+06	-55689.1	1055.82	-29740.3	0.000000	0.000000	7.816153	299.489	NaN	0.000000	0.001514	0.001680	28.0817	83.8161	0.001778	47142.5	4.096045	172.584	298.339	1.803142	0.093807	0.093476	299.489	47142.5	0.089043	0.250064	1197.65	86131.2
1111	2.000000	1.806544	7.37593e+06	-55689.1	1055.82	-29740.3	0.000000	0.000000	7.820068	320.02	NaN	0.000000	0.001521	0.001666	28.0817	86.8099	0.001920	45224.9	5.638861	172.751	321.262	1.806014	0.096878	0.096348	320.02	45224.9	0.091571	0.262740	1218.01	80609.8
1111	2.000000	1.809431	7.37593e+06	-55689.1	1055.82	-29740.3	0.000000	0.000000	7.823832	341.336	NaN	0.000000	0.001554	0.001696	28.0818	87.1924	0.001731	50377.7	3.273558	173.237	337.614	1.809097	0.099765	0.099431	341.336	50377.7	0.094683	0.278749	1224.53	87177.7
1111	2.000000	1.812524	7.37593e+06	-55689.1	1055.82	-29740.3	0.000000	0.000000	7.827397	352.797	NaN	0.000000	0.001528	0.001723	28.0817	89.5315	0.001825	49047.6	1.021837	175.735	355.549	1.812294	0.102858	0.102628	352.797	49047.6	0.097463	0.293422	1202.35	82726.5
1111	2.000000	1.815490	7.37593e+06	-55689.1	1055.82	-29740.3	0.000000	0.000000	7.831613	383.202	NaN	0.000000	0.001515	0.001665	28.0805	91.6689	0.001777	51589.7	2.725451	173.736	383.718	1.815133	0.105824	0.105467	383.202	51589.7	0.100253	0.308500	1242.14	84861
1111	2.000000	1.818570	7.37593e+06	-55689.1	1055.82	-29740.3	0.000000	0.000000	7.835186	395.164	NaN	0.000000	0.001536	0.001703	28.0809	96.2303	0.001900	50647.3	6.389870	170.062	401.933	1.818177	0.108904	0.108511	395.164	50647.3	0.103053	0.323988	1219.69	81295.2