File: remote_trans/data/nanoindenter/0828-1/data/Data_2025-08-06,11h17m57s/2025-07-22_16-23-58_1_286.txt
2025-07-22, 16:23:58, 1
Index	Phase	Displacement	Time	Pos X	Pos Y	Pos Z	Rot A	Rot B	Piezo Z	Force A	Force B	Gripper	Voltage A	Voltage B	Temperature	Amplitude force	Amplitude pos	Stiffness	Phase shift	Phase excitation	Force A raw	Displacement raw	HMax	HMax raw	Real Force	Real Stiffness	Contact Depth	Area	Hardness	Reduced Mod.
[#]	[#]	[um]	[s]	[um]	[um]	[um]	[m°]	[m°]	[um]	[uN]	[uN]	[V]	[V]	[V]	[°C]	[uN]	[um]	[N/m]	[°]	[°]	[uN]	[um]	[um]	[um]	[uN]	[N/m]	[um]	[um^2]	[MPa]	[MPa]
286	1.000000	0.002844	7.36785e+06	-52939.1	955.819	-29748.1	0.000000	0.000000	6.002800	-0.057009	NaN	0.000000	0.001601	0.001632	28.0821	0.091809	0.000820	112.009	-34.627	-165.595	-0.045921	0.001575	-1.045321	-1.046590	-0.057009	112.009	-1.044939	-9.128065E+13	6.245437E-16	NaN
286	1.000000	0.010806	7.36785e+06	-52939.1	955.819	-29748.1	0.000000	0.000000	6.010760	-0.091410	NaN	0.000000	0.001565	0.001693	28.082	0.141842	0.000980	144.746	-138.386	-168.29	-0.010768	0.009485	-1.037359	-1.038680	-0.091410	144.746	-1.036885	-7.113466E+13	1.285021E-15	NaN
286	1.000000	0.018800	7.36785e+06	-52939.1	955.818	-29748.1	0.000000	0.000000	6.018756	-0.045158	NaN	0.000000	0.001581	0.001697	28.0819	0.064441	0.001770	36.4042	169.789	-164.648	-0.030892	0.017511	-1.029365	-1.030654	-0.045158	36.4042	-1.028434	-5.475449E+13	8.247297E-16	NaN
286	1.000000	0.026838	7.36785e+06	-52939.1	955.818	-29748.1	0.000000	0.000000	6.026796	-0.000240	NaN	0.000000	0.001585	0.001666	28.0822	0.082449	0.001772	46.5385	100.175	-167.668	0.038156	0.025506	-1.021327	-1.022659	-0.000240	46.5385	-1.021323	-4.392904E+13	5.467110E-18	NaN
286	1.000000	0.034812	7.36785e+06	-52939.1	955.818	-29748.1	0.000000	0.000000	6.034766	-0.100831	NaN	0.000000	0.001594	0.001637	28.0819	0.079265	0.001857	42.6831	23.59	-164.384	-0.042712	0.033469	-1.013353	-1.014696	-0.100831	42.6831	-1.011581	-3.248323E+13	3.104084E-15	NaN
286	1.000000	0.042773	7.36785e+06	-52939.1	955.818	-29748.1	0.000000	0.000000	6.042735	0.082387	NaN	0.000000	0.001577	0.001643	28.0818	0.036912	0.001986	18.5899	173.106	-165.669	0.005597	0.041452	-1.005392	-1.006713	0.082387	18.5899	-1.008716	-2.972306E+13	-2.771821E-15	NaN
286	1.000000	0.050799	7.36785e+06	-52939.1	955.818	-29748.1	0.000000	0.000000	6.050756	-0.042819	NaN	0.000000	0.001597	0.001636	28.0802	0.058508	0.002029	28.8317	-127.165	-164.608	0.000540	0.049540	-0.997366	-0.998625	-0.042819	28.8317	-0.996252	-2.019764E+13	2.119983E-15	NaN
286	1.000000	0.058785	7.36785e+06	-52939.1	955.819	-29748.1	0.000000	0.000000	6.058746	0.063405	NaN	0.000000	0.001573	0.001664	28.0806	0.109988	0.002032	54.1405	75.2585	-165.536	0.032384	0.057474	-0.989380	-0.990691	0.063405	54.1405	-0.990258	-1.677215E+13	-3.780365E-15	NaN
286	1.000000	0.066780	7.36785e+06	-52939.1	955.818	-29748.1	0.000000	0.000000	6.066738	0.003605	NaN	0.000000	0.001603	0.001682	28.0805	0.007840	0.001964	3.991896	-152.613	-163.524	0.038116	0.065498	-0.981385	-0.982667	0.003605	3.991896	-0.982062	-1.300742E+13	-2.771342E-16	NaN
286	1.000000	0.074826	7.36785e+06	-52939.1	955.818	-29748.1	0.000000	0.000000	6.074784	0.006613	NaN	0.000000	0.001646	0.001643	28.0805	0.067455	0.001967	34.2845	-115.706	-165.441	0.002715	0.073476	-0.973339	-0.974689	0.006613	34.2845	-0.973483	-9.967930E+12	-6.633965E-16	NaN
286	1.000000	0.082781	7.36785e+06	-52939.1	955.818	-29748.1	0.000000	0.000000	6.082739	0.006533	NaN	0.000000	0.001687	0.001664	28.0805	0.104389	0.002103	49.6498	30.3668	-162.624	0.053122	0.081438	-0.965384	-0.966727	0.006533	49.6498	-0.965483	-7.776466E+12	-8.401591E-16	NaN
286	1.000000	0.090770	7.36785e+06	-52939.1	955.818	-29748.1	0.000000	0.000000	6.090727	-0.019866	NaN	0.000000	0.001645	0.001689	28.0806	0.148114	0.001971	75.1299	-157.188	-168.378	-0.024201	0.089500	-0.957395	-0.958665	-0.019866	75.1299	-0.957197	-6.012791E+12	3.303881E-15	NaN
286	1.000000	0.098815	7.36785e+06	-52939.1	955.819	-29748.1	0.000000	0.000000	6.098776	0.083429	NaN	0.000000	0.001645	0.001670	28.0805	0.122790	0.001937	63.3851	80.3434	-168.313	0.020387	0.097524	-0.949350	-0.950641	0.083429	63.3851	-0.950337	-4.859351E+12	-1.716876E-14	NaN
286	1.000000	0.106824	7.36785e+06	-52939.1	955.819	-29748.1	0.000000	0.000000	6.106781	-0.018519	NaN	0.000000	0.001607	0.001664	28.0805	0.133270	0.001976	67.4493	-161.79	-161.068	0.080873	0.105481	-0.941341	-0.942684	-0.018519	67.4493	-0.941135	-3.651279E+12	5.071853E-15	NaN
286	1.000000	0.114826	7.36785e+06	-52939.1	955.818	-29748.1	0.000000	0.000000	6.114786	0.047334	NaN	0.000000	0.001641	0.001668	28.0807	0.049213	0.001971	24.9697	69.5861	-167.749	0.061294	0.113552	-0.933339	-0.934613	0.047334	24.9697	-0.934761	-2.995310E+12	-1.580267E-14	NaN
286	1.000000	0.122791	7.36785e+06	-52939.1	955.818	-29748.1	0.000000	0.000000	6.122747	-0.034581	NaN	0.000000	0.001595	0.001658	28.0806	0.072397	0.002007	36.0725	-135.123	-165.675	0.043635	0.121552	-0.925374	-0.926613	-0.034581	36.0725	-0.924655	-2.188017E+12	1.580466E-14	NaN
286	1.000000	0.130821	7.36785e+06	-52939.1	955.817	-29748.1	0.000000	0.000000	6.130780	0.017585	NaN	0.000000	0.001593	0.001668	28.0804	0.095766	0.001918	49.9276	156.776	-163.446	0.010507	0.129505	-0.917344	-0.918660	0.017585	49.9276	-0.917608	-1.757547E+12	-1.000518E-14	NaN
286	1.000000	0.138800	7.36785e+06	-52939.1	955.819	-29748.1	0.000000	0.000000	6.138761	0.079054	NaN	0.000000	0.001640	0.001675	28.0804	0.055000	0.002118	25.9637	-172.528	-163.173	0.007056	0.137519	-0.909365	-0.910646	0.079054	25.9637	-0.911648	-1.460248E+12	-5.413718E-14	NaN
286	1.000000	0.146817	7.36785e+06	-52939.1	955.818	-29748.1	0.000000	0.000000	6.146774	-0.011735	NaN	0.000000	0.001639	0.001685	28.0804	0.133095	0.001941	68.5826	-67.7302	-164.119	-0.027905	0.145521	-0.901348	-0.902644	-0.011735	68.5826	-0.901220	-1.055723E+12	1.111539E-14	NaN
286	1.000000	0.154824	7.36785e+06	-52939.1	955.818	-29748.1	0.000000	0.000000	6.154782	0.002241	NaN	0.000000	0.001608	0.001656	28.0806	0.043235	0.001977	21.8658	-83.4822	-162.335	0.137461	0.153534	-0.893341	-0.894632	0.002241	21.8658	-0.893418	-8.281510E+11	-2.705929E-15	NaN
286	1.000000	0.162836	7.36785e+06	-52939.1	955.819	-29748.1	0.000000	0.000000	6.162792	-0.030774	NaN	0.000000	0.001634	0.001699	28.0808	0.109312	0.001990	54.9192	-175.647	-165.646	-0.016646	0.161608	-0.885329	-0.886557	-0.030774	54.9192	-0.884909	-6.354612E+11	4.842720E-14	NaN
286	1.000000	0.170819	7.36785e+06	-52939.1	955.818	-29748.1	0.000000	0.000000	6.170778	0.035849	NaN	0.000000	0.001594	0.001688	28.0806	0.078248	0.001973	39.6573	-99.795	-167.109	0.052583	0.169554	-0.877346	-0.878611	0.035849	39.6573	-0.878024	-5.128421E+11	-6.990345E-14	NaN
286	1.000000	0.178852	7.36785e+06	-52939.1	955.82	-29748.1	0.000000	0.000000	6.178807	-0.048407	NaN	0.000000	0.001566	0.001706	28.0808	0.080310	0.001938	41.4329	89.6616	-168.017	-0.070864	0.177556	-0.869313	-0.870609	-0.048407	41.4329	-0.868437	-3.804516E+11	1.272350E-13	NaN
286	1.000000	0.186865	7.36785e+06	-52939.1	955.818	-29748.1	0.000000	0.000000	6.186824	0.033174	NaN	0.000000	0.001549	0.001723	28.0819	0.024174	0.002146	11.2644	-80.5958	-163.46	0.023379	0.185520	-0.861300	-0.862645	0.033174	11.2644	-0.863508	-3.262911E+11	-1.016695E-13	NaN
286	1.000000	0.194864	7.36785e+06	-52939.1	955.819	-29748.1	0.000000	0.000000	6.194824	0.050534	NaN	0.000000	0.001570	0.001678	28.0816	0.130900	0.001983	66.0146	-111.738	-167.302	0.066947	0.193531	-0.853301	-0.854634	0.050534	66.0146	-0.853875	-2.416593E+11	-2.091121E-13	NaN
286	1.000000	0.202870	7.36785e+06	-52939.1	955.818	-29748.1	0.000000	0.000000	6.202829	0.042332	NaN	0.000000	0.001652	0.001652	28.0815	0.089958	0.001962	45.8389	-88.5867	-164.036	0.034518	0.201515	-0.845295	-0.846650	0.042332	45.8389	-0.845988	-1.889737E+11	-2.240124E-13	NaN
286	1.000000	0.210865	7.36785e+06	-52939.1	955.819	-29748.1	0.000000	0.000000	6.210821	-0.037314	NaN	0.000000	0.001635	0.001701	28.0815	0.039325	0.002066	19.0366	-24.5143	-164.152	-0.013789	0.209556	-0.837300	-0.838609	-0.037314	19.0366	-0.835830	-1.376548E+11	2.710723E-13	NaN
286	1.000000	0.218833	7.36785e+06	-52939.1	955.819	-29748.1	0.000000	0.000000	6.218789	-0.048747	NaN	0.000000	0.001645	0.001712	28.0817	0.081801	0.002006	40.7694	-169.507	-166.115	-0.121488	0.217557	-0.829332	-0.830608	-0.048747	40.7694	-0.828435	-1.092878E+11	4.460464E-13	NaN
286	1.000000	0.226872	7.36785e+06	-52939.1	955.818	-29748.1	0.000000	0.000000	6.226829	-0.018652	NaN	0.000000	0.001629	0.001708	28.0817	0.029294	0.002039	14.3659	-144.84	-166.492	-0.018436	0.225569	-0.821293	-0.822596	-0.018652	14.3659	-0.820320	-8.482923E+10	2.198807E-13	NaN
286	1.000000	0.234877	7.36785e+06	-52939.1	955.819	-29748.1	0.000000	0.000000	6.234837	0.065188	NaN	0.000000	0.001640	0.001668	28.0817	0.077039	0.001932	39.8749	132.812	-163.089	0.107933	0.233543	-0.813288	-0.814622	0.065188	39.8749	-0.814515	-7.076443E+10	-9.212033E-13	NaN
286	1.000000	0.242874	7.36785e+06	-52939.1	955.817	-29748.1	0.000000	0.000000	6.242830	-0.024940	NaN	0.000000	0.001656	0.001701	28.0815	0.173538	0.001999	86.8183	146.714	-165.787	0.001130	0.241515	-0.805291	-0.806650	-0.024940	86.8183	-0.805076	-5.269354E+10	4.732997E-13	NaN
286	1.000000	0.250876	7.36785e+06	-52939.1	955.819	-29748.1	0.000000	0.000000	6.250836	0.034629	NaN	0.000000	0.001666	0.001685	28.0814	0.040449	0.002180	18.5525	87.5145	-166.188	0.024645	0.249559	-0.797289	-0.798606	0.034629	18.5525	-0.798689	-4.315792E+10	-8.023744E-13	NaN
286	1.000000	0.258886	7.36785e+06	-52939.1	955.818	-29748.1	0.000000	0.000000	6.258843	-0.016108	NaN	0.000000	0.001640	0.001675	28.0817	0.005640	0.001908	2.956047	100.088	-164.636	-0.035515	0.257636	-0.789279	-0.790529	-0.016108	2.956047	-0.785192	-2.829968E+10	5.691848E-13	NaN
286	1.000000	0.266892	7.36785e+06	-52939.1	955.818	-29748.1	0.000000	0.000000	6.266849	-0.015409	NaN	0.000000	0.001622	0.001744	28.0815	0.170192	0.002095	81.2229	153.179	-164.337	-0.017298	0.265613	-0.781273	-0.782552	-0.015409	81.2229	-0.781131	-2.492294E+10	6.182521E-13	NaN
286	1.000000	0.274885	7.36785e+06	-52939.1	955.819	-29748.1	0.000000	0.000000	6.274842	-0.014397	NaN	0.000000	0.001555	0.001701	28.0819	0.017013	0.002135	7.968567	-173.805	-165.56	-0.011799	0.273508	-0.773280	-0.774657	-0.014397	7.968567	-0.771925	-1.868452E+10	7.705224E-13	NaN
286	1.000000	0.282859	7.36785e+06	-52939.1	955.818	-29748.1	0.000000	0.000000	6.282816	-0.039495	NaN	0.000000	0.001609	0.001714	28.0815	0.085271	0.002094	40.7121	-140.347	-165.345	0.001452	0.281562	-0.765306	-0.766603	-0.039495	40.7121	-0.764578	-1.484481E+10	2.660526E-12	NaN
286	1.000000	0.290925	7.36785e+06	-52939.1	955.818	-29748.1	0.000000	0.000000	6.290881	-0.024312	NaN	0.000000	0.001587	0.001709	28.0815	0.138368	0.002210	62.6076	55.8103	-165.1	-0.028852	0.289538	-0.757240	-0.758627	-0.024312	62.6076	-0.756949	-1.168946E+10	2.079847E-12	NaN
286	1.000000	0.298880	7.36785e+06	-52939.1	955.819	-29748.1	0.000000	0.000000	6.298838	0.007127	NaN	0.000000	0.001604	0.001751	28.0815	0.077584	0.001875	41.373	84.6901	-167.635	-0.003162	0.297607	-0.749285	-0.750558	0.007127	41.373	-0.749414	-9.230921E+9	-7.720694E-13	NaN
286	1.000000	0.306933	7.36785e+06	-52939.1	955.82	-29748.1	0.000000	0.000000	6.306893	0.043417	NaN	0.000000	0.001599	0.001798	28.0816	0.102342	0.002105	48.6209	-76.812	-164.746	0.059423	0.305613	-0.741232	-0.742552	0.043417	48.6209	-0.741902	-7.293834E+9	-5.952602E-12	NaN
286	1.000000	0.314913	7.36785e+06	-52939.1	955.819	-29748.1	0.000000	0.000000	6.314871	0.015877	NaN	0.000000	0.001593	0.001751	28.0816	0.036673	0.002070	17.7157	53.1952	-167.707	-0.064931	0.313557	-0.733252	-0.734608	0.015877	17.7157	-0.733924	-5.679179E+9	-2.795650E-12	NaN
286	1.000000	0.322935	7.36785e+06	-52939.1	955.818	-29748.1	0.000000	0.000000	6.322893	0.005842	NaN	0.000000	0.001631	0.001725	28.0806	0.141097	0.001923	73.3693	-4.116718	-162.792	0.028299	0.321609	-0.725230	-0.726556	0.005842	73.3693	-0.725290	-4.331126E+9	-1.348875E-12	NaN
286	1.000000	0.330912	7.36785e+06	-52939.1	955.819	-29748.1	0.000000	0.000000	6.330870	0.026968	NaN	0.000000	0.001632	0.001763	28.0806	0.088546	0.001974	44.8564	3.289105	-168.422	-0.025112	0.329615	-0.717254	-0.718550	0.026968	44.8564	-0.717704	-3.413215E+9	-7.900976E-12	NaN
286	1.000000	0.338900	7.36785e+06	-52939.1	955.82	-29748.1	0.000000	0.000000	6.338857	-0.042138	NaN	0.000000	0.001594	0.001730	28.0802	0.031165	0.001935	16.1095	124.569	-163.494	-0.016571	0.337560	-0.709265	-0.710605	-0.042138	16.1095	-0.707303	-2.461702E+9	1.711738E-11	NaN
286	1.000000	0.346891	7.36785e+06	-52939.1	955.818	-29748.1	0.000000	0.000000	6.346851	0.030425	NaN	0.000000	0.001621	0.001700	28.0803	0.114251	0.002075	55.0493	-81.6579	-163.744	0.066872	0.345583	-0.701274	-0.702582	0.030425	55.0493	-0.701688	-2.063395E+9	-1.474526E-11	NaN
286	1.000000	0.354915	7.36785e+06	-52939.1	955.819	-29748.1	0.000000	0.000000	6.354871	-0.044689	NaN	0.000000	0.001622	0.001692	28.0801	0.155913	0.001987	78.4661	-47.4539	-166.759	-0.006387	0.353602	-0.693250	-0.694563	-0.044689	78.4661	-0.692823	-1.561331E+9	2.862270E-11	NaN
286	1.000000	0.362914	7.36785e+06	-52939.1	955.819	-29748.1	0.000000	0.000000	6.362871	-0.006604	NaN	0.000000	0.001610	0.001718	28.0805	0.080535	0.002063	39.042	-168.74	-163.681	0.028479	0.361602	-0.685251	-0.686563	-0.006604	39.042	-0.685125	-1.225400E+9	5.389566E-12	NaN
286	1.000000	0.370923	7.36785e+06	-52939.1	955.818	-29748.1	0.000000	0.000000	6.370881	-0.001359	NaN	0.000000	0.001609	0.001705	28.0805	0.003588	0.001974	1.817744	106.101	-165.889	0.029185	0.369615	-0.677242	-0.678550	-0.001359	1.817744	-0.676682	-9.393259E+8	1.446370E-12	NaN
286	1.000000	0.378941	7.36785e+06	-52939.1	955.819	-29748.1	0.000000	0.000000	6.378901	0.049269	NaN	0.000000	0.001583	0.001707	28.0804	0.121621	0.002037	59.7138	-111.645	-161.171	0.062292	0.377648	-0.669224	-0.670517	0.049269	59.7138	-0.669843	-7.572528E+8	-6.506288E-11	NaN
286	1.000000	0.386926	7.36785e+06	-52939.1	955.817	-29748.1	0.000000	0.000000	6.386883	-0.022602	NaN	0.000000	0.001607	0.001688	28.0805	0.069574	0.001952	35.6351	-159.032	-165.433	0.017431	0.385659	-0.661239	-0.662506	-0.022602	35.6351	-0.660764	-5.687585E+8	3.973928E-11	NaN
286	1.000000	0.394911	7.36785e+06	-52939.1	955.82	-29748.1	0.000000	0.000000	6.394873	0.083810	NaN	0.000000	0.001609	0.001710	28.0802	0.092111	0.001916	48.0836	-56.8352	-164.815	0.019215	0.393645	-0.653254	-0.654520	0.083810	48.0836	-0.654561	-4.676807E+8	-1.792036E-10	NaN
286	1.000000	0.402936	7.36785e+06	-52939.1	955.819	-29748.1	0.000000	0.000000	6.402893	-0.024982	NaN	0.000000	0.001622	0.001688	28.0806	0.087115	0.001975	44.1112	-3.793232	-166.136	-0.059716	0.401608	-0.645229	-0.646557	-0.024982	44.1112	-0.644804	-3.437123E+8	7.268364E-11	NaN
286	1.000000	0.410933	7.36785e+06	-52939.1	955.818	-29748.1	0.000000	0.000000	6.410889	-0.035581	NaN	0.000000	0.001615	0.001697	28.0807	0.084761	0.001958	43.281	121.436	-164.458	-0.012711	0.409624	-0.637232	-0.638541	-0.035581	43.281	-0.636615	-2.653649E+8	1.340843E-10	NaN
286	1.000000	0.418931	7.36785e+06	-52939.1	955.818	-29748.1	0.000000	0.000000	6.418888	-0.029695	NaN	0.000000	0.001624	0.001667	28.0806	0.080325	0.002209	36.3703	138.086	-161.362	-0.019822	0.417634	-0.629234	-0.630531	-0.029695	36.3703	-0.628621	-2.061048E+8	1.440778E-10	NaN
286	1.000000	0.426902	7.36785e+06	-52939.1	955.819	-29748.1	0.000000	0.000000	6.426861	0.022202	NaN	0.000000	0.001569	0.001711	28.0804	0.079239	0.001954	40.5562	-108.017	-161.672	0.014620	0.425658	-0.621263	-0.622507	0.022202	40.5562	-0.621673	-1.654362E+8	-1.342040E-10	NaN
286	1.000000	0.434951	7.36785e+06	-52939.1	955.818	-29748.1	0.000000	0.000000	6.434908	-0.004523	NaN	0.000000	0.001584	0.001720	28.0802	0.141094	0.001945	72.5322	-179.462	-163.906	-0.018343	0.433631	-0.613214	-0.614534	-0.004523	72.5322	-0.613167	-1.263824E+8	3.579045E-11	NaN
286	1.000000	0.442953	7.36785e+06	-52939.1	955.818	-29748.1	0.000000	0.000000	6.442911	-0.000401	NaN	0.000000	0.001592	0.001727	28.0803	0.096600	0.002067	46.7242	112.819	-165.883	0.010375	0.441611	-0.605212	-0.606554	-0.000401	46.7242	-0.605205	-9.820446E+7	4.082549E-12	NaN
286	1.000000	0.450943	7.36785e+06	-52939.1	955.818	-29748.1	0.000000	0.000000	6.450894	-0.158853	NaN	0.000000	0.001596	0.001710	28.0806	0.112461	0.001915	58.7144	134.556	-164.758	-0.191613	0.449636	-0.597222	-0.598529	-0.158853	58.7144	-0.595193	-7.148957E+7	2.222043E-9	NaN
286	1.000000	0.458970	7.36785e+06	-52939.1	955.819	-29748.1	0.000000	0.000000	6.458927	-0.013825	NaN	0.000000	0.001583	0.001692	28.0816	0.028635	0.001986	14.4218	-73.7468	-168.26	0.016846	0.457635	-0.589195	-0.590530	-0.013825	14.4218	-0.588476	-5.776333E+7	2.393334E-10	NaN
286	1.000000	0.466939	7.36785e+06	-52939.1	955.819	-29748.1	0.000000	0.000000	6.466898	0.020652	NaN	0.000000	0.001591	0.001733	28.0819	0.025882	0.001901	13.6153	-160.771	-162.629	-0.002947	0.465672	-0.581226	-0.582493	0.020652	13.6153	-0.582363	-4.757083E+7	-4.341388E-10	NaN
286	1.000000	0.474968	7.36785e+06	-52939.1	955.819	-29748.1	0.000000	0.000000	6.474928	0.040169	NaN	0.000000	0.001599	0.001734	28.0815	0.127120	0.001909	66.5974	82.9602	-163.818	0.038022	0.473732	-0.573197	-0.574433	0.040169	66.5974	-0.573649	-3.606138E+7	-1.113893E-9	NaN
286	1.000000	0.482978	7.36785e+06	-52939.1	955.817	-29748.1	0.000000	0.000000	6.482936	0.004052	NaN	0.000000	0.001602	0.001725	28.0815	0.050220	0.001874	26.8015	-46.062	-166.318	-0.078632	0.481681	-0.565187	-0.566484	0.004052	26.8015	-0.565301	-2.764924E+7	-1.465454E-10	NaN
286	1.000000	0.491002	7.36785e+06	-52939.1	955.818	-29748.1	0.000000	0.000000	6.490962	0.060119	NaN	0.000000	0.001633	0.001744	28.0819	0.123255	0.001993	61.8409	-167.94	-166.812	0.016431	0.489647	-0.557163	-0.558518	0.060119	61.8409	-0.557892	-2.183802E+7	-2.752935E-9	NaN
286	1.000000	0.498984	7.36785e+06	-52939.1	955.819	-29748.1	0.000000	0.000000	6.498942	0.010350	NaN	0.000000	0.001612	0.001716	28.0815	0.063579	0.001946	32.6686	113.538	-164.95	0.049123	0.497684	-0.549181	-0.550481	0.010350	32.6686	-0.549418	-1.666862E+7	-6.209072E-10	NaN
286	1.000000	0.506992	7.36785e+06	-52939.1	955.818	-29748.1	0.000000	0.000000	6.506953	0.059094	NaN	0.000000	0.001594	0.001697	28.0816	0.017861	0.002066	8.646612	-158.427	-166.428	0.078164	0.505664	-0.541173	-0.542501	0.059094	8.646612	-0.546298	-1.508940E+7	-3.916265E-9	NaN
286	1.000000	0.514945	7.36785e+06	-52939.1	955.818	-29748.1	0.000000	0.000000	6.514899	-0.082886	NaN	0.000000	0.001604	0.001697	28.0813	0.137880	0.001946	70.8584	17.5962	-166.382	-0.100775	0.513672	-0.533220	-0.534493	-0.082886	70.8584	-0.532343	-9.6629e+06	8.577797E-9	NaN
286	1.000000	0.522994	7.36785e+06	-52939.1	955.817	-29748.1	0.000000	0.000000	6.522951	-0.030701	NaN	0.000000	0.001605	0.001707	28.0814	0.083873	0.001956	42.8689	102.402	-166.575	-0.101701	0.521666	-0.525171	-0.526499	-0.030701	42.8689	-0.524633	-7.55121e+06	4.065659E-9	NaN
286	1.000000	0.531010	7.36785e+06	-52939.1	955.819	-29748.1	0.000000	0.000000	6.530967	-0.018901	NaN	0.000000	0.001607	0.001759	28.0815	0.114677	0.002004	57.2114	29.6618	-161.814	0.065096	0.529694	-0.517155	-0.518471	-0.018901	57.2114	-0.516907	-5.89625e+06	3.205619E-9	NaN
286	1.000000	0.539000	7.36785e+06	-52939.1	955.818	-29748.1	0.000000	0.000000	6.538957	-0.034586	NaN	0.000000	0.001625	0.001700	28.0814	0.056813	0.002051	27.7032	96.9401	-164.482	0.014794	0.537688	-0.509165	-0.510477	-0.034586	27.7032	-0.508228	-4.4641e+06	7.747472E-9	NaN
286	1.000000	0.546988	7.36785e+06	-52939.1	955.819	-29748.1	0.000000	0.000000	6.546945	-0.022515	NaN	0.000000	0.001592	0.001731	28.0815	0.071641	0.002056	34.8467	163.606	-167.511	-0.021318	0.545693	-0.501177	-0.502472	-0.022515	34.8467	-0.500693	-3.50493e+06	6.423919E-9	NaN
286	1.000000	0.555037	7.36785e+06	-52939.1	955.818	-29748.1	0.000000	0.000000	6.554997	0.055496	NaN	0.000000	0.001612	0.001671	28.0815	0.121001	0.002032	59.5589	124.101	-166.362	0.028236	0.553671	-0.493128	-0.494494	0.055496	59.5589	-0.493827	-2.81096e+06	-1.974282E-8	NaN
286	1.000000	0.562999	7.36785e+06	-52939.1	955.819	-29748.1	0.000000	0.000000	6.562959	0.039333	NaN	0.000000	0.001600	0.001706	28.0816	0.023170	0.002006	11.5528	88.7063	-162.659	0.004797	0.561669	-0.485166	-0.486496	0.039333	11.5528	-0.487719	-2.30947e+06	-1.703104E-8	NaN
286	1.000000	0.570995	7.36785e+06	-52939.1	955.819	-29748.1	0.000000	0.000000	6.570956	0.074900	NaN	0.000000	0.001600	0.001729	28.0822	0.096825	0.002072	46.7388	-79.8061	-168.47	0.019612	0.569662	-0.477170	-0.478503	0.074900	46.7388	-0.478372	-1.70895e+06	-4.382800E-8	NaN
286	1.000000	0.579014	7.36785e+06	-52939.1	955.82	-29748.1	0.000000	0.000000	6.578971	-0.018997	NaN	0.000000	0.001583	0.001735	28.0818	0.122554	0.001937	63.254	80.7756	-161.702	-0.029325	0.577748	-0.469151	-0.470417	-0.018997	63.254	-0.468926	-1.25992e+06	1.507783E-8	NaN
286	1.000000	0.587047	7.36785e+06	-52939.1	955.818	-29748.1	0.000000	0.000000	6.587004	-0.023158	NaN	0.000000	0.001601	0.001731	28.0818	0.058076	0.001839	31.5716	60.4101	-166.451	-0.017925	0.585720	-0.461118	-0.462445	-0.023158	31.5716	-0.460568	-961601	2.408270E-8	NaN
286	1.000000	0.595017	7.36785e+06	-52939.1	955.817	-29748.1	0.000000	0.000000	6.594974	0.001112	NaN	0.000000	0.001566	0.001746	28.0806	0.054646	0.002117	25.8082	-163.649	-169.431	0.016457	0.593702	-0.453148	-0.454463	0.001112	25.8082	-0.453181	-757043	-1.468743E-9	NaN
286	1.000000	0.603021	7.36785e+06	-52939.1	955.818	-29748.1	0.000000	0.000000	6.602979	0.000219	NaN	0.000000	0.001596	0.001751	28.0803	0.047603	0.002077	22.9153	-108.082	-165.504	-0.050767	0.601669	-0.445144	-0.446496	0.000219	22.9153	-0.445151	-583469	-3.754776E-10	NaN
286	1.000000	0.611022	7.36785e+06	-52939.1	955.817	-29748.1	0.000000	0.000000	6.610980	0.010736	NaN	0.000000	0.001607	0.001722	28.0806	0.079301	0.002009	39.4732	-117.919	-165.967	-0.025175	0.609735	-0.437143	-0.438430	0.010736	39.4732	-0.437347	-452801	-2.371044E-8	NaN
286	1.000000	0.619011	7.36785e+06	-52939.1	955.818	-29748.1	0.000000	0.000000	6.618968	-0.030619	NaN	0.000000	0.001617	0.001754	28.0803	0.049008	0.001942	25.237	22.3851	-166.485	-0.047288	0.617760	-0.429154	-0.430405	-0.030619	25.237	-0.428244	-336678	9.094334E-8	NaN
286	1.000000	0.627038	7.36785e+06	-52939.1	955.818	-29748.1	0.000000	0.000000	6.626997	0.034125	NaN	0.000000	0.001631	0.001759	28.0808	0.081093	0.001910	42.4644	-169.18	-165.818	0.012728	0.625756	-0.421127	-0.422409	0.034125	42.4644	-0.421729	-272231	-1.253531E-7	NaN
286	1.000000	0.635049	7.36785e+06	-52939.1	955.819	-29748.1	0.000000	0.000000	6.635006	-0.031938	NaN	0.000000	0.001655	0.001735	28.0803	0.092602	0.001928	48.02	-156.744	-164.695	-0.009827	0.633669	-0.413116	-0.414496	-0.031938	48.02	-0.412617	-202116	1.580158E-7	NaN
286	1.000000	0.643037	7.36786e+06	-52939.1	955.819	-29748.1	0.000000	0.000000	6.642997	0.042736	NaN	0.000000	0.001594	0.001748	28.0803	0.084955	0.001976	42.9835	-11.1851	-163.871	0.021597	0.641725	-0.405128	-0.406440	0.042736	42.9835	-0.405874	-162064	-2.637006E-7	NaN
286	1.000000	0.651045	7.36786e+06	-52939.1	955.818	-29748.1	0.000000	0.000000	6.651004	0.033546	NaN	0.000000	0.001617	0.001720	28.0805	0.080417	0.002045	39.3148	-87.4169	-165.237	-0.000232	0.649724	-0.397120	-0.398441	0.033546	39.3148	-0.397760	-124177	-2.701465E-7	NaN
286	1.000000	0.659059	7.36786e+06	-52939.1	955.819	-29748.1	0.000000	0.000000	6.659021	0.114567	NaN	0.000000	0.001607	0.001736	28.0803	0.084191	0.002003	42.028	-111.737	-169.227	0.114881	0.657713	-0.389106	-0.390452	0.114567	42.028	-0.391151	-99913.6	-1.146665E-6	NaN
286	1.000000	0.667038	7.36786e+06	-52939.1	955.819	-29748.1	0.000000	0.000000	6.666997	0.030160	NaN	0.000000	0.001626	0.001722	28.0808	0.057290	0.001990	28.7932	29.9603	-163.139	0.058256	0.665777	-0.381127	-0.382388	0.030160	28.7932	-0.381912	-73675.7	-4.093643E-7	NaN
286	1.000000	0.675075	7.36786e+06	-52939.1	955.818	-29748.1	0.000000	0.000000	6.675032	-0.015310	NaN	0.000000	0.001586	0.001693	28.0805	0.030638	0.002017	15.1889	-150.604	-166.131	-0.011274	0.673755	-0.373090	-0.374410	-0.015310	15.1889	-0.372335	-53670.3	2.852593E-7	NaN
286	1.000000	0.683038	7.36786e+06	-52939.1	955.817	-29748.1	0.000000	0.000000	6.682994	-0.040588	NaN	0.000000	0.001606	0.001736	28.0806	0.031896	0.002031	15.7082	-161.899	-164.455	-0.077731	0.681733	-0.365127	-0.366432	-0.040588	15.7082	-0.363189	-39620.1	1.024438E-6	NaN
286	1.000000	0.691047	7.36786e+06	-52939.1	955.819	-29748.1	0.000000	0.000000	6.691004	-0.005532	NaN	0.000000	0.001569	0.001700	28.0807	0.045244	0.001899	23.8304	-79.1572	-165.88	0.015911	0.689752	-0.357118	-0.358413	-0.005532	23.8304	-0.356944	-32184.3	1.718959E-7	NaN
286	1.000000	0.699068	7.36786e+06	-52939.1	955.818	-29748.1	0.000000	0.000000	6.699026	0.003550	NaN	0.000000	0.001552	0.001712	28.0805	0.019537	0.001956	9.986410	-158.459	-164.21	-0.007936	0.697751	-0.349097	-0.350414	0.003550	9.986410	-0.349364	-24990.2	-1.420746E-7	NaN
286	1.000000	0.707066	7.36786e+06	-52939.1	955.818	-29748.1	0.000000	0.000000	6.707023	-0.007913	NaN	0.000000	0.001586	0.001718	28.0806	0.036186	0.002022	17.8989	-79.3002	-164.335	0.036452	0.705743	-0.341099	-0.342422	-0.007913	17.8989	-0.340768	-18738.9	4.222938E-7	NaN
286	1.000000	0.715071	7.36786e+06	-52939.1	955.818	-29748.1	0.000000	0.000000	6.715029	0.018209	NaN	0.000000	0.001596	0.001718	28.0804	0.018175	0.002030	8.952284	159.058	-165.388	-0.060407	0.713760	-0.333094	-0.334405	0.018209	8.952284	-0.334620	-15241.8	-1.194700E-6	NaN
286	1.000000	0.723058	7.36786e+06	-52939.1	955.819	-29748.1	0.000000	0.000000	6.723018	0.053536	NaN	0.000000	0.001571	0.001726	28.0806	0.064971	0.001959	33.1736	11.0565	-164.476	-0.011873	0.721834	-0.325107	-0.326331	0.053536	33.1736	-0.326317	-11520.4	-4.647103E-6	NaN
286	1.000000	0.731087	7.36786e+06	-52939.1	955.82	-29748.1	0.000000	0.000000	6.731048	0.094695	NaN	0.000000	0.001570	0.001733	28.0815	0.029049	0.001998	14.5388	88.5032	-164.874	0.042717	0.729789	-0.317078	-0.318376	0.094695	14.5388	-0.321963	-9943.05	-9.523714E-6	NaN
286	1.000000	0.739078	7.36786e+06	-52939.1	955.819	-29748.1	0.000000	0.000000	6.739038	0.029972	NaN	0.000000	0.001619	0.001749	28.0817	0.079647	0.002067	38.5344	116.013	-163.04	-0.058836	0.737763	-0.309087	-0.310402	0.029972	38.5344	-0.309670	-6548.92	-4.576644E-6	NaN
286	1.000000	0.747086	7.36786e+06	-52939.1	955.818	-29748.1	0.000000	0.000000	6.747048	0.093726	NaN	0.000000	0.001617	0.001707	28.0815	0.073581	0.001969	37.369	-150.994	-162.282	0.004392	0.745769	-0.301079	-0.302396	0.093726	37.369	-0.302960	-5207.89	-1.799690E-5	NaN
286	1.000000	0.755117	7.36786e+06	-52939.1	955.818	-29748.1	0.000000	0.000000	6.755074	-0.023986	NaN	0.000000	0.001604	0.001731	28.0814	0.126880	0.001921	66.0616	-51.347	-165.321	0.034177	0.753821	-0.293048	-0.294344	-0.023986	66.0616	-0.292776	-3671.57	6.532911E-6	NaN
286	1.000000	0.763120	7.36786e+06	-52939.1	955.818	-29748.1	0.000000	0.000000	6.763077	-0.013217	NaN	0.000000	0.001619	0.001731	28.0818	0.036572	0.002142	17.074	92.6507	-166.116	0.043635	0.761784	-0.285045	-0.286381	-0.013217	17.074	-0.284464	-2755.58	4.796324E-6	NaN
286	1.000000	0.771087	7.36786e+06	-52939.1	955.819	-29748.1	0.000000	0.000000	6.771047	0.047500	NaN	0.000000	0.001569	0.001706	28.0817	0.023799	0.002043	11.6467	17.8507	-163.76	0.010212	0.769731	-0.277078	-0.278434	0.047500	11.6467	-0.280137	-2371.54	-2.002925E-5	NaN
286	1.000000	0.779119	7.36786e+06	-52939.1	955.818	-29748.1	0.000000	0.000000	6.779076	-0.017406	NaN	0.000000	0.001550	0.001700	28.0818	0.009126	0.002053	4.445099	29.3575	-164.454	0.034816	0.777782	-0.269046	-0.270383	-0.017406	4.445099	-0.266109	-1453.16	1.197796E-5	NaN
286	1.000000	0.787063	7.36786e+06	-52939.1	955.818	-29748.1	0.000000	0.000000	6.787023	0.059057	NaN	0.000000	0.001537	0.001726	28.0822	0.152229	0.001994	76.3408	-128.46	-163.149	0.062435	0.785771	-0.261102	-0.262394	0.059057	76.3408	-0.261682	-1243.6	-4.748920E-5	NaN
286	1.000000	0.795127	7.36786e+06	-52939.1	955.82	-29748.1	0.000000	0.000000	6.795087	0.038747	NaN	0.000000	0.001550	0.001715	28.082	0.087263	0.002055	42.4609	49.6667	-165.058	-0.008666	0.793760	-0.253038	-0.254405	0.038747	42.4609	-0.253722	-938.498	-4.128572E-5	NaN
286	1.000000	0.803055	7.36786e+06	-52939.1	955.818	-29748.1	0.000000	0.000000	6.803013	-0.005662	NaN	0.000000	0.001555	0.001711	28.0818	0.014170	0.001953	7.256973	144.865	-167.272	0.018993	0.801830	-0.245110	-0.246335	-0.005662	7.256973	-0.244524	-676.174	8.373638E-6	NaN
286	1.000000	0.811107	7.36786e+06	-52939.1	955.819	-29748.1	0.000000	0.000000	6.811065	0.005091	NaN	0.000000	0.001577	0.001735	28.0818	0.036660	0.001974	18.5699	-89.0314	-163.317	-0.003948	0.809827	-0.237058	-0.238338	0.005091	18.5699	-0.237264	-520.896	-9.774159E-6	NaN
286	1.000000	0.819080	7.36786e+06	-52939.1	955.819	-29748.1	0.000000	0.000000	6.819035	-0.070820	NaN	0.000000	0.001659	0.001749	28.0821	0.061161	0.001981	30.8786	80.6269	-163.902	-0.031310	0.817811	-0.229085	-0.230354	-0.070820	30.8786	-0.227365	-363.782	0.000195	NaN
286	1.000000	0.827122	7.36786e+06	-52939.1	955.819	-29748.1	0.000000	0.000000	6.827078	-0.034888	NaN	0.000000	0.001627	0.001757	28.0818	0.045103	0.002024	22.2828	-29.3566	-162.332	0.063100	0.825807	-0.221043	-0.222358	-0.034888	22.2828	-0.219869	-276.428	0.000126	NaN
286	1.000000	0.835101	7.36786e+06	-52939.1	955.818	-29748.1	0.000000	0.000000	6.835058	-0.027104	NaN	0.000000	0.001643	0.001759	28.0821	0.070474	0.002070	34.0477	151.898	-164.098	0.020136	0.833787	-0.213064	-0.214378	-0.027104	34.0477	-0.212467	-210.232	0.000129	NaN
286	1.000000	0.843107	7.36786e+06	-52939.1	955.819	-29748.1	0.000000	0.000000	6.843064	-0.018441	NaN	0.000000	0.001601	0.001722	28.0819	0.066202	0.002165	30.5801	85.4359	-164.647	0.088959	0.841832	-0.205058	-0.206333	-0.018441	30.5801	-0.204606	-156.723	0.000118	NaN
286	1.000000	0.851125	7.36786e+06	-52939.1	955.818	-29748.1	0.000000	0.000000	6.851078	-0.122040	NaN	0.000000	0.001642	0.001743	28.0819	0.102687	0.002000	51.3428	-102.95	-166.049	0.013221	0.849811	-0.197040	-0.198354	-0.122040	51.3428	-0.195257	-110.019	0.001109	NaN
286	1.000000	0.859140	7.36786e+06	-52939.1	955.818	-29748.1	0.000000	0.000000	6.859099	0.033074	NaN	0.000000	0.001650	0.001741	28.0824	0.101850	0.001951	52.1916	-72.1949	-165.278	-0.002709	0.857798	-0.189025	-0.190367	0.033074	52.1916	-0.189501	-88.2438	-0.000375	NaN
286	1.000000	0.867131	7.36786e+06	-52939.1	955.819	-29748.1	0.000000	0.000000	6.867087	-0.037931	NaN	0.000000	0.001646	0.001761	28.0813	0.061944	0.002002	30.9405	-63.6952	-162.35	0.009082	0.865833	-0.181034	-0.182332	-0.037931	30.9405	-0.180115	-61.2936	0.000619	NaN
286	1.000000	0.875164	7.36786e+06	-52939.1	955.818	-29748.1	0.000000	0.000000	6.875123	0.023278	NaN	0.000000	0.001660	0.001706	28.0808	0.013790	0.001940	7.106636	99.7418	-163.782	-0.006985	0.873846	-0.173001	-0.174319	0.023278	7.106636	-0.175457	-51.0312	-0.000456	NaN
286	1.000000	0.883120	7.36786e+06	-52939.1	955.817	-29748.1	0.000000	0.000000	6.883076	-0.023721	NaN	0.000000	0.001646	0.001680	28.0806	0.050407	0.001973	25.5497	-116.269	-165.619	0.001316	0.881892	-0.165045	-0.166273	-0.023721	25.5497	-0.164349	-32.724	0.000725	NaN
286	1.000000	0.891150	7.36786e+06	-52939.1	955.818	-29748.1	0.000000	0.000000	6.891108	0.011250	NaN	0.000000	0.001646	0.001712	28.0805	0.011754	0.002021	5.816742	133.725	-161.13	0.000408	0.889905	-0.157015	-0.158260	0.011250	5.816742	-0.158465	-25.7434	-0.000437	NaN
286	1.000000	0.899135	7.36786e+06	-52939.1	955.818	-29748.1	0.000000	0.000000	6.899092	-0.019380	NaN	0.000000	0.001651	0.001694	28.0808	0.094112	0.001934	48.6568	52.1113	-164.435	0.032925	0.897814	-0.149030	-0.150351	-0.019380	48.6568	-0.148732	-17.1723	0.001129	NaN
286	1.000000	0.907137	7.36786e+06	-52939.1	955.818	-29748.1	0.000000	0.000000	6.907097	0.058159	NaN	0.000000	0.001724	0.001718	28.0805	0.082074	0.002018	40.6714	29.7646	-165.375	0.010467	0.905897	-0.141028	-0.142268	0.058159	40.6714	-0.142101	-12.9509	-0.004491	NaN
286	1.000000	0.915177	7.36786e+06	-52939.1	955.819	-29748.1	0.000000	0.000000	6.915138	0.055482	NaN	0.000000	0.001706	0.001724	28.0809	0.080924	0.001995	40.564	-150.166	-162.887	0.049772	0.913851	-0.132988	-0.134314	0.055482	40.564	-0.134013	-9.107991	-0.006092	NaN
286	1.000000	0.923168	7.36786e+06	-52939.1	955.818	-29748.1	0.000000	0.000000	6.923125	-0.019093	NaN	0.000000	0.001689	0.001722	28.0807	0.028832	0.002094	13.7693	46.015	-163.052	-0.021598	0.921894	-0.124997	-0.126271	-0.019093	13.7693	-0.123957	-5.798563	0.003293	NaN
286	1.000000	0.931150	7.36786e+06	-52939.1	955.819	-29748.1	0.000000	0.000000	6.931107	-0.024163	NaN	0.000000	0.001692	0.001684	28.0808	0.072942	0.002046	35.6432	53.5737	-162.48	-0.052894	0.929864	-0.117015	-0.118301	-0.024163	35.6432	-0.116506	-4.102603	0.005890	NaN
286	1.000000	0.939170	7.36786e+06	-52939.1	955.817	-29748.1	0.000000	0.000000	6.939128	0.006958	NaN	0.000000	0.001713	0.001704	28.0812	0.170106	0.001975	86.1376	-98.6652	-166.314	0.004136	0.937809	-0.108995	-0.110356	0.006958	86.1376	-0.109055	-2.870188	-0.002424	NaN
286	1.000000	0.947198	7.36786e+06	-52939.1	955.819	-29748.1	0.000000	0.000000	6.947154	-0.029468	NaN	0.000000	0.001668	0.001750	28.0807	0.025432	0.001949	13.0517	148.886	-163.858	0.011589	0.945843	-0.100967	-0.102322	-0.029468	13.0517	-0.099274	-1.760542	0.016738	NaN
286	1.000000	0.955184	7.36786e+06	-52939.1	955.819	-29748.1	0.000000	0.000000	6.955142	0.003806	NaN	0.000000	0.001638	0.001727	28.0808	0.122250	0.002081	58.7531	-171.162	-161.878	0.015661	0.953884	-0.092981	-0.094281	0.003806	58.7531	-0.093030	-1.271344	-0.002993	NaN
286	1.000000	0.963184	7.36786e+06	-52939.1	955.819	-29748.1	0.000000	0.000000	6.963142	0.017998	NaN	0.000000	0.001638	0.001710	28.0808	0.166300	0.001960	84.8305	-34.3686	-162.804	0.063212	0.961824	-0.084981	-0.086341	0.017998	84.8305	-0.085140	-0.828091	-0.021735	NaN
286	1.000000	0.971176	7.36786e+06	-52939.1	955.817	-29748.1	0.000000	0.000000	6.971132	-0.046447	NaN	0.000000	0.001667	0.001701	28.0808	0.085410	0.001992	42.8841	-144.597	-161.46	-0.019167	0.969864	-0.076989	-0.078301	-0.046447	42.8841	-0.076177	-0.495270	0.093782	NaN
286	1.000000	0.979188	7.36786e+06	-52939.1	955.818	-29748.1	0.000000	0.000000	6.979146	0.003751	NaN	0.000000	0.001635	0.001663	28.0809	0.021299	0.001995	10.6787	-157.189	-166.008	-0.037682	0.977896	-0.068977	-0.070269	0.003751	10.6787	-0.069240	-0.325452	-0.011527	NaN
286	1.000000	0.987186	7.36786e+06	-52939.1	955.819	-29748.1	0.000000	0.000000	6.987145	0.036532	NaN	0.000000	0.001663	0.001702	28.0808	0.052617	0.001889	27.8519	14.1738	-165.027	-0.048327	0.985889	-0.060979	-0.062276	0.036532	27.8519	-0.061963	-0.204854	-0.178331	NaN
286	1.000000	0.995203	7.36786e+06	-52939.1	955.818	-29748.1	0.000000	0.000000	6.995158	-0.076706	NaN	0.000000	0.001625	0.001702	28.0807	0.050529	0.001940	26.0448	86.4813	-163.635	-0.005597	0.993850	-0.052962	-0.054315	-0.076706	26.0448	-0.050753	-0.096157	0.797716	NaN
286	1.000000	1.003185	7.36786e+06	-52939.1	955.817	-29748.1	0.000000	0.000000	7.003145	0.049851	NaN	0.000000	0.001630	0.001741	28.0809	0.139838	0.001960	71.3536	-103.546	-161.966	0.045161	1.001895	-0.044980	-0.046270	0.049851	71.3536	-0.045504	-0.066587	-0.748659	NaN
286	1.000000	1.011195	7.36786e+06	-52939.1	955.818	-29748.1	0.000000	0.000000	7.011152	-0.017246	NaN	0.000000	0.001630	0.001703	28.0819	0.085365	0.001941	43.988	-129.447	-168.144	-0.003270	1.009884	-0.036970	-0.038281	-0.017246	43.988	-0.036676	-0.035906	0.480301	NaN
286	1.000000	1.019203	7.36786e+06	-52939.1	955.818	-29748.1	0.000000	0.000000	7.019160	-0.024811	NaN	0.000000	0.001638	0.001689	28.0819	0.107038	0.002033	52.6558	143.174	-167.761	-0.049834	1.017949	-0.028962	-0.030216	-0.024811	52.6558	-0.028609	-0.021065	1.177831	NaN
286	1.000000	1.027181	7.36786e+06	-52939.1	955.818	-29748.1	0.000000	0.000000	7.027140	0.016910	NaN	0.000000	0.001668	0.001691	28.0815	0.120074	0.002009	59.7579	127.966	-167.806	0.011681	1.025906	-0.020984	-0.022259	0.016910	59.7579	-0.021196	-0.013472	-1.255263	NaN
286	1.000000	1.035233	7.36786e+06	-52939.1	955.817	-29748.1	0.000000	0.000000	7.035192	0.031124	NaN	0.000000	0.001682	0.001739	28.0817	0.162152	0.002015	80.4687	0.698146	-162.968	0.104253	1.033907	-0.012932	-0.014258	0.031124	80.4687	-0.013222	-0.008231	-3.781537	NaN
286	1.000000	1.043206	7.36786e+06	-52939.1	955.818	-29748.1	0.000000	0.000000	7.043162	-0.043751	NaN	0.000000	0.001651	0.001692	28.0816	0.024438	0.001982	12.3292	-85.879	-163.776	0.008225	1.041872	-0.004959	-0.006293	-0.043751	12.3292	-0.002297	-0.001644	26.6044	NaN
286	1.000000	1.051189	7.36786e+06	-52939.1	955.817	-29748.1	0.000000	0.000000	7.051149	0.055904	NaN	0.000000	0.001629	0.001698	28.0817	0.120929	0.001987	60.8606	24.7943	-163.511	-0.036060	1.049885	0.003024	0.001720	0.055904	60.8606	0.002335	0.001828	30.5855	1300.61
286	1.000000	1.059202	7.36786e+06	-52939.1	955.817	-29748.1	0.000000	0.000000	7.059402	5.906578	NaN	0.000000	0.001605	0.001699	28.0817	6.584832	0.001668	3946.7	16.7817	-175.368	4.958954	1.057844	0.011037	0.009679	5.906578	3946.7	0.009914	0.009086	650.057	37828.2
286	2.000000	1.063786	7.36786e+06	-52939.1	955.817	-29748.1	0.000000	0.000000	7.064197	11.0095	NaN	0.000000	0.001615	0.001693	28.0816	10.872	0.001704	6379.16	7.330829	-171.365	10.3108	1.063443	0.015621	0.015278	11.0095	6379.16	0.014327	0.014398	764.656	48572
286	2.000000	1.065735	7.36786e+06	-52939.1	955.817	-29748.1	0.000000	0.000000	7.066262	13.8256	NaN	0.000000	0.001554	0.001652	28.082	12.6324	0.001574	8025.75	7.184589	-174.999	13.6273	1.065420	0.017570	0.017255	13.8256	8025.75	0.016278	0.017028	811.929	56192.3
286	2.000000	1.067684	7.36786e+06	-52939.1	955.816	-29748.1	0.000000	0.000000	7.068291	15.7867	NaN	0.000000	0.001588	0.001633	28.0818	14.862	0.001744	8519.54	5.266230	-172.589	15.5479	1.067479	0.019519	0.019314	15.7867	8519.54	0.018129	0.019687	801.869	55474.8
286	2.000000	1.069677	7.36786e+06	-52939.1	955.817	-29748.1	0.000000	0.000000	7.070510	21.2802	NaN	0.000000	0.001600	0.001672	28.0816	17.1429	0.001652	10380.2	4.246836	-174.876	20.018	1.069348	0.021512	0.021183	21.2802	10380.2	0.019974	0.022502	945.695	63222
286	2.000000	1.071669	7.36786e+06	-52939.1	955.816	-29748.1	0.000000	0.000000	7.072628	24.3214	NaN	0.000000	0.001560	0.001662	28.0816	19.7957	0.001783	11099.9	11.8575	179.694	25.2498	1.071365	0.023504	0.023200	24.3214	11099.9	0.021861	0.025552	951.859	63443.3
286	2.000000	1.073689	7.36786e+06	-52939.1	955.816	-29748.1	0.000000	0.000000	7.074959	31.9069	NaN	0.000000	0.001576	0.001695	28.0819	21.7493	0.001704	12761	3.553790	-175.411	30.1104	1.073378	0.025524	0.025213	31.9069	12761	0.023649	0.028603	1115.51	68937.1
286	2.000000	1.075622	7.36786e+06	-52939.1	955.816	-29748.1	0.000000	0.000000	7.077028	35.221	NaN	0.000000	0.001572	0.001681	28.0818	23.8381	0.001727	13802	3.855200	-176.592	32.7767	1.075359	0.027457	0.027194	35.221	13802	0.025543	0.032011	1100.28	70480.2
286	2.000000	1.077725	7.36786e+06	-52939.1	955.816	-29748.1	0.000000	0.000000	7.079154	35.7634	NaN	0.000000	0.001588	0.001652	28.0818	26.3594	0.001826	14439	3.298764	-176.887	35.6772	1.077420	0.029560	0.029255	35.7634	14439	0.027702	0.036116	990.24	69416.4
286	2.000000	1.079683	7.36786e+06	-52939.1	955.818	-29748.1	0.000000	0.000000	7.081493	45.0456	NaN	0.000000	0.001590	0.001640	28.0826	27.9158	0.001681	16610.6	7.215552	177.928	45.501	1.079358	0.031518	0.031193	45.0456	16610.6	0.029484	0.039681	1135.2	76184.7
286	2.000000	1.081632	7.36786e+06	-52939.1	955.817	-29748.1	0.000000	0.000000	7.083821	54.2405	NaN	0.000000	0.001559	0.001675	28.0816	30.1383	0.001642	18354.5	6.492833	177.662	52.5472	1.081263	0.033467	0.033098	54.2405	18354.5	0.031251	0.043376	1250.46	80517
286	2.000000	1.083701	7.36786e+06	-52939.1	955.818	-29748.1	0.000000	0.000000	7.086210	62.0416	NaN	0.000000	0.001593	0.001655	28.0806	32.4284	0.001863	17406.8	8.839864	178.981	63.0724	1.083241	0.035535	0.035076	62.0416	17406.8	0.032862	0.046886	1323.25	73446.8
286	2.000000	1.085582	7.36786e+06	-52939.1	955.818	-29748.1	0.000000	0.000000	7.088246	65.7974	NaN	0.000000	0.001574	0.001651	28.0804	34.1681	0.001840	18570	2.693198	-176.818	62.7453	1.085317	0.037417	0.037152	65.7974	18570	0.034760	0.051188	1285.42	74990.1
286	2.000000	1.087642	7.36786e+06	-52939.1	955.818	-29748.1	0.000000	0.000000	7.090613	73.2616	NaN	0.000000	0.001583	0.001660	28.0805	37.219	0.001776	20960.3	5.815116	177.217	72.4251	1.087396	0.039477	0.039231	73.2616	20960.3	0.036856	0.056156	1304.62	80811.8
286	2.000000	1.089630	7.36786e+06	-52939.1	955.819	-29748.1	0.000000	0.000000	7.092722	76.1999	NaN	0.000000	0.001575	0.001670	28.0805	37.156	0.001794	20710.1	0.642185	-176.47	75.8972	1.089376	0.041465	0.041211	76.1999	20710.1	0.038706	0.060726	1254.81	76783.4
286	2.000000	1.091591	7.36786e+06	-52939.1	955.818	-29748.1	0.000000	0.000000	7.095087	86.0182	NaN	0.000000	0.001570	0.001696	28.0803	39.6643	0.001783	22243.8	2.168345	-178.33	83.2963	1.091325	0.043426	0.043160	86.0182	22243.8	0.040526	0.065395	1315.36	79471
286	2.000000	1.093644	7.36786e+06	-52939.1	955.817	-29748.1	0.000000	0.000000	7.097552	96.0552	NaN	0.000000	0.001569	0.001670	28.0809	41.7169	0.001674	24916.2	4.794351	177.84	94.5142	1.093254	0.045479	0.045089	96.0552	24916.2	0.042587	0.070886	1355.06	85501.5
286	2.000000	1.095563	7.36786e+06	-52939.1	955.817	-29748.1	0.000000	0.000000	7.099961	107.959	NaN	0.000000	0.001595	0.001659	28.0807	43.6912	0.001739	25122.3	6.542312	176.524	104.413	1.095207	0.047398	0.047042	107.959	25122.3	0.044175	0.075263	1434.41	83664.5
286	2.000000	1.097640	7.36786e+06	-52939.1	955.818	-29748.1	0.000000	0.000000	7.102136	110.336	NaN	0.000000	0.001601	0.001720	28.0806	46.4536	0.001838	25275.6	5.667366	176.037	108.43	1.097330	0.049475	0.049165	110.336	25275.6	0.046201	0.081033	1361.62	81123.1
286	2.000000	1.099616	7.36786e+06	-52939.1	955.816	-29748.1	0.000000	0.000000	7.104565	121.359	NaN	0.000000	0.001594	0.001718	28.0806	47.8396	0.001779	26895.6	6.830832	174.63	120.222	1.099298	0.051451	0.051133	121.359	26895.6	0.048067	0.086531	1402.5	83535.2
286	2.000000	1.101565	7.36786e+06	-52939.1	955.817	-29748.1	0.000000	0.000000	7.106927	131.405	NaN	0.000000	0.001619	0.001719	28.0801	48.9187	0.001830	26728.4	2.632408	-179.935	128.161	1.101321	0.053400	0.053156	131.405	26728.4	0.049712	0.091527	1435.7	80718.3
286	2.000000	1.103551	7.36786e+06	-52939.1	955.817	-29748.1	0.000000	0.000000	7.109321	141.311	NaN	0.000000	0.001601	0.001670	28.0813	50.2732	0.001762	28535.7	2.270145	-179.976	137.71	1.103243	0.055386	0.055078	141.311	28535.7	0.051672	0.097651	1447.1	83430.1
286	2.000000	1.105489	7.36786e+06	-52939.1	955.817	-29748.1	0.000000	0.000000	7.111504	147.251	NaN	0.000000	0.001615	0.001721	28.0806	52.134	0.001791	29100.9	2.518772	179.064	141.395	1.105200	0.057324	0.057035	147.251	29100.9	0.053529	0.103634	1420.88	82590.5
286	2.000000	1.107542	7.36786e+06	-52939.1	955.817	-29748.1	0.000000	0.000000	7.114027	158.685	NaN	0.000000	0.001557	0.001691	28.0805	55.2084	0.001685	32768.2	3.135466	177.131	154.653	1.107215	0.059377	0.059050	158.685	32768.2	0.055745	0.110996	1429.65	89861.4
286	2.000000	1.109584	7.36786e+06	-52939.1	955.817	-29748.1	0.000000	0.000000	7.116451	167.97	NaN	0.000000	0.001583	0.001663	28.0809	56.7588	0.001727	32868.9	7.018141	173.109	167.726	1.109303	0.061419	0.061138	167.97	32868.9	0.057587	0.117296	1432.01	87683.2
286	2.000000	1.111632	7.36786e+06	-52939.1	955.817	-29748.1	0.000000	0.000000	7.118937	178.639	NaN	0.000000	0.001588	0.001701	28.0804	60.122	0.001869	32170.7	8.029371	173.31	179.029	1.111296	0.063467	0.063131	178.639	32170.7	0.059302	0.123318	1448.6	83698.9
286	2.000000	1.113668	7.36786e+06	-52939.1	955.817	-29748.1	0.000000	0.000000	7.121288	186.298	NaN	0.000000	0.001561	0.001678	28.0815	62.2471	0.001877	33161.9	6.310256	174.754	189.247	1.113324	0.065503	0.065159	186.298	33161.9	0.061289	0.130472	1427.87	83879.2
286	2.000000	1.115612	7.36786e+06	-52939.1	955.817	-29748.1	0.000000	0.000000	7.123825	200.716	NaN	0.000000	0.001566	0.001692	28.0804	63.4579	0.001781	35638.1	7.443534	172.996	199.575	1.115229	0.067447	0.067064	200.716	35638.1	0.063223	0.137619	1458.49	87770.6
286	2.000000	1.117602	7.36786e+06	-52939.1	955.817	-29748.1	0.000000	0.000000	7.126137	208.552	NaN	0.000000	0.001619	0.001706	28.0816	65.2937	0.001805	36172.8	5.362286	174.207	208.237	1.117287	0.069437	0.069122	208.552	36172.8	0.065113	0.144778	1440.49	86856.7
286	2.000000	1.119523	7.36786e+06	-52939.1	955.818	-29748.1	0.000000	0.000000	7.128795	226.442	NaN	0.000000	0.001600	0.001666	28.0817	65.1559	0.001777	36670.1	2.621316	177.04	221.268	1.119208	0.071358	0.071043	226.442	36670.1	0.066727	0.151029	1499.33	86209.2
286	2.000000	1.121535	7.36786e+06	-52939.1	955.817	-29748.1	0.000000	0.000000	7.131377	240.316	NaN	0.000000	0.001626	0.001667	28.0814	68.9789	0.001755	39309.5	6.283357	172.578	236.393	1.121201	0.073370	0.073036	240.316	39309.5	0.068785	0.159180	1509.71	90017.3
286	2.000000	1.123608	7.36786e+06	-52939.1	955.818	-29748.1	0.000000	0.000000	7.133748	247.572	NaN	0.000000	0.001605	0.001662	28.0828	69.6737	0.001765	39471.4	-0.847025	-179.896	247.435	1.123316	0.075443	0.075151	247.572	39471.4	0.070738	0.167105	1481.54	88218.9
286	2.000000	1.125615	7.36786e+06	-52939.1	955.817	-29748.1	0.000000	0.000000	7.136355	262.154	NaN	0.000000	0.001624	0.001674	28.0815	72.4336	0.001766	41024.5	5.526807	173.27	260.882	1.125283	0.077450	0.077118	262.154	41024.5	0.072658	0.175067	1497.44	89580.7
286	2.000000	1.127626	7.36786e+06	-52939.1	955.817	-29748.1	0.000000	0.000000	7.138577	267.293	NaN	0.000000	0.001605	0.001669	28.0816	75.8543	0.001828	41506.4	7.154635	171.319	269.197	1.127427	0.079461	0.079262	267.293	41506.4	0.074631	0.183434	1457.16	88541.8
286	2.000000	1.129532	7.36786e+06	-52939.1	955.818	-29748.1	0.000000	0.000000	7.141637	295.33	NaN	0.000000	0.001589	0.001668	28.0815	76.6938	0.001734	44217.3	8.839717	169.801	293.137	1.129123	0.081367	0.080958	295.33	44217.3	0.076358	0.190908	1546.97	92459.8
286	2.000000	1.131609	7.36786e+06	-52939.1	955.818	-29748.1	0.000000	0.000000	7.143929	300.567	NaN	0.000000	0.001621	0.001705	28.0812	77.1188	0.001687	45714.7	3.120530	175.49	302.41	1.131258	0.083444	0.083093	300.567	45714.7	0.078513	0.200432	1499.6	93292.2
286	2.000000	1.133561	7.36786e+06	-52939.1	955.817	-29748.1	0.000000	0.000000	7.146590	317.819	NaN	0.000000	0.001615	0.001700	28.0819	79.7981	0.001706	46764	7.121236	170.683	315.463	1.133280	0.085396	0.085115	317.819	46764	0.080298	0.208485	1524.42	93572.2
286	2.000000	1.135487	7.36786e+06	-52939.1	955.817	-29748.1	0.000000	0.000000	7.149096	331.905	NaN	0.000000	0.001624	0.001709	28.0814	81.6055	0.001878	43451.3	6.431523	171.687	326.259	1.135198	0.087322	0.087033	331.905	43451.3	0.081593	0.214419	1547.93	85732.3
286	2.000000	1.137611	7.36786e+06	-52939.1	955.817	-29748.1	0.000000	0.000000	7.151409	336.507	NaN	0.000000	0.001618	0.001719	28.0816	84.7715	0.001930	43933.7	5.734121	172.606	337.661	1.137384	0.089446	0.089219	336.507	43933.7	0.083701	0.224244	1500.63	84763.7
286	2.000000	1.139594	7.36786e+06	-52939.1	955.817	-29748.1	0.000000	0.000000	7.154513	363.77	NaN	0.000000	0.001604	0.001699	28.0818	85.3276	0.001856	45975.8	7.927789	170.61	363.99	1.139143	0.091429	0.090978	363.77	45975.8	0.085495	0.232768	1562.8	87064.5
286	2.000000	1.141557	7.36786e+06	-52939.1	955.818	-29748.1	0.000000	0.000000	7.156716	369.59	NaN	0.000000	0.001574	0.001711	28.0814	87.7441	0.001852	47370.4	3.520065	174.515	368.026	1.141227	0.093392	0.093062	369.59	47370.4	0.087541	0.242670	1523.02	87856.1
286	2.000000	1.143550	7.36786e+06	-52939.1	955.818	-29748.1	0.000000	0.000000	7.159037	377.573	NaN	0.000000	0.001612	0.001701	28.0819	89.5221	0.001846	48487.9	5.095553	172.847	373.261	1.143276	0.095385	0.095111	377.573	48487.9	0.089545	0.252559	1494.99	88150.7
286	2.000000	1.145409	7.36786e+06	-52939.1	955.817	-29748.1	0.000000	0.000000	7.161782	399.11	NaN	0.000000	0.001594	0.001691	28.0814	90.8613	0.001707	53215.9	5.074887	172.14	390.207	1.145113	0.097244	0.096948	399.11	53215.9	0.091619	0.262986	1517.61	94808.7
286	2.000000	1.147552	7.36786e+06	-52939.1	955.817	-29748.1	0.000000	0.000000	7.164553	414.375	NaN	0.000000	0.001617	0.001724	28.0817	93.9609	0.001736	54126.3	5.204888	171.73	412.711	1.147253	0.099387	0.099088	414.375	54126.3	0.093645	0.273363	1515.84	94582.8
286	2.000000	1.149545	7.36786e+06	-52939.1	955.817	-29748.1	0.000000	0.000000	7.167318	433.152	NaN	0.000000	0.001594	0.001691	28.0815	94.7762	0.001749	54195.3	5.359418	171.48	431.403	1.149243	0.101380	0.101078	433.152	54195.3	0.095385	0.282423	1533.7	93171.8
286	2.000000	1.151574	7.36786e+06	-52939.1	955.817	-29748.1	0.000000	0.000000	7.170104	451.557	NaN	0.000000	0.001598	0.001700	28.0803	98.156	0.001701	57706.4	8.391135	168.318	452.447	1.151189	0.103409	0.103024	451.557	57706.4	0.097540	0.293833	1536.78	97262.9
286	2.000000	1.153689	7.36786e+06	-52939.1	955.817	-29748.1	0.000000	0.000000	7.172919	468.587	NaN	0.000000	0.001609	0.001716	28.081	100.633	0.001908	52731.8	4.092190	173.775	475.206	1.153328	0.105524	0.105163	468.587	52731.8	0.098859	0.300924	1557.16	87824.9
286	2.000000	1.155525	7.36786e+06	-52939.1	955.817	-29748.1	0.000000	0.000000	7.175548	487.847	NaN	0.000000	0.001620	0.001715	28.0804	100.921	0.001677	60164.5	3.867719	172.19	484.898	1.155184	0.107360	0.107019	487.847	60164.5	0.101279	0.314134	1552.99	98074.6
286	2.000000	1.157593	7.36786e+06	-52939.1	955.818	-29748.1	0.000000	0.000000	7.178247	503.199	NaN	0.000000	0.001600	0.001701	28.0805	106.378	0.001895	56141.4	6.100239	170.671	503.81	1.157276	0.109428	0.109111	503.199	56141.4	0.102705	0.322047	1562.5	90385.1
286	2.000000	1.159531	7.36786e+06	-52939.1	955.817	-29748.1	0.000000	0.000000	7.180956	521.94	NaN	0.000000	0.001610	0.001719	28.0803	106.171	0.001885	56336.4	4.151370	172.312	519.766	1.159231	0.111366	0.111066	521.94	56336.4	0.104417	0.331666	1573.69	89374.2
286	2.000000	1.161164	7.36786e+06	-52939.1	955.818	-29748.1	0.000000	0.000000	7.183084	533.992	NaN	0.000000	0.001606	0.001701	28.0801	108.314	0.001790	60493.6	5.486186	-8.349392	537.999	1.160573	0.112999	0.112408	533.992	60493.6	0.106378	0.342847	1557.52	94391.5