File: remote_trans/data/nanoindenter/0828-1/data/Data_2025-08-06,11h17m57s/2025-07-22_16-23-58_1_594.txt
2025-07-22, 16:23:58, 1
Index	Phase	Displacement	Time	Pos X	Pos Y	Pos Z	Rot A	Rot B	Piezo Z	Force A	Force B	Gripper	Voltage A	Voltage B	Temperature	Amplitude force	Amplitude pos	Stiffness	Phase shift	Phase excitation	Force A raw	Displacement raw	HMax	HMax raw	Real Force	Real Stiffness	Contact Depth	Area	Hardness	Reduced Mod.
[#]	[#]	[um]	[s]	[um]	[um]	[um]	[m°]	[m°]	[um]	[uN]	[uN]	[V]	[V]	[V]	[°C]	[uN]	[um]	[N/m]	[°]	[°]	[uN]	[um]	[um]	[um]	[uN]	[N/m]	[um]	[um^2]	[MPa]	[MPa]
594	1.000000	0.002081	7.37086e+06	-47389.1	1005.82	-29765.6	0.000000	0.000000	6.002787	0.023423	NaN	0.000000	0.001565	0.001751	28.0794	0.041170	0.000886	46.4831	20.0974	-165.475	0.008699	0.000830	-1.798001	-1.799252	0.023423	46.4831	-1.798379	-1.029506E+24	-2.275121E-26	NaN
594	1.000000	0.014095	7.37086e+06	-47389.1	1005.82	-29765.6	0.000000	0.000000	6.014798	-0.045154	NaN	0.000000	0.001614	0.001775	28.0782	0.023360	0.001718	13.6001	139.555	-162.585	0.051603	0.012872	-1.785987	-1.787211	-0.045154	13.6001	-1.783497	-6.533312E+23	6.911414E-26	NaN
594	1.000000	0.026071	7.37086e+06	-47389.1	1005.82	-29765.6	0.000000	0.000000	6.026776	-0.003701	NaN	0.000000	0.001665	0.001788	28.0778	0.040168	0.001917	20.9528	96.0456	-161.594	-0.022123	0.024724	-1.774011	-1.775358	-0.003701	20.9528	-1.773879	-4.869339E+23	7.600399E-27	NaN
594	1.000000	0.038068	7.37086e+06	-47389.1	1005.82	-29765.6	0.000000	0.000000	6.038776	0.060413	NaN	0.000000	0.001669	0.001756	28.0781	0.138863	0.001929	71.9959	-82.0365	-166.407	0.032595	0.036732	-1.762014	-1.763350	0.060413	71.9959	-1.762643	-3.453982E+23	-1.749071E-25	NaN
594	1.000000	0.050023	7.37086e+06	-47389.1	1005.82	-29765.6	0.000000	0.000000	6.050729	0.001302	NaN	0.000000	0.001626	0.001799	28.0783	0.043352	0.001954	22.1839	71.3674	-162.787	-0.034965	0.048724	-1.750059	-1.751358	0.001302	22.1839	-1.750103	-2.354140E+23	-5.532484E-27	NaN
594	1.000000	0.062029	7.37086e+06	-47389.1	1005.82	-29765.6	0.000000	0.000000	6.062734	0.008298	NaN	0.000000	0.001639	0.001734	28.0783	0.031600	0.001899	16.6372	19.3125	-166.495	-0.075561	0.060732	-1.738053	-1.739350	0.008298	16.6372	-1.738427	-1.647430E+23	-5.036928E-26	NaN
594	1.000000	0.074057	7.37086e+06	-47389.1	1005.82	-29765.6	0.000000	0.000000	6.074765	0.082751	NaN	0.000000	0.001659	0.001758	28.0783	0.080583	0.002068	38.9616	64.5748	-164.053	0.091584	0.072763	-1.726025	-1.727319	0.082751	38.9616	-1.727618	-1.183777E+23	-6.990431E-25	NaN
594	1.000000	0.086046	7.37086e+06	-47389.1	1005.82	-29765.5	0.000000	0.000000	6.086751	-0.002296	NaN	0.000000	0.001615	0.001729	28.0781	0.047679	0.002015	23.6604	-131.406	-166.73	0.006368	0.084756	-1.714036	-1.715326	-0.002296	23.6604	-1.713963	-7.796754E+22	2.944530E-26	NaN
594	1.000000	0.098079	7.37086e+06	-47389.1	1005.82	-29765.5	0.000000	0.000000	6.098786	0.046505	NaN	0.000000	0.001619	0.001732	28.0781	0.022996	0.002122	10.8365	96.514	-166.017	0.092980	0.096781	-1.702003	-1.703301	0.046505	10.8365	-1.705222	-5.967620E+22	-7.792942E-25	NaN
594	1.000000	0.110066	7.37086e+06	-47389.1	1005.82	-29765.5	0.000000	0.000000	6.110767	-0.089404	NaN	0.000000	0.001612	0.001705	28.078	0.076559	0.001801	42.5206	-146.621	-167.267	-0.021122	0.108733	-1.690016	-1.691349	-0.089404	42.5206	-1.688439	-3.571491E+22	2.503265E-24	NaN
594	1.000000	0.122061	7.37086e+06	-47389.1	1005.82	-29765.5	0.000000	0.000000	6.122764	-0.054541	NaN	0.000000	0.001608	0.001761	28.078	0.081189	0.002091	38.8311	-25.9502	-165.93	-0.016457	0.120779	-1.678021	-1.679303	-0.054541	38.8311	-1.676968	-2.514358E+22	2.169187E-24	NaN
594	1.000000	0.134052	7.37086e+06	-47389.1	1005.82	-29765.5	0.000000	0.000000	6.134758	0.020762	NaN	0.000000	0.001615	0.001754	28.0781	0.061944	0.001863	33.2532	93.9655	-166.608	-0.018210	0.132726	-1.666030	-1.667356	0.020762	33.2532	-1.666498	-1.825181E+22	-1.137518E-24	NaN
594	1.000000	0.146105	7.37086e+06	-47389.1	1005.82	-29765.5	0.000000	0.000000	6.146808	-0.047879	NaN	0.000000	0.001632	0.001754	28.0784	0.056798	0.001890	30.0473	-27.3061	-164.938	-0.066316	0.144782	-1.653977	-1.655300	-0.047879	30.0473	-1.652782	-1.199529E+22	3.991502E-24	NaN
594	1.000000	0.158081	7.37086e+06	-47389.1	1005.82	-29765.5	0.000000	0.000000	6.158788	0.040480	NaN	0.000000	0.001626	0.001738	28.0794	0.105561	0.001922	54.9326	-22.8248	-170.192	-0.001742	0.156769	-1.642001	-1.643313	0.040480	54.9326	-1.642554	-8.771092E+21	-4.615123E-24	NaN
594	1.000000	0.170111	7.37086e+06	-47389.1	1005.82	-29765.5	0.000000	0.000000	6.170815	-0.024043	NaN	0.000000	0.001590	0.001766	28.0792	0.113335	0.001944	58.287	-42.7581	-166.859	0.019859	0.168812	-1.629971	-1.631270	-0.024043	58.287	-1.629662	-5.911023E+21	4.067421E-24	NaN
594	1.000000	0.182108	7.37086e+06	-47389.1	1005.82	-29765.5	0.000000	0.000000	6.182816	0.066796	NaN	0.000000	0.001608	0.001755	28.0791	0.032731	0.001944	16.8338	141.167	-164.521	0.092819	0.180804	-1.617974	-1.619278	0.066796	16.8338	-1.620950	-4.527213E+21	-1.475424E-23	NaN
594	1.000000	0.194123	7.37086e+06	-47389.1	1005.82	-29765.5	0.000000	0.000000	6.194828	-0.013663	NaN	0.000000	0.001644	0.001778	28.0792	0.012890	0.001829	7.046887	-36.322	-165.352	-0.005471	0.192813	-1.605959	-1.607269	-0.013663	7.046887	-1.604505	-2.736135E+21	4.993499E-24	NaN
594	1.000000	0.206093	7.37086e+06	-47389.1	1005.82	-29765.5	0.000000	0.000000	6.206800	0.040271	NaN	0.000000	0.001585	0.001739	28.0793	0.023556	0.002071	11.3755	-154.949	-165.859	-0.069732	0.204807	-1.593989	-1.595275	0.040271	11.3755	-1.596644	-2.150763E+21	-1.872408E-23	NaN
594	1.000000	0.218113	7.37086e+06	-47389.1	1005.82	-29765.5	0.000000	0.000000	6.218819	0.009915	NaN	0.000000	0.001636	0.001772	28.0791	0.085055	0.002108	40.3534	114.538	-167.259	0.014559	0.216847	-1.581969	-1.583235	0.009915	40.3534	-1.582153	-1.379835E+21	-7.185752E-24	NaN
594	1.000000	0.230096	7.37086e+06	-47389.1	1005.82	-29765.5	0.000000	0.000000	6.230803	0.028850	NaN	0.000000	0.001605	0.001779	28.0792	0.011796	0.002008	5.875262	96.0295	-162.876	-0.003132	0.228773	-1.569986	-1.571309	0.028850	5.875262	-1.573669	-1.064025E+21	-2.711449E-23	NaN
594	1.000000	0.242146	7.37086e+06	-47389.1	1005.82	-29765.5	0.000000	0.000000	6.242850	-0.017861	NaN	0.000000	0.001638	0.001783	28.0794	0.068990	0.001947	35.4337	-121.989	-167.245	0.013280	0.240832	-1.557936	-1.559251	-0.017861	35.4337	-1.557558	-6.495081E+20	2.749970E-23	NaN
594	1.000000	0.254142	7.37086e+06	-47389.1	1005.82	-29765.5	0.000000	0.000000	6.254847	-0.018459	NaN	0.000000	0.001656	0.001774	28.0791	0.040586	0.002059	19.7145	-112.537	-165.741	-0.046042	0.252795	-1.545940	-1.547287	-0.018459	19.7145	-1.545238	-4.452567E+20	4.145695E-23	NaN
594	1.000000	0.266126	7.37086e+06	-47389.1	1005.82	-29765.5	0.000000	0.000000	6.266831	0.007944	NaN	0.000000	0.001637	0.001776	28.0791	0.068163	0.001918	35.5471	42.8036	-166.758	-0.015402	0.264826	-1.533956	-1.535256	0.007944	35.5471	-1.534124	-3.167181E+20	-2.508283E-23	NaN
594	1.000000	0.278112	7.37086e+06	-47389.1	1005.82	-29765.5	0.000000	0.000000	6.278821	0.104016	NaN	0.000000	0.001587	0.001753	28.0785	0.067174	0.001977	33.9823	104.832	-168.093	0.111702	0.276854	-1.521970	-1.523228	0.104016	33.9823	-1.524266	-2.341217E+20	-4.442828E-22	NaN
594	1.000000	0.290146	7.37086e+06	-47389.1	1005.82	-29765.5	0.000000	0.000000	6.290854	0.055576	NaN	0.000000	0.001581	0.001744	28.0775	0.070188	0.002089	33.6035	128.942	-168.188	-0.044094	0.288785	-1.509936	-1.511297	0.055576	33.6035	-1.511176	-1.567295E+20	-3.545977E-22	NaN
594	1.000000	0.302119	7.37086e+06	-47389.1	1005.82	-29765.5	0.000000	0.000000	6.302825	0.015877	NaN	0.000000	0.001552	0.001787	28.0777	0.112362	0.001920	58.5337	164.782	-165.627	0.017368	0.300789	-1.497963	-1.499293	0.015877	58.5337	-1.498166	-1.051692E+20	-1.509624E-22	NaN
594	1.000000	0.314187	7.37086e+06	-47389.1	1005.82	-29765.5	0.000000	0.000000	6.314893	0.013452	NaN	0.000000	0.001568	0.001778	28.0781	0.049407	0.001985	24.8897	84.05	-166.31	-0.009692	0.312842	-1.485895	-1.487240	0.013452	24.8897	-1.486300	-7.308623E+19	-1.840613E-22	NaN
594	1.000000	0.326132	7.37086e+06	-47389.1	1005.82	-29765.5	0.000000	0.000000	6.326838	0.011203	NaN	0.000000	0.001588	0.001808	28.0776	0.091980	0.001970	46.68	-94.644	-169.64	0.065288	0.324846	-1.473950	-1.475236	0.011203	46.68	-1.474130	-5.031502E+19	-2.226659E-22	NaN
594	1.000000	0.338151	7.37086e+06	-47389.1	1005.82	-29765.5	0.000000	0.000000	6.338855	-0.011100	NaN	0.000000	0.001582	0.001790	28.0779	0.033944	0.001944	17.4641	-166.37	-167.537	0.005812	0.336825	-1.461931	-1.463257	-0.011100	17.4641	-1.461455	-3.410407E+19	3.254625E-22	NaN
594	1.000000	0.350167	7.37086e+06	-47389.1	1005.82	-29765.5	0.000000	0.000000	6.350872	0.005217	NaN	0.000000	0.001576	0.001763	28.0774	0.093557	0.002092	44.7156	-19.9872	-165.691	0.044711	0.348838	-1.449915	-1.451244	0.005217	44.7156	-1.450003	-2.399840E+19	-2.173918E-22	NaN
594	1.000000	0.362178	7.37086e+06	-47389.1	1005.82	-29765.5	0.000000	0.000000	6.362885	0.046628	NaN	0.000000	0.001582	0.001745	28.0774	0.073900	0.001979	37.3349	-99.6906	-166.739	-0.011383	0.360803	-1.437904	-1.439279	0.046628	37.3349	-1.438841	-1.703736E+19	-2.736791E-21	NaN
594	1.000000	0.374167	7.37086e+06	-47389.1	1005.82	-29765.5	0.000000	0.000000	6.374870	-0.053536	NaN	0.000000	0.001608	0.001781	28.0774	0.059828	0.001937	30.8891	-114.566	-167.234	-0.046557	0.372868	-1.425915	-1.427215	-0.053536	30.8891	-1.424615	-1.100875E+19	4.863035E-21	NaN
594	1.000000	0.386191	7.37086e+06	-47389.1	1005.82	-29765.5	0.000000	0.000000	6.386893	-0.064777	NaN	0.000000	0.001615	0.001796	28.0775	0.041429	0.002001	20.6996	-13.6605	-166.375	-0.003448	0.384900	-1.413892	-1.415183	-0.064777	20.6996	-1.411545	-7.369613E+18	8.789734E-21	NaN
594	1.000000	0.398216	7.37086e+06	-47389.1	1005.82	-29765.5	0.000000	0.000000	6.398921	0.001384	NaN	0.000000	0.001607	0.001807	28.0777	0.050893	0.002016	25.2475	-160.734	-165.741	-0.010570	0.396899	-1.401866	-1.403183	0.001384	25.2475	-1.401907	-5.481563E+18	-2.525346E-22	NaN
594	1.000000	0.410216	7.37086e+06	-47389.1	1005.82	-29765.5	0.000000	0.000000	6.410921	0.000549	NaN	0.000000	0.001594	0.001799	28.0776	0.064224	0.001925	33.365	-145.699	-163.129	0.047743	0.408872	-1.389866	-1.391210	0.000549	33.365	-1.389878	-3.788261E+18	-1.449449E-22	NaN
594	1.000000	0.422182	7.37086e+06	-47389.1	1005.82	-29765.5	0.000000	0.000000	6.422886	-0.026941	NaN	0.000000	0.001612	0.001769	28.0779	0.047796	0.001950	24.5113	-151.242	-167.269	0.017941	0.420886	-1.377900	-1.379196	-0.026941	24.5113	-1.377076	-2.556334E+18	1.053909E-20	NaN
594	1.000000	0.434193	7.37086e+06	-47389.1	1005.82	-29765.5	0.000000	0.000000	6.434899	0.017801	NaN	0.000000	0.001606	0.001744	28.0787	0.098312	0.002132	46.1049	-13.7593	-168.163	0.025108	0.432931	-1.365889	-1.367151	0.017801	46.1049	-1.366179	-1.828910E+18	-9.733270E-21	NaN
594	1.000000	0.446190	7.37086e+06	-47389.1	1005.82	-29765.5	0.000000	0.000000	6.446896	0.023819	NaN	0.000000	0.001582	0.001736	28.0787	0.023095	0.001827	12.6399	-70.4478	-166.673	0.029668	0.444896	-1.353892	-1.355186	0.023819	12.6399	-1.355305	-1.309352E+18	-1.819125E-20	NaN
594	1.000000	0.458190	7.37086e+06	-47389.1	1005.82	-29765.5	0.000000	0.000000	6.458895	-0.003499	NaN	0.000000	0.001582	0.001739	28.0788	0.113283	0.002090	54.2003	-115.881	-164.714	0.044632	0.456941	-1.341892	-1.343141	-0.003499	54.2003	-1.341844	-8.656267E+17	4.042376E-21	NaN
594	1.000000	0.470223	7.37086e+06	-47389.1	1005.82	-29765.5	0.000000	0.000000	6.470929	0.036806	NaN	0.000000	0.001621	0.001758	28.0788	0.106907	0.001913	55.8704	89.5322	-165.623	-0.041286	0.468953	-1.329860	-1.331129	0.036806	55.8704	-1.330354	-6.079858E+17	-6.053779E-20	NaN
594	1.000000	0.482237	7.37086e+06	-47389.1	1005.82	-29765.5	0.000000	0.000000	6.482943	0.012715	NaN	0.000000	0.001588	0.001781	28.0787	0.051376	0.002007	25.5991	121.032	-166.526	0.005246	0.480925	-1.317845	-1.319157	0.012715	25.5991	-1.318217	-4.185942E+17	-3.037616E-20	NaN
594	1.000000	0.494237	7.37086e+06	-47389.1	1005.82	-29765.5	0.000000	0.000000	6.494940	-0.036740	NaN	0.000000	0.001614	0.001757	28.0789	0.062515	0.002059	30.3647	-75.4006	-170.135	-0.028219	0.492948	-1.305846	-1.307134	-0.036740	30.3647	-1.304938	-2.782148E+17	1.320563E-19	NaN
594	1.000000	0.506214	7.37086e+06	-47389.1	1005.82	-29765.5	0.000000	0.000000	6.506919	-0.005660	NaN	0.000000	0.001620	0.001813	28.079	0.065344	0.002016	32.4085	-7.551223	-164.887	-0.068469	0.504937	-1.293868	-1.295145	-0.005660	32.4085	-1.293737	-1.971050E+17	2.871615E-20	NaN
594	1.000000	0.518207	7.37086e+06	-47389.1	1005.82	-29765.5	0.000000	0.000000	6.518912	0.003663	NaN	0.000000	0.001574	0.001773	28.079	0.062399	0.001981	31.5021	-93.1541	-165.916	0.027113	0.516879	-1.281875	-1.283203	0.003663	31.5021	-1.281963	-1.371895E+17	-2.670150E-20	NaN
594	1.000000	0.530227	7.37086e+06	-47389.1	1005.82	-29765.5	0.000000	0.000000	6.530932	0.007434	NaN	0.000000	0.001592	0.001740	28.079	0.041524	0.001853	22.4065	-90.6204	-167.3	0.008468	0.528973	-1.269855	-1.271109	0.007434	22.4065	-1.270104	-9.523170E+16	-7.806240E-20	NaN
594	1.000000	0.542248	7.37086e+06	-47389.1	1005.82	-29765.5	0.000000	0.000000	6.542951	-0.043729	NaN	0.000000	0.001588	0.001790	28.079	0.013585	0.002107	6.447580	137.037	-165.456	0.006325	0.540951	-1.257834	-1.259132	-0.043729	6.447580	-1.252747	-5.580440E+16	7.836199E-19	NaN
594	1.000000	0.554280	7.37086e+06	-47389.1	1005.82	-29765.5	0.000000	0.000000	6.554984	-0.029176	NaN	0.000000	0.001576	0.001845	28.0788	0.052147	0.002006	25.9977	-26.3895	-163.134	0.029955	0.552962	-1.245802	-1.247120	-0.029176	25.9977	-1.244960	-4.390368E+16	6.645554E-19	NaN
594	1.000000	0.566242	7.37086e+06	-47389.1	1005.82	-29765.5	0.000000	0.000000	6.566948	0.010940	NaN	0.000000	0.001576	0.001789	28.0776	0.071937	0.001843	39.0288	-19.0546	-162.873	0.021759	0.564973	-1.233840	-1.235109	0.010940	39.0288	-1.234050	-3.137150E+16	-3.487196E-19	NaN
594	1.000000	0.578258	7.37086e+06	-47389.1	1005.82	-29765.5	0.000000	0.000000	6.578967	0.090865	NaN	0.000000	0.001565	0.001802	28.0776	0.134854	0.002054	65.645	4.304415	-164.354	0.086570	0.576971	-1.221824	-1.223111	0.090865	65.645	-1.222862	-2.222361E+16	-4.088662E-18	NaN
594	1.000000	0.590288	7.37086e+06	-47389.1	1005.82	-29765.5	0.000000	0.000000	6.590993	0.007893	NaN	0.000000	0.001579	0.001766	28.0777	0.061778	0.002116	29.1944	80.0673	-165.264	0.040964	0.588921	-1.209794	-1.211162	0.007893	29.1944	-1.209997	-1.494867E+16	-5.279891E-19	NaN
594	1.000000	0.602270	7.37086e+06	-47389.1	1005.82	-29765.5	0.000000	0.000000	6.602976	0.011604	NaN	0.000000	0.001630	0.001771	28.078	0.038519	0.001922	20.0446	-51.9687	-167.062	-0.034412	0.601019	-1.197812	-1.199063	0.011604	20.0446	-1.198246	-1.040545E+16	-1.115146E-18	NaN
594	1.000000	0.614277	7.37086e+06	-47389.1	1005.82	-29765.5	0.000000	0.000000	6.614983	0.032091	NaN	0.000000	0.001631	0.001768	28.0776	0.009252	0.002067	4.476455	-152.104	-166.397	0.053486	0.612940	-1.185806	-1.187142	0.032091	4.476455	-1.191182	-8.368698E+15	-3.834610E-18	NaN
594	1.000000	0.626289	7.37086e+06	-47389.1	1005.82	-29765.5	0.000000	0.000000	6.626997	0.079589	NaN	0.000000	0.001598	0.001794	28.0776	0.066605	0.001857	35.8687	105.634	-164.692	0.030213	0.624941	-1.173793	-1.175141	0.079589	35.8687	-1.175458	-5.152449E+15	-1.544681E-17	NaN
594	1.000000	0.638290	7.37086e+06	-47389.1	1005.82	-29765.5	0.000000	0.000000	6.638995	0.000143	NaN	0.000000	0.001583	0.001759	28.0776	0.074565	0.001933	38.5673	-75.9683	-170.011	0.019501	0.636959	-1.161792	-1.163123	0.000143	38.5673	-1.161794	-3.380032E+15	-4.243098E-20	NaN
594	1.000000	0.650302	7.37086e+06	-47389.1	1005.82	-29765.5	0.000000	0.000000	6.651008	0.014829	NaN	0.000000	0.001591	0.001760	28.0776	0.051458	0.002000	25.727	175.625	-166.624	0.027047	0.648951	-1.149780	-1.151131	0.014829	25.727	-1.150213	-2.364117E+15	-6.272432E-18	NaN
594	1.000000	0.662285	7.37086e+06	-47389.1	1005.82	-29765.5	0.000000	0.000000	6.662992	0.047309	NaN	0.000000	0.001602	0.001757	28.0776	0.109728	0.002119	51.7811	-178.031	-166.21	0.038938	0.660997	-1.137797	-1.139085	0.047309	51.7811	-1.138483	-1.645851E+15	-2.874424E-17	NaN
594	1.000000	0.674318	7.37086e+06	-47389.1	1005.82	-29765.5	0.000000	0.000000	6.675022	-0.024002	NaN	0.000000	0.001603	0.001781	28.0776	0.065013	0.001952	33.3069	48.2655	-161.991	0.011545	0.672968	-1.125764	-1.127114	-0.024002	33.3069	-1.125224	-1.092835E+15	2.196323E-17	NaN
594	1.000000	0.686294	7.37086e+06	-47389.1	1005.82	-29765.5	0.000000	0.000000	6.686994	-0.134124	NaN	0.000000	0.001576	0.001775	28.078	0.068816	0.001952	35.2613	45.5472	-164.698	-0.111339	0.685017	-1.113788	-1.115065	-0.134124	35.2613	-1.110935	-7.028060E+14	1.908412E-16	NaN
594	1.000000	0.698329	7.37086e+06	-47389.1	1005.82	-29765.5	0.000000	0.000000	6.699034	0.003205	NaN	0.000000	0.001559	0.001765	28.0791	0.084677	0.001936	43.7447	95.7082	-166.933	-0.003789	0.697004	-1.101753	-1.103078	0.003205	43.7447	-1.101808	-5.300741E+14	-6.045795E-18	NaN
594	1.000000	0.710321	7.37086e+06	-47389.1	1005.82	-29765.5	0.000000	0.000000	6.711025	-0.023933	NaN	0.000000	0.001582	0.001752	28.0789	0.101524	0.002083	48.7292	158.236	-162.954	-0.021880	0.709010	-1.089761	-1.091072	-0.023933	48.7292	-1.089393	-3.611274E+14	6.627179E-17	NaN
594	1.000000	0.722342	7.37086e+06	-47389.1	1005.82	-29765.5	0.000000	0.000000	6.723047	-0.006180	NaN	0.000000	0.001556	0.001787	28.0792	0.152722	0.001982	77.0603	157.698	-162.168	0.033904	0.721007	-1.077740	-1.079076	-0.006180	77.0603	-1.077680	-2.513931E+14	2.458267E-17	NaN
594	1.000000	0.734324	7.37086e+06	-47389.1	1005.82	-29765.5	0.000000	0.000000	6.735024	-0.107459	NaN	0.000000	0.001570	0.001796	28.0788	0.070922	0.001973	35.9389	-74.6338	-163.894	-0.028231	0.733021	-1.065759	-1.067061	-0.107459	35.9389	-1.063516	-1.622069E+14	6.624803E-16	NaN
594	1.000000	0.746352	7.37086e+06	-47389.1	1005.82	-29765.5	0.000000	0.000000	6.747057	0.000672	NaN	0.000000	0.001568	0.001782	28.0791	0.047356	0.002032	23.3067	-179.424	-164.077	-0.048946	0.744966	-1.053730	-1.055117	0.000672	23.3067	-1.053752	-1.199077E+14	-5.608367E-18	NaN
594	1.000000	0.758354	7.37086e+06	-47389.1	1005.82	-29765.5	0.000000	0.000000	6.759059	-0.013612	NaN	0.000000	0.001565	0.001755	28.0791	0.060383	0.002077	29.0669	143.673	-163.226	-0.057039	0.757045	-1.041728	-1.043038	-0.013612	29.0669	-1.041377	-8.174810E+13	1.665173E-16	NaN
594	1.000000	0.770319	7.37086e+06	-47389.1	1005.82	-29765.5	0.000000	0.000000	6.771024	-0.008889	NaN	0.000000	0.001562	0.001729	28.0791	0.113102	0.002008	56.3269	-175.416	-165.495	-0.041254	0.769047	-1.029763	-1.031035	-0.008889	56.3269	-1.029645	-5.684647E+13	1.563599E-16	NaN
594	1.000000	0.782359	7.37086e+06	-47389.1	1005.82	-29765.5	0.000000	0.000000	6.783065	0.016846	NaN	0.000000	0.001558	0.001763	28.0791	0.102354	0.001907	53.6678	139.021	-164.39	-0.016063	0.781001	-1.017723	-1.019081	0.016846	53.6678	-1.017959	-3.958090E+13	-4.256052E-16	NaN
594	1.000000	0.794362	7.37086e+06	-47389.1	1005.82	-29765.5	0.000000	0.000000	6.795068	0.023170	NaN	0.000000	0.001601	0.001764	28.0792	0.031840	0.001984	16.0463	-99.8064	-165.323	-0.055007	0.793049	-1.005720	-1.007033	0.023170	16.0463	-1.006803	-2.801276E+13	-8.271194E-16	NaN
594	1.000000	0.806361	7.37086e+06	-47389.1	1005.82	-29765.5	0.000000	0.000000	6.807065	-0.027476	NaN	0.000000	0.001565	0.001746	28.0787	0.016235	0.001977	8.212814	133.137	-165.844	-0.090799	0.805064	-0.993721	-0.995018	-0.027476	8.212814	-0.991212	-1.727558E+13	1.590467E-15	NaN
594	1.000000	0.818356	7.37086e+06	-47389.1	1005.82	-29765.5	0.000000	0.000000	6.819062	0.029258	NaN	0.000000	0.001568	0.001733	28.08	0.049241	0.002080	23.6786	-175.312	-167.876	-0.043113	0.817041	-0.981727	-0.983041	0.029258	23.6786	-0.982653	-1.324816E+13	-2.208450E-15	NaN
594	1.000000	0.830361	7.37086e+06	-47389.1	1005.82	-29765.5	0.000000	0.000000	6.831068	0.049918	NaN	0.000000	0.001548	0.001791	28.0792	0.025494	0.001942	13.1293	21.067	-164.388	0.042943	0.829078	-0.969721	-0.971004	0.049918	13.1293	-0.972572	-9.690137E+12	-5.151471E-15	NaN
594	1.000000	0.842372	7.37086e+06	-47389.1	1005.82	-29765.5	0.000000	0.000000	6.843075	-0.056547	NaN	0.000000	0.001540	0.001752	28.0776	0.019585	0.001904	10.2885	32.4927	-164.415	-0.098704	0.841038	-0.957710	-0.959044	-0.056547	10.2885	-0.953588	-5.375382E+12	1.051965E-14	NaN
594	1.000000	0.854379	7.37086e+06	-47389.1	1005.82	-29765.5	0.000000	0.000000	6.855085	0.024862	NaN	0.000000	0.001509	0.001758	28.0778	0.158261	0.001951	81.1041	38.9198	-167.063	-0.021595	0.853077	-0.945704	-0.947005	0.024862	81.1041	-0.945934	-4.238192E+12	-5.866263E-15	NaN
594	1.000000	0.866352	7.37086e+06	-47389.1	1005.82	-29765.5	0.000000	0.000000	6.867057	-0.001787	NaN	0.000000	0.001527	0.001753	28.0777	0.091552	0.001877	48.7667	-93.0961	-164.775	-0.062262	0.865108	-0.933730	-0.934974	-0.001787	48.7667	-0.933703	-2.898457E+12	6.164988E-16	NaN
594	1.000000	0.878403	7.37086e+06	-47389.1	1005.82	-29765.5	0.000000	0.000000	6.879112	0.095731	NaN	0.000000	0.001534	0.001732	28.0776	0.112044	0.001882	59.5304	-93.3603	-164.302	0.032268	0.877077	-0.921679	-0.923006	0.095731	59.5304	-0.922885	-2.070874E+12	-4.622746E-14	NaN
594	1.000000	0.890392	7.37086e+06	-47389.1	1005.82	-29765.5	0.000000	0.000000	6.891098	0.031642	NaN	0.000000	0.001542	0.001771	28.078	0.050186	0.001999	25.108	75.3239	-167.195	-0.061007	0.889126	-0.909690	-0.910956	0.031642	25.108	-0.910635	-1.414955E+12	-2.236258E-14	NaN
594	1.000000	0.902386	7.37086e+06	-47389.1	1005.82	-29765.5	0.000000	0.000000	6.903092	0.021038	NaN	0.000000	0.001551	0.001747	28.0778	0.011997	0.001983	6.050081	131.063	-167.091	0.053012	0.901117	-0.897696	-0.898966	0.021038	6.050081	-0.900304	-1.026073E+12	-2.050370E-14	NaN
594	1.000000	0.914412	7.37086e+06	-47389.1	1005.82	-29765.5	0.000000	0.000000	6.915118	0.026062	NaN	0.000000	0.001579	0.001771	28.0778	0.043800	0.002048	21.3919	177.734	-164.971	-0.016156	0.913083	-0.885670	-0.886999	0.026062	21.3919	-0.886584	-6.694698E+11	-3.892886E-14	NaN
594	1.000000	0.926378	7.37086e+06	-47389.1	1005.82	-29765.5	0.000000	0.000000	6.927081	-0.029842	NaN	0.000000	0.001551	0.001747	28.0776	0.112354	0.001936	58.0324	-2.490462	-167.982	0.017517	0.925093	-0.873705	-0.874989	-0.029842	58.0324	-0.873319	-4.429376E+11	6.737217E-14	NaN
594	1.000000	0.938440	7.37086e+06	-47389.1	1005.82	-29765.5	0.000000	0.000000	6.939144	-0.029482	NaN	0.000000	0.001555	0.001788	28.0776	0.059669	0.002099	28.4249	115.679	-166.076	-0.025124	0.937096	-0.861642	-0.862986	-0.029482	28.4249	-0.860864	-3.004799E+11	9.811718E-14	NaN
594	1.000000	0.950428	7.37086e+06	-47389.1	1005.82	-29765.5	0.000000	0.000000	6.951134	0.014262	NaN	0.000000	0.001621	0.001784	28.0777	0.066058	0.001894	34.8823	142.142	-165.828	0.017183	0.949049	-0.849654	-0.851033	0.014262	34.8823	-0.849961	-2.138972E+11	-6.667723E-14	NaN
594	1.000000	0.962394	7.37086e+06	-47389.1	1005.82	-29765.5	0.000000	0.000000	6.963100	0.021135	NaN	0.000000	0.001621	0.001752	28.0778	0.093018	0.002075	44.836	69.9234	-167.506	-0.011389	0.961102	-0.837689	-0.838980	0.021135	44.836	-0.838042	-1.474911E+11	-1.432951E-13	NaN
594	1.000000	0.974408	7.37086e+06	-47389.1	1005.82	-29765.5	0.000000	0.000000	6.975115	0.047012	NaN	0.000000	0.001619	0.001784	28.0794	0.033459	0.002038	16.4177	44.8004	-164.223	-0.034786	0.973078	-0.825674	-0.827004	0.047012	16.4177	-0.827822	-1.072162E+11	-4.384801E-13	NaN
594	1.000000	0.986426	7.37086e+06	-47389.1	1005.82	-29765.5	0.000000	0.000000	6.987129	-0.053417	NaN	0.000000	0.001610	0.001783	28.079	0.121442	0.002111	57.5298	-46.1326	-167.484	0.030635	0.985199	-0.813656	-0.814883	-0.053417	57.5298	-0.812960	-6.741025E+10	7.924092E-13	NaN
594	1.000000	0.998430	7.37086e+06	-47389.1	1005.82	-29765.5	0.000000	0.000000	6.999139	0.085062	NaN	0.000000	0.001601	0.001792	28.0791	0.088320	0.001974	44.7507	177.672	-168.949	0.105485	0.997155	-0.801652	-0.802927	0.085062	44.7507	-0.803078	-4.950334E+10	-1.718312E-12	NaN
594	1.000000	1.010417	7.37086e+06	-47389.1	1005.82	-29765.5	0.000000	0.000000	7.011122	-0.005312	NaN	0.000000	0.001536	0.001776	28.0793	0.051420	0.001935	26.5683	127.089	-165.922	-0.051690	1.009137	-0.789665	-0.790945	-0.005312	26.5683	-0.789515	-3.239632E+10	1.639722E-13	NaN
594	1.000000	1.022428	7.37086e+06	-47389.1	1005.82	-29765.5	0.000000	0.000000	7.023131	-0.038233	NaN	0.000000	0.001515	0.001777	28.0789	0.038611	0.001998	19.324	128.66	-168.739	-0.020640	1.021165	-0.777655	-0.778917	-0.038233	19.324	-0.776171	-2.133978E+10	1.791615E-12	NaN
594	1.000000	1.034442	7.37086e+06	-47389.1	1005.82	-29765.5	0.000000	0.000000	7.035148	0.016543	NaN	0.000000	0.001530	0.001794	28.079	0.088446	0.001990	44.4464	10.2583	-164.238	-0.062416	1.033132	-0.765640	-0.766950	0.016543	44.4464	-0.765919	-1.548150E+10	-1.068595E-12	NaN
594	1.000000	1.046474	7.37086e+06	-47389.1	1005.82	-29765.5	0.000000	0.000000	7.047177	-0.039942	NaN	0.000000	0.001538	0.001776	28.0808	0.065217	0.001961	33.2517	140.217	-163.566	-0.076412	1.045185	-0.753609	-0.754897	-0.039942	33.2517	-0.752708	-1.023470E+10	3.902618E-12	NaN
594	1.000000	1.058447	7.37086e+06	-47389.1	1005.82	-29765.5	0.000000	0.000000	7.059153	0.010799	NaN	0.000000	0.001486	0.001780	28.0797	0.036869	0.002031	18.1523	141.22	-164.178	-0.009952	1.057132	-0.741635	-0.742950	0.010799	18.1523	-0.742081	-7.334969E+9	-1.472246E-12	NaN
594	1.000000	1.070430	7.37086e+06	-47389.1	1005.82	-29765.5	0.000000	0.000000	7.071134	-0.019790	NaN	0.000000	0.001551	0.001775	28.0791	0.064234	0.002039	31.507	-98.5677	-166.177	0.057352	1.069170	-0.729652	-0.730912	-0.019790	31.507	-0.729181	-4.893757E+9	4.044012E-12	NaN
594	1.000000	1.082459	7.37086e+06	-47389.1	1005.82	-29765.5	0.000000	0.000000	7.083163	-0.031083	NaN	0.000000	0.001620	0.001803	28.079	0.021156	0.002075	10.1943	-61.7184	-166.835	-0.011681	1.081130	-0.717623	-0.718952	-0.031083	10.1943	-0.715336	-3.168541E+9	9.809948E-12	NaN
594	1.000000	1.094469	7.37086e+06	-47389.1	1005.82	-29765.5	0.000000	0.000000	7.095173	-0.025217	NaN	0.000000	0.001590	0.001841	28.0789	0.048554	0.001985	24.4644	-171.866	-167.782	-0.028246	1.093127	-0.705613	-0.706956	-0.025217	24.4644	-0.704840	-2.278353E+9	1.106795E-11	NaN
594	1.000000	1.106491	7.37086e+06	-47389.1	1005.82	-29765.5	0.000000	0.000000	7.107193	-0.073185	NaN	0.000000	0.001607	0.001815	28.0782	0.065346	0.002036	32.0968	-172.067	-165.305	-0.060971	1.105204	-0.693592	-0.694878	-0.073185	32.0968	-0.691881	-1.515752E+9	4.828329E-11	NaN
594	1.000000	1.118494	7.37086e+06	-47389.1	1005.82	-29765.5	0.000000	0.000000	7.119202	0.073013	NaN	0.000000	0.001606	0.001820	28.078	0.090488	0.001982	45.646	-125.139	-167.4	0.095401	1.117227	-0.681588	-0.682855	0.073013	45.646	-0.682788	-1.138478E+9	-6.413204E-11	NaN
594	1.000000	1.130476	7.37086e+06	-47389.1	1005.82	-29765.5	0.000000	0.000000	7.131181	-0.003588	NaN	0.000000	0.001617	0.001818	28.0777	0.075562	0.001877	40.2595	-106.333	-165.957	0.041548	1.129124	-0.669606	-0.670958	-0.003588	40.2595	-0.669539	-7.500383E+8	4.783773E-12	NaN
594	1.000000	1.142493	7.37086e+06	-47389.1	1005.82	-29765.5	0.000000	0.000000	7.143202	0.097830	NaN	0.000000	0.001622	0.001793	28.0778	0.088250	0.001999	44.1421	28.0025	-171.546	0.083272	1.141151	-0.657589	-0.658931	0.097830	44.1421	-0.659252	-5.422726E+8	-1.804076E-10	NaN
594	1.000000	1.154509	7.37086e+06	-47389.1	1005.82	-29765.5	0.000000	0.000000	7.155214	-0.012480	NaN	0.000000	0.001570	0.001807	28.0777	0.055787	0.002005	27.8293	-36.4907	-163.446	-0.027758	1.153201	-0.645573	-0.646881	-0.012480	27.8293	-0.645236	-3.484336E+8	3.581802E-11	NaN
594	1.000000	1.166497	7.37086e+06	-47389.1	1005.82	-29765.5	0.000000	0.000000	7.167201	-0.024087	NaN	0.000000	0.001616	0.001800	28.0777	0.038571	0.002110	18.2808	-116.759	-167.29	-0.054986	1.165208	-0.633585	-0.634874	-0.024087	18.2808	-0.632597	-2.337122E+8	1.030637E-10	NaN
594	1.000000	1.178503	7.37086e+06	-47389.1	1005.82	-29765.5	0.000000	0.000000	7.179206	-0.041688	NaN	0.000000	0.001619	0.001823	28.0777	0.058598	0.002021	29.0013	-5.083858	-169.229	0.075853	1.177236	-0.621579	-0.622846	-0.041688	29.0013	-0.620501	-1.594124E+8	2.615125E-10	NaN
594	1.000000	1.190523	7.37086e+06	-47389.1	1005.82	-29765.5	0.000000	0.000000	7.191230	0.039710	NaN	0.000000	0.001658	0.001798	28.0778	0.074686	0.002008	37.1863	-57.2256	-169.035	0.029325	1.189184	-0.609559	-0.610898	0.039710	37.1863	-0.610360	-1.156283E+8	-3.434317E-10	NaN
594	1.000000	1.202502	7.37086e+06	-47389.1	1005.82	-29765.5	0.000000	0.000000	7.203206	-0.013065	NaN	0.000000	0.001643	0.001794	28.0783	0.022712	0.001862	12.1945	129.978	-164.27	-0.035579	1.201161	-0.597580	-0.598921	-0.013065	12.1945	-0.596777	-7.517269E+7	1.738013E-10	NaN
594	1.000000	1.214540	7.37086e+06	-47389.1	1005.82	-29765.5	0.000000	0.000000	7.215244	-0.031773	NaN	0.000000	0.001611	0.001817	28.0778	0.057477	0.001922	29.9113	170.434	-167.64	0.054737	1.213186	-0.585542	-0.586896	-0.031773	29.9113	-0.584746	-5.131036E+7	6.192226E-10	NaN
594	1.000000	1.226505	7.37086e+06	-47389.1	1005.82	-29765.5	0.000000	0.000000	7.227209	-0.014645	NaN	0.000000	0.001622	0.001808	28.0777	0.032245	0.001882	17.1328	-18.8472	-166.437	-0.008251	1.225252	-0.573577	-0.574830	-0.014645	17.1328	-0.572936	-3.525302E+7	4.154382E-10	NaN
594	1.000000	1.238515	7.37086e+06	-47389.1	1005.82	-29765.5	0.000000	0.000000	7.239220	-0.011840	NaN	0.000000	0.001593	0.001800	28.0777	0.062149	0.001848	33.635	-9.503466	-166.116	0.064835	1.237208	-0.561567	-0.562874	-0.011840	33.635	-0.561303	-2.434440E+7	4.863738E-10	NaN
594	1.000000	1.250504	7.37086e+06	-47389.1	1005.82	-29765.5	0.000000	0.000000	7.251207	-0.053395	NaN	0.000000	0.001571	0.001775	28.0789	0.049707	0.001902	26.136	174.128	-166.777	-0.042872	1.249230	-0.549578	-0.550852	-0.053395	26.136	-0.548046	-1.595474E+7	3.346655E-9	NaN
594	1.000000	1.262549	7.37086e+06	-47389.1	1005.82	-29765.5	0.000000	0.000000	7.263254	-0.005001	NaN	0.000000	0.001562	0.001772	28.0787	0.084474	0.002000	42.2356	119.981	-167.818	0.010552	1.261292	-0.537533	-0.538790	-0.005001	42.2356	-0.537444	-1.137391E+7	4.396940E-10	NaN
594	1.000000	1.274537	7.37086e+06	-47389.1	1005.82	-29765.5	0.000000	0.000000	7.275240	-0.029031	NaN	0.000000	0.001620	0.001791	28.0788	0.025710	0.001956	13.1422	85.9459	-170.937	-0.045448	1.273225	-0.525546	-0.526857	-0.029031	13.1422	-0.523889	-7.37338e+06	3.937316E-9	NaN
594	1.000000	1.286588	7.37086e+06	-47389.1	1005.82	-29765.5	0.000000	0.000000	7.287291	-0.043465	NaN	0.000000	0.001630	0.001802	28.079	0.045021	0.002002	22.489	-62.3808	-166.114	-0.024915	1.285261	-0.513494	-0.514821	-0.043465	22.489	-0.512045	-5.04533e+06	8.614910E-9	NaN
594	1.000000	1.298556	7.37086e+06	-47389.1	1005.82	-29765.5	0.000000	0.000000	7.299264	0.062279	NaN	0.000000	0.001617	0.001771	28.0792	0.036730	0.001884	19.4935	103.677	-169.572	0.074976	1.297236	-0.501526	-0.502846	0.062279	19.4935	-0.503922	-3.88791e+06	-1.601869E-8	NaN
594	1.000000	1.310571	7.37086e+06	-47389.1	1005.82	-29765.5	0.000000	0.000000	7.311275	-0.015590	NaN	0.000000	0.001603	0.001795	28.079	0.066715	0.002104	31.7108	119.475	-163.296	0.050325	1.309252	-0.489511	-0.490830	-0.015590	31.7108	-0.489143	-2.41775e+06	6.448285E-9	NaN
594	1.000000	1.322543	7.37086e+06	-47389.1	1005.82	-29765.5	0.000000	0.000000	7.323248	0.003518	NaN	0.000000	0.001578	0.001766	28.0792	0.040101	0.001910	20.9931	-85.19	-165.193	0.018784	1.321266	-0.477540	-0.478816	0.003518	20.9931	-0.477665	-1.67046e+06	-2.105842E-9	NaN
594	1.000000	1.334605	7.37086e+06	-47389.1	1005.82	-29765.5	0.000000	0.000000	7.335309	-0.030848	NaN	0.000000	0.001604	0.001755	28.0791	0.058787	0.001977	29.733	-36.2716	-164.656	-0.024286	1.333271	-0.465477	-0.466811	-0.030848	29.733	-0.464699	-1.09906e+06	2.806789E-8	NaN
594	1.000000	1.346548	7.37086e+06	-47389.1	1005.82	-29765.5	0.000000	0.000000	7.347251	-0.051256	NaN	0.000000	0.001587	0.001767	28.0789	0.097529	0.001997	48.8322	103.177	-167.635	-0.104540	1.345255	-0.453534	-0.454827	-0.051256	48.8322	-0.452746	-746463	6.866549E-8	NaN
594	1.000000	1.358600	7.37086e+06	-47389.1	1005.82	-29765.5	0.000000	0.000000	7.359304	-0.006350	NaN	0.000000	0.001565	0.001785	28.079	0.094639	0.002027	46.6938	5.974750	-166.411	0.065985	1.357260	-0.441482	-0.442823	-0.006350	46.6938	-0.441380	-516230	1.230021E-8	NaN
594	1.000000	1.370594	7.37086e+06	-47389.1	1005.82	-29765.5	0.000000	0.000000	7.371295	-0.092151	NaN	0.000000	0.001530	0.001787	28.0789	0.080046	0.001966	40.7221	-57.8003	-168.534	-0.112395	1.369338	-0.429488	-0.430744	-0.092151	40.7221	-0.427791	-331742	2.777782E-7	NaN
594	1.000000	1.382579	7.37086e+06	-47389.1	1005.82	-29765.5	0.000000	0.000000	7.383284	-0.015572	NaN	0.000000	0.001541	0.001800	28.0778	0.085450	0.002085	40.9829	170.699	-167.951	-0.016742	1.381287	-0.417503	-0.418795	-0.015572	40.9829	-0.417218	-234931	6.628501E-8	NaN
594	1.000000	1.394604	7.37086e+06	-47389.1	1005.82	-29765.5	0.000000	0.000000	7.395307	-0.046387	NaN	0.000000	0.001551	0.001778	28.078	0.058300	0.002208	26.4008	27.9321	-167.891	-0.028094	1.393305	-0.405478	-0.406777	-0.046387	26.4008	-0.404160	-153211	3.027675E-7	NaN
594	1.000000	1.406646	7.37086e+06	-47389.1	1005.82	-29765.5	0.000000	0.000000	7.407348	-0.077506	NaN	0.000000	0.001564	0.001755	28.078	0.132007	0.001988	66.3897	124.901	-165.351	-0.066131	1.405348	-0.393436	-0.394734	-0.077506	66.3897	-0.392561	-104660	7.405465E-7	NaN
594	1.000000	1.418609	7.37086e+06	-47389.1	1005.82	-29765.5	0.000000	0.000000	7.419313	-0.005372	NaN	0.000000	0.001541	0.001767	28.0777	0.047162	0.002035	23.1789	-63.976	-164.175	0.004137	1.417286	-0.381474	-0.382796	-0.005372	23.1789	-0.381300	-72200.1	7.440673E-8	NaN
594	1.000000	1.430634	7.37086e+06	-47389.1	1005.82	-29765.5	0.000000	0.000000	7.431341	0.037355	NaN	0.000000	0.001540	0.001789	28.0776	0.043839	0.001869	23.4606	-126.082	-168.902	-0.021144	1.429336	-0.369448	-0.370747	0.037355	23.4606	-0.370642	-50742.8	-7.361608E-7	NaN
594	1.000000	1.442603	7.37086e+06	-47389.1	1005.82	-29765.5	0.000000	0.000000	7.443306	-0.039151	NaN	0.000000	0.001516	0.001782	28.0778	0.068392	0.002045	33.4394	-52.7533	-166.506	-0.082965	1.441262	-0.357480	-0.358821	-0.039151	33.4394	-0.356601	-31818.8	1.230433E-6	NaN
594	1.000000	1.454624	7.37086e+06	-47389.1	1005.82	-29765.5	0.000000	0.000000	7.455326	-0.093517	NaN	0.000000	0.001535	0.001799	28.0782	0.041203	0.002007	20.5319	108.647	-164.191	-0.047420	1.453329	-0.345458	-0.346753	-0.093517	20.5319	-0.342042	-19557	4.781774E-6	NaN
594	1.000000	1.466615	7.37086e+06	-47389.1	1005.82	-29765.5	0.000000	0.000000	7.467319	-0.023451	NaN	0.000000	0.001541	0.001760	28.0778	0.028492	0.002061	13.8267	113.079	-168.45	0.034126	1.465341	-0.333467	-0.334741	-0.023451	13.8267	-0.332195	-14047	1.669501E-6	NaN
594	1.000000	1.478629	7.37086e+06	-47389.1	1005.82	-29765.5	0.000000	0.000000	7.479334	-0.003481	NaN	0.000000	0.001497	0.001777	28.0779	0.030551	0.002028	15.0656	-100.929	-164.07	0.008199	1.477329	-0.321453	-0.322753	-0.003481	15.0656	-0.321279	-9715.47	3.583213E-7	NaN
594	1.000000	1.490640	7.37086e+06	-47389.1	1005.82	-29765.5	0.000000	0.000000	7.491343	-0.051244	NaN	0.000000	0.001509	0.001766	28.0779	0.052711	0.001900	27.746	112.236	-167.762	-0.024610	1.489311	-0.309442	-0.310771	-0.051244	27.746	-0.308057	-6198.44	8.267171E-6	NaN
594	1.000000	1.502680	7.37086e+06	-47389.1	1005.82	-29765.5	0.000000	0.000000	7.503387	0.047217	NaN	0.000000	0.001526	0.001783	28.0778	0.054234	0.001861	29.1429	73.0036	-166.161	0.029550	1.501316	-0.297402	-0.298766	0.047217	29.1429	-0.298618	-4487.96	-1.052090E-5	NaN
594	1.000000	1.514661	7.37086e+06	-47389.1	1005.82	-29765.5	0.000000	0.000000	7.515367	0.019748	NaN	0.000000	0.001536	0.001778	28.0783	0.077754	0.002103	36.9742	-176.436	-169.162	-0.004336	1.513374	-0.285421	-0.286708	0.019748	36.9742	-0.285821	-2888.1	-6.837866E-6	NaN
594	1.000000	1.526648	7.37086e+06	-47389.1	1005.82	-29765.5	0.000000	0.000000	7.527353	-0.005773	NaN	0.000000	0.001552	0.001751	28.079	0.064269	0.001850	34.7454	121.32	-166.286	-0.014001	1.525334	-0.273434	-0.274748	-0.005773	34.7454	-0.273309	-1869.74	3.087389E-6	NaN
594	1.000000	1.538682	7.37086e+06	-47389.1	1005.82	-29765.5	0.000000	0.000000	7.539386	-0.024941	NaN	0.000000	0.001529	0.001786	28.079	0.061143	0.002068	29.5616	-130.404	-165.559	-0.098548	1.537399	-0.261400	-0.262683	-0.024941	29.5616	-0.260767	-1204.12	2.071274E-5	NaN
594	1.000000	1.550660	7.37086e+06	-47389.1	1005.82	-29765.5	0.000000	0.000000	7.551364	-0.021503	NaN	0.000000	0.001521	0.001772	28.0792	0.058412	0.002017	28.9653	98.2099	-168.841	0.041473	1.549402	-0.249422	-0.250681	-0.021503	28.9653	-0.248865	-789.602	2.723278E-5	NaN
594	1.000000	1.562695	7.37086e+06	-47389.1	1005.82	-29765.5	0.000000	0.000000	7.563396	-0.100519	NaN	0.000000	0.001543	0.001812	28.0789	0.037527	0.002033	18.4583	-139.505	-164.676	-0.056048	1.561372	-0.237387	-0.238710	-0.100519	18.4583	-0.233303	-451.407	0.000223	NaN
594	1.000000	1.574689	7.37086e+06	-47389.1	1005.82	-29765.5	0.000000	0.000000	7.575391	-0.074272	NaN	0.000000	0.001525	0.001737	28.0794	0.074041	0.001875	39.4891	-131.309	-166.815	-0.025380	1.573346	-0.225393	-0.226736	-0.074272	39.4891	-0.223982	-321.483	0.000231	NaN
594	1.000000	1.586667	7.37086e+06	-47389.1	1005.82	-29765.5	0.000000	0.000000	7.587371	-0.028633	NaN	0.000000	0.001534	0.001757	28.0791	0.071637	0.001986	36.0642	164.86	-164.248	-0.066573	1.585405	-0.213415	-0.214677	-0.028633	36.0642	-0.212820	-213.008	0.000134	NaN
594	1.000000	1.598692	7.37087e+06	-47389.1	1005.82	-29765.5	0.000000	0.000000	7.599397	0.005101	NaN	0.000000	0.001550	0.001757	28.079	0.068522	0.002024	33.8509	-13.8739	-166.529	-0.001394	1.597440	-0.201390	-0.202642	0.005101	33.8509	-0.201503	-139.435	-3.658304E-5	NaN
594	1.000000	1.610704	7.37087e+06	-47389.1	1005.82	-29765.5	0.000000	0.000000	7.611409	0.004057	NaN	0.000000	0.001526	0.001733	28.0792	0.058086	0.001931	30.0871	-70.7948	-166.487	0.001163	1.609412	-0.189378	-0.190670	0.004057	30.0871	-0.189479	-88.1711	-4.601474E-5	NaN
594	1.000000	1.622701	7.37087e+06	-47389.1	1005.82	-29765.5	0.000000	0.000000	7.623407	0.017838	NaN	0.000000	0.001606	0.001718	28.0801	0.099321	0.002049	48.4643	-162.034	-164.3	-0.019660	1.621391	-0.177381	-0.178691	0.017838	48.4643	-0.177657	-55.657	-0.000320	NaN
594	1.000000	1.634743	7.37087e+06	-47389.1	1005.82	-29765.5	0.000000	0.000000	7.635449	0.026114	NaN	0.000000	0.001601	0.001761	28.0791	0.029194	0.001958	14.9088	92.9942	-167.184	0.021082	1.633406	-0.165339	-0.166676	0.026114	14.9088	-0.166653	-35.9152	-0.000727	NaN
594	1.000000	1.646707	7.37087e+06	-47389.1	1005.82	-29765.5	0.000000	0.000000	7.647414	0.047871	NaN	0.000000	0.001602	0.001779	28.0792	0.124277	0.002175	57.1459	162.859	-165.619	0.025588	1.645417	-0.153375	-0.154665	0.047871	57.1459	-0.154003	-21.4102	-0.002236	NaN
594	1.000000	1.658716	7.37087e+06	-47389.1	1005.82	-29765.5	0.000000	0.000000	7.659420	-0.039833	NaN	0.000000	0.001582	0.001757	28.0779	0.115682	0.001934	59.8169	-29.6153	-166.154	-0.080370	1.657430	-0.141366	-0.142652	-0.039833	59.8169	-0.140866	-12.2806	0.003244	NaN
594	1.000000	1.670779	7.37087e+06	-47389.1	1005.82	-29765.5	0.000000	0.000000	7.671487	0.059871	NaN	0.000000	0.001627	0.001761	28.0779	0.031215	0.002077	15.0307	-51.406	-168.581	0.032720	1.669392	-0.129303	-0.130690	0.059871	15.0307	-0.132290	-8.439538	-0.007094	NaN
594	1.000000	1.682744	7.37087e+06	-47389.1	1005.82	-29765.5	0.000000	0.000000	7.683448	-0.012564	NaN	0.000000	0.001605	0.001723	28.0781	0.042911	0.002074	20.6926	-162.649	-166.675	0.055143	1.681437	-0.117339	-0.118645	-0.012564	20.6926	-0.116883	-4.176073	0.003009	NaN
594	1.000000	1.694759	7.37087e+06	-47389.1	1005.82	-29765.5	0.000000	0.000000	7.695466	0.057676	NaN	0.000000	0.001627	0.001730	28.0777	0.049455	0.001943	25.4517	19.59	-167.965	0.101011	1.693450	-0.105324	-0.106632	0.057676	25.4517	-0.107023	-2.598124	-0.022199	NaN
594	1.000000	1.706747	7.37087e+06	-47389.1	1005.82	-29765.5	0.000000	0.000000	7.707451	-0.018358	NaN	0.000000	0.001606	0.001749	28.078	0.083076	0.001924	43.1891	107.485	-169.728	0.034253	1.705412	-0.093335	-0.094671	-0.018358	43.1891	-0.093016	-1.270457	0.014450	NaN
594	1.000000	1.718738	7.37087e+06	-47389.1	1005.82	-29765.5	0.000000	0.000000	7.719445	0.061464	NaN	0.000000	0.001618	0.001731	28.0777	0.029227	0.001980	14.7629	-28.58	-169.592	0.028942	1.717420	-0.081344	-0.082662	0.061464	14.7629	-0.084467	-0.797542	-0.077067	NaN
594	1.000000	1.730752	7.37087e+06	-47389.1	1005.82	-29765.5	0.000000	0.000000	7.731456	-0.006676	NaN	0.000000	0.001621	0.001765	28.0776	0.095371	0.001978	48.2078	-147.306	-165.691	0.022891	1.729432	-0.069331	-0.070650	-0.006676	48.2078	-0.069227	-0.325177	0.020529	NaN
594	1.000000	1.742752	7.37087e+06	-47389.1	1005.82	-29765.5	0.000000	0.000000	7.743457	0.015314	NaN	0.000000	0.001608	0.001775	28.0778	0.104780	0.002088	50.1756	43.7452	-166.329	-0.038104	1.741470	-0.057330	-0.058612	0.015314	50.1756	-0.057559	-0.153087	-0.100033	NaN
594	1.000000	1.754777	7.37087e+06	-47389.1	1005.82	-29765.5	0.000000	0.000000	7.755480	-0.035316	NaN	0.000000	0.001616	0.001758	28.0777	0.018475	0.001834	10.0757	137.663	-165.201	-0.034007	1.753406	-0.045306	-0.046676	-0.035316	10.0757	-0.042677	-0.054569	0.647189	NaN
594	1.000000	1.766794	7.37087e+06	-47389.1	1005.82	-29765.5	0.000000	0.000000	7.767498	-0.017858	NaN	0.000000	0.001572	0.001809	28.0781	0.057261	0.002096	27.313	53.5228	-168.811	-0.000425	1.765465	-0.033288	-0.034617	-0.017858	27.313	-0.032798	-0.027625	0.646427	NaN
594	1.000000	1.778777	7.37087e+06	-47389.1	1005.82	-29765.5	0.000000	0.000000	7.779478	-0.098365	NaN	0.000000	0.001550	0.001783	28.0782	0.091215	0.002072	44.015	176.565	-165.834	-0.112023	1.777556	-0.021305	-0.022526	-0.098365	44.015	-0.019629	-0.012291	8.003154	NaN
594	1.000000	1.790782	7.37087e+06	-47389.1	1005.82	-29765.5	0.000000	0.000000	7.791488	0.023068	NaN	0.000000	0.001579	0.001770	28.0789	0.101656	0.001925	52.8088	-38.4282	-169.928	-0.031861	1.789540	-0.009300	-0.010542	0.023068	52.8088	-0.009628	-0.006174	-3.736212	NaN
594	1.000000	1.802777	7.37087e+06	-47389.1	1005.82	-29765.5	0.000000	0.000000	7.803682	4.856498	NaN	0.000000	0.001552	0.001768	28.0791	5.392749	0.001817	2967.93	10.918	-171.193	3.409356	1.801435	0.002695	0.001353	4.856498	2967.93	0.001468	0.001129	4301.8	80703.2
594	2.000000	1.808423	7.37087e+06	-47389.1	1005.82	-29765.5	0.000000	0.000000	7.809571	10.7716	NaN	0.000000	0.001556	0.001750	28.0789	11.0777	0.001730	6404.35	5.045902	-171.759	11.1657	1.808097	0.008341	0.008015	10.7716	6404.35	0.007080	0.006113	1762.13	74839.1
594	2.000000	1.811352	7.37087e+06	-47389.1	1005.82	-29765.5	0.000000	0.000000	7.812698	15.5954	NaN	0.000000	0.001568	0.001786	28.0792	13.836	0.001814	7627.03	8.003869	-176.299	15.478	1.811039	0.011270	0.010956	15.5954	7627.03	0.009736	0.008890	1754.31	73906.6
594	2.000000	1.814333	7.37087e+06	-47389.1	1005.82	-29765.5	0.000000	0.000000	7.815886	20.6418	NaN	0.000000	0.001584	0.001780	28.079	16.4722	0.001785	9229.29	7.749730	-177.505	20.3597	1.814043	0.014251	0.013961	20.6418	9229.29	0.012573	0.012184	1694.18	76391.8
594	2.000000	1.817272	7.37087e+06	-47389.1	1005.82	-29765.5	0.000000	0.000000	7.819118	27.7552	NaN	0.000000	0.001526	0.001760	28.079	19.2331	0.001739	11060.5	5.877817	-177.928	26.4754	1.817009	0.017190	0.016927	27.7552	11060.5	0.015308	0.015698	1768.04	80653.2
594	2.000000	1.820311	7.37087e+06	-47389.1	1005.82	-29765.5	0.000000	0.000000	7.822367	32.8716	NaN	0.000000	0.001527	0.001745	28.0802	22.3841	0.001729	12946.9	4.645738	-177.889	32.8262	1.819914	0.020229	0.019832	32.8716	12946.9	0.018324	0.019977	1645.44	83689.4
594	2.000000	1.823285	7.37087e+06	-47389.1	1005.82	-29765.5	0.000000	0.000000	7.825651	40.403	NaN	0.000000	0.001533	0.001738	28.0789	25.7017	0.001784	14408.1	6.845674	177.861	39.9133	1.822969	0.023203	0.022886	40.403	14408.1	0.021100	0.024300	1662.68	84445.6
594	2.000000	1.826281	7.37087e+06	-47389.1	1005.82	-29765.5	0.000000	0.000000	7.829079	50.9186	NaN	0.000000	0.001547	0.001725	28.0791	28.0534	0.001730	16219	5.739964	179.047	51.4889	1.825951	0.026198	0.025869	50.9186	16219	0.023844	0.028946	1759.09	87097.1
594	2.000000	1.829278	7.37087e+06	-47389.1	1005.82	-29765.5	0.000000	0.000000	7.832428	59.4887	NaN	0.000000	0.001552	0.001716	28.0789	31.1959	0.001890	16509.8	6.803512	178.042	59.0255	1.828912	0.029195	0.028830	59.4887	16509.8	0.026493	0.033788	1760.66	82060.5
594	2.000000	1.832256	7.37087e+06	-47389.1	1005.82	-29765.5	0.000000	0.000000	7.835809	69.2662	NaN	0.000000	0.001527	0.001736	28.0788	33.2558	0.001782	18663.8	6.348826	176.97	68.2403	1.831980	0.032174	0.031898	69.2662	18663.8	0.029391	0.039491	1753.99	85807.8
594	2.000000	1.835258	7.37087e+06	-47389.1	1005.82	-29765.5	0.000000	0.000000	7.839234	79.5506	NaN	0.000000	0.001542	0.001746	28.08	36.6952	0.001719	21346.6	4.549080	176.979	79.553	1.834959	0.035176	0.034877	79.5506	21346.6	0.032381	0.045824	1736.01	91108.2
594	2.000000	1.838280	7.37087e+06	-47389.1	1005.82	-29765.5	0.000000	0.000000	7.842624	88.5011	NaN	0.000000	0.001564	0.001726	28.0777	40.3983	0.001932	20906.6	7.285005	174.967	88.7502	1.837948	0.038198	0.037865	88.5011	20906.6	0.035023	0.051800	1708.51	83925
594	2.000000	1.841250	7.37087e+06	-47389.1	1005.82	-29765.5	0.000000	0.000000	7.846166	102.427	NaN	0.000000	0.001545	0.001759	28.0781	42.7054	0.001860	22955.2	7.125792	175.062	101.007	1.840933	0.041168	0.040851	102.427	22955.2	0.037821	0.058519	1750.31	86697.4
594	2.000000	1.844236	7.37087e+06	-47389.1	1005.82	-29765.5	0.000000	0.000000	7.849704	115.844	NaN	0.000000	0.001559	0.001775	28.078	44.3236	0.001826	24277.2	1.662118	179.405	114.105	1.843865	0.044154	0.043783	115.844	24277.2	0.040575	0.065523	1767.97	86650.9
594	2.000000	1.847243	7.37087e+06	-47389.1	1005.82	-29765.5	0.000000	0.000000	7.853259	129.19	NaN	0.000000	0.001514	0.001752	28.0779	46.6287	0.001742	26766.7	1.797584	178.54	128.111	1.846847	0.047161	0.046765	129.19	26766.7	0.043541	0.073500	1757.69	90203.9
594	2.000000	1.850201	7.37087e+06	-47389.1	1005.82	-29765.5	0.000000	0.000000	7.856607	138.67	NaN	0.000000	0.001529	0.001705	28.0778	49.2437	0.001839	26782.2	5.268932	174.843	136.701	1.849990	0.050119	0.049908	138.67	26782.2	0.046236	0.081134	1709.14	85904.8
594	2.000000	1.853186	7.37087e+06	-47389.1	1005.82	-29765.5	0.000000	0.000000	7.860290	155.651	NaN	0.000000	0.001487	0.001743	28.0776	51.5497	0.001851	27856.4	7.401020	173.067	153.358	1.852859	0.053104	0.052777	155.651	27856.4	0.048913	0.089084	1747.25	85270.7
594	2.000000	1.856212	7.37087e+06	-47389.1	1005.82	-29765.5	0.000000	0.000000	7.863994	172.137	NaN	0.000000	0.001547	0.001710	28.0781	54.3554	0.001847	29427	5.291661	174.581	171.04	1.855827	0.056130	0.055744	172.137	29427	0.051743	0.097877	1758.71	85936.8
594	2.000000	1.859201	7.37087e+06	-47389.1	1005.82	-29765.5	0.000000	0.000000	7.867693	189.393	NaN	0.000000	0.001499	0.001720	28.0776	57.188	0.001839	31097.9	5.064016	174.346	187.408	1.858818	0.059119	0.058736	189.393	31097.9	0.054552	0.106999	1770.04	86858.7
594	2.000000	1.862162	7.37087e+06	-47389.1	1005.82	-29765.5	0.000000	0.000000	7.871141	201.231	NaN	0.000000	0.001527	0.001736	28.0777	59.6573	0.001911	31220.1	2.386878	176.633	198.564	1.861989	0.062080	0.061907	201.231	31220.1	0.057246	0.116119	1732.97	83705.9
594	2.000000	1.865216	7.37087e+06	-47389.1	1005.82	-29765.5	0.000000	0.000000	7.874934	219.227	NaN	0.000000	0.001583	0.001726	28.0779	61.9495	0.001839	33683.5	2.581650	175.708	217.009	1.864915	0.065133	0.064833	219.227	33683.5	0.060252	0.126714	1730.09	86452.6
594	2.000000	1.868234	7.37087e+06	-47389.1	1005.82	-29765.5	0.000000	0.000000	7.878470	231.831	NaN	0.000000	0.001591	0.001727	28.0778	65.1183	0.001842	35347.4	4.392091	173.986	232.914	1.867907	0.068152	0.067825	231.831	35347.4	0.063233	0.137657	1684.12	87042.8
594	2.000000	1.871288	7.37087e+06	-47389.1	1005.82	-29765.5	0.000000	0.000000	7.882286	250.348	NaN	0.000000	0.001568	0.001741	28.0795	67.7518	0.001890	35849.8	5.031289	173.482	252.628	1.870845	0.071206	0.070762	250.348	35849.8	0.065969	0.148077	1690.66	85116.9
594	2.000000	1.874224	7.37087e+06	-47389.1	1005.82	-29765.5	0.000000	0.000000	7.885862	265.933	NaN	0.000000	0.001625	0.001780	28.0789	69.4171	0.001814	38277.7	2.361508	174.76	266.013	1.874009	0.074142	0.073927	265.933	38277.7	0.068931	0.159767	1664.5	87493.3
594	2.000000	1.877162	7.37087e+06	-47389.1	1005.82	-29765.5	0.000000	0.000000	7.889469	282.199	NaN	0.000000	0.001641	0.001726	28.0788	71.9181	0.001889	38078.1	1.692839	175.61	279.611	1.876981	0.077080	0.076899	282.199	38078.1	0.071521	0.170331	1656.76	84294.9
594	2.000000	1.880146	7.37087e+06	-47389.1	1005.82	-29765.5	0.000000	0.000000	7.893474	307.035	NaN	0.000000	0.001617	0.001754	28.0793	73.8558	0.001816	40674.9	4.773455	172.368	306.561	1.879854	0.080064	0.079772	307.035	40674.9	0.074403	0.182458	1682.77	86999.8
594	2.000000	1.883151	7.37087e+06	-47389.1	1005.82	-29765.5	0.000000	0.000000	7.897244	325.631	NaN	0.000000	0.001616	0.001708	28.079	75.9929	0.001788	42502.5	2.171439	174.536	323.357	1.882936	0.083069	0.082854	325.631	42502.5	0.077323	0.195145	1668.66	87904
594	2.000000	1.886190	7.37087e+06	-47389.1	1005.82	-29765.5	0.000000	0.000000	7.901255	349.285	NaN	0.000000	0.001635	0.001777	28.0792	79.0008	0.001750	45151.1	3.871945	172.141	347.143	1.885904	0.086108	0.085822	349.285	45151.1	0.080306	0.208518	1675.08	90337.9
594	2.000000	1.889176	7.37087e+06	-47389.1	1005.82	-29765.5	0.000000	0.000000	7.904841	363.866	NaN	0.000000	0.001553	0.001747	28.079	82.7298	0.001812	45662.7	5.722163	170.14	364.193	1.888895	0.089094	0.088813	363.866	45662.7	0.083118	0.221505	1642.7	88642.8
594	2.000000	1.892116	7.37087e+06	-47389.1	1005.82	-29765.5	0.000000	0.000000	7.908707	386.388	NaN	0.000000	0.001572	0.001740	28.0793	84.3085	0.001836	45925	1.960121	174.366	381.812	1.891867	0.092034	0.091785	386.388	45925	0.085724	0.233868	1652.16	86763.5
594	2.000000	1.895180	7.37087e+06	-47389.1	1005.82	-29765.5	0.000000	0.000000	7.912850	412.651	NaN	0.000000	0.001604	0.001757	28.0795	88.0762	0.001860	47344.3	6.340634	170.025	409.718	1.894825	0.095098	0.094743	412.651	47344.3	0.088561	0.247680	1666.06	86915.1
594	2.000000	1.898150	7.37087e+06	-47389.1	1005.82	-29765.5	0.000000	0.000000	7.916496	429.081	NaN	0.000000	0.001625	0.001755	28.0791	90.3953	0.001886	47925.3	4.811112	171.032	427.875	1.897877	0.098068	0.097795	429.081	47925.3	0.091353	0.261639	1639.97	85602.5
594	2.000000	1.901169	7.37087e+06	-47389.1	1005.83	-29765.5	0.000000	0.000000	7.920417	451.016	NaN	0.000000	0.001658	0.001782	28.0792	91.3588	0.001715	53282.9	2.509126	172.56	448.622	1.900975	0.101087	0.100893	451.016	53282.9	0.094739	0.279040	1616.31	92156.8
594	2.000000	1.904201	7.37087e+06	-47389.1	1005.82	-29765.5	0.000000	0.000000	7.924430	474.908	NaN	0.000000	0.001649	0.001768	28.078	93.8698	0.001859	50501.4	3.513678	172.333	473.794	1.903857	0.104119	0.103775	474.908	50501.4	0.097066	0.291303	1630.29	85487.7
594	2.000000	1.904699	7.37087e+06	-47389.1	1005.82	-29765.5	0.000000	0.000000	7.924955	475.532	NaN	0.000000	0.001670	0.001774	28.078	96.0708	0.001853	51835.1	5.813742	-10.4443	474.301	1.904412	0.104617	0.104330	475.532	51835.1	0.097737	0.294885	1612.6	87210.8