File: remote_trans/data/nanoindenter/0828-1/data/Data_2025-08-06,11h17m57s/2025-07-22_16-23-58_1_158.txt
2025-07-22, 16:23:58, 1
Index	Phase	Displacement	Time	Pos X	Pos Y	Pos Z	Rot A	Rot B	Piezo Z	Force A	Force B	Gripper	Voltage A	Voltage B	Temperature	Amplitude force	Amplitude pos	Stiffness	Phase shift	Phase excitation	Force A raw	Displacement raw	HMax	HMax raw	Real Force	Real Stiffness	Contact Depth	Area	Hardness	Reduced Mod.
[#]	[#]	[um]	[s]	[um]	[um]	[um]	[m°]	[m°]	[um]	[uN]	[uN]	[V]	[V]	[V]	[°C]	[uN]	[um]	[N/m]	[°]	[°]	[uN]	[um]	[um]	[um]	[uN]	[N/m]	[um]	[um^2]	[MPa]	[MPa]
158	1.000000	0.002687	7.36659e+06	-46539.1	955.818	-29769.3	0.000000	0.000000	6.002820	-0.076607	NaN	0.000000	0.001674	0.001713	28.0889	0.070325	0.000956	73.5711	131.049	-162.671	-0.049679	0.001414	-1.053634	-1.054907	-0.076607	73.5711	-1.052853	-1.166193E+14	6.568983E-16	NaN
158	1.000000	0.010633	7.36659e+06	-46539.1	955.82	-29769.3	0.000000	0.000000	6.010770	-0.002523	NaN	0.000000	0.001614	0.001720	28.0889	0.051243	0.000938	54.614	36.9862	-170.466	0.018562	0.009326	-1.045688	-1.046995	-0.002523	54.614	-1.045654	-9.332212E+13	2.704015E-17	NaN
158	1.000000	0.018660	7.36659e+06	-46539.1	955.818	-29769.3	0.000000	0.000000	6.018795	-0.037155	NaN	0.000000	0.001645	0.001730	28.0888	0.045270	0.001754	25.8028	38.4897	-165.232	-0.094262	0.017322	-1.037662	-1.039000	-0.037155	25.8028	-1.036582	-7.046938E+13	5.272500E-16	NaN
158	1.000000	0.026659	7.36659e+06	-46539.1	955.818	-29769.3	0.000000	0.000000	6.026793	-0.054540	NaN	0.000000	0.001623	0.001728	28.0885	0.089057	0.001801	49.4371	141.785	-163.75	-0.040399	0.025313	-1.029663	-1.031009	-0.054540	49.4371	-1.028836	-5.543937E+13	9.837845E-16	NaN
158	1.000000	0.034618	7.36659e+06	-46539.1	955.819	-29769.3	0.000000	0.000000	6.034756	0.034747	NaN	0.000000	0.001645	0.001759	28.0889	0.115314	0.001865	61.8174	-122.922	-165.718	-0.088336	0.033314	-1.021704	-1.023008	0.034747	61.8174	-1.022125	-4.503449E+13	-7.715720E-16	NaN
158	1.000000	0.042633	7.36659e+06	-46539.1	955.819	-29769.3	0.000000	0.000000	6.042767	-0.050108	NaN	0.000000	0.001612	0.001717	28.0894	0.042343	0.001918	22.0717	25.5566	-160.649	0.085591	0.041297	-1.013689	-1.015025	-0.050108	22.0717	-1.011986	-3.289371E+13	1.523339E-15	NaN
158	1.000000	0.050610	7.36659e+06	-46539.1	955.819	-29769.3	0.000000	0.000000	6.050745	-0.034523	NaN	0.000000	0.001626	0.001748	28.0898	0.061257	0.001920	31.9078	-94.3825	-162.311	0.057768	0.049282	-1.005712	-1.007039	-0.034523	31.9078	-1.004900	-2.640810E+13	1.307303E-15	NaN
158	1.000000	0.058626	7.36659e+06	-46539.1	955.819	-29769.3	0.000000	0.000000	6.058761	-0.021331	NaN	0.000000	0.001593	0.001727	28.0905	0.019956	0.002032	9.820662	-100.069	-160.989	-0.043542	0.057266	-0.997696	-0.999056	-0.021331	9.820662	-0.996067	-2.008234E+13	1.062158E-15	NaN
158	1.000000	0.066632	7.36659e+06	-46539.1	955.818	-29769.3	0.000000	0.000000	6.066770	0.030549	NaN	0.000000	0.001649	0.001756	28.0892	0.072551	0.002048	35.4287	75.6063	-164.814	0.089213	0.065300	-0.989690	-0.991022	0.030549	35.4287	-0.990336	-1.681284E+13	-1.816977E-15	NaN
158	1.000000	0.074632	7.36659e+06	-46539.1	955.819	-29769.3	0.000000	0.000000	6.074766	-0.043653	NaN	0.000000	0.001634	0.001749	28.0887	0.069285	0.002017	34.3447	-41.1882	-166.982	0.008935	0.073372	-0.981690	-0.982950	-0.043653	34.3447	-0.980737	-1.248349E+13	3.496895E-15	NaN
158	1.000000	0.082596	7.36659e+06	-46539.1	955.819	-29769.3	0.000000	0.000000	6.082731	-0.018142	NaN	0.000000	0.001632	0.001790	28.0895	0.043251	0.002105	20.5449	-78.4931	-160.786	0.031762	0.081284	-0.973726	-0.975037	-0.018142	20.5449	-0.973064	-9.839067E+12	1.843914E-15	NaN
158	1.000000	0.090643	7.36659e+06	-46539.1	955.819	-29769.3	0.000000	0.000000	6.090781	0.044745	NaN	0.000000	0.001653	0.001782	28.0888	0.055856	0.001903	29.3438	122.064	-164.989	-0.037185	0.089325	-0.965679	-0.966997	0.044745	29.3438	-0.966822	-8.106497E+12	-5.519688E-15	NaN
158	1.000000	0.098630	7.36659e+06	-46539.1	955.819	-29769.3	0.000000	0.000000	6.098764	-0.066157	NaN	0.000000	0.001617	0.001741	28.0884	0.040859	0.001933	21.1363	68.7669	-163.813	-0.107327	0.097307	-0.957692	-0.959015	-0.066157	21.1363	-0.955344	-5.676690E+12	1.165419E-14	NaN
158	1.000000	0.106623	7.36659e+06	-46539.1	955.818	-29769.3	0.000000	0.000000	6.106759	-0.018178	NaN	0.000000	0.001654	0.001747	28.089	0.078741	0.001928	40.8472	-134.093	-165.719	0.029821	0.105310	-0.949698	-0.951012	-0.018178	40.8472	-0.949365	-4.714757E+12	3.855567E-15	NaN
158	1.000000	0.114637	7.36659e+06	-46539.1	955.819	-29769.3	0.000000	0.000000	6.114774	0.018646	NaN	0.000000	0.001651	0.001745	28.09	0.117333	0.002099	55.8947	-100.006	-164.752	0.052779	0.113310	-0.941685	-0.943012	0.018646	55.8947	-0.941935	-3.743241E+12	-4.981303E-15	NaN
158	1.000000	0.122677	7.36659e+06	-46539.1	955.819	-29769.3	0.000000	0.000000	6.122812	-0.010209	NaN	0.000000	0.001649	0.001737	28.0903	0.076716	0.002054	37.3407	93.8862	-164.193	0.022780	0.121321	-0.933645	-0.935001	-0.010209	37.3407	-0.933440	-2.874903E+12	3.551157E-15	NaN
158	1.000000	0.130665	7.36659e+06	-46539.1	955.819	-29769.3	0.000000	0.000000	6.130801	-0.016080	NaN	0.000000	0.001618	0.001736	28.0911	0.067743	0.002023	33.478	-140.434	-163.768	-0.033779	0.129395	-0.925656	-0.926927	-0.016080	33.478	-0.925296	-2.232067E+12	7.203889E-15	NaN
158	1.000000	0.138654	7.36659e+06	-46539.1	955.819	-29769.3	0.000000	0.000000	6.138792	0.044522	NaN	0.000000	0.001660	0.001794	28.0913	0.033915	0.001999	16.969	-140.913	-163.091	0.047707	0.137326	-0.917668	-0.918996	0.044522	16.969	-0.919636	-1.871929E+12	-2.378378E-14	NaN
158	1.000000	0.146664	7.36659e+06	-46539.1	955.819	-29769.3	0.000000	0.000000	6.146798	-0.042207	NaN	0.000000	0.001634	0.001747	28.0907	0.126334	0.001978	63.8813	-148.423	-165.673	-0.047739	0.145345	-0.909658	-0.910976	-0.042207	63.8813	-0.909163	-1.351608E+12	3.122760E-14	NaN
158	1.000000	0.154670	7.36659e+06	-46539.1	955.819	-29769.3	0.000000	0.000000	6.154805	-0.031095	NaN	0.000000	0.001609	0.001756	28.0904	0.049693	0.002056	24.1743	118.648	-162.092	-0.018631	0.153316	-0.901651	-0.903006	-0.031095	24.1743	-0.900687	-1.038350E+12	2.994680E-14	NaN
158	1.000000	0.162638	7.36659e+06	-46539.1	955.819	-29769.3	0.000000	0.000000	6.162776	0.042286	NaN	0.000000	0.001615	0.001736	28.0902	0.041429	0.001949	21.2569	-137.945	-165.274	-0.000945	0.161370	-0.893684	-0.894951	0.042286	21.2569	-0.895176	-8.747356E+11	-4.834203E-14	NaN
158	1.000000	0.170651	7.36659e+06	-46539.1	955.819	-29769.3	0.000000	0.000000	6.170789	0.041365	NaN	0.000000	0.001606	0.001756	28.0912	0.095710	0.002008	47.6574	139.34	-166.505	0.099432	0.169351	-0.885671	-0.886970	0.041365	47.6574	-0.886322	-6.640348E+11	-6.229392E-14	NaN
158	1.000000	0.178672	7.36659e+06	-46539.1	955.82	-29769.3	0.000000	0.000000	6.178808	-0.008277	NaN	0.000000	0.001601	0.001721	28.0888	0.092997	0.001821	51.0651	-179.742	-163.324	0.095090	0.177364	-0.877650	-0.878958	-0.008277	51.0651	-0.877529	-5.049909E+11	1.639063E-14	NaN
158	1.000000	0.186702	7.36659e+06	-46539.1	955.819	-29769.3	0.000000	0.000000	6.186837	-0.023824	NaN	0.000000	0.001605	0.001736	28.0901	0.045182	0.002083	21.6935	37.5474	-164.16	0.037786	0.185378	-0.869620	-0.870944	-0.023824	21.6935	-0.868796	-3.847282E+11	6.192356E-14	NaN
158	1.000000	0.194698	7.36659e+06	-46539.1	955.82	-29769.3	0.000000	0.000000	6.194835	-0.001478	NaN	0.000000	0.001616	0.001751	28.0909	0.089414	0.002079	43.017	169.128	-163.252	-0.067992	0.193421	-0.861623	-0.862900	-0.001478	43.017	-0.861598	-3.074280E+11	4.807216E-15	NaN
158	1.000000	0.202653	7.36659e+06	-46539.1	955.819	-29769.3	0.000000	0.000000	6.202791	0.039348	NaN	0.000000	0.001634	0.001766	28.0917	0.136954	0.002017	67.8889	-101.733	-161.726	-0.006750	0.201360	-0.853669	-0.854961	0.039348	67.8889	-0.854104	-2.433889E+11	-1.616667E-13	NaN
158	1.000000	0.210686	7.36659e+06	-46539.1	955.818	-29769.3	0.000000	0.000000	6.210821	-0.042672	NaN	0.000000	0.001611	0.001670	28.0906	0.068767	0.001893	36.3205	100.666	-162.234	-0.043015	0.209377	-0.845635	-0.846945	-0.042672	36.3205	-0.844754	-1.818417E+11	2.346652E-13	NaN
158	1.000000	0.218669	7.36659e+06	-46539.1	955.818	-29769.3	0.000000	0.000000	6.218806	0.028061	NaN	0.000000	0.001626	0.001674	28.0924	0.090403	0.001990	45.4332	-146.552	-165.699	0.020884	0.217404	-0.837653	-0.838918	0.028061	45.4332	-0.838116	-1.478339E+11	-1.898113E-13	NaN
158	1.000000	0.226704	7.36659e+06	-46539.1	955.819	-29769.3	0.000000	0.000000	6.226840	-0.005363	NaN	0.000000	0.001694	0.001647	28.091	0.088631	0.002047	43.3033	-172.349	-167.747	-0.049214	0.225352	-0.829618	-0.830970	-0.005363	43.3033	-0.829525	-1.130705E+11	4.743091E-14	NaN
158	1.000000	0.234694	7.36659e+06	-46539.1	955.818	-29769.3	0.000000	0.000000	6.234826	-0.101870	NaN	0.000000	0.001647	0.001646	28.0903	0.078460	0.002025	38.7455	41.753	-164.19	-0.069535	0.233401	-0.821628	-0.822921	-0.101870	38.7455	-0.819656	-8.308935E+10	1.226032E-12	NaN
158	1.000000	0.242701	7.36659e+06	-46539.1	955.819	-29769.3	0.000000	0.000000	6.242837	-0.002171	NaN	0.000000	0.001648	0.001673	28.0891	0.032213	0.002025	15.9096	2.921412	-164.083	0.100058	0.241389	-0.813620	-0.814933	-0.002171	15.9096	-0.813518	-6.859593E+10	3.165016E-14	NaN
158	1.000000	0.250699	7.36659e+06	-46539.1	955.818	-29769.3	0.000000	0.000000	6.250833	-0.049115	NaN	0.000000	0.001692	0.001684	28.0898	0.065815	0.002005	32.8226	53.1403	-165.489	-0.092013	0.249407	-0.805623	-0.806914	-0.049115	32.8226	-0.804501	-5.175474E+10	9.489860E-13	NaN
158	1.000000	0.258704	7.36659e+06	-46539.1	955.819	-29769.3	0.000000	0.000000	6.258839	-0.019533	NaN	0.000000	0.001650	0.001674	28.09	0.069275	0.001824	37.972	156.184	-167.37	0.020934	0.257369	-0.797618	-0.798953	-0.019533	37.972	-0.797232	-4.123711E+10	4.736685E-13	NaN
158	1.000000	0.266738	7.36659e+06	-46539.1	955.818	-29769.3	0.000000	0.000000	6.266874	-0.017209	NaN	0.000000	0.001662	0.001697	28.0896	0.066758	0.002071	32.2342	-29.5961	-163.31	-0.001537	0.265384	-0.789583	-0.790938	-0.017209	32.2342	-0.789183	-3.206184E+10	5.367434E-13	NaN
158	1.000000	0.274733	7.36659e+06	-46539.1	955.819	-29769.3	0.000000	0.000000	6.274871	0.051791	NaN	0.000000	0.001660	0.001691	28.089	0.040052	0.001996	20.0624	0.847074	-159.178	0.028699	0.273360	-0.781589	-0.782961	0.051791	20.0624	-0.783525	-2.686156E+10	-1.928054E-12	NaN
158	1.000000	0.282718	7.36659e+06	-46539.1	955.819	-29769.3	0.000000	0.000000	6.282854	0.009027	NaN	0.000000	0.001641	0.001704	28.0899	0.086028	0.001889	45.5526	136.265	-164.999	0.031202	0.281404	-0.773604	-0.774918	0.009027	45.5526	-0.773753	-1.978446E+10	-4.562599E-13	NaN
158	1.000000	0.290725	7.36659e+06	-46539.1	955.818	-29769.3	0.000000	0.000000	6.290858	-0.099762	NaN	0.000000	0.001650	0.001691	28.0893	0.059458	0.001957	30.382	-155.791	-164.785	-0.081489	0.289407	-0.765596	-0.766915	-0.099762	30.382	-0.763134	-1.418824E+10	7.031348E-12	NaN
158	1.000000	0.298705	7.36659e+06	-46539.1	955.82	-29769.3	0.000000	0.000000	6.298841	-0.009121	NaN	0.000000	0.001647	0.001692	28.0883	0.089990	0.001842	48.8598	144.099	-165.356	-0.013909	0.297440	-0.757617	-0.758882	-0.009121	48.8598	-0.757477	-1.188421E+10	7.674845E-13	NaN
158	1.000000	0.306730	7.36659e+06	-46539.1	955.818	-29769.3	0.000000	0.000000	6.306866	-0.012023	NaN	0.000000	0.001627	0.001652	28.0904	0.040260	0.002060	19.547	-56.804	-166.233	-0.042699	0.305399	-0.749592	-0.750923	-0.012023	19.547	-0.749131	-9.149225E+9	1.314080E-12	NaN
158	1.000000	0.314719	7.36659e+06	-46539.1	955.819	-29769.3	0.000000	0.000000	6.314850	-0.105234	NaN	0.000000	0.001638	0.001684	28.0873	0.075903	0.002168	35.016	-113.188	-165.702	-0.084002	0.313441	-0.741603	-0.742881	-0.105234	35.016	-0.739349	-6.732742E+9	1.563018E-11	NaN
158	1.000000	0.322720	7.36659e+06	-46539.1	955.818	-29769.3	0.000000	0.000000	6.322857	0.015055	NaN	0.000000	0.001612	0.001676	28.0873	0.026755	0.002061	12.9846	146.413	-162.869	0.009235	0.321486	-0.733601	-0.734835	0.015055	12.9846	-0.734471	-5.777409E+9	-2.605898E-12	NaN
158	1.000000	0.330725	7.36659e+06	-46539.1	955.819	-29769.3	0.000000	0.000000	6.330865	0.096044	NaN	0.000000	0.001633	0.001697	28.0873	0.040397	0.002121	19.0473	-168.738	-167.871	0.064115	0.329425	-0.725597	-0.726897	0.096044	19.0473	-0.729378	-4.924192E+9	-1.950450E-11	NaN
158	1.000000	0.338730	7.36659e+06	-46539.1	955.819	-29769.3	0.000000	0.000000	6.338866	0.000262	NaN	0.000000	0.001628	0.001707	28.0884	0.074899	0.001944	38.532	-150.709	-168.382	0.064039	0.337408	-0.717592	-0.718914	0.000262	38.532	-0.717597	-3.401705E+9	-7.694899E-14	NaN
158	1.000000	0.346745	7.36659e+06	-46539.1	955.819	-29769.3	0.000000	0.000000	6.346880	-0.020752	NaN	0.000000	0.001643	0.001720	28.0882	0.154543	0.002037	75.8603	-119.533	-162.727	-0.057022	0.345470	-0.709577	-0.710852	-0.020752	75.8603	-0.709372	-2.627073E+9	7.899177E-12	NaN
158	1.000000	0.354705	7.36659e+06	-46539.1	955.819	-29769.3	0.000000	0.000000	6.354840	-0.009845	NaN	0.000000	0.001668	0.001691	28.088	0.030390	0.002039	14.902	162.703	-166.162	-0.075876	0.353451	-0.701617	-0.702871	-0.009845	14.902	-0.701122	-2.026974E+9	4.856988E-12	NaN
158	1.000000	0.362716	7.36659e+06	-46539.1	955.818	-29769.3	0.000000	0.000000	6.362854	0.038432	NaN	0.000000	0.001626	0.001691	28.0892	0.062423	0.001951	31.9913	19.2262	-161.001	0.031374	0.361425	-0.693605	-0.694897	0.038432	31.9913	-0.694506	-1.646235E+9	-2.334518E-11	NaN
158	1.000000	0.370726	7.36659e+06	-46539.1	955.818	-29769.3	0.000000	0.000000	6.370861	-0.036119	NaN	0.000000	0.001654	0.001654	28.0885	0.114613	0.001956	58.6012	13.9796	-165.782	-0.070083	0.369417	-0.685596	-0.686905	-0.036119	58.6012	-0.685134	-1.225751E+9	2.946650E-11	NaN
158	1.000000	0.378761	7.36659e+06	-46539.1	955.819	-29769.3	0.000000	0.000000	6.378896	-0.033432	NaN	0.000000	0.001679	0.001723	28.0888	0.064882	0.002099	30.9112	115.769	-165.739	-0.027242	0.377423	-0.677561	-0.678899	-0.033432	30.9112	-0.676750	-9.413485E+8	3.551464E-11	NaN
158	1.000000	0.386767	7.36659e+06	-46539.1	955.819	-29769.3	0.000000	0.000000	6.386902	-0.031264	NaN	0.000000	0.001629	0.001716	28.0893	0.036992	0.002155	17.1689	-70.2328	-163.093	-0.047346	0.385459	-0.669555	-0.670863	-0.031264	17.1689	-0.668189	-7.188000E+8	4.349458E-11	NaN
158	1.000000	0.394784	7.36659e+06	-46539.1	955.819	-29769.3	0.000000	0.000000	6.394922	0.027405	NaN	0.000000	0.001648	0.001666	28.0887	0.034506	0.001961	17.5963	-103.692	-165.239	0.101416	0.393399	-0.661537	-0.662923	0.027405	17.5963	-0.662705	-6.046760E+8	-4.532149E-11	NaN
158	1.000000	0.402756	7.36659e+06	-46539.1	955.818	-29769.3	0.000000	0.000000	6.402894	0.047172	NaN	0.000000	0.001588	0.001675	28.0878	0.054902	0.001971	27.851	88.789	-164.78	0.076423	0.401452	-0.653566	-0.654870	0.047172	27.851	-0.654836	-4.717614E+8	-9.999179E-11	NaN
158	1.000000	0.410750	7.36659e+06	-46539.1	955.818	-29769.3	0.000000	0.000000	6.410886	-0.009511	NaN	0.000000	0.001608	0.001735	28.0896	0.077739	0.001901	40.8843	175.018	-168.923	0.120797	0.409417	-0.645572	-0.646905	-0.009511	40.8843	-0.645397	-3.502065E+8	2.715839E-11	NaN
158	1.000000	0.418778	7.36659e+06	-46539.1	955.819	-29769.3	0.000000	0.000000	6.418913	-0.027632	NaN	0.000000	0.001603	0.001718	28.0895	0.119322	0.002057	58.0023	-117.452	-166.745	-0.050097	0.417441	-0.637544	-0.638880	-0.027632	58.0023	-0.637187	-2.701987E+8	1.022656E-10	NaN
158	1.000000	0.426768	7.36659e+06	-46539.1	955.819	-29769.3	0.000000	0.000000	6.426904	-0.010370	NaN	0.000000	0.001634	0.001732	28.0885	0.071132	0.001897	37.495	94.8139	-164.157	-0.027599	0.425446	-0.629553	-0.630876	-0.010370	37.495	-0.629346	-2.108835E+8	4.917230E-11	NaN
158	1.000000	0.434765	7.36659e+06	-46539.1	955.819	-29769.3	0.000000	0.000000	6.434900	-0.043667	NaN	0.000000	0.001609	0.001698	28.0907	0.042564	0.001877	22.674	-146.807	-166.057	0.052544	0.433491	-0.621557	-0.622831	-0.043667	22.674	-0.620112	-1.574617E+8	2.773181E-10	NaN
158	1.000000	0.442761	7.36659e+06	-46539.1	955.818	-29769.3	0.000000	0.000000	6.442897	-0.022772	NaN	0.000000	0.001642	0.001686	28.0897	0.021199	0.001966	10.7803	70.2753	-166.096	-0.081889	0.441474	-0.613560	-0.614848	-0.022772	10.7803	-0.611976	-1.217027E+8	1.871107E-10	NaN
158	1.000000	0.450791	7.36659e+06	-46539.1	955.818	-29769.3	0.000000	0.000000	6.450927	-0.004512	NaN	0.000000	0.001624	0.001681	28.0894	0.081218	0.002025	40.0984	-64.0031	-164.463	0.005787	0.449458	-0.605531	-0.606864	-0.004512	40.0984	-0.605446	-9.895758E+7	4.559865E-11	NaN
158	1.000000	0.458797	7.36659e+06	-46539.1	955.819	-29769.3	0.000000	0.000000	6.458931	-0.060952	NaN	0.000000	0.001623	0.001695	28.0898	0.037773	0.002004	18.8483	-163.153	-165.867	-0.097235	0.457454	-0.597525	-0.598868	-0.060952	18.8483	-0.595099	-7.127672E+7	8.551493E-10	NaN
158	1.000000	0.466791	7.36659e+06	-46539.1	955.819	-29769.3	0.000000	0.000000	6.466926	-0.038101	NaN	0.000000	0.001586	0.001706	28.0876	0.083297	0.001929	43.1795	-35.5275	-165.296	0.018367	0.465443	-0.589531	-0.590879	-0.038101	43.1795	-0.588869	-5.848862E+7	6.514202E-10	NaN
158	1.000000	0.474791	7.36659e+06	-46539.1	955.818	-29769.3	0.000000	0.000000	6.474929	0.037907	NaN	0.000000	0.001609	0.001679	28.0896	0.049640	0.001905	26.0525	-2.769906	-166.669	0.044430	0.473432	-0.581531	-0.582890	0.037907	26.0525	-0.582622	-4.796347E+7	-7.903294E-10	NaN
158	1.000000	0.482824	7.36659e+06	-46539.1	955.818	-29769.3	0.000000	0.000000	6.482962	0.035483	NaN	0.000000	0.001628	0.001726	28.0888	0.027525	0.002018	13.6406	46.7713	-161.657	0.051351	0.481526	-0.573497	-0.574796	0.035483	13.6406	-0.575448	-3.818477E+7	-9.292486E-10	NaN
158	1.000000	0.490805	7.36659e+06	-46539.1	955.818	-29769.3	0.000000	0.000000	6.490943	0.037206	NaN	0.000000	0.001621	0.001704	28.0893	0.091977	0.001992	46.1722	-162.371	-166.372	0.056197	0.489476	-0.565517	-0.566846	0.037206	46.1722	-0.566121	-2.838083E+7	-1.310952E-9	NaN
158	1.000000	0.498838	7.36659e+06	-46539.1	955.818	-29769.3	0.000000	0.000000	6.498972	-0.048928	NaN	0.000000	0.001645	0.001701	28.0889	0.061114	0.001930	31.6697	62.2287	-163.941	0.071550	0.497516	-0.557484	-0.558806	-0.048928	31.6697	-0.556325	-2.077462E+7	2.355200E-9	NaN
158	1.000000	0.506814	7.36659e+06	-46539.1	955.819	-29769.3	0.000000	0.000000	6.506951	0.042058	NaN	0.000000	0.001632	0.001655	28.0892	0.032494	0.002107	15.4217	89.0154	-163.713	0.050026	0.505475	-0.549508	-0.550847	0.042058	15.4217	-0.551554	-1.784320E+7	-2.357074E-9	NaN
158	1.000000	0.514794	7.36659e+06	-46539.1	955.819	-29769.3	0.000000	0.000000	6.514933	0.069298	NaN	0.000000	0.001623	0.001667	28.0895	0.132102	0.002022	65.3246	50.5853	-162.409	-0.017274	0.513469	-0.541528	-0.542853	0.069298	65.3246	-0.542324	-1.329165E+7	-5.213681E-9	NaN
158	1.000000	0.522823	7.36659e+06	-46539.1	955.819	-29769.3	0.000000	0.000000	6.522959	-0.015567	NaN	0.000000	0.001643	0.001693	28.0887	0.096379	0.001964	49.0613	87.5343	-167.523	0.065945	0.521508	-0.533499	-0.534813	-0.015567	49.0613	-0.533261	-9.95062e+06	1.564376E-9	NaN
158	1.000000	0.530817	7.36659e+06	-46539.1	955.819	-29769.3	0.000000	0.000000	6.530951	-0.057391	NaN	0.000000	0.001630	0.001734	28.09	0.071782	0.001992	36.0408	-88.4161	-163.442	0.013844	0.529482	-0.525504	-0.526840	-0.057391	36.0408	-0.524310	-7.47348e+06	7.679333E-9	NaN
158	1.000000	0.538824	7.36659e+06	-46539.1	955.818	-29769.3	0.000000	0.000000	6.538963	0.061187	NaN	0.000000	0.001651	0.001728	28.0892	0.081223	0.002057	39.4803	9.299124	-166.421	0.021292	0.537517	-0.517498	-0.518805	0.061187	39.4803	-0.518660	-6.23676e+06	-9.810716E-9	NaN
158	1.000000	0.546818	7.36659e+06	-46539.1	955.819	-29769.3	0.000000	0.000000	6.546954	-0.005341	NaN	0.000000	0.001620	0.001728	28.0879	0.109473	0.002097	52.1988	-73.9229	-162.821	-0.026290	0.545512	-0.509504	-0.510810	-0.005341	52.1988	-0.509427	-4.63908e+06	1.151350E-9	NaN
158	1.000000	0.554827	7.36659e+06	-46539.1	955.819	-29769.3	0.000000	0.000000	6.554962	-0.015056	NaN	0.000000	0.001684	0.001691	28.0877	0.127136	0.001964	64.7469	94.5824	-163.603	-0.029624	0.553519	-0.501495	-0.502803	-0.015056	64.7469	-0.501321	-3.57637e+06	4.209818E-9	NaN
158	1.000000	0.562840	7.36659e+06	-46539.1	955.818	-29769.3	0.000000	0.000000	6.562976	0.004723	NaN	0.000000	0.001648	0.001701	28.0863	0.063365	0.001954	32.4316	-98.0283	-164.141	0.022894	0.561552	-0.493482	-0.494770	0.004723	32.4316	-0.493591	-2.78973e+06	-1.692900E-9	NaN
158	1.000000	0.570819	7.36659e+06	-46539.1	955.819	-29769.3	0.000000	0.000000	6.570952	-0.082348	NaN	0.000000	0.001633	0.001692	28.0887	0.105945	0.001987	53.317	167.924	-166.197	-0.075103	0.569539	-0.485503	-0.486783	-0.082348	53.317	-0.484345	-2.07169e+06	3.974931E-8	NaN
158	1.000000	0.578835	7.36659e+06	-46539.1	955.819	-29769.3	0.000000	0.000000	6.578971	-0.003790	NaN	0.000000	0.001647	0.001697	28.0867	0.046064	0.001917	24.0238	11.8095	-161.763	0.000433	0.577531	-0.477487	-0.478790	-0.003790	24.0238	-0.477369	-1.65455e+06	2.290684E-9	NaN
158	1.000000	0.586865	7.36659e+06	-46539.1	955.819	-29769.3	0.000000	0.000000	6.586999	-0.068141	NaN	0.000000	0.001667	0.001704	28.0883	0.109574	0.001978	55.3994	21.3471	-165.004	-0.083850	0.585531	-0.469456	-0.470791	-0.068141	55.3994	-0.468534	-1.24406e+06	5.477319E-8	NaN
158	1.000000	0.594817	7.36659e+06	-46539.1	955.819	-29769.3	0.000000	0.000000	6.594951	-0.036382	NaN	0.000000	0.001657	0.001682	28.0872	0.045035	0.002039	22.0891	-53.4123	-165.181	-0.014206	0.593564	-0.461505	-0.462758	-0.036382	22.0891	-0.460270	-952378	3.820072E-8	NaN
158	1.000000	0.602867	7.36659e+06	-46539.1	955.818	-29769.3	0.000000	0.000000	6.603003	0.000167	NaN	0.000000	0.001642	0.001733	28.0873	0.038669	0.001981	19.5171	-25.4326	-164.596	-0.071800	0.601571	-0.453455	-0.454750	0.000167	19.5171	-0.453462	-763961	-2.191419E-10	NaN
158	1.000000	0.610821	7.36659e+06	-46539.1	955.819	-29769.3	0.000000	0.000000	6.610957	0.014088	NaN	0.000000	0.001637	0.001697	28.0887	0.055708	0.001949	28.5856	-80.4061	-166.369	0.006324	0.609589	-0.445501	-0.446732	0.014088	28.5856	-0.445871	-597266	-2.358718E-8	NaN
158	1.000000	0.618871	7.36659e+06	-46539.1	955.819	-29769.3	0.000000	0.000000	6.619007	-0.009046	NaN	0.000000	0.001637	0.001668	28.0864	0.041595	0.001932	21.5335	-36.5159	-166.358	0.028915	0.617553	-0.437451	-0.438769	-0.009046	21.5335	-0.437136	-449705	2.011534E-8	NaN
158	1.000000	0.626875	7.36659e+06	-46539.1	955.818	-29769.3	0.000000	0.000000	6.627011	-0.012964	NaN	0.000000	0.001665	0.001675	28.0871	0.103636	0.002139	48.4504	169.498	-169.29	-0.085143	0.625567	-0.429447	-0.430755	-0.012964	48.4504	-0.429246	-347854	3.726789E-8	NaN
158	1.000000	0.634879	7.36659e+06	-46539.1	955.818	-29769.3	0.000000	0.000000	6.635015	-0.006788	NaN	0.000000	0.001666	0.001665	28.086	0.044293	0.001943	22.7906	117.592	-165.449	0.000169	0.633538	-0.421442	-0.422784	-0.006788	22.7906	-0.421219	-267732	2.535474E-8	NaN
158	1.000000	0.642875	7.36659e+06	-46539.1	955.819	-29769.3	0.000000	0.000000	6.643010	-0.027935	NaN	0.000000	0.001662	0.001689	28.0868	0.076787	0.001953	39.3124	-14.4478	-167.123	-0.063919	0.641550	-0.413447	-0.414771	-0.027935	39.3124	-0.412914	-204092	1.368740E-7	NaN
158	1.000000	0.650866	7.36659e+06	-46539.1	955.818	-29769.3	0.000000	0.000000	6.651002	-0.002440	NaN	0.000000	0.001723	0.001698	28.0875	0.055332	0.002023	27.3554	74.9712	-162.244	-0.015999	0.649546	-0.405456	-0.406776	-0.002440	27.3554	-0.405389	-159508	1.529914E-8	NaN
158	1.000000	0.658836	7.36659e+06	-46539.1	955.818	-29769.3	0.000000	0.000000	6.658972	-0.009914	NaN	0.000000	0.001672	0.001674	28.0875	0.074822	0.002138	34.9927	85.9354	-164.7	0.052740	0.657532	-0.397486	-0.398790	-0.009914	34.9927	-0.397273	-122205	8.112233E-8	NaN
158	1.000000	0.666841	7.36659e+06	-46539.1	955.818	-29769.3	0.000000	0.000000	6.666976	-0.017134	NaN	0.000000	0.001679	0.001672	28.0861	0.107976	0.002054	52.5635	-125.468	-165.842	-0.053763	0.665615	-0.389481	-0.390707	-0.017134	52.5635	-0.389237	-93809.1	1.826514E-7	NaN
158	1.000000	0.674886	7.36659e+06	-46539.1	955.819	-29769.3	0.000000	0.000000	6.675022	-0.010378	NaN	0.000000	0.001682	0.001656	28.087	0.084839	0.001950	43.5044	-145.577	-167.078	-0.016510	0.673546	-0.381436	-0.382775	-0.010378	43.5044	-0.381257	-72097.7	1.439384E-7	NaN
158	1.000000	0.682907	7.36659e+06	-46539.1	955.819	-29769.3	0.000000	0.000000	6.683041	-0.033245	NaN	0.000000	0.001677	0.001677	28.0881	0.027325	0.001884	14.5067	-92.1735	-165.27	0.017152	0.681567	-0.373415	-0.374755	-0.033245	14.5067	-0.371696	-52547.4	6.326614E-7	NaN
158	1.000000	0.690889	7.36659e+06	-46539.1	955.819	-29769.3	0.000000	0.000000	6.691025	0.007036	NaN	0.000000	0.001709	0.001682	28.0888	0.020208	0.002004	10.0825	-18.4983	-165.333	-0.051100	0.689585	-0.365433	-0.366737	0.007036	10.0825	-0.365956	-43435.8	-1.619760E-7	NaN
158	1.000000	0.698874	7.36659e+06	-46539.1	955.818	-29769.3	0.000000	0.000000	6.699009	-0.041384	NaN	0.000000	0.001659	0.001704	28.088	0.047548	0.002031	23.4087	131.171	-170.185	-0.048368	0.697591	-0.357447	-0.358731	-0.041384	23.4087	-0.356121	-31313.7	1.321608E-6	NaN
158	1.000000	0.706891	7.36659e+06	-46539.1	955.818	-29769.3	0.000000	0.000000	6.707027	-0.001188	NaN	0.000000	0.001707	0.001690	28.0872	0.033183	0.002041	16.2572	-160.358	-166.021	-0.075919	0.705566	-0.349431	-0.350756	-0.001188	16.2572	-0.349376	-25000.1	4.750651E-8	NaN
158	1.000000	0.714881	7.36659e+06	-46539.1	955.818	-29769.3	0.000000	0.000000	6.715013	-0.091302	NaN	0.000000	0.001704	0.001701	28.0877	0.009839	0.001864	5.277748	-36.9513	-165.033	-0.064888	0.713576	-0.341441	-0.342746	-0.091302	5.277748	-0.328467	-12387.6	7.370473E-6	NaN
158	1.000000	0.722915	7.36659e+06	-46539.1	955.82	-29769.3	0.000000	0.000000	6.723050	-0.027803	NaN	0.000000	0.001675	0.001715	28.0877	0.048435	0.001986	24.3835	-138.217	-168.769	-0.002978	0.721584	-0.333407	-0.334738	-0.027803	24.3835	-0.332552	-14216.6	1.955691E-6	NaN
158	1.000000	0.730885	7.36659e+06	-46539.1	955.82	-29769.3	0.000000	0.000000	6.731023	0.034272	NaN	0.000000	0.001697	0.001681	28.088	0.108656	0.002080	52.2318	176.349	-170.067	0.062855	0.729585	-0.325436	-0.326737	0.034272	52.2318	-0.325928	-11370.1	-3.014203E-6	NaN
158	1.000000	0.738914	7.36659e+06	-46539.1	955.819	-29769.3	0.000000	0.000000	6.739052	0.041564	NaN	0.000000	0.001710	0.001688	28.087	0.032080	0.002034	15.7746	153.39	-163.496	0.072996	0.737604	-0.317408	-0.318718	0.041564	15.7746	-0.319384	-9111.09	-4.561909E-6	NaN
158	1.000000	0.746896	7.36659e+06	-46539.1	955.818	-29769.3	0.000000	0.000000	6.747031	-0.013039	NaN	0.000000	0.001709	0.001681	28.0874	0.050061	0.002199	22.765	-114.261	-168.088	-0.086225	0.745537	-0.309426	-0.310784	-0.013039	22.765	-0.308996	-6400.29	2.037173E-6	NaN
158	1.000000	0.754912	7.36659e+06	-46539.1	955.82	-29769.3	0.000000	0.000000	6.755051	0.070116	NaN	0.000000	0.001681	0.001668	28.0885	0.105382	0.001947	54.116	-121.257	-164.812	0.033870	0.753590	-0.301409	-0.302732	0.070116	54.116	-0.302381	-5105.71	-1.373276E-5	NaN
158	1.000000	0.762900	7.36659e+06	-46539.1	955.819	-29769.3	0.000000	0.000000	6.763034	-0.037442	NaN	0.000000	0.001703	0.001689	28.0886	0.046668	0.001900	24.5684	153.877	-165.998	0.034085	0.761600	-0.293422	-0.294721	-0.037442	24.5684	-0.292279	-3609.3	1.037374E-5	NaN
158	1.000000	0.770916	7.36659e+06	-46539.1	955.818	-29769.3	0.000000	0.000000	6.771052	-0.024014	NaN	0.000000	0.001614	0.001678	28.0889	0.039417	0.001967	20.0433	128.326	-167.331	0.008883	0.769578	-0.285405	-0.286744	-0.024014	20.0433	-0.284507	-2759.63	8.702022E-6	NaN
158	1.000000	0.778941	7.36659e+06	-46539.1	955.818	-29769.3	0.000000	0.000000	6.779074	-0.056275	NaN	0.000000	0.001651	0.001681	28.0878	0.080284	0.002083	38.5353	-84.3881	-164.326	-0.015468	0.777616	-0.277381	-0.278706	-0.056275	38.5353	-0.276286	-2074.26	2.713005E-5	NaN
158	1.000000	0.786928	7.36659e+06	-46539.1	955.819	-29769.3	0.000000	0.000000	6.787065	0.019371	NaN	0.000000	0.001656	0.001695	28.087	0.071947	0.001929	37.3041	-80.1378	-169.482	-0.036935	0.785622	-0.269394	-0.270700	0.019371	37.3041	-0.269783	-1652.92	-1.171919E-5	NaN
158	1.000000	0.794916	7.36659e+06	-46539.1	955.818	-29769.3	0.000000	0.000000	6.795053	0.029682	NaN	0.000000	0.001629	0.001608	28.0877	0.105628	0.002011	52.5124	0.558258	-167.726	0.054331	0.793641	-0.261406	-0.262681	0.029682	52.5124	-0.261830	-1250.09	-2.374403E-5	NaN
158	1.000000	0.802949	7.36659e+06	-46539.1	955.819	-29769.3	0.000000	0.000000	6.803085	-0.002018	NaN	0.000000	0.001630	0.001648	28.0875	0.086268	0.002088	41.3178	128.97	-169.365	0.000696	0.801632	-0.253373	-0.254690	-0.002018	41.3178	-0.253336	-925.724	2.179758E-6	NaN
158	1.000000	0.810927	7.36659e+06	-46539.1	955.818	-29769.3	0.000000	0.000000	6.811060	-0.081319	NaN	0.000000	0.001601	0.001723	28.087	0.117848	0.002166	54.4001	0.352589	-165.564	0.005410	0.809624	-0.245394	-0.246698	-0.081319	54.4001	-0.244273	-670.122	0.000121	NaN
158	1.000000	0.818945	7.36659e+06	-46539.1	955.818	-29769.3	0.000000	0.000000	6.819081	0.008440	NaN	0.000000	0.001621	0.001669	28.0851	0.056813	0.001974	28.7741	-56.8337	-166.516	-0.073649	0.817663	-0.237377	-0.238659	0.008440	28.7741	-0.237597	-527.196	-1.600856E-5	NaN
158	1.000000	0.826948	7.36659e+06	-46539.1	955.818	-29769.3	0.000000	0.000000	6.827083	-0.018437	NaN	0.000000	0.001656	0.001683	28.086	0.017321	0.002091	8.284819	-23.422	-165.976	-0.036365	0.825599	-0.229374	-0.230723	-0.018437	8.284819	-0.227705	-368.321	5.005781E-5	NaN
158	1.000000	0.834936	7.36659e+06	-46539.1	955.818	-29769.3	0.000000	0.000000	6.835072	0.003708	NaN	0.000000	0.001676	0.001710	28.088	0.034306	0.001985	17.2789	-64.1929	-171.074	0.072218	0.833680	-0.221386	-0.222641	0.003708	17.2789	-0.221547	-294.017	-1.261202E-5	NaN
158	1.000000	0.842955	7.36659e+06	-46539.1	955.818	-29769.3	0.000000	0.000000	6.843089	-0.050595	NaN	0.000000	0.001689	0.001685	28.0874	0.020444	0.001996	10.2422	119.634	-166.206	-0.069073	0.841627	-0.213367	-0.214695	-0.050595	10.2422	-0.209662	-189.384	0.000267	NaN
158	1.000000	0.850961	7.36659e+06	-46539.1	955.818	-29769.3	0.000000	0.000000	6.851098	0.013030	NaN	0.000000	0.001694	0.001715	28.087	0.066473	0.001896	35.0516	-32.9126	-167.328	-0.011179	0.849640	-0.205361	-0.206682	0.013030	35.0516	-0.205640	-162.925	-7.997758E-5	NaN
158	1.000000	0.858933	7.36659e+06	-46539.1	955.819	-29769.3	0.000000	0.000000	6.859069	-0.011680	NaN	0.000000	0.001602	0.001668	28.0874	0.092674	0.001919	48.3014	-73.3446	-166.278	0.058685	0.857652	-0.197389	-0.198669	-0.011680	48.3014	-0.197207	-118.495	9.857106E-5	NaN
158	1.000000	0.866967	7.36659e+06	-46539.1	955.819	-29769.3	0.000000	0.000000	6.867103	-0.017731	NaN	0.000000	0.001636	0.001639	28.0858	0.103700	0.002063	50.2653	127.156	-164.651	0.021119	0.865668	-0.189354	-0.190654	-0.017731	50.2653	-0.189090	-86.8583	0.000204	NaN
158	1.000000	0.874950	7.36659e+06	-46539.1	955.818	-29769.3	0.000000	0.000000	6.875091	0.098868	NaN	0.000000	0.001667	0.001684	28.0866	0.077313	0.001849	41.8218	6.050193	-169.457	0.135527	0.873606	-0.181372	-0.182716	0.098868	41.8218	-0.183145	-68.9933	-0.001433	NaN
158	1.000000	0.882970	7.36659e+06	-46539.1	955.82	-29769.3	0.000000	0.000000	6.883106	-0.003234	NaN	0.000000	0.001652	0.001663	28.0861	0.073495	0.002072	35.4789	-174.962	-165.046	0.035501	0.881643	-0.173352	-0.174679	-0.003234	35.4789	-0.173283	-46.8199	6.907852E-5	NaN
158	1.000000	0.890955	7.36659e+06	-46539.1	955.818	-29769.3	0.000000	0.000000	6.891091	-0.008155	NaN	0.000000	0.001636	0.001669	28.0867	0.141047	0.002253	62.6041	86.8524	-165.217	0.046611	0.889628	-0.165367	-0.166694	-0.008155	62.6041	-0.165269	-33.9647	0.000240	NaN
158	1.000000	0.898972	7.36659e+06	-46539.1	955.818	-29769.3	0.000000	0.000000	6.899106	-0.058306	NaN	0.000000	0.001625	0.001646	28.0868	0.045604	0.001919	23.7654	26.387	-165.447	-0.097537	0.897653	-0.157350	-0.158669	-0.058306	23.7654	-0.155509	-22.7899	0.002558	NaN
158	1.000000	0.906971	7.36659e+06	-46539.1	955.819	-29769.3	0.000000	0.000000	6.907109	0.028009	NaN	0.000000	0.001642	0.001680	28.0852	0.126687	0.002152	58.8593	-149.331	-169.515	-0.023657	0.905647	-0.149350	-0.150675	0.028009	58.8593	-0.149707	-17.8922	-0.001565	NaN
158	1.000000	0.914970	7.36659e+06	-46539.1	955.819	-29769.3	0.000000	0.000000	6.915107	0.000757	NaN	0.000000	0.001667	0.001657	28.0864	0.021105	0.001988	10.6189	-86.9521	-162.972	-0.034975	0.913698	-0.141352	-0.142624	0.000757	10.6189	-0.141405	-12.569	-6.026316E-5	NaN
158	1.000000	0.922989	7.36659e+06	-46539.1	955.818	-29769.3	0.000000	0.000000	6.923124	-0.039358	NaN	0.000000	0.001652	0.001684	28.0874	0.134449	0.002020	66.5658	40.493	-170.256	-0.001936	0.921641	-0.133333	-0.134681	-0.039358	66.5658	-0.132889	-8.666664	0.004541	NaN
158	1.000000	0.930985	7.36659e+06	-46539.1	955.818	-29769.3	0.000000	0.000000	6.931122	0.012795	NaN	0.000000	0.001679	0.001661	28.0868	0.044637	0.002076	21.4996	36.3662	-170.256	-0.022372	0.929704	-0.125337	-0.126618	0.012795	21.4996	-0.125783	-6.301855	-0.002030	NaN
158	1.000000	0.939010	7.36659e+06	-46539.1	955.819	-29769.3	0.000000	0.000000	6.939145	-0.021600	NaN	0.000000	0.001619	0.001717	28.087	0.017791	0.002039	8.726147	-5.870080	-165.712	-0.036740	0.937719	-0.117312	-0.118602	-0.021600	8.726147	-0.115455	-3.903719	0.005533	NaN
158	1.000000	0.946984	7.36659e+06	-46539.1	955.819	-29769.3	0.000000	0.000000	6.947118	-0.045858	NaN	0.000000	0.001633	0.001702	28.0856	0.082896	0.002018	41.0828	175.693	-168.311	0.077599	0.945689	-0.109338	-0.110633	-0.045858	41.0828	-0.108501	-2.793530	0.016416	NaN
158	1.000000	0.955004	7.36659e+06	-46539.1	955.818	-29769.3	0.000000	0.000000	6.955143	0.067161	NaN	0.000000	0.001606	0.001693	28.0868	0.109579	0.002006	54.6389	-172.294	-170.547	-0.004393	0.953666	-0.101318	-0.102656	0.067161	54.6389	-0.102240	-2.047031	-0.032809	NaN
158	1.000000	0.962991	7.36659e+06	-46539.1	955.819	-29769.3	0.000000	0.000000	6.963128	0.017245	NaN	0.000000	0.001633	0.001660	28.0867	0.064328	0.002002	32.1366	93.7501	-160.258	0.001595	0.961714	-0.093331	-0.094608	0.017245	32.1366	-0.093733	-1.319619	-0.013068	NaN
158	1.000000	0.970977	7.36659e+06	-46539.1	955.819	-29769.3	0.000000	0.000000	6.971112	-0.039795	NaN	0.000000	0.001667	0.001685	28.0868	0.033426	0.001968	16.982	-3.998456	-165.892	-0.055569	0.969730	-0.085344	-0.086592	-0.039795	16.982	-0.083587	-0.759144	0.052421	NaN
158	1.000000	0.979005	7.36659e+06	-46539.1	955.82	-29769.3	0.000000	0.000000	6.979141	0.007230	NaN	0.000000	0.001623	0.001697	28.0857	0.054777	0.001976	27.7206	-120.381	-166.698	-0.113331	0.977683	-0.077317	-0.078639	0.007230	27.7206	-0.077513	-0.535754	-0.013495	NaN
158	1.000000	0.987013	7.36659e+06	-46539.1	955.819	-29769.3	0.000000	0.000000	6.987148	-0.021443	NaN	0.000000	0.001666	0.001695	28.0869	0.109149	0.001956	55.7972	132.814	-169.029	0.068942	0.985743	-0.069309	-0.070579	-0.021443	55.7972	-0.069020	-0.321040	0.066793	NaN
158	1.000000	0.995029	7.36659e+06	-46539.1	955.82	-29769.3	0.000000	0.000000	6.995160	-0.123254	NaN	0.000000	0.001597	0.001682	28.0877	0.135386	0.001969	68.7497	116.955	-167.681	-0.144059	0.993673	-0.061293	-0.062649	-0.123254	68.7497	-0.059948	-0.179475	0.686750	NaN
158	1.000000	1.003032	7.36659e+06	-46539.1	955.82	-29769.3	0.000000	0.000000	7.003169	0.015070	NaN	0.000000	0.001613	0.001681	28.0875	0.162246	0.001869	86.7981	-68.5548	-168.518	0.050788	1.001733	-0.053290	-0.054588	0.015070	86.7981	-0.053420	-0.115599	-0.130366	NaN
158	1.000000	1.011007	7.36659e+06	-46539.1	955.819	-29769.3	0.000000	0.000000	7.011144	0.015039	NaN	0.000000	0.001605	0.001673	28.0874	0.066916	0.001986	33.6913	-107.762	-162.386	0.006256	1.009644	-0.045315	-0.046678	0.015039	33.6913	-0.045650	-0.067276	-0.223537	NaN
158	1.000000	1.019014	7.36659e+06	-46539.1	955.82	-29769.3	0.000000	0.000000	7.019151	0.004443	NaN	0.000000	0.001635	0.001667	28.088	0.080856	0.002004	40.3455	159.15	-163.665	-0.005025	1.017782	-0.037307	-0.038540	0.004443	40.3455	-0.037390	-0.037717	-0.117788	NaN
158	1.000000	1.027047	7.36659e+06	-46539.1	955.821	-29769.3	0.000000	0.000000	7.027183	-0.001717	NaN	0.000000	0.001635	0.001685	28.0867	0.039523	0.002035	19.4176	59.0786	-164.372	0.047741	1.025705	-0.029275	-0.030617	-0.001717	19.4176	-0.029208	-0.021879	0.078478	NaN
158	1.000000	1.035032	7.36659e+06	-46539.1	955.82	-29769.3	0.000000	0.000000	7.035164	-0.089034	NaN	0.000000	0.001646	0.001695	28.0861	0.065771	0.002112	31.1456	-6.552638	-164.739	0.006555	1.033726	-0.021290	-0.022596	-0.089034	31.1456	-0.019146	-0.011947	7.452656	NaN
158	1.000000	1.043031	7.36659e+06	-46539.1	955.82	-29769.3	0.000000	0.000000	7.043166	-0.028516	NaN	0.000000	0.001634	0.001696	28.0862	0.080073	0.002041	39.2359	-37.3901	-165.185	-0.031280	1.041737	-0.013291	-0.014584	-0.028516	39.2359	-0.012746	-0.007956	3.584168	NaN
158	1.000000	1.051027	7.36659e+06	-46539.1	955.821	-29769.3	0.000000	0.000000	7.051163	-0.006144	NaN	0.000000	0.001648	0.001681	28.0852	0.059636	0.002064	28.8983	117.213	-163.814	-0.051277	1.049695	-0.005295	-0.006626	-0.006144	28.8983	-0.005135	-0.003502	1.754646	NaN
158	1.000000	1.059022	7.36659e+06	-46539.1	955.819	-29769.3	0.000000	0.000000	7.059205	1.148880	NaN	0.000000	0.001589	0.001658	28.0858	1.881067	0.001957	961.32	9.757080	-166.971	0.295055	1.057713	0.002700	0.001392	1.148880	961.32	0.001803	0.001397	822.678	23502.8
158	2.000000	1.066448	7.36659e+06	-46539.1	955.82	-29769.3	0.000000	0.000000	7.066984	9.727013	NaN	0.000000	0.001646	0.001651	28.0868	9.532695	0.001728	5515.92	8.230339	-172.296	8.807689	1.065639	0.010126	0.009317	9.727013	5515.92	0.008803	0.007882	1234.11	56764.7
158	2.000000	1.068565	7.36659e+06	-46539.1	955.821	-29769.3	0.000000	0.000000	7.069240	13.108	NaN	0.000000	0.001622	0.001679	28.0869	11.4143	0.001501	7605.69	4.564379	-173.919	12.6388	1.068234	0.012243	0.011912	13.108	7605.69	0.010951	0.010257	1277.91	68611.2
158	2.000000	1.070555	7.36659e+06	-46539.1	955.819	-29769.3	0.000000	0.000000	7.071310	15.0454	NaN	0.000000	0.001650	0.001695	28.0867	14.4476	0.001823	7927.34	5.826207	-175.378	14.0378	1.070274	0.014234	0.013953	15.0454	7927.34	0.012810	0.012475	1206.04	64845.4
158	2.000000	1.072519	7.36659e+06	-46539.1	955.82	-29769.3	0.000000	0.000000	7.073434	18.9289	NaN	0.000000	0.001673	0.001686	28.0862	15.9943	0.001608	9944.71	6.063445	-177.348	18.3358	1.072255	0.016198	0.015933	18.9289	9944.71	0.014770	0.014980	1263.6	74234.7
158	2.000000	1.074520	7.36659e+06	-46539.1	955.82	-29769.3	0.000000	0.000000	7.075599	22.9345	NaN	0.000000	0.001662	0.001692	28.0858	18.8345	0.001871	10066.1	9.064321	-179.38	22.6878	1.074214	0.018198	0.017892	22.9345	10066.1	0.016489	0.017322	1323.97	69876.2
158	2.000000	1.076558	7.36659e+06	-46539.1	955.82	-29769.3	0.000000	0.000000	7.077793	26.7435	NaN	0.000000	0.001643	0.001709	28.0843	20.7048	0.001834	11290	7.003718	-177.773	27.3587	1.076200	0.020236	0.019878	26.7435	11290	0.018459	0.020179	1325.31	72613.6
158	2.000000	1.078515	7.36659e+06	-46539.1	955.82	-29769.3	0.000000	0.000000	7.079976	32.2399	NaN	0.000000	0.001659	0.001685	28.0865	21.9928	0.001702	12921.7	4.050884	-177.107	31.3037	1.078176	0.022193	0.021854	32.2399	12921.7	0.020322	0.023050	1398.69	77760.2
158	2.000000	1.080494	7.36659e+06	-46539.1	955.82	-29769.3	0.000000	0.000000	7.082086	35.416	NaN	0.000000	0.001657	0.001642	28.0848	24.6392	0.001949	12644.7	7.197439	-177.896	35.1164	1.080211	0.024172	0.023890	35.416	12644.7	0.022072	0.025903	1367.28	71780.9
158	2.000000	1.082498	7.36659e+06	-46539.1	955.819	-29769.3	0.000000	0.000000	7.084385	42.5857	NaN	0.000000	0.001593	0.001675	28.0856	26.207	0.001808	14499	7.920225	178.167	42.1188	1.082150	0.026177	0.025828	42.5857	14499	0.023974	0.029175	1459.65	77553.9
158	2.000000	1.084496	7.36659e+06	-46539.1	955.82	-29769.3	0.000000	0.000000	7.086550	46.6469	NaN	0.000000	0.001662	0.001676	28.0854	28.0215	0.001667	16811.4	1.566807	-177.798	45.6391	1.084168	0.028174	0.027846	46.6469	16811.4	0.026093	0.033034	1412.08	84507.3
158	2.000000	1.086507	7.36659e+06	-46539.1	955.82	-29769.3	0.000000	0.000000	7.089053	58.6329	NaN	0.000000	0.001649	0.001692	28.0857	30.1276	0.001669	18049.1	0.387754	-176.239	57.5839	1.086163	0.030185	0.029841	58.6329	18049.1	0.027749	0.036207	1619.4	86663.2
158	2.000000	1.088477	7.36659e+06	-46539.1	955.82	-29769.3	0.000000	0.000000	7.091291	65.1399	NaN	0.000000	0.001623	0.001705	28.0863	33.0351	0.001767	18691.9	6.740952	177.453	64.3105	1.088131	0.032155	0.031810	65.1399	18691.9	0.029541	0.039798	1636.74	85603.8
158	2.000000	1.090460	7.36659e+06	-46539.1	955.819	-29769.3	0.000000	0.000000	7.093462	69.7014	NaN	0.000000	0.001629	0.001688	28.0856	36.013	0.001707	21093	4.915006	177.604	70.4894	1.090179	0.034139	0.033857	69.7014	21093	0.031660	0.044255	1574.99	91607
158	2.000000	1.092424	7.36659e+06	-46539.1	955.82	-29769.3	0.000000	0.000000	7.096032	84.4638	NaN	0.000000	0.001665	0.001699	28.086	37.0176	0.001546	23942.6	5.696978	175.589	82.8433	1.092149	0.036102	0.035827	84.4638	23942.6	0.033456	0.048212	1751.92	99624.7
158	2.000000	1.094387	7.36659e+06	-46539.1	955.819	-29769.3	0.000000	0.000000	7.097968	83.8099	NaN	0.000000	0.001618	0.001657	28.0862	39.8481	0.001911	20854.4	3.572638	-179.701	80.5128	1.094028	0.038065	0.037706	83.8099	20854.4	0.035051	0.051864	1615.95	83663.7
158	2.000000	1.096455	7.36659e+06	-46539.1	955.819	-29769.3	0.000000	0.000000	7.100387	92.3263	NaN	0.000000	0.001647	0.001693	28.0852	42.0506	0.001853	22687.2	4.123914	177.793	91.9252	1.096145	0.040133	0.039824	92.3263	22687.2	0.037081	0.056702	1628.27	87047.3
158	2.000000	1.098428	7.36659e+06	-46539.1	955.819	-29769.3	0.000000	0.000000	7.102915	105.831	NaN	0.000000	0.001647	0.001668	28.0848	42.8618	0.001682	25478.2	6.220981	174.655	103.928	1.098092	0.042106	0.041770	105.831	25478.2	0.038991	0.061446	1722.33	93906.1
158	2.000000	1.100462	7.36659e+06	-46539.1	955.82	-29769.3	0.000000	0.000000	7.105171	111.224	NaN	0.000000	0.001646	0.001657	28.085	46.6113	0.001805	25826.5	3.611739	176.948	110.375	1.100124	0.044141	0.043803	111.224	25826.5	0.040911	0.066403	1674.98	91568
158	2.000000	1.102447	7.36659e+06	-46539.1	955.82	-29769.3	0.000000	0.000000	7.107661	123.505	NaN	0.000000	0.001667	0.001678	28.0843	46.97	0.001844	25466.6	3.850460	177.984	123.264	1.102160	0.046125	0.045838	123.505	25466.6	0.042488	0.070616	1748.95	87557
158	2.000000	1.104406	7.36659e+06	-46539.1	955.821	-29769.3	0.000000	0.000000	7.109989	132.5	NaN	0.000000	0.001653	0.001711	28.0845	51.1842	0.001884	27161.6	5.662954	174.877	131.526	1.104122	0.048084	0.047801	132.5	27161.6	0.044425	0.075964	1744.24	90037.8
158	2.000000	1.106473	7.36659e+06	-46539.1	955.821	-29769.3	0.000000	0.000000	7.112431	141.622	NaN	0.000000	0.001621	0.001659	28.0866	52.9646	0.001799	29440.1	4.400362	175.814	141.22	1.106132	0.050151	0.049811	141.622	29440.1	0.046543	0.082028	1726.5	93914
158	2.000000	1.108379	7.36659e+06	-46539.1	955.82	-29769.3	0.000000	0.000000	7.114785	152.516	NaN	0.000000	0.001643	0.001689	28.0853	53.6036	0.001760	30450	0.282395	179.412	149.202	1.108093	0.052057	0.051771	152.516	30450	0.048300	0.087232	1748.39	94193.8
158	2.000000	1.110424	7.36659e+06	-46539.1	955.82	-29769.3	0.000000	0.000000	7.116979	156.132	NaN	0.000000	0.001631	0.001653	28.087	56.4471	0.001732	32591.1	0.028767	178.305	154.126	1.110248	0.054102	0.053926	156.132	32591.1	0.050509	0.093993	1661.11	97123.6
158	2.000000	1.112451	7.36659e+06	-46539.1	955.82	-29769.3	0.000000	0.000000	7.119720	173.511	NaN	0.000000	0.001625	0.001674	28.0878	58.1675	0.001753	33178.4	4.520143	174.176	173.123	1.112133	0.056129	0.055812	173.511	33178.4	0.052207	0.099357	1746.35	96167.8
158	2.000000	1.114406	7.36659e+06	-46539.1	955.82	-29769.3	0.000000	0.000000	7.122260	187.751	NaN	0.000000	0.001625	0.001684	28.0863	61.5734	0.001820	33839.4	5.529689	173.099	186.007	1.114077	0.058084	0.057755	187.751	33839.4	0.053923	0.104922	1789.44	95447
158	2.000000	1.116422	7.36659e+06	-46539.1	955.821	-29769.3	0.000000	0.000000	7.124861	201.974	NaN	0.000000	0.001628	0.001690	28.0862	62.8333	0.001805	34805.6	6.170222	172.285	202.075	1.116088	0.060100	0.059766	201.974	34805.6	0.055748	0.111004	1819.51	95444.8
158	2.000000	1.118423	7.36659e+06	-46539.1	955.82	-29769.3	0.000000	0.000000	7.127337	213.526	NaN	0.000000	0.001634	0.001697	28.0867	64.9275	0.001938	33504.2	8.382476	171.031	212.787	1.118086	0.062101	0.061765	213.526	33504.2	0.057321	0.116378	1834.77	89730.1
158	2.000000	1.120379	7.36659e+06	-46539.1	955.82	-29769.3	0.000000	0.000000	7.129646	222.106	NaN	0.000000	0.001623	0.001706	28.085	66.0282	0.001750	37734.3	3.073037	174.523	218.673	1.120137	0.064057	0.063815	222.106	37734.3	0.059643	0.124530	1783.55	97695.2
158	2.000000	1.122399	7.36659e+06	-46539.1	955.82	-29769.3	0.000000	0.000000	7.132373	239.3	NaN	0.000000	0.001634	0.001699	28.084	67.571	0.001758	38440.4	7.850411	170.409	238.3	1.122105	0.066077	0.065783	239.3	38440.4	0.061408	0.130907	1828.02	97068.8
158	2.000000	1.124365	7.36659e+06	-46539.1	955.819	-29769.3	0.000000	0.000000	7.134648	246.829	NaN	0.000000	0.001602	0.001677	28.0859	70.7947	0.001818	38948.8	4.296597	172.93	243.189	1.124061	0.068043	0.067739	246.829	38948.8	0.063290	0.137870	1790.3	95837
158	2.000000	1.126395	7.36659e+06	-46539.1	955.82	-29769.3	0.000000	0.000000	7.137160	258.54	NaN	0.000000	0.001641	0.001684	28.0852	73.0048	0.001873	38969.6	5.449036	171.761	255.757	1.126206	0.070074	0.069884	258.54	38969.6	0.065098	0.144720	1786.48	93591
158	2.000000	1.128351	7.36659e+06	-46539.1	955.82	-29769.3	0.000000	0.000000	7.139910	277.858	NaN	0.000000	0.001643	0.001698	28.0868	73.258	0.001722	42546.4	2.971863	173.839	273.308	1.127992	0.072029	0.071671	277.858	42546.4	0.067131	0.152612	1820.68	99504.2
158	2.000000	1.130447	7.36659e+06	-46539.1	955.82	-29769.3	0.000000	0.000000	7.142406	287.575	NaN	0.000000	0.001679	0.001697	28.0868	77.964	0.001907	40882.1	6.623220	170.758	290.057	1.130157	0.074125	0.073835	287.575	40882.1	0.068850	0.159440	1803.66	93542.4
158	2.000000	1.132400	7.36659e+06	-46539.1	955.82	-29769.3	0.000000	0.000000	7.145156	306.968	NaN	0.000000	0.001622	0.001671	28.0872	77.0163	0.001786	43113.2	1.777926	175.662	305.802	1.132032	0.076079	0.075711	306.968	43113.2	0.070739	0.167105	1836.98	96358.2
158	2.000000	1.134374	7.36659e+06	-46539.1	955.819	-29769.3	0.000000	0.000000	7.147552	317.242	NaN	0.000000	0.001618	0.001683	28.0871	80.1077	0.001765	45387.8	3.113150	173.344	313.107	1.134005	0.078052	0.077683	317.242	45387.8	0.072810	0.175705	1805.53	98928.1
158	2.000000	1.136397	7.36659e+06	-46539.1	955.82	-29769.3	0.000000	0.000000	7.150374	336.661	NaN	0.000000	0.001650	0.001677	28.087	82.0282	0.001805	45452.9	3.401533	173.705	333.037	1.136081	0.080076	0.079759	336.661	45452.9	0.074520	0.182961	1840.07	97085.6
158	2.000000	1.138322	7.36659e+06	-46539.1	955.819	-29769.3	0.000000	0.000000	7.152902	351.336	NaN	0.000000	0.001691	0.001725	28.0845	84.5692	0.001915	44165.8	5.119247	171.8	347.719	1.138013	0.082000	0.081692	351.336	44165.8	0.076034	0.189496	1854.05	92695.4
158	2.000000	1.140327	7.36659e+06	-46539.1	955.819	-29769.3	0.000000	0.000000	7.155345	361.99	NaN	0.000000	0.001643	0.001712	28.0841	85.6576	0.001827	46880.7	3.827248	172.292	357.091	1.140118	0.084005	0.083796	361.99	46880.7	0.078214	0.199097	1818.16	95992
158	2.000000	1.142506	7.36659e+06	-46539.1	955.82	-29769.3	0.000000	0.000000	7.158111	376.285	NaN	0.000000	0.001671	0.001707	28.084	86.9869	0.001845	47155.9	3.766441	173.022	382.38	1.142102	0.086184	0.085780	376.285	47155.9	0.080199	0.208034	1808.77	94458.7
158	2.000000	1.144431	7.36659e+06	-46539.1	955.82	-29769.3	0.000000	0.000000	7.160744	393.482	NaN	0.000000	0.001675	0.001714	28.0838	89.6019	0.001832	48912	4.570871	171.688	396.793	1.144098	0.088110	0.087776	393.482	48912	0.082076	0.216651	1816.2	96008.2
158	2.000000	1.146437	7.36659e+06	-46539.1	955.821	-29769.3	0.000000	0.000000	7.163530	412.46	NaN	0.000000	0.001669	0.001692	28.085	91.0992	0.001919	47478.6	6.589066	170.793	411.591	1.145970	0.090115	0.089649	412.46	47478.6	0.083600	0.223767	1843.25	91700.7
158	2.000000	1.148440	7.36659e+06	-46539.1	955.82	-29769.3	0.000000	0.000000	7.166011	424.098	NaN	0.000000	0.001673	0.001714	28.0847	92.9415	0.001861	49932	6.485296	169.823	427.363	1.148091	0.092118	0.091769	424.098	49932	0.085748	0.233981	1812.53	94310.9
158	2.000000	1.150384	7.36659e+06	-46539.1	955.82	-29769.3	0.000000	0.000000	7.168890	446.839	NaN	0.000000	0.001687	0.001723	28.0849	94.6883	0.001720	55036.1	8.213057	168.044	446.02	1.149916	0.094062	0.093595	446.839	55036.1	0.087973	0.244788	1825.41	101631
158	2.000000	1.152541	7.36659e+06	-46539.1	955.821	-29769.3	0.000000	0.000000	7.171340	453.962	NaN	0.000000	0.001675	0.001716	28.0851	94.8758	0.001708	55556.7	4.466036	170.853	463.087	1.152070	0.096219	0.095748	453.962	55556.7	0.090091	0.255284	1778.26	100461
158	2.000000	1.154355	7.36659e+06	-46539.1	955.821	-29769.3	0.000000	0.000000	7.174048	475.714	NaN	0.000000	0.001663	0.001719	28.0861	99.3624	0.001826	54423.3	4.798192	170.588	474.117	1.154083	0.098034	0.097762	475.714	54423.3	0.091478	0.262269	1813.84	97092.3
158	2.000000	1.156390	7.36659e+06	-46539.1	955.821	-29769.3	0.000000	0.000000	7.176989	497.758	NaN	0.000000	0.001637	0.001716	28.0851	100.04	0.001753	57063.7	3.053239	172.318	495.658	1.156056	0.100068	0.099734	497.758	57063.7	0.093526	0.272746	1824.99	99828.4
158	2.000000	1.158306	7.36659e+06	-46539.1	955.821	-29769.3	0.000000	0.000000	7.179737	517.98	NaN	0.000000	0.001670	0.001713	28.0847	102.343	0.001699	60243.4	7.578519	166.847	513.063	1.158055	0.101984	0.101733	517.98	60243.4	0.095536	0.283212	1828.95	103425
158	2.000000	1.160313	7.36659e+06	-46539.1	955.819	-29769.3	0.000000	0.000000	7.182451	535.196	NaN	0.000000	0.001636	0.001740	28.0839	104.548	0.001704	61368	3.799281	170.662	530.605	1.160062	0.103991	0.103740	535.196	61368	0.097451	0.293355	1824.4	103519
158	2.000000	1.162320	7.36659e+06	-46539.1	955.821	-29769.3	0.000000	0.000000	7.185302	555.711	NaN	0.000000	0.001675	0.001691	28.0841	105.464	0.001752	60206.3	4.562004	170.366	552.428	1.161955	0.105999	0.105633	555.711	60206.3	0.099076	0.302097	1839.51	100079
158	2.000000	1.164349	7.36659e+06	-46539.1	955.821	-29769.3	0.000000	0.000000	7.187784	566.749	NaN	0.000000	0.001660	0.001667	28.0841	110.133	0.001911	57617.3	8.620293	167.048	563.049	1.163896	0.108027	0.107575	566.749	57617.3	0.100650	0.310675	1824.25	94443.7
158	2.000000	1.164899	7.36659e+06	-46539.1	955.821	-29769.3	0.000000	0.000000	7.188267	565.093	NaN	0.000000	0.001670	0.001685	28.1222	108.65	0.001799	60392.6	2.751074	-7.797054	565.399	1.164660	0.108577	0.108338	565.093	60392.6	0.101560	0.315686	1790.05	98204.2