File: remote_trans/data/nanoindenter/0828-1/data/Data_2025-08-06,11h17m57s/2025-07-22_16-23-58_1_1038.txt
2025-07-22, 16:23:58, 1
Index	Phase	Displacement	Time	Pos X	Pos Y	Pos Z	Rot A	Rot B	Piezo Z	Force A	Force B	Gripper	Voltage A	Voltage B	Temperature	Amplitude force	Amplitude pos	Stiffness	Phase shift	Phase excitation	Force A raw	Displacement raw	HMax	HMax raw	Real Force	Real Stiffness	Contact Depth	Area	Hardness	Reduced Mod.
[#]	[#]	[um]	[s]	[um]	[um]	[um]	[m°]	[m°]	[um]	[uN]	[uN]	[V]	[V]	[V]	[°C]	[uN]	[um]	[N/m]	[°]	[°]	[uN]	[um]	[um]	[um]	[uN]	[N/m]	[um]	[um^2]	[MPa]	[MPa]
1038	1.000000	0.002163	7.3752e+06	-52039.1	1055.82	-29750.2	0.000000	0.000000	6.002833	-0.046599	NaN	0.000000	0.001609	0.001796	28.0838	0.088846	0.001000	88.8494	-109.438	-161.561	0.047316	0.000827	-1.155001	-1.156337	-0.046599	88.8494	-1.154607	-2.707590E+15	1.721057E-17	NaN
1038	1.000000	0.012164	7.3752e+06	-52039.1	1055.82	-29750.2	0.000000	0.000000	6.012835	0.008159	NaN	0.000000	0.001618	0.001772	28.0833	0.080914	0.001113	72.7184	-32.7177	15.2337	-0.001793	0.010776	-1.145000	-1.146387	0.008159	72.7184	-1.145084	-2.017962E+15	-4.043030E-18	NaN
1038	1.000000	0.022088	7.3752e+06	-52039.1	1055.82	-29750.2	0.000000	0.000000	6.022758	-0.031783	NaN	0.000000	0.001606	0.001738	28.0833	0.077738	0.001716	45.3036	20.9698	-168.239	0.015841	0.020798	-1.135076	-1.136366	-0.031783	45.3036	-1.134550	-1.457618E+15	2.180452E-17	NaN
1038	1.000000	0.032096	7.3752e+06	-52039.1	1055.82	-29750.2	0.000000	0.000000	6.032765	-0.062448	NaN	0.000000	0.001610	0.001710	28.0835	0.015131	0.001989	7.607204	-55.0309	17.9652	-0.049286	0.030734	-1.125068	-1.126430	-0.062448	7.607204	-1.118911	-8.992112E+14	6.944784E-17	NaN
1038	1.000000	0.042067	7.3752e+06	-52039.1	1055.82	-29750.2	0.000000	0.000000	6.042738	-0.035289	NaN	0.000000	0.001608	0.001724	28.0835	0.029771	0.001918	15.5207	-105.175	-163.744	-0.026398	0.040813	-1.115096	-1.116351	-0.035289	15.5207	-1.113391	-7.582184E+14	4.654218E-17	NaN
1038	1.000000	0.052067	7.3752e+06	-52039.1	1055.82	-29750.2	0.000000	0.000000	6.052738	-0.012758	NaN	0.000000	0.001540	0.001757	28.0828	0.084058	0.001834	45.8302	-63.5907	14.909	-0.017251	0.050778	-1.105097	-1.106386	-0.012758	45.8302	-1.104888	-5.830215E+14	2.188245E-17	NaN
1038	1.000000	0.062093	7.3752e+06	-52039.1	1055.82	-29750.2	0.000000	0.000000	6.062766	0.044345	NaN	0.000000	0.001596	0.001709	28.082	0.086559	0.001897	45.6182	167.682	-168.95	0.078144	0.060766	-1.095071	-1.096397	0.044345	45.6182	-1.095800	-4.402363E+14	-1.007303E-16	NaN
1038	1.000000	0.072083	7.3752e+06	-52039.1	1055.82	-29750.2	0.000000	0.000000	6.072752	-0.071740	NaN	0.000000	0.001597	0.001739	28.0822	0.010450	0.001936	5.397375	119.657	15.8243	0.035025	0.070739	-1.085081	-1.086424	-0.071740	5.397375	-1.075112	-2.321994E+14	3.089594E-16	NaN
1038	1.000000	0.082086	7.3752e+06	-52039.1	1055.82	-29750.2	0.000000	0.000000	6.082759	0.019644	NaN	0.000000	0.001603	0.001729	28.0819	0.081363	0.001929	42.1715	-42.3607	-162.492	0.066039	0.080760	-1.075077	-1.076404	0.019644	42.1715	-1.075427	-2.344718E+14	-8.378087E-17	NaN
1038	1.000000	0.092105	7.3752e+06	-52039.1	1055.82	-29750.2	0.000000	0.000000	6.092776	-0.022470	NaN	0.000000	0.001596	0.001749	28.0822	0.045195	0.001983	22.7935	-104.757	16.5305	-0.047171	0.090736	-1.065059	-1.066428	-0.022470	22.7935	-1.064319	-1.662887E+14	1.351275E-16	NaN
1038	1.000000	0.102101	7.3752e+06	-52039.1	1055.82	-29750.2	0.000000	0.000000	6.102771	-0.055957	NaN	0.000000	0.001578	0.001723	28.0819	0.028134	0.002066	13.619	45.2263	-162.604	0.013717	0.100780	-1.055062	-1.056384	-0.055957	13.619	-1.051981	-1.135119E+14	4.929582E-16	NaN
1038	1.000000	0.112105	7.3752e+06	-52039.1	1055.82	-29750.2	0.000000	0.000000	6.112777	0.016538	NaN	0.000000	0.001598	0.001771	28.0824	0.090646	0.001938	46.7674	73.6803	13.3579	0.081605	0.110734	-1.045059	-1.046430	0.016538	46.7674	-1.045324	-9.237504E+13	-1.790320E-16	NaN
1038	1.000000	0.122089	7.3752e+06	-52039.1	1055.82	-29750.2	0.000000	0.000000	6.122757	-0.071464	NaN	0.000000	0.001632	0.001728	28.0819	0.049121	0.002052	23.9382	147.897	-163.779	-0.033790	0.120780	-1.035075	-1.036384	-0.071464	23.9382	-1.032836	-6.275163E+13	1.138841E-15	NaN
1038	1.000000	0.132101	7.3752e+06	-52039.1	1055.82	-29750.2	0.000000	0.000000	6.132772	0.001280	NaN	0.000000	0.001577	0.001717	28.0821	0.046861	0.002030	23.0894	43.9657	14.2221	-0.031384	0.130753	-1.025063	-1.026411	0.001280	23.0894	-1.025105	-4.938880E+13	-2.591879E-17	NaN
1038	1.000000	0.142110	7.3752e+06	-52039.1	1055.82	-29750.2	0.000000	0.000000	6.142782	0.020069	NaN	0.000000	0.001597	0.001747	28.0818	0.055502	0.001973	28.1308	58.2579	-163.434	0.073106	0.140816	-1.015054	-1.016347	0.020069	28.1308	-1.015589	-3.677923E+13	-5.456745E-16	NaN
1038	1.000000	0.152093	7.3752e+06	-52039.1	1055.82	-29750.2	0.000000	0.000000	6.152764	-0.029317	NaN	0.000000	0.001636	0.001744	28.0823	0.042533	0.002089	20.3565	144.702	12.4377	-0.083757	0.150735	-1.005070	-1.006429	-0.029317	20.3565	-1.003990	-2.567360E+13	1.141918E-15	NaN
1038	1.000000	0.162115	7.3752e+06	-52039.1	1055.82	-29750.2	0.000000	0.000000	6.162785	-0.046012	NaN	0.000000	0.001613	0.001746	28.0818	0.019708	0.001841	10.7028	176.443	-168.589	-0.026525	0.160761	-0.995049	-0.996402	-0.046012	10.7028	-0.991824	-1.760690E+13	2.613305E-15	NaN
1038	1.000000	0.172132	7.3752e+06	-52039.1	1055.82	-29750.2	0.000000	0.000000	6.172804	-0.000636	NaN	0.000000	0.001577	0.001719	28.0817	0.072278	0.002024	35.7084	-153.178	12.854	-0.005889	0.170738	-0.985032	-0.986425	-0.000636	35.7084	-0.985018	-1.425656E+13	4.458577E-17	NaN
1038	1.000000	0.182129	7.3752e+06	-52039.1	1055.82	-29750.2	0.000000	0.000000	6.182800	-0.010735	NaN	0.000000	0.001562	0.001735	28.0818	0.094472	0.002045	46.1932	-128.678	-165.578	-0.096060	0.180808	-0.975034	-0.976356	-0.010735	46.1932	-0.974860	-1.040300E+13	1.031877E-15	NaN
1038	1.000000	0.192149	7.3752e+06	-52039.1	1055.82	-29750.2	0.000000	0.000000	6.192822	0.035918	NaN	0.000000	0.001590	0.001715	28.0833	0.061304	0.002068	29.6433	47.5158	15.088	-0.004907	0.190749	-0.965015	-0.966415	0.035918	29.6433	-0.965924	-7.883553E+12	-4.556109E-15	NaN
1038	1.000000	0.202134	7.3752e+06	-52039.1	1055.82	-29750.2	0.000000	0.000000	6.202805	-0.014382	NaN	0.000000	0.001565	0.001687	28.0828	0.044131	0.002072	21.2967	92.6375	-166.935	0.009658	0.200860	-0.955030	-0.956303	-0.014382	21.2967	-0.954524	-5.533876E+12	2.598813E-15	NaN
1038	1.000000	0.212157	7.3752e+06	-52039.1	1055.82	-29750.2	0.000000	0.000000	6.212827	-0.039456	NaN	0.000000	0.001563	0.001763	28.083	0.032623	0.001917	17.0166	122.016	16.2287	0.013243	0.210790	-0.945007	-0.946374	-0.039456	17.0166	-0.943268	-3.901433E+12	1.011330E-14	NaN
1038	1.000000	0.222153	7.3752e+06	-52039.1	1055.82	-29750.2	0.000000	0.000000	6.222824	-0.020213	NaN	0.000000	0.001638	0.001742	28.0831	0.064468	0.001903	33.8844	116.957	-162.162	0.052672	0.220854	-0.935011	-0.936310	-0.020213	33.8844	-0.934563	-2.977025E+12	6.789608E-15	NaN
1038	1.000000	0.232173	7.3752e+06	-52039.1	1055.82	-29750.2	0.000000	0.000000	6.232843	-0.048109	NaN	0.000000	0.001654	0.001751	28.0832	0.022140	0.001887	11.7339	113.326	14.9483	-0.028059	0.230787	-0.924990	-0.926377	-0.048109	11.7339	-0.921915	-2.009396E+12	2.394181E-14	NaN
1038	1.000000	0.242158	7.3752e+06	-52039.1	1055.82	-29750.2	0.000000	0.000000	6.242828	-0.036705	NaN	0.000000	0.001656	0.001743	28.0827	0.047390	0.001961	24.1663	-140.769	-169.122	0.006093	0.240813	-0.915006	-0.916351	-0.036705	24.1663	-0.913867	-1.564555E+12	2.346004E-14	NaN
1038	1.000000	0.252172	7.3752e+06	-52039.1	1055.82	-29750.2	0.000000	0.000000	6.252841	-0.068674	NaN	0.000000	0.001646	0.001736	28.0831	0.016694	0.002014	8.288852	157.819	16.7285	-0.004676	0.250799	-0.904991	-0.906365	-0.068674	8.288852	-0.898777	-9.784669E+11	7.018554E-14	NaN
1038	1.000000	0.262143	7.3752e+06	-52039.1	1055.82	-29750.2	0.000000	0.000000	6.262815	0.030494	NaN	0.000000	0.001668	0.001735	28.0832	0.123883	0.002078	59.6119	-107.342	-165.918	0.034432	0.260856	-0.895021	-0.896307	0.030494	59.6119	-0.895405	-8.809830E+11	-3.461365E-14	NaN
1038	1.000000	0.272159	7.3752e+06	-52039.1	1055.82	-29750.2	0.000000	0.000000	6.272827	-0.078261	NaN	0.000000	0.001647	0.001726	28.0831	0.059751	0.002021	29.5637	-109.795	14.0941	-0.059614	0.270857	-0.885005	-0.886306	-0.078261	29.5637	-0.883020	-5.991574E+11	1.306186E-13	NaN
1038	1.000000	0.282199	7.3752e+06	-52039.1	1055.82	-29750.2	0.000000	0.000000	6.282870	-0.015253	NaN	0.000000	0.001662	0.001729	28.083	0.065705	0.002008	32.7149	32.5796	-166.114	-0.082656	0.280839	-0.874965	-0.876325	-0.015253	32.7149	-0.874615	-4.611842E+11	3.307320E-14	NaN
1038	1.000000	0.292207	7.3752e+06	-52039.1	1055.82	-29750.2	0.000000	0.000000	6.292876	-0.063743	NaN	0.000000	0.001656	0.001777	28.0831	0.041302	0.001970	20.9669	-45.5831	15.3554	-0.021244	0.290824	-0.864957	-0.866339	-0.063743	20.9669	-0.862677	-3.179434E+11	2.004869E-13	NaN
1038	1.000000	0.302192	7.3752e+06	-52039.1	1055.82	-29750.2	0.000000	0.000000	6.302864	0.014864	NaN	0.000000	0.001657	0.001734	28.0834	0.042048	0.001896	22.1723	146.207	-165.05	0.057956	0.300897	-0.854972	-0.856267	0.014864	22.1723	-0.855475	-2.540190E+11	-5.851376E-14	NaN
1038	1.000000	0.312195	7.3752e+06	-52039.1	1055.82	-29750.2	0.000000	0.000000	6.312867	0.011075	NaN	0.000000	0.001587	0.001714	28.0832	0.093870	0.001933	48.5611	75.8002	15.8456	0.010730	0.310811	-0.844969	-0.846352	0.011075	48.5611	-0.845140	-1.840408E+11	-6.017554E-14	NaN
1038	1.000000	0.322181	7.3752e+06	-52039.1	1055.82	-29750.2	0.000000	0.000000	6.322851	-0.030850	NaN	0.000000	0.001614	0.001725	28.082	0.037233	0.002071	17.9739	87.6307	-161.538	-0.014011	0.320899	-0.834983	-0.836264	-0.030850	17.9739	-0.833695	-1.287854E+11	2.395433E-13	NaN
1038	1.000000	0.332179	7.3752e+06	-52039.1	1055.82	-29750.2	0.000000	0.000000	6.332849	-0.038079	NaN	0.000000	0.001627	0.001737	28.082	0.124537	0.001983	62.8096	-5.308854	15.1735	-0.081907	0.330819	-0.824985	-0.826344	-0.038079	62.8096	-0.824530	-9.674580E+10	3.936013E-13	NaN
1038	1.000000	0.342208	7.3752e+06	-52039.1	1055.82	-29750.2	0.000000	0.000000	6.342878	-0.045234	NaN	0.000000	0.001618	0.001752	28.0821	0.092108	0.002107	43.7057	-168.098	-165.302	-0.027843	0.340848	-0.814956	-0.816316	-0.045234	43.7057	-0.814180	-7.002810E+10	6.459356E-13	NaN
1038	1.000000	0.352201	7.3752e+06	-52039.1	1055.82	-29750.2	0.000000	0.000000	6.352872	-0.014284	NaN	0.000000	0.001613	0.001753	28.082	0.017970	0.001933	9.297707	133.648	14.3882	-0.045758	0.350842	-0.804963	-0.806322	-0.014284	9.297707	-0.803811	-5.065054E+10	2.820166E-13	NaN
1038	1.000000	0.362189	7.3752e+06	-52039.1	1055.82	-29750.2	0.000000	0.000000	6.362860	-0.011875	NaN	0.000000	0.001620	0.001728	28.0822	0.036259	0.002090	17.3497	174.14	-162.221	-0.012247	0.360857	-0.794975	-0.796307	-0.011875	17.3497	-0.794462	-3.781556E+10	3.140258E-13	NaN
1038	1.000000	0.372216	7.3752e+06	-52039.1	1055.82	-29750.2	0.000000	0.000000	6.372889	0.040287	NaN	0.000000	0.001643	0.001723	28.0822	0.024443	0.001867	13.0949	-178.182	16.4057	-0.016192	0.370857	-0.784947	-0.786307	0.040287	13.0949	-0.787255	-3.018546E+10	-1.334641E-12	NaN
1038	1.000000	0.382206	7.3752e+06	-52039.1	1055.82	-29750.2	0.000000	0.000000	6.382876	-0.042584	NaN	0.000000	0.001601	0.001677	28.082	0.055028	0.002053	26.8085	-25.7512	-164.616	-0.030419	0.380895	-0.774958	-0.776269	-0.042584	26.8085	-0.773767	-1.979302E+10	2.151484E-12	NaN
1038	1.000000	0.392230	7.3752e+06	-52039.1	1055.82	-29750.2	0.000000	0.000000	6.392903	0.030188	NaN	0.000000	0.001699	0.001697	28.082	0.074110	0.001949	38.0162	-174.608	15.8742	-0.008869	0.390890	-0.764933	-0.766274	0.030188	38.0162	-0.765529	-1.529354E+10	-1.973897E-12	NaN
1038	1.000000	0.402222	7.3752e+06	-52039.1	1055.82	-29750.2	0.000000	0.000000	6.402892	-0.027530	NaN	0.000000	0.001662	0.001688	28.082	0.107858	0.002069	52.1244	120.5	-167.987	-0.064802	0.400926	-0.754942	-0.756238	-0.027530	52.1244	-0.754546	-1.084147E+10	2.539361E-12	NaN
1038	1.000000	0.412229	7.3752e+06	-52039.1	1055.82	-29750.2	0.000000	0.000000	6.412900	-0.015809	NaN	0.000000	0.001658	0.001745	28.0823	0.093401	0.002036	45.8831	-63.2947	16.1145	-0.044434	0.410891	-0.744935	-0.746273	-0.015809	45.8831	-0.744676	-7.956860E+9	1.986867E-12	NaN
1038	1.000000	0.422230	7.3752e+06	-52039.1	1055.82	-29750.2	0.000000	0.000000	6.422902	0.019421	NaN	0.000000	0.001621	0.001702	28.0821	0.041972	0.002045	20.5199	-34.7489	-165.337	-0.058698	0.420913	-0.734934	-0.736251	0.019421	20.5199	-0.735643	-5.993897E+9	-3.240071E-12	NaN
1038	1.000000	0.432250	7.3752e+06	-52039.1	1055.82	-29750.2	0.000000	0.000000	6.432921	0.004692	NaN	0.000000	0.001657	0.001701	28.0822	0.165775	0.001917	86.46	-173.684	15.2128	-0.040378	0.430896	-0.724914	-0.726267	0.004692	86.46	-0.724955	-4.285841E+9	-1.094654E-12	NaN
1038	1.000000	0.442246	7.3752e+06	-52039.1	1055.82	-29750.2	0.000000	0.000000	6.442919	0.037700	NaN	0.000000	0.001654	0.001715	28.0821	0.143862	0.001946	73.9461	109.238	-161.469	0.037693	0.440885	-0.714918	-0.716279	0.037700	73.9461	-0.715300	-3.164939E+9	-1.191176E-11	NaN
1038	1.000000	0.452249	7.3752e+06	-52039.1	1055.82	-29750.2	0.000000	0.000000	6.452921	0.010993	NaN	0.000000	0.001658	0.001739	28.0822	0.076929	0.002023	38.0312	68.8048	18.9027	0.013166	0.450854	-0.704915	-0.706310	0.010993	38.0312	-0.705131	-2.299291E+9	-4.780960E-12	NaN
1038	1.000000	0.462274	7.3752e+06	-52039.1	1055.82	-29750.2	0.000000	0.000000	6.462945	-0.022250	NaN	0.000000	0.001626	0.001725	28.0832	0.029322	0.001994	14.7074	-22.641	-164.373	-0.065171	0.460941	-0.694889	-0.696223	-0.022250	14.7074	-0.693755	-1.607770E+9	1.383917E-11	NaN
1038	1.000000	0.472247	7.3752e+06	-52039.1	1055.82	-29750.2	0.000000	0.000000	6.472918	-0.008109	NaN	0.000000	0.001658	0.001727	28.0831	0.057770	0.001923	30.0393	-73.4136	13.7442	-0.037713	0.470952	-0.684917	-0.686212	-0.008109	30.0393	-0.684714	-1.209672E+9	6.703328E-12	NaN
1038	1.000000	0.482259	7.3752e+06	-52039.1	1055.82	-29750.2	0.000000	0.000000	6.482930	-0.011883	NaN	0.000000	0.001648	0.001743	28.0834	0.015833	0.002019	7.841577	115.81	-165.96	-0.016319	0.480924	-0.674904	-0.676239	-0.011883	7.841577	-0.673768	-8.569468E+8	1.386617E-11	NaN
1038	1.000000	0.492258	7.3752e+06	-52039.1	1055.82	-29750.2	0.000000	0.000000	6.492930	0.005250	NaN	0.000000	0.001618	0.001679	28.0832	0.056411	0.001993	28.3009	139.593	12.7172	0.088585	0.490887	-0.664905	-0.666277	0.005250	28.3009	-0.665045	-6.509576E+8	-8.064424E-12	NaN
1038	1.000000	0.502285	7.3752e+06	-52039.1	1055.82	-29750.2	0.000000	0.000000	6.502954	-0.078333	NaN	0.000000	0.001614	0.001715	28.0832	0.039266	0.002122	18.5028	114.204	-163.777	-0.071017	0.500960	-0.654878	-0.656204	-0.078333	18.5028	-0.651703	-4.273497E+8	1.832987E-10	NaN
1038	1.000000	0.512277	7.3752e+06	-52039.1	1055.82	-29750.2	0.000000	0.000000	6.512950	0.021636	NaN	0.000000	0.001565	0.001702	28.0832	0.065425	0.001915	34.1579	-75.3414	14.2837	0.040500	0.510899	-0.644887	-0.646265	0.021636	34.1579	-0.645362	-3.498149E+8	-6.185124E-11	NaN
1038	1.000000	0.522284	7.3752e+06	-52039.1	1055.82	-29750.2	0.000000	0.000000	6.522954	-0.038607	NaN	0.000000	0.001584	0.001676	28.0834	0.051613	0.002009	25.6891	21.8077	-165.788	-0.038077	0.520950	-0.634879	-0.636214	-0.038607	25.6891	-0.633752	-2.424062E+8	1.592646E-10	NaN
1038	1.000000	0.532258	7.3752e+06	-52039.1	1055.82	-29750.2	0.000000	0.000000	6.532932	0.065256	NaN	0.000000	0.001591	0.001697	28.0831	0.117414	0.002115	55.5039	137.712	13.3384	-0.031235	0.530903	-0.624906	-0.626261	0.065256	55.5039	-0.625787	-1.884348E+8	-3.463031E-10	NaN
1038	1.000000	0.542293	7.3752e+06	-52039.1	1055.82	-29750.2	0.000000	0.000000	6.542963	-0.049998	NaN	0.000000	0.001576	0.001710	28.0831	0.062545	0.002041	30.6435	148.239	-164.957	-0.080417	0.540938	-0.614871	-0.616226	-0.049998	30.6435	-0.613647	-1.283161E+8	3.896455E-10	NaN
1038	1.000000	0.552291	7.3752e+06	-52039.1	1055.82	-29750.2	0.000000	0.000000	6.552962	-0.029484	NaN	0.000000	0.001506	0.001722	28.0832	0.118840	0.002077	57.2085	85.4559	14.2632	1.438796E-5	0.550949	-0.604872	-0.606215	-0.029484	57.2085	-0.604486	-9.598981E+7	3.071580E-10	NaN
1038	1.000000	0.562290	7.3752e+06	-52039.1	1055.82	-29750.2	0.000000	0.000000	6.562961	-0.019638	NaN	0.000000	0.001535	0.001712	28.0834	0.023385	0.001902	12.2968	-83.8882	-165.332	-0.047723	0.560990	-0.594874	-0.596174	-0.019638	12.2968	-0.593676	-6.812998E+7	2.882404E-10	NaN
1038	1.000000	0.572296	7.3752e+06	-52039.1	1055.82	-29750.2	0.000000	0.000000	6.572966	-0.030686	NaN	0.000000	0.001593	0.001695	28.0833	0.021649	0.001965	11.0152	135.382	15.9961	0.000925	0.570954	-0.584868	-0.586209	-0.030686	11.0152	-0.582778	-4.820195E+7	6.366148E-10	NaN
1038	1.000000	0.582321	7.3752e+06	-52039.1	1055.82	-29750.2	0.000000	0.000000	6.582991	-0.034481	NaN	0.000000	0.001588	0.001697	28.0833	0.016038	0.002027	7.913758	133.198	-167.719	0.027732	0.580969	-0.574842	-0.576195	-0.034481	7.913758	-0.571575	-3.375875E+7	1.021403E-9	NaN
1038	1.000000	0.592291	7.3752e+06	-52039.1	1055.82	-29750.2	0.000000	0.000000	6.592961	-0.047355	NaN	0.000000	0.001565	0.001713	28.0828	0.033455	0.002111	15.8459	-92.0534	13.5361	-0.017756	0.590949	-0.564873	-0.566214	-0.047355	15.8459	-0.562631	-2.539652E+7	1.864638E-9	NaN
1038	1.000000	0.602285	7.3752e+06	-52039.1	1055.82	-29750.2	0.000000	0.000000	6.602957	-0.000385	NaN	0.000000	0.001589	0.001722	28.082	0.075440	0.001913	39.426	-36.0031	-164.894	0.047365	0.600995	-0.554878	-0.556169	-0.000385	39.426	-0.554871	-1.983369E+7	1.943303E-11	NaN
1038	1.000000	0.612309	7.3752e+06	-52039.1	1055.82	-29750.2	0.000000	0.000000	6.612980	-0.026485	NaN	0.000000	0.001573	0.001704	28.0821	0.014730	0.002038	7.228823	-104.282	16.7839	0.032627	0.610948	-0.544854	-0.546216	-0.026485	7.228823	-0.542106	-1.319977E+7	2.006510E-9	NaN
1038	1.000000	0.622310	7.3752e+06	-52039.1	1055.82	-29750.2	0.000000	0.000000	6.622979	-0.041738	NaN	0.000000	0.001592	0.001671	28.082	0.043347	0.002018	21.4753	49.9312	-163.395	-0.106717	0.620974	-0.534854	-0.536190	-0.041738	21.4753	-0.533396	-9.99386e+06	4.176346E-9	NaN
1038	1.000000	0.632343	7.3752e+06	-52039.1	1055.82	-29750.2	0.000000	0.000000	6.633015	0.016231	NaN	0.000000	0.001555	0.001727	28.0821	0.015370	0.001906	8.062559	25.1303	14.0658	0.036384	0.630972	-0.524821	-0.526192	0.016231	8.062559	-0.526331	-7.97264e+06	-2.035869E-9	NaN
1038	1.000000	0.642323	7.3752e+06	-52039.1	1055.82	-29750.2	0.000000	0.000000	6.642994	-0.014331	NaN	0.000000	0.001543	0.001714	28.082	0.045942	0.002046	22.4584	100.463	-167.242	-0.031753	0.641014	-0.514840	-0.516150	-0.014331	22.4584	-0.514362	-5.4344e+06	2.637097E-9	NaN
1038	1.000000	0.652338	7.3752e+06	-52039.1	1055.82	-29750.2	0.000000	0.000000	6.653008	-0.034332	NaN	0.000000	0.001563	0.001711	28.082	0.045443	0.002064	22.0161	-81.0513	12.5389	-0.096845	0.650982	-0.504826	-0.506182	-0.034332	22.0161	-0.503656	-3.85485e+06	8.906061E-9	NaN
1038	1.000000	0.662340	7.3752e+06	-52039.1	1055.82	-29750.2	0.000000	0.000000	6.663007	-0.103160	NaN	0.000000	0.001553	0.001706	28.0821	0.041119	0.001991	20.6529	-102.676	-164.809	-0.001899	0.661043	-0.494824	-0.496120	-0.103160	20.6529	-0.491078	-2.57309e+06	4.009175E-8	NaN
1038	1.000000	0.672363	7.3752e+06	-52039.1	1055.82	-29750.2	0.000000	0.000000	6.673035	0.019699	NaN	0.000000	0.001531	0.001708	28.0823	0.084306	0.001985	42.4636	64.0232	13.3871	0.044515	0.670992	-0.484801	-0.486172	0.019699	42.4636	-0.485149	-2.12604e+06	-9.265425E-9	NaN
1038	1.000000	0.682333	7.3752e+06	-52039.1	1055.82	-29750.2	0.000000	0.000000	6.683005	0.006135	NaN	0.000000	0.001567	0.001715	28.0819	0.061330	0.001981	30.9595	-34.2456	-165.103	0.004286	0.681047	-0.474831	-0.476117	0.006135	30.9595	-0.474979	-1.53183e+06	-4.004730E-9	NaN
1038	1.000000	0.692356	7.3752e+06	-52039.1	1055.82	-29750.2	0.000000	0.000000	6.693027	0.002281	NaN	0.000000	0.001552	0.001754	28.082	0.037938	0.001979	19.1741	31.3543	15.5608	-0.029307	0.690983	-0.464808	-0.466180	0.002281	19.1741	-0.464897	-1.10613e+06	-2.062317E-9	NaN
1038	1.000000	0.702334	7.3752e+06	-52039.1	1055.82	-29750.2	0.000000	0.000000	6.703005	-0.022506	NaN	0.000000	0.001585	0.001725	28.0818	0.073150	0.002107	34.7251	-138.549	-164.327	-0.025997	0.701095	-0.454830	-0.456069	-0.022506	34.7251	-0.454343	-786104	2.862995E-8	NaN
1038	1.000000	0.712337	7.3752e+06	-52039.1	1055.82	-29750.2	0.000000	0.000000	6.713006	-0.061882	NaN	0.000000	0.001602	0.001723	28.0819	0.050048	0.001911	26.1914	44.4427	16.3994	-0.051420	0.711003	-0.444827	-0.446160	-0.061882	26.1914	-0.443055	-545079	1.135287E-7	NaN
1038	1.000000	0.722358	7.3752e+06	-52039.1	1055.82	-29750.2	0.000000	0.000000	6.723028	-0.045731	NaN	0.000000	0.001605	0.001709	28.0818	0.049458	0.002046	24.1715	-147.412	-163.694	-0.082480	0.721049	-0.434806	-0.436115	-0.045731	24.1715	-0.433387	-398066	1.148831E-7	NaN
1038	1.000000	0.732368	7.3752e+06	-52039.1	1055.82	-29750.2	0.000000	0.000000	6.733040	0.008826	NaN	0.000000	0.001558	0.001732	28.0833	0.008053	0.002008	4.011034	124.226	11.3256	-0.010373	0.730994	-0.424796	-0.426170	0.008826	4.011034	-0.426446	-317517	-2.779713E-8	NaN
1038	1.000000	0.742385	7.3752e+06	-52039.1	1055.82	-29750.2	0.000000	0.000000	6.743057	-0.007772	NaN	0.000000	0.001621	0.001727	28.0833	0.164682	0.001896	86.879	31.1646	-164.95	-0.122911	0.741048	-0.414778	-0.416116	-0.007772	86.879	-0.414711	-216449	3.590799E-8	NaN
1038	1.000000	0.752367	7.3752e+06	-52039.1	1055.82	-29750.2	0.000000	0.000000	6.753039	0.011976	NaN	0.000000	0.001594	0.001681	28.0832	0.060237	0.001937	31.1044	-4.208910	14.0893	-0.002312	0.751033	-0.404797	-0.406131	0.011976	31.1044	-0.405086	-157932	-7.583114E-8	NaN
1038	1.000000	0.762358	7.3752e+06	-52039.1	1055.82	-29750.2	0.000000	0.000000	6.763026	-0.078039	NaN	0.000000	0.001584	0.001680	28.0831	0.070100	0.002091	33.5197	27.9849	-166.302	-0.070694	0.761119	-0.394806	-0.396044	-0.078039	33.5197	-0.393059	-106393	7.334971E-7	NaN
1038	1.000000	0.772343	7.3752e+06	-52039.1	1055.82	-29750.2	0.000000	0.000000	6.773015	0.013607	NaN	0.000000	0.001600	0.001704	28.0832	0.071502	0.001941	36.8467	86.8181	12.478	-0.002351	0.771028	-0.384821	-0.386136	0.013607	36.8467	-0.385097	-81843.3	-1.662570E-7	NaN
1038	1.000000	0.782378	7.3752e+06	-52039.1	1055.82	-29750.2	0.000000	0.000000	6.783051	0.045176	NaN	0.000000	0.001569	0.001694	28.0833	0.062858	0.001858	33.8387	-63.149	-166.229	0.047452	0.781076	-0.374786	-0.376088	0.045176	33.8387	-0.375787	-60170.4	-7.507966E-7	NaN
1038	1.000000	0.792379	7.3752e+06	-52039.1	1055.82	-29750.2	0.000000	0.000000	6.793047	-0.072910	NaN	0.000000	0.001568	0.001703	28.0832	0.074433	0.001994	37.3218	169.227	14.4124	-0.039990	0.791012	-0.364785	-0.366152	-0.072910	37.3218	-0.363320	-39792.7	1.832242E-6	NaN
1038	1.000000	0.802407	7.3752e+06	-52039.1	1055.82	-29750.2	0.000000	0.000000	6.803079	0.006036	NaN	0.000000	0.001569	0.001697	28.0832	0.066453	0.002015	32.9836	116.111	-169.191	-0.017186	0.801094	-0.354756	-0.356069	0.006036	32.9836	-0.354894	-30057.7	-2.008024E-7	NaN
1038	1.000000	0.812409	7.3752e+06	-52039.1	1055.82	-29750.2	0.000000	0.000000	6.813079	-0.055067	NaN	0.000000	0.001618	0.001716	28.0832	0.080919	0.002010	40.2585	-74.7515	16.245	-0.069535	0.811012	-0.344754	-0.346151	-0.055067	40.2585	-0.343729	-20694.7	2.660901E-6	NaN
1038	1.000000	0.822406	7.3752e+06	-52039.1	1055.82	-29750.2	0.000000	0.000000	6.823077	-0.018633	NaN	0.000000	0.001604	0.001667	28.0832	0.050972	0.001917	26.5885	-160.099	-167.133	-0.051247	0.821055	-0.334758	-0.336108	-0.018633	26.5885	-0.334232	-15044.1	1.238525E-6	NaN
1038	1.000000	0.832415	7.3752e+06	-52039.1	1055.82	-29750.2	0.000000	0.000000	6.833088	0.025997	NaN	0.000000	0.001588	0.001654	28.0831	0.047685	0.002086	22.8545	-83.5002	14.6831	0.136170	0.831006	-0.324749	-0.326158	0.025997	22.8545	-0.325602	-11245.3	-2.311773E-6	NaN
1038	1.000000	0.842426	7.3752e+06	-52039.1	1055.82	-29750.2	0.000000	0.000000	6.843095	-0.068048	NaN	0.000000	0.001596	0.001697	28.0834	0.047634	0.001969	24.1881	135.581	-165.775	-0.036081	0.841136	-0.314738	-0.316028	-0.068048	24.1881	-0.312628	-7242.96	9.395041E-6	NaN
1038	1.000000	0.852386	7.3752e+06	-52039.1	1055.82	-29750.2	0.000000	0.000000	6.853056	-0.040450	NaN	0.000000	0.001594	0.001710	28.0835	0.129785	0.001896	68.4626	11.285	14.2667	-0.122412	0.851037	-0.304778	-0.306126	-0.040450	68.4626	-0.304335	-5458.59	7.410361E-6	NaN
1038	1.000000	0.862422	7.3752e+06	-52039.1	1055.82	-29750.2	0.000000	0.000000	6.863091	-0.081742	NaN	0.000000	0.001580	0.001694	28.0833	0.064344	0.001969	32.6857	9.579934	-164.841	-0.044981	0.861119	-0.294741	-0.296044	-0.081742	32.6857	-0.292866	-3682.95	2.219481E-5	NaN
1038	1.000000	0.872427	7.3752e+06	-52039.1	1055.82	-29750.2	0.000000	0.000000	6.873099	0.013073	NaN	0.000000	0.001592	0.001743	28.0821	0.034004	0.001800	18.8921	70.987	14.5958	0.062142	0.871113	-0.284737	-0.286051	0.013073	18.8921	-0.285256	-2832.13	-4.616122E-6	NaN
1038	1.000000	0.882441	7.3752e+06	-52039.1	1055.82	-29750.2	0.000000	0.000000	6.883113	-0.001311	NaN	0.000000	0.001623	0.001711	28.0821	0.097775	0.002033	48.0903	55.1259	-162.997	-0.016714	0.881066	-0.274723	-0.276098	-0.001311	48.0903	-0.274702	-1962.87	6.679056E-7	NaN
1038	1.000000	0.892406	7.3752e+06	-52039.1	1055.82	-29750.2	0.000000	0.000000	6.893078	0.004813	NaN	0.000000	0.001568	0.001707	28.0821	0.088129	0.002050	42.9849	-32.8429	13.2558	-0.076661	0.890991	-0.264758	-0.266173	0.004813	42.9849	-0.264842	-1389.87	-3.463229E-6	NaN
1038	1.000000	0.902414	7.3752e+06	-52039.1	1055.82	-29750.2	0.000000	0.000000	6.903082	-0.097005	NaN	0.000000	0.001570	0.001708	28.0821	0.067409	0.001906	35.3697	130.263	-165.289	-0.049436	0.901138	-0.254750	-0.256026	-0.097005	35.3697	-0.252693	-904.816	0.000107	NaN
1038	1.000000	0.912453	7.3752e+06	-52039.1	1055.82	-29750.2	0.000000	0.000000	6.913126	0.030030	NaN	0.000000	0.001592	0.001721	28.0821	0.099473	0.001944	51.1706	-76.6747	16.1152	0.022571	0.911046	-0.244711	-0.246117	0.030030	51.1706	-0.245151	-691.508	-4.342639E-5	NaN
1038	1.000000	0.922424	7.3752e+06	-52039.1	1055.82	-29750.2	0.000000	0.000000	6.923095	-0.022895	NaN	0.000000	0.001549	0.001723	28.0823	0.008563	0.002086	4.105653	70.2225	-163.616	-0.020351	0.921223	-0.234740	-0.235941	-0.022895	4.105653	-0.230557	-408.617	5.603071E-5	NaN
1038	1.000000	0.932431	7.3752e+06	-52039.1	1055.82	-29750.2	0.000000	0.000000	6.933100	-0.057551	NaN	0.000000	0.001575	0.001729	28.0823	0.039694	0.002099	18.9131	14.1759	15.7804	-0.002263	0.931085	-0.224732	-0.226079	-0.057551	18.9131	-0.222450	-303.931	0.000189	NaN
1038	1.000000	0.942446	7.3752e+06	-52039.1	1055.82	-29750.2	0.000000	0.000000	6.943118	0.015619	NaN	0.000000	0.001594	0.001692	28.0823	0.068756	0.001944	35.3602	62.3748	-163.605	-0.074035	0.941191	-0.214717	-0.215973	0.015619	35.3602	-0.215049	-231.365	-6.750924E-5	NaN
1038	1.000000	0.952453	7.3752e+06	-52039.1	1055.82	-29750.2	0.000000	0.000000	6.953125	0.004242	NaN	0.000000	0.001552	0.001730	28.0823	0.036266	0.001951	18.5896	-123.711	15.1558	0.067867	0.951090	-0.204711	-0.206074	0.004242	18.5896	-0.204882	-158.355	-2.679027E-5	NaN
1038	1.000000	0.962462	7.3752e+06	-52039.1	1055.82	-29750.2	0.000000	0.000000	6.963131	-0.065568	NaN	0.000000	0.001611	0.001722	28.0824	0.111776	0.001893	59.0604	20.6282	-169.604	-0.003649	0.961174	-0.194702	-0.195990	-0.065568	59.0604	-0.193869	-104.34	0.000628	NaN
1038	1.000000	0.972468	7.3752e+06	-52039.1	1055.82	-29750.2	0.000000	0.000000	6.973138	-0.031260	NaN	0.000000	0.001600	0.001716	28.0824	0.060254	0.001995	30.2032	-177.237	14.943	-0.071700	0.971115	-0.184696	-0.186049	-0.031260	30.2032	-0.183920	-71.1057	0.000440	NaN
1038	1.000000	0.982457	7.3752e+06	-52039.1	1055.82	-29750.2	0.000000	0.000000	6.983126	-0.059572	NaN	0.000000	0.001576	0.001724	28.0824	0.114058	0.002042	55.8691	-128.654	-165.8	-0.027760	0.981196	-0.174707	-0.175968	-0.059572	55.8691	-0.173908	-47.994	0.001241	NaN
1038	1.000000	0.992477	7.3752e+06	-52039.1	1055.82	-29750.2	0.000000	0.000000	6.993145	-0.084744	NaN	0.000000	0.001534	0.001689	28.0829	0.094094	0.002102	44.766	-50.6736	15.9269	-0.110879	0.991115	-0.164686	-0.166049	-0.084744	44.766	-0.163267	-31.3189	0.002706	NaN
1038	1.000000	1.002494	7.37521e+06	-52039.1	1055.82	-29750.2	0.000000	0.000000	7.003164	-0.041212	NaN	0.000000	0.001552	0.001685	28.0832	0.044224	0.002003	22.0824	112.522	-163.479	-0.014119	1.001143	-0.154670	-0.156020	-0.041212	22.0824	-0.153270	-20.7672	0.001984	NaN
1038	1.000000	1.012479	7.37521e+06	-52039.1	1055.82	-29750.2	0.000000	0.000000	7.013150	-0.016231	NaN	0.000000	0.001626	0.001693	28.0835	0.020974	0.001943	10.7944	-121.823	15.1542	0.120084	1.011128	-0.144684	-0.146036	-0.016231	10.7944	-0.143557	-13.785	0.001177	NaN
1038	1.000000	1.022468	7.37521e+06	-52039.1	1055.82	-29750.2	0.000000	0.000000	7.023137	-0.045998	NaN	0.000000	0.001561	0.001799	28.0835	0.060844	0.002044	29.7606	-174.483	-167.871	-0.024651	1.021147	-0.134696	-0.136017	-0.045998	29.7606	-0.133537	-8.918384	0.005158	NaN
1038	1.000000	1.032462	7.37521e+06	-52039.1	1055.82	-29750.2	0.000000	0.000000	7.033133	-0.022739	NaN	0.000000	0.001595	0.001713	28.0835	0.021949	0.001942	11.3049	98.9036	11.6244	-0.049041	1.031073	-0.124702	-0.126091	-0.022739	11.3049	-0.123193	-5.599097	0.004061	NaN
1038	1.000000	1.042528	7.37521e+06	-52039.1	1055.82	-29750.2	0.000000	0.000000	7.043200	0.004285	NaN	0.000000	0.001633	0.001699	28.0833	0.058615	0.002046	28.6518	-32.8202	-165.653	0.043870	1.041177	-0.114635	-0.115987	0.004285	28.6518	-0.114748	-3.774844	-0.001135	NaN
1038	1.000000	1.052492	7.37521e+06	-52039.1	1055.82	-29750.2	0.000000	0.000000	7.053161	-0.042415	NaN	0.000000	0.001632	0.001756	28.0834	0.023399	0.001993	11.7431	-131.535	17.2907	-0.004644	1.051145	-0.104672	-0.106018	-0.042415	11.7431	-0.101963	-2.018668	0.021012	NaN
1038	1.000000	1.062485	7.37521e+06	-52039.1	1055.82	-29750.2	0.000000	0.000000	7.063155	-0.028810	NaN	0.000000	0.001655	0.001694	28.0836	0.045167	0.001950	23.1672	-44.6066	-167.5	-0.024692	1.061149	-0.094679	-0.096015	-0.028810	23.1672	-0.093746	-1.320534	0.021817	NaN
1038	1.000000	1.072510	7.37521e+06	-52039.1	1055.82	-29750.2	0.000000	0.000000	7.073182	-0.004217	NaN	0.000000	0.001666	0.001738	28.0834	0.084309	0.001967	42.8568	76.4345	13.9237	-0.038074	1.071141	-0.084653	-0.086023	-0.004217	42.8568	-0.084580	-0.802586	0.005254	NaN
1038	1.000000	1.082502	7.37521e+06	-52039.1	1055.82	-29750.2	0.000000	0.000000	7.083176	0.067308	NaN	0.000000	0.001671	0.001736	28.0834	0.017958	0.002098	8.560090	-17.4388	-163.183	0.003156	1.081178	-0.074662	-0.075986	0.067308	8.560090	-0.080559	-0.639216	-0.105298	NaN
1038	1.000000	1.092488	7.37521e+06	-52039.1	1055.82	-29750.2	0.000000	0.000000	7.093158	-0.025137	NaN	0.000000	0.001655	0.001741	28.0835	0.100458	0.002114	47.5135	-113.324	13.7638	-0.036431	1.091152	-0.064676	-0.066011	-0.025137	47.5135	-0.064279	-0.237977	0.105629	NaN
1038	1.000000	1.102525	7.37521e+06	-52039.1	1055.82	-29750.2	0.000000	0.000000	7.103197	0.000593	NaN	0.000000	0.001619	0.001717	28.0836	0.094822	0.001958	48.4299	5.067153	-165.396	-0.028926	1.101160	-0.054639	-0.056003	0.000593	48.4299	-0.054648	-0.125726	-0.004718	NaN
1038	1.000000	1.112512	7.37521e+06	-52039.1	1055.82	-29750.2	0.000000	0.000000	7.113183	-0.015578	NaN	0.000000	0.001628	0.001721	28.0835	0.117481	0.001983	59.2373	109.594	17.7569	0.022506	1.111164	-0.044652	-0.046000	-0.015578	59.2373	-0.044454	-0.061845	0.251889	NaN
1038	1.000000	1.122523	7.37521e+06	-52039.1	1055.82	-29750.2	0.000000	0.000000	7.123194	-0.009263	NaN	0.000000	0.001676	0.001726	28.0834	0.064139	0.002221	28.8802	106.816	-166.284	-0.004388	1.121229	-0.034641	-0.035935	-0.009263	28.8802	-0.034401	-0.030752	0.301211	NaN
1038	1.000000	1.132513	7.37521e+06	-52039.1	1055.82	-29750.2	0.000000	0.000000	7.133182	-0.077756	NaN	0.000000	0.001642	0.001735	28.0834	0.024620	0.002079	11.8423	-95.8212	16.0839	-0.075955	1.131131	-0.024650	-0.026032	-0.077756	11.8423	-0.019726	-0.012361	6.290574	NaN
1038	1.000000	1.142519	7.37521e+06	-52039.1	1055.82	-29750.2	0.000000	0.000000	7.143190	-0.008385	NaN	0.000000	0.001654	0.001711	28.082	0.040170	0.002096	19.1653	41.6403	-164.046	0.033158	1.141180	-0.014645	-0.015984	-0.008385	19.1653	-0.014317	-0.008870	0.945318	NaN
1038	1.000000	1.152494	7.37521e+06	-52039.1	1055.82	-29750.2	0.000000	0.000000	7.153170	0.107123	NaN	0.000000	0.001635	0.001680	28.0823	0.143663	0.001912	75.1299	26.5358	14.9575	0.014534	1.151164	-0.004670	-0.006000	0.107123	75.1299	-0.005739	-0.003876	-27.6345	NaN
1038	1.000000	1.162413	7.37521e+06	-52039.1	1055.82	-29750.2	0.000000	0.000000	7.163462	9.177773	NaN	0.000000	0.001652	0.001703	28.0822	8.060310	0.001639	4919.32	5.290519	-167.159	7.295731	1.161202	0.005249	0.004039	9.177773	4919.32	0.003850	0.003107	2953.43	80625.6
1038	2.000000	1.165590	7.37521e+06	-52039.1	1055.82	-29750.2	0.000000	0.000000	7.166830	13.8259	NaN	0.000000	0.001657	0.001698	28.0832	11.6006	0.001595	7272.46	7.921679	5.542117	12.4851	1.165183	0.008426	0.008019	13.8259	7272.46	0.007000	0.006034	2291.36	85537
1038	2.000000	1.168038	7.37521e+06	-52039.1	1055.82	-29750.2	0.000000	0.000000	7.169448	17.9539	NaN	0.000000	0.001666	0.001692	28.0821	14.3471	0.001623	8842.29	8.997891	-178.657	17.4833	1.167716	0.010875	0.010553	17.9539	8842.29	0.009352	0.008470	2119.69	87780
1038	2.000000	1.170509	7.37521e+06	-52039.1	1055.82	-29750.2	0.000000	0.000000	7.172012	20.2296	NaN	0.000000	0.001683	0.001697	28.0819	16.5957	0.001715	9674.25	3.635836	6.855425	18.6005	1.170223	0.013345	0.013059	20.2296	9674.25	0.011777	0.011223	1802.44	83431
1038	2.000000	1.173028	7.37521e+06	-52039.1	1055.82	-29750.2	0.000000	0.000000	7.174726	24.9405	NaN	0.000000	0.001633	0.001744	28.0821	19.5796	0.001788	10948.1	6.396057	-177.193	24.4664	1.172725	0.015865	0.015561	24.9405	10948.1	0.014156	0.014176	1759.3	84009.6
1038	2.000000	1.175515	7.37521e+06	-52039.1	1055.82	-29750.2	0.000000	0.000000	7.177505	32.0599	NaN	0.000000	0.001620	0.001776	28.0826	21.8027	0.001727	12626.9	5.411280	3.771108	31.3041	1.175124	0.018351	0.017961	32.0599	12626.9	0.016447	0.017263	1857.09	87802
1038	2.000000	1.177969	7.37521e+06	-52039.1	1055.82	-29750.2	0.000000	0.000000	7.180209	38.1343	NaN	0.000000	0.001646	0.001769	28.0821	24.2272	0.001767	13708.6	7.582876	-179.014	36.4942	1.177638	0.020805	0.020475	38.1343	13708.6	0.018719	0.020569	1853.96	87329
1038	2.000000	1.180438	7.37521e+06	-52039.1	1055.82	-29750.2	0.000000	0.000000	7.182991	45.7425	NaN	0.000000	0.001656	0.001777	28.0821	27.5174	0.001924	14301.7	6.861387	1.230590	42.741	1.180138	0.023274	0.022974	45.7425	14301.7	0.020876	0.023937	1910.95	84455.3
1038	2.000000	1.182965	7.37521e+06	-52039.1	1055.82	-29750.2	0.000000	0.000000	7.185825	53.2066	NaN	0.000000	0.001635	0.001809	28.0823	29.3519	0.001677	17503.9	0.219178	-175.392	51.0517	1.182672	0.025802	0.025508	53.2066	17503.9	0.023522	0.028381	1874.7	94927.3
1038	2.000000	1.185469	7.37521e+06	-52039.1	1055.82	-29750.2	0.000000	0.000000	7.188843	65.7191	NaN	0.000000	0.001631	0.001754	28.082	32.2302	0.001888	17067.4	6.746174	0.106681	63.7941	1.185123	0.028305	0.027959	65.7191	17067.4	0.025417	0.031778	2068.05	87473.1
1038	2.000000	1.187957	7.37521e+06	-52039.1	1055.82	-29750.2	0.000000	0.000000	7.191649	73.4469	NaN	0.000000	0.001640	0.001784	28.0822	34.0851	0.001756	19414.5	6.407706	179.155	71.571	1.187612	0.030793	0.030448	73.4469	19414.5	0.027956	0.036613	2006.04	92700.5
1038	2.000000	1.190430	7.37521e+06	-52039.1	1055.82	-29750.2	0.000000	0.000000	7.194453	81.479	NaN	0.000000	0.001670	0.001753	28.082	37.7849	0.001848	20443.1	6.221253	-1.661265	79.8476	1.190225	0.033267	0.033062	81.479	20443.1	0.030277	0.041320	1971.88	91883.5
1038	2.000000	1.192977	7.37521e+06	-52039.1	1055.82	-29750.2	0.000000	0.000000	7.197414	91.5787	NaN	0.000000	0.001659	0.001770	28.0834	39.6748	0.001703	23295.4	4.527224	178.22	91.9618	1.192652	0.035813	0.035489	91.5787	23295.4	0.032864	0.046890	1953.05	98288.3
1038	2.000000	1.195446	7.37521e+06	-52039.1	1055.82	-29750.2	0.000000	0.000000	7.200340	102.671	NaN	0.000000	0.001629	0.001778	28.0833	41.7841	0.001798	23236.9	3.876216	-0.187899	100.342	1.195158	0.038283	0.037994	102.671	23236.9	0.034969	0.051673	1986.93	93394
1038	2.000000	1.197913	7.37521e+06	-52039.1	1055.82	-29750.2	0.000000	0.000000	7.203255	113.562	NaN	0.000000	0.001638	0.001802	28.0833	44.1171	0.001828	24135.2	1.779454	-178.798	111.754	1.197686	0.040750	0.040523	113.562	24135.2	0.037221	0.057043	1990.8	92325.5
1038	2.000000	1.200458	7.37521e+06	-52039.1	1055.82	-29750.2	0.000000	0.000000	7.206248	124.44	NaN	0.000000	0.001655	0.001785	28.0832	47.1685	0.001754	26890.2	7.231260	-5.405883	124.225	1.200103	0.043295	0.042939	124.44	26890.2	0.039824	0.063574	1957.41	97437.8
1038	2.000000	1.202907	7.37521e+06	-52039.1	1055.82	-29750.2	0.000000	0.000000	7.209226	137.315	NaN	0.000000	0.001644	0.001754	28.0833	49.3848	0.001742	28354.1	4.079417	176.468	134.579	1.202642	0.045743	0.045478	137.315	28354.1	0.042111	0.069597	1972.99	98195.7
1038	2.000000	1.205388	7.37521e+06	-52039.1	1055.82	-29750.2	0.000000	0.000000	7.212207	149.47	NaN	0.000000	0.001669	0.001792	28.0833	50.7183	0.001780	28490.1	2.992719	-1.155405	144.302	1.205079	0.048224	0.047915	149.47	28490.1	0.044290	0.075583	1977.55	94679
1038	2.000000	1.207913	7.37521e+06	-52039.1	1055.82	-29750.2	0.000000	0.000000	7.215079	157.914	NaN	0.000000	0.001657	0.001781	28.0832	53.923	0.001892	28495.6	8.115511	173.961	156.293	1.207553	0.050750	0.050390	157.914	28495.6	0.046593	0.082175	1921.69	90820.1
1038	2.000000	1.210332	7.37521e+06	-52039.1	1055.82	-29750.2	0.000000	0.000000	7.218126	173.2	NaN	0.000000	0.001653	0.001769	28.0832	55.4913	0.001798	30871	4.060319	-2.972794	167.906	1.209990	0.053168	0.052826	173.2	30871	0.048960	0.089226	1941.13	94423
1038	2.000000	1.212939	7.37521e+06	-52039.1	1055.82	-29750.2	0.000000	0.000000	7.221294	186.838	NaN	0.000000	0.001661	0.001781	28.0833	58.7532	0.001799	32652.4	4.988686	176.06	187.964	1.212629	0.055775	0.055466	186.838	32652.4	0.051483	0.097054	1925.11	95759.8
1038	2.000000	1.215428	7.37521e+06	-52039.1	1055.82	-29750.2	0.000000	0.000000	7.224572	206.006	NaN	0.000000	0.001567	0.001679	28.0834	60.1684	0.001890	31833.8	7.094488	-5.597218	202.99	1.215065	0.058264	0.057901	206.006	31833.8	0.053411	0.103246	1995.29	90515.8
1038	2.000000	1.217926	7.37521e+06	-52039.1	1055.82	-29750.2	0.000000	0.000000	7.227511	216.732	NaN	0.000000	0.001604	0.001703	28.0832	62.1695	0.001722	36096	5.424240	174.334	216.796	1.217582	0.060762	0.060418	216.732	36096	0.056259	0.112736	1922.47	98220.1
1038	2.000000	1.220440	7.37521e+06	-52039.1	1055.82	-29750.2	0.000000	0.000000	7.230760	234.623	NaN	0.000000	0.001568	0.001717	28.0833	64.623	0.001794	36028	1.973098	-1.230056	234.268	1.219933	0.063276	0.062769	234.623	36028	0.058392	0.120104	1953.49	94980.6
1038	2.000000	1.222979	7.37521e+06	-52039.1	1055.82	-29750.2	0.000000	0.000000	7.233693	244.2	NaN	0.000000	0.001597	0.001704	28.0832	67.1287	0.001750	38362.4	2.454683	176.829	246.586	1.222690	0.065815	0.065526	244.2	38362.4	0.061041	0.129566	1884.75	97371.6
1038	2.000000	1.225385	7.37521e+06	-52039.1	1055.82	-29750.2	0.000000	0.000000	7.237029	266.795	NaN	0.000000	0.001601	0.001703	28.0821	69.435	0.001756	39541	5.009848	-5.309146	262.297	1.224971	0.068222	0.067807	266.795	39541	0.063161	0.137387	1941.92	97464.8
1038	2.000000	1.227894	7.37521e+06	-52039.1	1055.82	-29750.2	0.000000	0.000000	7.240157	281.845	NaN	0.000000	0.001666	0.001653	28.0818	71.7165	0.001849	38794.4	6.606891	172.912	280.638	1.227581	0.070730	0.070417	281.845	38794.4	0.065281	0.145425	1938.07	92944.2
1038	2.000000	1.230353	7.37521e+06	-52039.1	1055.82	-29750.2	0.000000	0.000000	7.243456	302.26	NaN	0.000000	0.001654	0.001672	28.0821	73.5818	0.001739	42300.8	4.394365	-5.795612	296.032	1.230050	0.073190	0.072886	302.26	42300.8	0.067830	0.155374	1945.36	98046.5
1038	2.000000	1.232879	7.37521e+06	-52039.1	1055.82	-29750.2	0.000000	0.000000	7.246639	318.25	NaN	0.000000	0.001561	0.001701	28.082	76.5971	0.001789	42810.5	3.930751	174.76	313.887	1.232597	0.075715	0.075434	318.25	42810.5	0.070139	0.164655	1932.83	96390.9
1038	2.000000	1.235426	7.37521e+06	-52039.1	1055.82	-29750.2	0.000000	0.000000	7.249922	336.16	NaN	0.000000	0.001593	0.001719	28.0822	77.7402	0.001762	44130.7	3.319267	-4.817308	333.23	1.235029	0.078262	0.077866	336.16	44130.7	0.072549	0.174611	1925.19	96489
1038	2.000000	1.237904	7.37521e+06	-52039.1	1055.82	-29750.2	0.000000	0.000000	7.253047	351.882	NaN	0.000000	0.001590	0.001680	28.0821	81.3325	0.001880	43254.4	8.566796	169.573	352.322	1.237627	0.080740	0.080463	351.882	43254.4	0.074638	0.183467	1917.96	92262.5
1038	2.000000	1.240331	7.37521e+06	-52039.1	1055.82	-29750.2	0.000000	0.000000	7.256489	376.575	NaN	0.000000	0.001572	0.001715	28.082	83.0066	0.001756	47267.5	4.118280	-5.786216	370.878	1.239954	0.083167	0.082790	376.575	47267.5	0.077192	0.194567	1935.45	97904.1
1038	2.000000	1.242860	7.37521e+06	-52039.1	1055.82	-29750.2	0.000000	0.000000	7.259297	383.345	NaN	0.000000	0.001587	0.001709	28.082	87.3464	0.001749	49944.4	6.692752	170.266	382.13	1.242754	0.085696	0.085590	383.345	49944.4	0.079939	0.206854	1853.22	100329
1038	2.000000	1.245457	7.37521e+06	-52039.1	1055.82	-29750.2	0.000000	0.000000	7.262927	408.462	NaN	0.000000	0.001599	0.001749	28.0821	88.6444	0.001850	47907.6	2.615119	-4.862882	408.677	1.245177	0.088293	0.088014	408.462	47907.6	0.081898	0.215828	1892.54	94215.8
1038	2.000000	1.247916	7.37521e+06	-52039.1	1055.82	-29750.2	0.000000	0.000000	7.266206	428.399	NaN	0.000000	0.001622	0.001722	28.0823	90.1124	0.001740	51796	2.271118	175.205	430.122	1.247649	0.090752	0.090485	428.399	51796	0.084549	0.228256	1876.84	99050.8
1038	2.000000	1.250395	7.37521e+06	-52039.1	1055.82	-29750.2	0.000000	0.000000	7.269640	451.626	NaN	0.000000	0.001570	0.001707	28.0819	94.1132	0.001907	49357.9	3.817321	-5.918670	449.703	1.250067	0.093231	0.092903	451.626	49357.9	0.086368	0.236972	1905.82	92636.3
1038	2.000000	1.252845	7.37521e+06	-52039.1	1055.82	-29750.2	0.000000	0.000000	7.272957	472.698	NaN	0.000000	0.001586	0.001725	28.082	95.9655	0.001846	51987.7	2.934067	174.184	468.307	1.252582	0.095681	0.095418	472.698	51987.7	0.088862	0.249166	1897.12	95154.5
1038	2.000000	1.255380	7.37521e+06	-52039.1	1055.82	-29750.2	0.000000	0.000000	7.276520	497.71	NaN	0.000000	0.001641	0.001703	28.0821	96.4326	0.001721	56031.1	0.380292	-3.363713	493.56	1.255069	0.098216	0.097905	497.71	56031.1	0.091554	0.262655	1894.92	99887.1
1038	2.000000	1.257807	7.37521e+06	-52039.1	1055.82	-29750.2	0.000000	0.000000	7.279943	521.923	NaN	0.000000	0.001600	0.001729	28.0823	99.5521	0.001838	54166.7	5.047366	172.767	516.918	1.257467	0.100643	0.100304	521.923	54166.7	0.093417	0.272182	1917.55	94858.5
1038	2.000000	1.260329	7.37521e+06	-52039.1	1055.82	-29750.2	0.000000	0.000000	7.283170	539.056	NaN	0.000000	0.001609	0.001689	28.0834	102.281	0.001809	56547	5.780603	-8.771981	533.904	1.259978	0.103165	0.102815	539.056	56547	0.096016	0.285739	1886.54	96649.2
1038	2.000000	1.261842	7.37521e+06	-52039.1	1055.82	-29750.2	0.000000	0.000000	7.285273	553.405	NaN	0.000000	0.001593	0.001746	28.0834	102.302	0.001742	58732.1	3.832966	172.879	549.629	1.261568	0.104679	0.104404	553.405	58732.1	0.097612	0.294216	1880.94	98927.1