File: remote_trans/data/nanoindenter/0828-1/data/Data_2025-08-06,11h17m57s/2025-07-22_16-23-58_1_653.txt
2025-07-22, 16:23:58, 1
Index	Phase	Displacement	Time	Pos X	Pos Y	Pos Z	Rot A	Rot B	Piezo Z	Force A	Force B	Gripper	Voltage A	Voltage B	Temperature	Amplitude force	Amplitude pos	Stiffness	Phase shift	Phase excitation	Force A raw	Displacement raw	HMax	HMax raw	Real Force	Real Stiffness	Contact Depth	Area	Hardness	Reduced Mod.
[#]	[#]	[um]	[s]	[um]	[um]	[um]	[m°]	[m°]	[um]	[uN]	[uN]	[V]	[V]	[V]	[°C]	[uN]	[um]	[N/m]	[°]	[°]	[uN]	[um]	[um]	[um]	[uN]	[N/m]	[um]	[um^2]	[MPa]	[MPa]
653	1.000000	0.002981	7.37144e+06	-44439.1	1005.82	-29775.9	0.000000	0.000000	6.002795	0.018589	NaN	0.000000	0.001643	0.001637	28.0845	0.093504	0.000889	105.222	137.984	-159.772	0.036407	0.001736	-1.044632	-1.045877	0.018589	105.222	-1.044765	-9.078914E+13	-2.047472E-16	NaN
653	1.000000	0.010944	7.37144e+06	-44439.1	1005.82	-29775.9	0.000000	0.000000	6.010760	0.085074	NaN	0.000000	0.001698	0.001602	28.0843	0.023598	0.000919	25.6756	90.722	-163.854	0.033632	0.009658	-1.036670	-1.037956	0.085074	25.6756	-1.039155	-7.631354E+13	-1.114790E-15	NaN
653	1.000000	0.018930	7.37144e+06	-44439.1	1005.82	-29775.9	0.000000	0.000000	6.018747	0.097764	NaN	0.000000	0.001672	0.001597	28.0843	0.073242	0.001815	40.3536	-2.287623	-167.903	0.090550	0.017633	-1.028683	-1.029981	0.097764	40.3536	-1.030500	-5.837308E+13	-1.674808E-15	NaN
653	1.000000	0.026973	7.37144e+06	-44439.1	1005.82	-29775.9	0.000000	0.000000	6.026789	0.063590	NaN	0.000000	0.001682	0.001621	28.0842	0.065879	0.001782	36.9788	170.087	-163.578	0.081835	0.025648	-1.020640	-1.021965	0.063590	36.9788	-1.021930	-4.476317E+13	-1.420582E-15	NaN
653	1.000000	0.034922	7.37144e+06	-44439.1	1005.82	-29775.9	0.000000	0.000000	6.034736	0.029831	NaN	0.000000	0.001583	0.001627	28.0845	0.066970	0.001767	37.9047	76.8987	-164.268	0.004559	0.033635	-1.012692	-1.013979	0.029831	37.9047	-1.013282	-3.424165E+13	-8.711913E-16	NaN
653	1.000000	0.042952	7.37144e+06	-44439.1	1005.82	-29775.9	0.000000	0.000000	6.042769	0.110897	NaN	0.000000	0.001615	0.001642	28.0846	0.070575	0.002074	34.032	-19.3571	-167.939	0.107202	0.041662	-1.004662	-1.005951	0.110897	34.032	-1.007106	-2.827643E+13	-3.921893E-15	NaN
653	1.000000	0.050928	7.37144e+06	-44439.1	1005.82	-29775.9	0.000000	0.000000	6.050745	0.092627	NaN	0.000000	0.001654	0.001608	28.0844	0.041712	0.002124	19.6364	-110.499	-165.025	0.029096	0.049669	-0.996685	-0.997944	0.092627	19.6364	-1.000223	-2.284395E+13	-4.054770E-15	NaN
653	1.000000	0.058912	7.37144e+06	-44439.1	1005.82	-29775.9	0.000000	0.000000	6.058729	0.095018	NaN	0.000000	0.001605	0.001672	28.0834	0.033487	0.001893	17.6895	162.803	-165.414	0.134416	0.057607	-0.988701	-0.990006	0.095018	17.6895	-0.992730	-1.810816E+13	-5.247238E-15	NaN
653	1.000000	0.066943	7.37144e+06	-44439.1	1005.82	-29775.9	0.000000	0.000000	6.066758	0.035798	NaN	0.000000	0.001602	0.001616	28.0833	0.017786	0.002168	8.204132	164.559	-164.749	0.012521	0.065639	-0.980670	-0.981974	0.035798	8.204132	-0.983943	-1.378883E+13	-2.596182E-15	NaN
653	1.000000	0.074940	7.37144e+06	-44439.1	1005.82	-29775.9	0.000000	0.000000	6.074753	0.008199	NaN	0.000000	0.001624	0.001638	28.083	0.164655	0.001908	86.2793	-86.9244	-163.968	-0.055863	0.073629	-0.972673	-0.973984	0.008199	86.2793	-0.972745	-9.742090E+12	-8.416221E-16	NaN
653	1.000000	0.082934	7.37144e+06	-44439.1	1005.82	-29775.9	0.000000	0.000000	6.082748	0.038152	NaN	0.000000	0.001565	0.001619	28.0834	0.037784	0.002045	18.4764	-114.857	-165.696	-0.033903	0.081647	-0.964680	-0.965967	0.038152	18.4764	-0.966229	-7.958548E+12	-4.793808E-15	NaN
653	1.000000	0.090944	7.37144e+06	-44439.1	1005.82	-29775.9	0.000000	0.000000	6.090760	0.081270	NaN	0.000000	0.001631	0.001652	28.0831	0.036350	0.002098	17.3235	-52.5466	-164.778	-0.013869	0.089656	-0.956670	-0.957957	0.081270	17.3235	-0.960188	-6.597934E+12	-1.231749E-14	NaN
653	1.000000	0.098954	7.37144e+06	-44439.1	1005.82	-29775.9	0.000000	0.000000	6.098770	0.061963	NaN	0.000000	0.001617	0.001657	28.0838	0.053401	0.001945	27.4555	-152.088	-162.699	0.136071	0.097612	-0.948659	-0.950002	0.061963	27.4555	-0.950352	-4.861560E+12	-1.274555E-14	NaN
653	1.000000	0.106964	7.37144e+06	-44439.1	1005.82	-29775.9	0.000000	0.000000	6.106778	0.022898	NaN	0.000000	0.001602	0.001684	28.0833	0.079598	0.001984	40.1152	77.9305	-167.734	0.060779	0.105655	-0.940650	-0.941958	0.022898	40.1152	-0.941078	-3.644850E+12	-6.282341E-15	NaN
653	1.000000	0.114960	7.37144e+06	-44439.1	1005.82	-29775.9	0.000000	0.000000	6.114775	0.049950	NaN	0.000000	0.001657	0.001666	28.0832	0.061967	0.001992	31.1117	22.6748	-164.93	0.037761	0.113619	-0.932653	-0.933994	0.049950	31.1117	-0.933857	-2.912416E+12	-1.715079E-14	NaN
653	1.000000	0.122951	7.37144e+06	-44439.1	1005.82	-29775.9	0.000000	0.000000	6.122765	0.038084	NaN	0.000000	0.001645	0.001666	28.0836	0.067894	0.001983	34.2382	-175.347	-164.38	0.086129	0.121676	-0.924663	-0.925937	0.038084	34.2382	-0.925497	-2.246022E+12	-1.695638E-14	NaN
653	1.000000	0.130922	7.37144e+06	-44439.1	1005.82	-29775.9	0.000000	0.000000	6.130736	0.012269	NaN	0.000000	0.001640	0.001643	28.0834	0.078002	0.001953	39.9414	5.902246	-167.744	0.031881	0.129634	-0.916691	-0.917980	0.012269	39.9414	-0.916922	-1.720450E+12	-7.131002E-15	NaN
653	1.000000	0.138949	7.37144e+06	-44439.1	1005.82	-29775.9	0.000000	0.000000	6.138764	0.053137	NaN	0.000000	0.001634	0.001657	28.0838	0.125563	0.002102	59.7279	26.9124	-162.891	0.076870	0.137633	-0.908665	-0.909981	0.053137	59.7279	-0.909332	-1.358760E+12	-3.910728E-14	NaN
653	1.000000	0.146957	7.37144e+06	-44439.1	1005.82	-29775.9	0.000000	0.000000	6.146772	0.056680	NaN	0.000000	0.001584	0.001659	28.0835	0.052289	0.001975	26.4743	-93.6024	-165.509	-0.027240	0.145630	-0.900657	-0.901983	0.056680	26.4743	-0.902262	-1.090523E+12	-5.197484E-14	NaN
653	1.000000	0.154975	7.37144e+06	-44439.1	1005.82	-29775.9	0.000000	0.000000	6.154792	0.090623	NaN	0.000000	0.001591	0.001653	28.0837	0.087279	0.002001	43.6084	30.7894	-164.317	0.168468	0.153623	-0.892638	-0.893991	0.090623	43.6084	-0.894197	-8.484796E+11	-1.068063E-13	NaN
653	1.000000	0.162962	7.37144e+06	-44439.1	1005.82	-29775.9	0.000000	0.000000	6.162776	0.032506	NaN	0.000000	0.001623	0.001657	28.0837	0.082491	0.001857	44.42	-23.6951	-166.171	0.111199	0.161637	-0.884651	-0.885976	0.032506	44.42	-0.885200	-6.412491E+11	-5.069099E-14	NaN
653	1.000000	0.170959	7.37144e+06	-44439.1	1005.82	-29775.9	0.000000	0.000000	6.170774	0.061803	NaN	0.000000	0.001623	0.001675	28.0837	0.043980	0.002048	21.4718	-23.1987	-166.164	0.061696	0.169664	-0.876655	-0.877949	0.061803	21.4718	-0.878814	-5.256105E+11	-1.175835E-13	NaN
653	1.000000	0.178981	7.37144e+06	-44439.1	1005.82	-29775.9	0.000000	0.000000	6.178794	-0.009155	NaN	0.000000	0.001588	0.001623	28.0835	0.035147	0.001996	17.6085	12.0437	-162.763	0.038900	0.177668	-0.868632	-0.869946	-0.009155	17.6085	-0.868242	-3.781473E+11	2.420968E-14	NaN
653	1.000000	0.186971	7.37144e+06	-44439.1	1005.82	-29775.9	0.000000	0.000000	6.186786	0.043603	NaN	0.000000	0.001613	0.001599	28.0834	0.139644	0.001976	70.6597	-107.395	-163.391	0.045066	0.185644	-0.860642	-0.861969	0.043603	70.6597	-0.861105	-3.027477E+11	-1.440229E-13	NaN
653	1.000000	0.194965	7.37144e+06	-44439.1	1005.82	-29775.9	0.000000	0.000000	6.194780	0.067909	NaN	0.000000	0.001574	0.001675	28.0848	0.074009	0.001951	37.9287	-84.8449	-167.462	0.065342	0.193702	-0.852649	-0.853911	0.067909	37.9287	-0.853992	-2.425411E+11	-2.799909E-13	NaN
653	1.000000	0.203022	7.37144e+06	-44439.1	1005.82	-29775.9	0.000000	0.000000	6.202835	0.002036	NaN	0.000000	0.001600	0.001655	28.0846	0.068372	0.002077	32.9159	-24.7126	-162.027	0.062550	0.201729	-0.844591	-0.845885	0.002036	32.9159	-0.844638	-1.811825E+11	-1.123786E-14	NaN
653	1.000000	0.210986	7.37144e+06	-44439.1	1005.82	-29775.9	0.000000	0.000000	6.210802	0.083914	NaN	0.000000	0.001623	0.001634	28.0849	0.058577	0.002014	29.0909	77.4617	-165.565	0.097417	0.209651	-0.836628	-0.837962	0.083914	29.0909	-0.838791	-1.509797E+11	-5.557983E-13	NaN
653	1.000000	0.219013	7.37144e+06	-44439.1	1005.82	-29775.9	0.000000	0.000000	6.218826	0.019676	NaN	0.000000	0.001594	0.001643	28.0847	0.055648	0.002133	26.0896	19.7887	-168.582	0.026661	0.217760	-0.828601	-0.829854	0.019676	26.0896	-0.829167	-1.118121E+11	-1.759756E-13	NaN
653	1.000000	0.226964	7.37144e+06	-44439.1	1005.82	-29775.9	0.000000	0.000000	6.226780	0.094749	NaN	0.000000	0.001584	0.001629	28.0849	0.139125	0.002095	66.3931	-177.027	-165.42	0.070608	0.225669	-0.820650	-0.821945	0.094749	66.3931	-0.821720	-8.862147E+10	-1.069141E-12	NaN
653	1.000000	0.235006	7.37144e+06	-44439.1	1005.82	-29775.9	0.000000	0.000000	6.234824	0.123900	NaN	0.000000	0.001600	0.001592	28.0852	0.039981	0.001998	20.0062	-11.2714	-164.563	0.057885	0.233688	-0.812607	-0.813926	0.123900	20.0062	-0.817252	-7.708034E+10	-1.607420E-12	NaN
653	1.000000	0.243026	7.37144e+06	-44439.1	1005.82	-29775.9	0.000000	0.000000	6.242841	0.055160	NaN	0.000000	0.001616	0.001633	28.0846	0.069361	0.001896	36.591	-27.3814	-164.452	0.054372	0.241707	-0.804588	-0.805907	0.055160	36.591	-0.805718	-5.376191E+10	-1.026000E-12	NaN
653	1.000000	0.251015	7.37144e+06	-44439.1	1005.82	-29775.9	0.000000	0.000000	6.250832	0.103592	NaN	0.000000	0.001674	0.001623	28.0848	0.068071	0.001920	35.4621	156.698	-166.942	0.132836	0.249651	-0.796599	-0.797963	0.103592	35.4621	-0.798790	-4.329429E+10	-2.392748E-12	NaN
653	1.000000	0.259043	7.37144e+06	-44439.1	1005.82	-29775.9	0.000000	0.000000	6.258859	0.081408	NaN	0.000000	0.001659	0.001653	28.0847	0.081652	0.001889	43.2307	-154.148	-166.263	0.006052	0.257702	-0.788571	-0.789912	0.081408	43.2307	-0.789983	-3.287402E+10	-2.476348E-12	NaN
653	1.000000	0.267049	7.37144e+06	-44439.1	1005.82	-29775.9	0.000000	0.000000	6.266863	0.037475	NaN	0.000000	0.001668	0.001671	28.0847	0.054156	0.002011	26.9241	-57.9898	-160.352	0.077129	0.265711	-0.780565	-0.781902	0.037475	26.9241	-0.781609	-2.529834E+10	-1.481307E-12	NaN
653	1.000000	0.275020	7.37144e+06	-44439.1	1005.82	-29775.9	0.000000	0.000000	6.274834	0.029312	NaN	0.000000	0.001673	0.001655	28.0845	0.068519	0.002038	33.6189	-173.094	-164.65	0.009749	0.273702	-0.772594	-0.773911	0.029312	33.6189	-0.773248	-1.947427E+10	-1.505166E-12	NaN
653	1.000000	0.283055	7.37144e+06	-44439.1	1005.82	-29775.9	0.000000	0.000000	6.282870	0.062819	NaN	0.000000	0.001652	0.001605	28.0843	0.098096	0.002004	48.9588	-89.9564	-163.84	0.049889	0.281717	-0.764559	-0.765897	0.062819	48.9588	-0.765521	-1.528973E+10	-4.108574E-12	NaN
653	1.000000	0.291026	7.37144e+06	-44439.1	1005.82	-29775.9	0.000000	0.000000	6.290839	0.000867	NaN	0.000000	0.001684	0.001621	28.0847	0.094419	0.002137	44.1846	-135.61	-166.314	0.012849	0.289701	-0.756587	-0.757913	0.000867	44.1846	-0.756602	-1.156308E+10	-7.500393E-14	NaN
653	1.000000	0.299008	7.37144e+06	-44439.1	1005.82	-29775.9	0.000000	0.000000	6.298822	0.020010	NaN	0.000000	0.001691	0.001610	28.0846	0.010709	0.001931	5.545753	47.9453	-166.711	0.055517	0.297766	-0.748605	-0.749848	0.020010	5.545753	-0.751312	-9.796545E+9	-2.042554E-12	NaN
653	1.000000	0.307028	7.37144e+06	-44439.1	1005.82	-29775.9	0.000000	0.000000	6.306843	0.053704	NaN	0.000000	0.001644	0.001654	28.0849	0.055250	0.002063	26.7752	163.398	-167.957	0.071547	0.305722	-0.740585	-0.741891	0.053704	26.7752	-0.742089	-7.336931E+9	-7.319720E-12	NaN
653	1.000000	0.315025	7.37144e+06	-44439.1	1005.82	-29775.9	0.000000	0.000000	6.314836	-0.037317	NaN	0.000000	0.001655	0.001688	28.0847	0.121772	0.002028	60.0523	-20.6081	-168.277	-0.016159	0.313747	-0.732589	-0.733867	-0.037317	60.0523	-0.732123	-5.367053E+9	6.953056E-12	NaN
653	1.000000	0.323052	7.37144e+06	-44439.1	1005.82	-29775.9	0.000000	0.000000	6.322867	0.035005	NaN	0.000000	0.001668	0.001615	28.0845	0.088650	0.002012	44.0678	174.032	-164.054	0.041807	0.321713	-0.724561	-0.725900	0.035005	44.0678	-0.725157	-4.313122E+9	-8.115978E-12	NaN
653	1.000000	0.331070	7.37144e+06	-44439.1	1005.82	-29775.9	0.000000	0.000000	6.330884	0.037606	NaN	0.000000	0.001619	0.001630	28.0835	0.161231	0.002016	79.9872	-166.047	-165.507	0.067317	0.329726	-0.716544	-0.717888	0.037606	79.9872	-0.716896	-3.327686E+9	-1.130088E-11	NaN
653	1.000000	0.339042	7.37144e+06	-44439.1	1005.82	-29775.9	0.000000	0.000000	6.338858	0.068295	NaN	0.000000	0.001648	0.001584	28.0833	0.039182	0.001856	21.1117	-166.934	-164.373	0.099843	0.337764	-0.708571	-0.709849	0.068295	21.1117	-0.710997	-2.764779E+9	-2.470180E-11	NaN
653	1.000000	0.347084	7.37144e+06	-44439.1	1005.82	-29775.9	0.000000	0.000000	6.346901	0.104752	NaN	0.000000	0.001652	0.001623	28.0832	0.029524	0.002117	13.9445	118.755	-167.029	0.010811	0.345708	-0.700530	-0.701905	0.104752	13.9445	-0.706164	-2.375158E+9	-4.410332E-11	NaN
653	1.000000	0.355064	7.37144e+06	-44439.1	1005.82	-29775.9	0.000000	0.000000	6.354876	-0.015800	NaN	0.000000	0.001638	0.001645	28.0834	0.107419	0.002009	53.4761	128.804	-166.642	0.009785	0.353773	-0.692550	-0.693841	-0.015800	53.4761	-0.692328	-1.537202E+9	1.027867E-11	NaN
653	1.000000	0.363083	7.37144e+06	-44439.1	1005.82	-29775.9	0.000000	0.000000	6.362899	0.077264	NaN	0.000000	0.001587	0.001607	28.0836	0.076953	0.002025	38.0087	-65.3235	-164.798	0.057926	0.361794	-0.684530	-0.685820	0.077264	38.0087	-0.686055	-1.261809E+9	-6.123268E-11	NaN
653	1.000000	0.371058	7.37144e+06	-44439.1	1005.82	-29775.9	0.000000	0.000000	6.370873	0.067400	NaN	0.000000	0.001606	0.001603	28.0837	0.078671	0.002021	38.9186	17.5639	-165.722	0.090802	0.369749	-0.676556	-0.677864	0.067400	38.9186	-0.677855	-9.746862E+8	-6.915068E-11	NaN
653	1.000000	0.379049	7.37144e+06	-44439.1	1005.82	-29775.9	0.000000	0.000000	6.378865	0.077368	NaN	0.000000	0.001601	0.001617	28.0834	0.084162	0.001921	43.8071	-179.741	-166.08	0.042961	0.377767	-0.668565	-0.669846	0.077368	43.8071	-0.669889	-7.583612E+8	-1.020201E-10	NaN
653	1.000000	0.387085	7.37144e+06	-44439.1	1005.82	-29775.9	0.000000	0.000000	6.386897	-0.006318	NaN	0.000000	0.001638	0.001618	28.0832	0.070211	0.002014	34.8537	20.5601	-166.933	0.028701	0.385739	-0.660529	-0.661874	-0.006318	34.8537	-0.660393	-5.621495E+8	1.123963E-11	NaN
653	1.000000	0.395097	7.37144e+06	-44439.1	1005.82	-29775.9	0.000000	0.000000	6.394911	0.023101	NaN	0.000000	0.001586	0.001618	28.0831	0.021311	0.001944	10.9622	-129.64	-163.716	-0.036532	0.393743	-0.652516	-0.653870	0.023101	10.9622	-0.654097	-4.608815E+8	-5.012405E-11	NaN
653	1.000000	0.403084	7.37144e+06	-44439.1	1005.82	-29775.9	0.000000	0.000000	6.402897	0.018519	NaN	0.000000	0.001578	0.001681	28.0831	0.127253	0.001904	66.8269	-120.701	-168.668	-0.009625	0.401763	-0.644530	-0.645851	0.018519	66.8269	-0.644738	-3.429904E+8	-5.399258E-11	NaN
653	1.000000	0.411064	7.37144e+06	-44439.1	1005.82	-29775.9	0.000000	0.000000	6.410878	0.039291	NaN	0.000000	0.001562	0.001625	28.0833	0.018618	0.002124	8.763397	151.607	-165.563	0.135715	0.409803	-0.636550	-0.637810	0.039291	8.763397	-0.639912	-2.945017E+8	-1.334152E-10	NaN
653	1.000000	0.419081	7.37144e+06	-44439.1	1005.82	-29775.9	0.000000	0.000000	6.418895	0.032448	NaN	0.000000	0.001610	0.001668	28.0847	0.081189	0.002034	39.9147	-40.9583	-162.109	0.089716	0.417760	-0.628533	-0.629853	0.032448	39.9147	-0.629142	-2.095300E+8	-1.548613E-10	NaN
653	1.000000	0.427079	7.37144e+06	-44439.1	1005.82	-29775.9	0.000000	0.000000	6.426896	0.085454	NaN	0.000000	0.001562	0.001647	28.0834	0.095222	0.002087	45.6352	83.0141	-164.43	0.085086	0.425759	-0.620534	-0.621855	0.085454	45.6352	-0.621939	-1.668314E+8	-5.122152E-10	NaN
653	1.000000	0.435089	7.37144e+06	-44439.1	1005.82	-29775.9	0.000000	0.000000	6.434905	0.075262	NaN	0.000000	0.001605	0.001639	28.0837	0.062298	0.002053	30.3451	-155.063	-164.039	0.155662	0.433830	-0.612524	-0.613784	0.075262	30.3451	-0.614384	-1.313482E+8	-5.729987E-10	NaN
653	1.000000	0.443054	7.37144e+06	-44439.1	1005.82	-29775.9	0.000000	0.000000	6.442867	-0.007516	NaN	0.000000	0.001611	0.001645	28.0835	0.052763	0.001987	26.5488	38.6865	-162.626	0.066577	0.441771	-0.604559	-0.605843	-0.007516	26.5488	-0.604347	-9.556899E+7	7.864123E-11	NaN
653	1.000000	0.451092	7.37144e+06	-44439.1	1005.82	-29775.9	0.000000	0.000000	6.450908	0.080289	NaN	0.000000	0.001612	0.001672	28.0833	0.026670	0.001905	13.9991	-135.745	-164.176	0.089941	0.449803	-0.596521	-0.597811	0.080289	13.9991	-0.600823	-8.546591E+7	-9.394314E-10	NaN
653	1.000000	0.459129	7.37144e+06	-44439.1	1005.82	-29775.9	0.000000	0.000000	6.458944	0.068059	NaN	0.000000	0.001554	0.001747	28.0841	0.078449	0.001988	39.4702	-124.014	-165.63	0.119459	0.457773	-0.588485	-0.589841	0.068059	39.4702	-0.589778	-6.020152E+7	-1.130527E-9	NaN
653	1.000000	0.467125	7.37144e+06	-44439.1	1005.82	-29775.9	0.000000	0.000000	6.466940	0.054287	NaN	0.000000	0.001568	0.001716	28.0844	0.082191	0.001914	42.9511	-117.717	-159.162	0.062518	0.465806	-0.580489	-0.581808	0.054287	42.9511	-0.581437	-4.619049E+7	-1.175284E-9	NaN
653	1.000000	0.475119	7.37144e+06	-44439.1	1005.82	-29775.9	0.000000	0.000000	6.474933	0.034319	NaN	0.000000	0.001559	0.001683	28.0844	0.070905	0.002069	34.2643	-159.64	-166.743	0.037216	0.473815	-0.572495	-0.573798	0.034319	34.2643	-0.573246	-3.560199E+7	-9.639580E-10	NaN
653	1.000000	0.483127	7.37144e+06	-44439.1	1005.82	-29775.9	0.000000	0.000000	6.482942	0.058870	NaN	0.000000	0.001572	0.001678	28.0845	0.102022	0.001895	53.8328	98.4683	-164.829	-0.010752	0.481806	-0.564487	-0.565808	0.058870	53.8328	-0.565307	-2.765456E+7	-2.128750E-9	NaN
653	1.000000	0.491115	7.37144e+06	-44439.1	1005.82	-29775.9	0.000000	0.000000	6.490928	0.007453	NaN	0.000000	0.001554	0.001648	28.0842	0.033381	0.002139	15.604	-123.284	-165.932	0.000397	0.489785	-0.556498	-0.557829	0.007453	15.604	-0.556857	-2.112928E+7	-3.527353E-10	NaN
653	1.000000	0.499100	7.37144e+06	-44439.1	1005.82	-29775.9	0.000000	0.000000	6.498914	0.025736	NaN	0.000000	0.001568	0.001662	28.0843	0.089273	0.002108	42.3542	-178.873	-164.788	-0.019320	0.497849	-0.548513	-0.549765	0.025736	42.3542	-0.548969	-1.643147E+7	-1.566241E-9	NaN
653	1.000000	0.507119	7.37144e+06	-44439.1	1005.82	-29775.9	0.000000	0.000000	6.506930	-0.045921	NaN	0.000000	0.001584	0.001625	28.0843	0.091642	0.002007	45.6724	151.897	-165.756	0.025767	0.505828	-0.540494	-0.541786	-0.045921	45.6724	-0.539740	-1.223927E+7	3.751933E-9	NaN
653	1.000000	0.515146	7.37144e+06	-44439.1	1005.82	-29775.9	0.000000	0.000000	6.514960	0.038728	NaN	0.000000	0.001605	0.001628	28.0845	0.092829	0.002016	46.0356	-115.146	-164.253	0.055610	0.513831	-0.532468	-0.533783	0.038728	46.0356	-0.533099	-9.8992e+06	-3.912207E-9	NaN
653	1.000000	0.523136	7.37144e+06	-44439.1	1005.82	-29775.9	0.000000	0.000000	6.522949	-0.003949	NaN	0.000000	0.001612	0.001645	28.0844	0.074969	0.002099	35.721	-78.3874	-162.923	0.007790	0.521879	-0.524478	-0.525734	-0.003949	35.721	-0.524395	-7.49372e+06	5.270020E-10	NaN
653	1.000000	0.531146	7.37144e+06	-44439.1	1005.82	-29775.9	0.000000	0.000000	6.530960	0.010900	NaN	0.000000	0.001588	0.001615	28.0844	0.090475	0.002137	42.3452	-123.25	-165.393	0.063608	0.529811	-0.516467	-0.517802	0.010900	42.3452	-0.516660	-5.84975e+06	-1.863286E-9	NaN
653	1.000000	0.539146	7.37144e+06	-44439.1	1005.82	-29775.9	0.000000	0.000000	6.538962	0.071311	NaN	0.000000	0.001538	0.001704	28.0843	0.023009	0.001986	11.5844	-59.6836	-164.696	0.002425	0.537802	-0.508468	-0.509812	0.071311	11.5844	-0.513085	-5.21639e+06	-1.367061E-8	NaN
653	1.000000	0.547156	7.37144e+06	-44439.1	1005.82	-29775.9	0.000000	0.000000	6.546969	-0.002116	NaN	0.000000	0.001571	0.001705	28.0842	0.063186	0.002039	30.9838	165.328	-166.988	0.033448	0.545819	-0.500457	-0.501795	-0.002116	30.9838	-0.500406	-3.47281e+06	6.092611E-10	NaN
653	1.000000	0.555140	7.37144e+06	-44439.1	1005.82	-29775.9	0.000000	0.000000	6.554953	0.006770	NaN	0.000000	0.001588	0.001670	28.0844	0.099989	0.002065	48.4245	-162.117	-164.845	0.014392	0.553821	-0.492473	-0.493792	0.006770	48.4245	-0.492578	-2.70032e+06	-2.507015E-9	NaN
653	1.000000	0.563151	7.37144e+06	-44439.1	1005.82	-29775.9	0.000000	0.000000	6.562962	-0.043574	NaN	0.000000	0.001573	0.001619	28.0846	0.070204	0.001998	35.1385	-85.7363	-166.762	0.069821	0.561825	-0.484463	-0.485789	-0.043574	35.1385	-0.483533	-2.01822e+06	2.159058E-8	NaN
653	1.000000	0.571148	7.37144e+06	-44439.1	1005.82	-29775.9	0.000000	0.000000	6.570964	0.073321	NaN	0.000000	0.001586	0.001653	28.0844	0.034680	0.001913	18.1294	9.291801	-163.322	-0.022777	0.569881	-0.476465	-0.477733	0.073321	18.1294	-0.479499	-1.77218e+06	-4.137334E-8	NaN
653	1.000000	0.579143	7.37144e+06	-44439.1	1005.82	-29775.9	0.000000	0.000000	6.578957	0.032372	NaN	0.000000	0.001590	0.001687	28.0841	0.013284	0.002009	6.610654	-103.858	-166.166	0.013863	0.577864	-0.468471	-0.469750	0.032372	6.610654	-0.472144	-1.39787e+06	-2.315809E-8	NaN
653	1.000000	0.587132	7.37144e+06	-44439.1	1005.82	-29775.9	0.000000	0.000000	6.586946	0.019769	NaN	0.000000	0.001615	0.001616	28.0842	0.032005	0.002174	14.7197	148.164	-162	-0.001434	0.585826	-0.460481	-0.461788	0.019769	14.7197	-0.461488	-990676	-1.995507E-8	NaN
653	1.000000	0.595158	7.37144e+06	-44439.1	1005.82	-29775.9	0.000000	0.000000	6.594977	0.165148	NaN	0.000000	0.001555	0.001748	28.0841	0.000959	0.001972	0.485958	125.662	-165.215	0.115898	0.593862	-0.452456	-0.453751	0.165148	0.485958	-0.707336	-2.464269E+9	-6.701705E-11	NaN
653	1.000000	0.603175	7.37144e+06	-44439.1	1005.82	-29775.9	0.000000	0.000000	6.602989	0.035290	NaN	0.000000	0.001546	0.001712	28.0831	0.076329	0.001997	38.2176	60.2176	-161.979	0.074850	0.601858	-0.444439	-0.445756	0.035290	38.2176	-0.445131	-583096	-6.052144E-8	NaN
653	1.000000	0.611166	7.37144e+06	-44439.1	1005.82	-29775.9	0.000000	0.000000	6.610981	0.047738	NaN	0.000000	0.001588	0.001709	28.0829	0.103936	0.002009	51.7348	-130.238	-164.624	0.005772	0.609880	-0.436448	-0.437734	0.047738	51.7348	-0.437140	-449761	-1.061399E-7	NaN
653	1.000000	0.619184	7.37144e+06	-44439.1	1005.82	-29775.9	0.000000	0.000000	6.618997	-0.003841	NaN	0.000000	0.001586	0.001719	28.0829	0.021284	0.002116	10.0604	32.8063	-164.689	0.035898	0.617878	-0.428429	-0.429736	-0.003841	10.0604	-0.428143	-335571	1.144480E-8	NaN
653	1.000000	0.627197	7.37144e+06	-44439.1	1005.82	-29775.9	0.000000	0.000000	6.627009	-0.004847	NaN	0.000000	0.001580	0.001704	28.083	0.026146	0.001973	13.2551	-40.1069	-165.768	0.019026	0.625847	-0.420417	-0.421766	-0.004847	13.2551	-0.420143	-258487	1.875245E-8	NaN
653	1.000000	0.635175	7.37144e+06	-44439.1	1005.82	-29775.9	0.000000	0.000000	6.634989	0.028368	NaN	0.000000	0.001646	0.001723	28.0833	0.051775	0.001917	27.0065	-144.985	-166.445	0.074375	0.633896	-0.412439	-0.413717	0.028368	27.0065	-0.413226	-206187	-1.375862E-7	NaN
653	1.000000	0.643180	7.37144e+06	-44439.1	1005.82	-29775.9	0.000000	0.000000	6.642994	0.039807	NaN	0.000000	0.001682	0.001665	28.083	0.145711	0.002023	72.0241	-5.206183	-163.825	0.066509	0.641848	-0.404434	-0.405766	0.039807	72.0241	-0.404848	-156707	-2.540241E-7	NaN
653	1.000000	0.651221	7.37144e+06	-44439.1	1005.82	-29775.9	0.000000	0.000000	6.651039	0.115325	NaN	0.000000	0.001657	0.001691	28.083	0.038267	0.002077	18.4282	56.8203	-165.081	0.055050	0.649858	-0.396392	-0.397755	0.115325	18.4282	-0.401086	-138509	-8.326198E-7	NaN
653	1.000000	0.659168	7.37144e+06	-44439.1	1005.82	-29775.9	0.000000	0.000000	6.658981	0.016132	NaN	0.000000	0.001695	0.001692	28.0832	0.079755	0.001920	41.5427	26.1346	-166.482	-0.012296	0.657897	-0.388446	-0.389716	0.016132	41.5427	-0.388737	-92278.1	-1.748226E-7	NaN
653	1.000000	0.667189	7.37144e+06	-44439.1	1005.82	-29775.9	0.000000	0.000000	6.667003	0.017301	NaN	0.000000	0.001682	0.001705	28.0833	0.087166	0.001833	47.5415	9.587905	-163.647	-0.005765	0.665889	-0.380424	-0.381724	0.017301	47.5415	-0.380697	-70777.1	-2.444418E-7	NaN
653	1.000000	0.675187	7.37144e+06	-44439.1	1005.82	-29775.9	0.000000	0.000000	6.674999	-0.027073	NaN	0.000000	0.001675	0.001678	28.083	0.069908	0.001970	35.4866	119.232	-167.169	-0.024542	0.673861	-0.372427	-0.373753	-0.027073	35.4866	-0.371855	-52823.4	5.125269E-7	NaN
653	1.000000	0.683201	7.37144e+06	-44439.1	1005.82	-29775.9	0.000000	0.000000	6.683014	-0.011108	NaN	0.000000	0.001682	0.001688	28.0831	0.110424	0.001879	58.781	-117.331	-162.837	0.037584	0.681897	-0.364412	-0.365717	-0.011108	58.781	-0.364270	-41070	2.704609E-7	NaN
653	1.000000	0.691220	7.37144e+06	-44439.1	1005.82	-29775.9	0.000000	0.000000	6.691032	-0.017289	NaN	0.000000	0.001702	0.001713	28.0831	0.030961	0.001988	15.5771	-66.2263	-166.066	0.030036	0.689918	-0.356393	-0.357695	-0.017289	15.5771	-0.355561	-30733.9	5.625478E-7	NaN
653	1.000000	0.699175	7.37144e+06	-44439.1	1005.82	-29775.9	0.000000	0.000000	6.698992	0.084665	NaN	0.000000	0.001629	0.001717	28.0833	0.096663	0.002066	46.7783	-30.8831	-164.72	0.052607	0.697883	-0.348438	-0.349731	0.084665	46.7783	-0.349796	-25353.3	-3.339412E-6	NaN
653	1.000000	0.707212	7.37144e+06	-44439.1	1005.82	-29775.9	0.000000	0.000000	6.707027	0.048981	NaN	0.000000	0.001585	0.001733	28.0833	0.075217	0.001878	40.0612	-52.6073	-167.979	0.009632	0.705943	-0.340401	-0.341671	0.048981	40.0612	-0.341318	-19088	-2.566077E-6	NaN
653	1.000000	0.715190	7.37144e+06	-44439.1	1005.82	-29775.9	0.000000	0.000000	6.715002	-0.013801	NaN	0.000000	0.001614	0.001745	28.0831	0.138548	0.001923	72.0488	19.8122	-167.44	-0.011738	0.713892	-0.332424	-0.333721	-0.013801	72.0488	-0.332280	-14087.2	9.796935E-7	NaN
653	1.000000	0.723240	7.37144e+06	-44439.1	1005.82	-29775.9	0.000000	0.000000	6.723054	0.020377	NaN	0.000000	0.001574	0.001767	28.0831	0.046160	0.002049	22.523	91.4279	-165.089	-0.016878	0.721918	-0.324374	-0.325695	0.020377	22.523	-0.325052	-11038.3	-1.846009E-6	NaN
653	1.000000	0.731257	7.37144e+06	-44439.1	1005.82	-29775.9	0.000000	0.000000	6.731073	0.090842	NaN	0.000000	0.001586	0.001754	28.083	0.085648	0.002067	41.4284	138.912	-163.533	0.047548	0.729908	-0.316357	-0.317705	0.090842	41.4284	-0.318002	-8693.78	-1.044909E-5	NaN
653	1.000000	0.739221	7.37144e+06	-44439.1	1005.82	-29775.9	0.000000	0.000000	6.739033	-0.018536	NaN	0.000000	0.001627	0.001714	28.0844	0.030822	0.001942	15.8701	-61.9289	-166.732	0.000900	0.737947	-0.308392	-0.309666	-0.018536	15.8701	-0.307516	-6085.21	3.046099E-6	NaN
653	1.000000	0.747223	7.37144e+06	-44439.1	1005.82	-29775.9	0.000000	0.000000	6.747039	0.072560	NaN	0.000000	0.001589	0.001703	28.0843	0.072232	0.002058	35.0978	26.3329	-168.024	0.067366	0.745929	-0.300390	-0.301685	0.072560	35.0978	-0.301941	-5029.31	-1.442749E-5	NaN
653	1.000000	0.755212	7.37144e+06	-44439.1	1005.82	-29775.9	0.000000	0.000000	6.755028	0.055093	NaN	0.000000	0.001613	0.001727	28.0841	0.028494	0.002036	13.9977	-142.02	-167.538	0.080933	0.753929	-0.292401	-0.293684	0.055093	13.9977	-0.295353	-4011.99	-1.373219E-5	NaN
653	1.000000	0.763221	7.37144e+06	-44439.1	1005.82	-29775.9	0.000000	0.000000	6.763037	0.075560	NaN	0.000000	0.001577	0.001675	28.0842	0.066368	0.001982	33.4937	-166.857	-163.911	0.053838	0.761917	-0.284392	-0.285697	0.075560	33.4937	-0.286084	-2914.49	-2.592581E-5	NaN
653	1.000000	0.771217	7.37144e+06	-44439.1	1005.82	-29775.9	0.000000	0.000000	6.771032	0.052464	NaN	0.000000	0.001575	0.001702	28.084	0.071371	0.002146	33.2578	-30.5314	-162.322	0.052957	0.769874	-0.276397	-0.277740	0.052464	33.2578	-0.277580	-2169.83	-2.417885E-5	NaN
653	1.000000	0.779216	7.37144e+06	-44439.1	1005.82	-29775.9	0.000000	0.000000	6.779031	0.049701	NaN	0.000000	0.001583	0.001709	28.0843	0.061938	0.002099	29.5116	178.891	-162.893	0.066440	0.777997	-0.268398	-0.269616	0.049701	29.5116	-0.269661	-1645.84	-3.019789E-5	NaN
653	1.000000	0.787229	7.37144e+06	-44439.1	1005.82	-29775.9	0.000000	0.000000	6.787044	0.058262	NaN	0.000000	0.001574	0.001707	28.084	0.104621	0.002006	52.1476	107.162	-163.965	0.004341	0.785925	-0.260385	-0.261688	0.058262	52.1476	-0.261223	-1223.62	-4.761423E-5	NaN
653	1.000000	0.795245	7.37144e+06	-44439.1	1005.82	-29775.9	0.000000	0.000000	6.795062	0.101034	NaN	0.000000	0.001567	0.001702	28.0843	0.018620	0.001865	9.982353	-98.9857	-163.076	0.065323	0.793901	-0.252368	-0.253712	0.101034	9.982353	-0.259959	-1170.28	-8.633290E-5	NaN
653	1.000000	0.803262	7.37144e+06	-44439.1	1005.82	-29775.9	0.000000	0.000000	6.803078	0.074005	NaN	0.000000	0.001606	0.001662	28.0843	0.077232	0.002071	37.2913	-66.1014	-163.18	0.146672	0.801904	-0.244352	-0.245709	0.074005	37.2913	-0.245840	-708.766	-0.000104	NaN
653	1.000000	0.811270	7.37144e+06	-44439.1	1005.82	-29775.9	0.000000	0.000000	6.811086	0.078694	NaN	0.000000	0.001608	0.001689	28.0842	0.057724	0.002037	28.3333	162.078	-164.847	-0.017540	0.809981	-0.236344	-0.237633	0.078694	28.3333	-0.238427	-543.199	-0.000145	NaN
653	1.000000	0.819258	7.37144e+06	-44439.1	1005.82	-29775.9	0.000000	0.000000	6.819072	0.042312	NaN	0.000000	0.001684	0.001703	28.0843	0.030282	0.001981	15.2876	160.616	-164.946	-0.003455	0.817955	-0.228356	-0.229658	0.042312	15.2876	-0.230432	-406.755	-0.000104	NaN
653	1.000000	0.827243	7.37144e+06	-44439.1	1005.82	-29775.9	0.000000	0.000000	6.827059	0.058590	NaN	0.000000	0.001578	0.001712	28.0841	0.119179	0.001872	63.6647	174.955	-163.763	0.098051	0.825928	-0.220370	-0.221686	0.058590	63.6647	-0.221060	-288.808	-0.000203	NaN
653	1.000000	0.835246	7.37144e+06	-44439.1	1005.82	-29775.9	0.000000	0.000000	6.835067	0.190216	NaN	0.000000	0.001577	0.001716	28.0846	0.012033	0.001970	6.108477	17.7395	-163.39	0.146238	0.833969	-0.212367	-0.213644	0.190216	6.108477	-0.235722	-492.697	-0.000386	NaN
653	1.000000	0.843245	7.37144e+06	-44439.1	1005.82	-29775.9	0.000000	0.000000	6.843060	0.066224	NaN	0.000000	0.001614	0.001720	28.0844	0.091019	0.001898	47.9597	12.8905	-164.294	0.027465	0.841935	-0.204369	-0.205678	0.066224	47.9597	-0.205404	-161.492	-0.000410	NaN
653	1.000000	0.851286	7.37144e+06	-44439.1	1005.82	-29775.9	0.000000	0.000000	6.851100	0.037674	NaN	0.000000	0.001631	0.001710	28.0845	0.080590	0.002027	39.7571	-44.7309	-163.174	0.043276	0.849933	-0.196328	-0.197681	0.037674	39.7571	-0.197039	-117.738	-0.000320	NaN
653	1.000000	0.859303	7.37144e+06	-44439.1	1005.82	-29775.9	0.000000	0.000000	6.859117	0.023876	NaN	0.000000	0.001603	0.001702	28.0843	0.050103	0.001930	25.9535	6.875543	-166.972	-0.013762	0.857992	-0.188310	-0.189622	0.023876	25.9535	-0.189000	-86.5583	-0.000276	NaN
653	1.000000	0.867260	7.37144e+06	-44439.1	1005.82	-29775.9	0.000000	0.000000	6.867076	0.080487	NaN	0.000000	0.001634	0.001692	28.0843	0.094549	0.002093	45.1742	96.3592	-165.623	0.024567	0.866007	-0.180354	-0.181607	0.080487	45.1742	-0.181690	-65.1888	-0.001235	NaN
653	1.000000	0.875265	7.37144e+06	-44439.1	1005.82	-29775.9	0.000000	0.000000	6.875081	0.083051	NaN	0.000000	0.001634	0.001678	28.0834	0.071290	0.002007	35.5205	46.0651	-167.415	-0.030307	0.873979	-0.172349	-0.173635	0.083051	35.5205	-0.174102	-48.3663	-0.001717	NaN
653	1.000000	0.883289	7.37144e+06	-44439.1	1005.82	-29775.9	0.000000	0.000000	6.883104	0.053726	NaN	0.000000	0.001605	0.001683	28.0832	0.091344	0.002050	44.557	-174.623	-165.946	0.104720	0.881957	-0.164325	-0.165657	0.053726	44.557	-0.165229	-33.9098	-0.001584	NaN
653	1.000000	0.891269	7.37144e+06	-44439.1	1005.82	-29775.9	0.000000	0.000000	6.891084	0.044495	NaN	0.000000	0.001612	0.001729	28.0829	0.079925	0.002042	39.1491	-74.9244	-166.376	0.070389	0.889995	-0.156344	-0.157618	0.044495	39.1491	-0.157197	-24.4342	-0.001821	NaN
653	1.000000	0.899258	7.37144e+06	-44439.1	1005.82	-29775.9	0.000000	0.000000	6.899070	-0.007623	NaN	0.000000	0.001588	0.001695	28.083	0.059676	0.002037	29.3001	-25.3411	-163.58	-0.047976	0.897988	-0.148356	-0.149625	-0.007623	29.3001	-0.148161	-16.7639	0.000455	NaN
653	1.000000	0.907286	7.37144e+06	-44439.1	1005.82	-29775.9	0.000000	0.000000	6.907102	0.083655	NaN	0.000000	0.001593	0.001692	28.0831	0.107192	0.001971	54.396	138.905	-165.605	0.105445	0.905975	-0.140327	-0.141639	0.083655	54.396	-0.141481	-12.6101	-0.006634	NaN
653	1.000000	0.915307	7.37144e+06	-44439.1	1005.82	-29775.9	0.000000	0.000000	6.915122	0.067214	NaN	0.000000	0.001629	0.001737	28.0831	0.016805	0.001948	8.626976	10.9808	-167.233	0.122784	0.913995	-0.132307	-0.133619	0.067214	8.626976	-0.138150	-10.9174	-0.006157	NaN
653	1.000000	0.923294	7.37144e+06	-44439.1	1005.82	-29775.9	0.000000	0.000000	6.923108	0.039496	NaN	0.000000	0.001599	0.001668	28.0831	0.084440	0.002117	39.8776	-9.860769	-160.998	0.095809	0.921985	-0.124320	-0.125628	0.039496	39.8776	-0.125062	-6.098586	-0.006476	NaN
653	1.000000	0.931317	7.37144e+06	-44439.1	1005.82	-29775.9	0.000000	0.000000	6.931133	0.064444	NaN	0.000000	0.001608	0.001715	28.0832	0.068574	0.002051	33.4364	-88.57	-165.17	0.083547	0.930011	-0.116297	-0.117602	0.064444	33.4364	-0.117742	-4.348071	-0.014821	NaN
653	1.000000	0.939291	7.37144e+06	-44439.1	1005.82	-29775.9	0.000000	0.000000	6.939103	-0.030998	NaN	0.000000	0.001604	0.001694	28.0831	0.083863	0.002052	40.876	-108.64	-167.057	0.027760	0.938006	-0.108322	-0.109608	-0.030998	40.876	-0.107754	-2.693122	0.011510	NaN
653	1.000000	0.947305	7.37144e+06	-44439.1	1005.82	-29775.9	0.000000	0.000000	6.947120	0.037779	NaN	0.000000	0.001583	0.001702	28.0834	0.011649	0.002037	5.718076	-172.763	-161.787	0.016015	0.946023	-0.100308	-0.101590	0.037779	5.718076	-0.105263	-2.381548	-0.015863	NaN
653	1.000000	0.955293	7.37144e+06	-44439.1	1005.82	-29775.9	0.000000	0.000000	6.955108	0.058528	NaN	0.000000	0.001609	0.001712	28.083	0.051448	0.002019	25.484	-141.78	-164.308	0.056735	0.953998	-0.092321	-0.093615	0.058528	25.484	-0.094043	-1.341384	-0.043632	NaN
653	1.000000	0.963322	7.37144e+06	-44439.1	1005.82	-29775.9	0.000000	0.000000	6.963136	0.036287	NaN	0.000000	0.001588	0.001692	28.0829	0.053413	0.001948	27.4191	28.9935	-163.848	0.030057	0.962012	-0.084292	-0.085601	0.036287	27.4191	-0.085285	-0.834758	-0.043471	NaN
653	1.000000	0.971321	7.37144e+06	-44439.1	1005.82	-29775.9	0.000000	0.000000	6.971135	0.031264	NaN	0.000000	0.001601	0.001692	28.0831	0.036231	0.001897	19.0963	129.618	-162.685	0.025511	0.970011	-0.076293	-0.077603	0.031264	19.0963	-0.077521	-0.536009	-0.058327	NaN
653	1.000000	0.979304	7.37144e+06	-44439.1	1005.82	-29775.9	0.000000	0.000000	6.979118	0.015508	NaN	0.000000	0.001604	0.001724	28.0829	0.069945	0.001891	36.9833	132.255	-158.831	0.004186	0.977990	-0.068309	-0.069624	0.015508	36.9833	-0.068624	-0.313217	-0.049513	NaN
653	1.000000	0.987368	7.37144e+06	-44439.1	1005.82	-29775.9	0.000000	0.000000	6.987182	0.041221	NaN	0.000000	0.001605	0.001687	28.0834	0.051020	0.001957	26.0721	-168.174	-165.498	-0.007056	0.985977	-0.060246	-0.061636	0.041221	26.0721	-0.061432	-0.197868	-0.208326	NaN
653	1.000000	0.995324	7.37144e+06	-44439.1	1005.82	-29775.9	0.000000	0.000000	6.995138	0.027638	NaN	0.000000	0.001637	0.001673	28.0829	0.107424	0.002188	49.1041	-18.2358	-164.632	0.089651	0.994026	-0.052289	-0.053588	0.027638	49.1041	-0.052712	-0.110103	-0.251018	NaN
653	1.000000	1.003335	7.37144e+06	-44439.1	1005.82	-29775.9	0.000000	0.000000	7.003147	-0.002784	NaN	0.000000	0.001584	0.001660	28.0829	0.062955	0.002007	31.3689	-54.5138	-162.813	0.024043	1.001996	-0.044279	-0.045617	-0.002784	31.3689	-0.044212	-0.060801	0.045789	NaN
653	1.000000	1.011350	7.37144e+06	-44439.1	1005.82	-29775.9	0.000000	0.000000	7.011164	0.023276	NaN	0.000000	0.001594	0.001627	28.0841	0.090783	0.001949	46.5764	-171.301	-166.28	-0.068748	1.010041	-0.036263	-0.037572	0.023276	46.5764	-0.036638	-0.035814	-0.649919	NaN
653	1.000000	1.019341	7.37144e+06	-44439.1	1005.82	-29775.9	0.000000	0.000000	7.019156	0.056839	NaN	0.000000	0.001590	0.001678	28.0841	0.129598	0.001924	67.3655	69.9619	-166.354	-0.027757	1.018018	-0.028272	-0.029596	0.056839	67.3655	-0.028905	-0.021463	-2.648269	NaN
653	1.000000	1.027339	7.37144e+06	-44439.1	1005.82	-29775.9	0.000000	0.000000	7.027151	-0.019902	NaN	0.000000	0.001615	0.001732	28.0845	0.115330	0.002003	57.5866	94.9215	-169.51	0.014731	1.026038	-0.020275	-0.021576	-0.019902	57.5866	-0.020015	-0.012572	1.583038	NaN
653	1.000000	1.035344	7.37144e+06	-44439.1	1005.82	-29775.9	0.000000	0.000000	7.035156	-0.006214	NaN	0.000000	0.001610	0.001722	28.0843	0.167516	0.001985	84.3711	11.7343	-166.895	-0.049500	1.034035	-0.012270	-0.013578	-0.006214	84.3711	-0.012215	-0.007651	0.812198	NaN
653	1.000000	1.043332	7.37144e+06	-44439.1	1005.82	-29775.9	0.000000	0.000000	7.043145	0.017517	NaN	0.000000	0.001588	0.001705	28.0845	0.130823	0.001798	72.7607	107.656	-160.784	0.152066	1.042013	-0.004282	-0.005601	0.017517	72.7607	-0.004463	-0.003076	-5.694316	NaN
653	1.000000	1.051336	7.37144e+06	-44439.1	1005.82	-29775.9	0.000000	0.000000	7.051317	4.081068	NaN	0.000000	0.001585	0.001736	28.084	4.552662	0.001735	2624.49	8.170614	-169.989	2.253556	1.049950	0.003723	0.002336	4.081068	2624.49	0.002556	0.002010	2030.61	53486.5
653	2.000000	1.055943	7.37144e+06	-44439.1	1005.82	-29775.9	0.000000	0.000000	7.056177	10.2429	NaN	0.000000	0.001616	0.001703	28.0841	9.381098	0.001612	5818.7	8.226893	-175.428	9.352025	1.055728	0.008330	0.008115	10.2429	5818.7	0.007010	0.006043	1694.9	68384.8
653	2.000000	1.057999	7.37144e+06	-44439.1	1005.82	-29775.9	0.000000	0.000000	7.058363	13.4195	NaN	0.000000	0.001586	0.001674	28.084	10.8157	0.001700	6360.68	5.346732	-167.959	12.9906	1.057591	0.010385	0.009977	13.4195	6360.68	0.008803	0.007881	1702.7	65460.1
653	2.000000	1.059986	7.37144e+06	-44439.1	1005.82	-29775.9	0.000000	0.000000	7.060398	14.5759	NaN	0.000000	0.001608	0.001706	28.084	13.2279	0.001709	7740.23	5.017738	-173.416	14.8713	1.059642	0.012373	0.012028	14.5759	7740.23	0.010960	0.010268	1419.52	69787.8
653	2.000000	1.061936	7.37144e+06	-44439.1	1005.82	-29775.9	0.000000	0.000000	7.062506	18.4181	NaN	0.000000	0.001599	0.001695	28.0849	15.3533	0.001760	8723.64	3.118156	-171.976	17.488	1.061659	0.014323	0.014045	18.4181	8723.64	0.012739	0.012388	1486.82	71610.6
653	2.000000	1.063931	7.37144e+06	-44439.1	1005.82	-29775.9	0.000000	0.000000	7.064623	21.3914	NaN	0.000000	0.001670	0.001683	28.0841	16.8782	0.001615	10448.4	6.518121	-176.816	20.8656	1.063584	0.016317	0.015971	21.3914	10448.4	0.014782	0.014996	1426.5	77954.2
653	2.000000	1.065902	7.37144e+06	-44439.1	1005.82	-29775.9	0.000000	0.000000	7.066756	25.3116	NaN	0.000000	0.001682	0.001649	28.0842	19.0546	0.001667	11429.3	2.991821	-174.303	23.8289	1.065548	0.018289	0.017934	25.3116	11429.3	0.016628	0.017518	1444.92	78896.1
653	2.000000	1.067906	7.37144e+06	-44439.1	1005.82	-29775.9	0.000000	0.000000	7.068982	30.7286	NaN	0.000000	0.001644	0.001681	28.0843	21.4337	0.001712	12517.6	2.850645	-174.848	28.8971	1.067556	0.020292	0.019943	30.7286	12517.6	0.018451	0.020166	1523.76	80534
653	2.000000	1.069911	7.37144e+06	-44439.1	1005.82	-29775.9	0.000000	0.000000	7.071060	32.5017	NaN	0.000000	0.001660	0.001680	28.084	23.6011	0.001797	13136.6	5.350302	-177.268	33.4126	1.069603	0.022297	0.021989	32.5017	13136.6	0.020442	0.023241	1398.44	78727.5
653	2.000000	1.071902	7.37144e+06	-44439.1	1005.82	-29775.9	0.000000	0.000000	7.073310	38.8053	NaN	0.000000	0.001642	0.001668	28.0842	25.5406	0.001817	14060	2.895819	-176.129	37.7108	1.071641	0.024288	0.024028	38.8053	14060	0.022218	0.026148	1484.05	79439.7
653	2.000000	1.073875	7.37144e+06	-44439.1	1005.82	-29775.9	0.000000	0.000000	7.075611	46.7678	NaN	0.000000	0.001555	0.001703	28.084	26.6191	0.001721	15471.3	2.721628	-175.422	45.6332	1.073572	0.026262	0.025958	46.7678	15471.3	0.023995	0.029212	1600.98	82702.7
653	2.000000	1.075889	7.37144e+06	-44439.1	1005.82	-29775.9	0.000000	0.000000	7.077748	49.7807	NaN	0.000000	0.001565	0.001713	28.0843	29.5684	0.001751	16882.4	5.406507	-179.655	48.3775	1.075531	0.028275	0.027918	49.7807	16882.4	0.026064	0.032979	1509.46	84935.1
653	2.000000	1.077873	7.37144e+06	-44439.1	1005.82	-29775.9	0.000000	0.000000	7.080102	58.7616	NaN	0.000000	0.001577	0.001691	28.0833	31.9529	0.001861	17172.9	5.951175	-179.985	57.3136	1.077587	0.030260	0.029973	58.7616	17172.9	0.027693	0.036099	1627.81	82579.3
653	2.000000	1.079836	7.37144e+06	-44439.1	1005.82	-29775.9	0.000000	0.000000	7.082276	63.9199	NaN	0.000000	0.001607	0.001699	28.0827	33.4118	0.001832	18235.2	3.442617	-178.605	63.1755	1.079573	0.032223	0.031959	63.9199	18235.2	0.029594	0.039906	1601.78	83400
653	2.000000	1.081853	7.37144e+06	-44439.1	1005.82	-29775.9	0.000000	0.000000	7.084672	73.1232	NaN	0.000000	0.001636	0.001678	28.0831	34.7647	0.001800	19314.2	2.528855	-177.631	70.5505	1.081509	0.034240	0.033896	73.1232	19314.2	0.031400	0.043696	1673.47	84417.2
653	2.000000	1.083842	7.37144e+06	-44439.1	1005.82	-29775.9	0.000000	0.000000	7.086986	81.0424	NaN	0.000000	0.001597	0.001677	28.0829	35.9015	0.001726	20801.4	3.653657	-179.303	80.5577	1.083540	0.036229	0.035926	81.0424	20801.4	0.033307	0.047876	1692.74	86857
653	2.000000	1.085855	7.37144e+06	-44439.1	1005.82	-29775.9	0.000000	0.000000	7.089190	85.6893	NaN	0.000000	0.001584	0.001719	28.0829	38.6012	0.001862	20729.5	5.287340	179.206	84.1831	1.085599	0.038241	0.037986	85.6893	20729.5	0.035141	0.052074	1645.52	82994.5
653	2.000000	1.087895	7.37144e+06	-44439.1	1005.82	-29775.9	0.000000	0.000000	7.091514	92.5975	NaN	0.000000	0.001569	0.001730	28.0833	39.9697	0.001816	22011.4	4.900359	178.619	91.7669	1.087642	0.040282	0.040028	92.5975	22011.4	0.037127	0.056814	1629.85	84371.2
653	2.000000	1.089871	7.37144e+06	-44439.1	1005.82	-29775.9	0.000000	0.000000	7.093785	99.7638	NaN	0.000000	0.001613	0.001680	28.0828	41.034	0.001809	22684.3	3.642090	179.956	99.4936	1.089607	0.042257	0.041993	99.7638	22684.3	0.038959	0.061365	1625.73	83663.7
653	2.000000	1.091797	7.37144e+06	-44439.1	1005.82	-29775.9	0.000000	0.000000	7.096287	113.777	NaN	0.000000	0.001582	0.001700	28.0829	43.2899	0.001845	23464.5	1.659726	-178.329	111.245	1.091532	0.044184	0.043919	113.777	23464.5	0.040547	0.065450	1738.37	83797.2
653	2.000000	1.093868	7.37144e+06	-44439.1	1005.82	-29775.9	0.000000	0.000000	7.098676	121.518	NaN	0.000000	0.001593	0.001722	28.0829	44.6909	0.001749	25557.6	5.552950	176.822	121.742	1.093530	0.046255	0.045916	121.518	25557.6	0.042689	0.071161	1707.64	87532.9
653	2.000000	1.095762	7.37144e+06	-44439.1	1005.82	-29775.9	0.000000	0.000000	7.100860	128.563	NaN	0.000000	0.001553	0.001703	28.083	47.0746	0.001848	25473.6	5.158343	177.399	124.625	1.095578	0.048149	0.047965	128.563	25473.6	0.044364	0.075791	1696.28	84538.5
653	2.000000	1.097906	7.37144e+06	-44439.1	1005.82	-29775.9	0.000000	0.000000	7.103332	136.551	NaN	0.000000	0.001560	0.001716	28.0832	48.6385	0.001671	29099	4.729769	176.908	138.809	1.097494	0.050293	0.049880	136.551	29099	0.046773	0.082700	1651.16	92448.1
653	2.000000	1.099908	7.37144e+06	-44439.1	1005.82	-29775.9	0.000000	0.000000	7.105615	143.38	NaN	0.000000	0.001606	0.001679	28.0832	51.2077	0.001915	26734.9	9.524991	172.425	145.582	1.099581	0.052295	0.051968	143.38	26734.9	0.048272	0.087148	1645.26	82741.4
653	2.000000	1.101826	7.37144e+06	-44439.1	1005.82	-29775.9	0.000000	0.000000	7.108063	156.29	NaN	0.000000	0.001619	0.001710	28.0829	51.7332	0.001770	29224.8	3.195308	178.332	154.414	1.101587	0.054213	0.053974	156.29	29224.8	0.050202	0.093037	1679.86	87537.9
653	2.000000	1.103814	7.37144e+06	-44439.1	1005.82	-29775.9	0.000000	0.000000	7.110361	163.846	NaN	0.000000	0.001561	0.001746	28.083	52.1845	0.001729	30183.6	1.882169	178.542	160.602	1.103595	0.056200	0.055981	163.846	30183.6	0.052129	0.099107	1653.22	87597.5
653	2.000000	1.105818	7.37144e+06	-44439.1	1005.82	-29775.9	0.000000	0.000000	7.112852	175.68	NaN	0.000000	0.001575	0.001673	28.0832	55.018	0.001804	30501.9	3.277778	177.686	172.794	1.105414	0.058205	0.057800	175.68	30501.9	0.053885	0.104799	1676.35	86084
653	2.000000	1.107866	7.37144e+06	-44439.1	1005.82	-29775.9	0.000000	0.000000	7.115357	186.8	NaN	0.000000	0.001559	0.001682	28.0829	56.5255	0.001744	32406.1	4.070901	177.287	186.496	1.107452	0.060252	0.059838	186.8	32406.1	0.055929	0.111617	1673.58	88620.7
653	2.000000	1.109817	7.37144e+06	-44439.1	1005.82	-29775.9	0.000000	0.000000	7.117770	198.055	NaN	0.000000	0.001592	0.001700	28.083	58.7231	0.001832	32047	5.759118	175.795	196.62	1.109377	0.062203	0.061764	198.055	32047	0.057568	0.117232	1689.43	85514.2
653	2.000000	1.111789	7.37144e+06	-44439.1	1005.82	-29775.9	0.000000	0.000000	7.120241	210.165	NaN	0.000000	0.001538	0.001699	28.0844	61.2227	0.001840	33274.7	2.892470	177.247	207.418	1.111576	0.064176	0.063962	210.165	33274.7	0.059439	0.123804	1697.56	86401.3
653	2.000000	1.113838	7.37144e+06	-44439.1	1005.82	-29775.9	0.000000	0.000000	7.122745	221.236	NaN	0.000000	0.001569	0.001687	28.0842	61.904	0.001807	34263.8	3.619128	176.626	219.413	1.113565	0.066225	0.065952	221.236	34263.8	0.061382	0.130812	1691.25	86553.7
653	2.000000	1.115804	7.37144e+06	-44439.1	1005.82	-29775.9	0.000000	0.000000	7.125230	233.867	NaN	0.000000	0.001612	0.001675	28.0842	64.2482	0.001771	36273.8	6.186652	173.99	232.037	1.115452	0.068190	0.067839	233.867	36273.8	0.063355	0.138112	1693.31	89176.3
653	2.000000	1.117803	7.37144e+06	-44439.1	1005.82	-29775.9	0.000000	0.000000	7.127731	246.084	NaN	0.000000	0.001597	0.001709	28.0842	66.1467	0.001761	37555.6	5.518276	173.954	242.734	1.117456	0.070189	0.069842	246.084	37555.6	0.065275	0.145399	1692.47	89984.2
653	2.000000	1.119761	7.37144e+06	-44439.1	1005.82	-29775.9	0.000000	0.000000	7.130164	257.639	NaN	0.000000	0.001610	0.001709	28.0843	67.615	0.001784	37904.2	6.942110	172.11	255.464	1.119525	0.072147	0.071911	257.639	37904.2	0.067049	0.152292	1691.75	88740.6
653	2.000000	1.121763	7.37144e+06	-44439.1	1005.82	-29775.9	0.000000	0.000000	7.132892	275.309	NaN	0.000000	0.001644	0.001686	28.0843	69.5069	0.001791	38807.7	1.806169	177.968	270.149	1.121425	0.074149	0.073811	275.309	38807.7	0.068828	0.159354	1727.65	88819.7
653	2.000000	1.123796	7.37144e+06	-44439.1	1005.82	-29775.9	0.000000	0.000000	7.135518	289.74	NaN	0.000000	0.001650	0.001733	28.084	70.2327	0.001717	40893	3.846857	175.169	289.265	1.123392	0.076182	0.075778	289.74	40893	0.070868	0.167638	1728.37	91250.5
653	2.000000	1.125705	7.37144e+06	-44439.1	1005.82	-29775.9	0.000000	0.000000	7.137901	301.265	NaN	0.000000	0.001654	0.001717	28.0838	74.3662	0.001708	43530.1	4.829207	173.427	294.15	1.125404	0.078091	0.077791	301.265	43530.1	0.072900	0.176087	1710.89	94776.3
653	2.000000	1.127877	7.37144e+06	-44439.1	1005.82	-29775.9	0.000000	0.000000	7.140550	312.855	NaN	0.000000	0.001654	0.001725	28.0841	77.0096	0.001845	41734	6.020550	173.336	314.177	1.127514	0.080263	0.079901	312.855	41734	0.074641	0.183478	1705.13	89016.5
653	2.000000	1.129797	7.37144e+06	-44439.1	1005.82	-29775.9	0.000000	0.000000	7.142966	324.917	NaN	0.000000	0.001622	0.001709	28.0841	76.7478	0.001694	45299.5	0.084108	177.741	322.906	1.129547	0.082184	0.081934	324.917	45299.5	0.076804	0.192863	1684.71	94241.7
653	2.000000	1.131763	7.37144e+06	-44439.1	1005.82	-29775.9	0.000000	0.000000	7.145506	338.901	NaN	0.000000	0.001584	0.001729	28.0842	80.1872	0.001790	44809.7	5.212624	173.5	335.571	1.131457	0.084149	0.083843	338.901	44809.7	0.078477	0.200269	1692.23	91482.5
653	2.000000	1.133809	7.37144e+06	-44439.1	1005.82	-29775.9	0.000000	0.000000	7.148376	358.944	NaN	0.000000	0.001655	0.001714	28.0844	81.2109	0.001648	49276.6	7.743636	169.47	358.638	1.133333	0.086195	0.085719	358.944	49276.6	0.080732	0.210463	1705.49	98135.3
653	2.000000	1.135663	7.37144e+06	-44439.1	1005.82	-29775.9	0.000000	0.000000	7.150746	371.505	NaN	0.000000	0.001627	0.001703	28.0839	83.6719	0.001867	44826.2	2.014954	176.132	362.792	1.135392	0.088049	0.087779	371.505	44826.2	0.081833	0.215527	1723.7	88217.4
653	2.000000	1.137798	7.37144e+06	-44439.1	1005.82	-29775.9	0.000000	0.000000	7.153603	389.083	NaN	0.000000	0.001565	0.001705	28.0842	85.4183	0.001751	48778.7	6.240208	171.347	387.301	1.137373	0.090184	0.089759	389.083	48778.7	0.084202	0.226608	1716.99	93619.4
653	2.000000	1.139731	7.37144e+06	-44439.1	1005.82	-29775.9	0.000000	0.000000	7.156121	403.275	NaN	0.000000	0.001605	0.001704	28.0839	86.4043	0.001768	48876	2.960933	174.719	399.264	1.139472	0.092118	0.091859	403.275	48876	0.085929	0.234855	1717.12	92144.2
653	2.000000	1.141815	7.37144e+06	-44439.1	1005.82	-29775.9	0.000000	0.000000	7.158483	410.052	NaN	0.000000	0.001582	0.001678	28.0841	89.6295	0.001762	50853.6	4.234547	172.471	409.202	1.141695	0.094201	0.094082	410.052	50853.6	0.088154	0.245676	1669.08	93737.6
653	2.000000	1.143819	7.37144e+06	-44439.1	1005.82	-29775.9	0.000000	0.000000	7.161375	431.666	NaN	0.000000	0.001584	0.001687	28.0841	90.459	0.001822	49661.2	4.752790	172.824	433.341	1.143533	0.096206	0.095919	431.666	49661.2	0.089686	0.253263	1704.41	90158
653	2.000000	1.145818	7.37144e+06	-44439.1	1005.82	-29775.9	0.000000	0.000000	7.163966	446.053	NaN	0.000000	0.001600	0.001656	28.083	93.6254	0.001881	49762.5	5.075668	173.111	448.197	1.145461	0.098204	0.097848	446.053	49762.5	0.091482	0.262289	1700.62	88774
653	2.000000	1.147794	7.37144e+06	-44439.1	1005.82	-29775.9	0.000000	0.000000	7.166565	461.217	NaN	0.000000	0.001594	0.001694	28.0829	94.9464	0.001770	53642.1	2.461600	174.671	459.37	1.147449	0.100180	0.099836	461.217	53642.1	0.093732	0.273808	1684.45	93660.3
653	2.000000	1.149736	7.37144e+06	-44439.1	1005.82	-29775.9	0.000000	0.000000	7.169201	478.093	NaN	0.000000	0.001560	0.001681	28.083	96.0069	0.001836	52277.6	1.724273	175.128	473.102	1.149405	0.102123	0.101792	478.093	52277.6	0.095264	0.281786	1696.65	89976.5
653	2.000000	1.151879	7.37144e+06	-44439.1	1005.82	-29775.9	0.000000	0.000000	7.171729	487.48	NaN	0.000000	0.001613	0.001681	28.0829	98.5986	0.001783	55305.5	0.394905	176.424	491.058	1.151630	0.104265	0.104016	487.48	55305.5	0.097654	0.294445	1655.59	93119.4
653	2.000000	1.153313	7.37144e+06	-44439.1	1005.82	-29775.9	0.000000	0.000000	7.174003	507.897	NaN	0.000000	0.001609	0.001719	28.0827	100.084	0.001797	55702.2	8.376370	-10.7918	507.977	1.152825	0.105700	0.105211	507.897	55702.2	0.098861	0.300933	1687.74	92770.6