File: remote_trans/data/nanoindenter/0828-1/data/Data_2025-08-06,11h17m57s/2025-07-22_16-23-58_1_131.txt
2025-07-22, 16:23:58, 1
Index	Phase	Displacement	Time	Pos X	Pos Y	Pos Z	Rot A	Rot B	Piezo Z	Force A	Force B	Gripper	Voltage A	Voltage B	Temperature	Amplitude force	Amplitude pos	Stiffness	Phase shift	Phase excitation	Force A raw	Displacement raw	HMax	HMax raw	Real Force	Real Stiffness	Contact Depth	Area	Hardness	Reduced Mod.
[#]	[#]	[um]	[s]	[um]	[um]	[um]	[m°]	[m°]	[um]	[uN]	[uN]	[V]	[V]	[V]	[°C]	[uN]	[um]	[N/m]	[°]	[°]	[uN]	[um]	[um]	[um]	[uN]	[N/m]	[um]	[um^2]	[MPa]	[MPa]
131	1.000000	0.002219	7.36632e+06	-45189.1	955.82	-29773.8	0.000000	0.000000	6.002803	0.033475	NaN	0.000000	0.001588	0.001684	28.1314	0.058734	0.000935	62.8136	83.8137	-159.794	-0.006936	0.000915	-1.083250	-1.084553	0.033475	62.8136	-1.083649	-3.023648E+14	-1.107115E-16	NaN
131	1.000000	0.012307	7.36632e+06	-45189.1	955.819	-29773.8	0.000000	0.000000	6.012889	-0.003409	NaN	0.000000	0.001544	0.001723	28.0969	0.086291	0.001232	70.0395	-102.198	19.5597	-0.035775	0.010854	-1.073162	-1.074614	-0.003409	70.0395	-1.073125	-2.183617E+14	1.561388E-17	NaN
131	1.000000	0.022184	7.36632e+06	-45189.1	955.819	-29773.8	0.000000	0.000000	6.022764	-0.060490	NaN	0.000000	0.001534	0.001664	28.0805	0.116851	0.001758	66.4763	-8.316428	-165.329	-0.007178	0.020846	-1.063284	-1.064623	-0.060490	66.4763	-1.062602	-1.576841E+14	3.836146E-16	NaN
131	1.000000	0.032189	7.36632e+06	-45189.1	955.817	-29773.8	0.000000	0.000000	6.032770	-0.013915	NaN	0.000000	0.001547	0.001721	28.0979	0.063718	0.001976	32.2461	-47.9414	14.0964	-0.086310	0.030787	-1.053280	-1.054682	-0.013915	32.2461	-1.052956	-1.169904E+14	1.189414E-16	NaN
131	1.000000	0.042184	7.36632e+06	-45189.1	955.819	-29773.8	0.000000	0.000000	6.042766	-0.016502	NaN	0.000000	0.001563	0.001703	28.1319	0.164744	0.001964	83.8782	156.58	-161.721	-0.050829	0.040826	-1.043285	-1.044643	-0.016502	83.8782	-1.043137	-8.632715E+13	1.911586E-16	NaN
131	1.000000	0.052205	7.36632e+06	-45189.1	955.819	-29773.8	0.000000	0.000000	6.052785	-0.059902	NaN	0.000000	0.001532	0.001676	28.0997	0.036689	0.001877	19.5475	27.0802	17.6592	-0.053063	0.050805	-1.033264	-1.034664	-0.059902	19.5475	-1.030965	-5.921971E+13	1.011520E-15	NaN
131	1.000000	0.062151	7.36632e+06	-45189.1	955.818	-29773.8	0.000000	0.000000	6.062736	0.045980	NaN	0.000000	0.001555	0.001716	28.0822	0.091049	0.002154	42.2761	-1.971618	-166.021	0.036452	0.060881	-1.023317	-1.024587	0.045980	42.2761	-1.024133	-4.792408E+13	-9.594274E-16	NaN
131	1.000000	0.072165	7.36632e+06	-45189.1	955.819	-29773.8	0.000000	0.000000	6.072745	-0.038523	NaN	0.000000	0.001573	0.001675	28.0962	0.047386	0.001708	27.7402	-7.579321	11.5993	-0.030735	0.070813	-1.013304	-1.014656	-0.038523	27.7402	-1.012262	-3.317649E+13	1.161168E-15	NaN
131	1.000000	0.082192	7.36632e+06	-45189.1	955.818	-29773.8	0.000000	0.000000	6.082774	-0.001646	NaN	0.000000	0.001576	0.001681	28.1296	0.097398	0.002228	43.7216	177.07	-167.22	0.098183	0.080879	-1.003276	-1.004590	-0.001646	43.7216	-1.003248	-2.508974E+13	6.562213E-17	NaN
131	1.000000	0.092176	7.36632e+06	-45189.1	955.817	-29773.8	0.000000	0.000000	6.092757	-0.010238	NaN	0.000000	0.001581	0.001694	28.0971	0.035051	0.002059	17.0247	-3.588160	14.0285	-0.009155	0.090872	-0.993293	-0.994597	-0.010238	17.0247	-0.992842	-1.817121E+13	5.634310E-16	NaN
131	1.000000	0.102161	7.36632e+06	-45189.1	955.818	-29773.8	0.000000	0.000000	6.102743	-0.019773	NaN	0.000000	0.001541	0.001669	28.0789	0.080262	0.001976	40.6171	-122.12	-165.286	0.042043	0.100893	-0.983307	-0.984575	-0.019773	40.6171	-0.982942	-1.336737E+13	1.479168E-15	NaN
131	1.000000	0.112187	7.36632e+06	-45189.1	955.818	-29773.8	0.000000	0.000000	6.112770	0.010497	NaN	0.000000	0.001605	0.001704	28.0968	0.045790	0.002036	22.4903	-81.1743	13.2897	-0.008682	0.110847	-0.973281	-0.974622	0.010497	22.4903	-0.973631	-1.001386E+13	-1.048271E-15	NaN
131	1.000000	0.122202	7.36632e+06	-45189.1	955.818	-29773.8	0.000000	0.000000	6.122784	-0.007303	NaN	0.000000	0.001567	0.001687	28.1316	0.037832	0.001975	19.1513	128.165	-163.879	-0.023038	0.120866	-0.963266	-0.964602	-0.007303	19.1513	-0.962980	-7.195299E+12	1.014960E-15	NaN
131	1.000000	0.132216	7.36632e+06	-45189.1	955.819	-29773.8	0.000000	0.000000	6.132797	-0.014935	NaN	0.000000	0.001508	0.001643	28.0982	0.033069	0.001939	17.0516	54.4731	16.8711	-0.032155	0.130809	-0.953253	-0.954659	-0.014935	17.0516	-0.952596	-5.212385E+12	2.865197E-15	NaN
131	1.000000	0.142194	7.36632e+06	-45189.1	955.818	-29773.8	0.000000	0.000000	6.142779	0.046080	NaN	0.000000	0.001565	0.001630	28.0804	0.037241	0.002001	18.6097	111.487	-163.93	0.010674	0.140949	-0.943274	-0.944519	0.046080	18.6097	-0.945131	-4.133891E+12	-1.114698E-14	NaN
131	1.000000	0.152227	7.36632e+06	-45189.1	955.818	-29773.8	0.000000	0.000000	6.152809	-0.007944	NaN	0.000000	0.001566	0.001677	28.0954	0.066196	0.001937	34.1812	-141.488	15.6083	0.043248	0.150867	-0.933242	-0.934601	-0.007944	34.1812	-0.933068	-2.841814E+12	2.795242E-15	NaN
131	1.000000	0.162216	7.36632e+06	-45189.1	955.818	-29773.8	0.000000	0.000000	6.162797	-0.053135	NaN	0.000000	0.001607	0.001636	28.1307	0.083247	0.002058	40.4422	177.994	-166.427	0.039451	0.160890	-0.923252	-0.924578	-0.053135	40.4422	-0.922267	-2.031460E+12	2.615628E-14	NaN
131	1.000000	0.172229	7.36632e+06	-45189.1	955.818	-29773.8	0.000000	0.000000	6.172811	0.003702	NaN	0.000000	0.001623	0.001672	28.0964	0.034137	0.001774	19.2458	-152.059	16.6741	0.095866	0.170903	-0.913240	-0.914565	0.003702	19.2458	-0.913384	-1.541228E+12	-2.401819E-15	NaN
131	1.000000	0.182215	7.36632e+06	-45189.1	955.818	-29773.8	0.000000	0.000000	6.182796	-0.030956	NaN	0.000000	0.001627	0.001702	28.0791	0.131773	0.001980	66.5561	132.657	-169.508	0.040129	0.180909	-0.903254	-0.904559	-0.030956	66.5561	-0.902905	-1.112540E+12	2.782478E-14	NaN
131	1.000000	0.192211	7.36632e+06	-45189.1	955.818	-29773.8	0.000000	0.000000	6.192792	-0.014521	NaN	0.000000	0.001646	0.001696	28.0961	0.090764	0.002026	44.8053	25.1001	13.444	-0.021884	0.190848	-0.893258	-0.894621	-0.014521	44.8053	-0.893015	-8.178339E+11	1.775555E-14	NaN
131	1.000000	0.202205	7.36632e+06	-45189.1	955.818	-29773.8	0.000000	0.000000	6.202791	0.067201	NaN	0.000000	0.001629	0.001675	28.1329	0.062026	0.001862	33.3048	-142.527	-162.084	0.057624	0.200882	-0.883263	-0.884587	0.067201	33.3048	-0.884776	-6.328409E+11	-1.061895E-13	NaN
131	1.000000	0.212222	7.36632e+06	-45189.1	955.819	-29773.8	0.000000	0.000000	6.212807	0.053259	NaN	0.000000	0.001632	0.001670	28.1006	0.046202	0.001914	24.1414	-15.5871	14.9841	0.088739	0.210864	-0.873246	-0.874604	0.053259	24.1414	-0.874901	-4.653055E+11	-1.144603E-13	NaN
131	1.000000	0.222240	7.36632e+06	-45189.1	955.818	-29773.8	0.000000	0.000000	6.222820	-0.062822	NaN	0.000000	0.001609	0.001702	28.0818	0.050088	0.002040	24.5484	-95.088	-164.905	-0.109298	0.220892	-0.863228	-0.864576	-0.062822	24.5484	-0.861309	-3.046748E+11	2.061944E-13	NaN
131	1.000000	0.232252	7.36632e+06	-45189.1	955.818	-29773.8	0.000000	0.000000	6.232832	-0.063168	NaN	0.000000	0.001627	0.001675	28.0972	0.084110	0.002034	41.3565	96.1807	16.8927	-0.105438	0.230914	-0.853216	-0.854554	-0.063168	41.3565	-0.852071	-2.284428E+11	2.765178E-13	NaN
131	1.000000	0.242247	7.36632e+06	-45189.1	955.819	-29773.8	0.000000	0.000000	6.242831	0.054900	NaN	0.000000	0.001643	0.001689	28.1313	0.102758	0.001878	54.7282	78.2143	-164.5	0.017002	0.240975	-0.843222	-0.844493	0.054900	54.7282	-0.843974	-1.774718E+11	-3.093439E-13	NaN
131	1.000000	0.252271	7.36632e+06	-45189.1	955.818	-29773.8	0.000000	0.000000	6.252854	0.015131	NaN	0.000000	0.001625	0.001680	28.0994	0.052002	0.001931	26.9313	14.1988	15.612	-0.004635	0.250916	-0.833198	-0.834552	0.015131	26.9313	-0.833619	-1.284790E+11	-1.177701E-13	NaN
131	1.000000	0.262261	7.36632e+06	-45189.1	955.819	-29773.8	0.000000	0.000000	6.262844	0.016862	NaN	0.000000	0.001591	0.001686	28.0812	0.160353	0.002036	78.7457	-74.1634	-160.968	-0.001484	0.261006	-0.823208	-0.824462	0.016862	78.7457	-0.823368	-9.330065E+10	-1.807305E-13	NaN
131	1.000000	0.272242	7.36632e+06	-45189.1	955.819	-29773.8	0.000000	0.000000	6.272826	0.040824	NaN	0.000000	0.001628	0.001681	28.0973	0.031281	0.002090	14.9673	68.1555	15.0936	-0.025489	0.270876	-0.813226	-0.814593	0.040824	14.9673	-0.815272	-7.245784E+10	-5.634164E-13	NaN
131	1.000000	0.282250	7.36632e+06	-45189.1	955.818	-29773.8	0.000000	0.000000	6.282832	-0.021413	NaN	0.000000	0.001624	0.001646	28.1324	0.027242	0.001912	14.249	-150.35	-166.698	0.061744	0.280957	-0.803218	-0.804511	-0.021413	14.249	-0.802091	-4.800030E+10	4.461071E-13	NaN
131	1.000000	0.292288	7.36632e+06	-45189.1	955.818	-29773.8	0.000000	0.000000	6.292869	-0.038211	NaN	0.000000	0.001603	0.001671	28.1011	0.040684	0.001972	20.6268	169.785	9.248798	-0.099345	0.290908	-0.793181	-0.794561	-0.038211	20.6268	-0.791791	-3.478639E+10	1.098460E-12	NaN
131	1.000000	0.302269	7.36632e+06	-45189.1	955.818	-29773.8	0.000000	0.000000	6.302854	0.058921	NaN	0.000000	0.001602	0.001666	28.081	0.074422	0.002092	35.5776	-91.5507	-164.793	0.031731	0.300991	-0.783199	-0.784478	0.058921	35.5776	-0.784441	-2.764254E+10	-2.131551E-12	NaN
131	1.000000	0.312252	7.36632e+06	-45189.1	955.818	-29773.8	0.000000	0.000000	6.312836	0.046805	NaN	0.000000	0.001635	0.001693	28.095	0.039033	0.002015	19.3699	-171.584	14.6982	0.010052	0.310926	-0.773216	-0.774542	0.046805	19.3699	-0.775029	-2.059058E+10	-2.273110E-12	NaN
131	1.000000	0.322272	7.36632e+06	-45189.1	955.818	-29773.8	0.000000	0.000000	6.322852	-0.054425	NaN	0.000000	0.001589	0.001660	28.1318	0.045186	0.002082	21.7015	-101.011	-163.372	0.010900	0.320957	-0.763197	-0.764512	-0.054425	21.7015	-0.761316	-1.340304E+10	4.060672E-12	NaN
131	1.000000	0.332289	7.36632e+06	-45189.1	955.818	-29773.8	0.000000	0.000000	6.332868	-0.069565	NaN	0.000000	0.001619	0.001693	28.1001	0.081376	0.002116	38.4487	-69.996	15.8342	-0.013612	0.330875	-0.753180	-0.754593	-0.069565	38.4487	-0.751823	-9.954695E+9	6.988195E-12	NaN
131	1.000000	0.342289	7.36632e+06	-45189.1	955.818	-29773.8	0.000000	0.000000	6.342873	0.041823	NaN	0.000000	0.001562	0.001696	28.079	0.095864	0.001990	48.1702	-129.01	-168.818	0.050057	0.341002	-0.743180	-0.744466	0.041823	48.1702	-0.743831	-7.748695E+9	-5.397456E-12	NaN
131	1.000000	0.352292	7.36632e+06	-45189.1	955.818	-29773.8	0.000000	0.000000	6.352874	-0.002300	NaN	0.000000	0.001539	0.001739	28.0951	0.029146	0.002025	14.3943	49.0288	16.6743	-0.055562	0.350953	-0.733176	-0.734516	-0.002300	14.3943	-0.733056	-5.526629E+9	4.161433E-13	NaN
131	1.000000	0.362304	7.36632e+06	-45189.1	955.819	-29773.8	0.000000	0.000000	6.362885	-0.021397	NaN	0.000000	0.001536	0.001747	28.1307	0.067867	0.001985	34.1844	57.9625	-163.96	0.028985	0.360949	-0.723165	-0.724519	-0.021397	34.1844	-0.722695	-3.992350E+9	5.359393E-12	NaN
131	1.000000	0.372281	7.36632e+06	-45189.1	955.819	-29773.8	0.000000	0.000000	6.372863	-0.000111	NaN	0.000000	0.001576	0.001723	28.0996	0.050690	0.001956	25.9185	-83.2019	13.0994	0.005566	0.370934	-0.713188	-0.714534	-0.000111	25.9185	-0.713185	-2.961456E+9	3.754724E-14	NaN
131	1.000000	0.382307	7.36632e+06	-45189.1	955.819	-29773.8	0.000000	0.000000	6.382888	-0.037036	NaN	0.000000	0.001578	0.001699	28.0799	0.098882	0.001955	50.5911	102.321	-169.527	-0.022885	0.381033	-0.703162	-0.704436	-0.037036	50.5911	-0.702613	-2.124251E+9	1.743472E-11	NaN
131	1.000000	0.392308	7.36632e+06	-45189.1	955.818	-29773.8	0.000000	0.000000	6.392890	-0.003100	NaN	0.000000	0.001583	0.001728	28.0938	0.101672	0.002073	49.0573	-107.6	14.0069	-0.040810	0.390983	-0.693160	-0.694486	-0.003100	49.0573	-0.693113	-1.575628E+9	1.967587E-12	NaN
131	1.000000	0.402301	7.36632e+06	-45189.1	955.818	-29773.8	0.000000	0.000000	6.402883	-0.004688	NaN	0.000000	0.001582	0.001655	28.1296	0.039939	0.001955	20.4286	68.9279	-164.18	-0.060630	0.401000	-0.683168	-0.684469	-0.004688	20.4286	-0.682996	-1.145966E+9	4.090473E-12	NaN
131	1.000000	0.412326	7.36632e+06	-45189.1	955.818	-29773.8	0.000000	0.000000	6.412906	-0.053366	NaN	0.000000	0.001559	0.001672	28.0994	0.099090	0.002054	48.2509	-138.231	17.0648	0.006324	0.410975	-0.673142	-0.674494	-0.053366	48.2509	-0.672313	-8.185475E+8	6.519620E-11	NaN
131	1.000000	0.422339	7.36632e+06	-45189.1	955.818	-29773.8	0.000000	0.000000	6.422920	-0.032324	NaN	0.000000	0.001540	0.001688	28.0787	0.073093	0.002118	34.506	-1.740565	-163.412	-0.065721	0.420999	-0.663130	-0.664469	-0.032324	34.506	-0.662427	-5.993964E+8	5.392703E-11	NaN
131	1.000000	0.432325	7.36632e+06	-45189.1	955.818	-29773.8	0.000000	0.000000	6.432907	-0.018317	NaN	0.000000	0.001569	0.001647	28.095	0.101019	0.001977	51.1053	-172.381	15.1694	0.034174	0.430974	-0.653143	-0.654495	-0.018317	51.1053	-0.652874	-4.434425E+8	4.130580E-11	NaN
131	1.000000	0.442310	7.36632e+06	-45189.1	955.818	-29773.8	0.000000	0.000000	6.442890	-0.055556	NaN	0.000000	0.001569	0.001645	28.1304	0.109781	0.002006	54.7132	-154.98	-167.331	-0.065934	0.441073	-0.643159	-0.644395	-0.055556	54.7132	-0.642397	-3.185493E+8	1.744038E-10	NaN
131	1.000000	0.452317	7.36632e+06	-45189.1	955.818	-29773.8	0.000000	0.000000	6.452900	0.008813	NaN	0.000000	0.001524	0.001663	28.1003	0.095798	0.002044	46.8725	178.118	11.832	-0.097135	0.450982	-0.633151	-0.634487	0.008813	46.8725	-0.633292	-2.389063E+8	-3.688781E-11	NaN
131	1.000000	0.462328	7.36632e+06	-45189.1	955.818	-29773.8	0.000000	0.000000	6.462914	0.072979	NaN	0.000000	0.001532	0.001646	28.0801	0.093724	0.002041	45.9174	139.498	-167.278	-0.003997	0.461006	-0.623140	-0.624463	0.072979	45.9174	-0.624332	-1.799574E+8	-4.055368E-10	NaN
131	1.000000	0.472344	7.36632e+06	-45189.1	955.818	-29773.8	0.000000	0.000000	6.472925	-0.022781	NaN	0.000000	0.001537	0.001661	28.095	0.105337	0.001996	52.783	98.9291	13.8807	-0.041997	0.471027	-0.613124	-0.614442	-0.022781	52.783	-0.612801	-1.249230E+8	1.823619E-10	NaN
131	1.000000	0.482339	7.36632e+06	-45189.1	955.818	-29773.8	0.000000	0.000000	6.482921	-0.013191	NaN	0.000000	0.001561	0.001662	28.1308	0.088197	0.001963	44.9208	-117.024	-165.929	-0.116840	0.481040	-0.603130	-0.604428	-0.013191	44.9208	-0.602909	-9.131125E+7	1.444595E-10	NaN
131	1.000000	0.492338	7.36632e+06	-45189.1	955.818	-29773.8	0.000000	0.000000	6.492919	-0.049559	NaN	0.000000	0.001530	0.001635	28.1006	0.014266	0.001873	7.618411	-58.7584	15.2528	-0.052146	0.490988	-0.593130	-0.594480	-0.049559	7.618411	-0.588251	-5.735279E+7	8.641056E-10	NaN
131	1.000000	0.502348	7.36632e+06	-45189.1	955.818	-29773.8	0.000000	0.000000	6.502930	-0.028323	NaN	0.000000	0.001537	0.001666	28.0805	0.098143	0.002003	48.9859	-23.4652	-167.113	-0.073236	0.501012	-0.583120	-0.584456	-0.028323	48.9859	-0.582686	-4.806156E+7	5.893108E-10	NaN
131	1.000000	0.512361	7.36632e+06	-45189.1	955.819	-29773.8	0.000000	0.000000	6.512944	0.000740	NaN	0.000000	0.001566	0.001646	28.0963	0.079901	0.002024	39.4853	-0.324873	15.6916	-0.005984	0.511019	-0.573107	-0.574449	0.000740	39.4853	-0.573121	-3.546082E+7	-2.086254E-11	NaN
131	1.000000	0.522365	7.36632e+06	-45189.1	955.818	-29773.8	0.000000	0.000000	6.522947	-0.011446	NaN	0.000000	0.001580	0.001655	28.1324	0.023708	0.001985	11.9439	110.781	-163.841	-0.014488	0.521044	-0.563103	-0.564424	-0.011446	11.9439	-0.562384	-2.519759E+7	4.542425E-10	NaN
131	1.000000	0.532395	7.36632e+06	-45189.1	955.819	-29773.8	0.000000	0.000000	6.532976	-0.032386	NaN	0.000000	0.001548	0.001704	28.1023	0.113508	0.001962	57.8572	-159.752	15.8325	0.010081	0.531001	-0.553074	-0.554467	-0.032386	57.8572	-0.552654	-1.848040E+7	1.752454E-9	NaN
131	1.000000	0.542413	7.36632e+06	-45189.1	955.818	-29773.8	0.000000	0.000000	6.542994	-0.032122	NaN	0.000000	0.001557	0.001681	28.0824	0.037390	0.001941	19.2671	125.676	-165.302	-0.036894	0.541063	-0.543056	-0.544406	-0.032122	19.2671	-0.541805	-1.307359E+7	2.456992E-9	NaN
131	1.000000	0.552372	7.36632e+06	-45189.1	955.819	-29773.8	0.000000	0.000000	6.552957	0.055025	NaN	0.000000	0.001571	0.001676	28.0942	0.138258	0.002024	68.3052	-101.837	13.8346	0.032974	0.550968	-0.533096	-0.534500	0.055025	68.3052	-0.533700	-1.009139E+7	-5.452712E-9	NaN
131	1.000000	0.562378	7.36632e+06	-45189.1	955.818	-29773.8	0.000000	0.000000	6.562961	0.029037	NaN	0.000000	0.001562	0.001673	28.1309	0.051375	0.001972	26.0562	107.304	-164.599	-0.015303	0.561100	-0.523091	-0.524369	0.029037	26.0562	-0.523927	-7.38229e+06	-3.933388E-9	NaN
131	1.000000	0.572389	7.36632e+06	-45189.1	955.819	-29773.8	0.000000	0.000000	6.572971	-0.007951	NaN	0.000000	0.001568	0.001705	28.1015	0.061306	0.002120	28.9192	-172.851	16.3285	-0.116256	0.571063	-0.513080	-0.514405	-0.007951	28.9192	-0.512874	-5.18124e+06	1.534647E-9	NaN
131	1.000000	0.582393	7.36632e+06	-45189.1	955.818	-29773.8	0.000000	0.000000	6.582975	0.010719	NaN	0.000000	0.001561	0.001684	28.0805	0.077367	0.002044	37.8472	172.192	-166.82	0.004808	0.581087	-0.503076	-0.504382	0.010719	37.8472	-0.503288	-3.8096e+06	-2.813717E-9	NaN
131	1.000000	0.592414	7.36632e+06	-45189.1	955.818	-29773.8	0.000000	0.000000	6.592997	0.017047	NaN	0.000000	0.001555	0.001695	28.0963	0.038520	0.002024	19.0345	-94.1809	20.1023	0.039289	0.591088	-0.493054	-0.494380	0.017047	19.0345	-0.493726	-2.80183e+06	-6.084147E-9	NaN
131	1.000000	0.602378	7.36632e+06	-45189.1	955.818	-29773.8	0.000000	0.000000	6.602959	-0.025010	NaN	0.000000	0.001569	0.001652	28.1318	0.012804	0.001971	6.497289	82.0683	-162.743	-0.048606	0.601089	-0.483091	-0.484379	-0.025010	6.497289	-0.480204	-1.81292e+06	1.379541E-8	NaN
131	1.000000	0.612402	7.36632e+06	-45189.1	955.819	-29773.8	0.000000	0.000000	6.612986	0.035576	NaN	0.000000	0.001576	0.001651	28.1005	0.029377	0.001873	15.6863	-99.5945	17.7847	0.013269	0.610977	-0.473066	-0.474492	0.035576	15.6863	-0.474767	-1.52138e+06	-2.338382E-8	NaN
131	1.000000	0.622417	7.36632e+06	-45189.1	955.819	-29773.8	0.000000	0.000000	6.622999	-0.006016	NaN	0.000000	0.001573	0.001652	28.08	0.047808	0.001997	23.943	-129.517	-164.072	-0.060662	0.621122	-0.463052	-0.464347	-0.006016	23.943	-0.462863	-1.03572e+06	5.808453E-9	NaN
131	1.000000	0.632412	7.36632e+06	-45189.1	955.819	-29773.8	0.000000	0.000000	6.632992	-0.057204	NaN	0.000000	0.001568	0.001698	28.0937	0.046761	0.001923	24.3175	21.1346	14.1279	0.015457	0.631061	-0.453056	-0.454407	-0.057204	24.3175	-0.451292	-712086	8.033257E-8	NaN
131	1.000000	0.642436	7.36632e+06	-45189.1	955.818	-29773.8	0.000000	0.000000	6.643016	-0.042964	NaN	0.000000	0.001567	0.001673	28.1293	0.068200	0.002031	33.5839	-113.397	-165.188	-0.084037	0.641127	-0.443033	-0.444342	-0.042964	33.5839	-0.442073	-527984	8.137461E-8	NaN
131	1.000000	0.652425	7.36632e+06	-45189.1	955.817	-29773.8	0.000000	0.000000	6.653005	-0.033737	NaN	0.000000	0.001558	0.001654	28.0994	0.075802	0.002036	37.2308	-135.752	15.3155	-0.040926	0.651151	-0.433044	-0.434317	-0.033737	37.2308	-0.432364	-385034	8.762193E-8	NaN
131	1.000000	0.662408	7.36632e+06	-45189.1	955.819	-29773.8	0.000000	0.000000	6.662990	-0.013717	NaN	0.000000	0.001543	0.001673	28.0793	0.113057	0.001952	57.9184	112.033	-162.737	-0.060016	0.661109	-0.423060	-0.424359	-0.013717	57.9184	-0.422883	-282672	4.852717E-8	NaN
131	1.000000	0.672445	7.36632e+06	-45189.1	955.819	-29773.8	0.000000	0.000000	6.673028	0.023680	NaN	0.000000	0.001537	0.001669	28.0941	0.165461	0.002051	80.6793	-144.53	15.9437	0.110571	0.671137	-0.413023	-0.414332	0.023680	80.6793	-0.413243	-206303	-1.147811E-7	NaN
131	1.000000	0.682431	7.36632e+06	-45189.1	955.819	-29773.8	0.000000	0.000000	6.683015	0.039913	NaN	0.000000	0.001544	0.001648	28.1303	0.076356	0.002016	37.8781	156.449	-165.13	0.037809	0.681080	-0.403038	-0.404388	0.039913	37.8781	-0.403828	-151550	-2.633691E-7	NaN
131	1.000000	0.692458	7.36632e+06	-45189.1	955.818	-29773.8	0.000000	0.000000	6.693041	0.013784	NaN	0.000000	0.001564	0.001677	28.1014	0.078716	0.002068	38.0723	-75.2391	16.5993	0.074557	0.691114	-0.393010	-0.394354	0.013784	38.0723	-0.393282	-107173	-1.286110E-7	NaN
131	1.000000	0.702449	7.36632e+06	-45189.1	955.818	-29773.8	0.000000	0.000000	6.703031	-0.005123	NaN	0.000000	0.001558	0.001673	28.0796	0.095908	0.001988	48.2492	135.751	-164.464	0.076781	0.701124	-0.383019	-0.384345	-0.005123	48.2492	-0.382940	-76217.7	6.721022E-8	NaN
131	1.000000	0.712484	7.36632e+06	-45189.1	955.819	-29773.8	0.000000	0.000000	6.713066	-0.016192	NaN	0.000000	0.001577	0.001682	28.0919	0.102808	0.002056	49.9988	-75.8469	16.8928	0.072398	0.711088	-0.372984	-0.374381	-0.016192	49.9988	-0.372741	-54398.5	2.976515E-7	NaN
131	1.000000	0.722436	7.36632e+06	-45189.1	955.819	-29773.8	0.000000	0.000000	6.723017	-0.032738	NaN	0.000000	0.001594	0.001642	28.1295	0.072169	0.001941	37.1853	127.729	-166.092	0.008139	0.721108	-0.363032	-0.364361	-0.032738	37.1853	-0.362372	-38558.3	8.490574E-7	NaN
131	1.000000	0.732444	7.36632e+06	-45189.1	955.819	-29773.8	0.000000	0.000000	6.733028	0.031154	NaN	0.000000	0.001567	0.001658	28.1	0.107386	0.001914	56.105	109.094	11.239	0.005503	0.731108	-0.353024	-0.354361	0.031154	56.105	-0.353441	-28635.3	-1.087973E-6	NaN
131	1.000000	0.742465	7.36632e+06	-45189.1	955.819	-29773.8	0.000000	0.000000	6.743049	0.039721	NaN	0.000000	0.001577	0.001656	28.0797	0.061634	0.002048	30.0903	102.813	-167.016	0.024639	0.741198	-0.343004	-0.344271	0.039721	30.0903	-0.343994	-20879.5	-1.902389E-6	NaN
131	1.000000	0.752475	7.36632e+06	-45189.1	955.818	-29773.8	0.000000	0.000000	6.753057	-0.008259	NaN	0.000000	0.001524	0.001653	28.0958	0.023907	0.002162	11.0597	-114.95	13.0257	0.042309	0.751094	-0.332993	-0.334375	-0.008259	11.0597	-0.332433	-14160	5.832628E-7	NaN
131	1.000000	0.762457	7.36632e+06	-45189.1	955.818	-29773.8	0.000000	0.000000	6.763039	-0.006053	NaN	0.000000	0.001574	0.001642	28.1317	0.053588	0.002092	25.6124	142.232	-164.496	-0.068121	0.761181	-0.323011	-0.324288	-0.006053	25.6124	-0.322834	-10240.4	5.910753E-7	NaN
131	1.000000	0.772511	7.36632e+06	-45189.1	955.818	-29773.8	0.000000	0.000000	6.773095	0.055597	NaN	0.000000	0.001533	0.001663	28.1031	0.043714	0.001975	22.1332	-134.946	13.9901	0.008566	0.771107	-0.312958	-0.314362	0.055597	22.1332	-0.314842	-7809.3	-7.119395E-6	NaN
131	1.000000	0.782471	7.36632e+06	-45189.1	955.818	-29773.8	0.000000	0.000000	6.783053	-0.001830	NaN	0.000000	0.001545	0.001658	28.0805	0.071698	0.002103	34.0992	-17.1492	-163.708	0.072374	0.781135	-0.302997	-0.304334	-0.001830	34.0992	-0.302957	-5207.37	3.513634E-7	NaN
131	1.000000	0.792480	7.36632e+06	-45189.1	955.818	-29773.8	0.000000	0.000000	6.793061	-0.022767	NaN	0.000000	0.001562	0.001649	28.0942	0.022155	0.002098	10.5607	8.737508	16.1078	0.051488	0.791141	-0.292988	-0.294328	-0.022767	10.5607	-0.291372	-3498.18	6.508218E-6	NaN
131	1.000000	0.802483	7.36632e+06	-45189.1	955.819	-29773.8	0.000000	0.000000	6.803065	-0.016581	NaN	0.000000	0.001552	0.001655	28.131	0.047031	0.002010	23.4041	137.468	-165.954	-0.016953	0.801231	-0.282985	-0.284237	-0.016581	23.4041	-0.282454	-2570.14	6.451208E-6	NaN
131	1.000000	0.812507	7.36632e+06	-45189.1	955.818	-29773.8	0.000000	0.000000	6.813088	-0.027079	NaN	0.000000	0.001580	0.001650	28.1016	0.085305	0.001956	43.603	-175.219	15.0671	-0.044729	0.811113	-0.272961	-0.274355	-0.027079	43.603	-0.272496	-1817.37	1.489997E-5	NaN
131	1.000000	0.822491	7.36632e+06	-45189.1	955.819	-29773.8	0.000000	0.000000	6.823071	-0.050159	NaN	0.000000	0.001580	0.001654	28.0803	0.087650	0.001995	43.934	49.8915	-166.009	-0.102043	0.821185	-0.262977	-0.264283	-0.050159	43.934	-0.262121	-1262.99	3.971479E-5	NaN
131	1.000000	0.832488	7.36632e+06	-45189.1	955.818	-29773.8	0.000000	0.000000	6.833071	0.020003	NaN	0.000000	0.001600	0.001709	28.0941	0.069575	0.002049	33.9585	-175.854	14.0209	0.086808	0.831100	-0.252981	-0.254369	0.020003	33.9585	-0.253423	-928.574	-2.154115E-5	NaN
131	1.000000	0.842525	7.36632e+06	-45189.1	955.818	-29773.8	0.000000	0.000000	6.843107	-0.020766	NaN	0.000000	0.001599	0.001708	28.1317	0.063045	0.001927	32.7183	-43.704	-165.412	0.080020	0.841168	-0.242943	-0.244301	-0.020766	32.7183	-0.242467	-628.121	3.306052E-5	NaN
131	1.000000	0.852495	7.36632e+06	-45189.1	955.819	-29773.8	0.000000	0.000000	6.853076	-0.026532	NaN	0.000000	0.001528	0.001685	28.1037	0.049517	0.002023	24.4822	0.224647	11.0437	-0.011313	0.851160	-0.232974	-0.234309	-0.026532	24.4822	-0.232161	-433.107	6.125929E-5	NaN
131	1.000000	0.862499	7.36632e+06	-45189.1	955.818	-29773.8	0.000000	0.000000	6.863085	0.087929	NaN	0.000000	0.001557	0.001710	28.081	0.096507	0.002055	46.96	-6.302534	-164.605	0.043474	0.861189	-0.222969	-0.224280	0.087929	46.96	-0.224373	-326.122	-0.000270	NaN
131	1.000000	0.872532	7.36632e+06	-45189.1	955.818	-29773.8	0.000000	0.000000	6.873114	-0.007020	NaN	0.000000	0.001599	0.001722	28.0941	0.085423	0.002005	42.6118	61.0348	10.3948	-0.035528	0.871172	-0.212937	-0.214297	-0.007020	42.6118	-0.212813	-212.956	3.296623E-5	NaN
131	1.000000	0.882505	7.36632e+06	-45189.1	955.819	-29773.8	0.000000	0.000000	6.883088	0.029355	NaN	0.000000	0.001595	0.001722	28.129	0.058299	0.002071	28.1492	56.7427	-167.923	0.128846	0.881224	-0.202964	-0.204245	0.029355	28.1492	-0.203746	-151.735	-0.000193	NaN
131	1.000000	0.892523	7.36632e+06	-45189.1	955.819	-29773.8	0.000000	0.000000	6.893104	-0.032346	NaN	0.000000	0.001596	0.001683	28.1011	0.030735	0.001914	16.0581	-48.6652	18.9576	-0.079648	0.891207	-0.192945	-0.194262	-0.032346	16.0581	-0.191434	-95.0521	0.000340	NaN
131	1.000000	0.902524	7.36632e+06	-45189.1	955.817	-29773.8	0.000000	0.000000	6.903106	-0.023830	NaN	0.000000	0.001554	0.001689	28.0799	0.041472	0.001969	21.0588	-116.684	-162.586	0.019610	0.901185	-0.182944	-0.184283	-0.023830	21.0588	-0.182095	-66.2288	0.000360	NaN
131	1.000000	0.912504	7.36632e+06	-45189.1	955.818	-29773.8	0.000000	0.000000	6.913088	0.041375	NaN	0.000000	0.001556	0.001731	28.0925	0.028138	0.001906	14.7649	139.125	12.7783	-0.024912	0.911190	-0.172964	-0.174279	0.041375	14.7649	-0.175066	-50.2476	-0.000823	NaN
131	1.000000	0.922541	7.36632e+06	-45189.1	955.818	-29773.8	0.000000	0.000000	6.923123	-0.009759	NaN	0.000000	0.001544	0.001723	28.1308	0.008875	0.001976	4.492029	-28.9939	-165.879	0.027518	0.921219	-0.162927	-0.164250	-0.009759	4.492029	-0.161298	-28.9076	0.000338	NaN
131	1.000000	0.932521	7.36632e+06	-45189.1	955.817	-29773.8	0.000000	0.000000	6.933106	0.047228	NaN	0.000000	0.001554	0.001697	28.1024	0.085868	0.001950	44.0357	-87.5486	15.4681	0.095455	0.931206	-0.152947	-0.154262	0.047228	44.0357	-0.153751	-21.1872	-0.002229	NaN
131	1.000000	0.942534	7.36632e+06	-45189.1	955.817	-29773.8	0.000000	0.000000	6.943117	0.018191	NaN	0.000000	0.001527	0.001707	28.0793	0.020296	0.001967	10.318	-124.781	-161.065	-0.016714	0.941245	-0.142935	-0.144223	0.018191	10.318	-0.144257	-14.204	-0.001281	NaN
131	1.000000	0.952548	7.36632e+06	-45189.1	955.817	-29773.8	0.000000	0.000000	6.953131	0.019582	NaN	0.000000	0.001526	0.001687	28.0916	0.064923	0.002024	32.0782	-8.484202	17.1565	-0.027234	0.951227	-0.132921	-0.134242	0.019582	32.0782	-0.133379	-8.856285	-0.002211	NaN
131	1.000000	0.962540	7.36632e+06	-45189.1	955.819	-29773.8	0.000000	0.000000	6.963121	-0.029326	NaN	0.000000	0.001537	0.001693	28.1292	0.093677	0.002050	45.7026	95.5702	-166.089	-0.047588	0.961236	-0.122928	-0.124232	-0.029326	45.7026	-0.122447	-5.410341	0.005420	NaN
131	1.000000	0.972570	7.36632e+06	-45189.1	955.819	-29773.8	0.000000	0.000000	6.973153	0.018470	NaN	0.000000	0.001516	0.001687	28.1017	0.048570	0.001927	25.208	-10.317	14.1124	-0.005199	0.971217	-0.112898	-0.114252	0.018470	25.208	-0.113448	-3.548095	-0.005205	NaN
131	1.000000	0.982536	7.36632e+06	-45189.1	955.819	-29773.8	0.000000	0.000000	6.983118	-0.001368	NaN	0.000000	0.001563	0.001711	28.0784	0.087019	0.001944	44.7708	35.9602	-166.314	0.113335	0.981271	-0.102933	-0.104197	-0.001368	44.7708	-0.102910	-2.117298	0.000646	NaN
131	1.000000	0.992539	7.36632e+06	-45189.1	955.819	-29773.8	0.000000	0.000000	6.993121	0.011381	NaN	0.000000	0.001557	0.001720	28.0924	0.028256	0.002044	13.8239	111.921	16.2113	0.012837	0.991202	-0.092930	-0.094267	0.011381	13.8239	-0.093547	-1.306696	-0.008710	NaN
131	1.000000	1.002550	7.36632e+06	-45189.1	955.819	-29773.8	0.000000	0.000000	7.003132	-0.000560	NaN	0.000000	0.001548	0.001742	28.13	0.081839	0.001893	43.2416	32.763	-163.857	0.024399	1.001285	-0.082919	-0.084183	-0.000560	43.2416	-0.082909	-0.730694	0.000766	NaN
131	1.000000	1.012547	7.36632e+06	-45189.1	955.82	-29773.8	0.000000	0.000000	7.013127	-0.070215	NaN	0.000000	0.001537	0.001701	28.1025	0.054743	0.001960	27.9325	-162.02	14.1292	0.039504	1.011202	-0.072921	-0.074267	-0.070215	27.9325	-0.071036	-0.363531	0.193148	NaN
131	1.000000	1.022565	7.36632e+06	-45189.1	955.819	-29773.8	0.000000	0.000000	7.023148	0.010843	NaN	0.000000	0.001542	0.001703	28.082	0.009796	0.001969	4.975632	-29.6087	-167.258	-0.059494	1.021251	-0.062903	-0.064217	0.010843	4.975632	-0.064538	-0.241954	-0.044814	NaN
131	1.000000	1.032587	7.36632e+06	-45189.1	955.819	-29773.8	0.000000	0.000000	7.033167	-0.036748	NaN	0.000000	0.001527	0.001683	28.092	0.051156	0.002080	24.5919	-111.133	10.3727	-0.016052	1.031241	-0.052882	-0.054228	-0.036748	24.5919	-0.051761	-0.103113	0.356381	NaN
131	1.000000	1.042596	7.36633e+06	-45189.1	955.819	-29773.8	0.000000	0.000000	7.043178	0.002914	NaN	0.000000	0.001552	0.001731	28.1303	0.084611	0.001981	42.7108	-101.86	-168.971	0.045466	1.041299	-0.042872	-0.044169	0.002914	42.7108	-0.042924	-0.055526	-0.052480	NaN
131	1.000000	1.052569	7.36633e+06	-45189.1	955.819	-29773.8	0.000000	0.000000	7.053153	0.039846	NaN	0.000000	0.001521	0.001727	28.1033	0.025499	0.002097	12.1569	-77.6647	16.8312	0.099428	1.051255	-0.032899	-0.034213	0.039846	12.1569	-0.035357	-0.032811	-1.214407	NaN
131	1.000000	1.062577	7.36633e+06	-45189.1	955.819	-29773.8	0.000000	0.000000	7.063159	0.002615	NaN	0.000000	0.001551	0.001723	28.08	0.027683	0.002030	13.6354	-162.332	-164.65	-0.027542	1.061261	-0.022892	-0.024207	0.002615	13.6354	-0.023035	-0.015008	-0.174243	NaN
131	1.000000	1.072595	7.36633e+06	-45189.1	955.818	-29773.8	0.000000	0.000000	7.073179	0.043019	NaN	0.000000	0.001559	0.001716	28.0927	0.038172	0.001880	20.3051	-175.829	16.4787	0.090618	1.071227	-0.012874	-0.014242	0.043019	20.3051	-0.014463	-0.008956	-4.803580	NaN
131	1.000000	1.082610	7.36633e+06	-45189.1	955.819	-29773.8	0.000000	0.000000	7.083190	-0.052602	NaN	0.000000	0.001565	0.001705	28.1309	0.037638	0.002124	17.7181	175.993	-163.443	-0.010659	1.081307	-0.002858	-0.004161	-0.052602	17.7181	-0.000632	-0.000466	112.807	NaN
131	1.000000	1.092544	7.36633e+06	-45189.1	955.819	-29773.8	0.000000	0.000000	7.093334	5.034865	NaN	0.000000	0.001553	0.001702	28.1045	5.743485	0.001914	3000.2	13.4705	11.7271	3.634714	1.091240	0.007076	0.005771	5.034865	3000.2	0.005817	0.004892	1029.28	39192
131	2.000000	1.097225	7.36633e+06	-45189.1	955.819	-29773.8	0.000000	0.000000	7.098253	10.8224	NaN	0.000000	0.001581	0.001696	28.0811	9.917111	0.001554	6382.96	6.186179	-174.102	10.0166	1.096870	0.011757	0.011402	10.8224	6382.96	0.010485	0.009726	1112.74	59133
131	2.000000	1.099679	7.36633e+06	-45189.1	955.819	-29773.8	0.000000	0.000000	7.100846	14.2158	NaN	0.000000	0.001558	0.001729	28.0919	13.5677	0.001812	7485.8	9.833705	2.342444	12.7468	1.099377	0.014210	0.013909	14.2158	7485.8	0.012786	0.012445	1142.26	61306.7
131	2.000000	1.102216	7.36633e+06	-45189.1	955.819	-29773.8	0.000000	0.000000	7.103537	17.958	NaN	0.000000	0.001586	0.001689	28.13	16.2931	0.001847	8820.23	9.880888	-178.227	17.4406	1.101850	0.016748	0.016382	17.958	8820.23	0.015221	0.015581	1152.55	64558.7
131	2.000000	1.104657	7.36633e+06	-45189.1	955.819	-29773.8	0.000000	0.000000	7.106193	23.1975	NaN	0.000000	0.001561	0.001751	28.1036	17.7307	0.001825	9714.43	6.939009	4.910601	21.3887	1.104348	0.019189	0.018880	23.1975	9714.43	0.017398	0.018617	1246.03	65047.9
131	2.000000	1.107158	7.36633e+06	-45189.1	955.819	-29773.8	0.000000	0.000000	7.108949	29.3942	NaN	0.000000	0.001543	0.001712	28.0805	21.0396	0.001742	12081.1	4.535593	-175.911	28.3246	1.106858	0.021690	0.021390	29.3942	12081.1	0.019865	0.022331	1316.31	73863.3
131	2.000000	1.109642	7.36633e+06	-45189.1	955.819	-29773.8	0.000000	0.000000	7.111626	34.0992	NaN	0.000000	0.001561	0.001692	28.0939	24.8508	0.002002	12410.9	8.756964	0.963657	32.9805	1.109322	0.024174	0.023854	34.0992	12410.9	0.022113	0.025972	1312.92	70359.8
131	2.000000	1.112127	7.36633e+06	-45189.1	955.819	-29773.8	0.000000	0.000000	7.114401	41.1553	NaN	0.000000	0.001556	0.001677	28.1298	25.7501	0.001738	14815.2	3.503862	-177.073	40.1095	1.111804	0.026658	0.026336	41.1553	14815.2	0.024575	0.030246	1360.66	77829.5
131	2.000000	1.114661	7.36633e+06	-45189.1	955.819	-29773.8	0.000000	0.000000	7.117306	50.186	NaN	0.000000	0.001575	0.001702	28.1033	27.7636	0.001726	16087.6	1.707870	4.930596	47.9851	1.114250	0.029192	0.028782	50.186	16087.6	0.026852	0.034472	1455.84	79164.6
131	2.000000	1.117118	7.36633e+06	-45189.1	955.819	-29773.8	0.000000	0.000000	7.120090	58.1313	NaN	0.000000	0.001582	0.001722	28.0799	30.5671	0.001867	16369.5	6.551228	-179.353	56.4212	1.116767	0.031649	0.031299	58.1313	16369.5	0.028986	0.038668	1503.35	76055.9
131	2.000000	1.119665	7.36633e+06	-45189.1	955.82	-29773.8	0.000000	0.000000	7.122973	66.2872	NaN	0.000000	0.001563	0.001732	28.0911	34.1453	0.001805	18916.7	7.319282	-3.155281	65.28	1.119236	0.034197	0.033767	66.2872	18916.7	0.031569	0.044058	1504.54	82339
131	2.000000	1.122081	7.36633e+06	-45189.1	955.819	-29773.8	0.000000	0.000000	7.125777	75.7491	NaN	0.000000	0.001528	0.001704	28.1284	36.6748	0.001845	19878.2	6.217874	178.728	74.3412	1.121822	0.036613	0.036354	75.7491	19878.2	0.033755	0.048886	1549.51	82140.7
131	2.000000	1.124587	7.36633e+06	-45189.1	955.82	-29773.8	0.000000	0.000000	7.128635	84.3126	NaN	0.000000	0.001565	0.001689	28.1033	38.0704	0.001943	19592.6	5.556470	-0.289571	80.4966	1.124261	0.039118	0.038793	84.3126	19592.6	0.035891	0.053841	1565.97	77145.4
131	2.000000	1.127100	7.36633e+06	-45189.1	955.82	-29773.8	0.000000	0.000000	7.131640	96.2646	NaN	0.000000	0.001638	0.001694	28.0798	40.3975	0.001760	22955.5	5.269325	177.811	94.7096	1.126797	0.041632	0.041329	96.2646	22955.5	0.038487	0.060176	1599.72	85496.5
131	2.000000	1.129567	7.36633e+06	-45189.1	955.819	-29773.8	0.000000	0.000000	7.134480	105.354	NaN	0.000000	0.001630	0.001744	28.0933	43.7488	0.001764	24796	6.261558	-3.384568	102.905	1.129204	0.044099	0.043735	105.354	24796	0.040912	0.066407	1586.5	87912.1
131	2.000000	1.132094	7.36633e+06	-45189.1	955.819	-29773.8	0.000000	0.000000	7.137394	114.783	NaN	0.000000	0.001604	0.001715	28.1301	46.044	0.001819	25312.6	3.444247	179.421	112.384	1.131713	0.046625	0.046245	114.783	25312.6	0.043224	0.072627	1580.45	85814.7
131	2.000000	1.134577	7.36633e+06	-45189.1	955.82	-29773.8	0.000000	0.000000	7.140429	128.188	NaN	0.000000	0.001598	0.001700	28.1056	48.4086	0.001925	25150.9	6.478230	-2.791113	124.562	1.134210	0.049109	0.048742	128.188	25150.9	0.045286	0.078403	1635	82065.6
131	2.000000	1.137128	7.36633e+06	-45189.1	955.818	-29773.8	0.000000	0.000000	7.143312	136.263	NaN	0.000000	0.001605	0.001721	28.0795	49.8102	0.001743	28573.2	3.621051	178.016	136.936	1.136878	0.051660	0.051410	136.263	28573.2	0.048083	0.086580	1573.84	88720.3
131	2.000000	1.139603	7.36633e+06	-45189.1	955.82	-29773.8	0.000000	0.000000	7.146284	148.366	NaN	0.000000	0.001606	0.001683	28.0899	52.8035	0.001801	29316.8	5.443863	-4.859102	147.533	1.139306	0.054134	0.053837	148.366	29316.8	0.050339	0.093463	1587.42	87613.1
131	2.000000	1.142106	7.36633e+06	-45189.1	955.82	-29773.8	0.000000	0.000000	7.149230	159.143	NaN	0.000000	0.001623	0.001648	28.1283	55.4295	0.001803	30742.4	3.235501	176.961	159.599	1.141948	0.056638	0.056480	159.143	30742.4	0.052755	0.101120	1573.81	88327
131	2.000000	1.144624	7.36633e+06	-45189.1	955.819	-29773.8	0.000000	0.000000	7.152478	176.902	NaN	0.000000	0.001593	0.001700	28.1053	56.4385	0.001701	33177.9	5.856996	-4.651726	174.784	1.144270	0.059155	0.058802	176.902	33177.9	0.055157	0.109015	1622.73	91807.4
131	2.000000	1.147100	7.36633e+06	-45189.1	955.82	-29773.8	0.000000	0.000000	7.155502	190.222	NaN	0.000000	0.001610	0.001695	28.0799	59.0302	0.001693	34860.4	5.271917	174.182	190.133	1.146752	0.061632	0.061283	190.222	34860.4	0.057539	0.117132	1623.99	93060.9
131	2.000000	1.149543	7.36633e+06	-45189.1	955.819	-29773.8	0.000000	0.000000	7.158500	203.749	NaN	0.000000	0.001619	0.001672	28.0931	62.694	0.001855	33805	5.544467	-4.851235	200.42	1.149139	0.064074	0.063671	203.749	33805	0.059554	0.124213	1640.32	87633.5
131	2.000000	1.152069	7.36633e+06	-45189.1	955.819	-29773.8	0.000000	0.000000	7.161633	218.499	NaN	0.000000	0.001630	0.001699	28.131	64.9259	0.001879	34550.7	5.961446	173.628	216.565	1.151828	0.066600	0.066360	218.499	34550.7	0.061857	0.132552	1648.4	86703.4
131	2.000000	1.154502	7.36633e+06	-45189.1	955.82	-29773.8	0.000000	0.000000	7.164661	232.97	NaN	0.000000	0.001621	0.001680	28.1056	66.084	0.001792	36885.8	4.766253	-5.799200	228.015	1.154166	0.069033	0.068698	232.97	36885.8	0.064296	0.141663	1644.53	89537.3
131	2.000000	1.157090	7.36633e+06	-45189.1	955.819	-29773.8	0.000000	0.000000	7.167830	247.108	NaN	0.000000	0.001634	0.001662	28.0818	68.3913	0.001907	35857.2	5.835934	174.02	247.812	1.156786	0.071622	0.071317	247.108	35857.2	0.066453	0.149960	1647.83	84598.2
131	2.000000	1.159587	7.36633e+06	-45189.1	955.82	-29773.8	0.000000	0.000000	7.171045	264.583	NaN	0.000000	0.001638	0.001696	28.0915	69.7151	0.001819	38335.4	0.792346	-1.740935	261.986	1.159196	0.074119	0.073727	264.583	38335.4	0.068942	0.159811	1655.59	87613.1
131	2.000000	1.162102	7.36633e+06	-45189.1	955.819	-29773.8	0.000000	0.000000	7.173991	275.05	NaN	0.000000	0.001634	0.001679	28.1298	73.2354	0.001792	40865.6	4.756889	173.152	275.012	1.161911	0.076634	0.076443	275.05	40865.6	0.071586	0.170598	1612.27	90394.8
131	2.000000	1.164627	7.36633e+06	-45189.1	955.82	-29773.8	0.000000	0.000000	7.177201	291.724	NaN	0.000000	0.001609	0.001661	28.105	75.3676	0.001791	42092	7.722833	-9.516095	290.346	1.164258	0.079158	0.078789	291.724	42092	0.073960	0.180571	1615.57	90500.2
131	2.000000	1.167022	7.36633e+06	-45189.1	955.819	-29773.8	0.000000	0.000000	7.180437	312.18	NaN	0.000000	0.001649	0.001682	28.0795	76.3015	0.001770	43097.6	4.964885	173.523	307.476	1.166641	0.081554	0.081173	312.18	43097.6	0.076121	0.189876	1644.13	90363.1
131	2.000000	1.169467	7.36633e+06	-45189.1	955.819	-29773.8	0.000000	0.000000	7.183461	326.278	NaN	0.000000	0.001597	0.001647	28.0919	79.0043	0.001778	44442.8	2.793312	-5.066590	318.514	1.169192	0.083998	0.083724	326.278	44442.8	0.078492	0.200338	1628.63	90717.9
131	2.000000	1.172082	7.36633e+06	-45189.1	955.818	-29773.8	0.000000	0.000000	7.186914	346.672	NaN	0.000000	0.001645	0.001671	28.1312	82.4634	0.001899	43421.5	6.956439	172.689	347.427	1.171672	0.086613	0.086204	346.672	43421.5	0.080625	0.209975	1651.01	86575.2
131	2.000000	1.174575	7.36633e+06	-45189.1	955.819	-29773.8	0.000000	0.000000	7.190204	366.044	NaN	0.000000	0.001645	0.001674	28.1068	84.1005	0.001764	47664.6	7.367331	-9.784119	363.873	1.174232	0.089106	0.088763	366.044	47664.6	0.083347	0.222578	1644.57	92305.6
131	2.000000	1.177015	7.36633e+06	-45189.1	955.82	-29773.8	0.000000	0.000000	7.193629	389.998	NaN	0.000000	0.001621	0.001683	28.0811	85.2714	0.001714	49752.8	3.714297	173.654	384.87	1.176643	0.091547	0.091175	389.998	49752.8	0.085668	0.233596	1669.54	94049.8
131	2.000000	1.179438	7.36633e+06	-45189.1	955.819	-29773.8	0.000000	0.000000	7.196676	405.169	NaN	0.000000	0.001644	0.001752	28.0896	88.9635	0.001833	48527.9	9.331963	-12.3547	397.406	1.179256	0.093970	0.093788	405.169	48527.9	0.087708	0.243489	1664.01	89851.6
131	2.000000	1.182073	7.36633e+06	-45189.1	955.821	-29773.8	0.000000	0.000000	7.200323	429.798	NaN	0.000000	0.001565	0.001712	28.1284	90.7879	0.001719	52801.2	5.122573	171.946	430.802	1.181692	0.096605	0.096223	429.798	52801.2	0.090500	0.257334	1670.19	95097.4
131	2.000000	1.184576	7.36633e+06	-45189.1	955.821	-29773.8	0.000000	0.000000	7.203562	447.708	NaN	0.000000	0.001618	0.001691	28.1045	92.48	0.001770	52244.7	4.009276	-6.883799	443.819	1.184105	0.099108	0.098637	447.708	52244.7	0.092681	0.268398	1668.07	92135.1
131	2.000000	1.187136	7.36633e+06	-45189.1	955.821	-29773.8	0.000000	0.000000	7.206925	467.244	NaN	0.000000	0.001634	0.001697	28.0783	94.6621	0.001694	55872.2	5.976396	170.223	471.769	1.186732	0.101667	0.101264	467.244	55872.2	0.095395	0.282475	1654.11	96046.1
131	2.000000	1.189483	7.36633e+06	-45189.1	955.821	-29773.8	0.000000	0.000000	7.210421	495.186	NaN	0.000000	0.001590	0.001712	28.0907	96.6128	0.001702	56756.5	3.014033	-6.826682	489.03	1.189194	0.104014	0.103725	495.186	56756.5	0.097471	0.293463	1687.39	95722.1
131	2.000000	1.191979	7.36633e+06	-45189.1	955.82	-29773.8	0.000000	0.000000	7.213490	509.131	NaN	0.000000	0.001591	0.001749	28.1293	100.621	0.001756	57315.8	4.765697	171.347	505.011	1.191821	0.106510	0.106352	509.131	57315.8	0.099848	0.306291	1662.25	94619.6
131	2.000000	1.194019	7.36633e+06	-45189.1	955.82	-29773.8	0.000000	0.000000	7.216556	534.09	NaN	0.000000	0.001556	0.001711	28.1292	100.987	0.001651	61167.6	3.739375	172.059	531.523	1.193622	0.108551	0.108154	534.09	61167.6	0.102002	0.318136	1678.81	99080.4