File: remote_trans/data/nanoindenter/0828-1/data/Data_2025-08-06,11h17m57s/2025-07-22_16-23-58_1_800.txt
2025-07-22, 16:23:58, 1
Index	Phase	Displacement	Time	Pos X	Pos Y	Pos Z	Rot A	Rot B	Piezo Z	Force A	Force B	Gripper	Voltage A	Voltage B	Temperature	Amplitude force	Amplitude pos	Stiffness	Phase shift	Phase excitation	Force A raw	Displacement raw	HMax	HMax raw	Real Force	Real Stiffness	Contact Depth	Area	Hardness	Reduced Mod.
[#]	[#]	[um]	[s]	[um]	[um]	[um]	[m°]	[m°]	[um]	[uN]	[uN]	[V]	[V]	[V]	[°C]	[uN]	[um]	[N/m]	[°]	[°]	[uN]	[um]	[um]	[um]	[uN]	[N/m]	[um]	[um^2]	[MPa]	[MPa]
800	1.000000	0.002908	7.37288e+06	-40139.1	1055.82	-29791.1	0.000000	0.000000	6.002843	-0.017484	NaN	0.000000	0.001606	0.001759	28.0831	0.032973	0.000872	37.8099	11.6343	-156.646	-0.032735	0.001567	-1.135784	-1.137126	-0.017484	37.8099	-1.135438	-1.498139E+15	1.167063E-17	NaN
800	1.000000	0.012939	7.37288e+06	-40139.1	1055.82	-29791.1	0.000000	0.000000	6.012873	-0.019946	NaN	0.000000	0.001595	0.001722	28.0828	0.098289	0.001195	82.2758	86.7528	14.8675	-0.084291	0.011426	-1.125754	-1.127267	-0.019946	82.2758	-1.125572	-1.104654E+15	1.805675E-17	NaN
800	1.000000	0.022803	7.37288e+06	-40139.1	1055.82	-29791.1	0.000000	0.000000	6.022739	0.016861	NaN	0.000000	0.001599	0.001755	28.0829	0.083564	0.001774	47.1177	-134.005	-161.047	-0.016137	0.021515	-1.115889	-1.117178	0.016861	47.1177	-1.116158	-8.258881E+14	-2.041594E-17	NaN
800	1.000000	0.032829	7.37288e+06	-40139.1	1055.82	-29791.1	0.000000	0.000000	6.032761	-0.068652	NaN	0.000000	0.001619	0.001734	28.083	0.156421	0.002087	74.9641	-156.635	17.2981	-0.001724	0.031514	-1.105864	-1.107178	-0.068652	74.9641	-1.105177	-5.882467E+14	1.167069E-16	NaN
800	1.000000	0.042820	7.37288e+06	-40139.1	1055.82	-29791.1	0.000000	0.000000	6.042757	0.024283	NaN	0.000000	0.001564	0.001702	28.0839	0.044879	0.001962	22.8797	-93.0753	-161.4	-0.114828	0.041512	-1.095872	-1.097180	0.024283	22.8797	-1.096668	-4.522124E+14	-5.369796E-17	NaN
800	1.000000	0.052798	7.37288e+06	-40139.1	1055.82	-29791.1	0.000000	0.000000	6.052734	0.011245	NaN	0.000000	0.001593	0.001709	28.0837	0.053030	0.001908	27.7867	105.721	12.7468	0.034940	0.051430	-1.085894	-1.087263	0.011245	27.7867	-1.086198	-3.271546E+14	-3.437206E-17	NaN
800	1.000000	0.062831	7.37288e+06	-40139.1	1055.82	-29791.1	0.000000	0.000000	6.062769	0.046186	NaN	0.000000	0.001599	0.001742	28.0838	0.100974	0.001945	51.9229	-153.152	-166.558	0.041157	0.061536	-1.075861	-1.077157	0.046186	51.9229	-1.076528	-2.425980E+14	-1.903795E-16	NaN
800	1.000000	0.072828	7.37288e+06	-40139.1	1055.82	-29791.1	0.000000	0.000000	6.072765	0.044186	NaN	0.000000	0.001605	0.001726	28.084	0.045439	0.001969	23.0784	-50.5628	12.1668	0.032894	0.071453	-1.065865	-1.067239	0.044186	23.0784	-1.067301	-1.823568E+14	-2.423033E-16	NaN
800	1.000000	0.082847	7.37288e+06	-40139.1	1055.82	-29791.1	0.000000	0.000000	6.082784	0.024699	NaN	0.000000	0.001554	0.001733	28.0837	0.052362	0.001985	26.3775	-133.196	-162.582	0.065150	0.081567	-1.055846	-1.057126	0.024699	26.3775	-1.056548	-1.307451E+14	-1.889092E-16	NaN
800	1.000000	0.092822	7.37288e+06	-40139.1	1055.82	-29791.1	0.000000	0.000000	6.092757	-0.020017	NaN	0.000000	0.001573	0.001739	28.084	0.067326	0.002001	33.6396	120.038	14.7371	0.028739	0.091491	-1.045871	-1.047201	-0.020017	33.6396	-1.045424	-9.266204E+13	2.160235E-16	NaN
800	1.000000	0.102843	7.37288e+06	-40139.1	1055.82	-29791.1	0.000000	0.000000	6.102775	-0.088894	NaN	0.000000	0.001600	0.001726	28.0855	0.067243	0.001906	35.287	-2.200882	-164.825	-0.128247	0.101576	-1.035849	-1.037116	-0.088894	35.287	-1.033960	-6.497439E+13	1.368143E-15	NaN
800	1.000000	0.112843	7.37288e+06	-40139.1	1055.82	-29791.1	0.000000	0.000000	6.112778	-0.001071	NaN	0.000000	0.001574	0.001710	28.0848	0.048209	0.002169	22.2212	-167.049	12.3658	-6.101796E-5	0.111549	-1.025850	-1.027143	-0.001071	22.2212	-1.025813	-5.048524E+13	2.122032E-17	NaN
800	1.000000	0.122819	7.37288e+06	-40139.1	1055.82	-29791.1	0.000000	0.000000	6.122755	0.019138	NaN	0.000000	0.001589	0.001745	28.0847	0.107133	0.002025	52.8967	-178.294	-164.566	0.024210	0.121517	-1.015874	-1.017176	0.019138	52.8967	-1.016145	-3.741829E+13	-5.114689E-16	NaN
800	1.000000	0.132825	7.37288e+06	-40139.1	1055.82	-29791.1	0.000000	0.000000	6.132760	-0.004016	NaN	0.000000	0.001559	0.001746	28.0842	0.032798	0.002039	16.0832	23.2625	12.1316	-0.047902	0.131511	-1.005868	-1.007182	-0.004016	16.0832	-1.005681	-2.705482E+13	1.484486E-16	NaN
800	1.000000	0.142846	7.37288e+06	-40139.1	1055.82	-29791.1	0.000000	0.000000	6.142782	0.015835	NaN	0.000000	0.001571	0.001729	28.0842	0.125761	0.002007	62.651	-32.5888	-168.922	-0.015533	0.141565	-0.995847	-0.997128	0.015835	62.651	-0.996037	-2.006336E+13	-7.892552E-16	NaN
800	1.000000	0.152847	7.37288e+06	-40139.1	1055.82	-29791.1	0.000000	0.000000	6.152783	0.000766	NaN	0.000000	0.001558	0.001732	28.0844	0.031124	0.002057	15.1309	-99.6778	16.5929	0.049668	0.151506	-0.985846	-0.987187	0.000766	15.1309	-0.985884	-1.464429E+13	-5.227655E-17	NaN
800	1.000000	0.162858	7.37288e+06	-40139.1	1055.82	-29791.1	0.000000	0.000000	6.162795	0.031831	NaN	0.000000	0.001576	0.001741	28.0843	0.062997	0.002044	30.8209	-117.856	-165.451	-0.024074	0.161523	-0.975834	-0.977170	0.031831	30.8209	-0.976609	-1.098302E+13	-2.898205E-15	NaN
800	1.000000	0.172849	7.37288e+06	-40139.1	1055.82	-29791.1	0.000000	0.000000	6.172782	-0.074239	NaN	0.000000	0.001600	0.001740	28.083	0.053052	0.002020	26.2646	13.7127	16.0369	0.032003	0.171507	-0.965843	-0.967186	-0.074239	26.2646	-0.963723	-7.363149E+12	1.008249E-14	NaN
800	1.000000	0.182858	7.37288e+06	-40139.1	1055.82	-29791.1	0.000000	0.000000	6.182795	0.019148	NaN	0.000000	0.001558	0.001708	28.0831	0.111919	0.001956	57.211	103.414	-162.489	-0.020836	0.181577	-0.955834	-0.957115	0.019148	57.211	-0.956085	-5.808826E+12	-3.296305E-15	NaN
800	1.000000	0.192870	7.37288e+06	-40139.1	1055.82	-29791.1	0.000000	0.000000	6.192806	0.014149	NaN	0.000000	0.001565	0.001734	28.083	0.086726	0.002076	41.7792	-67.5684	17.4346	-0.087106	0.191528	-0.945823	-0.947164	0.014149	41.7792	-0.946077	-4.257063E+12	-3.323738E-15	NaN
800	1.000000	0.202862	7.37288e+06	-40139.1	1055.82	-29791.1	0.000000	0.000000	6.202798	0.009740	NaN	0.000000	0.001592	0.001706	28.0828	0.068817	0.001811	38.0094	-167.313	-165.419	-0.040070	0.201560	-0.935830	-0.937133	0.009740	38.0094	-0.936022	-3.115090E+12	-3.126708E-15	NaN
800	1.000000	0.212891	7.37288e+06	-40139.1	1055.82	-29791.1	0.000000	0.000000	6.212825	-0.034635	NaN	0.000000	0.001602	0.001716	28.0829	0.042530	0.001941	21.913	-32.6239	13.9937	-0.032488	0.211507	-0.925802	-0.927185	-0.034635	21.913	-0.924616	-2.185379E+12	1.584830E-14	NaN
800	1.000000	0.222889	7.37288e+06	-40139.1	1055.82	-29791.1	0.000000	0.000000	6.222826	0.037586	NaN	0.000000	0.001629	0.001728	28.083	0.090970	0.002026	44.8927	-140	-167.39	0.020143	0.221593	-0.915804	-0.917099	0.037586	44.8927	-0.916432	-1.694424E+12	-2.218226E-14	NaN
800	1.000000	0.232851	7.37288e+06	-40139.1	1055.82	-29791.1	0.000000	0.000000	6.232784	-0.065010	NaN	0.000000	0.001611	0.001722	28.0827	0.096389	0.001972	48.8907	-156.193	14.7352	-0.058016	0.231536	-0.905841	-0.907156	-0.065010	48.8907	-0.904844	-1.181720E+12	5.501320E-14	NaN
800	1.000000	0.242878	7.37288e+06	-40139.1	1055.82	-29791.1	0.000000	0.000000	6.242810	-0.078237	NaN	0.000000	0.001625	0.001700	28.0829	0.024751	0.002026	12.217	57.0359	-163.228	-0.077288	0.241564	-0.895815	-0.897128	-0.078237	12.217	-0.891012	-7.684078E+11	1.018173E-13	NaN
800	1.000000	0.252924	7.37288e+06	-40139.1	1055.82	-29791.1	0.000000	0.000000	6.252860	0.009996	NaN	0.000000	0.001650	0.001704	28.0829	0.106485	0.002221	47.9387	-97.5913	14.3542	-0.028571	0.251566	-0.885769	-0.887127	0.009996	47.9387	-0.885925	-6.558809E+11	-1.523987E-14	NaN
800	1.000000	0.262909	7.37288e+06	-40139.1	1055.82	-29791.1	0.000000	0.000000	6.262843	-0.040780	NaN	0.000000	0.001616	0.001697	28.0829	0.030170	0.001921	15.7036	52.5516	-164.884	-0.058686	0.261547	-0.875783	-0.877146	-0.040780	15.7036	-0.873836	-4.501262E+11	9.059632E-14	NaN
800	1.000000	0.272904	7.37288e+06	-40139.1	1055.82	-29791.1	0.000000	0.000000	6.272837	-0.072378	NaN	0.000000	0.001641	0.001680	28.0829	0.062890	0.001938	32.454	-168.671	12.5981	-0.069489	0.271616	-0.865789	-0.867077	-0.072378	32.454	-0.864116	-3.325268E+11	2.176619E-13	NaN
800	1.000000	0.282940	7.37288e+06	-40139.1	1055.82	-29791.1	0.000000	0.000000	6.282874	-0.017397	NaN	0.000000	0.001646	0.001682	28.083	0.039634	0.002034	19.4847	81.4179	-163.038	-0.093890	0.281623	-0.855753	-0.857070	-0.017397	19.4847	-0.855083	-2.509375E+11	6.932619E-14	NaN
800	1.000000	0.292905	7.37288e+06	-40139.1	1055.82	-29791.1	0.000000	0.000000	6.292840	-0.034441	NaN	0.000000	0.001614	0.001682	28.0833	0.084110	0.002024	41.5521	76.0161	13.5992	-0.003210	0.291570	-0.845787	-0.847122	-0.034441	41.5521	-0.845165	-1.841890E+11	1.869892E-13	NaN
800	1.000000	0.302891	7.37288e+06	-40139.1	1055.82	-29791.1	0.000000	0.000000	6.302826	-0.011996	NaN	0.000000	0.001624	0.001679	28.0832	0.107343	0.002010	53.413	-50.1883	-163.112	-0.130482	0.301642	-0.835801	-0.837051	-0.011996	53.413	-0.835633	-1.368121E+11	8.767975E-14	NaN
800	1.000000	0.312920	7.37288e+06	-40139.1	1055.82	-29791.1	0.000000	0.000000	6.312858	0.048179	NaN	0.000000	0.001641	0.001762	28.0843	0.075647	0.002114	35.784	81.5189	9.682494	0.043938	0.311599	-0.825772	-0.827093	0.048179	35.784	-0.826782	-1.037926E+11	-4.641835E-13	NaN
800	1.000000	0.322929	7.37288e+06	-40139.1	1055.82	-29791.1	0.000000	0.000000	6.322863	-0.049478	NaN	0.000000	0.001642	0.001656	28.0843	0.022431	0.002013	11.1426	178.595	-164.167	-0.091206	0.321579	-0.815763	-0.817114	-0.049478	11.1426	-0.812433	-6.630967E+10	7.461616E-13	NaN
800	1.000000	0.332935	7.37288e+06	-40139.1	1055.82	-29791.1	0.000000	0.000000	6.332869	-0.039424	NaN	0.000000	0.001633	0.001688	28.0842	0.091615	0.001956	46.829	29.3131	15.7179	0.035940	0.331527	-0.805757	-0.807165	-0.039424	46.829	-0.805126	-5.277587E+10	7.470039E-13	NaN
800	1.000000	0.342924	7.37288e+06	-40139.1	1055.82	-29791.1	0.000000	0.000000	6.342858	-0.060571	NaN	0.000000	0.001657	0.001693	28.0843	0.055728	0.001980	28.1431	-0.535062	-166.659	-0.029458	0.341602	-0.795768	-0.797091	-0.060571	28.1431	-0.794154	-3.745358E+10	1.617241E-12	NaN
800	1.000000	0.352947	7.37288e+06	-40139.1	1055.82	-29791.1	0.000000	0.000000	6.352883	0.022873	NaN	0.000000	0.001656	0.001685	28.0841	0.014788	0.002009	7.361408	-38.7759	13.2648	-0.025896	0.351579	-0.785746	-0.787114	0.022873	7.361408	-0.788076	-3.097100E+10	-7.385192E-13	NaN
800	1.000000	0.362920	7.37288e+06	-40139.1	1055.82	-29791.1	0.000000	0.000000	6.362854	-0.041870	NaN	0.000000	0.001645	0.001684	28.0843	0.079289	0.001860	42.627	161.661	-164.577	-0.007118	0.361661	-0.775773	-0.777032	-0.041870	42.627	-0.775036	-2.059519E+10	2.033021E-12	NaN
800	1.000000	0.372933	7.37288e+06	-40139.1	1055.82	-29791.1	0.000000	0.000000	6.372871	0.062130	NaN	0.000000	0.001628	0.001696	28.0841	0.069666	0.001912	36.4456	-114.015	13.149	0.001095	0.371607	-0.765759	-0.767086	0.062130	36.4456	-0.767038	-1.603354E+10	-3.875022E-12	NaN
800	1.000000	0.382977	7.37288e+06	-40139.1	1055.82	-29791.1	0.000000	0.000000	6.382912	-0.014042	NaN	0.000000	0.001644	0.001697	28.0842	0.124157	0.001935	64.1641	-46.0456	-163.851	0.000899	0.381681	-0.755715	-0.757012	-0.014042	64.1641	-0.755551	-1.118847E+10	1.255035E-12	NaN
800	1.000000	0.392956	7.37288e+06	-40139.1	1055.82	-29791.1	0.000000	0.000000	6.392888	-0.076569	NaN	0.000000	0.001649	0.001695	28.0842	0.055787	0.002110	26.4417	-26.8034	10.1714	-0.036621	0.391666	-0.745737	-0.747027	-0.076569	26.4417	-0.743565	-7.684317E+9	9.964324E-12	NaN
800	1.000000	0.402949	7.37288e+06	-40139.1	1055.82	-29791.1	0.000000	0.000000	6.402884	-0.017886	NaN	0.000000	0.001638	0.001704	28.0845	0.034857	0.002001	17.4205	-62.8508	-166.853	-0.062025	0.401623	-0.735744	-0.737069	-0.017886	17.4205	-0.734973	-5.869234E+9	3.047441E-12	NaN
800	1.000000	0.412973	7.37288e+06	-40139.1	1055.82	-29791.1	0.000000	0.000000	6.412909	0.009031	NaN	0.000000	0.001650	0.001710	28.0842	0.151243	0.001962	77.075	-104.726	15.5088	0.017431	0.411644	-0.725719	-0.727048	0.009031	77.075	-0.725807	-4.402067E+9	-2.051623E-12	NaN
800	1.000000	0.422996	7.37288e+06	-40139.1	1055.82	-29791.1	0.000000	0.000000	6.422935	0.075653	NaN	0.000000	0.001640	0.001715	28.0843	0.105414	0.001931	54.5885	-112.519	-166.961	-0.023336	0.421676	-0.715696	-0.717017	0.075653	54.5885	-0.716736	-3.310930E+9	-2.284958E-11	NaN
800	1.000000	0.432959	7.37288e+06	-40139.1	1055.82	-29791.1	0.000000	0.000000	6.432894	-0.002713	NaN	0.000000	0.001633	0.001702	28.084	0.062446	0.001893	32.984	-124.93	12.0734	-0.001248	0.431624	-0.705734	-0.707068	-0.002713	32.984	-0.705672	-2.338693E+9	1.160161E-12	NaN
800	1.000000	0.442971	7.37288e+06	-40139.1	1055.82	-29791.1	0.000000	0.000000	6.442910	0.069960	NaN	0.000000	0.001606	0.001701	28.084	0.059598	0.002040	29.2134	162.665	-164.471	0.083275	0.441652	-0.695721	-0.697041	0.069960	29.2134	-0.697517	-1.809779E+9	-3.865652E-11	NaN
800	1.000000	0.452973	7.37288e+06	-40139.1	1055.82	-29791.1	0.000000	0.000000	6.452910	0.015943	NaN	0.000000	0.001643	0.001721	28.083	0.132323	0.001946	68.0083	91.8769	9.854786	-0.032690	0.451639	-0.685719	-0.687054	0.015943	68.0083	-0.685895	-1.255481E+9	-1.269859E-11	NaN
800	1.000000	0.462966	7.37288e+06	-40139.1	1055.82	-29791.1	0.000000	0.000000	6.462901	-0.008368	NaN	0.000000	0.001648	0.001708	28.0832	0.073671	0.001961	37.5751	42.8837	-163.734	0.016821	0.461685	-0.675727	-0.677008	-0.008368	37.5751	-0.675560	-9.067046E+8	9.228786E-12	NaN
800	1.000000	0.473016	7.37288e+06	-40139.1	1055.82	-29791.1	0.000000	0.000000	6.472954	0.040119	NaN	0.000000	0.001646	0.001721	28.0833	0.110240	0.002117	52.0673	43.7321	13.4036	0.064127	0.471634	-0.665676	-0.667059	0.040119	52.0673	-0.666254	-6.762594E+8	-5.932497E-11	NaN
800	1.000000	0.482975	7.37288e+06	-40139.1	1055.82	-29791.1	0.000000	0.000000	6.482911	0.009168	NaN	0.000000	0.001634	0.001730	28.083	0.144098	0.001813	79.4759	118.976	-169.299	-0.021237	0.481679	-0.655718	-0.657013	0.009168	79.4759	-0.655804	-4.863929E+8	-1.884868E-11	NaN
800	1.000000	0.493019	7.37288e+06	-40139.1	1055.82	-29791.1	0.000000	0.000000	6.492953	-0.023037	NaN	0.000000	0.001658	0.001732	28.0831	0.115401	0.001905	60.5673	-34.1818	15.7498	-0.035902	0.491643	-0.645674	-0.647050	-0.023037	60.5673	-0.645389	-3.501120E+8	6.579922E-11	NaN
800	1.000000	0.503000	7.37288e+06	-40139.1	1055.82	-29791.1	0.000000	0.000000	6.502934	-0.042415	NaN	0.000000	0.001633	0.001710	28.0831	0.032606	0.002016	16.1767	-146.085	-166.681	-0.010190	0.501736	-0.635693	-0.636957	-0.042415	16.1767	-0.633726	-2.422061E+8	1.751181E-10	NaN
800	1.000000	0.512980	7.37288e+06	-40139.1	1055.82	-29791.1	0.000000	0.000000	6.512917	0.034791	NaN	0.000000	0.001645	0.001771	28.0832	0.088198	0.001995	44.2015	-65.8699	13.7862	0.082217	0.511653	-0.625713	-0.627040	0.034791	44.2015	-0.626303	-1.915332E+8	-1.816466E-10	NaN
800	1.000000	0.523020	7.37288e+06	-40139.1	1055.82	-29791.1	0.000000	0.000000	6.522954	-0.032823	NaN	0.000000	0.001629	0.001716	28.0829	0.016692	0.002067	8.073954	-162.981	-167.381	-0.071774	0.521749	-0.615673	-0.616944	-0.032823	8.073954	-0.612624	-1.242249E+8	2.642214E-10	NaN
800	1.000000	0.533022	7.37288e+06	-40139.1	1055.82	-29791.1	0.000000	0.000000	6.532959	0.038097	NaN	0.000000	0.001585	0.001708	28.0831	0.068818	0.002101	32.7556	118.706	11.9395	0.054658	0.531711	-0.605671	-0.606982	0.038097	32.7556	-0.606543	-1.024576E+8	-3.718336E-10	NaN
800	1.000000	0.543018	7.37288e+06	-40139.1	1055.82	-29791.1	0.000000	0.000000	6.542954	0.004398	NaN	0.000000	0.001656	0.001709	28.083	0.089584	0.001956	45.793	-146.339	-164.642	-0.035328	0.541698	-0.595674	-0.596995	0.004398	45.793	-0.595746	-7.275523E+7	-6.044241E-11	NaN
800	1.000000	0.553007	7.37288e+06	-40139.1	1055.82	-29791.1	0.000000	0.000000	6.552943	0.015058	NaN	0.000000	0.001602	0.001728	28.0831	0.035269	0.002015	17.5067	106.979	8.366290	0.045782	0.551683	-0.585686	-0.587009	0.015058	17.5067	-0.586331	-5.395974E+7	-2.790610E-10	NaN
800	1.000000	0.563013	7.37288e+06	-40139.1	1055.82	-29791.1	0.000000	0.000000	6.562947	-0.053653	NaN	0.000000	0.001657	0.001724	28.0831	0.107240	0.001958	54.7737	90.0356	-163.09	-0.029680	0.561787	-0.575679	-0.576906	-0.053653	54.7737	-0.574944	-3.757783E+7	1.427784E-9	NaN
800	1.000000	0.573048	7.37288e+06	-40139.1	1055.82	-29791.1	0.000000	0.000000	6.572984	0.003072	NaN	0.000000	0.001659	0.001723	28.0832	0.053553	0.002033	26.3365	-85.7383	15.2526	0.010230	0.571700	-0.565644	-0.566993	0.003072	26.3365	-0.565732	-2.803124E+7	-1.095950E-10	NaN
800	1.000000	0.583057	7.37288e+06	-40139.1	1055.82	-29791.1	0.000000	0.000000	6.582991	-0.046892	NaN	0.000000	0.001642	0.001731	28.0848	0.032996	0.001978	16.6857	114.536	-164.712	0.060817	0.581751	-0.555635	-0.556942	-0.046892	16.6857	-0.553528	-1.900222E+7	2.467702E-9	NaN
800	1.000000	0.593033	7.37288e+06	-40139.1	1055.82	-29791.1	0.000000	0.000000	6.592970	0.035399	NaN	0.000000	0.001666	0.001723	28.0847	0.023556	0.001850	12.7358	120.292	13.9212	0.100981	0.591661	-0.545659	-0.547031	0.035399	12.7358	-0.547744	-1.580165E+7	-2.240204E-9	NaN
800	1.000000	0.603051	7.37288e+06	-40139.1	1055.82	-29791.1	0.000000	0.000000	6.602983	-0.066414	NaN	0.000000	0.001654	0.001775	28.0845	0.032616	0.001956	16.6718	-22.3968	-170.123	-0.069625	0.601768	-0.535642	-0.536925	-0.066414	16.6718	-0.532654	-9.75959e+06	6.804999E-9	NaN
800	1.000000	0.613026	7.37288e+06	-40139.1	1055.82	-29791.1	0.000000	0.000000	6.612962	-0.009159	NaN	0.000000	0.001677	0.001664	28.0847	0.019746	0.001938	10.189	-93.6616	15.5335	-0.034983	0.611670	-0.525666	-0.527022	-0.009159	10.189	-0.524992	-7.63837e+06	1.199025E-9	NaN
800	1.000000	0.623085	7.37288e+06	-40139.1	1055.82	-29791.1	0.000000	0.000000	6.623017	-0.090703	NaN	0.000000	0.001601	0.001677	28.0843	0.082783	0.001963	42.1683	-118.851	-168.427	-0.028685	0.621757	-0.515608	-0.516936	-0.090703	42.1683	-0.513994	-5.37075e+06	1.688838E-8	NaN
800	1.000000	0.633064	7.37288e+06	-40139.1	1055.82	-29791.1	0.000000	0.000000	6.632999	-0.020102	NaN	0.000000	0.001629	0.001665	28.0845	0.048186	0.001864	25.8477	155.898	17.1299	-0.058027	0.631655	-0.505628	-0.507038	-0.020102	25.8477	-0.505045	-4.03063e+06	4.987252E-9	NaN
800	1.000000	0.643064	7.37288e+06	-40139.1	1055.82	-29791.1	0.000000	0.000000	6.642998	-0.032643	NaN	0.000000	0.001668	0.001677	28.0841	0.050218	0.002156	23.288	150.065	-166.267	-0.065953	0.641765	-0.495629	-0.496927	-0.032643	23.288	-0.494578	-2.87964e+06	1.133596E-8	NaN
800	1.000000	0.653063	7.37288e+06	-40139.1	1055.82	-29791.1	0.000000	0.000000	6.652997	-0.024674	NaN	0.000000	0.001655	0.001661	28.0845	0.018811	0.002086	9.018685	179.538	14.8142	0.045369	0.651653	-0.485630	-0.487039	-0.024674	9.018685	-0.483578	-2.02114e+06	1.220775E-8	NaN
800	1.000000	0.663079	7.37288e+06	-40139.1	1055.82	-29791.1	0.000000	0.000000	6.663012	-0.063754	NaN	0.000000	0.001653	0.001652	28.0842	0.045109	0.002047	22.0369	31.3264	-165.494	-0.032782	0.661758	-0.475614	-0.476935	-0.063754	22.0369	-0.473444	-1.45779e+06	4.373312E-8	NaN
800	1.000000	0.673096	7.37288e+06	-40139.1	1055.82	-29791.1	0.000000	0.000000	6.673030	-0.035281	NaN	0.000000	0.001618	0.001659	28.0843	0.163000	0.001993	81.772	-118.156	13.3487	-0.068178	0.671712	-0.465596	-0.466981	-0.035281	81.772	-0.465273	-1.11963e+06	3.151105E-8	NaN
800	1.000000	0.683065	7.37288e+06	-40139.1	1055.82	-29791.1	0.000000	0.000000	6.682999	-0.034820	NaN	0.000000	0.001603	0.001647	28.0843	0.010687	0.002045	5.224649	-26.8473	-165.188	-0.042349	0.681793	-0.455628	-0.456900	-0.034820	5.224649	-0.450630	-696961	4.995994E-8	NaN
800	1.000000	0.693084	7.37288e+06	-40139.1	1055.82	-29791.1	0.000000	0.000000	6.693019	-0.027064	NaN	0.000000	0.001589	0.001626	28.0844	0.036677	0.001915	19.157	71.7428	15.0129	0.004655	0.691707	-0.445608	-0.446986	-0.027064	19.157	-0.444549	-572177	4.729954E-8	NaN
800	1.000000	0.703087	7.37288e+06	-40139.1	1055.82	-29791.1	0.000000	0.000000	6.703021	-0.029730	NaN	0.000000	0.001571	0.001626	28.0843	0.046724	0.002019	23.145	-75.7441	-163.976	-0.009242	0.701766	-0.435606	-0.436926	-0.029730	23.145	-0.434642	-414668	7.169588E-8	NaN
800	1.000000	0.713095	7.37288e+06	-40139.1	1055.82	-29791.1	0.000000	0.000000	6.713029	-0.058798	NaN	0.000000	0.001560	0.001633	28.0844	0.074416	0.001930	38.5586	-95.592	15.8397	-0.048441	0.711767	-0.425597	-0.426926	-0.058798	38.5586	-0.424453	-297536	1.976145E-7	NaN
800	1.000000	0.723080	7.37288e+06	-40139.1	1055.82	-29791.1	0.000000	0.000000	6.723018	0.058988	NaN	0.000000	0.001620	0.001669	28.0835	0.089234	0.002078	42.9421	176.391	-165.807	-0.016579	0.721714	-0.415613	-0.416978	0.058988	42.9421	-0.416643	-230559	-2.558490E-7	NaN
800	1.000000	0.733114	7.37288e+06	-40139.1	1055.82	-29791.1	0.000000	0.000000	6.733051	0.029399	NaN	0.000000	0.001605	0.001658	28.0833	0.077282	0.001923	40.1833	-149.609	17.8175	-0.083292	0.731769	-0.405578	-0.406924	0.029399	40.1833	-0.406127	-163416	-1.799000E-7	NaN
800	1.000000	0.743084	7.37288e+06	-40139.1	1055.82	-29791.1	0.000000	0.000000	6.743017	-0.053011	NaN	0.000000	0.001639	0.001672	28.0833	0.016675	0.002166	7.696603	-142.332	-165.627	-0.009166	0.741770	-0.395609	-0.396922	-0.053011	7.696603	-0.390443	-97611.7	5.430806E-7	NaN
800	1.000000	0.753114	7.37288e+06	-40139.1	1055.82	-29791.1	0.000000	0.000000	6.753049	-0.003273	NaN	0.000000	0.001648	0.001665	28.0834	0.143567	0.002017	71.1885	15.9587	15.1148	0.041744	0.751786	-0.385579	-0.386907	-0.003273	71.1885	-0.385544	-83057.8	3.940429E-8	NaN
800	1.000000	0.763143	7.37288e+06	-40139.1	1055.82	-29791.1	0.000000	0.000000	6.763081	0.055806	NaN	0.000000	0.001610	0.001646	28.0834	0.035983	0.001958	18.3733	-146.012	-167.251	0.038053	0.761838	-0.375549	-0.376854	0.055806	18.3733	-0.377827	-64371.7	-8.669299E-7	NaN
800	1.000000	0.773107	7.37288e+06	-40139.1	1055.82	-29791.1	0.000000	0.000000	6.773042	0.001910	NaN	0.000000	0.001605	0.001653	28.0832	0.074142	0.002104	35.2429	-101.228	13.7341	0.006706	0.771769	-0.365586	-0.366923	0.001910	35.2429	-0.365626	-42962.7	-4.446253E-8	NaN
800	1.000000	0.783123	7.37288e+06	-40139.1	1055.82	-29791.1	0.000000	0.000000	6.783058	-0.014849	NaN	0.000000	0.001596	0.001663	28.0832	0.156935	0.001915	81.9483	101.528	-165.748	-0.089361	0.781798	-0.355570	-0.356895	-0.014849	81.9483	-0.355434	-30603.9	4.852112E-7	NaN
800	1.000000	0.793103	7.37288e+06	-40139.1	1055.82	-29791.1	0.000000	0.000000	6.793037	-0.038589	NaN	0.000000	0.001605	0.001601	28.0833	0.002776	0.001996	1.390796	-83.352	14.0826	-0.010579	0.791790	-0.345590	-0.346903	-0.038589	1.390796	-0.324780	-10937.3	3.528203E-6	NaN
800	1.000000	0.803147	7.37288e+06	-40139.1	1055.82	-29791.1	0.000000	0.000000	6.803082	-0.005463	NaN	0.000000	0.001600	0.001639	28.0831	0.014093	0.002056	6.853370	-68.5302	-166.677	0.027709	0.801817	-0.335546	-0.336875	-0.005463	6.853370	-0.334948	-15410.9	3.545004E-7	NaN
800	1.000000	0.813140	7.37288e+06	-40139.1	1055.82	-29791.1	0.000000	0.000000	6.813075	-0.020086	NaN	0.000000	0.001610	0.001648	28.0831	0.169639	0.002046	82.9233	-149.915	9.496392	-0.005801	0.811784	-0.325553	-0.326909	-0.020086	82.9233	-0.325371	-11157.9	1.800139E-6	NaN
800	1.000000	0.823130	7.37288e+06	-40139.1	1055.82	-29791.1	0.000000	0.000000	6.823067	0.022018	NaN	0.000000	0.001599	0.001670	28.0833	0.075610	0.001951	38.7531	-86.1097	-163.447	0.042087	0.821853	-0.315562	-0.316839	0.022018	38.7531	-0.315988	-8119.53	-2.711692E-6	NaN
800	1.000000	0.833115	7.37288e+06	-40139.1	1055.82	-29791.1	0.000000	0.000000	6.833050	-0.016054	NaN	0.000000	0.001607	0.001676	28.0834	0.034196	0.001977	17.2946	30.9841	14.3577	-0.126918	0.831817	-0.305577	-0.306876	-0.016054	17.2946	-0.304881	-5561.49	2.886600E-6	NaN
800	1.000000	0.843156	7.37288e+06	-40139.1	1055.82	-29791.1	0.000000	0.000000	6.843090	-0.040047	NaN	0.000000	0.001621	0.001662	28.0833	0.060833	0.002116	28.749	-31.2132	-161.274	0.011217	0.841823	-0.295537	-0.296870	-0.040047	28.749	-0.294492	-3894.95	1.028172E-5	NaN
800	1.000000	0.853164	7.37288e+06	-40139.1	1055.82	-29791.1	0.000000	0.000000	6.853096	-0.088157	NaN	0.000000	0.001624	0.001627	28.0839	0.036763	0.002023	18.1685	5.806361	14.4246	-0.074494	0.851782	-0.285528	-0.286911	-0.088157	18.1685	-0.281889	-2520.28	3.497894E-5	NaN
800	1.000000	0.863142	7.37288e+06	-40139.1	1055.82	-29791.1	0.000000	0.000000	6.863077	-0.029064	NaN	0.000000	0.001611	0.001655	28.0848	0.047217	0.002016	23.4244	170.466	-166.112	-0.053388	0.861867	-0.275550	-0.276826	-0.029064	23.4244	-0.274620	-1957.23	1.484969E-5	NaN
800	1.000000	0.873142	7.37288e+06	-40139.1	1055.82	-29791.1	0.000000	0.000000	6.873078	0.005976	NaN	0.000000	0.001640	0.001694	28.0846	0.035647	0.001933	18.4439	17.2088	15.2214	-0.011207	0.871831	-0.265550	-0.266862	0.005976	18.4439	-0.265793	-1437.11	-4.158622E-6	NaN
800	1.000000	0.883134	7.37288e+06	-40139.1	1055.82	-29791.1	0.000000	0.000000	6.883067	-0.048240	NaN	0.000000	0.001628	0.001680	28.0844	0.105287	0.002065	50.9942	167.1	-167.871	0.110743	0.881871	-0.255559	-0.256822	-0.048240	50.9942	-0.254849	-976.783	4.938611E-5	NaN
800	1.000000	0.893170	7.37288e+06	-40139.1	1055.82	-29791.1	0.000000	0.000000	6.893105	-0.007873	NaN	0.000000	0.001630	0.001669	28.0845	0.084927	0.002000	42.4671	-91.3843	16.3338	-0.090446	0.891792	-0.245523	-0.246901	-0.007873	42.4671	-0.245384	-697.297	1.129066E-5	NaN
800	1.000000	0.903161	7.37288e+06	-40139.1	1055.82	-29791.1	0.000000	0.000000	6.903096	-0.018849	NaN	0.000000	0.001644	0.001706	28.0848	0.093247	0.001968	47.3716	172.637	-165.838	-0.009908	0.901826	-0.235531	-0.236867	-0.018849	47.3716	-0.235233	-484.069	3.893858E-5	NaN
800	1.000000	0.913156	7.37288e+06	-40139.1	1055.82	-29791.1	0.000000	0.000000	6.913088	-0.090663	NaN	0.000000	0.001591	0.001674	28.0844	0.063384	0.002035	31.1411	-13.1636	12.3772	-0.077107	0.911797	-0.225537	-0.226895	-0.090663	31.1411	-0.223353	-314.159	0.000289	NaN
800	1.000000	0.923198	7.37288e+06	-40139.1	1055.82	-29791.1	0.000000	0.000000	6.923134	0.005542	NaN	0.000000	0.001604	0.001685	28.0844	0.074689	0.001942	38.4642	63.0359	-163.666	-0.031501	0.921818	-0.215494	-0.216875	0.005542	38.4642	-0.215602	-236.157	-2.346746E-5	NaN
800	1.000000	0.933175	7.37288e+06	-40139.1	1055.82	-29791.1	0.000000	0.000000	6.933112	0.036431	NaN	0.000000	0.001614	0.001676	28.0845	0.024253	0.002050	11.8334	108.072	11.5819	0.007702	0.931834	-0.205517	-0.206859	0.036431	11.8334	-0.207827	-176.834	-0.000206	NaN
800	1.000000	0.943181	7.37288e+06	-40139.1	1055.82	-29791.1	0.000000	0.000000	6.943114	-0.054686	NaN	0.000000	0.001614	0.001692	28.0849	0.054906	0.002059	26.6658	51.9495	-169.645	-0.089084	0.941897	-0.195512	-0.196795	-0.054686	26.6658	-0.193974	-104.759	0.000522	NaN
800	1.000000	0.953184	7.37288e+06	-40139.1	1055.82	-29791.1	0.000000	0.000000	6.953119	-0.028993	NaN	0.000000	0.001651	0.001661	28.0847	0.038321	0.001960	19.5487	8.599004	15.1633	0.014352	0.951878	-0.185508	-0.186815	-0.028993	19.5487	-0.184396	-72.4348	0.000400	NaN
800	1.000000	0.963177	7.37288e+06	-40139.1	1055.82	-29791.1	0.000000	0.000000	6.963110	-0.050766	NaN	0.000000	0.001618	0.001636	28.0849	0.111767	0.001973	56.6519	-78.5832	-162.64	-0.058094	0.961831	-0.175516	-0.176861	-0.050766	56.6519	-0.174844	-49.8077	0.001019	NaN
800	1.000000	0.973197	7.37288e+06	-40139.1	1055.82	-29791.1	0.000000	0.000000	6.973132	-0.013279	NaN	0.000000	0.001651	0.001612	28.0848	0.113079	0.002010	56.2585	-129.881	16.5632	-0.007378	0.971846	-0.165495	-0.166846	-0.013279	56.2585	-0.165318	-34.0324	0.000390	NaN
800	1.000000	0.983184	7.37288e+06	-40139.1	1055.82	-29791.1	0.000000	0.000000	6.983119	0.005322	NaN	0.000000	0.001636	0.001663	28.0848	0.035643	0.001980	18.0027	-47.6127	-163.455	0.050573	0.981890	-0.155509	-0.156803	0.005322	18.0027	-0.155731	-22.9993	-0.000231	NaN
800	1.000000	0.993192	7.37288e+06	-40139.1	1055.82	-29791.1	0.000000	0.000000	6.993126	-0.027896	NaN	0.000000	0.001634	0.001687	28.0835	0.076956	0.001864	41.2794	-111.102	14.6168	-0.005030	0.991860	-0.145501	-0.146833	-0.027896	41.2794	-0.144994	-14.6573	0.001903	NaN
800	1.000000	1.003214	7.37288e+06	-40139.1	1055.82	-29791.1	0.000000	0.000000	7.003149	-0.019700	NaN	0.000000	0.001607	0.001669	28.0838	0.095457	0.002087	45.7467	112.683	-164.366	0.005010	1.001910	-0.135478	-0.136783	-0.019700	45.7467	-0.135155	-9.577592	0.002057	NaN
800	1.000000	1.013227	7.37288e+06	-40139.1	1055.82	-29791.1	0.000000	0.000000	7.013162	-0.011669	NaN	0.000000	0.001625	0.001647	28.0835	0.100279	0.002029	49.4151	-118.031	11.357	-0.066690	1.011847	-0.125465	-0.126845	-0.011669	49.4151	-0.125288	-6.161620	0.001894	NaN
800	1.000000	1.023199	7.37288e+06	-40139.1	1055.82	-29791.1	0.000000	0.000000	7.023131	-0.078866	NaN	0.000000	0.001646	0.001664	28.0835	0.066791	0.002144	31.1493	-162.534	-165.551	-0.066903	1.021924	-0.115494	-0.116768	-0.078866	31.1493	-0.113595	-3.573139	0.022072	NaN
800	1.000000	1.033206	7.37288e+06	-40139.1	1055.82	-29791.1	0.000000	0.000000	7.033143	0.035340	NaN	0.000000	0.001601	0.001664	28.0832	0.020573	0.002019	10.1898	-172.269	15.8182	-0.062748	1.031838	-0.105487	-0.106855	0.035340	10.1898	-0.108088	-2.737605	-0.012909	NaN
800	1.000000	1.043226	7.37288e+06	-40139.1	1055.82	-29791.1	0.000000	0.000000	7.043162	0.010430	NaN	0.000000	0.001624	0.001648	28.0834	0.092416	0.002062	44.8259	-32.0205	-165.156	0.028916	1.041934	-0.095467	-0.096759	0.010430	44.8259	-0.095641	-1.458818	-0.007149	NaN
800	1.000000	1.053198	7.37288e+06	-40139.1	1055.82	-29791.1	0.000000	0.000000	7.053131	-0.047657	NaN	0.000000	0.001657	0.001653	28.0835	0.056442	0.002048	27.5585	95.164	13.2776	-0.082162	1.051902	-0.085495	-0.086790	-0.047657	27.5585	-0.084198	-0.785630	0.060661	NaN
800	1.000000	1.063239	7.37289e+06	-40139.1	1055.82	-29791.1	0.000000	0.000000	7.063175	0.013439	NaN	0.000000	0.001631	0.001676	28.0835	0.068455	0.001869	36.6314	-156.401	-163.076	-0.043515	1.061936	-0.075453	-0.076757	0.013439	36.6314	-0.075729	-0.482304	-0.027864	NaN
800	1.000000	1.073225	7.37289e+06	-40139.1	1055.82	-29791.1	0.000000	0.000000	7.073158	-0.042251	NaN	0.000000	0.001647	0.001671	28.0834	0.043603	0.001870	23.3184	177.597	15.9512	-0.054602	1.071892	-0.065468	-0.066800	-0.042251	23.3184	-0.064109	-0.235388	0.179494	NaN
800	1.000000	1.083237	7.37289e+06	-40139.1	1055.82	-29791.1	0.000000	0.000000	7.083171	-0.033304	NaN	0.000000	0.001656	0.001673	28.0834	0.105115	0.002077	50.6022	80.6553	-165.162	0.011763	1.081947	-0.055456	-0.056746	-0.033304	50.6022	-0.054962	-0.128446	0.259281	NaN
800	1.000000	1.093225	7.37289e+06	-40139.1	1055.82	-29791.1	0.000000	0.000000	7.093161	0.013028	NaN	0.000000	0.001665	0.001679	28.0837	0.046620	0.001929	24.1692	37.4487	11.6618	-0.045256	1.091861	-0.045468	-0.046831	0.013028	24.1692	-0.045872	-0.068336	-0.190642	NaN
800	1.000000	1.103243	7.37289e+06	-40139.1	1055.82	-29791.1	0.000000	0.000000	7.103177	-0.035907	NaN	0.000000	0.001646	0.001681	28.0836	0.068665	0.001993	34.4558	165.055	-166.542	-0.071285	1.101908	-0.035450	-0.036785	-0.035907	34.4558	-0.034668	-0.031313	1.146708	NaN
800	1.000000	1.113246	7.37289e+06	-40139.1	1055.82	-29791.1	0.000000	0.000000	7.113181	-0.028444	NaN	0.000000	0.001625	0.001631	28.0839	0.099047	0.001956	50.6307	-83.1638	17.1546	-0.072314	1.111878	-0.025446	-0.026815	-0.028444	50.6307	-0.025025	-0.016896	1.683488	NaN
800	1.000000	1.123227	7.37289e+06	-40139.1	1055.82	-29791.1	0.000000	0.000000	7.123161	-0.029592	NaN	0.000000	0.001609	0.001681	28.0835	0.087897	0.002167	40.554	-101.224	-168.017	-0.019256	1.121953	-0.015465	-0.016739	-0.029592	40.554	-0.014918	-0.009226	3.207326	NaN
800	1.000000	1.133249	7.37289e+06	-40139.1	1055.82	-29791.1	0.000000	0.000000	7.133181	-0.076901	NaN	0.000000	0.001642	0.001692	28.0853	0.084786	0.002075	40.8625	42.563	11.2602	-0.047204	1.131844	-0.005444	-0.006848	-0.076901	40.8625	-0.004032	-0.002800	27.4662	NaN
800	2.000000	1.142726	7.37289e+06	-40139.1	1055.82	-29791.1	0.000000	0.000000	7.142993	8.055395	NaN	0.000000	0.001640	0.001671	28.0849	7.573736	0.001683	4500.93	7.787508	-171.224	7.730541	1.141915	0.004034	0.003223	8.055395	4500.93	0.002691	0.002122	3796.63	89275.3
800	2.000000	1.145378	7.37289e+06	-40139.1	1055.82	-29791.1	0.000000	0.000000	7.145783	11.4366	NaN	0.000000	0.001614	0.001697	28.0852	10.6392	0.001778	5984.94	5.258074	9.371076	10.8212	1.145007	0.006685	0.006314	11.4366	5984.94	0.005252	0.004365	2620.26	82767.1
800	2.000000	1.147870	7.37289e+06	-40139.1	1055.82	-29791.1	0.000000	0.000000	7.148334	12.8608	NaN	0.000000	0.001621	0.001662	28.085	13.2503	0.001795	7383.76	5.605273	-172.954	12.6125	1.147654	0.009178	0.008961	12.8608	7383.76	0.007871	0.006910	1861.11	81152.6
800	2.000000	1.150381	7.37289e+06	-40139.1	1055.82	-29791.1	0.000000	0.000000	7.150964	15.7719	NaN	0.000000	0.001600	0.001689	28.0855	15.3849	0.001781	8639.5	6.909140	5.017281	14.7337	1.150093	0.011688	0.011400	15.7719	8639.5	0.010319	0.009538	1653.56	80821.9
800	2.000000	1.152843	7.37289e+06	-40139.1	1055.82	-29791.1	0.000000	0.000000	7.153673	21.7527	NaN	0.000000	0.001629	0.001700	28.0849	18.0387	0.001808	9978.33	4.417688	-173.95	21.5448	1.152543	0.014151	0.013850	21.7527	9978.33	0.012516	0.012114	1795.68	82830.4
800	2.000000	1.155287	7.37289e+06	-40139.1	1055.82	-29791.1	0.000000	0.000000	7.156169	23.0376	NaN	0.000000	0.001660	0.001687	28.0853	20.5353	0.001976	10390.3	5.520433	5.110585	21.8071	1.154973	0.016595	0.016281	23.0376	10390.3	0.014932	0.015195	1516.18	77012
800	2.000000	1.157876	7.37289e+06	-40139.1	1055.82	-29791.1	0.000000	0.000000	7.158967	28.1071	NaN	0.000000	0.001637	0.001715	28.085	22.7061	0.001827	12429.3	7.963743	-178.904	30.917	1.157505	0.019184	0.018812	28.1071	12429.3	0.017488	0.018747	1499.29	82937.8
800	2.000000	1.160340	7.37289e+06	-40139.1	1055.82	-29791.1	0.000000	0.000000	7.161682	34.2252	NaN	0.000000	0.001634	0.001676	28.0847	24.9043	0.001812	13745.9	6.751613	1.056463	35.0141	1.159993	0.021647	0.021301	34.2252	13745.9	0.019780	0.022198	1541.82	84292.8
800	2.000000	1.162828	7.37289e+06	-40139.1	1055.82	-29791.1	0.000000	0.000000	7.164368	39.0555	NaN	0.000000	0.001644	0.001710	28.0847	26.54	0.001812	14647.9	5.164154	-178.38	39.4663	1.162515	0.024135	0.023823	39.0555	14647.9	0.022135	0.026009	1501.6	82982.1
800	2.000000	1.165319	7.37289e+06	-40139.1	1055.82	-29791.1	0.000000	0.000000	7.167139	45.8393	NaN	0.000000	0.001657	0.001705	28.0856	28.9332	0.001715	16867.5	2.596262	1.995061	45.6629	1.164969	0.026627	0.026277	45.8393	16867.5	0.024589	0.030272	1514.27	88574.1
800	2.000000	1.167820	7.37289e+06	-40139.1	1055.82	-29791.1	0.000000	0.000000	7.169852	51.0188	NaN	0.000000	0.001635	0.001709	28.0848	32.683	0.001840	17758.1	4.861645	179.472	50.3766	1.167498	0.029128	0.028806	51.0188	17758.1	0.026973	0.034703	1470.17	87093.6
800	2.000000	1.170281	7.37289e+06	-40139.1	1055.82	-29791.1	0.000000	0.000000	7.172643	59.0314	NaN	0.000000	0.001641	0.001695	28.085	33.7309	0.001824	18490.4	7.389264	-1.623017	56.4743	1.169932	0.031589	0.031239	59.0314	18490.4	0.029194	0.039090	1510.14	85445.2
800	2.000000	1.172760	7.37289e+06	-40139.1	1055.82	-29791.1	0.000000	0.000000	7.175256	62.2999	NaN	0.000000	0.001607	0.001715	28.0838	36.0706	0.001832	19691.9	4.489628	178.716	61.0095	1.172471	0.034068	0.033778	62.2999	19691.9	0.031695	0.044330	1405.37	85450.3
800	2.000000	1.175300	7.37289e+06	-40139.1	1055.82	-29791.1	0.000000	0.000000	7.178076	69.1297	NaN	0.000000	0.001653	0.001697	28.0837	38.7315	0.001793	21605	6.354391	-3.283767	69.9532	1.174945	0.036607	0.036253	69.1297	21605	0.034207	0.049916	1384.91	88349.8
800	2.000000	1.177891	7.37289e+06	-40139.1	1055.82	-29791.1	0.000000	0.000000	7.180886	74.4689	NaN	0.000000	0.001630	0.001715	28.0833	41.6567	0.001883	22117.8	6.300911	176.248	79.4044	1.177535	0.039198	0.038842	74.4689	22117.8	0.036673	0.055713	1336.65	85612.6
800	2.000000	1.180278	7.37289e+06	-40139.1	1055.82	-29791.1	0.000000	0.000000	7.183834	88.1181	NaN	0.000000	0.001612	0.001678	28.0835	42.761	0.001808	23653.8	5.395860	-1.855776	87.1155	1.179881	0.041585	0.041189	88.1181	23653.8	0.038791	0.060941	1445.95	87542.4
800	2.000000	1.182773	7.37289e+06	-40139.1	1055.82	-29791.1	0.000000	0.000000	7.186617	95.1268	NaN	0.000000	0.001613	0.001692	28.0834	45.2243	0.001784	25349.7	5.814765	175.837	93.9483	1.182504	0.044080	0.043811	95.1268	25349.7	0.041266	0.067340	1412.63	89249.9
800	2.000000	1.185261	7.37289e+06	-40139.1	1055.82	-29791.1	0.000000	0.000000	7.189488	104.419	NaN	0.000000	0.001597	0.001687	28.0837	47.4001	0.001816	26102.5	3.634913	-2.545421	101.864	1.184938	0.046569	0.046245	104.419	26102.5	0.043568	0.073575	1419.2	87920.2
800	2.000000	1.187734	7.37289e+06	-40139.1	1055.82	-29791.1	0.000000	0.000000	7.192320	113.176	NaN	0.000000	0.001589	0.001654	28.0833	50.9099	0.001885	27001.1	3.815369	176.529	110.939	1.187477	0.049041	0.048784	113.176	27001.1	0.045898	0.080156	1411.95	87133.8
800	2.000000	1.190280	7.37289e+06	-40139.1	1055.82	-29791.1	0.000000	0.000000	7.195150	120.087	NaN	0.000000	0.001596	0.001676	28.0834	51.0587	0.001716	29746.3	1.653655	-1.152872	118.413	1.189907	0.051587	0.051214	120.087	29746.3	0.048559	0.088012	1364.43	91608.3
800	2.000000	1.192763	7.37289e+06	-40139.1	1055.82	-29791.1	0.000000	0.000000	7.198021	129.512	NaN	0.000000	0.001621	0.001661	28.0833	53.5916	0.001729	30991.6	1.256589	177.642	129.535	1.192587	0.054071	0.053895	129.512	30991.6	0.050936	0.095329	1358.57	91707.2
800	2.000000	1.195200	7.37289e+06	-40139.1	1055.82	-29791.1	0.000000	0.000000	7.201135	145.988	NaN	0.000000	0.001641	0.001690	28.0834	56.4574	0.001733	32573.8	2.521718	-3.549846	140.859	1.194782	0.056507	0.056090	145.988	32573.8	0.053146	0.102385	1425.87	93008.7
800	2.000000	1.197756	7.37289e+06	-40139.1	1055.82	-29791.1	0.000000	0.000000	7.203877	150.531	NaN	0.000000	0.001629	0.001675	28.0831	59.2117	0.001736	34115.8	1.448987	177.411	150.05	1.197586	0.059063	0.058893	150.531	34115.8	0.055754	0.111023	1355.85	93545.1
800	2.000000	1.200329	7.37289e+06	-40139.1	1055.82	-29791.1	0.000000	0.000000	7.207108	166.517	NaN	0.000000	0.001602	0.001699	28.0833	62.0824	0.001821	34099.3	4.273449	-5.743230	167.267	1.200001	0.061636	0.061308	166.517	34099.3	0.057974	0.118644	1403.5	90447.5
800	2.000000	1.202688	7.37289e+06	-40139.1	1055.82	-29791.1	0.000000	0.000000	7.209923	177.625	NaN	0.000000	0.001640	0.001662	28.0835	64.7013	0.001929	33549.2	5.379596	173.722	173.537	1.202439	0.063995	0.063746	177.625	33549.2	0.060024	0.125896	1410.89	86387.3
800	2.000000	1.205260	7.37289e+06	-40139.1	1055.82	-29791.1	0.000000	0.000000	7.213314	197.565	NaN	0.000000	0.001593	0.001679	28.0835	65.3491	0.001877	34807.5	7.383847	-8.191025	195.151	1.204804	0.066567	0.066111	197.565	34807.5	0.062310	0.134224	1471.91	86802.5
800	2.000000	1.207770	7.37289e+06	-40139.1	1055.82	-29791.1	0.000000	0.000000	7.216245	207.802	NaN	0.000000	0.001661	0.001698	28.0846	68.321	0.001822	37498	5.309656	172.768	207	1.207418	0.069077	0.068725	207.802	37498	0.064921	0.144043	1442.64	90268.3
800	2.000000	1.210270	7.37289e+06	-40139.1	1055.82	-29791.1	0.000000	0.000000	7.219315	221.676	NaN	0.000000	0.001691	0.001709	28.0847	69.1937	0.001729	40009.7	5.092898	-6.979553	219.918	1.210002	0.071577	0.071309	221.676	40009.7	0.067422	0.153759	1441.71	93221.9
800	2.000000	1.212696	7.37289e+06	-40139.1	1055.82	-29791.1	0.000000	0.000000	7.222107	230.578	NaN	0.000000	0.001645	0.001717	28.0849	72.2955	0.001890	38258.5	5.881926	172.02	226.671	1.212464	0.074004	0.073771	230.578	38258.5	0.069483	0.161993	1423.38	86846.6
800	2.000000	1.215166	7.37289e+06	-40139.1	1055.82	-29791.1	0.000000	0.000000	7.225440	251.579	NaN	0.000000	0.001658	0.001686	28.0848	75.4233	0.001839	41003.6	6.484302	-8.831329	246.731	1.214821	0.076473	0.076128	251.579	41003.6	0.071872	0.171784	1464.51	90386.4
800	2.000000	1.217745	7.37289e+06	-40139.1	1055.82	-29791.1	0.000000	0.000000	7.228346	259.514	NaN	0.000000	0.001631	0.001688	28.0847	77.9449	0.001861	41893.6	5.059559	172.611	258.858	1.217481	0.079053	0.078789	259.514	41893.6	0.074407	0.182475	1422.19	89602.3
800	2.000000	1.220200	7.37289e+06	-40139.1	1055.82	-29791.1	0.000000	0.000000	7.231430	274.829	NaN	0.000000	0.001600	0.001708	28.0847	78.9811	0.001848	42742.2	5.551663	-7.999155	271.519	1.219918	0.081508	0.081226	274.829	42742.2	0.076685	0.192341	1428.86	89041.7
800	2.000000	1.222715	7.37289e+06	-40139.1	1055.82	-29791.1	0.000000	0.000000	7.234655	292.103	NaN	0.000000	0.001609	0.001730	28.0849	80.8834	0.001671	48390.8	7.114093	170.246	291.254	1.222303	0.084023	0.083610	292.103	48390.8	0.079496	0.204845	1425.97	97684
800	2.000000	1.225061	7.37289e+06	-40139.1	1055.82	-29791.1	0.000000	0.000000	7.237372	301.128	NaN	0.000000	0.001567	0.001673	28.0847	83.5808	0.001833	45597.9	4.812030	-8.301884	289.832	1.224663	0.086369	0.085971	301.128	45597.9	0.081416	0.213600	1409.77	90139.8
800	2.000000	1.227685	7.37289e+06	-40139.1	1055.82	-29791.1	0.000000	0.000000	7.240807	320.873	NaN	0.000000	0.001593	0.001735	28.0847	87.1567	0.001899	45902.4	8.199678	168.326	316.746	1.227335	0.088992	0.088643	320.873	45902.4	0.083750	0.224473	1429.45	88517
800	2.000000	1.230089	7.37289e+06	-40139.1	1055.82	-29791.1	0.000000	0.000000	7.243826	335.851	NaN	0.000000	0.001611	0.001735	28.0849	87.4985	0.001774	49322.8	5.133071	-8.684027	326.252	1.229804	0.091397	0.091112	335.851	49322.8	0.086290	0.236592	1419.54	92644.9
800	2.000000	1.232691	7.37289e+06	-40139.1	1055.82	-29791.1	0.000000	0.000000	7.247169	353.883	NaN	0.000000	0.001570	0.001706	28.0847	89.723	0.001751	51237.6	3.025221	173.601	353.44	1.232349	0.093998	0.093656	353.883	51237.6	0.088818	0.248953	1421.49	93821.8
800	2.000000	1.235167	7.37289e+06	-40139.1	1055.82	-29791.1	0.000000	0.000000	7.250109	365.186	NaN	0.000000	0.001584	0.001689	28.0847	93.8807	0.001874	50100.2	7.726911	-11.0591	361.557	1.234716	0.096474	0.096024	365.186	50100.2	0.091007	0.259889	1405.16	89788.1
800	2.000000	1.237686	7.37289e+06	-40139.1	1055.82	-29791.1	0.000000	0.000000	7.253605	388.946	NaN	0.000000	0.001587	0.001679	28.0847	94.7427	0.001818	52112.3	4.614530	172.027	387.82	1.237340	0.098993	0.098648	388.946	52112.3	0.093395	0.272071	1429.57	91279.2
800	2.000000	1.240237	7.37289e+06	-40139.1	1055.82	-29791.1	0.000000	0.000000	7.256853	405.901	NaN	0.000000	0.001626	0.001695	28.0848	95.8054	0.001729	55421.8	6.612585	-10.4146	406.584	1.239877	0.101545	0.101185	405.901	55421.8	0.096052	0.285930	1419.58	94694.5
800	2.000000	1.241162	7.37289e+06	-40139.1	1055.82	-29791.1	0.000000	0.000000	7.258107	413.907	NaN	0.000000	0.001588	0.001719	28.0836	97.5029	0.001753	55612.5	4.024409	-8.804325	408.962	1.240840	0.102470	0.102147	413.907	55612.5	0.096888	0.290356	1425.51	94293.1