File: remote_trans/data/nanoindenter/0828-1/data/Data_2025-08-06,11h17m57s/2025-07-22_16-23-58_1_585.txt
2025-07-22, 16:23:58, 1
Index	Phase	Displacement	Time	Pos X	Pos Y	Pos Z	Rot A	Rot B	Piezo Z	Force A	Force B	Gripper	Voltage A	Voltage B	Temperature	Amplitude force	Amplitude pos	Stiffness	Phase shift	Phase excitation	Force A raw	Displacement raw	HMax	HMax raw	Real Force	Real Stiffness	Contact Depth	Area	Hardness	Reduced Mod.
[#]	[#]	[um]	[s]	[um]	[um]	[um]	[m°]	[m°]	[um]	[uN]	[uN]	[V]	[V]	[V]	[°C]	[uN]	[um]	[N/m]	[°]	[°]	[uN]	[um]	[um]	[um]	[uN]	[N/m]	[um]	[um^2]	[MPa]	[MPa]
585	1.000000	0.003693	7.37077e+06	-47839.1	1005.82	-29764.5	0.000000	0.000000	6.002829	0.098443	NaN	0.000000	0.001559	0.001751	28.0809	0.099328	0.001160	85.6384	-61.9474	-174.57	0.086178	0.002427	-1.155156	-1.156421	0.098443	85.6384	-1.156018	-2.828125E+15	-3.480841E-17	NaN
585	1.000000	0.013715	7.37077e+06	-47839.1	1005.82	-29764.5	0.000000	0.000000	6.012848	-0.001574	NaN	0.000000	0.001541	0.001744	28.0806	0.050645	0.001187	42.667	87.5039	21.0922	-0.081520	0.012291	-1.145134	-1.146557	-0.001574	42.667	-1.145106	-2.019313E+15	7.796200E-19	NaN
585	1.000000	0.023659	7.37077e+06	-47839.1	1005.82	-29764.5	0.000000	0.000000	6.022791	-0.004778	NaN	0.000000	0.001555	0.001732	28.0809	0.042230	0.001612	26.1962	77.9898	-166.342	-0.022195	0.022373	-1.135190	-1.136476	-0.004778	26.1962	-1.135053	-1.480469E+15	3.227345E-18	NaN
585	1.000000	0.033570	7.37077e+06	-47839.1	1005.82	-29764.5	0.000000	0.000000	6.032705	0.075391	NaN	0.000000	0.001556	0.001735	28.0803	0.137806	0.001902	72.4439	77.1967	10.7659	0.056669	0.032285	-1.125279	-1.126564	0.075391	72.4439	-1.126059	-1.121407E+15	-6.722881E-17	NaN
585	1.000000	0.043608	7.37077e+06	-47839.1	1005.82	-29764.5	0.000000	0.000000	6.042739	-0.042197	NaN	0.000000	0.001577	0.001744	28.0797	0.029023	0.001952	14.8722	33.6117	-164.117	0.004412	0.042296	-1.115240	-1.116553	-0.042197	14.8722	-1.113112	-7.517173E+14	5.613384E-17	NaN
585	1.000000	0.053632	7.37077e+06	-47839.1	1005.82	-29764.5	0.000000	0.000000	6.052765	0.005957	NaN	0.000000	0.001550	0.001739	28.0794	0.104526	0.001931	54.1183	-156.037	16.4066	0.014638	0.052290	-1.105217	-1.106559	0.005957	54.1183	-1.105299	-5.904704E+14	-1.008879E-17	NaN
585	1.000000	0.063639	7.37077e+06	-47839.1	1005.82	-29764.5	0.000000	0.000000	6.062772	0.013577	NaN	0.000000	0.001573	0.001776	28.0797	0.040286	0.001880	21.4262	139.449	-168.09	-0.111518	0.062328	-1.095209	-1.096521	0.013577	21.4262	-1.095685	-4.386675E+14	-3.095065E-17	NaN
585	1.000000	0.073627	7.37077e+06	-47839.1	1005.82	-29764.5	0.000000	0.000000	6.072758	-0.040776	NaN	0.000000	0.001556	0.001774	28.0794	0.033601	0.002062	16.2919	152.675	13.5775	-0.072814	0.072266	-1.085222	-1.086583	-0.040776	16.2919	-1.083345	-2.995300E+14	1.361343E-16	NaN
585	1.000000	0.083622	7.37077e+06	-47839.1	1005.82	-29764.5	0.000000	0.000000	6.082753	-0.031233	NaN	0.000000	0.001584	0.001729	28.0795	0.013671	0.002039	6.703986	-85.6262	-167.942	-0.024073	0.082313	-1.075227	-1.076536	-0.031233	6.703986	-1.071733	-2.091558E+14	1.493295E-16	NaN
585	1.000000	0.093620	7.37077e+06	-47839.1	1005.82	-29764.5	0.000000	0.000000	6.092752	-0.018844	NaN	0.000000	0.001600	0.001795	28.0797	0.101356	0.002222	45.6251	153.884	10.7902	-0.075505	0.092223	-1.065228	-1.066625	-0.018844	45.6251	-1.064919	-1.694010E+14	1.112376E-16	NaN
585	1.000000	0.103613	7.37077e+06	-47839.1	1005.82	-29764.5	0.000000	0.000000	6.102749	0.076991	NaN	0.000000	0.001606	0.001739	28.0798	0.115757	0.001935	59.8265	-17.1277	-163.929	0.046711	0.102315	-1.055235	-1.056534	0.076991	59.8265	-1.056201	-1.293479E+14	-5.952214E-16	NaN
585	1.000000	0.113647	7.37077e+06	-47839.1	1005.82	-29764.5	0.000000	0.000000	6.112778	-0.043830	NaN	0.000000	0.001599	0.001740	28.0795	0.097142	0.001960	49.5659	22.544	15.3754	-0.042118	0.112241	-1.045202	-1.046608	-0.043830	49.5659	-1.044539	-9.015541E+13	4.861557E-16	NaN
585	1.000000	0.123650	7.37077e+06	-47839.1	1005.82	-29764.5	0.000000	0.000000	6.122784	0.027489	NaN	0.000000	0.001592	0.001777	28.0799	0.067888	0.002054	33.0445	-156.809	-163.186	0.001112	0.122315	-1.035198	-1.036533	0.027489	33.0445	-1.035822	-6.883118E+13	-3.993647E-16	NaN
585	1.000000	0.133627	7.37077e+06	-47839.1	1005.82	-29764.5	0.000000	0.000000	6.132760	0.014672	NaN	0.000000	0.001597	0.001772	28.0797	0.043949	0.002058	21.3546	95.7652	15.1271	-0.041525	0.132313	-1.025222	-1.026536	0.014672	21.3546	-1.025737	-5.036628E+13	-2.913076E-16	NaN
585	1.000000	0.143612	7.37077e+06	-47839.1	1005.82	-29764.5	0.000000	0.000000	6.142743	-0.028151	NaN	0.000000	0.001629	0.001728	28.0798	0.053021	0.001864	28.4415	55.8712	-163.796	-0.017127	0.142343	-1.015237	-1.016505	-0.028151	28.4415	-1.014495	-3.555271E+13	7.918037E-16	NaN
585	1.000000	0.153644	7.37077e+06	-47839.1	1005.82	-29764.5	0.000000	0.000000	6.152774	-0.065176	NaN	0.000000	0.001612	0.001729	28.0796	0.084761	0.002120	39.9733	101.28	11.3833	0.006047	0.152334	-1.005205	-1.006515	-0.065176	39.9733	-1.003982	-2.566724E+13	2.539262E-15	NaN
585	1.000000	0.163636	7.37077e+06	-47839.1	1005.82	-29764.5	0.000000	0.000000	6.162766	-0.044374	NaN	0.000000	0.001621	0.001716	28.0797	0.034754	0.002065	16.8287	-42.249	-167.524	0.027398	0.162419	-0.995213	-0.996429	-0.044374	16.8287	-0.993235	-1.839432E+13	2.412357E-15	NaN
585	1.000000	0.173662	7.37077e+06	-47839.1	1005.82	-29764.5	0.000000	0.000000	6.172794	-0.010317	NaN	0.000000	0.001585	0.001729	28.081	0.041387	0.001942	21.3147	74.9362	12.7378	0.041917	0.172267	-0.985187	-0.986582	-0.010317	21.3147	-0.984824	-1.417066E+13	7.280232E-16	NaN
585	1.000000	0.183645	7.37077e+06	-47839.1	1005.82	-29764.5	0.000000	0.000000	6.182779	0.039967	NaN	0.000000	0.001582	0.001759	28.081	0.057362	0.002062	27.8229	-95.5881	-165.91	0.022494	0.182386	-0.975204	-0.976463	0.039967	27.8229	-0.976281	-1.087201E+13	-3.676098E-15	NaN
585	1.000000	0.193660	7.37077e+06	-47839.1	1005.82	-29764.5	0.000000	0.000000	6.192791	-0.030812	NaN	0.000000	0.001609	0.001772	28.0808	0.124282	0.002045	60.7693	-124.653	11.5108	-0.028161	0.192317	-0.965189	-0.966532	-0.030812	60.7693	-0.964808	-7.615322E+12	4.046020E-15	NaN
585	1.000000	0.203683	7.37077e+06	-47839.1	1005.82	-29764.5	0.000000	0.000000	6.202813	-0.057962	NaN	0.000000	0.001664	0.001756	28.0811	0.026630	0.001964	13.556	-4.380074	-165.415	-0.005992	0.202379	-0.955166	-0.956469	-0.057962	13.556	-0.951959	-5.110355E+12	1.134198E-14	NaN
585	1.000000	0.213716	7.37077e+06	-47839.1	1005.82	-29764.5	0.000000	0.000000	6.212847	-0.034511	NaN	0.000000	0.001661	0.001734	28.0807	0.061497	0.002000	30.7492	114.116	15.0348	0.011190	0.212322	-0.945133	-0.946526	-0.034511	30.7492	-0.944291	-4.027368E+12	8.569173E-15	NaN
585	1.000000	0.223697	7.37077e+06	-47839.1	1005.82	-29764.5	0.000000	0.000000	6.222829	-0.005279	NaN	0.000000	0.001686	0.001738	28.0808	0.038339	0.001920	19.972	-107.2	-164.486	0.098530	0.222386	-0.935152	-0.936463	-0.005279	19.972	-0.934954	-3.013364E+12	1.752010E-15	NaN
585	1.000000	0.233675	7.37077e+06	-47839.1	1005.82	-29764.5	0.000000	0.000000	6.232809	0.030387	NaN	0.000000	0.001665	0.001735	28.0805	0.081139	0.002026	40.0448	26.3456	15.9247	-0.029705	0.232312	-0.925174	-0.926537	0.030387	40.0448	-0.925743	-2.263278E+12	-1.342603E-14	NaN
585	1.000000	0.243694	7.37077e+06	-47839.1	1005.82	-29764.5	0.000000	0.000000	6.242827	0.008613	NaN	0.000000	0.001667	0.001719	28.0809	0.087477	0.001939	45.1083	172.077	-165.05	-0.016200	0.242361	-0.915155	-0.916488	0.008613	45.1083	-0.915298	-1.635739E+12	-5.265472E-15	NaN
585	1.000000	0.253707	7.37077e+06	-47839.1	1005.82	-29764.5	0.000000	0.000000	6.252840	0.007832	NaN	0.000000	0.001652	0.001754	28.0808	0.046986	0.001869	25.1351	-66.7839	16.0318	-0.034449	0.252348	-0.905141	-0.906501	0.007832	25.1351	-0.905375	-1.201402E+12	-6.519175E-15	NaN
585	1.000000	0.263683	7.37077e+06	-47839.1	1005.82	-29764.5	0.000000	0.000000	6.262817	0.039332	NaN	0.000000	0.001624	0.001784	28.0808	0.071221	0.001954	36.4431	34.4031	-165.356	-0.010349	0.262433	-0.895166	-0.896416	0.039332	36.4431	-0.895975	-8.967705E+11	-4.385949E-14	NaN
585	1.000000	0.273733	7.37077e+06	-47839.1	1005.82	-29764.5	0.000000	0.000000	6.272865	-0.035368	NaN	0.000000	0.001636	0.001766	28.0808	0.092686	0.001934	47.9249	-163.852	10.9244	-0.023460	0.272367	-0.885115	-0.886481	-0.035368	47.9249	-0.884562	-6.286263E+11	5.626196E-14	NaN
585	1.000000	0.283722	7.37077e+06	-47839.1	1005.82	-29764.5	0.000000	0.000000	6.282856	0.038071	NaN	0.000000	0.001612	0.001718	28.081	0.136412	0.002090	65.2783	-148.612	-164.136	-0.050148	0.282420	-0.875127	-0.876428	0.038071	65.2783	-0.875564	-4.750230E+11	-8.014613E-14	NaN
585	1.000000	0.293724	7.37077e+06	-47839.1	1005.82	-29764.5	0.000000	0.000000	6.292856	-0.006212	NaN	0.000000	0.001604	0.001779	28.0806	0.037061	0.001995	18.5806	22.9981	13.8612	-0.055552	0.292344	-0.865125	-0.866505	-0.006212	18.5806	-0.864874	-3.404721E+11	1.824626E-14	NaN
585	1.000000	0.303750	7.37077e+06	-47839.1	1005.82	-29764.5	0.000000	0.000000	6.302883	0.024133	NaN	0.000000	0.001567	0.001745	28.0809	0.050486	0.002152	23.4631	-53.1214	-164.436	0.018419	0.302372	-0.855099	-0.856476	0.024133	23.4631	-0.855870	-2.571692E+11	-9.384184E-14	NaN
585	1.000000	0.313759	7.37077e+06	-47839.1	1005.82	-29764.5	0.000000	0.000000	6.312891	-0.015347	NaN	0.000000	0.001612	0.001720	28.0793	0.078320	0.001961	39.942	-112.505	16.2595	0.051935	0.312343	-0.845089	-0.846506	-0.015347	39.942	-0.844801	-1.821074E+11	8.427635E-14	NaN
585	1.000000	0.323735	7.37077e+06	-47839.1	1005.82	-29764.5	0.000000	0.000000	6.322865	-0.055700	NaN	0.000000	0.001587	0.001762	28.0796	0.044394	0.002090	21.2445	117.222	-167.31	-0.011132	0.322433	-0.835114	-0.836415	-0.055700	21.2445	-0.833147	-1.266014E+11	4.399649E-13	NaN
585	1.000000	0.333744	7.37077e+06	-47839.1	1005.82	-29764.5	0.000000	0.000000	6.332876	-0.008841	NaN	0.000000	0.001639	0.001738	28.0793	0.035419	0.002009	17.6263	-32.3875	14.468	-0.006917	0.332334	-0.825105	-0.826515	-0.008841	17.6263	-0.824728	-9.734737E+10	9.082335E-14	NaN
585	1.000000	0.343725	7.37077e+06	-47839.1	1005.82	-29764.5	0.000000	0.000000	6.342855	-0.072750	NaN	0.000000	0.001613	0.001704	28.0797	0.040195	0.001902	21.1346	-38.2975	-167.678	-0.041585	0.342417	-0.815123	-0.816431	-0.072750	21.1346	-0.812542	-6.653518E+10	1.093405E-12	NaN
585	1.000000	0.353737	7.37077e+06	-47839.1	1005.82	-29764.5	0.000000	0.000000	6.352868	-0.035642	NaN	0.000000	0.001597	0.001705	28.0794	0.021467	0.001981	10.8345	29.5538	14.4886	-0.095999	0.352377	-0.805112	-0.806472	-0.035642	10.8345	-0.802645	-4.883806E+10	7.297963E-13	NaN
585	1.000000	0.363739	7.37077e+06	-47839.1	1005.82	-29764.5	0.000000	0.000000	6.362868	-0.087692	NaN	0.000000	0.001593	0.001745	28.0793	0.025317	0.002056	12.3139	150.074	-167.161	0.029942	0.362441	-0.795109	-0.796408	-0.087692	12.3139	-0.789768	-3.265407E+10	2.685485E-12	NaN
585	1.000000	0.373739	7.37077e+06	-47839.1	1005.82	-29764.5	0.000000	0.000000	6.372872	0.005055	NaN	0.000000	0.001582	0.001752	28.0795	0.048278	0.002001	24.1225	-82.7468	12.4858	-0.015150	0.372360	-0.785109	-0.786489	0.005055	24.1225	-0.785266	-2.836522E+10	-1.782044E-13	NaN
585	1.000000	0.383735	7.37077e+06	-47839.1	1005.82	-29764.5	0.000000	0.000000	6.382867	-0.009312	NaN	0.000000	0.001623	0.001765	28.0797	0.015068	0.001860	8.102588	78.3301	-163.461	-0.089505	0.382416	-0.775114	-0.776433	-0.009312	8.102588	-0.774252	-2.009609E+10	4.633770E-13	NaN
585	1.000000	0.393780	7.37077e+06	-47839.1	1005.82	-29764.5	0.000000	0.000000	6.392914	0.041648	NaN	0.000000	0.001581	0.001775	28.08	0.070320	0.002122	33.1394	-119.124	13.8363	0.027440	0.392399	-0.765069	-0.766450	0.041648	33.1394	-0.766011	-1.552622E+10	-2.682442E-12	NaN
585	1.000000	0.403762	7.37077e+06	-47839.1	1005.82	-29764.5	0.000000	0.000000	6.402893	-0.037167	NaN	0.000000	0.001588	0.001789	28.0796	0.045035	0.001978	22.773	144.518	-164.882	-0.035939	0.402458	-0.755087	-0.756390	-0.037167	22.773	-0.753863	-1.061194E+10	3.502395E-12	NaN
585	1.000000	0.413798	7.37077e+06	-47839.1	1005.82	-29764.5	0.000000	0.000000	6.412930	-0.006349	NaN	0.000000	0.001599	0.001783	28.0798	0.134773	0.002144	62.8742	-179.255	17.5176	0.003601	0.412425	-0.745051	-0.746423	-0.006349	62.8742	-0.744975	-8.031672E+9	7.905145E-13	NaN
585	1.000000	0.423802	7.37077e+06	-47839.1	1005.82	-29764.5	0.000000	0.000000	6.422933	-0.044382	NaN	0.000000	0.001644	0.001750	28.0796	0.021680	0.002110	10.2768	145.011	-167.489	-0.040836	0.422476	-0.735046	-0.736373	-0.044382	10.2768	-0.731807	-5.314218E+9	8.351608E-12	NaN
585	1.000000	0.433763	7.37077e+06	-47839.1	1005.82	-29764.5	0.000000	0.000000	6.432896	0.000133	NaN	0.000000	0.001580	0.001793	28.0797	0.055351	0.001961	28.2268	-167.207	14.299	0.001322	0.432442	-0.725086	-0.726406	0.000133	28.2268	-0.725089	-4.303940E+9	-3.091102E-14	NaN
585	1.000000	0.443778	7.37077e+06	-47839.1	1005.82	-29764.5	0.000000	0.000000	6.442911	0.010509	NaN	0.000000	0.001589	0.001760	28.0802	0.142279	0.001961	72.5683	-58.694	-163.102	-0.009464	0.442487	-0.715071	-0.716362	0.010509	72.5683	-0.715179	-3.152976E+9	-3.333050E-12	NaN
585	1.000000	0.453799	7.37077e+06	-47839.1	1005.82	-29764.5	0.000000	0.000000	6.452931	-0.020157	NaN	0.000000	0.001583	0.001712	28.081	0.048162	0.001928	24.9805	98.5912	12.2753	-0.074160	0.452413	-0.705050	-0.706436	-0.020157	24.9805	-0.704444	-2.250172E+9	8.957954E-12	NaN
585	1.000000	0.463795	7.37077e+06	-47839.1	1005.82	-29764.5	0.000000	0.000000	6.462927	-0.004518	NaN	0.000000	0.001608	0.001752	28.0809	0.040763	0.002015	20.2289	-25.2191	-164.766	-0.033605	0.462417	-0.695054	-0.696432	-0.004518	20.2289	-0.694886	-1.666031E+9	2.711764E-12	NaN
585	1.000000	0.473790	7.37077e+06	-47839.1	1005.82	-29764.5	0.000000	0.000000	6.472921	-0.052644	NaN	0.000000	0.001577	0.001738	28.0808	0.082669	0.002019	40.9379	32.5238	16.7961	-0.022824	0.472450	-0.685058	-0.686399	-0.052644	40.9379	-0.684094	-1.186274E+9	4.437737E-11	NaN
585	1.000000	0.483812	7.37077e+06	-47839.1	1005.82	-29764.5	0.000000	0.000000	6.482944	-0.003144	NaN	0.000000	0.001565	0.001730	28.0807	0.077160	0.002056	37.527	68.0739	-166.516	0.004988	0.482547	-0.675037	-0.676301	-0.003144	37.527	-0.674974	-8.901341E+8	3.532588E-12	NaN
585	1.000000	0.493816	7.37077e+06	-47839.1	1005.82	-29764.5	0.000000	0.000000	6.492948	-0.002249	NaN	0.000000	0.001601	0.001727	28.0808	0.078309	0.001944	40.2872	39.0078	15.4274	0.022155	0.492439	-0.665033	-0.666409	-0.002249	40.2872	-0.664991	-6.498596E+8	3.461442E-12	NaN
585	1.000000	0.503815	7.37077e+06	-47839.1	1005.82	-29764.5	0.000000	0.000000	6.502946	-0.051570	NaN	0.000000	0.001613	0.001779	28.081	0.084679	0.001961	43.173	99.5506	-163.91	-0.051462	0.502479	-0.655033	-0.656370	-0.051570	43.173	-0.654137	-4.614724E+8	1.117509E-10	NaN
585	1.000000	0.513847	7.37077e+06	-47839.1	1005.82	-29764.5	0.000000	0.000000	6.512978	-0.043024	NaN	0.000000	0.001595	0.001772	28.0807	0.133580	0.002124	62.8879	6.198672	12.7561	-0.047472	0.512427	-0.645002	-0.646421	-0.043024	62.8879	-0.644488	-3.403003E+8	1.264309E-10	NaN
585	1.000000	0.523811	7.37077e+06	-47839.1	1005.82	-29764.5	0.000000	0.000000	6.522940	-0.065685	NaN	0.000000	0.001590	0.001790	28.0805	0.133193	0.001845	72.2006	-52.5387	-167.416	-0.022071	0.522491	-0.635038	-0.636358	-0.065685	72.2006	-0.634356	-2.470749E+8	2.658495E-10	NaN
585	1.000000	0.533837	7.37077e+06	-47839.1	1005.82	-29764.5	0.000000	0.000000	6.532967	-0.060197	NaN	0.000000	0.001598	0.001773	28.0809	0.142333	0.001875	75.9275	63.848	13.7041	-0.033444	0.532464	-0.625012	-0.626385	-0.060197	75.9275	-0.624418	-1.804437E+8	3.336048E-10	NaN
585	1.000000	0.543830	7.37077e+06	-47839.1	1005.82	-29764.5	0.000000	0.000000	6.542958	-0.102292	NaN	0.000000	0.001613	0.001809	28.0808	0.017572	0.002023	8.686327	103.081	-165.854	-0.051316	0.542487	-0.615019	-0.616362	-0.102292	8.686327	-0.606187	-1.013067E+8	1.009722E-9	NaN
585	1.000000	0.553814	7.37077e+06	-47839.1	1005.82	-29764.5	0.000000	0.000000	6.552945	-0.025573	NaN	0.000000	0.001625	0.001783	28.0809	0.060602	0.001828	33.1458	75.5661	11.7693	-0.086740	0.552471	-0.605035	-0.606377	-0.025573	33.1458	-0.604456	-9.590081E+7	2.666622E-10	NaN
585	1.000000	0.563834	7.37077e+06	-47839.1	1005.82	-29764.5	0.000000	0.000000	6.562963	-0.088676	NaN	0.000000	0.001588	0.001790	28.0805	0.055698	0.002055	27.1079	88.8048	-168.477	-0.039692	0.562529	-0.595014	-0.596320	-0.088676	27.1079	-0.592561	-6.576115E+7	1.348459E-9	NaN
585	1.000000	0.573846	7.37077e+06	-47839.1	1005.82	-29764.5	0.000000	0.000000	6.572979	0.016901	NaN	0.000000	0.001596	0.001776	28.0808	0.057273	0.002164	26.4608	139.854	13.7937	0.010233	0.572454	-0.585003	-0.586394	0.016901	26.4608	-0.585482	-5.252484E+7	-3.217646E-10	NaN
585	1.000000	0.583850	7.37077e+06	-47839.1	1005.82	-29764.5	0.000000	0.000000	6.582979	-0.076925	NaN	0.000000	0.001572	0.001779	28.0796	0.052733	0.002048	25.7531	-115.437	-166.248	-0.028610	0.582542	-0.574999	-0.576307	-0.076925	25.7531	-0.572758	-3.505415E+7	2.194469E-9	NaN
585	1.000000	0.593839	7.37077e+06	-47839.1	1005.82	-29764.5	0.000000	0.000000	6.592971	-0.036059	NaN	0.000000	0.001601	0.001789	28.0798	0.051362	0.001999	25.6959	-4.979759	12.6591	-0.081465	0.592501	-0.565009	-0.566348	-0.036059	25.6959	-0.563957	-2.649116E+7	1.361163E-9	NaN
585	1.000000	0.603848	7.37077e+06	-47839.1	1005.82	-29764.5	0.000000	0.000000	6.602980	-0.021411	NaN	0.000000	0.001587	0.001819	28.0797	0.069275	0.001967	35.2178	-102.958	-160.876	-0.055563	0.602534	-0.555000	-0.556315	-0.021411	35.2178	-0.554544	-1.962831E+7	1.090814E-9	NaN
585	1.000000	0.613848	7.37077e+06	-47839.1	1005.82	-29764.5	0.000000	0.000000	6.612981	0.000731	NaN	0.000000	0.001553	0.001755	28.0798	0.050320	0.002009	25.048	-165.244	14.0451	0.019736	0.612473	-0.545000	-0.546375	0.000731	25.048	-0.545022	-1.448732E+7	-5.043588E-11	NaN
585	1.000000	0.623853	7.37077e+06	-47839.1	1005.82	-29764.5	0.000000	0.000000	6.622986	0.013690	NaN	0.000000	0.001565	0.001784	28.0801	0.106867	0.001925	55.5122	164.66	-171.26	0.001383	0.622605	-0.534996	-0.536243	0.013690	55.5122	-0.535181	-1.058039E+7	-1.293864E-9	NaN
585	1.000000	0.633885	7.37077e+06	-47839.1	1005.82	-29764.5	0.000000	0.000000	6.633014	-0.092411	NaN	0.000000	0.001502	0.001810	28.0795	0.114421	0.001874	61.0556	-19.7016	13.391	-0.023442	0.632439	-0.524964	-0.526410	-0.092411	61.0556	-0.523828	-7.35913e+06	1.255731E-8	NaN
585	1.000000	0.643879	7.37077e+06	-47839.1	1005.82	-29764.5	0.000000	0.000000	6.643011	-0.016235	NaN	0.000000	0.001541	0.001777	28.0796	0.050355	0.002034	24.7611	23.4207	-165.942	-0.043374	0.642591	-0.514969	-0.516258	-0.016235	24.7611	-0.514478	-5.45458e+06	2.976441E-9	NaN
585	1.000000	0.653874	7.37077e+06	-47839.1	1005.82	-29764.5	0.000000	0.000000	6.653003	-0.066767	NaN	0.000000	0.001555	0.001764	28.0796	0.087999	0.001940	45.3671	69.0761	12.1171	0.000286	0.652516	-0.504975	-0.506333	-0.066767	45.3671	-0.503871	-3.88158e+06	1.720091E-8	NaN
585	1.000000	0.663851	7.37077e+06	-47839.1	1005.82	-29764.5	0.000000	0.000000	6.662983	-0.032067	NaN	0.000000	0.001558	0.001759	28.0796	0.030241	0.001897	15.941	-171.648	-166.848	-0.012401	0.662563	-0.494997	-0.496286	-0.032067	15.941	-0.493488	-2.78053e+06	1.153270E-8	NaN
585	1.000000	0.673890	7.37077e+06	-47839.1	1005.82	-29764.5	0.000000	0.000000	6.673023	0.010186	NaN	0.000000	0.001554	0.001728	28.0795	0.072967	0.001964	37.1519	116.579	12.8486	0.029948	0.672551	-0.484959	-0.486297	0.010186	37.1519	-0.485165	-2.12712e+06	-4.788688E-9	NaN
585	1.000000	0.683890	7.37077e+06	-47839.1	1005.82	-29764.5	0.000000	0.000000	6.683022	-0.012750	NaN	0.000000	0.001580	0.001738	28.0798	0.034595	0.002002	17.2803	-109.492	-164.865	-0.074633	0.682532	-0.474959	-0.476317	-0.012750	17.2803	-0.474405	-1.50371e+06	8.478968E-9	NaN
585	1.000000	0.693872	7.37077e+06	-47839.1	1005.82	-29764.5	0.000000	0.000000	6.693007	0.046621	NaN	0.000000	0.001592	0.001750	28.0796	0.093563	0.002029	46.1192	101.94	14.5445	0.080605	0.692471	-0.464976	-0.466378	0.046621	46.1192	-0.465734	-1.13647e+06	-4.102251E-8	NaN
585	1.000000	0.703896	7.37077e+06	-47839.1	1005.82	-29764.5	0.000000	0.000000	6.703025	-0.100050	NaN	0.000000	0.001583	0.001725	28.0797	0.052680	0.002027	25.9833	134.485	-162.968	-0.043071	0.702588	-0.454953	-0.456261	-0.100050	25.9833	-0.452065	-730149	1.370267E-7	NaN
585	1.000000	0.713876	7.37077e+06	-47839.1	1005.82	-29764.5	0.000000	0.000000	6.713009	0.019978	NaN	0.000000	0.001566	0.001739	28.0796	0.043892	0.002007	21.8723	-144.665	13.0371	-0.006770	0.712597	-0.444973	-0.446251	0.019978	21.8723	-0.445658	-593155	-3.368137E-8	NaN
585	1.000000	0.723875	7.37077e+06	-47839.1	1005.82	-29764.5	0.000000	0.000000	6.723008	0.001192	NaN	0.000000	0.001621	0.001757	28.0808	0.039635	0.002104	18.8341	134.022	-165.645	0.030636	0.722612	-0.434973	-0.436237	0.001192	18.8341	-0.435021	-419805	-2.838426E-9	NaN
585	1.000000	0.733897	7.37077e+06	-47839.1	1005.82	-29764.5	0.000000	0.000000	6.733028	-0.030281	NaN	0.000000	0.001612	0.001736	28.0807	0.069842	0.001891	36.9435	78.4925	13.4486	-0.031951	0.732524	-0.424952	-0.426324	-0.030281	36.9435	-0.424337	-296407	1.021607E-7	NaN
585	1.000000	0.743913	7.37077e+06	-47839.1	1005.82	-29764.5	0.000000	0.000000	6.743045	-0.014349	NaN	0.000000	0.001592	0.001764	28.0808	0.061092	0.002006	30.4493	-87.5203	-164.685	-0.057328	0.742624	-0.414935	-0.416225	-0.014349	30.4493	-0.414582	-215534	6.657509E-8	NaN
585	1.000000	0.753910	7.37077e+06	-47839.1	1005.82	-29764.5	0.000000	0.000000	6.753042	-0.006310	NaN	0.000000	0.001561	0.001743	28.081	0.177423	0.002055	86.3561	-177.711	11.2648	0.042723	0.752552	-0.404939	-0.406296	-0.006310	86.3561	-0.404884	-156889	4.022016E-8	NaN
585	1.000000	0.763913	7.37077e+06	-47839.1	1005.82	-29764.5	0.000000	0.000000	6.763040	-0.141287	NaN	0.000000	0.001635	0.001760	28.0808	0.005496	0.001923	2.858717	-53.6179	-164.765	-0.062000	0.762596	-0.394936	-0.396253	-0.141287	2.858717	-0.357868	-33190.8	4.256805E-6	NaN
585	1.000000	0.773916	7.37077e+06	-47839.1	1005.82	-29764.5	0.000000	0.000000	6.773050	0.024833	NaN	0.000000	0.001630	0.001762	28.0809	0.096685	0.002078	46.5279	-76.8323	10.5242	0.011285	0.772564	-0.384932	-0.386285	0.024833	46.5279	-0.385333	-82480.8	-3.010713E-7	NaN
585	1.000000	0.783945	7.37077e+06	-47839.1	1005.82	-29764.5	0.000000	0.000000	6.783075	-0.063294	NaN	0.000000	0.001642	0.001764	28.0808	0.050286	0.002136	23.5426	-154.693	-169.202	-0.051530	0.782632	-0.374904	-0.376216	-0.063294	23.5426	-0.372887	-54662.2	1.157913E-6	NaN
585	1.000000	0.793924	7.37077e+06	-47839.1	1005.82	-29764.5	0.000000	0.000000	6.793057	0.010922	NaN	0.000000	0.001604	0.001738	28.0809	0.031226	0.001985	15.7311	137.883	13.3556	-0.002880	0.792595	-0.364925	-0.366254	0.010922	15.7311	-0.365446	-42705.8	-2.557534E-7	NaN
585	1.000000	0.803932	7.37077e+06	-47839.1	1005.82	-29764.5	0.000000	0.000000	6.803061	-0.072208	NaN	0.000000	0.001646	0.001784	28.0809	0.092095	0.001936	47.5668	29.2676	-162.445	-0.076610	0.802616	-0.354917	-0.356233	-0.072208	47.5668	-0.353779	-28960.1	2.493373E-6	NaN
585	1.000000	0.813931	7.37077e+06	-47839.1	1005.82	-29764.5	0.000000	0.000000	6.813059	-0.113451	NaN	0.000000	0.001618	0.001757	28.0808	0.062503	0.001898	32.9388	-102.966	15.1786	-0.036203	0.812583	-0.344918	-0.346265	-0.113451	32.9388	-0.342335	-19750	5.744351E-6	NaN
585	1.000000	0.823953	7.37077e+06	-47839.1	1005.82	-29764.5	0.000000	0.000000	6.823084	-0.029986	NaN	0.000000	0.001586	0.001774	28.0812	0.077147	0.002022	38.1604	85.2312	-164.52	-0.030169	0.822667	-0.334896	-0.336182	-0.029986	38.1604	-0.334307	-15081.9	1.988212E-6	NaN
585	1.000000	0.833941	7.37077e+06	-47839.1	1005.82	-29764.5	0.000000	0.000000	6.833072	-0.043223	NaN	0.000000	0.001570	0.001764	28.081	0.139437	0.001865	74.7565	32.7111	15.9648	-0.006584	0.832577	-0.324908	-0.326272	-0.043223	74.7565	-0.324474	-10824.7	3.993044E-6	NaN
585	1.000000	0.843951	7.37077e+06	-47839.1	1005.82	-29764.5	0.000000	0.000000	6.843083	-0.001532	NaN	0.000000	0.001585	0.001713	28.0807	0.064079	0.002025	31.644	-77.353	-169.337	-0.011865	0.842636	-0.314898	-0.316212	-0.001532	31.644	-0.314861	-7814.53	1.959923E-7	NaN
585	1.000000	0.853927	7.37077e+06	-47839.1	1005.82	-29764.5	0.000000	0.000000	6.853063	0.081856	NaN	0.000000	0.001606	0.001714	28.08	0.046652	0.002074	22.4915	168.88	12.4996	0.052624	0.852585	-0.304922	-0.306264	0.081856	22.4915	-0.307652	-6113.33	-1.338980E-5	NaN
585	1.000000	0.863970	7.37077e+06	-47839.1	1005.82	-29764.5	0.000000	0.000000	6.863101	-0.029360	NaN	0.000000	0.001557	0.001707	28.0798	0.040056	0.002077	19.2852	170.368	-165.816	-0.022822	0.862637	-0.294879	-0.296211	-0.029360	19.2852	-0.293737	-3795.1	7.736252E-6	NaN
585	1.000000	0.873968	7.37077e+06	-47839.1	1005.82	-29764.5	0.000000	0.000000	6.873100	-0.023775	NaN	0.000000	0.001550	0.001712	28.0797	0.118403	0.001934	61.2068	148.377	12.9205	0.019548	0.872586	-0.284880	-0.286263	-0.023775	61.2068	-0.284589	-2767.5	8.590732E-6	NaN
585	1.000000	0.883972	7.37077e+06	-47839.1	1005.82	-29764.5	0.000000	0.000000	6.883108	0.061936	NaN	0.000000	0.001660	0.001721	28.0795	0.102412	0.002049	49.9739	-106.598	-165.69	0.084354	0.882629	-0.274876	-0.276220	0.061936	49.9739	-0.275806	-2039.85	-3.036327E-5	NaN
585	1.000000	0.893961	7.37077e+06	-47839.1	1005.82	-29764.5	0.000000	0.000000	6.893093	-0.005370	NaN	0.000000	0.001630	0.001757	28.0799	0.052470	0.001959	26.7886	152.211	12.9082	-0.018827	0.892585	-0.264888	-0.266264	-0.005370	26.7886	-0.264737	-1384.78	3.877854E-6	NaN
585	1.000000	0.903979	7.37077e+06	-47839.1	1005.82	-29764.5	0.000000	0.000000	6.903112	0.015124	NaN	0.000000	0.001638	0.001766	28.0796	0.079266	0.002213	35.8161	21.3072	-165.046	0.014575	0.902631	-0.254870	-0.256217	0.015124	35.8161	-0.255187	-988.526	-1.529914E-5	NaN
585	1.000000	0.913977	7.37077e+06	-47839.1	1005.82	-29764.5	0.000000	0.000000	6.913107	-0.045277	NaN	0.000000	0.001646	0.001742	28.0796	0.049338	0.002025	24.36	-116.403	13.9182	-0.037236	0.912650	-0.244872	-0.246199	-0.045277	24.36	-0.243478	-651.303	6.951703E-5	NaN
585	1.000000	0.923962	7.37077e+06	-47839.1	1005.82	-29764.5	0.000000	0.000000	6.923095	-0.009477	NaN	0.000000	0.001639	0.001725	28.0795	0.027380	0.001893	14.4676	-57.737	-164.934	-0.087859	0.922655	-0.234886	-0.236194	-0.009477	14.4676	-0.234395	-469.617	2.018120E-5	NaN
585	1.000000	0.933983	7.37077e+06	-47839.1	1005.82	-29764.5	0.000000	0.000000	6.933114	-0.028536	NaN	0.000000	0.001667	0.001708	28.0798	0.104725	0.002019	51.8777	116.425	14.3651	-0.068448	0.932656	-0.224866	-0.226193	-0.028536	51.8777	-0.224453	-327.077	8.724434E-5	NaN
585	1.000000	0.943982	7.37077e+06	-47839.1	1005.82	-29764.5	0.000000	0.000000	6.943109	-0.130818	NaN	0.000000	0.001628	0.001687	28.0795	0.111715	0.002022	55.2376	-68.3565	-166.974	-0.088079	0.942603	-0.214866	-0.216245	-0.130818	55.2376	-0.213090	-215.157	0.000608	NaN
585	1.000000	0.954006	7.37077e+06	-47839.1	1005.82	-29764.5	0.000000	0.000000	6.953141	0.039925	NaN	0.000000	0.001690	0.001712	28.0796	0.058241	0.002069	28.1552	0.766318	12.9295	-0.025472	0.952599	-0.204842	-0.206249	0.039925	28.1552	-0.205906	-164.559	-0.000243	NaN
585	1.000000	0.964013	7.37077e+06	-47839.1	1005.82	-29764.5	0.000000	0.000000	6.963144	-0.058369	NaN	0.000000	0.001611	0.001731	28.0796	0.057432	0.002008	28.6074	-161.806	-169.712	-0.016688	0.962686	-0.194835	-0.196162	-0.058369	28.6074	-0.193305	-102.114	0.000572	NaN
585	1.000000	0.974004	7.37077e+06	-47839.1	1005.82	-29764.5	0.000000	0.000000	6.973134	-0.069247	NaN	0.000000	0.001681	0.001743	28.0795	0.024628	0.001968	12.5163	50.1146	15.4407	-0.055766	0.972668	-0.184844	-0.186181	-0.069247	12.5163	-0.180695	-62.7019	0.001104	NaN
585	1.000000	0.984016	7.37077e+06	-47839.1	1005.82	-29764.5	0.000000	0.000000	6.983148	-0.023156	NaN	0.000000	0.001656	0.001718	28.0792	0.014909	0.001867	7.985683	-139.306	-164.268	-0.037219	0.982658	-0.174832	-0.176191	-0.023156	7.985683	-0.172658	-45.67	0.000507	NaN
585	1.000000	0.994013	7.37077e+06	-47839.1	1005.82	-29764.5	0.000000	0.000000	6.993145	-0.007857	NaN	0.000000	0.001604	0.001727	28.0807	0.073132	0.001864	39.2399	41.1761	13.5952	0.063877	0.992663	-0.164836	-0.166185	-0.007857	39.2399	-0.164686	-33.1727	0.000237	NaN
585	1.000000	1.003994	7.37077e+06	-47839.1	1005.82	-29764.5	0.000000	0.000000	7.003124	-0.053659	NaN	0.000000	0.001621	0.001716	28.0808	0.054177	0.002117	25.5955	89.5574	-165.968	0.024574	1.002725	-0.154855	-0.156124	-0.053659	25.5955	-0.153283	-20.7782	0.002582	NaN
585	1.000000	1.014017	7.37077e+06	-47839.1	1005.82	-29764.5	0.000000	0.000000	7.013151	0.021207	NaN	0.000000	0.001647	0.001797	28.0806	0.059786	0.001992	30.0121	169.334	16.1064	0.006733	1.012684	-0.144831	-0.146164	0.021207	30.0121	-0.145361	-14.8885	-0.001424	NaN
585	1.000000	1.024028	7.37077e+06	-47839.1	1005.82	-29764.5	0.000000	0.000000	7.023159	-0.045628	NaN	0.000000	0.001640	0.001728	28.0806	0.057132	0.001884	30.3232	107.672	-167.028	-0.033339	1.022714	-0.134820	-0.136135	-0.045628	30.3232	-0.133692	-8.979605	0.005081	NaN
585	1.000000	1.034051	7.37077e+06	-47839.1	1005.82	-29764.5	0.000000	0.000000	7.033183	-0.008111	NaN	0.000000	0.001667	0.001734	28.0808	0.040043	0.002063	19.4062	-166.019	16.4024	0.052716	1.032696	-0.124797	-0.126153	-0.008111	19.4062	-0.124484	-5.939820	0.001366	NaN
585	1.000000	1.044048	7.37077e+06	-47839.1	1005.82	-29764.5	0.000000	0.000000	7.043181	0.006487	NaN	0.000000	0.001582	0.001695	28.0809	0.038872	0.002035	19.1063	73.1857	-165.111	-0.006821	1.042701	-0.114801	-0.116148	0.006487	19.1063	-0.115055	-3.830388	-0.001693	NaN
585	1.000000	1.054061	7.37077e+06	-47839.1	1005.82	-29764.5	0.000000	0.000000	7.053192	-0.039907	NaN	0.000000	0.001585	0.001742	28.0806	0.089177	0.002015	44.2613	-9.594136	15.8013	-0.022950	1.052661	-0.104787	-0.106188	-0.039907	44.2613	-0.104111	-2.248688	0.017747	NaN
585	1.000000	1.064018	7.37077e+06	-47839.1	1005.82	-29764.5	0.000000	0.000000	7.063151	0.021056	NaN	0.000000	0.001598	0.001728	28.0807	0.168594	0.001973	85.4325	-159.312	-166.186	-0.021806	1.062687	-0.094831	-0.096161	0.021056	85.4325	-0.095016	-1.411809	-0.014914	NaN
585	1.000000	1.074032	7.37077e+06	-47839.1	1005.82	-29764.5	0.000000	0.000000	7.073166	0.032362	NaN	0.000000	0.001604	0.001742	28.0809	0.055631	0.002076	26.7985	172.448	12.0329	0.031829	1.072705	-0.084817	-0.086144	0.032362	26.7985	-0.085722	-0.855308	-0.037837	NaN
585	1.000000	1.084031	7.37077e+06	-47839.1	1005.82	-29764.5	0.000000	0.000000	7.083162	-0.046934	NaN	0.000000	0.001616	0.001735	28.0807	0.067783	0.001895	35.7614	-39.1458	-166.096	-0.021699	1.082776	-0.074817	-0.076072	-0.046934	35.7614	-0.073833	-0.430731	0.108965	NaN
585	1.000000	1.094034	7.37078e+06	-47839.1	1005.82	-29764.5	0.000000	0.000000	7.093170	0.074941	NaN	0.000000	0.001578	0.001732	28.0808	0.070461	0.002111	33.3828	29.2418	11.1765	0.067890	1.092672	-0.064814	-0.066176	0.074941	33.3828	-0.066498	-0.274104	-0.273403	NaN
585	1.000000	1.104046	7.37078e+06	-47839.1	1005.82	-29764.5	0.000000	0.000000	7.103175	-0.086437	NaN	0.000000	0.001585	0.001773	28.0807	0.040402	0.001911	21.1417	-23.5146	-163.411	-0.089660	1.102726	-0.054803	-0.056122	-0.086437	21.1417	-0.051736	-0.102936	0.839713	NaN
585	1.000000	1.114065	7.37078e+06	-47839.1	1005.82	-29764.5	0.000000	0.000000	7.113197	-0.023144	NaN	0.000000	0.001549	0.001787	28.0809	0.017782	0.002008	8.854378	-131.654	14.9103	-0.040652	1.112736	-0.044784	-0.046112	-0.023144	8.854378	-0.042823	-0.055134	0.419770	NaN
585	1.000000	1.124063	7.37078e+06	-47839.1	1005.82	-29764.5	0.000000	0.000000	7.123194	-0.028149	NaN	0.000000	0.001604	0.001790	28.0808	0.033248	0.001974	16.8456	-35.8913	-168.361	-0.008951	1.122794	-0.034786	-0.036055	-0.028149	16.8456	-0.033532	-0.029010	0.970322	NaN
585	1.000000	1.134058	7.37078e+06	-47839.1	1005.82	-29764.5	0.000000	0.000000	7.133188	-0.056985	NaN	0.000000	0.001591	0.001768	28.0794	0.079498	0.001907	41.6846	-117.752	13.6633	-0.072262	1.132688	-0.024791	-0.026160	-0.056985	41.6846	-0.023766	-0.015671	3.636399	NaN
585	1.000000	1.144063	7.37078e+06	-47839.1	1005.82	-29764.5	0.000000	0.000000	7.143193	-0.063582	NaN	0.000000	0.001603	0.001775	28.08	0.102573	0.001893	54.1792	-126.101	-164.292	-0.077817	1.142705	-0.014785	-0.016144	-0.063582	54.1792	-0.013905	-0.008628	7.369533	NaN
585	1.000000	1.154077	7.37078e+06	-47839.1	1005.82	-29764.5	0.000000	0.000000	7.153208	-0.036401	NaN	0.000000	0.001624	0.001800	28.0796	0.117246	0.002092	56.055	-163.5	13.6081	-0.058232	1.152712	-0.004772	-0.006137	-0.036401	56.055	-0.004285	-0.002963	12.2868	NaN
585	1.000000	1.164034	7.37078e+06	-47839.1	1005.82	-29764.5	0.000000	0.000000	7.163296	3.151086	NaN	0.000000	0.001594	0.001761	28.0797	4.168802	0.001943	2145.96	11.7629	-167.354	1.773510	1.162730	0.005186	0.003881	3.151086	2145.96	0.004084	0.003313	951.124	34063
585	2.000000	1.170164	7.37078e+06	-47839.1	1005.82	-29764.5	0.000000	0.000000	7.169702	9.867399	NaN	0.000000	0.001593	0.001807	28.0796	10.5403	0.001779	5925.96	8.408650	6.333287	9.578639	1.169774	0.011315	0.010926	9.867399	5925.96	0.010066	0.009255	1066.12	56277.3
585	2.000000	1.172603	7.37078e+06	-47839.1	1005.82	-29764.5	0.000000	0.000000	7.172278	13.1923	NaN	0.000000	0.001623	0.001756	28.0806	12.3586	0.001681	7353.06	4.396119	-172.414	13.7037	1.172280	0.013755	0.013431	13.1923	7353.06	0.012409	0.011984	1100.84	61368.3
585	2.000000	1.175068	7.37078e+06	-47839.1	1005.82	-29764.5	0.000000	0.000000	7.174811	14.8427	NaN	0.000000	0.001585	0.001781	28.0797	15.3618	0.001833	8381.57	7.360443	5.454885	14.6343	1.174745	0.016219	0.015896	14.8427	8381.57	0.014891	0.015140	980.353	62234.7
585	2.000000	1.177535	7.37078e+06	-47839.1	1005.82	-29764.5	0.000000	0.000000	7.177587	22.3638	NaN	0.000000	0.001599	0.001739	28.0803	17.8478	0.001741	10253	0.800336	-172.244	20.7555	1.177191	0.018686	0.018342	22.3638	10253	0.017050	0.018117	1234.39	69594.7
585	2.000000	1.180006	7.37078e+06	-47839.1	1005.82	-29764.5	0.000000	0.000000	7.180225	26.4451	NaN	0.000000	0.001619	0.001726	28.0796	20.1356	0.001724	11682.4	5.553401	1.984689	23.9546	1.179676	0.021157	0.020828	26.4451	11682.4	0.019459	0.021700	1218.69	72456.7
585	2.000000	1.182590	7.37078e+06	-47839.1	1005.82	-29764.5	0.000000	0.000000	7.183047	32.2038	NaN	0.000000	0.001582	0.001756	28.0802	22.292	0.001680	13266.9	7.616779	-178.574	33.6123	1.182218	0.023742	0.023369	32.2038	13266.9	0.021921	0.025652	1255.43	75680.8
585	2.000000	1.184967	7.37078e+06	-47839.1	1005.82	-29764.5	0.000000	0.000000	7.185702	38.9709	NaN	0.000000	0.001548	0.001767	28.0795	25.3012	0.001761	14367.3	5.069045	0.312624	35.5123	1.184603	0.026118	0.025754	38.9709	14367.3	0.024084	0.029370	1326.89	76593.9
585	2.000000	1.187521	7.37078e+06	-47839.1	1005.82	-29764.5	0.000000	0.000000	7.188493	44.7569	NaN	0.000000	0.001582	0.001743	28.0806	29.4238	0.001864	15784.7	9.671712	175.647	44.0295	1.187225	0.028672	0.028376	44.7569	15784.7	0.026545	0.033887	1320.77	78341.6
585	2.000000	1.189986	7.37078e+06	-47839.1	1005.82	-29764.5	0.000000	0.000000	7.191292	52.8589	NaN	0.000000	0.001582	0.001719	28.0798	30.0227	0.001804	16639.3	3.667762	1.787691	49.8018	1.189618	0.031137	0.030769	52.8589	16639.3	0.028755	0.038202	1383.66	77779.2
585	2.000000	1.192551	7.37078e+06	-47839.1	1005.82	-29764.5	0.000000	0.000000	7.194174	60.5666	NaN	0.000000	0.001583	0.001700	28.0816	32.295	0.001796	17980.6	5.439758	179.319	60.7321	1.192137	0.033702	0.033288	60.5666	17980.6	0.031176	0.043217	1401.47	79022.8
585	2.000000	1.195072	7.37078e+06	-47839.1	1005.82	-29764.5	0.000000	0.000000	7.196958	66.9586	NaN	0.000000	0.001555	0.001684	28.0808	34.7193	0.001826	19013	6.115667	-2.119966	67.7645	1.194687	0.036224	0.035839	66.9586	19013	0.033582	0.048497	1380.68	78880.2
585	2.000000	1.197581	7.37078e+06	-47839.1	1005.82	-29764.5	0.000000	0.000000	7.199613	70.5224	NaN	0.000000	0.001572	0.001665	28.0811	37.4721	0.001702	22018	4.334864	177.734	73.7774	1.197283	0.038733	0.038435	70.5224	22018	0.036330	0.054889	1284.81	85863.3
585	2.000000	1.200094	7.37078e+06	-47839.1	1005.82	-29764.5	0.000000	0.000000	7.202582	81.6081	NaN	0.000000	0.001587	0.001694	28.081	39.0979	0.001779	21978.7	6.009876	-2.378255	83.605	1.199690	0.041245	0.040841	81.6081	21978.7	0.038461	0.060111	1357.63	81902.7
585	2.000000	1.202474	7.37078e+06	-47839.1	1005.82	-29764.5	0.000000	0.000000	7.205430	92.991	NaN	0.000000	0.001568	0.001715	28.082	41.8866	0.001699	24653.9	7.062774	174.279	92.4665	1.202193	0.043625	0.043344	92.991	24653.9	0.040797	0.066103	1406.75	87608.7
585	2.000000	1.204983	7.37078e+06	-47839.1	1005.82	-29764.5	0.000000	0.000000	7.208326	102.392	NaN	0.000000	0.001547	0.001712	28.0808	43.9764	0.001794	24516.5	4.403945	-2.532402	100.453	1.204560	0.046135	0.045712	102.392	24516.5	0.043002	0.072017	1421.77	83466.6
585	2.000000	1.207483	7.37078e+06	-47839.1	1005.82	-29764.5	0.000000	0.000000	7.211069	108.323	NaN	0.000000	0.001575	0.001654	28.0812	47.4335	0.001764	26885.5	6.058291	174.272	108.452	1.207211	0.048634	0.048362	108.323	26885.5	0.045612	0.079335	1365.39	87208.6
585	2.000000	1.210072	7.37078e+06	-47839.1	1005.82	-29764.5	0.000000	0.000000	7.214106	119.216	NaN	0.000000	0.001582	0.001707	28.0811	49.4027	0.001837	26894.9	11.4294	-9.216964	122.085	1.209535	0.051224	0.050686	119.216	26894.9	0.047899	0.086031	1385.74	83775.4
585	2.000000	1.212477	7.37078e+06	-47839.1	1005.82	-29764.5	0.000000	0.000000	7.217164	135.107	NaN	0.000000	0.001570	0.001683	28.0818	50.3459	0.001817	27706.8	4.936192	176.32	132.75	1.212025	0.053628	0.053176	135.107	27706.8	0.049971	0.092324	1463.41	83311.2
585	2.000000	1.215063	7.37078e+06	-47839.1	1005.82	-29764.5	0.000000	0.000000	7.220122	144.159	NaN	0.000000	0.001541	0.001686	28.0808	53.8646	0.001765	30517.9	6.488057	-6.469637	145.716	1.214620	0.056214	0.055772	144.159	30517.9	0.052671	0.100849	1429.45	87799.6
585	2.000000	1.217471	7.37078e+06	-47839.1	1005.82	-29764.5	0.000000	0.000000	7.222771	150.016	NaN	0.000000	0.001563	0.001661	28.081	56.7055	0.001743	32528.1	6.468203	172.97	147.402	1.217146	0.058622	0.058297	150.016	32528.1	0.055163	0.109038	1375.82	90000.2
585	2.000000	1.219960	7.37078e+06	-47839.1	1005.82	-29764.5	0.000000	0.000000	7.225500	155.841	NaN	0.000000	0.001563	0.001671	28.0811	58.4327	0.001798	32495.9	3.632598	-4.741526	150.797	1.219705	0.061111	0.060856	155.841	32495.9	0.057515	0.117047	1331.44	86780.5
585	2.000000	1.222472	7.37078e+06	-47839.1	1005.82	-29764.5	0.000000	0.000000	7.228829	175.715	NaN	0.000000	0.001521	0.001680	28.0808	61.7042	0.001856	33246.9	5.632524	173.365	173.623	1.222117	0.063623	0.063269	175.715	33246.9	0.059659	0.124590	1410.35	86056.4
585	2.000000	1.224918	7.37078e+06	-47839.1	1005.82	-29764.5	0.000000	0.000000	7.231934	191.733	NaN	0.000000	0.001580	0.001728	28.0807	62.9286	0.001769	35570.1	1.921427	-3.412123	187.742	1.224632	0.066069	0.065783	191.733	35570.1	0.062027	0.133176	1439.7	89052.2
585	2.000000	1.227434	7.37078e+06	-47839.1	1005.82	-29764.5	0.000000	0.000000	7.234929	203.387	NaN	0.000000	0.001584	0.001709	28.0797	66.8625	0.001901	35168	5.747251	172.498	200.085	1.226993	0.068586	0.068144	203.387	35168	0.064248	0.141481	1437.55	85422.3
585	2.000000	1.229968	7.37078e+06	-47839.1	1005.82	-29764.5	0.000000	0.000000	7.237928	214.727	NaN	0.000000	0.001572	0.001694	28.0796	67.8002	0.001733	39122.3	4.280476	-6.791271	212.805	1.229649	0.071119	0.070800	214.727	39122.3	0.067003	0.152109	1411.67	91647.5
585	2.000000	1.232431	7.37078e+06	-47839.1	1005.82	-29764.5	0.000000	0.000000	7.240726	222.855	NaN	0.000000	0.001579	0.001669	28.0796	70.0698	0.001808	38760.2	2.924052	174.69	220.086	1.232058	0.073582	0.073209	222.855	38760.2	0.069270	0.161131	1383.06	88220.5
585	2.000000	1.234970	7.37078e+06	-47839.1	1005.82	-29764.5	0.000000	0.000000	7.244039	241.691	NaN	0.000000	0.001585	0.001697	28.08	72.3113	0.001826	39610.7	3.551704	-6.323145	239.578	1.234606	0.076121	0.075757	241.691	39610.7	0.071545	0.170430	1418.12	87662.2
585	2.000000	1.237427	7.37078e+06	-47839.1	1005.82	-29764.5	0.000000	0.000000	7.246816	249.447	NaN	0.000000	0.001614	0.001692	28.0798	75.0923	0.001829	41059.3	1.841808	175.338	247.787	1.237289	0.078579	0.078440	249.447	41059.3	0.074022	0.180834	1379.42	88215.5
585	2.000000	1.239953	7.37078e+06	-47839.1	1005.82	-29764.5	0.000000	0.000000	7.250366	274.366	NaN	0.000000	0.001590	0.001664	28.0792	76.3944	0.001838	41562.4	7.026312	-9.232646	270.566	1.239544	0.081104	0.080696	274.366	41562.4	0.076153	0.190016	1443.91	87112.1
585	2.000000	1.242410	7.37078e+06	-47839.1	1005.82	-29764.5	0.000000	0.000000	7.253243	284.586	NaN	0.000000	0.001567	0.001668	28.0795	78.2076	0.001713	45668.6	2.357059	173.798	283.171	1.242205	0.083561	0.083356	284.586	45668.6	0.078888	0.202109	1408.08	92810.8
585	2.000000	1.244878	7.37078e+06	-47839.1	1005.82	-29764.5	0.000000	0.000000	7.256292	298.715	NaN	0.000000	0.001601	0.001683	28.0796	81.5836	0.001808	45122.4	-0.027566	-3.283343	292.515	1.244549	0.086029	0.085701	298.715	45122.4	0.081064	0.211985	1409.13	89539.1
585	2.000000	1.247378	7.37078e+06	-47839.1	1005.82	-29764.5	0.000000	0.000000	7.259485	315.569	NaN	0.000000	0.001581	0.001679	28.0798	84.0563	0.001722	48803.1	1.598975	174.652	312.254	1.247078	0.088529	0.088230	315.569	48803.1	0.083680	0.224143	1407.89	94179.9
585	2.000000	1.250028	7.37078e+06	-47839.1	1005.82	-29764.5	0.000000	0.000000	7.263019	337.055	NaN	0.000000	0.001587	0.001712	28.0795	86.7897	0.001793	48414.5	6.282799	-9.572076	337.859	1.249560	0.091180	0.090711	337.055	48414.5	0.085958	0.234994	1434.31	91247.2
585	2.000000	1.252366	7.37078e+06	-47839.1	1005.82	-29764.5	0.000000	0.000000	7.266104	355.245	NaN	0.000000	0.001590	0.001737	28.0794	88.5233	0.001851	47813.6	1.288040	175.187	351.253	1.252017	0.093517	0.093168	355.245	47813.6	0.087945	0.244651	1452.05	88318.4
585	2.000000	1.254837	7.37078e+06	-47839.1	1005.82	-29764.5	0.000000	0.000000	7.269228	371.118	NaN	0.000000	0.001565	0.001690	28.0795	90.6431	0.001729	52428.6	5.691157	-9.832508	364.605	1.254547	0.095989	0.095698	371.118	52428.6	0.090680	0.258239	1437.11	94260.8
585	2.000000	1.257373	7.37078e+06	-47839.1	1005.82	-29764.5	0.000000	0.000000	7.272618	391.891	NaN	0.000000	0.001608	0.001706	28.0796	95.3152	0.001722	55356.6	7.622434	167.657	387.257	1.257065	0.098525	0.098217	391.891	55356.6	0.093215	0.271144	1445.32	97127.7
585	2.000000	1.259929	7.37078e+06	-47839.1	1005.82	-29764.5	0.000000	0.000000	7.276221	417.371	NaN	0.000000	0.001594	0.001696	28.0796	97.5088	0.001828	53342.5	8.977396	-12.8423	413.055	1.259497	0.101080	0.100648	417.371	53342.5	0.095212	0.281511	1482.61	91854.1
585	2.000000	1.262431	7.37078e+06	-47839.1	1005.82	-29764.5	0.000000	0.000000	7.279154	427.844	NaN	0.000000	0.001596	0.001703	28.0807	99.3394	0.001785	55666.9	4.407980	170.702	426.523	1.262078	0.103582	0.103229	427.844	55666.9	0.097818	0.295320	1448.75	93588.9
585	2.000000	1.264947	7.37078e+06	-47839.1	1005.82	-29764.5	0.000000	0.000000	7.282274	442.554	NaN	0.000000	0.001588	0.001670	28.0811	101.518	0.001801	56361.5	2.345237	-7.256608	440.428	1.264565	0.106098	0.105717	442.554	56361.5	0.100209	0.308260	1435.65	92746.4
585	2.000000	1.267434	7.37078e+06	-47839.1	1005.82	-29764.5	0.000000	0.000000	7.285459	459.503	NaN	0.000000	0.001586	0.001687	28.0807	103.514	0.001823	56773.9	1.330666	173.882	458.408	1.267255	0.108586	0.108407	459.503	56773.9	0.102515	0.320988	1431.52	91553.9