File: remote_trans/data/nanoindenter/0828-1/data/Data_2025-08-06,11h17m57s/2025-07-22_16-23-58_1_465.txt
2025-07-22, 16:23:58, 1
Index	Phase	Displacement	Time	Pos X	Pos Y	Pos Z	Rot A	Rot B	Piezo Z	Force A	Force B	Gripper	Voltage A	Voltage B	Temperature	Amplitude force	Amplitude pos	Stiffness	Phase shift	Phase excitation	Force A raw	Displacement raw	HMax	HMax raw	Real Force	Real Stiffness	Contact Depth	Area	Hardness	Reduced Mod.
[#]	[#]	[um]	[s]	[um]	[um]	[um]	[m°]	[m°]	[um]	[uN]	[uN]	[V]	[V]	[V]	[°C]	[uN]	[um]	[N/m]	[°]	[°]	[uN]	[um]	[um]	[um]	[uN]	[N/m]	[um]	[um^2]	[MPa]	[MPa]
465	1.000000	0.002382	7.3696e+06	-53839.1	1005.82	-29745.2	0.000000	0.000000	6.002819	-0.023697	NaN	0.000000	0.001600	0.001746	28.0835	0.029019	0.000904	32.0838	-108.967	-153.739	0.020685	0.001132	-0.995405	-0.996655	-0.023697	32.0838	-0.994851	-1.933934E+13	1.225328E-15	NaN
465	1.000000	0.010309	7.3696e+06	-53839.1	1005.82	-29745.2	0.000000	0.000000	6.010744	-0.067835	NaN	0.000000	0.001615	0.001734	28.083	0.065076	0.000979	66.4607	-155.927	-173.622	-0.019432	0.009022	-0.987478	-0.988765	-0.067835	66.4607	-0.986712	-1.502556E+13	4.514646E-15	NaN
465	1.000000	0.018300	7.3696e+06	-53839.1	1005.82	-29745.2	0.000000	0.000000	6.018737	-0.013273	NaN	0.000000	0.001598	0.001727	28.083	0.005344	0.001702	3.140845	91.5873	-167.078	0.019501	0.016974	-0.979487	-0.980813	-0.013273	3.140845	-0.976318	-1.088433E+13	1.219452E-15	NaN
465	1.000000	0.026337	7.3696e+06	-53839.1	1005.82	-29745.2	0.000000	0.000000	6.026772	-0.044658	NaN	0.000000	0.001572	0.001736	28.0832	0.075147	0.001910	39.3525	-154.254	-162.173	-0.088758	0.025067	-0.971451	-0.972720	-0.044658	39.3525	-0.970600	-9.114705E+12	4.899596E-15	NaN
465	1.000000	0.034324	7.36961e+06	-53839.1	1005.82	-29745.2	0.000000	0.000000	6.034760	-0.016557	NaN	0.000000	0.001606	0.001693	28.0829	0.027271	0.001924	14.1749	-151.22	-166.195	-0.023792	0.032983	-0.963464	-0.964804	-0.016557	14.1749	-0.962587	-7.108068E+12	2.329290E-15	NaN
465	1.000000	0.042319	7.36961e+06	-53839.1	1005.82	-29745.2	0.000000	0.000000	6.042756	-0.011956	NaN	0.000000	0.001627	0.001694	28.0829	0.046794	0.001990	23.5139	108.171	-167.344	0.005226	0.041021	-0.955468	-0.956766	-0.011956	23.5139	-0.955087	-5.631557E+12	2.122973E-15	NaN
465	1.000000	0.050328	7.36961e+06	-53839.1	1005.82	-29745.2	0.000000	0.000000	6.050765	-0.013343	NaN	0.000000	0.001617	0.001747	28.0831	0.054126	0.002061	26.265	101.314	-166.931	-0.030258	0.049031	-0.947459	-0.948756	-0.013343	26.265	-0.947078	-4.391610E+12	3.038342E-15	NaN
465	1.000000	0.058318	7.36961e+06	-53839.1	1005.82	-29745.2	0.000000	0.000000	6.058755	-0.002060	NaN	0.000000	0.001594	0.001774	28.0815	0.079608	0.002114	37.6497	-78.3777	-167.488	0.018774	0.057003	-0.939470	-0.940784	-0.002060	37.6497	-0.939429	-3.462813E+12	5.948950E-16	NaN
465	1.000000	0.066287	7.36961e+06	-53839.1	1005.82	-29745.2	0.000000	0.000000	6.066723	-0.020944	NaN	0.000000	0.001639	0.001774	28.0816	0.146911	0.001972	74.5085	94.1458	-169.827	-0.028811	0.064994	-0.931500	-0.932793	-0.020944	74.5085	-0.931290	-2.689062E+12	7.788509E-15	NaN
465	1.000000	0.074301	7.36961e+06	-53839.1	1005.82	-29745.2	0.000000	0.000000	6.074735	-0.063056	NaN	0.000000	0.001619	0.001812	28.0821	0.113787	0.002022	56.2794	113.823	-161.747	-0.026882	0.072949	-0.923487	-0.924838	-0.063056	56.2794	-0.922646	-2.055580E+12	3.067541E-14	NaN
465	1.000000	0.082342	7.36961e+06	-53839.1	1005.82	-29745.2	0.000000	0.000000	6.082779	-0.008334	NaN	0.000000	0.001600	0.001711	28.0818	0.087844	0.002041	43.0337	-168.17	-163.749	0.029942	0.081080	-0.915445	-0.916707	-0.008334	43.0337	-0.915300	-1.635844E+12	5.094440E-15	NaN
465	1.000000	0.090313	7.36961e+06	-53839.1	1005.82	-29745.2	0.000000	0.000000	6.090750	-0.008659	NaN	0.000000	0.001606	0.001731	28.0819	0.085221	0.002051	41.5556	-172.069	-164.486	-0.042127	0.089037	-0.907474	-0.908750	-0.008659	41.5556	-0.907318	-1.276238E+12	6.785150E-15	NaN
465	1.000000	0.098334	7.36961e+06	-53839.1	1005.82	-29745.3	0.000000	0.000000	6.098769	-0.044493	NaN	0.000000	0.001591	0.001721	28.0817	0.028525	0.001974	14.4474	75.9103	-163.065	-0.002113	0.097037	-0.899453	-0.900750	-0.044493	14.4474	-0.897144	-9.299700E+11	4.784343E-14	NaN
465	1.000000	0.106336	7.36961e+06	-53839.1	1005.82	-29745.3	0.000000	0.000000	6.106775	0.041696	NaN	0.000000	0.001600	0.001735	28.0817	0.043427	0.002062	21.0559	-34.9822	-163.777	0.032671	0.104968	-0.891452	-0.892819	0.041696	21.0559	-0.892937	-8.158505E+11	-5.110703E-14	NaN
465	1.000000	0.114352	7.36961e+06	-53839.1	1005.82	-29745.3	0.000000	0.000000	6.114788	-0.038846	NaN	0.000000	0.001609	0.001733	28.0818	0.053726	0.002031	26.4464	-102.495	-161.606	0.026509	0.113088	-0.883435	-0.884699	-0.038846	26.4464	-0.882333	-5.864925E+11	6.623393E-14	NaN
465	1.000000	0.122335	7.36961e+06	-53839.1	1005.82	-29745.3	0.000000	0.000000	6.122771	-0.031202	NaN	0.000000	0.001594	0.001697	28.0817	0.020621	0.001938	10.6401	72.0874	-165.82	-0.044248	0.121010	-0.875452	-0.876777	-0.031202	10.6401	-0.873253	-4.420287E+11	7.058919E-14	NaN
465	1.000000	0.130322	7.36961e+06	-53839.1	1005.82	-29745.3	0.000000	0.000000	6.130759	-0.008749	NaN	0.000000	0.001561	0.001756	28.0815	0.068357	0.002041	33.4968	135.89	-165.849	-0.059830	0.129035	-0.867465	-0.868752	-0.008749	33.4968	-0.867269	-3.668540E+11	2.384986E-14	NaN
465	1.000000	0.138338	7.36961e+06	-53839.1	1005.82	-29745.3	0.000000	0.000000	6.138776	0.013894	NaN	0.000000	0.001557	0.001720	28.0816	0.099335	0.001854	53.5925	-113.439	-165.83	-0.016271	0.137057	-0.859449	-0.860730	0.013894	53.5925	-0.859644	-2.892671E+11	-4.803039E-14	NaN
465	1.000000	0.146364	7.36961e+06	-53839.1	1005.82	-29745.3	0.000000	0.000000	6.146803	0.032951	NaN	0.000000	0.001566	0.001687	28.0815	0.009727	0.002089	4.655947	-155.985	-163.969	-0.009409	0.145020	-0.851423	-0.852767	0.032951	4.655947	-0.856731	-2.641609E+11	-1.247377E-13	NaN
465	1.000000	0.154343	7.36961e+06	-53839.1	1005.82	-29745.3	0.000000	0.000000	6.154777	-0.096622	NaN	0.000000	0.001549	0.001701	28.0816	0.067120	0.002047	32.7858	-67.3795	-163.554	-0.081563	0.153027	-0.843444	-0.844761	-0.096622	32.7858	-0.841234	-1.629316E+11	5.930227E-13	NaN
465	1.000000	0.162344	7.36961e+06	-53839.1	1005.82	-29745.3	0.000000	0.000000	6.162780	-0.043700	NaN	0.000000	0.001570	0.001723	28.0815	0.077714	0.002078	37.4007	-163.674	-167.579	-0.042788	0.161058	-0.835443	-0.836729	-0.043700	37.4007	-0.834566	-1.323341E+11	3.302219E-13	NaN
465	1.000000	0.170350	7.36961e+06	-53839.1	1005.82	-29745.3	0.000000	0.000000	6.170784	-0.077814	NaN	0.000000	0.001563	0.001724	28.0819	0.020128	0.001877	10.7249	51.6218	-165.865	-0.008049	0.168997	-0.827437	-0.828790	-0.077814	10.7249	-0.821996	-8.938638E+10	8.705375E-13	NaN
465	1.000000	0.178356	7.36961e+06	-53839.1	1005.82	-29745.3	0.000000	0.000000	6.178793	0.000927	NaN	0.000000	0.001556	0.001711	28.0818	0.087830	0.001992	44.0874	-58.9642	-165.345	-0.011790	0.177030	-0.819431	-0.820757	0.000927	44.0874	-0.819447	-8.254925E+10	-1.122983E-14	NaN
465	1.000000	0.186383	7.36961e+06	-53839.1	1005.82	-29745.3	0.000000	0.000000	6.186819	-0.040411	NaN	0.000000	0.001579	0.001726	28.0816	0.064961	0.001965	33.0663	-60.8416	-165.083	-0.015565	0.185012	-0.811404	-0.812775	-0.040411	33.0663	-0.810487	-6.239982E+10	6.476108E-13	NaN
465	1.000000	0.194357	7.36961e+06	-53839.1	1005.82	-29745.3	0.000000	0.000000	6.194792	-0.043454	NaN	0.000000	0.001615	0.001717	28.0829	0.044907	0.002064	21.7586	-160.14	-165.25	-0.020858	0.193057	-0.803430	-0.804730	-0.043454	21.7586	-0.801933	-4.776324E+10	9.097691E-13	NaN
465	1.000000	0.202374	7.36961e+06	-53839.1	1005.82	-29745.3	0.000000	0.000000	6.202811	0.000880	NaN	0.000000	0.001517	0.001731	28.0826	0.132751	0.001942	68.366	-62.7484	-165.497	-0.050396	0.201052	-0.795413	-0.796736	0.000880	68.366	-0.795423	-3.896932E+10	-2.257106E-14	NaN
465	1.000000	0.210371	7.36961e+06	-53839.1	1005.82	-29745.3	0.000000	0.000000	6.210810	0.032229	NaN	0.000000	0.001524	0.001735	28.0827	0.062590	0.001969	31.7913	-103.886	-164.592	0.056940	0.209090	-0.787416	-0.788697	0.032229	31.7913	-0.788176	-3.106798E+10	-1.037368E-12	NaN
465	1.000000	0.218376	7.36961e+06	-53839.1	1005.82	-29745.3	0.000000	0.000000	6.218809	-0.088789	NaN	0.000000	0.001543	0.001727	28.0829	0.038038	0.002052	18.5395	102.993	-166.443	-0.093343	0.217091	-0.779411	-0.780696	-0.088789	18.5395	-0.775820	-2.110658E+10	4.206708E-12	NaN
465	1.000000	0.226383	7.36961e+06	-53839.1	1005.82	-29745.3	0.000000	0.000000	6.226820	-0.009029	NaN	0.000000	0.001563	0.001711	28.0829	0.080310	0.002136	37.5992	133.134	-165.597	0.084583	0.225114	-0.771404	-0.772673	-0.009029	37.5992	-0.771224	-1.827873E+10	4.939478E-13	NaN
465	1.000000	0.234373	7.36961e+06	-53839.1	1005.82	-29745.3	0.000000	0.000000	6.234809	-0.022032	NaN	0.000000	0.001539	0.001674	28.083	0.093116	0.001979	47.062	9.843288	-168.771	-0.013465	0.233154	-0.763414	-0.764634	-0.022032	47.062	-0.763063	-1.415700E+10	1.556268E-12	NaN
465	1.000000	0.242407	7.36961e+06	-53839.1	1005.82	-29745.3	0.000000	0.000000	6.242845	0.003303	NaN	0.000000	0.001540	0.001682	28.0827	0.046703	0.001910	24.4536	110.293	-163.559	0.018286	0.241073	-0.755380	-0.756714	0.003303	24.4536	-0.755481	-1.116399E+10	-2.958779E-13	NaN
465	1.000000	0.250412	7.36961e+06	-53839.1	1005.82	-29745.3	0.000000	0.000000	6.250849	-0.016372	NaN	0.000000	0.001531	0.001721	28.0828	0.096402	0.001861	51.7978	-38.5722	-167.51	0.006716	0.249104	-0.747375	-0.748684	-0.016372	51.7978	-0.747138	-8.595307E+9	1.904760E-12	NaN
465	1.000000	0.258434	7.36961e+06	-53839.1	1005.82	-29745.3	0.000000	0.000000	6.258870	-0.039411	NaN	0.000000	0.001583	0.001708	28.0827	0.044090	0.002029	21.7332	-11.4061	-161.404	-0.023204	0.257081	-0.739353	-0.740707	-0.039411	21.7332	-0.737993	-6.452284E+9	6.108096E-12	NaN
465	1.000000	0.266399	7.36961e+06	-53839.1	1005.82	-29745.3	0.000000	0.000000	6.266837	0.015891	NaN	0.000000	0.001561	0.001682	28.0827	0.082072	0.001925	42.6274	129.452	-163.064	-0.130940	0.265097	-0.731388	-0.732690	0.015891	42.6274	-0.731667	-5.290936E+9	-3.003357E-12	NaN
465	1.000000	0.274373	7.36961e+06	-53839.1	1005.82	-29745.3	0.000000	0.000000	6.274810	-0.012541	NaN	0.000000	0.001544	0.001701	28.0833	0.059687	0.001894	31.5127	-88.2518	-168.437	-0.083160	0.273099	-0.723414	-0.724688	-0.012541	31.5127	-0.723116	-4.045431E+9	3.100064E-12	NaN
465	1.000000	0.282405	7.36961e+06	-53839.1	1005.82	-29745.3	0.000000	0.000000	6.282843	0.017031	NaN	0.000000	0.001553	0.001677	28.083	0.077963	0.002054	37.9582	177.217	-169.222	0.022361	0.281147	-0.715383	-0.716641	0.017031	37.9582	-0.715719	-3.206872E+9	-5.310667E-12	NaN
465	1.000000	0.290418	7.36961e+06	-53839.1	1005.82	-29745.3	0.000000	0.000000	6.290853	-0.055594	NaN	0.000000	0.001557	0.001721	28.0831	0.120735	0.001989	60.6939	-171.035	-163.892	-0.104211	0.289131	-0.707369	-0.708657	-0.055594	60.6939	-0.706682	-2.414151E+9	2.302821E-11	NaN
465	1.000000	0.298417	7.36961e+06	-53839.1	1005.82	-29745.3	0.000000	0.000000	6.298852	-0.043343	NaN	0.000000	0.001519	0.001739	28.0828	0.103558	0.001929	53.6902	125.01	-166.772	0.005584	0.297115	-0.699371	-0.700672	-0.043343	53.6902	-0.698765	-1.882199E+9	2.302783E-11	NaN
465	1.000000	0.306433	7.36961e+06	-53839.1	1005.82	-29745.3	0.000000	0.000000	6.306870	-0.021468	NaN	0.000000	0.001505	0.001690	28.0832	0.076124	0.001995	38.1596	9.882630	-165.823	-0.077185	0.305099	-0.691354	-0.692688	-0.021468	38.1596	-0.690932	-1.471135E+9	1.459257E-11	NaN
465	1.000000	0.314412	7.36961e+06	-53839.1	1005.82	-29745.3	0.000000	0.000000	6.314850	0.007999	NaN	0.000000	0.001547	0.001687	28.0829	0.075239	0.002074	36.279	-88.7876	-166.74	-0.071199	0.313118	-0.683375	-0.684669	0.007999	36.279	-0.683540	-1.165781E+9	-6.861457E-12	NaN
465	1.000000	0.322436	7.36961e+06	-53839.1	1005.82	-29745.3	0.000000	0.000000	6.322873	-0.001832	NaN	0.000000	0.001588	0.001718	28.0832	0.119021	0.001932	61.5949	-119.358	-167.545	0.079540	0.321172	-0.675352	-0.676615	-0.001832	61.5949	-0.675329	-9.001523E+8	2.035313E-12	NaN
465	1.000000	0.330427	7.36961e+06	-53839.1	1005.82	-29745.3	0.000000	0.000000	6.330863	-0.025268	NaN	0.000000	0.001534	0.001723	28.0818	0.022886	0.002080	11.0024	155.256	-167.394	-0.046451	0.329086	-0.667360	-0.668701	-0.025268	11.0024	-0.665638	-6.632450E+8	3.809752E-11	NaN
465	1.000000	0.338441	7.36961e+06	-53839.1	1005.82	-29745.3	0.000000	0.000000	6.338879	0.004910	NaN	0.000000	0.001554	0.001673	28.0819	0.071619	0.002119	33.8063	159.417	-166.857	0.014693	0.337134	-0.659346	-0.660654	0.004910	33.8063	-0.659455	-5.457593E+8	-8.996920E-12	NaN
465	1.000000	0.346401	7.36961e+06	-53839.1	1005.82	-29745.3	0.000000	0.000000	6.346838	-0.021066	NaN	0.000000	0.001554	0.001714	28.0821	0.115068	0.001933	59.5224	83.3173	-163.768	-0.007422	0.345125	-0.651386	-0.652662	-0.021066	59.5224	-0.651121	-4.195634E+8	5.021020E-11	NaN
465	1.000000	0.354438	7.36961e+06	-53839.1	1005.82	-29745.3	0.000000	0.000000	6.354874	-0.055159	NaN	0.000000	0.001542	0.001706	28.0818	0.090757	0.002003	45.31	-138.453	-165.431	-0.088319	0.353101	-0.643349	-0.644686	-0.055159	45.31	-0.642436	-3.189379E+8	1.729453E-10	NaN
465	1.000000	0.362418	7.36961e+06	-53839.1	1005.82	-29745.3	0.000000	0.000000	6.362854	-0.042222	NaN	0.000000	0.001549	0.001752	28.082	0.072194	0.002073	34.8233	-121.31	-164.969	-0.047670	0.361155	-0.635369	-0.636632	-0.042222	34.8233	-0.634460	-2.478870E+8	1.703282E-10	NaN
465	1.000000	0.370456	7.36961e+06	-53839.1	1005.82	-29745.3	0.000000	0.000000	6.370891	-0.071224	NaN	0.000000	0.001568	0.001783	28.0818	0.068627	0.001843	37.2367	71.3081	-165.799	-0.071918	0.369079	-0.627331	-0.628708	-0.071224	37.2367	-0.625896	-1.890851E+8	3.766783E-10	NaN
465	1.000000	0.378449	7.36961e+06	-53839.1	1005.82	-29745.3	0.000000	0.000000	6.378888	0.023255	NaN	0.000000	0.001579	0.001791	28.0823	0.164671	0.001973	83.4483	132.098	-167.193	0.036431	0.377104	-0.619338	-0.620683	0.023255	83.4483	-0.619547	-1.546701E+8	-1.503503E-10	NaN
465	1.000000	0.386457	7.36961e+06	-53839.1	1005.82	-29745.3	0.000000	0.000000	6.386891	-0.084256	NaN	0.000000	0.001550	0.001754	28.0821	0.051694	0.002019	25.5975	-52.8184	-163.201	-0.102640	0.385114	-0.611330	-0.612674	-0.084256	25.5975	-0.608862	-1.102682E+8	7.641047E-10	NaN
465	1.000000	0.394429	7.36961e+06	-53839.1	1005.82	-29745.3	0.000000	0.000000	6.394865	-0.034406	NaN	0.000000	0.001585	0.001740	28.0819	0.017743	0.001961	9.046241	-21.2784	-166.784	-0.011237	0.393153	-0.603358	-0.604635	-0.034406	9.046241	-0.600506	-8.461093E+7	4.066379E-10	NaN
465	1.000000	0.402474	7.36961e+06	-53839.1	1005.82	-29745.3	0.000000	0.000000	6.402909	-0.055452	NaN	0.000000	0.001562	0.001762	28.0821	0.017292	0.002034	8.503141	83.8128	-163.962	0.005942	0.401188	-0.595313	-0.596600	-0.055452	8.503141	-0.590422	-6.144489E+7	9.024670E-10	NaN
465	1.000000	0.410479	7.36961e+06	-53839.1	1005.82	-29745.3	0.000000	0.000000	6.410917	0.012444	NaN	0.000000	0.001572	0.001754	28.0819	0.104965	0.002073	50.6342	-100.672	-168.677	0.084967	0.409159	-0.587308	-0.588628	0.012444	50.6342	-0.587492	-5.598741E+7	-2.222720E-10	NaN
465	1.000000	0.418467	7.36961e+06	-53839.1	1005.82	-29745.3	0.000000	0.000000	6.418903	-0.041695	NaN	0.000000	0.001570	0.001734	28.0822	0.089259	0.002099	42.5341	160.947	-166.443	0.039170	0.417138	-0.579320	-0.580649	-0.041695	42.5341	-0.578585	-4.218849E+7	9.882959E-10	NaN
465	1.000000	0.426485	7.36961e+06	-53839.1	1005.82	-29745.3	0.000000	0.000000	6.426918	-0.086947	NaN	0.000000	0.001588	0.001749	28.0821	0.054477	0.002005	27.175	137.545	-165.902	-0.065772	0.425127	-0.571303	-0.572660	-0.086947	27.175	-0.568903	-3.100801E+7	2.804009E-9	NaN
465	1.000000	0.434453	7.36961e+06	-53839.1	1005.82	-29745.3	0.000000	0.000000	6.434891	0.029061	NaN	0.000000	0.001572	0.001713	28.082	0.141865	0.001972	71.9301	-158.692	-167.598	-0.019414	0.433129	-0.563335	-0.564658	0.029061	71.9301	-0.563638	-2.622344E+7	-1.108212E-9	NaN
465	1.000000	0.442469	7.36961e+06	-53839.1	1005.82	-29745.3	0.000000	0.000000	6.442904	-0.049662	NaN	0.000000	0.001573	0.001706	28.0822	0.029006	0.001919	15.1149	109.152	-163.632	-0.059381	0.441167	-0.555318	-0.556620	-0.049662	15.1149	-0.552854	-1.859851E+7	2.670191E-9	NaN
465	1.000000	0.450496	7.36961e+06	-53839.1	1005.82	-29745.3	0.000000	0.000000	6.450933	-0.019457	NaN	0.000000	0.001544	0.001714	28.0819	0.070651	0.002032	34.7738	-142.291	-162.164	-0.044528	0.449194	-0.547291	-0.548593	-0.019457	34.7738	-0.546871	-1.536783E+7	1.266096E-9	NaN
465	1.000000	0.458491	7.36961e+06	-53839.1	1005.82	-29745.3	0.000000	0.000000	6.458931	0.050225	NaN	0.000000	0.001546	0.001677	28.0821	0.139356	0.002014	69.2088	32.8592	-168.539	0.060204	0.457176	-0.539296	-0.540611	0.050225	69.2088	-0.539840	-1.227847E+7	-4.090535E-9	NaN
465	1.000000	0.466474	7.36961e+06	-53839.1	1005.82	-29745.3	0.000000	0.000000	6.466913	0.031481	NaN	0.000000	0.001520	0.001680	28.0831	0.092771	0.002005	46.2717	111.411	-167.059	-0.003674	0.465184	-0.531313	-0.532603	0.031481	46.2717	-0.531823	-9.50367e+06	-3.312501E-9	NaN
465	1.000000	0.474486	7.36961e+06	-53839.1	1005.82	-29745.3	0.000000	0.000000	6.474921	-0.054768	NaN	0.000000	0.001549	0.001727	28.0838	0.065388	0.001994	32.7858	173.183	-165.19	-0.077454	0.473134	-0.523302	-0.524653	-0.054768	32.7858	-0.522049	-6.95163e+06	7.878508E-9	NaN
465	1.000000	0.482517	7.36961e+06	-53839.1	1005.82	-29745.3	0.000000	0.000000	6.482953	-0.028062	NaN	0.000000	0.001552	0.001678	28.0832	0.125312	0.001971	63.5776	-85.748	-162.274	-0.008645	0.481168	-0.515270	-0.516619	-0.028062	63.5776	-0.514939	-5.53586e+06	5.069168E-9	NaN
465	1.000000	0.490486	7.36961e+06	-53839.1	1005.82	-29745.3	0.000000	0.000000	6.490920	-0.072106	NaN	0.000000	0.001559	0.001691	28.0841	0.016989	0.001957	8.683129	-113.997	-171.057	0.006632	0.489184	-0.507302	-0.508603	-0.072106	8.683129	-0.501073	-3.54807e+06	2.032261E-8	NaN
465	1.000000	0.498468	7.36961e+06	-53839.1	1005.82	-29745.3	0.000000	0.000000	6.498905	-0.011980	NaN	0.000000	0.001579	0.001677	28.0834	0.096178	0.002038	47.1892	140.131	-161.605	-0.027179	0.497192	-0.499319	-0.500595	-0.011980	47.1892	-0.499129	-3.33319e+06	3.594069E-9	NaN
465	1.000000	0.506492	7.36961e+06	-53839.1	1005.82	-29745.3	0.000000	0.000000	6.506926	-0.077854	NaN	0.000000	0.001559	0.001708	28.0832	0.076155	0.002108	36.1255	-84.2294	-165.683	-0.079006	0.505208	-0.491295	-0.492579	-0.077854	36.1255	-0.489679	-2.45981e+06	3.165048E-8	NaN
465	1.000000	0.514519	7.36961e+06	-53839.1	1005.82	-29745.3	0.000000	0.000000	6.514956	-0.010443	NaN	0.000000	0.001550	0.001743	28.0832	0.075422	0.002066	36.5079	94.8382	-164.01	-0.089538	0.513239	-0.483268	-0.484548	-0.010443	36.5079	-0.483054	-1.98732e+06	5.254974E-9	NaN
465	1.000000	0.522487	7.36961e+06	-53839.1	1005.82	-29745.3	0.000000	0.000000	6.522924	-0.022738	NaN	0.000000	0.001517	0.001707	28.0829	0.114046	0.002034	56.0653	134.965	-166.553	-0.019736	0.521231	-0.475300	-0.476557	-0.022738	56.0653	-0.474996	-1.53265e+06	1.483571E-8	NaN
465	1.000000	0.530519	7.36961e+06	-53839.1	1005.82	-29745.3	0.000000	0.000000	6.530956	-0.017423	NaN	0.000000	0.001562	0.001718	28.0831	0.060667	0.001996	30.3938	-59.0945	-168.331	-0.031381	0.529205	-0.467268	-0.468582	-0.017423	30.3938	-0.466838	-1.17774e+06	1.479326E-8	NaN
465	1.000000	0.538514	7.36961e+06	-53839.1	1005.82	-29745.3	0.000000	0.000000	6.538952	0.009401	NaN	0.000000	0.001493	0.001703	28.0831	0.041956	0.001947	21.5489	82.4048	-169.087	-0.045963	0.537252	-0.459273	-0.460536	0.009401	21.5489	-0.459600	-931968	-1.008708E-8	NaN
465	1.000000	0.546531	7.36961e+06	-53839.1	1005.82	-29745.3	0.000000	0.000000	6.546969	0.016767	NaN	0.000000	0.001559	0.001712	28.0831	0.025281	0.002064	12.2458	175.805	-165.31	-0.009252	0.545266	-0.451256	-0.452522	0.016767	12.2458	-0.452283	-735329	-2.280257E-8	NaN
465	1.000000	0.554513	7.36961e+06	-53839.1	1005.82	-29745.3	0.000000	0.000000	6.554945	-0.124349	NaN	0.000000	0.001567	0.001715	28.0833	0.035606	0.002046	17.3998	-35.8924	-169.286	-0.114170	0.553193	-0.443275	-0.444594	-0.124349	17.3998	-0.437915	-461237	2.695989E-7	NaN
465	1.000000	0.562547	7.36961e+06	-53839.1	1005.82	-29745.3	0.000000	0.000000	6.562983	-0.028032	NaN	0.000000	0.001560	0.001712	28.0831	0.050592	0.002114	23.9328	-105.374	-165.819	0.018181	0.561208	-0.435241	-0.436579	-0.028032	23.9328	-0.434362	-410905	6.821999E-8	NaN
465	1.000000	0.570543	7.36961e+06	-53839.1	1005.82	-29745.3	0.000000	0.000000	6.570976	-0.106589	NaN	0.000000	0.001537	0.001712	28.0833	0.024695	0.001938	12.74	-170.611	-169.1	-0.056462	0.569193	-0.427244	-0.428594	-0.106589	12.74	-0.420970	-265561	4.013727E-7	NaN
465	1.000000	0.578535	7.36961e+06	-53839.1	1005.82	-29745.3	0.000000	0.000000	6.578966	-0.144071	NaN	0.000000	0.001534	0.001702	28.0832	0.054818	0.001848	29.6613	-53.055	-163.082	-0.152254	0.577234	-0.419253	-0.420553	-0.144071	29.6613	-0.415610	-222901	6.463439E-7	NaN
465	1.000000	0.586549	7.36961e+06	-53839.1	1005.82	-29745.3	0.000000	0.000000	6.586984	-0.051103	NaN	0.000000	0.001574	0.001727	28.0831	0.081020	0.002072	39.1037	-140.33	-166.791	-0.012801	0.585200	-0.411239	-0.412587	-0.051103	39.1037	-0.410258	-187101	2.731303E-7	NaN
465	1.000000	0.594533	7.36961e+06	-53839.1	1005.82	-29745.3	0.000000	0.000000	6.594968	-0.055960	NaN	0.000000	0.001568	0.001719	28.0833	0.039956	0.001918	20.8308	54.9968	-166.699	-0.069417	0.593225	-0.403254	-0.404562	-0.055960	20.8308	-0.401239	-139208	4.019925E-7	NaN
465	1.000000	0.602564	7.36961e+06	-53839.1	1005.82	-29745.3	0.000000	0.000000	6.603002	0.013879	NaN	0.000000	0.001556	0.001708	28.0819	0.097979	0.002042	47.9807	-111.913	-169.166	0.003882	0.601224	-0.395223	-0.396564	0.013879	47.9807	-0.395440	-115060	-1.206250E-7	NaN
465	1.000000	0.610532	7.36961e+06	-53839.1	1005.82	-29745.3	0.000000	0.000000	6.610968	-0.033715	NaN	0.000000	0.001557	0.001687	28.0818	0.123830	0.001800	68.7895	-124.56	-167.452	-0.003969	0.609251	-0.387255	-0.388537	-0.033715	68.7895	-0.386887	-86819.6	3.883290E-7	NaN
465	1.000000	0.618568	7.36961e+06	-53839.1	1005.82	-29745.3	0.000000	0.000000	6.619003	-0.053428	NaN	0.000000	0.001550	0.001705	28.0817	0.064894	0.002000	32.454	8.829123	-165.719	-0.078312	0.617214	-0.379219	-0.380573	-0.053428	32.454	-0.377985	-64707.9	8.256810E-7	NaN
465	1.000000	0.626546	7.36961e+06	-53839.1	1005.82	-29745.3	0.000000	0.000000	6.626982	-0.025682	NaN	0.000000	0.001557	0.001710	28.0817	0.114325	0.001981	57.6977	7.685032	-167.029	-0.080068	0.625218	-0.371242	-0.372570	-0.025682	57.6977	-0.370908	-51191.7	5.016794E-7	NaN
465	1.000000	0.634569	7.36961e+06	-53839.1	1005.82	-29745.3	0.000000	0.000000	6.635005	-0.036215	NaN	0.000000	0.001593	0.001721	28.082	0.024373	0.002030	12.0095	78.2311	-165.722	-0.089533	0.633184	-0.363218	-0.364603	-0.036215	12.0095	-0.360957	-36785.3	9.844847E-7	NaN
465	1.000000	0.642586	7.36961e+06	-53839.1	1005.82	-29745.3	0.000000	0.000000	6.643022	-0.046290	NaN	0.000000	0.001584	0.001723	28.0819	0.013400	0.001856	7.218996	-174.235	-167.061	-0.062413	0.641240	-0.355201	-0.356547	-0.046290	7.218996	-0.350392	-25863.5	1.789790E-6	NaN
465	1.000000	0.650568	7.36961e+06	-53839.1	1005.82	-29745.3	0.000000	0.000000	6.651005	-0.009973	NaN	0.000000	0.001561	0.001698	28.0822	0.057484	0.002005	28.6656	-1.731220	-163.687	0.000704	0.649255	-0.347219	-0.348532	-0.009973	28.6656	-0.346959	-23058.5	4.324941E-7	NaN
465	1.000000	0.658571	7.36961e+06	-53839.1	1005.82	-29745.3	0.000000	0.000000	6.659010	0.031590	NaN	0.000000	0.001547	0.001716	28.082	0.067348	0.002043	32.9728	35.3225	-166.014	0.024244	0.657212	-0.339216	-0.340575	0.031590	32.9728	-0.339935	-18222.2	-1.733629E-6	NaN
465	1.000000	0.666570	7.36961e+06	-53839.1	1005.82	-29745.3	0.000000	0.000000	6.667006	-0.033452	NaN	0.000000	0.001547	0.001714	28.0819	0.110975	0.001959	56.6492	-46.4774	-165.439	-0.084882	0.665268	-0.331217	-0.332519	-0.033452	56.6492	-0.330775	-13390.4	2.498192E-6	NaN
465	1.000000	0.674583	7.36961e+06	-53839.1	1005.82	-29745.3	0.000000	0.000000	6.675021	0.009580	NaN	0.000000	0.001528	0.001699	28.0822	0.097588	0.001988	49.0776	117.962	-165.16	-0.029045	0.673284	-0.323204	-0.324503	0.009580	49.0776	-0.323351	-10421.1	-9.192784E-7	NaN
465	1.000000	0.682609	7.36961e+06	-53839.1	1005.82	-29745.3	0.000000	0.000000	6.683045	-0.038714	NaN	0.000000	0.001555	0.001741	28.0819	0.131799	0.001981	66.5238	67.9962	-165.033	-0.105105	0.681268	-0.315178	-0.316519	-0.038714	66.5238	-0.314742	-7782.83	4.974260E-6	NaN
465	1.000000	0.690596	7.36961e+06	-53839.1	1005.82	-29745.3	0.000000	0.000000	6.691033	-0.014007	NaN	0.000000	0.001553	0.001736	28.0821	0.055439	0.001968	28.1708	49.4808	-167.211	-0.040365	0.689255	-0.307191	-0.308532	-0.014007	28.1708	-0.306818	-5941.84	2.357316E-6	NaN
465	1.000000	0.698586	7.36961e+06	-53839.1	1005.82	-29745.3	0.000000	0.000000	6.699021	-0.052788	NaN	0.000000	0.001523	0.001727	28.0818	0.042486	0.002111	20.1235	164.038	-166.96	-0.098753	0.697268	-0.299202	-0.300519	-0.052788	20.1235	-0.297234	-4279.84	1.233401E-5	NaN
465	1.000000	0.706599	7.36961e+06	-53839.1	1005.82	-29745.3	0.000000	0.000000	6.707033	-0.080891	NaN	0.000000	0.001553	0.001723	28.0822	0.109603	0.001880	58.3079	-121.314	-164.478	-0.078325	0.705279	-0.291188	-0.292508	-0.080891	58.3079	-0.290148	-3353.61	2.412065E-5	NaN
465	1.000000	0.714602	7.36961e+06	-53839.1	1005.82	-29745.3	0.000000	0.000000	6.715037	-0.063457	NaN	0.000000	0.001571	0.001733	28.0819	0.062719	0.001873	33.4874	-66.2807	-167.941	-0.064209	0.713249	-0.283185	-0.284538	-0.063457	33.4874	-0.281764	-2509.34	2.528840E-5	NaN
465	1.000000	0.722594	7.36961e+06	-53839.1	1005.82	-29745.3	0.000000	0.000000	6.723030	-0.024193	NaN	0.000000	0.001613	0.001747	28.0818	0.075257	0.002032	37.0364	-109.164	-168.359	0.012595	0.721292	-0.275193	-0.276495	-0.024193	37.0364	-0.274703	-1962.94	1.232489E-5	NaN
465	1.000000	0.730616	7.36961e+06	-53839.1	1005.82	-29745.3	0.000000	0.000000	6.731051	-0.060203	NaN	0.000000	0.001601	0.001718	28.0819	0.028921	0.002039	14.1865	-44.6771	-167.059	-0.054506	0.729376	-0.267171	-0.268411	-0.060203	14.1865	-0.263988	-1348.79	4.463465E-5	NaN
465	1.000000	0.738614	7.36961e+06	-53839.1	1005.82	-29745.3	0.000000	0.000000	6.739049	-0.059405	NaN	0.000000	0.001634	0.001735	28.0828	0.039107	0.001876	20.8509	85.8619	-164.667	-0.102487	0.737289	-0.259173	-0.260498	-0.059405	20.8509	-0.257037	-1055.45	5.628374E-5	NaN
465	1.000000	0.746625	7.36961e+06	-53839.1	1005.82	-29745.3	0.000000	0.000000	6.747061	-0.045705	NaN	0.000000	0.001605	0.001728	28.0832	0.076878	0.002061	37.3064	35.2353	-165.691	-0.040246	0.745314	-0.251162	-0.252474	-0.045705	37.3064	-0.250243	-829.334	5.511057E-5	NaN
465	1.000000	0.754629	7.36961e+06	-53839.1	1005.82	-29745.3	0.000000	0.000000	6.755065	-0.036319	NaN	0.000000	0.001652	0.001715	28.0831	0.069181	0.002039	33.9336	164.174	-165.866	-0.055628	0.753296	-0.243158	-0.244491	-0.036319	33.9336	-0.242356	-625.61	5.805409E-5	NaN
465	1.000000	0.762592	7.36961e+06	-53839.1	1005.82	-29745.3	0.000000	0.000000	6.763031	0.024072	NaN	0.000000	0.001639	0.001701	28.0835	0.103530	0.001986	52.1271	171.346	-166.294	-0.086085	0.761305	-0.235195	-0.236483	0.024072	52.1271	-0.235541	-489.49	-4.917673E-5	NaN
465	1.000000	0.770601	7.36961e+06	-53839.1	1005.82	-29745.3	0.000000	0.000000	6.771036	-0.078779	NaN	0.000000	0.001649	0.001691	28.0832	0.011097	0.001933	5.742230	-148.266	-165.673	-0.084871	0.769238	-0.227186	-0.228549	-0.078779	5.742230	-0.216896	-247.73	0.000318	NaN
465	1.000000	0.778625	7.36961e+06	-53839.1	1005.82	-29745.3	0.000000	0.000000	6.779062	-0.014307	NaN	0.000000	0.001637	0.001723	28.0832	0.060563	0.002219	27.2921	55.7282	-166.173	0.043414	0.777263	-0.219162	-0.220524	-0.014307	27.2921	-0.218769	-265.45	5.389755E-5	NaN
465	1.000000	0.786642	7.36961e+06	-53839.1	1005.82	-29745.3	0.000000	0.000000	6.787078	-0.033161	NaN	0.000000	0.001616	0.001696	28.0831	0.029505	0.001935	15.248	-50.4456	-164.514	0.036348	0.785318	-0.211145	-0.212470	-0.033161	15.248	-0.209514	-188.343	0.000176	NaN
465	1.000000	0.794600	7.36961e+06	-53839.1	1005.82	-29745.3	0.000000	0.000000	6.795038	0.009876	NaN	0.000000	0.001601	0.001696	28.0832	0.090042	0.001819	49.5067	-12.0121	-164.24	0.021403	0.793309	-0.203187	-0.204478	0.009876	49.5067	-0.203337	-149.416	-6.609676E-5	NaN
465	1.000000	0.802638	7.36961e+06	-53839.1	1005.82	-29745.3	0.000000	0.000000	6.803075	-0.006572	NaN	0.000000	0.001659	0.001693	28.0835	0.095351	0.001995	47.8047	96.7547	-168.453	-0.012414	0.801377	-0.195149	-0.196410	-0.006572	47.8047	-0.195046	-109.134	6.021822E-5	NaN
465	1.000000	0.810662	7.36961e+06	-53839.1	1005.82	-29745.3	0.000000	0.000000	6.811097	-0.063951	NaN	0.000000	0.001650	0.001700	28.0832	0.106658	0.002125	50.1907	-95.8399	-165.64	-0.061003	0.809324	-0.187125	-0.188463	-0.063951	50.1907	-0.186169	-77.5924	0.000824	NaN
465	1.000000	0.818617	7.36961e+06	-53839.1	1005.82	-29745.3	0.000000	0.000000	6.819053	-0.027838	NaN	0.000000	0.001609	0.001684	28.0834	0.052530	0.001988	26.4264	-130.763	-165.754	0.022612	0.817278	-0.179171	-0.180509	-0.027838	26.4264	-0.178381	-57.2626	0.000486	NaN
465	1.000000	0.826664	7.36961e+06	-53839.1	1005.82	-29745.3	0.000000	0.000000	6.827101	-0.010926	NaN	0.000000	0.001611	0.001686	28.0831	0.103546	0.001951	53.0832	92.4972	-168.026	-0.021735	0.825338	-0.171123	-0.172449	-0.010926	53.0832	-0.170969	-42.6994	0.000256	NaN
465	1.000000	0.834610	7.36961e+06	-53839.1	1005.82	-29745.3	0.000000	0.000000	6.835048	0.016664	NaN	0.000000	0.001601	0.001684	28.0832	0.087572	0.001964	44.5831	54.5252	-163.089	-0.037524	0.833324	-0.163177	-0.164463	0.016664	44.5831	-0.163458	-31.5626	-0.000528	NaN
465	1.000000	0.842661	7.36961e+06	-53839.1	1005.82	-29745.3	0.000000	0.000000	6.843097	-0.044331	NaN	0.000000	0.001648	0.001707	28.0832	0.071899	0.001875	38.3531	74.6298	-166.989	-0.055370	0.841353	-0.155126	-0.156434	-0.044331	38.3531	-0.154259	-21.6388	0.002049	NaN
465	1.000000	0.850618	7.36961e+06	-53839.1	1005.82	-29745.3	0.000000	0.000000	6.851055	-0.017180	NaN	0.000000	0.001648	0.001724	28.0831	0.018110	0.002056	8.809133	-140.202	-166.363	-0.087841	0.849375	-0.147169	-0.148413	-0.017180	8.809133	-0.145706	-15.1084	0.001137	NaN
465	1.000000	0.858653	7.36961e+06	-53839.1	1005.82	-29745.3	0.000000	0.000000	6.859089	-0.029396	NaN	0.000000	0.001593	0.001707	28.0833	0.058410	0.001941	30.0936	51.5756	-170.604	-0.024713	0.857355	-0.139134	-0.140433	-0.029396	30.0936	-0.138402	-11.0375	0.002663	NaN
465	1.000000	0.866663	7.36961e+06	-53839.1	1005.82	-29745.3	0.000000	0.000000	6.867101	0.030520	NaN	0.000000	0.001588	0.001721	28.0832	0.079773	0.002124	37.5624	145.386	-168.837	0.063933	0.865374	-0.131125	-0.132413	0.030520	37.5624	-0.131734	-8.233613	-0.003707	NaN
465	1.000000	0.874647	7.36961e+06	-53839.1	1005.82	-29745.3	0.000000	0.000000	6.875083	-0.021667	NaN	0.000000	0.001620	0.001699	28.0827	0.013103	0.001962	6.678335	-116.152	-165.494	-0.000510	0.873349	-0.123141	-0.124439	-0.021667	6.678335	-0.120707	-4.992759	0.004340	NaN
465	1.000000	0.882651	7.36961e+06	-53839.1	1005.82	-29745.3	0.000000	0.000000	6.883089	0.011579	NaN	0.000000	0.001619	0.001696	28.0818	0.095428	0.001999	47.7403	69.0315	-168.295	-0.026426	0.881313	-0.115136	-0.116474	0.011579	47.7403	-0.115318	-3.878438	-0.002985	NaN
465	1.000000	0.890641	7.36961e+06	-53839.1	1005.82	-29745.3	0.000000	0.000000	6.891077	-0.046287	NaN	0.000000	0.001608	0.001717	28.0818	0.034909	0.002094	16.6747	-123.445	-164.259	-0.028424	0.889287	-0.107146	-0.108500	-0.046287	16.6747	-0.105064	-2.358077	0.019629	NaN
465	1.000000	0.898635	7.36961e+06	-53839.1	1005.82	-29745.3	0.000000	0.000000	6.899073	-0.000731	NaN	0.000000	0.001624	0.001689	28.082	0.071186	0.001967	36.1982	109.836	-165.811	0.013728	0.897370	-0.099152	-0.100417	-0.000731	36.1982	-0.099137	-1.748195	0.000418	NaN
465	1.000000	0.906691	7.36961e+06	-53839.1	1005.82	-29745.3	0.000000	0.000000	6.907130	0.038567	NaN	0.000000	0.001602	0.001728	28.0818	0.098765	0.001948	50.6944	-111.27	-166.812	0.052810	0.905354	-0.091096	-0.092433	0.038567	50.6944	-0.091666	-1.182279	-0.032621	NaN
465	1.000000	0.914679	7.36961e+06	-53839.1	1005.82	-29745.3	0.000000	0.000000	6.915117	0.000461	NaN	0.000000	0.001613	0.001698	28.0821	0.149847	0.002008	74.6118	-104.052	-167.393	0.043380	0.913398	-0.083108	-0.084390	0.000461	74.6118	-0.083113	-0.739129	-0.000624	NaN
465	1.000000	0.922686	7.36961e+06	-53839.1	1005.82	-29745.3	0.000000	0.000000	6.923123	-0.012131	NaN	0.000000	0.001606	0.001726	28.0819	0.104340	0.002091	49.9048	73.5569	-167.834	0.043325	0.921351	-0.075101	-0.076436	-0.012131	49.9048	-0.074918	-0.459632	0.026392	NaN
465	1.000000	0.930686	7.36961e+06	-53839.1	1005.82	-29745.3	0.000000	0.000000	6.931121	-0.047936	NaN	0.000000	0.001588	0.001745	28.0819	0.101342	0.001981	51.1639	-142.395	-168.769	-0.066362	0.929392	-0.067101	-0.068395	-0.047936	51.1639	-0.066399	-0.272388	0.175984	NaN
465	1.000000	0.938686	7.36961e+06	-53839.1	1005.82	-29745.3	0.000000	0.000000	6.939120	-0.061940	NaN	0.000000	0.001610	0.001731	28.0821	0.141550	0.002022	69.9987	-55.8862	-165.049	-0.011216	0.937344	-0.059102	-0.060443	-0.061940	69.9987	-0.058438	-0.162354	0.381513	NaN
465	1.000000	0.946687	7.36961e+06	-53839.1	1005.82	-29745.3	0.000000	0.000000	6.947125	0.008267	NaN	0.000000	0.001605	0.001698	28.0818	0.083528	0.002099	39.7902	146.178	-167.813	0.102560	0.945355	-0.051100	-0.052432	0.008267	39.7902	-0.051256	-0.099567	-0.083025	NaN
465	1.000000	0.954675	7.36961e+06	-53839.1	1005.82	-29745.3	0.000000	0.000000	6.955113	0.022254	NaN	0.000000	0.001628	0.001728	28.082	0.021727	0.002116	10.2692	142.981	-163.136	0.005970	0.953361	-0.043112	-0.044426	0.022254	10.2692	-0.044738	-0.063092	-0.352720	NaN
465	1.000000	0.962676	7.36961e+06	-53839.1	1005.82	-29745.3	0.000000	0.000000	6.963117	0.076924	NaN	0.000000	0.001617	0.001713	28.082	0.038316	0.001994	19.2159	-139.584	-165.582	0.043624	0.961348	-0.035111	-0.036440	0.076924	19.2159	-0.038113	-0.039654	-1.939897	NaN
465	1.000000	0.970703	7.36961e+06	-53839.1	1005.82	-29745.3	0.000000	0.000000	6.971139	-0.033891	NaN	0.000000	0.001638	0.001704	28.0819	0.056261	0.002053	27.3986	-144.103	-167.3	-0.060693	0.969395	-0.027084	-0.028393	-0.033891	27.3986	-0.026156	-0.018094	1.873043	NaN
465	1.000000	0.978699	7.36961e+06	-53839.1	1005.82	-29745.3	0.000000	0.000000	6.979138	0.016419	NaN	0.000000	0.001617	0.001714	28.082	0.067895	0.001933	35.1252	84.0083	-167.784	-0.021540	0.977423	-0.019088	-0.020365	0.016419	35.1252	-0.019438	-0.012154	-1.350933	NaN
465	1.000000	0.986711	7.36961e+06	-53839.1	1005.82	-29745.3	0.000000	0.000000	6.987148	-0.003453	NaN	0.000000	0.001617	0.001730	28.082	0.125035	0.001974	63.3408	-111.527	-166.277	-0.019327	0.985436	-0.011076	-0.012352	-0.003453	63.3408	-0.011035	-0.006978	0.494876	NaN
465	1.000000	0.994713	7.36961e+06	-53839.1	1005.82	-29745.3	0.000000	0.000000	6.995152	0.038993	NaN	0.000000	0.001620	0.001715	28.0822	0.039391	0.002152	18.302	-99.4846	-167.109	0.004470	0.993368	-0.003074	-0.004419	0.038993	18.302	-0.004672	-0.003210	-12.1481	NaN
465	1.000000	1.002686	7.36961e+06	-53839.1	1005.82	-29745.3	0.000000	0.000000	7.003332	5.066024	NaN	0.000000	0.001634	0.001686	28.0821	5.681624	0.001792	3170.93	12.3344	-171.082	3.916180	1.001396	0.004899	0.003609	5.066024	3170.93	0.003701	0.002978	1701.08	53087.1
465	2.000000	1.007225	7.36961e+06	-53839.1	1005.82	-29745.3	0.000000	0.000000	7.007992	8.015350	NaN	0.000000	0.001616	0.001706	28.0827	9.089413	0.001504	6041.7	6.962832	-173.834	7.550058	1.006974	0.009438	0.009187	8.015350	6041.7	0.008443	0.007502	1068.43	63729.9
465	2.000000	1.009229	7.36961e+06	-53839.1	1005.82	-29745.3	0.000000	0.000000	7.010150	11.7567	NaN	0.000000	0.001618	0.001710	28.0834	12.5799	0.001691	7441.23	5.969380	-175.632	11.4879	1.008901	0.011442	0.011114	11.7567	7441.23	0.010257	0.009468	1241.67	69868.1
465	2.000000	1.011247	7.36961e+06	-53839.1	1005.82	-29745.3	0.000000	0.000000	7.012294	14.8158	NaN	0.000000	0.001643	0.001703	28.0832	15.042	0.001796	8375.26	8.812793	-177.079	14.0836	1.010906	0.013460	0.013119	14.8158	8375.26	0.012133	0.011650	1271.72	70893.3
465	2.000000	1.013166	7.36961e+06	-53839.1	1005.82	-29745.3	0.000000	0.000000	7.014334	17.7518	NaN	0.000000	0.001682	0.001729	28.0832	16.3708	0.001672	9788.64	3.535245	-175.862	15.4594	1.012897	0.015379	0.015110	17.7518	9788.64	0.014019	0.014000	1268.02	75585.5
465	2.000000	1.015140	7.36961e+06	-53839.1	1005.82	-29745.3	0.000000	0.000000	7.016409	20.2169	NaN	0.000000	0.001648	0.001729	28.0831	18.7922	0.001786	10521.5	3.870250	-174.664	18.4775	1.014909	0.017353	0.017122	20.2169	10521.5	0.015912	0.016520	1223.77	74790.4
465	2.000000	1.017135	7.36961e+06	-53839.1	1005.82	-29745.3	0.000000	0.000000	7.018625	25.5915	NaN	0.000000	0.001609	0.001708	28.0833	19.9224	0.001606	12401.3	-0.149371	-172.945	23.6594	1.016860	0.019348	0.019073	25.5915	12401.3	0.017800	0.019203	1332.69	81763.2
465	2.000000	1.019182	7.36961e+06	-53839.1	1005.82	-29745.3	0.000000	0.000000	7.020843	29.7397	NaN	0.000000	0.001626	0.001706	28.0833	23.8728	0.001803	13236.9	5.273503	-178.009	30.0283	1.018891	0.021395	0.021104	29.7397	13236.9	0.019710	0.022089	1346.38	81372.3
465	2.000000	1.021176	7.36961e+06	-53839.1	1005.82	-29745.3	0.000000	0.000000	7.023055	35.0484	NaN	0.000000	0.001638	0.001674	28.0835	25.9264	0.001762	14714.3	2.962973	-177.618	33.3955	1.020883	0.023389	0.023096	35.0484	14714.3	0.021602	0.025123	1395.08	84816.4
465	2.000000	1.023140	7.36961e+06	-53839.1	1005.82	-29745.3	0.000000	0.000000	7.025261	40.9241	NaN	0.000000	0.001651	0.001674	28.0834	28.1003	0.001765	15924.1	4.800721	-179.615	39.2532	1.022771	0.025353	0.024984	40.9241	15924.1	0.023425	0.028213	1450.53	86617.2
465	2.000000	1.025205	7.36961e+06	-53839.1	1005.82	-29745.3	0.000000	0.000000	7.027375	42.1111	NaN	0.000000	0.001661	0.001687	28.0832	30.7711	0.001887	16303.8	6.684506	179.565	45.2441	1.024914	0.027418	0.027127	42.1111	16303.8	0.025481	0.031896	1320.27	83405.5
465	2.000000	1.027163	7.36961e+06	-53839.1	1005.82	-29745.3	0.000000	0.000000	7.029863	55.0223	NaN	0.000000	0.001649	0.001772	28.0832	31.6181	0.001686	18748.9	5.781641	178.429	54.5021	1.026824	0.029375	0.029037	55.0223	18748.9	0.027174	0.035091	1568.01	91443.7
465	2.000000	1.029133	7.36961e+06	-53839.1	1005.82	-29745.3	0.000000	0.000000	7.031956	57.9761	NaN	0.000000	0.001646	0.001745	28.0832	33.7308	0.001716	19656	6.714652	176.161	56.2026	1.028820	0.031346	0.031032	57.9761	19656	0.029134	0.038968	1487.78	90973.4
465	2.000000	1.031214	7.36961e+06	-53839.1	1005.82	-29745.3	0.000000	0.000000	7.034286	64.0542	NaN	0.000000	0.001666	0.001694	28.0834	36.347	0.001775	20482.4	9.788885	173.971	65.2015	1.030827	0.033427	0.033040	64.0542	20482.4	0.031082	0.043015	1489.11	90228.4
465	2.000000	1.033123	7.36961e+06	-53839.1	1005.82	-29745.3	0.000000	0.000000	7.036512	71.7662	NaN	0.000000	0.001661	0.001716	28.0842	37.0311	0.001732	21375.5	2.501628	-179.885	70.2918	1.032787	0.035336	0.035000	71.7662	21375.5	0.032818	0.046787	1533.89	90287.5
465	2.000000	1.035113	7.36961e+06	-53839.1	1005.82	-29745.3	0.000000	0.000000	7.038633	74.9315	NaN	0.000000	0.001671	0.001737	28.0834	40.2691	0.001684	23917.6	3.960261	176.732	72.1034	1.034840	0.037326	0.037053	74.9315	23917.6	0.034976	0.051691	1449.61	96113.3
465	2.000000	1.037117	7.36961e+06	-53839.1	1005.82	-29745.3	0.000000	0.000000	7.041042	84.7872	NaN	0.000000	0.001677	0.001736	28.0832	41.7746	0.001816	23002.3	6.136003	175.21	82.5599	1.036785	0.039330	0.038998	84.7872	23002.3	0.036566	0.055454	1528.95	89243.6
465	2.000000	1.039067	7.36961e+06	-53839.1	1005.82	-29745.3	0.000000	0.000000	7.043291	92.0523	NaN	0.000000	0.001695	0.001672	28.0831	43.5899	0.001764	24716.9	3.785340	177.318	87.894	1.038863	0.041280	0.041076	92.0523	24716.9	0.038487	0.060176	1529.73	92056.9
465	2.000000	1.041135	7.36961e+06	-53839.1	1005.82	-29745.3	0.000000	0.000000	7.045751	101.596	NaN	0.000000	0.001677	0.001740	28.083	46.2632	0.001786	25897.5	9.153062	171.835	101.472	1.040806	0.043348	0.043019	101.596	25897.5	0.040406	0.065081	1561.07	92748.1
465	2.000000	1.043097	7.36961e+06	-53839.1	1005.82	-29745.3	0.000000	0.000000	7.047845	104.803	NaN	0.000000	0.001690	0.001712	28.0832	46.3733	0.001610	28797	0.958239	178.937	102.813	1.042789	0.045310	0.045002	104.803	28797	0.042581	0.070867	1478.87	98831.9
465	2.000000	1.045120	7.36961e+06	-53839.1	1005.82	-29745.3	0.000000	0.000000	7.050398	117.687	NaN	0.000000	0.001641	0.001726	28.0823	50.0214	0.001686	29664.8	3.284570	176.591	117.03	1.044754	0.047332	0.046967	117.687	29664.8	0.044357	0.075772	1553.17	98460.1
465	2.000000	1.047099	7.36961e+06	-53839.1	1005.82	-29745.3	0.000000	0.000000	7.052806	128.121	NaN	0.000000	0.001659	0.001733	28.0819	51.0547	0.001727	29567.5	5.902223	174.634	127.6	1.046737	0.049311	0.048949	128.121	29567.5	0.046062	0.080629	1589.01	95135.1
465	2.000000	1.049101	7.36961e+06	-53839.1	1005.82	-29745.3	0.000000	0.000000	7.054949	131.536	NaN	0.000000	0.001646	0.001728	28.0822	55.0788	0.001891	29120.5	7.596734	173.034	130.041	1.048814	0.051314	0.051026	131.536	29120.5	0.047926	0.086112	1527.51	90665.3
465	2.000000	1.051117	7.36961e+06	-53839.1	1005.82	-29745.3	0.000000	0.000000	7.057465	143.679	NaN	0.000000	0.001626	0.001707	28.0821	56.204	0.001744	32231.2	3.805048	175.02	142.647	1.050803	0.053330	0.053015	143.679	32231.2	0.049987	0.092373	1555.42	96889.8
465	2.000000	1.053019	7.36961e+06	-53839.1	1005.82	-29745.3	0.000000	0.000000	7.059891	156.434	NaN	0.000000	0.001656	0.001710	28.0827	56.738	0.001654	34301.3	5.971277	172.128	150.441	1.052711	0.055232	0.054923	156.434	34301.3	0.051811	0.098094	1594.73	100060
465	2.000000	1.055057	7.36961e+06	-53839.1	1005.82	-29745.3	0.000000	0.000000	7.062231	163.787	NaN	0.000000	0.001589	0.001723	28.0824	60.4854	0.001754	34476.9	3.443267	174.322	161.422	1.054800	0.057270	0.057013	163.787	34476.9	0.053707	0.104213	1571.65	97575.3
465	2.000000	1.057010	7.36961e+06	-53839.1	1005.82	-29745.3	0.000000	0.000000	7.064584	173.5	NaN	0.000000	0.001637	0.001730	28.0821	60.8982	0.001677	36314.6	1.642349	175.651	167.671	1.056716	0.059223	0.058929	173.5	36314.6	0.055640	0.110639	1568.16	99747
465	2.000000	1.059030	7.36961e+06	-53839.1	1005.82	-29745.3	0.000000	0.000000	7.066899	180.665	NaN	0.000000	0.001621	0.001765	28.0821	64.9639	0.001852	35083.1	8.023394	169.644	175.649	1.058812	0.061243	0.061025	180.665	35083.1	0.057381	0.116583	1549.67	93875.8
465	2.000000	1.061169	7.36961e+06	-53839.1	1005.82	-29745.3	0.000000	0.000000	7.069551	193.146	NaN	0.000000	0.001618	0.001744	28.0821	67.0552	0.001773	37825.8	9.700065	168.75	195.821	1.060784	0.063382	0.062996	193.146	37825.8	0.059552	0.124206	1555.05	98059.5
465	2.000000	1.063069	7.36961e+06	-53839.1	1005.82	-29745.3	0.000000	0.000000	7.072021	207.01	NaN	0.000000	0.001630	0.001728	28.0825	67.9574	0.001636	41546	7.123893	170.759	205.604	1.062781	0.065281	0.064993	207.01	41546	0.061544	0.131404	1575.37	104712
465	2.000000	1.065112	7.36961e+06	-53839.1	1005.82	-29745.3	0.000000	0.000000	7.074441	216.176	NaN	0.000000	0.001654	0.001745	28.0823	71.9532	0.001806	39840.9	6.826692	170.424	218.511	1.064785	0.067325	0.066998	216.176	39840.9	0.063255	0.137739	1569.46	98078.3
465	2.000000	1.066991	7.36961e+06	-53839.1	1005.82	-29745.3	0.000000	0.000000	7.077147	236.275	NaN	0.000000	0.001673	0.001744	28.0823	72.4679	0.001873	38686.1	5.201758	172.643	230.499	1.066723	0.069204	0.068935	236.275	38686.1	0.064623	0.142906	1653.35	93498.1
465	2.000000	1.069007	7.36961e+06	-53839.1	1005.82	-29745.3	0.000000	0.000000	7.079645	247.979	NaN	0.000000	0.001606	0.001727	28.0822	73.9086	0.001714	43132.6	3.424728	173.32	242.764	1.068721	0.071220	0.070934	247.979	43132.6	0.066908	0.151739	1634.25	101165
465	2.000000	1.071238	7.36961e+06	-53839.1	1005.82	-29745.3	0.000000	0.000000	7.081929	249.285	NaN	0.000000	0.001583	0.001765	28.082	76.7831	0.001720	44650.5	1.566108	175.893	257.385	1.070836	0.073450	0.073049	249.285	44650.5	0.069263	0.161103	1547.36	101636
465	2.000000	1.073022	7.36961e+06	-53839.1	1005.82	-29745.3	0.000000	0.000000	7.084388	265.689	NaN	0.000000	0.001620	0.001746	28.0828	77.9899	0.001746	44678.6	2.866526	173.277	262.19	1.072809	0.075235	0.075022	265.689	44678.6	0.070775	0.167255	1588.52	99812.1
465	2.000000	1.075141	7.36961e+06	-53839.1	1005.82	-29745.3	0.000000	0.000000	7.087417	287.818	NaN	0.000000	0.001585	0.001730	28.0823	80.7437	0.001783	45286.6	5.985753	171.17	288.979	1.074650	0.077354	0.076863	287.818	45286.6	0.072587	0.174772	1646.82	98970.8
465	2.000000	1.077049	7.36961e+06	-53839.1	1005.82	-29745.3	0.000000	0.000000	7.089917	302.231	NaN	0.000000	0.001637	0.001718	28.0834	80.8293	0.001736	46558.9	3.637513	172.87	302.496	1.076726	0.079261	0.078939	302.231	46558.9	0.074393	0.182415	1656.83	99596.7
465	2.000000	1.078944	7.36961e+06	-53839.1	1005.82	-29745.3	0.000000	0.000000	7.092125	309.831	NaN	0.000000	0.001639	0.001679	28.0839	85.1355	0.001956	43521.9	3.704734	173.258	303.191	1.078641	0.081157	0.080853	309.831	43521.9	0.075817	0.188554	1643.2	91572.1
465	2.000000	1.080991	7.36961e+06	-53839.1	1005.82	-29745.3	0.000000	0.000000	7.094766	324.267	NaN	0.000000	0.001603	0.001691	28.0835	85.3491	0.001703	50109.9	2.365880	173.684	317.373	1.080701	0.083204	0.082914	324.267	50109.9	0.078351	0.199706	1623.72	102447
465	2.000000	1.082994	7.36961e+06	-53839.1	1005.82	-29745.3	0.000000	0.000000	7.097432	340.363	NaN	0.000000	0.001584	0.001700	28.0838	87.5539	0.001844	47471.8	3.315190	172.915	337.697	1.082774	0.085207	0.084987	340.363	47471.8	0.079830	0.206356	1649.39	95477.2
465	2.000000	1.085113	7.36961e+06	-53839.1	1005.82	-29745.3	0.000000	0.000000	7.099746	345.105	NaN	0.000000	0.001574	0.001672	28.0833	90.6144	0.001714	52856.4	4.077375	170.934	347.321	1.084989	0.087326	0.087202	345.105	52856.4	0.082429	0.218291	1580.94	103360
465	2.000000	1.087029	7.36961e+06	-53839.1	1005.82	-29745.3	0.000000	0.000000	7.102570	367.207	NaN	0.000000	0.001595	0.001657	28.0834	90.5175	0.001527	59266.2	5.852923	168.566	363.429	1.086811	0.089242	0.089024	367.207	59266.2	0.084595	0.228472	1607.23	113283
465	2.000000	1.089059	7.36961e+06	-53839.1	1005.82	-29745.3	0.000000	0.000000	7.105402	386.695	NaN	0.000000	0.001585	0.001696	28.0835	94.462	0.001692	55826	6.041722	169.739	385.939	1.088635	0.091272	0.090848	386.695	55826	0.086077	0.235566	1641.56	105088
465	2.000000	1.091102	7.36961e+06	-53839.1	1005.82	-29745.3	0.000000	0.000000	7.108116	403.01	NaN	0.000000	0.001586	0.001698	28.0835	97.7444	0.001870	52267.6	10.3962	166.04	402.229	1.090595	0.093314	0.092808	403.01	52267.6	0.087531	0.242626	1661.04	96947.7
465	2.000000	1.092959	7.36961e+06	-53839.1	1005.82	-29745.3	0.000000	0.000000	7.110724	421.283	NaN	0.000000	0.001599	0.001699	28.0837	97.225	0.001753	55465.6	3.046925	172.376	414.501	1.092640	0.095171	0.094853	421.283	55465.6	0.089475	0.252210	1670.36	100906
465	2.000000	1.095014	7.36961e+06	-53839.1	1005.82	-29745.3	0.000000	0.000000	7.113268	433.141	NaN	0.000000	0.001579	0.001682	28.0834	101.013	0.001800	56107.9	6.225425	168.603	430.105	1.094758	0.097227	0.096971	433.141	56107.9	0.091437	0.262064	1652.81	100137
465	2.000000	1.097229	7.36961e+06	-53839.1	1005.82	-29745.3	0.000000	0.000000	7.115766	440.033	NaN	0.000000	0.001586	0.001707	28.084	102.063	0.001832	55712.5	4.025307	171.489	451.174	1.096796	0.099442	0.099009	440.033	55712.5	0.093518	0.272704	1613.59	97472
465	2.000000	1.098968	7.36961e+06	-53839.1	1005.82	-29745.3	0.000000	0.000000	7.118635	467.494	NaN	0.000000	0.001649	0.001713	28.0835	103.915	0.001798	57779.7	4.397757	170.659	463.342	1.098635	0.101181	0.100848	467.494	57779.7	0.095113	0.280995	1663.71	99586.2
465	2.000000	1.101000	7.36961e+06	-53839.1	1005.82	-29745.3	0.000000	0.000000	7.121365	484.465	NaN	0.000000	0.001646	0.001701	28.0836	105.571	0.001618	65227.8	7.046171	167.345	479.823	1.100551	0.103213	0.102764	484.465	65227.8	0.097642	0.294381	1645.71	109838
465	2.000000	1.103011	7.36961e+06	-53839.1	1005.82	-29745.3	0.000000	0.000000	7.124144	503.154	NaN	0.000000	0.001614	0.001644	28.0836	106.775	0.001723	61960	2.607614	171.794	499.139	1.102696	0.105223	0.104909	503.154	61960	0.099133	0.302404	1663.84	102942
465	2.000000	1.104781	7.36961e+06	-53839.1	1005.82	-29745.3	0.000000	0.000000	7.126216	510.491	NaN	0.000000	0.001664	0.001685	28.0835	111.546	0.001819	61327.1	9.929336	-14.318	522.534	1.104145	0.106994	0.106358	510.491	61327.1	0.100751	0.311228	1640.25	100435