File: remote_trans/data/nanoindenter/0828-1/data/Data_2025-08-06,11h17m57s/2025-07-22_16-23-58_1_793.txt
2025-07-22, 16:23:58, 1
Index	Phase	Displacement	Time	Pos X	Pos Y	Pos Z	Rot A	Rot B	Piezo Z	Force A	Force B	Gripper	Voltage A	Voltage B	Temperature	Amplitude force	Amplitude pos	Stiffness	Phase shift	Phase excitation	Force A raw	Displacement raw	HMax	HMax raw	Real Force	Real Stiffness	Contact Depth	Area	Hardness	Reduced Mod.
[#]	[#]	[um]	[s]	[um]	[um]	[um]	[m°]	[m°]	[um]	[uN]	[uN]	[V]	[V]	[V]	[°C]	[uN]	[um]	[N/m]	[°]	[°]	[uN]	[um]	[um]	[um]	[uN]	[N/m]	[um]	[um^2]	[MPa]	[MPa]
793	1.000000	0.002139	7.37281e+06	-39789.1	1055.82	-29792.5	0.000000	0.000000	6.002792	0.094971	NaN	0.000000	0.001645	0.001763	28.0808	0.092738	0.000902	102.795	-106.85	-163.271	0.069475	0.000874	-1.122457	-1.123722	0.094971	102.795	-1.123150	-1.025031E+15	-9.265213E-17	NaN
793	1.000000	0.012215	7.37281e+06	-39789.1	1055.82	-29792.5	0.000000	0.000000	6.012864	-0.004183	NaN	0.000000	0.001607	0.001723	28.0808	0.090786	0.001358	66.8654	-69.2587	18.3787	0.007738	0.010768	-1.112382	-1.113829	-0.004183	66.8654	-1.112335	-7.338809E+14	5.700158E-18	NaN
793	1.000000	0.022114	7.37281e+06	-39789.1	1055.82	-29792.5	0.000000	0.000000	6.022763	0.005227	NaN	0.000000	0.001622	0.001727	28.0804	0.042572	0.001650	25.8041	132.416	-166.945	0.018850	0.020738	-1.102483	-1.103859	0.005227	25.8041	-1.102635	-5.437919E+14	-9.612318E-18	NaN
793	1.000000	0.032113	7.37281e+06	-39789.1	1055.82	-29792.5	0.000000	0.000000	6.032765	0.071831	NaN	0.000000	0.001656	0.001767	28.0803	0.155215	0.001836	84.5313	99.3966	14.361	0.160074	0.030759	-1.092484	-1.093838	0.071831	84.5313	-1.093121	-4.052425E+14	-1.772534E-16	NaN
793	1.000000	0.042096	7.37281e+06	-39789.1	1055.82	-29792.5	0.000000	0.000000	6.042747	0.033932	NaN	0.000000	0.001661	0.001695	28.0803	0.124457	0.001974	63.0507	-175.978	-167.225	-0.053310	0.040768	-1.082501	-1.083829	0.033932	63.0507	-1.082904	-2.954784E+14	-1.148374E-16	NaN
793	1.000000	0.052081	7.37281e+06	-39789.1	1055.82	-29792.5	0.000000	0.000000	6.052731	0.018787	NaN	0.000000	0.001645	0.001737	28.0803	0.020871	0.001925	10.8444	-111.693	13.0267	0.052650	0.050731	-1.072516	-1.073865	0.018787	10.8444	-1.073816	-2.230732E+14	-8.422056E-17	NaN
793	1.000000	0.062081	7.37281e+06	-39789.1	1055.82	-29792.5	0.000000	0.000000	6.062729	-0.011988	NaN	0.000000	0.001642	0.001707	28.0803	0.072698	0.002035	35.7205	-146.018	-167.906	0.013368	0.060748	-1.062516	-1.063848	-0.011988	35.7205	-1.062264	-1.560454E+14	7.682445E-17	NaN
793	1.000000	0.072123	7.37281e+06	-39789.1	1055.82	-29792.5	0.000000	0.000000	6.072771	-0.037354	NaN	0.000000	0.001582	0.001811	28.0815	0.103620	0.001902	54.4811	64.3672	15.7546	0.017716	0.070728	-1.052474	-1.053869	-0.037354	54.4811	-1.051959	-1.134364E+14	3.292917E-16	NaN
793	1.000000	0.082115	7.37281e+06	-39789.1	1055.82	-29792.5	0.000000	0.000000	6.082767	0.060804	NaN	0.000000	0.001575	0.001779	28.0817	0.037902	0.002014	18.8232	92.2231	-167.125	-0.046443	0.080815	-1.042481	-1.043781	0.060804	18.8232	-1.044904	-9.118107E+13	-6.668528E-16	NaN
793	1.000000	0.092134	7.37281e+06	-39789.1	1055.82	-29792.5	0.000000	0.000000	6.092784	0.021920	NaN	0.000000	0.001575	0.001740	28.0814	0.105867	0.002027	52.2389	-158.25	8.289413	0.066585	0.090784	-1.032462	-1.033812	0.021920	52.2389	-1.032777	-6.263733E+13	-3.499502E-16	NaN
793	1.000000	0.102114	7.37281e+06	-39789.1	1055.82	-29792.5	0.000000	0.000000	6.102764	0.016429	NaN	0.000000	0.001570	0.001743	28.0817	0.121496	0.002043	59.4741	83.365	-168.06	0.124470	0.100838	-1.022483	-1.023759	0.016429	59.4741	-1.022690	-4.582972E+13	-3.584691E-16	NaN
793	1.000000	0.112135	7.37281e+06	-39789.1	1055.82	-29792.5	0.000000	0.000000	6.112786	0.040215	NaN	0.000000	0.001593	0.001737	28.0814	0.102899	0.001955	52.6272	117.241	14.0425	0.052705	0.110791	-1.012462	-1.013806	0.040215	52.6272	-1.013035	-3.398063E+13	-1.183479E-15	NaN
793	1.000000	0.122106	7.37281e+06	-39789.1	1055.82	-29792.5	0.000000	0.000000	6.122756	0.010114	NaN	0.000000	0.001612	0.001729	28.0818	0.042280	0.001894	22.3236	-47.2711	-168.301	0.077350	0.120840	-1.002491	-1.003757	0.010114	22.3236	-1.002830	-2.476712E+13	-4.083487E-16	NaN
793	1.000000	0.132150	7.37281e+06	-39789.1	1055.82	-29792.5	0.000000	0.000000	6.132803	0.088601	NaN	0.000000	0.001618	0.001756	28.0814	0.105457	0.001886	55.9068	12.4831	12.1429	0.034146	0.130800	-0.992447	-0.993796	0.088601	55.9068	-0.993635	-1.862394E+13	-4.757396E-15	NaN
793	1.000000	0.142114	7.37281e+06	-39789.1	1055.82	-29792.5	0.000000	0.000000	6.142766	0.064785	NaN	0.000000	0.001640	0.001736	28.0816	0.114609	0.001997	57.3791	-13.0498	-164.547	0.037946	0.140846	-0.982483	-0.983751	0.064785	57.3791	-0.983330	-1.352909E+13	-4.788541E-15	NaN
793	1.000000	0.152118	7.37281e+06	-39789.1	1055.82	-29792.5	0.000000	0.000000	6.152771	0.081494	NaN	0.000000	0.001614	0.001761	28.0818	0.044946	0.001969	22.8276	28.9103	12.8175	0.080858	0.150737	-0.972478	-0.973860	0.081494	22.8276	-0.975156	-1.049886E+13	-7.762212E-15	NaN
793	1.000000	0.162131	7.37281e+06	-39789.1	1055.82	-29792.5	0.000000	0.000000	6.162782	0.058500	NaN	0.000000	0.001646	0.001790	28.0818	0.042742	0.001925	22.1989	81.8219	-168.011	0.081105	0.160835	-0.962466	-0.963761	0.058500	22.1989	-0.964443	-7.529347E+12	-7.769586E-15	NaN
793	1.000000	0.172140	7.37281e+06	-39789.1	1055.82	-29792.5	0.000000	0.000000	6.172792	0.072382	NaN	0.000000	0.001687	0.001809	28.0818	0.055230	0.002006	27.5365	163.272	14.8519	0.086745	0.170779	-0.952457	-0.953818	0.072382	27.5365	-0.954429	-5.517576E+12	-1.311850E-14	NaN
793	1.000000	0.182173	7.37281e+06	-39789.1	1055.82	-29792.5	0.000000	0.000000	6.182823	0.015297	NaN	0.000000	0.001648	0.001799	28.0817	0.047571	0.001936	24.567	-18.6356	-167.545	0.009483	0.180857	-0.942424	-0.943739	0.015297	24.567	-0.942891	-3.856006E+12	-3.967144E-15	NaN
793	1.000000	0.192121	7.37281e+06	-39789.1	1055.82	-29792.5	0.000000	0.000000	6.192773	0.057519	NaN	0.000000	0.001628	0.001815	28.0821	0.027620	0.002009	13.7502	158.257	14.2452	0.056552	0.190848	-0.932476	-0.933748	0.057519	13.7502	-0.935613	-3.075707E+12	-1.870098E-14	NaN
793	1.000000	0.202138	7.37281e+06	-39789.1	1055.82	-29792.5	0.000000	0.000000	6.202785	-0.068658	NaN	0.000000	0.001647	0.001815	28.0805	0.101024	0.002114	47.7958	-58.5412	-165.762	-0.042320	0.200836	-0.922459	-0.923760	-0.068658	47.7958	-0.921381	-1.976302E+12	3.474067E-14	NaN
793	1.000000	0.212142	7.37281e+06	-39789.1	1055.82	-29792.5	0.000000	0.000000	6.212792	0.030367	NaN	0.000000	0.001635	0.001837	28.0806	0.034121	0.001977	17.2547	-162.941	13.8284	0.023966	0.210775	-0.912455	-0.913822	0.030367	17.2547	-0.913775	-1.560087E+12	-1.946502E-14	NaN
793	1.000000	0.222158	7.37281e+06	-39789.1	1055.82	-29792.5	0.000000	0.000000	6.222804	-0.075984	NaN	0.000000	0.001654	0.001806	28.0806	0.036363	0.001944	18.7019	76.6561	-165.789	-0.045240	0.220874	-0.902439	-0.903723	-0.075984	18.7019	-0.899392	-9.973536E+11	7.618574E-14	NaN
793	1.000000	0.232139	7.37281e+06	-39789.1	1055.82	-29792.5	0.000000	0.000000	6.232789	0.029434	NaN	0.000000	0.001668	0.001801	28.0806	0.097247	0.001946	49.983	126.905	14.7727	0.034278	0.230802	-0.892458	-0.893795	0.029434	49.983	-0.892900	-8.149122E+11	-3.611936E-14	NaN
793	1.000000	0.242162	7.37281e+06	-39789.1	1055.82	-29792.5	0.000000	0.000000	6.242811	-0.002834	NaN	0.000000	0.001653	0.001795	28.0803	0.137702	0.002125	64.8088	156.855	-166.608	-0.111033	0.240887	-0.882434	-0.883710	-0.002834	64.8088	-0.882402	-5.877395E+11	4.821453E-15	NaN
793	1.000000	0.252179	7.37281e+06	-39789.1	1055.82	-29792.5	0.000000	0.000000	6.252828	-0.004760	NaN	0.000000	0.001644	0.001819	28.0805	0.068307	0.001966	34.7441	-149.999	14.4434	-0.018104	0.250828	-0.872417	-0.873769	-0.004760	34.7441	-0.872315	-4.292958E+11	1.108775E-14	NaN
793	1.000000	0.262177	7.37281e+06	-39789.1	1055.82	-29792.5	0.000000	0.000000	6.262829	0.069877	NaN	0.000000	0.001641	0.001751	28.0807	0.089017	0.001862	47.8104	146.118	-164.675	0.074237	0.260884	-0.862420	-0.863713	0.069877	47.8104	-0.863516	-3.263651E+11	-2.141072E-13	NaN
793	1.000000	0.272192	7.37281e+06	-39789.1	1055.82	-29792.5	0.000000	0.000000	6.272841	-0.008496	NaN	0.000000	0.001624	0.001835	28.0805	0.054147	0.001869	28.9737	44.8782	14.5022	-0.010302	0.270815	-0.852405	-0.853782	-0.008496	28.9737	-0.852185	-2.292560E+11	3.706007E-14	NaN
793	1.000000	0.282194	7.37281e+06	-39789.1	1055.82	-29792.5	0.000000	0.000000	6.282845	0.036355	NaN	0.000000	0.001641	0.001783	28.0804	0.027980	0.002124	13.174	32.3	-168.79	0.000140	0.280910	-0.842403	-0.843687	0.036355	13.174	-0.844472	-1.802510E+11	-2.016890E-13	NaN
793	1.000000	0.292214	7.37281e+06	-39789.1	1055.82	-29792.5	0.000000	0.000000	6.292864	0.006773	NaN	0.000000	0.001646	0.001761	28.0805	0.063339	0.002072	30.5764	-72.1887	15.2307	0.070932	0.290874	-0.832383	-0.833722	0.006773	30.5764	-0.832549	-1.242593E+11	-5.450523E-14	NaN
793	1.000000	0.302203	7.37281e+06	-39789.1	1055.82	-29792.5	0.000000	0.000000	6.302854	0.050211	NaN	0.000000	0.001643	0.001787	28.0806	0.079307	0.002038	38.911	-75.4727	-162.625	0.046184	0.300916	-0.822394	-0.823681	0.050211	38.911	-0.823362	-9.328080E+10	-5.382820E-13	NaN
793	1.000000	0.312215	7.37281e+06	-39789.1	1055.82	-29792.5	0.000000	0.000000	6.312864	-0.007883	NaN	0.000000	0.001623	0.001804	28.0804	0.010755	0.001986	5.414553	35.4421	14.6252	-0.030447	0.310830	-0.812382	-0.813767	-0.007883	5.414553	-0.811290	-6.398355E+10	1.232039E-13	NaN
793	1.000000	0.322220	7.37281e+06	-39789.1	1055.82	-29792.5	0.000000	0.000000	6.322867	-0.074999	NaN	0.000000	0.001618	0.001755	28.0803	0.067425	0.002137	31.5488	-129.797	-165.46	-0.081554	0.320920	-0.802376	-0.803676	-0.074999	31.5488	-0.800593	-4.580544E+10	1.637333E-12	NaN
793	1.000000	0.332223	7.37281e+06	-39789.1	1055.82	-29792.5	0.000000	0.000000	6.332872	-0.016357	NaN	0.000000	0.001623	0.001754	28.0812	0.067362	0.002056	32.7711	-20.5234	16.3202	0.025762	0.330865	-0.792374	-0.793732	-0.016357	32.7711	-0.791999	-3.501347E+10	4.671676E-13	NaN
793	1.000000	0.342219	7.37281e+06	-39789.1	1055.82	-29792.5	0.000000	0.000000	6.342870	0.042150	NaN	0.000000	0.001638	0.001791	28.0816	0.136320	0.002059	66.2026	106.885	-168.52	-0.030688	0.340951	-0.782378	-0.783646	0.042150	66.2026	-0.782855	-2.630460E+10	-1.602385E-12	NaN
793	1.000000	0.352248	7.37281e+06	-39789.1	1055.82	-29792.5	0.000000	0.000000	6.352896	-0.012614	NaN	0.000000	0.001615	0.001726	28.082	0.057113	0.002042	27.9724	138.789	16.0119	-0.084645	0.350927	-0.772349	-0.773669	-0.012614	27.9724	-0.772011	-1.873463E+10	6.733213E-13	NaN
793	1.000000	0.362219	7.37281e+06	-39789.1	1055.82	-29792.5	0.000000	0.000000	6.362869	0.020951	NaN	0.000000	0.001681	0.001754	28.0814	0.044337	0.001904	23.282	-112.939	-167.623	0.019638	0.360895	-0.762378	-0.763702	0.020951	23.282	-0.763053	-1.415231E+10	-1.480371E-12	NaN
793	1.000000	0.372212	7.37281e+06	-39789.1	1055.82	-29792.5	0.000000	0.000000	6.372862	0.018009	NaN	0.000000	0.001681	0.001720	28.0823	0.074034	0.001927	38.4226	-48.3851	9.791527	0.008081	0.370901	-0.752384	-0.753696	0.018009	38.4226	-0.752736	-1.024370E+10	-1.758104E-12	NaN
793	1.000000	0.382233	7.37281e+06	-39789.1	1055.82	-29792.5	0.000000	0.000000	6.382882	0.006513	NaN	0.000000	0.001683	0.001795	28.0816	0.059678	0.001936	30.8276	159.953	-163.033	0.032042	0.380951	-0.742364	-0.743645	0.006513	30.8276	-0.742522	-7.437179E+9	-8.757017E-13	NaN
793	1.000000	0.392235	7.37281e+06	-39789.1	1055.82	-29792.5	0.000000	0.000000	6.392882	-0.064611	NaN	0.000000	0.001674	0.001751	28.0818	0.030488	0.002070	14.7309	34.435	11.4085	0.021388	0.390841	-0.732362	-0.733755	-0.064611	14.7309	-0.729072	-4.877087E+9	1.324796E-11	NaN
793	1.000000	0.402262	7.37281e+06	-39789.1	1055.82	-29792.5	0.000000	0.000000	6.402910	-0.017336	NaN	0.000000	0.001661	0.001768	28.0816	0.017060	0.001921	8.879349	-133.644	-165.656	-0.070921	0.400909	-0.722335	-0.723688	-0.017336	8.879349	-0.720871	-3.770062E+9	4.598308E-12	NaN
793	1.000000	0.412273	7.37281e+06	-39789.1	1055.82	-29792.5	0.000000	0.000000	6.412922	-0.005298	NaN	0.000000	0.001666	0.001712	28.0819	0.045239	0.001947	23.2347	109.682	11.8794	0.029206	0.410893	-0.712323	-0.713704	-0.005298	23.2347	-0.712152	-2.866953E+9	1.847799E-12	NaN
793	1.000000	0.422280	7.37281e+06	-39789.1	1055.82	-29792.5	0.000000	0.000000	6.422929	0.016684	NaN	0.000000	0.001635	0.001699	28.0816	0.149886	0.001994	75.1722	144.274	-165.515	-0.043980	0.420971	-0.702317	-0.703626	0.016684	75.1722	-0.702484	-2.115659E+9	-7.885833E-12	NaN
793	1.000000	0.432256	7.37281e+06	-39789.1	1055.82	-29792.5	0.000000	0.000000	6.432907	0.031851	NaN	0.000000	0.001664	0.001758	28.0819	0.104768	0.001975	53.0394	11.1218	13.9818	0.033461	0.430930	-0.692340	-0.693667	0.031851	53.0394	-0.692791	-1.559740E+9	-2.042040E-11	NaN
793	1.000000	0.442268	7.37281e+06	-39789.1	1055.82	-29792.5	0.000000	0.000000	6.442918	0.026362	NaN	0.000000	0.001657	0.001735	28.0819	0.058643	0.001914	30.631	179.362	-169.25	0.091904	0.440984	-0.682329	-0.683613	0.026362	30.631	-0.682974	-1.145199E+9	-2.301933E-11	NaN
793	1.000000	0.452268	7.37281e+06	-39789.1	1055.82	-29792.5	0.000000	0.000000	6.452918	0.006807	NaN	0.000000	0.001660	0.001716	28.0817	0.035954	0.001946	18.473	138.978	11.242	0.039786	0.450947	-0.672329	-0.673649	0.006807	18.473	-0.672605	-8.261166E+8	-8.240313E-12	NaN
793	1.000000	0.462253	7.37281e+06	-39789.1	1055.82	-29792.5	0.000000	0.000000	6.462906	0.077855	NaN	0.000000	0.001646	0.001721	28.0816	0.042296	0.002070	20.4304	-28.9333	-167.615	0.098797	0.460917	-0.662344	-0.663679	0.077855	20.4304	-0.665202	-6.541910E+8	-1.190102E-10	NaN
793	1.000000	0.472293	7.37281e+06	-39789.1	1055.82	-29792.5	0.000000	0.000000	6.472942	-0.006445	NaN	0.000000	0.001672	0.001721	28.0816	0.004311	0.001891	2.279423	37.6398	13.103	0.022114	0.470962	-0.652304	-0.653635	-0.006445	2.279423	-0.650184	-4.073359E+8	1.582224E-11	NaN
793	1.000000	0.482280	7.37281e+06	-39789.1	1055.82	-29792.5	0.000000	0.000000	6.482933	0.073237	NaN	0.000000	0.001652	0.001708	28.0807	0.068927	0.002037	33.8355	78.5257	-166.457	0.011390	0.480998	-0.642316	-0.643598	0.073237	33.8355	-0.643940	-3.344528E+8	-2.189748E-10	NaN
793	1.000000	0.492300	7.37281e+06	-39789.1	1055.82	-29792.5	0.000000	0.000000	6.492950	0.012611	NaN	0.000000	0.001659	0.001701	28.0804	0.014484	0.002004	7.227507	18.4705	15.7237	0.067342	0.490908	-0.632297	-0.633689	0.012611	7.227507	-0.633605	-2.412837E+8	-5.226550E-11	NaN
793	1.000000	0.502287	7.37281e+06	-39789.1	1055.82	-29792.5	0.000000	0.000000	6.502941	0.098241	NaN	0.000000	0.001627	0.001765	28.0805	0.013107	0.001962	6.681406	-68.798	-163.306	0.092944	0.500961	-0.622309	-0.623636	0.098241	6.681406	-0.633337	-2.392458E+8	-4.106284E-10	NaN
793	1.000000	0.512269	7.37281e+06	-39789.1	1055.82	-29792.5	0.000000	0.000000	6.512918	-0.013705	NaN	0.000000	0.001618	0.001711	28.0806	0.130889	0.002082	62.8732	172.188	16.5565	0.033571	0.510917	-0.612328	-0.613679	-0.013705	62.8732	-0.612164	-1.224306E+8	1.119374E-10	NaN
793	1.000000	0.522276	7.37281e+06	-39789.1	1055.82	-29792.5	0.000000	0.000000	6.522928	0.055858	NaN	0.000000	0.001623	0.001761	28.0805	0.069608	0.002072	33.5969	146.055	-166.985	0.093079	0.520977	-0.602321	-0.603620	0.055858	33.5969	-0.603567	-9.323595E+7	-5.990992E-10	NaN
793	1.000000	0.532320	7.37281e+06	-39789.1	1055.82	-29792.5	0.000000	0.000000	6.532971	0.048068	NaN	0.000000	0.001653	0.001769	28.0805	0.050576	0.001975	25.6022	-12.4781	14.2194	0.004122	0.530971	-0.592277	-0.593625	0.048068	25.6022	-0.593685	-6.814963E+7	-7.053324E-10	NaN
793	1.000000	0.542321	7.37281e+06	-39789.1	1055.82	-29792.5	0.000000	0.000000	6.542971	0.031826	NaN	0.000000	0.001675	0.001792	28.0806	0.015569	0.001966	7.917894	5.262901	-165.568	0.017187	0.541006	-0.582276	-0.583591	0.031826	7.917894	-0.585291	-5.220648E+7	-6.096085E-10	NaN
793	1.000000	0.552294	7.37281e+06	-39789.1	1055.82	-29792.5	0.000000	0.000000	6.552946	0.059814	NaN	0.000000	0.001647	0.001731	28.0807	0.111185	0.001945	57.1628	162.492	15.2912	0.036117	0.550937	-0.572303	-0.573660	0.059814	57.1628	-0.573087	-3.542285E+7	-1.688568E-9	NaN
793	1.000000	0.562308	7.37281e+06	-39789.1	1055.82	-29792.5	0.000000	0.000000	6.562960	0.052996	NaN	0.000000	0.001671	0.001734	28.0808	0.094508	0.001887	50.0769	-163.377	-165.863	-0.026663	0.561083	-0.562289	-0.563514	0.052996	50.0769	-0.563082	-2.576372E+7	-2.057019E-9	NaN
793	1.000000	0.572297	7.37281e+06	-39789.1	1055.82	-29792.5	0.000000	0.000000	6.572946	-0.025859	NaN	0.000000	0.001662	0.001737	28.0809	0.092668	0.001846	50.1896	133.738	10.8832	0.004632	0.570963	-0.552299	-0.553634	-0.025859	50.1896	-0.551913	-1.804873E+7	1.432712E-9	NaN
793	1.000000	0.582333	7.37281e+06	-39789.1	1055.82	-29792.5	0.000000	0.000000	6.582980	-0.034999	NaN	0.000000	0.001648	0.001747	28.081	0.090706	0.001956	46.3811	172.814	-171.09	-0.000323	0.581023	-0.542264	-0.543574	-0.034999	46.3811	-0.541698	-1.302888E+7	2.686252E-9	NaN
793	1.000000	0.592337	7.37281e+06	-39789.1	1055.82	-29792.5	0.000000	0.000000	6.592987	0.026734	NaN	0.000000	0.001621	0.001759	28.0809	0.088702	0.001990	44.5833	159.178	15.2171	0.115464	0.590961	-0.532260	-0.533635	0.026734	44.5833	-0.532710	-9.77684e+06	-2.734452E-9	NaN
793	1.000000	0.602331	7.37281e+06	-39789.1	1055.82	-29792.5	0.000000	0.000000	6.602978	-0.049513	NaN	0.000000	0.001647	0.001760	28.0806	0.102172	0.001987	51.4246	11.8257	-163.04	-0.095333	0.601011	-0.522265	-0.523586	-0.049513	51.4246	-0.521543	-6.84005e+06	7.238640E-9	NaN
793	1.000000	0.612368	7.37281e+06	-39789.1	1055.82	-29792.5	0.000000	0.000000	6.613017	-0.010864	NaN	0.000000	0.001680	0.001772	28.0818	0.119630	0.001970	60.7413	150.714	12.8815	-0.025747	0.610935	-0.512228	-0.513661	-0.010864	60.7413	-0.512094	-5.05338e+06	2.149880E-9	NaN
793	1.000000	0.622348	7.37281e+06	-39789.1	1055.82	-29792.5	0.000000	0.000000	6.623000	0.065811	NaN	0.000000	0.001654	0.001758	28.0819	0.056532	0.002083	27.1411	111.421	-166.644	0.103602	0.621031	-0.502248	-0.503566	0.065811	27.1411	-0.504067	-3.90605e+06	-1.684848E-8	NaN
793	1.000000	0.632359	7.37281e+06	-39789.1	1055.82	-29792.5	0.000000	0.000000	6.633010	0.063704	NaN	0.000000	0.001637	0.001734	28.0819	0.016320	0.001925	8.477194	-170.939	14.5455	-0.002694	0.630999	-0.492238	-0.493598	0.063704	8.477194	-0.497874	-3.20152e+06	-1.989817E-8	NaN
793	1.000000	0.642348	7.37281e+06	-39789.1	1055.82	-29792.5	0.000000	0.000000	6.642996	-0.018462	NaN	0.000000	0.001620	0.001711	28.0818	0.029335	0.002125	13.8041	-168.188	-166.982	-0.066272	0.641057	-0.482249	-0.483540	-0.018462	13.8041	-0.481246	-1.87484e+06	9.847125E-9	NaN
793	1.000000	0.652332	7.37281e+06	-39789.1	1055.82	-29792.5	0.000000	0.000000	6.652982	0.015820	NaN	0.000000	0.001643	0.001719	28.0819	0.175277	0.002035	86.1343	171.787	17.2544	0.088186	0.651056	-0.472265	-0.473541	0.015820	86.1343	-0.472403	-1.40961e+06	-1.122263E-8	NaN
793	1.000000	0.662342	7.37281e+06	-39789.1	1055.82	-29792.5	0.000000	0.000000	6.662987	-0.092556	NaN	0.000000	0.001677	0.001765	28.0819	0.117998	0.002032	58.0808	122.962	-166.98	0.028276	0.661096	-0.462255	-0.463501	-0.092556	58.0808	-0.461060	-977039	9.473065E-8	NaN
793	1.000000	0.672382	7.37281e+06	-39789.1	1055.82	-29792.5	0.000000	0.000000	6.673029	-0.061490	NaN	0.000000	0.001666	0.001764	28.082	0.005841	0.002074	2.817058	123.971	14.6312	-0.070261	0.670999	-0.452215	-0.453597	-0.061490	2.817058	-0.435844	-431198	1.426015E-7	NaN
793	1.000000	0.682346	7.37281e+06	-39789.1	1055.82	-29792.5	0.000000	0.000000	6.682998	0.050161	NaN	0.000000	0.001658	0.001771	28.0818	0.087988	0.001939	45.3798	-115.237	-165.136	0.113752	0.681054	-0.442250	-0.443543	0.050161	45.3798	-0.443079	-545521	-9.194982E-8	NaN
793	1.000000	0.692368	7.37281e+06	-39789.1	1055.82	-29792.5	0.000000	0.000000	6.693018	0.020959	NaN	0.000000	0.001693	0.001740	28.0819	0.152260	0.001990	76.5172	-162.952	14.4273	0.011481	0.691001	-0.432229	-0.433596	0.020959	76.5172	-0.432434	-385909	-5.431099E-8	NaN
793	1.000000	0.702352	7.37281e+06	-39789.1	1055.82	-29792.5	0.000000	0.000000	6.702999	-0.066055	NaN	0.000000	0.001670	0.001765	28.082	0.071412	0.001846	38.6752	-102.737	-166.867	0.091325	0.701016	-0.422245	-0.423581	-0.066055	38.6752	-0.420964	-265509	2.487880E-7	NaN
793	1.000000	0.712376	7.37281e+06	-39789.1	1055.82	-29792.5	0.000000	0.000000	6.713029	0.079753	NaN	0.000000	0.001674	0.001754	28.082	0.138382	0.002002	69.106	-170.479	11.2547	0.058058	0.711018	-0.412220	-0.413579	0.079753	69.106	-0.413086	-205242	-3.885819E-7	NaN
793	1.000000	0.722368	7.37281e+06	-39789.1	1055.82	-29792.5	0.000000	0.000000	6.723016	-0.034367	NaN	0.000000	0.001669	0.001756	28.0819	0.113593	0.002051	55.3919	-25.2715	-165.249	-0.028142	0.721112	-0.402228	-0.403485	-0.034367	55.3919	-0.401763	-141622	2.426656E-7	NaN
793	1.000000	0.732378	7.37281e+06	-39789.1	1055.82	-29792.5	0.000000	0.000000	6.733028	0.022589	NaN	0.000000	0.001672	0.001747	28.082	0.014269	0.002016	7.078433	83.0492	14.2402	0.067219	0.731031	-0.392218	-0.393565	0.022589	7.078433	-0.394612	-111967	-2.017466E-7	NaN
793	1.000000	0.742393	7.37281e+06	-39789.1	1055.82	-29792.5	0.000000	0.000000	6.743043	0.010917	NaN	0.000000	0.001648	0.001672	28.0821	0.034572	0.002010	17.2013	138.587	-166.151	0.033047	0.741065	-0.382204	-0.383532	0.010917	17.2013	-0.382680	-75566.1	-1.444750E-7	NaN
793	1.000000	0.752389	7.37282e+06	-39789.1	1055.82	-29792.5	0.000000	0.000000	6.753039	0.012617	NaN	0.000000	0.001615	0.001704	28.0807	0.018845	0.001950	9.663719	104.054	15.2721	0.032409	0.751033	-0.372207	-0.373564	0.012617	9.663719	-0.373187	-55207	-2.285328E-7	NaN
793	1.000000	0.762398	7.37282e+06	-39789.1	1055.82	-29792.5	0.000000	0.000000	6.763047	-0.011720	NaN	0.000000	0.001639	0.001723	28.0808	0.024007	0.002006	11.9656	-93.0486	-166.923	-0.056519	0.761154	-0.362198	-0.363443	-0.011720	11.9656	-0.361464	-37410.9	3.132795E-7	NaN
793	1.000000	0.772425	7.37282e+06	-39789.1	1055.82	-29792.5	0.000000	0.000000	6.773074	-0.022105	NaN	0.000000	0.001650	0.001737	28.0808	0.086241	0.002003	43.0534	34.3733	15.9087	0.003147	0.771028	-0.352171	-0.353569	-0.022105	43.0534	-0.351786	-27096.8	8.157833E-7	NaN
793	1.000000	0.782414	7.37282e+06	-39789.1	1055.82	-29792.5	0.000000	0.000000	6.783064	0.005910	NaN	0.000000	0.001602	0.001706	28.0809	0.060576	0.002064	29.3457	31.0228	-167.358	-0.041065	0.781080	-0.342182	-0.343517	0.005910	29.3457	-0.342334	-19749.3	-2.992360E-7	NaN
793	1.000000	0.792388	7.37282e+06	-39789.1	1055.82	-29792.5	0.000000	0.000000	6.793039	0.044745	NaN	0.000000	0.001610	0.001749	28.081	0.092861	0.001876	49.4914	55.2969	13.7355	0.012762	0.791065	-0.332209	-0.333532	0.044745	49.4914	-0.332887	-14378	-3.112034E-6	NaN
793	1.000000	0.802401	7.37282e+06	-39789.1	1055.82	-29792.5	0.000000	0.000000	6.803050	-0.010587	NaN	0.000000	0.001587	0.001768	28.0807	0.031689	0.002101	15.0837	158.165	-165.92	-0.093903	0.801100	-0.322196	-0.323497	-0.010587	15.0837	-0.321670	-9844.68	1.075435E-6	NaN
793	1.000000	0.812410	7.37282e+06	-39789.1	1055.82	-29792.5	0.000000	0.000000	6.813060	0.020493	NaN	0.000000	0.001600	0.001727	28.081	0.008825	0.002095	4.212372	-11.8746	7.765302	0.074898	0.811067	-0.312186	-0.313530	0.020493	4.212372	-0.315835	-8077.37	-2.537071E-6	NaN
793	1.000000	0.822418	7.37282e+06	-39789.1	1055.82	-29792.5	0.000000	0.000000	6.823068	0.024363	NaN	0.000000	0.001617	0.001691	28.0806	0.016199	0.002038	7.948096	-89.9646	-165.523	0.021701	0.821086	-0.302179	-0.303511	0.024363	7.948096	-0.304478	-5485.36	-4.441471E-6	NaN
793	1.000000	0.832404	7.37282e+06	-39789.1	1055.82	-29792.5	0.000000	0.000000	6.833053	-0.011630	NaN	0.000000	0.001632	0.001720	28.0809	0.032099	0.001994	16.0998	100.893	15.3022	-0.070329	0.831019	-0.292193	-0.293577	-0.011630	16.0998	-0.291651	-3532.03	3.292838E-6	NaN
793	1.000000	0.842429	7.37282e+06	-39789.1	1055.82	-29792.5	0.000000	0.000000	6.843077	-0.014384	NaN	0.000000	0.001623	0.001735	28.0806	0.062104	0.002046	30.3473	146.679	-168.718	0.023535	0.841115	-0.282168	-0.283481	-0.014384	30.3473	-0.281812	-2513.59	5.722324E-6	NaN
793	1.000000	0.852444	7.37282e+06	-39789.1	1055.82	-29792.5	0.000000	0.000000	6.853094	0.029716	NaN	0.000000	0.001618	0.001697	28.0812	0.045468	0.002053	22.1496	157.239	12.0418	-0.021043	0.851097	-0.272153	-0.273500	0.029716	22.1496	-0.273159	-1859.96	-1.597679E-5	NaN
793	1.000000	0.862444	7.37282e+06	-39789.1	1055.82	-29792.5	0.000000	0.000000	6.863093	-0.009584	NaN	0.000000	0.001664	0.001746	28.0806	0.049567	0.002073	23.9132	59.7924	-163.259	-0.036131	0.861122	-0.262153	-0.263475	-0.009584	23.9132	-0.261852	-1251.08	7.660672E-6	NaN
793	1.000000	0.872464	7.37282e+06	-39789.1	1055.82	-29792.5	0.000000	0.000000	6.873114	0.005561	NaN	0.000000	0.001687	0.001769	28.0808	0.145487	0.001953	74.4827	-114.219	14.0664	0.078972	0.871045	-0.252133	-0.253552	0.005561	74.4827	-0.252189	-888.748	-6.256860E-6	NaN
793	1.000000	0.882473	7.37282e+06	-39789.1	1055.82	-29792.5	0.000000	0.000000	6.883120	-0.044442	NaN	0.000000	0.001680	0.001729	28.0808	0.114571	0.001976	57.9886	-49.3265	-165.138	-0.081819	0.881132	-0.242124	-0.243464	-0.044442	57.9886	-0.241549	-607.761	7.312486E-5	NaN
793	1.000000	0.892469	7.37282e+06	-39789.1	1055.82	-29792.5	0.000000	0.000000	6.893118	-0.012661	NaN	0.000000	0.001652	0.001699	28.0822	0.031889	0.001950	16.3533	42.2945	9.729572	0.029404	0.891060	-0.232128	-0.233537	-0.012661	16.3533	-0.231547	-423.567	2.989074E-5	NaN
793	1.000000	0.902477	7.37282e+06	-39789.1	1055.82	-29792.5	0.000000	0.000000	6.903129	0.055586	NaN	0.000000	0.001662	0.001749	28.082	0.027686	0.001937	14.2909	-112.491	-167.567	0.145590	0.901084	-0.222120	-0.223513	0.055586	14.2909	-0.225037	-334.132	-0.000166	NaN
793	1.000000	0.912479	7.37282e+06	-39789.1	1055.82	-29792.5	0.000000	0.000000	6.913129	0.017389	NaN	0.000000	0.001674	0.001746	28.082	0.135222	0.001917	70.5302	-162.281	13.3819	0.017843	0.911128	-0.212118	-0.213469	0.017389	70.5302	-0.212303	-208.953	-8.322190E-5	NaN
793	1.000000	0.922424	7.37282e+06	-39789.1	1055.82	-29792.5	0.000000	0.000000	6.923071	-0.034308	NaN	0.000000	0.001652	0.001792	28.082	0.092963	0.002061	45.111	136.84	-166.197	-0.036316	0.921160	-0.202173	-0.203436	-0.034308	45.111	-0.201603	-139.96	0.000245	NaN
793	1.000000	0.932461	7.37282e+06	-39789.1	1055.82	-29792.5	0.000000	0.000000	6.933110	-0.001154	NaN	0.000000	0.001690	0.001747	28.082	0.080467	0.002130	37.7756	155.138	14.4868	-0.055597	0.931115	-0.192136	-0.193481	-0.001154	37.7756	-0.192113	-97.5567	1.182702E-5	NaN
793	1.000000	0.942420	7.37282e+06	-39789.1	1055.82	-29792.5	0.000000	0.000000	6.943069	-0.010291	NaN	0.000000	0.001645	0.001742	28.0818	0.101905	0.002025	50.3348	-46.7473	-166.44	0.033094	0.941126	-0.182177	-0.183470	-0.010291	50.3348	-0.182023	-66.0425	0.000156	NaN
793	1.000000	0.952473	7.37282e+06	-39789.1	1055.82	-29792.5	0.000000	0.000000	6.953122	-0.005062	NaN	0.000000	0.001688	0.001708	28.082	0.067367	0.002002	33.6551	54.0906	10.7918	0.033163	0.951111	-0.172124	-0.173485	-0.005062	33.6551	-0.172011	-44.5108	0.000114	NaN
793	1.000000	0.962487	7.37282e+06	-39789.1	1055.82	-29792.5	0.000000	0.000000	6.963136	0.012394	NaN	0.000000	0.001683	0.001754	28.0821	0.116395	0.001929	60.3353	-119.869	-162.09	-0.074575	0.961154	-0.162110	-0.163443	0.012394	60.3353	-0.162264	-30.0683	-0.000412	NaN
793	1.000000	0.972463	7.37282e+06	-39789.1	1055.82	-29792.5	0.000000	0.000000	6.973112	-0.008595	NaN	0.000000	0.001625	0.001738	28.0821	0.009678	0.001996	4.849699	-65.8207	9.422397	-0.065675	0.971139	-0.152134	-0.153458	-0.008595	4.849699	-0.150804	-18.7353	0.000459	NaN
793	1.000000	0.982507	7.37282e+06	-39789.1	1055.82	-29792.5	0.000000	0.000000	6.983154	-0.035859	NaN	0.000000	0.001685	0.001714	28.0821	0.115622	0.002010	57.512	71.4567	-162.929	-0.035201	0.981167	-0.142090	-0.143430	-0.035859	57.512	-0.141623	-12.6872	0.002826	NaN
793	1.000000	0.992481	7.37282e+06	-39789.1	1055.82	-29792.5	0.000000	0.000000	6.993133	0.066395	NaN	0.000000	0.001613	0.001716	28.0821	0.085809	0.002009	42.7206	95.7956	12.8911	0.053346	0.991069	-0.132116	-0.133527	0.066395	42.7206	-0.133282	-8.818438	-0.007529	NaN
793	1.000000	1.002505	7.37282e+06	-39789.1	1055.82	-29792.5	0.000000	0.000000	7.003153	-0.013216	NaN	0.000000	0.001628	0.001732	28.0823	0.060529	0.001985	30.4982	-114.846	-165.879	-0.008486	1.001144	-0.122092	-0.123452	-0.013216	30.4982	-0.121767	-5.243500	0.002520	NaN
793	1.000000	1.012505	7.37282e+06	-39789.1	1055.82	-29792.5	0.000000	0.000000	7.013156	0.044201	NaN	0.000000	0.001627	0.001707	28.082	0.025580	0.001931	13.2498	-87.6381	13.5538	0.040921	1.011188	-0.112092	-0.113409	0.044201	13.2498	-0.114594	-3.747323	-0.011795	NaN
793	1.000000	1.022497	7.37282e+06	-39789.1	1055.82	-29792.5	0.000000	0.000000	7.023144	-0.059283	NaN	0.000000	0.001633	0.001706	28.0808	0.065272	0.001961	33.2803	-34.6695	-168.549	-0.075244	1.021152	-0.102100	-0.103445	-0.059283	33.2803	-0.100764	-1.899633	0.031208	NaN
793	1.000000	1.032502	7.37282e+06	-39789.1	1055.82	-29792.5	0.000000	0.000000	7.033152	0.038144	NaN	0.000000	0.001648	0.001680	28.0808	0.098640	0.001993	49.4985	68.0825	13.9948	-0.008097	1.031135	-0.092095	-0.093462	0.038144	49.4985	-0.092673	-1.247495	-0.030576	NaN
793	1.000000	1.042511	7.37282e+06	-39789.1	1055.82	-29792.5	0.000000	0.000000	7.043161	0.002842	NaN	0.000000	0.001630	0.001739	28.0813	0.072381	0.001943	37.2558	-98.0141	-162.754	-0.009771	1.041137	-0.082085	-0.083460	0.002842	37.2558	-0.082143	-0.699651	-0.004062	NaN
793	1.000000	1.052489	7.37282e+06	-39789.1	1055.82	-29792.5	0.000000	0.000000	7.053136	-0.063632	NaN	0.000000	0.001640	0.001705	28.0808	0.026762	0.001999	13.3884	155.342	13.2631	-0.042397	1.051183	-0.072107	-0.073414	-0.063632	13.3884	-0.068543	-0.311643	0.204182	NaN
793	1.000000	1.062506	7.37282e+06	-39789.1	1055.82	-29792.5	0.000000	0.000000	7.063156	0.005121	NaN	0.000000	0.001647	0.001720	28.0809	0.098879	0.002064	47.8992	126.765	-167.834	-0.100359	1.061241	-0.062090	-0.063356	0.005121	47.8992	-0.062170	-0.207643	-0.024662	NaN
793	1.000000	1.072495	7.37282e+06	-39789.1	1055.82	-29792.5	0.000000	0.000000	7.073146	0.038876	NaN	0.000000	0.001660	0.001733	28.0807	0.083721	0.001969	42.5232	137.567	17.8817	0.002691	1.071146	-0.052102	-0.053451	0.038876	42.5232	-0.052788	-0.110681	-0.351241	NaN
793	1.000000	1.082528	7.37282e+06	-39789.1	1055.82	-29792.5	0.000000	0.000000	7.083177	-0.005134	NaN	0.000000	0.001648	0.001748	28.0809	0.075718	0.002033	37.2485	55.9577	-164.793	-0.038871	1.081254	-0.042069	-0.043342	-0.005134	37.2485	-0.041965	-0.051906	0.098913	NaN
793	1.000000	1.092537	7.37282e+06	-39789.1	1055.82	-29792.5	0.000000	0.000000	7.093188	0.028608	NaN	0.000000	0.001711	0.001748	28.0808	0.044608	0.002039	21.8729	-124.34	11.9418	0.040889	1.091157	-0.032059	-0.033439	0.028608	21.8729	-0.033040	-0.028073	-1.019032	NaN
793	1.000000	1.102523	7.37282e+06	-39789.1	1055.82	-29792.5	0.000000	0.000000	7.103172	-0.002082	NaN	0.000000	0.001708	0.001704	28.0807	0.062598	0.002133	29.3518	82.4873	-168.657	0.008363	1.101210	-0.022074	-0.023387	-0.002082	29.3518	-0.022020	-0.014138	0.147248	NaN
793	1.000000	1.112542	7.37282e+06	-39789.1	1055.82	-29792.5	0.000000	0.000000	7.113189	-0.046733	NaN	0.000000	0.001707	0.001720	28.0807	0.036644	0.002092	17.519	0.667482	17.773	-0.086073	1.111200	-0.012055	-0.013397	-0.046733	17.519	-0.010054	-0.006418	7.281304	NaN
793	1.000000	1.122561	7.37282e+06	-39789.1	1055.82	-29792.5	0.000000	0.000000	7.123211	0.024998	NaN	0.000000	0.001712	0.001667	28.0804	0.097893	0.001985	49.3175	39.2581	-164.609	0.051316	1.121235	-0.002036	-0.003361	0.024998	49.3175	-0.002416	-0.001726	-14.4871	NaN
793	2.000000	1.132236	7.37282e+06	-39789.1	1055.82	-29792.5	0.000000	0.000000	7.133243	8.714567	NaN	0.000000	0.001747	0.001697	28.0808	8.026609	0.001677	4785.86	10.938	8.300254	7.013201	1.131185	0.007639	0.006589	8.714567	4785.86	0.006273	0.005326	1636.31	59916
793	2.000000	1.135122	7.37282e+06	-39789.1	1055.82	-29792.5	0.000000	0.000000	7.136288	12.5683	NaN	0.000000	0.001721	0.001719	28.0808	10.9249	0.001651	6618.49	5.963788	-172.516	12.2053	1.134821	0.010525	0.010225	12.5683	6618.49	0.009101	0.008199	1532.82	66779
793	2.000000	1.137592	7.37282e+06	-39789.1	1055.82	-29792.5	0.000000	0.000000	7.138873	15.3947	NaN	0.000000	0.001689	0.001747	28.081	13.658	0.001764	7743.71	2.861422	8.976740	14.1667	1.137262	0.012995	0.012665	15.3947	7743.71	0.011504	0.010901	1412.22	67762.2
793	2.000000	1.140062	7.37282e+06	-39789.1	1055.82	-29792.5	0.000000	0.000000	7.141541	20.2064	NaN	0.000000	0.001748	0.001662	28.0818	16.7955	0.001771	9484.25	7.963138	-177.838	19.3591	1.139790	0.015465	0.015193	20.2064	9484.25	0.013867	0.013804	1463.8	73751.7
793	2.000000	1.142618	7.37282e+06	-39789.1	1055.82	-29792.5	0.000000	0.000000	7.144349	26.3291	NaN	0.000000	0.001722	0.001704	28.0819	18.7035	0.001873	9988.22	7.564650	3.978183	26.8345	1.142162	0.018021	0.017565	26.3291	9988.22	0.016044	0.016703	1576.27	70608.8
793	2.000000	1.145029	7.37282e+06	-39789.1	1055.82	-29792.5	0.000000	0.000000	7.146962	31.2346	NaN	0.000000	0.001748	0.001695	28.0818	20.9545	0.001656	12653	0.605253	-174.449	29.9796	1.144767	0.020433	0.020170	31.2346	12653	0.018581	0.020362	1533.97	81013.4
793	2.000000	1.147550	7.37282e+06	-39789.1	1055.82	-29792.5	0.000000	0.000000	7.149725	37.1295	NaN	0.000000	0.001693	0.001733	28.0822	24.8975	0.001808	13771	6.998207	-0.277980	36.3565	1.147129	0.022954	0.022533	37.1295	13771	0.020931	0.024027	1545.32	81168.6
793	2.000000	1.150040	7.37282e+06	-39789.1	1055.82	-29792.5	0.000000	0.000000	7.152403	41.6843	NaN	0.000000	0.001710	0.001711	28.0819	27.8927	0.002023	13789.6	5.719530	-178.935	40.9008	1.149727	0.025444	0.025130	41.6843	13789.6	0.023176	0.027782	1500.43	75587.1
793	2.000000	1.152547	7.37282e+06	-39789.1	1055.82	-29792.5	0.000000	0.000000	7.155443	54.6812	NaN	0.000000	0.001745	0.001730	28.0819	29.7225	0.001803	16482.7	4.904816	0.387534	53.2969	1.152157	0.027950	0.027560	54.6812	16482.7	0.025462	0.031862	1716.21	84366.1
793	2.000000	1.155039	7.37282e+06	-39789.1	1055.82	-29792.5	0.000000	0.000000	7.158213	61.4427	NaN	0.000000	0.001734	0.001702	28.082	31.1836	0.001867	16704.4	3.824226	-178.448	60.2274	1.154671	0.030443	0.030074	61.4427	16704.4	0.027684	0.036080	1702.96	80347.3
793	2.000000	1.157474	7.37282e+06	-39789.1	1055.82	-29792.5	0.000000	0.000000	7.161077	71.8788	NaN	0.000000	0.001707	0.001698	28.082	33.3759	0.001811	18429.4	2.172978	2.751268	68.2907	1.157142	0.032877	0.032545	71.8788	18429.4	0.029952	0.040644	1768.51	83519.6
793	2.000000	1.159954	7.37282e+06	-39789.1	1055.82	-29792.5	0.000000	0.000000	7.163878	79.6941	NaN	0.000000	0.001701	0.001744	28.0817	35.8999	0.001724	20829.2	0.551162	-177.763	75.36	1.159623	0.035357	0.035027	79.6941	20829.2	0.032488	0.046058	1730.29	88673.1
793	2.000000	1.162542	7.37282e+06	-39789.1	1055.82	-29792.5	0.000000	0.000000	7.166715	85.7522	NaN	0.000000	0.001643	0.001708	28.0818	37.8798	0.001745	21708.9	5.335928	-1.557745	85.0678	1.162120	0.037945	0.037524	85.7522	21708.9	0.034982	0.051705	1658.5	87225.8
793	2.000000	1.164930	7.37282e+06	-39789.1	1055.82	-29792.5	0.000000	0.000000	7.169549	96.6046	NaN	0.000000	0.001666	0.001703	28.082	39.7804	0.001749	22747.6	-0.237619	-177.95	93.132	1.164722	0.040333	0.040125	96.6046	22747.6	0.037148	0.056865	1698.83	87153.4
793	2.000000	1.167461	7.37282e+06	-39789.1	1055.82	-29792.5	0.000000	0.000000	7.172633	110.075	NaN	0.000000	0.001635	0.001703	28.0818	42.3642	0.001757	24106.2	2.211079	0.071932	106.951	1.167031	0.042864	0.042434	110.075	24106.2	0.039439	0.062587	1758.74	88035.6
793	2.000000	1.170016	7.37282e+06	-39789.1	1055.82	-29792.5	0.000000	0.000000	7.175179	109.833	NaN	0.000000	0.001645	0.001724	28.0818	45.8047	0.001783	25685.6	4.913983	175.862	110.479	1.169833	0.045419	0.045237	109.833	25685.6	0.042212	0.069870	1571.97	88780.4
793	2.000000	1.172548	7.37282e+06	-39789.1	1055.82	-29792.5	0.000000	0.000000	7.178324	124.752	NaN	0.000000	0.001629	0.001715	28.0815	47.668	0.001794	26567.9	6.336945	-5.411900	125.129	1.172146	0.047951	0.047549	124.752	26567.9	0.044430	0.075976	1641.99	88062.7
793	2.000000	1.175053	7.37282e+06	-39789.1	1055.82	-29792.5	0.000000	0.000000	7.181329	136.923	NaN	0.000000	0.001643	0.001719	28.081	49.7354	0.001832	27143.3	5.735996	175.183	139.447	1.174694	0.050456	0.050097	136.923	27143.3	0.046673	0.082408	1661.54	86387.8
793	2.000000	1.177455	7.37282e+06	-39789.1	1055.82	-29792.5	0.000000	0.000000	7.184200	148.349	NaN	0.000000	0.001646	0.001696	28.0808	52.0336	0.001761	29545.9	5.564055	-5.989228	145.663	1.177224	0.052858	0.052628	148.349	29545.9	0.049092	0.089629	1655.16	90166.9
793	2.000000	1.180005	7.37282e+06	-39789.1	1055.82	-29792.5	0.000000	0.000000	7.187173	158.649	NaN	0.000000	0.001645	0.001716	28.0806	54.8791	0.001779	30843.4	2.291163	177.058	158.978	1.179751	0.055408	0.055154	158.649	30843.4	0.051550	0.097265	1631.1	90356.1
793	2.000000	1.182495	7.37282e+06	-39789.1	1055.82	-29792.5	0.000000	0.000000	7.190341	175.13	NaN	0.000000	0.001698	0.001713	28.0808	56.6027	0.001855	30506.9	3.958819	-4.041103	171.71	1.182152	0.057899	0.057556	175.13	30506.9	0.053593	0.103842	1686.51	86493.7
793	2.000000	1.184961	7.37282e+06	-39789.1	1055.82	-29792.5	0.000000	0.000000	7.193406	189.714	NaN	0.000000	0.001662	0.001700	28.0808	57.5466	0.001808	31830.6	0.297812	178.997	186.21	1.184650	0.060364	0.060054	189.714	31830.6	0.055894	0.111498	1701.51	87093.6
793	2.000000	1.187432	7.37282e+06	-39789.1	1055.82	-29792.5	0.000000	0.000000	7.196445	203.513	NaN	0.000000	0.001676	0.001730	28.0808	61.0268	0.001835	33262	4.695317	-4.908873	198.173	1.187074	0.062836	0.062478	203.513	33262	0.058247	0.119597	1701.66	87874.3
793	2.000000	1.189965	7.37282e+06	-39789.1	1055.82	-29792.5	0.000000	0.000000	7.199338	212.276	NaN	0.000000	0.001667	0.001731	28.0807	63.4437	0.001711	37079	7.694091	170.208	209.8	1.189743	0.065369	0.065147	212.276	37079	0.061075	0.129692	1636.77	94068.7
793	2.000000	1.192518	7.37282e+06	-39789.1	1055.82	-29792.5	0.000000	0.000000	7.202607	229.703	NaN	0.000000	0.001648	0.001702	28.0809	65.013	0.001728	37624.1	4.871264	-6.285286	229.087	1.192123	0.067922	0.067526	229.703	37624.1	0.063343	0.138067	1663.71	92511.3
793	2.000000	1.195024	7.37282e+06	-39789.1	1055.82	-29792.5	0.000000	0.000000	7.205662	243.062	NaN	0.000000	0.001615	0.001711	28.0808	67.6632	0.001839	36784.9	4.789926	174.371	245.899	1.194585	0.070427	0.069988	243.062	36784.9	0.065472	0.146157	1663.03	87909
793	2.000000	1.197439	7.37282e+06	-39789.1	1055.82	-29792.5	0.000000	0.000000	7.208684	257.847	NaN	0.000000	0.001646	0.001720	28.0808	69.9852	0.001905	36744.5	8.256916	-9.377142	255.139	1.197043	0.072842	0.072446	257.847	36744.5	0.067579	0.154381	1670.2	85441.5
793	2.000000	1.199907	7.37282e+06	-39789.1	1055.82	-29792.5	0.000000	0.000000	7.211819	274.083	NaN	0.000000	0.001644	0.001692	28.0806	71.4036	0.001744	40932.8	3.735481	173.564	269.904	1.199475	0.075310	0.074879	274.083	40932.8	0.070288	0.165262	1658.47	91993.8
793	2.000000	1.202466	7.37282e+06	-39789.1	1055.82	-29792.5	0.000000	0.000000	7.215065	290.779	NaN	0.000000	0.001651	0.001675	28.0809	73.1034	0.001853	39460.7	4.990994	-5.992579	287.392	1.202102	0.077869	0.077505	290.779	39460.7	0.072343	0.173749	1673.56	86492.3
793	2.000000	1.204923	7.37282e+06	-39789.1	1055.82	-29792.5	0.000000	0.000000	7.218222	307.823	NaN	0.000000	0.001641	0.001700	28.0807	75.8539	0.001813	41849.6	5.956274	171.511	305.615	1.204598	0.080326	0.080002	307.823	41849.6	0.074810	0.184201	1671.12	89087.7
793	2.000000	1.207396	7.37282e+06	-39789.1	1055.82	-29792.5	0.000000	0.000000	7.221376	324.379	NaN	0.000000	0.001663	0.001674	28.082	77.5375	0.001772	43769.4	1.213545	-4.384468	319.451	1.207088	0.082800	0.082491	324.379	43769.4	0.077241	0.194786	1665.31	90607.8
793	2.000000	1.209965	7.37282e+06	-39789.1	1055.82	-29792.5	0.000000	0.000000	7.224751	344.01	NaN	0.000000	0.001636	0.001670	28.0819	82.024	0.001816	45155.5	7.486014	169.745	343.49	1.209629	0.085369	0.085032	344.01	45155.5	0.079655	0.205565	1673.49	90993.4
793	2.000000	1.212430	7.37282e+06	-39789.1	1055.82	-29792.5	0.000000	0.000000	7.227617	353.769	NaN	0.000000	0.001663	0.001731	28.0827	82.8435	0.001778	46594.5	5.004834	-8.564232	347.526	1.212279	0.087833	0.087682	353.769	46594.5	0.082138	0.216940	1630.72	91398.2
793	2.000000	1.214901	7.37282e+06	-39789.1	1055.82	-29792.5	0.000000	0.000000	7.231339	384.2	NaN	0.000000	0.001605	0.001692	28.0819	85.1355	0.001720	49503.9	5.033280	171.011	380.611	1.214629	0.090304	0.090032	384.2	49503.9	0.084483	0.227944	1685.5	94732.4
793	2.000000	1.217332	7.37282e+06	-39789.1	1055.82	-29792.5	0.000000	0.000000	7.234359	398.529	NaN	0.000000	0.001644	0.001739	28.082	87.5844	0.001785	49056.2	7.400206	-11.2823	391.554	1.216958	0.092736	0.092361	398.529	49056.2	0.086643	0.238301	1672.38	91813
793	2.000000	1.219841	7.37282e+06	-39789.1	1055.82	-29792.5	0.000000	0.000000	7.237631	417.112	NaN	0.000000	0.001657	0.001727	28.0819	90.7126	0.001817	49922.8	3.986599	172.124	411.442	1.219571	0.095244	0.094974	417.112	49922.8	0.088977	0.249740	1670.18	91269.9
793	2.000000	1.222393	7.37282e+06	-39789.1	1055.82	-29792.5	0.000000	0.000000	7.240778	431.588	NaN	0.000000	0.001617	0.001752	28.0826	91.7354	0.001705	53801.9	2.770098	-7.150346	425.556	1.222232	0.097797	0.097635	431.588	53801.9	0.091780	0.263804	1636.02	95704
793	2.000000	1.224840	7.37282e+06	-39789.1	1055.82	-29792.5	0.000000	0.000000	7.244225	455.93	NaN	0.000000	0.001605	0.001758	28.082	93.6926	0.001757	53322.6	4.154151	171.874	452.062	1.224610	0.100243	0.100014	455.93	53322.6	0.093830	0.274317	1662.05	93016.1
793	2.000000	1.227353	7.37282e+06	-39789.1	1055.82	-29792.5	0.000000	0.000000	7.247672	478.644	NaN	0.000000	0.001641	0.001742	28.0822	97.0657	0.001849	52490.6	4.518689	-8.652995	472.559	1.227028	0.102756	0.102432	478.644	52490.6	0.095917	0.285220	1678.16	89797.6
793	2.000000	1.229979	7.37282e+06	-39789.1	1055.82	-29792.5	0.000000	0.000000	7.251104	498.277	NaN	0.000000	0.001697	0.001701	28.082	100.935	0.001761	57305.6	10.2705	165.591	500.327	1.229513	0.105382	0.104917	498.277	57305.6	0.098861	0.300932	1655.78	95441.2
793	2.000000	1.230800	7.37282e+06	-39789.1	1055.82	-29792.5	0.000000	0.000000	7.252195	504.838	NaN	0.000000	0.001695	0.001728	28.0821	100.333	0.001785	56219.7	4.206832	170.939	495.567	1.230536	0.106203	0.105939	504.838	56219.7	0.099468	0.304223	1659.43	93124.9