File: remote_trans/data/nanoindenter/0828-1/data/Data_2025-08-06,11h17m57s/2025-07-22_16-23-58_1_68.txt
2025-07-22, 16:23:58, 1
Index	Phase	Displacement	Time	Pos X	Pos Y	Pos Z	Rot A	Rot B	Piezo Z	Force A	Force B	Gripper	Voltage A	Voltage B	Temperature	Amplitude force	Amplitude pos	Stiffness	Phase shift	Phase excitation	Force A raw	Displacement raw	HMax	HMax raw	Real Force	Real Stiffness	Contact Depth	Area	Hardness	Reduced Mod.
[#]	[#]	[um]	[s]	[um]	[um]	[um]	[m°]	[m°]	[um]	[uN]	[uN]	[V]	[V]	[V]	[°C]	[uN]	[um]	[N/m]	[°]	[°]	[uN]	[um]	[um]	[um]	[uN]	[N/m]	[um]	[um^2]	[MPa]	[MPa]
68	1.000000	0.002016	7.36571e+06	-42039.1	955.819	-29784.7	0.000000	0.000000	6.002810	-0.008813	NaN	0.000000	0.001551	0.001711	28.1132	0.018404	0.000943	19.5136	162.183	-155.26	-0.036180	0.000770	-1.055996	-1.057243	-0.008813	19.5136	-1.055657	-1.271919E+14	6.929219E-17	NaN
68	1.000000	0.009990	7.36571e+06	-42039.1	955.818	-29784.7	0.000000	0.000000	6.010783	-0.033026	NaN	0.000000	0.001556	0.001750	28.1124	0.074263	0.000903	82.2201	-91.0973	-162.559	-0.032816	0.008620	-1.048022	-1.049393	-0.033026	82.2201	-1.047721	-9.948850E+13	3.319605E-16	NaN
68	1.000000	0.017964	7.36571e+06	-42039.1	955.818	-29784.7	0.000000	0.000000	6.018754	-0.086492	NaN	0.000000	0.001565	0.001738	28.1133	0.119442	0.001725	69.2517	136.092	-165.391	-0.093864	0.016687	-1.040049	-1.041326	-0.086492	69.2517	-1.039112	-7.621278E+13	1.134876E-15	NaN
68	1.000000	0.026007	7.36571e+06	-42039.1	955.818	-29784.7	0.000000	0.000000	6.026799	-0.047072	NaN	0.000000	0.001567	0.001732	28.1117	0.051942	0.001739	29.869	-97.2907	-161.856	-0.010759	0.024657	-1.032006	-1.033355	-0.047072	29.869	-1.030824	-5.896061E+13	7.983592E-16	NaN
68	1.000000	0.033999	7.36571e+06	-42039.1	955.819	-29784.7	0.000000	0.000000	6.034793	0.005725	NaN	0.000000	0.001550	0.001731	28.1117	0.075552	0.001884	40.1115	-104.519	-166.898	-0.096663	0.032685	-1.024014	-1.025327	0.005725	40.1115	-1.024121	-4.790616E+13	-1.195083E-16	NaN
68	1.000000	0.041954	7.36571e+06	-42039.1	955.818	-29784.7	0.000000	0.000000	6.042749	0.014688	NaN	0.000000	0.001556	0.001718	28.1124	0.054400	0.001933	28.1497	1.007849	-163.09	0.007982	0.040660	-1.016059	-1.017352	0.014688	28.1497	-1.016450	-3.777313E+13	-3.888428E-16	NaN
68	1.000000	0.049971	7.36571e+06	-42039.1	955.818	-29784.7	0.000000	0.000000	6.050764	-0.028300	NaN	0.000000	0.001564	0.001721	28.1119	0.047461	0.001969	24.1054	-15.7492	-164.906	-0.042053	0.048653	-1.008041	-1.009360	-0.028300	24.1054	-1.007161	-2.832473E+13	9.991249E-16	NaN
68	1.000000	0.057975	7.36571e+06	-42039.1	955.818	-29784.7	0.000000	0.000000	6.058770	0.038219	NaN	0.000000	0.001569	0.001733	28.1116	0.067365	0.002128	31.6546	11.6359	-166.73	0.017013	0.056648	-1.000038	-1.001365	0.038219	31.6546	-1.000943	-2.335975E+13	-1.636117E-15	NaN
68	1.000000	0.065991	7.36571e+06	-42039.1	955.818	-29784.7	0.000000	0.000000	6.066784	-0.027722	NaN	0.000000	0.001539	0.001713	28.1138	0.090564	0.002036	44.4897	-150.817	-164.537	-0.009172	0.064656	-0.992022	-0.993356	-0.027722	44.4897	-0.991554	-1.746012E+13	1.587756E-15	NaN
68	1.000000	0.073986	7.36571e+06	-42039.1	955.817	-29784.7	0.000000	0.000000	6.074776	-0.088569	NaN	0.000000	0.001561	0.001689	28.1144	0.016074	0.001899	8.466023	-77.0887	-163.13	-0.082000	0.072659	-0.984027	-0.985353	-0.088569	8.466023	-0.976180	-1.083796E+13	8.172106E-15	NaN
68	1.000000	0.081992	7.36571e+06	-42039.1	955.818	-29784.7	0.000000	0.000000	6.082788	0.027253	NaN	0.000000	0.001584	0.001695	28.1149	0.030870	0.001968	15.6892	0.809139	-164.649	0.022938	0.080632	-0.976020	-0.977380	0.027253	15.6892	-0.977323	-1.122898E+13	-2.427036E-15	NaN
68	1.000000	0.089988	7.36571e+06	-42039.1	955.819	-29784.7	0.000000	0.000000	6.090780	-0.071260	NaN	0.000000	0.001559	0.001719	28.1143	0.078908	0.002060	38.3114	-94.8441	-162.381	-0.024576	0.088675	-0.968024	-0.969338	-0.071260	38.3114	-0.966629	-8.058024E+12	8.843315E-15	NaN
68	1.000000	0.097970	7.36571e+06	-42039.1	955.818	-29784.7	0.000000	0.000000	6.098762	-0.054513	NaN	0.000000	0.001580	0.001719	28.1135	0.038216	0.002010	19.017	-166.574	-163.991	-0.044145	0.096658	-0.960043	-0.961354	-0.054513	19.017	-0.957893	-6.144126E+12	8.872431E-15	NaN
68	1.000000	0.106002	7.36571e+06	-42039.1	955.817	-29784.7	0.000000	0.000000	6.106795	-0.021703	NaN	0.000000	0.001547	0.001706	28.1126	0.072684	0.001977	36.7615	52.1362	-164.476	-0.028139	0.104695	-0.952011	-0.953317	-0.021703	36.7615	-0.951568	-5.048647E+12	4.298856E-15	NaN
68	1.000000	0.113997	7.36571e+06	-42039.1	955.819	-29784.7	0.000000	0.000000	6.114789	-0.069269	NaN	0.000000	0.001536	0.001698	28.1128	0.118231	0.002019	58.5666	-130.933	-167.487	-0.073455	0.112711	-0.944015	-0.945302	-0.069269	58.5666	-0.943128	-3.884496E+12	1.783217E-14	NaN
68	1.000000	0.121996	7.36571e+06	-42039.1	955.818	-29784.7	0.000000	0.000000	6.122789	-0.024792	NaN	0.000000	0.001551	0.001745	28.1121	0.081572	0.001966	41.4976	-84.228	-167.063	-0.086587	0.120631	-0.936016	-0.937381	-0.024792	41.4976	-0.935568	-3.071446E+12	8.071647E-15	NaN
68	1.000000	0.129988	7.36571e+06	-42039.1	955.819	-29784.7	0.000000	0.000000	6.130780	-0.068649	NaN	0.000000	0.001573	0.001795	28.1133	0.127791	0.001960	65.1995	-169.048	-166.765	-0.073043	0.128644	-0.928024	-0.929368	-0.068649	65.1995	-0.927235	-2.370669E+12	2.895753E-14	NaN
68	1.000000	0.137997	7.36571e+06	-42039.1	955.818	-29784.7	0.000000	0.000000	6.138788	-0.074553	NaN	0.000000	0.001548	0.001777	28.1125	0.138420	0.001983	69.7959	21.8672	-161.679	-0.058190	0.136707	-0.920015	-0.921305	-0.074553	69.7959	-0.919214	-1.847553E+12	4.035221E-14	NaN
68	1.000000	0.146038	7.36571e+06	-42039.1	955.818	-29784.7	0.000000	0.000000	6.146830	-0.044216	NaN	0.000000	0.001534	0.001701	28.1141	0.024634	0.001981	12.4343	35.1441	-165.205	0.018026	0.144725	-0.911974	-0.913288	-0.044216	12.4343	-0.909307	-1.357711E+12	3.256675E-14	NaN
68	1.000000	0.154016	7.36571e+06	-42039.1	955.819	-29784.7	0.000000	0.000000	6.154809	-0.020936	NaN	0.000000	0.001562	0.001737	28.1136	0.028079	0.002144	13.0981	-89.021	-166.003	-0.042769	0.152756	-0.903997	-0.905256	-0.020936	13.0981	-0.902798	-1.108850E+12	1.888082E-14	NaN
68	1.000000	0.161991	7.36571e+06	-42039.1	955.819	-29784.7	0.000000	0.000000	6.162783	-0.049388	NaN	0.000000	0.001567	0.001746	28.1133	0.011324	0.001925	5.882705	120.684	-164.104	-0.069670	0.160734	-0.896022	-0.897279	-0.049388	5.882705	-0.889725	-7.382481E+11	6.689836E-14	NaN
68	1.000000	0.169985	7.36571e+06	-42039.1	955.818	-29784.7	0.000000	0.000000	6.170777	-0.045260	NaN	0.000000	0.001506	0.001736	28.1134	0.086202	0.001948	44.2528	87.377	-164.917	-0.086359	0.168682	-0.888028	-0.889331	-0.045260	44.2528	-0.887261	-6.837251E+11	6.619691E-14	NaN
68	1.000000	0.178027	7.36571e+06	-42039.1	955.818	-29784.7	0.000000	0.000000	6.178820	-0.024442	NaN	0.000000	0.001562	0.001692	28.1133	0.054199	0.001980	27.3749	-105.583	-165.298	-0.081898	0.176703	-0.879986	-0.881309	-0.024442	27.3749	-0.879316	-5.338960E+11	4.578124E-14	NaN
68	1.000000	0.186005	7.36571e+06	-42039.1	955.817	-29784.7	0.000000	0.000000	6.186796	-0.059004	NaN	0.000000	0.001564	0.001697	28.1114	0.032143	0.002056	15.6368	8.281105	-165.866	-0.135242	0.184737	-0.872008	-0.873275	-0.059004	15.6368	-0.869178	-3.893311E+11	1.515519E-13	NaN
68	1.000000	0.193995	7.36571e+06	-42039.1	955.818	-29784.7	0.000000	0.000000	6.194789	0.008794	NaN	0.000000	0.001575	0.001718	28.1115	0.045393	0.002034	22.3119	144.028	-163.44	-0.036261	0.192753	-0.864018	-0.865260	0.008794	22.3119	-0.864313	-3.345779E+11	-2.628285E-14	NaN
68	1.000000	0.201987	7.36571e+06	-42039.1	955.819	-29784.7	0.000000	0.000000	6.202781	-0.017579	NaN	0.000000	0.001586	0.001709	28.1107	0.103998	0.002087	49.8211	-142.79	-167.502	-0.008511	0.200743	-0.856025	-0.857269	-0.017579	49.8211	-0.855760	-2.562904E+11	6.858857E-14	NaN
68	1.000000	0.210043	7.36571e+06	-42039.1	955.818	-29784.7	0.000000	0.000000	6.210835	-0.062707	NaN	0.000000	0.001562	0.001675	28.1114	0.100278	0.001924	52.1122	55.025	-162.126	-0.038198	0.208768	-0.847970	-0.849244	-0.062707	52.1122	-0.847067	-1.954424E+11	3.208485E-13	NaN
68	1.000000	0.218017	7.36571e+06	-42039.1	955.817	-29784.7	0.000000	0.000000	6.218809	-0.076672	NaN	0.000000	0.001539	0.001698	28.1101	0.082996	0.002032	40.851	-73.8336	-160.938	-0.097312	0.216672	-0.839995	-0.841340	-0.076672	40.851	-0.838587	-1.500215E+11	5.110735E-13	NaN
68	1.000000	0.226019	7.36571e+06	-42039.1	955.818	-29784.7	0.000000	0.000000	6.226811	-0.063269	NaN	0.000000	0.001552	0.001655	28.1112	0.045291	0.001965	23.0513	-110.64	-163.763	-0.011936	0.224703	-0.831993	-0.833310	-0.063269	23.0513	-0.829935	-1.145247E+11	5.524503E-13	NaN
68	1.000000	0.234036	7.36571e+06	-42039.1	955.818	-29784.7	0.000000	0.000000	6.234830	-0.006369	NaN	0.000000	0.001534	0.001740	28.111	0.011310	0.001985	5.697447	42.8292	-163.436	-0.038789	0.232751	-0.823977	-0.825262	-0.006369	5.697447	-0.823138	-9.263302E+10	6.875806E-14	NaN
68	1.000000	0.242052	7.36571e+06	-42039.1	955.818	-29784.7	0.000000	0.000000	6.242847	0.014686	NaN	0.000000	0.001531	0.001712	28.1114	0.043021	0.002043	21.0536	-166.538	-163.981	0.040865	0.240745	-0.815961	-0.817268	0.014686	21.0536	-0.816484	-7.525324E+10	-1.951484E-13	NaN
68	1.000000	0.250015	7.36571e+06	-42039.1	955.819	-29784.7	0.000000	0.000000	6.250810	0.042235	NaN	0.000000	0.001537	0.001699	28.1115	0.030443	0.001924	15.8241	-33.4315	-167.611	0.067325	0.248725	-0.807998	-0.809287	0.042235	15.8241	-0.810000	-6.145635E+10	-6.872390E-13	NaN
68	1.000000	0.258037	7.36571e+06	-42039.1	955.817	-29784.7	0.000000	0.000000	6.258831	-0.012793	NaN	0.000000	0.001559	0.001698	28.1118	0.114282	0.002169	52.6997	-120.534	-166.217	-0.023892	0.256690	-0.799975	-0.801323	-0.012793	52.6997	-0.799793	-4.467370E+10	2.863625E-13	NaN
68	1.000000	0.266020	7.36571e+06	-42039.1	955.818	-29784.7	0.000000	0.000000	6.266813	-0.029747	NaN	0.000000	0.001571	0.001695	28.1102	0.075479	0.001981	38.1077	-53.3024	-164.135	-0.045416	0.264783	-0.791993	-0.793229	-0.029747	38.1077	-0.791407	-3.437143E+10	8.654461E-13	NaN
68	1.000000	0.274043	7.36571e+06	-42039.1	955.818	-29784.7	0.000000	0.000000	6.274836	-0.028854	NaN	0.000000	0.001566	0.001704	28.1098	0.055163	0.001897	29.0829	165.657	-165.38	-0.053825	0.272757	-0.783969	-0.785256	-0.028854	29.0829	-0.783225	-2.661047E+10	1.084322E-12	NaN
68	1.000000	0.282088	7.36571e+06	-42039.1	955.818	-29784.7	0.000000	0.000000	6.282883	0.022000	NaN	0.000000	0.001569	0.001704	28.1099	0.115645	0.001966	58.833	89.5803	-165.93	0.046936	0.280822	-0.775924	-0.777191	0.022000	58.833	-0.776205	-2.136264E+10	-1.029829E-12	NaN
68	1.000000	0.290069	7.36571e+06	-42039.1	955.818	-29784.7	0.000000	0.000000	6.290861	-0.042543	NaN	0.000000	0.001535	0.001712	28.1093	0.027986	0.002050	13.6529	101.136	-165.615	-0.050469	0.288733	-0.767944	-0.769279	-0.042543	13.6529	-0.765607	-1.533081E+10	2.774970E-12	NaN
68	1.000000	0.298055	7.36571e+06	-42039.1	955.819	-29784.7	0.000000	0.000000	6.298848	-0.029365	NaN	0.000000	0.001559	0.001715	28.1105	0.058015	0.002045	28.364	128.719	-165.389	0.000352	0.296773	-0.759957	-0.761240	-0.029365	28.364	-0.759181	-1.253603E+10	2.342445E-12	NaN
68	1.000000	0.306061	7.36571e+06	-42039.1	955.818	-29784.7	0.000000	0.000000	6.306853	-0.044630	NaN	0.000000	0.001550	0.001709	28.1106	0.096605	0.002068	46.7248	-17.6038	-164.753	0.016703	0.304756	-0.751952	-0.753256	-0.044630	46.7248	-0.751235	-9.773209E+9	4.566572E-12	NaN
68	1.000000	0.314061	7.36571e+06	-42039.1	955.819	-29784.7	0.000000	0.000000	6.314854	-0.025181	NaN	0.000000	0.001549	0.001702	28.1114	0.045091	0.002094	21.5306	-142.075	-165.714	-0.016992	0.312757	-0.743951	-0.745255	-0.025181	21.5306	-0.743074	-7.567039E+9	3.327729E-12	NaN
68	1.000000	0.322066	7.36571e+06	-42039.1	955.819	-29784.7	0.000000	0.000000	6.322859	-0.019210	NaN	0.000000	0.001528	0.001762	28.1103	0.083874	0.001833	45.7572	-136.006	-165.57	0.002437	0.320782	-0.735947	-0.737231	-0.019210	45.7572	-0.735632	-5.991712E+9	3.206074E-12	NaN
68	1.000000	0.330074	7.36571e+06	-42039.1	955.819	-29784.7	0.000000	0.000000	6.330869	0.023055	NaN	0.000000	0.001534	0.001717	28.1104	0.080087	0.001948	41.1226	50.0728	-160.927	-0.030917	0.328786	-0.727939	-0.729226	0.023055	41.1226	-0.728359	-4.769199E+9	-4.834055E-12	NaN
68	1.000000	0.338098	7.36571e+06	-42039.1	955.819	-29784.7	0.000000	0.000000	6.338890	-0.054954	NaN	0.000000	0.001517	0.001720	28.1122	0.100108	0.001951	51.315	-140.071	-162.495	0.028212	0.336806	-0.719914	-0.721206	-0.054954	51.315	-0.719111	-3.567343E+9	1.540463E-11	NaN
68	1.000000	0.346068	7.36571e+06	-42039.1	955.818	-29784.7	0.000000	0.000000	6.346863	0.002735	NaN	0.000000	0.001582	0.001745	28.1112	0.019437	0.002111	9.207788	-178.467	-165.112	-0.015887	0.344779	-0.711944	-0.713233	0.002735	9.207788	-0.712167	-2.868263E+9	-9.536401E-13	NaN
68	1.000000	0.354099	7.36571e+06	-42039.1	955.817	-29784.7	0.000000	0.000000	6.354890	-0.087674	NaN	0.000000	0.001580	0.001743	28.1111	0.087180	0.002089	41.7415	-92.9217	-163.271	-0.089809	0.352782	-0.703913	-0.705230	-0.087674	41.7415	-0.702338	-2.106000E+9	4.163042E-11	NaN
68	1.000000	0.362074	7.36571e+06	-42039.1	955.818	-29784.7	0.000000	0.000000	6.362870	0.026093	NaN	0.000000	0.001594	0.001725	28.1107	0.097372	0.001903	51.1748	-137.218	-161.55	0.085322	0.360785	-0.695938	-0.697228	0.026093	51.1748	-0.696320	-1.742912E+9	-1.497096E-11	NaN
68	1.000000	0.370111	7.36571e+06	-42039.1	955.819	-29784.7	0.000000	0.000000	6.370905	-0.016120	NaN	0.000000	0.001530	0.001707	28.1107	0.080331	0.002002	40.126	-176.407	-160.878	-0.071749	0.368812	-0.687901	-0.689201	-0.016120	40.126	-0.687600	-1.324684E+9	1.216892E-11	NaN
68	1.000000	0.378046	7.36571e+06	-42039.1	955.818	-29784.7	0.000000	0.000000	6.378839	-0.020208	NaN	0.000000	0.001528	0.001707	28.1111	0.042640	0.002067	20.6319	-90.2469	-159.308	0.022109	0.376785	-0.679967	-0.681228	-0.020208	20.6319	-0.679232	-1.017897E+9	1.985255E-11	NaN
68	1.000000	0.386104	7.36571e+06	-42039.1	955.82	-29784.7	0.000000	0.000000	6.386896	-0.051524	NaN	0.000000	0.001522	0.001682	28.1112	0.135470	0.002012	67.3199	-42.3924	-161.66	-0.019851	0.384798	-0.671908	-0.673215	-0.051524	67.3199	-0.671334	-7.936906E+8	6.491704E-11	NaN
68	1.000000	0.394113	7.36571e+06	-42039.1	955.818	-29784.7	0.000000	0.000000	6.394905	-0.061951	NaN	0.000000	0.001556	0.001676	28.1114	0.127112	0.001930	65.855	-173.102	-165.759	-0.033785	0.392750	-0.663899	-0.665262	-0.061951	65.855	-0.663194	-6.140610E+8	1.008873E-10	NaN
68	1.000000	0.402106	7.36571e+06	-42039.1	955.818	-29784.7	0.000000	0.000000	6.402900	-0.006317	NaN	0.000000	0.001561	0.001663	28.1116	0.120863	0.002127	56.8326	99.3527	-165.849	-0.003497	0.400781	-0.655907	-0.657231	-0.006317	56.8326	-0.655823	-4.866877E+8	1.298058E-11	NaN
68	1.000000	0.410081	7.36571e+06	-42039.1	955.818	-29784.7	0.000000	0.000000	6.410875	-0.007815	NaN	0.000000	0.001575	0.001705	28.1112	0.076358	0.002031	37.592	177.413	-169.164	0.030159	0.408841	-0.647932	-0.649171	-0.007815	37.592	-0.647776	-3.775232E+8	2.069964E-11	NaN
68	1.000000	0.418111	7.36571e+06	-42039.1	955.818	-29784.7	0.000000	0.000000	6.418905	-0.000245	NaN	0.000000	0.001521	0.001733	28.1112	0.070611	0.001982	35.6235	-16.0651	-166.393	-0.048404	0.416795	-0.639902	-0.641217	-0.000245	35.6235	-0.639897	-2.943557E+8	8.311380E-13	NaN
68	1.000000	0.426122	7.36571e+06	-42039.1	955.818	-29784.7	0.000000	0.000000	6.426914	-0.060293	NaN	0.000000	0.001549	0.001733	28.1105	0.025312	0.002026	12.4919	-142.606	-164.723	0.002098	0.424811	-0.631890	-0.633202	-0.060293	12.4919	-0.628270	-2.038296E+8	2.958011E-10	NaN
68	1.000000	0.434112	7.36571e+06	-42039.1	955.817	-29784.7	0.000000	0.000000	6.434906	0.003024	NaN	0.000000	0.001578	0.001720	28.11	0.082024	0.001959	41.8715	100.622	-161.784	-0.048838	0.432804	-0.623900	-0.625209	0.003024	41.8715	-0.623954	-1.778193E+8	-1.700443E-11	NaN
68	1.000000	0.442128	7.36571e+06	-42039.1	955.818	-29784.7	0.000000	0.000000	6.442924	0.032694	NaN	0.000000	0.001576	0.001712	28.1103	0.128881	0.002169	59.4114	-179.178	-163.974	-0.029448	0.440796	-0.615884	-0.617216	0.032694	59.4114	-0.616297	-1.395471E+8	-2.342845E-10	NaN
68	1.000000	0.450127	7.36571e+06	-42039.1	955.819	-29784.7	0.000000	0.000000	6.450920	-0.018748	NaN	0.000000	0.001546	0.001677	28.1099	0.065793	0.002064	31.8757	-69.7677	-164.768	-0.038129	0.448828	-0.607885	-0.609184	-0.018748	31.8757	-0.607444	-1.054260E+8	1.778278E-10	NaN
68	1.000000	0.458136	7.36571e+06	-42039.1	955.819	-29784.7	0.000000	0.000000	6.458930	-0.000268	NaN	0.000000	0.001576	0.001702	28.1098	0.172218	0.001946	88.4836	172.156	-167.218	-0.023006	0.456817	-0.599876	-0.601195	-0.000268	88.4836	-0.599874	-8.293263E+7	3.228575E-12	NaN
68	1.000000	0.466156	7.36571e+06	-42039.1	955.818	-29784.7	0.000000	0.000000	6.466952	0.051217	NaN	0.000000	0.001549	0.001737	28.1109	0.067623	0.002049	33.0068	-145.628	-165.277	0.058220	0.464853	-0.591856	-0.593159	0.051217	33.0068	-0.593020	-6.672609E+7	-7.675639E-10	NaN
68	1.000000	0.474128	7.36571e+06	-42039.1	955.818	-29784.7	0.000000	0.000000	6.474921	-0.017013	NaN	0.000000	0.001551	0.001724	28.1098	0.013409	0.001973	6.796678	27.7909	-167.498	-0.073691	0.472798	-0.583885	-0.585215	-0.017013	6.796678	-0.582008	-4.703594E+7	3.616991E-10	NaN
68	1.000000	0.482152	7.36571e+06	-42039.1	955.818	-29784.7	0.000000	0.000000	6.482945	-0.017830	NaN	0.000000	0.001563	0.001723	28.1101	0.077944	0.002130	36.587	99.2153	-164.541	-0.081929	0.480845	-0.575861	-0.577167	-0.017830	36.587	-0.575495	-3.824162E+7	4.662502E-10	NaN
68	1.000000	0.490114	7.36571e+06	-42039.1	955.817	-29784.7	0.000000	0.000000	6.490909	0.020152	NaN	0.000000	0.001536	0.001713	28.1096	0.106212	0.002076	51.1561	24.23	-164.128	-0.071757	0.488832	-0.567899	-0.569180	0.020152	51.1561	-0.568194	-3.031642E+7	-6.647271E-10	NaN
68	1.000000	0.498145	7.36571e+06	-42039.1	955.817	-29784.7	0.000000	0.000000	6.498937	-0.058326	NaN	0.000000	0.001510	0.001744	28.1102	0.103193	0.002031	50.8175	-93.2854	-162.41	-0.016923	0.496833	-0.559868	-0.561180	-0.058326	50.8175	-0.559007	-2.262752E+7	2.577638E-9	NaN
68	1.000000	0.506164	7.36571e+06	-42039.1	955.818	-29784.7	0.000000	0.000000	6.506954	-0.111415	NaN	0.000000	0.001548	0.001704	28.1091	0.083355	0.002021	41.2375	149.734	-166.049	-0.161958	0.504851	-0.551848	-0.553162	-0.111415	41.2375	-0.549822	-1.688455E+7	6.598626E-9	NaN
68	1.000000	0.514142	7.36571e+06	-42039.1	955.818	-29784.7	0.000000	0.000000	6.514933	-0.093625	NaN	0.000000	0.001572	0.001721	28.1087	0.126904	0.002062	61.5581	72.642	-163.743	-0.099900	0.512893	-0.543870	-0.545119	-0.093625	61.5581	-0.542729	-1.346498E+7	6.953248E-9	NaN
68	1.000000	0.522138	7.36571e+06	-42039.1	955.818	-29784.7	0.000000	0.000000	6.522930	-0.047150	NaN	0.000000	0.001637	0.001698	28.1085	0.044464	0.002012	22.0989	-88.6337	-165.362	-0.009893	0.520865	-0.535875	-0.537147	-0.047150	22.0989	-0.534275	-1.027835E+7	4.587279E-9	NaN
68	1.000000	0.530173	7.36571e+06	-42039.1	955.818	-29784.7	0.000000	0.000000	6.530965	-0.057055	NaN	0.000000	0.001627	0.001713	28.1083	0.023567	0.001994	11.8195	18.2666	-166.465	0.065306	0.528869	-0.527840	-0.529143	-0.057055	11.8195	-0.524219	-7.45177e+06	7.656553E-9	NaN
68	1.000000	0.538191	7.36571e+06	-42039.1	955.818	-29784.7	0.000000	0.000000	6.538982	-0.067309	NaN	0.000000	0.001585	0.001690	28.1088	0.045979	0.001968	23.3574	78.1075	-164.158	-0.034530	0.536853	-0.519822	-0.521159	-0.067309	23.3574	-0.517660	-6.04024e+06	1.114336E-8	NaN
68	1.000000	0.546176	7.36571e+06	-42039.1	955.818	-29784.7	0.000000	0.000000	6.546967	-0.066517	NaN	0.000000	0.001611	0.001713	28.1097	0.065344	0.002124	30.7593	-100.838	-163.087	-0.046384	0.544884	-0.511836	-0.513128	-0.066517	30.7593	-0.510215	-4.75778e+06	1.398073E-8	NaN
68	1.000000	0.554158	7.36571e+06	-42039.1	955.818	-29784.7	0.000000	0.000000	6.554952	-0.020913	NaN	0.000000	0.001587	0.001700	28.1089	0.043045	0.002075	20.7417	-48.4746	-164.238	-0.040693	0.552855	-0.503854	-0.505158	-0.020913	20.7417	-0.503098	-3.78638e+06	5.523326E-9	NaN
68	1.000000	0.562186	7.36571e+06	-42039.1	955.819	-29784.7	0.000000	0.000000	6.562979	-0.019028	NaN	0.000000	0.001604	0.001705	28.1094	0.086197	0.002066	41.7155	-142.843	-163.829	-0.014261	0.560873	-0.495827	-0.497139	-0.019028	41.7155	-0.495485	-2.96484e+06	6.417778E-9	NaN
68	1.000000	0.570152	7.36571e+06	-42039.1	955.819	-29784.7	0.000000	0.000000	6.570946	0.005996	NaN	0.000000	0.001647	0.001706	28.1086	0.060013	0.002040	29.4236	89.1248	-162.222	0.022814	0.568897	-0.487861	-0.489116	0.005996	29.4236	-0.488014	-2.33148e+06	-2.571831E-9	NaN
68	1.000000	0.578192	7.36571e+06	-42039.1	955.818	-29784.7	0.000000	0.000000	6.578985	-0.027907	NaN	0.000000	0.001639	0.001695	28.1093	0.052592	0.001965	26.7707	-73.1015	-162.233	-0.171620	0.576891	-0.479821	-0.481122	-0.027907	26.7707	-0.479039	-1.74612e+06	1.598233E-8	NaN
68	1.000000	0.586192	7.36571e+06	-42039.1	955.818	-29784.7	0.000000	0.000000	6.586986	0.001076	NaN	0.000000	0.001615	0.001713	28.1084	0.167101	0.001964	85.0852	-165.481	-166.718	-0.060481	0.584895	-0.471820	-0.473117	0.001076	85.0852	-0.471830	-1.38378e+06	-7.772208E-10	NaN
68	1.000000	0.594193	7.36571e+06	-42039.1	955.819	-29784.7	0.000000	0.000000	6.594984	-0.070026	NaN	0.000000	0.001602	0.001729	28.1087	0.067904	0.002031	33.4366	-73.1379	-161.81	0.050512	0.592886	-0.463819	-0.465126	-0.070026	33.4366	-0.462249	-1.01534e+06	6.896789E-8	NaN
68	1.000000	0.602210	7.36571e+06	-42039.1	955.818	-29784.7	0.000000	0.000000	6.603002	-0.053245	NaN	0.000000	0.001566	0.001724	28.1078	0.039306	0.002039	19.2799	26.3886	-163.46	-0.104447	0.600879	-0.455802	-0.457133	-0.053245	19.2799	-0.453731	-770661	6.909033E-8	NaN
68	1.000000	0.610206	7.36571e+06	-42039.1	955.819	-29784.7	0.000000	0.000000	6.610996	-0.084251	NaN	0.000000	0.001614	0.001757	28.1088	0.065877	0.001910	34.4954	-116.255	-164.793	-0.024934	0.608933	-0.447807	-0.449079	-0.084251	34.4954	-0.445975	-599289	1.405852E-7	NaN
68	1.000000	0.618207	7.36571e+06	-42039.1	955.819	-29784.7	0.000000	0.000000	6.618998	-0.068531	NaN	0.000000	0.001560	0.001751	28.1086	0.052307	0.001980	26.415	-41.0649	-163.543	-0.091636	0.616884	-0.439806	-0.441129	-0.068531	26.415	-0.437860	-460418	1.488453E-7	NaN
68	1.000000	0.626188	7.36571e+06	-42039.1	955.818	-29784.7	0.000000	0.000000	6.626979	-0.071721	NaN	0.000000	0.001623	0.001731	28.11	0.002311	0.002040	1.133035	129.054	-165.359	-0.126854	0.624921	-0.431824	-0.433092	-0.071721	1.133035	-0.384350	-79848.7	8.982050E-7	NaN
68	1.000000	0.634206	7.36571e+06	-42039.1	955.818	-29784.7	0.000000	0.000000	6.634999	-0.037296	NaN	0.000000	0.001606	0.001729	28.1099	0.076382	0.001929	39.5935	-133.602	-165.552	-0.072298	0.632932	-0.423806	-0.425081	-0.037296	39.5935	-0.423100	-284681	1.310111E-7	NaN
68	1.000000	0.642196	7.36571e+06	-42039.1	955.818	-29784.7	0.000000	0.000000	6.642988	-0.066788	NaN	0.000000	0.001616	0.001748	28.1103	0.106855	0.002048	52.1741	65.5401	-163.891	-0.061610	0.640891	-0.415816	-0.417121	-0.066788	52.1741	-0.414856	-217478	3.071035E-7	NaN
68	1.000000	0.650212	7.36571e+06	-42039.1	955.819	-29784.7	0.000000	0.000000	6.651006	-0.018423	NaN	0.000000	0.001633	0.001789	28.1105	0.009313	0.001950	4.775366	58.8853	-166.832	-0.033074	0.648930	-0.407800	-0.409083	-0.018423	4.775366	-0.404907	-157007	1.173375E-7	NaN
68	1.000000	0.658217	7.36571e+06	-42039.1	955.818	-29784.7	0.000000	0.000000	6.659011	-0.012133	NaN	0.000000	0.001581	0.001728	28.1104	0.073298	0.002091	35.0602	39.4623	-166.509	-0.051281	0.656913	-0.399796	-0.401100	-0.012133	35.0602	-0.399536	-131637	9.216767E-8	NaN
68	1.000000	0.666186	7.36571e+06	-42039.1	955.818	-29784.7	0.000000	0.000000	6.666977	-0.083433	NaN	0.000000	0.001556	0.001720	28.1096	0.085653	0.001962	43.6484	-0.439867	-166.005	-0.119800	0.664898	-0.391827	-0.393114	-0.083433	43.6484	-0.390393	-97451.7	8.561461E-7	NaN
68	1.000000	0.674234	7.36571e+06	-42039.1	955.818	-29784.7	0.000000	0.000000	6.675027	-0.021451	NaN	0.000000	0.001502	0.001688	28.109	0.083394	0.001960	42.5399	-77.5052	-164.632	-0.076713	0.672990	-0.383778	-0.385023	-0.021451	42.5399	-0.383400	-77385.7	2.771969E-7	NaN
68	1.000000	0.682229	7.36571e+06	-42039.1	955.818	-29784.7	0.000000	0.000000	6.683020	-0.078614	NaN	0.000000	0.001524	0.001732	28.1089	0.079868	0.001990	40.1304	73.6028	-163.197	-0.078371	0.680906	-0.375783	-0.377107	-0.078614	40.1304	-0.374314	-57306.5	1.371814E-6	NaN
68	1.000000	0.690229	7.36571e+06	-42039.1	955.819	-29784.7	0.000000	0.000000	6.691022	-0.019859	NaN	0.000000	0.001579	0.001747	28.1094	0.050716	0.001840	27.5664	13.4577	-163.205	-0.070567	0.688927	-0.367784	-0.369086	-0.019859	27.5664	-0.367243	-45332.4	4.380776E-7	NaN
68	1.000000	0.698240	7.36571e+06	-42039.1	955.818	-29784.7	0.000000	0.000000	6.699034	-0.005619	NaN	0.000000	0.001566	0.001730	28.1084	0.069061	0.002065	33.4401	94.122	-165.573	0.006432	0.696936	-0.359772	-0.361076	-0.005619	33.4401	-0.359646	-35215	1.595672E-7	NaN
68	1.000000	0.706237	7.36571e+06	-42039.1	955.818	-29784.7	0.000000	0.000000	6.707029	-0.051882	NaN	0.000000	0.001538	0.001749	28.1101	0.019567	0.002030	9.639022	-99.5314	-166.666	-0.058304	0.704927	-0.351775	-0.353086	-0.051882	9.639022	-0.347739	-23668.2	2.192049E-6	NaN
68	1.000000	0.714262	7.36571e+06	-42039.1	955.819	-29784.7	0.000000	0.000000	6.715056	0.007468	NaN	0.000000	0.001580	0.001750	28.1104	0.037036	0.001925	19.2403	-42.598	-164.613	-0.026852	0.712936	-0.343751	-0.345076	0.007468	19.2403	-0.344042	-20913.1	-3.570937E-7	NaN
68	1.000000	0.722252	7.36571e+06	-42039.1	955.818	-29784.7	0.000000	0.000000	6.723044	-0.067874	NaN	0.000000	0.001594	0.001739	28.1103	0.091681	0.001888	48.5579	-56.182	-167.327	0.013255	0.720955	-0.335760	-0.337057	-0.067874	48.5579	-0.334712	-15288.9	4.439421E-6	NaN
68	1.000000	0.730224	7.36571e+06	-42039.1	955.819	-29784.7	0.000000	0.000000	6.731018	0.001210	NaN	0.000000	0.001550	0.001750	28.1102	0.041578	0.001959	21.2232	121.251	-161.956	0.019833	0.728938	-0.327788	-0.329074	0.001210	21.2232	-0.327831	-12124.7	-9.976943E-8	NaN
68	1.000000	0.738261	7.36571e+06	-42039.1	955.818	-29784.7	0.000000	0.000000	6.739055	-0.024252	NaN	0.000000	0.001552	0.001725	28.1093	0.044370	0.002031	21.8442	169.046	-167.607	-0.044733	0.736904	-0.319751	-0.321108	-0.024252	21.8442	-0.318918	-8968.4	2.704129E-6	NaN
68	1.000000	0.746271	7.36571e+06	-42039.1	955.817	-29784.7	0.000000	0.000000	6.747063	-0.039102	NaN	0.000000	0.001545	0.001742	28.1072	0.027919	0.002021	13.8138	-162.229	-166.962	-0.014504	0.744924	-0.311742	-0.313088	-0.039102	13.8138	-0.309619	-6537.51	5.981149E-6	NaN
68	1.000000	0.754261	7.36571e+06	-42039.1	955.819	-29784.7	0.000000	0.000000	6.755051	-0.097704	NaN	0.000000	0.001552	0.001735	28.1077	0.072427	0.002046	35.3906	-26.6688	-166.225	-0.060854	0.752917	-0.303752	-0.305095	-0.097704	35.3906	-0.301681	-4984.83	1.960034E-5	NaN
68	1.000000	0.762247	7.36571e+06	-42039.1	955.818	-29784.7	0.000000	0.000000	6.763039	-0.061600	NaN	0.000000	0.001543	0.001761	28.1079	0.033372	0.001850	18.0439	-150.892	-163.194	-0.058012	0.760898	-0.295765	-0.297114	-0.061600	18.0439	-0.293205	-3726.22	1.653158E-5	NaN
68	1.000000	0.770273	7.36571e+06	-42039.1	955.819	-29784.7	0.000000	0.000000	6.771067	-0.017648	NaN	0.000000	0.001568	0.001748	28.1072	0.050756	0.001887	26.8921	-64.2944	-162.264	-0.029107	0.768941	-0.287739	-0.289072	-0.017648	26.8921	-0.287247	-3034	5.816614E-6	NaN
68	1.000000	0.778267	7.36571e+06	-42039.1	955.817	-29784.7	0.000000	0.000000	6.779058	-0.079004	NaN	0.000000	0.001561	0.001693	28.1074	0.057255	0.002041	28.0537	167.517	-166.322	0.033605	0.776923	-0.279745	-0.281089	-0.079004	28.0537	-0.277633	-2173.87	3.634267E-5	NaN
68	1.000000	0.786281	7.36571e+06	-42039.1	955.818	-29784.7	0.000000	0.000000	6.787072	-0.071315	NaN	0.000000	0.001550	0.001713	28.1076	0.049759	0.001974	25.211	116.095	-163.096	0.036680	0.784965	-0.271732	-0.273048	-0.071315	25.211	-0.269610	-1642.93	4.340728E-5	NaN
68	1.000000	0.794284	7.36571e+06	-42039.1	955.819	-29784.7	0.000000	0.000000	6.795078	-0.011303	NaN	0.000000	0.001570	0.001746	28.1084	0.090411	0.002012	44.9281	143.984	-165.399	-0.045367	0.792970	-0.263728	-0.265042	-0.011303	44.9281	-0.263539	-1327.65	8.513343E-6	NaN
68	1.000000	0.802290	7.36571e+06	-42039.1	955.818	-29784.7	0.000000	0.000000	6.803080	-0.103833	NaN	0.000000	0.001502	0.001739	28.1087	0.108729	0.002090	52.0243	-156.979	-163.16	-0.039885	0.800962	-0.255722	-0.257050	-0.103833	52.0243	-0.254225	-955.404	0.000109	NaN
68	1.000000	0.810275	7.36571e+06	-42039.1	955.818	-29784.7	0.000000	0.000000	6.811066	-0.066100	NaN	0.000000	0.001532	0.001683	28.1082	0.053379	0.002238	23.8466	148.376	-165.093	-0.058220	0.808986	-0.247738	-0.249027	-0.066100	23.8466	-0.245659	-704.183	9.386797E-5	NaN
68	1.000000	0.818280	7.36571e+06	-42039.1	955.818	-29784.7	0.000000	0.000000	6.819073	-0.023787	NaN	0.000000	0.001564	0.001693	28.1084	0.087554	0.002199	39.8106	-40.4084	-165.454	-0.020478	0.816947	-0.239733	-0.241065	-0.023787	39.8106	-0.239285	-560.243	4.245842E-5	NaN
68	1.000000	0.826259	7.36571e+06	-42039.1	955.819	-29784.7	0.000000	0.000000	6.827048	-0.114556	NaN	0.000000	0.001511	0.001709	28.1075	0.140184	0.001990	70.4575	-19.0796	-165.418	-0.082196	0.824972	-0.231754	-0.233040	-0.114556	70.4575	-0.230534	-408.275	0.000281	NaN
68	1.000000	0.834283	7.36571e+06	-42039.1	955.819	-29784.7	0.000000	0.000000	6.835074	-0.097248	NaN	0.000000	0.001548	0.001655	28.1073	0.014652	0.001815	8.074177	-22.1798	-163.46	-0.088998	0.832984	-0.223729	-0.225028	-0.097248	8.074177	-0.214696	-228.36	0.000426	NaN
68	1.000000	0.842299	7.36571e+06	-42039.1	955.818	-29784.7	0.000000	0.000000	6.843091	-0.076174	NaN	0.000000	0.001583	0.001667	28.1064	0.132533	0.002032	65.2164	-24.0122	-164.468	-0.108368	0.840954	-0.215713	-0.217059	-0.076174	65.2164	-0.214837	-229.557	0.000332	NaN
68	1.000000	0.850293	7.36571e+06	-42039.1	955.818	-29784.7	0.000000	0.000000	6.851087	-0.015759	NaN	0.000000	0.001564	0.001663	28.1068	0.119333	0.001994	59.8384	146.485	-168.03	-0.029251	0.849003	-0.207719	-0.209010	-0.015759	59.8384	-0.207522	-174.829	9.014089E-5	NaN
68	1.000000	0.858286	7.36571e+06	-42039.1	955.818	-29784.7	0.000000	0.000000	6.859080	-0.014276	NaN	0.000000	0.001562	0.001673	28.107	0.099794	0.002057	48.513	-88.731	-163.766	-0.066401	0.856996	-0.199726	-0.201017	-0.014276	48.513	-0.199505	-129.291	0.000110	NaN
68	1.000000	0.866314	7.36571e+06	-42039.1	955.818	-29784.7	0.000000	0.000000	6.867109	0.015945	NaN	0.000000	0.001599	0.001707	28.108	0.076724	0.001905	40.2849	94.3325	-165.433	-0.012910	0.864978	-0.191698	-0.193035	0.015945	40.2849	-0.191995	-97.1186	-0.000164	NaN
68	1.000000	0.874317	7.36571e+06	-42039.1	955.818	-29784.7	0.000000	0.000000	6.875109	-0.057648	NaN	0.000000	0.001612	0.001640	28.1084	0.028594	0.002009	14.236	95.7722	-166.636	-0.108029	0.873017	-0.183695	-0.184996	-0.057648	14.236	-0.180658	-62.6123	0.000921	NaN
68	1.000000	0.882324	7.36571e+06	-42039.1	955.819	-29784.7	0.000000	0.000000	6.883117	-0.035170	NaN	0.000000	0.001629	0.001650	28.1086	0.091526	0.002047	44.7222	-81.122	-165.054	-0.125011	0.881023	-0.175688	-0.176990	-0.035170	44.7222	-0.175099	-50.3122	0.000699	NaN
68	1.000000	0.890315	7.36571e+06	-42039.1	955.818	-29784.7	0.000000	0.000000	6.891107	-0.045566	NaN	0.000000	0.001627	0.001623	28.1092	0.035589	0.002080	17.113	84.4157	-168.951	-0.001320	0.888998	-0.167697	-0.169014	-0.045566	17.113	-0.165701	-34.5618	0.001318	NaN
68	1.000000	0.898328	7.36571e+06	-42039.1	955.819	-29784.7	0.000000	0.000000	6.899121	-0.025028	NaN	0.000000	0.001625	0.001671	28.1093	0.062871	0.002115	29.7293	-54.5971	-164.084	0.050761	0.897019	-0.159685	-0.160993	-0.025028	29.7293	-0.159053	-26.3719	0.000949	NaN
68	1.000000	0.906314	7.36571e+06	-42039.1	955.818	-29784.7	0.000000	0.000000	6.907107	-0.012266	NaN	0.000000	0.001614	0.001656	28.108	0.028116	0.001942	14.4804	-92.3837	-164.447	-0.051737	0.905017	-0.151699	-0.152995	-0.012266	14.4804	-0.151063	-18.9396	0.000648	NaN
68	1.000000	0.914328	7.36571e+06	-42039.1	955.819	-29784.7	0.000000	0.000000	6.915119	-0.094368	NaN	0.000000	0.001611	0.001673	28.1083	0.023233	0.001832	12.6831	18.9232	-166.58	0.001286	0.912951	-0.143684	-0.145061	-0.094368	12.6831	-0.138104	-10.8953	0.008661	NaN
68	1.000000	0.922335	7.36571e+06	-42039.1	955.818	-29784.7	0.000000	0.000000	6.923127	-0.034577	NaN	0.000000	0.001555	0.001646	28.1079	0.118296	0.001929	61.3147	49.2656	-164.051	0.019650	0.921010	-0.135678	-0.137002	-0.034577	61.3147	-0.135255	-9.619480	0.003594	NaN
68	1.000000	0.930332	7.36571e+06	-42039.1	955.818	-29784.7	0.000000	0.000000	6.931125	-0.047903	NaN	0.000000	0.001559	0.001624	28.1074	0.013672	0.002051	6.666880	-172.456	-168.272	-0.030603	0.929027	-0.127680	-0.128986	-0.047903	6.666880	-0.122291	-5.371661	0.008918	NaN
68	1.000000	0.938355	7.36571e+06	-42039.1	955.818	-29784.7	0.000000	0.000000	6.939146	-0.078130	NaN	0.000000	0.001624	0.001628	28.1079	0.062477	0.002064	30.2649	85.867	-164.735	-0.025704	0.937026	-0.119657	-0.120987	-0.078130	30.2649	-0.117721	-4.343758	0.017987	NaN
68	1.000000	0.946339	7.36571e+06	-42039.1	955.818	-29784.7	0.000000	0.000000	6.947133	-0.028511	NaN	0.000000	0.001632	0.001640	28.1089	0.050671	0.001920	26.3869	52.9619	-165.509	-0.003044	0.945023	-0.111673	-0.112990	-0.028511	26.3869	-0.110863	-3.133456	0.009099	NaN
68	1.000000	0.954333	7.36571e+06	-42039.1	955.818	-29784.7	0.000000	0.000000	6.955127	-0.014600	NaN	0.000000	0.001617	0.001618	28.1095	0.068247	0.002015	33.8657	-97.7295	-165.29	-0.029385	0.953052	-0.103679	-0.104961	-0.014600	33.8657	-0.103356	-2.165258	0.006743	NaN
68	1.000000	0.962328	7.36571e+06	-42039.1	955.818	-29784.7	0.000000	0.000000	6.963119	-0.082148	NaN	0.000000	0.001621	0.001615	28.1086	0.050078	0.001980	25.2871	-62.7809	-165.364	-0.104034	0.961000	-0.095684	-0.097012	-0.082148	25.2871	-0.093248	-1.286129	0.063873	NaN
68	1.000000	0.970352	7.36571e+06	-42039.1	955.818	-29784.7	0.000000	0.000000	6.971143	-0.076735	NaN	0.000000	0.001548	0.001642	28.1083	0.125047	0.001927	64.9004	-179.478	-162.466	-0.056094	0.969020	-0.087660	-0.088993	-0.076735	64.9004	-0.086774	-0.906491	0.084651	NaN
68	1.000000	0.978330	7.36571e+06	-42039.1	955.818	-29784.7	0.000000	0.000000	6.979122	-0.068186	NaN	0.000000	0.001549	0.001659	28.1089	0.045068	0.001888	23.8671	-64.4746	-166.322	-0.036408	0.977061	-0.079682	-0.080952	-0.068186	23.8671	-0.077539	-0.536593	0.127071	NaN
68	1.000000	0.986349	7.36571e+06	-42039.1	955.817	-29784.7	0.000000	0.000000	6.987142	-0.029859	NaN	0.000000	0.001552	0.001665	28.1079	0.087631	0.002008	43.6335	-161.267	-164.176	0.028995	0.985063	-0.071664	-0.072949	-0.029859	43.6335	-0.071151	-0.366090	0.081563	NaN
68	1.000000	0.994327	7.36571e+06	-42039.1	955.818	-29784.7	0.000000	0.000000	6.995119	-0.044556	NaN	0.000000	0.001564	0.001653	28.1068	0.094334	0.001991	47.376	13.6813	-165.961	-0.023703	0.993092	-0.063685	-0.064921	-0.044556	47.376	-0.062980	-0.218853	0.203591	NaN
68	1.000000	1.002335	7.36571e+06	-42039.1	955.818	-29784.7	0.000000	0.000000	7.003129	-0.001001	NaN	0.000000	0.001546	0.001626	28.1077	0.019052	0.001934	9.851561	-126.24	-166.298	-0.021758	1.001056	-0.055678	-0.056956	-0.001001	9.851561	-0.055602	-0.134151	0.007460	NaN
68	1.000000	1.010334	7.36571e+06	-42039.1	955.817	-29784.7	0.000000	0.000000	7.011127	-0.050654	NaN	0.000000	0.001576	0.001636	28.1075	0.080033	0.002104	38.0315	145.091	-162.677	-0.078923	1.008996	-0.047678	-0.049017	-0.050654	38.0315	-0.046679	-0.072326	0.700356	NaN
68	1.000000	1.018364	7.36571e+06	-42039.1	955.819	-29784.7	0.000000	0.000000	7.019160	0.034586	NaN	0.000000	0.001561	0.001637	28.1079	0.023545	0.002092	11.2536	-128.915	-164.153	0.039716	1.017064	-0.039649	-0.040948	0.034586	11.2536	-0.041954	-0.051863	-0.666884	NaN
68	1.000000	1.026348	7.36571e+06	-42039.1	955.819	-29784.7	0.000000	0.000000	7.027140	-0.052256	NaN	0.000000	0.001513	0.001631	28.1068	0.069089	0.002073	33.3234	-2.312872	-167.263	-0.002902	1.025059	-0.031664	-0.032954	-0.052256	33.3234	-0.030488	-0.023748	2.200494	NaN
68	1.000000	1.034373	7.36571e+06	-42039.1	955.819	-29784.7	0.000000	0.000000	7.035165	-0.048062	NaN	0.000000	0.001559	0.001654	28.1068	0.037001	0.002119	17.4656	-123.146	-166.216	0.003356	1.033056	-0.023639	-0.024956	-0.048062	17.4656	-0.021575	-0.013774	3.489344	NaN
68	1.000000	1.042382	7.36571e+06	-42039.1	955.818	-29784.7	0.000000	0.000000	7.043176	-0.007679	NaN	0.000000	0.001530	0.001638	28.1072	0.092946	0.001917	48.4777	119.174	-165.698	0.022103	1.041086	-0.015630	-0.016926	-0.007679	48.4777	-0.015511	-0.009584	0.801193	NaN
68	1.000000	1.050378	7.36571e+06	-42039.1	955.818	-29784.7	0.000000	0.000000	7.051168	-0.094466	NaN	0.000000	0.001560	0.001683	28.1064	0.075695	0.002004	37.7754	-25.2223	-163.599	-0.142544	1.049061	-0.007635	-0.008952	-0.094466	37.7754	-0.005759	-0.003889	24.2931	NaN
68	1.000000	1.058383	7.36571e+06	-42039.1	955.819	-29784.7	0.000000	0.000000	7.059191	0.325400	NaN	0.000000	0.001619	0.001659	28.1069	0.353369	0.002016	175.259	30.5859	-163.012	0.242380	1.057023	0.000371	-0.000990	0.325400	175.259	-0.001022	-0.000749	-434.483	NaN
68	1.000000	1.066351	7.36571e+06	-42039.1	955.818	-29784.7	0.000000	0.000000	7.067201	1.357694	NaN	0.000000	0.001604	0.001617	28.1062	1.795632	0.001909	940.703	26.0715	-170.099	1.181528	1.065056	0.008339	0.007044	1.357694	940.703	0.007256	0.006288	215.908	10838.3
68	1.000000	1.074388	7.36571e+06	-42039.1	955.818	-29784.7	0.000000	0.000000	7.075310	3.110290	NaN	0.000000	0.001583	0.001664	28.1055	3.717679	0.001967	1889.87	21.182	-166.423	2.700532	1.073113	0.016375	0.015101	3.110290	1889.87	0.015141	0.015474	201.006	13880.6
68	2.000000	1.081846	7.36571e+06	-42039.1	955.818	-29784.7	0.000000	0.000000	7.082968	7.957339	NaN	0.000000	0.001537	0.001658	28.1058	8.506326	0.001682	5056.68	13.8488	-171.641	7.703885	1.081018	0.023834	0.023006	7.957339	5056.68	0.022654	0.026885	295.977	28176.3
68	2.000000	1.083932	7.36571e+06	-42039.1	955.818	-29784.7	0.000000	0.000000	7.085091	8.870426	NaN	0.000000	0.001547	0.001645	28.1047	10.2353	0.001668	6137.26	12.4257	-173.747	8.599144	1.083622	0.025920	0.025610	8.870426	6137.26	0.024836	0.030717	288.776	31993.1
68	2.000000	1.085964	7.36571e+06	-42039.1	955.818	-29784.7	0.000000	0.000000	7.087265	12.3321	NaN	0.000000	0.001567	0.001647	28.1058	12.4165	0.001624	7646.43	6.914514	-170.75	12.1187	1.085638	0.027951	0.027626	12.3321	7646.43	0.026742	0.034261	359.95	37742.8
68	2.000000	1.087951	7.36571e+06	-42039.1	955.818	-29784.7	0.000000	0.000000	7.089461	17.432	NaN	0.000000	0.001573	0.001662	28.1068	15.3453	0.001809	8483.2	9.220460	-174.773	16.595	1.087565	0.029938	0.029553	17.432	8483.2	0.028397	0.037487	465.014	40030.7
68	2.000000	1.089921	7.36571e+06	-42039.1	955.818	-29784.7	0.000000	0.000000	7.091654	22.8189	NaN	0.000000	0.001547	0.001651	28.1066	17.4717	0.001855	9418.58	9.653989	-176.886	21.4484	1.089599	0.031909	0.031586	22.8189	9418.58	0.030092	0.040935	557.446	42531.7
68	2.000000	1.091880	7.36571e+06	-42039.1	955.819	-29784.7	0.000000	0.000000	7.093944	30.9022	NaN	0.000000	0.001560	0.001618	28.1072	19.0732	0.001804	10575.3	4.897598	-173.018	29.4001	1.091554	0.033867	0.033542	30.9022	10575.3	0.031676	0.044288	697.75	45911.3
68	2.000000	1.093902	7.36571e+06	-42039.1	955.818	-29784.7	0.000000	0.000000	7.096321	39.5187	NaN	0.000000	0.001573	0.001608	28.1059	19.969	0.001694	11789.9	2.039448	-171.727	39.4016	1.093658	0.035890	0.035645	39.5187	11789.9	0.033376	0.048032	822.759	49149.6
68	2.000000	1.095864	7.36571e+06	-42039.1	955.818	-29784.7	0.000000	0.000000	7.098728	50.3555	NaN	0.000000	0.001558	0.001634	28.106	23.0984	0.001654	13961.1	5.766353	-177.845	49.1196	1.095576	0.037851	0.037563	50.3555	13961.1	0.035146	0.052087	966.754	55889.2
68	2.000000	1.097886	7.36571e+06	-42039.1	955.818	-29784.7	0.000000	0.000000	7.101336	64.6291	NaN	0.000000	0.001577	0.001624	28.1054	25.6205	0.001678	15272.8	4.099010	-177.079	62.5906	1.097562	0.039874	0.039550	64.6291	15272.8	0.036700	0.055778	1158.68	59082.6
68	2.000000	1.099858	7.36571e+06	-42039.1	955.818	-29784.7	0.000000	0.000000	7.103764	75.7045	NaN	0.000000	0.001570	0.001649	28.1056	27.7357	0.001755	15804.5	4.642529	-178.484	73.9288	1.099506	0.041846	0.041493	75.7045	15804.5	0.038253	0.059593	1270.37	59150.5
68	2.000000	1.101850	7.36571e+06	-42039.1	955.819	-29784.7	0.000000	0.000000	7.106327	89.6066	NaN	0.000000	0.001542	0.001626	28.1069	29.6028	0.001920	15419.2	6.700787	-179.419	87.4919	1.101561	0.043838	0.043549	89.6066	15419.2	0.039479	0.062690	1429.36	56264.6
68	2.000000	1.103860	7.36571e+06	-42039.1	955.82	-29784.7	0.000000	0.000000	7.108722	98.9766	NaN	0.000000	0.001552	0.001647	28.1061	30.7457	0.001845	16664.1	7.449014	179.655	98.1209	1.103557	0.045848	0.045545	98.9766	16664.1	0.041393	0.067678	1462.47	58523.8
68	2.000000	1.105871	7.36571e+06	-42039.1	955.819	-29784.7	0.000000	0.000000	7.111136	108.799	NaN	0.000000	0.001574	0.001642	28.107	33.9176	0.001916	17698.8	8.424509	176.988	107.991	1.105622	0.047858	0.047610	108.799	17698.8	0.043248	0.072691	1496.73	59975.7
68	2.000000	1.107878	7.36571e+06	-42039.1	955.819	-29784.7	0.000000	0.000000	7.113727	122.991	NaN	0.000000	0.001577	0.001633	28.1073	34.7177	0.001718	20211	5.357159	178.631	122.483	1.107552	0.049865	0.049540	122.991	20211	0.045301	0.078445	1567.87	65929.4
68	2.000000	1.109808	7.36571e+06	-42039.1	955.818	-29784.7	0.000000	0.000000	7.116229	136.893	NaN	0.000000	0.001538	0.001636	28.1073	35.9767	0.001840	19548	4.289854	-179.348	134.206	1.109484	0.051796	0.051472	136.893	19548	0.046544	0.082030	1668.83	62357.6
68	2.000000	1.111865	7.36571e+06	-42039.1	955.818	-29784.7	0.000000	0.000000	7.118868	151.08	NaN	0.000000	0.001565	0.001614	28.1072	38.487	0.001861	20678	4.864474	179.348	149.915	1.111477	0.053853	0.053465	151.08	20678	0.048373	0.087450	1727.61	63885.3
68	2.000000	1.113790	7.36571e+06	-42039.1	955.818	-29784.7	0.000000	0.000000	7.121399	165.81	NaN	0.000000	0.001558	0.001629	28.1079	39.1306	0.001757	22265.7	4.123411	179.912	162.454	1.113467	0.055778	0.055454	165.81	22265.7	0.050193	0.093009	1782.72	66703.2
68	2.000000	1.115861	7.36571e+06	-42039.1	955.818	-29784.7	0.000000	0.000000	7.124148	182.306	NaN	0.000000	0.001568	0.001600	28.108	42.5464	0.001738	24478.6	8.265943	174.838	180.659	1.115431	0.057848	0.057419	182.306	24478.6	0.052263	0.099535	1831.57	70887.7
68	2.000000	1.117848	7.36571e+06	-42039.1	955.818	-29784.7	0.000000	0.000000	7.126765	197.645	NaN	0.000000	0.001540	0.001616	28.1066	44.3278	0.001891	23444.4	2.202654	-178.697	195.102	1.117480	0.059836	0.059468	197.645	23444.4	0.053513	0.103580	1908.14	66553.9
68	2.000000	1.119776	7.36571e+06	-42039.1	955.818	-29784.7	0.000000	0.000000	7.129508	217.482	NaN	0.000000	0.001550	0.001595	28.1059	46.1331	0.001751	26345.8	4.135881	177.277	213.194	1.119469	0.061763	0.061456	217.482	26345.8	0.055572	0.110411	1969.75	72440.1
68	2.000000	1.121821	7.36572e+06	-42039.1	955.818	-29784.7	0.000000	0.000000	7.132115	231.13	NaN	0.000000	0.001548	0.001629	28.1066	49.3977	0.001755	28143	6.467519	174.42	228.759	1.121514	0.063809	0.063502	231.13	28143	0.057649	0.117515	1966.82	75006.4
68	2.000000	1.123812	7.36572e+06	-42039.1	955.818	-29784.7	0.000000	0.000000	7.134925	251.074	NaN	0.000000	0.001542	0.001608	28.1064	49.1361	0.001649	29797.1	-0.566593	-178.47	250.06	1.123486	0.065800	0.065474	251.074	29797.1	0.059480	0.123951	2025.59	77325.4
68	2.000000	1.125758	7.36572e+06	-42039.1	955.818	-29784.7	0.000000	0.000000	7.137740	272.201	NaN	0.000000	0.001541	0.001605	28.1062	53.5497	0.001938	27635.2	4.293564	177.152	268.372	1.125480	0.067746	0.067467	272.201	27635.2	0.060359	0.127097	2141.68	70822
68	2.000000	1.127787	7.36572e+06	-42039.1	955.818	-29784.7	0.000000	0.000000	7.140440	288.543	NaN	0.000000	0.001573	0.001622	28.1076	54.9296	0.001845	29772	4.280806	176.337	284.648	1.127490	0.069774	0.069477	288.543	29772	0.062506	0.134946	2138.21	74045.9
68	2.000000	1.129838	7.36572e+06	-42039.1	955.817	-29784.7	0.000000	0.000000	7.143380	310.176	NaN	0.000000	0.001558	0.001640	28.1068	56.8758	0.001830	31084.7	7.155113	174.928	310.764	1.129432	0.071825	0.071420	310.176	31084.7	0.064342	0.141836	2186.87	75409.8
68	2.000000	1.131775	7.36572e+06	-42039.1	955.818	-29784.7	0.000000	0.000000	7.146065	328.357	NaN	0.000000	0.001557	0.001669	28.1065	58.3789	0.001618	36079.4	3.107434	176.592	323.87	1.131421	0.073763	0.073409	328.357	36079.4	0.066937	0.151852	2162.34	84590.6
68	2.000000	1.133818	7.36572e+06	-42039.1	955.818	-29784.7	0.000000	0.000000	7.149006	350.222	NaN	0.000000	0.001561	0.001657	28.1067	60.5712	0.001771	34192.1	8.759103	170.873	350.404	1.133571	0.075805	0.075558	350.222	34192.1	0.068123	0.156537	2237.31	78957
68	2.000000	1.135743	7.36572e+06	-42039.1	955.818	-29784.7	0.000000	0.000000	7.151980	375.742	NaN	0.000000	0.001564	0.001613	28.1055	63.46	0.001794	35369.3	5.934973	174.03	370.278	1.135436	0.077730	0.077423	375.742	35369.3	0.069763	0.163125	2303.4	80009.2
68	2.000000	1.137737	7.36572e+06	-42039.1	955.818	-29784.7	0.000000	0.000000	7.154574	390.338	NaN	0.000000	0.001548	0.001611	28.1044	65.4337	0.001812	36111.5	3.448499	176.085	383.679	1.137320	0.079725	0.079308	390.338	36111.5	0.071618	0.170730	2286.29	79847.9
68	2.000000	1.139849	7.36572e+06	-42039.1	955.818	-29784.7	0.000000	0.000000	7.157666	414.177	NaN	0.000000	0.001556	0.001639	28.1043	66.9248	0.001791	37377.6	5.639736	173.51	413.633	1.139400	0.081837	0.081387	414.177	37377.6	0.073526	0.178726	2317.38	80777.5
68	2.000000	1.141888	7.36572e+06	-42039.1	955.819	-29784.7	0.000000	0.000000	7.160618	436.394	NaN	0.000000	0.001543	0.001650	28.1042	69.57	0.001840	37815.9	3.726997	175.438	438.554	1.141481	0.083876	0.083469	436.394	37815.9	0.075221	0.185973	2346.55	80116.8
68	2.000000	1.143863	7.36572e+06	-42039.1	955.818	-29784.7	0.000000	0.000000	7.163511	458.745	NaN	0.000000	0.001570	0.001652	28.1047	70.8692	0.001897	37366.1	5.644676	174.764	460.402	1.143370	0.085850	0.085357	458.745	37366.1	0.076643	0.192154	2387.38	77880
68	2.000000	1.145871	7.36572e+06	-42039.1	955.817	-29784.7	0.000000	0.000000	7.165727	463.808	NaN	0.000000	0.001578	0.001628	28.104	72.1301	0.001847	39050.9	-0.295110	179.664	467.865	1.145471	0.087858	0.087459	463.808	39050.9	0.078951	0.202392	2291.64	79306.4
68	2.000000	1.147699	7.36572e+06	-42039.1	955.817	-29784.7	0.000000	0.000000	7.168669	490.91	NaN	0.000000	0.001570	0.001625	28.1045	74.3812	0.001864	39910.9	2.942789	176.143	484.048	1.147435	0.089686	0.089422	490.91	39910.9	0.080461	0.209228	2346.3	79717.9
68	2.000000	1.149805	7.36572e+06	-42039.1	955.817	-29784.7	0.000000	0.000000	7.171768	515.065	NaN	0.000000	0.001575	0.001624	28.1048	76.1073	0.001807	42123.9	5.661561	172.725	514.448	1.149479	0.091793	0.091466	515.065	42123.9	0.082622	0.219189	2349.87	82204
68	2.000000	1.151783	7.36572e+06	-42039.1	955.818	-29784.7	0.000000	0.000000	7.174334	529.371	NaN	0.000000	0.001563	0.001606	28.1048	77.0063	0.001748	44061.9	2.944321	174.507	528.339	1.151589	0.093770	0.093577	529.371	44061.9	0.084760	0.229257	2309.07	84076.6
68	2.000000	1.153819	7.36572e+06	-42039.1	955.818	-29784.7	0.000000	0.000000	7.177728	562.429	NaN	0.000000	0.001569	0.001620	28.1053	79.4516	0.001831	43395.3	10.4347	168.424	562.918	1.153409	0.095806	0.095396	562.429	43395.3	0.086086	0.235609	2387.13	81680.9
68	2.000000	1.155729	7.36572e+06	-42039.1	955.818	-29784.7	0.000000	0.000000	7.180420	581.438	NaN	0.000000	0.001563	0.001629	28.1052	79.8543	0.001819	43899.5	4.283448	174.455	576.202	1.155306	0.097717	0.097293	581.438	43899.5	0.087783	0.243859	2384.32	81220.2
68	2.000000	1.157780	7.36572e+06	-42039.1	955.818	-29784.7	0.000000	0.000000	7.183548	607.641	NaN	0.000000	0.001588	0.001611	28.1038	82.7861	0.001806	45829.7	6.709601	171.125	603.364	1.157375	0.099768	0.099363	607.641	45829.7	0.089824	0.253948	2392.78	83089.7
68	2.000000	1.159739	7.36572e+06	-42039.1	955.818	-29784.7	0.000000	0.000000	7.185234	601.007	NaN	0.000000	0.001564	0.001614	28.1042	83.6664	0.001791	46706.1	4.090329	172.827	596.579	1.159489	0.101726	0.101476	601.007	46706.1	0.092075	0.265306	2265.34	82846.4
68	2.000000	1.161786	7.36572e+06	-42039.1	955.818	-29784.7	0.000000	0.000000	7.188856	639.319	NaN	0.000000	0.001576	0.001618	28.1034	85.8774	0.001882	45636.3	2.184955	175.499	638.414	1.161489	0.103774	0.103477	639.319	45636.3	0.093267	0.271411	2355.54	80033.1
68	2.000000	1.163914	7.36572e+06	-42039.1	955.818	-29784.7	0.000000	0.000000	7.191548	653.06	NaN	0.000000	0.001559	0.001682	28.1039	86.8478	0.001954	44446.3	8.292036	170.871	659.721	1.163383	0.105901	0.105371	653.06	44446.3	0.094881	0.279783	2334.17	76771.1
68	2.000000	1.165641	7.36572e+06	-42039.1	955.819	-29784.7	0.000000	0.000000	7.193969	669.929	NaN	0.000000	0.001590	0.001652	28.1035	88.3685	0.001811	48786.9	2.500993	174.712	662.462	1.165384	0.107629	0.107372	669.929	48786.9	0.097330	0.292712	2288.69	82386.5
68	2.000000	1.167944	7.36572e+06	-42039.1	955.818	-29784.7	0.000000	0.000000	7.196734	681.201	NaN	0.000000	0.001597	0.001669	28.1045	90.3886	0.001764	51241.8	2.604671	174.592	688.714	1.167591	0.109931	0.109578	681.201	51241.8	0.099961	0.306905	2219.58	84507.6
68	2.000000	1.169708	7.36572e+06	-42039.1	955.817	-29784.7	0.000000	0.000000	7.199670	709.7	NaN	0.000000	0.001545	0.001628	28.1062	91.5361	0.001712	53480.1	2.637412	173.594	705.481	1.169449	0.111695	0.111437	709.7	53480.1	0.101743	0.316698	2240.94	86824.6
68	2.000000	1.171685	7.36572e+06	-42039.1	955.818	-29784.7	0.000000	0.000000	7.202734	736.152	NaN	0.000000	0.001575	0.001630	28.1055	95.1117	0.001839	51723.8	3.944187	172.791	732.665	1.171444	0.113672	0.113431	736.152	51723.8	0.102998	0.323682	2274.31	83062.3
68	2.000000	1.174019	7.36572e+06	-42039.1	955.819	-29784.7	0.000000	0.000000	7.205340	742.764	NaN	0.000000	0.001579	0.001628	28.1063	96.6783	0.001750	55242.3	6.305516	170.492	757.792	1.173551	0.116006	0.115538	742.764	55242.3	0.105922	0.340231	2183.11	86528.3
68	2.000000	1.175671	7.36572e+06	-42039.1	955.819	-29784.7	0.000000	0.000000	7.208388	776.734	NaN	0.000000	0.001581	0.001638	28.1056	97.5941	0.001848	52813.4	2.197304	174.837	769.473	1.175290	0.117659	0.117278	776.734	52813.4	0.106628	0.344286	2256.07	82235.1
68	2.000000	1.177722	7.36572e+06	-42039.1	955.818	-29784.7	0.000000	0.000000	7.211492	802.342	NaN	0.000000	0.001594	0.001660	28.1048	100.042	0.001867	53594.8	5.626584	171.135	798.464	1.177328	0.119710	0.119316	802.342	53594.8	0.108482	0.355037	2259.88	82178.6
68	2.000000	1.179673	7.36572e+06	-42039.1	955.818	-29784.7	0.000000	0.000000	7.214275	822.578	NaN	0.000000	0.001585	0.001647	28.105	99.4653	0.001817	54755.8	0.440386	176.05	816.107	1.179483	0.121661	0.121471	822.578	54755.8	0.110394	0.366289	2245.71	82659.3
68	2.000000	1.180258	7.36572e+06	-42039.1	955.818	-29784.7	0.000000	0.000000	7.215179	830.368	NaN	0.000000	0.001582	0.001620	28.1291	101.118	0.001763	57353	5.352002	-9.011578	826.395	1.179762	0.122245	0.121750	830.368	57353	0.111386	0.372195	2231	85890.3