File: remote_trans/data/nanoindenter/0828-1/data/Data_2025-08-06,11h17m57s/2025-07-22_16-23-58_1_675.txt
2025-07-22, 16:23:58, 1
Index	Phase	Displacement	Time	Pos X	Pos Y	Pos Z	Rot A	Rot B	Piezo Z	Force A	Force B	Gripper	Voltage A	Voltage B	Temperature	Amplitude force	Amplitude pos	Stiffness	Phase shift	Phase excitation	Force A raw	Displacement raw	HMax	HMax raw	Real Force	Real Stiffness	Contact Depth	Area	Hardness	Reduced Mod.
[#]	[#]	[um]	[s]	[um]	[um]	[um]	[m°]	[m°]	[um]	[uN]	[uN]	[V]	[V]	[V]	[°C]	[uN]	[um]	[N/m]	[°]	[°]	[uN]	[um]	[um]	[um]	[uN]	[N/m]	[um]	[um^2]	[MPa]	[MPa]
675	1.000000	0.002475	7.37165e+06	-43339.1	1005.82	-29779.4	0.000000	0.000000	6.002800	-0.024038	NaN	0.000000	0.001685	0.001662	28.0815	0.075791	0.000905	83.7518	-146.3	-173.73	0.015761	0.001230	-1.136664	-1.137910	-0.024038	83.7518	-1.136449	-1.545671E+15	1.555185E-17	NaN
675	1.000000	0.012546	7.37165e+06	-43339.1	1005.82	-29779.4	0.000000	0.000000	6.012870	-0.049498	NaN	0.000000	0.001668	0.001667	28.0816	0.044972	0.001277	35.2154	36.8009	14.6901	-0.100925	0.011093	-1.126594	-1.128046	-0.049498	35.2154	-1.125539	-1.103539E+15	4.485394E-17	NaN
675	1.000000	0.022414	7.37165e+06	-43339.1	1005.82	-29779.4	0.000000	0.000000	6.022740	0.006698	NaN	0.000000	0.001657	0.001669	28.0815	0.061480	0.001665	36.9239	-96.8889	-169.383	-0.046940	0.021120	-1.116726	-1.118020	0.006698	36.9239	-1.116862	-8.440539E+14	-7.935399E-18	NaN
675	1.000000	0.032409	7.37165e+06	-43339.1	1005.82	-29779.4	0.000000	0.000000	6.032732	-0.069830	NaN	0.000000	0.001608	0.001671	28.0815	0.061823	0.001950	31.7012	87.7222	13.0742	-0.065003	0.031076	-1.106730	-1.108064	-0.069830	31.7012	-1.105078	-5.864538E+14	1.190715E-16	NaN
675	1.000000	0.042438	7.37165e+06	-43339.1	1005.82	-29779.4	0.000000	0.000000	6.042762	-0.041710	NaN	0.000000	0.001623	0.001645	28.0819	0.020536	0.001989	10.3271	-44.7942	-166.597	-0.019417	0.041095	-1.096702	-1.098045	-0.041710	10.3271	-1.093673	-4.122180E+14	1.011844E-16	NaN
675	1.000000	0.052421	7.37165e+06	-43339.1	1005.82	-29779.4	0.000000	0.000000	6.052747	0.009132	NaN	0.000000	0.001593	0.001629	28.0814	0.100192	0.002091	47.9053	53.8876	9.602648	-0.068382	0.051118	-1.086719	-1.088022	0.009132	47.9053	-1.086862	-3.339413E+14	-2.734631E-17	NaN
675	1.000000	0.062432	7.37165e+06	-43339.1	1005.82	-29779.4	0.000000	0.000000	6.062755	-0.086278	NaN	0.000000	0.001596	0.001641	28.0814	0.165272	0.002150	76.8812	164.648	-167.515	-0.060294	0.061135	-1.076707	-1.078005	-0.086278	76.8812	-1.075866	-2.376769E+14	3.630073E-16	NaN
675	1.000000	0.072434	7.37165e+06	-43339.1	1005.82	-29779.4	0.000000	0.000000	6.072762	0.041075	NaN	0.000000	0.001582	0.001623	28.0816	0.048586	0.002020	24.0496	-83.2318	14.7535	0.046178	0.071075	-1.066705	-1.068065	0.041075	24.0496	-1.067986	-1.862664E+14	-2.205153E-16	NaN
675	1.000000	0.082443	7.37165e+06	-43339.1	1005.82	-29779.4	0.000000	0.000000	6.082770	0.009934	NaN	0.000000	0.001557	0.001676	28.0815	0.097095	0.002039	47.6168	-0.851067	-163.238	0.001181	0.081105	-1.056696	-1.058034	0.009934	47.6168	-1.056853	-1.319848E+14	-7.526589E-17	NaN
675	1.000000	0.092432	7.37165e+06	-43339.1	1005.82	-29779.4	0.000000	0.000000	6.092759	0.021161	NaN	0.000000	0.001589	0.001652	28.0814	0.094795	0.001857	51.0511	-31.1451	10.3696	-0.003075	0.091075	-1.046708	-1.048065	0.021161	51.0511	-1.047019	-9.734980E+13	-2.173689E-16	NaN
675	1.000000	0.102421	7.37165e+06	-43339.1	1005.82	-29779.4	0.000000	0.000000	6.102747	0.001088	NaN	0.000000	0.001587	0.001627	28.0813	0.037910	0.001999	18.9645	-37.9309	-163.743	-0.045082	0.101074	-1.036719	-1.038066	0.001088	18.9645	-1.036762	-7.086380E+13	-1.534813E-17	NaN
675	1.000000	0.112425	7.37165e+06	-43339.1	1005.82	-29779.4	0.000000	0.000000	6.112751	0.016396	NaN	0.000000	0.001616	0.001624	28.0821	0.094315	0.001968	47.9312	-29.5586	13.6075	0.001904	0.111055	-1.026715	-1.028085	0.016396	47.9312	-1.026971	-5.232888E+13	-3.133202E-16	NaN
675	1.000000	0.122433	7.37165e+06	-43339.1	1005.82	-29779.4	0.000000	0.000000	6.122756	-0.074600	NaN	0.000000	0.001629	0.001641	28.0814	0.081254	0.001999	40.6547	54.8616	-165.048	-0.015189	0.121156	-1.016707	-1.017983	-0.074600	40.6547	-1.015330	-3.648535E+13	2.044668E-15	NaN
675	1.000000	0.132503	7.37165e+06	-43339.1	1005.82	-29779.4	0.000000	0.000000	6.132827	-0.050889	NaN	0.000000	0.001631	0.001673	28.0818	0.068224	0.001906	35.8016	173.295	16.1482	-0.016014	0.131084	-1.006637	-1.008056	-0.050889	35.8016	-1.005571	-2.696257E+13	1.887389E-15	NaN
675	1.000000	0.142456	7.37165e+06	-43339.1	1005.82	-29779.4	0.000000	0.000000	6.142779	-0.078908	NaN	0.000000	0.001606	0.001656	28.0826	0.059830	0.001971	30.3594	32.3051	-163.474	-0.127358	0.141121	-0.996683	-0.998019	-0.078908	30.3594	-0.994734	-1.926932E+13	4.094985E-15	NaN
675	1.000000	0.152480	7.37165e+06	-43339.1	1005.82	-29779.4	0.000000	0.000000	6.152804	-0.040581	NaN	0.000000	0.001625	0.001637	28.083	0.042923	0.002085	20.5877	69.7983	14.2553	0.006640	0.151133	-0.986659	-0.988006	-0.040581	20.5877	-0.985181	-1.432863E+13	2.832172E-15	NaN
675	1.000000	0.162445	7.37165e+06	-43339.1	1005.82	-29779.4	0.000000	0.000000	6.162767	-0.087604	NaN	0.000000	0.001644	0.001662	28.0826	0.043091	0.001670	25.8029	142.286	-164.786	-0.055271	0.161136	-0.976695	-0.978004	-0.087604	25.8029	-0.974148	-1.017577E+13	8.609066E-15	NaN
675	1.000000	0.172495	7.37165e+06	-43339.1	1005.82	-29779.4	0.000000	0.000000	6.172820	-0.017764	NaN	0.000000	0.001622	0.001699	28.0828	0.076504	0.002129	35.9288	19.6047	13.3251	-0.053476	0.171122	-0.966644	-0.968017	-0.017764	35.9288	-0.966274	-7.969665E+12	2.228909E-15	NaN
675	1.000000	0.182467	7.37165e+06	-43339.1	1005.82	-29779.4	0.000000	0.000000	6.182791	-0.041544	NaN	0.000000	0.001615	0.001700	28.0828	0.051484	0.002038	25.268	-59.3709	-164.339	-0.056100	0.181158	-0.956673	-0.957981	-0.041544	25.268	-0.955440	-5.693536E+12	7.296757E-15	NaN
675	1.000000	0.192485	7.37165e+06	-43339.1	1005.82	-29779.4	0.000000	0.000000	6.192809	-0.035780	NaN	0.000000	0.001614	0.001682	28.0825	0.033397	0.002052	16.2789	132.358	15.7696	-0.119326	0.191120	-0.946655	-0.948020	-0.035780	16.2789	-0.945006	-4.117879E+12	8.688858E-15	NaN
675	1.000000	0.202478	7.37165e+06	-43339.1	1005.82	-29779.4	0.000000	0.000000	6.202803	-0.035825	NaN	0.000000	0.001627	0.001658	28.0825	0.134334	0.002071	64.8616	85.6887	-169.418	-0.012959	0.201184	-0.936661	-0.937956	-0.035825	64.8616	-0.936247	-3.136893E+12	1.142065E-14	NaN
675	1.000000	0.212465	7.37165e+06	-43339.1	1005.82	-29779.4	0.000000	0.000000	6.212790	-0.019344	NaN	0.000000	0.001621	0.001696	28.0825	0.031411	0.001956	16.0603	-170.103	15.5949	0.018444	0.211224	-0.926674	-0.927915	-0.019344	16.0603	-0.925771	-2.265257E+12	8.539584E-15	NaN
675	1.000000	0.222509	7.37165e+06	-43339.1	1005.82	-29779.4	0.000000	0.000000	6.222832	-0.054515	NaN	0.000000	0.001577	0.001676	28.0826	0.019882	0.001890	10.5225	70.6266	-166.209	-0.062539	0.221230	-0.916631	-0.917910	-0.054515	10.5225	-0.912745	-1.510925E+12	3.608052E-14	NaN
675	1.000000	0.232505	7.37165e+06	-43339.1	1005.82	-29779.4	0.000000	0.000000	6.232829	-0.041176	NaN	0.000000	0.001660	0.001668	28.0826	0.051128	0.001924	26.569	27.6778	13.0835	-0.006567	0.231147	-0.906635	-0.907992	-0.041176	26.569	-0.905472	-1.205042E+12	3.417008E-14	NaN
675	1.000000	0.242484	7.37165e+06	-43339.1	1005.82	-29779.4	0.000000	0.000000	6.242809	-0.034631	NaN	0.000000	0.001618	0.001682	28.0824	0.066003	0.001972	33.4708	53.1794	-164.461	-0.037933	0.241220	-0.896655	-0.897920	-0.034631	33.4708	-0.895879	-8.940933E+11	3.873311E-14	NaN
675	1.000000	0.252519	7.37165e+06	-43339.1	1005.82	-29779.4	0.000000	0.000000	6.252843	-0.034780	NaN	0.000000	0.001574	0.001668	28.0826	0.039309	0.001975	19.9058	18.214	13.5048	0.027875	0.251166	-0.886621	-0.887973	-0.034780	19.9058	-0.885311	-6.434575E+11	5.405211E-14	NaN
675	1.000000	0.262508	7.37165e+06	-43339.1	1005.82	-29779.4	0.000000	0.000000	6.262836	0.038514	NaN	0.000000	0.001625	0.001648	28.0827	0.106672	0.002002	53.2696	-83.5401	-167.159	0.053335	0.261221	-0.876631	-0.877918	0.038514	53.2696	-0.877174	-4.994393E+11	-7.711374E-14	NaN
675	1.000000	0.272502	7.37165e+06	-43339.1	1005.82	-29779.4	0.000000	0.000000	6.272828	0.002337	NaN	0.000000	0.001616	0.001696	28.0822	0.150303	0.001998	75.2241	29.678	14.0608	-0.058844	0.271135	-0.866638	-0.868004	0.002337	75.2241	-0.866661	-3.599718E+11	-6.493466E-15	NaN
675	1.000000	0.282529	7.37165e+06	-43339.1	1005.82	-29779.4	0.000000	0.000000	6.282853	-0.050054	NaN	0.000000	0.001639	0.001683	28.0814	0.036643	0.001907	19.2119	49.0865	-166.005	-0.029750	0.281183	-0.856610	-0.857957	-0.050054	19.2119	-0.854656	-2.476188E+11	2.021408E-13	NaN
675	1.000000	0.292537	7.37165e+06	-43339.1	1005.82	-29779.4	0.000000	0.000000	6.292862	-0.031728	NaN	0.000000	0.001626	0.001685	28.0818	0.052544	0.001971	26.6591	73.2352	12.1844	-0.019528	0.291147	-0.846602	-0.847993	-0.031728	26.6591	-0.845710	-1.873417E+11	1.693606E-13	NaN
675	1.000000	0.302559	7.37165e+06	-43339.1	1005.82	-29779.4	0.000000	0.000000	6.302884	-0.029446	NaN	0.000000	0.001623	0.001667	28.0814	0.156915	0.002111	74.3386	86.5075	-164.475	-0.061997	0.301167	-0.836580	-0.837973	-0.029446	74.3386	-0.836283	-1.396157E+11	2.109104E-13	NaN
675	1.000000	0.312550	7.37165e+06	-43339.1	1005.82	-29779.4	0.000000	0.000000	6.312874	-0.026335	NaN	0.000000	0.001681	0.001664	28.0818	0.121156	0.001861	65.0934	-82.8695	16.7337	0.073150	0.311136	-0.826590	-0.828003	-0.026335	65.0934	-0.826287	-1.021997E+11	2.576841E-13	NaN
675	1.000000	0.322522	7.37165e+06	-43339.1	1005.82	-29779.4	0.000000	0.000000	6.322846	-0.041755	NaN	0.000000	0.001627	0.001694	28.0815	0.035247	0.001983	17.7721	-118.451	-166.349	-0.028258	0.321212	-0.816618	-0.817928	-0.041755	17.7721	-0.814856	-7.152206E+10	5.838016E-13	NaN
675	1.000000	0.332544	7.37165e+06	-43339.1	1005.82	-29779.4	0.000000	0.000000	6.332871	0.041902	NaN	0.000000	0.001612	0.001685	28.0819	0.047051	0.001952	24.1085	89.7934	17.5788	-0.044349	0.331147	-0.806596	-0.807993	0.041902	24.1085	-0.807900	-5.755372E+10	-7.280428E-13	NaN
675	1.000000	0.342548	7.37165e+06	-43339.1	1005.82	-29779.4	0.000000	0.000000	6.342875	0.027699	NaN	0.000000	0.001579	0.001720	28.0817	0.093639	0.002046	45.7631	98.8568	-164.552	-0.018272	0.341222	-0.796592	-0.797918	0.027699	45.7631	-0.797046	-4.099762E+10	-6.756217E-13	NaN
675	1.000000	0.352537	7.37165e+06	-43339.1	1005.82	-29779.4	0.000000	0.000000	6.352862	-0.029169	NaN	0.000000	0.001606	0.001702	28.0817	0.134702	0.002014	66.8985	-49.233	11.7842	-0.036852	0.351194	-0.786602	-0.787946	-0.029169	66.8985	-0.786275	-2.927452E+10	9.963982E-13	NaN
675	1.000000	0.362535	7.37165e+06	-43339.1	1005.82	-29779.4	0.000000	0.000000	6.362858	-0.075535	NaN	0.000000	0.001627	0.001693	28.0817	0.037380	0.002143	17.445	-39.3212	-166.442	0.025853	0.361311	-0.776604	-0.777829	-0.075535	17.445	-0.773357	-1.954093E+10	3.865466E-12	NaN
675	1.000000	0.372546	7.37165e+06	-43339.1	1005.82	-29779.4	0.000000	0.000000	6.372869	-0.063461	NaN	0.000000	0.001639	0.001705	28.0814	0.039027	0.002052	19.0151	-54.6903	18.1897	-0.051921	0.371238	-0.766594	-0.767901	-0.063461	19.0151	-0.764091	-1.462008E+10	4.340684E-12	NaN
675	1.000000	0.382575	7.37165e+06	-43339.1	1005.82	-29779.4	0.000000	0.000000	6.382897	-0.083001	NaN	0.000000	0.001609	0.001663	28.0814	0.031532	0.001995	15.8078	118.287	-163.043	-0.100674	0.381223	-0.756565	-0.757917	-0.083001	15.8078	-0.752627	-1.020885E+10	8.130334E-12	NaN
675	1.000000	0.392549	7.37165e+06	-43339.1	1005.82	-29779.4	0.000000	0.000000	6.392872	-0.058752	NaN	0.000000	0.001627	0.001697	28.0816	0.092365	0.001923	48.0395	-166.735	11.452	-0.179591	0.391191	-0.746591	-0.747949	-0.058752	48.0395	-0.745673	-8.209537E+9	7.156612E-12	NaN
675	1.000000	0.402580	7.37165e+06	-43339.1	1005.82	-29779.4	0.000000	0.000000	6.402904	-0.037502	NaN	0.000000	0.001634	0.001684	28.0815	0.031365	0.002039	15.3806	-102.367	-167.61	-0.048913	0.401281	-0.736560	-0.737859	-0.037502	15.3806	-0.734731	-5.824798E+9	6.438404E-12	NaN
675	1.000000	0.412574	7.37165e+06	-43339.1	1005.82	-29779.4	0.000000	0.000000	6.412899	-0.022093	NaN	0.000000	0.001638	0.001666	28.0827	0.014236	0.002038	6.985502	-79.075	12.6046	0.000230	0.411217	-0.726565	-0.727922	-0.022093	6.985502	-0.724194	-4.184619E+9	5.279492E-12	NaN
675	1.000000	0.422596	7.37165e+06	-43339.1	1005.82	-29779.4	0.000000	0.000000	6.422919	-0.081917	NaN	0.000000	0.001630	0.001678	28.0826	0.048082	0.002043	23.5343	-75.8537	-167.926	-0.109919	0.421249	-0.716543	-0.717891	-0.081917	23.5343	-0.713933	-3.031889E+9	2.701834E-11	NaN
675	1.000000	0.432613	7.37165e+06	-43339.1	1005.82	-29779.4	0.000000	0.000000	6.432936	-0.057599	NaN	0.000000	0.001658	0.001658	28.0827	0.056488	0.002032	27.8024	110.962	15.2886	0.038988	0.431207	-0.706527	-0.707932	-0.057599	27.8024	-0.704973	-2.287867E+9	2.517596E-11	NaN
675	1.000000	0.442604	7.37165e+06	-43339.1	1005.82	-29779.4	0.000000	0.000000	6.442927	-0.078055	NaN	0.000000	0.001699	0.001697	28.0828	0.042857	0.002121	20.2062	106.791	-169.487	-0.006090	0.441238	-0.696535	-0.697901	-0.078055	20.2062	-0.693638	-1.601887E+9	4.872704E-11	NaN
675	1.000000	0.452613	7.37165e+06	-43339.1	1005.82	-29779.4	0.000000	0.000000	6.452938	-0.033326	NaN	0.000000	0.001698	0.001678	28.0828	0.048504	0.001917	25.2978	-104.286	12.7201	0.003632	0.451241	-0.686526	-0.687898	-0.033326	25.2978	-0.685538	-1.241462E+9	2.684454E-11	NaN
675	1.000000	0.462570	7.37165e+06	-43339.1	1005.82	-29779.4	0.000000	0.000000	6.462896	-0.008904	NaN	0.000000	0.001756	0.001711	28.0829	0.035188	0.002037	17.2773	4.222719	-167.901	0.009617	0.461259	-0.676569	-0.677880	-0.008904	17.2773	-0.676183	-9.246790E+8	9.628791E-12	NaN
675	1.000000	0.472594	7.37165e+06	-43339.1	1005.82	-29779.4	0.000000	0.000000	6.472919	-0.013569	NaN	0.000000	0.001645	0.001718	28.0829	0.100547	0.001970	51.0355	175.897	14.3417	-0.124835	0.471224	-0.666546	-0.667916	-0.013569	51.0355	-0.666346	-6.782248E+8	2.000660E-11	NaN
675	1.000000	0.482616	7.37165e+06	-43339.1	1005.82	-29779.4	0.000000	0.000000	6.482938	-0.103092	NaN	0.000000	0.001718	0.001669	28.0827	0.027115	0.002069	13.106	19.2422	-168.416	-0.135607	0.481286	-0.656524	-0.657854	-0.103092	13.106	-0.650624	-4.130410E+8	2.495925E-10	NaN
675	1.000000	0.492597	7.37165e+06	-43339.1	1005.82	-29779.4	0.000000	0.000000	6.492916	-0.158432	NaN	0.000000	0.001637	0.001700	28.0825	0.034343	0.001962	17.5083	138.711	15.428	-0.125726	0.491198	-0.646543	-0.647942	-0.158432	17.5083	-0.639756	-2.930542E+8	5.406228E-10	NaN
675	1.000000	0.502606	7.37165e+06	-43339.1	1005.82	-29779.4	0.000000	0.000000	6.502931	-0.037094	NaN	0.000000	0.001638	0.001673	28.0828	0.057343	0.002041	28.0971	-106.264	-167.562	0.034744	0.501287	-0.636533	-0.637852	-0.037094	28.0971	-0.635543	-2.565239E+8	1.446010E-10	NaN
675	1.000000	0.512616	7.37165e+06	-43339.1	1005.82	-29779.4	0.000000	0.000000	6.512939	-0.070324	NaN	0.000000	0.001616	0.001692	28.0826	0.054665	0.001996	27.3862	-162.249	14.0871	-0.049494	0.511239	-0.626524	-0.627901	-0.070324	27.3862	-0.624598	-1.814759E+8	3.875130E-10	NaN
675	1.000000	0.522621	7.37165e+06	-43339.1	1005.82	-29779.4	0.000000	0.000000	6.522947	-0.007977	NaN	0.000000	0.001637	0.001679	28.0826	0.081355	0.002005	40.5753	-148.309	-165.403	-0.090058	0.521296	-0.616518	-0.617844	-0.007977	40.5753	-0.616371	-1.398761E+8	5.702622E-11	NaN
675	1.000000	0.532641	7.37165e+06	-43339.1	1005.82	-29779.4	0.000000	0.000000	6.532967	8.046431E-5	NaN	0.000000	0.001621	0.001683	28.0826	0.104831	0.002065	50.77	90.9746	15.7166	0.066867	0.531213	-0.606499	-0.607926	8.046431E-5	50.77	-0.606500	-1.023180E+8	-7.864140E-13	NaN
675	1.000000	0.542604	7.37165e+06	-43339.1	1005.82	-29779.4	0.000000	0.000000	6.542928	-0.058486	NaN	0.000000	0.001704	0.001691	28.0827	0.074599	0.002114	35.2951	110.663	-164.247	-0.052023	0.541351	-0.596535	-0.597789	-0.058486	35.2951	-0.595293	-7.171531E+7	8.155319E-10	NaN
675	1.000000	0.552628	7.37165e+06	-43339.1	1005.82	-29779.4	0.000000	0.000000	6.552951	-0.070182	NaN	0.000000	0.001676	0.001650	28.0815	0.073785	0.002052	35.9563	87.4698	11.7074	-0.057068	0.551252	-0.586512	-0.587887	-0.070182	35.9563	-0.585048	-5.180533E+7	1.354725E-9	NaN
675	1.000000	0.562654	7.37165e+06	-43339.1	1005.82	-29779.4	0.000000	0.000000	6.562978	-0.045533	NaN	0.000000	0.001670	0.001646	28.0815	0.052174	0.001866	27.9562	1.421515	-166.751	-0.125870	0.561296	-0.576486	-0.577843	-0.045533	27.9562	-0.575264	-3.796207E+7	1.199434E-9	NaN
675	1.000000	0.572624	7.37165e+06	-43339.1	1005.82	-29779.4	0.000000	0.000000	6.572948	-0.053954	NaN	0.000000	0.001689	0.001690	28.0814	0.059753	0.002020	29.5857	165.742	16.1681	-0.037975	0.571314	-0.566515	-0.567826	-0.053954	29.5857	-0.565147	-2.751469E+7	1.960912E-9	NaN
675	1.000000	0.582645	7.37165e+06	-43339.1	1005.82	-29779.4	0.000000	0.000000	6.582972	0.020108	NaN	0.000000	0.001629	0.001622	28.0817	0.112895	0.001953	57.8047	25.457	-167.66	0.005251	0.581343	-0.556494	-0.557796	0.020108	57.8047	-0.556755	-2.106121E+7	-9.547357E-10	NaN
675	1.000000	0.592660	7.37165e+06	-43339.1	1005.82	-29779.4	0.000000	0.000000	6.592984	-0.030806	NaN	0.000000	0.001692	0.001676	28.0814	0.057772	0.002054	28.1273	152.658	11.8357	0.005449	0.591270	-0.546480	-0.547869	-0.030806	28.1273	-0.545658	-1.478444E+7	2.083680E-9	NaN
675	1.000000	0.602648	7.37165e+06	-43339.1	1005.82	-29779.4	0.000000	0.000000	6.602974	-0.006636	NaN	0.000000	0.001691	0.001711	28.0815	0.065516	0.002030	32.2758	-98.9727	-165.624	-0.041449	0.601291	-0.536492	-0.537849	-0.006636	32.2758	-0.536338	-1.097869E+7	6.044884E-10	NaN
675	1.000000	0.612662	7.37165e+06	-43339.1	1005.82	-29779.4	0.000000	0.000000	6.612986	-0.036054	NaN	0.000000	0.001696	0.001645	28.0817	0.074478	0.002045	36.4225	99.0518	15.1067	-0.039161	0.611319	-0.526478	-0.527820	-0.036054	36.4225	-0.525736	-7.82232e+06	4.609057E-9	NaN
675	1.000000	0.622674	7.37165e+06	-43339.1	1005.82	-29779.4	0.000000	0.000000	6.622999	-0.040840	NaN	0.000000	0.001674	0.001651	28.0813	0.100676	0.002024	49.7448	-47.0749	-166.867	-0.019189	0.621343	-0.516465	-0.517797	-0.040840	49.7448	-0.515850	-5.69975e+06	7.165270E-9	NaN
675	1.000000	0.632705	7.37165e+06	-43339.1	1005.82	-29779.4	0.000000	0.000000	6.633030	-0.031368	NaN	0.000000	0.001673	0.001646	28.0817	0.033802	0.002032	16.6331	2.459111	13.2723	0.011093	0.631300	-0.506435	-0.507839	-0.031368	16.6331	-0.505020	-4.02741e+06	7.788639E-9	NaN
675	1.000000	0.642669	7.37165e+06	-43339.1	1005.82	-29779.4	0.000000	0.000000	6.642992	-0.067200	NaN	0.000000	0.001669	0.001680	28.0817	0.089446	0.002118	42.2398	-140.358	-169.552	-0.044857	0.641346	-0.496470	-0.497794	-0.067200	42.2398	-0.495277	-2.94512e+06	2.281727E-8	NaN
675	1.000000	0.652671	7.37166e+06	-43339.1	1005.82	-29779.4	0.000000	0.000000	6.653000	0.074196	NaN	0.000000	0.001676	0.001679	28.0818	0.096799	0.002033	47.617	85.6284	14.8	0.056082	0.651322	-0.486469	-0.487817	0.074196	47.617	-0.487637	-2.3034e+06	-3.221145E-8	NaN
675	1.000000	0.662693	7.37166e+06	-43339.1	1005.82	-29779.4	0.000000	0.000000	6.663018	-0.012912	NaN	0.000000	0.001671	0.001646	28.0816	0.047847	0.002077	23.0355	92.5344	-167.02	0.023103	0.661369	-0.476447	-0.477771	-0.012912	23.0355	-0.476026	-1.58445e+06	8.149112E-9	NaN
675	1.000000	0.672722	7.37166e+06	-43339.1	1005.82	-29779.4	0.000000	0.000000	6.673047	-0.033936	NaN	0.000000	0.001695	0.001620	28.0816	0.084438	0.001957	43.1438	83.5789	13.8606	-0.005845	0.671307	-0.466417	-0.467832	-0.033936	43.1438	-0.465827	-1.13988e+06	2.977159E-8	NaN
675	1.000000	0.682696	7.37166e+06	-43339.1	1005.82	-29779.4	0.000000	0.000000	6.683018	-0.086927	NaN	0.000000	0.001613	0.001676	28.0823	0.072269	0.001955	36.9702	-53.5263	-165.276	-0.099121	0.681361	-0.456444	-0.457779	-0.086927	36.9702	-0.454680	-794733	1.093791E-7	NaN
675	1.000000	0.692716	7.37166e+06	-43339.1	1005.82	-29779.4	0.000000	0.000000	6.693041	-0.024123	NaN	0.000000	0.001618	0.001639	28.083	0.069332	0.001933	35.8719	28.0951	13.1076	-0.059200	0.691284	-0.446423	-0.447855	-0.024123	35.8719	-0.445919	-598199	4.032639E-8	NaN
675	1.000000	0.702694	7.37166e+06	-43339.1	1005.82	-29779.4	0.000000	0.000000	6.703019	-0.022143	NaN	0.000000	0.001609	0.001658	28.0829	0.041933	0.001905	22.013	-146.952	-167.15	-0.073218	0.701345	-0.436445	-0.437795	-0.022143	22.013	-0.435691	-429056	5.160901E-8	NaN
675	1.000000	0.712694	7.37166e+06	-43339.1	1005.82	-29779.4	0.000000	0.000000	6.713016	-0.102348	NaN	0.000000	0.001609	0.001688	28.0832	0.105003	0.002020	51.9943	153.993	12.3167	-0.058450	0.711348	-0.426446	-0.427792	-0.102348	51.9943	-0.424969	-302586	3.382443E-7	NaN
675	1.000000	0.722689	7.37166e+06	-43339.1	1005.82	-29779.4	0.000000	0.000000	6.723013	-0.047267	NaN	0.000000	0.001627	0.001652	28.0832	0.110189	0.001878	58.6703	72.4693	-168.089	0.061217	0.721382	-0.416451	-0.417758	-0.047267	58.6703	-0.415847	-224635	2.104176E-7	NaN
675	1.000000	0.732718	7.37166e+06	-43339.1	1005.82	-29779.4	0.000000	0.000000	6.733042	-0.043853	NaN	0.000000	0.001625	0.001655	28.0829	0.040324	0.002021	19.9547	171.358	11.9905	-0.034613	0.731320	-0.406421	-0.407820	-0.043853	19.9547	-0.404773	-156321	2.805302E-7	NaN
675	1.000000	0.742743	7.37166e+06	-43339.1	1005.82	-29779.4	0.000000	0.000000	6.743068	-0.007320	NaN	0.000000	0.001657	0.001681	28.0831	0.054814	0.002084	26.3019	65.6026	-164.727	0.052063	0.741424	-0.396397	-0.397716	-0.007320	26.3019	-0.396188	-117924	6.207104E-8	NaN
675	1.000000	0.752751	7.37166e+06	-43339.1	1005.82	-29779.4	0.000000	0.000000	6.753073	-0.087451	NaN	0.000000	0.001659	0.001667	28.0833	0.040296	0.002055	19.6066	76.3224	11.6454	-0.194338	0.751420	-0.386389	-0.387720	-0.087451	19.6066	-0.383044	-76479.8	1.143459E-6	NaN
675	1.000000	0.762705	7.37166e+06	-43339.1	1005.82	-29779.4	0.000000	0.000000	6.763026	-0.114699	NaN	0.000000	0.001652	0.001634	28.0831	0.094740	0.002088	45.375	-8.833383	-166.154	-0.105135	0.761418	-0.376435	-0.377722	-0.114699	45.375	-0.374539	-57736	1.986620E-6	NaN
675	1.000000	0.772711	7.37166e+06	-43339.1	1005.82	-29779.4	0.000000	0.000000	6.773035	-0.039142	NaN	0.000000	0.001641	0.001659	28.0832	0.076904	0.002009	38.2769	79.2176	12.8261	0.084678	0.771345	-0.366429	-0.367795	-0.039142	38.2769	-0.365662	-43013.4	9.099957E-7	NaN
675	1.000000	0.782707	7.37166e+06	-43339.1	1005.82	-29779.4	0.000000	0.000000	6.783030	-0.059014	NaN	0.000000	0.001618	0.001654	28.0831	0.089097	0.002026	43.9752	-52.9872	-160.765	-0.076213	0.781396	-0.356433	-0.357744	-0.059014	43.9752	-0.355426	-30596.4	1.928774E-6	NaN
675	1.000000	0.792777	7.37166e+06	-43339.1	1005.82	-29779.4	0.000000	0.000000	6.793104	0.011401	NaN	0.000000	0.001650	0.001678	28.0836	0.132797	0.001937	68.5482	19.1483	14.8237	-0.019498	0.791401	-0.346362	-0.347739	0.011401	68.5482	-0.346487	-22697.4	-5.022906E-7	NaN
675	1.000000	0.802730	7.37166e+06	-43339.1	1005.82	-29779.4	0.000000	0.000000	6.803055	-0.008724	NaN	0.000000	0.001683	0.001672	28.0831	0.057668	0.002060	27.9999	-146.144	-169.055	-0.028633	0.801434	-0.336410	-0.337705	-0.008724	27.9999	-0.336176	-16060.8	5.432170E-7	NaN
675	1.000000	0.812733	7.37166e+06	-43339.1	1005.82	-29779.4	0.000000	0.000000	6.813057	-0.038878	NaN	0.000000	0.001624	0.001694	28.0834	0.077700	0.001917	40.5391	110.456	12.2266	-0.049569	0.811360	-0.326407	-0.327780	-0.038878	40.5391	-0.325687	-11277.8	3.447342E-6	NaN
675	1.000000	0.822760	7.37166e+06	-43339.1	1005.82	-29779.4	0.000000	0.000000	6.823085	-0.014915	NaN	0.000000	0.001642	0.001684	28.0819	0.055597	0.002077	26.7641	-80.6942	-170.428	-0.079801	0.821398	-0.316379	-0.317741	-0.014915	26.7641	-0.315961	-8112.1	1.838575E-6	NaN
675	1.000000	0.832765	7.37166e+06	-43339.1	1005.82	-29779.4	0.000000	0.000000	6.833090	-0.015561	NaN	0.000000	0.001638	0.001714	28.082	0.091879	0.001913	48.0339	-55.6588	15.0743	0.027925	0.831425	-0.306374	-0.307715	-0.015561	48.0339	-0.306131	-5804.19	2.681036E-6	NaN
675	1.000000	0.842747	7.37166e+06	-43339.1	1005.82	-29779.4	0.000000	0.000000	6.843072	-0.014552	NaN	0.000000	0.001633	0.001717	28.0821	0.103685	0.002052	50.5214	-13.9953	-163.209	-0.031784	0.841427	-0.296393	-0.297713	-0.014552	50.5214	-0.296177	-4127.19	3.525981E-6	NaN
675	1.000000	0.852745	7.37166e+06	-43339.1	1005.82	-29779.4	0.000000	0.000000	6.853067	-0.080374	NaN	0.000000	0.001619	0.001711	28.0822	0.024239	0.002006	12.081	14.2202	13.8321	-0.074741	0.851412	-0.286395	-0.287728	-0.080374	12.081	-0.281405	-2478.32	3.243105E-5	NaN
675	1.000000	0.862738	7.37166e+06	-43339.1	1005.82	-29779.4	0.000000	0.000000	6.863065	0.021221	NaN	0.000000	0.001621	0.001744	28.0822	0.100113	0.001975	50.681	71.6913	-166.322	-0.051429	0.861498	-0.276402	-0.277642	0.021221	50.681	-0.276716	-2105.54	-1.007851E-5	NaN
675	1.000000	0.872752	7.37166e+06	-43339.1	1005.82	-29779.4	0.000000	0.000000	6.873075	-0.080530	NaN	0.000000	0.001618	0.001731	28.082	0.053305	0.001883	28.3101	135.217	14.597	-0.135819	0.871414	-0.266387	-0.267726	-0.080530	28.3101	-0.264254	-1361.44	5.915041E-5	NaN
675	1.000000	0.882760	7.37166e+06	-43339.1	1005.82	-29779.4	0.000000	0.000000	6.883081	-0.113156	NaN	0.000000	0.001615	0.001660	28.082	0.032841	0.002057	15.9658	70.314	-166.785	-0.080771	0.881495	-0.256380	-0.257645	-0.113156	15.9658	-0.251064	-853.926	0.000133	NaN
675	1.000000	0.892746	7.37166e+06	-43339.1	1005.82	-29779.4	0.000000	0.000000	6.893072	0.000331	NaN	0.000000	0.001572	0.001640	28.0823	0.095668	0.001923	49.7379	147.635	11.9633	-0.049097	0.891430	-0.246394	-0.247710	0.000331	49.7379	-0.246399	-723.064	-4.581558E-7	NaN
675	1.000000	0.902756	7.37166e+06	-43339.1	1005.82	-29779.4	0.000000	0.000000	6.903083	0.044860	NaN	0.000000	0.001625	0.001635	28.0819	0.015184	0.001950	7.784710	-47.5395	-166.441	-0.034101	0.901496	-0.236384	-0.237644	0.044860	7.784710	-0.240706	-589.627	-7.608171E-5	NaN
675	1.000000	0.912777	7.37166e+06	-43339.1	1005.82	-29779.4	0.000000	0.000000	6.913103	0.005138	NaN	0.000000	0.001637	0.001672	28.0821	0.104399	0.002009	51.9608	-65.0299	15.1225	-0.025321	0.911397	-0.226363	-0.227743	0.005138	51.9608	-0.226437	-351.674	-1.461051E-5	NaN
675	1.000000	0.922775	7.37166e+06	-43339.1	1005.82	-29779.4	0.000000	0.000000	6.923097	-0.094800	NaN	0.000000	0.001634	0.001659	28.0821	0.084389	0.001958	43.1028	-83.8533	-167.364	-0.092619	0.921393	-0.216365	-0.217747	-0.094800	43.1028	-0.214715	-228.526	0.000415	NaN
675	1.000000	0.932797	7.37166e+06	-43339.1	1005.82	-29779.4	0.000000	0.000000	6.933123	0.012586	NaN	0.000000	0.001662	0.001629	28.0823	0.090864	0.001990	45.6519	-142.439	12.1803	-0.058416	0.931392	-0.206343	-0.207748	0.012586	45.6519	-0.206550	-168.579	-7.465862E-5	NaN
675	1.000000	0.942822	7.37166e+06	-43339.1	1005.82	-29779.4	0.000000	0.000000	6.943147	-0.025860	NaN	0.000000	0.001700	0.001709	28.082	0.101536	0.002157	47.0748	-112.065	-164.492	0.014878	0.941510	-0.196318	-0.197629	-0.025860	47.0748	-0.195906	-112.771	0.000229	NaN
675	1.000000	0.952797	7.37166e+06	-43339.1	1005.82	-29779.4	0.000000	0.000000	6.953120	-0.074566	NaN	0.000000	0.001683	0.001680	28.0821	0.061447	0.002010	30.5717	162.886	14.2376	-0.140436	0.951434	-0.186342	-0.187705	-0.074566	30.5717	-0.184513	-72.7653	0.001025	NaN
675	1.000000	0.962765	7.37166e+06	-43339.1	1005.82	-29779.4	0.000000	0.000000	6.963091	0.002268	NaN	0.000000	0.001679	0.001736	28.0835	0.036164	0.002061	17.548	-37.686	-168.641	-0.060013	0.961518	-0.176374	-0.177622	0.002268	17.548	-0.176471	-53.1158	-4.269875E-5	NaN
675	1.000000	0.972788	7.37166e+06	-43339.1	1005.82	-29779.4	0.000000	0.000000	6.973113	-0.032160	NaN	0.000000	0.001690	0.001717	28.0832	0.083400	0.002014	41.4118	-163.773	14.4884	-0.062320	0.971494	-0.166351	-0.167646	-0.032160	41.4118	-0.165769	-34.6575	0.000928	NaN
675	1.000000	0.982820	7.37166e+06	-43339.1	1005.82	-29779.4	0.000000	0.000000	6.983146	-0.013762	NaN	0.000000	0.001702	0.001712	28.0833	0.034367	0.001984	17.3235	60.4537	-166.811	0.019697	0.981480	-0.156319	-0.157660	-0.013762	17.3235	-0.155724	-22.9927	0.000599	NaN
675	1.000000	0.992827	7.37166e+06	-43339.1	1005.82	-29779.4	0.000000	0.000000	6.993151	-0.035262	NaN	0.000000	0.001672	0.001710	28.0833	0.109945	0.002026	54.2673	1.060849	14.1565	-0.068512	0.991527	-0.146313	-0.147612	-0.035262	54.2673	-0.145826	-15.1852	0.002322	NaN
675	1.000000	1.002820	7.37166e+06	-43339.1	1005.82	-29779.4	0.000000	0.000000	7.003145	-0.021780	NaN	0.000000	0.001688	0.001693	28.0837	0.078182	0.001858	42.0875	148.181	-165.159	-0.036883	1.001505	-0.136320	-0.137635	-0.021780	42.0875	-0.135931	-9.909327	0.002198	NaN
675	1.000000	1.012846	7.37166e+06	-43339.1	1005.82	-29779.4	0.000000	0.000000	7.013172	0.004182	NaN	0.000000	0.001689	0.001681	28.0831	0.135453	0.001803	75.1343	80.4824	13.8795	-0.016420	1.011432	-0.126294	-0.127708	0.004182	75.1343	-0.126335	-6.461726	-0.000647	NaN
675	1.000000	1.022826	7.37166e+06	-43339.1	1005.82	-29779.4	0.000000	0.000000	7.023151	-0.024993	NaN	0.000000	0.001686	0.001657	28.0833	0.054044	0.002092	25.8327	134.334	-164.166	-0.025068	1.021514	-0.116313	-0.117625	-0.024993	25.8327	-0.115588	-3.928308	0.006362	NaN
675	1.000000	1.032831	7.37166e+06	-43339.1	1005.82	-29779.4	0.000000	0.000000	7.033153	-0.105082	NaN	0.000000	0.001711	0.001677	28.0832	0.168223	0.001956	86.002	-49.5788	9.328726	-0.104564	1.031428	-0.106309	-0.107712	-0.105082	86.002	-0.105392	-2.396841	0.043842	NaN
675	1.000000	1.042820	7.37166e+06	-43339.1	1005.82	-29779.4	0.000000	0.000000	7.043141	-0.096216	NaN	0.000000	0.001690	0.001668	28.0832	0.030219	0.001954	15.464	146.257	-164.241	-0.092441	1.041497	-0.096320	-0.097643	-0.096216	15.464	-0.091654	-1.181476	0.081437	NaN
675	1.000000	1.052838	7.37166e+06	-43339.1	1005.82	-29779.4	0.000000	0.000000	7.053162	-0.051020	NaN	0.000000	0.001703	0.001697	28.0831	0.059952	0.002039	29.4001	97.2305	17.049	-0.039069	1.051434	-0.086301	-0.087706	-0.051020	29.4001	-0.085000	-0.821632	0.062096	NaN
675	1.000000	1.062854	7.37166e+06	-43339.1	1005.82	-29779.4	0.000000	0.000000	7.063180	-0.003629	NaN	0.000000	0.001703	0.001662	28.0831	0.077613	0.001978	39.2403	142.836	-164.891	-0.065529	1.061524	-0.076286	-0.077616	-0.003629	39.2403	-0.076216	-0.496427	0.007311	NaN
675	1.000000	1.072843	7.37166e+06	-43339.1	1005.82	-29779.4	0.000000	0.000000	7.073165	-0.100658	NaN	0.000000	0.001688	0.001676	28.0832	0.082389	0.002014	40.9089	-91.958	16.4101	-0.082318	1.071491	-0.066297	-0.067649	-0.100658	40.9089	-0.064451	-0.240616	0.418334	NaN
675	1.000000	1.082859	7.37166e+06	-43339.1	1005.82	-29779.4	0.000000	0.000000	7.083184	-0.023492	NaN	0.000000	0.001667	0.001673	28.0829	0.048115	0.001971	24.4151	68.482	-168.041	-0.054760	1.081512	-0.056281	-0.057628	-0.023492	24.4151	-0.055559	-0.133765	0.175620	NaN
675	1.000000	1.092855	7.37166e+06	-43339.1	1005.82	-29779.4	0.000000	0.000000	7.093178	-0.050459	NaN	0.000000	0.001668	0.001688	28.0822	0.024935	0.001940	12.852	151.512	13.1172	-0.061107	1.091488	-0.046285	-0.047651	-0.050459	12.852	-0.043340	-0.057179	0.882479	NaN
675	1.000000	1.102860	7.37166e+06	-43339.1	1005.82	-29779.4	0.000000	0.000000	7.103182	-0.105478	NaN	0.000000	0.001678	0.001701	28.0817	0.107811	0.002059	52.3714	-94.8951	-164.922	-0.053624	1.101508	-0.036280	-0.037631	-0.105478	52.3714	-0.034769	-0.031527	3.345584	NaN
675	1.000000	1.112857	7.37166e+06	-43339.1	1005.82	-29779.4	0.000000	0.000000	7.113180	-0.078147	NaN	0.000000	0.001647	0.001698	28.0819	0.051603	0.001971	26.1842	-27.0482	13.4746	-0.091899	1.111516	-0.026283	-0.027624	-0.078147	26.1842	-0.024044	-0.015933	4.904807	NaN
675	1.000000	1.122864	7.37166e+06	-43339.1	1005.82	-29779.4	0.000000	0.000000	7.123188	-0.041770	NaN	0.000000	0.001611	0.001676	28.0818	0.176641	0.002078	84.9851	142.694	-167.347	-0.057912	1.121525	-0.016276	-0.017614	-0.041770	84.9851	-0.015907	-0.009826	4.251048	NaN
675	1.000000	1.132870	7.37166e+06	-43339.1	1005.82	-29779.4	0.000000	0.000000	7.133195	-0.015537	NaN	0.000000	0.001541	0.001709	28.0818	0.030137	0.002028	14.8611	-115.094	10.0461	-0.093477	1.131537	-0.006270	-0.007602	-0.015537	14.8611	-0.005486	-0.003720	4.176661	NaN
675	2.000000	1.142362	7.37166e+06	-43339.1	1005.82	-29779.4	0.000000	0.000000	7.143028	8.283095	NaN	0.000000	0.001537	0.001680	28.0821	7.992046	0.001595	5009.63	7.505438	-172.19	7.365151	1.141461	0.003222	0.002322	8.283095	5009.63	0.001982	0.001540	5377.78	116623
675	2.000000	1.145011	7.37166e+06	-43339.1	1005.82	-29779.4	0.000000	0.000000	7.145905	13.8111	NaN	0.000000	0.001569	0.001764	28.0817	11.1521	0.001617	6895.79	2.687007	8.892507	12.7281	1.144726	0.005871	0.005586	13.8111	6895.79	0.004369	0.003565	3874.01	105517
675	2.000000	1.147557	7.37166e+06	-43339.1	1005.82	-29779.4	0.000000	0.000000	7.148634	18.267	NaN	0.000000	0.001522	0.001700	28.0818	14.9452	0.001805	8280.58	6.339226	-175.736	18.5599	1.147224	0.008417	0.008084	18.267	8280.58	0.006763	0.005801	3149.2	99334.6
675	2.000000	1.150035	7.37166e+06	-43339.1	1005.82	-29779.4	0.000000	0.000000	7.151332	23.6159	NaN	0.000000	0.001602	0.001692	28.0816	16.9508	0.001678	10102.4	7.429374	0.554528	22.3728	1.149666	0.010896	0.010526	23.6159	10102.4	0.009142	0.008244	2864.62	101655
675	2.000000	1.152483	7.37166e+06	-43339.1	1005.82	-29779.4	0.000000	0.000000	7.154013	29.3108	NaN	0.000000	0.001612	0.001730	28.0824	19.4832	0.001635	11916.2	3.136445	-177.36	28.2897	1.152180	0.013343	0.013040	29.3108	11916.2	0.011498	0.010895	2690.4	104305
675	2.000000	1.154938	7.37166e+06	-43339.1	1005.82	-29779.4	0.000000	0.000000	7.156805	37.4922	NaN	0.000000	0.001630	0.001703	28.0817	22.0359	0.001744	12637.7	3.204010	2.552623	35.0267	1.154675	0.015799	0.015535	37.4922	12637.7	0.013574	0.013430	2791.68	99632.8
675	2.000000	1.157516	7.37166e+06	-43339.1	1005.82	-29779.4	0.000000	0.000000	7.159488	40.0549	NaN	0.000000	0.001662	0.001710	28.082	24.7015	0.001882	13126.7	1.671324	-175.795	39.5541	1.157199	0.018376	0.018059	40.0549	13126.7	0.016087	0.016763	2389.48	92630.4
675	2.000000	1.160005	7.37166e+06	-43339.1	1005.82	-29779.4	0.000000	0.000000	7.162367	49.539	NaN	0.000000	0.001586	0.001712	28.0816	26.4678	0.001734	15261.6	3.376911	1.649483	49.3723	1.159585	0.020865	0.020445	49.539	15261.6	0.018431	0.020136	2460.2	98261.7
675	2.000000	1.162415	7.37166e+06	-43339.1	1005.82	-29779.4	0.000000	0.000000	7.165158	58.7939	NaN	0.000000	0.001580	0.001709	28.0817	28.9486	0.001868	15497.5	6.706393	178.036	56.8256	1.162157	0.023275	0.023017	58.7939	15497.5	0.020430	0.023223	2531.74	92913.7
675	2.000000	1.164949	7.37166e+06	-43339.1	1005.82	-29779.4	0.000000	0.000000	7.167965	65.4457	NaN	0.000000	0.001580	0.001716	28.0827	30.753	0.001738	17695.9	4.998398	-1.787613	62.1278	1.164630	0.025809	0.025491	65.4457	17695.9	0.023036	0.027539	2376.5	97426
675	2.000000	1.167481	7.37166e+06	-43339.1	1005.82	-29779.4	0.000000	0.000000	7.170840	73.8017	NaN	0.000000	0.001622	0.001673	28.0829	33.6828	0.001791	18801.7	4.142165	179.4	73.9704	1.167119	0.028341	0.027979	73.8017	18801.7	0.025397	0.031742	2325.04	96416.9
675	2.000000	1.170039	7.37166e+06	-43339.1	1005.82	-29779.4	0.000000	0.000000	7.173703	81.2295	NaN	0.000000	0.001622	0.001661	28.0827	36.1036	0.001863	19378.4	10.7161	-6.025546	84.0202	1.169558	0.030899	0.030419	81.2295	19378.4	0.027755	0.036219	2242.7	93029.5
675	2.000000	1.172457	7.37166e+06	-43339.1	1005.82	-29779.4	0.000000	0.000000	7.176643	93.9238	NaN	0.000000	0.001615	0.001681	28.0827	37.4675	0.001718	21810.7	5.168919	177.774	93.6358	1.172166	0.033317	0.033026	93.9238	21810.7	0.030088	0.040926	2294.99	98502
675	2.000000	1.174935	7.37166e+06	-43339.1	1005.82	-29779.4	0.000000	0.000000	7.179502	103.172	NaN	0.000000	0.001637	0.001711	28.0826	40.0473	0.001902	21054.4	7.311332	-4.295367	100.257	1.174579	0.035796	0.035439	103.172	21054.4	0.032121	0.045254	2279.87	90425.2
675	2.000000	1.177434	7.37166e+06	-43339.1	1005.82	-29779.4	0.000000	0.000000	7.182291	110.232	NaN	0.000000	0.001624	0.001700	28.0832	42.4798	0.001787	23774.1	6.419093	174.715	109.384	1.177150	0.038295	0.038010	110.232	23774.1	0.034817	0.051321	2147.89	95880.6
675	2.000000	1.180034	7.37166e+06	-43339.1	1005.82	-29779.4	0.000000	0.000000	7.185311	120.478	NaN	0.000000	0.001598	0.001719	28.0828	43.5244	0.001717	25348.5	4.094881	-3.281665	121.854	1.179657	0.040894	0.040517	120.478	25348.5	0.037329	0.057309	2102.27	96742
675	2.000000	1.182464	7.37166e+06	-43339.1	1005.82	-29779.4	0.000000	0.000000	7.188142	130.207	NaN	0.000000	0.001641	0.001691	28.0832	46.1648	0.001757	26276.4	4.851782	175.893	130.539	1.182080	0.043325	0.042940	130.207	26276.4	0.039608	0.063020	2066.14	95631.7
675	2.000000	1.184883	7.37166e+06	-43339.1	1005.82	-29779.4	0.000000	0.000000	7.190953	139.759	NaN	0.000000	0.001633	0.001674	28.0827	49.4315	0.001790	27617.1	5.433922	-5.715663	136.675	1.184567	0.045744	0.045428	139.759	27617.1	0.041948	0.069160	2020.8	95945.3
675	2.000000	1.187419	7.37166e+06	-43339.1	1005.82	-29779.4	0.000000	0.000000	7.193856	148.682	NaN	0.000000	0.001603	0.001659	28.083	51.8593	0.001874	27670.9	2.178697	177.735	147.59	1.187107	0.048279	0.047967	148.682	27670.9	0.044249	0.075470	1970.07	92025.5
675	2.000000	1.189881	7.37166e+06	-43339.1	1005.82	-29779.4	0.000000	0.000000	7.196911	163.11	NaN	0.000000	0.001612	0.001694	28.0828	53.5186	0.001830	29242.5	4.570999	-4.622049	159.942	1.189588	0.050741	0.050448	163.11	29242.5	0.046558	0.082071	1987.43	93259.7
675	2.000000	1.192375	7.37166e+06	-43339.1	1005.82	-29779.4	0.000000	0.000000	7.200014	177.926	NaN	0.000000	0.001626	0.001688	28.0829	55.1934	0.001791	30814.6	3.472511	175.577	175.535	1.192032	0.053235	0.052892	177.926	30814.6	0.048905	0.089057	1997.89	94339.8
675	2.000000	1.194906	7.37166e+06	-43339.1	1005.82	-29779.4	0.000000	0.000000	7.203003	189.082	NaN	0.000000	0.001631	0.001668	28.0829	57.8283	0.001884	30699.5	3.064177	-3.409461	186.079	1.194556	0.055766	0.055417	189.082	30699.5	0.051147	0.095990	1969.81	90529.8
675	2.000000	1.197395	7.37166e+06	-43339.1	1005.82	-29779.4	0.000000	0.000000	7.205785	196.196	NaN	0.000000	0.001673	0.001683	28.0832	60.3022	0.001756	34338	3.976613	174.341	194.421	1.197172	0.058255	0.058032	196.196	34338	0.053970	0.105079	1867.13	96781.1
675	2.000000	1.199901	7.37166e+06	-43339.1	1005.82	-29779.4	0.000000	0.000000	7.209119	216.34	NaN	0.000000	0.001663	0.001708	28.0815	61.9432	0.001784	34723.7	5.697912	-7.554031	212.668	1.199649	0.060762	0.060509	216.34	34723.7	0.056089	0.112158	1928.89	94729.4
675	2.000000	1.202397	7.37166e+06	-43339.1	1005.82	-29779.4	0.000000	0.000000	7.212237	231.483	NaN	0.000000	0.001654	0.001685	28.0816	64.1003	0.001792	35774.6	3.663362	174.689	229.589	1.202165	0.063257	0.063025	231.483	35774.6	0.058404	0.120149	1926.64	94294.9
675	2.000000	1.204941	7.37166e+06	-43339.1	1005.82	-29779.4	0.000000	0.000000	7.215315	244.479	NaN	0.000000	0.001642	0.001694	28.0815	67.244	0.001820	36957.2	3.585232	-5.649728	242.557	1.204575	0.065801	0.065435	244.479	36957.2	0.060840	0.128836	1897.6	94070.6
675	2.000000	1.207415	7.37166e+06	-43339.1	1005.82	-29779.4	0.000000	0.000000	7.218256	255.841	NaN	0.000000	0.001676	0.001655	28.0816	71.1974	0.001842	38652.7	7.204593	169.889	257	1.207153	0.068275	0.068014	255.841	38652.7	0.063311	0.137948	1854.62	95081.5
675	2.000000	1.209966	7.37166e+06	-43339.1	1005.82	-29779.4	0.000000	0.000000	7.221827	280.661	NaN	0.000000	0.001640	0.001724	28.0815	72.4443	0.001804	40155.8	6.320657	-8.613329	280.072	1.209478	0.070826	0.070338	280.661	40155.8	0.065584	0.146589	1914.61	95823.1
675	2.000000	1.212378	7.37166e+06	-43339.1	1005.82	-29779.4	0.000000	0.000000	7.224557	288.388	NaN	0.000000	0.001648	0.001676	28.0818	74.9446	0.001753	42758.8	4.618904	171.558	286.351	1.212183	0.073238	0.073043	288.388	42758.8	0.068180	0.156761	1839.67	98668.7
675	2.000000	1.214911	7.37166e+06	-43339.1	1005.82	-29779.4	0.000000	0.000000	7.227983	310.09	NaN	0.000000	0.001669	0.001685	28.0819	76.862	0.001810	42474.4	1.884026	-4.983370	309.105	1.214644	0.075772	0.075505	310.09	42474.4	0.070296	0.165296	1875.97	95448.7
675	2.000000	1.217426	7.37166e+06	-43339.1	1005.82	-29779.4	0.000000	0.000000	7.230745	316.121	NaN	0.000000	0.001636	0.001663	28.0814	79.0739	0.001669	47375.3	2.242445	173.465	315.981	1.217367	0.078286	0.078227	316.121	47375.3	0.073281	0.177692	1779.04	102681
675	2.000000	1.219820	7.37166e+06	-43339.1	1005.82	-29779.4	0.000000	0.000000	7.234699	354.068	NaN	0.000000	0.001646	0.001660	28.0813	81.1921	0.001768	45919.4	4.339972	-8.123060	347.325	1.219548	0.080681	0.080408	354.068	45919.4	0.074898	0.184580	1918.24	97651
675	2.000000	1.222496	7.37166e+06	-43339.1	1005.82	-29779.4	0.000000	0.000000	7.237949	368.063	NaN	0.000000	0.001644	0.001670	28.0816	84.7735	0.001807	46916.8	4.633378	171.669	372.903	1.222068	0.083356	0.082928	368.063	46916.8	0.077472	0.195805	1879.75	96870.1
675	2.000000	1.224886	7.37166e+06	-43339.1	1005.82	-29779.4	0.000000	0.000000	7.241260	390.45	NaN	0.000000	0.001637	0.001667	28.0818	87.8829	0.001823	48197.7	6.698740	-10.8583	387.819	1.224490	0.085746	0.085350	390.45	48197.7	0.079671	0.205636	1898.74	97106.9
675	2.000000	1.227299	7.37166e+06	-43339.1	1005.82	-29779.4	0.000000	0.000000	7.244534	411.383	NaN	0.000000	0.001662	0.001703	28.0816	90.0947	0.001754	51364.5	5.127375	170.38	407.775	1.227040	0.088160	0.087901	411.383	51364.5	0.082153	0.217008	1895.71	100739
675	2.000000	1.229897	7.37166e+06	-43339.1	1005.82	-29779.4	0.000000	0.000000	7.247984	432.114	NaN	0.000000	0.001667	0.001694	28.0817	92.0753	0.001787	51520.9	7.258191	-11.2707	428.872	1.229525	0.090758	0.090385	432.114	51520.9	0.084467	0.227866	1896.35	98609
675	2.000000	1.232366	7.37166e+06	-43339.1	1005.82	-29779.4	0.000000	0.000000	7.251265	451.871	NaN	0.000000	0.001622	0.001706	28.0825	94.1675	0.001784	52793.3	5.895097	169.08	448.957	1.232130	0.093227	0.092991	451.871	52793.3	0.086807	0.239098	1889.9	98642.4
675	2.000000	1.234838	7.37166e+06	-43339.1	1005.82	-29779.4	0.000000	0.000000	7.254832	478.519	NaN	0.000000	0.001606	0.001699	28.0829	95.8687	0.001791	53514.3	2.360957	-6.998327	473.548	1.234388	0.095698	0.095249	478.519	53514.3	0.088992	0.249811	1915.52	97822.1
675	2.000000	1.237429	7.37166e+06	-43339.1	1005.82	-29779.4	0.000000	0.000000	7.258160	496.468	NaN	0.000000	0.001594	0.001701	28.0826	98.7554	0.001800	54865.8	2.240193	172.788	496.506	1.237121	0.098289	0.097981	496.468	54865.8	0.091502	0.262394	1892.07	97858.4
675	2.000000	1.239884	7.37166e+06	-43339.1	1005.82	-29779.4	0.000000	0.000000	7.261757	524.238	NaN	0.000000	0.001581	0.001730	28.0827	100.756	0.001786	56407.2	4.989232	-9.807225	520.399	1.239481	0.100744	0.100341	524.238	56407.2	0.093774	0.274027	1913.09	98448.8
675	2.000000	1.240873	7.37166e+06	-43339.1	1005.82	-29779.4	0.000000	0.000000	7.262758	524.516	NaN	0.000000	0.001645	0.001712	28.0829	103.606	0.001802	57480.5	5.448865	-11.0842	520.667	1.240607	0.101734	0.101468	524.516	57480.5	0.094890	0.279827	1874.43	99277.1