File: remote_trans/data/nanoindenter/0828-1/data/Data_2025-08-06,11h17m57s/2025-07-22_16-23-58_1_481.txt
2025-07-22, 16:23:58, 1
Index	Phase	Displacement	Time	Pos X	Pos Y	Pos Z	Rot A	Rot B	Piezo Z	Force A	Force B	Gripper	Voltage A	Voltage B	Temperature	Amplitude force	Amplitude pos	Stiffness	Phase shift	Phase excitation	Force A raw	Displacement raw	HMax	HMax raw	Real Force	Real Stiffness	Contact Depth	Area	Hardness	Reduced Mod.
[#]	[#]	[um]	[s]	[um]	[um]	[um]	[m°]	[m°]	[um]	[uN]	[uN]	[V]	[V]	[V]	[°C]	[uN]	[um]	[N/m]	[°]	[°]	[uN]	[um]	[um]	[um]	[uN]	[N/m]	[um]	[um^2]	[MPa]	[MPa]
481	1.000000	0.002605	7.36976e+06	-53039.1	1005.82	-29747.6	0.000000	0.000000	6.002805	-0.073424	NaN	0.000000	0.001647	0.001687	28.0816	0.051613	0.001045	49.4092	-172.89	-163.403	-0.091385	0.001327	-1.100863	-1.102141	-0.073424	49.4092	-1.099748	-4.973786E+14	1.476212E-16	NaN
481	1.000000	0.012639	7.36976e+06	-53039.1	1005.82	-29747.6	0.000000	0.000000	6.012839	-0.081874	NaN	0.000000	0.001631	0.001707	28.081	0.053461	0.001381	38.7108	-113.168	19.2633	-0.081002	0.011214	-1.090829	-1.092253	-0.081874	38.7108	-1.089242	-3.594512E+14	2.277741E-16	NaN
481	1.000000	0.022555	7.36976e+06	-53039.1	1005.82	-29747.6	0.000000	0.000000	6.022759	0.008996	NaN	0.000000	0.001639	0.001712	28.082	0.045714	0.001761	25.9597	9.708320	-164.618	-0.017480	0.021251	-1.080913	-1.082216	0.008996	25.9597	-1.081173	-2.800704E+14	-3.212138E-17	NaN
481	1.000000	0.032555	7.36976e+06	-53039.1	1005.82	-29747.6	0.000000	0.000000	6.032755	-0.078657	NaN	0.000000	0.001663	0.001675	28.0821	0.146120	0.002078	70.3272	63.6391	11.6487	-0.029817	0.031182	-1.070912	-1.072285	-0.078657	70.3272	-1.070074	-1.986910E+14	3.958748E-16	NaN
481	1.000000	0.042504	7.36976e+06	-53039.1	1005.82	-29747.6	0.000000	0.000000	6.042707	0.012585	NaN	0.000000	0.001624	0.001730	28.0821	0.098477	0.001844	53.4067	161.103	-167.724	-0.021107	0.041244	-1.060964	-1.062224	0.012585	53.4067	-1.061141	-1.507138E+14	-8.350595E-17	NaN
481	1.000000	0.052552	7.36976e+06	-53039.1	1005.82	-29747.6	0.000000	0.000000	6.052752	-0.065700	NaN	0.000000	0.001625	0.001702	28.082	0.024405	0.001935	12.613	-159.731	11.6686	-0.058064	0.051163	-1.050916	-1.052305	-0.065700	12.613	-1.047009	-9.732185E+13	6.750818E-16	NaN
481	1.000000	0.062537	7.36976e+06	-53039.1	1005.82	-29747.6	0.000000	0.000000	6.062739	-0.022820	NaN	0.000000	0.001671	0.001737	28.0821	0.057688	0.001971	29.2663	107.938	-167.061	-0.023349	0.061212	-1.040931	-1.042255	-0.022820	29.2663	-1.040346	-7.918163E+13	2.881953E-16	NaN
481	1.000000	0.072540	7.36976e+06	-53039.1	1005.82	-29747.6	0.000000	0.000000	6.072742	-0.038613	NaN	0.000000	0.001702	0.001685	28.0823	0.010283	0.002019	5.093035	-46.9129	11.0505	-0.061987	0.071201	-1.030928	-1.032267	-0.038613	5.093035	-1.025241	-4.959860E+13	7.785122E-16	NaN
481	1.000000	0.082545	7.36976e+06	-53039.1	1005.82	-29747.6	0.000000	0.000000	6.082746	-0.057343	NaN	0.000000	0.001681	0.001690	28.0821	0.138368	0.001968	70.299	-14.0302	-165.002	-0.120616	0.081300	-1.020923	-1.022168	-0.057343	70.299	-1.020311	-4.257329E+13	1.346913E-15	NaN
481	1.000000	0.092544	7.36976e+06	-53039.1	1005.82	-29747.6	0.000000	0.000000	6.092746	-0.014084	NaN	0.000000	0.001714	0.001661	28.0821	0.025844	0.001982	13.0368	-70.3514	13.3773	-0.037847	0.091164	-1.010924	-1.012304	-0.014084	13.0368	-1.010114	-3.103957E+13	4.537385E-16	NaN
481	1.000000	0.102611	7.36976e+06	-53039.1	1005.82	-29747.6	0.000000	0.000000	6.102812	-0.046865	NaN	0.000000	0.001684	0.001686	28.082	0.060842	0.001887	32.2504	-3.521239	-169.018	-0.035512	0.101299	-1.000856	-1.002168	-0.046865	32.2504	-0.999767	-2.252303E+13	2.080768E-15	NaN
481	1.000000	0.112592	7.36976e+06	-53039.1	1005.82	-29747.6	0.000000	0.000000	6.112796	0.016574	NaN	0.000000	0.001709	0.001721	28.0828	0.021569	0.002150	10.0341	171.655	14.3843	-0.024137	0.111203	-0.990876	-0.992264	0.016574	10.0341	-0.992115	-1.776616E+13	-9.329063E-16	NaN
481	1.000000	0.122565	7.36976e+06	-53039.1	1005.82	-29747.6	0.000000	0.000000	6.122765	-0.067440	NaN	0.000000	0.001734	0.001719	28.0823	0.060384	0.001989	30.3595	51.5687	-166.829	-0.052044	0.121282	-0.980903	-0.982186	-0.067440	30.3595	-0.979237	-1.191606E+13	5.659600E-15	NaN
481	1.000000	0.132570	7.36976e+06	-53039.1	1005.82	-29747.6	0.000000	0.000000	6.132769	-0.107343	NaN	0.000000	0.001704	0.001685	28.082	0.073082	0.001970	37.0975	103.092	16.9493	-0.171640	0.131249	-0.970898	-0.972219	-0.107343	37.0975	-0.968727	-8.600270E+12	1.248135E-14	NaN
481	1.000000	0.142585	7.36976e+06	-53039.1	1005.82	-29747.6	0.000000	0.000000	6.142789	0.006461	NaN	0.000000	0.001680	0.001662	28.0823	0.067365	0.001922	35.0494	-85.1284	-165.762	-0.049507	0.141267	-0.960882	-0.962200	0.006461	35.0494	-0.961021	-6.770638E+12	-9.542491E-16	NaN
481	1.000000	0.152577	7.36976e+06	-53039.1	1005.82	-29747.6	0.000000	0.000000	6.152778	-0.046654	NaN	0.000000	0.001732	0.001731	28.0824	0.105197	0.002132	49.3412	159.839	14.8255	-0.098816	0.151202	-0.950891	-0.952266	-0.046654	49.3412	-0.950182	-4.835880E+12	9.647424E-15	NaN
481	1.000000	0.162590	7.36976e+06	-53039.1	1005.82	-29747.6	0.000000	0.000000	6.162791	-0.064741	NaN	0.000000	0.001693	0.001713	28.081	0.098857	0.002035	48.587	-104.249	-166.222	-0.000775	0.161264	-0.940877	-0.942204	-0.064741	48.587	-0.939878	-3.511482E+12	1.843693E-14	NaN
481	1.000000	0.172593	7.36976e+06	-53039.1	1005.82	-29747.6	0.000000	0.000000	6.172797	0.036578	NaN	0.000000	0.001669	0.001762	28.0809	0.063411	0.001997	31.76	-17.3345	11.6924	0.009120	0.171240	-0.930875	-0.932228	0.036578	31.76	-0.931739	-2.726861E+12	-1.341401E-14	NaN
481	1.000000	0.182628	7.36976e+06	-53039.1	1005.82	-29747.6	0.000000	0.000000	6.182829	-0.048482	NaN	0.000000	0.001688	0.001783	28.0809	0.079231	0.001983	39.9586	158.105	-162.899	-0.108419	0.181295	-0.920840	-0.922172	-0.048482	39.9586	-0.919930	-1.889101E+12	2.566432E-14	NaN
481	1.000000	0.192602	7.36976e+06	-53039.1	1005.82	-29747.6	0.000000	0.000000	6.192804	-0.036313	NaN	0.000000	0.001675	0.001740	28.0808	0.033702	0.001964	17.1566	2.641867	9.544824	-0.072699	0.191304	-0.910866	-0.912163	-0.036313	17.1566	-0.909278	-1.356482E+12	2.676992E-14	NaN
481	1.000000	0.202598	7.36976e+06	-53039.1	1005.82	-29747.6	0.000000	0.000000	6.202797	-0.080022	NaN	0.000000	0.001677	0.001731	28.0812	0.083040	0.002013	41.2549	-125.624	-163.23	-0.059180	0.201316	-0.900870	-0.902152	-0.080022	41.2549	-0.899415	-9.980832E+11	8.017572E-14	NaN
481	1.000000	0.212598	7.36976e+06	-53039.1	1005.82	-29747.6	0.000000	0.000000	6.212799	-0.059638	NaN	0.000000	0.001647	0.001718	28.0808	0.108094	0.002069	52.2382	159.35	14.3165	-0.071476	0.211196	-0.890870	-0.892272	-0.059638	52.2382	-0.890014	-7.449028E+11	8.006114E-14	NaN
481	1.000000	0.222595	7.36976e+06	-53039.1	1005.82	-29747.6	0.000000	0.000000	6.222794	-0.106172	NaN	0.000000	0.001661	0.001721	28.0813	0.026139	0.002032	12.8651	-134.156	-164.077	-0.054054	0.221336	-0.880873	-0.882132	-0.106172	12.8651	-0.874683	-4.621682E+11	2.297259E-13	NaN
481	1.000000	0.232644	7.36976e+06	-53039.1	1005.82	-29747.6	0.000000	0.000000	6.232845	-0.059275	NaN	0.000000	0.001633	0.001760	28.0809	0.057214	0.002038	28.0688	121.41	17.2868	0.008091	0.231240	-0.870824	-0.872227	-0.059275	28.0688	-0.869240	-3.900843E+11	1.519536E-13	NaN
481	1.000000	0.242593	7.36976e+06	-53039.1	1005.82	-29747.6	0.000000	0.000000	6.242794	-0.053445	NaN	0.000000	0.001669	0.001708	28.0809	0.103985	0.001958	53.1004	58.0333	-163.58	0.012811	0.241286	-0.860875	-0.862182	-0.053445	53.1004	-0.860120	-2.935926E+11	1.820395E-13	NaN
481	1.000000	0.252657	7.36976e+06	-53039.1	1005.82	-29747.6	0.000000	0.000000	6.252858	-0.069985	NaN	0.000000	0.001619	0.001745	28.0808	0.172568	0.001946	88.6868	172.806	16.0483	-0.073969	0.251280	-0.850810	-0.852188	-0.069985	88.6868	-0.850219	-2.156240E+11	3.245683E-13	NaN
481	1.000000	0.262639	7.36976e+06	-53039.1	1005.82	-29747.6	0.000000	0.000000	6.262843	0.016029	NaN	0.000000	0.001628	0.001694	28.081	0.003222	0.001934	1.666135	-131.603	-163.091	-0.018241	0.261363	-0.840829	-0.842105	0.016029	1.666135	-0.848044	-2.014869E+11	-7.955186E-14	NaN
481	1.000000	0.272629	7.36976e+06	-53039.1	1005.82	-29747.6	0.000000	0.000000	6.272832	-0.012075	NaN	0.000000	0.001655	0.001743	28.0807	0.057366	0.002185	26.2501	41.5611	11.3188	-0.027306	0.271301	-0.830839	-0.832167	-0.012075	26.2501	-0.830494	-1.165407E+11	1.036105E-13	NaN
481	1.000000	0.282643	7.36976e+06	-53039.1	1005.82	-29747.6	0.000000	0.000000	6.282844	-0.043479	NaN	0.000000	0.001615	0.001728	28.0808	0.041963	0.001884	22.2709	165.196	-165.135	-0.067309	0.281316	-0.820825	-0.822152	-0.043479	22.2709	-0.819361	-8.232769E+10	5.281184E-13	NaN
481	1.000000	0.292632	7.36976e+06	-53039.1	1005.82	-29747.6	0.000000	0.000000	6.292834	-0.033832	NaN	0.000000	0.001630	0.001729	28.081	0.036410	0.002049	17.7675	92.556	12.074	-0.029582	0.291286	-0.810836	-0.812182	-0.033832	17.7675	-0.809408	-6.033059E+10	5.607686E-13	NaN
481	1.000000	0.302635	7.36976e+06	-53039.1	1005.82	-29747.6	0.000000	0.000000	6.302837	-0.036470	NaN	0.000000	0.001610	0.001743	28.0821	0.070600	0.001962	35.9826	158.339	-168.648	-0.049391	0.301351	-0.800832	-0.802116	-0.036470	35.9826	-0.800072	-4.506515E+10	8.092720E-13	NaN
481	1.000000	0.312660	7.36976e+06	-53039.1	1005.82	-29747.6	0.000000	0.000000	6.312861	-0.064701	NaN	0.000000	0.001619	0.001699	28.0819	0.112368	0.002145	52.3787	-166.873	13.6899	-0.087977	0.311292	-0.790807	-0.792175	-0.064701	52.3787	-0.789881	-3.276914E+10	1.974451E-12	NaN
481	1.000000	0.322687	7.36976e+06	-53039.1	1005.82	-29747.6	0.000000	0.000000	6.322888	-0.059026	NaN	0.000000	0.001658	0.001675	28.0819	0.045155	0.001872	24.1198	154.334	-161.616	0.044876	0.321323	-0.780781	-0.782144	-0.059026	24.1198	-0.778946	-2.327569E+10	2.535943E-12	NaN
481	1.000000	0.332665	7.36976e+06	-53039.1	1005.82	-29747.6	0.000000	0.000000	6.332869	0.032904	NaN	0.000000	0.001639	0.001704	28.0822	0.154561	0.001929	80.1054	81.1843	11.6762	0.075081	0.331341	-0.770803	-0.772127	0.032904	80.1054	-0.771111	-1.821432E+10	-1.806507E-12	NaN
481	1.000000	0.342677	7.36976e+06	-53039.1	1005.82	-29747.6	0.000000	0.000000	6.342878	-0.053664	NaN	0.000000	0.001627	0.001684	28.0819	0.053327	0.001998	26.6967	-109.352	-164.763	-0.063974	0.341317	-0.760791	-0.762151	-0.053664	26.6967	-0.759283	-1.257632E+10	4.267062E-12	NaN
481	1.000000	0.352637	7.36976e+06	-53039.1	1005.82	-29747.6	0.000000	0.000000	6.352839	-0.022354	NaN	0.000000	0.001587	0.001680	28.0821	0.067229	0.002018	33.3144	40.4963	14.7407	-0.011406	0.351332	-0.750831	-0.752136	-0.022354	33.3144	-0.750327	-9.498957E+9	2.353286E-12	NaN
481	1.000000	0.362658	7.36976e+06	-53039.1	1005.82	-29747.6	0.000000	0.000000	6.362860	-0.022910	NaN	0.000000	0.001600	0.001730	28.0819	0.046554	0.001891	24.6191	14.7147	-164.185	-0.077746	0.361377	-0.740810	-0.742090	-0.022910	24.6191	-0.740112	-6.895798E+9	3.322341E-12	NaN
481	1.000000	0.372685	7.36976e+06	-53039.1	1005.82	-29747.6	0.000000	0.000000	6.372886	-0.050805	NaN	0.000000	0.001660	0.001759	28.0824	0.045336	0.001994	22.7347	-71.3085	14.5345	0.015021	0.371328	-0.730783	-0.732140	-0.050805	22.7347	-0.729107	-4.882388E+9	1.040573E-11	NaN
481	1.000000	0.382688	7.36976e+06	-53039.1	1005.82	-29747.6	0.000000	0.000000	6.382891	-0.006944	NaN	0.000000	0.001612	0.001769	28.082	0.139152	0.002020	68.8949	103.091	-165.294	-0.023040	0.381383	-0.720780	-0.722085	-0.006944	68.8949	-0.720704	-3.750427E+9	1.851442E-12	NaN
481	1.000000	0.392692	7.36976e+06	-53039.1	1005.82	-29747.6	0.000000	0.000000	6.392895	-0.003356	NaN	0.000000	0.001619	0.001711	28.0823	0.108306	0.001914	56.5873	173.556	15.8841	-0.059968	0.391337	-0.710776	-0.712131	-0.003356	56.5873	-0.710732	-2.741784E+9	1.223861E-12	NaN
481	1.000000	0.402714	7.36976e+06	-53039.1	1005.82	-29747.6	0.000000	0.000000	6.402917	-0.009268	NaN	0.000000	0.001601	0.001737	28.0822	0.114636	0.002067	55.4724	-119.328	-163.406	-0.011205	0.401405	-0.700753	-0.702063	-0.009268	55.4724	-0.700628	-1.995753E+9	4.643650E-12	NaN
481	1.000000	0.412727	7.36976e+06	-53039.1	1005.82	-29747.6	0.000000	0.000000	6.412926	-0.090493	NaN	0.000000	0.001565	0.001703	28.0821	0.072321	0.001924	37.5795	-36.0789	11.8382	0.027257	0.411354	-0.690741	-0.692113	-0.090493	37.5795	-0.688935	-1.381542E+9	6.550178E-11	NaN
481	1.000000	0.422706	7.36976e+06	-53039.1	1005.82	-29747.6	0.000000	0.000000	6.422909	-0.005904	NaN	0.000000	0.001630	0.001684	28.0819	0.054531	0.002010	27.1278	68.0275	-168.46	-0.005332	0.421410	-0.680761	-0.682058	-0.005904	27.1278	-0.680598	-1.062635E+9	5.556342E-12	NaN
481	1.000000	0.432714	7.36976e+06	-53039.1	1005.82	-29747.6	0.000000	0.000000	6.432916	-0.017950	NaN	0.000000	0.001620	0.001747	28.0807	0.047288	0.001987	23.7976	-32.145	12.703	-0.068520	0.431319	-0.670754	-0.672148	-0.017950	23.7976	-0.670188	-7.655312E+8	2.344728E-11	NaN
481	1.000000	0.442704	7.36976e+06	-53039.1	1005.82	-29747.6	0.000000	0.000000	6.442906	-0.030790	NaN	0.000000	0.001614	0.001709	28.0808	0.070609	0.001953	36.1507	-157.324	-165.57	-0.063134	0.441346	-0.660764	-0.662122	-0.030790	36.1507	-0.660125	-5.574193E+8	5.523605E-11	NaN
481	1.000000	0.452738	7.36976e+06	-53039.1	1005.82	-29747.6	0.000000	0.000000	6.452937	-0.080589	NaN	0.000000	0.001596	0.001701	28.0807	0.069755	0.002115	32.9843	30.635	10.8519	-0.000268	0.451337	-0.650730	-0.652131	-0.080589	32.9843	-0.648898	-3.911325E+8	2.060401E-10	NaN
481	1.000000	0.462691	7.36976e+06	-53039.1	1005.82	-29747.6	0.000000	0.000000	6.462896	0.042299	NaN	0.000000	0.001622	0.001713	28.0806	0.098363	0.002147	45.8099	-157.389	-165.554	0.020673	0.461425	-0.640777	-0.642042	0.042299	45.8099	-0.641469	-3.093479E+8	-1.367355E-10	NaN
481	1.000000	0.472728	7.36976e+06	-53039.1	1005.82	-29747.6	0.000000	0.000000	6.472928	-0.083740	NaN	0.000000	0.001633	0.001739	28.0806	0.170545	0.002042	83.5177	-52.0121	12.3223	-0.116024	0.471320	-0.630740	-0.632147	-0.083740	83.5177	-0.629988	-2.152069E+8	3.891122E-10	NaN
481	1.000000	0.482741	7.36976e+06	-53039.1	1005.82	-29747.6	0.000000	0.000000	6.482944	-0.015721	NaN	0.000000	0.001626	0.001691	28.081	0.072818	0.001967	37.0121	-126.064	-166.973	-0.026539	0.481387	-0.620726	-0.622081	-0.015721	37.0121	-0.620408	-1.589426E+8	9.890699E-11	NaN
481	1.000000	0.492751	7.36976e+06	-53039.1	1005.82	-29747.6	0.000000	0.000000	6.492953	-0.026852	NaN	0.000000	0.001623	0.001708	28.0806	0.101581	0.002002	50.7317	-48.1963	12.8958	-0.048209	0.491332	-0.610716	-0.612136	-0.026852	50.7317	-0.610319	-1.154807E+8	2.325223E-10	NaN
481	1.000000	0.502734	7.36976e+06	-53039.1	1005.82	-29747.6	0.000000	0.000000	6.502937	0.001904	NaN	0.000000	0.001634	0.001734	28.0805	0.081276	0.001943	41.8366	-132.462	-167.412	0.042238	0.501398	-0.600734	-0.602069	0.001904	41.8366	-0.600768	-8.531688E+7	-2.231140E-11	NaN
481	1.000000	0.512746	7.36976e+06	-53039.1	1005.82	-29747.6	0.000000	0.000000	6.512945	-0.107530	NaN	0.000000	0.001634	0.001744	28.0807	0.040940	0.002112	19.3839	-74.441	14.1084	-0.120421	0.511338	-0.590722	-0.592129	-0.107530	19.3839	-0.586561	-5.435599E+7	1.978260E-9	NaN
481	1.000000	0.522741	7.36976e+06	-53039.1	1005.82	-29747.6	0.000000	0.000000	6.522944	-0.026792	NaN	0.000000	0.001652	0.001737	28.0806	0.092874	0.002000	46.4356	61.0756	-164.06	-0.045959	0.521450	-0.580726	-0.582018	-0.026792	46.4356	-0.580294	-4.454274E+7	6.014920E-10	NaN
481	1.000000	0.532729	7.36976e+06	-53039.1	1005.82	-29747.6	0.000000	0.000000	6.532931	-0.026487	NaN	0.000000	0.001680	0.001709	28.0806	0.047850	0.001943	24.6321	179.493	10.4093	-0.054573	0.531381	-0.570739	-0.572087	-0.026487	24.6321	-0.569933	-3.204053E+7	8.266820E-10	NaN
481	1.000000	0.542775	7.36976e+06	-53039.1	1005.82	-29747.6	0.000000	0.000000	6.542978	-0.001609	NaN	0.000000	0.001653	0.001684	28.0806	0.068884	0.001923	35.8145	-100.246	-165.415	-0.009584	0.541464	-0.560693	-0.562004	-0.001609	35.8145	-0.560659	-2.385036E+7	6.745322E-11	NaN
481	1.000000	0.552762	7.36976e+06	-53039.1	1005.82	-29747.6	0.000000	0.000000	6.552965	-0.004119	NaN	0.000000	0.001630	0.001680	28.0811	0.103247	0.002015	51.2293	6.439574	13.455	-0.010563	0.551426	-0.550705	-0.552042	-0.004119	51.2293	-0.550645	-1.733369E+7	2.376062E-10	NaN
481	1.000000	0.562767	7.36976e+06	-53039.1	1005.82	-29747.6	0.000000	0.000000	6.562967	-0.065994	NaN	0.000000	0.001611	0.001777	28.0807	0.031512	0.001897	16.613	-167.528	-166.109	-0.068753	0.561505	-0.540701	-0.541963	-0.065994	16.613	-0.537722	-1.147502E+7	5.751102E-9	NaN
481	1.000000	0.572764	7.36976e+06	-53039.1	1005.82	-29747.6	0.000000	0.000000	6.572967	0.001796	NaN	0.000000	0.001614	0.001700	28.082	0.048232	0.002035	23.6978	2.062216	15.0141	-0.030929	0.571386	-0.530704	-0.532082	0.001796	23.6978	-0.530761	-9.18628e+06	-1.955204E-10	NaN
481	1.000000	0.582749	7.36976e+06	-53039.1	1005.82	-29747.6	0.000000	0.000000	6.582956	0.077748	NaN	0.000000	0.001598	0.001727	28.0822	0.079467	0.001905	41.7079	35.3193	-165.61	0.008150	0.581454	-0.520718	-0.522014	0.077748	41.7079	-0.522116	-6.96671e+06	-1.115997E-8	NaN
481	1.000000	0.592782	7.36976e+06	-53039.1	1005.82	-29747.6	0.000000	0.000000	6.592983	-0.037100	NaN	0.000000	0.001594	0.001718	28.0822	0.049010	0.002034	24.1011	-104.161	16.7152	-0.060709	0.591430	-0.510686	-0.512038	-0.037100	24.1011	-0.509531	-4.65467e+06	7.970533E-9	NaN
481	1.000000	0.602803	7.36976e+06	-53039.1	1005.82	-29747.6	0.000000	0.000000	6.603007	0.016026	NaN	0.000000	0.001641	0.001742	28.0822	0.051193	0.002133	24.0001	116.188	-165.099	0.065677	0.601463	-0.500664	-0.502005	0.016026	24.0001	-0.501165	-3.55854e+06	-4.503418E-9	NaN
481	1.000000	0.612784	7.36976e+06	-53039.1	1005.82	-29747.6	0.000000	0.000000	6.612983	-0.093042	NaN	0.000000	0.001626	0.001711	28.0818	0.032345	0.002124	15.2303	160.04	15.3523	-0.064187	0.611370	-0.490684	-0.492097	-0.093042	15.2303	-0.486102	-2.1923e+06	4.244012E-8	NaN
481	1.000000	0.622779	7.36976e+06	-53039.1	1005.82	-29747.6	0.000000	0.000000	6.622978	-0.096701	NaN	0.000000	0.001626	0.001735	28.0819	0.069683	0.002014	34.6026	-145.631	-168.19	-0.097160	0.621459	-0.480689	-0.482009	-0.096701	34.6026	-0.478593	-1.72118e+06	5.618298E-8	NaN
481	1.000000	0.632799	7.36976e+06	-53039.1	1005.82	-29747.6	0.000000	0.000000	6.633001	-0.031459	NaN	0.000000	0.001615	0.001731	28.0819	0.026146	0.002109	12.395	98.6669	15.5097	0.015663	0.631431	-0.470669	-0.472037	-0.031459	12.395	-0.468765	-1.2534e+06	2.509895E-8	NaN
481	1.000000	0.642797	7.36976e+06	-53039.1	1005.82	-29747.6	0.000000	0.000000	6.642999	-0.025804	NaN	0.000000	0.001656	0.001725	28.082	0.043346	0.002046	21.1873	-143.425	-165.078	0.002648	0.641462	-0.460671	-0.462006	-0.025804	21.1873	-0.459757	-936709	2.754758E-8	NaN
481	1.000000	0.652808	7.36976e+06	-53039.1	1005.82	-29747.6	0.000000	0.000000	6.653012	0.019413	NaN	0.000000	0.001618	0.001732	28.0819	0.010621	0.001813	5.857859	-87.7002	16.2977	0.040795	0.651388	-0.450660	-0.452080	0.019413	5.857859	-0.453145	-756172	-2.567259E-8	NaN
481	1.000000	0.662822	7.36976e+06	-53039.1	1005.82	-29747.6	0.000000	0.000000	6.663023	-0.063608	NaN	0.000000	0.001625	0.001744	28.0821	0.077371	0.001913	40.4448	168.366	-165.49	-0.070594	0.661533	-0.440646	-0.441934	-0.063608	40.4448	-0.439466	-485096	1.311244E-7	NaN
481	1.000000	0.672814	7.36976e+06	-53039.1	1005.82	-29747.6	0.000000	0.000000	6.673016	-0.049751	NaN	0.000000	0.001634	0.001749	28.0817	0.038148	0.001977	19.2943	10.6743	10.237	-0.073338	0.671479	-0.430653	-0.431989	-0.049751	19.2943	-0.428719	-341933	1.454982E-7	NaN
481	1.000000	0.682795	7.36976e+06	-53039.1	1005.82	-29747.6	0.000000	0.000000	6.683002	0.100181	NaN	0.000000	0.001610	0.001747	28.0819	0.067897	0.002063	32.919	24.101	-165.279	0.043101	0.681496	-0.420673	-0.421972	0.100181	32.919	-0.422956	-283345	-3.535651E-7	NaN
481	1.000000	0.692794	7.36976e+06	-53039.1	1005.82	-29747.6	0.000000	0.000000	6.692996	-0.029630	NaN	0.000000	0.001622	0.001742	28.0818	0.064844	0.001897	34.1802	-90.3297	13.4243	-0.032034	0.691437	-0.410674	-0.412030	-0.029630	34.1802	-0.410024	-185669	1.595826E-7	NaN
481	1.000000	0.702808	7.36976e+06	-53039.1	1005.82	-29747.6	0.000000	0.000000	6.703008	-0.057091	NaN	0.000000	0.001645	0.001729	28.0815	0.045547	0.002016	22.5952	81.0768	-168.494	-0.045596	0.701499	-0.400660	-0.401969	-0.057091	22.5952	-0.398765	-128346	4.448214E-7	NaN
481	1.000000	0.712834	7.36976e+06	-53039.1	1005.82	-29747.6	0.000000	0.000000	6.713037	-0.008109	NaN	0.000000	0.001625	0.001724	28.0807	0.068791	0.001926	35.7251	-11.0159	13.4223	-0.064041	0.711432	-0.390633	-0.392035	-0.008109	35.7251	-0.390463	-97676.3	8.302179E-8	NaN
481	1.000000	0.722842	7.36976e+06	-53039.1	1005.82	-29747.6	0.000000	0.000000	6.723044	-0.018946	NaN	0.000000	0.001659	0.001716	28.0807	0.086513	0.002038	42.4464	64.4623	-164.865	-0.002454	0.721517	-0.380626	-0.381951	-0.018946	42.4464	-0.380291	-69834.5	2.712919E-7	NaN
481	1.000000	0.732839	7.36976e+06	-53039.1	1005.82	-29747.6	0.000000	0.000000	6.733041	-0.020189	NaN	0.000000	0.001621	0.001692	28.0807	0.128506	0.002148	59.8291	-35.6516	14.3312	-0.039635	0.731463	-0.370629	-0.372005	-0.020189	59.8291	-0.370376	-50296.5	4.013959E-7	NaN
481	1.000000	0.742793	7.36976e+06	-53039.1	1005.82	-29747.6	0.000000	0.000000	6.742996	-0.005740	NaN	0.000000	0.001620	0.001736	28.0809	0.059254	0.002035	29.1129	97.3764	-170.27	0.000128	0.741541	-0.360675	-0.361927	-0.005740	29.1129	-0.360527	-36263.2	1.582892E-7	NaN
481	1.000000	0.752856	7.36976e+06	-53039.1	1005.82	-29747.6	0.000000	0.000000	6.753056	-0.077122	NaN	0.000000	0.001593	0.001727	28.0807	0.068480	0.001931	35.4576	-179.314	12.2284	-0.023967	0.751456	-0.350611	-0.352012	-0.077122	35.4576	-0.348980	-24671.6	3.125934E-6	NaN
481	1.000000	0.762846	7.36976e+06	-53039.1	1005.82	-29747.6	0.000000	0.000000	6.763047	-0.042679	NaN	0.000000	0.001622	0.001705	28.0807	0.038865	0.002263	17.1704	104.367	-167.615	-0.065776	0.761569	-0.340622	-0.341899	-0.042679	17.1704	-0.338757	-17516.1	2.436548E-6	NaN
481	1.000000	0.772847	7.36976e+06	-53039.1	1005.82	-29747.6	0.000000	0.000000	6.773048	-0.062969	NaN	0.000000	0.001582	0.001751	28.0808	0.094771	0.001996	47.4742	-83.01	12.1723	-0.066604	0.771486	-0.330620	-0.331981	-0.062969	47.4742	-0.329626	-12881.5	4.888308E-6	NaN
481	1.000000	0.782844	7.36976e+06	-53039.1	1005.82	-29747.6	0.000000	0.000000	6.783043	-0.092884	NaN	0.000000	0.001581	0.001724	28.0807	0.082906	0.001959	42.3303	-155.084	-166.252	-0.073766	0.781517	-0.320624	-0.321951	-0.092884	42.3303	-0.318978	-8986.5	1.033592E-5	NaN
481	1.000000	0.792859	7.36976e+06	-53039.1	1005.82	-29747.6	0.000000	0.000000	6.793061	-0.029729	NaN	0.000000	0.001632	0.001740	28.0808	0.023715	0.001941	12.2175	-118.443	9.915379	-0.015067	0.791516	-0.310609	-0.311952	-0.029729	12.2175	-0.308784	-6354.05	4.678683E-6	NaN
481	1.000000	0.802867	7.36976e+06	-53039.1	1005.82	-29747.6	0.000000	0.000000	6.803068	-0.046773	NaN	0.000000	0.001606	0.001760	28.0809	0.133014	0.002026	65.662	38.1447	-170.738	-0.015522	0.801524	-0.300601	-0.301944	-0.046773	65.662	-0.300067	-4716.62	9.916711E-6	NaN
481	1.000000	0.812877	7.36976e+06	-53039.1	1005.82	-29747.6	0.000000	0.000000	6.813077	-0.078496	NaN	0.000000	0.001610	0.001755	28.0811	0.100909	0.002027	49.7786	117.708	11.9692	-0.019291	0.811561	-0.290591	-0.291907	-0.078496	49.7786	-0.289408	-3269.15	2.401123E-5	NaN
481	1.000000	0.822886	7.36976e+06	-53039.1	1005.82	-29747.6	0.000000	0.000000	6.823087	-0.043270	NaN	0.000000	0.001621	0.001745	28.0805	0.042033	0.002080	20.2128	176.874	-164.794	0.045120	0.821554	-0.280582	-0.281914	-0.043270	20.2128	-0.278977	-2277.85	1.899594E-5	NaN
481	1.000000	0.832857	7.36976e+06	-53039.1	1005.82	-29747.6	0.000000	0.000000	6.833058	-0.041653	NaN	0.000000	0.001608	0.001727	28.0808	0.029460	0.001979	14.8879	-3.536887	13.6757	-0.039298	0.831482	-0.270611	-0.271985	-0.041653	14.8879	-0.268512	-1580.95	2.634674E-5	NaN
481	1.000000	0.842903	7.36976e+06	-53039.1	1005.82	-29747.6	0.000000	0.000000	6.843104	-0.074163	NaN	0.000000	0.001560	0.001714	28.082	0.113850	0.002072	54.9565	-103.999	-168.921	-0.096495	0.841559	-0.260564	-0.261909	-0.074163	54.9565	-0.259552	-1153.59	6.428881E-5	NaN
481	1.000000	0.852854	7.36976e+06	-53039.1	1005.82	-29747.6	0.000000	0.000000	6.853053	-0.084879	NaN	0.000000	0.001558	0.001726	28.0821	0.115995	0.001939	59.8188	93.3332	11.5323	-0.024414	0.851522	-0.250614	-0.251946	-0.084879	59.8188	-0.249550	-809.106	0.000105	NaN
481	1.000000	0.862889	7.36976e+06	-53039.1	1005.82	-29747.6	0.000000	0.000000	6.863091	-0.040596	NaN	0.000000	0.001574	0.001779	28.0817	0.043840	0.002064	21.2366	-108.437	-170.592	-0.037357	0.861546	-0.240578	-0.241921	-0.040596	21.2366	-0.239145	-557.427	7.282751E-5	NaN
481	1.000000	0.872890	7.36976e+06	-53039.1	1005.82	-29747.6	0.000000	0.000000	6.873092	-0.024837	NaN	0.000000	0.001629	0.001777	28.0822	0.026979	0.002039	13.2322	18.6613	13.0026	0.004550	0.871521	-0.230578	-0.231947	-0.024837	13.2322	-0.229170	-388.514	6.392806E-5	NaN
481	1.000000	0.882889	7.36976e+06	-53039.1	1005.82	-29747.6	0.000000	0.000000	6.883088	-0.094642	NaN	0.000000	0.001598	0.001769	28.0822	0.044167	0.002084	21.1961	-104.423	-161.254	-0.070055	0.881567	-0.220579	-0.221901	-0.094642	21.1961	-0.217230	-250.8	0.000377	NaN
481	1.000000	0.892902	7.36976e+06	-53039.1	1005.82	-29747.6	0.000000	0.000000	6.893102	-0.067001	NaN	0.000000	0.001595	0.001750	28.082	0.125546	0.002021	62.1357	115.613	12.2225	-0.025776	0.891519	-0.210566	-0.211949	-0.067001	62.1357	-0.209757	-190.058	0.000353	NaN
481	1.000000	0.902892	7.36976e+06	-53039.1	1005.82	-29747.6	0.000000	0.000000	6.903092	-0.058690	NaN	0.000000	0.001592	0.001700	28.0818	0.013567	0.001945	6.974428	-52.7423	-163.107	-0.126721	0.901572	-0.200576	-0.201895	-0.058690	6.974428	-0.194265	-105.929	0.000554	NaN
481	1.000000	0.912873	7.36976e+06	-53039.1	1005.82	-29747.6	0.000000	0.000000	6.913074	-0.048411	NaN	0.000000	0.001587	0.001732	28.0821	0.066719	0.001989	33.5516	178.022	14.7544	-0.020328	0.911526	-0.190595	-0.191941	-0.048411	33.5516	-0.189513	-88.2846	0.000548	NaN
481	1.000000	0.922899	7.36976e+06	-53039.1	1005.82	-29747.6	0.000000	0.000000	6.923100	-0.055335	NaN	0.000000	0.001562	0.001735	28.0826	0.158494	0.001971	80.3958	-101.26	-168.71	-0.032562	0.921602	-0.180569	-0.181865	-0.055335	80.3958	-0.180052	-61.1446	0.000905	NaN
481	1.000000	0.932900	7.36976e+06	-53039.1	1005.82	-29747.6	0.000000	0.000000	6.933101	-0.059366	NaN	0.000000	0.001585	0.001749	28.0818	0.114759	0.001957	58.6406	-29.3691	16.9264	-0.021408	0.931585	-0.170567	-0.171882	-0.059366	58.6406	-0.169808	-40.7643	0.001456	NaN
481	1.000000	0.942905	7.36976e+06	-53039.1	1005.82	-29747.6	0.000000	0.000000	6.943105	-0.067412	NaN	0.000000	0.001586	0.001767	28.082	0.051718	0.002006	25.7842	-119.394	-161.196	-0.042680	0.941623	-0.160563	-0.161845	-0.067412	25.7842	-0.158602	-25.8885	0.002604	NaN
481	1.000000	0.952941	7.36976e+06	-53039.1	1005.82	-29747.6	0.000000	0.000000	6.953143	-0.048075	NaN	0.000000	0.001623	0.001698	28.0817	0.041067	0.001999	20.5485	-146.985	13.7667	0.043157	0.951588	-0.150526	-0.151880	-0.048075	20.5485	-0.148772	-17.2014	0.002795	NaN
481	1.000000	0.962890	7.36976e+06	-53039.1	1005.82	-29747.6	0.000000	0.000000	6.963088	-0.124581	NaN	0.000000	0.001591	0.001727	28.0819	0.046683	0.002003	23.3075	110.473	-167.765	-0.018594	0.961605	-0.140578	-0.141863	-0.124581	23.3075	-0.136569	-10.1898	0.012226	NaN
481	1.000000	0.972924	7.36976e+06	-53039.1	1005.82	-29747.6	0.000000	0.000000	6.973125	-0.064298	NaN	0.000000	0.001605	0.001715	28.0817	0.175671	0.002028	86.6274	-168.85	12.4505	-0.113882	0.971556	-0.130543	-0.131912	-0.064298	86.6274	-0.129987	-7.616479	0.008442	NaN
481	1.000000	0.982935	7.36976e+06	-53039.1	1005.82	-29747.6	0.000000	0.000000	6.983136	-0.058324	NaN	0.000000	0.001611	0.001702	28.0804	0.140383	0.001931	72.6823	-70.0638	-165.162	-0.003508	0.981627	-0.120533	-0.121840	-0.058324	72.6823	-0.119931	-4.815978	0.012111	NaN
481	1.000000	0.992947	7.36976e+06	-53039.1	1005.82	-29747.6	0.000000	0.000000	6.993149	-0.028104	NaN	0.000000	0.001622	0.001729	28.0806	0.063277	0.001985	31.8819	144.222	11.6606	-0.016689	0.991631	-0.110521	-0.111837	-0.028104	31.8819	-0.109859	-2.984745	0.009416	NaN
481	1.000000	1.002919	7.36976e+06	-53039.1	1005.82	-29747.6	0.000000	0.000000	7.003120	-0.052724	NaN	0.000000	0.001633	0.001721	28.0806	0.056838	0.002100	27.0715	-67.445	-167.586	-0.097597	1.001662	-0.100549	-0.101806	-0.052724	27.0715	-0.099088	-1.743851	0.030234	NaN
481	1.000000	1.012932	7.36976e+06	-53039.1	1005.82	-29747.6	0.000000	0.000000	7.013130	-0.141607	NaN	0.000000	0.001686	0.001750	28.0803	0.095060	0.002011	47.264	-163.197	13.3771	-0.181783	1.011576	-0.090535	-0.091892	-0.141607	47.264	-0.088288	-0.985016	0.143762	NaN
481	1.000000	1.022941	7.36976e+06	-53039.1	1005.82	-29747.6	0.000000	0.000000	7.023141	-0.094065	NaN	0.000000	0.001698	0.001755	28.0804	0.103589	0.002156	48.0535	-48.5577	-166.442	-0.042741	1.021654	-0.080527	-0.081813	-0.094065	48.0535	-0.079058	-0.586227	0.160458	NaN
481	1.000000	1.032949	7.36976e+06	-53039.1	1005.82	-29747.6	0.000000	0.000000	7.033151	-0.034633	NaN	0.000000	0.001637	0.001757	28.0807	0.074801	0.001871	39.9764	169.993	11.2959	-0.080551	1.031594	-0.070519	-0.071874	-0.034633	39.9764	-0.069869	-0.338360	0.102355	NaN
481	1.000000	1.042963	7.36976e+06	-53039.1	1005.82	-29747.6	0.000000	0.000000	7.043167	0.013512	NaN	0.000000	0.001695	0.001760	28.0804	0.103975	0.002049	50.7564	132.344	-165.178	-0.031916	1.041629	-0.060504	-0.061838	0.013512	50.7564	-0.060704	-0.188647	-0.071625	NaN
481	1.000000	1.052923	7.36976e+06	-53039.1	1005.82	-29747.6	0.000000	0.000000	7.053123	-0.055957	NaN	0.000000	0.001697	0.001756	28.0805	0.060859	0.002043	29.7916	-162.06	7.409823	-0.091856	1.051605	-0.050545	-0.051863	-0.055957	29.7916	-0.049136	-0.085917	0.651293	NaN
481	1.000000	1.062979	7.36976e+06	-53039.1	1005.82	-29747.6	0.000000	0.000000	7.063182	-0.011640	NaN	0.000000	0.001675	0.001766	28.0805	0.079404	0.002004	39.6156	134.599	-168.918	-0.000374	1.061654	-0.040489	-0.041814	-0.011640	39.6156	-0.040269	-0.046080	0.252601	NaN
481	1.000000	1.072944	7.36976e+06	-53039.1	1005.82	-29747.6	0.000000	0.000000	7.073146	-0.033797	NaN	0.000000	0.001686	0.001740	28.0804	0.109401	0.002024	54.0488	-65.2884	16.5475	-0.055635	1.071608	-0.030523	-0.031860	-0.033797	54.0488	-0.030054	-0.023093	1.463469	NaN
481	1.000000	1.082962	7.36976e+06	-53039.1	1005.82	-29747.6	0.000000	0.000000	7.083164	-0.032828	NaN	0.000000	0.001710	0.001738	28.0805	0.032812	0.001897	17.2968	-144.503	-167.342	-0.073333	1.081626	-0.020506	-0.021842	-0.032828	17.2968	-0.019082	-0.011902	2.758183	NaN
481	1.000000	1.092980	7.36976e+06	-53039.1	1005.82	-29747.6	0.000000	0.000000	7.093180	-0.061402	NaN	0.000000	0.001646	0.001729	28.0803	0.010199	0.001925	5.299462	83.5791	15.5314	-0.000984	1.091627	-0.010488	-0.011841	-0.061402	5.299462	-0.001798	-0.001299	47.272	NaN
481	1.000000	1.102989	7.36976e+06	-53039.1	1005.82	-29747.6	0.000000	0.000000	7.103193	0.001874	NaN	0.000000	0.001623	0.001757	28.0806	0.105536	0.001922	54.9209	-95.9788	-165.663	-0.033087	1.101668	-0.000478	-0.001800	0.001874	54.9209	-0.000504	-0.000373	-5.024463	NaN
481	1.000000	1.112952	7.36976e+06	-53039.1	1005.82	-29747.6	0.000000	0.000000	7.113312	3.791552	NaN	0.000000	0.001632	0.001754	28.0812	4.572142	0.001752	2610.28	8.185725	9.876813	2.225662	1.111606	0.009485	0.008138	3.791552	2610.28	0.008395	0.007452	508.794	27626.3
481	2.000000	1.118585	7.36976e+06	-53039.1	1005.82	-29747.6	0.000000	0.000000	7.119273	11.8032	NaN	0.000000	0.001620	0.001764	28.0822	10.5922	0.001683	6293.94	4.021332	-173.995	10.9159	1.118304	0.015117	0.014836	11.8032	6293.94	0.013711	0.013604	867.617	49301.4
481	2.000000	1.121050	7.36976e+06	-53039.1	1005.82	-29747.6	0.000000	0.000000	7.121888	15.4362	NaN	0.000000	0.001628	0.001740	28.0817	13.0907	0.001874	6983.95	5.309625	7.929185	13.6	1.120683	0.017582	0.017216	15.4362	6983.95	0.015925	0.016538	933.353	49616.6
481	2.000000	1.123526	7.36976e+06	-53039.1	1005.82	-29747.6	0.000000	0.000000	7.124559	20.1731	NaN	0.000000	0.001615	0.001755	28.0822	15.4407	0.001778	8685.03	5.079928	-175.01	19.1807	1.123186	0.020058	0.019718	20.1731	8685.03	0.018316	0.019965	1010.43	56158
481	2.000000	1.125992	7.36976e+06	-53039.1	1005.82	-29747.6	0.000000	0.000000	7.127192	24.2158	NaN	0.000000	0.001616	0.001755	28.0817	18.5326	0.001874	9887.78	9.248634	-1.013524	23.0245	1.125654	0.022525	0.022186	24.2158	9887.78	0.020688	0.023635	1024.58	58761.9
481	2.000000	1.128460	7.36976e+06	-53039.1	1005.82	-29747.6	0.000000	0.000000	7.129869	29.3134	NaN	0.000000	0.001613	0.001753	28.0822	21.0032	0.001818	11552.1	6.849061	179.813	27.6326	1.128220	0.024992	0.024753	29.3134	11552.1	0.023089	0.027631	1060.89	63494.8
481	2.000000	1.131031	7.36976e+06	-53039.1	1005.82	-29747.6	0.000000	0.000000	7.132685	35.2921	NaN	0.000000	0.001616	0.001753	28.0817	22.3538	0.001845	12116.9	1.843543	7.057032	34.4885	1.130662	0.027563	0.027194	35.2921	12116.9	0.025379	0.031708	1113.04	62169.8
481	2.000000	1.133450	7.36976e+06	-53039.1	1005.82	-29747.6	0.000000	0.000000	7.135447	43.6019	NaN	0.000000	0.001576	0.001794	28.0822	25.9402	0.001766	14691.3	6.838538	177.279	41.1148	1.133121	0.029982	0.029653	43.6019	14691.3	0.027757	0.036222	1203.74	70525.7
481	2.000000	1.135950	7.36976e+06	-53039.1	1005.82	-29747.6	0.000000	0.000000	7.138199	49.7409	NaN	0.000000	0.001603	0.001804	28.0817	28.8735	0.001915	15075.9	3.932179	1.852589	47.9688	1.135627	0.032482	0.032160	49.7409	15075.9	0.030008	0.040760	1220.33	68224.3
481	2.000000	1.138462	7.36976e+06	-53039.1	1005.82	-29747.6	0.000000	0.000000	7.140998	56.7155	NaN	0.000000	0.001567	0.001769	28.082	30.3396	0.001801	16842.2	2.875591	-178.409	54.7138	1.138186	0.034994	0.034719	56.7155	16842.2	0.032469	0.046016	1232.51	71732.8
481	2.000000	1.140975	7.36976e+06	-53039.1	1005.82	-29747.6	0.000000	0.000000	7.143732	62.1062	NaN	0.000000	0.001543	0.001805	28.0818	32.3902	0.001878	17251.1	2.554897	1.657988	59.4478	1.140685	0.037507	0.037217	62.1062	17251.1	0.034807	0.051298	1210.7	69589
481	2.000000	1.143480	7.36976e+06	-53039.1	1005.82	-29747.6	0.000000	0.000000	7.146697	73.2907	NaN	0.000000	0.001576	0.001755	28.0818	34.7814	0.001832	18982.4	5.110130	178.429	72.8521	1.143131	0.040012	0.039664	73.2907	18982.4	0.037116	0.056789	1290.59	72776.7
481	2.000000	1.145976	7.36976e+06	-53039.1	1005.82	-29747.6	0.000000	0.000000	7.149574	82.5347	NaN	0.000000	0.001577	0.001739	28.0818	36.8903	0.001823	20240.4	2.546495	-0.275748	80.6135	1.145617	0.042509	0.042149	82.5347	20240.4	0.039450	0.062616	1318.11	73900.9
481	2.000000	1.148477	7.36976e+06	-53039.1	1005.82	-29747.6	0.000000	0.000000	7.152158	84.5534	NaN	0.000000	0.001574	0.001754	28.0824	39.6386	0.001765	22463.2	2.710113	178.445	83.5935	1.148211	0.045010	0.044744	84.5534	22463.2	0.042187	0.069802	1211.34	77680.6
481	2.000000	1.150993	7.36976e+06	-53039.1	1005.82	-29747.6	0.000000	0.000000	7.155317	100.193	NaN	0.000000	0.001595	0.001766	28.0807	41.9718	0.001779	23593.1	7.975501	-7.056666	100.547	1.150548	0.047526	0.047081	100.193	23593.1	0.044341	0.075726	1323.09	78331.3
481	2.000000	1.153505	7.36976e+06	-53039.1	1005.82	-29747.6	0.000000	0.000000	7.158210	109.454	NaN	0.000000	0.001584	0.001742	28.0804	42.919	0.001855	23136.1	6.107110	176.628	111.605	1.153035	0.050037	0.049568	109.454	23136.1	0.046489	0.081870	1336.93	73875.5
481	2.000000	1.155937	7.36976e+06	-53039.1	1005.82	-29747.6	0.000000	0.000000	7.161066	119.776	NaN	0.000000	0.001607	0.001812	28.0805	46.1589	0.001798	25672.7	5.025729	-4.089703	118.199	1.155509	0.052469	0.052042	119.776	25672.7	0.048970	0.089255	1341.95	78510.7
481	2.000000	1.158410	7.36976e+06	-53039.1	1005.82	-29747.6	0.000000	0.000000	7.163936	129.423	NaN	0.000000	0.001583	0.001767	28.0803	49.5064	0.001913	25879.4	8.666264	171.462	127.07	1.158086	0.054942	0.054619	129.423	25879.4	0.051191	0.096131	1346.32	76259.7
481	2.000000	1.160897	7.36976e+06	-53039.1	1005.82	-29747.6	0.000000	0.000000	7.166995	143.331	NaN	0.000000	0.001626	0.001810	28.0807	49.0895	0.001710	28704.9	1.179786	-1.631377	137.481	1.160532	0.057429	0.057064	143.331	28704.9	0.053684	0.104140	1376.34	81268.4
481	2.000000	1.163404	7.36976e+06	-53039.1	1005.82	-29747.6	0.000000	0.000000	7.169946	154.127	NaN	0.000000	0.001578	0.001771	28.0807	51.6358	0.001686	30634.3	3.835211	174.793	153.446	1.163107	0.059936	0.059639	154.127	30634.3	0.056163	0.112409	1371.13	83479.7
481	2.000000	1.165930	7.36976e+06	-53039.1	1005.82	-29747.6	0.000000	0.000000	7.172842	163.121	NaN	0.000000	0.001567	0.001763	28.0806	55.1071	0.001666	33071.5	2.558982	-4.503705	161.306	1.165645	0.062462	0.062177	163.121	33071.5	0.058763	0.121410	1343.56	86716.2
481	2.000000	1.168543	7.36976e+06	-53039.1	1005.82	-29747.6	0.000000	0.000000	7.175850	172.719	NaN	0.000000	0.001540	0.001764	28.0807	59.4636	0.001934	30744.7	3.446145	176.166	178.309	1.168191	0.065076	0.064723	172.719	30744.7	0.060862	0.128919	1339.75	78232.3
481	2.000000	1.170951	7.36976e+06	-53039.1	1005.82	-29747.6	0.000000	0.000000	7.179119	193.669	NaN	0.000000	0.001596	0.001779	28.0805	60.8536	0.001880	32366.6	5.209407	-4.850641	193.756	1.170453	0.067483	0.066986	193.669	32366.6	0.062995	0.136768	1416.04	79961.1
481	2.000000	1.173364	7.36976e+06	-53039.1	1005.82	-29747.6	0.000000	0.000000	7.181985	204.675	NaN	0.000000	0.001655	0.001770	28.0806	62.784	0.001819	34517.4	4.309317	173.37	201.234	1.173140	0.069896	0.069672	204.675	34517.4	0.065449	0.146070	1401.21	82514.6
481	2.000000	1.175947	7.36976e+06	-53039.1	1005.82	-29747.6	0.000000	0.000000	7.185061	216.663	NaN	0.000000	0.001659	0.001766	28.0805	64.8306	0.001798	36063.8	3.126375	-5.625581	215.531	1.175568	0.072479	0.072100	216.663	36063.8	0.067973	0.155940	1389.4	83438.3
481	2.000000	1.178428	7.36976e+06	-53039.1	1005.82	-29747.6	0.000000	0.000000	7.188081	229.736	NaN	0.000000	0.001745	0.001761	28.0806	67.9992	0.001954	34800.4	4.398787	173.605	228.779	1.178240	0.074961	0.074772	229.736	34800.4	0.070010	0.164127	1399.74	78481.6
481	2.000000	1.180935	7.36976e+06	-53039.1	1005.82	-29747.6	0.000000	0.000000	7.191273	246.421	NaN	0.000000	0.001752	0.001772	28.0804	69.5234	0.001885	36881.7	6.427490	-8.262143	245.356	1.180549	0.077467	0.077081	246.421	36881.7	0.072456	0.174223	1414.4	80729.3
481	2.000000	1.183393	7.36976e+06	-53039.1	1005.82	-29747.6	0.000000	0.000000	7.194526	265.745	NaN	0.000000	0.001724	0.001775	28.0804	69.8146	0.001634	42713.7	4.648295	171.68	264.917	1.183049	0.079925	0.079581	265.745	42713.7	0.075259	0.186137	1427.68	90453.2
481	2.000000	1.185938	7.36976e+06	-53039.1	1005.82	-29747.6	0.000000	0.000000	7.197516	276.55	NaN	0.000000	0.001717	0.001755	28.0818	71.5163	0.001707	41906.3	-3.001846	-0.020697	275.066	1.185650	0.082470	0.082183	276.55	41906.3	0.077521	0.196021	1410.82	86477.3
481	2.000000	1.188400	7.36976e+06	-53039.1	1005.82	-29747.6	0.000000	0.000000	7.200607	291.847	NaN	0.000000	0.001719	0.001736	28.0822	76.152	0.001797	42388.2	5.273009	171.782	290.8	1.188067	0.084932	0.084599	291.847	42388.2	0.079768	0.206078	1416.2	85310.5
481	2.000000	1.190883	7.36976e+06	-53039.1	1005.82	-29747.6	0.000000	0.000000	7.203874	310.923	NaN	0.000000	0.001680	0.001691	28.0817	77.4423	0.001848	41906.1	3.946998	-6.968534	307.12	1.190495	0.087415	0.087028	310.923	41906.1	0.081850	0.215606	1442.09	82455.6
481	2.000000	1.193396	7.36976e+06	-53039.1	1005.82	-29747.6	0.000000	0.000000	7.206742	319.552	NaN	0.000000	0.001630	0.001761	28.0818	78.5318	0.001690	46459.5	2.836446	173.147	318.706	1.193112	0.089928	0.089645	319.552	46459.5	0.084769	0.229303	1393.58	88642.6
481	2.000000	1.195940	7.36976e+06	-53039.1	1005.82	-29747.6	0.000000	0.000000	7.209953	335.776	NaN	0.000000	0.001633	0.001725	28.0818	81.5225	0.001758	46365	3.589191	-7.788623	335.354	1.195611	0.092472	0.092143	335.776	46365	0.087041	0.240232	1397.72	86426.7
481	2.000000	1.198360	7.36976e+06	-53039.1	1005.82	-29747.6	0.000000	0.000000	7.212832	346.922	NaN	0.000000	0.001659	0.001750	28.0817	84.3744	0.001742	48440.9	2.945134	172.462	343.866	1.198167	0.094892	0.094699	346.922	48440.9	0.089521	0.252438	1374.29	88086.2
481	2.000000	1.200865	7.36976e+06	-53039.1	1005.82	-29747.6	0.000000	0.000000	7.216377	372.213	NaN	0.000000	0.001658	0.001730	28.0816	86.2619	0.001925	44816.7	5.602619	-9.415184	369.88	1.200617	0.097397	0.097149	372.213	44816.7	0.091168	0.260702	1427.73	80193.9
481	2.000000	1.203334	7.36976e+06	-53039.1	1005.82	-29747.6	0.000000	0.000000	7.219283	382.834	NaN	0.000000	0.001681	0.001719	28.0818	88.3481	0.001849	47772.1	5.580335	169.879	379.407	1.203206	0.099867	0.099738	382.834	47772.1	0.093856	0.274454	1394.9	83313
481	2.000000	1.205783	7.36976e+06	-53039.1	1005.82	-29747.6	0.000000	0.000000	7.222351	397.889	NaN	0.000000	0.001653	0.001746	28.0822	89.9185	0.001739	51704	1.230399	-6.281895	389.276	1.205500	0.102315	0.102032	397.889	51704	0.096543	0.288528	1379.03	87943.5
481	2.000000	1.208401	7.36976e+06	-53039.1	1005.82	-29747.6	0.000000	0.000000	7.226120	425.883	NaN	0.000000	0.001686	0.001764	28.082	93.6453	0.001843	50806.9	5.354039	170.699	426.871	1.208051	0.104933	0.104584	425.883	50806.9	0.098646	0.299773	1420.68	84781.2
481	2.000000	1.210912	7.36976e+06	-53039.1	1005.82	-29747.6	0.000000	0.000000	7.229320	442.637	NaN	0.000000	0.001685	0.001715	28.082	95.4974	0.001870	51061	7.115149	-11.109	439.165	1.210516	0.107444	0.107048	442.637	51061	0.100942	0.312282	1417.43	83481.4
481	2.000000	1.213427	7.36976e+06	-53039.1	1005.82	-29747.6	0.000000	0.000000	7.232746	464.771	NaN	0.000000	0.001672	0.001748	28.0819	98.0491	0.001737	56456.6	5.840720	169.194	465.72	1.213075	0.109959	0.109608	464.771	56456.6	0.103785	0.328096	1416.57	90050.7
481	2.000000	1.215299	7.36976e+06	-53039.1	1005.82	-29747.6	0.000000	0.000000	7.234901	471.662	NaN	0.000000	0.001692	0.001740	28.082	100.601	0.001893	53146.6	3.113395	171.768	466.414	1.215068	0.111831	0.111600	471.662	53146.6	0.105175	0.335967	1403.89	83772.3