File: remote_trans/data/nanoindenter/0828-1/data/Data_2025-08-06,11h17m57s/2025-07-22_16-23-58_1_557.txt
2025-07-22, 16:23:58, 1
Index	Phase	Displacement	Time	Pos X	Pos Y	Pos Z	Rot A	Rot B	Piezo Z	Force A	Force B	Gripper	Voltage A	Voltage B	Temperature	Amplitude force	Amplitude pos	Stiffness	Phase shift	Phase excitation	Force A raw	Displacement raw	HMax	HMax raw	Real Force	Real Stiffness	Contact Depth	Area	Hardness	Reduced Mod.
[#]	[#]	[um]	[s]	[um]	[um]	[um]	[m°]	[m°]	[um]	[uN]	[uN]	[V]	[V]	[V]	[°C]	[uN]	[um]	[N/m]	[°]	[°]	[uN]	[um]	[um]	[um]	[uN]	[N/m]	[um]	[um^2]	[MPa]	[MPa]
557	1.000000	0.002581	7.3705e+06	-49239.1	1005.82	-29759.6	0.000000	0.000000	6.002805	-0.038193	NaN	0.000000	0.001610	0.001674	28.0817	0.081060	0.000914	88.7319	87.6865	-167.699	-0.026220	0.001333	-1.112299	-1.113547	-0.038193	88.7319	-1.111976	-7.257867E+14	5.262357E-17	NaN
557	1.000000	0.012630	7.3705e+06	-49239.1	1005.82	-29759.6	0.000000	0.000000	6.012854	-0.018594	NaN	0.000000	0.001599	0.001694	28.0814	0.050424	0.001284	39.2843	-5.286091	17.841	0.004020	0.011131	-1.102251	-1.103750	-0.018594	39.2843	-1.101896	-5.315141E+14	3.498354E-17	NaN
557	1.000000	0.022543	7.3705e+06	-49239.1	1005.82	-29759.6	0.000000	0.000000	6.022767	-0.034826	NaN	0.000000	0.001627	0.001698	28.0815	0.016146	0.001758	9.185976	142.598	-166.187	0.026608	0.021157	-1.092338	-1.093723	-0.034826	9.185976	-1.089494	-3.622597E+14	9.613595E-17	NaN
557	1.000000	0.032532	7.3705e+06	-49239.1	1005.82	-29759.6	0.000000	0.000000	6.032759	0.039861	NaN	0.000000	0.001613	0.001687	28.0818	0.053953	0.001950	27.6623	-68.0723	10.0108	0.048670	0.031213	-1.082348	-1.083668	0.039861	27.6623	-1.083429	-3.003123E+14	-1.327307E-16	NaN
557	1.000000	0.042564	7.3705e+06	-49239.1	1005.82	-29759.6	0.000000	0.000000	6.042787	-0.062738	NaN	0.000000	0.001603	0.001687	28.0831	0.013852	0.001866	7.422806	46.1222	-164.269	-0.068680	0.041211	-1.072316	-1.073669	-0.062738	7.422806	-1.065977	-1.750389E+14	3.584251E-16	NaN
557	1.000000	0.052539	7.3705e+06	-49239.1	1005.82	-29759.6	0.000000	0.000000	6.052765	-0.006724	NaN	0.000000	0.001558	0.001711	28.0831	0.126140	0.001911	66.0237	-29.7221	16.727	0.004117	0.051189	-1.062341	-1.063691	-0.006724	66.0237	-1.062264	-1.560452E+14	4.308923E-17	NaN
557	1.000000	0.062524	7.3705e+06	-49239.1	1005.82	-29759.6	0.000000	0.000000	6.062748	-0.043274	NaN	0.000000	0.001608	0.001671	28.0831	0.074947	0.001959	38.2487	-106.846	-166.884	-0.084695	0.061186	-1.052356	-1.053694	-0.043274	38.2487	-1.051508	-1.118613E+14	3.868555E-16	NaN
557	1.000000	0.072542	7.3705e+06	-49239.1	1005.82	-29759.6	0.000000	0.000000	6.072764	-0.083605	NaN	0.000000	0.001584	0.001698	28.0832	0.003492	0.001940	1.800149	-93.1508	19.2516	-0.063864	0.071198	-1.042338	-1.043682	-0.083605	1.800149	-1.007505	-2.862888E+13	2.920313E-15	NaN
557	1.000000	0.082536	7.3705e+06	-49239.1	1005.82	-29759.6	0.000000	0.000000	6.082762	0.007757	NaN	0.000000	0.001608	0.001658	28.0832	0.049779	0.002093	23.7885	-109.481	-166.533	0.003448	0.081226	-1.032344	-1.033654	0.007757	23.7885	-1.032589	-6.227284E+13	-1.245626E-16	NaN
557	1.000000	0.092548	7.3705e+06	-49239.1	1005.82	-29759.6	0.000000	0.000000	6.092772	-0.029472	NaN	0.000000	0.001621	0.001652	28.0832	0.087083	0.002020	43.1052	-171.322	15.3	0.013432	0.091211	-1.022332	-1.023669	-0.029472	43.1052	-1.021820	-4.461022E+13	6.606619E-16	NaN
557	1.000000	0.102541	7.3705e+06	-49239.1	1005.82	-29759.6	0.000000	0.000000	6.102767	0.023473	NaN	0.000000	0.001664	0.001685	28.0831	0.141415	0.001910	74.0259	-16.2557	-166.139	0.034911	0.101241	-1.012339	-1.013639	0.023473	74.0259	-1.012577	-3.350161E+13	-7.006558E-16	NaN
557	1.000000	0.112525	7.3705e+06	-49239.1	1005.82	-29759.6	0.000000	0.000000	6.112747	-0.072571	NaN	0.000000	0.001615	0.001699	28.0833	0.070302	0.002073	33.9091	145.991	16.265	-0.136604	0.111153	-1.002355	-1.003728	-0.072571	33.9091	-1.000750	-2.322033E+13	3.125333E-15	NaN
557	1.000000	0.122569	7.3705e+06	-49239.1	1005.82	-29759.6	0.000000	0.000000	6.122792	-0.066594	NaN	0.000000	0.001669	0.001680	28.0831	0.067727	0.002106	32.165	148.815	-163.129	-0.106162	0.121199	-0.992311	-0.993681	-0.066594	32.165	-0.990758	-1.703419E+13	3.909431E-15	NaN
557	1.000000	0.132521	7.3705e+06	-49239.1	1005.82	-29759.6	0.000000	0.000000	6.132747	-0.004532	NaN	0.000000	0.001676	0.001711	28.0833	0.114835	0.001966	58.4035	141.925	16.4184	-0.027742	0.131202	-0.982359	-0.983679	-0.004532	58.4035	-0.982301	-1.310399E+13	3.458373E-16	NaN
557	1.000000	0.142533	7.3705e+06	-49239.1	1005.82	-29759.6	0.000000	0.000000	6.142758	-0.027555	NaN	0.000000	0.001656	0.001691	28.0833	0.055370	0.001830	30.2599	43.5035	-168.464	-0.044874	0.141254	-0.972347	-0.973627	-0.027555	30.2599	-0.971664	-9.420741E+12	2.924898E-15	NaN
557	1.000000	0.152525	7.3705e+06	-49239.1	1005.82	-29759.6	0.000000	0.000000	6.152750	-0.019004	NaN	0.000000	0.001713	0.001673	28.0833	0.089367	0.002030	44.0314	-94.3772	14.1551	0.001941	0.151203	-0.962355	-0.963677	-0.019004	44.0314	-0.962031	-6.986434E+12	2.720058E-15	NaN
557	1.000000	0.162586	7.3705e+06	-49239.1	1005.82	-29759.6	0.000000	0.000000	6.162812	0.017621	NaN	0.000000	0.001703	0.001673	28.0833	0.117676	0.002044	57.5782	49.7263	-167.006	0.035933	0.161244	-0.952294	-0.953637	0.017621	57.5782	-0.952524	-5.200687E+12	-3.388267E-15	NaN
557	1.000000	0.172586	7.3705e+06	-49239.1	1005.82	-29759.6	0.000000	0.000000	6.172809	-0.038620	NaN	0.000000	0.001699	0.001631	28.0832	0.122180	0.002066	59.1498	-14.1574	12.1351	-0.051882	0.171201	-0.942295	-0.943679	-0.038620	59.1498	-0.941805	-3.728101E+12	1.035928E-14	NaN
557	1.000000	0.182585	7.3705e+06	-49239.1	1005.82	-29759.6	0.000000	0.000000	6.182809	-0.037880	NaN	0.000000	0.001670	0.001641	28.082	0.081210	0.002013	40.3466	92.9371	-165.018	-0.046134	0.181185	-0.932295	-0.933695	-0.037880	40.3466	-0.931591	-2.714374E+12	1.395522E-14	NaN
557	1.000000	0.192556	7.3705e+06	-49239.1	1005.82	-29759.6	0.000000	0.000000	6.192783	0.034591	NaN	0.000000	0.001670	0.001630	28.0817	0.091774	0.002021	45.4096	40.3572	12.4264	0.027997	0.191225	-0.922324	-0.923655	0.034591	45.4096	-0.922896	-2.071580E+12	-1.669811E-14	NaN
557	1.000000	0.202607	7.3705e+06	-49239.1	1005.82	-29759.6	0.000000	0.000000	6.202833	0.012702	NaN	0.000000	0.001690	0.001617	28.0817	0.066013	0.001981	33.3185	-124.893	-164.077	0.036268	0.201335	-0.912273	-0.913545	0.012702	33.3185	-0.912559	-1.502191E+12	-8.455439E-15	NaN
557	1.000000	0.212606	7.3705e+06	-49239.1	1005.82	-29759.6	0.000000	0.000000	6.212830	-0.040559	NaN	0.000000	0.001644	0.001664	28.0819	0.032171	0.001953	16.4744	-59.9669	15.4808	-0.104931	0.211224	-0.902274	-0.903656	-0.040559	16.4744	-0.900427	-1.030012E+12	3.937712E-14	NaN
557	1.000000	0.222592	7.3705e+06	-49239.1	1005.82	-29759.6	0.000000	0.000000	6.222817	0.007448	NaN	0.000000	0.001601	0.001656	28.0817	0.178304	0.002053	86.8618	-74.9788	-168.444	-0.004009	0.221279	-0.892289	-0.893601	0.007448	86.8618	-0.892353	-8.011614E+11	-9.295889E-15	NaN
557	1.000000	0.232587	7.3705e+06	-49239.1	1005.82	-29759.6	0.000000	0.000000	6.232814	0.021583	NaN	0.000000	0.001580	0.001659	28.0822	0.139546	0.001889	73.8597	-75.3755	13.891	0.024520	0.231228	-0.882293	-0.883652	0.021583	73.8597	-0.882512	-5.897664E+11	-3.659648E-14	NaN
557	1.000000	0.242616	7.3705e+06	-49239.1	1005.82	-29759.6	0.000000	0.000000	6.242842	0.010475	NaN	0.000000	0.001560	0.001655	28.0821	0.090152	0.001982	45.496	122.372	-165.226	0.023560	0.241277	-0.872264	-0.873603	0.010475	45.496	-0.872437	-4.309328E+11	-2.430841E-14	NaN
557	1.000000	0.252598	7.3705e+06	-49239.1	1005.82	-29759.6	0.000000	0.000000	6.252824	0.018397	NaN	0.000000	0.001595	0.001693	28.0824	0.062339	0.002130	29.2616	125.595	15.1699	-0.013398	0.251246	-0.862282	-0.863634	0.018397	29.2616	-0.862754	-3.187053E+11	-5.772386E-14	NaN
557	1.000000	0.262616	7.3705e+06	-49239.1	1005.82	-29759.6	0.000000	0.000000	6.262841	-0.019152	NaN	0.000000	0.001578	0.001642	28.0821	0.065296	0.002004	32.5897	-179.777	-167.195	-0.019969	0.261357	-0.852264	-0.853523	-0.019152	32.5897	-0.851823	-2.266878E+11	8.448750E-14	NaN
557	1.000000	0.272591	7.3705e+06	-49239.1	1005.82	-29759.7	0.000000	0.000000	6.272815	-0.023811	NaN	0.000000	0.001622	0.001651	28.0822	0.060552	0.001927	31.4218	10.6152	15.4428	0.006112	0.271247	-0.842289	-0.843633	-0.023811	31.4218	-0.841721	-1.654268E+11	1.439362E-13	NaN
557	1.000000	0.282622	7.3705e+06	-49239.1	1005.82	-29759.7	0.000000	0.000000	6.282847	-0.003215	NaN	0.000000	0.001629	0.001700	28.0821	0.109139	0.002053	53.1648	-32.1303	-167.188	0.036291	0.281295	-0.832259	-0.833585	-0.003215	53.1648	-0.832213	-1.229651E+11	2.614743E-14	NaN
557	1.000000	0.292644	7.3705e+06	-49239.1	1005.82	-29759.7	0.000000	0.000000	6.292867	-0.056902	NaN	0.000000	0.001625	0.001643	28.0821	0.102091	0.002041	50.0306	155.198	13.8801	0.009112	0.291231	-0.822237	-0.823650	-0.056902	50.0306	-0.821384	-8.769472E+10	6.488596E-13	NaN
557	1.000000	0.302625	7.3705e+06	-49239.1	1005.82	-29759.7	0.000000	0.000000	6.302850	-0.015878	NaN	0.000000	0.001619	0.001662	28.0817	0.075851	0.002077	36.5176	-29.1955	-165.32	0.059759	0.301349	-0.812255	-0.813531	-0.015878	36.5176	-0.811929	-6.527364E+10	2.432465E-13	NaN
557	1.000000	0.312678	7.3705e+06	-49239.1	1005.82	-29759.7	0.000000	0.000000	6.312901	-0.053223	NaN	0.000000	0.001582	0.001653	28.0831	0.053354	0.002123	25.1308	-56.0598	12.7752	-0.025478	0.311285	-0.802202	-0.803595	-0.053223	25.1308	-0.800614	-4.583448E+10	1.161209E-12	NaN
557	1.000000	0.322644	7.3705e+06	-49239.1	1005.82	-29759.7	0.000000	0.000000	6.322871	0.025799	NaN	0.000000	0.001617	0.001662	28.0831	0.070415	0.002007	35.085	-52.091	-166.215	0.003862	0.321315	-0.792236	-0.793565	0.025799	35.085	-0.792787	-3.588705E+10	-7.188834E-13	NaN
557	1.000000	0.332671	7.3705e+06	-49239.1	1005.82	-29759.7	0.000000	0.000000	6.332895	-0.031317	NaN	0.000000	0.001627	0.001664	28.083	0.027868	0.001894	14.7156	-21.3379	16.2671	-0.035321	0.331293	-0.782209	-0.783588	-0.031317	14.7156	-0.780613	-2.452248E+10	1.277056E-12	NaN
557	1.000000	0.342652	7.3705e+06	-49239.1	1005.82	-29759.7	0.000000	0.000000	6.342875	-0.070894	NaN	0.000000	0.001624	0.001663	28.0831	0.007612	0.001835	4.148243	124.965	-165.057	-0.067342	0.341284	-0.772228	-0.773597	-0.070894	4.148243	-0.759410	-1.262639E+10	5.614775E-12	NaN
557	1.000000	0.352614	7.3705e+06	-49239.1	1005.82	-29759.7	0.000000	0.000000	6.352837	-0.047682	NaN	0.000000	0.001614	0.001679	28.083	0.072240	0.002054	35.1625	18.9641	14.678	-0.043330	0.351325	-0.762266	-0.763555	-0.047682	35.1625	-0.761249	-1.337514E+10	3.564997E-12	NaN
557	1.000000	0.362664	7.3705e+06	-49239.1	1005.82	-29759.7	0.000000	0.000000	6.362890	0.026168	NaN	0.000000	0.001586	0.001693	28.083	0.096009	0.002018	47.567	1.334004	-168.168	-0.044334	0.361363	-0.752216	-0.753517	0.026168	47.567	-0.752629	-1.020949E+10	-2.563071E-12	NaN
557	1.000000	0.372661	7.3705e+06	-49239.1	1005.82	-29759.7	0.000000	0.000000	6.372887	0.010488	NaN	0.000000	0.001595	0.001674	28.0833	0.049897	0.001910	26.1244	135.13	14.6813	0.010444	0.371350	-0.742220	-0.743530	0.010488	26.1244	-0.742521	-7.436808E+9	-1.410253E-12	NaN
557	1.000000	0.382638	7.3705e+06	-49239.1	1005.82	-29759.7	0.000000	0.000000	6.382864	0.005287	NaN	0.000000	0.001606	0.001668	28.0833	0.045351	0.002024	22.4035	-101.207	-165.019	0.017212	0.381307	-0.732242	-0.733574	0.005287	22.4035	-0.732419	-5.417231E+9	-9.759265E-13	NaN
557	1.000000	0.392664	7.3705e+06	-49239.1	1005.82	-29759.7	0.000000	0.000000	6.392890	-0.002251	NaN	0.000000	0.001611	0.001691	28.0835	0.032372	0.002031	15.9373	144.825	13.6561	0.031661	0.391273	-0.722216	-0.723607	-0.002251	15.9373	-0.722110	-3.919625E+9	5.743045E-13	NaN
557	1.000000	0.402661	7.3705e+06	-49239.1	1005.82	-29759.7	0.000000	0.000000	6.402887	0.013765	NaN	0.000000	0.001610	0.001677	28.0835	0.032320	0.002073	15.5908	-91.7227	-166.744	-0.026618	0.401399	-0.712219	-0.713481	0.013765	15.5908	-0.712881	-2.933341E+9	-4.692686E-12	NaN
557	1.000000	0.412690	7.3705e+06	-49239.1	1005.82	-29759.7	0.000000	0.000000	6.412915	-0.002438	NaN	0.000000	0.001605	0.001647	28.0835	0.097471	0.001922	50.7013	55.3153	13.0154	-0.067979	0.411297	-0.702191	-0.703583	-0.002438	50.7013	-0.702155	-2.093883E+9	1.164577E-12	NaN
557	1.000000	0.422673	7.3705e+06	-49239.1	1005.82	-29759.7	0.000000	0.000000	6.422899	0.015282	NaN	0.000000	0.001668	0.001701	28.0834	0.042572	0.001995	21.3423	-106.614	-168.199	-0.030741	0.421411	-0.692208	-0.693469	0.015282	21.3423	-0.692745	-1.557484E+9	-9.812146E-12	NaN
557	1.000000	0.432690	7.3705e+06	-49239.1	1005.82	-29759.7	0.000000	0.000000	6.432917	0.025924	NaN	0.000000	0.001651	0.001691	28.0836	0.043389	0.002026	21.4183	-170.505	11.8921	0.049643	0.431325	-0.682190	-0.683555	0.025924	21.4183	-0.683098	-1.149656E+9	-2.254962E-11	NaN
557	1.000000	0.442706	7.3705e+06	-49239.1	1005.82	-29759.7	0.000000	0.000000	6.442933	0.039090	NaN	0.000000	0.001622	0.001664	28.0833	0.045908	0.001954	23.4898	-65.4915	-169.091	-0.009258	0.441345	-0.672174	-0.673535	0.039090	23.4898	-0.673422	-8.476570E+8	-4.611580E-11	NaN
557	1.000000	0.452715	7.3705e+06	-49239.1	1005.82	-29759.7	0.000000	0.000000	6.452942	0.041787	NaN	0.000000	0.001596	0.001639	28.0821	0.081847	0.001953	41.9179	161.225	11.2764	0.093715	0.451302	-0.662165	-0.663578	0.041787	41.9179	-0.662913	-6.086391E+8	-6.865690E-11	NaN
557	1.000000	0.462707	7.3705e+06	-49239.1	1005.82	-29759.7	0.000000	0.000000	6.462931	-0.053872	NaN	0.000000	0.001612	0.001639	28.0822	0.157827	0.001974	79.934	-130.947	-165.03	-0.084184	0.461388	-0.652173	-0.653492	-0.053872	79.934	-0.651667	-4.268657E+8	1.262031E-10	NaN
557	1.000000	0.472686	7.3705e+06	-49239.1	1005.82	-29759.7	0.000000	0.000000	6.472908	-0.071949	NaN	0.000000	0.001583	0.001661	28.082	0.069037	0.002092	33.0076	42.9865	13.0974	-0.097900	0.471304	-0.642195	-0.643576	-0.071949	33.0076	-0.640560	-3.005873E+8	2.393629E-10	NaN
557	1.000000	0.482676	7.3705e+06	-49239.1	1005.82	-29759.7	0.000000	0.000000	6.482899	-0.063792	NaN	0.000000	0.001627	0.001670	28.0822	0.082303	0.001987	41.4113	-160.529	-165.863	-0.027095	0.481350	-0.632204	-0.633530	-0.063792	41.4113	-0.631049	-2.225477E+8	2.866432E-10	NaN
557	1.000000	0.492683	7.3705e+06	-49239.1	1005.82	-29759.7	0.000000	0.000000	6.492904	-0.092676	NaN	0.000000	0.001607	0.001662	28.0823	0.034636	0.001938	17.8709	-24.9924	14.2902	0.001396	0.491332	-0.622197	-0.623548	-0.092676	17.8709	-0.618308	-1.487220E+8	6.231470E-10	NaN
557	1.000000	0.502677	7.3705e+06	-49239.1	1005.82	-29759.7	0.000000	0.000000	6.502900	-0.054779	NaN	0.000000	0.001630	0.001645	28.0823	0.068732	0.002054	33.4676	57.3752	-171.54	-0.007694	0.501407	-0.612203	-0.613473	-0.054779	33.4676	-0.610975	-1.179056E+8	4.645997E-10	NaN
557	1.000000	0.512714	7.3705e+06	-49239.1	1005.82	-29759.7	0.000000	0.000000	6.512940	0.005578	NaN	0.000000	0.001643	0.001646	28.082	0.086265	0.001955	44.1173	123.213	14.8845	0.060226	0.511336	-0.602166	-0.603544	0.005578	44.1173	-0.602261	-8.945212E+7	-6.236114E-11	NaN
557	1.000000	0.522708	7.3705e+06	-49239.1	1005.82	-29759.7	0.000000	0.000000	6.522931	-0.049284	NaN	0.000000	0.001630	0.001655	28.0821	0.125320	0.002101	59.6495	-82.8625	-165.187	0.013612	0.521429	-0.592173	-0.593452	-0.049284	59.6495	-0.591553	-6.369038E+7	7.738130E-10	NaN
557	1.000000	0.532688	7.3705e+06	-49239.1	1005.82	-29759.7	0.000000	0.000000	6.532916	0.044197	NaN	0.000000	0.001542	0.001660	28.0822	0.058971	0.002003	29.4357	-95.1653	14.5611	0.007240	0.531359	-0.582192	-0.583521	0.044197	29.4357	-0.583318	-4.903567E+7	-9.013139E-10	NaN
557	1.000000	0.542733	7.3705e+06	-49239.1	1005.82	-29759.7	0.000000	0.000000	6.542960	0.032396	NaN	0.000000	0.001561	0.001635	28.0822	0.033544	0.002056	16.3133	20.5961	-163.724	0.069513	0.541487	-0.572147	-0.573393	0.032396	16.3133	-0.573636	-3.604666E+7	-8.987316E-10	NaN
557	1.000000	0.552760	7.3705e+06	-49239.1	1005.82	-29759.7	0.000000	0.000000	6.552986	-0.000306	NaN	0.000000	0.001589	0.001647	28.082	0.112963	0.002011	56.1752	-51.8751	15.858	-0.004785	0.551348	-0.562120	-0.563532	-0.000306	56.1752	-0.562116	-2.498286E+7	1.225592E-11	NaN
557	1.000000	0.562752	7.3705e+06	-49239.1	1005.82	-29759.7	0.000000	0.000000	6.562977	-0.007378	NaN	0.000000	0.001565	0.001705	28.082	0.036462	0.001834	19.8805	-141.478	-165.363	-0.046111	0.561397	-0.552128	-0.553483	-0.007378	19.8805	-0.551850	-1.801263E+7	4.096253E-10	NaN
557	1.000000	0.572745	7.3705e+06	-49239.1	1005.82	-29759.7	0.000000	0.000000	6.572969	-0.024092	NaN	0.000000	0.001536	0.001727	28.0821	0.035642	0.001959	18.1955	-154.997	21.2759	-0.002388	0.571378	-0.542136	-0.543503	-0.024092	18.1955	-0.541143	-1.279980E+7	1.882215E-9	NaN
557	1.000000	0.582753	7.3705e+06	-49239.1	1005.82	-29759.7	0.000000	0.000000	6.582978	0.005769	NaN	0.000000	0.001594	0.001763	28.0822	0.042628	0.001943	21.9374	141.404	-168.544	-0.042799	0.581425	-0.532127	-0.533455	0.005769	21.9374	-0.532325	-9.65729e+06	-5.973524E-10	NaN
557	1.000000	0.592739	7.3705e+06	-49239.1	1005.82	-29759.7	0.000000	0.000000	6.592963	-0.031328	NaN	0.000000	0.001591	0.001765	28.0832	0.045524	0.001999	22.7765	-44.8971	14.6611	0.003568	0.591400	-0.522141	-0.523481	-0.031328	22.7765	-0.521110	-6.74573e+06	4.644163E-9	NaN
557	1.000000	0.602748	7.3705e+06	-49239.1	1005.82	-29759.7	0.000000	0.000000	6.602971	-0.051874	NaN	0.000000	0.001576	0.001776	28.0833	0.059952	0.002011	29.8079	13.2913	-167.559	-0.071120	0.601434	-0.512132	-0.513446	-0.051874	29.8079	-0.510827	-4.85214e+06	1.069089E-8	NaN
557	1.000000	0.612727	7.3705e+06	-49239.1	1005.82	-29759.7	0.000000	0.000000	6.612952	0.005566	NaN	0.000000	0.001574	0.001766	28.083	0.121555	0.001860	65.3352	149.523	15.1511	-0.043118	0.611398	-0.502154	-0.503483	0.005566	65.3352	-0.502217	-3.68085e+06	-1.512272E-9	NaN
557	1.000000	0.622760	7.3705e+06	-49239.1	1005.82	-29759.7	0.000000	0.000000	6.622982	-0.086770	NaN	0.000000	0.001598	0.001745	28.0832	0.040888	0.002137	19.1328	-29.2895	-163.643	-0.028901	0.621429	-0.492120	-0.493451	-0.086770	19.1328	-0.488719	-2.385e+06	3.638176E-8	NaN
557	1.000000	0.632769	7.3705e+06	-49239.1	1005.82	-29759.7	0.000000	0.000000	6.632997	0.045662	NaN	0.000000	0.001600	0.001761	28.083	0.072063	0.002002	35.9908	-168.845	14.9189	0.116326	0.631431	-0.482111	-0.483449	0.045662	35.9908	-0.483062	-1.98787e+06	-2.297018E-8	NaN
557	1.000000	0.642785	7.3705e+06	-49239.1	1005.82	-29759.7	0.000000	0.000000	6.643011	0.010421	NaN	0.000000	0.001589	0.001705	28.0829	0.076540	0.001916	39.9513	-59.5645	-166.573	0.059461	0.641447	-0.472095	-0.473433	0.010421	39.9513	-0.472290	-1.40451e+06	-7.419697E-9	NaN
557	1.000000	0.652804	7.3705e+06	-49239.1	1005.82	-29759.7	0.000000	0.000000	6.653028	-0.049797	NaN	0.000000	0.001572	0.001780	28.083	0.106292	0.002019	52.6464	92.0108	13.6029	0.012854	0.651388	-0.462076	-0.463492	-0.049797	52.6464	-0.461366	-986776	5.046447E-8	NaN
557	1.000000	0.662768	7.3705e+06	-49239.1	1005.82	-29759.7	0.000000	0.000000	6.662995	0.049317	NaN	0.000000	0.001654	0.001716	28.0831	0.040481	0.002007	20.1685	12.0909	-166.502	0.061154	0.661492	-0.452112	-0.453388	0.049317	20.1685	-0.453946	-776057	-6.354812E-8	NaN
557	1.000000	0.672798	7.3705e+06	-49239.1	1005.82	-29759.7	0.000000	0.000000	6.673023	-0.013220	NaN	0.000000	0.001647	0.001739	28.083	0.041665	0.002004	20.7928	-106.862	17.6029	-0.015948	0.671395	-0.442082	-0.443485	-0.013220	20.7928	-0.441605	-520019	2.542252E-8	NaN
557	1.000000	0.682784	7.3705e+06	-49239.1	1005.82	-29759.7	0.000000	0.000000	6.683010	0.019083	NaN	0.000000	0.001624	0.001742	28.0837	0.040642	0.002150	18.9023	146.486	-164.651	0.052455	0.681475	-0.432096	-0.433405	0.019083	18.9023	-0.432853	-391213	-4.877960E-8	NaN
557	1.000000	0.692795	7.3705e+06	-49239.1	1005.82	-29759.7	0.000000	0.000000	6.693021	-0.004111	NaN	0.000000	0.001620	0.001710	28.0833	0.051740	0.002035	25.4227	166.929	12.8053	0.029722	0.691416	-0.422085	-0.423464	-0.004111	25.4227	-0.421964	-274319	1.498456E-8	NaN
557	1.000000	0.702811	7.3705e+06	-49239.1	1005.82	-29759.7	0.000000	0.000000	6.703037	0.018347	NaN	0.000000	0.001628	0.001740	28.0832	0.028707	0.001941	14.7904	-128.464	-164.902	0.037905	0.701457	-0.412070	-0.413423	0.018347	14.7904	-0.413000	-204665	-8.964532E-8	NaN
557	1.000000	0.712777	7.3705e+06	-49239.1	1005.82	-29759.7	0.000000	0.000000	6.713003	0.011315	NaN	0.000000	0.001610	0.001761	28.083	0.010033	0.002084	4.814420	3.299286	10.9421	0.111312	0.711441	-0.402103	-0.403439	0.011315	4.814420	-0.403866	-151739	-7.457096E-8	NaN
557	1.000000	0.722831	7.3705e+06	-49239.1	1005.82	-29759.7	0.000000	0.000000	6.723057	0.013723	NaN	0.000000	0.001592	0.001748	28.0819	0.102321	0.001969	51.9582	11.2706	-167.069	0.004958	0.721467	-0.392049	-0.393413	0.013723	51.9582	-0.392247	-103586	-1.324807E-7	NaN
557	1.000000	0.732783	7.3705e+06	-49239.1	1005.82	-29759.7	0.000000	0.000000	6.733006	-0.057422	NaN	0.000000	0.001614	0.001755	28.0818	0.090844	0.002010	45.2011	132.657	14.4672	-0.077287	0.731440	-0.382097	-0.383441	-0.057422	45.2011	-0.381144	-71830.8	7.994099E-7	NaN
557	1.000000	0.742810	7.3705e+06	-49239.1	1005.82	-29759.7	0.000000	0.000000	6.743032	-0.074107	NaN	0.000000	0.001604	0.001721	28.0817	0.021147	0.002122	9.963833	-165.334	-167.364	0.019140	0.741538	-0.372071	-0.373342	-0.074107	9.963833	-0.366492	-44216	1.676030E-6	NaN
557	1.000000	0.752809	7.3705e+06	-49239.1	1005.82	-29759.7	0.000000	0.000000	6.753032	-0.046822	NaN	0.000000	0.001631	0.001750	28.0821	0.067661	0.001968	34.3768	158.43	15.3454	-0.014851	0.751463	-0.362072	-0.363418	-0.046822	34.3768	-0.361050	-36899.5	1.268911E-6	NaN
557	1.000000	0.762758	7.3705e+06	-49239.1	1005.82	-29759.7	0.000000	0.000000	6.762987	0.084894	NaN	0.000000	0.001592	0.001726	28.0819	0.217956	0.002170	100.454	136.863	-165.761	0.051121	0.761510	-0.352122	-0.353370	0.084894	100.454	-0.352756	-27988.4	-3.033172E-6	NaN
557	1.000000	0.772853	7.3705e+06	-49239.1	1005.82	-29759.7	0.000000	0.000000	6.773077	-0.026185	NaN	0.000000	0.001596	0.001731	28.0821	0.156225	0.002022	77.2715	-1.563705	12.9131	-0.075269	0.771485	-0.342028	-0.343395	-0.026185	77.2715	-0.341773	-19381.8	1.351025E-6	NaN
557	1.000000	0.782834	7.3705e+06	-49239.1	1005.82	-29759.7	0.000000	0.000000	6.783059	0.005087	NaN	0.000000	0.001567	0.001714	28.0818	0.111520	0.002127	52.4337	61.6405	-167.35	-0.078570	0.781543	-0.332047	-0.333337	0.005087	52.4337	-0.332119	-14011.1	-3.630379E-7	NaN
557	1.000000	0.792841	7.3705e+06	-49239.1	1005.82	-29759.7	0.000000	0.000000	6.793065	-0.020244	NaN	0.000000	0.001576	0.001731	28.0821	0.071328	0.002010	35.4867	164.362	16.0993	-0.056173	0.791430	-0.322040	-0.323450	-0.020244	35.4867	-0.321612	-9825.44	2.060373E-6	NaN
557	1.000000	0.802844	7.3705e+06	-49239.1	1005.82	-29759.7	0.000000	0.000000	6.803068	-0.044162	NaN	0.000000	0.001591	0.001725	28.0819	0.042940	0.001944	22.0897	-72.0457	-163.838	-0.060164	0.801530	-0.312036	-0.313350	-0.044162	22.0897	-0.310537	-6745.28	6.547105E-6	NaN
557	1.000000	0.812887	7.3705e+06	-49239.1	1005.82	-29759.7	0.000000	0.000000	6.813111	-0.026749	NaN	0.000000	0.001587	0.001739	28.0821	0.104901	0.001950	53.7875	9.980175	14.131	0.050560	0.811454	-0.301993	-0.303427	-0.026749	53.7875	-0.301620	-4974.41	5.377321E-6	NaN
557	1.000000	0.822844	7.3705e+06	-49239.1	1005.82	-29759.7	0.000000	0.000000	6.823069	-0.002818	NaN	0.000000	0.001581	0.001766	28.0821	0.085210	0.002044	41.6958	162.279	-167.112	-0.046451	0.821526	-0.292036	-0.293354	-0.002818	41.6958	-0.291985	-3572.96	7.887843E-7	NaN
557	1.000000	0.832852	7.3705e+06	-49239.1	1005.82	-29759.7	0.000000	0.000000	6.833078	0.001731	NaN	0.000000	0.001550	0.001750	28.0821	0.076146	0.002176	34.997	-49.3079	11.6676	-0.076093	0.831478	-0.282028	-0.283403	0.001731	34.997	-0.282065	-2535.72	-6.824490E-7	NaN
557	1.000000	0.842889	7.3705e+06	-49239.1	1005.82	-29759.7	0.000000	0.000000	6.843111	-0.084561	NaN	0.000000	0.001576	0.001708	28.082	0.071918	0.001949	36.8903	-16.1034	-164.698	-0.076277	0.841542	-0.271991	-0.273338	-0.084561	36.8903	-0.270272	-1681.41	5.029203E-5	NaN
557	1.000000	0.852870	7.3705e+06	-49239.1	1005.82	-29759.7	0.000000	0.000000	6.853096	0.007378	NaN	0.000000	0.001576	0.001709	28.0821	0.121427	0.002037	59.609	-39.5214	15.145	-0.063278	0.851540	-0.262010	-0.263340	0.007378	59.609	-0.262103	-1262.17	-5.845246E-6	NaN
557	1.000000	0.862840	7.3705e+06	-49239.1	1005.82	-29759.7	0.000000	0.000000	6.863064	-0.020233	NaN	0.000000	0.001591	0.001736	28.0832	0.093639	0.002074	45.1439	-96.7296	-165.714	-0.022587	0.861546	-0.252041	-0.253334	-0.020233	45.1439	-0.251704	-873.584	2.316111E-5	NaN
557	1.000000	0.872856	7.3705e+06	-49239.1	1005.82	-29759.7	0.000000	0.000000	6.873082	-0.000916	NaN	0.000000	0.001594	0.001743	28.0832	0.033858	0.001941	17.4409	33.184	16.009	-0.014787	0.871479	-0.242024	-0.243401	-0.000916	17.4409	-0.241984	-617.331	1.484358E-6	NaN
557	1.000000	0.882865	7.3705e+06	-49239.1	1005.82	-29759.7	0.000000	0.000000	6.883090	-0.013555	NaN	0.000000	0.001588	0.001723	28.0832	0.055402	0.001955	28.3344	136.846	-166.023	0.064588	0.881547	-0.232015	-0.233334	-0.013555	28.3344	-0.231656	-425.251	3.187492E-5	NaN
557	1.000000	0.892902	7.3705e+06	-49239.1	1005.82	-29759.7	0.000000	0.000000	6.893125	-0.053594	NaN	0.000000	0.001560	0.001720	28.0836	0.177653	0.002161	82.2271	57.743	14.5707	0.005820	0.891567	-0.221979	-0.223313	-0.053594	82.2271	-0.221490	-293.401	0.000183	NaN
557	1.000000	0.902861	7.3705e+06	-49239.1	1005.82	-29759.7	0.000000	0.000000	6.903086	-0.011406	NaN	0.000000	0.001540	0.001753	28.0831	0.095725	0.002144	44.6542	26.3478	-164.146	0.066947	0.901613	-0.212019	-0.213267	-0.011406	44.6542	-0.211828	-205.297	5.555788E-5	NaN
557	1.000000	0.912879	7.3705e+06	-49239.1	1005.82	-29759.7	0.000000	0.000000	6.913102	-0.051270	NaN	0.000000	0.001507	0.001736	28.0832	0.069190	0.001968	35.1538	-120.625	11.5835	-0.043104	0.911533	-0.202002	-0.203347	-0.051270	35.1538	-0.200908	-136.335	0.000376	NaN
557	1.000000	0.922891	7.3705e+06	-49239.1	1005.82	-29759.7	0.000000	0.000000	6.923116	-0.005936	NaN	0.000000	0.001513	0.001705	28.0833	0.085625	0.002155	39.7289	-125.617	-167.71	-0.007045	0.921552	-0.191990	-0.193328	-0.005936	39.7289	-0.191878	-96.6814	6.139529E-5	NaN
557	1.000000	0.932867	7.3705e+06	-49239.1	1005.82	-29759.7	0.000000	0.000000	6.933092	-0.023033	NaN	0.000000	0.001526	0.001746	28.0834	0.117906	0.001987	59.3504	-70.9917	14.3556	0.007316	0.931550	-0.182013	-0.183330	-0.023033	59.3504	-0.181722	-65.2708	0.000353	NaN
557	1.000000	0.942913	7.3705e+06	-49239.1	1005.82	-29759.7	0.000000	0.000000	6.943140	0.033052	NaN	0.000000	0.001537	0.001712	28.0832	0.113472	0.001980	57.3032	-31.1976	-166.427	-0.030501	0.941626	-0.171967	-0.173254	0.033052	57.3032	-0.172399	-45.2035	-0.000731	NaN
557	1.000000	0.952898	7.3705e+06	-49239.1	1005.82	-29759.7	0.000000	0.000000	6.953122	-0.028518	NaN	0.000000	0.001511	0.001730	28.0833	0.057870	0.002066	28.0063	166.528	12.8025	-0.081304	0.951501	-0.161982	-0.163379	-0.028518	28.0063	-0.161219	-28.8143	0.000990	NaN
557	1.000000	0.962896	7.3705e+06	-49239.1	1005.82	-29759.7	0.000000	0.000000	6.963120	-0.034865	NaN	0.000000	0.001536	0.001739	28.0835	0.045132	0.001904	23.7042	139.904	-167.212	0.028173	0.961550	-0.151984	-0.153330	-0.034865	23.7042	-0.150881	-18.7953	0.001855	NaN
557	1.000000	0.972912	7.3705e+06	-49239.1	1005.82	-29759.7	0.000000	0.000000	6.973135	-0.071825	NaN	0.000000	0.001578	0.001751	28.0834	0.051396	0.001946	26.4065	103.522	13.349	0.003969	0.971539	-0.141968	-0.143341	-0.071825	26.4065	-0.139928	-11.7926	0.006091	NaN
557	1.000000	0.982907	7.3705e+06	-49239.1	1005.82	-29759.7	0.000000	0.000000	6.983130	-0.050328	NaN	0.000000	0.001532	0.001771	28.0835	0.043650	0.002007	21.746	39.0782	-166.801	-0.028126	0.981605	-0.131973	-0.133275	-0.050328	21.746	-0.130238	-7.702394	0.006534	NaN
557	1.000000	0.992902	7.3705e+06	-49239.1	1005.82	-29759.7	0.000000	0.000000	6.993127	-0.013058	NaN	0.000000	0.001553	0.001721	28.0831	0.022150	0.002002	11.064	-109.599	15.5932	-0.018495	0.991543	-0.121978	-0.123337	-0.013058	11.064	-0.121093	-5.082598	0.002569	NaN
557	1.000000	1.002922	7.3705e+06	-49239.1	1005.82	-29759.7	0.000000	0.000000	7.003145	-0.047421	NaN	0.000000	0.001529	0.001703	28.0823	0.045270	0.002030	22.2951	-151.988	-165.853	-0.033054	1.001563	-0.111958	-0.113318	-0.047421	22.2951	-0.110363	-3.058591	0.015504	NaN
557	1.000000	1.012926	7.3705e+06	-49239.1	1005.82	-29759.7	0.000000	0.000000	7.013152	0.009470	NaN	0.000000	0.001568	0.001707	28.0821	0.059268	0.002052	28.8892	9.369663	11.9863	-0.031185	1.011628	-0.101954	-0.103253	0.009470	28.8892	-0.102200	-2.042944	-0.004636	NaN
557	1.000000	1.022956	7.3705e+06	-49239.1	1005.82	-29759.7	0.000000	0.000000	7.023178	-0.091595	NaN	0.000000	0.001558	0.001731	28.0821	0.079828	0.002127	37.5238	156.675	-165.497	-0.045904	1.021643	-0.091924	-0.093237	-0.091595	37.5238	-0.090093	-1.086444	0.084307	NaN
557	1.000000	1.032926	7.3705e+06	-49239.1	1005.82	-29759.7	0.000000	0.000000	7.033148	-0.069341	NaN	0.000000	0.001567	0.001736	28.0822	0.043129	0.001992	21.6516	-98.1005	11.0378	-0.060596	1.031592	-0.081955	-0.083288	-0.069341	21.6516	-0.079553	-0.603231	0.114949	NaN
557	1.000000	1.042935	7.3705e+06	-49239.1	1005.82	-29759.7	0.000000	0.000000	7.043163	0.057500	NaN	0.000000	0.001589	0.001744	28.0821	0.033851	0.001980	17.097	-40.9752	-165.106	-0.065540	1.041618	-0.071945	-0.073262	0.057500	17.097	-0.074467	-0.447420	-0.128515	NaN
557	1.000000	1.052960	7.3705e+06	-49239.1	1005.82	-29759.7	0.000000	0.000000	7.053184	-0.030723	NaN	0.000000	0.001565	0.001705	28.082	0.084686	0.002049	41.3225	68.5637	15.5855	0.082413	1.051591	-0.061920	-0.063289	-0.030723	41.3225	-0.061362	-0.196973	0.155977	NaN
557	1.000000	1.062926	7.3705e+06	-49239.1	1005.82	-29759.7	0.000000	0.000000	7.063152	0.009473	NaN	0.000000	0.001582	0.001717	28.082	0.110738	0.001952	56.7423	-96.2242	-163.705	0.045128	1.061636	-0.051955	-0.053244	0.009473	56.7423	-0.052080	-0.105409	-0.089870	NaN
557	1.000000	1.072938	7.3705e+06	-49239.1	1005.82	-29759.7	0.000000	0.000000	7.073165	0.021582	NaN	0.000000	0.001564	0.001695	28.0822	0.127016	0.002060	61.6592	28.4835	11.6741	-0.079893	1.071629	-0.041942	-0.043252	0.021582	61.6592	-0.042204	-0.052785	-0.408875	NaN
557	1.000000	1.082932	7.3705e+06	-49239.1	1005.82	-29759.7	0.000000	0.000000	7.083158	0.016041	NaN	0.000000	0.001581	0.001697	28.082	0.020068	0.001936	10.3665	21.3058	-166.375	0.002984	1.081647	-0.031948	-0.033234	0.016041	10.3665	-0.033109	-0.028201	-0.568808	NaN
557	1.000000	1.092969	7.3705e+06	-49239.1	1005.82	-29759.7	0.000000	0.000000	7.093193	-0.026146	NaN	0.000000	0.001565	0.001685	28.082	0.038448	0.001902	20.2142	35.4221	14.1456	-0.001088	1.091612	-0.021912	-0.023269	-0.026146	20.2142	-0.020942	-0.013272	1.969918	NaN
557	1.000000	1.102918	7.3705e+06	-49239.1	1005.82	-29759.7	0.000000	0.000000	7.103143	0.003784	NaN	0.000000	0.001580	0.001683	28.0821	0.094902	0.002026	46.836	114.184	-164.405	-0.078734	1.101665	-0.011963	-0.013216	0.003784	46.836	-0.012023	-0.007542	-0.501726	NaN
557	1.000000	1.112964	7.3705e+06	-49239.1	1005.82	-29759.7	0.000000	0.000000	7.113248	1.406606	NaN	0.000000	0.001590	0.001711	28.0822	2.073152	0.001978	1048.26	9.331523	11.6821	0.640970	1.111618	-0.001916	-0.003262	1.406606	1048.26	-0.002922	-0.002068	-680.078	NaN
557	2.000000	1.120521	7.3705e+06	-49239.1	1005.82	-29759.7	0.000000	0.000000	7.121153	9.890345	NaN	0.000000	0.001570	0.001668	28.0825	10.2573	0.001653	6205.03	9.660247	-174.337	9.722675	1.120168	0.005641	0.005287	9.890345	6205.03	0.004445	0.003633	2722.53	94058.5
557	2.000000	1.123009	7.3705e+06	-49239.1	1005.82	-29759.7	0.000000	0.000000	7.123822	14.2993	NaN	0.000000	0.001588	0.001707	28.0832	13.0648	0.001679	7781.56	10.0692	3.945524	13.8565	1.122638	0.008129	0.007758	14.2993	7781.56	0.006750	0.005788	2470.38	93446.9
557	2.000000	1.125469	7.3705e+06	-49239.1	1005.82	-29759.7	0.000000	0.000000	7.126484	19.1914	NaN	0.000000	0.001542	0.001684	28.0835	15.7932	0.001594	9909.58	6.475933	-177.177	18.8124	1.125208	0.010589	0.010328	19.1914	9909.58	0.009137	0.008238	2329.69	99752.6
557	2.000000	1.127947	7.3705e+06	-49239.1	1005.82	-29759.7	0.000000	0.000000	7.129166	24.1595	NaN	0.000000	0.001590	0.001730	28.0831	19.3583	0.001712	11306.3	4.135791	5.263718	22.0833	1.127569	0.013067	0.012689	24.1595	11306.3	0.011464	0.010855	2225.75	99148.5
557	2.000000	1.130391	7.3705e+06	-49239.1	1005.82	-29759.7	0.000000	0.000000	7.131847	29.9206	NaN	0.000000	0.001626	0.001706	28.0835	22.334	0.001773	12594.1	7.202316	-178.024	28.7053	1.130061	0.015511	0.015181	29.9206	12594.1	0.013729	0.013628	2195.56	98566.3
557	2.000000	1.132989	7.3705e+06	-49239.1	1005.82	-29759.7	0.000000	0.000000	7.134772	37.8796	NaN	0.000000	0.001594	0.001704	28.0832	25.0818	0.001533	16359	6.370968	-0.081915	38.0781	1.132601	0.018109	0.017720	37.8796	16359	0.016373	0.017160	2207.5	114098
557	2.000000	1.135444	7.3705e+06	-49239.1	1005.82	-29759.7	0.000000	0.000000	7.137335	40.4969	NaN	0.000000	0.001634	0.001707	28.0835	27.8781	0.001702	16382.2	5.928347	179.447	40.7957	1.135151	0.020564	0.020271	40.4969	16382.2	0.018710	0.020556	1970.09	104395
557	2.000000	1.137908	7.3705e+06	-49239.1	1005.82	-29759.7	0.000000	0.000000	7.140026	46.0303	NaN	0.000000	0.001614	0.001746	28.0832	29.7243	0.001694	17546.4	3.713672	1.984964	45.0293	1.137572	0.023027	0.022692	46.0303	17546.4	0.021060	0.024235	1899.31	102976
557	2.000000	1.140442	7.3705e+06	-49239.1	1005.82	-29759.7	0.000000	0.000000	7.142847	53.0064	NaN	0.000000	0.001628	0.001768	28.0834	33.4656	0.001779	18809.7	6.187972	178.452	53.5888	1.140179	0.025562	0.025298	53.0064	18809.7	0.023448	0.028253	1876.17	102241
557	2.000000	1.142916	7.3705e+06	-49239.1	1005.82	-29759.7	0.000000	0.000000	7.145698	62.1778	NaN	0.000000	0.001616	0.001758	28.0834	35.2423	0.001775	19850.4	6.438438	-2.672232	61.8372	1.142570	0.028036	0.027689	62.1778	19850.4	0.025687	0.032277	1926.38	100947
557	2.000000	1.145440	7.3705e+06	-49239.1	1005.82	-29759.7	0.000000	0.000000	7.148375	65.8787	NaN	0.000000	0.001598	0.001754	28.0834	37.2883	0.001688	22086.1	6.337843	177.083	68.0907	1.145065	0.030560	0.030185	65.8787	22086.1	0.028323	0.037340	1764.3	104425
557	2.000000	1.147900	7.3705e+06	-49239.1	1005.82	-29759.7	0.000000	0.000000	7.151322	77.7392	NaN	0.000000	0.001625	0.001709	28.0832	39.8754	0.001767	22571.2	4.981830	-2.311353	77.3665	1.147633	0.033020	0.032752	77.7392	22571.2	0.030437	0.041654	1866.31	101041
557	2.000000	1.150378	7.3705e+06	-49239.1	1005.82	-29759.7	0.000000	0.000000	7.154235	88.3127	NaN	0.000000	0.001609	0.001727	28.0834	42.2833	0.001750	24161.3	4.534965	177.616	87.2784	1.150072	0.035498	0.035192	88.3127	24161.3	0.032757	0.046652	1893.01	102202
557	2.000000	1.152927	7.3705e+06	-49239.1	1005.82	-29759.7	0.000000	0.000000	7.157153	97.2846	NaN	0.000000	0.001575	0.001763	28.0837	43.7909	0.001838	23825.7	6.805551	-3.308022	96.663	1.152434	0.038047	0.037553	97.2846	23825.7	0.034984	0.051710	1881.36	95726.8
557	2.000000	1.155328	7.3705e+06	-49239.1	1005.82	-29759.7	0.000000	0.000000	7.159813	103.6	NaN	0.000000	0.001576	0.001732	28.0838	46.1707	0.001810	25504.6	5.485033	176.28	100.891	1.155035	0.040448	0.040155	103.6	25504.6	0.037401	0.057485	1802.22	97188.5
557	2.000000	1.157864	7.3705e+06	-49239.1	1005.82	-29759.7	0.000000	0.000000	7.162824	115.138	NaN	0.000000	0.001588	0.001736	28.0824	48.7674	0.001828	26671.7	3.651295	-2.154220	113.478	1.157540	0.042984	0.042660	115.138	26671.7	0.039746	0.063374	1816.8	96798.4
557	2.000000	1.160360	7.3705e+06	-49239.1	1005.82	-29759.7	0.000000	0.000000	7.165792	126.612	NaN	0.000000	0.001594	0.001707	28.0825	51.8342	0.001694	30602.4	2.395180	178.107	125.494	1.160096	0.045480	0.045216	126.612	30602.4	0.042377	0.070316	1800.61	105439
557	2.000000	1.162956	7.3705e+06	-49239.1	1005.82	-29759.7	0.000000	0.000000	7.168839	137.596	NaN	0.000000	0.001551	0.001726	28.0845	53.8884	0.001752	30749.7	1.975663	-0.541496	139.192	1.162536	0.048076	0.047656	137.596	30749.7	0.044720	0.076794	1791.76	101380
557	2.000000	1.165331	7.3705e+06	-49239.1	1005.82	-29759.7	0.000000	0.000000	7.171858	153.259	NaN	0.000000	0.001581	0.001758	28.0857	56.6373	0.001741	32537.8	5.026738	174.661	149.814	1.164909	0.050450	0.050029	153.259	32537.8	0.046918	0.083124	1843.73	103109
557	2.000000	1.167883	7.3705e+06	-49239.1	1005.82	-29759.7	0.000000	0.000000	7.174894	165.03	NaN	0.000000	0.001598	0.001760	28.0823	59.2371	0.001686	35132.3	3.216690	-4.305855	164.781	1.167520	0.053003	0.052640	165.03	35132.3	0.049480	0.090812	1817.28	106514
557	2.000000	1.170340	7.3705e+06	-49239.1	1005.82	-29759.7	0.000000	0.000000	7.178014	181.167	NaN	0.000000	0.001562	0.001724	28.0827	62.9074	0.001806	34833.5	2.653280	176.52	177.629	1.170028	0.055459	0.055148	181.167	34833.5	0.051559	0.097292	1862.11	102031
557	2.000000	1.172843	7.3705e+06	-49239.1	1005.82	-29759.7	0.000000	0.000000	7.180802	188.092	NaN	0.000000	0.001595	0.001734	28.0823	63.871	0.001792	35634.8	-0.215944	-0.746226	185.036	1.172569	0.057962	0.057688	188.092	35634.8	0.054004	0.105189	1788.15	100384
557	2.000000	1.175285	7.3705e+06	-49239.1	1005.82	-29759.7	0.000000	0.000000	7.183905	204.173	NaN	0.000000	0.001598	0.001738	28.0823	66.9285	0.001807	37037.3	4.783334	173.406	200.603	1.175082	0.060404	0.060202	204.173	37037.3	0.056270	0.112774	1810.46	100765
557	2.000000	1.177854	7.3705e+06	-49239.1	1005.82	-29759.7	0.000000	0.000000	7.187035	217.8	NaN	0.000000	0.001563	0.001757	28.0821	69.6487	0.001802	38648.4	4.619088	-6.260232	216.461	1.177583	0.062974	0.062703	217.8	38648.4	0.058748	0.121355	1794.73	101362
557	2.000000	1.180311	7.3705e+06	-49239.1	1005.82	-29759.7	0.000000	0.000000	7.190158	233.987	NaN	0.000000	0.001600	0.001692	28.0821	72.8962	0.001823	39994.4	5.220290	173.426	232.441	1.180057	0.065431	0.065177	233.987	39994.4	0.061043	0.129576	1805.79	101510
557	2.000000	1.182829	7.3705e+06	-49239.1	1005.82	-29759.7	0.000000	0.000000	7.193668	258.115	NaN	0.000000	0.001553	0.001710	28.0823	74.5803	0.001822	40935.4	7.153899	-8.195447	255.243	1.182361	0.067949	0.067481	258.115	40935.4	0.063220	0.137608	1875.73	100821
557	2.000000	1.185251	7.3705e+06	-49239.1	1005.82	-29759.7	0.000000	0.000000	7.196467	267.294	NaN	0.000000	0.001588	0.001718	28.0823	75.7931	0.001778	42624.8	4.007989	173.467	261.63	1.184930	0.070371	0.070050	267.294	42624.8	0.065667	0.146911	1819.42	101603
557	2.000000	1.187860	7.3705e+06	-49239.1	1005.82	-29759.7	0.000000	0.000000	7.199845	285.987	NaN	0.000000	0.001617	0.001719	28.0821	78.3285	0.001710	45814.9	2.714834	-5.294687	283.182	1.187495	0.072980	0.072615	285.987	45814.9	0.068298	0.157234	1818.87	105562
557	2.000000	1.190301	7.3705e+06	-49239.1	1005.82	-29759.7	0.000000	0.000000	7.202836	299.372	NaN	0.000000	0.001632	0.001712	28.0833	81.8781	0.001759	46538.8	4.580855	172.794	294.838	1.189939	0.075421	0.075059	299.372	46538.8	0.070596	0.166522	1797.79	104196
557	2.000000	1.192804	7.3705e+06	-49239.1	1005.82	-29759.7	0.000000	0.000000	7.206270	322.013	NaN	0.000000	0.001627	0.001730	28.0834	84.1346	0.001881	44726	8.218909	-9.722534	317.369	1.192349	0.077924	0.077469	322.013	44726	0.072524	0.174507	1845.26	97819.6
557	2.000000	1.195422	7.3705e+06	-49239.1	1005.82	-29759.7	0.000000	0.000000	7.209413	334.802	NaN	0.000000	0.001632	0.001714	28.0834	86.8966	0.001819	47765.1	7.574978	169.839	337.88	1.194970	0.080541	0.080089	334.802	47765.1	0.075284	0.186246	1797.63	101121
557	2.000000	1.197834	7.3705e+06	-49239.1	1005.82	-29759.7	0.000000	0.000000	7.212540	352.164	NaN	0.000000	0.001628	0.001713	28.0834	88.4637	0.001731	51120.3	4.746115	-7.456947	351.698	1.197437	0.082954	0.082556	352.164	51120.3	0.077787	0.197200	1785.82	105175
557	2.000000	1.200307	7.3705e+06	-49239.1	1005.82	-29759.7	0.000000	0.000000	7.215803	371.371	NaN	0.000000	0.001645	0.001740	28.0836	91.8723	0.001780	51612.3	3.250582	173.489	367.095	1.199986	0.085427	0.085106	371.371	51612.3	0.080031	0.207268	1791.75	103576
557	2.000000	1.202744	7.3705e+06	-49239.1	1005.82	-29759.7	0.000000	0.000000	7.219082	391.867	NaN	0.000000	0.001586	0.001740	28.0834	93.9886	0.001842	51015.3	5.869661	-8.856805	385.195	1.202435	0.087864	0.087555	391.867	51015.3	0.082103	0.216774	1807.72	100108
557	2.000000	1.205355	7.3705e+06	-49239.1	1005.82	-29759.7	0.000000	0.000000	7.222490	411.255	NaN	0.000000	0.001616	0.001709	28.0834	95.1324	0.001651	57631.7	4.965946	171.294	412.184	1.205064	0.090475	0.090184	411.255	57631.7	0.085123	0.230987	1780.42	109557
557	2.000000	1.207727	7.3705e+06	-49239.1	1005.82	-29759.7	0.000000	0.000000	7.225941	437.499	NaN	0.000000	0.001617	0.001677	28.0837	99.1476	0.001763	56239.5	5.364102	-8.374838	431.128	1.207398	0.092847	0.092518	437.499	56239.5	0.087012	0.240094	1822.2	104864
557	2.000000	1.210296	7.3705e+06	-49239.1	1005.82	-29759.7	0.000000	0.000000	7.228701	442.122	NaN	0.000000	0.001609	0.001707	28.0836	101.994	0.001873	54453.6	0.644402	175.781	440.6	1.210112	0.095416	0.095231	442.122	54453.6	0.089327	0.251472	1758.13	99209.9
557	2.000000	1.212844	7.3705e+06	-49239.1	1005.82	-29759.7	0.000000	0.000000	7.232488	472.272	NaN	0.000000	0.001600	0.001709	28.0838	104.893	0.001809	57981.1	7.798746	-11.4353	470.052	1.212363	0.097963	0.097483	472.272	57981.1	0.091854	0.264181	1787.68	103065
557	2.000000	1.215223	7.3705e+06	-49239.1	1005.82	-29759.7	0.000000	0.000000	7.235628	490.783	NaN	0.000000	0.001634	0.001716	28.0836	105.926	0.001797	58939.2	5.943883	169.91	485.591	1.214999	0.100342	0.100119	490.783	58939.2	0.094097	0.275702	1780.12	102555
557	2.000000	1.217754	7.3705e+06	-49239.1	1005.82	-29759.7	0.000000	0.000000	7.239073	512.985	NaN	0.000000	0.001592	0.001715	28.0839	109.868	0.001791	61338.3	7.288277	-11.5962	508.096	1.217395	0.102874	0.102515	512.985	61338.3	0.096602	0.288839	1776.03	104274
557	2.000000	1.218309	7.3705e+06	-49239.1	1005.82	-29759.7	0.000000	0.000000	7.239767	516.393	NaN	0.000000	0.001593	0.001715	28.084	110.141	0.001827	60287.3	6.300556	169.482	515.711	1.217934	0.103428	0.103053	516.393	60287.3	0.097004	0.290976	1774.69	102110