File: remote_trans/data/nanoindenter/0828-1/data/Data_2025-08-06,11h17m57s/2025-07-22_16-23-58_1_649.txt
2025-07-22, 16:23:58, 1
Index	Phase	Displacement	Time	Pos X	Pos Y	Pos Z	Rot A	Rot B	Piezo Z	Force A	Force B	Gripper	Voltage A	Voltage B	Temperature	Amplitude force	Amplitude pos	Stiffness	Phase shift	Phase excitation	Force A raw	Displacement raw	HMax	HMax raw	Real Force	Real Stiffness	Contact Depth	Area	Hardness	Reduced Mod.
[#]	[#]	[um]	[s]	[um]	[um]	[um]	[m°]	[m°]	[um]	[uN]	[uN]	[V]	[V]	[V]	[°C]	[uN]	[um]	[N/m]	[°]	[°]	[uN]	[um]	[um]	[um]	[uN]	[N/m]	[um]	[um^2]	[MPa]	[MPa]
649	1.000000	0.002512	7.3714e+06	-44639.1	1005.82	-29775.1	0.000000	0.000000	6.002824	-0.069901	NaN	0.000000	0.001628	0.001696	28.0844	0.100065	0.000974	102.716	-148.505	-174.6	-0.055161	0.001267	-1.101162	-1.102407	-0.069901	102.716	-1.100652	-5.114648E+14	1.366688E-16	NaN
649	1.000000	0.012560	7.3714e+06	-44639.1	1005.82	-29775.1	0.000000	0.000000	6.012874	-0.029111	NaN	0.000000	0.001614	0.001650	28.0842	0.062439	0.001200	52.0325	-67.2598	16.1475	0.007688	0.011059	-1.091114	-1.092615	-0.029111	52.0325	-1.090694	-3.759521E+14	7.743184E-17	NaN
649	1.000000	0.022423	7.3714e+06	-44639.1	1005.82	-29775.1	0.000000	0.000000	6.022738	0.012872	NaN	0.000000	0.001638	0.001727	28.0843	0.060002	0.001675	35.8158	100.667	-164.908	0.035188	0.021143	-1.081251	-1.082531	0.012872	35.8158	-1.081521	-2.831022E+14	-4.546905E-17	NaN
649	1.000000	0.032433	7.3714e+06	-44639.1	1005.82	-29775.1	0.000000	0.000000	6.032747	-0.011678	NaN	0.000000	0.001603	0.001711	28.0847	0.120103	0.001940	61.9095	-107.247	17.7518	0.009419	0.031080	-1.071241	-1.072595	-0.011678	61.9095	-1.071100	-2.050985E+14	5.694074E-17	NaN
649	1.000000	0.042418	7.3714e+06	-44639.1	1005.82	-29775.1	0.000000	0.000000	6.042731	-0.037669	NaN	0.000000	0.001603	0.001746	28.0848	0.031602	0.002036	15.5209	-55.027	-165.074	-0.048909	0.041102	-1.061256	-1.062572	-0.037669	15.5209	-1.059436	-1.429698E+14	2.634754E-16	NaN
649	1.000000	0.052439	7.3714e+06	-44639.1	1005.82	-29775.1	0.000000	0.000000	6.052752	-0.043428	NaN	0.000000	0.001567	0.001701	28.0844	0.038994	0.001947	20.0244	88.1644	15.8209	-0.052098	0.051104	-1.051235	-1.052570	-0.043428	20.0244	-1.049609	-1.054755E+14	4.117325E-16	NaN
649	1.000000	0.062414	7.3714e+06	-44639.1	1005.82	-29775.1	0.000000	0.000000	6.062729	-0.012031	NaN	0.000000	0.001569	0.001715	28.0835	0.063986	0.002034	31.4558	-70.6184	-165.507	-0.032695	0.061113	-1.041260	-1.042562	-0.012031	31.4558	-1.040973	-8.073264E+13	1.490197E-16	NaN
649	1.000000	0.072440	7.3714e+06	-44639.1	1005.82	-29775.1	0.000000	0.000000	6.072754	-0.000230	NaN	0.000000	0.001570	0.001736	28.0836	0.132879	0.002111	62.9579	-145.96	13.7545	-0.076304	0.071091	-1.031235	-1.032583	-0.000230	62.9579	-1.031232	-5.971030E+13	3.858026E-18	NaN
649	1.000000	0.082451	7.3714e+06	-44639.1	1005.82	-29775.1	0.000000	0.000000	6.082763	-0.073926	NaN	0.000000	0.001625	0.001721	28.0833	0.054627	0.001994	27.3953	174.58	-163.965	-0.044834	0.081136	-1.021223	-1.022538	-0.073926	27.3953	-1.019199	-4.113175E+13	1.797292E-15	NaN
649	1.000000	0.092421	7.3714e+06	-44639.1	1005.82	-29775.1	0.000000	0.000000	6.092735	-0.012760	NaN	0.000000	0.001686	0.001705	28.0833	0.063538	0.002021	31.433	109.155	12.5342	-0.091312	0.091118	-1.011253	-1.012556	-0.012760	31.433	-1.010948	-3.185265E+13	4.005794E-16	NaN
649	1.000000	0.102452	7.3714e+06	-44639.1	1005.82	-29775.1	0.000000	0.000000	6.102764	-0.069080	NaN	0.000000	0.001666	0.001726	28.0835	0.092343	0.001859	49.6787	-132.917	-165.1	-0.079262	0.101173	-1.001222	-1.002501	-0.069080	49.6787	-1.000179	-2.281301E+13	3.028096E-15	NaN
649	1.000000	0.112465	7.3714e+06	-44639.1	1005.82	-29775.1	0.000000	0.000000	6.112780	-0.003991	NaN	0.000000	0.001651	0.001689	28.0832	0.038816	0.002088	18.5933	15.2002	13.4608	-0.048996	0.111133	-0.991209	-0.992541	-0.003991	18.5933	-0.991048	-1.718783E+13	2.322067E-16	NaN
649	1.000000	0.122474	7.3714e+06	-44639.1	1005.82	-29775.1	0.000000	0.000000	6.122790	0.031469	NaN	0.000000	0.001632	0.001708	28.0835	0.093435	0.002092	44.6631	132.695	-166.252	0.089787	0.121171	-0.981200	-0.982503	0.031469	44.6631	-0.981728	-1.287350E+13	-2.444517E-15	NaN
649	1.000000	0.132483	7.3714e+06	-44639.1	1005.82	-29775.1	0.000000	0.000000	6.132800	0.073671	NaN	0.000000	0.001618	0.001725	28.0831	0.049187	0.001995	24.6544	84.5429	16.5226	0.105707	0.131093	-0.971192	-0.972581	0.073671	24.6544	-0.973433	-9.952292E+12	-7.402429E-15	NaN
649	1.000000	0.142492	7.3714e+06	-44639.1	1005.82	-29775.1	0.000000	0.000000	6.142807	0.005919	NaN	0.000000	0.001679	0.001702	28.0834	0.142394	0.002031	70.0964	118.879	-166.048	0.046255	0.141168	-0.961182	-0.962506	0.005919	70.0964	-0.961246	-6.818064E+12	-8.681933E-16	NaN
649	1.000000	0.152486	7.3714e+06	-44639.1	1005.82	-29775.1	0.000000	0.000000	6.152803	0.051968	NaN	0.000000	0.001643	0.001756	28.0835	0.105349	0.001966	53.5906	51.2623	13.7482	-0.071089	0.151185	-0.951188	-0.952489	0.051968	53.5906	-0.951915	-5.103387E+12	-1.018295E-14	NaN
649	1.000000	0.162460	7.3714e+06	-44639.1	1005.82	-29775.1	0.000000	0.000000	6.162771	-0.091704	NaN	0.000000	0.001677	0.001675	28.0835	0.064918	0.001937	33.522	-34.6945	-165.802	-0.057824	0.161192	-0.941214	-0.942482	-0.091704	33.522	-0.939162	-3.434271E+12	2.670248E-14	NaN
649	1.000000	0.172453	7.3714e+06	-44639.1	1005.82	-29775.1	0.000000	0.000000	6.172770	0.066266	NaN	0.000000	0.001650	0.001708	28.0831	0.142008	0.001988	71.4274	-122.787	11.9609	-0.030662	0.171167	-0.931221	-0.932507	0.066266	71.4274	-0.931917	-2.742010E+12	-2.416699E-14	NaN
649	1.000000	0.182513	7.3714e+06	-44639.1	1005.82	-29775.1	0.000000	0.000000	6.182830	0.048074	NaN	0.000000	0.001658	0.001691	28.0831	0.106673	0.001956	54.5318	-110.774	-160.966	0.019960	0.181209	-0.921161	-0.922465	0.048074	54.5318	-0.921822	-2.003562E+12	-2.399410E-14	NaN
649	1.000000	0.192503	7.3714e+06	-44639.1	1005.82	-29775.1	0.000000	0.000000	6.192817	-0.015871	NaN	0.000000	0.001675	0.001687	28.0831	0.076281	0.002071	36.8286	177.088	13.7251	-0.044691	0.191152	-0.911171	-0.912522	-0.015871	36.8286	-0.910848	-1.424339E+12	1.114244E-14	NaN
649	1.000000	0.202488	7.3714e+06	-44639.1	1005.82	-29775.1	0.000000	0.000000	6.202802	-0.017489	NaN	0.000000	0.001711	0.001725	28.0842	0.042124	0.001937	21.7419	-79.2381	-167.112	-0.008501	0.201222	-0.901186	-0.902452	-0.017489	21.7419	-0.900582	-1.034987E+12	1.689803E-14	NaN
649	1.000000	0.212514	7.3714e+06	-44639.1	1005.82	-29775.1	0.000000	0.000000	6.212828	-0.012164	NaN	0.000000	0.001632	0.001700	28.0843	0.032716	0.001990	16.4388	-84.5589	14.2929	0.071762	0.211091	-0.891160	-0.892583	-0.012164	16.4388	-0.890605	-7.587375E+11	1.603163E-14	NaN
649	1.000000	0.222502	7.3714e+06	-44639.1	1005.82	-29775.1	0.000000	0.000000	6.222816	-0.030086	NaN	0.000000	0.001623	0.001692	28.0844	0.032639	0.002011	16.2287	-119.808	-163.328	0.046683	0.221182	-0.881172	-0.882492	-0.030086	16.2287	-0.879782	-5.416937E+11	5.554134E-14	NaN
649	1.000000	0.232497	7.3714e+06	-44639.1	1005.82	-29775.1	0.000000	0.000000	6.232811	-0.000237	NaN	0.000000	0.001656	0.001678	28.0843	0.030389	0.002066	14.7072	-101.729	13.8664	-0.027557	0.231152	-0.871178	-0.872522	-0.000237	14.7072	-0.871165	-4.142006E+11	5.726934E-16	NaN
649	1.000000	0.242540	7.3714e+06	-44639.1	1005.82	-29775.1	0.000000	0.000000	6.242856	0.023673	NaN	0.000000	0.001569	0.001686	28.0844	0.068612	0.001995	34.3837	177.751	-166.038	0.054704	0.241229	-0.861134	-0.862445	0.023673	34.3837	-0.861650	-3.079351E+11	-7.687763E-14	NaN
649	1.000000	0.252515	7.3714e+06	-44639.1	1005.82	-29775.1	0.000000	0.000000	6.252830	0.021447	NaN	0.000000	0.001581	0.001719	28.0844	0.004786	0.001941	2.465565	133.034	16.6241	-0.013834	0.251172	-0.851159	-0.852502	0.021447	2.465565	-0.857683	-2.721216E+11	-7.881407E-14	NaN
649	1.000000	0.262529	7.3714e+06	-44639.1	1005.82	-29775.1	0.000000	0.000000	6.262841	-0.077444	NaN	0.000000	0.001571	0.001710	28.0846	0.032871	0.002003	16.4143	130.22	-164.664	-0.017667	0.261205	-0.841145	-0.842469	-0.077444	16.4143	-0.837606	-1.454989E+11	5.322638E-13	NaN
649	1.000000	0.272520	7.3714e+06	-44639.1	1005.82	-29775.1	0.000000	0.000000	6.272832	-0.060137	NaN	0.000000	0.001541	0.001709	28.0846	0.107648	0.001898	56.7024	-111.779	14.1408	-0.031095	0.271162	-0.831154	-0.832512	-0.060137	56.7024	-0.830359	-1.160507E+11	5.181977E-13	NaN
649	1.000000	0.282551	7.3714e+06	-44639.1	1005.82	-29775.1	0.000000	0.000000	6.282863	-0.077111	NaN	0.000000	0.001556	0.001728	28.0848	0.024021	0.002006	11.9768	154.214	-169.7	-0.026152	0.281199	-0.821123	-0.822475	-0.077111	11.9768	-0.816294	-7.480904E+10	1.030773E-12	NaN
649	1.000000	0.292532	7.3714e+06	-44639.1	1005.82	-29775.1	0.000000	0.000000	6.292846	-0.036728	NaN	0.000000	0.001560	0.001742	28.0847	0.050972	0.001941	26.2549	82.3843	13.3087	0.011862	0.291142	-0.811142	-0.812533	-0.036728	26.2549	-0.810092	-6.163476E+10	5.958905E-13	NaN
649	1.000000	0.302544	7.3714e+06	-44639.1	1005.82	-29775.1	0.000000	0.000000	6.302859	0.003884	NaN	0.000000	0.001555	0.001734	28.0848	0.055614	0.002188	25.4216	177.351	-165.925	-0.021703	0.301288	-0.801130	-0.802386	0.003884	25.4216	-0.801245	-4.674765E+10	-8.308313E-14	NaN
649	1.000000	0.312516	7.3714e+06	-44639.1	1005.82	-29775.1	0.000000	0.000000	6.312832	0.049711	NaN	0.000000	0.001585	0.001741	28.0848	0.052158	0.002007	25.9924	-124.204	9.416055	-0.000583	0.311132	-0.791158	-0.792542	0.049711	25.9924	-0.792593	-3.566938E+10	-1.393663E-12	NaN
649	1.000000	0.322556	7.3714e+06	-44639.1	1005.82	-29775.1	0.000000	0.000000	6.322872	0.046857	NaN	0.000000	0.001530	0.001726	28.0865	0.085369	0.002174	39.2723	53.9472	-166.082	0.007643	0.321254	-0.781118	-0.782420	0.046857	39.2723	-0.782013	-2.562054E+10	-1.828896E-12	NaN
649	1.000000	0.332545	7.3714e+06	-44639.1	1005.82	-29775.1	0.000000	0.000000	6.332859	-0.015692	NaN	0.000000	0.001600	0.001695	28.0837	0.092527	0.001954	47.3571	156.806	12.6522	-0.087503	0.331173	-0.771129	-0.772501	-0.015692	47.3571	-0.770881	-1.808340E+10	8.677721E-13	NaN
649	1.000000	0.342534	7.3714e+06	-44639.1	1005.82	-29775.1	0.000000	0.000000	6.342847	-0.053871	NaN	0.000000	0.001606	0.001705	28.0836	0.062947	0.001982	31.7559	10.3795	-165.513	0.013539	0.341243	-0.761140	-0.762431	-0.053871	31.7559	-0.759867	-1.280848E+10	4.205897E-12	NaN
649	1.000000	0.352582	7.3714e+06	-44639.1	1005.82	-29775.1	0.000000	0.000000	6.352895	-0.040098	NaN	0.000000	0.001612	0.001711	28.0838	0.033619	0.001902	17.6754	78.1575	11.7533	-0.006475	0.351191	-0.751092	-0.752483	-0.040098	17.6754	-0.749390	-9.224065E+9	4.347118E-12	NaN
649	1.000000	0.362565	7.3714e+06	-44639.1	1005.82	-29775.1	0.000000	0.000000	6.362881	0.034044	NaN	0.000000	0.001644	0.001704	28.0838	0.039932	0.001987	20.1006	85.1594	-168.064	-0.018777	0.361250	-0.741109	-0.742424	0.034044	20.1006	-0.742379	-7.403864E+9	-4.598123E-12	NaN
649	1.000000	0.372557	7.3714e+06	-44639.1	1005.82	-29775.1	0.000000	0.000000	6.372869	-0.057750	NaN	0.000000	0.001678	0.001735	28.084	0.068772	0.002038	33.7381	-85.2481	12.7597	0.041902	0.371198	-0.731117	-0.732476	-0.057750	33.7381	-0.729834	-4.995071E+9	1.156132E-11	NaN
649	1.000000	0.382578	7.3714e+06	-44639.1	1005.82	-29775.1	0.000000	0.000000	6.382892	-0.026283	NaN	0.000000	0.001664	0.001703	28.0835	0.100506	0.002111	47.6182	-163.863	-167.626	-0.015098	0.381282	-0.721096	-0.722392	-0.026283	47.6182	-0.720682	-3.747747E+9	7.013035E-12	NaN
649	1.000000	0.392573	7.3714e+06	-44639.1	1005.82	-29775.1	0.000000	0.000000	6.392887	-0.023754	NaN	0.000000	0.001682	0.001710	28.0841	0.035367	0.002080	17.0053	8.990229	17.7646	-0.015180	0.391220	-0.711101	-0.712454	-0.023754	17.0053	-0.710054	-2.683977E+9	8.850392E-12	NaN
649	1.000000	0.402554	7.3714e+06	-44639.1	1005.82	-29775.1	0.000000	0.000000	6.402867	-0.034614	NaN	0.000000	0.001675	0.001725	28.0834	0.044642	0.001977	22.581	17.0511	-167.407	-0.022146	0.401298	-0.701120	-0.702376	-0.034614	22.581	-0.699971	-1.954929E+9	1.770611E-11	NaN
649	1.000000	0.412590	7.3714e+06	-44639.1	1005.82	-29775.1	0.000000	0.000000	6.412903	-0.039587	NaN	0.000000	0.001629	0.001757	28.0837	0.072096	0.001995	36.1438	-79.516	15.9204	-0.070160	0.411274	-0.691084	-0.692400	-0.039587	36.1438	-0.690263	-1.440474E+9	2.748207E-11	NaN
649	1.000000	0.422565	7.3714e+06	-44639.1	1005.82	-29775.1	0.000000	0.000000	6.422879	-0.012779	NaN	0.000000	0.001666	0.001736	28.0835	0.091945	0.001876	49.0131	110.266	-164.764	-0.013593	0.421287	-0.681109	-0.682387	-0.012779	49.0131	-0.680914	-1.073253E+9	1.190679E-11	NaN
649	1.000000	0.432581	7.3714e+06	-44639.1	1005.82	-29775.1	0.000000	0.000000	6.432895	-0.018811	NaN	0.000000	0.001618	0.001721	28.0837	0.051408	0.002004	25.6584	90.1829	16.0625	0.006976	0.431249	-0.671093	-0.672425	-0.018811	25.6584	-0.670543	-7.741477E+8	2.429908E-11	NaN
649	1.000000	0.442640	7.3714e+06	-44639.1	1005.82	-29775.1	0.000000	0.000000	6.442955	-0.003435	NaN	0.000000	0.001659	0.001690	28.0836	0.077598	0.001899	40.8735	119.243	-167.119	-0.015011	0.441310	-0.661034	-0.662364	-0.003435	40.8735	-0.660971	-5.724877E+8	6.000342E-12	NaN
649	1.000000	0.452627	7.3714e+06	-44639.1	1005.82	-29775.1	0.000000	0.000000	6.452938	-0.098259	NaN	0.000000	0.001667	0.001707	28.0835	0.077711	0.001980	39.2384	-165.576	12.65	-0.042083	0.451264	-0.651047	-0.652411	-0.098259	39.2384	-0.649169	-3.944936E+8	2.490773E-10	NaN
649	1.000000	0.462576	7.3714e+06	-44639.1	1005.82	-29775.1	0.000000	0.000000	6.462891	0.001985	NaN	0.000000	0.001628	0.001688	28.0834	0.010524	0.001927	5.461908	-160.03	-167.983	0.039332	0.461253	-0.641098	-0.642421	0.001985	5.461908	-0.641371	-3.083879E+8	-6.435166E-12	NaN
649	1.000000	0.472604	7.3714e+06	-44639.1	1005.82	-29775.1	0.000000	0.000000	6.472917	-0.033138	NaN	0.000000	0.001651	0.001683	28.0847	0.119265	0.002034	58.6408	-115.575	16.945	-0.065974	0.471234	-0.631071	-0.632440	-0.033138	58.6408	-0.630647	-2.197378E+8	1.508050E-10	NaN
649	1.000000	0.482627	7.3714e+06	-44639.1	1005.82	-29775.1	0.000000	0.000000	6.482943	0.035945	NaN	0.000000	0.001641	0.001716	28.0847	0.048427	0.001882	25.7341	-111.846	-168.125	0.058866	0.481289	-0.621047	-0.622385	0.035945	25.7341	-0.622095	-1.676567E+8	-2.143991E-10	NaN
649	1.000000	0.492614	7.3714e+06	-44639.1	1005.82	-29775.1	0.000000	0.000000	6.492926	-0.060134	NaN	0.000000	0.001662	0.001660	28.0848	0.084657	0.002014	42.0279	-146.894	14.1928	-0.068643	0.491274	-0.611060	-0.612400	-0.060134	42.0279	-0.609987	-1.142712E+8	5.262428E-10	NaN
649	1.000000	0.502602	7.3714e+06	-44639.1	1005.82	-29775.1	0.000000	0.000000	6.502916	-0.015570	NaN	0.000000	0.001610	0.001678	28.0851	0.030360	0.002070	14.6662	41.6344	-163.622	-0.049278	0.501354	-0.601073	-0.602320	-0.015570	14.6662	-0.600276	-8.399738E+7	1.853636E-10	NaN
649	1.000000	0.512621	7.3714e+06	-44639.1	1005.82	-29775.1	0.000000	0.000000	6.512936	0.013948	NaN	0.000000	0.001645	0.001627	28.0848	0.067922	0.002081	32.645	64.2509	16.4571	0.053949	0.511232	-0.591054	-0.592442	0.013948	32.645	-0.591374	-6.332968E+7	-2.202443E-10	NaN
649	1.000000	0.522607	7.3714e+06	-44639.1	1005.82	-29775.1	0.000000	0.000000	6.522924	0.041101	NaN	0.000000	0.001637	0.001664	28.0847	0.091297	0.002032	44.9258	-9.142772	-164.385	0.051508	0.521297	-0.581067	-0.582377	0.041101	44.9258	-0.581753	-4.665676E+7	-8.809226E-10	NaN
649	1.000000	0.532650	7.3714e+06	-44639.1	1005.82	-29775.1	0.000000	0.000000	6.532964	-0.027688	NaN	0.000000	0.001635	0.001692	28.0846	0.077466	0.001985	39.0223	-148.766	12.6664	0.013830	0.531283	-0.571024	-0.572391	-0.027688	39.0223	-0.570491	-3.261537E+7	8.489161E-10	NaN
649	1.000000	0.542618	7.3714e+06	-44639.1	1005.82	-29775.1	0.000000	0.000000	6.542929	-0.079844	NaN	0.000000	0.001631	0.001693	28.085	0.036117	0.001954	18.479	12.5343	-167.811	-0.086417	0.541359	-0.561056	-0.562315	-0.079844	18.479	-0.557816	-2.178484E+7	3.665119E-9	NaN
649	1.000000	0.552636	7.3714e+06	-44639.1	1005.82	-29775.1	0.000000	0.000000	6.552952	0.009952	NaN	0.000000	0.001661	0.001642	28.0846	0.074446	0.001955	38.0774	79.5185	15.6489	-0.048440	0.551268	-0.551038	-0.552406	0.009952	38.0774	-0.551234	-1.766209E+7	-5.634697E-10	NaN
649	1.000000	0.562652	7.3714e+06	-44639.1	1005.82	-29775.1	0.000000	0.000000	6.562966	-0.019419	NaN	0.000000	0.001645	0.001719	28.0847	0.068931	0.002032	33.9154	-152.039	-166.899	-0.038815	0.561337	-0.541022	-0.542337	-0.019419	33.9154	-0.540593	-1.257699E+7	1.544040E-9	NaN
649	1.000000	0.572648	7.3714e+06	-44639.1	1005.82	-29775.1	0.000000	0.000000	6.572961	-0.046074	NaN	0.000000	0.001649	0.001661	28.0848	0.115483	0.001945	59.3809	-134.196	13.4115	0.007195	0.571280	-0.531026	-0.532394	-0.046074	59.3809	-0.530444	-9.09383e+06	5.066469E-9	NaN
649	1.000000	0.582640	7.3714e+06	-44639.1	1005.82	-29775.1	0.000000	0.000000	6.582955	0.014972	NaN	0.000000	0.001677	0.001667	28.0848	0.056900	0.001939	29.3491	141.959	-166.479	-0.011970	0.581362	-0.521034	-0.522312	0.014972	29.3491	-0.521417	-6.81238e+06	-2.197775E-9	NaN
649	1.000000	0.592653	7.3714e+06	-44639.1	1005.82	-29775.1	0.000000	0.000000	6.592968	0.008053	NaN	0.000000	0.001590	0.001652	28.0844	0.021363	0.002091	10.2181	-71.5199	12.6861	0.002416	0.591290	-0.511021	-0.512385	0.008053	10.2181	-0.511612	-4.97589e+06	-1.618349E-9	NaN
649	1.000000	0.602677	7.3714e+06	-44639.1	1005.82	-29775.1	0.000000	0.000000	6.602993	0.038902	NaN	0.000000	0.001592	0.001681	28.0848	0.113259	0.001902	59.5432	27.5451	-167.291	0.072273	0.601322	-0.500997	-0.502352	0.038902	59.5432	-0.501487	-3.59551e+06	-1.081959E-8	NaN
649	1.000000	0.612675	7.3714e+06	-44639.1	1005.82	-29775.1	0.000000	0.000000	6.612989	-0.022264	NaN	0.000000	0.001610	0.001679	28.0834	0.095555	0.001950	48.9935	173.412	14.7815	0.024575	0.611338	-0.490999	-0.492336	-0.022264	48.9935	-0.490658	-2.53856e+06	8.770408E-9	NaN
649	1.000000	0.622674	7.3714e+06	-44639.1	1005.82	-29775.1	0.000000	0.000000	6.622987	-0.029874	NaN	0.000000	0.001602	0.001708	28.0835	0.078746	0.002087	37.7401	49.6807	-168.169	-0.084715	0.621433	-0.481000	-0.482241	-0.029874	37.7401	-0.480407	-1.82483e+06	1.637106E-8	NaN
649	1.000000	0.632664	7.3714e+06	-44639.1	1005.82	-29775.1	0.000000	0.000000	6.632978	-0.020489	NaN	0.000000	0.001620	0.001686	28.0832	0.064506	0.001976	32.6401	85.3988	13.1957	-0.063654	0.631331	-0.471010	-0.472343	-0.020489	32.6401	-0.470539	-1.32731e+06	1.543637E-8	NaN
649	1.000000	0.642709	7.3714e+06	-44639.1	1005.82	-29775.1	0.000000	0.000000	6.643024	7.450841E-5	NaN	0.000000	0.001582	0.001673	28.0839	0.064544	0.001990	32.4396	99.3352	-165.305	0.087378	0.641392	-0.460965	-0.462282	7.450841E-5	32.4396	-0.460967	-974090	-7.649027E-11	NaN
649	1.000000	0.652687	7.3714e+06	-44639.1	1005.82	-29775.1	0.000000	0.000000	6.653004	0.059234	NaN	0.000000	0.001646	0.001708	28.0832	0.033012	0.002148	15.3709	-139.747	12.4294	0.042465	0.651318	-0.450987	-0.452356	0.059234	15.3709	-0.453877	-774321	-7.649797E-8	NaN
649	1.000000	0.662704	7.3714e+06	-44639.1	1005.82	-29775.1	0.000000	0.000000	6.663021	0.061746	NaN	0.000000	0.001613	0.001689	28.0833	0.060249	0.002029	29.6928	7.410403	-168.1	-0.016330	0.661359	-0.440970	-0.442315	0.061746	29.6928	-0.442530	-535873	-1.152242E-7	NaN
649	1.000000	0.672721	7.3714e+06	-44639.1	1005.82	-29775.1	0.000000	0.000000	6.673035	-0.015087	NaN	0.000000	0.001612	0.001690	28.0834	0.146909	0.002035	72.1772	-84.1004	13.7781	-0.052031	0.671312	-0.430953	-0.432362	-0.015087	72.1772	-0.430796	-365871	4.123484E-8	NaN
649	1.000000	0.682693	7.3714e+06	-44639.1	1005.82	-29775.1	0.000000	0.000000	6.683007	-0.027467	NaN	0.000000	0.001607	0.001664	28.0833	0.069036	0.001980	34.8693	129.308	-164.449	-0.074954	0.681424	-0.420981	-0.422250	-0.027467	34.8693	-0.420390	-260582	1.054048E-7	NaN
649	1.000000	0.692718	7.3714e+06	-44639.1	1005.82	-29775.1	0.000000	0.000000	6.693030	-0.059423	NaN	0.000000	0.001624	0.001663	28.0832	0.065246	0.002074	31.4599	-137.346	14.455	0.070898	0.691361	-0.410956	-0.412314	-0.059423	31.4599	-0.409540	-182749	3.251599E-7	NaN
649	1.000000	0.702708	7.3714e+06	-44639.1	1005.82	-29775.1	0.000000	0.000000	6.703022	-0.022063	NaN	0.000000	0.001667	0.001685	28.0833	0.083144	0.002002	41.5334	-23.204	-165.327	0.027489	0.701407	-0.400966	-0.402267	-0.022063	41.5334	-0.400567	-136171	1.620255E-7	NaN
649	1.000000	0.712720	7.3714e+06	-44639.1	1005.82	-29775.1	0.000000	0.000000	6.713037	0.056113	NaN	0.000000	0.001664	0.001640	28.0834	0.100820	0.002009	50.1892	85.0697	16.0371	0.044769	0.711380	-0.390954	-0.392294	0.056113	50.1892	-0.391792	-102047	-5.498693E-7	NaN
649	1.000000	0.722715	7.3714e+06	-44639.1	1005.82	-29775.1	0.000000	0.000000	6.723031	0.017922	NaN	0.000000	0.001642	0.001681	28.0833	0.078065	0.002062	37.8513	109.015	-167.91	0.007740	0.721410	-0.380959	-0.382264	0.017922	37.8513	-0.381314	-72233.9	-2.481093E-7	NaN
649	1.000000	0.732757	7.3714e+06	-44639.1	1005.82	-29775.1	0.000000	0.000000	6.733072	0.008227	NaN	0.000000	0.001643	0.001714	28.0833	0.029001	0.002026	14.3121	74.657	11.0124	-0.050088	0.731359	-0.370917	-0.372315	0.008227	14.3121	-0.371348	-51944.4	-1.583847E-7	NaN
649	1.000000	0.742721	7.3714e+06	-44639.1	1005.82	-29775.1	0.000000	0.000000	6.743034	-0.040388	NaN	0.000000	0.001658	0.001681	28.0845	0.098604	0.001874	52.6108	-49.2691	-166.491	-0.011655	0.741423	-0.360953	-0.362251	-0.040388	52.6108	-0.360377	-36082.8	1.119321E-6	NaN
649	1.000000	0.752765	7.3714e+06	-44639.1	1005.82	-29775.1	0.000000	0.000000	6.753080	0.016012	NaN	0.000000	0.001696	0.001652	28.0846	0.057154	0.002001	28.5575	82.1024	14.6936	0.018953	0.751389	-0.350909	-0.352285	0.016012	28.5575	-0.351330	-26687	-5.999840E-7	NaN
649	1.000000	0.762723	7.3714e+06	-44639.1	1005.82	-29775.1	0.000000	0.000000	6.763037	-0.021029	NaN	0.000000	0.001652	0.001664	28.0844	0.187710	0.001910	98.289	141.053	-165.193	-0.001586	0.761437	-0.340951	-0.342237	-0.021029	98.289	-0.340790	-18753	1.121390E-6	NaN
649	1.000000	0.772730	7.3714e+06	-44639.1	1005.82	-29775.1	0.000000	0.000000	6.773042	-0.070455	NaN	0.000000	0.001659	0.001684	28.0845	0.036328	0.002007	18.1012	151.208	15.2259	-0.092058	0.771353	-0.330944	-0.332321	-0.070455	18.1012	-0.328025	-12204.4	5.772890E-6	NaN
649	1.000000	0.782737	7.3714e+06	-44639.1	1005.82	-29775.1	0.000000	0.000000	6.783054	0.050038	NaN	0.000000	0.001661	0.001694	28.0846	0.135194	0.002043	66.1798	-102.443	-166.166	-0.045730	0.781392	-0.320937	-0.322282	0.050038	66.1798	-0.321504	-9789.77	-5.111209E-6	NaN
649	1.000000	0.792749	7.3714e+06	-44639.1	1005.82	-29775.1	0.000000	0.000000	6.793064	0.010400	NaN	0.000000	0.001644	0.001686	28.0848	0.078579	0.001862	42.1917	-109.982	16.2538	-0.058592	0.791429	-0.310925	-0.312245	0.010400	42.1917	-0.311110	-6878.18	-1.512042E-6	NaN
649	1.000000	0.802737	7.3714e+06	-44639.1	1005.82	-29775.1	0.000000	0.000000	6.803054	0.061126	NaN	0.000000	0.001692	0.001684	28.0846	0.051328	0.002106	24.3747	154.479	-165.961	0.073395	0.801493	-0.300937	-0.302182	0.061126	24.3747	-0.302818	-5182.59	-1.179445E-5	NaN
649	1.000000	0.812733	7.3714e+06	-44639.1	1005.82	-29775.1	0.000000	0.000000	6.813045	-0.052340	NaN	0.000000	0.001674	0.001648	28.0847	0.044313	0.002089	21.2171	-19.5876	15.3311	-0.029935	0.811418	-0.290941	-0.292257	-0.052340	21.2171	-0.289091	-3233.59	1.618633E-5	NaN
649	1.000000	0.822762	7.3714e+06	-44639.1	1005.82	-29775.1	0.000000	0.000000	6.823077	0.025479	NaN	0.000000	0.001626	0.001667	28.0847	0.127661	0.002075	61.5168	41.0982	-164.914	0.011488	0.821441	-0.280912	-0.282233	0.025479	61.5168	-0.281223	-2462.71	-1.034577E-5	NaN
649	1.000000	0.832808	7.3714e+06	-44639.1	1005.82	-29775.1	0.000000	0.000000	6.833121	-0.053371	NaN	0.000000	0.001654	0.001701	28.0848	0.042562	0.002052	20.737	-38.3781	13.6298	0.019363	0.831376	-0.270866	-0.272298	-0.053371	20.737	-0.268936	-1604.58	3.326146E-5	NaN
649	1.000000	0.842745	7.3714e+06	-44639.1	1005.82	-29775.1	0.000000	0.000000	6.843061	0.029473	NaN	0.000000	0.001691	0.001686	28.0846	0.110930	0.001912	58.0226	-79.5585	-161.64	-0.005792	0.841480	-0.260929	-0.262194	0.029473	58.0226	-0.261310	-1227.4	-2.401248E-5	NaN
649	1.000000	0.852790	7.3714e+06	-44639.1	1005.82	-29775.1	0.000000	0.000000	6.853103	-0.030092	NaN	0.000000	0.001639	0.001675	28.0848	0.079173	0.002129	37.1957	67.4661	13.8012	-0.057787	0.851453	-0.250884	-0.252221	-0.030092	37.1957	-0.250277	-830.339	3.624082E-5	NaN
649	1.000000	0.862777	7.3714e+06	-44639.1	1005.82	-29775.1	0.000000	0.000000	6.863093	0.021528	NaN	0.000000	0.001612	0.001714	28.0845	0.087858	0.001995	44.0302	-146.696	-168.879	-0.084684	0.861495	-0.240897	-0.242179	0.021528	44.0302	-0.241264	-601.555	-3.578647E-5	NaN
649	1.000000	0.872784	7.3714e+06	-44639.1	1005.82	-29775.1	0.000000	0.000000	6.873098	-0.006690	NaN	0.000000	0.001637	0.001660	28.0849	0.043097	0.001904	22.6379	-143.288	12.4937	0.020841	0.871437	-0.230891	-0.232237	-0.006690	22.6379	-0.230669	-410.276	1.630595E-5	NaN
649	1.000000	0.882798	7.3714e+06	-44639.1	1005.82	-29775.1	0.000000	0.000000	6.883113	0.013545	NaN	0.000000	0.001658	0.001675	28.0832	0.002367	0.002069	1.144439	-95.6044	-167.112	-0.020155	0.881468	-0.220876	-0.222206	0.013545	1.144439	-0.229753	-396.834	-3.413165E-5	NaN
649	1.000000	0.892782	7.3714e+06	-44639.1	1005.82	-29775.1	0.000000	0.000000	6.893097	0.010264	NaN	0.000000	0.001678	0.001683	28.0835	0.064619	0.002061	31.3494	150.854	14.2123	-0.000927	0.891392	-0.210892	-0.212282	0.010264	31.3494	-0.211137	-200.09	-5.129632E-5	NaN
649	1.000000	0.902798	7.3714e+06	-44639.1	1005.82	-29775.1	0.000000	0.000000	6.903117	0.089338	NaN	0.000000	0.001652	0.001668	28.0832	0.046061	0.002191	21.0252	-79.4243	-165.232	0.008751	0.901473	-0.200876	-0.202201	0.089338	21.0252	-0.204063	-153.553	-0.000582	NaN
649	1.000000	0.912809	7.3714e+06	-44639.1	1005.82	-29775.1	0.000000	0.000000	6.913122	-0.038239	NaN	0.000000	0.001686	0.001627	28.0834	0.017969	0.002132	8.426905	6.498500	12.3618	-0.069992	0.911431	-0.190865	-0.192243	-0.038239	8.426905	-0.187461	-81.5694	0.000469	NaN
649	1.000000	0.922798	7.3714e+06	-44639.1	1005.82	-29775.1	0.000000	0.000000	6.923111	-0.039563	NaN	0.000000	0.001685	0.001621	28.0834	0.110982	0.002002	55.4255	98.4377	-166.743	-0.062697	0.921435	-0.180876	-0.182239	-0.039563	55.4255	-0.180341	-61.8393	0.000640	NaN
649	1.000000	0.932804	7.3714e+06	-44639.1	1005.82	-29775.1	0.000000	0.000000	6.933117	-0.052555	NaN	0.000000	0.001643	0.001655	28.0835	0.036043	0.002058	17.5111	-177.129	14.6466	-0.062061	0.931433	-0.170870	-0.172241	-0.052555	17.5111	-0.168619	-38.8679	0.001352	NaN
649	1.000000	0.942797	7.3714e+06	-44639.1	1005.82	-29775.1	0.000000	0.000000	6.943111	-0.017536	NaN	0.000000	0.001664	0.001651	28.0833	0.064837	0.002056	31.5347	179.066	-166.2	-0.026368	0.941476	-0.160877	-0.162198	-0.017536	31.5347	-0.160460	-27.9353	0.000628	NaN
649	1.000000	0.952814	7.3714e+06	-44639.1	1005.82	-29775.1	0.000000	0.000000	6.953127	-0.047770	NaN	0.000000	0.001625	0.001681	28.0852	0.075094	0.001937	38.7594	-1.588041	13.9305	-0.007130	0.951477	-0.150860	-0.152197	-0.047770	38.7594	-0.149936	-18.0649	0.002644	NaN
649	1.000000	0.962835	7.3714e+06	-44639.1	1005.82	-29775.1	0.000000	0.000000	6.963149	-0.012240	NaN	0.000000	0.001612	0.001681	28.0869	0.033429	0.001950	17.1391	-116.926	-169.734	-0.025841	0.961529	-0.140839	-0.142145	-0.012240	17.1391	-0.140304	-11.9859	0.001021	NaN
649	1.000000	0.972850	7.3714e+06	-44639.1	1005.82	-29775.1	0.000000	0.000000	6.973164	-0.019913	NaN	0.000000	0.001624	0.001667	28.0843	0.081834	0.002012	40.6718	117.572	12.2384	0.013559	0.971454	-0.130824	-0.132220	-0.019913	40.6718	-0.130457	-7.778155	0.002560	NaN
649	1.000000	0.982856	7.3714e+06	-44639.1	1005.82	-29775.1	0.000000	0.000000	6.983169	-0.049831	NaN	0.000000	0.001656	0.001679	28.0833	0.050613	0.002108	24.0137	146.35	-168.253	0.015334	0.981549	-0.120818	-0.122125	-0.049831	24.0137	-0.119262	-4.668350	0.010674	NaN
649	1.000000	0.992833	7.3714e+06	-44639.1	1005.82	-29775.1	0.000000	0.000000	6.993147	-0.014467	NaN	0.000000	0.001681	0.001678	28.0834	0.131359	0.001962	66.9533	128.845	12.0648	0.060693	0.991492	-0.110841	-0.112182	-0.014467	66.9533	-0.110679	-3.105803	0.004658	NaN
649	1.000000	1.002853	7.3714e+06	-44639.1	1005.82	-29775.1	0.000000	0.000000	7.003167	-0.013363	NaN	0.000000	0.001646	0.001714	28.0834	0.055905	0.001969	28.3886	-124.572	-165.785	-0.070043	1.001497	-0.100821	-0.102177	-0.013363	28.3886	-0.100468	-1.871267	0.007141	NaN
649	1.000000	1.012811	7.3714e+06	-44639.1	1005.82	-29775.1	0.000000	0.000000	7.013127	0.037195	NaN	0.000000	0.001597	0.001735	28.0836	0.051672	0.002045	25.2611	-54.53	15.9465	-0.018031	1.011468	-0.090863	-0.092206	0.037195	25.2611	-0.091968	-1.201481	-0.030958	NaN
649	1.000000	1.022823	7.3714e+06	-44639.1	1005.82	-29775.1	0.000000	0.000000	7.023138	-0.012973	NaN	0.000000	0.001642	0.001704	28.0845	0.110299	0.001916	57.5688	171	-163.226	0.010114	1.021534	-0.080851	-0.082140	-0.012973	57.5688	-0.080682	-0.643716	0.020154	NaN
649	1.000000	1.032838	7.3714e+06	-44639.1	1005.82	-29775.1	0.000000	0.000000	7.033153	0.004392	NaN	0.000000	0.001629	0.001637	28.0846	0.091700	0.001906	48.1152	103.214	12.3162	0.015722	1.031440	-0.070836	-0.072234	0.004392	48.1152	-0.070904	-0.360606	-0.012180	NaN
649	1.000000	1.042849	7.3714e+06	-44639.1	1005.82	-29775.1	0.000000	0.000000	7.043166	0.066158	NaN	0.000000	0.001609	0.001678	28.0847	0.057286	0.002026	28.2815	43.2578	-167.442	-0.049137	1.041556	-0.060825	-0.062119	0.066158	28.2815	-0.062580	-0.213245	-0.310245	NaN
649	1.000000	1.052855	7.3714e+06	-44639.1	1005.82	-29775.1	0.000000	0.000000	7.053168	-0.031805	NaN	0.000000	0.001616	0.001688	28.0845	0.044506	0.002047	21.7406	139.119	14.0041	0.010987	1.051512	-0.050819	-0.052162	-0.031805	21.7406	-0.049722	-0.089499	0.355368	NaN
649	1.000000	1.062827	7.3714e+06	-44639.1	1005.82	-29775.1	0.000000	0.000000	7.063139	-0.063676	NaN	0.000000	0.001604	0.001691	28.0846	0.065643	0.002109	31.1282	-31.1651	-166.949	0.022353	1.061586	-0.040847	-0.042088	-0.063676	31.1282	-0.039313	-0.043102	1.477318	NaN
649	1.000000	1.072840	7.3714e+06	-44639.1	1005.82	-29775.1	0.000000	0.000000	7.073155	-0.009975	NaN	0.000000	0.001616	0.001684	28.0845	0.080874	0.001857	43.5549	142.557	12.3385	0.012415	1.071492	-0.030834	-0.032182	-0.009975	43.5549	-0.030662	-0.024016	0.415359	NaN
649	1.000000	1.082864	7.3714e+06	-44639.1	1005.82	-29775.1	0.000000	0.000000	7.083180	0.029047	NaN	0.000000	0.001598	0.001700	28.0846	0.064125	0.002137	30.0135	157.566	-165.336	0.040811	1.081595	-0.020810	-0.022079	0.029047	30.0135	-0.021535	-0.013742	-2.113760	NaN
649	1.000000	1.092874	7.3714e+06	-44639.1	1005.82	-29775.1	0.000000	0.000000	7.093187	-0.039961	NaN	0.000000	0.001600	0.001701	28.0845	0.028475	0.002076	13.7193	-47.8641	15.3832	-0.016130	1.091535	-0.010800	-0.012139	-0.039961	13.7193	-0.008615	-0.005590	7.148254	NaN
649	1.000000	1.102846	7.3714e+06	-44639.1	1005.82	-29775.1	0.000000	0.000000	7.103300	3.395936	NaN	0.000000	0.001584	0.001677	28.0847	4.238670	0.001967	2154.71	11.3156	-169.861	1.823642	1.101536	-0.000828	-0.002138	3.395936	2154.71	-0.002011	-0.001447	-2347.51	NaN
649	2.000000	1.108934	7.3714e+06	-44639.1	1005.82	-29775.1	0.000000	0.000000	7.109754	12.2787	NaN	0.000000	0.001561	0.001714	28.0849	10.2447	0.001482	6914	6.544403	3.337262	11.6969	1.108525	0.005260	0.004851	12.2787	6914	0.003928	0.003176	3865.78	112084
649	2.000000	1.111393	7.3714e+06	-44639.1	1005.82	-29775.1	0.000000	0.000000	7.112326	15.0463	NaN	0.000000	0.001572	0.001727	28.0847	13.8312	0.001803	7669.53	4.781601	-172.96	14.4929	1.111134	0.007719	0.007460	15.0463	7669.53	0.006248	0.005301	2838.33	96240.8
649	2.000000	1.113906	7.3714e+06	-44639.1	1005.82	-29775.1	0.000000	0.000000	7.114950	17.7515	NaN	0.000000	0.001619	0.001676	28.0844	16.4377	0.001857	8849.77	9.819962	1.871428	17.0815	1.113538	0.010231	0.009864	17.7515	8849.77	0.008727	0.007801	2275.59	91544.9
649	2.000000	1.116327	7.3714e+06	-44639.1	1005.82	-29775.1	0.000000	0.000000	7.117641	24.3127	NaN	0.000000	0.001600	0.001656	28.0855	18.311	0.001628	11244.6	6.419708	-177.709	25.042	1.116053	0.012652	0.012379	24.3127	11244.6	0.011031	0.010350	2349.11	100984
649	2.000000	1.118817	7.3714e+06	-44639.1	1005.82	-29775.1	0.000000	0.000000	7.120375	30.244	NaN	0.000000	0.001609	0.001685	28.0835	21.6793	0.001675	12942.3	3.072218	2.464660	27.8349	1.118450	0.015143	0.014776	30.244	12942.3	0.013390	0.013198	2291.51	102926
649	2.000000	1.121287	7.3714e+06	-44639.1	1005.82	-29775.1	0.000000	0.000000	7.123121	36.9676	NaN	0.000000	0.001578	0.001703	28.0845	24.9081	0.001748	14251.1	4.971782	-179.106	35.2195	1.120999	0.017613	0.017325	36.9676	14251.1	0.015667	0.016185	2284.03	102344
649	2.000000	1.123902	7.3714e+06	-44639.1	1005.82	-29775.1	0.000000	0.000000	7.125938	41.8793	NaN	0.000000	0.001620	0.001701	28.0833	27.4293	0.001776	15440.5	10.3167	-3.173823	43.0745	1.123428	0.020228	0.019754	41.8793	15440.5	0.018194	0.019783	2116.91	100297
649	2.000000	1.126289	7.3714e+06	-44639.1	1005.82	-29775.1	0.000000	0.000000	7.128762	52.4916	NaN	0.000000	0.001602	0.001686	28.085	29.0472	0.001798	16156.7	5.848574	-178.948	51.8026	1.125922	0.022615	0.022248	52.4916	16156.7	0.020179	0.022824	2299.88	97708.9
649	2.000000	1.128766	7.3714e+06	-44639.1	1005.82	-29775.1	0.000000	0.000000	7.131445	57.5105	NaN	0.000000	0.001652	0.001678	28.0832	32.2662	0.001713	18840.4	7.395280	-3.445992	55.4326	1.128455	0.025092	0.024781	57.5105	18840.4	0.022803	0.027139	2119.11	104488
649	2.000000	1.131302	7.3714e+06	-44639.1	1005.82	-29775.1	0.000000	0.000000	7.134250	64.0515	NaN	0.000000	0.001650	0.001705	28.0847	35.4423	0.001842	19241.9	5.048036	178.932	63.3313	1.130966	0.027628	0.027292	64.0515	19241.9	0.025132	0.031256	2049.27	99439.1
649	2.000000	1.133796	7.3714e+06	-44639.1	1005.82	-29775.1	0.000000	0.000000	7.137118	73.161	NaN	0.000000	0.001672	0.001669	28.0833	37.2629	0.001819	20483.4	3.127426	0.470075	70.9419	1.133515	0.030122	0.029841	73.161	20483.4	0.027443	0.035611	2054.48	99171.4
649	2.000000	1.136291	7.3714e+06	-44639.1	1005.82	-29775.1	0.000000	0.000000	7.139971	81.8759	NaN	0.000000	0.001672	0.001689	28.0842	39.737	0.001766	22505.3	4.600210	177.336	80.2306	1.135953	0.032617	0.032279	81.8759	22505.3	0.029889	0.040513	2020.98	102155
649	2.000000	1.138758	7.3714e+06	-44639.1	1005.82	-29775.1	0.000000	0.000000	7.142881	92.6612	NaN	0.000000	0.001692	0.001671	28.0833	42.2557	0.001796	23522	2.273761	-0.748616	88.596	1.138442	0.035084	0.034768	92.6612	23522	0.032129	0.045273	2046.73	101002
649	2.000000	1.141292	7.3714e+06	-44639.1	1005.82	-29775.1	0.000000	0.000000	7.145706	99.7315	NaN	0.000000	0.001695	0.001670	28.0848	45.1338	0.001701	26532.2	3.677749	176.341	98.8725	1.141025	0.037617	0.037351	99.7315	26532.2	0.034798	0.051277	1944.95	107049
649	2.000000	1.143763	7.3714e+06	-44639.1	1005.82	-29775.1	0.000000	0.000000	7.148571	109.321	NaN	0.000000	0.001656	0.001668	28.0832	46.8289	0.001794	26096.6	3.194608	-1.784263	105.438	1.143419	0.040089	0.039745	109.321	26096.6	0.036947	0.056376	1939.15	100418
649	2.000000	1.146223	7.3714e+06	-44639.1	1005.82	-29775.1	0.000000	0.000000	7.151499	120.691	NaN	0.000000	0.001712	0.001676	28.0843	48.3994	0.001770	27350	2.319088	178.036	118.091	1.145881	0.042549	0.042207	120.691	27350	0.039240	0.062078	1944.17	100291
649	2.000000	1.148676	7.3714e+06	-44639.1	1005.82	-29775.1	0.000000	0.000000	7.154248	127.896	NaN	0.000000	0.001716	0.001633	28.0833	52.1163	0.001837	28373.7	7.745312	-7.819090	121.155	1.148356	0.045002	0.044682	127.896	28373.7	0.041621	0.068285	1872.97	99203.3
649	2.000000	1.151315	7.3714e+06	-44639.1	1005.82	-29775.1	0.000000	0.000000	7.157267	137.148	NaN	0.000000	0.001669	0.001678	28.0844	53.9903	0.001719	31400.3	7.959705	170.87	137.506	1.151030	0.047641	0.047356	137.148	31400.3	0.044365	0.075795	1809.47	104205
649	2.000000	1.153786	7.3714e+06	-44639.1	1005.82	-29775.1	0.000000	0.000000	7.160588	157.822	NaN	0.000000	0.001726	0.001694	28.0845	55.6034	0.001754	31694.8	3.525709	-3.041824	157.492	1.153352	0.050112	0.049678	157.822	31694.8	0.046378	0.081546	1935.36	101405
649	2.000000	1.156276	7.3714e+06	-44639.1	1005.82	-29775.1	0.000000	0.000000	7.163280	162.726	NaN	0.000000	0.001650	0.001713	28.085	58.8907	0.001824	32293.3	8.199021	171.646	162.756	1.155982	0.052602	0.052308	162.726	32293.3	0.048823	0.088810	1832.3	99004.6
649	2.000000	1.158764	7.3714e+06	-44639.1	1005.82	-29775.1	0.000000	0.000000	7.166427	178.748	NaN	0.000000	0.001641	0.001654	28.0844	60.2054	0.001832	32867.3	2.303887	-2.922306	176.471	1.158372	0.055090	0.054698	178.748	32867.3	0.051011	0.095565	1870.44	97137.8
649	2.000000	1.161238	7.3714e+06	-44639.1	1005.82	-29775.1	0.000000	0.000000	7.169668	197.423	NaN	0.000000	0.001654	0.001719	28.0846	63.2847	0.001791	35326.4	3.424358	175.614	195.618	1.160857	0.057564	0.057183	197.423	35326.4	0.053373	0.103122	1914.46	100507
649	2.000000	1.163722	7.3714e+06	-44639.1	1005.82	-29775.1	0.000000	0.000000	7.173007	218.212	NaN	0.000000	0.001631	0.001740	28.0846	65.0142	0.001778	36572.9	8.557794	-9.279129	214.925	1.163311	0.060048	0.059636	218.212	36572.9	0.055573	0.110415	1976.28	100558
649	2.000000	1.166261	7.3714e+06	-44639.1	1005.82	-29775.1	0.000000	0.000000	7.175986	228.92	NaN	0.000000	0.001638	0.001684	28.0848	66.2262	0.001713	38662.6	4.849314	173.517	228.614	1.165934	0.062587	0.062260	228.92	38662.6	0.058147	0.119246	1919.72	102292
649	2.000000	1.168704	7.3714e+06	-44639.1	1005.82	-29775.1	0.000000	0.000000	7.179139	246.208	NaN	0.000000	0.001648	0.001696	28.0844	70.1858	0.001795	39091.3	5.331385	-6.762016	241.697	1.168307	0.065030	0.064633	246.208	39091.3	0.060306	0.126908	1940.06	100256
649	2.000000	1.171375	7.3714e+06	-44639.1	1005.82	-29775.1	0.000000	0.000000	7.182059	252.255	NaN	0.000000	0.001666	0.001684	28.0845	74.5196	0.001864	39974.1	8.875784	169.593	260.351	1.171025	0.067701	0.067351	252.255	39974.1	0.062968	0.136666	1845.78	98792.1
649	2.000000	1.173767	7.3714e+06	-44639.1	1005.82	-29775.1	0.000000	0.000000	7.185430	276.086	NaN	0.000000	0.001650	0.001708	28.0846	75.5376	0.001888	40018.7	8.676293	-10.1988	273.109	1.173291	0.070093	0.069617	276.086	40018.7	0.064919	0.144035	1916.8	96339.2
649	2.000000	1.176134	7.3714e+06	-44639.1	1005.82	-29775.1	0.000000	0.000000	7.188398	290.711	NaN	0.000000	0.001674	0.001701	28.0846	76.7803	0.001822	42144.1	3.485730	174.051	284.255	1.175901	0.072459	0.072227	290.711	42144.1	0.067286	0.153223	1897.31	98366.8
649	2.000000	1.178534	7.3714e+06	-44639.1	1005.82	-29775.1	0.000000	0.000000	7.191400	305.358	NaN	0.000000	0.001700	0.001674	28.0843	79.3832	0.001771	44823.8	4.767243	-7.518068	293.442	1.178307	0.074860	0.074633	305.358	44823.8	0.069750	0.163074	1872.52	101412
649	2.000000	1.181191	7.3714e+06	-44639.1	1005.82	-29775.1	0.000000	0.000000	7.194945	326.946	NaN	0.000000	0.001648	0.001697	28.0847	82.5971	0.001738	47528.9	5.972107	170.64	323.519	1.180981	0.077517	0.077307	326.946	47528.9	0.072358	0.173813	1881.03	104157
649	2.000000	1.183766	7.3714e+06	-44639.1	1005.82	-29775.1	0.000000	0.000000	7.198066	340.224	NaN	0.000000	0.001676	0.001702	28.0847	84.3652	0.001745	48347.5	7.494104	-9.962374	336.888	1.183350	0.080092	0.079676	340.224	48347.5	0.074814	0.184222	1846.81	102914
649	2.000000	1.186280	7.3714e+06	-44639.1	1005.82	-29775.1	0.000000	0.000000	7.201050	351.671	NaN	0.000000	0.001635	0.001711	28.0843	85.8733	0.001739	49393.5	3.442691	173.388	358.025	1.185968	0.082605	0.082294	351.671	49393.5	0.077266	0.194893	1804.43	102222
649	2.000000	1.188819	7.3714e+06	-44639.1	1005.82	-29775.1	0.000000	0.000000	7.204409	371.6	NaN	0.000000	0.001690	0.001685	28.0833	89.1666	0.001696	52568.7	7.221970	-11.4998	372.557	1.188478	0.085145	0.084803	371.6	52568.7	0.079843	0.206419	1800.23	105712
649	2.000000	1.191263	7.3714e+06	-44639.1	1005.82	-29775.1	0.000000	0.000000	7.206983	374.794	NaN	0.000000	0.001642	0.001685	28.0838	91.6331	0.001670	54874.1	1.135223	173.989	374.627	1.191220	0.087588	0.087546	374.794	54874.1	0.082466	0.218462	1715.6	107264
649	2.000000	1.193799	7.3714e+06	-44639.1	1005.82	-29775.1	0.000000	0.000000	7.210584	400.693	NaN	0.000000	0.001652	0.001698	28.0837	93.3094	0.001727	54037.8	2.425984	-6.681647	401.968	1.193675	0.090124	0.090001	400.693	54037.8	0.084563	0.228322	1754.95	103323
649	2.000000	1.196286	7.3714e+06	-44639.1	1005.82	-29775.1	0.000000	0.000000	7.214289	430.325	NaN	0.000000	0.001635	0.001695	28.0838	95.7524	0.001653	57937.9	8.391632	166.633	432.37	1.195873	0.092612	0.092199	430.325	57937.9	0.087041	0.240234	1791.27	107999
649	2.000000	1.198693	7.3714e+06	-44639.1	1005.82	-29775.1	0.000000	0.000000	7.217380	446.954	NaN	0.000000	0.001609	0.001646	28.0834	99.6085	0.001734	57445.9	7.627845	-12.5461	443.852	1.198317	0.095019	0.094643	446.954	57445.9	0.089184	0.250762	1782.38	104810
649	2.000000	1.201222	7.3714e+06	-44639.1	1005.82	-29775.1	0.000000	0.000000	7.220695	466.094	NaN	0.000000	0.001639	0.001670	28.0838	102.909	0.001931	53292.1	4.109971	171.907	466.988	1.200861	0.097548	0.097187	466.094	53292.1	0.090988	0.259794	1794.09	95526.1
649	2.000000	1.203657	7.3714e+06	-44639.1	1005.82	-29775.1	0.000000	0.000000	7.224274	493.934	NaN	0.000000	0.001607	0.001691	28.0835	103.186	0.001800	57325.4	3.620549	-7.740392	486.925	1.203214	0.099982	0.099540	493.934	57325.4	0.093520	0.272716	1811.17	100292
649	2.000000	1.206200	7.37141e+06	-44639.1	1005.82	-29775.1	0.000000	0.000000	7.227911	520.525	NaN	0.000000	0.001669	0.001715	28.0834	105.674	0.001704	61999	6.787871	168.035	519.819	1.205958	0.102526	0.102284	520.525	61999	0.096230	0.286868	1814.51	105759