File: remote_trans/data/nanoindenter/0828-1/data/Data_2025-08-06,11h17m57s/2025-07-22_16-23-58_1_796.txt
2025-07-22, 16:23:58, 1
Index	Phase	Displacement	Time	Pos X	Pos Y	Pos Z	Rot A	Rot B	Piezo Z	Force A	Force B	Gripper	Voltage A	Voltage B	Temperature	Amplitude force	Amplitude pos	Stiffness	Phase shift	Phase excitation	Force A raw	Displacement raw	HMax	HMax raw	Real Force	Real Stiffness	Contact Depth	Area	Hardness	Reduced Mod.
[#]	[#]	[um]	[s]	[um]	[um]	[um]	[m°]	[m°]	[um]	[uN]	[uN]	[V]	[V]	[V]	[°C]	[uN]	[um]	[N/m]	[°]	[°]	[uN]	[um]	[um]	[um]	[uN]	[N/m]	[um]	[um^2]	[MPa]	[MPa]
796	1.000000	0.002450	7.37284e+06	-39939.1	1055.82	-29792	0.000000	0.000000	6.002809	0.004901	NaN	0.000000	0.001582	0.001716	28.0831	0.040076	0.000926	43.2917	-167.493	-169.356	-0.058682	0.001189	-1.070476	-1.071737	0.004901	43.2917	-1.070561	-2.017099E+14	-2.429784E-17	NaN
796	1.000000	0.010381	7.37284e+06	-39939.1	1055.82	-29792	0.000000	0.000000	6.010740	-0.013512	NaN	0.000000	0.001590	0.001727	28.0829	0.095294	0.000975	97.7643	-111.243	-165.348	-0.024641	0.009128	-1.062545	-1.063798	-0.013512	97.7643	-1.062441	-1.569015E+14	8.611633E-17	NaN
796	1.000000	0.018407	7.37284e+06	-39939.1	1055.82	-29792	0.000000	0.000000	6.018767	0.004110	NaN	0.000000	0.001608	0.001709	28.0829	0.063303	0.001742	36.3485	143.493	-165.348	0.003342	0.017062	-1.054519	-1.055864	0.004110	36.3485	-1.054603	-1.231097E+14	-3.338239E-17	NaN
796	1.000000	0.026423	7.37284e+06	-39939.1	1055.82	-29792	0.000000	0.000000	6.026783	0.022542	NaN	0.000000	0.001597	0.001744	28.083	0.046574	0.001853	25.1329	47.496	-167.297	-0.009037	0.025049	-1.046503	-1.047877	0.022542	25.1329	-1.047176	-9.782418E+13	-2.304340E-16	NaN
796	1.000000	0.034391	7.37284e+06	-39939.1	1055.82	-29792	0.000000	0.000000	6.034749	-0.040304	NaN	0.000000	0.001609	0.001751	28.083	0.087029	0.001996	43.592	147.885	-163.444	-0.126383	0.033032	-1.038535	-1.039894	-0.040304	43.592	-1.037842	-7.327307E+13	5.500511E-16	NaN
796	1.000000	0.042374	7.37284e+06	-39939.1	1055.82	-29792	0.000000	0.000000	6.042733	-0.002041	NaN	0.000000	0.001590	0.001706	28.0834	0.051664	0.001975	26.1641	170.927	-166.31	0.040691	0.041057	-1.030552	-1.031869	-0.002041	26.1641	-1.030494	-5.836065E+13	3.496504E-17	NaN
796	1.000000	0.050366	7.37284e+06	-39939.1	1055.82	-29792	0.000000	0.000000	6.050727	0.034029	NaN	0.000000	0.001571	0.001700	28.083	0.035775	0.001969	18.1653	80.5005	-168.263	-0.046263	0.049119	-1.022560	-1.023807	0.034029	18.1653	-1.023965	-4.767589E+13	-7.137660E-16	NaN
796	1.000000	0.058383	7.37284e+06	-39939.1	1055.82	-29792	0.000000	0.000000	6.058741	-0.036882	NaN	0.000000	0.001568	0.001700	28.0832	0.096706	0.001916	50.471	-18.4675	-166.532	0.016614	0.057092	-1.014543	-1.015834	-0.036882	50.471	-1.013995	-3.500623E+13	1.053573E-15	NaN
796	1.000000	0.066382	7.37284e+06	-39939.1	1055.82	-29792	0.000000	0.000000	6.066740	-0.027653	NaN	0.000000	0.001595	0.001693	28.082	0.049702	0.001997	24.8847	137.802	-166.123	-0.133468	0.065109	-1.006544	-1.007818	-0.027653	24.8847	-1.005711	-2.708000E+13	1.021165E-15	NaN
796	1.000000	0.074409	7.37284e+06	-39939.1	1055.82	-29792	0.000000	0.000000	6.074767	-0.013006	NaN	0.000000	0.001539	0.001775	28.0819	0.048367	0.002089	23.1487	-81.4745	-166.47	-0.068302	0.073085	-0.998518	-0.999841	-0.013006	23.1487	-0.998096	-2.138631E+13	6.081656E-16	NaN
796	1.000000	0.082393	7.37284e+06	-39939.1	1055.82	-29792	0.000000	0.000000	6.082749	-0.088157	NaN	0.000000	0.001569	0.001741	28.0818	0.143340	0.001930	74.285	-56.4368	-165.167	-0.115764	0.081122	-0.990533	-0.991804	-0.088157	74.285	-0.989643	-1.645521E+13	5.357387E-15	NaN
796	1.000000	0.090382	7.37284e+06	-39939.1	1055.82	-29792	0.000000	0.000000	6.090739	-0.044698	NaN	0.000000	0.001579	0.001725	28.0818	0.045001	0.001934	23.2682	40.1511	-167.518	-0.096076	0.089053	-0.982544	-0.983873	-0.044698	23.2682	-0.981103	-1.262628E+13	3.540047E-15	NaN
796	1.000000	0.098388	7.37284e+06	-39939.1	1055.82	-29792	0.000000	0.000000	6.098744	-0.081962	NaN	0.000000	0.001548	0.001730	28.082	0.053875	0.002070	26.0218	76.464	-164.745	-0.130659	0.097141	-0.974538	-0.975785	-0.081962	26.0218	-0.972176	-9.571701E+12	8.562929E-15	NaN
796	1.000000	0.106406	7.37284e+06	-39939.1	1055.82	-29792	0.000000	0.000000	6.106761	-0.102415	NaN	0.000000	0.001576	0.001715	28.0818	0.083601	0.002059	40.5967	123.384	-166.997	-0.119045	0.105135	-0.966520	-0.967791	-0.102415	40.5967	-0.964628	-7.572831E+12	1.352396E-14	NaN
796	1.000000	0.114402	7.37284e+06	-39939.1	1055.82	-29792	0.000000	0.000000	6.114762	0.032407	NaN	0.000000	0.001600	0.001697	28.0817	0.106981	0.002026	52.7935	25.6713	-169.076	0.049823	0.113089	-0.958525	-0.959837	0.032407	52.7935	-0.958985	-6.355998E+12	-5.098726E-15	NaN
796	1.000000	0.122381	7.37284e+06	-39939.1	1055.82	-29792	0.000000	0.000000	6.122739	-0.028107	NaN	0.000000	0.001579	0.001727	28.0818	0.124683	0.001918	65.0077	-174.646	-169.134	-0.022922	0.121118	-0.950545	-0.951808	-0.028107	65.0077	-0.950221	-4.841792E+12	5.805014E-15	NaN
796	1.000000	0.130418	7.37284e+06	-39939.1	1055.82	-29792	0.000000	0.000000	6.130777	-0.008933	NaN	0.000000	0.001618	0.001692	28.0817	0.083563	0.001921	43.4998	-103.409	-165.22	-0.017080	0.129179	-0.942508	-0.943747	-0.008933	43.4998	-0.942354	-3.792282E+12	2.355656E-15	NaN
796	1.000000	0.138445	7.37284e+06	-39939.1	1055.82	-29792	0.000000	0.000000	6.138805	0.025745	NaN	0.000000	0.001612	0.001713	28.0821	0.029155	0.001985	14.6908	48.0489	-162.579	0.015708	0.137127	-0.934481	-0.935799	0.025745	14.6908	-0.935796	-3.093223E+12	-8.323022E-15	NaN
796	1.000000	0.146438	7.37284e+06	-39939.1	1055.82	-29792	0.000000	0.000000	6.146796	-0.020949	NaN	0.000000	0.001655	0.001720	28.0816	0.019166	0.001952	9.819856	-35.8783	-162.772	-0.002438	0.145133	-0.926488	-0.927793	-0.020949	9.819856	-0.924888	-2.203924E+12	9.505354E-15	NaN
796	1.000000	0.154426	7.37284e+06	-39939.1	1055.82	-29792	0.000000	0.000000	6.154784	-0.035960	NaN	0.000000	0.001610	0.001706	28.0815	0.108390	0.001942	55.8077	12.3239	-166.668	-0.084917	0.153113	-0.918500	-0.919813	-0.035960	55.8077	-0.918017	-1.780033E+12	2.020211E-14	NaN
796	1.000000	0.162445	7.37284e+06	-39939.1	1055.82	-29792	0.000000	0.000000	6.162805	0.007335	NaN	0.000000	0.001631	0.001730	28.0815	0.052665	0.001970	26.7387	45.8063	-165.627	0.008022	0.161107	-0.910481	-0.911819	0.007335	26.7387	-0.910687	-1.417225E+12	-5.175309E-15	NaN
796	1.000000	0.170430	7.37284e+06	-39939.1	1055.82	-29792	0.000000	0.000000	6.170789	-0.010392	NaN	0.000000	0.001623	0.001710	28.0819	0.074652	0.001917	38.9517	-10.5772	-160.82	-0.046085	0.169109	-0.902496	-0.903817	-0.010392	38.9517	-0.902296	-1.091656E+12	9.519086E-15	NaN
796	1.000000	0.178428	7.37284e+06	-39939.1	1055.82	-29792	0.000000	0.000000	6.178787	-0.020015	NaN	0.000000	0.001622	0.001718	28.0817	0.063499	0.002019	31.4479	-121.364	-165.814	-0.034876	0.177133	-0.894498	-0.895793	-0.020015	31.4479	-0.894021	-8.438410E+11	2.371838E-14	NaN
796	1.000000	0.186445	7.37284e+06	-39939.1	1055.82	-29792	0.000000	0.000000	6.186803	-0.023611	NaN	0.000000	0.001616	0.001719	28.0817	0.061935	0.001955	31.6853	88.7126	-162.98	-0.051124	0.185118	-0.886481	-0.887808	-0.023611	31.6853	-0.885922	-6.558277E+11	3.600247E-14	NaN
796	1.000000	0.194426	7.37284e+06	-39939.1	1055.82	-29792	0.000000	0.000000	6.194784	-0.039171	NaN	0.000000	0.001562	0.001683	28.0819	0.177109	0.001867	94.8431	56.4654	-167.473	-0.101685	0.193104	-0.878500	-0.879822	-0.039171	94.8431	-0.878190	-5.155059E+11	7.598620E-14	NaN
796	1.000000	0.202445	7.37284e+06	-39939.1	1055.82	-29792	0.000000	0.000000	6.202800	-0.098268	NaN	0.000000	0.001612	0.001694	28.0827	0.165684	0.002050	80.8063	-166.399	-165.302	-0.100292	0.201061	-0.870481	-0.871865	-0.098268	80.8063	-0.869569	-3.941051E+11	2.493438E-13	NaN
796	1.000000	0.210458	7.37284e+06	-39939.1	1055.82	-29792	0.000000	0.000000	6.210816	-0.045679	NaN	0.000000	0.001616	0.001716	28.0829	0.045161	0.001990	22.6986	-21.2971	-165.972	0.021878	0.209175	-0.862468	-0.863751	-0.045679	22.6986	-0.860958	-3.013642E+11	1.515744E-13	NaN
796	1.000000	0.218474	7.37284e+06	-39939.1	1055.82	-29792	0.000000	0.000000	6.218830	-0.083440	NaN	0.000000	0.001612	0.001692	28.0827	0.080868	0.002053	39.3992	54.7787	-163.625	-0.047654	0.217213	-0.854452	-0.855713	-0.083440	39.3992	-0.852863	-2.341573E+11	3.563399E-13	NaN
796	1.000000	0.226466	7.37284e+06	-39939.1	1055.82	-29792	0.000000	0.000000	6.226822	-0.073777	NaN	0.000000	0.001644	0.001673	28.0827	0.100904	0.001961	51.4566	1.283798	-169.429	-0.065023	0.225141	-0.846460	-0.847785	-0.073777	51.4566	-0.845385	-1.854542E+11	3.978192E-13	NaN
796	1.000000	0.234492	7.37284e+06	-39939.1	1055.82	-29792	0.000000	0.000000	6.234852	0.014220	NaN	0.000000	0.001612	0.001707	28.0831	0.085279	0.001992	42.8097	178.85	-166.707	-0.017027	0.233155	-0.838434	-0.839771	0.014220	42.8097	-0.838683	-1.504722E+11	-9.450581E-14	NaN
796	1.000000	0.242462	7.37284e+06	-39939.1	1055.82	-29792	0.000000	0.000000	6.242821	0.005740	NaN	0.000000	0.001573	0.001681	28.083	0.108473	0.002035	53.2979	-150.387	-164.184	0.069351	0.241129	-0.830464	-0.831797	0.005740	53.2979	-0.830545	-1.167273E+11	-4.917863E-14	NaN
796	1.000000	0.250430	7.37284e+06	-39939.1	1055.82	-29792	0.000000	0.000000	6.250789	-0.007110	NaN	0.000000	0.001554	0.001703	28.0831	0.026865	0.002152	12.4842	-160.232	-168.903	0.012598	0.249125	-0.822496	-0.823801	-0.007110	12.4842	-0.822069	-8.959238E+10	7.935623E-14	NaN
796	1.000000	0.258496	7.37284e+06	-39939.1	1055.82	-29792	0.000000	0.000000	6.258853	-0.070915	NaN	0.000000	0.001534	0.001702	28.0829	0.079150	0.001921	41.1936	119.389	-163.954	-0.125507	0.257219	-0.814430	-0.815707	-0.070915	41.1936	-0.813139	-6.778787E+10	1.046131E-12	NaN
796	1.000000	0.266486	7.37284e+06	-39939.1	1055.82	-29792	0.000000	0.000000	6.266844	-0.042966	NaN	0.000000	0.001580	0.001703	28.083	0.004428	0.001916	2.310981	143.15	-164.279	-0.058375	0.265105	-0.806440	-0.807821	-0.042966	2.310981	-0.792496	-3.556107E+10	1.208228E-12	NaN
796	1.000000	0.274496	7.37284e+06	-39939.1	1055.82	-29792	0.000000	0.000000	6.274854	-0.022069	NaN	0.000000	0.001586	0.001712	28.0829	0.031000	0.002055	15.0826	-123.329	-164.26	-0.038802	0.273177	-0.798430	-0.799749	-0.022069	15.0826	-0.797333	-4.136722E+10	5.334882E-13	NaN
796	1.000000	0.282479	7.37284e+06	-39939.1	1055.82	-29792	0.000000	0.000000	6.282837	-0.041865	NaN	0.000000	0.001592	0.001707	28.0828	0.082494	0.001976	41.7427	42.76	-163.338	-0.092444	0.281162	-0.790447	-0.791764	-0.041865	41.7427	-0.789695	-3.257880E+10	1.285043E-12	NaN
796	1.000000	0.290506	7.37284e+06	-39939.1	1055.82	-29792	0.000000	0.000000	6.290864	-0.007966	NaN	0.000000	0.001594	0.001713	28.0831	0.134406	0.002000	67.2134	106.702	-166.599	-0.000259	0.289201	-0.782421	-0.783725	-0.007966	67.2134	-0.782332	-2.587703E+10	3.078421E-13	NaN
796	1.000000	0.298482	7.37284e+06	-39939.1	1055.82	-29792	0.000000	0.000000	6.298841	-0.003809	NaN	0.000000	0.001588	0.001702	28.083	0.040422	0.002057	19.6483	9.384093	-167.914	0.019185	0.297154	-0.774444	-0.775772	-0.003809	19.6483	-0.774298	-2.012522E+10	1.892682E-13	NaN
796	1.000000	0.306499	7.37284e+06	-39939.1	1055.82	-29792	0.000000	0.000000	6.306856	-0.054786	NaN	0.000000	0.001569	0.001678	28.0831	0.110920	0.002037	54.4508	-132.752	-164.033	-0.057011	0.305179	-0.766427	-0.767747	-0.054786	54.4508	-0.765672	-1.536226E+10	3.566284E-12	NaN
796	1.000000	0.314505	7.37284e+06	-39939.1	1055.82	-29792	0.000000	0.000000	6.314865	0.003995	NaN	0.000000	0.001583	0.001681	28.0828	0.042800	0.002081	20.5629	38.4656	-166.324	0.038628	0.313180	-0.758421	-0.759746	0.003995	20.5629	-0.758566	-1.229701E+10	-3.248807E-13	NaN
796	1.000000	0.322494	7.37284e+06	-39939.1	1055.82	-29792	0.000000	0.000000	6.322854	0.002355	NaN	0.000000	0.001579	0.001709	28.0828	0.127857	0.001873	68.2784	18.0929	-166.051	-0.101682	0.321188	-0.750432	-0.751738	0.002355	68.2784	-0.750457	-9.537769E+9	-2.469593E-13	NaN
796	1.000000	0.330520	7.37284e+06	-39939.1	1055.82	-29792	0.000000	0.000000	6.330879	-0.008914	NaN	0.000000	0.001618	0.001699	28.0856	0.128948	0.001975	65.2923	171.722	-166.351	0.011526	0.329155	-0.742406	-0.743771	-0.008914	65.2923	-0.742304	-7.386346E+9	1.206784E-12	NaN
796	1.000000	0.338491	7.37284e+06	-39939.1	1055.82	-29792	0.000000	0.000000	6.338850	-0.010237	NaN	0.000000	0.001597	0.001694	28.0856	0.078026	0.002140	36.4528	-124.053	-165.297	-0.040365	0.337202	-0.734435	-0.735724	-0.010237	36.4528	-0.734225	-5.732949E+9	1.785561E-12	NaN
796	1.000000	0.346495	7.37284e+06	-39939.1	1055.82	-29792	0.000000	0.000000	6.346851	-0.075821	NaN	0.000000	0.001597	0.001716	28.082	0.087981	0.001971	44.6374	32.9337	-165.156	-0.076127	0.345205	-0.726431	-0.727721	-0.075821	44.6374	-0.725157	-4.313164E+9	1.757896E-11	NaN
796	1.000000	0.354501	7.37284e+06	-39939.1	1055.82	-29792	0.000000	0.000000	6.354859	-0.034015	NaN	0.000000	0.001622	0.001721	28.0819	0.071998	0.001960	36.7284	-120.319	-166.708	-0.028529	0.353215	-0.718425	-0.719711	-0.034015	36.7284	-0.717731	-3.416024E+9	9.957612E-12	NaN
796	1.000000	0.362484	7.37284e+06	-39939.1	1055.82	-29792	0.000000	0.000000	6.362847	0.081790	NaN	0.000000	0.001602	0.001731	28.0818	0.011929	0.001975	6.038842	-50.2243	-165.398	0.007489	0.361225	-0.710442	-0.711701	0.081790	6.038842	-0.720600	-3.738123E+9	-2.188007E-11	NaN
796	1.000000	0.370537	7.37284e+06	-39939.1	1055.82	-29792	0.000000	0.000000	6.370896	-0.014403	NaN	0.000000	0.001589	0.001705	28.0818	0.077374	0.001969	39.2941	-130.165	-162.114	-0.050170	0.369238	-0.702389	-0.703688	-0.014403	39.2941	-0.702114	-2.091215E+9	6.887526E-12	NaN
796	1.000000	0.378532	7.37284e+06	-39939.1	1055.82	-29792	0.000000	0.000000	6.378891	-0.015911	NaN	0.000000	0.001588	0.001731	28.0815	0.035954	0.002021	17.7898	-67.2423	-169.88	0.027659	0.377196	-0.694394	-0.695730	-0.015911	17.7898	-0.693723	-1.606165E+9	9.906133E-12	NaN
796	1.000000	0.386509	7.37284e+06	-39939.1	1055.82	-29792	0.000000	0.000000	6.386867	-0.038665	NaN	0.000000	0.001562	0.001694	28.0815	0.104750	0.001895	55.2867	-162.93	-164.196	-0.074738	0.385218	-0.686417	-0.687708	-0.038665	55.2867	-0.685892	-1.255368E+9	3.079988E-11	NaN
796	1.000000	0.394513	7.37284e+06	-39939.1	1055.82	-29792	0.000000	0.000000	6.394870	-0.048076	NaN	0.000000	0.001637	0.001687	28.0816	0.001753	0.002025	0.865977	65.778	-166.9	-0.056293	0.393214	-0.678413	-0.679712	-0.048076	0.865977	-0.636776	-2.667142E+8	1.802527E-10	NaN
796	1.000000	0.402553	7.37284e+06	-39939.1	1055.82	-29792	0.000000	0.000000	6.402911	-0.027349	NaN	0.000000	0.001577	0.001727	28.0814	0.094902	0.002075	45.7381	-53.0829	-166.545	-0.020857	0.401267	-0.670373	-0.671659	-0.027349	45.7381	-0.669925	-7.592073E+8	3.602372E-11	NaN
796	1.000000	0.410525	7.37284e+06	-39939.1	1055.82	-29792	0.000000	0.000000	6.410884	-0.014493	NaN	0.000000	0.001585	0.001702	28.0819	0.154513	0.001924	80.3159	-47.9539	-165.57	0.032210	0.409224	-0.662401	-0.663702	-0.014493	80.3159	-0.662265	-5.963439E+8	2.430367E-11	NaN
796	1.000000	0.418560	7.37284e+06	-39939.1	1055.82	-29792	0.000000	0.000000	6.418917	-0.064516	NaN	0.000000	0.001584	0.001653	28.0818	0.098535	0.002027	48.6117	-13.1274	-165.271	-0.009327	0.417231	-0.654366	-0.655695	-0.064516	48.6117	-0.653371	-4.504395E+8	1.432291E-10	NaN
796	1.000000	0.426546	7.37284e+06	-39939.1	1055.82	-29792	0.000000	0.000000	6.426903	-0.056309	NaN	0.000000	0.001597	0.001700	28.0817	0.042986	0.002004	21.4509	-106.426	-167.346	-0.087626	0.425228	-0.646380	-0.647698	-0.056309	21.4509	-0.644411	-3.394682E+8	1.658747E-10	NaN
796	1.000000	0.434574	7.37284e+06	-39939.1	1055.82	-29792	0.000000	0.000000	6.434932	-0.023364	NaN	0.000000	0.001578	0.001695	28.0815	0.070771	0.001994	35.5002	169.421	-167.991	-0.011955	0.433266	-0.638352	-0.639660	-0.023364	35.5002	-0.637858	-2.759957E+8	8.465205E-11	NaN
796	1.000000	0.442565	7.37284e+06	-39939.1	1055.82	-29792	0.000000	0.000000	6.442922	-0.057201	NaN	0.000000	0.001588	0.001686	28.0813	0.037613	0.001890	19.8973	-153.251	-166.962	-0.138688	0.441277	-0.630361	-0.631649	-0.057201	19.8973	-0.628205	-2.034121E+8	2.812055E-10	NaN
796	1.000000	0.450540	7.37284e+06	-39939.1	1055.82	-29792	0.000000	0.000000	6.450899	-0.001360	NaN	0.000000	0.001535	0.001686	28.0814	0.123121	0.001986	61.9868	-36.0398	-166.611	-0.053836	0.449277	-0.622386	-0.623649	-0.001360	61.9868	-0.622370	-1.691226E+8	8.041793E-12	NaN
796	1.000000	0.458566	7.37284e+06	-39939.1	1055.82	-29792	0.000000	0.000000	6.458925	-0.010268	NaN	0.000000	0.001590	0.001709	28.0815	0.131888	0.002035	64.8018	-76.6391	-167.812	-0.043533	0.457269	-0.614360	-0.615657	-0.010268	64.8018	-0.614241	-1.307526E+8	7.853125E-11	NaN
796	1.000000	0.466518	7.37284e+06	-39939.1	1055.82	-29792	0.000000	0.000000	6.466876	-0.013866	NaN	0.000000	0.001591	0.001699	28.0815	0.086401	0.001921	44.9776	49.1675	-164.609	-0.069844	0.465272	-0.606408	-0.607654	-0.013866	44.9776	-0.606177	-1.012765E+8	1.369089E-10	NaN
796	1.000000	0.474590	7.37284e+06	-39939.1	1055.82	-29792	0.000000	0.000000	6.474950	0.016593	NaN	0.000000	0.001586	0.001718	28.0825	0.045725	0.002004	22.8199	152.388	-167.002	-0.021424	0.473237	-0.598336	-0.599689	0.016593	22.8199	-0.598881	-8.036207E+7	-2.064774E-10	NaN
796	1.000000	0.482550	7.37284e+06	-39939.1	1055.82	-29792	0.000000	0.000000	6.482909	-0.005396	NaN	0.000000	0.001581	0.001730	28.0826	0.009571	0.001902	5.032329	28.7886	-166.598	-0.023850	0.481233	-0.590376	-0.591693	-0.005396	5.032329	-0.589572	-5.980868E+7	9.021951E-11	NaN
796	1.000000	0.490622	7.37284e+06	-39939.1	1055.82	-29792	0.000000	0.000000	6.490981	-0.021392	NaN	0.000000	0.001561	0.001690	28.0827	0.029920	0.002038	14.6827	95.2711	-166.162	-0.029802	0.489227	-0.582304	-0.583699	-0.021392	14.6827	-0.581211	-4.586054E+7	4.664558E-10	NaN
796	1.000000	0.498569	7.37284e+06	-39939.1	1055.82	-29792	0.000000	0.000000	6.498930	0.043150	NaN	0.000000	0.001609	0.001716	28.0827	0.126480	0.002126	59.4877	95.9183	-166.708	-0.013623	0.497240	-0.574357	-0.575686	0.043150	59.4877	-0.574901	-3.752642E+7	-1.149864E-9	NaN
796	1.000000	0.506552	7.37284e+06	-39939.1	1055.82	-29792	0.000000	0.000000	6.506910	-0.036471	NaN	0.000000	0.001621	0.001661	28.0826	0.058117	0.001981	29.3439	-157.886	-164.015	-0.016008	0.505288	-0.566374	-0.567638	-0.036471	29.3439	-0.565442	-2.777356E+7	1.313162E-9	NaN
796	1.000000	0.514579	7.37284e+06	-39939.1	1055.82	-29792	0.000000	0.000000	6.514933	-0.111348	NaN	0.000000	0.001624	0.001686	28.0825	0.062231	0.001985	31.3435	-160.689	-162.458	-0.115880	0.513281	-0.558347	-0.559645	-0.111348	31.3435	-0.555683	-2.035372E+7	5.470642E-9	NaN
796	1.000000	0.522584	7.37284e+06	-39939.1	1055.82	-29792	0.000000	0.000000	6.522942	-0.038245	NaN	0.000000	0.001602	0.001655	28.0824	0.087454	0.001929	45.3308	-173.115	-168.336	-0.044463	0.521245	-0.550342	-0.551681	-0.038245	45.3308	-0.549709	-1.682399E+7	2.273232E-9	NaN
796	1.000000	0.530595	7.37284e+06	-39939.1	1055.82	-29792	0.000000	0.000000	6.530954	-0.023614	NaN	0.000000	0.001592	0.001664	28.0825	0.008882	0.002051	4.330685	170.031	-168.06	-0.008697	0.529295	-0.542331	-0.543632	-0.023614	4.330685	-0.538241	-1.166715E+7	2.023952E-9	NaN
796	1.000000	0.538615	7.37284e+06	-39939.1	1055.82	-29792	0.000000	0.000000	6.538974	0.001849	NaN	0.000000	0.001602	0.001700	28.083	0.075718	0.001898	39.8978	-56.6163	-166.089	-0.051586	0.537245	-0.534311	-0.535681	0.001849	39.8978	-0.534346	-1.030189E+7	-1.794828E-10	NaN
796	1.000000	0.546589	7.37284e+06	-39939.1	1055.82	-29792	0.000000	0.000000	6.546949	0.013284	NaN	0.000000	0.001572	0.001679	28.0825	0.076635	0.002012	38.0952	14.8377	-165.63	0.099712	0.545298	-0.526337	-0.527628	0.013284	38.0952	-0.526598	-8.04117e+06	-1.651945E-9	NaN
796	1.000000	0.554630	7.37284e+06	-39939.1	1055.82	-29792	0.000000	0.000000	6.554987	-0.053061	NaN	0.000000	0.001604	0.001696	28.0826	0.101679	0.002166	46.9469	141.593	-167.509	-0.032080	0.553311	-0.518296	-0.519615	-0.053061	46.9469	-0.517448	-5.99934e+06	8.844494E-9	NaN
796	1.000000	0.562608	7.37284e+06	-39939.1	1055.82	-29792	0.000000	0.000000	6.562967	0.008058	NaN	0.000000	0.001654	0.001714	28.0826	0.048487	0.001893	25.6115	-66.5098	-166.565	0.014934	0.561265	-0.510319	-0.511661	0.008058	25.6115	-0.510555	-4.80993e+06	-1.675207E-9	NaN
796	1.000000	0.570602	7.37284e+06	-39939.1	1055.82	-29792	0.000000	0.000000	6.570959	-0.042306	NaN	0.000000	0.001607	0.001706	28.0827	0.031464	0.001975	15.9297	14.3206	-165.301	-0.052330	0.569261	-0.502324	-0.503665	-0.042306	15.9297	-0.500333	-3.46463e+06	1.221074E-8	NaN
796	1.000000	0.578618	7.37284e+06	-39939.1	1055.82	-29792	0.000000	0.000000	6.578978	0.014935	NaN	0.000000	0.001612	0.001692	28.0827	0.093841	0.002150	43.6512	59.8088	-166.101	0.012630	0.577249	-0.494308	-0.495677	0.014935	43.6512	-0.494565	-2.87845e+06	-5.188715E-9	NaN
796	1.000000	0.586606	7.37284e+06	-39939.1	1055.82	-29792	0.000000	0.000000	6.586966	0.008241	NaN	0.000000	0.001621	0.001672	28.0827	0.089079	0.001931	46.1291	40.4279	-165.831	-0.059665	0.585317	-0.486320	-0.487609	0.008241	46.1291	-0.486454	-2.21731e+06	-3.716571E-9	NaN
796	1.000000	0.594600	7.37284e+06	-39939.1	1055.82	-29792	0.000000	0.000000	6.594959	5.100498E-6	NaN	0.000000	0.001598	0.001706	28.0828	0.107565	0.001936	55.5517	-88.3856	-165.178	0.060937	0.593335	-0.478326	-0.479591	5.100498E-6	55.5517	-0.478327	-1.70646e+06	-2.988930E-12	NaN
796	1.000000	0.602612	7.37284e+06	-39939.1	1055.82	-29792	0.000000	0.000000	6.602968	-0.068670	NaN	0.000000	0.001596	0.001665	28.083	0.071321	0.002038	35.0002	23.9676	-167.339	-0.102992	0.601306	-0.470314	-0.471620	-0.068670	35.0002	-0.468843	-1.25654e+06	5.465020E-8	NaN
796	1.000000	0.610631	7.37284e+06	-39939.1	1055.82	-29792	0.000000	0.000000	6.610993	0.072150	NaN	0.000000	0.001604	0.001631	28.0816	0.102496	0.001955	52.416	-132.238	-165.584	0.035718	0.609304	-0.462295	-0.463622	0.072150	52.416	-0.463327	-1.05138e+06	-6.862348E-8	NaN
796	1.000000	0.618631	7.37284e+06	-39939.1	1055.82	-29792	0.000000	0.000000	6.618990	-0.005077	NaN	0.000000	0.001609	0.001698	28.0815	0.079176	0.002084	37.993	-86.0534	-166	-0.009783	0.617311	-0.454295	-0.455615	-0.005077	37.993	-0.454195	-782338	6.489148E-9	NaN
796	1.000000	0.626618	7.37284e+06	-39939.1	1055.82	-29792	0.000000	0.000000	6.626975	-0.067833	NaN	0.000000	0.001621	0.001665	28.0814	0.086921	0.001998	43.4993	151.658	-167.426	-0.119181	0.625267	-0.446308	-0.447659	-0.067833	43.4993	-0.445138	-583229	1.163053E-7	NaN
796	1.000000	0.634635	7.37284e+06	-39939.1	1055.82	-29792	0.000000	0.000000	6.634993	-0.021836	NaN	0.000000	0.001617	0.001675	28.0815	0.082718	0.001887	43.8305	82.8799	-166.159	-0.054409	0.633343	-0.438291	-0.439583	-0.021836	43.8305	-0.437917	-461279	4.733802E-8	NaN
796	1.000000	0.642637	7.37284e+06	-39939.1	1055.82	-29792	0.000000	0.000000	6.642995	-0.023885	NaN	0.000000	0.001607	0.001667	28.0819	0.057829	0.002049	28.2186	-174.421	-163.834	-0.041431	0.641294	-0.430289	-0.431632	-0.023885	28.2186	-0.429654	-352511	6.775746E-8	NaN
796	1.000000	0.650652	7.37284e+06	-39939.1	1055.82	-29792	0.000000	0.000000	6.651010	-0.024782	NaN	0.000000	0.001567	0.001700	28.0817	0.039701	0.001891	20.9894	-114.953	-166.536	0.007887	0.649362	-0.422274	-0.423564	-0.024782	20.9894	-0.421388	-269218	9.205209E-8	NaN
796	1.000000	0.658661	7.37284e+06	-39939.1	1055.82	-29792	0.000000	0.000000	6.659022	0.045969	NaN	0.000000	0.001605	0.001711	28.0816	0.094784	0.001882	50.3652	-60.9587	-163.751	-0.012875	0.657394	-0.414265	-0.415532	0.045969	50.3652	-0.414949	-218141	-2.107303E-7	NaN
796	1.000000	0.666659	7.37284e+06	-39939.1	1055.82	-29792	0.000000	0.000000	6.667017	-0.026178	NaN	0.000000	0.001607	0.001665	28.0814	0.100026	0.002090	47.8499	158.867	-166.838	-0.003177	0.665346	-0.406267	-0.407580	-0.026178	47.8499	-0.405857	-161977	1.616151E-7	NaN
796	1.000000	0.674669	7.37284e+06	-39939.1	1055.82	-29792	0.000000	0.000000	6.675027	-0.036857	NaN	0.000000	0.001625	0.001661	28.0814	0.128863	0.002194	58.7289	-16.0921	-162.783	-0.027229	0.673384	-0.398257	-0.399542	-0.036857	58.7289	-0.397787	-124285	2.965509E-7	NaN
796	1.000000	0.682641	7.37284e+06	-39939.1	1055.82	-29792	0.000000	0.000000	6.683002	0.031434	NaN	0.000000	0.001600	0.001678	28.0817	0.167127	0.001997	83.6798	24.7926	-163.563	0.052726	0.681335	-0.390285	-0.391591	0.031434	83.6798	-0.390567	-98011.1	-3.207157E-7	NaN
796	1.000000	0.690653	7.37284e+06	-39939.1	1055.82	-29792	0.000000	0.000000	6.691010	-0.062867	NaN	0.000000	0.001615	0.001686	28.0817	0.039835	0.001939	20.5488	153.776	-167.291	-0.062417	0.689346	-0.382273	-0.383580	-0.062867	20.5488	-0.379978	-69116.2	9.095845E-7	NaN
796	1.000000	0.698635	7.37284e+06	-39939.1	1055.82	-29792	0.000000	0.000000	6.698994	-0.025608	NaN	0.000000	0.001574	0.001705	28.0824	0.212348	0.001957	108.521	46.3097	-167.201	0.046259	0.697348	-0.374291	-0.375578	-0.025608	108.521	-0.374114	-56928.3	4.498265E-7	NaN
796	1.000000	0.706673	7.37284e+06	-39939.1	1055.82	-29792	0.000000	0.000000	6.707028	-0.089430	NaN	0.000000	0.001612	0.001707	28.0816	0.070752	0.001996	35.45	17.2368	-164.342	0.066344	0.705403	-0.366253	-0.367524	-0.089430	35.45	-0.364361	-41194.2	2.170945E-6	NaN
796	1.000000	0.714667	7.37284e+06	-39939.1	1055.82	-29792	0.000000	0.000000	6.715028	0.033591	NaN	0.000000	0.001605	0.001707	28.0816	0.096395	0.002044	47.1653	-126.749	-164.673	0.008639	0.713346	-0.358259	-0.359580	0.033591	47.1653	-0.358793	-34229	-9.813753E-7	NaN
796	1.000000	0.722674	7.37284e+06	-39939.1	1055.82	-29792	0.000000	0.000000	6.723030	-0.086525	NaN	0.000000	0.001599	0.001662	28.0819	0.113295	0.002019	56.1011	-87.9249	-166.917	-0.103223	0.721388	-0.350252	-0.351538	-0.086525	56.1011	-0.349095	-24766.4	3.493650E-6	NaN
796	1.000000	0.730683	7.37284e+06	-39939.1	1055.82	-29792	0.000000	0.000000	6.731045	0.055799	NaN	0.000000	0.001592	0.001688	28.0815	0.090075	0.002120	42.481	-44.7189	-162.99	0.033914	0.729358	-0.342243	-0.343568	0.055799	42.481	-0.343228	-20350.4	-2.741912E-6	NaN
796	1.000000	0.738682	7.37284e+06	-39939.1	1055.82	-29792	0.000000	0.000000	6.739038	-0.091869	NaN	0.000000	0.001613	0.001723	28.0819	0.079560	0.002000	39.7851	-147.103	-163.2	0.001353	0.737348	-0.334244	-0.335578	-0.091869	39.7851	-0.332512	-14197.7	6.470643E-6	NaN
796	1.000000	0.746680	7.37284e+06	-39939.1	1055.82	-29792	0.000000	0.000000	6.747036	-0.100821	NaN	0.000000	0.001595	0.001679	28.0827	0.068205	0.001873	36.4127	173.121	-167.795	-0.069688	0.745433	-0.326246	-0.327493	-0.100821	36.4127	-0.324169	-10713.6	9.410585E-6	NaN
796	1.000000	0.754705	7.37284e+06	-39939.1	1055.82	-29792	0.000000	0.000000	6.755062	-0.058744	NaN	0.000000	0.001577	0.001712	28.0828	0.063445	0.001908	33.2545	102.611	-167.357	-0.036515	0.753375	-0.318221	-0.319551	-0.058744	33.2545	-0.316896	-8373.73	7.015219E-6	NaN
796	1.000000	0.762697	7.37284e+06	-39939.1	1055.82	-29792	0.000000	0.000000	6.763052	-0.112173	NaN	0.000000	0.001596	0.001662	28.0829	0.060220	0.002234	26.9519	-8.856528	-163.079	-0.080830	0.761369	-0.310229	-0.311557	-0.112173	26.9519	-0.307108	-6000.91	1.869265E-5	NaN
796	1.000000	0.770681	7.37284e+06	-39939.1	1055.82	-29792	0.000000	0.000000	6.771039	-0.026281	NaN	0.000000	0.001618	0.001647	28.0828	0.083860	0.001900	44.136	-64.5011	-161.283	-0.003214	0.769386	-0.302245	-0.303540	-0.026281	44.136	-0.301798	-5004.85	5.251042E-6	NaN
796	1.000000	0.778692	7.37284e+06	-39939.1	1055.82	-29792	0.000000	0.000000	6.779048	-0.072775	NaN	0.000000	0.001611	0.001670	28.0829	0.009706	0.002138	4.539189	75.7331	-166.55	-0.132117	0.777422	-0.294234	-0.295504	-0.072775	4.539189	-0.282210	-2548.5	2.855594E-5	NaN
796	1.000000	0.786691	7.37284e+06	-39939.1	1055.82	-29792	0.000000	0.000000	6.787050	0.006704	NaN	0.000000	0.001635	0.001690	28.0829	0.096441	0.001916	50.3314	61.717	-165.907	-0.012313	0.785421	-0.286235	-0.287505	0.006704	50.3314	-0.286335	-2939.88	-2.280436E-6	NaN
796	1.000000	0.794713	7.37284e+06	-39939.1	1055.82	-29792	0.000000	0.000000	6.795071	-0.011249	NaN	0.000000	0.001657	0.001702	28.0831	0.031540	0.001849	17.0591	-167.036	-165.007	-0.119537	0.793453	-0.278213	-0.279473	-0.011249	17.0591	-0.277719	-2180.36	5.159242E-6	NaN
796	1.000000	0.802684	7.37284e+06	-39939.1	1055.82	-29792	0.000000	0.000000	6.803041	-0.058958	NaN	0.000000	0.001640	0.001685	28.083	0.138912	0.002035	68.2509	9.064316	-164.548	-0.047017	0.801413	-0.270242	-0.271513	-0.058958	68.2509	-0.269594	-1642.02	3.590603E-5	NaN
796	1.000000	0.810701	7.37284e+06	-39939.1	1055.82	-29792	0.000000	0.000000	6.811060	-0.015574	NaN	0.000000	0.001644	0.001654	28.0831	0.047707	0.002109	22.6243	171.185	-166.046	-0.039340	0.809438	-0.262225	-0.263488	-0.015574	22.6243	-0.261708	-1244.75	1.251177E-5	NaN
796	1.000000	0.818704	7.37284e+06	-39939.1	1055.82	-29792	0.000000	0.000000	6.819060	-0.076536	NaN	0.000000	0.001633	0.001717	28.0832	0.080772	0.001937	41.7097	42.3524	-168.678	0.005214	0.817423	-0.254222	-0.255503	-0.076536	41.7097	-0.252846	-909.753	8.412811E-5	NaN
796	1.000000	0.826721	7.37284e+06	-39939.1	1055.82	-29792	0.000000	0.000000	6.827078	-0.061835	NaN	0.000000	0.001637	0.001696	28.0832	0.096075	0.002008	47.8418	-101.237	-167.298	-0.053329	0.825420	-0.246205	-0.247506	-0.061835	47.8418	-0.245236	-693.612	8.914940E-5	NaN
796	1.000000	0.834720	7.37284e+06	-39939.1	1055.82	-29792	0.000000	0.000000	6.835077	-0.069034	NaN	0.000000	0.001589	0.001673	28.0832	0.105148	0.002134	49.2742	46.6808	-167.137	-0.103137	0.833401	-0.238206	-0.239525	-0.069034	49.2742	-0.237155	-518.859	0.000133	NaN
796	1.000000	0.842747	7.37284e+06	-39939.1	1055.82	-29792	0.000000	0.000000	6.843103	-0.091306	NaN	0.000000	0.001622	0.001667	28.0832	0.076149	0.002039	37.3518	170.996	-168.594	-0.046035	0.841418	-0.230179	-0.231508	-0.091306	37.3518	-0.228345	-377.02	0.000242	NaN
796	1.000000	0.850750	7.37284e+06	-39939.1	1055.82	-29792	0.000000	0.000000	6.851108	-0.018387	NaN	0.000000	0.001582	0.001674	28.0831	0.161114	0.001982	81.2792	169.574	-165.352	-0.046520	0.849446	-0.222176	-0.223480	-0.018387	81.2792	-0.222007	-299.022	6.149057E-5	NaN
796	1.000000	0.858731	7.37284e+06	-39939.1	1055.82	-29792	0.000000	0.000000	6.859088	-0.058930	NaN	0.000000	0.001596	0.001655	28.0829	0.035081	0.002104	16.6745	98.0281	-165.997	-0.093576	0.857433	-0.214195	-0.215493	-0.058930	16.6745	-0.211544	-203.143	0.000290	NaN
796	1.000000	0.866734	7.37284e+06	-39939.1	1055.82	-29792	0.000000	0.000000	6.867091	-0.057949	NaN	0.000000	0.001603	0.001673	28.0832	0.166218	0.002077	80.0104	-139.667	-167.796	-0.073049	0.865417	-0.206192	-0.207510	-0.057949	80.0104	-0.205649	-162.982	0.000356	NaN
796	1.000000	0.874736	7.37285e+06	-39939.1	1055.82	-29792	0.000000	0.000000	6.875091	-0.102152	NaN	0.000000	0.001645	0.001672	28.0834	0.059840	0.001984	30.163	163.127	-170.69	-0.082620	0.873372	-0.198190	-0.199554	-0.102152	30.163	-0.195650	-111.677	0.000915	NaN
796	1.000000	0.882734	7.37285e+06	-39939.1	1055.82	-29792	0.000000	0.000000	6.883093	-0.015554	NaN	0.000000	0.001614	0.001695	28.0824	0.088743	0.001909	46.4779	-146.774	-161.898	-0.021551	0.881363	-0.190192	-0.191563	-0.015554	46.4779	-0.189941	-89.7514	0.000173	NaN
796	1.000000	0.890748	7.37285e+06	-39939.1	1055.82	-29792	0.000000	0.000000	6.891105	-0.058222	NaN	0.000000	0.001649	0.001671	28.082	0.033678	0.001982	16.9914	33.2059	-164.227	-0.102763	0.889427	-0.182178	-0.183499	-0.058222	16.9914	-0.179608	-60.0885	0.000969	NaN
796	1.000000	0.898728	7.37285e+06	-39939.1	1055.82	-29792	0.000000	0.000000	6.899086	-0.024257	NaN	0.000000	0.001606	0.001700	28.082	0.083581	0.001933	43.2283	142.841	-167.696	0.006092	0.897443	-0.174198	-0.175483	-0.024257	43.2283	-0.173777	-47.7465	0.000508	NaN
796	1.000000	0.906771	7.37285e+06	-39939.1	1055.82	-29792	0.000000	0.000000	6.907131	0.002198	NaN	0.000000	0.001637	0.001698	28.0821	0.038675	0.002104	18.3792	-104.36	-165.698	-0.000404	0.905444	-0.166155	-0.167483	0.002198	18.3792	-0.166245	-35.3288	-6.222681E-5	NaN
796	1.000000	0.914746	7.37285e+06	-39939.1	1055.82	-29792	0.000000	0.000000	6.915103	-0.059531	NaN	0.000000	0.001636	0.001707	28.0821	0.030162	0.002150	14.0304	-17.19	-164.972	-0.018796	0.913431	-0.158180	-0.159495	-0.059531	14.0304	-0.154997	-22.3117	0.002668	NaN
796	1.000000	0.922736	7.37285e+06	-39939.1	1055.82	-29792	0.000000	0.000000	6.923094	-0.030493	NaN	0.000000	0.001622	0.001694	28.0821	0.093647	0.001989	47.0783	-171.956	-166.633	-0.036450	0.921456	-0.150190	-0.151470	-0.030493	47.0783	-0.149705	-17.8903	0.001704	NaN
796	1.000000	0.930756	7.37285e+06	-39939.1	1055.82	-29792	0.000000	0.000000	6.931112	-0.065444	NaN	0.000000	0.001604	0.001679	28.0823	0.028873	0.001977	14.6056	-165.928	-166.372	-0.021569	0.929491	-0.142170	-0.143435	-0.065444	14.6056	-0.138810	-11.2348	0.005825	NaN
796	1.000000	0.938747	7.37285e+06	-39939.1	1055.82	-29792	0.000000	0.000000	6.939105	-0.046319	NaN	0.000000	0.001668	0.001700	28.0825	0.017366	0.002146	8.093421	-93.8843	-165.734	-0.039896	0.937466	-0.134179	-0.135460	-0.046319	8.093421	-0.129886	-7.582341	0.006109	NaN
796	1.000000	0.946746	7.37285e+06	-39939.1	1055.82	-29792	0.000000	0.000000	6.947104	-0.027130	NaN	0.000000	0.001652	0.001712	28.082	0.047063	0.001974	23.8455	-169.877	-165.502	-0.005409	0.945444	-0.126180	-0.127483	-0.027130	23.8455	-0.125327	-6.172483	0.004395	NaN
796	1.000000	0.954740	7.37285e+06	-39939.1	1055.82	-29792	0.000000	0.000000	6.955101	0.056925	NaN	0.000000	0.001670	0.001725	28.0819	0.040249	0.001862	21.621	67.2151	-166.108	0.070456	0.953445	-0.118186	-0.119481	0.056925	21.621	-0.120161	-4.867754	-0.011694	NaN
796	1.000000	0.962776	7.37285e+06	-39939.1	1055.82	-29792	0.000000	0.000000	6.963132	-0.085434	NaN	0.000000	0.001671	0.001714	28.082	0.131054	0.002000	65.5408	146.628	-165.934	-0.050116	0.961579	-0.110150	-0.111347	-0.085434	65.5408	-0.109172	-2.886618	0.029597	NaN
796	1.000000	0.970783	7.37285e+06	-39939.1	1055.82	-29792	0.000000	0.000000	6.971139	-0.072283	NaN	0.000000	0.001624	0.001723	28.0819	0.112745	0.002004	56.2723	98.9924	-163.702	-0.058440	0.969499	-0.102143	-0.103427	-0.072283	56.2723	-0.101180	-1.940189	0.037255	NaN
796	1.000000	0.978783	7.37285e+06	-39939.1	1055.82	-29792	0.000000	0.000000	6.979139	-0.083050	NaN	0.000000	0.001621	0.001706	28.0819	0.066617	0.001934	34.4383	84.837	-165.798	-0.136614	0.977470	-0.094143	-0.095456	-0.083050	34.4383	-0.092334	-1.225183	0.067786	NaN
796	1.000000	0.986791	7.37285e+06	-39939.1	1055.82	-29792	0.000000	0.000000	6.987153	0.063378	NaN	0.000000	0.001656	0.001724	28.082	0.067174	0.002074	32.385	-142.582	-167.345	-0.032027	0.985504	-0.086135	-0.087422	0.063378	32.385	-0.087603	-0.948757	-0.066801	NaN
796	1.000000	0.994782	7.37285e+06	-39939.1	1055.82	-29792	0.000000	0.000000	6.995140	-0.019921	NaN	0.000000	0.001652	0.001694	28.082	0.014041	0.001963	7.151854	-166.407	-163.003	-0.058475	0.993498	-0.078144	-0.079428	-0.019921	7.151854	-0.076055	-0.491724	0.040512	NaN
796	1.000000	1.002794	7.37285e+06	-39939.1	1055.82	-29792	0.000000	0.000000	7.003155	0.029051	NaN	0.000000	0.001616	0.001712	28.0818	0.090845	0.001952	46.5313	125.588	-165.526	-0.070684	1.001499	-0.070132	-0.071427	0.029051	46.5313	-0.070600	-0.353940	-0.082078	NaN
796	1.000000	1.010787	7.37285e+06	-39939.1	1055.82	-29792	0.000000	0.000000	7.011145	-0.037215	NaN	0.000000	0.001657	0.001727	28.0817	0.052528	0.002069	25.3897	107.158	-165.711	-0.034172	1.009500	-0.062139	-0.063426	-0.037215	25.3897	-0.061040	-0.192851	0.192971	NaN
796	1.000000	1.018776	7.37285e+06	-39939.1	1055.82	-29792	0.000000	0.000000	7.019134	-0.012028	NaN	0.000000	0.001621	0.001698	28.0819	0.031931	0.001985	16.0836	-165.625	-166.566	-0.031937	1.017469	-0.054150	-0.055457	-0.012028	16.0836	-0.053590	-0.116949	0.102844	NaN
796	1.000000	1.026786	7.37285e+06	-39939.1	1055.82	-29792	0.000000	0.000000	7.027145	0.000939	NaN	0.000000	0.001650	0.001718	28.0829	0.084837	0.001934	43.8608	138.834	-163.844	-0.043497	1.025516	-0.046140	-0.047410	0.000939	43.8608	-0.046157	-0.069718	-0.013472	NaN
796	1.000000	1.034798	7.37285e+06	-39939.1	1055.82	-29792	0.000000	0.000000	7.035154	-0.061849	NaN	0.000000	0.001625	0.001689	28.0832	0.051608	0.002073	24.8961	171.179	-165.148	-0.084435	1.033468	-0.038128	-0.039459	-0.061849	24.8961	-0.036265	-0.034909	1.771726	NaN
796	1.000000	1.042810	7.37285e+06	-39939.1	1055.82	-29792	0.000000	0.000000	7.043165	-0.101364	NaN	0.000000	0.001635	0.001701	28.0831	0.102495	0.001892	54.1844	111.148	-164.813	-0.075341	1.041514	-0.030116	-0.031412	-0.101364	54.1844	-0.028713	-0.021204	4.780519	NaN
796	1.000000	1.050793	7.37285e+06	-39939.1	1055.82	-29792	0.000000	0.000000	7.051151	-0.037639	NaN	0.000000	0.001617	0.001721	28.0828	0.080929	0.001987	40.725	154.004	-168.27	-0.048005	1.049495	-0.022133	-0.023431	-0.037639	40.725	-0.021440	-0.013665	2.754324	NaN
796	1.000000	1.058809	7.37285e+06	-39939.1	1055.82	-29792	0.000000	0.000000	7.059173	0.126273	NaN	0.000000	0.001614	0.001718	28.0828	0.251873	0.002141	117.619	-0.030223	-162.431	0.042785	1.057545	-0.014117	-0.015382	0.126273	117.619	-0.014922	-0.009229	-13.6822	NaN
796	1.000000	1.066798	7.37285e+06	-39939.1	1055.82	-29792	0.000000	0.000000	7.067270	2.737677	NaN	0.000000	0.001631	0.001673	28.0828	2.267155	0.001943	1166.6	10.022	-165.149	2.304410	1.065486	-0.006128	-0.007440	2.737677	1166.6	-0.007888	-0.005166	-529.951	NaN
796	1.000000	1.074797	7.37285e+06	-39939.1	1055.82	-29792	0.000000	0.000000	7.075369	5.179994	NaN	0.000000	0.001638	0.001699	28.0831	4.250154	0.001891	2247.25	15.4939	-169.51	4.731741	1.073515	0.001871	0.000589	5.179994	2247.25	0.000142	0.000107	48561.8	198796
796	2.000000	1.079435	7.37285e+06	-39939.1	1055.82	-29792	0.000000	0.000000	7.080147	8.601717	NaN	0.000000	0.001597	0.001653	28.0829	8.321937	0.001772	4697.06	10.1447	-173.376	8.216510	1.079129	0.006509	0.006203	8.601717	4697.06	0.005135	0.004257	2020.6	65772.9
796	2.000000	1.081381	7.37285e+06	-39939.1	1055.82	-29792	0.000000	0.000000	7.082227	11.8465	NaN	0.000000	0.001573	0.001642	28.0828	9.868945	0.001576	6260.89	8.237211	-175.354	11.3342	1.081086	0.008455	0.008160	11.8465	6260.89	0.007035	0.006069	1951.99	73426.6
796	2.000000	1.083393	7.37285e+06	-39939.1	1055.82	-29792	0.000000	0.000000	7.084332	14.0924	NaN	0.000000	0.001594	0.001685	28.0829	12.464	0.001745	7144.29	5.153185	-171.466	14.0402	1.083037	0.010467	0.010110	14.0924	7144.29	0.008988	0.008078	1744.54	72623.9
796	2.000000	1.085370	7.37285e+06	-39939.1	1055.82	-29792	0.000000	0.000000	7.086492	18.5639	NaN	0.000000	0.001620	0.001678	28.083	14.6546	0.001746	8394	7.246784	-175.708	17.3394	1.084950	0.012444	0.012024	18.5639	8394	0.010785	0.010068	1843.94	76433
796	2.000000	1.087345	7.37285e+06	-39939.1	1055.82	-29792	0.000000	0.000000	7.088530	20.1022	NaN	0.000000	0.001643	0.001698	28.0834	16.7544	0.001825	9178.32	7.546238	-176.089	19.9381	1.087054	0.014419	0.014128	20.1022	9178.32	0.012776	0.012433	1616.8	75204.4
796	2.000000	1.089326	7.37285e+06	-39939.1	1055.82	-29792	0.000000	0.000000	7.090731	25.4277	NaN	0.000000	0.001638	0.001704	28.083	19.0239	0.001834	10374.2	8.413984	-178.184	24.9571	1.089024	0.016400	0.016098	25.4277	10374.2	0.014562	0.014706	1729.1	78159.7
796	2.000000	1.091296	7.37285e+06	-39939.1	1055.82	-29792	0.000000	0.000000	7.092905	30.3985	NaN	0.000000	0.001624	0.001643	28.0829	20.3937	0.001690	12067.1	6.989377	-178.523	28.5283	1.090956	0.018370	0.018030	30.3985	12067.1	0.016481	0.017311	1755.98	83793.3
796	2.000000	1.093276	7.37285e+06	-39939.1	1055.82	-29792	0.000000	0.000000	7.095098	35.5941	NaN	0.000000	0.001582	0.001649	28.0832	22.5621	0.001766	12773.8	2.756261	-174.041	33.8649	1.093004	0.020350	0.020078	35.5941	12773.8	0.018260	0.019882	1790.3	82769.1
796	2.000000	1.095336	7.37285e+06	-39939.1	1055.82	-29792	0.000000	0.000000	7.097263	38.1645	NaN	0.000000	0.001596	0.001632	28.0828	24.9633	0.001817	13742.1	6.287873	-177.809	38.3829	1.094999	0.022410	0.022073	38.1645	13742.1	0.020327	0.023058	1655.12	82681.9
796	2.000000	1.097275	7.37285e+06	-39939.1	1055.82	-29792	0.000000	0.000000	7.099396	42.8819	NaN	0.000000	0.001578	0.001668	28.0827	25.9731	0.001812	14337.8	0.903577	-173.895	41.1778	1.097034	0.024349	0.024108	42.8819	14337.8	0.022106	0.025960	1651.86	81303
796	2.000000	1.099308	7.37285e+06	-39939.1	1055.82	-29792	0.000000	0.000000	7.101559	46.0129	NaN	0.000000	0.001574	0.001647	28.0817	28.9218	0.001798	16082.4	2.487757	-177.009	44.9786	1.099088	0.026382	0.026162	46.0129	16082.4	0.024237	0.029641	1552.32	85344.1
796	2.000000	1.101360	7.37285e+06	-39939.1	1055.82	-29792	0.000000	0.000000	7.103992	55.2955	NaN	0.000000	0.001575	0.001648	28.0816	30.1546	0.001865	16165	5.245723	-178.676	56.5854	1.101015	0.028434	0.028089	55.2955	16165	0.025869	0.032615	1695.4	81778.4
796	2.000000	1.103281	7.37285e+06	-39939.1	1055.82	-29792	0.000000	0.000000	7.106170	61.5555	NaN	0.000000	0.001578	0.001640	28.0816	32.8743	0.001831	17951.3	5.234273	-179.587	61.0168	1.103034	0.030355	0.030108	61.5555	17951.3	0.027783	0.036274	1696.96	86113.7
796	2.000000	1.105312	7.37285e+06	-39939.1	1055.82	-29792	0.000000	0.000000	7.108485	68.4767	NaN	0.000000	0.001600	0.001645	28.0815	35.5725	0.001876	18959.4	11.1386	173.217	67.6993	1.104982	0.032386	0.032056	68.4767	18959.4	0.029677	0.040077	1708.64	86527.2
796	2.000000	1.107325	7.37285e+06	-39939.1	1055.82	-29792	0.000000	0.000000	7.110562	70.0192	NaN	0.000000	0.001548	0.001685	28.0818	36.7254	0.001834	20027	6.199511	177.35	71.0635	1.107090	0.034399	0.034164	70.0192	20027	0.031777	0.044508	1573.2	86730.7
796	2.000000	1.109250	7.37285e+06	-39939.1	1055.82	-29792	0.000000	0.000000	7.112914	80.4103	NaN	0.000000	0.001565	0.001679	28.0819	39.6937	0.001924	20630.5	9.057359	174.169	77.1548	1.108949	0.036324	0.036023	80.4103	20630.5	0.033401	0.048087	1672.17	85954.3
796	2.000000	1.111317	7.37285e+06	-39939.1	1055.82	-29792	0.000000	0.000000	7.115240	86.7252	NaN	0.000000	0.001583	0.001636	28.0822	40.3321	0.001833	22005.6	5.222357	177.11	87.3044	1.111013	0.038391	0.038087	86.7252	22005.6	0.035435	0.052763	1643.66	87526.7
796	2.000000	1.113237	7.37285e+06	-39939.1	1055.82	-29792	0.000000	0.000000	7.117558	96.4176	NaN	0.000000	0.001573	0.001702	28.0819	41.7339	0.001754	23787.2	7.094811	175.187	94.8864	1.112954	0.040311	0.040028	96.4176	23787.2	0.037271	0.057165	1686.65	90897.3
796	2.000000	1.115350	7.37285e+06	-39939.1	1055.82	-29792	0.000000	0.000000	7.120038	105.338	NaN	0.000000	0.001600	0.001694	28.0816	42.9002	0.001649	26015.3	0.682094	-178.903	103.892	1.114960	0.042424	0.042034	105.338	26015.3	0.039387	0.062454	1686.67	95109.3
796	2.000000	1.117281	7.37285e+06	-39939.1	1055.82	-29792	0.000000	0.000000	7.122324	113.983	NaN	0.000000	0.001612	0.001672	28.0817	45.8282	0.001797	25497.8	7.536787	174.447	113.858	1.116943	0.044355	0.044017	113.983	25497.8	0.041002	0.066644	1710.32	90238.9
796	2.000000	1.119229	7.37285e+06	-39939.1	1055.82	-29792	0.000000	0.000000	7.124678	123.856	NaN	0.000000	0.001583	0.001689	28.0818	48.1728	0.001763	27330.2	5.336219	175.633	121.65	1.118891	0.046303	0.045965	123.856	27330.2	0.042904	0.071748	1726.25	93220.2
796	2.000000	1.121256	7.37285e+06	-39939.1	1055.82	-29792	0.000000	0.000000	7.127036	131.899	NaN	0.000000	0.001588	0.001684	28.0821	48.6789	0.001747	27860.9	3.687121	177.586	129.891	1.120956	0.048330	0.048030	131.899	27860.9	0.044779	0.076962	1713.81	91754.9
796	2.000000	1.123251	7.37285e+06	-39939.1	1055.82	-29792	0.000000	0.000000	7.129449	142.062	NaN	0.000000	0.001579	0.001689	28.082	51.6233	0.001691	30535.2	4.476519	175.767	140.544	1.122871	0.050325	0.049945	142.062	30535.2	0.046836	0.082885	1713.97	96902.9
796	2.000000	1.125294	7.37285e+06	-39939.1	1055.82	-29792	0.000000	0.000000	7.131959	153.434	NaN	0.000000	0.001565	0.001701	28.0816	54.0924	0.001802	30022.6	5.733517	175.925	152.656	1.124925	0.052368	0.051999	153.434	30022.6	0.048535	0.087940	1744.77	92497.3
796	2.000000	1.127219	7.37285e+06	-39939.1	1055.82	-29792	0.000000	0.000000	7.134101	158.722	NaN	0.000000	0.001563	0.001722	28.0818	56.2837	0.001810	31092.6	7.657120	172.205	157.149	1.126998	0.054293	0.054072	158.722	31092.6	0.050464	0.093854	1691.17	92726.7
796	2.000000	1.129229	7.37285e+06	-39939.1	1055.82	-29792	0.000000	0.000000	7.136444	166.828	NaN	0.000000	0.001563	0.001638	28.0819	58.0758	0.001819	31925	3.605851	176.136	162.797	1.128961	0.056303	0.056035	166.828	31925	0.052383	0.099922	1669.57	92272.5
796	2.000000	1.131302	7.37285e+06	-39939.1	1055.82	-29792	0.000000	0.000000	7.139224	184.016	NaN	0.000000	0.001564	0.001692	28.0821	58.8058	0.001786	32925.4	5.421427	175.037	185.461	1.130793	0.058376	0.057867	184.016	32925.4	0.054185	0.105785	1739.53	92489.7
796	2.000000	1.133226	7.37285e+06	-39939.1	1055.82	-29792	0.000000	0.000000	7.141425	190.777	NaN	0.000000	0.001567	0.001723	28.0832	63.5251	0.001877	33845.2	10.9749	168.997	189.391	1.132892	0.060300	0.059966	190.777	33845.2	0.056072	0.112102	1701.81	92355.7
796	2.000000	1.135244	7.37285e+06	-39939.1	1055.82	-29792	0.000000	0.000000	7.143985	203.974	NaN	0.000000	0.001540	0.001698	28.0828	63.8324	0.001891	33751.7	2.781284	177.616	202.477	1.134828	0.062318	0.061902	203.974	33751.7	0.057785	0.117986	1728.81	89774.8
796	2.000000	1.137217	7.37285e+06	-39939.1	1055.82	-29792	0.000000	0.000000	7.146346	213.402	NaN	0.000000	0.001593	0.001704	28.083	65.178	0.001808	36047.4	3.928390	175.04	210.855	1.136985	0.064291	0.064059	213.402	36047.4	0.059851	0.125274	1703.49	93050.1
796	2.000000	1.139248	7.37285e+06	-39939.1	1055.82	-29792	0.000000	0.000000	7.148895	226.017	NaN	0.000000	0.001561	0.001665	28.083	67.5234	0.001741	38773.9	6.545302	171.493	226.761	1.139031	0.066322	0.066105	226.017	38773.9	0.061950	0.132894	1700.73	97176.2
796	2.000000	1.141217	7.37285e+06	-39939.1	1055.82	-29792	0.000000	0.000000	7.151540	242.453	NaN	0.000000	0.001574	0.001657	28.0833	67.6775	0.001847	36642.7	4.618043	175.01	241.409	1.140869	0.068291	0.067943	242.453	36642.7	0.063329	0.138014	1756.73	90115.6
796	2.000000	1.143229	7.37285e+06	-39939.1	1055.82	-29792	0.000000	0.000000	7.153835	249.345	NaN	0.000000	0.001600	0.001637	28.0839	72.128	0.001819	39654.4	4.102828	173.952	250.103	1.142962	0.070303	0.070036	249.345	39654.4	0.065587	0.146601	1700.83	94622.6
796	2.000000	1.145243	7.37285e+06	-39939.1	1055.82	-29792	0.000000	0.000000	7.156587	267.299	NaN	0.000000	0.001584	0.001685	28.0831	75.2047	0.001890	39797.2	7.712968	171.54	266.589	1.144842	0.072317	0.071916	267.299	39797.2	0.067279	0.153197	1744.81	92896.8
796	2.000000	1.147282	7.37285e+06	-39939.1	1055.82	-29792	0.000000	0.000000	7.158924	274.553	NaN	0.000000	0.001578	0.001660	28.083	75.5457	0.001720	43922.1	2.109302	175.695	277.68	1.146889	0.074356	0.073962	274.553	43922.1	0.069668	0.162738	1687.08	99474.5
796	2.000000	1.149164	7.37285e+06	-39939.1	1055.82	-29792	0.000000	0.000000	7.161318	287.015	NaN	0.000000	0.001601	0.001699	28.0831	77.8267	0.001866	41710.7	1.883299	176.397	282.263	1.148960	0.076238	0.076034	287.015	41710.7	0.071077	0.168495	1703.4	92838.2
796	2.000000	1.151202	7.37285e+06	-39939.1	1055.82	-29792	0.000000	0.000000	7.164222	308.075	NaN	0.000000	0.001614	0.001701	28.0831	79.4952	0.001881	42270.8	8.661481	169.455	306.813	1.150909	0.078276	0.077983	308.075	42270.8	0.072810	0.175707	1753.35	92133.9
796	2.000000	1.153162	7.37285e+06	-39939.1	1055.82	-29792	0.000000	0.000000	7.166535	316.668	NaN	0.000000	0.001602	0.001673	28.0833	81.8897	0.001942	42160.1	5.359576	173.165	311.787	1.152865	0.080236	0.079938	316.668	42160.1	0.074603	0.183315	1727.45	89965.5
796	2.000000	1.155276	7.37285e+06	-39939.1	1055.82	-29792	0.000000	0.000000	7.169248	331.24	NaN	0.000000	0.001551	0.001681	28.0829	81.7482	0.001707	47879.2	0.151884	176.894	331.394	1.155033	0.082350	0.082107	331.24	47879.2	0.077161	0.194433	1703.62	99205.3
796	2.000000	1.157257	7.37285e+06	-39939.1	1055.82	-29792	0.000000	0.000000	7.171579	339.771	NaN	0.000000	0.001593	0.001646	28.0829	84.1125	0.001793	46899.9	3.783543	173.154	339.147	1.156982	0.084331	0.084056	339.771	46899.9	0.078897	0.202153	1680.76	95302.8
796	2.000000	1.159383	7.37285e+06	-39939.1	1055.82	-29792	0.000000	0.000000	7.174068	348.612	NaN	0.000000	0.001552	0.001626	28.0829	86.7462	0.001779	48749.7	4.290278	172.712	357.25	1.159008	0.086457	0.086082	348.612	48749.7	0.081094	0.212121	1643.46	96706
796	2.000000	1.161250	7.37285e+06	-39939.1	1055.82	-29792	0.000000	0.000000	7.177077	376.409	NaN	0.000000	0.001579	0.001632	28.0828	87.8848	0.001824	48178.3	6.964193	171.087	376.179	1.160846	0.088324	0.087920	376.409	48178.3	0.082464	0.218452	1723.07	94177.3
796	2.000000	1.163233	7.37285e+06	-39939.1	1055.82	-29792	0.000000	0.000000	7.179642	390.565	NaN	0.000000	0.001556	0.001646	28.0831	90.326	0.001855	48701.7	5.870917	171.291	392.032	1.162836	0.090307	0.089910	390.565	48701.7	0.084292	0.227037	1720.27	93383.3
796	2.000000	1.165269	7.37285e+06	-39939.1	1055.82	-29792	0.000000	0.000000	7.182298	405.625	NaN	0.000000	0.001575	0.001645	28.0829	92.699	0.001806	51320.8	9.914315	167.974	405.9	1.164766	0.092343	0.091840	405.625	51320.8	0.086416	0.237201	1710.05	96274
796	2.000000	1.167213	7.37285e+06	-39939.1	1055.82	-29792	0.000000	0.000000	7.184918	422.109	NaN	0.000000	0.001581	0.001663	28.0819	93.7005	0.001774	52814.1	10.0748	167.043	422.476	1.166775	0.094287	0.093849	422.109	52814.1	0.088292	0.246358	1713.4	97216.5
796	2.000000	1.169181	7.37285e+06	-39939.1	1055.82	-29792	0.000000	0.000000	7.187467	436.227	NaN	0.000000	0.001578	0.001676	28.0818	96.8158	0.001855	52192.7	3.114823	173.222	435.48	1.169055	0.096255	0.096129	436.227	52192.7	0.089987	0.254763	1712.29	94474.6
796	2.000000	1.171143	7.37285e+06	-39939.1	1055.82	-29792	0.000000	0.000000	7.190093	452.398	NaN	0.000000	0.001596	0.001656	28.082	96.4977	0.001703	56649.9	6.403509	170.027	448.464	1.170823	0.098217	0.097897	452.398	56649.9	0.092227	0.266081	1700.23	100338
796	2.000000	1.173215	7.37285e+06	-39939.1	1055.82	-29792	0.000000	0.000000	7.192913	470.599	NaN	0.000000	0.001569	0.001646	28.082	98.5053	0.001732	56889.2	0.714751	175.843	468.969	1.172758	0.100289	0.099832	470.599	56889.2	0.094085	0.275636	1707.32	98999.9
796	2.000000	1.175141	7.37285e+06	-39939.1	1055.82	-29792	0.000000	0.000000	7.195661	490.594	NaN	0.000000	0.001551	0.001665	28.0821	101.746	0.001887	53922.4	6.623584	170.292	483.885	1.174706	0.102215	0.101780	490.594	53922.4	0.095392	0.282455	1736.89	92697.4
796	2.000000	1.176711	7.37285e+06	-39939.1	1055.82	-29792	0.000000	0.000000	7.197633	500.377	NaN	0.000000	0.001595	0.001671	28.082	104.082	0.001830	56867.8	8.302501	-12.2681	496.368	1.176278	0.103785	0.103352	500.377	56867.8	0.097186	0.291943	1713.95	96159.2