File: remote_trans/data/nanoindenter/0828-1/data/Data_2025-08-06,11h17m57s/2025-07-22_16-23-58_1_299.txt
2025-07-22, 16:23:58, 1
Index	Phase	Displacement	Time	Pos X	Pos Y	Pos Z	Rot A	Rot B	Piezo Z	Force A	Force B	Gripper	Voltage A	Voltage B	Temperature	Amplitude force	Amplitude pos	Stiffness	Phase shift	Phase excitation	Force A raw	Displacement raw	HMax	HMax raw	Real Force	Real Stiffness	Contact Depth	Area	Hardness	Reduced Mod.
[#]	[#]	[um]	[s]	[um]	[um]	[um]	[m°]	[m°]	[um]	[uN]	[uN]	[V]	[V]	[V]	[°C]	[uN]	[um]	[N/m]	[°]	[°]	[uN]	[um]	[um]	[um]	[uN]	[N/m]	[um]	[um^2]	[MPa]	[MPa]
299	1.000000	0.002959	7.36799e+06	-53589.1	955.819	-29746.1	0.000000	0.000000	6.002805	-0.008289	NaN	0.000000	0.001606	0.001611	28.0806	0.111694	0.000975	114.538	78.3964	-161.613	-0.023189	0.001707	-1.138525	-1.139777	-0.008289	114.538	-1.138471	-1.645238E+15	5.038210E-18	NaN
299	1.000000	0.013010	7.36799e+06	-53589.1	955.819	-29746.1	0.000000	0.000000	6.012860	0.092166	NaN	0.000000	0.001592	0.001622	28.0809	0.169619	0.001280	132.483	-26.1747	18.0423	0.075254	0.011555	-1.128475	-1.129929	0.092166	132.483	-1.128997	-1.227899E+15	-7.505974E-17	NaN
299	1.000000	0.022889	7.36799e+06	-53589.1	955.818	-29746.1	0.000000	0.000000	6.022737	0.041890	NaN	0.000000	0.001619	0.001631	28.0808	0.075227	0.001734	43.3911	25.7433	-164.657	0.041298	0.021583	-1.118596	-1.119901	0.041890	43.3911	-1.119320	-9.106410E+14	-4.600083E-17	NaN
299	1.000000	0.032911	7.36799e+06	-53589.1	955.818	-29746.1	0.000000	0.000000	6.032758	0.009398	NaN	0.000000	0.001585	0.001632	28.0804	0.036820	0.001910	19.2765	-4.869944	14.5417	0.028552	0.031540	-1.108573	-1.109944	0.009398	19.2765	-1.108939	-6.607649E+14	-1.422276E-17	NaN
299	1.000000	0.042936	7.36799e+06	-53589.1	955.818	-29746.1	0.000000	0.000000	6.042782	0.009391	NaN	0.000000	0.001598	0.001654	28.0809	0.038507	0.002006	19.1971	170.142	-166.142	0.074595	0.041624	-1.098549	-1.099860	0.009391	19.1971	-1.098916	-4.847421E+14	-1.937373E-17	NaN
299	1.000000	0.052917	7.36799e+06	-53589.1	955.817	-29746.1	0.000000	0.000000	6.052763	-0.017835	NaN	0.000000	0.001625	0.001626	28.0805	0.090782	0.001961	46.2923	29.9449	18.7231	-0.073127	0.051512	-1.088567	-1.089972	-0.017835	46.2923	-1.088278	-3.488908E+14	5.111897E-17	NaN
299	1.000000	0.062908	7.36799e+06	-53589.1	955.819	-29746.1	0.000000	0.000000	6.062751	-0.079414	NaN	0.000000	0.001606	0.001612	28.0805	0.144341	0.001935	74.6049	168.759	-161.906	-0.048217	0.061648	-1.078576	-1.079836	-0.079414	74.6049	-1.077778	-2.521588E+14	3.149364E-16	NaN
299	1.000000	0.072897	7.36799e+06	-53589.1	955.818	-29746.1	0.000000	0.000000	6.072743	-0.005645	NaN	0.000000	0.001673	0.001647	28.0807	0.080348	0.001979	40.5909	136.808	14.0395	-0.013551	0.071537	-1.068587	-1.069947	-0.005645	40.5909	-1.068483	-1.891497E+14	2.984232E-17	NaN
299	1.000000	0.082873	7.36799e+06	-53589.1	955.818	-29746.1	0.000000	0.000000	6.082721	0.053412	NaN	0.000000	0.001610	0.001626	28.0806	0.061119	0.001888	32.3806	-179.665	-166.324	-0.008183	0.081675	-1.058612	-1.059809	0.053412	32.3806	-1.059849	-1.448073E+14	-3.688479E-16	NaN
299	1.000000	0.092919	7.36799e+06	-53589.1	955.818	-29746.1	0.000000	0.000000	6.092766	0.003553	NaN	0.000000	0.001637	0.001618	28.0806	0.155328	0.001841	84.3851	-158.377	17.1558	0.002260	0.091557	-1.048565	-1.049928	0.003553	84.3851	-1.048597	-1.022236E+14	-3.475546E-17	NaN
299	1.000000	0.102918	7.36799e+06	-53589.1	955.818	-29746.1	0.000000	0.000000	6.102763	-0.014985	NaN	0.000000	0.001644	0.001628	28.0808	0.080473	0.001917	41.972	41.949	-161.247	0.013528	0.101587	-1.038567	-1.039897	-0.014985	41.972	-1.038299	-7.431782E+13	2.016345E-16	NaN
299	1.000000	0.112925	7.36799e+06	-53589.1	955.819	-29746.1	0.000000	0.000000	6.112774	0.079339	NaN	0.000000	0.001662	0.001617	28.0811	0.102381	0.001916	53.4415	-151.988	14.1707	0.094338	0.111571	-1.028559	-1.029913	0.079339	53.4415	-1.029673	-5.689582E+13	-1.394454E-15	NaN
299	1.000000	0.122941	7.36799e+06	-53589.1	955.818	-29746.1	0.000000	0.000000	6.122786	-0.026471	NaN	0.000000	0.001670	0.001669	28.0808	0.064668	0.002034	31.7905	-129.124	-165.162	0.092478	0.121652	-1.018544	-1.019832	-0.026471	31.7905	-1.017919	-3.953267E+13	6.695944E-16	NaN
299	1.000000	0.132943	7.36799e+06	-53589.1	955.818	-29746.1	0.000000	0.000000	6.132790	0.002444	NaN	0.000000	0.001675	0.001610	28.0798	0.084069	0.002000	42.0441	-36.6176	12.4515	-0.026251	0.131550	-1.008541	-1.009934	0.002444	42.0441	-1.008584	-2.960262E+13	-8.254668E-17	NaN
299	1.000000	0.142929	7.36799e+06	-53589.1	955.818	-29746.1	0.000000	0.000000	6.142777	0.037118	NaN	0.000000	0.001643	0.001644	28.0794	0.075723	0.002062	36.726	-133.756	-167.846	0.066850	0.141696	-0.998555	-0.999789	0.037118	36.726	-0.999313	-2.220879E+13	-1.671339E-15	NaN
299	1.000000	0.152951	7.36799e+06	-53589.1	955.818	-29746.1	0.000000	0.000000	6.152799	0.053519	NaN	0.000000	0.001623	0.001623	28.0797	0.031335	0.001973	15.8838	150.946	11.3629	0.056497	0.151628	-0.988533	-0.989856	0.053519	15.8838	-0.991060	-1.719467E+13	-3.112528E-15	NaN
299	1.000000	0.162953	7.36799e+06	-53589.1	955.818	-29746.1	0.000000	0.000000	6.162799	0.007103	NaN	0.000000	0.001657	0.001617	28.0799	0.083974	0.001940	43.2808	116.11	-165.028	-0.055811	0.161625	-0.978532	-0.979859	0.007103	43.2808	-0.978655	-1.170271E+13	-6.069961E-16	NaN
299	1.000000	0.172955	7.36799e+06	-53589.1	955.818	-29746.1	0.000000	0.000000	6.172802	0.023258	NaN	0.000000	0.001642	0.001635	28.0798	0.041812	0.001905	21.9463	146.994	13.4938	0.034168	0.171585	-0.968529	-0.969899	0.023258	21.9463	-0.969324	-8.760975E+12	-2.654699E-15	NaN
299	1.000000	0.182918	7.36799e+06	-53589.1	955.818	-29746.1	0.000000	0.000000	6.182766	0.041649	NaN	0.000000	0.001676	0.001610	28.0793	0.106539	0.002049	51.9902	-150.238	-166.259	0.039356	0.181658	-0.958567	-0.959826	0.041649	51.9902	-0.959167	-6.392122E+12	-6.515707E-15	NaN
299	1.000000	0.192942	7.36799e+06	-53589.1	955.818	-29746.1	0.000000	0.000000	6.192791	0.060698	NaN	0.000000	0.001663	0.001633	28.0797	0.113320	0.002014	56.2771	-140.689	16.6564	0.094062	0.191605	-0.948542	-0.949880	0.060698	56.2771	-0.949351	-4.712734E+12	-1.287950E-14	NaN
299	1.000000	0.202957	7.36799e+06	-53589.1	955.818	-29746.1	0.000000	0.000000	6.202805	0.040580	NaN	0.000000	0.001625	0.001621	28.0796	0.058492	0.002054	28.4742	-120.353	-163.553	0.038898	0.201654	-0.938527	-0.939830	0.040580	28.4742	-0.939596	-3.480886E+12	-1.165795E-14	NaN
299	1.000000	0.212975	7.36799e+06	-53589.1	955.818	-29746.1	0.000000	0.000000	6.212822	0.009982	NaN	0.000000	0.001681	0.001634	28.0796	0.037001	0.002095	17.6596	68.6725	15.1546	-0.030633	0.211598	-0.928509	-0.929886	0.009982	17.6596	-0.928933	-2.499157E+12	-3.994186E-15	NaN
299	1.000000	0.222983	7.36799e+06	-53589.1	955.818	-29746.1	0.000000	0.000000	6.222829	-0.006924	NaN	0.000000	0.001654	0.001623	28.0795	0.062041	0.002064	30.0605	177.654	-161.208	0.076257	0.221669	-0.918502	-0.919816	-0.006924	30.0605	-0.918329	-1.797399E+12	3.852486E-15	NaN
299	1.000000	0.232990	7.36799e+06	-53589.1	955.818	-29746.1	0.000000	0.000000	6.232840	0.079330	NaN	0.000000	0.001682	0.001623	28.0796	0.121147	0.002004	60.4409	-114.305	16.0835	-0.012339	0.231626	-0.908494	-0.909858	0.079330	60.4409	-0.909479	-1.364961E+12	-5.811925E-14	NaN
299	1.000000	0.242959	7.36799e+06	-53589.1	955.818	-29746.1	0.000000	0.000000	6.242806	0.012468	NaN	0.000000	0.001614	0.001640	28.0792	0.074214	0.001936	38.3316	105.219	-168.202	-0.090919	0.241624	-0.898525	-0.899860	0.012468	38.3316	-0.898769	-9.782168E+11	-1.274594E-14	NaN
299	1.000000	0.252983	7.36799e+06	-53589.1	955.817	-29746.1	0.000000	0.000000	6.252830	-0.000699	NaN	0.000000	0.001618	0.001658	28.0794	0.064086	0.002004	31.9806	-54.0015	15.0748	-0.073432	0.251633	-0.888501	-0.889851	-0.000699	31.9806	-0.888484	-7.102773E+11	9.840171E-16	NaN
299	1.000000	0.263008	7.36799e+06	-53589.1	955.818	-29746.1	0.000000	0.000000	6.262854	-0.002561	NaN	0.000000	0.001635	0.001654	28.0796	0.140383	0.002072	67.749	-154.804	-166.848	-0.003464	0.261703	-0.878477	-0.879782	-0.002561	67.749	-0.878448	-5.196632E+11	4.928682E-15	NaN
299	1.000000	0.272963	7.36799e+06	-53589.1	955.818	-29746.1	0.000000	0.000000	6.272810	0.030383	NaN	0.000000	0.001622	0.001652	28.0809	0.092269	0.001846	49.9961	107.47	12.0876	0.048993	0.271666	-0.868522	-0.869819	0.030383	49.9961	-0.868977	-3.869089E+11	-7.852710E-14	NaN
299	1.000000	0.282970	7.36799e+06	-53589.1	955.818	-29746.1	0.000000	0.000000	6.282816	-0.000849	NaN	0.000000	0.001633	0.001665	28.0808	0.105255	0.002083	50.5425	2.538226	-165.59	-0.014407	0.281725	-0.858514	-0.859759	-0.000849	50.5425	-0.858502	-2.791525E+11	3.041431E-15	NaN
299	1.000000	0.293012	7.36799e+06	-53589.1	955.818	-29746.1	0.000000	0.000000	6.292859	0.015604	NaN	0.000000	0.001642	0.001681	28.081	0.092841	0.002070	44.8454	91.3039	10.8221	-0.021720	0.291661	-0.848472	-0.849824	0.015604	44.8454	-0.848733	-2.058642E+11	-7.579591E-14	NaN
299	1.000000	0.303013	7.36799e+06	-53589.1	955.818	-29746.1	0.000000	0.000000	6.302861	0.029194	NaN	0.000000	0.001620	0.001672	28.0809	0.061739	0.001984	31.1237	135.076	-167.552	0.083857	0.301716	-0.838471	-0.839768	0.029194	31.1237	-0.839175	-1.527953E+11	-1.910672E-13	NaN
299	1.000000	0.313011	7.36799e+06	-53589.1	955.817	-29746.1	0.000000	0.000000	6.312859	0.046274	NaN	0.000000	0.001607	0.001659	28.0814	0.069906	0.002100	33.2854	-42.9114	17.0576	0.017487	0.311646	-0.828474	-0.829839	0.046274	33.2854	-0.829516	-1.130391E+11	-4.093586E-13	NaN
299	1.000000	0.322976	7.36799e+06	-53589.1	955.817	-29746.1	0.000000	0.000000	6.322824	0.038590	NaN	0.000000	0.001627	0.001650	28.081	0.089045	0.001965	45.3243	-163.98	-165.33	0.099487	0.321641	-0.818508	-0.819843	0.038590	45.3243	-0.819147	-8.177892E+10	-4.718850E-13	NaN
299	1.000000	0.333035	7.36799e+06	-53589.1	955.818	-29746.1	0.000000	0.000000	6.332880	-0.040590	NaN	0.000000	0.001609	0.001675	28.081	0.042345	0.001972	21.4766	39.8098	16.1222	-0.018399	0.331667	-0.808449	-0.809818	-0.040590	21.4766	-0.807032	-5.601436E+10	7.246325E-13	NaN
299	1.000000	0.343031	7.36799e+06	-53589.1	955.818	-29746.1	0.000000	0.000000	6.342877	0.000210	NaN	0.000000	0.001602	0.001645	28.081	0.070744	0.001989	35.5764	54.2527	-167.249	0.045105	0.341762	-0.798454	-0.799722	0.000210	35.5764	-0.798458	-4.284812E+10	-4.909592E-15	NaN
299	1.000000	0.353035	7.36799e+06	-53589.1	955.818	-29746.1	0.000000	0.000000	6.352882	0.024312	NaN	0.000000	0.001579	0.001645	28.0811	0.047215	0.002049	23.045	-139.778	16.4341	0.027149	0.351716	-0.788449	-0.789769	0.024312	23.045	-0.789241	-3.211956E+10	-7.569268E-13	NaN
299	1.000000	0.363065	7.36799e+06	-53589.1	955.818	-29746.1	0.000000	0.000000	6.362911	-0.011322	NaN	0.000000	0.001590	0.001625	28.0808	0.066407	0.002039	32.5667	106.676	-165.455	-0.040254	0.361790	-0.778419	-0.779695	-0.011322	32.5667	-0.778158	-2.270931E+10	4.985612E-13	NaN
299	1.000000	0.373027	7.36799e+06	-53589.1	955.818	-29746.1	0.000000	0.000000	6.372873	-0.005916	NaN	0.000000	0.001603	0.001639	28.0809	0.075233	0.001900	39.5934	155.429	16.5645	0.037987	0.371708	-0.768458	-0.769777	-0.005916	39.5934	-0.768346	-1.670369E+10	3.541984E-13	NaN
299	1.000000	0.383050	7.36799e+06	-53589.1	955.819	-29746.1	0.000000	0.000000	6.382897	0.026518	NaN	0.000000	0.001615	0.001635	28.0809	0.039870	0.001959	20.3519	152.086	-166.954	0.000164	0.381720	-0.758435	-0.759764	0.026518	20.3519	-0.759412	-1.262710E+10	-2.100068E-12	NaN
299	1.000000	0.393041	7.36799e+06	-53589.1	955.816	-29746.1	0.000000	0.000000	6.392885	-0.048229	NaN	0.000000	0.001565	0.001665	28.0808	0.040205	0.001919	20.9456	41.2302	13.9491	-0.031919	0.391746	-0.748444	-0.749739	-0.048229	20.9456	-0.746717	-8.482456E+9	5.685730E-12	NaN
299	1.000000	0.403070	7.36799e+06	-53589.1	955.817	-29746.1	0.000000	0.000000	6.402919	0.073477	NaN	0.000000	0.001568	0.001623	28.0795	0.047331	0.002023	23.3945	32.7021	-163.71	0.028427	0.401727	-0.738415	-0.739757	0.073477	23.3945	-0.740770	-7.039579E+9	-1.043769E-11	NaN
299	1.000000	0.413055	7.36799e+06	-53589.1	955.818	-29746.1	0.000000	0.000000	6.412900	-0.038113	NaN	0.000000	0.001581	0.001624	28.0793	0.047216	0.002094	22.5536	-94.9103	14.9282	-0.059337	0.411718	-0.728429	-0.729767	-0.038113	22.5536	-0.727162	-4.593245E+9	8.297610E-12	NaN
299	1.000000	0.423107	7.36799e+06	-53589.1	955.818	-29746.1	0.000000	0.000000	6.422955	0.049889	NaN	0.000000	0.001593	0.001627	28.0795	0.091790	0.001955	46.9394	-177.753	-164.3	0.020512	0.421748	-0.718377	-0.719737	0.049889	46.9394	-0.719174	-3.574476E+9	-1.395688E-11	NaN
299	1.000000	0.433077	7.36799e+06	-53589.1	955.819	-29746.1	0.000000	0.000000	6.432925	0.047076	NaN	0.000000	0.001613	0.001647	28.0792	0.084889	0.002158	39.3374	-175.55	13.8653	0.111176	0.431713	-0.708408	-0.709771	0.047076	39.3374	-0.709305	-2.621601E+9	-1.795685E-11	NaN
299	1.000000	0.443084	7.36799e+06	-53589.1	955.817	-29746.1	0.000000	0.000000	6.442932	0.045943	NaN	0.000000	0.001624	0.001659	28.0794	0.065390	0.001878	34.8268	-18.0098	-168.483	0.106321	0.441720	-0.698401	-0.699765	0.045943	34.8268	-0.699390	-1.919550E+9	-2.393413E-11	NaN
299	1.000000	0.453099	7.36799e+06	-53589.1	955.818	-29746.1	0.000000	0.000000	6.452947	0.040292	NaN	0.000000	0.001573	0.001669	28.0793	0.056123	0.001817	30.8922	-104.767	15.433	0.016127	0.451671	-0.688386	-0.689813	0.040292	30.8922	-0.689364	-1.400311E+9	-2.877369E-11	NaN
299	1.000000	0.463044	7.36799e+06	-53589.1	955.819	-29746.1	0.000000	0.000000	6.462892	0.046636	NaN	0.000000	0.001604	0.001642	28.0796	0.061722	0.001737	35.5331	-93.2963	-163.924	0.089662	0.461749	-0.678440	-0.679735	0.046636	35.5331	-0.679425	-1.024086E+9	-4.553895E-11	NaN
299	1.000000	0.473084	7.36799e+06	-53589.1	955.818	-29746.1	0.000000	0.000000	6.472932	0.027238	NaN	0.000000	0.001595	0.001647	28.0793	0.109054	0.002053	53.1285	14.331	12.7762	-0.003010	0.471696	-0.668400	-0.669788	0.027238	53.1285	-0.668784	-7.324078E+8	-3.718936E-11	NaN
299	1.000000	0.483089	7.36799e+06	-53589.1	955.818	-29746.1	0.000000	0.000000	6.482938	0.056771	NaN	0.000000	0.001613	0.001645	28.0794	0.043173	0.002015	21.4224	151.084	-164.518	0.079523	0.481738	-0.658395	-0.659747	0.056771	21.4224	-0.660383	-5.619701E+8	-1.010218E-10	NaN
299	1.000000	0.493092	7.36799e+06	-53589.1	955.82	-29746.1	0.000000	0.000000	6.492939	0.020271	NaN	0.000000	0.001651	0.001664	28.0794	0.083551	0.002002	41.7351	177.409	19.154	0.042462	0.491742	-0.648392	-0.649742	0.020271	41.7351	-0.648757	-3.893958E+8	-5.205746E-11	NaN
299	1.000000	0.503079	7.36799e+06	-53589.1	955.818	-29746.1	0.000000	0.000000	6.502926	0.001449	NaN	0.000000	0.001645	0.001625	28.0794	0.034016	0.002104	16.1653	151.335	-166.393	0.036960	0.501803	-0.638405	-0.639681	0.001449	16.1653	-0.638472	-2.814025E+8	-5.149570E-12	NaN
299	1.000000	0.513081	7.36799e+06	-53589.1	955.818	-29746.1	0.000000	0.000000	6.512927	0.007808	NaN	0.000000	0.001640	0.001621	28.0792	0.029516	0.001909	15.4606	173.822	13.6289	-0.004615	0.511764	-0.628404	-0.629720	0.007808	15.4606	-0.628782	-2.071573E+8	-3.769102E-11	NaN
299	1.000000	0.523073	7.36799e+06	-53589.1	955.818	-29746.1	0.000000	0.000000	6.522919	-0.016426	NaN	0.000000	0.001639	0.001628	28.0795	0.062045	0.002054	30.2135	45.7991	-164.613	-0.052074	0.521736	-0.618411	-0.619748	-0.016426	30.2135	-0.618004	-1.472952E+8	1.115150E-10	NaN
299	1.000000	0.533108	7.36799e+06	-53589.1	955.818	-29746.1	0.000000	0.000000	6.532957	0.066827	NaN	0.000000	0.001592	0.001636	28.0795	0.010911	0.002085	5.233367	19.8157	13.7749	0.045218	0.531720	-0.608377	-0.609765	0.066827	5.233367	-0.617954	-1.470628E+8	-4.544148E-10	NaN
299	1.000000	0.543116	7.36799e+06	-53589.1	955.818	-29746.1	0.000000	0.000000	6.542964	0.048255	NaN	0.000000	0.001609	0.001626	28.0807	0.045334	0.002072	21.8844	-22.387	-169.352	0.097596	0.541821	-0.598368	-0.599663	0.048255	21.8844	-0.600022	-8.332280E+7	-5.791321E-10	NaN
299	1.000000	0.553161	7.36799e+06	-53589.1	955.817	-29746.1	0.000000	0.000000	6.553008	0.005860	NaN	0.000000	0.001601	0.001641	28.0805	0.118567	0.001958	60.5614	-149.395	15.4255	0.112789	0.551746	-0.588323	-0.589739	0.005860	60.5614	-0.588396	-5.761613E+7	-1.017140E-10	NaN
299	1.000000	0.563109	7.36799e+06	-53589.1	955.817	-29746.1	0.000000	0.000000	6.562958	0.069239	NaN	0.000000	0.001593	0.001637	28.0806	0.054565	0.001963	27.7957	70.4595	-167.753	-0.002161	0.561843	-0.578376	-0.579641	0.069239	27.7957	-0.580244	-4.447256E+7	-1.556899E-9	NaN
299	1.000000	0.573131	7.36799e+06	-53589.1	955.818	-29746.1	0.000000	0.000000	6.572977	-0.009114	NaN	0.000000	0.001565	0.001635	28.0808	0.039419	0.002002	19.6893	-78.0009	14.7091	0.024878	0.571758	-0.568353	-0.569727	-0.009114	19.6893	-0.568006	-3.013543E+7	3.024203E-10	NaN
299	1.000000	0.583107	7.36799e+06	-53589.1	955.818	-29746.1	0.000000	0.000000	6.582956	0.050824	NaN	0.000000	0.001608	0.001652	28.0807	0.102525	0.001967	52.1158	-85.4096	-166.487	-0.011993	0.581817	-0.558377	-0.559667	0.050824	52.1158	-0.559108	-2.270085E+7	-2.238845E-9	NaN
299	1.000000	0.593147	7.36799e+06	-53589.1	955.818	-29746.1	0.000000	0.000000	6.592994	0.022065	NaN	0.000000	0.001621	0.001648	28.0807	0.118412	0.002073	57.1333	25.1586	14.585	-0.034274	0.591765	-0.548338	-0.549719	0.022065	57.1333	-0.548627	-1.625329E+7	-1.357563E-9	NaN
299	1.000000	0.603143	7.36799e+06	-53589.1	955.818	-29746.1	0.000000	0.000000	6.602990	0.001316	NaN	0.000000	0.001615	0.001626	28.0807	0.064962	0.001854	35.0339	113.536	-164.837	0.070451	0.601811	-0.538341	-0.539673	0.001316	35.0339	-0.538369	-1.171494E+7	-1.123685E-10	NaN
299	1.000000	0.613158	7.36799e+06	-53589.1	955.818	-29746.1	0.000000	0.000000	6.613002	-0.047085	NaN	0.000000	0.001547	0.001646	28.0808	0.018265	0.001879	9.721068	90.0849	14.147	-0.107847	0.611777	-0.528326	-0.529708	-0.047085	9.721068	-0.524694	-7.56578e+06	6.223438E-9	NaN
299	1.000000	0.623153	7.36799e+06	-53589.1	955.818	-29746.1	0.000000	0.000000	6.623000	0.017024	NaN	0.000000	0.001640	0.001630	28.0806	0.071048	0.001981	35.8583	-170.099	-163.08	-0.005563	0.621841	-0.518332	-0.519643	0.017024	35.8583	-0.518688	-6.24234e+06	-2.727225E-9	NaN
299	1.000000	0.633146	7.36799e+06	-53589.1	955.817	-29746.1	0.000000	0.000000	6.632992	-0.001626	NaN	0.000000	0.001619	0.001632	28.0806	0.142087	0.002095	67.8119	-163.25	11.9039	0.049350	0.631761	-0.508338	-0.509724	-0.001626	67.8119	-0.508320	-4.47728e+06	3.631243E-10	NaN
299	1.000000	0.643152	7.36799e+06	-53589.1	955.818	-29746.1	0.000000	0.000000	6.642994	-0.102007	NaN	0.000000	0.001603	0.001635	28.0808	0.078491	0.002031	38.6506	-58.9354	-165.059	-0.122727	0.641872	-0.498333	-0.499612	-0.102007	38.6506	-0.496353	-3.04877e+06	3.345837E-8	NaN
299	1.000000	0.653173	7.36799e+06	-53589.1	955.818	-29746.1	0.000000	0.000000	6.653022	0.063910	NaN	0.000000	0.001575	0.001646	28.0809	0.090068	0.001943	46.3454	-109.286	15.6894	0.011602	0.651866	-0.488311	-0.489618	0.063910	46.3454	-0.489345	-2.43355e+06	-2.626185E-8	NaN
299	1.000000	0.663167	7.36799e+06	-53589.1	955.818	-29746.1	0.000000	0.000000	6.663011	-0.038208	NaN	0.000000	0.001604	0.001684	28.0808	0.045666	0.001976	23.1097	178.694	-170.197	-0.089734	0.661851	-0.478318	-0.479634	-0.038208	23.1097	-0.477078	-1.6391e+06	2.331057E-8	NaN
299	1.000000	0.673178	7.36799e+06	-53589.1	955.818	-29746.1	0.000000	0.000000	6.673025	0.008608	NaN	0.000000	0.001639	0.001620	28.0805	0.080916	0.002067	39.1442	150.156	13.7028	0.034655	0.671818	-0.468306	-0.469666	0.008608	39.1442	-0.468471	-1.24154e+06	-6.933317E-9	NaN
299	1.000000	0.683167	7.36799e+06	-53589.1	955.818	-29746.1	0.000000	0.000000	6.683015	0.051756	NaN	0.000000	0.001614	0.001651	28.0797	0.026749	0.002065	12.9546	172.202	-164.384	0.068153	0.681883	-0.458318	-0.459602	0.051756	12.9546	-0.461314	-985108	-5.253873E-8	NaN
299	1.000000	0.693190	7.36799e+06	-53589.1	955.818	-29746.1	0.000000	0.000000	6.693036	0.003817	NaN	0.000000	0.001622	0.001637	28.0796	0.135385	0.002021	66.9842	171.218	14.419	-0.040076	0.691832	-0.448295	-0.449653	0.003817	66.9842	-0.448337	-647032	-5.899372E-9	NaN
299	1.000000	0.703194	7.36799e+06	-53589.1	955.818	-29746.1	0.000000	0.000000	6.703035	-0.109330	NaN	0.000000	0.001628	0.001645	28.0796	0.005220	0.001933	2.700108	-38.3931	-162.873	-0.103869	0.701873	-0.438291	-0.439611	-0.109330	2.700108	-0.407923	-173320	6.307970E-7	NaN
299	1.000000	0.713184	7.36799e+06	-53589.1	955.818	-29746.1	0.000000	0.000000	6.713034	0.081925	NaN	0.000000	0.001606	0.001636	28.0797	0.060032	0.001888	31.8036	-144.923	16.1247	0.038224	0.711865	-0.428300	-0.429619	0.081925	31.8036	-0.430232	-359207	-2.280719E-7	NaN
299	1.000000	0.723180	7.36799e+06	-53589.1	955.818	-29746.1	0.000000	0.000000	6.723028	0.038258	NaN	0.000000	0.001599	0.001659	28.08	0.064318	0.002040	31.5224	-122.621	-163.352	0.085238	0.721864	-0.418305	-0.419621	0.038258	31.5224	-0.419215	-250772	-1.525594E-7	NaN
299	1.000000	0.733193	7.36799e+06	-53589.1	955.818	-29746.1	0.000000	0.000000	6.733042	0.070320	NaN	0.000000	0.001584	0.001624	28.0798	0.058286	0.001951	29.8705	-44.3441	15.2849	0.056936	0.731782	-0.408291	-0.409703	0.070320	29.8705	-0.410057	-185871	-3.783297E-7	NaN
299	1.000000	0.743200	7.36799e+06	-53589.1	955.818	-29746.1	0.000000	0.000000	6.743049	0.060099	NaN	0.000000	0.001588	0.001627	28.0797	0.041101	0.001894	21.697	-120.41	-165.421	0.004359	0.741878	-0.398284	-0.399606	0.060099	21.697	-0.400361	-135253	-4.443476E-7	NaN
299	1.000000	0.753206	7.36799e+06	-53589.1	955.819	-29746.1	0.000000	0.000000	6.753055	0.072192	NaN	0.000000	0.001607	0.001663	28.08	0.088127	0.001974	44.6347	-48.3948	12.6541	0.090868	0.751839	-0.388278	-0.389645	0.072192	44.6347	-0.389491	-94599.7	-7.631293E-7	NaN
299	1.000000	0.763214	7.36799e+06	-53589.1	955.817	-29746.1	0.000000	0.000000	6.763063	0.065725	NaN	0.000000	0.001555	0.001652	28.0799	0.061553	0.001982	31.0525	-143.612	-168.428	-0.046850	0.761871	-0.378270	-0.379613	0.065725	31.0525	-0.379858	-68841.4	-9.547313E-7	NaN
299	1.000000	0.773229	7.36799e+06	-53589.1	955.817	-29746.1	0.000000	0.000000	6.773079	0.084447	NaN	0.000000	0.001590	0.001650	28.08	0.096328	0.002039	47.247	-46.0472	16.8284	0.010732	0.771816	-0.368255	-0.369668	0.084447	47.247	-0.369596	-49012.7	-1.722969E-6	NaN
299	1.000000	0.783211	7.36799e+06	-53589.1	955.818	-29746.1	0.000000	0.000000	6.783058	0.003249	NaN	0.000000	0.001602	0.001663	28.0796	0.116276	0.002068	56.2348	-67.4056	-164.01	0.090729	0.781866	-0.358273	-0.359618	0.003249	56.2348	-0.358316	-33689.9	-9.642388E-8	NaN
299	1.000000	0.793217	7.36799e+06	-53589.1	955.818	-29746.1	0.000000	0.000000	6.793064	0.018592	NaN	0.000000	0.001591	0.001660	28.08	0.091383	0.002026	45.1011	-149.429	12.3455	-0.029460	0.791880	-0.348267	-0.349605	0.018592	45.1011	-0.348576	-24340.7	-7.638252E-7	NaN
299	1.000000	0.803234	7.36799e+06	-53589.1	955.818	-29746.1	0.000000	0.000000	6.803080	0.009025	NaN	0.000000	0.001588	0.001652	28.0798	0.106258	0.001947	54.5646	-74.3689	-165.504	0.073571	0.801912	-0.338251	-0.339572	0.009025	54.5646	-0.338375	-17292.3	-5.218923E-7	NaN
299	1.000000	0.813217	7.36799e+06	-53589.1	955.818	-29746.1	0.000000	0.000000	6.813064	0.021026	NaN	0.000000	0.001594	0.001638	28.0811	0.036157	0.002108	17.1508	8.679900	16.1493	-0.018758	0.811892	-0.328267	-0.329592	0.021026	17.1508	-0.329187	-12692.2	-1.656602E-6	NaN
299	1.000000	0.823238	7.36799e+06	-53589.1	955.818	-29746.1	0.000000	0.000000	6.823086	0.046491	NaN	0.000000	0.001574	0.001640	28.0809	0.053007	0.001927	27.5113	-172.903	-164.838	0.078530	0.821935	-0.318246	-0.319549	0.046491	27.5113	-0.319514	-9151.24	-5.080349E-6	NaN
299	1.000000	0.833215	7.36799e+06	-53589.1	955.818	-29746.1	0.000000	0.000000	6.833060	-0.019279	NaN	0.000000	0.001596	0.001635	28.0812	0.064823	0.002086	31.0778	-152.466	11.4048	-0.029262	0.831877	-0.308270	-0.309607	-0.019279	31.0778	-0.307804	-6145.31	3.137144E-6	NaN
299	1.000000	0.843234	7.36799e+06	-53589.1	955.818	-29746.1	0.000000	0.000000	6.843081	0.033350	NaN	0.000000	0.001596	0.001629	28.0811	0.096848	0.001912	50.6553	-167.341	-162.212	-0.017248	0.841935	-0.298251	-0.299549	0.033350	50.6553	-0.298745	-4507.53	-7.398798E-6	NaN
299	1.000000	0.853232	7.36799e+06	-53589.1	955.817	-29746.1	0.000000	0.000000	6.853080	0.043203	NaN	0.000000	0.001587	0.001630	28.0812	0.064923	0.001949	33.3106	13.3481	14.2558	0.040833	0.851777	-0.288253	-0.289707	0.043203	33.3106	-0.289225	-3248.58	-1.329889E-5	NaN
299	1.000000	0.863265	7.36799e+06	-53589.1	955.817	-29746.1	0.000000	0.000000	6.863113	0.024645	NaN	0.000000	0.001561	0.001657	28.0809	0.034767	0.002076	16.749	-36.2866	-163.218	0.079746	0.861920	-0.278219	-0.279564	0.024645	16.749	-0.279322	-2305.4	-1.069024E-5	NaN
299	1.000000	0.873257	7.36799e+06	-53589.1	955.819	-29746.1	0.000000	0.000000	6.873104	0.005184	NaN	0.000000	0.001599	0.001671	28.0813	0.114238	0.002052	55.6579	140.571	13.9264	0.060375	0.871862	-0.268227	-0.269622	0.005184	55.6579	-0.268297	-1569.05	-3.304131E-6	NaN
299	1.000000	0.883225	7.36799e+06	-53589.1	955.818	-29746.1	0.000000	0.000000	6.883073	0.045205	NaN	0.000000	0.001610	0.001653	28.081	0.060349	0.001991	30.3138	156.524	-166.077	-0.026363	0.881948	-0.258259	-0.259536	0.045205	30.3138	-0.259378	-1146.5	-3.942883E-5	NaN
299	1.000000	0.893260	7.36799e+06	-53589.1	955.817	-29746.1	0.000000	0.000000	6.893107	0.028432	NaN	0.000000	0.001620	0.001683	28.081	0.060138	0.001973	30.4821	-92.3275	13.872	0.026127	0.891882	-0.248225	-0.249602	0.028432	30.4821	-0.248924	-791.262	-3.593241E-5	NaN
299	1.000000	0.903276	7.36799e+06	-53589.1	955.818	-29746.1	0.000000	0.000000	6.903121	-0.033185	NaN	0.000000	0.001624	0.001643	28.0808	0.055889	0.002033	27.4959	-6.414535	-165.012	-0.020611	0.902005	-0.238208	-0.239479	-0.033185	27.4959	-0.237303	-521.636	6.361737E-5	NaN
299	1.000000	0.913267	7.36799e+06	-53589.1	955.818	-29746.1	0.000000	0.000000	6.913115	0.039638	NaN	0.000000	0.001602	0.001653	28.0812	0.035876	0.002098	17.1017	-35.8385	18.3265	-0.018448	0.911936	-0.228217	-0.229548	0.039638	17.1017	-0.229955	-399.771	-9.915063E-5	NaN
299	1.000000	0.923271	7.36799e+06	-53589.1	955.818	-29746.1	0.000000	0.000000	6.923117	0.003035	NaN	0.000000	0.001594	0.001677	28.0809	0.157846	0.002027	77.8542	-31.8784	-164.775	0.006445	0.921966	-0.218214	-0.219518	0.003035	77.8542	-0.218243	-260.354	-1.165794E-5	NaN
299	1.000000	0.933279	7.36799e+06	-53589.1	955.818	-29746.1	0.000000	0.000000	6.933125	-0.019469	NaN	0.000000	0.001612	0.001673	28.0812	0.006799	0.001954	3.479016	-93.4742	14.7908	-0.001837	0.931932	-0.208205	-0.209552	-0.019469	3.479016	-0.204008	-153.238	0.000127	NaN
299	1.000000	0.943304	7.36799e+06	-53589.1	955.818	-29746.1	0.000000	0.000000	6.943152	0.030517	NaN	0.000000	0.001575	0.001667	28.0811	0.089611	0.002020	44.3665	60.98	-163.409	-0.013539	0.941959	-0.198180	-0.199525	0.030517	44.3665	-0.198696	-125.385	-0.000243	NaN
299	1.000000	0.953300	7.36799e+06	-53589.1	955.817	-29746.1	0.000000	0.000000	6.953146	-0.011450	NaN	0.000000	0.001602	0.001675	28.08	0.081964	0.001951	42.0035	41.8909	17.3456	-0.050953	0.951905	-0.188184	-0.189580	-0.011450	42.0035	-0.187980	-83.219	0.000138	NaN
299	1.000000	0.963258	7.36799e+06	-53589.1	955.818	-29746.1	0.000000	0.000000	6.963104	0.004652	NaN	0.000000	0.001633	0.001689	28.08	0.082982	0.001977	41.9662	-140.982	-163.938	-0.075837	0.961959	-0.178227	-0.179525	0.004652	41.9662	-0.178310	-57.1033	-8.147302E-5	NaN
299	1.000000	0.973298	7.36799e+06	-53589.1	955.819	-29746.1	0.000000	0.000000	6.973143	-0.029010	NaN	0.000000	0.001594	0.001678	28.0801	0.132932	0.002017	65.9161	-87.8386	12.8738	0.005008	0.971944	-0.168187	-0.169540	-0.029010	65.9161	-0.167857	-37.6969	0.000770	NaN
299	1.000000	0.983322	7.36799e+06	-53589.1	955.819	-29746.1	0.000000	0.000000	6.983168	0.002185	NaN	0.000000	0.001573	0.001695	28.0798	0.050532	0.002068	24.433	33.3438	-164.554	-0.024524	0.982003	-0.158162	-0.159481	0.002185	24.433	-0.158229	-25.4951	-8.569550E-5	NaN
299	1.000000	0.993293	7.36799e+06	-53589.1	955.819	-29746.1	0.000000	0.000000	6.993142	0.085558	NaN	0.000000	0.001576	0.001649	28.0798	0.079179	0.002214	35.7607	-78.0141	17.2579	0.054334	0.991948	-0.148192	-0.149536	0.085558	35.7607	-0.149986	-18.1031	-0.004726	NaN
299	1.000000	1.003303	7.36799e+06	-53589.1	955.817	-29746.1	0.000000	0.000000	7.003149	0.000733	NaN	0.000000	0.001582	0.001675	28.0798	0.080666	0.001880	42.9016	132.522	-165.065	0.058783	1.001986	-0.138182	-0.139498	0.000733	42.9016	-0.138195	-10.9385	-6.702439E-5	NaN
299	1.000000	1.013299	7.36799e+06	-53589.1	955.818	-29746.1	0.000000	0.000000	7.013146	0.020950	NaN	0.000000	0.001613	0.001676	28.0798	0.074204	0.001924	38.5589	69.3605	16.1196	0.062642	1.011951	-0.128185	-0.129534	0.020950	38.5589	-0.128593	-7.154922	-0.002928	NaN
299	1.000000	1.023310	7.36799e+06	-53589.1	955.818	-29746.1	0.000000	0.000000	7.023156	-0.002690	NaN	0.000000	0.001617	0.001698	28.0799	0.042035	0.002085	20.1642	102.687	-166.027	-0.050013	1.022013	-0.118175	-0.119471	-0.002690	20.1642	-0.118075	-4.416428	0.000609	NaN
299	1.000000	1.033350	7.36799e+06	-53589.1	955.817	-29746.1	0.000000	0.000000	7.033197	0.016175	NaN	0.000000	0.001613	0.001667	28.0797	0.088499	0.001941	45.5928	158.429	13.8816	0.067770	1.031981	-0.108134	-0.109503	0.016175	45.5928	-0.108401	-2.779837	-0.005819	NaN
299	1.000000	1.043311	7.36799e+06	-53589.1	955.816	-29746.1	0.000000	0.000000	7.043156	-0.011407	NaN	0.000000	0.001601	0.001661	28.0798	0.142454	0.001922	74.1011	150.445	-166.888	-0.027068	1.041941	-0.098174	-0.099544	-0.011407	74.1011	-0.098058	-1.653881	0.006897	NaN
299	1.000000	1.053315	7.36799e+06	-53589.1	955.817	-29746.1	0.000000	0.000000	7.053163	0.065488	NaN	0.000000	0.001615	0.001634	28.0795	0.115270	0.001996	57.7564	-65.5684	11.9614	0.017928	1.051944	-0.088170	-0.089540	0.065488	57.7564	-0.089020	-1.025086	-0.063885	NaN
299	1.000000	1.063338	7.36799e+06	-53589.1	955.817	-29746.1	0.000000	0.000000	7.063184	-0.004626	NaN	0.000000	0.001599	0.001665	28.0798	0.011496	0.001991	5.774605	-93.8496	-167.888	-0.008225	1.062033	-0.078146	-0.079451	-0.004626	5.774605	-0.077546	-0.536789	0.008617	NaN
299	1.000000	1.073313	7.36799e+06	-53589.1	955.816	-29746.1	0.000000	0.000000	7.073158	-0.046993	NaN	0.000000	0.001581	0.001673	28.0794	0.034921	0.001949	17.9217	-165.548	14.4815	0.013498	1.071918	-0.068171	-0.069566	-0.046993	17.9217	-0.066204	-0.269061	0.174656	NaN
299	1.000000	1.083341	7.36799e+06	-53589.1	955.817	-29746.1	0.000000	0.000000	7.083188	0.025764	NaN	0.000000	0.001595	0.001656	28.08	0.063298	0.002080	30.4262	-141.49	-166.144	0.099404	1.082037	-0.058144	-0.059447	0.025764	30.4262	-0.058779	-0.166084	-0.155127	NaN
299	1.000000	1.093335	7.36799e+06	-53589.1	955.819	-29746.1	0.000000	0.000000	7.093181	-0.010512	NaN	0.000000	0.001620	0.001670	28.0808	0.018783	0.001992	9.431609	-145.67	16.0161	0.071047	1.091993	-0.048149	-0.049491	-0.010512	9.431609	-0.047313	-0.075620	0.139010	NaN
299	1.000000	1.103349	7.36799e+06	-53589.1	955.818	-29746.1	0.000000	0.000000	7.103196	0.029049	NaN	0.000000	0.001602	0.001682	28.081	0.047087	0.001943	24.231	38.0135	-160.332	-0.010292	1.102044	-0.038136	-0.039440	0.029049	24.231	-0.039035	-0.042276	-0.687128	NaN
299	1.000000	1.113356	7.36799e+06	-53589.1	955.818	-29746.1	0.000000	0.000000	7.113202	0.005997	NaN	0.000000	0.001609	0.001673	28.0806	0.113832	0.002103	54.1277	-0.979552	18.2647	0.019599	1.111979	-0.028129	-0.029505	0.005997	54.1277	-0.028212	-0.020546	-0.291887	NaN
299	1.000000	1.123361	7.36799e+06	-53589.1	955.818	-29746.1	0.000000	0.000000	7.123209	0.045516	NaN	0.000000	0.001652	0.001694	28.0808	0.041190	0.001988	20.7145	-68.1493	-166.873	-0.004268	1.122064	-0.018124	-0.019421	0.045516	20.7145	-0.019772	-0.012394	-3.672453	NaN
299	1.000000	1.133344	7.36799e+06	-53589.1	955.817	-29746.1	0.000000	0.000000	7.133190	0.005966	NaN	0.000000	0.001615	0.001671	28.0808	0.078305	0.002017	38.8264	81.1371	14.1764	0.090783	1.132026	-0.008140	-0.009458	0.005966	38.8264	-0.008256	-0.005381	-1.108742	NaN
299	1.000000	1.143344	7.36799e+06	-53589.1	955.816	-29746.1	0.000000	0.000000	7.143239	1.162389	NaN	0.000000	0.001585	0.001690	28.081	1.639664	0.001751	936.178	7.112996	-168.38	0.420429	1.141993	0.001860	0.000509	1.162389	936.178	0.000929	0.000707	1644.36	32170.3
299	2.000000	1.150564	7.36799e+06	-53589.1	955.817	-29746.1	0.000000	0.000000	7.150738	7.976004	NaN	0.000000	0.001608	0.001649	28.0807	8.824169	0.001638	5386.08	5.185282	8.546540	7.449674	1.150149	0.009079	0.008665	7.976004	5386.08	0.007969	0.007010	1137.8	58774.1
299	2.000000	1.153046	7.36799e+06	-53589.1	955.818	-29746.1	0.000000	0.000000	7.153353	11.1875	NaN	0.000000	0.001599	0.001660	28.0806	12.4198	0.001815	6841.05	9.938568	-175.95	11.0651	1.152722	0.011562	0.011238	11.1875	6841.05	0.010335	0.009557	1170.65	63935.7
299	2.000000	1.155560	7.36799e+06	-53589.1	955.817	-29746.1	0.000000	0.000000	7.155984	14.0368	NaN	0.000000	0.001573	0.001656	28.0809	14.7274	0.001858	7926.98	10.4012	2.324925	13.5178	1.155203	0.014076	0.013719	14.0368	7926.98	0.012748	0.012398	1132.15	65042.8
299	2.000000	1.157969	7.36799e+06	-53589.1	955.818	-29746.1	0.000000	0.000000	7.158579	18.575	NaN	0.000000	0.001598	0.001694	28.0806	16.821	0.001796	9364.44	6.557082	-174.171	17.7952	1.157626	0.016485	0.016141	18.575	9364.44	0.014997	0.015282	1215.52	69210.4
299	2.000000	1.160502	7.36799e+06	-53589.1	955.818	-29746.1	0.000000	0.000000	7.161294	22.9945	NaN	0.000000	0.001580	0.001664	28.0807	19.4899	0.001771	11008	4.513085	6.353527	24.0913	1.160099	0.019018	0.018615	22.9945	11008	0.017451	0.018694	1230.04	73558
299	2.000000	1.162962	7.36799e+06	-53589.1	955.819	-29746.1	0.000000	0.000000	7.163910	26.7925	NaN	0.000000	0.001602	0.001699	28.0808	23.0359	0.001788	12881.9	7.166636	-179.629	26.4599	1.162727	0.021477	0.021242	26.7925	12881.9	0.019917	0.022413	1195.42	78615.1
299	2.000000	1.165449	7.36799e+06	-53589.1	955.819	-29746.1	0.000000	0.000000	7.166714	34.4792	NaN	0.000000	0.001598	0.001736	28.081	25.2305	0.001773	14229.3	6.284510	1.027204	32.1264	1.165112	0.023965	0.023628	34.4792	14229.3	0.022148	0.026030	1324.6	80578.8
299	2.000000	1.167945	7.36799e+06	-53589.1	955.819	-29746.1	0.000000	0.000000	7.169569	43.2335	NaN	0.000000	0.001599	0.001658	28.0796	27.4046	0.001745	15702.5	4.167321	-178.747	41.6596	1.167583	0.026460	0.026099	43.2335	15702.5	0.024395	0.029925	1444.74	82932.8
299	2.000000	1.170440	7.36799e+06	-53589.1	955.819	-29746.1	0.000000	0.000000	7.172148	45.2617	NaN	0.000000	0.001575	0.001694	28.0795	29.7288	0.001820	16336.2	2.746245	3.043899	43.6145	1.170132	0.028956	0.028647	45.2617	16336.2	0.026878	0.034521	1311.14	80330.8
299	2.000000	1.172916	7.36799e+06	-53589.1	955.819	-29746.1	0.000000	0.000000	7.174881	51.5058	NaN	0.000000	0.001600	0.001684	28.0796	31.879	0.001645	19375.7	4.496815	179.035	49.7096	1.172641	0.031432	0.031156	51.5058	19375.7	0.029438	0.039587	1301.09	88972.6
299	2.000000	1.175414	7.36799e+06	-53589.1	955.819	-29746.1	0.000000	0.000000	7.177704	59.434	NaN	0.000000	0.001596	0.001704	28.0798	34.2985	0.001776	19311.7	6.382378	-1.733402	56.3094	1.175071	0.033929	0.033586	59.434	19311.7	0.031621	0.044171	1345.55	83951.4
299	2.000000	1.177937	7.36799e+06	-53589.1	955.818	-29746.1	0.000000	0.000000	7.180486	65.7267	NaN	0.000000	0.001618	0.001701	28.0796	37.4836	0.001784	21014.3	8.321892	174.594	65.4421	1.177628	0.036452	0.036144	65.7267	21014.3	0.034106	0.049686	1322.84	86133.3
299	2.000000	1.180493	7.36799e+06	-53589.1	955.818	-29746.1	0.000000	0.000000	7.183267	71.1914	NaN	0.000000	0.001611	0.001666	28.0794	40.0546	0.001892	21169.9	5.976925	-2.235374	71.4011	1.180059	0.039008	0.038574	71.1914	21169.9	0.036486	0.055263	1288.22	82276
299	2.000000	1.182878	7.36799e+06	-53589.1	955.819	-29746.1	0.000000	0.000000	7.186047	80.7926	NaN	0.000000	0.001574	0.001635	28.0797	41.9501	0.001776	23620.9	4.056809	177.786	79.6096	1.182694	0.041394	0.041209	80.7926	23620.9	0.038828	0.061035	1323.7	87353.1
299	2.000000	1.185408	7.36799e+06	-53589.1	955.818	-29746.1	0.000000	0.000000	7.189161	94.9785	NaN	0.000000	0.001629	0.001651	28.0793	43.7848	0.001795	24389.2	5.326494	-2.070921	91.9854	1.185042	0.043924	0.043558	94.9785	24389.2	0.041003	0.066647	1425.09	86313.9
299	2.000000	1.187907	7.36799e+06	-53589.1	955.817	-29746.1	0.000000	0.000000	7.192133	106.478	NaN	0.000000	0.001613	0.001632	28.0795	46.559	0.001784	26101.6	4.234345	178.496	107.495	1.187584	0.046423	0.046099	106.478	26101.6	0.043363	0.073008	1458.44	88258.1
299	2.000000	1.190408	7.36799e+06	-53589.1	955.819	-29746.1	0.000000	0.000000	7.195003	115.461	NaN	0.000000	0.001601	0.001677	28.0793	49.0361	0.001757	27905.1	1.983339	-0.865225	113.373	1.190083	0.048924	0.048599	115.461	27905.1	0.045820	0.079934	1444.46	90176.2
299	2.000000	1.192947	7.36799e+06	-53589.1	955.818	-29746.1	0.000000	0.000000	7.198071	128.307	NaN	0.000000	0.001590	0.001669	28.0794	51.9489	0.001676	30995.7	5.245507	175.316	128.488	1.192596	0.051463	0.051112	128.307	30995.7	0.048358	0.087407	1467.93	95786
299	2.000000	1.195476	7.36799e+06	-53589.1	955.819	-29746.1	0.000000	0.000000	7.200997	137.976	NaN	0.000000	0.001610	0.001698	28.0793	53.5685	0.001838	29139.3	6.985843	-5.123819	139.077	1.195016	0.053991	0.053532	137.976	29139.3	0.050440	0.093778	1471.31	86936.4
299	2.000000	1.197999	7.36799e+06	-53589.1	955.819	-29746.1	0.000000	0.000000	7.203745	143.452	NaN	0.000000	0.001611	0.001660	28.0793	56.3371	0.001759	32025.4	4.108558	176.072	148.859	1.197604	0.056514	0.056120	143.452	32025.4	0.053155	0.102413	1400.72	91430.2
299	2.000000	1.200279	7.36799e+06	-53589.1	955.818	-29746.1	0.000000	0.000000	7.206704	159.949	NaN	0.000000	0.001580	0.001658	28.0792	58.3851	0.001674	34879.2	0.837252	-2.110364	151.871	1.200013	0.058794	0.058529	159.949	34879.2	0.055355	0.109681	1458.31	96221.9
299	2.000000	1.202884	7.36799e+06	-53589.1	955.818	-29746.1	0.000000	0.000000	7.209861	173.371	NaN	0.000000	0.001637	0.001665	28.0808	64.2461	0.001887	34042	7.197203	172.933	172.182	1.202559	0.061400	0.061075	173.371	34042	0.057580	0.117273	1478.35	90821.5
299	2.000000	1.205433	7.36799e+06	-53589.1	955.818	-29746.1	0.000000	0.000000	7.212924	185.847	NaN	0.000000	0.001612	0.001668	28.0806	65.3153	0.001842	35463.4	5.528904	-6.000166	183.672	1.205072	0.063949	0.063587	185.847	35463.4	0.060018	0.125874	1476.45	91324
299	2.000000	1.207918	7.36799e+06	-53589.1	955.819	-29746.1	0.000000	0.000000	7.216023	200.794	NaN	0.000000	0.001612	0.001651	28.0805	67.3511	0.001869	36038.9	10.547	169.864	202.428	1.207471	0.066434	0.065987	200.794	36038.9	0.062255	0.134018	1498.26	89942.2
299	2.000000	1.210353	7.36799e+06	-53589.1	955.82	-29746.1	0.000000	0.000000	7.219000	213.95	NaN	0.000000	0.001587	0.001640	28.0808	69.3232	0.001775	39062.4	5.197563	-6.690461	207.864	1.210013	0.068869	0.068529	213.95	39062.4	0.064761	0.143433	1491.64	94234.2
299	2.000000	1.212814	7.36799e+06	-53589.1	955.818	-29746.1	0.000000	0.000000	7.222153	230.805	NaN	0.000000	0.001620	0.001652	28.0808	71.9003	0.001945	36968.5	3.459836	176.044	226.325	1.212594	0.071329	0.071110	230.805	36968.5	0.066647	0.150716	1531.39	87001.3
299	2.000000	1.215352	7.36799e+06	-53589.1	955.818	-29746.1	0.000000	0.000000	7.225264	244.703	NaN	0.000000	0.001640	0.001685	28.0806	74.0825	0.001794	41300.2	6.792266	-9.348547	239.874	1.215004	0.073868	0.073519	244.703	41300.2	0.069424	0.161754	1512.81	93820.4
299	2.000000	1.217930	7.36799e+06	-53589.1	955.818	-29746.1	0.000000	0.000000	7.228403	258.356	NaN	0.000000	0.001646	0.001672	28.0806	75.5271	0.001771	42646.7	5.361570	172.308	261.833	1.217619	0.076446	0.076134	258.356	42646.7	0.071902	0.171913	1502.83	93973.3
299	2.000000	1.220386	7.36799e+06	-53589.1	955.818	-29746.1	0.000000	0.000000	7.231333	269.884	NaN	0.000000	0.001654	0.001642	28.0807	78.2315	0.001708	45790.3	6.384288	-8.964661	268.211	1.220010	0.078901	0.078525	269.884	45790.3	0.074481	0.182793	1476.45	97851.5
299	2.000000	1.222882	7.36799e+06	-53589.1	955.818	-29746.1	0.000000	0.000000	7.234398	283.727	NaN	0.000000	0.001602	0.001659	28.0806	81.4574	0.001766	46132.8	2.069017	174.477	282.383	1.222713	0.081398	0.081229	283.727	46132.8	0.076785	0.192778	1471.78	95996.3
299	2.000000	1.225386	7.36799e+06	-53589.1	955.819	-29746.1	0.000000	0.000000	7.237776	304.97	NaN	0.000000	0.001651	0.001631	28.0805	82.9532	0.001790	46349.5	3.389790	-5.434879	301.202	1.224905	0.083901	0.083421	304.97	46349.5	0.078966	0.202462	1506.3	94112.1
299	2.000000	1.227846	7.36799e+06	-53589.1	955.818	-29746.1	0.000000	0.000000	7.240910	321.342	NaN	0.000000	0.001667	0.001610	28.0805	83.9342	0.001803	46553.5	0.413056	176.794	319.226	1.227546	0.086362	0.086062	321.342	46553.5	0.081185	0.212540	1511.91	92258.3
299	2.000000	1.230311	7.36799e+06	-53589.1	955.819	-29746.1	0.000000	0.000000	7.244066	338.158	NaN	0.000000	0.001650	0.001644	28.0805	87.0344	0.001823	47736.4	1.383082	-4.188352	333.078	1.229930	0.088827	0.088446	338.158	47736.4	0.083514	0.223362	1513.94	92282.3
299	2.000000	1.232846	7.36799e+06	-53589.1	955.819	-29746.1	0.000000	0.000000	7.246916	345.815	NaN	0.000000	0.001638	0.001661	28.0805	89.4384	0.001726	51830	2.505720	173.811	344.478	1.232708	0.091362	0.091223	345.815	51830	0.086357	0.236920	1459.63	97286.7
299	2.000000	1.235312	7.36799e+06	-53589.1	955.82	-29746.1	0.000000	0.000000	7.250458	371.97	NaN	0.000000	0.001640	0.001657	28.0796	91.161	0.001783	51117.5	4.212597	-7.729677	367.03	1.235072	0.093828	0.093588	371.97	51117.5	0.088370	0.246741	1507.53	94020.3
299	2.000000	1.237758	7.36799e+06	-53589.1	955.819	-29746.1	0.000000	0.000000	7.254131	401.791	NaN	0.000000	0.001634	0.001654	28.0791	92.4079	0.001672	55283.6	3.907138	172.65	397.782	1.237396	0.096274	0.095912	401.791	55283.6	0.090823	0.258961	1551.55	99255.1
299	2.000000	1.240249	7.36799e+06	-53589.1	955.818	-29746.1	0.000000	0.000000	7.257534	423.961	NaN	0.000000	0.001662	0.001657	28.0794	95.6527	0.001713	55852.5	4.960932	-8.623655	417.266	1.239864	0.098765	0.098380	423.961	55852.5	0.093072	0.270406	1567.87	98131.3
299	2.000000	1.242961	7.36799e+06	-53589.1	955.819	-29746.1	0.000000	0.000000	7.260464	429.28	NaN	0.000000	0.001638	0.001661	28.0792	100.482	0.001730	58069.1	7.645153	168.254	435.389	1.242523	0.101477	0.101039	429.28	58069.1	0.095932	0.285298	1504.67	99327.4
299	2.000000	1.245310	7.36799e+06	-53589.1	955.819	-29746.1	0.000000	0.000000	7.264070	459.846	NaN	0.000000	0.001639	0.001639	28.0798	101.317	0.001829	55405.6	5.341698	-8.750928	451.764	1.244900	0.103825	0.103416	459.846	55405.6	0.097601	0.294158	1563.26	93333.2
299	2.000000	1.247844	7.36799e+06	-53589.1	955.819	-29746.1	0.000000	0.000000	7.267551	482.854	NaN	0.000000	0.001704	0.001662	28.079	103.234	0.001719	60046.6	2.847034	173.106	482.421	1.247452	0.106360	0.105968	482.854	60046.6	0.100329	0.308915	1563.06	98705.7