File: remote_trans/data/nanoindenter/0828-1/data/Data_2025-08-06,11h17m57s/2025-07-22_16-23-58_1_135.txt
2025-07-22, 16:23:58, 1
Index	Phase	Displacement	Time	Pos X	Pos Y	Pos Z	Rot A	Rot B	Piezo Z	Force A	Force B	Gripper	Voltage A	Voltage B	Temperature	Amplitude force	Amplitude pos	Stiffness	Phase shift	Phase excitation	Force A raw	Displacement raw	HMax	HMax raw	Real Force	Real Stiffness	Contact Depth	Area	Hardness	Reduced Mod.
[#]	[#]	[um]	[s]	[um]	[um]	[um]	[m°]	[m°]	[um]	[uN]	[uN]	[V]	[V]	[V]	[°C]	[uN]	[um]	[N/m]	[°]	[°]	[uN]	[um]	[um]	[um]	[uN]	[N/m]	[um]	[um^2]	[MPa]	[MPa]
135	1.000000	0.002350	7.36636e+06	-45389.1	955.818	-29773.1	0.000000	0.000000	6.002752	-0.026908	NaN	0.000000	0.001640	0.001758	28.0953	0.109085	0.000775	140.807	-2.841115	178.257	-0.017024	0.001139	-1.120592	-1.121803	-0.026908	140.807	-1.120448	-9.429500E+14	2.853631E-17	NaN
135	1.000000	0.012377	7.36636e+06	-45389.1	955.819	-29773.1	0.000000	0.000000	6.012785	0.090333	NaN	0.000000	0.001628	0.001785	28.0797	0.085175	0.001165	73.1188	27.3425	-1.084153	0.055256	0.010971	-1.110564	-1.111971	0.090333	73.1188	-1.111490	-7.149717E+14	-1.263455E-16	NaN
135	1.000000	0.022302	7.36636e+06	-45389.1	955.818	-29773.1	0.000000	0.000000	6.022701	-0.112817	NaN	0.000000	0.001595	0.001765	28.0997	0.031918	0.001757	18.1697	-17.7514	177.707	-0.093287	0.021001	-1.100639	-1.101940	-0.112817	18.1697	-1.095982	-4.427237E+14	2.548239E-16	NaN
135	1.000000	0.032291	7.36636e+06	-45389.1	955.819	-29773.1	0.000000	0.000000	6.032696	0.024693	NaN	0.000000	0.001617	0.001708	28.1302	0.026234	0.001918	13.6782	-11.2025	-2.179536	0.024990	0.030941	-1.090650	-1.092000	0.024693	13.6782	-1.092004	-3.914942E+14	-6.307369E-17	NaN
135	1.000000	0.042298	7.36636e+06	-45389.1	955.818	-29773.1	0.000000	0.000000	6.042701	-0.024569	NaN	0.000000	0.001620	0.001726	28.0955	0.060179	0.001860	32.3502	-62.2975	173.597	-0.003633	0.041006	-1.080643	-1.081935	-0.024569	32.3502	-1.080073	-2.707103E+14	9.075773E-17	NaN
135	1.000000	0.052300	7.36636e+06	-45389.1	955.818	-29773.1	0.000000	0.000000	6.052706	0.049243	NaN	0.000000	0.001696	0.001759	28.0803	0.046406	0.001968	23.5828	-32.8673	-3.827760	0.080706	0.050922	-1.070641	-1.072019	0.049243	23.5828	-1.072207	-2.122487E+14	-2.320083E-16	NaN
135	1.000000	0.062320	7.36636e+06	-45389.1	955.818	-29773.1	0.000000	0.000000	6.062722	-0.042422	NaN	0.000000	0.001681	0.001738	28.0982	0.038915	0.002069	18.8074	-18.9164	175.287	-0.067377	0.060934	-1.060622	-1.062008	-0.042422	18.8074	-1.058930	-1.407476E+14	3.014037E-16	NaN
135	1.000000	0.072307	7.36636e+06	-45389.1	955.818	-29773.1	0.000000	0.000000	6.072712	0.030912	NaN	0.000000	0.001660	0.001725	28.1301	0.089822	0.002003	44.846	104.628	-1.538796	0.032785	0.070939	-1.050634	-1.052002	0.030912	44.846	-1.051151	-1.106344E+14	-2.794099E-16	NaN
135	1.000000	0.082294	7.36636e+06	-45389.1	955.818	-29773.1	0.000000	0.000000	6.082695	-0.057795	NaN	0.000000	0.001663	0.001745	28.0938	0.096431	0.002070	46.5838	1.419650	176.664	0.019198	0.081036	-1.040647	-1.041906	-0.057795	46.5838	-1.039717	-7.765334E+13	7.442711E-16	NaN
135	1.000000	0.092299	7.36636e+06	-45389.1	955.817	-29773.1	0.000000	0.000000	6.092702	-0.012291	NaN	0.000000	0.001661	0.001725	28.0785	0.087558	0.002006	43.6376	153.576	-0.075338	0.024037	0.090967	-1.030642	-1.031974	-0.012291	43.6376	-1.030431	-5.824801E+13	2.110125E-16	NaN
135	1.000000	0.102331	7.36636e+06	-45389.1	955.819	-29773.1	0.000000	0.000000	6.102734	-0.020273	NaN	0.000000	0.001680	0.001740	28.0972	0.087083	0.002075	41.9691	39.0379	179.675	-0.047463	0.100967	-1.020611	-1.021974	-0.020273	41.9691	-1.020248	-4.249081E+13	4.771051E-16	NaN
135	1.000000	0.112282	7.36636e+06	-45389.1	955.819	-29773.1	0.000000	0.000000	6.112684	-0.037969	NaN	0.000000	0.001648	0.001717	28.1288	0.047873	0.001919	24.945	6.806588	-3.051686	-0.014582	0.110984	-1.010660	-1.011957	-0.037969	24.945	-1.009518	-3.047158E+13	1.246047E-15	NaN
135	1.000000	0.122331	7.36636e+06	-45389.1	955.819	-29773.1	0.000000	0.000000	6.122737	0.032292	NaN	0.000000	0.001673	0.001736	28.0949	0.060892	0.002001	30.4331	-102.738	175.748	0.068544	0.120993	-1.000610	-1.001948	0.032292	30.4331	-1.001406	-2.369700E+13	-1.362693E-15	NaN
135	1.000000	0.132318	7.36636e+06	-45389.1	955.819	-29773.1	0.000000	0.000000	6.132725	0.056308	NaN	0.000000	0.001670	0.001698	28.0798	0.088673	0.001932	45.9003	163.042	2.704197	0.038003	0.130974	-0.990623	-0.991967	0.056308	45.9003	-0.991543	-1.745384E+13	-3.226106E-15	NaN
135	1.000000	0.142310	7.36636e+06	-45389.1	955.819	-29773.1	0.000000	0.000000	6.142715	0.032497	NaN	0.000000	0.001683	0.001740	28.0984	0.057158	0.001991	28.7057	-28.0852	178.09	-0.018430	0.141039	-0.980631	-0.981902	0.032497	28.7057	-0.981480	-1.277485E+13	-2.543828E-15	NaN
135	1.000000	0.152345	7.36636e+06	-45389.1	955.818	-29773.1	0.000000	0.000000	6.152747	-0.027327	NaN	0.000000	0.001680	0.001730	28.1301	0.109622	0.002080	52.7085	-146.308	-2.496967	-0.026272	0.150940	-0.970597	-0.972001	-0.027327	52.7085	-0.970208	-9.004591E+12	3.034746E-15	NaN
135	1.000000	0.162332	7.36636e+06	-45389.1	955.818	-29773.1	0.000000	0.000000	6.162737	0.022160	NaN	0.000000	0.001676	0.001739	28.0933	0.076236	0.002193	34.7581	121.444	178.508	0.062151	0.161020	-0.960609	-0.961921	0.022160	34.7581	-0.961087	-6.784677E+12	-3.266243E-15	NaN
135	1.000000	0.172347	7.36636e+06	-45389.1	955.819	-29773.1	0.000000	0.000000	6.172751	-0.010199	NaN	0.000000	0.001619	0.001740	28.0782	0.080022	0.002049	39.0584	-120.976	-4.245545	-0.123989	0.171043	-0.950594	-0.951899	-0.010199	39.0584	-0.950398	-4.868528E+12	2.094893E-15	NaN
135	1.000000	0.182343	7.36636e+06	-45389.1	955.818	-29773.1	0.000000	0.000000	6.182747	0.001387	NaN	0.000000	0.001585	0.001751	28.098	0.091898	0.002016	45.5884	-158.129	177.817	-0.026558	0.181027	-0.940598	-0.941914	0.001387	45.5884	-0.940621	-3.593453E+12	-3.860854E-16	NaN
135	1.000000	0.192310	7.36636e+06	-45389.1	955.819	-29773.1	0.000000	0.000000	6.192716	0.037021	NaN	0.000000	0.001603	0.001722	28.1309	0.064116	0.002017	31.7874	154.027	-3.901519	0.067984	0.190935	-0.930631	-0.932006	0.037021	31.7874	-0.931505	-2.707101E+12	-1.367557E-14	NaN
135	1.000000	0.202349	7.36636e+06	-45389.1	955.818	-29773.1	0.000000	0.000000	6.202752	-0.014914	NaN	0.000000	0.001610	0.001752	28.0975	0.034070	0.002059	16.5438	-148.706	178.861	-0.017339	0.201031	-0.920593	-0.921910	-0.014914	16.5438	-0.919917	-1.888343E+12	7.897893E-15	NaN
135	1.000000	0.212365	7.36636e+06	-45389.1	955.819	-29773.1	0.000000	0.000000	6.212767	-0.046268	NaN	0.000000	0.001595	0.001757	28.0806	0.060902	0.001949	31.2542	-2.784673	-3.000542	-0.073141	0.210999	-0.910576	-0.911943	-0.046268	31.2542	-0.909466	-1.364432E+12	3.391036E-14	NaN
135	1.000000	0.222359	7.36636e+06	-45389.1	955.818	-29773.1	0.000000	0.000000	6.222766	0.067871	NaN	0.000000	0.001588	0.001743	28.0991	0.031987	0.002041	15.6742	135.12	178.292	-0.009318	0.221083	-0.900582	-0.901858	0.067871	15.6742	-0.903830	-1.145016E+12	-5.927485E-14	NaN
135	1.000000	0.232367	7.36636e+06	-45389.1	955.819	-29773.1	0.000000	0.000000	6.232769	-0.061911	NaN	0.000000	0.001577	0.001771	28.1311	0.020882	0.002036	10.2542	39.3941	0.572909	0.018936	0.230970	-0.890574	-0.891971	-0.061911	10.2542	-0.886046	-6.583540E+11	9.403958E-14	NaN
135	1.000000	0.242349	7.36636e+06	-45389.1	955.819	-29773.1	0.000000	0.000000	6.242752	-0.009567	NaN	0.000000	0.001591	0.001752	28.0963	0.112425	0.001918	58.6187	-107.378	179.663	-0.020328	0.241050	-0.880592	-0.881891	-0.009567	58.6187	-0.880470	-5.534309E+11	1.728687E-14	NaN
135	1.000000	0.252360	7.36636e+06	-45389.1	955.818	-29773.1	0.000000	0.000000	6.252766	0.034008	NaN	0.000000	0.001617	0.001748	28.0795	0.016569	0.002046	8.097158	108.253	-2.482235	-0.041037	0.251015	-0.870581	-0.871926	0.034008	8.097158	-0.873731	-4.486600E+11	-7.580013E-14	NaN
135	1.000000	0.262371	7.36636e+06	-45389.1	955.818	-29773.1	0.000000	0.000000	6.262773	-0.049981	NaN	0.000000	0.001579	0.001695	28.0981	0.106788	0.002142	49.8545	-0.191774	176.703	-0.041592	0.261021	-0.860570	-0.861921	-0.049981	49.8545	-0.859818	-2.908459E+11	1.718459E-13	NaN
135	1.000000	0.272406	7.36636e+06	-45389.1	955.818	-29773.1	0.000000	0.000000	6.272809	-0.022358	NaN	0.000000	0.001599	0.001738	28.1302	0.025968	0.001973	13.1637	65.9819	0.604623	0.045733	0.271061	-0.850535	-0.851881	-0.022358	13.1637	-0.849261	-2.092831E+11	1.068309E-13	NaN
135	1.000000	0.282389	7.36636e+06	-45389.1	955.819	-29773.1	0.000000	0.000000	6.282795	0.038083	NaN	0.000000	0.001599	0.001725	28.0964	0.027505	0.001975	13.9264	-46.0092	177.643	-0.028217	0.281055	-0.840552	-0.841886	0.038083	13.9264	-0.842603	-1.700406E+11	-2.239670E-13	NaN
135	1.000000	0.292391	7.36636e+06	-45389.1	955.818	-29773.1	0.000000	0.000000	6.292794	-0.015391	NaN	0.000000	0.001569	0.001796	28.0808	0.112620	0.002036	55.3186	146.808	-1.988735	-0.026026	0.291115	-0.830551	-0.831826	-0.015391	55.3186	-0.830342	-1.159897E+11	1.326895E-13	NaN
135	1.000000	0.302388	7.36636e+06	-45389.1	955.818	-29773.1	0.000000	0.000000	6.302794	0.060874	NaN	0.000000	0.001556	0.001773	28.0985	0.069149	0.002077	33.2955	-12.5346	178.764	0.038476	0.301044	-0.820554	-0.821897	0.060874	33.2955	-0.821925	-8.918939E+10	-6.825208E-13	NaN
135	1.000000	0.312385	7.36636e+06	-45389.1	955.818	-29773.1	0.000000	0.000000	6.312789	-0.004541	NaN	0.000000	0.001618	0.001785	28.1311	0.057001	0.002008	28.3833	-98.4429	-2.456790	-0.003918	0.311078	-0.810556	-0.811863	-0.004541	28.3833	-0.810436	-6.230029E+10	7.288970E-14	NaN
135	1.000000	0.322387	7.36636e+06	-45389.1	955.818	-29773.1	0.000000	0.000000	6.322789	-0.037014	NaN	0.000000	0.001614	0.001742	28.095	0.138189	0.001958	70.5637	84.7896	177.618	0.105023	0.321048	-0.800554	-0.801893	-0.037014	70.5637	-0.800161	-4.519063E+10	8.190680E-13	NaN
135	1.000000	0.332380	7.36636e+06	-45389.1	955.818	-29773.1	0.000000	0.000000	6.332781	-0.059872	NaN	0.000000	0.001602	0.001748	28.0773	0.069034	0.001983	34.8152	114.375	-3.429910	-0.093866	0.331048	-0.790562	-0.791893	-0.059872	34.8152	-0.789272	-3.215087E+10	1.862212E-12	NaN
135	1.000000	0.342403	7.36636e+06	-45389.1	955.819	-29773.1	0.000000	0.000000	6.342805	-0.047593	NaN	0.000000	0.001587	0.001732	28.0958	0.087286	0.001901	45.927	-88.5688	174.034	-0.027284	0.341148	-0.780538	-0.781793	-0.047593	45.927	-0.779761	-2.387740E+10	1.993236E-12	NaN
135	1.000000	0.352385	7.36636e+06	-45389.1	955.819	-29773.1	0.000000	0.000000	6.352786	-0.072786	NaN	0.000000	0.001585	0.001752	28.1291	0.077919	0.002052	37.9788	-56.3367	-3.659993	-0.107397	0.351066	-0.770556	-0.771875	-0.072786	37.9788	-0.769119	-1.711277E+10	4.253311E-12	NaN
135	1.000000	0.362398	7.36636e+06	-45389.1	955.818	-29773.1	0.000000	0.000000	6.362799	-0.069065	NaN	0.000000	0.001586	0.001733	28.0967	0.066716	0.002044	32.644	87.9581	173.816	-0.039482	0.361135	-0.760543	-0.761806	-0.069065	32.644	-0.758956	-1.244804E+10	5.548229E-12	NaN
135	1.000000	0.372423	7.36636e+06	-45389.1	955.819	-29773.1	0.000000	0.000000	6.372827	-0.016402	NaN	0.000000	0.001570	0.001718	28.0788	0.018510	0.002024	9.146023	143.879	-0.376585	-0.047378	0.371085	-0.750518	-0.751856	-0.016402	9.146023	-0.749173	-9.161418E+9	1.790317E-12	NaN
135	1.000000	0.382432	7.36636e+06	-45389.1	955.819	-29773.1	0.000000	0.000000	6.382832	-0.095275	NaN	0.000000	0.001619	0.001767	28.0971	0.148208	0.001954	75.8417	109.443	176.206	-0.012842	0.381066	-0.740509	-0.741876	-0.095275	75.8417	-0.739567	-6.778912E+9	1.405458E-11	NaN
135	1.000000	0.392422	7.36636e+06	-45389.1	955.819	-29773.1	0.000000	0.000000	6.392823	-0.060409	NaN	0.000000	0.001546	0.001685	28.1301	0.068435	0.001901	36.0072	-46.7768	-1.438697	-0.125312	0.391119	-0.730520	-0.731822	-0.060409	36.0072	-0.729262	-4.906174E+9	1.231281E-11	NaN
135	1.000000	0.402433	7.36636e+06	-45389.1	955.818	-29773.1	0.000000	0.000000	6.402836	-0.026640	NaN	0.000000	0.001573	0.001690	28.0953	0.029595	0.001955	15.1385	-30.7568	176.977	-0.049361	0.401111	-0.720508	-0.721830	-0.026640	15.1385	-0.719188	-3.576062E+9	7.449645E-12	NaN
135	1.000000	0.412447	7.36636e+06	-45389.1	955.818	-29773.1	0.000000	0.000000	6.412849	-0.062063	NaN	0.000000	0.001561	0.001711	28.0793	0.119907	0.002101	57.0635	-23.0616	-3.073732	-0.078677	0.411078	-0.710494	-0.711863	-0.062063	57.0635	-0.709678	-2.652509E+9	2.339795E-11	NaN
135	1.000000	0.422450	7.36636e+06	-45389.1	955.818	-29773.1	0.000000	0.000000	6.422855	0.017199	NaN	0.000000	0.001559	0.001700	28.0963	0.056699	0.001898	29.8771	-43.3483	178.21	0.037853	0.421140	-0.700491	-0.701802	0.017199	29.8771	-0.700923	-2.014357E+9	-8.538040E-12	NaN
135	1.000000	0.432448	7.36636e+06	-45389.1	955.818	-29773.1	0.000000	0.000000	6.432852	0.004876	NaN	0.000000	0.001573	0.001701	28.1289	0.047568	0.001936	24.5642	43.428	-1.472736	0.054907	0.431109	-0.690493	-0.691832	0.004876	24.5642	-0.690642	-1.457786E+9	-3.344570E-12	NaN
135	1.000000	0.442456	7.36636e+06	-45389.1	955.818	-29773.1	0.000000	0.000000	6.442858	-0.045427	NaN	0.000000	0.001589	0.001707	28.0963	0.033893	0.002088	16.2339	118.417	175.281	-0.080370	0.441156	-0.680485	-0.681785	-0.045427	16.2339	-0.678387	-9.911460E+8	4.583326E-11	NaN
135	1.000000	0.452460	7.36636e+06	-45389.1	955.819	-29773.1	0.000000	0.000000	6.452862	-0.065173	NaN	0.000000	0.001580	0.001726	28.08	0.016479	0.002107	7.819791	-114.997	-1.803926	-0.065637	0.451080	-0.670481	-0.671861	-0.065173	7.819791	-0.664230	-6.344571E+8	1.027226E-10	NaN
135	1.000000	0.462466	7.36636e+06	-45389.1	955.817	-29773.1	0.000000	0.000000	6.462872	0.053410	NaN	0.000000	0.001620	0.001712	28.098	0.112780	0.001992	56.627	85.8966	179.323	0.070247	0.461099	-0.660475	-0.661842	0.053410	56.627	-0.661183	-5.763236E+8	-9.267401E-11	NaN
135	1.000000	0.472488	7.36636e+06	-45389.1	955.818	-29773.1	0.000000	0.000000	6.472892	0.012179	NaN	0.000000	0.001561	0.001671	28.1311	0.054429	0.002026	26.8687	-35.9303	-1.965430	0.031538	0.471087	-0.650454	-0.651854	0.012179	26.8687	-0.650794	-4.152553E+8	-2.932877E-11	NaN
135	1.000000	0.482449	7.36636e+06	-45389.1	955.818	-29773.1	0.000000	0.000000	6.482851	-0.044675	NaN	0.000000	0.001588	0.001688	28.0965	0.030557	0.001981	15.4284	177.992	176.57	-0.059151	0.481108	-0.640493	-0.641833	-0.044675	15.4284	-0.638321	-2.800599E+8	1.595177E-10	NaN
135	1.000000	0.492458	7.36636e+06	-45389.1	955.818	-29773.1	0.000000	0.000000	6.492859	-0.076776	NaN	0.000000	0.001598	0.001714	28.0798	0.036290	0.002062	17.601	20.9214	-2.351940	-0.023956	0.491112	-0.630483	-0.631829	-0.076776	17.601	-0.627212	-1.971191E+8	3.894889E-10	NaN
135	1.000000	0.502485	7.36636e+06	-45389.1	955.819	-29773.1	0.000000	0.000000	6.502887	-0.032468	NaN	0.000000	0.001578	0.001739	28.0968	0.045554	0.001948	23.3804	-14.0002	179.403	-0.025451	0.501173	-0.620457	-0.621769	-0.032468	23.3804	-0.619415	-1.540262E+8	2.107959E-10	NaN
135	1.000000	0.512488	7.36636e+06	-45389.1	955.818	-29773.1	0.000000	0.000000	6.512891	-0.017861	NaN	0.000000	0.001600	0.001748	28.1302	0.098322	0.001933	50.8743	24.9954	-2.885188	-0.065649	0.511086	-0.610454	-0.611856	-0.017861	50.8743	-0.610190	-1.150089E+8	1.553017E-10	NaN
135	1.000000	0.522467	7.36636e+06	-45389.1	955.819	-29773.1	0.000000	0.000000	6.522869	-0.038740	NaN	0.000000	0.001566	0.001707	28.0983	0.041915	0.002014	20.8089	84.1441	177.548	-0.022105	0.521185	-0.600474	-0.601756	-0.038740	20.8089	-0.599078	-8.086504E+7	4.790649E-10	NaN
135	1.000000	0.532504	7.36636e+06	-45389.1	955.818	-29773.1	0.000000	0.000000	6.532906	-0.051117	NaN	0.000000	0.001569	0.001746	28.0804	0.075835	0.002087	36.3299	158.578	-0.323243	-0.015969	0.531085	-0.590437	-0.591856	-0.051117	36.3299	-0.589382	-5.944889E+7	8.598436E-10	NaN
135	1.000000	0.542483	7.36636e+06	-45389.1	955.818	-29773.1	0.000000	0.000000	6.542886	-0.017136	NaN	0.000000	0.001597	0.001716	28.0974	0.084747	0.002182	38.8424	-138.613	174.871	-0.042927	0.541135	-0.580459	-0.581806	-0.017136	38.8424	-0.580128	-4.430879E+7	3.867295E-10	NaN
135	1.000000	0.552509	7.36636e+06	-45389.1	955.818	-29773.1	0.000000	0.000000	6.552913	-0.000334	NaN	0.000000	0.001571	0.001723	28.1316	0.044909	0.002037	22.0466	-13.3852	-1.609635	-0.012861	0.551111	-0.570432	-0.571830	-0.000334	22.0466	-0.570421	-3.254217E+7	1.025982E-11	NaN
135	1.000000	0.562498	7.36636e+06	-45389.1	955.818	-29773.1	0.000000	0.000000	6.562903	0.024499	NaN	0.000000	0.001557	0.001705	28.0973	0.060132	0.001934	31.0969	-71.5413	179.757	0.019316	0.561203	-0.560444	-0.561738	0.024499	31.0969	-0.561034	-2.413724E+7	-1.015008E-9	NaN
135	1.000000	0.572506	7.36636e+06	-45389.1	955.819	-29773.1	0.000000	0.000000	6.572907	-0.062058	NaN	0.000000	0.001547	0.001716	28.0784	0.103001	0.001978	52.062	102.705	0.192443	-0.011371	0.571164	-0.550435	-0.551778	-0.062058	52.062	-0.549541	-1.673409E+7	3.708456E-9	NaN
135	1.000000	0.582512	7.36636e+06	-45389.1	955.818	-29773.1	0.000000	0.000000	6.582915	-0.028349	NaN	0.000000	0.001543	0.001721	28.0954	0.017372	0.002090	8.310603	-140.566	178.143	-0.086380	0.581213	-0.540429	-0.541728	-0.028349	8.310603	-0.537871	-1.152977E+7	2.458792E-9	NaN
135	1.000000	0.592514	7.36636e+06	-45389.1	955.818	-29773.1	0.000000	0.000000	6.592915	-0.068127	NaN	0.000000	0.001606	0.001757	28.129	0.033703	0.002019	16.6936	121.13	-2.879564	-0.069494	0.591182	-0.530427	-0.531760	-0.068127	16.6936	-0.527366	-8.24127e+06	8.266620E-9	NaN
135	1.000000	0.602531	7.36636e+06	-45389.1	955.818	-29773.1	0.000000	0.000000	6.602935	-0.011046	NaN	0.000000	0.001649	0.001736	28.0969	0.155354	0.001794	86.5759	166.082	175.664	-0.026508	0.601201	-0.520410	-0.521740	-0.011046	86.5759	-0.520314	-6.5761e+06	1.679644E-9	NaN
135	1.000000	0.612537	7.36636e+06	-45389.1	955.818	-29773.1	0.000000	0.000000	6.612942	0.032353	NaN	0.000000	0.001647	0.001750	28.0789	0.033444	0.001960	17.066	-138.943	-5.978626	-0.010405	0.611123	-0.510404	-0.511819	0.032353	17.066	-0.511826	-5.01012e+06	-6.457476E-9	NaN
135	1.000000	0.622514	7.36636e+06	-45389.1	955.819	-29773.1	0.000000	0.000000	6.622915	-0.080575	NaN	0.000000	0.001668	0.001742	28.0958	0.052024	0.002011	25.8719	162.386	179.341	-0.111202	0.621160	-0.500427	-0.501782	-0.080575	25.8719	-0.498092	-3.22396e+06	2.499254E-8	NaN
135	1.000000	0.632531	7.36636e+06	-45389.1	955.819	-29773.1	0.000000	0.000000	6.632935	0.001785	NaN	0.000000	0.001658	0.001731	28.1297	0.053989	0.002033	26.5524	-83.7172	-2.171476	0.034438	0.631167	-0.490410	-0.491775	0.001785	26.5524	-0.490460	-2.52247e+06	-7.077604E-10	NaN
135	1.000000	0.642528	7.36636e+06	-45389.1	955.818	-29773.1	0.000000	0.000000	6.642932	0.006439	NaN	0.000000	0.001580	0.001692	28.0957	0.078486	0.001979	39.6618	-53.0591	178.211	0.073805	0.641271	-0.480414	-0.481670	0.006439	39.6618	-0.480535	-1.8324e+06	-3.514161E-9	NaN
135	1.000000	0.652523	7.36636e+06	-45389.1	955.818	-29773.1	0.000000	0.000000	6.652928	0.013122	NaN	0.000000	0.001580	0.001700	28.0792	0.028533	0.001959	14.5662	153.837	-2.467807	-0.017989	0.651177	-0.470418	-0.471764	0.013122	14.5662	-0.471094	-1.35129e+06	-9.711108E-9	NaN
135	1.000000	0.662530	7.36636e+06	-45389.1	955.818	-29773.1	0.000000	0.000000	6.662933	-0.009583	NaN	0.000000	0.001574	0.001695	28.0939	0.043139	0.002186	19.7353	174.644	177.128	-0.034064	0.661222	-0.460412	-0.461720	-0.009583	19.7353	-0.460048	-945555	1.013449E-8	NaN
135	1.000000	0.672539	7.36636e+06	-45389.1	955.818	-29773.1	0.000000	0.000000	6.672943	-0.001717	NaN	0.000000	0.001587	0.001713	28.1292	0.109740	0.001935	56.7008	64.1439	-0.812164	-0.056022	0.671217	-0.450402	-0.451724	-0.001717	56.7008	-0.450379	-691329	2.483141E-9	NaN
135	1.000000	0.682553	7.36636e+06	-45389.1	955.818	-29773.1	0.000000	0.000000	6.682958	0.026601	NaN	0.000000	0.001576	0.001715	28.0971	0.049360	0.002159	22.8618	-75.162	174.386	0.046951	0.681326	-0.440388	-0.441615	0.026601	22.8618	-0.441261	-514229	-5.173033E-8	NaN
135	1.000000	0.692557	7.36636e+06	-45389.1	955.818	-29773.1	0.000000	0.000000	6.692960	-0.010430	NaN	0.000000	0.001639	0.001680	28.0789	0.050977	0.002006	25.4092	-94.1293	-4.371555	-0.027014	0.691238	-0.430384	-0.431703	-0.010430	25.4092	-0.430076	-357391	2.918409E-8	NaN
135	1.000000	0.702566	7.36636e+06	-45389.1	955.819	-29773.1	0.000000	0.000000	6.702970	0.000868	NaN	0.000000	0.001647	0.001679	28.0956	0.031471	0.002149	14.6427	-21.9384	177.72	-0.042729	0.701273	-0.420376	-0.421668	0.000868	14.6427	-0.420420	-260839	-3.327194E-9	NaN
135	1.000000	0.712562	7.36636e+06	-45389.1	955.819	-29773.1	0.000000	0.000000	6.712964	-0.028073	NaN	0.000000	0.001604	0.001686	28.1304	0.082992	0.002049	40.5076	-50.0355	-3.493971	-0.024528	0.711233	-0.410380	-0.411709	-0.028073	40.5076	-0.409860	-184675	1.520157E-7	NaN
135	1.000000	0.722584	7.36636e+06	-45389.1	955.818	-29773.1	0.000000	0.000000	6.722989	0.019587	NaN	0.000000	0.001647	0.001704	28.0965	0.076585	0.001999	38.3137	-114.821	175.682	0.052458	0.721255	-0.400357	-0.401687	0.019587	38.3137	-0.400740	-136947	-1.430232E-7	NaN
135	1.000000	0.732567	7.36636e+06	-45389.1	955.818	-29773.1	0.000000	0.000000	6.732970	-0.016832	NaN	0.000000	0.001623	0.001690	28.0792	0.056914	0.001935	29.4184	-164.6	-1.721037	-0.082063	0.731228	-0.390375	-0.391714	-0.016832	29.4184	-0.389946	-96025.8	1.752830E-7	NaN
135	1.000000	0.742599	7.36636e+06	-45389.1	955.819	-29773.1	0.000000	0.000000	6.742999	-0.075620	NaN	0.000000	0.001587	0.001731	28.0952	0.022921	0.001955	11.725	-137.864	176.8	-0.076684	0.741269	-0.380343	-0.381672	-0.075620	11.725	-0.375506	-59612.5	1.268529E-6	NaN
135	1.000000	0.752582	7.36636e+06	-45389.1	955.819	-29773.1	0.000000	0.000000	6.752986	-0.007460	NaN	0.000000	0.001577	0.001732	28.1305	0.124541	0.001969	63.2584	-59.8661	-2.813917	-0.018226	0.751208	-0.370359	-0.371734	-0.007460	63.2584	-0.370271	-50121.6	1.488313E-7	NaN
135	1.000000	0.762549	7.36636e+06	-45389.1	955.817	-29773.1	0.000000	0.000000	6.762951	-0.043143	NaN	0.000000	0.001639	0.001708	28.1	0.005203	0.001984	2.622490	161.023	179.076	0.004590	0.761275	-0.360393	-0.361666	-0.043143	2.622490	-0.348054	-23919.3	1.803687E-6	NaN
135	1.000000	0.772595	7.36636e+06	-45389.1	955.819	-29773.1	0.000000	0.000000	6.772998	-0.033542	NaN	0.000000	0.001580	0.001709	28.0799	0.109193	0.002072	52.6949	130.333	-2.099379	-0.040375	0.771241	-0.350346	-0.351700	-0.033542	52.6949	-0.349869	-25415.6	1.319725E-6	NaN
135	1.000000	0.782588	7.36636e+06	-45389.1	955.819	-29773.1	0.000000	0.000000	6.782992	-0.010091	NaN	0.000000	0.001621	0.001705	28.0953	0.031762	0.002083	15.2459	-38.6393	177.295	-0.087558	0.781192	-0.340353	-0.341749	-0.010091	15.2459	-0.339857	-18174.6	5.552289E-7	NaN
135	1.000000	0.792589	7.36636e+06	-45389.1	955.818	-29773.1	0.000000	0.000000	6.792992	-0.004278	NaN	0.000000	0.001581	0.001692	28.1311	0.119420	0.002115	56.4641	149.393	-1.119475	-0.024992	0.791214	-0.330353	-0.331727	-0.004278	56.4641	-0.330296	-13175.9	3.246695E-7	NaN
135	1.000000	0.802619	7.36636e+06	-45389.1	955.819	-29773.1	0.000000	0.000000	6.803020	-0.064647	NaN	0.000000	0.001622	0.001669	28.0984	0.012738	0.002021	6.303470	-9.879957	177.113	-0.091689	0.801313	-0.320322	-0.321628	-0.064647	6.303470	-0.312630	-7243.62	8.924618E-6	NaN
135	1.000000	0.812610	7.36636e+06	-45389.1	955.819	-29773.1	0.000000	0.000000	6.813014	-0.005028	NaN	0.000000	0.001603	0.001716	28.0804	0.024019	0.002023	11.8712	31.6912	-0.540975	-0.029813	0.811251	-0.310331	-0.311691	-0.005028	11.8712	-0.310014	-6626.11	7.587578E-7	NaN
135	1.000000	0.822599	7.36636e+06	-45389.1	955.818	-29773.1	0.000000	0.000000	6.823001	-0.035734	NaN	0.000000	0.001587	0.001738	28.0989	0.113675	0.002064	55.0705	-27.363	175.823	0.067291	0.821271	-0.300342	-0.301670	-0.035734	55.0705	-0.299856	-4682.59	7.631254E-6	NaN
135	1.000000	0.832616	7.36636e+06	-45389.1	955.818	-29773.1	0.000000	0.000000	6.833018	-0.048655	NaN	0.000000	0.001606	0.001669	28.1311	0.025744	0.001956	13.1636	5.457740	-1.819903	-0.044557	0.831261	-0.290325	-0.291680	-0.048655	13.1636	-0.287553	-3066.29	1.586774E-5	NaN
135	1.000000	0.842616	7.36636e+06	-45389.1	955.819	-29773.1	0.000000	0.000000	6.843022	0.053692	NaN	0.000000	0.001593	0.001708	28.1012	0.018263	0.002109	8.659894	-50.9819	176.476	0.056087	0.841345	-0.280325	-0.281596	0.053692	8.659894	-0.284975	-2804.76	-1.914327E-5	NaN
135	1.000000	0.852629	7.36636e+06	-45389.1	955.818	-29773.1	0.000000	0.000000	6.853034	0.030732	NaN	0.000000	0.001575	0.001694	28.0827	0.102326	0.002162	47.3305	142.543	-2.278193	0.004173	0.851266	-0.270312	-0.271675	0.030732	47.3305	-0.270799	-1712.73	-1.794333E-5	NaN
135	1.000000	0.862614	7.36636e+06	-45389.1	955.818	-29773.1	0.000000	0.000000	6.863018	-0.000696	NaN	0.000000	0.001600	0.001711	28.0946	0.082237	0.002129	38.6219	96.0454	179.335	-0.049419	0.861312	-0.260327	-0.261629	-0.000696	38.6219	-0.260314	-1185.01	5.873719E-7	NaN
135	1.000000	0.872599	7.36636e+06	-45389.1	955.819	-29773.1	0.000000	0.000000	6.873002	-0.016914	NaN	0.000000	0.001589	0.001710	28.1305	0.045860	0.002043	22.4461	-157.37	-2.613436	-0.014458	0.871264	-0.250343	-0.251678	-0.016914	22.4461	-0.249777	-815.689	2.073576E-5	NaN
135	1.000000	0.882653	7.36636e+06	-45389.1	955.818	-29773.1	0.000000	0.000000	6.883059	0.041385	NaN	0.000000	0.001591	0.001669	28.098	0.152141	0.002099	72.4776	56.2161	176.535	0.032805	0.881321	-0.240288	-0.241620	0.041385	72.4776	-0.240716	-589.84	-7.016331E-5	NaN
135	1.000000	0.892640	7.36636e+06	-45389.1	955.817	-29773.1	0.000000	0.000000	6.893041	-0.057978	NaN	0.000000	0.001589	0.001693	28.0789	0.079888	0.001988	40.188	172.32	-2.415217	-0.004629	0.891286	-0.230302	-0.231655	-0.057978	40.188	-0.229220	-389.215	0.000149	NaN
135	1.000000	0.902626	7.36636e+06	-45389.1	955.818	-29773.1	0.000000	0.000000	6.903030	0.000728	NaN	0.000000	0.001622	0.001699	28.0942	0.060463	0.002065	29.2745	146.286	175.97	-0.003724	0.901353	-0.220315	-0.221588	0.000728	29.2745	-0.220333	-281.193	-2.589402E-6	NaN
135	1.000000	0.912644	7.36636e+06	-45389.1	955.818	-29773.1	0.000000	0.000000	6.913050	0.055681	NaN	0.000000	0.001590	0.001697	28.1297	0.074214	0.001962	37.8246	-100.377	-3.557167	-0.029952	0.911275	-0.210298	-0.211666	0.055681	37.8246	-0.211402	-202.067	-0.000276	NaN
135	1.000000	0.922618	7.36636e+06	-45389.1	955.818	-29773.1	0.000000	0.000000	6.923021	-0.035490	NaN	0.000000	0.001595	0.001757	28.1004	0.114544	0.001930	59.3461	-56.2394	177.04	0.026268	0.921366	-0.200323	-0.201575	-0.035490	59.3461	-0.199874	-131.109	0.000271	NaN
135	1.000000	0.932642	7.36636e+06	-45389.1	955.819	-29773.1	0.000000	0.000000	6.933047	0.037085	NaN	0.000000	0.001551	0.001750	28.0807	0.065729	0.002131	30.8453	37.8299	-1.330995	0.020941	0.931291	-0.190300	-0.191651	0.037085	30.8453	-0.191201	-94.2057	-0.000394	NaN
135	1.000000	0.942669	7.36636e+06	-45389.1	955.819	-29773.1	0.000000	0.000000	6.943071	-0.036168	NaN	0.000000	0.001544	0.001773	28.0951	0.018560	0.002006	9.253374	144.025	-179.889	-0.022124	0.941327	-0.180272	-0.181614	-0.036168	9.253374	-0.177341	-54.968	0.000658	NaN
135	1.000000	0.952674	7.36636e+06	-45389.1	955.819	-29773.1	0.000000	0.000000	6.953076	-0.058698	NaN	0.000000	0.001541	0.001737	28.131	0.058556	0.002134	27.4332	167.669	-3.682967	-0.096041	0.951315	-0.170267	-0.171626	-0.058698	27.4332	-0.168662	-38.9355	0.001508	NaN
135	1.000000	0.962672	7.36636e+06	-45389.1	955.818	-29773.1	0.000000	0.000000	6.963075	-0.029496	NaN	0.000000	0.001560	0.001741	28.0993	0.069988	0.002014	34.7488	23.2045	-179.869	-0.042042	0.961321	-0.160269	-0.161620	-0.029496	34.7488	-0.159632	-27.0055	0.001092	NaN
135	1.000000	0.972673	7.36636e+06	-45389.1	955.818	-29773.1	0.000000	0.000000	6.973074	-0.055784	NaN	0.000000	0.001572	0.001756	28.0803	0.038783	0.002019	19.2042	80.1463	-3.216195	-0.092366	0.971321	-0.150268	-0.151620	-0.055784	19.2042	-0.148090	-16.7138	0.003338	NaN
135	1.000000	0.982659	7.36636e+06	-45389.1	955.818	-29773.1	0.000000	0.000000	6.983060	-0.082162	NaN	0.000000	0.001537	0.001758	28.0933	0.060240	0.001982	30.399	-21.3375	175.301	-0.067530	0.981450	-0.140282	-0.141491	-0.082162	30.399	-0.138255	-10.9671	0.007492	NaN
135	1.000000	0.992650	7.36636e+06	-45389.1	955.818	-29773.1	0.000000	0.000000	6.993055	0.027886	NaN	0.000000	0.001572	0.001736	28.1293	0.039832	0.001916	20.791	102.637	-0.964859	0.069597	0.991308	-0.130292	-0.131634	0.027886	20.791	-0.131298	-8.075322	-0.003453	NaN
135	1.000000	1.002684	7.36636e+06	-45389.1	955.818	-29773.1	0.000000	0.000000	7.003088	-0.002391	NaN	0.000000	0.001515	0.001734	28.1014	0.064613	0.001953	33.0783	122.105	-179.135	-0.041744	1.001339	-0.120257	-0.121602	-0.002391	33.0783	-0.120203	-4.877239	0.000490	NaN
135	1.000000	1.012694	7.36636e+06	-45389.1	955.819	-29773.1	0.000000	0.000000	7.013097	-0.015095	NaN	0.000000	0.001514	0.001759	28.0804	0.072005	0.001971	36.5339	-2.105323	0.587109	0.001560	1.011350	-0.110248	-0.111591	-0.015095	36.5339	-0.109938	-2.996121	0.005038	NaN
135	1.000000	1.022703	7.36636e+06	-45389.1	955.819	-29773.1	0.000000	0.000000	7.023104	-0.073150	NaN	0.000000	0.001534	0.001718	28.0955	0.038684	0.001924	20.101	-158.244	175.953	-0.061902	1.021371	-0.100239	-0.101570	-0.073150	20.101	-0.097509	-1.607641	0.045501	NaN
135	1.000000	1.032697	7.36636e+06	-45389.1	955.819	-29773.1	0.000000	0.000000	7.033103	0.035357	NaN	0.000000	0.001544	0.001768	28.1312	0.088116	0.001973	44.6561	-15.1327	-3.333804	-0.032780	1.031400	-0.090244	-0.091542	0.035357	44.6561	-0.090838	-1.130895	-0.031265	NaN
135	1.000000	1.042706	7.36636e+06	-45389.1	955.819	-29773.1	0.000000	0.000000	7.043108	-0.041461	NaN	0.000000	0.001532	0.001760	28.1	0.044708	0.001931	23.148	69.8659	175.523	-0.090096	1.041352	-0.080235	-0.081589	-0.041461	23.148	-0.078892	-0.580602	0.071410	NaN
135	1.000000	1.052676	7.36636e+06	-45389.1	955.818	-29773.1	0.000000	0.000000	7.053080	0.001664	NaN	0.000000	0.001512	0.001710	28.0796	0.103635	0.001915	54.1087	-2.286485	-5.072203	0.032938	1.051341	-0.070266	-0.071601	0.001664	54.1087	-0.070289	-0.347228	-0.004793	NaN
135	1.000000	1.062681	7.36636e+06	-45389.1	955.819	-29773.1	0.000000	0.000000	7.063085	-0.013083	NaN	0.000000	0.001528	0.001724	28.0944	0.077653	0.002039	38.0811	134.103	176.911	0.013406	1.061385	-0.060260	-0.061556	-0.013083	38.0811	-0.060002	-0.180122	0.072632	NaN
135	1.000000	1.072699	7.36636e+06	-45389.1	955.819	-29773.1	0.000000	0.000000	7.073103	-0.013449	NaN	0.000000	0.001530	0.001722	28.1299	0.046947	0.001822	25.7692	-123.249	0.129569	-0.025308	1.071354	-0.050242	-0.051587	-0.013449	25.7692	-0.049851	-0.090306	0.148927	NaN
135	1.000000	1.082701	7.36636e+06	-45389.1	955.819	-29773.1	0.000000	0.000000	7.083106	0.011485	NaN	0.000000	0.001537	0.001713	28.1017	0.060979	0.002012	30.3026	100.267	178.978	-0.000760	1.081422	-0.040240	-0.041519	0.011485	30.3026	-0.040524	-0.046913	-0.244810	NaN
135	1.000000	1.092719	7.36636e+06	-45389.1	955.819	-29773.1	0.000000	0.000000	7.093121	-0.042327	NaN	0.000000	0.001530	0.001700	28.0803	0.084301	0.002009	41.9544	176.475	-0.229527	-0.031359	1.091370	-0.030223	-0.031571	-0.042327	41.9544	-0.029466	-0.022240	1.903164	NaN
135	1.000000	1.102716	7.36636e+06	-45389.1	955.819	-29773.1	0.000000	0.000000	7.103120	-0.001700	NaN	0.000000	0.001514	0.001706	28.095	0.052671	0.002015	26.1419	138.509	-176.292	0.041517	1.101378	-0.020225	-0.021563	-0.001700	26.1419	-0.020177	-0.012692	0.133950	NaN
135	1.000000	1.112749	7.36636e+06	-45389.1	955.819	-29773.1	0.000000	0.000000	7.113150	-0.061388	NaN	0.000000	0.001564	0.001700	28.1313	0.018705	0.001965	9.518230	-93.7862	-4.215312	-0.017720	1.111349	-0.010192	-0.011593	-0.061388	9.518230	-0.005355	-0.003639	16.8712	NaN
135	1.000000	1.122711	7.36636e+06	-45389.1	955.82	-29773.1	0.000000	0.000000	7.123130	0.367766	NaN	0.000000	0.001538	0.001723	28.1009	0.705522	0.002022	348.838	17.4389	175.702	-0.047917	1.121464	-0.000230	-0.001477	0.367766	348.838	-0.001021	-0.000748	-491.472	NaN
135	2.000000	1.132385	7.36636e+06	-45389.1	955.819	-29773.1	0.000000	0.000000	7.133199	9.980635	NaN	0.000000	0.001544	0.001722	28.08	9.817572	0.001828	5371.91	9.479687	-8.935129	8.141389	1.131321	0.009444	0.008380	9.980635	5371.91	0.008051	0.007094	1406.84	58270.2
135	2.000000	1.135241	7.36636e+06	-45389.1	955.819	-29773.1	0.000000	0.000000	7.136301	15.9588	NaN	0.000000	0.001559	0.001734	28.0921	12.4648	0.001475	8451.29	4.326344	169.764	15.442	1.134965	0.012299	0.012023	15.9588	8451.29	0.010883	0.010179	1567.75	76530.4
135	2.000000	1.137721	7.36636e+06	-45389.1	955.819	-29773.1	0.000000	0.000000	7.138964	20.4166	NaN	0.000000	0.001564	0.001746	28.1288	16.2485	0.001654	9822.66	3.366464	-9.750673	19.7382	1.137317	0.014780	0.014376	20.4166	9822.66	0.013221	0.012986	1572.23	78753.3
135	2.000000	1.140220	7.36636e+06	-45389.1	955.819	-29773.1	0.000000	0.000000	7.141640	24.7276	NaN	0.000000	0.001577	0.001689	28.1004	19.9455	0.001828	10908.1	5.151576	166.702	24.2316	1.139926	0.017279	0.016985	24.7276	10908.1	0.015578	0.016064	1539.28	78630.6
135	2.000000	1.142732	7.36636e+06	-45389.1	955.818	-29773.1	0.000000	0.000000	7.144471	32.4742	NaN	0.000000	0.001596	0.001686	28.0799	21.7456	0.001687	12892.6	5.907956	-14.6379	31.3171	1.142338	0.019791	0.019397	32.4742	12892.6	0.017901	0.019351	1678.14	84675.7
135	2.000000	1.145158	7.36636e+06	-45389.1	955.819	-29773.1	0.000000	0.000000	7.147165	39.0115	NaN	0.000000	0.001570	0.001694	28.093	24.7261	0.001747	14156.3	3.226603	165.396	37.006	1.144861	0.022216	0.021919	39.0115	14156.3	0.020149	0.022778	1712.71	85697.5
135	2.000000	1.147720	7.36636e+06	-45389.1	955.818	-29773.1	0.000000	0.000000	7.150003	45.7164	NaN	0.000000	0.001567	0.001682	28.13	28.2917	0.001735	16309.9	6.045979	-17.5412	46.9469	1.147296	0.024778	0.024354	45.7164	16309.9	0.022676	0.026923	1698.04	90816
135	2.000000	1.150183	7.36636e+06	-45389.1	955.818	-29773.1	0.000000	0.000000	7.152842	54.8597	NaN	0.000000	0.001545	0.001718	28.099	31.0792	0.001897	16384.3	4.698660	163.221	54.4029	1.149901	0.027242	0.026960	54.8597	16384.3	0.024730	0.030527	1797.09	85676.2
135	2.000000	1.152688	7.36636e+06	-45389.1	955.819	-29773.1	0.000000	0.000000	7.155564	60.1373	NaN	0.000000	0.001585	0.001708	28.0791	32.71	0.001766	18518.6	4.286636	-17.784	58.8499	1.152328	0.029747	0.029386	60.1373	18518.6	0.027311	0.035355	1700.98	89982.4
135	2.000000	1.155161	7.36636e+06	-45389.1	955.819	-29773.1	0.000000	0.000000	7.158453	70.2477	NaN	0.000000	0.001580	0.001740	28.0919	34.2109	0.001705	20065	3.641406	162.386	69.4744	1.154779	0.032220	0.031838	70.2477	20065	0.029594	0.039907	1760.27	91767
135	2.000000	1.157609	7.36636e+06	-45389.1	955.818	-29773.1	0.000000	0.000000	7.161215	77.9016	NaN	0.000000	0.001595	0.001729	28.1286	36.8005	0.001835	20057.7	2.365774	-16.0647	75.5321	1.157271	0.034667	0.034330	77.9016	20057.7	0.031754	0.044459	1752.23	86911.2
135	2.000000	1.160126	7.36636e+06	-45389.1	955.818	-29773.1	0.000000	0.000000	7.164041	85.4097	NaN	0.000000	0.001607	0.001739	28.1003	39.2487	0.001803	21764.7	2.475160	162.342	84.3163	1.159876	0.037185	0.036935	85.4097	21764.7	0.034242	0.049995	1708.36	88932.8
135	2.000000	1.162672	7.36636e+06	-45389.1	955.818	-29773.1	0.000000	0.000000	7.166901	93.0641	NaN	0.000000	0.001572	0.001740	28.0787	41.3784	0.001793	23074.4	6.877824	-21.0977	92.9081	1.162357	0.039730	0.039415	93.0641	23074.4	0.036705	0.055792	1668.07	89252.4
135	2.000000	1.165094	7.36636e+06	-45389.1	955.818	-29773.1	0.000000	0.000000	7.169852	105.914	NaN	0.000000	0.001585	0.001717	28.0931	43.1485	0.001704	25317.5	4.219787	160.49	103.479	1.164841	0.042153	0.041899	105.914	25317.5	0.039015	0.061508	1721.95	93267.2
135	2.000000	1.167613	7.36636e+06	-45389.1	955.818	-29773.1	0.000000	0.000000	7.172751	115.165	NaN	0.000000	0.001609	0.001702	28.1309	46.5077	0.001832	25381.3	3.130026	-18.5462	113.373	1.167313	0.044672	0.044372	115.165	25381.3	0.041269	0.067349	1709.99	89355.9
135	2.000000	1.170116	7.36636e+06	-45389.1	955.819	-29773.1	0.000000	0.000000	7.175687	125.698	NaN	0.000000	0.001569	0.001715	28.1006	48.8432	0.001861	26247.5	3.747374	160.777	123.395	1.169910	0.047175	0.046969	125.698	26247.5	0.043583	0.073616	1707.47	88384
135	2.000000	1.172607	7.36636e+06	-45389.1	955.819	-29773.1	0.000000	0.000000	7.178803	140.889	NaN	0.000000	0.001589	0.001713	28.0804	50.3379	0.001866	26981.5	3.809355	-18.8909	137.163	1.172243	0.049666	0.049302	140.889	26981.5	0.045750	0.079730	1767.08	87303.1
135	2.000000	1.175101	7.36636e+06	-45389.1	955.819	-29773.1	0.000000	0.000000	7.181807	153.31	NaN	0.000000	0.001554	0.001709	28.0932	52.4849	0.001625	32290	4.315444	158.287	151.385	1.174804	0.052160	0.051862	153.31	32290	0.048599	0.088131	1739.56	99374.6
135	2.000000	1.177682	7.36636e+06	-45389.1	955.819	-29773.1	0.000000	0.000000	7.184819	163.802	NaN	0.000000	0.001559	0.001716	28.1301	57.0369	0.001872	30461.3	6.882956	-23.6014	164.428	1.177250	0.054740	0.054309	163.802	30461.3	0.050707	0.094612	1731.3	90479.1
135	2.000000	1.180034	7.36636e+06	-45389.1	955.818	-29773.1	0.000000	0.000000	7.187811	179.366	NaN	0.000000	0.001532	0.001713	28.1025	58.4173	0.001757	33251.4	2.397337	159.439	174.661	1.179843	0.057093	0.056902	179.366	33251.4	0.053047	0.102063	1757.4	95093
135	2.000000	1.182650	7.36636e+06	-45389.1	955.819	-29773.1	0.000000	0.000000	7.190630	184.319	NaN	0.000000	0.001583	0.001725	28.0816	60.8382	0.001791	33970.9	4.740936	-22.479	181.443	1.182383	0.059708	0.059442	184.319	33970.9	0.055639	0.110637	1665.98	93310.5
135	2.000000	1.185102	7.36636e+06	-45389.1	955.819	-29773.1	0.000000	0.000000	7.193864	203.319	NaN	0.000000	0.001533	0.001722	28.0953	62.0755	0.001774	34990.7	0.537918	161.783	202.367	1.184779	0.062161	0.061837	203.319	34990.7	0.057803	0.118046	1722.36	93046.2
135	2.000000	1.187663	7.36636e+06	-45389.1	955.819	-29773.1	0.000000	0.000000	7.196738	210.93	NaN	0.000000	0.001590	0.001742	28.1312	66.5958	0.001744	38189.1	5.736525	-25.3679	211.129	1.187351	0.064722	0.064410	210.93	38189.1	0.060580	0.127895	1649.24	97563.2
135	2.000000	1.190098	7.36636e+06	-45389.1	955.818	-29773.1	0.000000	0.000000	7.200113	233.797	NaN	0.000000	0.001570	0.001736	28.1015	68.2903	0.001832	37275.7	1.764081	160.266	232.044	1.189711	0.067157	0.066770	233.797	37275.7	0.062453	0.134750	1735.03	92775.7
135	2.000000	1.192534	7.36637e+06	-45389.1	955.819	-29773.1	0.000000	0.000000	7.203079	246.705	NaN	0.000000	0.001605	0.001720	28.0803	69.5638	0.001760	39518.1	3.297460	-22.1179	239.512	1.192171	0.069592	0.069230	246.705	39518.1	0.064910	0.144002	1713.2	95144.7
135	2.000000	1.195089	7.36637e+06	-45389.1	955.818	-29773.1	0.000000	0.000000	7.206292	262.711	NaN	0.000000	0.001572	0.001726	28.093	72.332	0.001815	39862.8	3.467275	157.308	261.136	1.194842	0.072147	0.071900	262.711	39862.8	0.067205	0.152903	1718.16	93139.5
135	2.000000	1.197665	7.36637e+06	-45389.1	955.818	-29773.1	0.000000	0.000000	7.209460	277.104	NaN	0.000000	0.001600	0.001742	28.1298	74.9413	0.001823	41105.4	6.224809	-24.9998	278.33	1.197267	0.074724	0.074326	277.104	41105.4	0.069668	0.162741	1702.73	93094.6
135	2.000000	1.200170	7.36637e+06	-45389.1	955.819	-29773.1	0.000000	0.000000	7.212630	293.269	NaN	0.000000	0.001591	0.001725	28.1025	78.383	0.001902	41201.8	6.025526	154.494	297.289	1.199874	0.077229	0.076933	293.269	41201.8	0.071891	0.171864	1706.4	90802.2
135	2.000000	1.202593	7.36637e+06	-45389.1	955.819	-29773.1	0.000000	0.000000	7.216024	316.913	NaN	0.000000	0.001600	0.001740	28.08	79.2207	0.001787	44343.8	6.967313	-26.6819	313.854	1.202205	0.079652	0.079264	316.913	44343.8	0.074292	0.181983	1741.44	94971.1
135	2.000000	1.205010	7.36637e+06	-45389.1	955.819	-29773.1	0.000000	0.000000	7.219183	334.967	NaN	0.000000	0.001590	0.001734	28.093	80.1103	0.001730	46311.3	5.698837	153.628	328.633	1.204717	0.082069	0.081776	334.967	46311.3	0.076644	0.192159	1743.17	96522.8
135	2.000000	1.207570	7.36637e+06	-45389.1	955.819	-29773.1	0.000000	0.000000	7.222552	354.637	NaN	0.000000	0.001624	0.001717	28.13	84.9448	0.001912	44416.4	6.766134	-27.1398	351.107	1.207187	0.084628	0.084245	354.637	44416.4	0.078640	0.201000	1764.36	90514.5
135	2.000000	1.210107	7.36637e+06	-45389.1	955.819	-29773.1	0.000000	0.000000	7.225761	370.995	NaN	0.000000	0.001607	0.001750	28.1014	86.6279	0.001853	46746.7	3.917230	155.573	371.964	1.209805	0.087166	0.086864	370.995	46746.7	0.081214	0.212671	1744.46	92612.7
135	2.000000	1.212570	7.36637e+06	-45389.1	955.819	-29773.1	0.000000	0.000000	7.228960	388.871	NaN	0.000000	0.001604	0.001714	28.0785	89.2425	0.001864	47870.1	7.893608	-28.3192	385.036	1.212266	0.089629	0.089324	388.871	47870.1	0.083536	0.223469	1740.15	92518.6
135	2.000000	1.215073	7.36637e+06	-45389.1	955.819	-29773.1	0.000000	0.000000	7.231862	398.582	NaN	0.000000	0.001649	0.001706	28.0917	89.8178	0.001842	48749.6	1.056496	158.06	395.693	1.214826	0.092132	0.091885	398.582	48749.6	0.086000	0.235194	1694.7	91839.9
135	2.000000	1.217636	7.36637e+06	-45389.1	955.819	-29773.1	0.000000	0.000000	7.235580	426.69	NaN	0.000000	0.001629	0.001713	28.1292	93.5816	0.001857	50383.3	5.866705	-26.9339	425.972	1.217235	0.094695	0.094294	426.69	50383.3	0.088343	0.246607	1730.24	92695.2
135	2.000000	1.220127	7.36637e+06	-45389.1	955.819	-29773.1	0.000000	0.000000	7.238863	445.965	NaN	0.000000	0.001641	0.001698	28.1024	95.2087	0.001811	52568.2	1.770858	156.941	445.758	1.219793	0.097186	0.096851	445.965	52568.2	0.090823	0.258961	1722.13	94379.9
135	2.000000	1.222497	7.36637e+06	-45389.1	955.819	-29773.1	0.000000	0.000000	7.242149	468.245	NaN	0.000000	0.001634	0.001695	28.0801	97.5232	0.001751	55700.6	6.477230	-27.6931	462.155	1.222144	0.099556	0.099202	468.245	55700.6	0.093251	0.271327	1725.76	97698.3
135	2.000000	1.225111	7.36637e+06	-45389.1	955.819	-29773.1	0.000000	0.000000	7.245718	491.471	NaN	0.000000	0.001653	0.001697	28.0929	99.3979	0.001762	56421	5.080984	153.811	492.337	1.224712	0.102170	0.101771	491.471	56421	0.095637	0.283742	1732.11	96772.6
135	2.000000	1.227480	7.36637e+06	-45389.1	955.819	-29773.1	0.000000	0.000000	7.248760	507.832	NaN	0.000000	0.001606	0.001662	28.1303	101.549	0.001667	60916.2	2.289276	-24.18	500.911	1.227198	0.104539	0.104257	507.832	60916.2	0.098286	0.297835	1705.08	101981
135	2.000000	1.230018	7.36637e+06	-45389.1	955.819	-29773.1	0.000000	0.000000	7.252193	529.61	NaN	0.000000	0.001600	0.001741	28.1016	107.17	0.001857	57713.3	4.623933	153.191	525.455	1.229664	0.107077	0.106723	529.61	57713.3	0.100195	0.308182	1718.5	94982.9
135	2.000000	1.231012	7.36637e+06	-45389.1	955.819	-29773.1	0.000000	0.000000	7.253811	544.782	NaN	0.000000	0.001618	0.001714	28.091	107.166	0.001817	58969.7	4.921986	153.321	542.915	1.230619	0.108071	0.107678	544.782	58969.7	0.101142	0.313382	1738.4	96242.1