File: remote_trans/data/nanoindenter/0828-1/data/Data_2025-08-06,11h17m57s/2025-07-22_16-23-58_1_541.txt
2025-07-22, 16:23:58, 1
Index	Phase	Displacement	Time	Pos X	Pos Y	Pos Z	Rot A	Rot B	Piezo Z	Force A	Force B	Gripper	Voltage A	Voltage B	Temperature	Amplitude force	Amplitude pos	Stiffness	Phase shift	Phase excitation	Force A raw	Displacement raw	HMax	HMax raw	Real Force	Real Stiffness	Contact Depth	Area	Hardness	Reduced Mod.
[#]	[#]	[um]	[s]	[um]	[um]	[um]	[m°]	[m°]	[um]	[uN]	[uN]	[V]	[V]	[V]	[°C]	[uN]	[um]	[N/m]	[°]	[°]	[uN]	[um]	[um]	[um]	[uN]	[N/m]	[um]	[um^2]	[MPa]	[MPa]
541	1.000000	0.002735	7.37034e+06	-50039.1	1005.82	-29757	0.000000	0.000000	6.002812	-0.086788	NaN	0.000000	0.001694	0.001838	28.083	0.046133	0.001083	42.5801	133.203	-159.205	-0.104290	0.001471	-1.132861	-1.134125	-0.086788	42.5801	-1.131332	-1.319745E+15	6.576089E-17	NaN
541	1.000000	0.012794	7.37034e+06	-50039.1	1005.82	-29757	0.000000	0.000000	6.012874	-0.010714	NaN	0.000000	0.001693	0.001785	28.0838	0.124996	0.001224	102.087	24.1733	12.8002	0.004329	0.011351	-1.122802	-1.124245	-0.010714	102.087	-1.122723	-1.011586E+15	1.059088E-17	NaN
541	1.000000	0.022658	7.37034e+06	-50039.1	1005.82	-29757	0.000000	0.000000	6.022738	-0.015285	NaN	0.000000	0.001670	0.001820	28.0839	0.060655	0.001630	37.22	-74.9115	-163.042	-0.066242	0.021334	-1.112937	-1.114262	-0.015285	37.22	-1.112629	-7.405845E+14	2.063928E-17	NaN
541	1.000000	0.032684	7.37034e+06	-50039.1	1005.82	-29757	0.000000	0.000000	6.032764	-0.030670	NaN	0.000000	0.001690	0.001772	28.084	0.045561	0.001923	23.6884	29.4508	12.5068	-0.137857	0.031256	-1.102911	-1.104340	-0.030670	23.6884	-1.101940	-5.322483E+14	5.762353E-17	NaN
541	1.000000	0.042663	7.37034e+06	-50039.1	1005.82	-29757	0.000000	0.000000	6.042747	0.068969	NaN	0.000000	0.001686	0.001812	28.084	0.065973	0.002096	31.4724	60.3871	-165.183	0.001985	0.041386	-1.092932	-1.094210	0.068969	31.4724	-1.094576	-4.238885E+14	-1.627050E-16	NaN
541	1.000000	0.052690	7.37034e+06	-50039.1	1005.82	-29757	0.000000	0.000000	6.052766	-0.095856	NaN	0.000000	0.001660	0.001864	28.0837	0.084558	0.002057	41.1138	137.439	12.7228	-0.060966	0.051366	-1.082906	-1.084230	-0.095856	41.1138	-1.081157	-2.799399E+14	3.424150E-16	NaN
541	1.000000	0.062657	7.37034e+06	-50039.1	1005.82	-29757	0.000000	0.000000	6.062737	-0.015522	NaN	0.000000	0.001660	0.001826	28.0838	0.070005	0.001925	36.3622	18.6645	-167.791	-0.008701	0.061342	-1.072939	-1.074254	-0.015522	36.3622	-1.072619	-2.149652E+14	7.220853E-17	NaN
541	1.000000	0.072701	7.37034e+06	-50039.1	1005.82	-29757	0.000000	0.000000	6.072783	0.050922	NaN	0.000000	0.001648	0.001825	28.0839	0.065542	0.002138	30.6567	-74.1093	13.3374	0.034357	0.071322	-1.062895	-1.064274	0.050922	30.6567	-1.064141	-1.653736E+14	-3.079236E-16	NaN
541	1.000000	0.082687	7.37034e+06	-50039.1	1005.82	-29757	0.000000	0.000000	6.082771	0.084103	NaN	0.000000	0.001652	0.001844	28.0836	0.201457	0.001939	103.92	-92.7662	-167.639	-0.007660	0.081376	-1.052909	-1.054220	0.084103	103.92	-1.053516	-1.190338E+14	-7.065441E-16	NaN
541	1.000000	0.092711	7.37034e+06	-50039.1	1005.82	-29757	0.000000	0.000000	6.092795	0.095035	NaN	0.000000	0.001669	0.001813	28.0835	0.098574	0.001984	49.6728	-165.202	11.2271	0.092679	0.091319	-1.042885	-1.044277	0.095035	49.6728	-1.044320	-8.954711E+13	-1.061281E-15	NaN
541	1.000000	0.102686	7.37034e+06	-50039.1	1005.82	-29757	0.000000	0.000000	6.102767	0.010545	NaN	0.000000	0.001654	0.001805	28.0836	0.107450	0.002020	53.1929	-163.648	-167.1	0.073381	0.101368	-1.032910	-1.034228	0.010545	53.1929	-1.033058	-6.318506E+13	-1.668968E-16	NaN
541	1.000000	0.112672	7.37034e+06	-50039.1	1005.82	-29757	0.000000	0.000000	6.112751	-0.030361	NaN	0.000000	0.001621	0.001872	28.0837	0.015417	0.001943	7.934631	-97.0901	16.7875	-0.050434	0.111333	-1.022924	-1.024263	-0.030361	7.934631	-1.020054	-4.223569E+13	7.188574E-16	NaN
541	1.000000	0.122684	7.37034e+06	-50039.1	1005.82	-29757	0.000000	0.000000	6.122764	-0.012440	NaN	0.000000	0.001640	0.001843	28.0833	0.054337	0.002000	27.1639	156.773	-166.702	-0.052159	0.121422	-1.012912	-1.014174	-0.012440	27.1639	-1.012569	-3.349286E+13	3.714268E-16	NaN
541	1.000000	0.132684	7.37034e+06	-50039.1	1005.82	-29757	0.000000	0.000000	6.132764	-0.025080	NaN	0.000000	0.001675	0.001828	28.0835	0.053607	0.002024	26.4842	-37.2453	13.0126	0.033368	0.131352	-1.002912	-1.004244	-0.025080	26.4842	-1.002201	-2.428876E+13	1.032570E-15	NaN
541	1.000000	0.142710	7.37034e+06	-50039.1	1005.82	-29757	0.000000	0.000000	6.142793	0.062173	NaN	0.000000	0.001668	0.001877	28.0835	0.110364	0.001873	58.9137	-172.743	-165.899	0.063986	0.141419	-0.992886	-0.994177	0.062173	58.9137	-0.993677	-1.864799E+13	-3.334057E-15	NaN
541	1.000000	0.152716	7.37034e+06	-50039.1	1005.82	-29757	0.000000	0.000000	6.152798	0.036055	NaN	0.000000	0.001620	0.001918	28.0825	0.058398	0.002011	29.0438	-104.634	12.7679	0.014777	0.151321	-0.982880	-0.984275	0.036055	29.0438	-0.983811	-1.373241E+13	-2.625573E-15	NaN
541	1.000000	0.162724	7.37034e+06	-50039.1	1005.82	-29757	0.000000	0.000000	6.162804	0.004455	NaN	0.000000	0.001599	0.001919	28.0822	0.077416	0.001993	38.8468	-30.1871	-167.691	-0.020365	0.161420	-0.972872	-0.974176	0.004455	38.8468	-0.972958	-9.806885E+12	-4.542831E-16	NaN
541	1.000000	0.172743	7.37034e+06	-50039.1	1005.82	-29757	0.000000	0.000000	6.172824	-0.002879	NaN	0.000000	0.001658	0.001887	28.0824	0.019834	0.001910	10.3839	82.7122	13.9296	-0.020469	0.171372	-0.962852	-0.964224	-0.002879	10.3839	-0.962644	-7.120654E+12	4.043283E-16	NaN
541	1.000000	0.182719	7.37034e+06	-50039.1	1005.82	-29757	0.000000	0.000000	6.182799	-0.022736	NaN	0.000000	0.001642	0.001869	28.0827	0.043496	0.002038	21.3412	-151.28	-165.901	0.056952	0.181410	-0.952877	-0.954186	-0.022736	21.3412	-0.952078	-5.129191E+12	4.432733E-15	NaN
541	1.000000	0.192746	7.37034e+06	-50039.1	1005.82	-29757	0.000000	0.000000	6.192823	-0.086273	NaN	0.000000	0.001713	0.001840	28.0826	0.106034	0.001959	54.1237	-168.235	16.7683	0.098953	0.191414	-0.942850	-0.944182	-0.086273	54.1237	-0.941654	-3.710676E+12	2.324992E-14	NaN
541	1.000000	0.202743	7.37034e+06	-50039.1	1005.82	-29757	0.000000	0.000000	6.202825	0.020493	NaN	0.000000	0.001678	0.001840	28.0829	0.064136	0.002115	30.3222	80.6676	-165.699	0.050526	0.201401	-0.932852	-0.934195	0.020493	30.3222	-0.933359	-2.867697E+12	-7.146003E-15	NaN
541	1.000000	0.212732	7.37034e+06	-50039.1	1005.82	-29757	0.000000	0.000000	6.212812	-0.019785	NaN	0.000000	0.001714	0.001794	28.0827	0.058634	0.002054	28.5484	77.2046	13.1168	0.053985	0.211315	-0.922864	-0.924280	-0.019785	28.5484	-0.922344	-2.036358E+12	9.715916E-15	NaN
541	1.000000	0.222759	7.37034e+06	-50039.1	1005.82	-29757	0.000000	0.000000	6.222839	-0.025765	NaN	0.000000	0.001664	0.001826	28.0827	0.032953	0.001972	16.7107	-120.609	-164.765	-0.002193	0.221432	-0.912837	-0.914164	-0.025765	16.7107	-0.911680	-1.461702E+12	1.762700E-14	NaN
541	1.000000	0.232756	7.37034e+06	-50039.1	1005.82	-29757	0.000000	0.000000	6.232841	0.102934	NaN	0.000000	0.001604	0.001808	28.0827	0.021571	0.002028	10.6349	-140.855	12.7996	0.006162	0.231363	-0.902839	-0.904233	0.102934	10.6349	-0.910099	-1.391538E+12	-7.397144E-14	NaN
541	1.000000	0.242757	7.37034e+06	-50039.1	1005.82	-29757	0.000000	0.000000	6.242837	-0.001049	NaN	0.000000	0.001576	0.001854	28.0828	0.044777	0.001947	22.9945	-57.0286	-166.873	0.078699	0.241393	-0.892839	-0.894203	-0.001049	22.9945	-0.892805	-8.125063E+11	1.291236E-15	NaN
541	1.000000	0.252741	7.37034e+06	-50039.1	1005.82	-29757	0.000000	0.000000	6.252821	0.000908	NaN	0.000000	0.001610	0.001854	28.083	0.063411	0.002014	31.4886	62.209	14.8631	-0.002639	0.251399	-0.882855	-0.884196	0.000908	31.4886	-0.882877	-5.965007E+11	-1.522824E-15	NaN
541	1.000000	0.262755	7.37034e+06	-50039.1	1005.82	-29757	0.000000	0.000000	6.262836	0.028813	NaN	0.000000	0.001573	0.001832	28.0824	0.057546	0.002033	28.3023	55.4417	-169.341	-0.022106	0.261431	-0.872841	-0.874165	0.028813	28.3023	-0.873605	-4.469001E+11	-6.447296E-14	NaN
541	1.000000	0.272759	7.37034e+06	-50039.1	1005.82	-29757	0.000000	0.000000	6.272836	-0.077928	NaN	0.000000	0.001606	0.001803	28.0827	0.030760	0.002135	14.4071	-42.9825	16.1281	-0.026496	0.271439	-0.862837	-0.864157	-0.077928	14.4071	-0.858780	-2.815854E+11	2.767467E-13	NaN
541	1.000000	0.282774	7.37034e+06	-50039.1	1005.82	-29757	0.000000	0.000000	6.282853	-0.032383	NaN	0.000000	0.001583	0.001805	28.0833	0.171167	0.001967	87.0357	147.646	-164.007	-0.071537	0.281403	-0.852822	-0.854193	-0.032383	87.0357	-0.852543	-2.318322E+11	1.396827E-13	NaN
541	1.000000	0.292773	7.37034e+06	-50039.1	1005.82	-29757	0.000000	0.000000	6.292851	-0.055370	NaN	0.000000	0.001593	0.001756	28.084	0.103044	0.002039	50.5323	-151.817	10.6745	-0.026174	0.291439	-0.842823	-0.844157	-0.055370	50.5323	-0.842002	-1.668813E+11	3.317930E-13	NaN
541	1.000000	0.302779	7.37034e+06	-50039.1	1005.82	-29757	0.000000	0.000000	6.302858	-0.039720	NaN	0.000000	0.001565	0.001825	28.0839	0.020494	0.002032	10.0856	46.0732	-165.424	0.010152	0.301437	-0.832817	-0.834159	-0.039720	10.0856	-0.829863	-1.142693E+11	3.476018E-13	NaN
541	1.000000	0.312807	7.37034e+06	-50039.1	1005.82	-29757	0.000000	0.000000	6.312891	0.073270	NaN	0.000000	0.001634	0.001824	28.0839	0.066212	0.002002	33.0792	58.0314	13.9815	0.162410	0.311455	-0.822789	-0.824141	0.073270	33.0792	-0.824450	-9.650493E+10	-7.592312E-13	NaN
541	1.000000	0.322773	7.37034e+06	-50039.1	1005.82	-29757	0.000000	0.000000	6.322852	-0.047718	NaN	0.000000	0.001666	0.001806	28.0842	0.077946	0.001971	39.5476	-161.035	-167.492	-0.075198	0.321451	-0.812823	-0.814145	-0.047718	39.5476	-0.811918	-6.525169E+10	7.312899E-13	NaN
541	1.000000	0.332816	7.37034e+06	-50039.1	1005.82	-29757	0.000000	0.000000	6.332897	0.029122	NaN	0.000000	0.001641	0.001771	28.0837	0.092222	0.002188	42.1446	118.264	12.8227	-0.065944	0.331422	-0.802780	-0.804174	0.029122	42.1446	-0.803298	-4.984639E+10	-5.842307E-13	NaN
541	1.000000	0.342796	7.37034e+06	-50039.1	1005.82	-29757	0.000000	0.000000	6.342878	0.025320	NaN	0.000000	0.001659	0.001805	28.0839	0.072824	0.001981	36.7566	172.825	-172.513	0.002147	0.341531	-0.792800	-0.794065	0.025320	36.7566	-0.793316	-3.648569E+10	-6.939785E-13	NaN
541	1.000000	0.352786	7.37034e+06	-50039.1	1005.82	-29757	0.000000	0.000000	6.352867	0.016166	NaN	0.000000	0.001691	0.001789	28.084	0.040347	0.001879	21.4723	-11.1059	13.3447	0.069954	0.351444	-0.782810	-0.784152	0.016166	21.4723	-0.783375	-2.673522E+10	-6.046806E-13	NaN
541	1.000000	0.362799	7.37034e+06	-50039.1	1005.82	-29757	0.000000	0.000000	6.362877	-0.080825	NaN	0.000000	0.001675	0.001803	28.084	0.018344	0.002169	8.458091	175.54	-165.458	-0.052710	0.361482	-0.772797	-0.774114	-0.080825	8.458091	-0.765630	-1.534180E+10	5.268279E-12	NaN
541	1.000000	0.372802	7.37034e+06	-50039.1	1005.82	-29757	0.000000	0.000000	6.372881	-0.027045	NaN	0.000000	0.001665	0.001816	28.0839	0.085832	0.002000	42.9125	39.497	10.8643	-0.082874	0.371396	-0.762794	-0.764200	-0.027045	42.9125	-0.762321	-1.383176E+10	1.955292E-12	NaN
541	1.000000	0.382784	7.37034e+06	-50039.1	1005.82	-29757	0.000000	0.000000	6.382867	0.066652	NaN	0.000000	0.001652	0.001818	28.0842	0.025859	0.001964	13.17	174.46	-166.01	0.029515	0.381470	-0.752812	-0.754125	0.066652	13.17	-0.756608	-1.156503E+10	-5.763255E-12	NaN
541	1.000000	0.392793	7.37034e+06	-50039.1	1005.82	-29757	0.000000	0.000000	6.392875	0.031656	NaN	0.000000	0.001623	0.001849	28.0845	0.104218	0.002033	51.2659	98.837	14.0256	-0.008320	0.391469	-0.742803	-0.744127	0.031656	51.2659	-0.743266	-7.612579E+9	-4.158358E-12	NaN
541	1.000000	0.402828	7.37034e+06	-50039.1	1005.82	-29757	0.000000	0.000000	6.402908	-0.002946	NaN	0.000000	0.001634	0.001773	28.0841	0.018271	0.001946	9.386867	76.7217	-164.917	0.031104	0.401472	-0.732768	-0.734124	-0.002946	9.386867	-0.732533	-5.436585E+9	5.418956E-13	NaN
541	1.000000	0.412806	7.37034e+06	-50039.1	1005.82	-29757	0.000000	0.000000	6.412887	0.012002	NaN	0.000000	0.001627	0.001802	28.0838	0.027189	0.001910	14.2354	119.124	13.5397	0.001048	0.411494	-0.722790	-0.724102	0.012002	14.2354	-0.723422	-4.084488E+9	-2.938363E-12	NaN
541	1.000000	0.422814	7.37034e+06	-50039.1	1005.82	-29757	0.000000	0.000000	6.422896	0.025778	NaN	0.000000	0.001676	0.001773	28.0826	0.083311	0.001961	42.4865	-58.6881	-165.733	0.046305	0.421511	-0.712782	-0.714085	0.025778	42.4865	-0.713237	-2.966316E+9	-8.690134E-12	NaN
541	1.000000	0.432834	7.37034e+06	-50039.1	1005.82	-29757	0.000000	0.000000	6.432914	-0.005534	NaN	0.000000	0.001650	0.001818	28.0827	0.121697	0.002018	60.3102	37.9231	11.3559	-0.010426	0.431482	-0.702762	-0.704114	-0.005534	60.3102	-0.702693	-2.129657E+9	2.598602E-12	NaN
541	1.000000	0.442819	7.37034e+06	-50039.1	1005.82	-29757	0.000000	0.000000	6.442898	-0.046817	NaN	0.000000	0.001604	0.001802	28.0825	0.043500	0.001996	21.7937	-171.535	-167.797	-0.011817	0.441546	-0.692777	-0.694050	-0.046817	21.7937	-0.691166	-1.481998E+9	3.159029E-11	NaN
541	1.000000	0.452810	7.37034e+06	-50039.1	1005.82	-29757	0.000000	0.000000	6.452892	0.050876	NaN	0.000000	0.001639	0.001827	28.0828	0.047788	0.001950	24.51	-129.613	14.963	0.065246	0.451483	-0.682786	-0.684113	0.050876	24.51	-0.684343	-1.195619E+9	-4.255198E-11	NaN
541	1.000000	0.462833	7.37034e+06	-50039.1	1005.82	-29757	0.000000	0.000000	6.462914	0.009673	NaN	0.000000	0.001634	0.001832	28.0828	0.032712	0.002013	16.2531	-98.9485	-169.061	0.076542	0.461549	-0.672763	-0.674047	0.009673	16.2531	-0.673210	-8.420023E+8	-1.148787E-11	NaN
541	1.000000	0.472861	7.37034e+06	-50039.1	1005.82	-29757	0.000000	0.000000	6.472943	0.031358	NaN	0.000000	0.001670	0.001798	28.0828	0.079336	0.002038	38.9237	-144.539	12.9692	-0.001552	0.471528	-0.662735	-0.664068	0.031358	38.9237	-0.663339	-6.168746E+8	-5.083317E-11	NaN
541	1.000000	0.482816	7.37034e+06	-50039.1	1005.82	-29757	0.000000	0.000000	6.482901	0.105713	NaN	0.000000	0.001602	0.001782	28.0827	0.078314	0.001995	39.2492	-78.521	-166.46	0.031284	0.481530	-0.652780	-0.654065	0.105713	39.2492	-0.654800	-4.712194E+8	-2.243392E-10	NaN
541	1.000000	0.492845	7.37034e+06	-50039.1	1005.82	-29757	0.000000	0.000000	6.492926	0.030560	NaN	0.000000	0.001583	0.001815	28.0826	0.023534	0.001982	11.8742	-17.0961	9.626382	0.066352	0.491473	-0.642751	-0.644123	0.030560	11.8742	-0.644681	-3.423806E+8	-8.925828E-11	NaN
541	1.000000	0.502864	7.37034e+06	-50039.1	1005.82	-29757	0.000000	0.000000	6.502946	0.032836	NaN	0.000000	0.001637	0.001835	28.0827	0.071958	0.001878	38.3174	-84.9548	-163.365	0.004632	0.501544	-0.632731	-0.634052	0.032836	38.3174	-0.633374	-2.395261E+8	-1.370877E-10	NaN
541	1.000000	0.512864	7.37034e+06	-50039.1	1005.82	-29757	0.000000	0.000000	6.512946	0.025132	NaN	0.000000	0.001666	0.001825	28.0825	0.089949	0.001924	46.749	-55.0524	13.8731	0.035450	0.511508	-0.622732	-0.624088	0.025132	46.749	-0.623135	-1.732668E+8	-1.450459E-10	NaN
541	1.000000	0.522865	7.37034e+06	-50039.1	1005.82	-29757	0.000000	0.000000	6.522944	-0.038904	NaN	0.000000	0.001655	0.001828	28.0826	0.115540	0.002044	56.5305	-15.7321	-166.026	0.003358	0.521540	-0.612731	-0.614056	-0.038904	56.5305	-0.612215	-1.226269E+8	3.172515E-10	NaN
541	1.000000	0.532853	7.37034e+06	-50039.1	1005.82	-29757	0.000000	0.000000	6.532933	-0.003379	NaN	0.000000	0.001597	0.001856	28.0826	0.029871	0.002079	14.3701	134.603	13.2013	0.012225	0.531561	-0.602743	-0.604035	-0.003379	14.3701	-0.602567	-9.032429E+7	3.740731E-11	NaN
541	1.000000	0.542879	7.37034e+06	-50039.1	1005.82	-29757	0.000000	0.000000	6.542961	0.027709	NaN	0.000000	0.001601	0.001823	28.0827	0.087571	0.002094	41.8282	-49.0545	-168.931	0.027782	0.541578	-0.592717	-0.594018	0.027709	41.8282	-0.593213	-6.713700E+7	-4.127276E-10	NaN
541	1.000000	0.552873	7.37034e+06	-50039.1	1005.82	-29757	0.000000	0.000000	6.552954	0.011982	NaN	0.000000	0.001642	0.001849	28.0824	0.008385	0.001936	4.331185	127.967	13.5161	0.012515	0.551587	-0.582723	-0.584009	0.011982	4.331185	-0.584797	-5.139506E+7	-2.331317E-10	NaN
541	1.000000	0.562883	7.37034e+06	-50039.1	1005.82	-29757	0.000000	0.000000	6.562965	0.038741	NaN	0.000000	0.001619	0.001824	28.0837	0.072391	0.002028	35.6916	-117.657	-166.142	0.011498	0.561605	-0.572713	-0.573991	0.038741	35.6916	-0.573527	-3.592195E+7	-1.078486E-9	NaN
541	1.000000	0.572881	7.37034e+06	-50039.1	1005.82	-29757	0.000000	0.000000	6.572961	-0.009777	NaN	0.000000	0.001619	0.001830	28.084	0.041535	0.001983	20.9434	-91.1559	14.6814	-0.043766	0.571569	-0.562715	-0.564027	-0.009777	20.9434	-0.562365	-2.518189E+7	3.882365E-10	NaN
541	1.000000	0.582871	7.37034e+06	-50039.1	1005.82	-29757	0.000000	0.000000	6.582951	-0.010646	NaN	0.000000	0.001653	0.001765	28.0839	0.115430	0.002013	57.3411	101.335	-166.26	-0.024831	0.581606	-0.552725	-0.553990	-0.010646	57.3411	-0.552585	-1.843994E+7	5.773075E-10	NaN
541	1.000000	0.592924	7.37034e+06	-50039.1	1005.82	-29757	0.000000	0.000000	6.593006	0.023015	NaN	0.000000	0.001628	0.001823	28.0844	0.050371	0.002086	24.1528	0.007290	14.8194	0.038067	0.591516	-0.542672	-0.544080	0.023015	24.1528	-0.543386	-1.375027E+7	-1.673794E-9	NaN
541	1.000000	0.602882	7.37034e+06	-50039.1	1005.82	-29757	0.000000	0.000000	6.602962	-0.021491	NaN	0.000000	0.001669	0.001824	28.0839	0.069830	0.001886	37.0279	10.8632	-167.18	0.001045	0.601588	-0.532714	-0.534008	-0.021491	37.0279	-0.532278	-9.64299e+06	2.228669E-9	NaN
541	1.000000	0.612893	7.37034e+06	-50039.1	1005.82	-29757	0.000000	0.000000	6.612976	0.046204	NaN	0.000000	0.001648	0.001810	28.0841	0.054834	0.001874	29.2656	-173.808	16.0274	0.066150	0.611548	-0.522703	-0.524048	0.046204	29.2656	-0.523887	-7.3729e+06	-6.266692E-9	NaN
541	1.000000	0.622922	7.37034e+06	-50039.1	1005.82	-29757	0.000000	0.000000	6.623004	0.042899	NaN	0.000000	0.001649	0.001835	28.084	0.032862	0.001957	16.7938	59.5512	-164.29	0.070008	0.621604	-0.512674	-0.513992	0.042899	16.7938	-0.514590	-5.47423e+06	-7.836529E-9	NaN
541	1.000000	0.632931	7.37034e+06	-50039.1	1005.82	-29757	0.000000	0.000000	6.633011	-0.020800	NaN	0.000000	0.001630	0.001858	28.0838	0.109032	0.002003	54.4421	-166.098	15.0244	-0.051489	0.631576	-0.502665	-0.504019	-0.020800	54.4421	-0.502378	-3.69989e+06	5.621753E-9	NaN
541	1.000000	0.642907	7.37034e+06	-50039.1	1005.82	-29757	0.000000	0.000000	6.642989	0.036413	NaN	0.000000	0.001637	0.001826	28.0838	0.032208	0.002020	15.9471	-130.106	-165.533	0.011686	0.641581	-0.492689	-0.494015	0.036413	15.9471	-0.494402	-2.86338e+06	-1.271667E-8	NaN
541	1.000000	0.652930	7.37034e+06	-50039.1	1005.82	-29757	0.000000	0.000000	6.653012	0.032925	NaN	0.000000	0.001676	0.001794	28.084	0.060658	0.001977	30.6798	-5.012168	14.0967	-0.009699	0.651588	-0.482665	-0.484008	0.032925	30.6798	-0.483470	-2.01416e+06	-1.634683E-8	NaN
541	1.000000	0.662925	7.37034e+06	-50039.1	1005.82	-29757	0.000000	0.000000	6.663008	0.050054	NaN	0.000000	0.001667	0.001811	28.0838	0.006270	0.001893	3.311445	18.1095	-164.34	0.110416	0.661616	-0.472671	-0.473980	0.050054	3.311445	-0.484007	-2.04929e+06	-2.442496E-8	NaN
541	1.000000	0.672925	7.37034e+06	-50039.1	1005.82	-29757	0.000000	0.000000	6.673007	0.030962	NaN	0.000000	0.001623	0.001791	28.0839	0.011539	0.002054	5.618339	-118.469	13.6219	0.067664	0.671583	-0.462671	-0.464013	0.030962	5.618339	-0.466804	-1.17644e+06	-2.631802E-8	NaN
541	1.000000	0.682934	7.37034e+06	-50039.1	1005.82	-29757	0.000000	0.000000	6.683016	0.041539	NaN	0.000000	0.001643	0.001804	28.084	0.115832	0.001913	60.538	51.1657	-167.56	0.003582	0.681646	-0.452662	-0.453950	0.041539	60.538	-0.453177	-756941	-5.487749E-8	NaN
541	1.000000	0.692916	7.37034e+06	-50039.1	1005.82	-29757	0.000000	0.000000	6.693000	0.078702	NaN	0.000000	0.001619	0.001854	28.0831	0.086044	0.001898	45.3287	52.2912	9.771360	0.062810	0.691586	-0.442680	-0.444010	0.078702	45.3287	-0.443982	-561745	-1.401025E-7	NaN
541	1.000000	0.702942	7.37034e+06	-50039.1	1005.82	-29757	0.000000	0.000000	6.703023	0.012682	NaN	0.000000	0.001627	0.001862	28.0826	0.087360	0.001958	44.6203	-84.3787	-166.542	0.015603	0.701655	-0.432654	-0.433941	0.012682	44.6203	-0.432867	-391388	-3.240143E-8	NaN
541	1.000000	0.712946	7.37034e+06	-50039.1	1005.82	-29757	0.000000	0.000000	6.713024	-0.047895	NaN	0.000000	0.001610	0.001826	28.0829	0.051390	0.002014	25.5185	-112.326	14.465	-0.012870	0.711593	-0.422650	-0.424003	-0.047895	25.5185	-0.421243	-267939	1.787544E-7	NaN
541	1.000000	0.722940	7.37034e+06	-50039.1	1005.82	-29757	0.000000	0.000000	6.723020	-0.030357	NaN	0.000000	0.001612	0.001851	28.0825	0.111722	0.001986	56.2506	-126.065	-169.662	-0.049482	0.721615	-0.412656	-0.413981	-0.030357	56.2506	-0.412251	-199709	1.520070E-7	NaN
541	1.000000	0.732931	7.37034e+06	-50039.1	1005.82	-29757	0.000000	0.000000	6.733014	0.045676	NaN	0.000000	0.001639	0.001816	28.0827	0.058164	0.001923	30.2393	-131.353	13.9445	0.082839	0.731561	-0.402665	-0.404035	0.045676	30.2393	-0.403798	-151399	-3.016938E-7	NaN
541	1.000000	0.742961	7.37034e+06	-50039.1	1005.82	-29757	0.000000	0.000000	6.743044	0.063104	NaN	0.000000	0.001606	0.001820	28.0827	0.023349	0.001923	12.1446	-101.916	-166.512	0.013521	0.741651	-0.392635	-0.393945	0.063104	12.1446	-0.396532	-119266	-5.291072E-7	NaN
541	1.000000	0.752983	7.37034e+06	-50039.1	1005.82	-29757	0.000000	0.000000	6.753062	-0.037140	NaN	0.000000	0.001599	0.001788	28.0828	0.123112	0.002006	61.3731	167.801	11.9834	-0.059219	0.751568	-0.382613	-0.384028	-0.037140	61.3731	-0.382159	-74279.4	4.999986E-7	NaN
541	1.000000	0.762980	7.37034e+06	-50039.1	1005.82	-29757	0.000000	0.000000	6.763061	0.008783	NaN	0.000000	0.001597	0.001797	28.0825	0.043347	0.002126	20.3922	128.809	-166.409	0.035642	0.761657	-0.372616	-0.373939	0.008783	20.3922	-0.372939	-54755.5	-1.603954E-7	NaN
541	1.000000	0.772959	7.37034e+06	-50039.1	1005.82	-29757	0.000000	0.000000	6.773040	0.006929	NaN	0.000000	0.001682	0.001809	28.0826	0.098945	0.001920	51.5437	16.3604	13.2865	-0.025173	0.771659	-0.362636	-0.363936	0.006929	51.5437	-0.362737	-39029.5	-1.775307E-7	NaN
541	1.000000	0.783009	7.37034e+06	-50039.1	1005.82	-29757	0.000000	0.000000	6.783088	-0.033801	NaN	0.000000	0.001694	0.001815	28.0825	0.125738	0.002032	61.886	-44.6171	-170.411	0.018733	0.781665	-0.352587	-0.353931	-0.033801	61.886	-0.352177	-27453	1.231223E-6	NaN
541	1.000000	0.792966	7.37034e+06	-50039.1	1005.82	-29757	0.000000	0.000000	6.793048	0.031433	NaN	0.000000	0.001696	0.001815	28.0831	0.034842	0.001909	18.2512	-96.9603	11.1061	0.089935	0.791633	-0.342630	-0.343963	0.031433	18.2512	-0.343922	-20829.1	-1.509099E-6	NaN
541	1.000000	0.802958	7.37034e+06	-50039.1	1005.82	-29757	0.000000	0.000000	6.803039	0.017037	NaN	0.000000	0.001676	0.001826	28.0825	0.077034	0.002079	37.0518	-135.712	-165.588	-0.106550	0.801711	-0.332638	-0.333884	0.017037	37.0518	-0.332983	-14424.4	-1.181127E-6	NaN
541	1.000000	0.813023	7.37034e+06	-50039.1	1005.82	-29757	0.000000	0.000000	6.813104	-0.001085	NaN	0.000000	0.001661	0.001806	28.0825	0.076443	0.002078	36.7908	59.5614	14.1623	-0.003826	0.811632	-0.322573	-0.323964	-0.001085	36.7908	-0.322550	-10142.7	1.069526E-7	NaN
541	1.000000	0.822975	7.37034e+06	-50039.1	1005.82	-29757	0.000000	0.000000	6.823058	0.047695	NaN	0.000000	0.001597	0.001793	28.0826	0.036205	0.002065	17.5316	-9.247880	-169.193	0.038409	0.821722	-0.312621	-0.313874	0.047695	17.5316	-0.314661	-7761.52	-6.145064E-6	NaN
541	1.000000	0.833014	7.37034e+06	-50039.1	1005.82	-29757	0.000000	0.000000	6.833096	0.044927	NaN	0.000000	0.001647	0.001809	28.0836	0.083502	0.002110	39.5723	3.690554	11.9034	0.021924	0.831647	-0.302582	-0.303949	0.044927	39.5723	-0.303434	-5292.96	-8.488023E-6	NaN
541	1.000000	0.842979	7.37034e+06	-50039.1	1005.82	-29757	0.000000	0.000000	6.843060	0.026136	NaN	0.000000	0.001660	0.001784	28.0836	0.016415	0.002008	8.174145	8.174636	-165.111	-0.100431	0.841717	-0.292617	-0.293879	0.026136	8.174145	-0.295015	-3965.68	-6.590550E-6	NaN
541	1.000000	0.853011	7.37034e+06	-50039.1	1005.82	-29757	0.000000	0.000000	6.853093	0.028825	NaN	0.000000	0.001637	0.001800	28.0835	0.087796	0.001957	44.8577	106.16	13.0559	0.008455	0.851696	-0.282585	-0.283899	0.028825	44.8577	-0.283066	-2625.31	-1.097958E-5	NaN
541	1.000000	0.863004	7.37034e+06	-50039.1	1005.82	-29757	0.000000	0.000000	6.863085	0.019946	NaN	0.000000	0.001654	0.001817	28.0838	0.067181	0.002082	32.2678	-93.8346	-164.795	-0.037052	0.861684	-0.272592	-0.273912	0.019946	32.2678	-0.273055	-1853.25	-1.076297E-5	NaN
541	1.000000	0.873018	7.37034e+06	-50039.1	1005.82	-29757	0.000000	0.000000	6.873101	0.063856	NaN	0.000000	0.001666	0.001821	28.0833	0.067508	0.002023	33.3731	46.2537	12.9702	0.000554	0.871693	-0.262578	-0.263903	0.063856	33.3731	-0.264013	-1349.94	-4.730305E-5	NaN
541	1.000000	0.883012	7.37034e+06	-50039.1	1005.82	-29757	0.000000	0.000000	6.883092	-0.002152	NaN	0.000000	0.001681	0.001803	28.0835	0.135651	0.001919	70.6829	-178.411	-166.788	-0.001555	0.881723	-0.252584	-0.253873	-0.002152	70.6829	-0.252561	-900.605	2.389115E-6	NaN
541	1.000000	0.893012	7.37034e+06	-50039.1	1005.82	-29757	0.000000	0.000000	6.893094	0.049086	NaN	0.000000	0.001677	0.001770	28.0836	0.038224	0.001968	19.4212	83.9512	14.6376	0.022597	0.891663	-0.242584	-0.243933	0.049086	19.4212	-0.244480	-675.092	-7.270956E-5	NaN
541	1.000000	0.903001	7.37034e+06	-50039.1	1005.82	-29757	0.000000	0.000000	6.903083	0.045566	NaN	0.000000	0.001673	0.001783	28.0835	0.068793	0.001846	37.2581	156.145	-164.877	0.069306	0.901663	-0.232595	-0.233933	0.045566	37.2581	-0.233512	-454.849	-0.000100	NaN
541	1.000000	0.913058	7.37034e+06	-50039.1	1005.82	-29757	0.000000	0.000000	6.913140	0.056099	NaN	0.000000	0.001702	0.001805	28.0833	0.012266	0.002043	6.005107	-20.3912	15.6	-0.012894	0.911681	-0.222538	-0.223915	0.056099	6.005107	-0.229545	-393.847	-0.000142	NaN
541	1.000000	0.923021	7.37034e+06	-50039.1	1005.82	-29757	0.000000	0.000000	6.923101	0.003798	NaN	0.000000	0.001707	0.001815	28.0834	0.044899	0.002111	21.2674	-79.1911	-166.456	-0.064121	0.921736	-0.212575	-0.213860	0.003798	21.2674	-0.212709	-212.135	-1.790167E-5	NaN
541	1.000000	0.933001	7.37034e+06	-50039.1	1005.82	-29757	0.000000	0.000000	6.933084	0.059270	NaN	0.000000	0.001703	0.001780	28.0838	0.063422	0.002034	31.1829	-129.719	14.2654	0.125378	0.931619	-0.202595	-0.203977	0.059270	31.1829	-0.204021	-153.312	-0.000387	NaN
541	1.000000	0.943050	7.37035e+06	-50039.1	1005.82	-29757	0.000000	0.000000	6.943132	0.040351	NaN	0.000000	0.001697	0.001772	28.0834	0.141024	0.001937	72.801	173.312	-167.006	0.099184	0.941745	-0.192546	-0.193851	0.040351	72.801	-0.192961	-100.78	-0.000400	NaN
541	1.000000	0.953056	7.37035e+06	-50039.1	1005.82	-29757	0.000000	0.000000	6.953138	0.035907	NaN	0.000000	0.001693	0.001796	28.0835	0.073004	0.002000	36.4957	170.455	13.3824	0.011765	0.951667	-0.182540	-0.183929	0.035907	36.4957	-0.183278	-69.3514	-0.000518	NaN
541	1.000000	0.963063	7.37035e+06	-50039.1	1005.82	-29757	0.000000	0.000000	6.963144	0.011318	NaN	0.000000	0.001687	0.001785	28.0836	0.028309	0.001966	14.4005	-102.628	-164.948	0.026072	0.961745	-0.172533	-0.173851	0.011318	14.4005	-0.173122	-46.5215	-0.000243	NaN
541	1.000000	0.973060	7.37035e+06	-50039.1	1005.82	-29757	0.000000	0.000000	6.973142	0.044401	NaN	0.000000	0.001662	0.001784	28.0824	0.066436	0.001987	33.4328	-131.023	16.6675	-0.048269	0.971669	-0.162536	-0.163927	0.044401	33.4328	-0.163532	-31.6579	-0.001403	NaN
541	1.000000	0.983018	7.37035e+06	-50039.1	1005.82	-29757	0.000000	0.000000	6.983102	0.079560	NaN	0.000000	0.001677	0.001790	28.0824	0.067511	0.001965	34.3593	86.4284	-163.557	0.011167	0.981766	-0.152578	-0.153830	0.079560	34.3593	-0.154315	-21.6887	-0.003668	NaN
541	1.000000	0.993050	7.37035e+06	-50039.1	1005.82	-29757	0.000000	0.000000	6.993133	0.042071	NaN	0.000000	0.001695	0.001775	28.0824	0.005882	0.002096	2.807020	-163.901	13.4619	-0.039104	0.991689	-0.142546	-0.143907	0.042071	2.807020	-0.153786	-21.2181	-0.001983	NaN
541	1.000000	1.003080	7.37035e+06	-50039.1	1005.82	-29757	0.000000	0.000000	7.003160	0.002680	NaN	0.000000	0.001677	0.001772	28.0826	0.015265	0.002074	7.361215	76.0356	-167.781	-0.037812	1.001753	-0.132516	-0.133843	0.002680	7.361215	-0.132789	-8.628317	-0.000311	NaN
541	1.000000	1.013076	7.37035e+06	-50039.1	1005.82	-29757	0.000000	0.000000	7.013156	-0.007292	NaN	0.000000	0.001697	0.001774	28.0822	0.077278	0.002104	36.7205	-137.519	12.2581	0.049110	1.011726	-0.122520	-0.123870	-0.007292	36.7205	-0.122371	-5.391435	0.001353	NaN
541	1.000000	1.023075	7.37035e+06	-50039.1	1005.82	-29757	0.000000	0.000000	7.023155	0.000825	NaN	0.000000	0.001731	0.001740	28.0824	0.082378	0.001969	41.8276	-111.287	-165.973	0.004311	1.021746	-0.112521	-0.113850	0.000825	41.8276	-0.112536	-3.396489	-0.000243	NaN
541	1.000000	1.033089	7.37035e+06	-50039.1	1005.82	-29757	0.000000	0.000000	7.033168	-0.046030	NaN	0.000000	0.001715	0.001771	28.0822	0.086525	0.001964	44.0536	58.5536	11.5262	-0.073139	1.031732	-0.102507	-0.103864	-0.046030	44.0536	-0.101723	-1.994328	0.023080	NaN
541	1.000000	1.043086	7.37035e+06	-50039.1	1005.82	-29757	0.000000	0.000000	7.043167	-0.003177	NaN	0.000000	0.001707	0.001715	28.0829	0.082251	0.002036	40.4006	95.8076	-166.737	0.025537	1.041780	-0.092510	-0.093816	-0.003177	40.4006	-0.092451	-1.232810	0.002577	NaN
541	1.000000	1.053075	7.37035e+06	-50039.1	1005.82	-29757	0.000000	0.000000	7.053157	0.032112	NaN	0.000000	0.001684	0.001817	28.0824	0.107614	0.002018	53.3361	-87.0278	15.2798	-0.000656	1.051696	-0.082521	-0.083900	0.032112	53.3361	-0.082973	-0.733317	-0.043790	NaN
541	1.000000	1.063070	7.37035e+06	-50039.1	1005.82	-29757	0.000000	0.000000	7.063152	0.029693	NaN	0.000000	0.001673	0.001768	28.0824	0.063611	0.001946	32.6896	-127.897	-167.327	0.017868	1.061749	-0.072526	-0.073847	0.029693	32.6896	-0.073207	-0.414801	-0.071583	NaN
541	1.000000	1.073106	7.37035e+06	-50039.1	1005.82	-29757	0.000000	0.000000	7.073184	-0.044484	NaN	0.000000	0.001673	0.001789	28.0825	0.017715	0.001995	8.881568	56.0706	12.6634	0.021525	1.071773	-0.062490	-0.063823	-0.044484	8.881568	-0.058734	-0.165587	0.268642	NaN
541	1.000000	1.083081	7.37035e+06	-50039.1	1005.82	-29757	0.000000	0.000000	7.083159	-0.053859	NaN	0.000000	0.001695	0.001785	28.0825	0.005563	0.001974	2.818295	-50.2497	-165.412	-0.002670	1.081797	-0.052515	-0.053799	-0.053859	2.818295	-0.038182	-0.039842	1.351833	NaN
541	1.000000	1.093084	7.37035e+06	-50039.1	1005.82	-29757	0.000000	0.000000	7.093164	-0.024817	NaN	0.000000	0.001676	0.001747	28.0826	0.078193	0.002020	38.7007	-11.9801	14.2721	-0.007404	1.091711	-0.042512	-0.043885	-0.024817	38.7007	-0.042031	-0.052144	0.475929	NaN
541	1.000000	1.103120	7.37035e+06	-50039.1	1005.82	-29757	0.000000	0.000000	7.103202	0.038892	NaN	0.000000	0.001699	0.001807	28.0836	0.020166	0.002017	9.996149	-103.784	-164.451	-0.003880	1.101795	-0.032476	-0.033801	0.038892	9.996149	-0.035394	-0.032893	-1.182369	NaN
541	1.000000	1.113109	7.37035e+06	-50039.1	1005.82	-29757	0.000000	0.000000	7.113190	0.015032	NaN	0.000000	0.001729	0.001786	28.0842	0.037303	0.002000	18.6499	-105.873	14.3088	-0.029985	1.111740	-0.022487	-0.023856	0.015032	18.6499	-0.023091	-0.015058	-0.998289	NaN
541	1.000000	1.123116	7.37035e+06	-50039.1	1005.82	-29757	0.000000	0.000000	7.123196	-0.007855	NaN	0.000000	0.001616	0.001808	28.0838	0.068823	0.002017	34.1286	-159.547	-167.09	-0.010419	1.121806	-0.012480	-0.013789	-0.007855	34.1286	-0.012307	-0.007704	1.019618	NaN
541	1.000000	1.133104	7.37035e+06	-50039.1	1005.82	-29757	0.000000	0.000000	7.133200	0.382470	NaN	0.000000	0.001606	0.001780	28.0836	0.742305	0.001994	372.203	15.0838	13.6559	-0.012092	1.131755	-0.002492	-0.003841	0.382470	372.203	-0.003262	-0.002295	-166.626	NaN
541	1.000000	1.143007	7.37035e+06	-50039.1	1005.82	-29757	0.000000	0.000000	7.143438	8.525119	NaN	0.000000	0.001635	0.001798	28.0839	8.427375	0.001835	4592.43	9.891369	-169.834	7.133012	1.141798	0.007411	0.006202	8.525119	4592.43	0.006018	0.005082	1677.46	58856.1
541	2.000000	1.146137	7.37035e+06	-50039.1	1005.82	-29757	0.000000	0.000000	7.146765	13.311	NaN	0.000000	0.001577	0.001771	28.0839	12.0128	0.001799	6675.67	6.195256	7.558777	12.0575	1.145831	0.010541	0.010236	13.311	6675.67	0.009046	0.008140	1635.16	67599.6
541	2.000000	1.148609	7.37035e+06	-50039.1	1005.82	-29757	0.000000	0.000000	7.149407	17.4578	NaN	0.000000	0.001605	0.001808	28.0839	14.9579	0.001802	8302.42	8.719459	-177.328	16.9005	1.148305	0.013013	0.012709	17.4578	8302.42	0.011436	0.010821	1613.32	72919.4
541	2.000000	1.151120	7.37035e+06	-50039.1	1005.82	-29757	0.000000	0.000000	7.152154	23.1806	NaN	0.000000	0.001724	0.001790	28.0837	17.2137	0.001734	9928.42	7.078544	3.680047	22.6481	1.150737	0.015524	0.015141	23.1806	9928.42	0.013773	0.013684	1693.96	77543.1
541	2.000000	1.153587	7.37035e+06	-50039.1	1005.82	-29757	0.000000	0.000000	7.154804	27.6394	NaN	0.000000	0.001660	0.001786	28.0839	19.7564	0.001594	12392.6	7.563951	179.363	28.1573	1.153334	0.017991	0.017738	27.6394	12392.6	0.016318	0.017084	1617.89	86625.4
541	2.000000	1.156122	7.37035e+06	-50039.1	1005.82	-29757	0.000000	0.000000	7.157523	32.1221	NaN	0.000000	0.001654	0.001794	28.0839	22.3974	0.001740	12868.7	6.456692	1.016680	31.4917	1.155690	0.020526	0.020094	32.1221	12868.7	0.018654	0.020471	1569.16	82175.2
541	2.000000	1.158542	7.37035e+06	-50039.1	1005.82	-29757	0.000000	0.000000	7.160236	39.2444	NaN	0.000000	0.001673	0.001782	28.0838	26.5896	0.001867	14238.4	8.246588	177.796	37.2808	1.158189	0.022946	0.022593	39.2444	14238.4	0.020879	0.023942	1639.14	84072.1
541	2.000000	1.161119	7.37035e+06	-50039.1	1005.82	-29757	0.000000	0.000000	7.163008	43.9925	NaN	0.000000	0.001635	0.001812	28.0836	28.11	0.001758	15992.9	4.150841	1.306483	42.7094	1.160737	0.025523	0.025141	43.9925	15992.9	0.023460	0.028273	1556.01	86899.6
541	2.000000	1.163588	7.37035e+06	-50039.1	1005.82	-29757	0.000000	0.000000	7.165726	50.0186	NaN	0.000000	0.001612	0.001824	28.0841	30.6734	0.001796	17077.8	5.923458	179.347	51.4752	1.163274	0.027992	0.027678	50.0186	17077.8	0.025796	0.032479	1540.01	86576.8
541	2.000000	1.166039	7.37035e+06	-50039.1	1005.82	-29757	0.000000	0.000000	7.168456	56.8133	NaN	0.000000	0.001625	0.001818	28.0837	32.8087	0.001779	18438.9	3.515464	0.482626	54.1122	1.165746	0.030443	0.030150	56.8133	18438.9	0.028132	0.036962	1537.09	87625.9
541	2.000000	1.168538	7.37035e+06	-50039.1	1005.82	-29757	0.000000	0.000000	7.171265	64.3573	NaN	0.000000	0.001648	0.001794	28.0828	35.4708	0.001876	18906.1	2.022167	-178.898	61.1017	1.168249	0.032942	0.032653	64.3573	18906.1	0.030389	0.041553	1548.79	84737
541	2.000000	1.171080	7.37035e+06	-50039.1	1005.82	-29757	0.000000	0.000000	7.174063	70.5873	NaN	0.000000	0.001610	0.001799	28.0823	37.3379	0.001853	20154.6	7.499968	-3.588295	70.208	1.170628	0.035484	0.035032	70.5873	20154.6	0.032858	0.046875	1505.85	85050.4
541	2.000000	1.173542	7.37035e+06	-50039.1	1005.82	-29757	0.000000	0.000000	7.176889	79.4443	NaN	0.000000	0.001640	0.001795	28.0826	38.8208	0.001747	22215.4	6.239244	176.198	78.8758	1.173220	0.037946	0.037624	79.4443	22215.4	0.035264	0.052363	1517.19	88698.5
541	2.000000	1.175982	7.37035e+06	-50039.1	1005.82	-29757	0.000000	0.000000	7.179628	86.7178	NaN	0.000000	0.001625	0.001793	28.0825	41.5507	0.001845	22515.3	4.209876	-2.492994	81.885	1.175690	0.040386	0.040094	86.7178	22515.3	0.037497	0.057720	1502.38	85622.3
541	2.000000	1.178558	7.37035e+06	-50039.1	1005.82	-29757	0.000000	0.000000	7.182584	95.9298	NaN	0.000000	0.001623	0.001783	28.0826	43.5216	0.001777	24489.5	6.537822	175.556	96.9954	1.178140	0.042963	0.042544	95.9298	24489.5	0.040025	0.064092	1496.75	88379.6
541	2.000000	1.181032	7.37035e+06	-50039.1	1005.82	-29757	0.000000	0.000000	7.185675	110.955	NaN	0.000000	0.001580	0.001782	28.0824	44.8759	0.001798	24963.9	2.253342	-0.296983	108.413	1.180719	0.045436	0.045123	110.955	24963.9	0.042102	0.069574	1594.77	86469.2
541	2.000000	1.183524	7.37035e+06	-50039.1	1005.82	-29757	0.000000	0.000000	7.188438	117.541	NaN	0.000000	0.001618	0.001781	28.0826	47.333	0.001697	27884.7	3.154813	177.419	117.856	1.183162	0.047928	0.047566	117.541	27884.7	0.044767	0.076927	1527.96	91854.4
541	2.000000	1.186032	7.37035e+06	-50039.1	1005.82	-29757	0.000000	0.000000	7.191311	126.415	NaN	0.000000	0.001607	0.001813	28.0826	50.7326	0.001750	28985.5	4.179024	-3.490107	124.471	1.185622	0.050436	0.050026	126.415	28985.5	0.047165	0.083853	1507.58	91452.5
541	2.000000	1.188516	7.37035e+06	-50039.1	1005.82	-29757	0.000000	0.000000	7.194076	133.256	NaN	0.000000	0.001603	0.001815	28.0825	54.7697	0.001886	29033	6.518642	173.419	131.981	1.188244	0.052920	0.052648	133.256	29033	0.049478	0.090806	1467.49	88025.5
541	2.000000	1.191045	7.37035e+06	-50039.1	1005.82	-29757	0.000000	0.000000	7.197009	143.09	NaN	0.000000	0.001589	0.001779	28.0823	55.4277	0.001778	31180.2	1.958267	-2.775209	142.176	1.190789	0.055449	0.055193	143.09	31180.2	0.052007	0.098717	1449.49	90668.3
541	2.000000	1.193473	7.37035e+06	-50039.1	1005.82	-29757	0.000000	0.000000	7.200168	160.852	NaN	0.000000	0.001582	0.001767	28.0824	57.2086	0.001739	32892	3.638529	175.644	158.335	1.193121	0.057877	0.057525	160.852	32892	0.054209	0.105866	1519.38	92360.2
541	2.000000	1.196062	7.37035e+06	-50039.1	1005.82	-29757	0.000000	0.000000	7.203138	170.122	NaN	0.000000	0.001608	0.001768	28.0826	60.554	0.001852	32703.9	5.373515	-6.218429	171.008	1.195640	0.060466	0.060044	170.122	32703.9	0.056565	0.113780	1495.19	88581
541	2.000000	1.198516	7.37035e+06	-50039.1	1005.82	-29757	0.000000	0.000000	7.206213	185.232	NaN	0.000000	0.001577	0.001810	28.0826	62.5568	0.001696	36880.4	2.801338	175.194	185.177	1.198185	0.062920	0.062589	185.232	36880.4	0.059153	0.122788	1508.54	96159
541	2.000000	1.200998	7.37035e+06	-50039.1	1005.82	-29757	0.000000	0.000000	7.209108	195.267	NaN	0.000000	0.001606	0.001789	28.0824	64.3323	0.001764	36469.9	4.400839	-6.168140	192.531	1.200808	0.065402	0.065212	195.267	36469.9	0.061386	0.130826	1492.56	92121.2
541	2.000000	1.203430	7.37035e+06	-50039.1	1005.82	-29757	0.000000	0.000000	7.212052	207.725	NaN	0.000000	0.001635	0.001821	28.0839	67.0587	0.001726	38849.3	5.006764	172.048	203.301	1.203194	0.067834	0.067598	207.725	38849.3	0.063824	0.139877	1485.05	94903.8
541	2.000000	1.205953	7.37035e+06	-50039.1	1005.82	-29757	0.000000	0.000000	7.215238	223.85	NaN	0.000000	0.001648	0.001786	28.084	69.277	0.001835	37761.8	1.117873	-2.721079	220.265	1.205596	0.070357	0.070000	223.85	37761.8	0.065911	0.147852	1514.01	89724.7
541	2.000000	1.208439	7.37035e+06	-50039.1	1005.82	-29757	0.000000	0.000000	7.218342	238.861	NaN	0.000000	0.001665	0.001799	28.0837	73.2599	0.001775	41277.2	5.172297	172.02	234.785	1.208158	0.072843	0.072562	238.861	41277.2	0.068503	0.158052	1511.28	94859.9
541	2.000000	1.210968	7.37035e+06	-50039.1	1005.82	-29757	0.000000	0.000000	7.221478	253.648	NaN	0.000000	0.001617	0.001837	28.0835	74.0782	0.001853	39986.7	4.024568	-5.702767	248.696	1.210590	0.075372	0.074994	253.648	39986.7	0.070614	0.166596	1522.54	89506.9
541	2.000000	1.213439	7.37035e+06	-50039.1	1005.82	-29757	0.000000	0.000000	7.224583	269.058	NaN	0.000000	0.001664	0.001849	28.084	76.6247	0.001838	41678.5	2.986960	174.352	264.808	1.213193	0.077843	0.077597	269.058	41678.5	0.073002	0.176512	1524.3	90635.4
541	2.000000	1.215950	7.37035e+06	-50039.1	1005.82	-29757	0.000000	0.000000	7.227711	284.055	NaN	0.000000	0.001596	0.001811	28.0837	80.2267	0.001899	42238.2	4.660316	-7.048840	279.777	1.215634	0.080354	0.080038	284.055	42238.2	0.075310	0.186357	1524.26	89393.4
541	2.000000	1.218496	7.37035e+06	-50039.1	1005.82	-29757	0.000000	0.000000	7.230823	297.811	NaN	0.000000	0.001628	0.001816	28.0837	82.7102	0.001828	45242.5	4.681329	172.096	296.576	1.218207	0.082901	0.082611	297.811	45242.5	0.077964	0.197983	1504.23	92897.8
541	2.000000	1.220931	7.37035e+06	-50039.1	1005.82	-29757	0.000000	0.000000	7.234306	323.315	NaN	0.000000	0.001614	0.001839	28.0837	83.4787	0.001628	51282.5	6.593477	-9.915752	317.684	1.220500	0.085335	0.084904	323.315	51282.5	0.080607	0.209891	1540.4	102269
541	2.000000	1.223437	7.37035e+06	-50039.1	1005.82	-29757	0.000000	0.000000	7.237079	329.781	NaN	0.000000	0.001590	0.001833	28.0837	85.4761	0.001811	47201	3.865997	172.551	326.498	1.223247	0.087841	0.087651	329.781	47201	0.082601	0.219093	1505.21	92132
541	2.000000	1.225886	7.37035e+06	-50039.1	1005.82	-29757	0.000000	0.000000	7.240612	356.161	NaN	0.000000	0.001631	0.001812	28.0834	88.4922	0.001794	49327.3	3.597826	-7.503922	351.081	1.225579	0.090290	0.089983	356.161	49327.3	0.084875	0.229806	1549.83	94011.2
541	2.000000	1.228527	7.37035e+06	-50039.1	1005.82	-29757	0.000000	0.000000	7.243646	365.703	NaN	0.000000	0.001620	0.001789	28.0835	91.8197	0.001788	51355.5	2.870076	173.28	369.511	1.228211	0.092931	0.092616	365.703	51355.5	0.087591	0.242915	1505.48	95199.2
541	2.000000	1.231054	7.37035e+06	-50039.1	1005.82	-29757	0.000000	0.000000	7.247233	391.506	NaN	0.000000	0.001606	0.001794	28.0836	92.5083	0.001672	55316.8	3.402959	-7.590391	392.351	1.230538	0.095458	0.094942	391.506	55316.8	0.090150	0.255579	1531.84	99969.5
541	2.000000	1.233456	7.37035e+06	-50039.1	1005.82	-29757	0.000000	0.000000	7.250198	405.212	NaN	0.000000	0.001610	0.001802	28.0836	94.6699	0.001753	54012.7	3.354810	172.176	403.386	1.233156	0.097860	0.097560	405.212	54012.7	0.092233	0.266110	1522.73	95661.8
541	2.000000	1.235794	7.37035e+06	-50039.1	1005.82	-29757	0.000000	0.000000	7.253507	428.8	NaN	0.000000	0.001598	0.001792	28.0824	98.14	0.001794	54718.4	3.992642	-8.691896	417.588	1.235576	0.100198	0.099980	428.8	54718.4	0.094321	0.276863	1548.78	95011.1
541	2.000000	1.238365	7.37035e+06	-50039.1	1005.82	-29757	0.000000	0.000000	7.256878	448.247	NaN	0.000000	0.001587	0.001805	28.0824	101.233	0.001797	56333	6.254446	169.246	443.036	1.238073	0.102769	0.102477	448.247	56333	0.096802	0.289898	1546.22	95590.1
541	2.000000	1.240839	7.37035e+06	-50039.1	1005.82	-29757	0.000000	0.000000	7.260121	466.964	NaN	0.000000	0.001593	0.001808	28.0826	102.511	0.001736	59059.8	4.937385	-10.0171	455.569	1.240545	0.105243	0.104949	466.964	59059.8	0.099313	0.303380	1539.2	97965.2
541	2.000000	1.242424	7.37035e+06	-50039.1	1005.82	-29757	0.000000	0.000000	7.262104	476.629	NaN	0.000000	0.001607	0.001812	28.0823	104.016	0.001765	58943.8	2.947723	172.024	473.175	1.242124	0.106828	0.106528	476.629	58943.8	0.100763	0.311298	1531.1	96521.2