File: remote_trans/data/nanoindenter/0828-1/data/Data_2025-08-06,11h17m57s/2025-07-22_16-23-58_1_618.txt
2025-07-22, 16:23:58, 1
Index	Phase	Displacement	Time	Pos X	Pos Y	Pos Z	Rot A	Rot B	Piezo Z	Force A	Force B	Gripper	Voltage A	Voltage B	Temperature	Amplitude force	Amplitude pos	Stiffness	Phase shift	Phase excitation	Force A raw	Displacement raw	HMax	HMax raw	Real Force	Real Stiffness	Contact Depth	Area	Hardness	Reduced Mod.
[#]	[#]	[um]	[s]	[um]	[um]	[um]	[m°]	[m°]	[um]	[uN]	[uN]	[V]	[V]	[V]	[°C]	[uN]	[um]	[N/m]	[°]	[°]	[uN]	[um]	[um]	[um]	[uN]	[N/m]	[um]	[um^2]	[MPa]	[MPa]
618	1.000000	0.003129	7.3711e+06	-46189.1	1005.82	-29770	0.000000	0.000000	6.002810	0.050026	NaN	0.000000	0.001519	0.001678	28.0817	0.117500	0.000969	121.26	-135.048	-170.786	-0.046546	0.001895	-1.149851	-1.151085	0.050026	121.26	-1.150160	-2.360318E+15	-2.119462E-17	NaN
618	1.000000	0.013209	7.3711e+06	-46189.1	1005.82	-29770	0.000000	0.000000	6.012892	0.106099	NaN	0.000000	0.001518	0.001696	28.0813	0.058223	0.001214	47.9598	-75.3189	20.3091	0.127270	0.011748	-1.139771	-1.141232	0.106099	47.9598	-1.141430	-1.802683E+15	-5.885623E-17	NaN
618	1.000000	0.023112	7.3711e+06	-46189.1	1005.82	-29770	0.000000	0.000000	6.022793	0.061543	NaN	0.000000	0.001566	0.001702	28.0813	0.117833	0.001673	70.4431	-155.779	-169.533	0.045662	0.021732	-1.129868	-1.131248	0.061543	70.4431	-1.130523	-1.287193E+15	-4.781191E-17	NaN
618	1.000000	0.033083	7.3711e+06	-46189.1	1005.82	-29770	0.000000	0.000000	6.032762	-0.022729	NaN	0.000000	0.001557	0.001677	28.0814	0.133085	0.001900	70.0404	104.849	11.0989	-0.019800	0.031773	-1.119897	-1.121207	-0.022729	70.0404	-1.119653	-9.200689E+14	2.470364E-17	NaN
618	1.000000	0.043077	7.3711e+06	-46189.1	1005.82	-29770	0.000000	0.000000	6.042756	-0.001065	NaN	0.000000	0.001536	0.001698	28.0813	0.096209	0.002014	47.767	109.959	-164.475	-0.037779	0.041765	-1.109903	-1.111215	-0.001065	47.767	-1.109886	-6.803948E+14	1.564629E-18	NaN
618	1.000000	0.053064	7.3711e+06	-46189.1	1005.82	-29770	0.000000	0.000000	6.052745	0.030061	NaN	0.000000	0.001551	0.001713	28.0813	0.125683	0.001994	63.0178	7.405175	15.8585	0.053725	0.051709	-1.099916	-1.101271	0.030061	63.0178	-1.100273	-5.055205E+14	-5.946552E-17	NaN
618	1.000000	0.063081	7.3711e+06	-46189.1	1005.82	-29770	0.000000	0.000000	6.062763	0.075775	NaN	0.000000	0.001544	0.001693	28.0821	0.033125	0.001970	16.8104	100.655	-166.806	0.086559	0.061743	-1.089899	-1.091237	0.075775	16.8104	-1.093280	-4.072398E+14	-1.860704E-16	NaN
618	1.000000	0.073061	7.3711e+06	-46189.1	1005.82	-29770	0.000000	0.000000	6.072741	0.037400	NaN	0.000000	0.001536	0.001686	28.0829	0.058494	0.002189	26.7239	-169.324	12.0462	0.043309	0.071713	-1.079919	-1.081267	0.037400	26.7239	-1.080969	-2.783119E+14	-1.343809E-16	NaN
618	1.000000	0.083077	7.3711e+06	-46189.1	1005.82	-29770	0.000000	0.000000	6.082759	0.095388	NaN	0.000000	0.001541	0.001674	28.0825	0.014741	0.001992	7.401822	18.3351	-165.124	0.060425	0.081764	-1.069904	-1.071216	0.095388	7.401822	-1.079569	-2.665198E+14	-3.579036E-16	NaN
618	1.000000	0.093091	7.3711e+06	-46189.1	1005.82	-29770	0.000000	0.000000	6.092771	0.015103	NaN	0.000000	0.001543	0.001678	28.0824	0.084069	0.002031	41.3919	-67.2892	13.5042	0.043401	0.091721	-1.059889	-1.061259	0.015103	41.3919	-1.060163	-1.462209E+14	-1.032884E-16	NaN
618	1.000000	0.103120	7.3711e+06	-46189.1	1005.82	-29770	0.000000	0.000000	6.102802	0.065518	NaN	0.000000	0.001527	0.001683	28.0826	0.074416	0.002012	36.9852	159.9	-165.939	0.080946	0.101762	-1.049860	-1.051218	0.065518	36.9852	-1.051189	-1.107623E+14	-5.915224E-16	NaN
618	1.000000	0.113104	7.3711e+06	-46189.1	1005.82	-29770	0.000000	0.000000	6.112783	-0.005474	NaN	0.000000	0.001519	0.001653	28.083	0.071167	0.002061	34.5284	8.102374	16.0735	0.055765	0.111705	-1.039876	-1.041275	-0.005474	34.5284	-1.039757	-7.775070E+13	7.040054E-17	NaN
618	1.000000	0.123095	7.3711e+06	-46189.1	1005.82	-29770	0.000000	0.000000	6.122774	0.006664	NaN	0.000000	0.001512	0.001700	28.0824	0.069452	0.001895	36.646	160.782	-166.466	-0.066759	0.121805	-1.029885	-1.031175	0.006664	36.646	-1.030022	-5.751388E+13	-1.158739E-16	NaN
618	1.000000	0.133121	7.3711e+06	-46189.1	1005.82	-29770	0.000000	0.000000	6.132799	-0.014409	NaN	0.000000	0.001535	0.001667	28.0822	0.032426	0.002001	16.2074	-107.346	12.0717	-0.056671	0.131750	-1.019859	-1.021230	-0.014409	16.2074	-1.019193	-4.112339E+13	3.503875E-16	NaN
618	1.000000	0.143106	7.3711e+06	-46189.1	1005.82	-29770	0.000000	0.000000	6.142786	0.020018	NaN	0.000000	0.001551	0.001694	28.0824	0.076736	0.002063	37.1992	17.2859	-165.38	-0.018695	0.141801	-1.009874	-1.011179	0.020018	37.1992	-1.010278	-3.119768E+13	-6.416467E-16	NaN
618	1.000000	0.153129	7.3711e+06	-46189.1	1005.82	-29770	0.000000	0.000000	6.152807	-0.019310	NaN	0.000000	0.001574	0.001661	28.0822	0.013663	0.002009	6.800182	163.434	12.0035	0.024520	0.151761	-0.999851	-1.001219	-0.019310	6.800182	-0.997722	-2.113949E+13	9.134490E-16	NaN
618	1.000000	0.163137	7.3711e+06	-46189.1	1005.82	-29770	0.000000	0.000000	6.162818	0.059402	NaN	0.000000	0.001524	0.001635	28.0823	0.024571	0.001948	12.6163	-77.6879	-167.437	0.040320	0.161802	-0.989843	-0.991179	0.059402	12.6163	-0.993374	-1.847380E+13	-3.215496E-15	NaN
618	1.000000	0.173089	7.3711e+06	-46189.1	1005.82	-29770	0.000000	0.000000	6.172766	-0.033780	NaN	0.000000	0.001535	0.001638	28.0821	0.041114	0.002006	20.4914	-145.044	13.0468	0.010942	0.171782	-0.979892	-0.981198	-0.033780	20.4914	-0.978655	-1.170288E+13	2.886457E-15	NaN
618	1.000000	0.183082	7.3711e+06	-46189.1	1005.82	-29770	0.000000	0.000000	6.182758	-0.064942	NaN	0.000000	0.001558	0.001615	28.0824	0.092705	0.002107	44.0087	98.3074	-172.561	-0.064804	0.181835	-0.969898	-0.971145	-0.064942	44.0087	-0.968792	-8.617419E+12	7.536141E-15	NaN
618	1.000000	0.193147	7.3711e+06	-46189.1	1005.82	-29770	0.000000	0.000000	6.192829	0.080599	NaN	0.000000	0.001586	0.001627	28.082	0.111885	0.001907	58.6754	56.5588	11.0656	-0.051675	0.191794	-0.959834	-0.961186	0.080599	58.6754	-0.960864	-6.737738E+12	-1.196236E-14	NaN
618	1.000000	0.203110	7.3711e+06	-46189.1	1005.82	-29770	0.000000	0.000000	6.202790	0.024970	NaN	0.000000	0.001645	0.001636	28.0807	0.033327	0.002001	16.6522	57.9555	-164.476	0.025285	0.201830	-0.949871	-0.951150	0.024970	16.6522	-0.950995	-4.959630E+12	-5.034715E-15	NaN
618	1.000000	0.213155	7.3711e+06	-46189.1	1005.82	-29770	0.000000	0.000000	6.212835	0.021224	NaN	0.000000	0.001622	0.001648	28.0808	0.016702	0.002120	7.878019	-162.867	17.9807	0.021518	0.211830	-0.939825	-0.941151	0.021224	7.878019	-0.941846	-3.732849E+12	-5.685709E-15	NaN
618	1.000000	0.223129	7.3711e+06	-46189.1	1005.82	-29770	0.000000	0.000000	6.222810	0.046470	NaN	0.000000	0.001631	0.001644	28.0809	0.071597	0.001881	38.0571	20.8493	-165.388	0.048184	0.221817	-0.929851	-0.931163	0.046470	38.0571	-0.930767	-2.645731E+12	-1.756414E-14	NaN
618	1.000000	0.233157	7.3711e+06	-46189.1	1005.82	-29770	0.000000	0.000000	6.232836	0.015620	NaN	0.000000	0.001620	0.001620	28.0807	0.115444	0.002046	56.4249	-90.8154	15.2069	-0.015772	0.231791	-0.919823	-0.921190	0.015620	56.4249	-0.920031	-1.895065E+12	-8.242409E-15	NaN
618	1.000000	0.243147	7.3711e+06	-46189.1	1005.82	-29770	0.000000	0.000000	6.242827	0.046110	NaN	0.000000	0.001537	0.001674	28.0808	0.077269	0.001986	38.9018	173.62	-164.021	0.058782	0.241768	-0.909834	-0.911212	0.046110	38.9018	-0.910723	-1.418802E+12	-3.249936E-14	NaN
618	1.000000	0.253156	7.3711e+06	-46189.1	1005.82	-29770	0.000000	0.000000	6.252838	0.066295	NaN	0.000000	0.001581	0.001648	28.081	0.010705	0.001935	5.530839	73.2667	13.2384	0.078310	0.251851	-0.899824	-0.901129	0.066295	5.530839	-0.908813	-1.337012E+12	-4.958408E-14	NaN
618	1.000000	0.263133	7.3711e+06	-46189.1	1005.82	-29770	0.000000	0.000000	6.262810	-0.034274	NaN	0.000000	0.001594	0.001637	28.081	0.025895	0.001956	13.2354	-81.2604	-164.448	-0.042136	0.261838	-0.889847	-0.891143	-0.034274	13.2354	-0.887905	-6.975842E+11	4.913265E-14	NaN
618	1.000000	0.273176	7.3711e+06	-46189.1	1005.82	-29770	0.000000	0.000000	6.272855	0.003482	NaN	0.000000	0.001553	0.001706	28.081	0.064326	0.001952	32.9521	-169.221	13.8043	0.064847	0.271803	-0.879804	-0.881177	0.003482	32.9521	-0.879884	-5.434199E+11	-6.408305E-15	NaN
618	1.000000	0.283175	7.3711e+06	-46189.1	1005.82	-29770	0.000000	0.000000	6.282855	0.026472	NaN	0.000000	0.001528	0.001675	28.0808	0.082937	0.002062	40.2211	27.2591	-165.197	0.059299	0.281851	-0.869805	-0.871130	0.026472	40.2211	-0.870299	-4.031674E+11	-6.565921E-14	NaN
618	1.000000	0.293156	7.3711e+06	-46189.1	1005.82	-29770	0.000000	0.000000	6.292836	0.018984	NaN	0.000000	0.001575	0.001690	28.0811	0.125797	0.001987	63.3228	-3.721335	14.0319	0.052858	0.291823	-0.859824	-0.861157	0.018984	63.3228	-0.860049	-2.929399E+11	-6.480402E-14	NaN
618	1.000000	0.303188	7.3711e+06	-46189.1	1005.82	-29770	0.000000	0.000000	6.302868	0.030592	NaN	0.000000	0.001555	0.001677	28.0811	0.129484	0.002011	64.3789	163.833	-167.418	0.046521	0.301865	-0.849793	-0.851115	0.030592	64.3789	-0.850149	-2.151565E+11	-1.421849E-13	NaN
618	1.000000	0.313189	7.3711e+06	-46189.1	1005.82	-29770	0.000000	0.000000	6.312870	0.044821	NaN	0.000000	0.001543	0.001677	28.0811	0.106808	0.001892	56.453	147.987	17.8293	0.040600	0.311811	-0.839791	-0.841169	0.044821	56.453	-0.840387	-1.586830E+11	-2.824550E-13	NaN
618	1.000000	0.323197	7.3711e+06	-46189.1	1005.82	-29770	0.000000	0.000000	6.322876	-0.007754	NaN	0.000000	0.001563	0.001667	28.0813	0.094464	0.002119	44.5854	156.839	-162.927	0.006998	0.321857	-0.829783	-0.831123	-0.007754	44.5854	-0.829652	-1.135205E+11	6.830269E-14	NaN
618	1.000000	0.333165	7.3711e+06	-46189.1	1005.82	-29770	0.000000	0.000000	6.332847	0.069537	NaN	0.000000	0.001600	0.001671	28.0814	0.072853	0.002055	35.4564	148.149	16.0894	0.084168	0.331819	-0.819815	-0.821161	0.069537	35.4564	-0.821286	-8.742679E+10	-7.953780E-13	NaN
618	1.000000	0.343218	7.3711e+06	-46189.1	1005.82	-29770	0.000000	0.000000	6.342898	0.038209	NaN	0.000000	0.001619	0.001647	28.0826	0.086246	0.001990	43.3463	-56.7401	-164.315	0.078812	0.341914	-0.809762	-0.811066	0.038209	43.3463	-0.810423	-6.227526E+10	-6.135558E-13	NaN
618	1.000000	0.353193	7.3711e+06	-46189.1	1005.82	-29770	0.000000	0.000000	6.352873	0.038261	NaN	0.000000	0.001629	0.001668	28.0823	0.093831	0.001853	50.6264	-80.2135	16.2526	0.068640	0.351808	-0.799787	-0.801172	0.038261	50.6264	-0.800354	-4.546442E+10	-8.415582E-13	NaN
618	1.000000	0.363194	7.3711e+06	-46189.1	1005.82	-29770	0.000000	0.000000	6.362876	0.090322	NaN	0.000000	0.001621	0.001685	28.0821	0.049015	0.002116	23.1685	-158.5	-165.604	0.049017	0.361863	-0.789786	-0.791117	0.090322	23.1685	-0.792710	-3.580058E+10	-2.522914E-12	NaN
618	1.000000	0.373193	7.3711e+06	-46189.1	1005.82	-29770	0.000000	0.000000	6.372873	0.011802	NaN	0.000000	0.001639	0.001654	28.0825	0.079348	0.002025	39.1782	33.9478	16.27	0.061806	0.371851	-0.779787	-0.781129	0.011802	39.1782	-0.780013	-2.406607E+10	-4.903794E-13	NaN
618	1.000000	0.383185	7.3711e+06	-46189.1	1005.82	-29770	0.000000	0.000000	6.382863	-0.022098	NaN	0.000000	0.001636	0.001644	28.0822	0.061834	0.001894	32.6512	-68.007	-165.052	0.074806	0.381863	-0.769795	-0.771117	-0.022098	32.6512	-0.769288	-1.720367E+10	1.284468E-12	NaN
618	1.000000	0.393213	7.3711e+06	-46189.1	1005.82	-29770	0.000000	0.000000	6.392893	0.033568	NaN	0.000000	0.001652	0.001652	28.0822	0.052499	0.002109	24.8971	-61.007	14.1051	0.093656	0.391874	-0.759768	-0.761106	0.033568	24.8971	-0.760779	-1.317943E+10	-2.547012E-12	NaN
618	1.000000	0.403223	7.3711e+06	-46189.1	1005.82	-29770	0.000000	0.000000	6.402904	0.034723	NaN	0.000000	0.001648	0.001684	28.0821	0.059441	0.002004	29.6609	-131.084	-168.057	-0.005268	0.401926	-0.749757	-0.751054	0.034723	29.6609	-0.750635	-9.590989E+9	-3.620352E-12	NaN
618	1.000000	0.413213	7.3711e+06	-46189.1	1005.82	-29770	0.000000	0.000000	6.412895	0.074023	NaN	0.000000	0.001665	0.001688	28.0823	0.134849	0.001918	70.2929	-32.8922	14.6048	0.008536	0.411859	-0.739767	-0.741121	0.074023	70.2929	-0.740557	-6.992564E+9	-1.058594E-11	NaN
618	1.000000	0.423253	7.3711e+06	-46189.1	1005.82	-29770	0.000000	0.000000	6.422935	0.070342	NaN	0.000000	0.001668	0.001715	28.082	0.068636	0.002048	33.5101	41.6935	-166.3	0.040397	0.421905	-0.729727	-0.731075	0.070342	33.5101	-0.731302	-5.230579E+9	-1.344813E-11	NaN
618	1.000000	0.433214	7.3711e+06	-46189.1	1005.82	-29770	0.000000	0.000000	6.432893	-0.010790	NaN	0.000000	0.001657	0.001667	28.0821	0.111871	0.001871	59.8018	-67.2331	11.3786	0.007112	0.431913	-0.719766	-0.721067	-0.010790	59.8018	-0.719631	-3.626077E+9	2.975650E-12	NaN
618	1.000000	0.443261	7.3711e+06	-46189.1	1005.82	-29770	0.000000	0.000000	6.442943	0.073767	NaN	0.000000	0.001642	0.001660	28.0822	0.054564	0.002088	26.1367	-38.0704	-164.618	0.039864	0.441968	-0.709719	-0.711012	0.073767	26.1367	-0.711836	-2.838580E+9	-2.598745E-11	NaN
618	1.000000	0.453211	7.3711e+06	-46189.1	1005.82	-29770	0.000000	0.000000	6.452892	0.048116	NaN	0.000000	0.001603	0.001707	28.0824	0.083112	0.002022	41.109	44.7299	12.3255	0.060282	0.451858	-0.699769	-0.701122	0.048116	41.109	-0.700647	-1.996962E+9	-2.409472E-11	NaN
618	1.000000	0.463246	7.3711e+06	-46189.1	1005.82	-29770	0.000000	0.000000	6.462926	0.009357	NaN	0.000000	0.001623	0.001707	28.0823	0.064968	0.002051	31.6767	-75.6938	-167.39	-0.048247	0.461895	-0.689734	-0.691085	0.009357	31.6767	-0.689955	-1.426615E+9	-6.558735E-12	NaN
618	1.000000	0.473240	7.3711e+06	-46189.1	1005.82	-29770	0.000000	0.000000	6.472920	0.029331	NaN	0.000000	0.001594	0.001665	28.0813	0.033717	0.001811	18.6159	22.3156	16.5036	-0.023011	0.471936	-0.679740	-0.681044	0.029331	18.6159	-0.680922	-1.073519E+9	-2.732205E-11	NaN
618	1.000000	0.483270	7.3711e+06	-46189.1	1005.82	-29770	0.000000	0.000000	6.482952	0.062752	NaN	0.000000	0.001650	0.001643	28.0813	0.136430	0.002053	66.4401	-47.2523	-166.499	0.011860	0.481948	-0.669710	-0.671032	0.062752	66.4401	-0.670418	-7.711037E+8	-8.137990E-11	NaN
618	1.000000	0.493246	7.3711e+06	-46189.1	1005.82	-29770	0.000000	0.000000	6.492927	0.070086	NaN	0.000000	0.001638	0.001640	28.081	0.106105	0.002091	50.7413	155.665	13.9071	0.008930	0.491883	-0.659735	-0.661097	0.070086	50.7413	-0.660770	-5.688812E+8	-1.231989E-10	NaN
618	1.000000	0.503285	7.3711e+06	-46189.1	1005.82	-29770	0.000000	0.000000	6.502966	0.030991	NaN	0.000000	0.001555	0.001629	28.0811	0.036365	0.002004	18.1424	-70.2137	-166.088	0.010807	0.501943	-0.649695	-0.651037	0.030991	18.1424	-0.650976	-4.176522E+8	-7.420192E-11	NaN
618	1.000000	0.513265	7.3711e+06	-46189.1	1005.82	-29770	0.000000	0.000000	6.512944	-0.006984	NaN	0.000000	0.001553	0.001626	28.0811	0.061484	0.002049	30.0118	-137.179	16.5385	-0.098953	0.511878	-0.639715	-0.641102	-0.006984	30.0118	-0.639541	-2.910628E+8	2.399319E-11	NaN
618	1.000000	0.523258	7.3711e+06	-46189.1	1005.82	-29770	0.000000	0.000000	6.522934	-0.079898	NaN	0.000000	0.001578	0.001644	28.081	0.085320	0.002040	41.8178	74.3139	-165.482	-0.077413	0.521986	-0.629722	-0.630994	-0.079898	41.8178	-0.628289	-2.039523E+8	3.917463E-10	NaN
618	1.000000	0.533279	7.3711e+06	-46189.1	1005.82	-29770	0.000000	0.000000	6.532959	0.025853	NaN	0.000000	0.001566	0.001646	28.0811	0.087867	0.001934	45.4239	93.6533	13.3083	-0.017095	0.531970	-0.619701	-0.621010	0.025853	45.4239	-0.620128	-1.575423E+8	-1.641014E-10	NaN
618	1.000000	0.543284	7.3711e+06	-46189.1	1005.82	-29770	0.000000	0.000000	6.542963	-0.008889	NaN	0.000000	0.001548	0.001616	28.0809	0.026384	0.001972	13.3788	-162.423	-164.506	0.025455	0.541936	-0.609696	-0.611044	-0.008889	13.3788	-0.609198	-1.114485E+8	7.975808E-11	NaN
618	1.000000	0.553307	7.3711e+06	-46189.1	1005.82	-29770	0.000000	0.000000	6.552987	0.011358	NaN	0.000000	0.001604	0.001646	28.0813	0.050722	0.001908	26.5889	171.496	11.9961	0.053634	0.551895	-0.599673	-0.601085	0.011358	26.5889	-0.599993	-8.324683E+7	-1.364436E-10	NaN
618	1.000000	0.563282	7.3711e+06	-46189.1	1005.82	-29770	0.000000	0.000000	6.562963	0.040243	NaN	0.000000	0.001589	0.001627	28.0813	0.092104	0.002164	42.5694	41.7575	-168.394	0.029462	0.561928	-0.589698	-0.591052	0.040243	42.5694	-0.590407	-6.141574E+7	-6.552600E-10	NaN
618	1.000000	0.573280	7.3711e+06	-46189.1	1005.82	-29770	0.000000	0.000000	6.572959	0.004140	NaN	0.000000	0.001601	0.001685	28.0812	0.087657	0.002044	42.8884	172.663	13.0323	0.016522	0.571948	-0.579700	-0.581032	0.004140	42.8884	-0.579773	-4.381133E+7	-9.449810E-11	NaN
618	1.000000	0.583312	7.3711e+06	-46189.1	1005.82	-29770	0.000000	0.000000	6.582994	0.066856	NaN	0.000000	0.001623	0.001649	28.0808	0.046226	0.001986	23.2781	-172.92	-167.179	0.038606	0.582023	-0.569668	-0.570957	0.066856	23.2781	-0.571822	-3.402586E+7	-1.964870E-9	NaN
618	1.000000	0.593319	7.3711e+06	-46189.1	1005.82	-29770	0.000000	0.000000	6.592999	0.017712	NaN	0.000000	0.001587	0.001678	28.0812	0.036375	0.001942	18.7319	38.6746	15.0406	0.056732	0.591932	-0.559661	-0.561048	0.017712	18.7319	-0.560370	-2.363208E+7	-7.494716E-10	NaN
618	1.000000	0.603295	7.3711e+06	-46189.1	1005.82	-29770	0.000000	0.000000	6.602978	0.087112	NaN	0.000000	0.001578	0.001684	28.081	0.009185	0.002027	4.532303	33.3821	-165.758	0.066459	0.601970	-0.549685	-0.551010	0.087112	4.532303	-0.564100	-2.661252E+7	-3.273360E-9	NaN
618	1.000000	0.613319	7.3711e+06	-46189.1	1005.82	-29770	0.000000	0.000000	6.612999	0.026366	NaN	0.000000	0.001563	0.001642	28.0821	0.039646	0.002126	18.6496	11.675	13.7593	0.047860	0.611924	-0.539661	-0.541056	0.026366	18.6496	-0.540721	-1.262879E+7	-2.087753E-9	NaN
618	1.000000	0.623312	7.3711e+06	-46189.1	1005.82	-29770	0.000000	0.000000	6.622993	0.046044	NaN	0.000000	0.001567	0.001686	28.0822	0.016785	0.002000	8.391943	-119.659	-164.795	0.026597	0.621999	-0.529668	-0.530981	0.046044	8.391943	-0.533783	-1.011818E+7	-4.550648E-9	NaN
618	1.000000	0.633318	7.3711e+06	-46189.1	1005.82	-29770	0.000000	0.000000	6.632998	0.015242	NaN	0.000000	0.001582	0.001670	28.0823	0.086838	0.001966	44.1602	-179.311	12.2519	-0.020678	0.631885	-0.519662	-0.521095	0.015242	44.1602	-0.519921	-6.49376e+06	-2.347229E-9	NaN
618	1.000000	0.643306	7.3711e+06	-46189.1	1005.82	-29770	0.000000	0.000000	6.642985	0.005442	NaN	0.000000	0.001534	0.001676	28.0822	0.050774	0.002126	23.8842	-96.7928	-166.293	-0.063184	0.641969	-0.509674	-0.511011	0.005442	23.8842	-0.509845	-4.70169e+06	-1.157416E-9	NaN
618	1.000000	0.653330	7.3711e+06	-46189.1	1005.82	-29770	0.000000	0.000000	6.653010	0.029370	NaN	0.000000	0.001533	0.001684	28.0821	0.082620	0.001961	42.131	162.125	13.7752	-0.012491	0.651961	-0.499650	-0.501019	0.029370	42.131	-0.500173	-3.44694e+06	-8.520695E-9	NaN
618	1.000000	0.663314	7.3711e+06	-46189.1	1005.82	-29770	0.000000	0.000000	6.662995	0.071193	NaN	0.000000	0.001528	0.001634	28.0821	0.091124	0.002049	44.4667	-125.717	-162.825	0.038976	0.662068	-0.489667	-0.490912	0.071193	44.4667	-0.490867	-2.55572e+06	-2.785618E-8	NaN
618	1.000000	0.673309	7.3711e+06	-46189.1	1005.82	-29770	0.000000	0.000000	6.672989	0.024083	NaN	0.000000	0.001565	0.001657	28.0822	0.077260	0.001969	39.23	-13.5984	13.0377	0.010736	0.672002	-0.479671	-0.480978	0.024083	39.23	-0.480132	-1.80872e+06	-1.331470E-8	NaN
618	1.000000	0.683351	7.3711e+06	-46189.1	1005.82	-29770	0.000000	0.000000	6.683034	0.094977	NaN	0.000000	0.001538	0.001715	28.0821	0.019337	0.002104	9.192159	-84.9489	-163.944	0.047618	0.682042	-0.469629	-0.470938	0.094977	9.192159	-0.477379	-1.6551e+06	-5.738449E-8	NaN
618	1.000000	0.693342	7.3711e+06	-46189.1	1005.82	-29770	0.000000	0.000000	6.693020	-0.020022	NaN	0.000000	0.001487	0.001735	28.082	0.103268	0.001910	54.0659	-62.2502	14.1937	-0.067823	0.692002	-0.459638	-0.460978	-0.020022	54.0659	-0.459361	-924770	2.165089E-8	NaN
618	1.000000	0.703378	7.3711e+06	-46189.1	1005.82	-29770	0.000000	0.000000	6.703059	0.040904	NaN	0.000000	0.001515	0.001668	28.0823	0.084897	0.001946	43.616	-168.553	-167.826	0.034628	0.702044	-0.449602	-0.450936	0.040904	43.616	-0.450305	-689667	-5.930916E-8	NaN
618	1.000000	0.713357	7.3711e+06	-46189.1	1005.82	-29770	0.000000	0.000000	6.713037	0.014155	NaN	0.000000	0.001557	0.001666	28.0822	0.055368	0.001976	28.0143	-93.7374	13.9654	-0.028972	0.711964	-0.439623	-0.441016	0.014155	28.0143	-0.440002	-493620	-2.867546E-8	NaN
618	1.000000	0.723355	7.3711e+06	-46189.1	1005.82	-29770	0.000000	0.000000	6.723035	0.010055	NaN	0.000000	0.001503	0.001695	28.0821	0.060906	0.002091	29.1209	-110.262	-164.227	0.013011	0.722047	-0.429625	-0.430933	0.010055	29.1209	-0.429884	-355155	-2.831121E-8	NaN
618	1.000000	0.733343	7.3711e+06	-46189.1	1005.82	-29770	0.000000	0.000000	6.733022	-0.015953	NaN	0.000000	0.001505	0.001654	28.0821	0.107057	0.001984	53.9657	145.708	11.9792	0.026865	0.732029	-0.419637	-0.420951	-0.015953	53.9657	-0.419415	-252417	6.320122E-8	NaN
618	1.000000	0.743353	7.3711e+06	-46189.1	1005.82	-29770	0.000000	0.000000	6.743032	-0.015271	NaN	0.000000	0.001514	0.001652	28.0821	0.074055	0.002010	36.8347	-160.88	-163.655	0.020696	0.742045	-0.409627	-0.410935	-0.015271	36.8347	-0.409316	-181413	8.417901E-8	NaN
618	1.000000	0.753377	7.3711e+06	-46189.1	1005.82	-29770	0.000000	0.000000	6.753058	0.051950	NaN	0.000000	0.001494	0.001644	28.081	0.072031	0.002062	34.9383	148.169	13.574	0.021417	0.751982	-0.399603	-0.400998	0.051950	34.9383	-0.400718	-136847	-3.796174E-7	NaN
618	1.000000	0.763392	7.3711e+06	-46189.1	1005.82	-29770	0.000000	0.000000	6.763073	0.048582	NaN	0.000000	0.001460	0.001648	28.0808	0.022135	0.002044	10.8292	-176.27	-166.589	0.129296	0.762058	-0.389588	-0.390922	0.048582	10.8292	-0.392952	-106018	-4.582467E-7	NaN
618	1.000000	0.773355	7.3711e+06	-46189.1	1005.82	-29770	0.000000	0.000000	6.773034	0.011480	NaN	0.000000	0.001481	0.001632	28.0812	0.070874	0.002074	34.1804	50.8154	13.8606	-0.010233	0.771994	-0.379626	-0.380987	0.011480	34.1804	-0.379877	-68885.9	-1.666568E-7	NaN
618	1.000000	0.783360	7.3711e+06	-46189.1	1005.82	-29770	0.000000	0.000000	6.783038	-0.037910	NaN	0.000000	0.001507	0.001637	28.0811	0.040671	0.001969	20.6506	29.3777	-164.059	-0.100464	0.782056	-0.369620	-0.370924	-0.037910	20.6506	-0.368243	-46861.4	8.089885E-7	NaN
618	1.000000	0.793396	7.3711e+06	-46189.1	1005.82	-29770	0.000000	0.000000	6.793074	-0.032539	NaN	0.000000	0.001487	0.001636	28.0808	0.036251	0.001985	18.265	-9.378282	14.3805	-0.015688	0.792039	-0.359584	-0.360941	-0.032539	18.265	-0.358248	-33613.4	9.680205E-7	NaN
618	1.000000	0.803403	7.3711e+06	-46189.1	1005.82	-29770	0.000000	0.000000	6.803082	-0.005683	NaN	0.000000	0.001501	0.001657	28.0812	0.155591	0.001933	80.5041	125.127	-165.144	0.079108	0.802058	-0.349577	-0.350922	-0.005683	80.5041	-0.349524	-25124.6	2.261759E-7	NaN
618	1.000000	0.813407	7.3711e+06	-46189.1	1005.82	-29770	0.000000	0.000000	6.813088	0.037444	NaN	0.000000	0.001507	0.001624	28.0813	0.045510	0.001974	23.0492	90.0898	14.8825	0.060179	0.811975	-0.339573	-0.341006	0.037444	23.0492	-0.340791	-18753.7	-1.996622E-6	NaN
618	1.000000	0.823375	7.3711e+06	-46189.1	1005.82	-29770	0.000000	0.000000	6.823050	-0.082520	NaN	0.000000	0.001514	0.001614	28.0812	0.017524	0.001943	9.017785	-82.7541	-166.294	-0.088639	0.822093	-0.329606	-0.330887	-0.082520	9.017785	-0.322742	-10208.8	8.083164E-6	NaN
618	1.000000	0.833383	7.3711e+06	-46189.1	1005.82	-29770	0.000000	0.000000	6.833065	0.058792	NaN	0.000000	0.001555	0.001612	28.0811	0.043328	0.002035	21.2883	-94.8253	13.0796	-0.018368	0.832025	-0.319597	-0.320955	0.058792	21.2883	-0.321668	-9844.21	-5.972201E-6	NaN
618	1.000000	0.843413	7.3711e+06	-46189.1	1005.82	-29770	0.000000	0.000000	6.843095	0.067927	NaN	0.000000	0.001554	0.001668	28.0816	0.066869	0.002095	31.9191	176.923	-164.892	0.126785	0.842108	-0.309567	-0.310872	0.067927	31.9191	-0.311163	-6890.73	-9.857794E-6	NaN
618	1.000000	0.853429	7.3711e+06	-46189.1	1005.82	-29770	0.000000	0.000000	6.853109	0.038407	NaN	0.000000	0.001574	0.001658	28.0812	0.143424	0.002064	69.4905	151.436	14.9003	0.070562	0.852056	-0.299551	-0.300924	0.038407	69.4905	-0.299966	-4700.32	-8.171056E-6	NaN
618	1.000000	0.863409	7.3711e+06	-46189.1	1005.82	-29770	0.000000	0.000000	6.863090	0.044348	NaN	0.000000	0.001554	0.001689	28.0814	0.088726	0.002039	43.5244	127.423	-168.34	-0.006596	0.862082	-0.289571	-0.290898	0.044348	43.5244	-0.290335	-3375.36	-1.313862E-5	NaN
618	1.000000	0.873414	7.3711e+06	-46189.1	1005.82	-29770	0.000000	0.000000	6.873097	0.093892	NaN	0.000000	0.001596	0.001666	28.0812	0.067576	0.002050	32.9688	-62.3631	13.366	0.010528	0.872067	-0.279566	-0.280913	0.093892	32.9688	-0.281702	-2503.96	-3.749716E-5	NaN
618	1.000000	0.883431	7.3711e+06	-46189.1	1005.82	-29770	0.000000	0.000000	6.883111	0.041485	NaN	0.000000	0.001549	0.001656	28.0826	0.105455	0.001957	53.8868	-145.303	-165.329	0.113093	0.882103	-0.269550	-0.270877	0.041485	53.8868	-0.270127	-1672.92	-2.479774E-5	NaN
618	1.000000	0.893379	7.3711e+06	-46189.1	1005.82	-29770	0.000000	0.000000	6.893060	0.046139	NaN	0.000000	0.001565	0.001659	28.0824	0.096912	0.002009	48.2506	143.02	16.0911	-0.076197	0.892105	-0.259601	-0.260875	0.046139	48.2506	-0.260318	-1185.2	-3.892913E-5	NaN
618	1.000000	0.903411	7.3711e+06	-46189.1	1005.82	-29770	0.000000	0.000000	6.903089	-0.017617	NaN	0.000000	0.001522	0.001632	28.0825	0.080266	0.001978	40.5812	103.816	-165.937	-0.017414	0.902179	-0.249569	-0.250802	-0.017617	40.5812	-0.249243	-800.315	2.201296E-5	NaN
618	1.000000	0.913419	7.3711e+06	-46189.1	1005.82	-29770	0.000000	0.000000	6.913100	0.041240	NaN	0.000000	0.001527	0.001668	28.0825	0.052606	0.001984	26.5177	66.9915	14.7348	0.032957	0.912106	-0.239561	-0.240874	0.041240	26.5177	-0.240727	-590.072	-6.989007E-5	NaN
618	1.000000	0.923444	7.3711e+06	-46189.1	1005.82	-29770	0.000000	0.000000	6.923126	0.065898	NaN	0.000000	0.001550	0.001671	28.0823	0.089569	0.001927	46.4923	-124.827	-158.675	0.072344	0.922111	-0.229536	-0.230869	0.065898	46.4923	-0.230599	-409.233	-0.000161	NaN
618	1.000000	0.933423	7.3711e+06	-46189.1	1005.82	-29770	0.000000	0.000000	6.933100	-0.035834	NaN	0.000000	0.001527	0.001657	28.0823	0.153895	0.001987	77.4562	99.7674	15.081	-0.006819	0.932078	-0.219557	-0.220902	-0.035834	77.4562	-0.219210	-269.806	0.000133	NaN
618	1.000000	0.943450	7.3711e+06	-46189.1	1005.82	-29770	0.000000	0.000000	6.943131	0.055314	NaN	0.000000	0.001548	0.001669	28.0822	0.105436	0.001981	53.2178	-174.731	-167.085	0.064499	0.942089	-0.209530	-0.210891	0.055314	53.2178	-0.210310	-194.015	-0.000285	NaN
618	1.000000	0.953463	7.3711e+06	-46189.1	1005.82	-29770	0.000000	0.000000	6.953142	-0.019289	NaN	0.000000	0.001555	0.001647	28.0826	0.175540	0.002067	84.929	-141.142	13.0031	0.033289	0.952129	-0.199517	-0.200851	-0.019289	84.929	-0.199346	-128.514	0.000150	NaN
618	1.000000	0.963465	7.3711e+06	-46189.1	1005.82	-29770	0.000000	0.000000	6.963145	0.016851	NaN	0.000000	0.001554	0.001654	28.0824	0.090479	0.002055	44.0356	15.3596	-164.384	0.037817	0.962104	-0.189515	-0.190876	0.016851	44.0356	-0.189802	-89.2738	-0.000189	NaN
618	1.000000	0.973466	7.3711e+06	-46189.1	1005.82	-29770	0.000000	0.000000	6.973148	0.072525	NaN	0.000000	0.001531	0.001662	28.0823	0.111470	0.002056	54.2098	-4.208371	11.1684	0.092637	0.972088	-0.179515	-0.180892	0.072525	54.2098	-0.180518	-62.2694	-0.001165	NaN
618	1.000000	0.983446	7.3711e+06	-46189.1	1005.82	-29770	0.000000	0.000000	6.983123	-0.034199	NaN	0.000000	0.001510	0.001662	28.0823	0.060417	0.001898	31.8297	-116.436	-164.182	-0.067265	0.982164	-0.169535	-0.170817	-0.034199	31.8297	-0.168729	-39.0398	0.000876	NaN
618	1.000000	0.993451	7.3711e+06	-46189.1	1005.82	-29770	0.000000	0.000000	6.993132	0.038886	NaN	0.000000	0.001531	0.001721	28.0823	0.119806	0.001848	64.8342	-142.577	15.8524	0.046779	0.992084	-0.159529	-0.160896	0.038886	64.8342	-0.159979	-27.3913	-0.001420	NaN
618	1.000000	1.003486	7.3711e+06	-46189.1	1005.82	-29770	0.000000	0.000000	7.003164	-0.031678	NaN	0.000000	0.001519	0.001665	28.0822	0.075398	0.002000	37.7076	38.1542	-164.33	-0.060046	1.002171	-0.149494	-0.150809	-0.031678	37.7076	-0.148864	-17.2681	0.001834	NaN
618	1.000000	1.013468	7.3711e+06	-46189.1	1005.82	-29770	0.000000	0.000000	7.013147	0.005426	NaN	0.000000	0.001580	0.001688	28.0822	0.066893	0.001980	33.7793	45.9727	13.4838	0.054803	1.012073	-0.139513	-0.140907	0.005426	33.7793	-0.139633	-11.6432	-0.000466	NaN
618	1.000000	1.023488	7.3711e+06	-46189.1	1005.82	-29770	0.000000	0.000000	7.023166	-0.019283	NaN	0.000000	0.001554	0.001707	28.0812	0.070550	0.002003	35.2306	113.731	-164.378	-0.056798	1.022137	-0.129492	-0.130843	-0.019283	35.2306	-0.129082	-7.313858	0.002637	NaN
618	1.000000	1.033481	7.3711e+06	-46189.1	1005.82	-29770	0.000000	0.000000	7.033158	-0.031636	NaN	0.000000	0.001564	0.001667	28.081	0.048365	0.001997	24.2143	175.3	13.409	-0.022856	1.032079	-0.119499	-0.120901	-0.031636	24.2143	-0.118519	-4.509308	0.007016	NaN
618	1.000000	1.043470	7.3711e+06	-46189.1	1005.82	-29770	0.000000	0.000000	7.043151	0.030185	NaN	0.000000	0.001544	0.001669	28.0809	0.038656	0.002006	19.2658	-153.327	-162.971	0.071787	1.042188	-0.109510	-0.110792	0.030185	19.2658	-0.110685	-3.106622	-0.009716	NaN
618	1.000000	1.053489	7.3711e+06	-46189.1	1005.82	-29770	0.000000	0.000000	7.053171	0.085333	NaN	0.000000	0.001557	0.001663	28.0812	0.059016	0.002007	29.4095	-126.539	15.0122	-0.007179	1.052160	-0.099492	-0.100820	0.085333	29.4095	-0.101668	-1.988746	-0.042908	NaN
618	1.000000	1.063492	7.3711e+06	-46189.1	1005.82	-29770	0.000000	0.000000	7.063172	0.013889	NaN	0.000000	0.001557	0.001683	28.0811	0.062608	0.002062	30.364	163.191	-164.071	0.011525	1.062157	-0.089488	-0.090823	0.013889	30.364	-0.089831	-1.071163	-0.012966	NaN
618	1.000000	1.073487	7.3711e+06	-46189.1	1005.82	-29770	0.000000	0.000000	7.073168	0.027830	NaN	0.000000	0.001541	0.001644	28.0809	0.018844	0.001982	9.507372	-80.2157	14.7138	0.075691	1.072070	-0.079493	-0.080910	0.027830	9.507372	-0.081688	-0.681809	-0.040817	NaN
618	1.000000	1.083489	7.3711e+06	-46189.1	1005.82	-29770	0.000000	0.000000	7.083169	0.016744	NaN	0.000000	0.001561	0.001637	28.0808	0.091108	0.002043	44.5959	21.2745	-166.086	0.064308	1.082197	-0.069491	-0.070783	0.016744	44.5959	-0.069772	-0.336348	-0.049781	NaN
618	1.000000	1.093479	7.3711e+06	-46189.1	1005.82	-29770	0.000000	0.000000	7.093161	0.081976	NaN	0.000000	0.001519	0.001650	28.0813	0.021539	0.001953	11.0311	134.602	15.7103	0.045805	1.092119	-0.059502	-0.060861	0.081976	11.0311	-0.065075	-0.250414	-0.327361	NaN
618	1.000000	1.103496	7.3711e+06	-46189.1	1005.82	-29770	0.000000	0.000000	7.103177	0.052265	NaN	0.000000	0.001502	0.001653	28.0809	0.068694	0.001928	35.6375	-155.964	-163.641	-0.002777	1.102157	-0.049484	-0.050823	0.052265	35.6375	-0.050584	-0.095032	-0.549969	NaN
618	1.000000	1.113523	7.3711e+06	-46189.1	1005.82	-29770	0.000000	0.000000	7.113201	-0.032170	NaN	0.000000	0.001612	0.001633	28.082	0.132883	0.001994	66.6571	16.3553	12.4928	0.008107	1.112148	-0.039457	-0.040832	-0.032170	66.6571	-0.039095	-0.042454	0.757760	NaN
618	1.000000	1.123517	7.3711e+06	-46189.1	1005.82	-29770	0.000000	0.000000	7.123194	-0.051906	NaN	0.000000	0.001597	0.001641	28.0809	0.101851	0.001983	51.358	12.2762	-164.662	-0.052573	1.122235	-0.029463	-0.030745	-0.051906	51.358	-0.028705	-0.021193	2.449153	NaN
618	1.000000	1.133530	7.3711e+06	-46189.1	1005.82	-29770	0.000000	0.000000	7.133212	0.060153	NaN	0.000000	0.001565	0.001664	28.0813	0.093211	0.002038	45.7353	-152.21	12.42	-0.023978	1.132208	-0.019450	-0.020772	0.060153	45.7353	-0.020436	-0.012886	-4.668073	NaN
618	1.000000	1.143525	7.3711e+06	-46189.1	1005.82	-29770	0.000000	0.000000	7.143205	0.042153	NaN	0.000000	0.001549	0.001586	28.081	0.093963	0.002006	46.8488	153.393	-165.844	0.058291	1.142218	-0.009455	-0.010763	0.042153	46.8488	-0.010130	-0.006462	-6.523350	NaN
618	1.000000	1.153510	7.3711e+06	-46189.1	1005.82	-29770	0.000000	0.000000	7.153209	0.476879	NaN	0.000000	0.001564	0.001667	28.081	0.821517	0.001953	420.687	11.6205	11.5365	0.146881	1.152151	0.000530	-0.000829	0.476879	420.687	-0.000320	-0.000238	-2006.66	NaN
618	2.000000	1.162095	7.3711e+06	-46189.1	1005.82	-29770	0.000000	0.000000	7.162192	10.151	NaN	0.000000	0.001540	0.001656	28.0823	9.489910	0.001627	5834.31	2.931698	-168.335	10.0178	1.161654	0.009115	0.008674	10.151	5834.31	0.007810	0.006848	1482.32	64413.7
618	2.000000	1.164574	7.3711e+06	-46189.1	1005.82	-29770	0.000000	0.000000	7.164835	14.161	NaN	0.000000	0.001562	0.001676	28.0846	11.6478	0.001680	6935.09	5.024600	9.694843	13.0952	1.164190	0.011594	0.011210	14.161	6935.09	0.010062	0.009251	1530.81	65877.5
618	2.000000	1.167019	7.3711e+06	-46189.1	1005.82	-29770	0.000000	0.000000	7.167402	17.1246	NaN	0.000000	0.001568	0.001678	28.0838	14.5032	0.001761	8236.47	8.272934	-175.744	17.0803	1.166716	0.014039	0.013736	17.1246	8236.47	0.012480	0.012070	1418.75	68494.8
618	2.000000	1.169491	7.3711e+06	-46189.1	1005.82	-29770	0.000000	0.000000	7.170040	21.1623	NaN	0.000000	0.001548	0.001669	28.0828	17.0841	0.001857	9202.07	4.014161	5.674890	19.7931	1.169228	0.016511	0.016247	21.1623	9202.07	0.014786	0.015002	1410.66	68641.7
618	2.000000	1.171986	7.3711e+06	-46189.1	1005.82	-29770	0.000000	0.000000	7.172664	24.3069	NaN	0.000000	0.001566	0.001653	28.0821	19.1539	0.001689	11340.8	5.196248	-177.402	23.1191	1.171683	0.019006	0.018703	24.3069	11340.8	0.017398	0.018617	1305.6	75937.5
618	2.000000	1.174484	7.3711e+06	-46189.1	1005.82	-29770	0.000000	0.000000	7.175420	30.5587	NaN	0.000000	0.001549	0.001666	28.0824	21.3288	0.001906	11189.1	7.996832	3.484465	28.6255	1.174115	0.021504	0.021135	30.5587	11189.1	0.019456	0.021694	1408.59	69405.7
618	2.000000	1.176941	7.3711e+06	-46189.1	1005.82	-29770	0.000000	0.000000	7.178077	35.4307	NaN	0.000000	0.001569	0.001628	28.082	23.3117	0.001777	13119.5	3.374362	-175.318	33.6435	1.176687	0.023961	0.023706	35.4307	13119.5	0.021936	0.025676	1379.91	74804.4
618	2.000000	1.179493	7.3711e+06	-46189.1	1005.82	-29770	0.000000	0.000000	7.180829	40.2979	NaN	0.000000	0.001539	0.001619	28.0822	26.6591	0.001841	14482.3	5.444498	2.785021	40.4404	1.179143	0.026513	0.026163	40.2979	14482.3	0.024426	0.029980	1344.16	76417.9
618	2.000000	1.181948	7.3711e+06	-46189.1	1005.82	-29770	0.000000	0.000000	7.183596	47.899	NaN	0.000000	0.001571	0.001670	28.082	29.3209	0.001718	17071	6.199710	178.956	46.4357	1.181653	0.028968	0.028673	47.899	17071	0.026864	0.034494	1388.64	83977.5
618	2.000000	1.184452	7.3711e+06	-46189.1	1005.82	-29770	0.000000	0.000000	7.186361	54.2595	NaN	0.000000	0.001563	0.001672	28.0822	31.9119	0.001784	17883.7	9.495585	-3.864525	52.221	1.184072	0.031472	0.031092	54.2595	17883.7	0.029196	0.039094	1387.91	82636.9
618	2.000000	1.186984	7.3711e+06	-46189.1	1005.82	-29770	0.000000	0.000000	7.189290	63.9055	NaN	0.000000	0.001583	0.001656	28.0821	33.8906	0.001730	19594.6	9.091823	175.639	64.2743	1.186571	0.034004	0.033591	63.9055	19594.6	0.031558	0.044034	1451.28	85313
618	2.000000	1.189461	7.3711e+06	-46189.1	1005.82	-29770	0.000000	0.000000	7.191962	68.6528	NaN	0.000000	0.001549	0.001631	28.0821	37.1382	0.001836	20231.7	8.854866	-4.311124	68.9491	1.189088	0.036481	0.036108	68.6528	20231.7	0.033936	0.049297	1392.63	83251.9
618	2.000000	1.191973	7.3711e+06	-46189.1	1005.82	-29770	0.000000	0.000000	7.194904	79.1151	NaN	0.000000	0.001553	0.001652	28.0823	39.4031	0.001825	21592.9	7.369920	175.671	78.3196	1.191609	0.038993	0.038629	79.1151	21592.9	0.036245	0.054684	1446.77	84363.6
618	2.000000	1.194402	7.3711e+06	-46189.1	1005.82	-29770	0.000000	0.000000	7.197568	84.8051	NaN	0.000000	0.001524	0.001669	28.0809	40.7739	0.001957	20834.6	3.904819	-0.150648	80.896	1.194149	0.041422	0.041169	84.8051	20834.6	0.038369	0.059882	1416.2	77787.5
618	2.000000	1.196914	7.3711e+06	-46189.1	1005.82	-29770	0.000000	0.000000	7.200612	97.7489	NaN	0.000000	0.001524	0.001648	28.0809	42.7938	0.001864	22952.7	5.600609	177.229	96.9029	1.196604	0.043934	0.043624	97.7489	22952.7	0.040740	0.065955	1482.05	81654.9
618	2.000000	1.199372	7.3711e+06	-46189.1	1005.82	-29770	0.000000	0.000000	7.203434	106.598	NaN	0.000000	0.001508	0.001657	28.081	45.639	0.001849	24678.6	6.241556	-3.301491	102.473	1.199020	0.046392	0.046040	106.598	24678.6	0.043153	0.072430	1471.74	83779
618	2.000000	1.201927	7.3711e+06	-46189.1	1005.82	-29770	0.000000	0.000000	7.206389	116.366	NaN	0.000000	0.001487	0.001670	28.0812	48.0544	0.001899	25299.4	10.4213	172.279	116.689	1.201628	0.048946	0.048648	116.366	25299.4	0.045497	0.079004	1472.92	82235.5
618	2.000000	1.204416	7.3711e+06	-46189.1	1005.82	-29770	0.000000	0.000000	7.209385	128.693	NaN	0.000000	0.001509	0.001614	28.0808	49.5685	0.001757	28216	7.591772	-5.873579	127.708	1.204041	0.051436	0.051061	128.693	28216	0.048015	0.086376	1489.91	87714.5
618	2.000000	1.206931	7.3711e+06	-46189.1	1005.82	-29770	0.000000	0.000000	7.212263	137.503	NaN	0.000000	0.001532	0.001676	28.0811	52.203	0.001873	27864.9	5.295642	175.895	137.173	1.206559	0.053951	0.053579	137.503	27864.9	0.050250	0.093188	1475.54	83397
618	2.000000	1.209347	7.3711e+06	-46189.1	1005.82	-29770	0.000000	0.000000	7.215237	151.097	NaN	0.000000	0.001533	0.001641	28.0809	54.3168	0.001870	29045.2	7.735064	-6.698795	146.694	1.209096	0.056367	0.056116	151.097	29045.2	0.052465	0.100184	1508.19	83839.3
618	2.000000	1.211884	7.3711e+06	-46189.1	1005.82	-29770	0.000000	0.000000	7.218237	162.338	NaN	0.000000	0.001523	0.001665	28.0809	56.1079	0.001703	32947.4	7.037681	172.569	159.087	1.211567	0.058904	0.058587	162.338	32947.4	0.055209	0.109190	1486.75	91096.5
618	2.000000	1.214454	7.3711e+06	-46189.1	1005.82	-29770	0.000000	0.000000	7.221304	174.446	NaN	0.000000	0.001568	0.001606	28.0812	57.9108	0.001784	32470.1	7.266901	-6.387916	173.579	1.214025	0.061473	0.061045	174.446	32470.1	0.057444	0.116803	1493.5	86802.2
618	2.000000	1.216862	7.3711e+06	-46189.1	1005.82	-29770	0.000000	0.000000	7.224332	189.527	NaN	0.000000	0.001553	0.001628	28.081	59.6944	0.001663	35891.8	4.808893	174.601	188.934	1.216437	0.063882	0.063457	189.527	35891.8	0.059921	0.125526	1509.86	92555.4
618	2.000000	1.219411	7.3711e+06	-46189.1	1005.82	-29770	0.000000	0.000000	7.227295	199.598	NaN	0.000000	0.001577	0.001619	28.0812	63.4293	0.001855	34190.6	5.967765	-5.707957	198.604	1.219056	0.066431	0.066076	199.598	34190.6	0.062052	0.133271	1497.69	85568.3
618	2.000000	1.221852	7.3711e+06	-46189.1	1005.82	-29770	0.000000	0.000000	7.230171	210.184	NaN	0.000000	0.001521	0.001650	28.081	65.2204	0.001820	35828.4	4.676808	174.657	206.544	1.221683	0.068872	0.068703	210.184	35828.4	0.064472	0.142330	1476.73	86766.5
618	2.000000	1.224325	7.3711e+06	-46189.1	1005.82	-29770	0.000000	0.000000	7.233295	225.994	NaN	0.000000	0.001558	0.001646	28.0811	66.1033	0.001631	40531.7	3.415932	-5.267363	219.474	1.224016	0.071345	0.071035	225.994	40531.7	0.067163	0.152740	1479.6	94752.7
618	2.000000	1.226827	7.3711e+06	-46189.1	1005.82	-29770	0.000000	0.000000	7.236522	243.656	NaN	0.000000	0.001535	0.001657	28.0811	68.9376	0.001729	39863.2	6.743471	171.568	239.337	1.226564	0.073846	0.073584	243.656	39863.2	0.069262	0.161100	1512.46	90740
618	2.000000	1.229374	7.3711e+06	-46189.1	1005.82	-29770	0.000000	0.000000	7.239637	257.47	NaN	0.000000	0.001536	0.001622	28.0825	70.5403	0.001640	43001.1	2.720406	-5.095790	253.777	1.229044	0.076394	0.076064	257.47	43001.1	0.071903	0.171915	1497.66	94753.6
618	2.000000	1.231783	7.3711e+06	-46189.1	1005.82	-29770	0.000000	0.000000	7.242558	269.92	NaN	0.000000	0.001563	0.001644	28.0822	74.9674	0.001870	40086.1	4.669720	174.311	265.065	1.231528	0.078803	0.078548	269.92	40086.1	0.073753	0.179687	1502.16	86398.9
618	2.000000	1.234426	7.3711e+06	-46189.1	1005.82	-29770	0.000000	0.000000	7.245712	282.358	NaN	0.000000	0.001569	0.001615	28.0823	76.59	0.001853	41339.7	5.894522	-6.972089	280.6	1.234087	0.081446	0.081107	282.358	41339.7	0.076323	0.190756	1480.21	86477.3
618	2.000000	1.236953	7.3711e+06	-46189.1	1005.82	-29770	0.000000	0.000000	7.248820	296.487	NaN	0.000000	0.001531	0.001643	28.0823	79.6995	0.001789	44545.5	7.635720	170.383	300.001	1.236562	0.083973	0.083582	296.487	44545.5	0.078981	0.202527	1463.94	90434.9
618	2.000000	1.239374	7.3711e+06	-46189.1	1005.82	-29770	0.000000	0.000000	7.252215	320.157	NaN	0.000000	0.001542	0.001625	28.0823	81.3171	0.001796	45269.7	4.575266	-6.886981	316.488	1.238977	0.086394	0.085997	320.157	45269.7	0.081090	0.212103	1509.44	89806.5
618	2.000000	1.241858	7.3711e+06	-46189.1	1005.82	-29770	0.000000	0.000000	7.255258	333.78	NaN	0.000000	0.001583	0.001633	28.0823	84.0772	0.001713	49093.1	3.788125	173.588	332.559	1.241637	0.088878	0.088656	333.78	49093.1	0.083778	0.224609	1486.05	94641.3
618	2.000000	1.244419	7.3711e+06	-46189.1	1005.82	-29770	0.000000	0.000000	7.258758	356.612	NaN	0.000000	0.001580	0.001633	28.0823	86.0692	0.001887	45610.4	4.095224	-6.227148	355.001	1.244006	0.091439	0.091026	356.612	45610.4	0.085575	0.233154	1529.52	86301
618	2.000000	1.246943	7.3711e+06	-46189.1	1005.82	-29770	0.000000	0.000000	7.261580	363.857	NaN	0.000000	0.001562	0.001624	28.0825	87.9435	0.001761	49953.2	1.583778	175.197	365.274	1.246709	0.093963	0.093728	363.857	49953.2	0.088500	0.247379	1470.84	91760.3
618	2.000000	1.249336	7.3711e+06	-46189.1	1005.82	-29770	0.000000	0.000000	7.265188	393.415	NaN	0.000000	0.001613	0.001609	28.0821	89.8353	0.001759	51066.7	1.179656	-4.115341	387.432	1.248910	0.096356	0.095930	393.415	51066.7	0.090578	0.257725	1526.49	91903.6
618	2.000000	1.251843	7.3711e+06	-46189.1	1005.82	-29770	0.000000	0.000000	7.268343	409.163	NaN	0.000000	0.001553	0.001634	28.0825	93.1481	0.001744	53414.5	1.490998	174.892	404.656	1.251472	0.098863	0.098492	409.163	53414.5	0.093118	0.270644	1511.81	93806.6
618	2.000000	1.254306	7.3711e+06	-46189.1	1005.82	-29770	0.000000	0.000000	7.271478	425.522	NaN	0.000000	0.001532	0.001649	28.0823	94.7387	0.001686	56181.1	5.040385	-9.022600	419.782	1.254134	0.101325	0.101154	425.522	56181.1	0.095645	0.283786	1499.45	96353.6
618	2.000000	1.256795	7.3711e+06	-46189.1	1005.82	-29770	0.000000	0.000000	7.274769	445.037	NaN	0.000000	0.001557	0.001642	28.0831	96.1673	0.001839	52302.3	3.651126	172.909	441.014	1.256548	0.103815	0.103568	445.037	52302.3	0.097433	0.293263	1517.53	88239.8
618	2.000000	1.259337	7.3711e+06	-46189.1	1005.82	-29770	0.000000	0.000000	7.278137	465.129	NaN	0.000000	0.001551	0.001671	28.0823	100.793	0.001834	54950.8	3.688251	-7.585485	461.354	1.258899	0.106357	0.105919	465.129	54950.8	0.100008	0.307165	1514.26	90586
618	2.000000	1.259755	7.3711e+06	-46189.1	1005.82	-29770	0.000000	0.000000	7.278841	472.079	NaN	0.000000	0.001549	0.001679	28.0823	100.14	0.001742	57487.5	1.571489	174.833	466.89	1.259486	0.106775	0.106506	472.079	57487.5	0.100616	0.310490	1520.43	94259