File: remote_trans/data/nanoindenter/0828-1/data/Data_2025-08-06,11h17m57s/2025-07-22_16-23-58_1_472.txt
2025-07-22, 16:23:58, 1
Index	Phase	Displacement	Time	Pos X	Pos Y	Pos Z	Rot A	Rot B	Piezo Z	Force A	Force B	Gripper	Voltage A	Voltage B	Temperature	Amplitude force	Amplitude pos	Stiffness	Phase shift	Phase excitation	Force A raw	Displacement raw	HMax	HMax raw	Real Force	Real Stiffness	Contact Depth	Area	Hardness	Reduced Mod.
[#]	[#]	[um]	[s]	[um]	[um]	[um]	[m°]	[m°]	[um]	[uN]	[uN]	[V]	[V]	[V]	[°C]	[uN]	[um]	[N/m]	[°]	[°]	[uN]	[um]	[um]	[um]	[uN]	[N/m]	[um]	[um^2]	[MPa]	[MPa]
472	1.000000	0.002506	7.36967e+06	-53489.1	1005.82	-29746.2	0.000000	0.000000	6.002787	-0.018292	NaN	0.000000	0.001518	0.001658	28.0816	0.002109	0.001071	1.969590	-135.782	-170.568	0.036071	0.001337	-1.152360	-1.153529	-0.018292	1.969590	-1.145394	-2.037378E+15	8.978284E-18	NaN
472	1.000000	0.012551	7.36967e+06	-53489.1	1005.82	-29746.2	0.000000	0.000000	6.012834	0.028875	NaN	0.000000	0.001528	0.001657	28.0813	0.060361	0.001146	52.6629	51.4359	19.9742	0.059976	0.011136	-1.142315	-1.143730	0.028875	52.6629	-1.142726	-1.876259E+15	-1.538989E-17	NaN
472	1.000000	0.022487	7.36967e+06	-53489.1	1005.82	-29746.2	0.000000	0.000000	6.022769	0.023000	NaN	0.000000	0.001529	0.001663	28.0815	0.016132	0.001662	9.704684	125.93	-167.883	-0.015229	0.021167	-1.132379	-1.133700	0.023000	9.704684	-1.134157	-1.440040E+15	-1.597159E-17	NaN
472	1.000000	0.032464	7.36967e+06	-53489.1	1005.82	-29746.2	0.000000	0.000000	6.032744	-0.023772	NaN	0.000000	0.001502	0.001611	28.0818	0.113433	0.001968	57.6511	147.947	12.3497	0.087198	0.031057	-1.122402	-1.123810	-0.023772	57.6511	-1.122093	-9.920874E+14	2.396206E-17	NaN
472	1.000000	0.042459	7.36967e+06	-53489.1	1005.82	-29746.2	0.000000	0.000000	6.042739	-0.026620	NaN	0.000000	0.001481	0.001664	28.0815	0.060969	0.002006	30.3989	141.713	-170.255	-0.024909	0.041200	-1.112407	-1.113667	-0.026620	30.3989	-1.111750	-7.207404E+14	3.693385E-17	NaN
472	1.000000	0.052458	7.36967e+06	-53489.1	1005.82	-29746.2	0.000000	0.000000	6.052743	0.085237	NaN	0.000000	0.001487	0.001667	28.0815	0.040168	0.001970	20.3913	103.78	15.6367	0.106313	0.051095	-1.102408	-1.103771	0.085237	20.3913	-1.105543	-5.949383E+14	-1.432709E-16	NaN
472	1.000000	0.062451	7.36967e+06	-53489.1	1005.82	-29746.2	0.000000	0.000000	6.062733	0.019945	NaN	0.000000	0.001494	0.001640	28.0816	0.042341	0.002097	20.1926	154.449	-165.877	-0.090352	0.061154	-1.092415	-1.093712	0.019945	20.1926	-1.093156	-4.056834E+14	-4.916325E-17	NaN
472	1.000000	0.072464	7.36967e+06	-53489.1	1005.82	-29746.2	0.000000	0.000000	6.072746	0.012581	NaN	0.000000	0.001543	0.001634	28.0816	0.095256	0.001933	49.2664	1.670147	14.4164	-0.009462	0.071132	-1.082402	-1.083734	0.012581	49.2664	-1.082593	-2.926520E+14	-4.299092E-17	NaN
472	1.000000	0.082481	7.36967e+06	-53489.1	1005.82	-29746.2	0.000000	0.000000	6.082763	0.005572	NaN	0.000000	0.001529	0.001643	28.0816	0.152818	0.001951	78.3135	101.02	-163.39	0.002276	0.081159	-1.072385	-1.073707	0.005572	78.3135	-1.072438	-2.137698E+14	-2.606743E-17	NaN
472	1.000000	0.092449	7.36967e+06	-53489.1	1005.82	-29746.2	0.000000	0.000000	6.092731	0.010822	NaN	0.000000	0.001551	0.001645	28.0815	0.061871	0.002015	30.7019	147.741	14.9017	0.033793	0.091195	-1.062417	-1.063671	0.010822	30.7019	-1.062681	-1.580715E+14	-6.846034E-17	NaN
472	1.000000	0.102504	7.36967e+06	-53489.1	1005.82	-29746.2	0.000000	0.000000	6.102784	-0.022619	NaN	0.000000	0.001527	0.001631	28.0816	0.066964	0.002048	32.6905	137.507	-162.987	-0.105680	0.101174	-1.052362	-1.053692	-0.022619	32.6905	-1.051843	-1.130301E+14	2.001108E-16	NaN
472	1.000000	0.112467	7.36967e+06	-53489.1	1005.82	-29746.2	0.000000	0.000000	6.112750	0.044861	NaN	0.000000	0.001491	0.001742	28.0814	0.052673	0.001994	26.4105	-59.8168	14.3387	0.040727	0.111101	-1.042399	-1.043765	0.044861	26.4105	-1.043673	-8.777196E+13	-5.111100E-16	NaN
472	1.000000	0.122492	7.36967e+06	-53489.1	1005.82	-29746.2	0.000000	0.000000	6.122774	0.012366	NaN	0.000000	0.001511	0.001684	28.0813	0.105224	0.001863	56.4693	-178.492	-165.399	0.079704	0.121200	-1.032374	-1.033667	0.012366	56.4693	-1.032539	-6.217642E+13	-1.988831E-16	NaN
472	1.000000	0.132506	7.36967e+06	-53489.1	1005.82	-29746.2	0.000000	0.000000	6.132786	-0.034269	NaN	0.000000	0.001514	0.001682	28.0799	0.048998	0.001990	24.6201	-99.2487	8.939231	-0.030941	0.131131	-1.022360	-1.023735	-0.034269	24.6201	-1.021316	-4.391944E+13	7.802664E-16	NaN
472	1.000000	0.142490	7.36967e+06	-53489.1	1005.82	-29746.2	0.000000	0.000000	6.142772	0.009123	NaN	0.000000	0.001521	0.001687	28.0805	0.043947	0.002066	21.2674	104.898	-167.787	0.007865	0.141200	-1.012376	-1.013666	0.009123	21.2674	-1.012698	-3.362697E+13	-2.712949E-16	NaN
472	1.000000	0.152505	7.36967e+06	-53489.1	1005.82	-29746.2	0.000000	0.000000	6.152787	0.010479	NaN	0.000000	0.001551	0.001679	28.0803	0.037812	0.001822	20.7507	110.995	12.6034	0.000802	0.151166	-1.002361	-1.003701	0.010479	20.7507	-1.002740	-2.469765E+13	-4.242822E-16	NaN
472	1.000000	0.162532	7.36967e+06	-53489.1	1005.82	-29746.2	0.000000	0.000000	6.162815	0.042179	NaN	0.000000	0.001491	0.001666	28.0803	0.024293	0.002209	10.9963	27.9124	-170.44	0.077466	0.161185	-0.992334	-0.993682	0.042179	10.9963	-0.995211	-1.955633E+13	-2.156785E-15	NaN
472	1.000000	0.172508	7.36967e+06	-53489.1	1005.82	-29746.2	0.000000	0.000000	6.172789	0.009656	NaN	0.000000	0.001503	0.001669	28.0805	0.071381	0.002022	35.3064	-149.135	13.0808	-0.071880	0.171156	-0.982359	-0.983710	0.009656	35.3064	-0.982564	-1.321142E+13	-7.308961E-16	NaN
472	1.000000	0.182539	7.36967e+06	-53489.1	1005.82	-29746.2	0.000000	0.000000	6.182823	0.058345	NaN	0.000000	0.001517	0.001643	28.0808	0.044228	0.002007	22.0356	69.6179	-164.68	0.008970	0.181169	-0.972327	-0.973697	0.058345	22.0356	-0.974313	-1.022791E+13	-5.704510E-15	NaN
472	1.000000	0.192501	7.36967e+06	-53489.1	1005.82	-29746.2	0.000000	0.000000	6.192780	-0.046738	NaN	0.000000	0.001525	0.001648	28.0803	0.065331	0.001930	33.8436	-17.3609	12.7272	-0.024537	0.191200	-0.962365	-0.963666	-0.046738	33.8436	-0.961329	-6.835820E+12	6.837249E-15	NaN
472	1.000000	0.202540	7.36967e+06	-53489.1	1005.82	-29746.2	0.000000	0.000000	6.202822	0.034164	NaN	0.000000	0.001515	0.001696	28.0806	0.121040	0.002053	58.952	168.243	-168.118	-0.023350	0.201227	-0.952326	-0.953639	0.034164	58.952	-0.952761	-5.239169E+12	-6.520808E-15	NaN
472	1.000000	0.212528	7.36967e+06	-53489.1	1005.82	-29746.2	0.000000	0.000000	6.212810	0.026479	NaN	0.000000	0.001526	0.001686	28.0807	0.101782	0.001964	51.8147	128.146	13.4213	0.040264	0.211176	-0.942338	-0.943690	0.026479	51.8147	-0.942722	-3.835799E+12	-6.903214E-15	NaN
472	1.000000	0.222521	7.36967e+06	-53489.1	1005.82	-29746.2	0.000000	0.000000	6.222802	-7.790537E-5	NaN	0.000000	0.001528	0.001671	28.0806	0.091383	0.001822	50.1563	-131.962	-168.896	0.055848	0.221285	-0.932346	-0.933581	-7.790537E-5	50.1563	-0.932344	-2.778667E+12	2.803696E-17	NaN
472	1.000000	0.232552	7.36967e+06	-53489.1	1005.82	-29746.2	0.000000	0.000000	6.232829	-0.086186	NaN	0.000000	0.001508	0.001692	28.0805	0.057056	0.001964	29.0504	-179.711	14.4833	-0.116926	0.231221	-0.922314	-0.923645	-0.086186	29.0504	-0.920089	-1.898511E+12	4.539659E-14	NaN
472	1.000000	0.242555	7.36967e+06	-53489.1	1005.82	-29746.2	0.000000	0.000000	6.242838	0.039934	NaN	0.000000	0.001527	0.001730	28.0806	0.072511	0.002138	33.9231	-19.5689	-166.644	0.015618	0.241197	-0.912311	-0.913670	0.039934	33.9231	-0.913194	-1.532151E+12	-2.606392E-14	NaN
472	1.000000	0.252537	7.36967e+06	-53489.1	1005.82	-29746.2	0.000000	0.000000	6.252819	0.015362	NaN	0.000000	0.001524	0.001724	28.0806	0.111841	0.002190	51.0772	83.4153	12.0887	0.008508	0.251191	-0.902329	-0.903675	0.015362	51.0772	-0.902554	-1.100475E+12	-1.395966E-14	NaN
472	1.000000	0.262577	7.36967e+06	-53489.1	1005.82	-29746.2	0.000000	0.000000	6.262862	0.082991	NaN	0.000000	0.001513	0.001677	28.0818	0.064875	0.002058	31.5196	-80.3477	-164.825	0.075336	0.261271	-0.892289	-0.893595	0.082991	31.5196	-0.894264	-8.502545E+11	-9.760752E-14	NaN
472	1.000000	0.272547	7.36967e+06	-53489.1	1005.82	-29746.2	0.000000	0.000000	6.272830	0.040453	NaN	0.000000	0.001495	0.001690	28.0818	0.040261	0.002050	19.6393	-87.9076	16.3072	-0.037870	0.271237	-0.882319	-0.883630	0.040453	19.6393	-0.883864	-6.151128E+11	-6.576481E-14	NaN
472	1.000000	0.282548	7.36967e+06	-53489.1	1005.82	-29746.2	0.000000	0.000000	6.282832	0.057786	NaN	0.000000	0.001517	0.001656	28.0816	0.075638	0.001831	41.3103	-97.568	-167.025	0.067107	0.281215	-0.872318	-0.873651	0.057786	41.3103	-0.873367	-4.436090E+11	-1.302644E-13	NaN
472	1.000000	0.292551	7.36967e+06	-53489.1	1005.82	-29746.2	0.000000	0.000000	6.292833	0.028744	NaN	0.000000	0.001532	0.001637	28.0816	0.108123	0.001943	55.6496	147.334	11.4556	0.012155	0.291178	-0.862316	-0.863688	0.028744	55.6496	-0.862703	-3.182044E+11	-9.033160E-14	NaN
472	1.000000	0.302539	7.36967e+06	-53489.1	1005.82	-29746.2	0.000000	0.000000	6.302822	0.046490	NaN	0.000000	0.001548	0.001639	28.0815	0.046914	0.001989	23.5843	158.667	-166.111	-0.046525	0.301309	-0.852327	-0.853557	0.046490	23.5843	-0.853806	-2.411387E+11	-1.927944E-13	NaN
472	1.000000	0.312567	7.36967e+06	-53489.1	1005.82	-29746.2	0.000000	0.000000	6.312849	-0.001785	NaN	0.000000	0.001523	0.001672	28.0815	0.033991	0.002034	16.7128	-13.7725	13.8699	0.025468	0.311227	-0.842299	-0.843639	-0.001785	16.7128	-0.842219	-1.680157E+11	1.062356E-14	NaN
472	1.000000	0.322554	7.36967e+06	-53489.1	1005.82	-29746.2	0.000000	0.000000	6.322835	-0.019327	NaN	0.000000	0.001514	0.001676	28.0816	0.089372	0.002014	44.3684	48.9691	-168.995	0.031249	0.321270	-0.832312	-0.833596	-0.019327	44.3684	-0.831985	-1.220930E+11	1.582990E-13	NaN
472	1.000000	0.332587	7.36967e+06	-53489.1	1005.82	-29746.2	0.000000	0.000000	6.332873	0.097463	NaN	0.000000	0.001513	0.001684	28.0816	0.145619	0.001937	75.1691	-96.8211	14.4801	0.026498	0.331292	-0.822279	-0.823574	0.097463	75.1691	-0.823251	-9.296034E+10	-1.048442E-12	NaN
472	1.000000	0.342586	7.36967e+06	-53489.1	1005.82	-29746.2	0.000000	0.000000	6.342866	-0.025204	NaN	0.000000	0.001569	0.001668	28.0817	0.036788	0.001979	18.5907	137.788	-165.991	-0.053812	0.341257	-0.812280	-0.813610	-0.025204	18.5907	-0.811263	-6.393114E+10	3.942384E-13	NaN
472	1.000000	0.352600	7.36967e+06	-53489.1	1005.82	-29746.2	0.000000	0.000000	6.352882	0.016683	NaN	0.000000	0.001553	0.001733	28.0818	0.028022	0.002155	13.0057	-6.482562	9.973212	0.013342	0.351240	-0.802266	-0.803627	0.016683	13.0057	-0.803228	-4.973668E+10	-3.354205E-13	NaN
472	1.000000	0.362593	7.36967e+06	-53489.1	1005.82	-29746.2	0.000000	0.000000	6.362874	-0.001825	NaN	0.000000	0.001550	0.001673	28.0816	0.019286	0.002055	9.385138	14.4869	-164.673	0.074141	0.361273	-0.792273	-0.793593	-0.001825	9.385138	-0.792128	-3.515429E+10	5.191782E-14	NaN
472	1.000000	0.372568	7.36967e+06	-53489.1	1005.82	-29746.2	0.000000	0.000000	6.372850	0.010439	NaN	0.000000	0.001525	0.001678	28.0815	0.135081	0.001959	68.9409	21.5288	13.2916	-0.003335	0.371242	-0.782298	-0.783624	0.010439	68.9409	-0.782412	-2.594201E+10	-4.023906E-13	NaN
472	1.000000	0.382600	7.36967e+06	-53489.1	1005.82	-29746.2	0.000000	0.000000	6.382885	0.081033	NaN	0.000000	0.001621	0.001700	28.0817	0.014460	0.002024	7.143004	28.7379	-167.069	0.029033	0.381318	-0.772266	-0.773548	0.081033	7.143004	-0.780775	-2.464663E+10	-3.287802E-12	NaN
472	1.000000	0.392602	7.36967e+06	-53489.1	1005.82	-29746.2	0.000000	0.000000	6.392881	-0.035975	NaN	0.000000	0.001605	0.001656	28.0819	0.029699	0.001900	15.6319	68.3249	17.2297	-0.020094	0.391266	-0.762265	-0.763600	-0.035975	15.6319	-0.760539	-1.308064E+10	2.750256E-12	NaN
472	1.000000	0.402614	7.36967e+06	-53489.1	1005.82	-29746.2	0.000000	0.000000	6.402896	0.010870	NaN	0.000000	0.001627	0.001679	28.0806	0.075984	0.002018	37.6483	-80.0705	-160.485	0.098713	0.401276	-0.752252	-0.753591	0.010870	37.6483	-0.752469	-1.015839E+10	-1.070078E-12	NaN
472	1.000000	0.412614	7.36967e+06	-53489.1	1005.82	-29746.2	0.000000	0.000000	6.412896	0.029783	NaN	0.000000	0.001645	0.001695	28.0805	0.049447	0.001979	24.9798	141.49	12.9745	0.042086	0.411244	-0.742252	-0.743622	0.029783	24.9798	-0.743146	-7.584177E+9	-3.927036E-12	NaN
472	1.000000	0.422611	7.36967e+06	-53489.1	1005.82	-29746.2	0.000000	0.000000	6.422894	0.034382	NaN	0.000000	0.001625	0.001680	28.0807	0.085692	0.001923	44.5505	73.5288	-169.118	-0.003122	0.421293	-0.732255	-0.733573	0.034382	44.5505	-0.732834	-5.488195E+9	-6.264806E-12	NaN
472	1.000000	0.432605	7.36967e+06	-53489.1	1005.82	-29746.2	0.000000	0.000000	6.432887	0.018587	NaN	0.000000	0.001584	0.001714	28.0804	0.065546	0.002007	32.661	-147.514	15.7131	0.057227	0.431265	-0.722261	-0.723601	0.018587	32.661	-0.722688	-3.991423E+9	-4.656613E-12	NaN
472	1.000000	0.442618	7.36967e+06	-53489.1	1005.82	-29746.2	0.000000	0.000000	6.442896	-0.058514	NaN	0.000000	0.001536	0.001759	28.0805	0.083831	0.002136	39.2516	-74.8404	-168.924	0.002399	0.441333	-0.712249	-0.713533	-0.058514	39.2516	-0.711131	-2.776373E+9	2.107563E-11	NaN
472	1.000000	0.452639	7.36967e+06	-53489.1	1005.82	-29746.2	0.000000	0.000000	6.452919	-0.026308	NaN	0.000000	0.001549	0.001769	28.0805	0.055413	0.002098	26.4136	179.687	16.2046	0.012921	0.451273	-0.702227	-0.703594	-0.026308	26.4136	-0.701480	-2.049937E+9	1.283379E-11	NaN
472	1.000000	0.462647	7.36967e+06	-53489.1	1005.82	-29746.2	0.000000	0.000000	6.462928	-0.013869	NaN	0.000000	0.001602	0.001735	28.0806	0.032271	0.002023	15.9496	-152.689	-168.439	-0.070837	0.461311	-0.692219	-0.693556	-0.013869	15.9496	-0.691567	-1.500843E+9	9.240579E-12	NaN
472	1.000000	0.472619	7.36967e+06	-53489.1	1005.82	-29746.2	0.000000	0.000000	6.472903	0.066225	NaN	0.000000	0.001548	0.001749	28.0803	0.021540	0.001977	10.8971	123.264	13.343	0.087087	0.471256	-0.682247	-0.683610	0.066225	10.8971	-0.686805	-1.291958E+9	-5.125926E-11	NaN
472	1.000000	0.482661	7.36967e+06	-53489.1	1005.82	-29746.2	0.000000	0.000000	6.482941	-0.016917	NaN	0.000000	0.001594	0.001751	28.0803	0.074227	0.001742	42.612	-38.7973	-168.939	0.052887	0.481350	-0.672206	-0.673516	-0.016917	42.612	-0.671908	-8.081663E+8	2.093309E-11	NaN
472	1.000000	0.492683	7.36967e+06	-53489.1	1005.82	-29746.2	0.000000	0.000000	6.492965	0.015779	NaN	0.000000	0.001619	0.001749	28.0804	0.075364	0.002010	37.4885	83.7024	11.9354	-0.033419	0.491287	-0.662183	-0.663579	0.015779	37.4885	-0.662499	-6.007507E+8	-2.626623E-11	NaN
472	1.000000	0.502665	7.36967e+06	-53489.1	1005.82	-29746.2	0.000000	0.000000	6.502945	-0.016989	NaN	0.000000	0.001661	0.001727	28.0805	0.100457	0.001880	53.4217	100.942	-169.733	-0.032174	0.501390	-0.652202	-0.653476	-0.016989	53.4217	-0.651963	-4.308712E+8	3.942874E-11	NaN
472	1.000000	0.512660	7.36967e+06	-53489.1	1005.82	-29746.2	0.000000	0.000000	6.512942	0.012522	NaN	0.000000	0.001643	0.001781	28.0804	0.134884	0.002032	66.3861	175.018	11.3898	0.021950	0.511281	-0.642206	-0.643586	0.012522	66.3861	-0.642347	-3.180486E+8	-3.937208E-11	NaN
472	1.000000	0.522679	7.36967e+06	-53489.1	1005.82	-29746.2	0.000000	0.000000	6.522961	0.007299	NaN	0.000000	0.001623	0.001783	28.0803	0.065841	0.002049	32.1379	171.726	-165.352	0.044424	0.521351	-0.632187	-0.633515	0.007299	32.1379	-0.632358	-2.319509E+8	-3.146763E-11	NaN
472	1.000000	0.532671	7.36967e+06	-53489.1	1005.82	-29746.2	0.000000	0.000000	6.532956	0.079081	NaN	0.000000	0.001670	0.001749	28.0812	0.015807	0.002095	7.543764	-126.748	14.3745	0.082470	0.531328	-0.622195	-0.623539	0.079081	7.543764	-0.630057	-2.156809E+8	-3.666595E-10	NaN
472	1.000000	0.542644	7.36967e+06	-53489.1	1005.82	-29746.2	0.000000	0.000000	6.542929	0.093497	NaN	0.000000	0.001632	0.001736	28.0815	0.063840	0.002090	30.541	-154.627	-169.502	0.015107	0.541376	-0.612222	-0.613490	0.093497	30.541	-0.614518	-1.319050E+8	-7.088212E-10	NaN
472	1.000000	0.552681	7.36967e+06	-53489.1	1005.82	-29746.2	0.000000	0.000000	6.552965	0.047940	NaN	0.000000	0.001623	0.001759	28.0816	0.033661	0.002032	16.5655	51.8934	16.5357	0.061312	0.551295	-0.602185	-0.603571	0.047940	16.5655	-0.604355	-9.559400E+7	-5.014937E-10	NaN
472	1.000000	0.562699	7.36967e+06	-53489.1	1005.82	-29746.2	0.000000	0.000000	6.562984	0.086069	NaN	0.000000	0.001624	0.001779	28.0815	0.099734	0.002048	48.6885	-11.2984	-166.379	0.098146	0.561381	-0.592167	-0.593485	0.086069	48.6885	-0.593493	-6.773423E+7	-1.270680E-9	NaN
472	1.000000	0.572658	7.36967e+06	-53489.1	1005.82	-29746.2	0.000000	0.000000	6.572941	0.035158	NaN	0.000000	0.001679	0.001791	28.0818	0.081089	0.001919	42.2595	57.1542	18.1664	0.022301	0.571390	-0.582208	-0.583476	0.035158	42.2595	-0.582832	-4.828387E+7	-7.281558E-10	NaN
472	1.000000	0.582673	7.36967e+06	-53489.1	1005.82	-29746.2	0.000000	0.000000	6.582953	-0.031278	NaN	0.000000	0.001636	0.001802	28.0815	0.027777	0.001807	15.3756	32.7279	-163.069	0.088321	0.581461	-0.572194	-0.573405	-0.031278	15.3756	-0.570668	-3.279901E+7	9.536156E-10	NaN
472	1.000000	0.592706	7.36967e+06	-53489.1	1005.82	-29746.2	0.000000	0.000000	6.592986	-0.028205	NaN	0.000000	0.001590	0.001792	28.0816	0.078331	0.001950	40.171	-56.8719	13.3507	0.027040	0.591329	-0.562160	-0.563537	-0.028205	40.171	-0.561634	-2.460235E+7	1.146441E-9	NaN
472	1.000000	0.602674	7.36967e+06	-53489.1	1005.82	-29746.2	0.000000	0.000000	6.602959	0.081169	NaN	0.000000	0.001619	0.001746	28.0815	0.128129	0.002005	63.9104	-112.688	-165.415	0.055549	0.601468	-0.552192	-0.553399	0.081169	63.9104	-0.553144	-1.877150E+7	-4.324058E-9	NaN
472	1.000000	0.612687	7.36967e+06	-53489.1	1005.82	-29746.2	0.000000	0.000000	6.612969	0.023092	NaN	0.000000	0.001622	0.001738	28.0818	0.065583	0.001998	32.8268	-133.772	13.9099	0.067161	0.611332	-0.542179	-0.543534	0.023092	32.8268	-0.542707	-1.345512E+7	-1.716213E-9	NaN
472	1.000000	0.622693	7.36967e+06	-53489.1	1005.82	-29746.2	0.000000	0.000000	6.622975	0.019961	NaN	0.000000	0.001610	0.001777	28.0816	0.047283	0.002053	23.0261	-40.4398	-166.704	-0.055277	0.621419	-0.532174	-0.533447	0.019961	23.0261	-0.532824	-9.81258e+06	-2.034184E-9	NaN
472	1.000000	0.632703	7.36967e+06	-53489.1	1005.82	-29746.2	0.000000	0.000000	6.632985	0.027053	NaN	0.000000	0.001637	0.001734	28.0816	0.180176	0.001985	90.7874	102.774	15.4672	0.015624	0.631383	-0.522163	-0.523484	0.027053	90.7874	-0.522387	-7.02731e+06	-3.849744E-9	NaN
472	1.000000	0.642720	7.36967e+06	-53489.1	1005.82	-29746.2	0.000000	0.000000	6.643005	0.090270	NaN	0.000000	0.001653	0.001708	28.0817	0.069092	0.002046	33.7691	120.898	-166.086	0.046441	0.641403	-0.512146	-0.513463	0.090270	33.7691	-0.514151	-5.39778e+06	-1.672356E-8	NaN
472	1.000000	0.652710	7.36967e+06	-53489.1	1005.82	-29746.2	0.000000	0.000000	6.652994	0.049366	NaN	0.000000	0.001641	0.001727	28.0819	0.046155	0.001998	23.0954	-77.3921	14.9275	0.015820	0.651327	-0.502156	-0.503539	0.049366	23.0954	-0.503759	-3.86762e+06	-1.276387E-8	NaN
472	1.000000	0.662713	7.36967e+06	-53489.1	1005.82	-29746.2	0.000000	0.000000	6.662994	0.007107	NaN	0.000000	0.001620	0.001743	28.0816	0.064077	0.001927	33.2449	-32.6292	-161.961	-0.031576	0.661430	-0.492153	-0.493437	0.007107	33.2449	-0.492314	-2.67743e+06	-2.654346E-9	NaN
472	1.000000	0.672731	7.36967e+06	-53489.1	1005.82	-29746.2	0.000000	0.000000	6.673013	0.031762	NaN	0.000000	0.001626	0.001807	28.0808	0.082824	0.002043	40.5356	-18.4866	11.5671	0.027791	0.671356	-0.482135	-0.483510	0.031762	40.5356	-0.482723	-1.96625e+06	-1.615344E-8	NaN
472	1.000000	0.682724	7.36967e+06	-53489.1	1005.82	-29746.2	0.000000	0.000000	6.683006	0.018693	NaN	0.000000	0.001629	0.001780	28.0805	0.121402	0.002009	60.4279	178.218	-166.249	0.036723	0.681322	-0.472142	-0.473544	0.018693	60.4279	-0.472375	-1.40832e+06	-1.327291E-8	NaN
472	1.000000	0.692715	7.36967e+06	-53489.1	1005.82	-29746.2	0.000000	0.000000	6.692998	0.043087	NaN	0.000000	0.001645	0.001793	28.0808	0.060566	0.002039	29.7073	11.5266	14.3196	-0.012490	0.691389	-0.462151	-0.463478	0.043087	29.7073	-0.463239	-1.04839e+06	-4.109817E-8	NaN
472	1.000000	0.702736	7.36967e+06	-53489.1	1005.82	-29746.2	0.000000	0.000000	6.703016	-0.020778	NaN	0.000000	0.001560	0.001739	28.0802	0.024274	0.001880	12.9103	-20.4879	-165.406	-0.031986	0.701454	-0.452130	-0.453412	-0.020778	12.9103	-0.450923	-703626	2.953013E-8	NaN
472	1.000000	0.712723	7.36967e+06	-53489.1	1005.82	-29746.2	0.000000	0.000000	6.713004	0.012208	NaN	0.000000	0.001592	0.001770	28.0805	0.015503	0.001947	7.960679	138.148	12.3294	-0.045864	0.711345	-0.442144	-0.443521	0.012208	7.960679	-0.443294	-549331	-2.222292E-8	NaN
472	1.000000	0.722741	7.36968e+06	-53489.1	1005.82	-29746.2	0.000000	0.000000	6.723024	0.054721	NaN	0.000000	0.001562	0.001727	28.0804	0.027344	0.002068	13.2194	28.43	-164.759	0.016252	0.721359	-0.432125	-0.433507	0.054721	13.2194	-0.435230	-422672	-1.294634E-7	NaN
472	1.000000	0.732739	7.36968e+06	-53489.1	1005.82	-29746.2	0.000000	0.000000	6.733020	0.000370	NaN	0.000000	0.001537	0.001739	28.0804	0.030795	0.002019	15.256	-21.3308	10.8553	-0.049826	0.731393	-0.422127	-0.423473	0.000370	15.256	-0.422145	-275951	-1.342461E-9	NaN
472	1.000000	0.742738	7.36968e+06	-53489.1	1005.82	-29746.2	0.000000	0.000000	6.743018	-0.033300	NaN	0.000000	0.001609	0.001751	28.0805	0.116287	0.001931	60.2237	-11.7767	-165.915	-0.062749	0.741445	-0.412128	-0.413421	-0.033300	60.2237	-0.411713	-196228	1.696989E-7	NaN
472	1.000000	0.752777	7.36968e+06	-53489.1	1005.82	-29746.2	0.000000	0.000000	6.753057	-0.025825	NaN	0.000000	0.001601	0.001724	28.0809	0.150523	0.001925	78.2074	-3.841665	13.4096	-0.008398	0.751391	-0.402089	-0.403475	-0.025825	78.2074	-0.401842	-141988	1.818839E-7	NaN
472	1.000000	0.762744	7.36968e+06	-53489.1	1005.82	-29746.2	0.000000	0.000000	6.763025	-0.006385	NaN	0.000000	0.001628	0.001740	28.0805	0.042567	0.002044	20.8275	148.071	-167.666	-0.041863	0.761476	-0.392122	-0.393390	-0.006385	20.8275	-0.391892	-102382	6.236287E-8	NaN
472	1.000000	0.772799	7.36968e+06	-53489.1	1005.82	-29746.2	0.000000	0.000000	6.773082	0.034808	NaN	0.000000	0.001607	0.001729	28.0807	0.106120	0.001877	56.5335	-11.9861	13.3297	0.005519	0.771429	-0.382067	-0.383438	0.034808	56.5335	-0.382529	-75191.8	-4.629249E-7	NaN
472	1.000000	0.782755	7.36968e+06	-53489.1	1005.82	-29746.2	0.000000	0.000000	6.783034	-0.047694	NaN	0.000000	0.001631	0.001721	28.0805	0.030124	0.002033	14.8162	25.1063	-165.617	-0.112436	0.781457	-0.372112	-0.373409	-0.047694	14.8162	-0.369697	-49177.5	9.698396E-7	NaN
472	1.000000	0.792790	7.36968e+06	-53489.1	1005.82	-29746.2	0.000000	0.000000	6.793073	0.038690	NaN	0.000000	0.001671	0.001765	28.0808	0.025407	0.001986	12.7905	-128.081	13.3508	0.053562	0.791482	-0.362076	-0.363384	0.038690	12.7905	-0.364345	-41171.8	-9.397105E-7	NaN
472	1.000000	0.802813	7.36968e+06	-53489.1	1005.82	-29746.2	0.000000	0.000000	6.803095	0.003331	NaN	0.000000	0.001674	0.001761	28.0806	0.052492	0.001848	28.3979	46.9802	-166.661	-0.014228	0.801506	-0.352053	-0.353360	0.003331	28.3979	-0.352141	-27419.5	-1.214765E-7	NaN
472	1.000000	0.812796	7.36968e+06	-53489.1	1005.82	-29746.2	0.000000	0.000000	6.813078	0.008680	NaN	0.000000	0.001644	0.001732	28.0818	0.008025	0.002010	3.991912	73.6921	13.0424	0.041367	0.811379	-0.342070	-0.343487	0.008680	3.991912	-0.343701	-20675.3	-4.198220E-7	NaN
472	1.000000	0.822798	7.36968e+06	-53489.1	1005.82	-29746.2	0.000000	0.000000	6.823082	0.047254	NaN	0.000000	0.001654	0.001744	28.0819	0.029771	0.002006	14.8398	115.297	-168.767	-0.049253	0.821459	-0.332068	-0.333407	0.047254	14.8398	-0.334456	-15157.9	-3.117436E-6	NaN
472	1.000000	0.832803	7.36968e+06	-53489.1	1005.82	-29746.2	0.000000	0.000000	6.833087	0.066480	NaN	0.000000	0.001629	0.001722	28.0819	0.072752	0.002015	36.0965	160.834	13.4875	0.084934	0.831455	-0.322063	-0.323411	0.066480	36.0965	-0.323445	-10454.3	-6.359110E-6	NaN
472	1.000000	0.842812	7.36968e+06	-53489.1	1005.82	-29746.2	0.000000	0.000000	6.843094	0.012284	NaN	0.000000	0.001635	0.001732	28.0816	0.031902	0.002122	15.0335	146.087	-167.069	0.024261	0.841550	-0.312054	-0.313316	0.012284	15.0335	-0.312667	-7252.55	-1.693750E-6	NaN
472	1.000000	0.852797	7.36968e+06	-53489.1	1005.82	-29746.2	0.000000	0.000000	6.853080	0.022665	NaN	0.000000	0.001646	0.001691	28.0817	0.045559	0.001900	23.9825	-25.047	16.9753	0.010516	0.851410	-0.302069	-0.303456	0.022665	23.9825	-0.302778	-5175.47	-4.379321E-6	NaN
472	1.000000	0.862830	7.36968e+06	-53489.1	1005.82	-29746.2	0.000000	0.000000	6.863111	0.002669	NaN	0.000000	0.001640	0.001709	28.0818	0.067856	0.002036	33.3336	170.474	-166.367	-0.057768	0.861536	-0.292037	-0.293330	0.002669	33.3336	-0.292097	-3586.68	-7.440605E-7	NaN
472	1.000000	0.872840	7.36968e+06	-53489.1	1005.82	-29746.2	0.000000	0.000000	6.873121	-0.008848	NaN	0.000000	0.001635	0.001725	28.0819	0.050333	0.001975	25.4815	68.7586	13.6214	0.007710	0.871438	-0.282026	-0.283428	-0.008848	25.4815	-0.281765	-2509.49	3.525617E-6	NaN
472	1.000000	0.882788	7.36968e+06	-53489.1	1005.82	-29746.2	0.000000	0.000000	6.883070	-0.000548	NaN	0.000000	0.001656	0.001759	28.0819	0.061684	0.001906	32.3666	77.5921	-165.892	0.039657	0.881521	-0.272078	-0.273346	-0.000548	32.3666	-0.272065	-1790.24	3.059656E-7	NaN
472	1.000000	0.892825	7.36968e+06	-53489.1	1005.82	-29746.2	0.000000	0.000000	6.893105	-0.033121	NaN	0.000000	0.001635	0.001756	28.082	0.103208	0.002088	49.4328	152.078	14.4271	0.041163	0.891446	-0.262041	-0.263420	-0.033121	49.4328	-0.261538	-1237.31	2.676849E-5	NaN
472	1.000000	0.902828	7.36968e+06	-53489.1	1005.82	-29746.2	0.000000	0.000000	6.903108	-0.042104	NaN	0.000000	0.001674	0.001713	28.0819	0.094313	0.001975	47.752	155.632	-166.546	-0.048435	0.901478	-0.252038	-0.253388	-0.042104	47.752	-0.251377	-863.469	4.876197E-5	NaN
472	1.000000	0.912847	7.36968e+06	-53489.1	1005.82	-29746.2	0.000000	0.000000	6.913130	0.049204	NaN	0.000000	0.001660	0.001747	28.082	0.101357	0.002058	49.2583	174.708	12.6819	0.010907	0.911420	-0.242020	-0.243447	0.049204	49.2583	-0.242769	-634.947	-7.749369E-5	NaN
472	1.000000	0.922837	7.36968e+06	-53489.1	1005.82	-29746.2	0.000000	0.000000	6.923120	0.032665	NaN	0.000000	0.001637	0.001772	28.0821	0.029996	0.002113	14.1969	-151.364	-163.809	0.023940	0.921535	-0.232029	-0.233331	0.032665	14.1969	-0.233755	-458.859	-7.118687E-5	NaN
472	1.000000	0.932865	7.36968e+06	-53489.1	1005.82	-29746.2	0.000000	0.000000	6.933148	0.037248	NaN	0.000000	0.001624	0.001713	28.0818	0.060297	0.002020	29.8463	7.473892	11.8794	0.018146	0.931527	-0.222001	-0.223339	0.037248	29.8463	-0.222937	-309.409	-0.000120	NaN
472	1.000000	0.942815	7.36968e+06	-53489.1	1005.82	-29746.2	0.000000	0.000000	6.943097	0.005867	NaN	0.000000	0.001659	0.001745	28.0814	0.032678	0.002062	15.8499	92.3815	-167.392	0.102448	0.941569	-0.212051	-0.213297	0.005867	15.8499	-0.212329	-209.157	-2.805307E-5	NaN
472	1.000000	0.952842	7.36968e+06	-53489.1	1005.82	-29746.2	0.000000	0.000000	6.953124	0.004828	NaN	0.000000	0.001618	0.001722	28.0805	0.031260	0.002088	14.9731	-113.746	13.9701	-0.033105	0.951449	-0.202024	-0.203417	0.004828	14.9731	-0.202266	-143.506	-3.364035E-5	NaN
472	1.000000	0.962838	7.36968e+06	-53489.1	1005.82	-29746.2	0.000000	0.000000	6.963120	0.035430	NaN	0.000000	0.001585	0.001727	28.0809	0.089937	0.001989	45.2261	161.046	-161.187	0.063179	0.961479	-0.192029	-0.193387	0.035430	45.2261	-0.192616	-99.4572	-0.000356	NaN
472	1.000000	0.972845	7.36968e+06	-53489.1	1005.82	-29746.2	0.000000	0.000000	6.973127	0.008866	NaN	0.000000	0.001554	0.001752	28.0804	0.145044	0.001944	74.6244	60.0998	13.5041	0.066817	0.971435	-0.182021	-0.183431	0.008866	74.6244	-0.182110	-66.2671	-0.000134	NaN
472	1.000000	0.982857	7.36968e+06	-53489.1	1005.82	-29746.2	0.000000	0.000000	6.983139	0.021121	NaN	0.000000	0.001590	0.001781	28.0804	0.020191	0.002103	9.601246	-173.257	-162.948	0.018246	0.981565	-0.172009	-0.173301	0.021121	9.601246	-0.173659	-47.5229	-0.000444	NaN
472	1.000000	0.992878	7.36968e+06	-53489.1	1005.82	-29746.2	0.000000	0.000000	6.993162	0.070467	NaN	0.000000	0.001587	0.001746	28.0801	0.073022	0.001984	36.8079	-150.806	13.6462	0.091108	0.991540	-0.161989	-0.163327	0.070467	36.8079	-0.163424	-31.5202	-0.002236	NaN
472	1.000000	1.002835	7.36968e+06	-53489.1	1005.82	-29746.2	0.000000	0.000000	7.003116	-0.022524	NaN	0.000000	0.001606	0.001735	28.0806	0.119198	0.002007	59.3819	-97.5597	-167.797	-0.024666	1.001531	-0.152031	-0.153336	-0.022524	59.3819	-0.151746	-19.4885	0.001156	NaN
472	1.000000	1.012866	7.36968e+06	-53489.1	1005.82	-29746.2	0.000000	0.000000	7.013148	0.024893	NaN	0.000000	0.001595	0.001710	28.0803	0.038802	0.002069	18.755	167.395	14.3759	-0.017143	1.011524	-0.142001	-0.143342	0.024893	18.755	-0.142996	-13.4581	-0.001850	NaN
472	1.000000	1.022851	7.36968e+06	-53489.1	1005.82	-29746.2	0.000000	0.000000	7.023135	0.086647	NaN	0.000000	0.001567	0.001752	28.0803	0.023056	0.001994	11.5613	22.062	-167.507	0.097772	1.021548	-0.132016	-0.133319	0.086647	11.5613	-0.137637	-10.6759	-0.008116	NaN
472	1.000000	1.032879	7.36968e+06	-53489.1	1005.82	-29746.2	0.000000	0.000000	7.033161	0.026707	NaN	0.000000	0.001565	0.001810	28.0802	0.074178	0.002047	36.2422	-149.517	11.5737	0.033259	1.031516	-0.121987	-0.123350	0.026707	36.2422	-0.122540	-5.433569	-0.004915	NaN
472	1.000000	1.042888	7.36968e+06	-53489.1	1005.82	-29746.2	0.000000	0.000000	7.043167	-0.051316	NaN	0.000000	0.001509	0.001757	28.0804	0.104538	0.002010	52.0144	119.496	-166.92	-0.129606	1.041544	-0.111978	-0.113322	-0.051316	52.0144	-0.111239	-3.190898	0.016082	NaN
472	1.000000	1.052884	7.36968e+06	-53489.1	1005.82	-29746.2	0.000000	0.000000	7.053166	0.032171	NaN	0.000000	0.001539	0.001758	28.0802	0.087639	0.001948	44.9961	-62.0985	14.5186	-0.035172	1.051506	-0.101983	-0.103360	0.032171	44.9961	-0.102519	-2.076059	-0.015496	NaN
472	1.000000	1.062899	7.36968e+06	-53489.1	1005.82	-29746.2	0.000000	0.000000	7.063180	0.004673	NaN	0.000000	0.001531	0.001753	28.0802	0.063361	0.001994	31.7804	-4.372017	-162.125	0.019309	1.061567	-0.091967	-0.093299	0.004673	31.7804	-0.092078	-1.208553	-0.003867	NaN
472	1.000000	1.072888	7.36968e+06	-53489.1	1005.82	-29746.2	0.000000	0.000000	7.073171	0.048091	NaN	0.000000	0.001561	0.001774	28.0803	0.008218	0.002023	4.062886	-132.958	15.2099	0.091460	1.071493	-0.081978	-0.083373	0.048091	4.062886	-0.090856	-1.131979	-0.042484	NaN
472	1.000000	1.082904	7.36968e+06	-53489.1	1005.82	-29746.2	0.000000	0.000000	7.083185	0.000802	NaN	0.000000	0.001556	0.001719	28.0816	0.064912	0.001861	34.8778	-56.3446	-164.626	0.012354	1.081585	-0.071962	-0.073281	0.000802	34.8778	-0.071980	-0.385087	-0.002082	NaN
472	1.000000	1.092918	7.36968e+06	-53489.1	1005.82	-29746.2	0.000000	0.000000	7.093203	0.083167	NaN	0.000000	0.001509	0.001782	28.0814	0.043239	0.001923	22.486	91.5567	16.5366	0.120215	1.091572	-0.061948	-0.063294	0.083167	22.486	-0.064722	-0.244829	-0.339695	NaN
472	1.000000	1.102891	7.36968e+06	-53489.1	1005.82	-29746.2	0.000000	0.000000	7.103170	-0.043517	NaN	0.000000	0.001524	0.001760	28.0814	0.065812	0.002016	32.6491	-37.2826	-167.031	0.006491	1.101581	-0.051976	-0.053285	-0.043517	32.6491	-0.050976	-0.097655	0.445616	NaN
472	1.000000	1.112916	7.36968e+06	-53489.1	1005.82	-29746.2	0.000000	0.000000	7.113200	0.064168	NaN	0.000000	0.001527	0.001761	28.0817	0.045355	0.002029	22.3527	-163.962	12.8167	0.007083	1.111546	-0.041950	-0.043320	0.064168	22.3527	-0.044103	-0.060334	-1.063538	NaN
472	1.000000	1.122889	7.36968e+06	-53489.1	1005.82	-29746.2	0.000000	0.000000	7.123172	0.039902	NaN	0.000000	0.001488	0.001757	28.0816	0.062820	0.001962	32.0219	176.732	-167.136	-0.024354	1.121622	-0.031978	-0.033245	0.039902	32.0219	-0.032912	-0.027835	-1.433509	NaN
472	1.000000	1.132924	7.36968e+06	-53489.1	1005.82	-29746.2	0.000000	0.000000	7.133204	-0.021102	NaN	0.000000	0.001506	0.001738	28.0817	0.118850	0.001915	62.0787	46.923	15.2997	0.005289	1.131541	-0.021943	-0.023325	-0.021102	62.0787	-0.021688	-0.013865	1.522003	NaN
472	1.000000	1.142906	7.36968e+06	-53489.1	1005.82	-29746.2	0.000000	0.000000	7.143188	0.024752	NaN	0.000000	0.001537	0.001753	28.0816	0.011367	0.002031	5.595800	-2.515373	-166.362	-0.001510	1.141653	-0.011961	-0.013213	0.024752	5.595800	-0.015278	-0.009443	-2.621290	NaN
472	1.000000	1.152890	7.36968e+06	-53489.1	1005.82	-29746.2	0.000000	0.000000	7.153251	1.942277	NaN	0.000000	0.001508	0.001713	28.0817	2.802955	0.001939	1445.44	9.872895	12.6479	0.633028	1.151575	-0.001976	-0.003291	1.942277	1445.44	-0.002984	-0.002110	-920.695	NaN
472	2.000000	1.159575	7.36968e+06	-53489.1	1005.82	-29746.2	0.000000	0.000000	7.160237	9.256086	NaN	0.000000	0.001532	0.001738	28.0816	9.532757	0.001609	5925.49	4.211830	-171.042	9.275890	1.159240	0.004708	0.004374	9.256086	5925.49	0.003537	0.002837	3262.88	101645
472	2.000000	1.162051	7.36968e+06	-53489.1	1005.82	-29746.2	0.000000	0.000000	7.162949	15.0073	NaN	0.000000	0.001504	0.001703	28.0817	12.4375	0.001748	7114.1	6.863594	7.241147	13.363	1.161712	0.007184	0.006845	15.0073	7114.1	0.005602	0.004690	3200.04	94911.6
472	2.000000	1.164466	7.36968e+06	-53489.1	1005.82	-29746.2	0.000000	0.000000	7.165526	18.9368	NaN	0.000000	0.001482	0.001713	28.0819	15.1641	0.001630	9303.01	8.522821	-179.76	18.3314	1.164148	0.009600	0.009281	18.9368	9303.01	0.008073	0.007118	2660.54	100746
472	2.000000	1.167045	7.36968e+06	-53489.1	1005.82	-29746.2	0.000000	0.000000	7.168288	23.3803	NaN	0.000000	0.001520	0.001739	28.0823	18.2806	0.001927	9486.58	7.768543	3.685432	23.8355	1.166707	0.012179	0.011841	23.3803	9486.58	0.010330	0.009551	2448.02	88688.1
472	2.000000	1.169507	7.36968e+06	-53489.1	1005.82	-29746.2	0.000000	0.000000	7.170818	25.0523	NaN	0.000000	0.001511	0.001716	28.0815	20.5102	0.001833	11189	8.761092	-179.694	24.7538	1.169210	0.014641	0.014344	25.0523	11189	0.012961	0.012662	1978.53	90847.6
472	2.000000	1.172000	7.36968e+06	-53489.1	1005.82	-29746.2	0.000000	0.000000	7.173508	29.8198	NaN	0.000000	0.001587	0.001740	28.0823	22.9462	0.001837	12494.2	9.305330	-1.138811	29.4684	1.171641	0.017134	0.016774	29.8198	12494.2	0.015344	0.015747	1893.73	90967.8
472	2.000000	1.174535	7.36968e+06	-53489.1	1005.82	-29746.2	0.000000	0.000000	7.176229	34.3453	NaN	0.000000	0.001579	0.001744	28.0805	24.7846	0.001788	13862.6	9.336208	179.021	36.2342	1.174210	0.019669	0.019344	34.3453	13862.6	0.017811	0.019218	1787.14	91361.8
472	2.000000	1.176988	7.36968e+06	-53489.1	1005.82	-29746.2	0.000000	0.000000	7.179079	43.9837	NaN	0.000000	0.001560	0.001717	28.0816	27.1723	0.001639	16582.4	1.908370	2.303913	42.4175	1.176634	0.022122	0.021767	43.9837	16582.4	0.020133	0.022751	1933.25	100443
472	2.000000	1.179445	7.36968e+06	-53489.1	1005.82	-29746.2	0.000000	0.000000	7.181964	54.4068	NaN	0.000000	0.001621	0.001718	28.0804	31.1879	0.001850	16857.9	7.492444	177.798	52.6257	1.179132	0.024578	0.024266	54.4068	16857.9	0.022158	0.026047	2088.79	95432.8
472	2.000000	1.181963	7.36968e+06	-53489.1	1005.82	-29746.2	0.000000	0.000000	7.184747	60.8425	NaN	0.000000	0.001558	0.001733	28.0819	32.3839	0.001895	17088.1	3.368488	3.073687	58.2379	1.181586	0.027097	0.026720	60.8425	17088.1	0.024427	0.029981	2029.36	90166
472	2.000000	1.184474	7.36968e+06	-53489.1	1005.82	-29746.2	0.000000	0.000000	7.187437	65.2095	NaN	0.000000	0.001560	0.001742	28.0805	34.5717	0.001837	18823.1	3.762445	-178.883	63.5927	1.184169	0.029607	0.029303	65.2095	18823.1	0.027009	0.034772	1875.33	92224.8
472	2.000000	1.186923	7.36968e+06	-53489.1	1005.82	-29746.2	0.000000	0.000000	7.190390	77.454	NaN	0.000000	0.001558	0.001716	28.0806	36.5849	0.001773	20635.2	0.449901	3.460477	73.4458	1.186493	0.032057	0.031627	77.454	20635.2	0.029242	0.039187	1976.52	95237.9
472	2.000000	1.189388	7.36968e+06	-53489.1	1005.82	-29746.2	0.000000	0.000000	7.193040	81.9483	NaN	0.000000	0.001560	0.001719	28.0802	40.1461	0.001721	23330.5	4.771202	177.131	78.9206	1.189173	0.034522	0.034306	81.9483	23330.5	0.031887	0.044746	1831.39	100767
472	2.000000	1.191977	7.36968e+06	-53489.1	1005.82	-29746.2	0.000000	0.000000	7.196277	97.707	NaN	0.000000	0.001550	0.001734	28.0817	41.9676	0.001768	23734.4	6.851114	-2.889749	96.4297	1.191546	0.037111	0.036679	97.707	23734.4	0.034023	0.049496	1974.03	97468.8
472	2.000000	1.194504	7.36968e+06	-53489.1	1005.82	-29746.2	0.000000	0.000000	7.199047	103.611	NaN	0.000000	0.001584	0.001707	28.0803	45.4431	0.001802	25214.4	8.703042	173.928	107.438	1.194142	0.039638	0.039276	103.611	25214.4	0.036556	0.055430	1869.22	97847
472	2.000000	1.196908	7.36968e+06	-53489.1	1005.82	-29746.2	0.000000	0.000000	7.201855	113.445	NaN	0.000000	0.001554	0.001744	28.0805	47.8302	0.001887	25350.9	2.559767	-0.982823	110.764	1.196701	0.042042	0.041835	113.445	25350.9	0.038685	0.060675	1869.71	94028.8
472	2.000000	1.199448	7.36968e+06	-53489.1	1005.82	-29746.2	0.000000	0.000000	7.204996	128.036	NaN	0.000000	0.001562	0.001717	28.0804	50.443	0.001804	27961	6.546613	174.747	130.042	1.199187	0.044582	0.044321	128.036	27961	0.041148	0.067028	1910.19	98673.2
472	2.000000	1.201992	7.36968e+06	-53489.1	1005.82	-29746.2	0.000000	0.000000	7.208151	142.905	NaN	0.000000	0.001569	0.001766	28.0814	51.7177	0.001739	29746	6.350737	-4.659378	142.951	1.201461	0.047126	0.046595	142.905	29746	0.043522	0.073448	1945.66	100279
472	2.000000	1.204421	7.36968e+06	-53489.1	1005.82	-29746.2	0.000000	0.000000	7.210814	148.592	NaN	0.000000	0.001557	0.001746	28.0806	54.0931	0.001739	31099.4	7.176387	172.994	147.161	1.204118	0.049555	0.049252	148.592	31099.4	0.045972	0.080370	1848.86	100226
472	2.000000	1.206883	7.36968e+06	-53489.1	1005.82	-29746.2	0.000000	0.000000	7.213946	164.877	NaN	0.000000	0.001560	0.001722	28.0811	56.4441	0.001707	33072.2	5.763042	-6.067837	160.55	1.206462	0.052017	0.051596	164.877	33072.2	0.048278	0.087163	1891.58	102345
472	2.000000	1.209424	7.36968e+06	-53489.1	1005.82	-29746.2	0.000000	0.000000	7.216975	176.736	NaN	0.000000	0.001546	0.001739	28.0817	59.8576	0.001877	31894.4	5.448203	175.43	175.828	1.209083	0.054558	0.054216	176.736	31894.4	0.050402	0.093660	1886.99	95216.2
472	2.000000	1.211865	7.36968e+06	-53489.1	1005.82	-29746.2	0.000000	0.000000	7.220075	192.774	NaN	0.000000	0.001566	0.001798	28.082	61.9212	0.001677	36932.6	6.854693	-7.641115	186.144	1.211447	0.056999	0.056581	192.774	36932.6	0.053084	0.102183	1886.55	105559
472	2.000000	1.214472	7.36968e+06	-53489.1	1005.82	-29746.2	0.000000	0.000000	7.222670	192.476	NaN	0.000000	0.001532	0.001766	28.0817	63.9687	0.001707	37475.8	4.262720	173.675	192.097	1.214319	0.059605	0.059452	192.476	37475.8	0.055753	0.111023	1733.66	102759
472	2.000000	1.216935	7.36968e+06	-53489.1	1005.82	-29746.2	0.000000	0.000000	7.226285	220.489	NaN	0.000000	0.001584	0.001766	28.0818	66.5771	0.001575	42260.4	4.690900	-6.489231	220.473	1.216397	0.062069	0.061530	220.489	42260.4	0.058156	0.119279	1848.51	111796
472	2.000000	1.219462	7.36968e+06	-53489.1	1005.82	-29746.2	0.000000	0.000000	7.229314	232.674	NaN	0.000000	0.001607	0.001757	28.0818	70.6468	0.001821	38800.3	3.929471	175.547	235.188	1.219048	0.064596	0.064182	232.674	38800.3	0.060098	0.126161	1844.26	99803.4
472	2.000000	1.221917	7.36968e+06	-53489.1	1005.82	-29746.2	0.000000	0.000000	7.232383	247.609	NaN	0.000000	0.001569	0.001774	28.082	72.1792	0.001751	41221.2	5.308432	-6.091953	245.138	1.221450	0.067051	0.066584	247.609	41221.2	0.062546	0.135096	1832.84	102465
472	2.000000	1.224307	7.36968e+06	-53489.1	1005.82	-29746.2	0.000000	0.000000	7.235351	261.676	NaN	0.000000	0.001597	0.001777	28.0816	73.9155	0.001887	39167.5	3.387340	175.27	255.849	1.224041	0.069441	0.069175	261.676	39167.5	0.064430	0.142172	1840.56	94905.8
472	2.000000	1.226891	7.36968e+06	-53489.1	1005.82	-29746.2	0.000000	0.000000	7.238507	275.591	NaN	0.000000	0.001522	0.001808	28.0819	77.6945	0.001765	44007.1	4.701259	-7.211365	273.325	1.226568	0.072025	0.071702	275.591	44007.1	0.067328	0.153387	1796.7	102660
472	2.000000	1.229314	7.36968e+06	-53489.1	1005.82	-29746.2	0.000000	0.000000	7.241604	291.97	NaN	0.000000	0.001630	0.001819	28.0821	79.7254	0.001844	43231.5	3.355322	174.411	288.457	1.229097	0.074448	0.074231	291.97	43231.5	0.069382	0.161584	1806.92	98259.5
472	2.000000	1.231895	7.36968e+06	-53489.1	1005.82	-29746.2	0.000000	0.000000	7.244899	309.326	NaN	0.000000	0.001584	0.001755	28.082	81.7625	0.001748	46777.5	4.125763	-6.275556	306.919	1.231463	0.077029	0.076597	309.326	46777.5	0.072069	0.172607	1792.08	102868
472	2.000000	1.234348	7.36968e+06	-53489.1	1005.82	-29746.2	0.000000	0.000000	7.248233	330.75	NaN	0.000000	0.001616	0.001745	28.0818	83.0414	0.001750	47462.3	3.574991	174.371	326.362	1.233969	0.079482	0.079102	330.75	47462.3	0.074255	0.181828	1819.03	101693
472	2.000000	1.236911	7.36968e+06	-53489.1	1005.82	-29746.2	0.000000	0.000000	7.251376	344.859	NaN	0.000000	0.001602	0.001747	28.082	86.5032	0.001933	44750.4	3.975748	-6.087011	341.996	1.236527	0.082044	0.081661	344.859	44750.4	0.076265	0.190502	1810.27	93674.4
472	2.000000	1.239561	7.36968e+06	-53489.1	1005.82	-29746.2	0.000000	0.000000	7.254311	351.753	NaN	0.000000	0.001553	0.001743	28.0818	89.1385	0.001778	50128.7	7.659096	169.526	359.874	1.239129	0.084695	0.084263	351.753	50128.7	0.079432	0.204560	1719.56	101263
472	2.000000	1.241830	7.36968e+06	-53489.1	1005.82	-29746.2	0.000000	0.000000	7.257684	378.599	NaN	0.000000	0.001555	0.001719	28.0804	89.7594	0.001723	52083.4	7.537456	-10.3827	371.614	1.241485	0.086964	0.086619	378.599	52083.4	0.081512	0.214045	1768.78	102854
472	2.000000	1.244451	7.36968e+06	-53489.1	1005.82	-29746.2	0.000000	0.000000	7.261247	401.517	NaN	0.000000	0.001561	0.001734	28.0806	92.1427	0.001830	50341.9	7.708776	170.531	403.617	1.244020	0.089585	0.089154	401.517	50341.9	0.083603	0.223781	1794.24	97227.9
472	2.000000	1.246875	7.36968e+06	-53489.1	1005.82	-29746.2	0.000000	0.000000	7.264261	415.859	NaN	0.000000	0.001549	0.001746	28.081	95.7216	0.001793	53374.4	8.285183	-11.8165	413.038	1.246569	0.092009	0.091703	415.859	53374.4	0.086165	0.235993	1762.17	100382
472	2.000000	1.249407	7.36968e+06	-53489.1	1005.82	-29746.2	0.000000	0.000000	7.267593	435.322	NaN	0.000000	0.001513	0.001733	28.0805	98.0464	0.001851	52976.3	4.420106	172.636	435.607	1.249144	0.094540	0.094278	435.322	52976.3	0.088377	0.246776	1764.03	97432.2
472	2.000000	1.251841	7.36968e+06	-53489.1	1005.82	-29746.2	0.000000	0.000000	7.271216	464.218	NaN	0.000000	0.001522	0.001754	28.0805	99.1794	0.001786	55543.3	6.910725	-10.37	458.97	1.251485	0.096974	0.096619	464.218	55543.3	0.090706	0.258371	1796.71	99834.9
472	2.000000	1.254411	7.36968e+06	-53489.1	1005.82	-29746.2	0.000000	0.000000	7.274480	481.097	NaN	0.000000	0.001515	0.001728	28.0808	101.238	0.001815	55791.7	7.243694	169.988	482.135	1.254008	0.099545	0.099141	481.097	55791.7	0.093077	0.270434	1778.98	98019.5
472	2.000000	1.256939	7.36968e+06	-53489.1	1005.82	-29746.2	0.000000	0.000000	7.277554	494.366	NaN	0.000000	0.001541	0.001695	28.0807	103.288	0.001776	58145.1	3.992648	-7.070307	496.701	1.256631	0.102073	0.101765	494.366	58145.1	0.095696	0.284054	1740.39	99674.9