File: remote_trans/data/nanoindenter/0828-1/data/Data_2025-08-06,11h17m57s/2025-07-22_16-23-58_1_268.txt
2025-07-22, 16:23:58, 1
Index	Phase	Displacement	Time	Pos X	Pos Y	Pos Z	Rot A	Rot B	Piezo Z	Force A	Force B	Gripper	Voltage A	Voltage B	Temperature	Amplitude force	Amplitude pos	Stiffness	Phase shift	Phase excitation	Force A raw	Displacement raw	HMax	HMax raw	Real Force	Real Stiffness	Contact Depth	Area	Hardness	Reduced Mod.
[#]	[#]	[um]	[s]	[um]	[um]	[um]	[m°]	[m°]	[um]	[uN]	[uN]	[V]	[V]	[V]	[°C]	[uN]	[um]	[N/m]	[°]	[°]	[uN]	[um]	[um]	[um]	[uN]	[N/m]	[um]	[um^2]	[MPa]	[MPa]
268	1.000000	0.002808	7.36767e+06	-52039.1	955.819	-29750.8	0.000000	0.000000	6.002776	-0.019671	NaN	0.000000	0.001615	0.001685	28.0795	0.050952	0.000961	53.0115	147.32	-163.015	-0.095403	0.001542	-0.989908	-0.991175	-0.019671	53.0115	-0.989630	-1.644867E+13	1.195923E-15	NaN
268	1.000000	0.010797	7.36767e+06	-52039.1	955.819	-29750.8	0.000000	0.000000	6.010767	0.008082	NaN	0.000000	0.001590	0.001727	28.0794	0.050144	0.001022	49.0625	-96.4805	-170.689	-0.028948	0.009426	-0.981919	-0.983290	0.008082	49.0625	-0.982042	-1.299942E+13	-6.216901E-16	NaN
268	1.000000	0.018816	7.36767e+06	-52039.1	955.819	-29750.8	0.000000	0.000000	6.018783	-0.037185	NaN	0.000000	0.001613	0.001699	28.079	0.032688	0.001652	19.7924	143.936	-165.754	-0.086217	0.017456	-0.973901	-0.975260	-0.037185	19.7924	-0.972491	-9.665837E+12	3.847039E-15	NaN
268	1.000000	0.026821	7.36767e+06	-52039.1	955.818	-29750.8	0.000000	0.000000	6.026785	-0.098715	NaN	0.000000	0.001596	0.001710	28.0794	0.015304	0.001830	8.362156	52.1806	-166.625	-0.029860	0.025473	-0.965896	-0.967243	-0.098715	8.362156	-0.957042	-5.983937E+12	1.649667E-14	NaN
268	1.000000	0.034782	7.36767e+06	-52039.1	955.818	-29750.8	0.000000	0.000000	6.034754	0.061367	NaN	0.000000	0.001608	0.001689	28.0779	0.026556	0.001951	13.6121	9.591243	-167.361	0.101405	0.033469	-0.957934	-0.959247	0.061367	13.6121	-0.961315	-6.832851E+12	-8.981193E-15	NaN
268	1.000000	0.042787	7.36767e+06	-52039.1	955.819	-29750.8	0.000000	0.000000	6.042756	0.001758	NaN	0.000000	0.001653	0.001678	28.078	0.037660	0.001926	19.551	156.876	-169.427	-0.017060	0.041461	-0.949929	-0.951255	0.001758	19.551	-0.949996	-4.808174E+12	-3.656667E-16	NaN
268	1.000000	0.050779	7.36767e+06	-52039.1	955.818	-29750.8	0.000000	0.000000	6.050747	-0.010338	NaN	0.000000	0.001597	0.001719	28.0779	0.130195	0.001996	65.2369	-8.989289	-167.251	0.063296	0.049468	-0.941937	-0.943248	-0.010338	65.2369	-0.941819	-3.729684E+12	2.771773E-15	NaN
268	1.000000	0.058770	7.36767e+06	-52039.1	955.818	-29750.8	0.000000	0.000000	6.058740	0.018822	NaN	0.000000	0.001586	0.001714	28.0783	0.077073	0.001983	38.8623	-177.248	-164.364	0.059539	0.057501	-0.933946	-0.935215	0.018822	38.8623	-0.934309	-2.953603E+12	-6.372392E-15	NaN
268	1.000000	0.066788	7.36767e+06	-52039.1	955.819	-29750.8	0.000000	0.000000	6.066755	-0.035290	NaN	0.000000	0.001568	0.001726	28.0783	0.049838	0.002051	24.3051	96.2192	-165.237	-0.046655	0.065420	-0.925928	-0.927296	-0.035290	24.3051	-0.924839	-2.200600E+12	1.603664E-14	NaN
268	1.000000	0.074809	7.36767e+06	-52039.1	955.818	-29750.8	0.000000	0.000000	6.074778	0.010294	NaN	0.000000	0.001619	0.001695	28.0783	0.064735	0.002117	30.5723	-68.0508	-164.494	0.055157	0.073465	-0.917908	-0.919251	0.010294	30.5723	-0.918160	-1.787982E+12	-5.757427E-15	NaN
268	1.000000	0.082795	7.36767e+06	-52039.1	955.819	-29750.8	0.000000	0.000000	6.082764	0.006889	NaN	0.000000	0.001610	0.001711	28.0778	0.055112	0.002009	27.4335	-76.0052	-167.086	0.055204	0.081495	-0.909921	-0.911221	0.006889	27.4335	-0.910110	-1.392022E+12	-4.948664E-15	NaN
268	1.000000	0.090775	7.36767e+06	-52039.1	955.819	-29750.8	0.000000	0.000000	6.090744	0.019804	NaN	0.000000	0.001637	0.001738	28.0777	0.057697	0.001951	29.5657	-128.161	-165.49	0.086283	0.089524	-0.901942	-0.903193	0.019804	29.5657	-0.902444	-1.096703E+12	-1.805768E-14	NaN
268	1.000000	0.098800	7.36767e+06	-52039.1	955.818	-29750.8	0.000000	0.000000	6.098767	-0.043074	NaN	0.000000	0.001593	0.001694	28.0779	0.082697	0.002042	40.4959	159.943	-166.526	-0.049598	0.097487	-0.893917	-0.895229	-0.043074	40.4959	-0.893119	-8.204906E+11	5.249726E-14	NaN
268	1.000000	0.106758	7.36767e+06	-52039.1	955.818	-29750.8	0.000000	0.000000	6.106725	-0.059544	NaN	0.000000	0.001615	0.001705	28.0777	0.099777	0.001952	51.1154	53.4412	-162.965	0.016763	0.105533	-0.885958	-0.887184	-0.059544	51.1154	-0.885084	-6.389357E+11	9.319291E-14	NaN
268	1.000000	0.114833	7.36767e+06	-52039.1	955.819	-29750.8	0.000000	0.000000	6.114802	0.002443	NaN	0.000000	0.001593	0.001710	28.0779	0.048186	0.001895	25.4237	-4.106578	-169.79	-0.068483	0.113438	-0.877883	-0.879279	0.002443	25.4237	-0.877956	-5.117512E+11	-4.774740E-15	NaN
268	1.000000	0.122809	7.36767e+06	-52039.1	955.818	-29750.8	0.000000	0.000000	6.122777	-0.041221	NaN	0.000000	0.001631	0.001701	28.078	0.061833	0.001920	32.1988	-78.6691	-167.668	-0.021863	0.121518	-0.869907	-0.871198	-0.041221	32.1988	-0.868947	-3.865380E+11	1.066406E-13	NaN
268	1.000000	0.130772	7.36768e+06	-52039.1	955.819	-29750.8	0.000000	0.000000	6.130741	0.011695	NaN	0.000000	0.001573	0.001747	28.0777	0.075175	0.001965	38.2565	-143.444	-167.171	0.026899	0.129527	-0.861945	-0.863189	0.011695	38.2565	-0.862174	-3.130006E+11	-3.736541E-14	NaN
268	1.000000	0.138821	7.36768e+06	-52039.1	955.818	-29750.8	0.000000	0.000000	6.138791	0.017558	NaN	0.000000	0.001577	0.001721	28.078	0.007906	0.001949	4.056875	16.2444	-167.648	-0.008534	0.137499	-0.853895	-0.855218	0.017558	4.056875	-0.857141	-2.675625E+11	-6.562149E-14	NaN
268	1.000000	0.146818	7.36768e+06	-52039.1	955.819	-29750.8	0.000000	0.000000	6.146788	0.033092	NaN	0.000000	0.001614	0.001726	28.0778	0.051782	0.001979	26.1682	77.6965	-166.823	-0.034595	0.145482	-0.845898	-0.847235	0.033092	26.1682	-0.846847	-1.941050E+11	-1.704848E-13	NaN
268	1.000000	0.154820	7.36768e+06	-52039.1	955.819	-29750.8	0.000000	0.000000	6.154788	-0.013970	NaN	0.000000	0.001573	0.001707	28.0782	0.062191	0.002092	29.7306	-22.101	-167.853	-0.060747	0.153506	-0.837896	-0.839211	-0.013970	29.7306	-0.837544	-1.452169E+11	9.620150E-14	NaN
268	1.000000	0.162818	7.36768e+06	-52039.1	955.818	-29750.8	0.000000	0.000000	6.162787	0.015056	NaN	0.000000	0.001606	0.001721	28.0778	0.080875	0.002007	40.2893	-142.486	-164.519	0.008740	0.161508	-0.829899	-0.831208	0.015056	40.2893	-0.830179	-1.154008E+11	-1.304675E-13	NaN
268	1.000000	0.170827	7.36768e+06	-52039.1	955.818	-29750.8	0.000000	0.000000	6.170797	0.023394	NaN	0.000000	0.001652	0.001702	28.0788	0.056651	0.002065	27.43	-145.234	-162.259	0.030092	0.169493	-0.821890	-0.823223	0.023394	27.43	-0.822529	-9.088802E+10	-2.573908E-13	NaN
268	1.000000	0.178847	7.36768e+06	-52039.1	955.817	-29750.8	0.000000	0.000000	6.178816	0.000622	NaN	0.000000	0.001663	0.001681	28.0791	0.119061	0.002006	59.3654	-11.0476	-166.567	0.049701	0.177555	-0.813869	-0.815161	0.000622	59.3654	-0.813877	-6.936924E+10	-8.973160E-15	NaN
268	1.000000	0.186859	7.36768e+06	-52039.1	955.818	-29750.8	0.000000	0.000000	6.186827	-0.007407	NaN	0.000000	0.001667	0.001704	28.0789	0.080639	0.002053	39.2845	-118.55	-166.44	0.006894	0.185528	-0.805857	-0.807188	-0.007407	39.2845	-0.805716	-5.375805E+10	1.377760E-13	NaN
268	1.000000	0.194834	7.36768e+06	-52039.1	955.817	-29750.8	0.000000	0.000000	6.194807	0.080533	NaN	0.000000	0.001630	0.001721	28.079	0.018733	0.002050	9.137345	82.2396	-166.877	0.060083	0.193531	-0.797882	-0.799185	0.080533	9.137345	-0.804492	-5.174090E+10	-1.556467E-12	NaN
268	1.000000	0.202814	7.36768e+06	-52039.1	955.818	-29750.8	0.000000	0.000000	6.202783	0.007304	NaN	0.000000	0.001652	0.001717	28.079	0.046132	0.001916	24.0773	-178.332	-166.371	0.030263	0.201514	-0.789902	-0.791203	0.007304	24.0773	-0.790130	-3.302515E+10	-2.211774E-13	NaN
268	1.000000	0.210833	7.36768e+06	-52039.1	955.818	-29750.8	0.000000	0.000000	6.210802	-0.005052	NaN	0.000000	0.001657	0.001733	28.079	0.023213	0.002022	11.4824	-57.8776	-165.894	-0.061288	0.209541	-0.781883	-0.783175	-0.005052	11.4824	-0.781553	-2.525435E+10	2.000414E-13	NaN
268	1.000000	0.218851	7.36768e+06	-52039.1	955.818	-29750.8	0.000000	0.000000	6.218821	0.038979	NaN	0.000000	0.001694	0.001704	28.0791	0.053451	0.002023	26.427	-140.391	-167.523	0.029778	0.217556	-0.773865	-0.775160	0.038979	26.427	-0.774972	-2.055384E+10	-1.896413E-12	NaN
268	1.000000	0.226836	7.36768e+06	-52039.1	955.818	-29750.8	0.000000	0.000000	6.226803	-0.037537	NaN	0.000000	0.001634	0.001635	28.0791	0.128086	0.001921	66.6929	135.342	-165.68	0.057236	0.225518	-0.765881	-0.767198	-0.037537	66.6929	-0.765459	-1.525983E+10	2.459867E-12	NaN
268	1.000000	0.234839	7.36768e+06	-52039.1	955.818	-29750.8	0.000000	0.000000	6.234811	0.071582	NaN	0.000000	0.001646	0.001646	28.0789	0.008804	0.001936	4.546993	-159.095	-164.151	0.130893	0.233530	-0.757877	-0.759186	0.071582	4.546993	-0.769684	-1.741848E+10	-4.109522E-12	NaN
268	1.000000	0.242862	7.36768e+06	-52039.1	955.819	-29750.8	0.000000	0.000000	6.242827	-0.089263	NaN	0.000000	0.001677	0.001636	28.079	0.060494	0.001956	30.9195	82.9868	-166.307	-0.074586	0.241532	-0.749855	-0.751184	-0.089263	30.9195	-0.747689	-8.745112E+9	1.020717E-11	NaN
268	1.000000	0.250877	7.36768e+06	-52039.1	955.819	-29750.8	0.000000	0.000000	6.250844	-0.063911	NaN	0.000000	0.001649	0.001662	28.0791	0.074635	0.002132	35.0123	178.46	-167.079	0.051370	0.249579	-0.741839	-0.743137	-0.063911	35.0123	-0.740470	-6.973601E+9	9.164701E-12	NaN
268	1.000000	0.258841	7.36768e+06	-52039.1	955.819	-29750.8	0.000000	0.000000	6.258810	-0.005965	NaN	0.000000	0.001659	0.001630	28.0793	0.078995	0.002079	37.9977	-168.322	-165.487	0.035708	0.257532	-0.733875	-0.735184	-0.005965	37.9977	-0.733758	-5.649571E+9	1.055868E-12	NaN
268	1.000000	0.266864	7.36768e+06	-52039.1	955.817	-29750.8	0.000000	0.000000	6.266833	-0.010007	NaN	0.000000	0.001642	0.001668	28.0789	0.023219	0.002050	11.3252	-74.0401	-167.251	0.024689	0.265529	-0.725852	-0.727187	-0.010007	11.3252	-0.725190	-4.317535E+9	2.317758E-12	NaN
268	1.000000	0.274867	7.36768e+06	-52039.1	955.817	-29750.8	0.000000	0.000000	6.274835	-0.018299	NaN	0.000000	0.001637	0.001634	28.079	0.127512	0.001882	67.7403	123.224	-164.962	0.027623	0.273574	-0.717849	-0.719143	-0.018299	67.7403	-0.717647	-3.407017E+9	5.370948E-12	NaN
268	1.000000	0.282884	7.36768e+06	-52039.1	955.818	-29750.8	0.000000	0.000000	6.282852	-0.011611	NaN	0.000000	0.001629	0.001653	28.0793	0.067804	0.002046	33.1478	-16.9111	-163.161	-0.022933	0.281592	-0.709832	-0.711124	-0.011611	33.1478	-0.709570	-2.643469E+9	4.392312E-12	NaN
268	1.000000	0.290910	7.36768e+06	-52039.1	955.818	-29750.8	0.000000	0.000000	6.290877	-0.049818	NaN	0.000000	0.001666	0.001623	28.0791	0.086384	0.002064	41.8616	-126.271	-166.189	-0.100813	0.289537	-0.701806	-0.703180	-0.049818	41.8616	-0.700913	-2.013748E+9	2.473891E-11	NaN
268	1.000000	0.298918	7.36768e+06	-52039.1	955.819	-29750.8	0.000000	0.000000	6.298887	-0.016852	NaN	0.000000	0.001666	0.001635	28.0791	0.021706	0.002004	10.8324	-87.7807	-167.913	-0.066891	0.297555	-0.693798	-0.695161	-0.016852	10.8324	-0.692631	-1.551928E+9	1.085843E-11	NaN
268	1.000000	0.306871	7.36768e+06	-52039.1	955.818	-29750.8	0.000000	0.000000	6.306838	-0.042456	NaN	0.000000	0.001666	0.001680	28.0776	0.024450	0.002101	11.6382	-77.9797	-167.278	-0.044195	0.305622	-0.685845	-0.687094	-0.042456	11.6382	-0.683109	-1.150069E+9	3.691644E-11	NaN
268	1.000000	0.314887	7.36768e+06	-52039.1	955.819	-29750.8	0.000000	0.000000	6.314858	0.050802	NaN	0.000000	0.001677	0.001608	28.078	0.083010	0.002179	38.093	89.6281	-166.74	-0.024173	0.313566	-0.677829	-0.679150	0.050802	38.093	-0.678829	-1.005069E+9	-5.054563E-11	NaN
268	1.000000	0.322888	7.36768e+06	-52039.1	955.818	-29750.8	0.000000	0.000000	6.322858	0.011692	NaN	0.000000	0.001634	0.001668	28.0777	0.013086	0.001930	6.778815	-24.0906	-165.183	0.010680	0.321533	-0.669828	-0.671183	0.011692	6.778815	-0.671122	-7.883935E+8	-1.483077E-11	NaN
268	1.000000	0.330916	7.36768e+06	-52039.1	955.818	-29750.8	0.000000	0.000000	6.330886	0.019082	NaN	0.000000	0.001582	0.001657	28.0776	0.067775	0.002080	32.5886	-47.5709	-169.108	-0.034114	0.329571	-0.661800	-0.663146	0.019082	32.5886	-0.662240	-5.958587E+8	-3.202378E-11	NaN
268	1.000000	0.338910	7.36768e+06	-52039.1	955.819	-29750.8	0.000000	0.000000	6.338877	-0.044618	NaN	0.000000	0.001607	0.001700	28.0777	0.082129	0.002085	39.3945	-172.137	-165.489	-0.048026	0.337598	-0.653806	-0.655118	-0.044618	39.3945	-0.652957	-4.445995E+8	1.003546E-10	NaN
268	1.000000	0.346888	7.36768e+06	-52039.1	955.818	-29750.8	0.000000	0.000000	6.346857	-0.019332	NaN	0.000000	0.001620	0.001696	28.0778	0.038140	0.002023	18.8557	-92.4141	-170.421	0.039552	0.345604	-0.645828	-0.647113	-0.019332	18.8557	-0.645059	-3.464853E+8	5.579412E-11	NaN
268	1.000000	0.354915	7.36768e+06	-52039.1	955.818	-29750.8	0.000000	0.000000	6.354889	0.118461	NaN	0.000000	0.001650	0.001685	28.0779	0.062217	0.001961	31.7233	125.801	-168.353	0.157444	0.353598	-0.637801	-0.639119	0.118461	31.7233	-0.640602	-3.009887E+8	-3.935719E-10	NaN
268	1.000000	0.362891	7.36768e+06	-52039.1	955.817	-29750.8	0.000000	0.000000	6.362861	0.021245	NaN	0.000000	0.001642	0.001691	28.0778	0.072658	0.001956	37.1532	-65.673	-168.424	0.074443	0.361567	-0.629825	-0.631149	0.021245	37.1532	-0.630254	-2.170238E+8	-9.789041E-11	NaN
268	1.000000	0.370921	7.36768e+06	-52039.1	955.819	-29750.8	0.000000	0.000000	6.370890	0.011715	NaN	0.000000	0.001661	0.001715	28.0778	0.029503	0.001913	15.4204	-111.511	-163.691	0.059716	0.369601	-0.621795	-0.623115	0.011715	15.4204	-0.622365	-1.690987E+8	-6.928201E-11	NaN
268	1.000000	0.378935	7.36768e+06	-52039.1	955.818	-29750.8	0.000000	0.000000	6.378904	-0.016088	NaN	0.000000	0.001656	0.001663	28.0773	0.040148	0.002032	19.7597	175.578	-166.856	-0.043706	0.377665	-0.613781	-0.615051	-0.016088	19.7597	-0.613170	-1.263931E+8	1.272862E-10	NaN
268	1.000000	0.386935	7.36768e+06	-52039.1	955.818	-29750.8	0.000000	0.000000	6.386905	0.015869	NaN	0.000000	0.001644	0.001652	28.0778	0.114567	0.001950	58.7535	-166.246	-166.446	0.055991	0.385611	-0.605781	-0.607105	0.015869	58.7535	-0.605984	-1.006572E+8	-1.576528E-10	NaN
268	1.000000	0.394927	7.36768e+06	-52039.1	955.819	-29750.8	0.000000	0.000000	6.394894	-0.044591	NaN	0.000000	0.001663	0.001663	28.0777	0.110182	0.001956	56.3416	-176.794	-166.227	-0.097200	0.393597	-0.597789	-0.599120	-0.044591	56.3416	-0.597195	-7.617782E+7	5.853500E-10	NaN
268	1.000000	0.402921	7.36768e+06	-52039.1	955.818	-29750.8	0.000000	0.000000	6.402893	0.064039	NaN	0.000000	0.001671	0.001710	28.0779	0.058843	0.001968	29.9007	-110.25	-166.841	0.023258	0.401663	-0.589795	-0.591053	0.064039	29.9007	-0.591401	-6.338424E+7	-1.010336E-9	NaN
268	1.000000	0.410940	7.36768e+06	-52039.1	955.818	-29750.8	0.000000	0.000000	6.410908	-0.042612	NaN	0.000000	0.001640	0.001739	28.0778	0.126868	0.002030	62.4883	-103.465	-163.566	0.029661	0.409661	-0.581776	-0.583055	-0.042612	62.4883	-0.581264	-4.593832E+7	9.275952E-10	NaN
268	1.000000	0.418936	7.36768e+06	-52039.1	955.82	-29750.8	0.000000	0.000000	6.418905	-0.007664	NaN	0.000000	0.001650	0.001669	28.0777	0.081685	0.001977	41.3143	-109.713	-167.342	-0.043656	0.417612	-0.573780	-0.575104	-0.007664	41.3143	-0.573641	-3.605168E+7	2.125739E-10	NaN
268	1.000000	0.426913	7.36768e+06	-52039.1	955.818	-29750.8	0.000000	0.000000	6.426883	0.027729	NaN	0.000000	0.001626	0.001637	28.0779	0.044612	0.001976	22.5766	167.906	-165.771	0.043671	0.425636	-0.565803	-0.567080	0.027729	22.5766	-0.566724	-2.893074E+7	-9.584710E-10	NaN
268	1.000000	0.434945	7.36768e+06	-52039.1	955.818	-29750.8	0.000000	0.000000	6.434910	-0.103747	NaN	0.000000	0.001643	0.001640	28.0778	0.056757	0.001931	29.3975	71.2899	-169.571	0.006065	0.433621	-0.557771	-0.559095	-0.103747	29.3975	-0.555125	-1.999459E+7	5.188743E-9	NaN
268	1.000000	0.442930	7.36768e+06	-52039.1	955.817	-29750.8	0.000000	0.000000	6.442901	0.040598	NaN	0.000000	0.001642	0.001641	28.0792	0.073157	0.001975	37.0409	96.0829	-165.158	-0.000640	0.441660	-0.549786	-0.551057	0.040598	37.0409	-0.550608	-1.731315E+7	-2.344943E-9	NaN
268	1.000000	0.450956	7.36768e+06	-52039.1	955.818	-29750.8	0.000000	0.000000	6.450925	-0.016903	NaN	0.000000	0.001611	0.001636	28.0794	0.084782	0.001849	45.8431	146.758	-163.887	-0.036525	0.449616	-0.541760	-0.543101	-0.016903	45.8431	-0.541483	-1.293986E+7	1.306266E-9	NaN
268	1.000000	0.458926	7.36768e+06	-52039.1	955.818	-29750.8	0.000000	0.000000	6.458896	0.023066	NaN	0.000000	0.001626	0.001638	28.0792	0.100431	0.002050	48.9933	-65.2646	-166.051	0.023653	0.457680	-0.533790	-0.535036	0.023066	48.9933	-0.534143	-1.023524E+7	-2.253572E-9	NaN
268	1.000000	0.466943	7.36768e+06	-52039.1	955.818	-29750.8	0.000000	0.000000	6.466912	-0.010635	NaN	0.000000	0.001636	0.001665	28.0799	0.055405	0.002073	26.7227	50.2522	-167.582	-2.587649E-6	0.465620	-0.525773	-0.527096	-0.010635	26.7227	-0.525475	-7.75722e+06	1.371008E-9	NaN
268	1.000000	0.474981	7.36768e+06	-52039.1	955.818	-29750.8	0.000000	0.000000	6.474952	0.047843	NaN	0.000000	0.001614	0.001662	28.0791	0.093699	0.001910	49.0658	-104.74	-169.202	0.062758	0.473627	-0.517735	-0.519089	0.047843	49.0658	-0.518466	-6.19815e+06	-7.718880E-9	NaN
268	1.000000	0.482950	7.36768e+06	-52039.1	955.818	-29750.8	0.000000	0.000000	6.482918	-0.034367	NaN	0.000000	0.001585	0.001694	28.0792	0.028446	0.002047	13.8937	101.979	-167.05	-0.018428	0.481673	-0.509766	-0.511043	-0.034367	13.8937	-0.507911	-4.41889e+06	7.777230E-9	NaN
268	1.000000	0.490939	7.36768e+06	-52039.1	955.818	-29750.8	0.000000	0.000000	6.490910	0.036465	NaN	0.000000	0.001548	0.001703	28.0793	0.043973	0.002027	21.692	-19.7851	-165.971	-0.014906	0.489672	-0.501777	-0.503044	0.036465	21.692	-0.503038	-3.7791e+06	-9.649138E-9	NaN
268	1.000000	0.498982	7.36768e+06	-52039.1	955.818	-29750.8	0.000000	0.000000	6.498955	0.111418	NaN	0.000000	0.001531	0.001681	28.0792	0.125412	0.001975	63.5053	-179.923	-164.763	0.045185	0.497621	-0.493735	-0.495095	0.111418	63.5053	-0.495051	-2.92375e+06	-3.810787E-8	NaN
268	1.000000	0.506999	7.36768e+06	-52039.1	955.818	-29750.8	0.000000	0.000000	6.506969	0.010282	NaN	0.000000	0.001558	0.001664	28.0795	0.050967	0.001907	26.7252	36.292	-165.529	0.038109	0.505647	-0.485717	-0.487069	0.010282	26.7252	-0.486006	-2.18552e+06	-4.704753E-9	NaN
268	1.000000	0.514982	7.36768e+06	-52039.1	955.818	-29750.8	0.000000	0.000000	6.514950	-0.020244	NaN	0.000000	0.001561	0.001693	28.0792	0.024717	0.002023	12.2189	23.9071	-168.031	-0.023856	0.513662	-0.477735	-0.479054	-0.020244	12.2189	-0.476492	-1.60843e+06	1.258626E-8	NaN
268	1.000000	0.522980	7.36768e+06	-52039.1	955.818	-29750.8	0.000000	0.000000	6.522952	0.078329	NaN	0.000000	0.001597	0.001684	28.0792	0.139752	0.001987	70.3433	111.18	-165.85	-0.005826	0.521707	-0.469737	-0.471009	0.078329	70.3433	-0.470572	-1.3287e+06	-5.895157E-8	NaN
268	1.000000	0.530977	7.36768e+06	-52039.1	955.819	-29750.8	0.000000	0.000000	6.530946	-0.005482	NaN	0.000000	0.001594	0.001683	28.0792	0.047624	0.002042	23.3201	81.6321	-165.82	-0.030107	0.529691	-0.461739	-0.463025	-0.005482	23.3201	-0.461563	-993060	5.520269E-9	NaN
268	1.000000	0.538977	7.36768e+06	-52039.1	955.818	-29750.8	0.000000	0.000000	6.538947	0.022687	NaN	0.000000	0.001570	0.001669	28.0793	0.036597	0.002055	17.8049	-10.1034	-166.667	-0.007570	0.537667	-0.453739	-0.455049	0.022687	17.8049	-0.454695	-795105	-2.853310E-8	NaN
268	1.000000	0.546999	7.36768e+06	-52039.1	955.819	-29750.8	0.000000	0.000000	6.546969	0.026817	NaN	0.000000	0.001557	0.001685	28.0795	0.092759	0.001996	46.4632	-68.9759	-165.444	-0.027977	0.545676	-0.445717	-0.447040	0.026817	46.4632	-0.446150	-602707	-4.449368E-8	NaN
268	1.000000	0.555015	7.36768e+06	-52039.1	955.819	-29750.8	0.000000	0.000000	6.554984	-0.010002	NaN	0.000000	0.001553	0.001656	28.0793	0.010189	0.001974	5.161682	-63.6701	-164.545	0.077552	0.553699	-0.437701	-0.439017	-0.010002	5.161682	-0.436248	-436900	2.289291E-8	NaN
268	1.000000	0.563005	7.36768e+06	-52039.1	955.819	-29750.8	0.000000	0.000000	6.562972	-0.043404	NaN	0.000000	0.001555	0.001667	28.0793	0.092411	0.002083	44.374	95.0848	-163.502	-0.022807	0.561670	-0.429712	-0.431046	-0.043404	44.374	-0.428978	-344828	1.258714E-7	NaN
268	1.000000	0.571013	7.36768e+06	-52039.1	955.818	-29750.8	0.000000	0.000000	6.570980	-0.037230	NaN	0.000000	0.001534	0.001648	28.0792	0.075533	0.002148	35.1676	-76.3572	-163.35	-0.003077	0.569645	-0.421703	-0.423071	-0.037230	35.1676	-0.420909	-265040	1.404702E-7	NaN
268	1.000000	0.579010	7.36768e+06	-52039.1	955.819	-29750.8	0.000000	0.000000	6.578979	0.004264	NaN	0.000000	0.001557	0.001682	28.0781	0.023970	0.001994	12.0238	91.0621	-163.642	0.017328	0.577659	-0.413707	-0.415057	0.004264	12.0238	-0.413972	-211281	-2.017980E-8	NaN
268	1.000000	0.587020	7.36768e+06	-52039.1	955.819	-29750.8	0.000000	0.000000	6.586988	-0.027706	NaN	0.000000	0.001542	0.001682	28.0781	0.028448	0.001961	14.5052	-173.477	-164.307	-0.033161	0.585721	-0.405696	-0.406996	-0.027706	14.5052	-0.404264	-153731	1.802218E-7	NaN
268	1.000000	0.595015	7.36768e+06	-52039.1	955.818	-29750.8	0.000000	0.000000	6.594985	0.014220	NaN	0.000000	0.001507	0.001702	28.0781	0.042833	0.001999	21.423	-104.627	-165.576	0.001411	0.593727	-0.397701	-0.398989	0.014220	21.423	-0.398199	-125981	-1.128718E-7	NaN
268	1.000000	0.603035	7.36768e+06	-52039.1	955.818	-29750.8	0.000000	0.000000	6.603006	0.052587	NaN	0.000000	0.001549	0.001721	28.0781	0.080320	0.001972	40.7361	132.437	-163.372	-4.630115E-6	0.601713	-0.389682	-0.391003	0.052587	40.7361	-0.390650	-98279.4	-5.350744E-7	NaN
268	1.000000	0.611009	7.36768e+06	-52039.1	955.818	-29750.8	0.000000	0.000000	6.610975	-0.054103	NaN	0.000000	0.001554	0.001709	28.0781	0.059438	0.001992	29.8447	61.1586	-164.922	-0.033644	0.609708	-0.381708	-0.383008	-0.054103	29.8447	-0.380348	-69965.1	7.732914E-7	NaN
268	1.000000	0.619014	7.36768e+06	-52039.1	955.818	-29750.8	0.000000	0.000000	6.618983	-0.018463	NaN	0.000000	0.001583	0.001673	28.078	0.166054	0.001963	84.6095	-3.470045	-162.891	-0.087425	0.617693	-0.373702	-0.375024	-0.018463	84.6095	-0.373538	-55853.5	3.305663E-7	NaN
268	1.000000	0.627040	7.36768e+06	-52039.1	955.819	-29750.8	0.000000	0.000000	6.627009	-0.002832	NaN	0.000000	0.001587	0.001710	28.078	0.129514	0.002095	61.8184	-152.348	-163.482	0.028577	0.625736	-0.365676	-0.366980	-0.002832	61.8184	-0.365642	-42984.6	6.588370E-8	NaN
268	1.000000	0.635024	7.36768e+06	-52039.1	955.818	-29750.8	0.000000	0.000000	6.634993	-0.013007	NaN	0.000000	0.001595	0.001739	28.0783	0.032793	0.002029	16.1602	142.877	-166.758	-0.017393	0.633675	-0.357692	-0.359041	-0.013007	16.1602	-0.357088	-32339.6	4.021879E-7	NaN
268	1.000000	0.643021	7.36768e+06	-52039.1	955.819	-29750.8	0.000000	0.000000	6.642990	-0.007221	NaN	0.000000	0.001562	0.001688	28.0782	0.016261	0.001957	8.310755	-113.174	-165.692	-0.001277	0.641734	-0.349695	-0.350982	-0.007221	8.310755	-0.349043	-24723.7	2.920718E-7	NaN
268	1.000000	0.651060	7.36768e+06	-52039.1	955.818	-29750.8	0.000000	0.000000	6.651029	0.011725	NaN	0.000000	0.001596	0.001733	28.0782	0.082804	0.002023	40.9325	112.554	-170.323	0.074081	0.649775	-0.341657	-0.342941	0.011725	40.9325	-0.341871	-19445.6	-6.029733E-7	NaN
268	1.000000	0.659039	7.36768e+06	-52039.1	955.819	-29750.8	0.000000	0.000000	6.659005	-0.056132	NaN	0.000000	0.001560	0.001715	28.078	0.081761	0.002000	40.8807	-81.516	-164.028	-0.034230	0.657706	-0.333677	-0.335010	-0.056132	40.8807	-0.332648	-14262.7	3.935621E-6	NaN
268	1.000000	0.667021	7.36768e+06	-52039.1	955.817	-29750.8	0.000000	0.000000	6.666989	-0.034363	NaN	0.000000	0.001613	0.001705	28.0779	0.029106	0.001970	14.7732	-110.452	-166.69	-0.012596	0.665737	-0.325695	-0.326980	-0.034363	14.7732	-0.323950	-10634.7	3.231226E-6	NaN
268	1.000000	0.675038	7.36768e+06	-52039.1	955.817	-29750.8	0.000000	0.000000	6.675006	-0.004404	NaN	0.000000	0.001591	0.001697	28.078	0.053889	0.002040	26.4104	110.147	-167.898	0.012264	0.673711	-0.317679	-0.319005	-0.004404	26.4104	-0.317554	-8562.65	5.142899E-7	NaN
268	1.000000	0.683045	7.36768e+06	-52039.1	955.818	-29750.8	0.000000	0.000000	6.683016	0.049948	NaN	0.000000	0.001643	0.001694	28.0778	0.078130	0.001908	40.954	124.161	-163.648	-0.058455	0.681763	-0.309671	-0.310954	0.049948	40.954	-0.310586	-6756.6	-7.392508E-6	NaN
268	1.000000	0.691065	7.36768e+06	-52039.1	955.817	-29750.8	0.000000	0.000000	6.691037	0.056992	NaN	0.000000	0.001608	0.001688	28.0779	0.025630	0.001997	12.8344	-39.5007	-169.585	0.073724	0.689770	-0.301651	-0.302946	0.056992	12.8344	-0.304981	-5580.56	-1.021257E-5	NaN
268	1.000000	0.699046	7.36768e+06	-52039.1	955.819	-29750.8	0.000000	0.000000	6.699014	-0.003426	NaN	0.000000	0.001610	0.001639	28.0788	0.041790	0.002119	19.7255	-65.9912	-167.318	0.116118	0.697731	-0.293671	-0.294985	-0.003426	19.7255	-0.293540	-3769.48	9.089924E-7	NaN
268	1.000000	0.707033	7.36768e+06	-52039.1	955.819	-29750.8	0.000000	0.000000	6.707000	-0.050750	NaN	0.000000	0.001604	0.001735	28.0779	0.073717	0.001949	37.823	80.1515	-163.355	-0.092230	0.705761	-0.285683	-0.286955	-0.050750	37.823	-0.284677	-2775.92	1.828225E-5	NaN
268	1.000000	0.715073	7.36768e+06	-52039.1	955.818	-29750.8	0.000000	0.000000	6.715041	-0.037202	NaN	0.000000	0.001574	0.001680	28.0791	0.058354	0.002040	28.6078	-91.6489	-168.286	-0.032553	0.713785	-0.277643	-0.278932	-0.037202	28.6078	-0.276668	-2102.01	1.769846E-5	NaN
268	1.000000	0.723056	7.36768e+06	-52039.1	955.819	-29750.8	0.000000	0.000000	6.723024	-0.029247	NaN	0.000000	0.001599	0.001624	28.0792	0.026602	0.001982	13.4249	-21.2442	-165.733	-0.055015	0.721767	-0.269660	-0.270949	-0.029247	13.4249	-0.268026	-1554.26	1.881766E-5	NaN
268	1.000000	0.731060	7.36768e+06	-52039.1	955.818	-29750.8	0.000000	0.000000	6.731027	-0.037680	NaN	0.000000	0.001601	0.001683	28.079	0.159883	0.001900	84.1688	32.3892	-167.409	-0.017071	0.729748	-0.261656	-0.262969	-0.037680	84.1688	-0.261321	-1227.85	3.068731E-5	NaN
268	1.000000	0.739070	7.36768e+06	-52039.1	955.819	-29750.8	0.000000	0.000000	6.739039	-0.001909	NaN	0.000000	0.001603	0.001675	28.0791	0.155126	0.001922	80.7115	15.7527	-161.997	-0.006915	0.737733	-0.253646	-0.254983	-0.001909	80.7115	-0.253629	-935.383	2.040673E-6	NaN
268	1.000000	0.747077	7.36768e+06	-52039.1	955.818	-29750.8	0.000000	0.000000	6.747046	0.015323	NaN	0.000000	0.001632	0.001679	28.0789	0.053165	0.001952	27.2387	134.306	-163.737	-0.030809	0.745687	-0.245640	-0.247029	0.015323	27.2387	-0.246062	-714.398	-2.144914E-5	NaN
268	1.000000	0.755096	7.36768e+06	-52039.1	955.818	-29750.8	0.000000	0.000000	6.755064	-0.024251	NaN	0.000000	0.001610	0.001699	28.0792	0.080273	0.001947	41.2323	-135.858	-168.414	0.037702	0.753796	-0.237620	-0.238920	-0.024251	41.2323	-0.237179	-519.31	4.669795E-5	NaN
268	1.000000	0.763072	7.36768e+06	-52039.1	955.819	-29750.8	0.000000	0.000000	6.763040	-0.023696	NaN	0.000000	0.001571	0.001689	28.0793	0.050321	0.001911	26.3366	149.806	-164.052	0.053889	0.761813	-0.229644	-0.230904	-0.023696	26.3366	-0.228969	-385.687	6.143933E-5	NaN
268	1.000000	0.771108	7.36768e+06	-52039.1	955.819	-29750.8	0.000000	0.000000	6.771076	-0.021104	NaN	0.000000	0.001628	0.001690	28.0791	0.103565	0.001982	52.2543	-65.8378	-163.802	0.010149	0.769734	-0.221608	-0.222982	-0.021104	52.2543	-0.221305	-291.416	7.241839E-5	NaN
268	1.000000	0.779096	7.36768e+06	-52039.1	955.818	-29750.8	0.000000	0.000000	6.779066	0.015799	NaN	0.000000	0.001605	0.001669	28.079	0.012039	0.002082	5.783775	83.8809	-166.269	-0.004930	0.777746	-0.213620	-0.214970	0.015799	5.783775	-0.215669	-236.735	-6.673499E-5	NaN
268	1.000000	0.787105	7.36768e+06	-52039.1	955.818	-29750.8	0.000000	0.000000	6.787074	-0.010583	NaN	0.000000	0.001616	0.001634	28.0793	0.092687	0.002046	45.3097	-90.934	-163.458	-0.088848	0.785750	-0.205611	-0.206966	-0.010583	45.3097	-0.205436	-161.682	6.545797E-5	NaN
268	1.000000	0.795095	7.36768e+06	-52039.1	955.819	-29750.8	0.000000	0.000000	6.795064	-0.015803	NaN	0.000000	0.001596	0.001699	28.0791	0.066482	0.002083	31.9163	21.1045	-164.86	0.059955	0.793813	-0.197621	-0.198903	-0.015803	31.9163	-0.197250	-118.686	0.000133	NaN
268	1.000000	0.803106	7.36768e+06	-52039.1	955.818	-29750.8	0.000000	0.000000	6.803073	-0.034558	NaN	0.000000	0.001606	0.001681	28.0791	0.018831	0.001992	9.454316	84.9288	-168.078	0.054521	0.801743	-0.189611	-0.190973	-0.034558	9.454316	-0.186869	-79.7226	0.000433	NaN
268	1.000000	0.811121	7.36768e+06	-52039.1	955.819	-29750.8	0.000000	0.000000	6.811090	0.003396	NaN	0.000000	0.001595	0.001671	28.079	0.060155	0.001941	30.9986	-4.545179	-163.606	0.015650	0.809780	-0.181595	-0.182937	0.003396	30.9986	-0.181677	-65.1567	-5.212599E-5	NaN
268	1.000000	0.819099	7.36768e+06	-52039.1	955.819	-29750.8	0.000000	0.000000	6.819067	-0.011842	NaN	0.000000	0.001572	0.001665	28.0794	0.091497	0.002081	43.9767	-73.8737	-167.142	0.027582	0.817791	-0.173617	-0.174925	-0.011842	43.9767	-0.173416	-47.0662	0.000252	NaN
268	1.000000	0.827103	7.36768e+06	-52039.1	955.82	-29750.8	0.000000	0.000000	6.827073	0.011228	NaN	0.000000	0.001601	0.001682	28.0792	0.038076	0.001904	19.9936	-14.9387	-167.614	0.002665	0.825776	-0.165613	-0.166940	0.011228	19.9936	-0.166034	-35.0302	-0.000321	NaN
268	1.000000	0.835097	7.36768e+06	-52039.1	955.818	-29750.8	0.000000	0.000000	6.835065	-0.020457	NaN	0.000000	0.001585	0.001692	28.0791	0.049704	0.001865	26.6502	-90.4139	-167.428	-0.064390	0.833785	-0.157619	-0.158931	-0.020457	26.6502	-0.157044	-24.2807	0.000843	NaN
268	1.000000	0.843115	7.36768e+06	-52039.1	955.819	-29750.8	0.000000	0.000000	6.843084	-0.018762	NaN	0.000000	0.001564	0.001676	28.0791	0.050423	0.002178	23.1522	-126.896	-169.616	-0.017559	0.841857	-0.149601	-0.150859	-0.018762	23.1522	-0.148993	-17.3625	0.001081	NaN
268	1.000000	0.851097	7.36768e+06	-52039.1	955.819	-29750.8	0.000000	0.000000	6.851067	0.007353	NaN	0.000000	0.001581	0.001680	28.0781	0.128673	0.001928	66.7239	149.018	-162.787	0.065139	0.849783	-0.141619	-0.142933	0.007353	66.7239	-0.141702	-12.7305	-0.000578	NaN
268	1.000000	0.859074	7.36768e+06	-52039.1	955.818	-29750.8	0.000000	0.000000	6.859047	0.094632	NaN	0.000000	0.001577	0.001697	28.0784	0.058386	0.001992	29.3104	-77.6879	-163.971	0.086214	0.857769	-0.133642	-0.134947	0.094632	29.3104	-0.136064	-9.966959	-0.009495	NaN
268	1.000000	0.867151	7.36768e+06	-52039.1	955.818	-29750.8	0.000000	0.000000	6.867120	-0.016663	NaN	0.000000	0.001587	0.001689	28.078	0.015077	0.001942	7.764455	-76.5775	-165.785	-0.015566	0.865837	-0.125565	-0.126880	-0.016663	7.764455	-0.123955	-5.798038	0.002874	NaN
268	1.000000	0.875139	7.36768e+06	-52039.1	955.818	-29750.8	0.000000	0.000000	6.875109	0.028901	NaN	0.000000	0.001585	0.001692	28.0779	0.099099	0.001942	51.0225	-70.1784	-163.995	0.039991	0.873848	-0.117578	-0.118868	0.028901	51.0225	-0.118002	-4.401482	-0.006566	NaN
268	1.000000	0.883139	7.36768e+06	-52039.1	955.819	-29750.8	0.000000	0.000000	6.883107	-0.013388	NaN	0.000000	0.001573	0.001687	28.0779	0.065414	0.001977	33.096	48.1622	-165.453	-0.039864	0.881816	-0.109577	-0.110901	-0.013388	33.096	-0.109274	-2.900921	0.004615	NaN
268	1.000000	0.891125	7.36768e+06	-52039.1	955.818	-29750.8	0.000000	0.000000	6.891096	0.044938	NaN	0.000000	0.001570	0.001706	28.0779	0.111057	0.001953	56.866	22.8206	-164.915	-0.038829	0.889857	-0.101591	-0.102860	0.044938	56.866	-0.102184	-2.041321	-0.022014	NaN
268	1.000000	0.899159	7.36768e+06	-52039.1	955.818	-29750.8	0.000000	0.000000	6.899130	0.047811	NaN	0.000000	0.001606	0.001693	28.0781	0.025798	0.001915	13.4688	166.013	-165.077	0.080097	0.897858	-0.093557	-0.094858	0.047811	13.4688	-0.096219	-1.503508	-0.031800	NaN
268	1.000000	0.907154	7.36768e+06	-52039.1	955.818	-29750.8	0.000000	0.000000	6.907120	-0.084839	NaN	0.000000	0.001590	0.001717	28.078	0.062205	0.001951	31.8809	176.004	-166.458	-0.045335	0.905894	-0.085562	-0.086822	-0.084839	31.8809	-0.083566	-0.758257	0.111887	NaN
268	1.000000	0.915138	7.36768e+06	-52039.1	955.819	-29750.8	0.000000	0.000000	6.915109	0.043232	NaN	0.000000	0.001589	0.001672	28.0781	0.069467	0.001945	35.7077	41.1189	-170.725	-0.034658	0.913787	-0.077578	-0.078929	0.043232	35.7077	-0.078486	-0.567067	-0.076238	NaN
268	1.000000	0.923160	7.36768e+06	-52039.1	955.818	-29750.8	0.000000	0.000000	6.923128	-0.014911	NaN	0.000000	0.001605	0.001642	28.0783	0.103256	0.002061	50.0995	-138.264	-164.108	-0.062937	0.921825	-0.069556	-0.070891	-0.014911	50.0995	-0.069333	-0.327325	0.045553	NaN
268	1.000000	0.931127	7.36768e+06	-52039.1	955.818	-29750.8	0.000000	0.000000	6.931093	-0.072981	NaN	0.000000	0.001579	0.001651	28.0781	0.095925	0.001989	48.2224	-124.036	-164.746	-0.024750	0.929771	-0.061589	-0.062946	-0.072981	48.2224	-0.060454	-0.185572	0.393277	NaN
268	1.000000	0.939133	7.36768e+06	-52039.1	955.817	-29750.8	0.000000	0.000000	6.939100	-0.031528	NaN	0.000000	0.001609	0.001701	28.0782	0.092465	0.001954	47.331	57.054	-164.851	-0.097606	0.937811	-0.053583	-0.054905	-0.031528	47.331	-0.053084	-0.112959	0.279112	NaN
268	1.000000	0.947143	7.36768e+06	-52039.1	955.819	-29750.8	0.000000	0.000000	6.947111	-0.020408	NaN	0.000000	0.001629	0.001685	28.0779	0.077229	0.001989	38.8224	158.065	-168.452	-0.123548	0.945857	-0.045573	-0.046859	-0.020408	38.8224	-0.045179	-0.065082	0.313575	NaN
268	1.000000	0.955153	7.36768e+06	-52039.1	955.819	-29750.8	0.000000	0.000000	6.955121	-0.043546	NaN	0.000000	0.001572	0.001668	28.0781	0.092081	0.001824	50.485	-172.186	-166.971	-0.124701	0.953847	-0.037563	-0.038869	-0.043546	50.485	-0.036916	-0.036504	1.192889	NaN
268	1.000000	0.963159	7.36768e+06	-52039.1	955.819	-29750.8	0.000000	0.000000	6.963128	0.007719	NaN	0.000000	0.001573	0.001667	28.0782	0.059223	0.001984	29.8535	-72.0439	-162.999	0.040301	0.961868	-0.029557	-0.030848	0.007719	29.8535	-0.029751	-0.022649	-0.340812	NaN
268	1.000000	0.971160	7.36768e+06	-52039.1	955.817	-29750.8	0.000000	0.000000	6.971129	0.001457	NaN	0.000000	0.001576	0.001660	28.0779	0.154270	0.001907	80.8959	-149.853	-164.642	0.031303	0.969834	-0.021556	-0.022882	0.001457	80.8959	-0.021570	-0.013769	-0.105781	NaN
268	1.000000	0.979174	7.36768e+06	-52039.1	955.817	-29750.8	0.000000	0.000000	6.979144	0.020022	NaN	0.000000	0.001572	0.001684	28.078	0.049729	0.002005	24.7978	20.0497	-165.018	0.035259	0.977884	-0.013543	-0.014832	0.020022	24.7978	-0.014148	-0.008770	-2.282957	NaN
268	1.000000	0.987180	7.36768e+06	-52039.1	955.818	-29750.8	0.000000	0.000000	6.987148	-0.017789	NaN	0.000000	0.001597	0.001687	28.0786	0.043811	0.002190	20.0006	139.612	-165.556	0.016985	0.985848	-0.005536	-0.006868	-0.017789	20.0006	-0.004869	-0.003334	5.335217	NaN
268	1.000000	0.995173	7.36768e+06	-52039.1	955.817	-29750.8	0.000000	0.000000	6.995200	1.416179	NaN	0.000000	0.001588	0.001669	28.0795	2.194241	0.001900	1154.74	7.662065	-169.111	0.447276	0.993841	0.002457	0.001125	1.416179	1154.74	0.001537	0.001184	1196.37	30664.2
268	2.000000	1.002595	7.36768e+06	-52039.1	955.817	-29750.8	0.000000	0.000000	7.002923	8.734784	NaN	0.000000	0.001592	0.001669	28.0793	9.603878	0.001636	5870.9	8.784902	-173.347	8.216158	1.001761	0.009879	0.009045	8.734784	5870.9	0.008763	0.007839	1114.34	60584.3
268	2.000000	1.004753	7.36768e+06	-52039.1	955.818	-29750.8	0.000000	0.000000	7.005260	13.0712	NaN	0.000000	0.001580	0.001672	28.0793	11.2927	0.001572	7182.3	6.742139	-174.74	12.7512	1.004422	0.012037	0.011706	13.0712	7182.3	0.010672	0.009938	1315.29	65824.9
268	2.000000	1.006752	7.36768e+06	-52039.1	955.817	-29750.8	0.000000	0.000000	7.007339	15.0455	NaN	0.000000	0.001590	0.001684	28.0794	14.0737	0.001784	7890.65	6.177369	-173.862	14.5195	1.006387	0.014035	0.013671	15.0455	7890.65	0.012605	0.012223	1230.89	65206.7
268	2.000000	1.008724	7.36768e+06	-52039.1	955.817	-29750.8	0.000000	0.000000	7.009374	16.5561	NaN	0.000000	0.001654	0.001622	28.0794	15.9279	0.001772	8990.93	8.874853	-176.752	15.9998	1.008355	0.016008	0.015638	16.5561	8990.93	0.014627	0.014791	1119.33	67542.5
268	2.000000	1.010678	7.36768e+06	-52039.1	955.818	-29750.8	0.000000	0.000000	7.011473	20.1038	NaN	0.000000	0.001634	0.001658	28.0794	18.0809	0.001819	9940.78	6.037789	-176.503	18.8046	1.010399	0.017961	0.017682	20.1038	9940.78	0.016445	0.017260	1164.74	69130.4
268	2.000000	1.012646	7.36768e+06	-52039.1	955.818	-29750.8	0.000000	0.000000	7.013578	23.3993	NaN	0.000000	0.001634	0.001656	28.0798	19.7972	0.001820	10879.6	3.446076	-173.927	21.556	1.012464	0.019930	0.019748	23.3993	10879.6	0.018317	0.019966	1171.94	70345.8
268	2.000000	1.014698	7.36768e+06	-52039.1	955.818	-29750.8	0.000000	0.000000	7.015775	26.9449	NaN	0.000000	0.001620	0.001628	28.0794	21.4209	0.001755	12208.4	5.041922	-176.939	25.9362	1.014424	0.021982	0.021708	26.9449	12208.4	0.020326	0.023058	1168.59	73455.4
268	2.000000	1.016668	7.36768e+06	-52039.1	955.818	-29750.8	0.000000	0.000000	7.017949	31.9099	NaN	0.000000	0.001640	0.001638	28.0793	23.3684	0.001747	13378.2	5.850070	-178.371	30.9268	1.016341	0.023952	0.023625	31.9099	13378.2	0.022163	0.026055	1224.7	75722
268	2.000000	1.018681	7.36768e+06	-52039.1	955.818	-29750.8	0.000000	0.000000	7.020133	36.0623	NaN	0.000000	0.001618	0.001635	28.0793	25.1518	0.001729	14550.6	2.314821	-175.22	35.5938	1.018420	0.025965	0.025703	36.0623	14550.6	0.024106	0.029409	1226.23	77519.9
268	2.000000	1.020665	7.36768e+06	-52039.1	955.818	-29750.8	0.000000	0.000000	7.022358	41.921	NaN	0.000000	0.001647	0.001635	28.0796	27.7838	0.001763	15762.2	7.590505	178.029	41.5887	1.020433	0.027949	0.027717	41.921	15762.2	0.025954	0.032775	1279.06	79546.3
268	2.000000	1.022637	7.36768e+06	-52039.1	955.818	-29750.8	0.000000	0.000000	7.024563	47.5766	NaN	0.000000	0.001645	0.001640	28.0805	30.2854	0.001839	16471.6	5.580324	179.67	46.1967	1.022292	0.029921	0.029575	47.5766	16471.6	0.027755	0.036219	1313.59	79075.7
268	2.000000	1.024651	7.36768e+06	-52039.1	955.818	-29750.8	0.000000	0.000000	7.026830	53.7508	NaN	0.000000	0.001635	0.001650	28.0792	31.4238	0.001732	18140.6	7.579602	177.12	52.7256	1.024312	0.031934	0.031596	53.7508	18140.6	0.029712	0.040149	1338.78	82715.5
268	2.000000	1.026675	7.36768e+06	-52039.1	955.819	-29750.8	0.000000	0.000000	7.029118	60.1446	NaN	0.000000	0.001633	0.001662	28.0791	33.8694	0.001874	18076.6	6.259075	178.419	60.1571	1.026310	0.033959	0.033594	60.1446	18076.6	0.031464	0.043832	1372.17	78885
268	2.000000	1.028666	7.36768e+06	-52039.1	955.818	-29750.8	0.000000	0.000000	7.031221	62.8625	NaN	0.000000	0.001645	0.001667	28.0792	36.3212	0.001821	19941.2	8.007486	175.787	61.4684	1.028408	0.035950	0.035692	62.8625	19941.2	0.033586	0.048504	1296.02	82724.8
268	2.000000	1.030649	7.36768e+06	-52039.1	955.819	-29750.8	0.000000	0.000000	7.033607	72.6836	NaN	0.000000	0.001615	0.001649	28.0794	37.0763	0.001637	22652	5.569405	176.443	71.6765	1.030295	0.037933	0.037578	72.6836	22652	0.035526	0.052979	1371.94	89914.4
268	2.000000	1.032661	7.36768e+06	-52039.1	955.819	-29750.8	0.000000	0.000000	7.035919	79.9677	NaN	0.000000	0.001571	0.001670	28.0795	40.3825	0.001880	21481.3	5.789655	177.414	79.518	1.032343	0.039945	0.039626	79.9677	21481.3	0.037153	0.056878	1405.95	82292.6
268	2.000000	1.034729	7.36768e+06	-52039.1	955.819	-29750.8	0.000000	0.000000	7.038146	83.845	NaN	0.000000	0.001593	0.001644	28.0779	41.6436	0.001866	22319.6	6.403000	176.842	88.5567	1.034403	0.042013	0.041687	83.845	22319.6	0.039195	0.061965	1353.1	81919.2
268	2.000000	1.036556	7.36768e+06	-52039.1	955.82	-29750.8	0.000000	0.000000	7.040339	92.7443	NaN	0.000000	0.001570	0.001644	28.078	43.3691	0.001759	24659.2	5.882365	174.998	89.1687	1.036326	0.043840	0.043609	92.7443	24659.2	0.041019	0.066688	1390.72	87242.5
268	2.000000	1.038666	7.36768e+06	-52039.1	955.819	-29750.8	0.000000	0.000000	7.042823	101.852	NaN	0.000000	0.001616	0.001666	28.0783	45.682	0.001823	25057.1	5.247629	176.237	101.414	1.038425	0.045949	0.045709	101.852	25057.1	0.042901	0.071740	1419.74	85471.9
268	2.000000	1.040608	7.36768e+06	-52039.1	955.818	-29750.8	0.000000	0.000000	7.045197	112.347	NaN	0.000000	0.001583	0.001650	28.0781	46.7194	0.001731	26986.9	5.843743	175.293	111.308	1.040271	0.047891	0.047554	112.347	26986.9	0.044769	0.076933	1460.32	88893.5
268	2.000000	1.042630	7.36768e+06	-52039.1	955.818	-29750.8	0.000000	0.000000	7.047395	116.619	NaN	0.000000	0.001589	0.001636	28.0786	49.7282	0.001754	28345.2	4.042918	176.676	116.236	1.042355	0.049914	0.049639	116.619	28345.2	0.046828	0.082862	1407.38	89965
268	2.000000	1.044582	7.36768e+06	-52039.1	955.818	-29750.8	0.000000	0.000000	7.049654	124.085	NaN	0.000000	0.001593	0.001662	28.0782	50.5954	0.001795	28184.6	3.703472	177.156	121.544	1.044292	0.051866	0.051576	124.085	28184.6	0.048564	0.088026	1409.64	86792.1
268	2.000000	1.046607	7.36768e+06	-52039.1	955.819	-29750.8	0.000000	0.000000	7.052172	136.064	NaN	0.000000	0.001610	0.001649	28.0779	52.6488	0.001795	29336.2	6.293655	174.242	134.422	1.046269	0.053891	0.053553	136.064	29336.2	0.050413	0.093693	1452.23	87563.6
268	2.000000	1.048584	7.36768e+06	-52039.1	955.819	-29750.8	0.000000	0.000000	7.054528	145.285	NaN	0.000000	0.001613	0.001656	28.0781	54.3467	0.001797	30240.5	1.336022	178.731	139.769	1.048273	0.055868	0.055556	145.285	30240.5	0.052265	0.099542	1459.53	87570.5
268	2.000000	1.050581	7.36768e+06	-52039.1	955.819	-29750.8	0.000000	0.000000	7.056903	154.465	NaN	0.000000	0.001617	0.001642	28.0781	56.6684	0.001834	30903.8	6.122756	174.23	152.158	1.050278	0.057865	0.057562	154.465	30903.8	0.054116	0.105560	1463.29	86903.1
268	2.000000	1.052554	7.36768e+06	-52039.1	955.819	-29750.8	0.000000	0.000000	7.059198	162.305	NaN	0.000000	0.001596	0.001636	28.0784	58.7703	0.001795	32745.3	4.950486	175.424	158.932	1.052267	0.059838	0.059551	162.305	32745.3	0.056120	0.112265	1445.73	89289.5
268	2.000000	1.054569	7.36768e+06	-52039.1	955.818	-29750.8	0.000000	0.000000	7.061586	171.376	NaN	0.000000	0.001608	0.001647	28.0783	59.6845	0.001717	34760.5	5.567011	173.018	168.69	1.054309	0.061853	0.061593	171.376	34760.5	0.058155	0.119277	1436.79	91956.2
268	2.000000	1.056570	7.36768e+06	-52039.1	955.817	-29750.8	0.000000	0.000000	7.063797	176.487	NaN	0.000000	0.001563	0.001653	28.078	61.9587	0.001800	34418.1	1.889047	176.983	174.165	1.056356	0.063854	0.063640	176.487	34418.1	0.060008	0.125837	1402.51	88645.4
268	2.000000	1.058598	7.36768e+06	-52039.1	955.816	-29750.8	0.000000	0.000000	7.066547	194.018	NaN	0.000000	0.001588	0.001675	28.0783	64.4059	0.001786	36063	6.700390	172.535	191.782	1.058238	0.065882	0.065522	194.018	36063	0.061847	0.132515	1464.12	90511.1
268	2.000000	1.060647	7.36768e+06	-52039.1	955.818	-29750.8	0.000000	0.000000	7.068966	203.033	NaN	0.000000	0.001597	0.001672	28.0779	65.9864	0.001817	36306.7	8.296863	171.148	203.646	1.060245	0.067931	0.067529	203.033	36306.7	0.063737	0.139549	1454.92	88796.6
268	2.000000	1.062497	7.36768e+06	-52039.1	955.818	-29750.8	0.000000	0.000000	7.071219	212.82	NaN	0.000000	0.001613	0.001672	28.0781	67.2221	0.001854	36251.8	1.476669	177.524	208.202	1.062312	0.069781	0.069596	212.82	36251.8	0.065378	0.145797	1459.7	86741.6
268	2.000000	1.064571	7.36768e+06	-52039.1	955.818	-29750.8	0.000000	0.000000	7.073654	221.596	NaN	0.000000	0.001598	0.001669	28.0782	68.4725	0.001855	36906.3	6.228932	172.691	219.087	1.064254	0.071855	0.071538	221.596	36906.3	0.067352	0.153482	1443.79	86068.6
268	2.000000	1.066570	7.36768e+06	-52039.1	955.819	-29750.8	0.000000	0.000000	7.076251	236.135	NaN	0.000000	0.001565	0.001638	28.0781	71.2506	0.001737	41028.7	4.407236	173.871	234.466	1.066253	0.073854	0.073537	236.135	41028.7	0.069537	0.162211	1455.73	93072.3
268	2.000000	1.068624	7.36768e+06	-52039.1	955.818	-29750.8	0.000000	0.000000	7.078738	246.686	NaN	0.000000	0.001599	0.001640	28.0793	74.2741	0.001860	39922.7	6.954371	171.348	244.924	1.068271	0.075907	0.075555	246.686	39922.7	0.071273	0.169306	1457.05	88645.7
268	2.000000	1.070518	7.36768e+06	-52039.1	955.819	-29750.8	0.000000	0.000000	7.081135	258.92	NaN	0.000000	0.001598	0.001636	28.0793	75.2916	0.001986	37907.8	3.785933	175.235	255.1	1.070263	0.077801	0.077547	258.92	37907.8	0.072679	0.175155	1478.23	82754.3
268	2.000000	1.072540	7.36768e+06	-52039.1	955.819	-29750.8	0.000000	0.000000	7.083515	267.601	NaN	0.000000	0.001591	0.001653	28.0793	76.1206	0.001776	42872.4	6.702694	171.082	263.883	1.072285	0.079824	0.079569	267.601	42872.4	0.075143	0.185635	1441.54	90911.9
268	2.000000	1.074612	7.36768e+06	-52039.1	955.819	-29750.8	0.000000	0.000000	7.086209	282.727	NaN	0.000000	0.001648	0.001688	28.0795	76.149	0.001796	42393.6	4.106819	173.902	285.434	1.074316	0.081896	0.081600	282.727	42393.6	0.076894	0.193258	1462.95	88105.8
268	2.000000	1.076642	7.36768e+06	-52039.1	955.818	-29750.8	0.000000	0.000000	7.088881	298.348	NaN	0.000000	0.001595	0.001683	28.0794	79.7397	0.001787	44625.5	10.1692	168.026	300.748	1.076262	0.083925	0.083546	298.348	44625.5	0.078911	0.202215	1475.4	90667
268	2.000000	1.078589	7.36768e+06	-52039.1	955.818	-29750.8	0.000000	0.000000	7.091176	306.802	NaN	0.000000	0.001614	0.001699	28.0795	81.2533	0.001785	45519.2	5.405069	171.762	307.009	1.078221	0.085873	0.085505	306.802	45519.2	0.080818	0.210856	1455.03	90568.1
268	2.000000	1.080619	7.36768e+06	-52039.1	955.819	-29750.8	0.000000	0.000000	7.093793	321.084	NaN	0.000000	0.001590	0.001728	28.0794	82.0639	0.001877	43730.9	3.938767	174.462	323.625	1.080339	0.087903	0.087623	321.084	43730.9	0.082396	0.218136	1471.95	85545.7
268	2.000000	1.082492	7.36768e+06	-52039.1	955.819	-29750.8	0.000000	0.000000	7.096491	341.135	NaN	0.000000	0.001584	0.001669	28.0795	83.8369	0.001718	48795.1	3.463307	173.343	335.494	1.082136	0.089776	0.089419	341.135	48795.1	0.084532	0.228176	1495.05	93328.7
268	2.000000	1.084735	7.36768e+06	-52039.1	955.819	-29750.8	0.000000	0.000000	7.098322	331.136	NaN	0.000000	0.001582	0.001684	28.0796	84.9061	0.001768	48019.9	2.460335	174.064	335.59	1.084457	0.092018	0.091740	331.136	48019.9	0.086847	0.239289	1383.83	89687.8
268	2.000000	1.086525	7.36768e+06	-52039.1	955.819	-29750.8	0.000000	0.000000	7.101124	355.734	NaN	0.000000	0.001579	0.001676	28.0795	89.2088	0.001798	49623.7	4.921747	172.146	351.582	1.086164	0.093809	0.093448	355.734	49623.7	0.088432	0.247047	1439.94	91216.4
268	2.000000	1.088697	7.36768e+06	-52039.1	955.818	-29750.8	0.000000	0.000000	7.104078	374.744	NaN	0.000000	0.001583	0.001681	28.0795	92.0298	0.001886	48795.3	9.471011	169.64	377.6	1.088033	0.095981	0.095316	374.744	48795.3	0.090221	0.255934	1464.22	88122.5
268	2.000000	1.090430	7.36768e+06	-52039.1	955.82	-29750.8	0.000000	0.000000	7.106286	386.281	NaN	0.000000	0.001618	0.001658	28.0792	92.1472	0.001853	49726.6	4.201656	172.934	377.977	1.090066	0.097714	0.097349	386.281	49726.6	0.091888	0.264353	1461.23	88363
268	2.000000	1.092468	7.36768e+06	-52039.1	955.818	-29750.8	0.000000	0.000000	7.109318	410.46	NaN	0.000000	0.001630	0.001686	28.0795	93.7589	0.001772	52910	1.596724	175.359	403.621	1.092197	0.099752	0.099481	410.46	52910	0.093934	0.274854	1493.37	92206.2
268	2.000000	1.094620	7.36768e+06	-52039.1	955.819	-29750.8	0.000000	0.000000	7.111573	412.96	NaN	0.000000	0.001556	0.001721	28.0794	94.5395	0.001759	53732.9	0.893166	175.529	414.243	1.094334	0.101904	0.101618	412.96	53732.9	0.096140	0.286394	1441.93	91734.1
268	2.000000	1.096541	7.36768e+06	-52039.1	955.819	-29750.8	0.000000	0.000000	7.114452	436.26	NaN	0.000000	0.001622	0.001680	28.0797	98.3194	0.001715	57345.4	6.019079	169.557	433.664	1.096219	0.103825	0.103503	436.26	57345.4	0.098119	0.296935	1469.21	96148.1
268	2.000000	1.098651	7.36768e+06	-52039.1	955.819	-29750.8	0.000000	0.000000	7.117076	448.776	NaN	0.000000	0.001613	0.001710	28.0797	100.961	0.001774	56916.4	5.700440	171.038	449.096	1.098172	0.105934	0.105456	448.776	56916.4	0.100021	0.307232	1460.71	93816.1
268	2.000000	1.100496	7.36768e+06	-52039.1	955.82	-29750.8	0.000000	0.000000	7.119594	465.137	NaN	0.000000	0.001637	0.001683	28.0793	101.702	0.001716	59261.9	1.329618	174.201	460.612	1.100245	0.107780	0.107529	465.137	59261.9	0.101893	0.317531	1464.86	96085.1
268	2.000000	1.101040	7.36768e+06	-52039.1	955.82	-29750.8	0.000000	0.000000	7.120443	472.542	NaN	0.000000	0.001611	0.001658	28.0787	102.22	0.001809	56503.2	3.194507	-6.690285	467.816	1.100593	0.108323	0.107877	472.542	56503.2	0.102051	0.318407	1484.08	91486.1