File: remote_trans/data/nanoindenter/0828-1/data/Data_2025-08-06,11h17m57s/2025-07-22_16-23-58_1_775.txt
2025-07-22, 16:23:58, 1
Index	Phase	Displacement	Time	Pos X	Pos Y	Pos Z	Rot A	Rot B	Piezo Z	Force A	Force B	Gripper	Voltage A	Voltage B	Temperature	Amplitude force	Amplitude pos	Stiffness	Phase shift	Phase excitation	Force A raw	Displacement raw	HMax	HMax raw	Real Force	Real Stiffness	Contact Depth	Area	Hardness	Reduced Mod.
[#]	[#]	[um]	[s]	[um]	[um]	[um]	[m°]	[m°]	[um]	[uN]	[uN]	[V]	[V]	[V]	[°C]	[uN]	[um]	[N/m]	[°]	[°]	[uN]	[um]	[um]	[um]	[uN]	[N/m]	[um]	[um^2]	[MPa]	[MPa]
775	1.000000	0.002308	7.37264e+06	-38889.1	1055.82	-29795.8	0.000000	0.000000	6.002801	-0.018218	NaN	0.000000	0.001773	0.001743	28.0826	0.059943	0.001068	56.1456	-77.0557	-164.461	-0.002870	0.001044	-1.037727	-1.038991	-0.018218	56.1456	-1.037483	-7.246426E+13	2.514045E-16	NaN
775	1.000000	0.010253	7.37264e+06	-38889.1	1055.82	-29795.8	0.000000	0.000000	6.010745	-0.027606	NaN	0.000000	0.001712	0.001745	28.0825	0.024801	0.001025	24.2058	-36.5442	-159.163	-0.030688	0.008922	-1.029782	-1.031113	-0.027606	24.2058	-1.028926	-5.559521E+13	4.965580E-16	NaN
775	1.000000	0.018256	7.37264e+06	-38889.1	1055.82	-29795.8	0.000000	0.000000	6.018748	-0.007650	NaN	0.000000	0.001675	0.001770	28.0827	0.011800	0.001625	7.260984	-155.521	-162.25	-0.064291	0.016914	-1.021779	-1.023121	-0.007650	7.260984	-1.020989	-4.347719E+13	1.759490E-16	NaN
775	1.000000	0.026323	7.37264e+06	-38889.1	1055.82	-29795.9	0.000000	0.000000	6.026817	0.021245	NaN	0.000000	0.001661	0.001704	28.0826	0.006540	0.001868	3.500890	23.6616	-161.294	-0.004946	0.024941	-1.013712	-1.015094	0.021245	3.500890	-1.018263	-3.995623E+13	-5.317058E-16	NaN
775	1.000000	0.034222	7.37264e+06	-38889.1	1055.82	-29795.9	0.000000	0.000000	6.034715	0.011400	NaN	0.000000	0.001642	0.001742	28.0827	0.103671	0.001903	54.4747	130.392	-165.2	-0.051302	0.032915	-1.005813	-1.007120	0.011400	54.4747	-1.005970	-2.729854E+13	-4.176205E-16	NaN
775	1.000000	0.042263	7.37264e+06	-38889.1	1055.82	-29795.9	0.000000	0.000000	6.042756	-0.007487	NaN	0.000000	0.001681	0.001706	28.0838	0.091662	0.001907	48.0751	-150.057	-166.028	-0.019940	0.040968	-0.997772	-0.999067	-0.007487	48.0751	-0.997655	-2.109587E+13	3.549056E-16	NaN
775	1.000000	0.050258	7.37264e+06	-38889.1	1055.82	-29795.9	0.000000	0.000000	6.050748	-0.079272	NaN	0.000000	0.001659	0.001716	28.0838	0.058210	0.002077	28.0259	-71.0299	-166.243	-0.039266	0.048958	-0.989777	-0.991077	-0.079272	28.0259	-0.987655	-1.547151E+13	5.123761E-15	NaN
775	1.000000	0.058255	7.37264e+06	-38889.1	1055.82	-29795.9	0.000000	0.000000	6.058748	-0.005249	NaN	0.000000	0.001697	0.001714	28.0845	0.038736	0.002118	18.2924	97.2668	-166.788	0.008744	0.056960	-0.981780	-0.983075	-0.005249	18.2924	-0.981564	-1.280816E+13	4.098033E-16	NaN
775	1.000000	0.066251	7.37264e+06	-38889.1	1055.82	-29795.9	0.000000	0.000000	6.066743	-0.027059	NaN	0.000000	0.001735	0.001706	28.0839	0.012240	0.001858	6.588755	-8.978431	-165.234	-0.023656	0.064980	-0.973784	-0.975055	-0.027059	6.588755	-0.970704	-9.144183E+12	2.959163E-15	NaN
775	1.000000	0.074239	7.37264e+06	-38889.1	1055.82	-29795.9	0.000000	0.000000	6.074731	-0.019398	NaN	0.000000	0.001688	0.001738	28.0839	0.104613	0.001892	55.3007	3.628325	-166.195	-0.008199	0.072965	-0.965796	-0.967070	-0.019398	55.3007	-0.965533	-7.788618E+12	2.490564E-15	NaN
775	1.000000	0.082251	7.37264e+06	-38889.1	1055.82	-29795.9	0.000000	0.000000	6.082744	0.003427	NaN	0.000000	0.001691	0.001756	28.0839	0.070866	0.002071	34.2248	105.075	-167.14	0.010733	0.080913	-0.957784	-0.959122	0.003427	34.2248	-0.957859	-6.137716E+12	-5.583739E-16	NaN
775	1.000000	0.090300	7.37264e+06	-38889.1	1055.82	-29795.9	0.000000	0.000000	6.090790	-0.071439	NaN	0.000000	0.001720	0.001754	28.0838	0.058995	0.001960	30.1008	94.0903	-163.388	-0.047465	0.089003	-0.949735	-0.951032	-0.071439	30.1008	-0.947955	-4.512778E+12	1.583032E-14	NaN
775	1.000000	0.098266	7.37264e+06	-38889.1	1055.82	-29795.9	0.000000	0.000000	6.098758	-0.028263	NaN	0.000000	0.001702	0.001766	28.0839	0.075491	0.001954	38.6264	10.1767	-160.519	-0.062112	0.096996	-0.941769	-0.943039	-0.028263	38.6264	-0.941220	-3.660984E+12	7.720161E-15	NaN
775	1.000000	0.106261	7.37264e+06	-38889.1	1055.82	-29795.9	0.000000	0.000000	6.106753	-0.045953	NaN	0.000000	0.001670	0.001754	28.0838	0.046783	0.001951	23.9811	-149.216	-162.739	-0.003760	0.104957	-0.933774	-0.935078	-0.045953	23.9811	-0.932337	-2.777997E+12	1.654163E-14	NaN
775	1.000000	0.114301	7.37264e+06	-38889.1	1055.82	-29795.9	0.000000	0.000000	6.114796	0.036015	NaN	0.000000	0.001677	0.001756	28.0837	0.037868	0.002032	18.6368	-87.9702	-160.807	0.042269	0.113011	-0.925734	-0.927024	0.036015	18.6368	-0.927183	-2.366870E+12	-1.521644E-14	NaN
775	1.000000	0.122278	7.37264e+06	-38889.1	1055.82	-29795.9	0.000000	0.000000	6.122772	0.033789	NaN	0.000000	0.001669	0.001744	28.0834	0.010898	0.001915	5.691636	-37.7141	-162.687	0.000210	0.120917	-0.917757	-0.919118	0.033789	5.691636	-0.922210	-2.027875E+12	-1.666229E-14	NaN
775	1.000000	0.130298	7.37264e+06	-38889.1	1055.82	-29795.9	0.000000	0.000000	6.130791	-0.004701	NaN	0.000000	0.001679	0.001759	28.0838	0.080002	0.001833	43.653	65.8589	-165.46	-0.025430	0.128963	-0.909737	-0.911072	-0.004701	43.653	-0.909656	-1.372518E+12	3.424866E-15	NaN
775	1.000000	0.138289	7.37264e+06	-38889.1	1055.82	-29795.9	0.000000	0.000000	6.138783	0.024491	NaN	0.000000	0.001678	0.001755	28.0836	0.063351	0.001830	34.6234	143.436	-168.621	0.032291	0.136974	-0.901746	-0.903061	0.024491	34.6234	-0.902276	-1.091001E+12	-2.244808E-14	NaN
775	1.000000	0.146287	7.37264e+06	-38889.1	1055.82	-29795.9	0.000000	0.000000	6.146780	0.004372	NaN	0.000000	0.001664	0.001735	28.0838	0.095472	0.002003	47.6743	-91.1827	-162.817	0.046733	0.144945	-0.893748	-0.895090	0.004372	47.6743	-0.893817	-8.385043E+11	-5.214033E-15	NaN
775	1.000000	0.154278	7.37264e+06	-38889.1	1055.82	-29795.9	0.000000	0.000000	6.154771	-0.014156	NaN	0.000000	0.001648	0.001770	28.0841	0.090795	0.002084	43.563	-126.007	-165.529	-0.028447	0.152999	-0.885757	-0.887036	-0.014156	43.563	-0.885513	-6.475217E+11	2.186158E-14	NaN
775	1.000000	0.162336	7.37264e+06	-38889.1	1055.82	-29795.9	0.000000	0.000000	6.162830	0.019857	NaN	0.000000	0.001661	0.001841	28.0837	0.091256	0.002050	44.5044	119.868	-165.549	-0.083396	0.160962	-0.877699	-0.879073	0.019857	44.5044	-0.878034	-5.129972E+11	-3.870730E-14	NaN
775	1.000000	0.170321	7.37264e+06	-38889.1	1055.82	-29795.9	0.000000	0.000000	6.170817	0.076130	NaN	0.000000	0.001690	0.001832	28.084	0.027765	0.001904	14.5807	75.4126	-164.502	0.064930	0.168999	-0.869714	-0.871036	0.076130	14.5807	-0.873630	-4.472523E+11	-1.702161E-13	NaN
775	1.000000	0.178305	7.37264e+06	-38889.1	1055.82	-29795.9	0.000000	0.000000	6.178801	0.064073	NaN	0.000000	0.001679	0.001817	28.082	0.063525	0.002082	30.5093	-64.2806	-160.106	0.082089	0.176979	-0.861730	-0.863056	0.064073	30.5093	-0.863305	-3.242274E+11	-1.976172E-13	NaN
775	1.000000	0.186332	7.37264e+06	-38889.1	1055.82	-29795.9	0.000000	0.000000	6.186825	-0.022123	NaN	0.000000	0.001685	0.001850	28.0823	0.047010	0.001976	23.7902	-119.319	-165.915	0.055240	0.185036	-0.853703	-0.854999	-0.022123	23.7902	-0.853005	-2.351955E+11	9.406105E-14	NaN
775	1.000000	0.194315	7.37264e+06	-38889.1	1055.82	-29795.9	0.000000	0.000000	6.194810	0.054202	NaN	0.000000	0.001709	0.001839	28.0826	0.168310	0.002067	81.4441	8.002342	-163.814	0.017747	0.192965	-0.845720	-0.847070	0.054202	81.4441	-0.846219	-1.903428E+11	-2.847579E-13	NaN
775	1.000000	0.202304	7.37264e+06	-38889.1	1055.82	-29795.9	0.000000	0.000000	6.202796	-0.026420	NaN	0.000000	0.001664	0.001835	28.0825	0.100283	0.002079	48.2249	9.441193	-162.731	0.034464	0.200998	-0.837731	-0.839037	-0.026420	48.2249	-0.837320	-1.442045E+11	1.832125E-13	NaN
775	1.000000	0.210310	7.37264e+06	-38889.1	1055.82	-29795.9	0.000000	0.000000	6.210804	0.036676	NaN	0.000000	0.001663	0.001789	28.0834	0.109579	0.002071	52.923	-170.427	-164.241	0.151265	0.208998	-0.829725	-0.831037	0.036676	52.923	-0.830245	-1.156399E+11	-3.171538E-13	NaN
775	1.000000	0.218323	7.37264e+06	-38889.1	1055.82	-29795.9	0.000000	0.000000	6.218814	-0.033623	NaN	0.000000	0.001695	0.001857	28.0826	0.021839	0.001953	11.1814	56.6016	-163.395	-0.011405	0.216993	-0.821712	-0.823042	-0.033623	11.1814	-0.819457	-8.257484E+10	4.071855E-13	NaN
775	1.000000	0.226342	7.37264e+06	-38889.1	1055.82	-29795.9	0.000000	0.000000	6.226835	0.000436	NaN	0.000000	0.001682	0.001735	28.0826	0.035367	0.002072	17.0666	-53.7996	-163.571	-0.042032	0.225043	-0.813693	-0.814992	0.000436	17.0666	-0.813712	-6.901264E+10	-6.312561E-15	NaN
775	1.000000	0.234339	7.37264e+06	-38889.1	1055.82	-29795.9	0.000000	0.000000	6.234834	0.033862	NaN	0.000000	0.001681	0.001736	28.0828	0.069161	0.001968	35.1468	-89.4525	-164.816	0.029910	0.233084	-0.805696	-0.806951	0.033862	35.1468	-0.806418	-5.495041E+10	-6.162359E-13	NaN
775	1.000000	0.242372	7.37264e+06	-38889.1	1055.82	-29795.9	0.000000	0.000000	6.242864	-0.024155	NaN	0.000000	0.001644	0.001734	28.0825	0.016637	0.002064	8.062115	54.942	-162.381	-0.071337	0.240957	-0.797663	-0.799078	-0.024155	8.062115	-0.795416	-3.896061E+10	6.199783E-13	NaN
775	1.000000	0.250333	7.37264e+06	-38889.1	1055.82	-29795.9	0.000000	0.000000	6.250827	0.014738	NaN	0.000000	0.001634	0.001727	28.0828	0.050231	0.002068	24.2874	60.7952	-162.971	0.009277	0.249056	-0.789702	-0.790979	0.014738	24.2874	-0.790157	-3.305328E+10	-4.458772E-13	NaN
775	1.000000	0.258355	7.37264e+06	-38889.1	1055.82	-29795.9	0.000000	0.000000	6.258850	0.055538	NaN	0.000000	0.001671	0.001760	28.0825	0.053470	0.002046	26.1383	33.1199	-164.851	-0.044029	0.256981	-0.781680	-0.783054	0.055538	26.1383	-0.783274	-2.665085E+10	-2.083902E-12	NaN
775	1.000000	0.266334	7.37264e+06	-38889.1	1055.82	-29795.9	0.000000	0.000000	6.266827	-0.007377	NaN	0.000000	0.001668	0.001758	28.0827	0.039293	0.002065	19.0239	35.3583	-163.562	-0.003359	0.265033	-0.773701	-0.775002	-0.007377	19.0239	-0.773410	-1.957333E+10	3.768854E-13	NaN
775	1.000000	0.274342	7.37264e+06	-38889.1	1055.82	-29795.9	0.000000	0.000000	6.274833	-0.038823	NaN	0.000000	0.001690	0.001769	28.0829	0.066281	0.001995	33.2207	111.645	-162.329	0.014420	0.273063	-0.765693	-0.766972	-0.038823	33.2207	-0.764817	-1.495617E+10	2.595779E-12	NaN
775	1.000000	0.282367	7.37264e+06	-38889.1	1055.82	-29795.9	0.000000	0.000000	6.282856	-0.086389	NaN	0.000000	0.001696	0.001765	28.0828	0.054859	0.002007	27.3356	-63.3898	-165.782	-0.044403	0.281048	-0.757668	-0.758987	-0.086389	27.3356	-0.755298	-1.110004E+10	7.782774E-12	NaN
775	1.000000	0.290339	7.37264e+06	-38889.1	1055.82	-29795.9	0.000000	0.000000	6.290832	-0.004724	NaN	0.000000	0.001694	0.001741	28.0828	0.050371	0.002129	23.6592	-66.2374	-161.67	-0.001186	0.289060	-0.749696	-0.750975	-0.004724	23.6592	-0.749546	-9.269145E+9	5.096970E-13	NaN
775	1.000000	0.298358	7.37264e+06	-38889.1	1055.82	-29795.9	0.000000	0.000000	6.298849	-0.046690	NaN	0.000000	0.001675	0.001765	28.0826	0.074942	0.001856	40.3808	-129.066	-164.485	-0.012213	0.297025	-0.741677	-0.743010	-0.046690	40.3808	-0.740810	-7.048363E+9	6.624284E-12	NaN
775	1.000000	0.306396	7.37264e+06	-38889.1	1055.82	-29795.9	0.000000	0.000000	6.306888	-0.038661	NaN	0.000000	0.001675	0.001773	28.0828	0.029189	0.001848	15.7934	128.374	-161.884	0.062894	0.305073	-0.733639	-0.734962	-0.038661	15.7934	-0.731803	-5.313430E+9	7.276089E-12	NaN
775	1.000000	0.314342	7.37264e+06	-38889.1	1055.82	-29795.9	0.000000	0.000000	6.314836	0.003654	NaN	0.000000	0.001677	0.001761	28.0837	0.046772	0.002066	22.6414	80.7182	-165.079	-0.013789	0.313093	-0.725693	-0.726942	0.003654	22.6414	-0.725814	-4.402957E+9	-8.298209E-13	NaN
775	1.000000	0.322390	7.37264e+06	-38889.1	1055.82	-29795.9	0.000000	0.000000	6.322885	0.045637	NaN	0.000000	0.001685	0.001745	28.0834	0.024167	0.001925	12.5542	-39.1432	-164.783	0.044722	0.321049	-0.717645	-0.718986	0.045637	12.5542	-0.720372	-3.711446E+9	-1.229635E-11	NaN
775	1.000000	0.330376	7.37264e+06	-38889.1	1055.82	-29795.9	0.000000	0.000000	6.330868	-0.046473	NaN	0.000000	0.001696	0.001776	28.0835	0.070242	0.001943	36.1535	-87.391	-163.59	-0.014414	0.329104	-0.709659	-0.710931	-0.046473	36.1535	-0.708695	-2.571775E+9	1.807057E-11	NaN
775	1.000000	0.338367	7.37264e+06	-38889.1	1055.82	-29795.9	0.000000	0.000000	6.338860	-0.011663	NaN	0.000000	0.001702	0.001773	28.0833	0.037526	0.001913	19.6186	61.5631	-166.766	-0.073893	0.337053	-0.701668	-0.702982	-0.011663	19.6186	-0.701222	-2.033371E+9	5.735800E-12	NaN
775	1.000000	0.346369	7.37264e+06	-38889.1	1055.82	-29795.9	0.000000	0.000000	6.346861	-0.012117	NaN	0.000000	0.001700	0.001783	28.0838	0.096138	0.001904	50.4934	-104.484	-165.966	-0.006955	0.345074	-0.693666	-0.694961	-0.012117	50.4934	-0.693486	-1.594255E+9	7.600704E-12	NaN
775	1.000000	0.354370	7.37264e+06	-38889.1	1055.82	-29795.9	0.000000	0.000000	6.354866	0.047556	NaN	0.000000	0.001690	0.001765	28.0837	0.050689	0.002043	24.8116	-134.206	-164.456	0.025245	0.353090	-0.685665	-0.686945	0.047556	24.8116	-0.687102	-1.304097E+9	-3.646651E-11	NaN
775	1.000000	0.362385	7.37264e+06	-38889.1	1055.82	-29795.9	0.000000	0.000000	6.362878	-0.007466	NaN	0.000000	0.001695	0.001747	28.0837	0.005537	0.001909	2.899980	46.5255	-162.969	0.018282	0.361102	-0.677650	-0.678933	-0.007466	2.899980	-0.675719	-9.112784E+8	8.193253E-12	NaN
775	1.000000	0.370380	7.37264e+06	-38889.1	1055.82	-29795.9	0.000000	0.000000	6.370876	0.049994	NaN	0.000000	0.001671	0.001758	28.0835	0.077222	0.001954	39.5203	99.7666	-164.92	0.056557	0.369090	-0.669655	-0.670945	0.049994	39.5203	-0.670603	-7.756181E+8	-6.445646E-11	NaN
775	1.000000	0.378385	7.37264e+06	-38889.1	1055.82	-29795.9	0.000000	0.000000	6.378879	0.017179	NaN	0.000000	0.001695	0.001750	28.0836	0.044115	0.002075	21.2639	-135.295	-164.768	0.047789	0.377076	-0.661650	-0.662959	0.017179	21.2639	-0.662256	-5.961721E+8	-2.881613E-11	NaN
775	1.000000	0.386397	7.37264e+06	-38889.1	1055.82	-29795.9	0.000000	0.000000	6.386892	0.042656	NaN	0.000000	0.001693	0.001764	28.0835	0.051421	0.001994	25.7827	139.058	-167.527	0.029240	0.385119	-0.653638	-0.654916	0.042656	25.7827	-0.654879	-4.724017E+8	-9.029622E-11	NaN
775	1.000000	0.394415	7.37264e+06	-38889.1	1055.82	-29795.9	0.000000	0.000000	6.394911	0.065763	NaN	0.000000	0.001655	0.001777	28.0835	0.047991	0.002014	23.8266	-3.262264	-166.085	0.075341	0.393069	-0.645620	-0.646966	0.065763	23.8266	-0.647690	-3.765049E+8	-1.746678E-10	NaN
775	1.000000	0.402395	7.37264e+06	-38889.1	1055.82	-29795.9	0.000000	0.000000	6.402888	0.009615	NaN	0.000000	0.001729	0.001701	28.0838	0.101411	0.002040	49.7061	78.11	-165.727	-0.029638	0.401034	-0.637640	-0.639001	0.009615	49.7061	-0.637785	-2.753599E+8	-3.491645E-11	NaN
775	1.000000	0.410393	7.37264e+06	-38889.1	1055.82	-29795.9	0.000000	0.000000	6.410883	-0.081178	NaN	0.000000	0.001701	0.001765	28.0836	0.029653	0.002050	14.4662	-178.413	-165.043	-0.176259	0.409088	-0.629642	-0.630947	-0.081178	14.4662	-0.625433	-1.863366E+8	4.356504E-10	NaN
775	1.000000	0.418397	7.37264e+06	-38889.1	1055.82	-29795.9	0.000000	0.000000	6.418889	-0.026126	NaN	0.000000	0.001695	0.001726	28.0837	0.082174	0.001990	41.2848	-50.9814	-164.798	-0.030844	0.417085	-0.621638	-0.622950	-0.026126	41.2848	-0.621163	-1.627869E+8	1.604902E-10	NaN
775	1.000000	0.426393	7.37264e+06	-38889.1	1055.82	-29795.9	0.000000	0.000000	6.426888	0.030051	NaN	0.000000	0.001686	0.001721	28.0834	0.131518	0.001965	66.9445	153.512	-164.308	-0.048610	0.425056	-0.613642	-0.614979	0.030051	66.9445	-0.613979	-1.296709E+8	-2.317475E-10	NaN
775	1.000000	0.434440	7.37264e+06	-38889.1	1055.82	-29795.9	0.000000	0.000000	6.434932	-0.032070	NaN	0.000000	0.001644	0.001726	28.0834	0.032393	0.002021	16.0293	150.254	-163.849	-0.079150	0.433122	-0.605595	-0.606913	-0.032070	16.0293	-0.604094	-9.480659E+7	3.382639E-10	NaN
775	1.000000	0.442435	7.37264e+06	-38889.1	1055.82	-29795.9	0.000000	0.000000	6.442929	0.008759	NaN	0.000000	0.001703	0.001731	28.0836	0.056576	0.001994	28.3668	130.306	-162.859	-0.024065	0.441136	-0.597600	-0.598899	0.008759	28.3668	-0.597831	-7.773032E+7	-1.126880E-10	NaN
775	1.000000	0.450421	7.37264e+06	-38889.1	1055.82	-29795.9	0.000000	0.000000	6.450914	-0.013046	NaN	0.000000	0.001706	0.001710	28.0822	0.143105	0.002014	71.0707	15.2846	-164.901	-0.028905	0.449133	-0.589614	-0.590902	-0.013046	71.0707	-0.589476	-5.962748E+7	2.187844E-10	NaN
775	1.000000	0.458421	7.37264e+06	-38889.1	1055.82	-29795.9	0.000000	0.000000	6.458912	-0.035602	NaN	0.000000	0.001677	0.001732	28.0826	0.018182	0.002004	9.071080	8.204083	-165.395	-0.010913	0.457090	-0.581614	-0.582945	-0.035602	9.071080	-0.578671	-4.230370E+7	8.415728E-10	NaN
775	1.000000	0.466438	7.37264e+06	-38889.1	1055.82	-29795.9	0.000000	0.000000	6.466928	-0.093471	NaN	0.000000	0.001682	0.001721	28.0823	0.057226	0.001919	29.8226	147.432	-166.542	-0.071169	0.465057	-0.573597	-0.574978	-0.093471	29.8226	-0.571246	-3.340764E+7	2.797895E-9	NaN
775	1.000000	0.474466	7.37264e+06	-38889.1	1055.82	-29795.9	0.000000	0.000000	6.474962	0.074001	NaN	0.000000	0.001689	0.001696	28.0824	0.025648	0.002004	12.8002	3.138119	-165.853	0.140997	0.473111	-0.565569	-0.566924	0.074001	12.8002	-0.569905	-3.201239E+7	-2.311649E-9	NaN
775	1.000000	0.482427	7.37264e+06	-38889.1	1055.82	-29795.9	0.000000	0.000000	6.482922	0.049393	NaN	0.000000	0.001733	0.001731	28.0822	0.081815	0.001877	43.5851	-9.288789	-166.027	0.030281	0.481157	-0.557608	-0.558878	0.049393	43.5851	-0.558458	-2.223566E+7	-2.221327E-9	NaN
775	1.000000	0.490407	7.37264e+06	-38889.1	1055.82	-29795.9	0.000000	0.000000	6.490896	-0.094163	NaN	0.000000	0.001706	0.001742	28.0823	0.112864	0.001903	59.2926	74.7801	-163.867	-0.050935	0.489196	-0.549628	-0.550839	-0.094163	59.2926	-0.548437	-1.615484E+7	5.828753E-9	NaN
775	1.000000	0.498437	7.37264e+06	-38889.1	1055.82	-29795.9	0.000000	0.000000	6.498930	-0.007776	NaN	0.000000	0.001708	0.001714	28.0827	0.052323	0.001844	28.3703	72.8466	-160.985	-0.054557	0.497082	-0.541598	-0.542953	-0.007776	28.3703	-0.541392	-1.290220E+7	6.027192E-10	NaN
775	1.000000	0.506468	7.37264e+06	-38889.1	1055.82	-29795.9	0.000000	0.000000	6.506964	0.068684	NaN	0.000000	0.001684	0.001734	28.0822	0.050384	0.002013	25.0333	29.8623	-165.988	-0.047887	0.505110	-0.533567	-0.534925	0.068684	25.0333	-0.535625	-1.073151E+7	-6.400242E-9	NaN
775	1.000000	0.514432	7.37264e+06	-38889.1	1055.82	-29795.9	0.000000	0.000000	6.514924	-0.032771	NaN	0.000000	0.001717	0.001722	28.0823	0.056979	0.002038	27.9575	92.0908	-164.781	-0.012405	0.513145	-0.525603	-0.526890	-0.032771	27.9575	-0.524724	-7.57305e+06	4.327354E-9	NaN
775	1.000000	0.522444	7.37264e+06	-38889.1	1055.82	-29795.9	0.000000	0.000000	6.522939	0.055123	NaN	0.000000	0.001668	0.001770	28.0822	0.047327	0.002185	21.6576	-121.406	-162.691	0.064077	0.521125	-0.517591	-0.518910	0.055123	21.6576	-0.519500	-6.40681e+06	-8.603884E-9	NaN
775	1.000000	0.530458	7.37264e+06	-38889.1	1055.82	-29795.9	0.000000	0.000000	6.530952	0.009869	NaN	0.000000	0.001709	0.001710	28.0822	0.080287	0.002137	37.5663	28.2574	-164.954	-0.062165	0.529142	-0.509577	-0.510893	0.009869	37.5663	-0.509774	-4.69103e+06	-2.103837E-9	NaN
775	1.000000	0.538448	7.37264e+06	-38889.1	1055.82	-29795.9	0.000000	0.000000	6.538937	-0.092444	NaN	0.000000	0.001701	0.001769	28.0825	0.019192	0.001985	9.670611	46.5019	-167.133	-0.042475	0.537129	-0.501587	-0.502906	-0.092444	9.670611	-0.494418	-2.86487e+06	3.226800E-8	NaN
775	1.000000	0.546460	7.37264e+06	-38889.1	1055.82	-29795.9	0.000000	0.000000	6.546953	-0.013622	NaN	0.000000	0.001710	0.001723	28.0826	0.045916	0.001956	23.4712	-173.631	-165.49	-0.091652	0.545165	-0.493575	-0.494870	-0.013622	23.4712	-0.493139	-2.74949e+06	4.954200E-9	NaN
775	1.000000	0.554488	7.37264e+06	-38889.1	1055.82	-29795.9	0.000000	0.000000	6.554983	0.051041	NaN	0.000000	0.001665	0.001750	28.0825	0.076724	0.002086	36.7745	-45.7596	-164.231	0.122574	0.553126	-0.485547	-0.486909	0.051041	36.7745	-0.486588	-2.22689e+06	-2.292033E-8	NaN
775	1.000000	0.562496	7.37264e+06	-38889.1	1055.82	-29795.9	0.000000	0.000000	6.562987	-0.043178	NaN	0.000000	0.001708	0.001760	28.0826	0.123441	0.001993	61.9225	-133.072	-163.729	0.005123	0.561099	-0.477539	-0.478936	-0.043178	61.9225	-0.477016	-1.63587e+06	2.639475E-8	NaN
775	1.000000	0.570507	7.37264e+06	-38889.1	1055.82	-29795.9	0.000000	0.000000	6.570999	-0.034235	NaN	0.000000	0.001685	0.001748	28.0826	0.030410	0.002123	14.3268	-93.0774	-163.426	0.005857	0.569194	-0.469528	-0.470841	-0.034235	14.3268	-0.467736	-1.2124e+06	2.823728E-8	NaN
775	1.000000	0.578459	7.37264e+06	-38889.1	1055.82	-29795.9	0.000000	0.000000	6.578949	-0.074279	NaN	0.000000	0.001725	0.001748	28.0824	0.078026	0.002013	38.7588	145.365	-163.451	-0.116293	0.577176	-0.461576	-0.462859	-0.074279	38.7588	-0.460139	-948353	7.832428E-8	NaN
775	1.000000	0.586489	7.37264e+06	-38889.1	1055.82	-29795.9	0.000000	0.000000	6.586986	0.087916	NaN	0.000000	0.001725	0.001756	28.0836	0.083231	0.001997	41.687	-174.602	-166.371	0.035233	0.585201	-0.453546	-0.454834	0.087916	41.687	-0.455128	-806334	-1.090313E-7	NaN
775	1.000000	0.594490	7.37264e+06	-38889.1	1055.82	-29795.9	0.000000	0.000000	6.594986	0.056933	NaN	0.000000	0.001717	0.001764	28.0839	0.021319	0.001958	10.8863	177.899	-167.407	-0.047488	0.593163	-0.445545	-0.446872	0.056933	10.8863	-0.449467	-671180	-8.482549E-8	NaN
775	1.000000	0.602487	7.37264e+06	-38889.1	1055.82	-29795.9	0.000000	0.000000	6.602980	0.010542	NaN	0.000000	0.001685	0.001763	28.0839	0.083276	0.002123	39.2219	44.3315	-164.525	0.085884	0.601178	-0.437548	-0.438857	0.010542	39.2219	-0.437750	-458775	-2.297833E-8	NaN
775	1.000000	0.610483	7.37264e+06	-38889.1	1055.82	-29795.9	0.000000	0.000000	6.610977	0.038795	NaN	0.000000	0.001699	0.001746	28.0839	0.107493	0.002024	53.1042	-130.118	-164.427	0.004821	0.609174	-0.429553	-0.430861	0.038795	53.1042	-0.430100	-357670	-1.084652E-7	NaN
775	1.000000	0.618502	7.37264e+06	-38889.1	1055.82	-29795.9	0.000000	0.000000	6.618995	0.003267	NaN	0.000000	0.001722	0.001748	28.0835	0.095938	0.002051	46.767	-100.206	-163.691	0.078155	0.617169	-0.421533	-0.422866	0.003267	46.767	-0.421585	-270953	-1.205638E-8	NaN
775	1.000000	0.626517	7.37264e+06	-38889.1	1055.82	-29795.9	0.000000	0.000000	6.627011	0.031558	NaN	0.000000	0.001730	0.001787	28.0836	0.039317	0.001872	21.0001	145.307	-164.264	0.001148	0.625164	-0.413518	-0.414871	0.031558	21.0001	-0.414645	-215980	-1.461130E-7	NaN
775	1.000000	0.634508	7.37264e+06	-38889.1	1055.82	-29795.9	0.000000	0.000000	6.634998	-0.067857	NaN	0.000000	0.001688	0.001717	28.0836	0.030878	0.001960	15.7576	42.7256	-162.22	-0.050096	0.633170	-0.405527	-0.406865	-0.067857	15.7576	-0.402297	-144127	4.708158E-7	NaN
775	1.000000	0.642463	7.37264e+06	-38889.1	1055.82	-29795.9	0.000000	0.000000	6.642958	0.036002	NaN	0.000000	0.001685	0.001787	28.0836	0.165325	0.001982	83.4135	63.2185	-162.015	0.026739	0.641191	-0.397572	-0.398844	0.036002	83.4135	-0.397895	-124730	-2.886439E-7	NaN
775	1.000000	0.650512	7.37264e+06	-38889.1	1055.82	-29795.9	0.000000	0.000000	6.651004	-0.036316	NaN	0.000000	0.001691	0.001759	28.084	0.063566	0.002041	31.1466	-60.4871	-166.793	0.034696	0.649215	-0.389523	-0.390820	-0.036316	31.1466	-0.388648	-92007.6	3.947102E-7	NaN
775	1.000000	0.658504	7.37264e+06	-38889.1	1055.82	-29795.9	0.000000	0.000000	6.658996	-0.042284	NaN	0.000000	0.001698	0.001743	28.0839	0.079942	0.002205	36.2507	132.571	-163.783	0.011896	0.657148	-0.381531	-0.382887	-0.042284	36.2507	-0.380656	-70680.5	5.982408E-7	NaN
775	1.000000	0.666475	7.37264e+06	-38889.1	1055.82	-29795.9	0.000000	0.000000	6.666965	-0.078420	NaN	0.000000	0.001692	0.001709	28.0843	0.044939	0.002009	22.3738	95.0509	-168.518	-0.012393	0.665233	-0.373560	-0.374802	-0.078420	22.3738	-0.370931	-51230.7	1.530732E-6	NaN
775	1.000000	0.674531	7.37264e+06	-38889.1	1055.82	-29795.9	0.000000	0.000000	6.675023	-0.033070	NaN	0.000000	0.001667	0.001744	28.0838	0.047182	0.001981	23.8137	-71.7031	-162.929	-0.072829	0.673240	-0.365504	-0.366795	-0.033070	23.8137	-0.364462	-41332.6	8.000937E-7	NaN
775	1.000000	0.682520	7.37264e+06	-38889.1	1055.82	-29795.9	0.000000	0.000000	6.683013	-0.002883	NaN	0.000000	0.001709	0.001720	28.0839	0.039269	0.002026	19.3845	91.8863	-165.943	-0.038231	0.681208	-0.357515	-0.358827	-0.002883	19.3845	-0.357404	-32681.2	8.823030E-8	NaN
775	1.000000	0.690531	7.37264e+06	-38889.1	1055.82	-29795.9	0.000000	0.000000	6.691024	-0.018342	NaN	0.000000	0.001711	0.001742	28.084	0.078972	0.002012	39.25	-151.236	-161.869	-0.069831	0.689226	-0.349504	-0.350809	-0.018342	39.25	-0.349153	-24814.9	7.391571E-7	NaN
775	1.000000	0.698532	7.37264e+06	-38889.1	1055.82	-29795.9	0.000000	0.000000	6.699024	-0.014582	NaN	0.000000	0.001659	0.001771	28.0838	0.063180	0.001878	33.6433	61.0787	-162.078	-0.044215	0.697245	-0.341503	-0.342790	-0.014582	33.6433	-0.341178	-18998.6	7.675119E-7	NaN
775	1.000000	0.706522	7.37264e+06	-38889.1	1055.82	-29795.9	0.000000	0.000000	6.707014	-0.015352	NaN	0.000000	0.001687	0.001749	28.0841	0.065883	0.001998	32.9751	60.4249	-164.456	-0.000588	0.705219	-0.333513	-0.334816	-0.015352	32.9751	-0.333164	-14512.9	1.057837E-6	NaN
775	1.000000	0.714535	7.37264e+06	-38889.1	1055.82	-29795.9	0.000000	0.000000	6.715032	0.078647	NaN	0.000000	0.001664	0.001734	28.0836	0.100081	0.001915	52.2666	125.351	-166.166	0.056888	0.713255	-0.325500	-0.326780	0.078647	52.2666	-0.326628	-11642	-6.755440E-6	NaN
775	1.000000	0.722557	7.37264e+06	-38889.1	1055.82	-29795.9	0.000000	0.000000	6.723051	1.071215E-5	NaN	0.000000	0.001656	0.001763	28.0827	0.089585	0.002067	43.346	-165.128	-165.382	0.005105	0.721230	-0.317478	-0.318805	1.071215E-5	43.346	-0.317478	-8540.64	-1.254257E-9	NaN
775	1.000000	0.730564	7.37264e+06	-38889.1	1055.82	-29795.9	0.000000	0.000000	6.731055	-0.047722	NaN	0.000000	0.001678	0.001749	28.0828	0.130680	0.002164	60.382	22.565	-165.201	-0.062915	0.729236	-0.309471	-0.310799	-0.047722	60.382	-0.308879	-6374.63	7.486177E-6	NaN
775	1.000000	0.738591	7.37264e+06	-38889.1	1055.82	-29795.9	0.000000	0.000000	6.739083	-0.020525	NaN	0.000000	0.001657	0.001752	28.0826	0.041395	0.001998	20.7212	43.4671	-167.681	-0.044763	0.737196	-0.301444	-0.302839	-0.020525	20.7212	-0.300701	-4820.24	4.257989E-6	NaN
775	1.000000	0.746525	7.37264e+06	-38889.1	1055.82	-29795.9	0.000000	0.000000	6.747017	-0.040366	NaN	0.000000	0.001643	0.001763	28.0826	0.043787	0.002063	21.2271	-88.3236	-165.367	-0.010293	0.745280	-0.293510	-0.294755	-0.040366	21.2271	-0.292084	-3585.06	1.125951E-5	NaN
775	1.000000	0.754559	7.37264e+06	-38889.1	1055.82	-29795.9	0.000000	0.000000	6.755051	-0.026290	NaN	0.000000	0.001674	0.001749	28.0825	0.047449	0.002056	23.0746	129.86	-166.771	0.024438	0.753289	-0.285476	-0.286746	-0.026290	23.0746	-0.284622	-2770.62	9.488907E-6	NaN
775	1.000000	0.762567	7.37264e+06	-38889.1	1055.82	-29795.9	0.000000	0.000000	6.763061	0.001771	NaN	0.000000	0.001691	0.001754	28.0827	0.038781	0.002193	17.6805	148.261	-166.686	0.001581	0.761250	-0.277468	-0.278785	0.001771	17.6805	-0.277543	-2167.04	-8.172440E-7	NaN
775	1.000000	0.770546	7.37264e+06	-38889.1	1055.82	-29795.9	0.000000	0.000000	6.771038	-0.033948	NaN	0.000000	0.001676	0.001773	28.0827	0.076190	0.001855	41.0713	-62.9325	-165.181	-0.054406	0.769281	-0.269489	-0.270754	-0.033948	41.0713	-0.268869	-1600.83	2.120651E-5	NaN
775	1.000000	0.778555	7.37264e+06	-38889.1	1055.82	-29795.9	0.000000	0.000000	6.779050	0.041298	NaN	0.000000	0.001701	0.001708	28.0825	0.160628	0.001998	80.3892	36.8856	-167.133	0.002571	0.777274	-0.261480	-0.262761	0.041298	80.3892	-0.261865	-1251.66	-3.299434E-5	NaN
775	1.000000	0.786562	7.37264e+06	-38889.1	1055.82	-29795.9	0.000000	0.000000	6.787058	0.055767	NaN	0.000000	0.001671	0.001761	28.0825	0.140993	0.002114	66.6825	-77.6891	-164.55	-0.018658	0.785264	-0.253473	-0.254771	0.055767	66.6825	-0.254100	-951.155	-5.863048E-5	NaN
775	1.000000	0.794569	7.37264e+06	-38889.1	1055.82	-29795.9	0.000000	0.000000	6.795063	0.028455	NaN	0.000000	0.001676	0.001728	28.0832	0.054461	0.001977	27.5432	-12.4467	-167.85	0.058754	0.793245	-0.245466	-0.246790	0.028455	27.5432	-0.246241	-719.001	-3.957536E-5	NaN
775	1.000000	0.802583	7.37264e+06	-38889.1	1055.82	-29795.9	0.000000	0.000000	6.803076	0.009349	NaN	0.000000	0.001681	0.001727	28.0827	0.023997	0.001994	12.0345	-60.8595	-164.471	0.057232	0.801271	-0.237452	-0.238764	0.009349	12.0345	-0.238035	-535.582	-1.745486E-5	NaN
775	1.000000	0.810560	7.37264e+06	-38889.1	1055.82	-29795.9	0.000000	0.000000	6.811054	0.034236	NaN	0.000000	0.001664	0.001765	28.083	0.063004	0.002031	31.0165	-12.5273	-164.813	-0.004336	0.809213	-0.229475	-0.230822	0.034236	31.0165	-0.230303	-404.855	-8.456374E-5	NaN
775	1.000000	0.818587	7.37264e+06	-38889.1	1055.82	-29795.9	0.000000	0.000000	6.819079	-0.042983	NaN	0.000000	0.001669	0.001765	28.0828	0.104098	0.002034	51.1713	-159.404	-165.719	0.068586	0.817285	-0.221448	-0.222750	-0.042983	51.1713	-0.220818	-286.244	0.000150	NaN
775	1.000000	0.826594	7.37264e+06	-38889.1	1055.82	-29795.9	0.000000	0.000000	6.827088	0.025554	NaN	0.000000	0.001689	0.001720	28.0827	0.014117	0.001953	7.228240	165.196	-165.287	0.052742	0.825228	-0.213441	-0.214807	0.025554	7.228240	-0.216093	-240.481	-0.000106	NaN
775	1.000000	0.834589	7.37264e+06	-38889.1	1055.82	-29795.9	0.000000	0.000000	6.835080	-0.042632	NaN	0.000000	0.001674	0.001733	28.0829	0.081674	0.002083	39.2171	80.2467	-167.086	-0.047885	0.833250	-0.205446	-0.206785	-0.042632	39.2171	-0.204631	-156.868	0.000272	NaN
775	1.000000	0.842588	7.37264e+06	-38889.1	1055.82	-29795.9	0.000000	0.000000	6.843079	-0.047686	NaN	0.000000	0.001690	0.001742	28.0826	0.070263	0.001993	35.2585	115.493	-167.333	-0.038256	0.841286	-0.197447	-0.198749	-0.047686	35.2585	-0.196433	-115.055	0.000414	NaN
775	1.000000	0.850560	7.37264e+06	-38889.1	1055.82	-29795.9	0.000000	0.000000	6.851055	0.030710	NaN	0.000000	0.001652	0.001776	28.0829	0.202357	0.002047	98.8377	111.147	-161.679	0.044019	0.849235	-0.189475	-0.190800	0.030710	98.8377	-0.189708	-88.95	-0.000345	NaN
775	1.000000	0.858604	7.37264e+06	-38889.1	1055.82	-29795.9	0.000000	0.000000	6.859099	0.028837	NaN	0.000000	0.001707	0.001748	28.084	0.013579	0.002118	6.412258	8.267374	-166.202	0.036280	0.857292	-0.181431	-0.182743	0.028837	6.412258	-0.184803	-73.5901	-0.000392	NaN
775	1.000000	0.866568	7.37264e+06	-38889.1	1055.82	-29795.9	0.000000	0.000000	6.867058	-0.067072	NaN	0.000000	0.001704	0.001757	28.0842	0.038714	0.001939	19.9703	99.1536	-162.953	-0.043431	0.865234	-0.173467	-0.174801	-0.067072	19.9703	-0.170948	-42.6641	0.001572	NaN
775	1.000000	0.874597	7.37264e+06	-38889.1	1055.82	-29795.9	0.000000	0.000000	6.875089	-0.012520	NaN	0.000000	0.001701	0.001779	28.0842	0.112709	0.001946	57.9205	27.3205	-164.321	-0.129924	0.873313	-0.165438	-0.166722	-0.012520	57.9205	-0.165276	-33.9747	0.000368	NaN
775	1.000000	0.882612	7.37264e+06	-38889.1	1055.82	-29795.9	0.000000	0.000000	6.883104	-0.015966	NaN	0.000000	0.001692	0.001742	28.0841	0.059363	0.002026	29.2998	-164.929	-167.629	-0.039588	0.881287	-0.157423	-0.158748	-0.015966	29.2998	-0.157015	-24.2517	0.000658	NaN
775	1.000000	0.890598	7.37264e+06	-38889.1	1055.82	-29795.9	0.000000	0.000000	6.891091	-0.003234	NaN	0.000000	0.001693	0.001749	28.084	0.012376	0.002005	6.171322	-72.0082	-167.561	0.002865	0.889262	-0.149437	-0.150773	-0.003234	6.171322	-0.149044	-17.4	0.000186	NaN
775	1.000000	0.898591	7.37264e+06	-38889.1	1055.82	-29795.9	0.000000	0.000000	6.899087	0.064834	NaN	0.000000	0.001702	0.001749	28.0838	0.069553	0.001797	38.6995	-47.5904	-166.63	0.074903	0.897322	-0.141444	-0.142713	0.064834	38.6995	-0.142700	-13.2886	-0.004879	NaN
775	1.000000	0.906611	7.37264e+06	-38889.1	1055.82	-29795.9	0.000000	0.000000	6.907104	0.008087	NaN	0.000000	0.001685	0.001771	28.0839	0.068245	0.002059	33.152	-144.019	-165.647	-0.032334	0.905326	-0.133424	-0.134709	0.008087	33.152	-0.133607	-8.946267	-0.000904	NaN
775	1.000000	0.914605	7.37264e+06	-38889.1	1055.82	-29795.9	0.000000	0.000000	6.915095	-0.063143	NaN	0.000000	0.001681	0.001764	28.0842	0.008409	0.002002	4.199412	-128.525	-164.406	-0.027530	0.913341	-0.125431	-0.126694	-0.063143	4.199412	-0.114153	-3.669629	0.017207	NaN
775	1.000000	0.922612	7.37264e+06	-38889.1	1055.82	-29795.9	0.000000	0.000000	6.923106	0.013556	NaN	0.000000	0.001674	0.001777	28.0839	0.114106	0.001905	59.8855	50.7311	-166.207	-0.003812	0.921335	-0.117423	-0.118700	0.013556	59.8855	-0.117592	-4.317657	-0.003140	NaN
775	1.000000	0.930593	7.37264e+06	-38889.1	1055.82	-29795.9	0.000000	0.000000	6.931085	-0.037670	NaN	0.000000	0.001709	0.001775	28.0841	0.052196	0.002105	24.8017	67.5944	-160.399	-0.027652	0.929302	-0.109442	-0.110733	-0.037670	24.8017	-0.108303	-2.766562	0.013616	NaN
775	1.000000	0.938635	7.37264e+06	-38889.1	1055.82	-29795.9	0.000000	0.000000	6.939127	-0.018284	NaN	0.000000	0.001740	0.001727	28.0841	0.110992	0.001974	56.2225	-108.323	-167.457	-0.051501	0.937310	-0.101400	-0.102725	-0.018284	56.2225	-0.101156	-1.937896	0.009435	NaN
775	1.000000	0.946612	7.37264e+06	-38889.1	1055.82	-29795.9	0.000000	0.000000	6.947103	-0.056046	NaN	0.000000	0.001737	0.001753	28.0841	0.164139	0.001977	83.0273	89.977	-164.005	-0.049010	0.945317	-0.093423	-0.094718	-0.056046	83.0273	-0.092916	-1.263722	0.044350	NaN
775	1.000000	0.954623	7.37264e+06	-38889.1	1055.82	-29795.9	0.000000	0.000000	6.955119	0.051972	NaN	0.000000	0.001738	0.001752	28.0842	0.035223	0.002051	17.1727	-168.876	-164.116	-0.002355	0.953329	-0.085412	-0.086706	0.051972	17.1727	-0.087682	-0.952871	-0.054543	NaN
775	1.000000	0.962626	7.37264e+06	-38889.1	1055.82	-29795.9	0.000000	0.000000	6.963119	0.005515	NaN	0.000000	0.001686	0.001802	28.084	0.167831	0.001963	85.5166	-68.0993	-164.404	-0.003162	0.961304	-0.077409	-0.078731	0.005515	85.5166	-0.077458	-0.534037	-0.010328	NaN
775	1.000000	0.970605	7.37264e+06	-38889.1	1055.82	-29795.9	0.000000	0.000000	6.971099	0.017730	NaN	0.000000	0.001761	0.001807	28.0841	0.028264	0.001985	14.2423	-51.3434	-166	0.027798	0.969352	-0.069430	-0.070683	0.017730	14.2423	-0.070363	-0.348830	-0.050826	NaN
775	1.000000	0.978595	7.37264e+06	-38889.1	1055.82	-29795.9	0.000000	0.000000	6.979090	0.024584	NaN	0.000000	0.001726	0.001799	28.0839	0.072412	0.002040	35.4902	-165.582	-166.015	0.084475	0.977319	-0.061440	-0.062716	0.024584	35.4902	-0.061959	-0.204804	-0.120036	NaN
775	1.000000	0.986636	7.37264e+06	-38889.1	1055.82	-29795.9	0.000000	0.000000	6.987129	-0.004932	NaN	0.000000	0.001744	0.001779	28.0841	0.119286	0.001970	60.5659	121.551	-167.204	-0.015888	0.985376	-0.053399	-0.054659	-0.004932	60.5659	-0.053338	-0.114950	0.042909	NaN
775	1.000000	0.994655	7.37264e+06	-38889.1	1055.82	-29795.9	0.000000	0.000000	6.995150	0.039637	NaN	0.000000	0.001725	0.001768	28.0832	0.059598	0.001891	31.5159	-176.318	-161.455	0.089351	0.993289	-0.045380	-0.046746	0.039637	31.5159	-0.046323	-0.070540	-0.561901	NaN
775	1.000000	1.002647	7.37264e+06	-38889.1	1055.82	-29795.9	0.000000	0.000000	7.003141	0.017706	NaN	0.000000	0.001716	0.001721	28.0826	0.059702	0.002025	29.4844	57.2651	-166.474	0.053824	1.001349	-0.037388	-0.038686	0.017706	29.4844	-0.037838	-0.038905	-0.455095	NaN
775	1.000000	1.010680	7.37264e+06	-38889.1	1055.82	-29795.9	0.000000	0.000000	7.011172	-0.019761	NaN	0.000000	0.001689	0.001769	28.0827	0.065267	0.002068	31.5574	-83.0595	-164.686	-0.034986	1.009346	-0.029355	-0.030689	-0.019761	31.5574	-0.028885	-0.021436	0.921860	NaN
775	1.000000	1.018647	7.37264e+06	-38889.1	1055.82	-29795.9	0.000000	0.000000	7.019138	-0.056457	NaN	0.000000	0.001671	0.001743	28.0832	0.055122	0.001926	28.6128	-78.3285	-163.786	-0.010745	1.017373	-0.021388	-0.022662	-0.056457	28.6128	-0.019908	-0.012493	4.518987	NaN
775	1.000000	1.026655	7.37264e+06	-38889.1	1055.82	-29795.9	0.000000	0.000000	7.027148	-0.002420	NaN	0.000000	0.001718	0.001742	28.083	0.123063	0.001863	66.0492	-91.9988	-164.404	0.006505	1.025331	-0.013380	-0.014704	-0.002420	66.0492	-0.013353	-0.008306	0.291373	NaN
775	1.000000	1.034674	7.37264e+06	-38889.1	1055.82	-29795.9	0.000000	0.000000	7.035168	0.019100	NaN	0.000000	0.001690	0.001743	28.0827	0.042906	0.002032	21.1109	155.254	-164.512	0.059623	1.033334	-0.005361	-0.006701	0.019100	21.1109	-0.006040	-0.004061	-4.703890	NaN
775	1.000000	1.042662	7.37264e+06	-38889.1	1055.82	-29795.9	0.000000	0.000000	7.043378	5.429626	NaN	0.000000	0.001688	0.001769	28.0828	6.015736	0.001797	3348.38	13.6088	-172.796	3.674922	1.041326	0.002627	0.001291	5.429626	3348.38	0.001410	0.001084	5010.62	92932.8
775	2.000000	1.046352	7.37264e+06	-38889.1	1055.82	-29795.9	0.000000	0.000000	7.047260	10.082	NaN	0.000000	0.001680	0.001767	28.0827	9.487305	0.001571	6040.74	2.049416	-167.975	9.448616	1.046072	0.006317	0.006037	10.082	6040.74	0.005065	0.004193	2404.37	85229.8
775	2.000000	1.048320	7.37264e+06	-38889.1	1055.82	-29795.9	0.000000	0.000000	7.049332	12.624	NaN	0.000000	0.001676	0.001741	28.0837	12.5413	0.001922	6525.65	5.544283	-169.699	12.0968	1.048000	0.008285	0.007965	12.624	6525.65	0.006834	0.005871	2150.39	77813.9
775	2.000000	1.050347	7.37264e+06	-38889.1	1055.82	-29795.9	0.000000	0.000000	7.051519	16.5142	NaN	0.000000	0.001711	0.001773	28.0828	14.5928	0.001705	8559.92	6.929366	-173.734	16.6815	1.049955	0.010312	0.009920	16.5142	8559.92	0.008865	0.007947	2078.02	87728.2
775	2.000000	1.052267	7.37264e+06	-38889.1	1055.82	-29795.9	0.000000	0.000000	7.053636	21.3071	NaN	0.000000	0.001725	0.001735	28.0826	16.9215	0.001755	9643.03	7.397710	-177.559	19.0984	1.051920	0.012232	0.011885	21.3071	9643.03	0.010575	0.009828	2168.06	88870.9
775	2.000000	1.054301	7.37264e+06	-38889.1	1055.82	-29795.9	0.000000	0.000000	7.055741	23.0472	NaN	0.000000	0.001687	0.001787	28.0827	18.8126	0.001790	10508.9	6.128062	-175.841	22.8535	1.053963	0.014266	0.013928	23.0472	10508.9	0.012621	0.012242	1882.62	86776.3
775	2.000000	1.056266	7.37264e+06	-38889.1	1055.82	-29795.9	0.000000	0.000000	7.057970	29.4787	NaN	0.000000	0.001701	0.001781	28.0825	20.1629	0.001606	12551.9	3.419865	-175.534	28.4894	1.056015	0.016231	0.015980	29.4787	12551.9	0.014469	0.014584	2021.28	94960
775	2.000000	1.058264	7.37264e+06	-38889.1	1055.82	-29795.9	0.000000	0.000000	7.060160	34.1523	NaN	0.000000	0.001713	0.001767	28.0833	23.3668	0.001712	13648.2	7.756387	-179.971	33.9709	1.057987	0.018229	0.017952	34.1523	13648.2	0.016352	0.017131	1993.6	95270.6
775	2.000000	1.060302	7.37264e+06	-38889.1	1055.82	-29795.9	0.000000	0.000000	7.062411	39.3204	NaN	0.000000	0.001678	0.001766	28.0825	25.5821	0.001905	13431.5	5.230919	-176.649	37.9209	1.059959	0.020267	0.019924	39.3204	13431.5	0.018071	0.019602	2005.95	87649.7
775	2.000000	1.062272	7.37264e+06	-38889.1	1055.82	-29795.9	0.000000	0.000000	7.064574	44.0189	NaN	0.000000	0.001677	0.001773	28.0823	27.5008	0.001968	13971.3	6.385671	-177.127	43.2308	1.061925	0.022237	0.021890	44.0189	13971.3	0.019874	0.022345	1970	85393
775	2.000000	1.064246	7.37264e+06	-38889.1	1055.82	-29795.9	0.000000	0.000000	7.066839	51.0965	NaN	0.000000	0.001691	0.001801	28.0829	29.1034	0.001766	16476.7	4.377159	-177.498	49.522	1.063867	0.024211	0.023832	51.0965	16476.7	0.021885	0.025591	1996.64	94101.8
775	2.000000	1.066238	7.37264e+06	-38889.1	1055.82	-29795.9	0.000000	0.000000	7.069107	57.8292	NaN	0.000000	0.001650	0.001819	28.083	30.0701	0.001782	16876.2	3.068703	-175.741	56.3644	1.065960	0.026203	0.025925	57.8292	16876.2	0.023633	0.028575	2023.78	91212.9
775	2.000000	1.068276	7.37264e+06	-38889.1	1055.82	-29795.9	0.000000	0.000000	7.071380	63.54	NaN	0.000000	0.001668	0.001781	28.0843	33.7116	0.001737	19403.3	9.724248	174.71	65.2659	1.067925	0.028241	0.027890	63.54	19403.3	0.025785	0.032459	1957.52	98396.3
775	2.000000	1.070238	7.37264e+06	-38889.1	1055.82	-29795.9	0.000000	0.000000	7.073714	72.5852	NaN	0.000000	0.001642	0.001823	28.0838	36.182	0.001776	20371.2	7.794634	176.66	70.9223	1.069953	0.030203	0.029918	72.5852	20371.2	0.027531	0.035782	2028.56	98392.1
775	2.000000	1.072254	7.37264e+06	-38889.1	1055.82	-29795.9	0.000000	0.000000	7.076125	82.183	NaN	0.000000	0.001675	0.001768	28.0837	37.8137	0.001891	19992.6	4.193326	-179.275	82.4276	1.071921	0.032219	0.031886	82.183	19992.6	0.029136	0.038973	2108.73	92525.6
775	2.000000	1.074265	7.37264e+06	-38889.1	1055.82	-29795.9	0.000000	0.000000	7.078351	87.4288	NaN	0.000000	0.001652	0.001763	28.084	39.5716	0.001715	23079.7	6.291285	176.998	87.401	1.073870	0.034230	0.033835	87.4288	23079.7	0.031389	0.043673	2001.91	100902
775	2.000000	1.076166	7.37264e+06	-38889.1	1055.82	-29795.9	0.000000	0.000000	7.080808	100.975	NaN	0.000000	0.001663	0.001724	28.0837	40.161	0.001696	23682.8	7.169521	175.505	98.5764	1.075898	0.036130	0.035863	100.975	23682.8	0.032933	0.047042	2146.49	99761.8
775	2.000000	1.078226	7.37264e+06	-38889.1	1055.82	-29795.9	0.000000	0.000000	7.083172	108.369	NaN	0.000000	0.001655	0.001743	28.0847	43.7031	0.001843	23710.3	10.6268	173.442	107.881	1.077874	0.038191	0.037839	108.369	23710.3	0.034763	0.051195	2116.79	95740.6
775	2.000000	1.080306	7.37264e+06	-38889.1	1055.82	-29795.9	0.000000	0.000000	7.085513	114.707	NaN	0.000000	0.001633	0.001764	28.0839	45.2284	0.001852	24421	6.036399	177.003	115.579	1.079950	0.040271	0.039915	114.707	24421	0.036749	0.055896	2052.17	94372.9
775	2.000000	1.082197	7.37264e+06	-38889.1	1055.82	-29795.9	0.000000	0.000000	7.087908	126.982	NaN	0.000000	0.001652	0.001762	28.0838	46.3829	0.001759	26363.7	5.325798	177.308	125.287	1.081871	0.042162	0.041836	126.982	26363.7	0.038550	0.060334	2104.64	98061.5
775	2.000000	1.084179	7.37264e+06	-38889.1	1055.82	-29795.9	0.000000	0.000000	7.090445	140.488	NaN	0.000000	0.001635	0.001734	28.0843	49.075	0.001821	26948.5	7.469013	174.642	137.31	1.083865	0.044144	0.043830	140.488	26948.5	0.040234	0.064635	2173.56	96844.3
775	2.000000	1.086190	7.37264e+06	-38889.1	1055.82	-29795.9	0.000000	0.000000	7.092745	147.506	NaN	0.000000	0.001631	0.001721	28.0838	49.2497	0.001755	28061.6	4.017774	178.381	143.824	1.085936	0.046155	0.045901	147.506	28061.6	0.042213	0.069872	2111.08	96991.2
775	2.000000	1.088157	7.37264e+06	-38889.1	1055.82	-29795.9	0.000000	0.000000	7.095183	158.982	NaN	0.000000	0.001696	0.001770	28.0842	51.6971	0.001673	30900.3	5.136137	175.371	154.828	1.087847	0.048122	0.047812	158.982	30900.3	0.044263	0.075509	2105.47	102739
775	2.000000	1.090269	7.37264e+06	-38889.1	1055.82	-29795.9	0.000000	0.000000	7.097742	169.874	NaN	0.000000	0.001667	0.001754	28.084	53.2877	0.001852	28768.7	0.291564	-177.395	170.309	1.089924	0.050234	0.049889	169.874	28768.7	0.045805	0.079890	2126.36	92992.6
775	2.000000	1.092178	7.37264e+06	-38889.1	1055.82	-29795.9	0.000000	0.000000	7.100001	178.389	NaN	0.000000	0.001704	0.001739	28.0838	56.0539	0.001808	31003	4.269754	175.993	177.289	1.091914	0.052143	0.051879	178.389	31003	0.047827	0.085815	2078.75	96692.8
775	2.000000	1.094198	7.37264e+06	-38889.1	1055.82	-29795.9	0.000000	0.000000	7.102278	184.63	NaN	0.000000	0.001670	0.001771	28.0844	59.2881	0.001840	32229.6	2.977463	177.685	184.182	1.094086	0.054163	0.054051	184.63	32229.6	0.049866	0.092000	2006.85	97081.2
775	2.000000	1.096209	7.37264e+06	-38889.1	1055.82	-29795.9	0.000000	0.000000	7.105085	204.009	NaN	0.000000	0.001709	0.001781	28.0837	59.7487	0.001875	31860.8	3.683032	177.528	203.35	1.095855	0.056174	0.055820	204.009	31860.8	0.051371	0.096699	2109.73	93609.5
775	2.000000	1.098266	7.37264e+06	-38889.1	1055.82	-29795.9	0.000000	0.000000	7.107366	209.459	NaN	0.000000	0.001720	0.001718	28.0838	63.2349	0.001925	32857.6	7.583988	173.994	212.035	1.097876	0.058231	0.057841	209.459	32857.6	0.053450	0.103374	2026.22	93369.3
775	2.000000	1.100273	7.37264e+06	-38889.1	1055.82	-29795.9	0.000000	0.000000	7.109901	222.305	NaN	0.000000	0.001698	0.001714	28.0836	64.5957	0.001881	34346.9	10.2178	170.66	224.529	1.099909	0.060238	0.059874	222.305	34346.9	0.055383	0.109776	2025.08	94712.4
775	2.000000	1.102169	7.37264e+06	-38889.1	1055.82	-29795.9	0.000000	0.000000	7.112131	230.437	NaN	0.000000	0.001677	0.001700	28.0825	65.2188	0.001736	37564.7	5.448556	173.841	229.067	1.101823	0.062134	0.061788	230.437	37564.7	0.057533	0.117112	1967.67	100289
775	2.000000	1.104170	7.37264e+06	-38889.1	1055.82	-29795.9	0.000000	0.000000	7.114680	243.768	NaN	0.000000	0.001693	0.001741	28.0828	66.9743	0.001869	35838.8	2.866666	177.039	242.168	1.103933	0.064135	0.063898	243.768	35838.8	0.059033	0.122365	1992.14	93604.9
775	2.000000	1.106286	7.37264e+06	-38889.1	1055.82	-29795.9	0.000000	0.000000	7.117527	261.56	NaN	0.000000	0.001739	0.001735	28.0822	68.3621	0.001767	38678.8	5.487548	173.827	265.729	1.105796	0.066251	0.065761	261.56	38678.8	0.061179	0.130071	2010.9	97983.9
775	2.000000	1.108061	7.37264e+06	-38889.1	1055.82	-29795.9	0.000000	0.000000	7.119763	272.76	NaN	0.000000	0.001740	0.001736	28.0833	70.0731	0.001652	42429.2	4.153651	174.155	266.664	1.107886	0.068026	0.067851	272.76	42429.2	0.063205	0.137550	1982.99	104522
775	2.000000	1.110278	7.37264e+06	-38889.1	1055.82	-29795.9	0.000000	0.000000	7.122729	291	NaN	0.000000	0.001741	0.001724	28.0825	73.3848	0.001811	40530.1	4.638933	174.744	292.02	1.109826	0.070243	0.069791	291	40530.1	0.064858	0.143804	2023.59	97648.6
775	2.000000	1.112132	7.37264e+06	-38889.1	1055.82	-29795.9	0.000000	0.000000	7.125143	304.638	NaN	0.000000	0.001755	0.001744	28.0824	74.4949	0.001846	40352.9	3.002012	176.234	301.86	1.111875	0.072097	0.071840	304.638	40352.9	0.066435	0.149887	2032.45	95228.3
775	2.000000	1.114214	7.37264e+06	-38889.1	1055.82	-29795.9	0.000000	0.000000	7.127878	320.508	NaN	0.000000	0.001758	0.001762	28.0824	77.555	0.001775	43698.7	7.705757	170.899	319.788	1.113810	0.074179	0.073775	320.508	43698.7	0.068678	0.158753	2018.91	100203
775	2.000000	1.116133	7.37264e+06	-38889.1	1055.82	-29795.9	0.000000	0.000000	7.130374	334.555	NaN	0.000000	0.001733	0.001737	28.0825	77.0013	0.001777	43321.7	4.150976	174.877	331.909	1.115774	0.076098	0.075739	334.555	43321.7	0.070306	0.165335	2023.5	97341.1
775	2.000000	1.118059	7.37264e+06	-38889.1	1055.82	-29795.9	0.000000	0.000000	7.132626	342.487	NaN	0.000000	0.001761	0.001770	28.0829	80.655	0.001731	46602.6	5.473719	172.175	335.463	1.117854	0.078024	0.077819	342.487	46602.6	0.072512	0.174457	1963.16	101939
775	2.000000	1.120160	7.37264e+06	-38889.1	1055.82	-29795.9	0.000000	0.000000	7.135262	355.521	NaN	0.000000	0.001736	0.001751	28.0826	82.4143	0.001790	46041.7	2.077516	175.703	350.519	1.119855	0.080125	0.079820	355.521	46041.7	0.074333	0.182161	1951.69	98559.1
775	2.000000	1.122106	7.37264e+06	-38889.1	1055.82	-29795.9	0.000000	0.000000	7.138199	379.629	NaN	0.000000	0.001679	0.001795	28.0827	84.4189	0.001758	48008.5	4.695637	173.073	377.262	1.121740	0.082071	0.081705	379.629	48008.5	0.076140	0.189958	1998.49	100638
775	2.000000	1.124173	7.37264e+06	-38889.1	1055.82	-29795.9	0.000000	0.000000	7.140821	393.132	NaN	0.000000	0.001710	0.001737	28.0827	86.9283	0.001824	47648.1	3.622928	174.451	392.249	1.123852	0.084138	0.083817	393.132	47648.1	0.077950	0.197923	1986.29	97852.2
775	2.000000	1.126145	7.37264e+06	-38889.1	1055.82	-29795.9	0.000000	0.000000	7.143249	404.237	NaN	0.000000	0.001680	0.001683	28.0826	87.9288	0.001854	47436.5	5.734922	172.34	401.777	1.125823	0.086110	0.085788	404.237	47436.5	0.079719	0.205854	1963.7	95522.5
775	2.000000	1.128122	7.37264e+06	-38889.1	1055.82	-29795.9	0.000000	0.000000	7.146031	423.821	NaN	0.000000	0.001678	0.001762	28.0827	89.6771	0.001724	52028.8	4.762835	172.34	420.658	1.127942	0.088087	0.087907	423.821	52028.8	0.081978	0.216196	1960.36	102233
775	2.000000	1.130180	7.37264e+06	-38889.1	1055.82	-29795.9	0.000000	0.000000	7.148469	433.073	NaN	0.000000	0.001703	0.001759	28.0826	93.032	0.001880	49473.7	6.600723	171.689	429.353	1.129862	0.090145	0.089826	433.073	49473.7	0.083579	0.223671	1936.2	95574.6
775	2.000000	1.132101	7.37264e+06	-38889.1	1055.82	-29795.9	0.000000	0.000000	7.151297	455.136	NaN	0.000000	0.001688	0.001765	28.0828	94.9395	0.001880	50494.2	8.338179	169.091	452.005	1.131867	0.092066	0.091832	455.136	50494.2	0.085306	0.231863	1962.96	95807.4
775	2.000000	1.134140	7.37264e+06	-38889.1	1055.82	-29795.9	0.000000	0.000000	7.153930	469.614	NaN	0.000000	0.001678	0.001736	28.0828	96.4537	0.001827	52792.4	3.014406	174.504	466.755	1.133752	0.094105	0.093717	469.614	52792.4	0.087433	0.242145	1939.39	98018.2
775	2.000000	1.136118	7.37264e+06	-38889.1	1055.82	-29795.9	0.000000	0.000000	7.156726	489.511	NaN	0.000000	0.001673	0.001713	28.084	98.4446	0.001888	52147.4	5.726880	171.317	487.448	1.135884	0.096083	0.095849	489.511	52147.4	0.089042	0.250062	1957.56	95275.7
775	2.000000	1.138194	7.37264e+06	-38889.1	1055.82	-29795.9	0.000000	0.000000	7.159118	497.194	NaN	0.000000	0.001638	0.001747	28.0839	99.7458	0.001780	56046.6	3.979122	172.531	496.745	1.137882	0.098159	0.097847	497.194	56046.6	0.091505	0.262409	1894.73	99961.7
775	2.000000	1.140237	7.37264e+06	-38889.1	1055.82	-29795.9	0.000000	0.000000	7.162170	521.767	NaN	0.000000	0.001677	0.001728	28.0839	102.405	0.001812	56508.7	6.654687	170.989	523.728	1.139748	0.100202	0.099713	521.767	56508.7	0.093277	0.271459	1922.08	99091.5
775	2.000000	1.142150	7.37264e+06	-38889.1	1055.82	-29795.9	0.000000	0.000000	7.164861	540.703	NaN	0.000000	0.001613	0.001730	28.0841	104.107	0.001766	58950.9	6.576214	169.83	541.764	1.141789	0.102114	0.101754	540.703	58950.9	0.095235	0.281636	1919.86	101489
775	2.000000	1.143085	7.37264e+06	-38889.1	1055.82	-29795.9	0.000000	0.000000	7.166508	558.012	NaN	0.000000	0.001602	0.001719	28.0839	103.697	0.001819	57005.3	7.653871	169.136	551.214	1.142711	0.103050	0.102676	558.012	57005.3	0.095709	0.284121	1964	97709.6