File: remote_trans/data/nanoindenter/0828-1/data/Data_2025-08-06,11h17m57s/2025-07-22_16-23-58_1_617.txt
2025-07-22, 16:23:58, 1
Index	Phase	Displacement	Time	Pos X	Pos Y	Pos Z	Rot A	Rot B	Piezo Z	Force A	Force B	Gripper	Voltage A	Voltage B	Temperature	Amplitude force	Amplitude pos	Stiffness	Phase shift	Phase excitation	Force A raw	Displacement raw	HMax	HMax raw	Real Force	Real Stiffness	Contact Depth	Area	Hardness	Reduced Mod.
[#]	[#]	[um]	[s]	[um]	[um]	[um]	[m°]	[m°]	[um]	[uN]	[uN]	[V]	[V]	[V]	[°C]	[uN]	[um]	[N/m]	[°]	[°]	[uN]	[um]	[um]	[um]	[uN]	[N/m]	[um]	[um^2]	[MPa]	[MPa]
617	1.000000	0.003112	7.37109e+06	-46239.1	1005.82	-29769.9	0.000000	0.000000	6.002778	-0.041368	NaN	0.000000	0.001575	0.001689	28.0809	0.100225	0.000918	109.148	36.3112	-166.149	-0.049683	0.001896	-1.065741	-1.066957	-0.041368	109.148	-1.065457	-1.722462E+14	2.401700E-16	NaN
617	1.000000	0.011096	7.37109e+06	-46239.1	1005.82	-29769.9	0.000000	0.000000	6.010765	0.025394	NaN	0.000000	0.001531	0.001615	28.0811	0.146205	0.000882	165.781	-25.7946	-157.443	0.087520	0.009839	-1.057756	-1.059014	0.025394	165.781	-1.057871	-1.362116E+14	-1.864320E-16	NaN
617	1.000000	0.019103	7.37109e+06	-46239.1	1005.82	-29769.9	0.000000	0.000000	6.018770	-0.022569	NaN	0.000000	0.001533	0.001648	28.0809	0.106050	0.001674	63.3355	78.0153	-165.844	-0.015527	0.017777	-1.049750	-1.051076	-0.022569	63.3355	-1.049483	-1.050663E+14	2.148093E-16	NaN
617	1.000000	0.027133	7.37109e+06	-46239.1	1005.82	-29769.9	0.000000	0.000000	6.026802	0.024406	NaN	0.000000	0.001520	0.001653	28.0813	0.006292	0.001879	3.348941	-9.065835	-164.064	0.036169	0.025755	-1.041720	-1.043098	0.024406	3.348941	-1.047185	-9.785343E+13	-2.494092E-16	NaN
617	1.000000	0.035079	7.37109e+06	-46239.1	1005.82	-29769.9	0.000000	0.000000	6.034747	0.002897	NaN	0.000000	0.001541	0.001674	28.0811	0.077318	0.001978	39.0807	-134.708	-164.193	-0.002691	0.033811	-1.033774	-1.035042	0.002897	39.0807	-1.033830	-6.471301E+13	-4.477251E-17	NaN
617	1.000000	0.043104	7.37109e+06	-46239.1	1005.82	-29769.9	0.000000	0.000000	6.042770	-0.041024	NaN	0.000000	0.001511	0.001680	28.0812	0.105388	0.001918	54.945	-152.551	-164.754	0.034190	0.041788	-1.025749	-1.027065	-0.041024	54.945	-1.025189	-4.951774E+13	8.284749E-16	NaN
617	1.000000	0.051126	7.37109e+06	-46239.1	1005.82	-29769.9	0.000000	0.000000	6.050793	-0.029073	NaN	0.000000	0.001492	0.001686	28.0812	0.080008	0.002012	39.7635	-139.926	-167.549	-0.040045	0.049748	-1.017727	-1.019105	-0.029073	39.7635	-1.017178	-3.863555E+13	7.525001E-16	NaN
617	1.000000	0.059093	7.37109e+06	-46239.1	1005.82	-29769.9	0.000000	0.000000	6.058758	-0.064874	NaN	0.000000	0.001510	0.001691	28.0813	0.060328	0.001974	30.5561	-105.172	-166.598	0.016032	0.057788	-1.009760	-1.011065	-0.064874	30.5561	-1.008167	-2.922233E+13	2.220015E-15	NaN
617	1.000000	0.067111	7.37109e+06	-46239.1	1005.82	-29769.9	0.000000	0.000000	6.066779	-0.004991	NaN	0.000000	0.001512	0.001678	28.0813	0.058204	0.002047	28.4377	32.1745	-164.361	-0.028111	0.065771	-1.001742	-1.003082	-0.004991	28.4377	-1.001610	-2.384760E+13	2.092922E-16	NaN
617	1.000000	0.075088	7.37109e+06	-46239.1	1005.82	-29769.9	0.000000	0.000000	6.074756	-0.008220	NaN	0.000000	0.001506	0.001717	28.0824	0.131965	0.002169	60.8395	168.623	-163.866	-0.016988	0.073810	-0.993764	-0.995043	-0.008220	60.8395	-0.993663	-1.863981E+13	4.410073E-16	NaN
617	1.000000	0.083082	7.37109e+06	-46239.1	1005.82	-29769.9	0.000000	0.000000	6.082748	-0.033001	NaN	0.000000	0.001498	0.001673	28.0828	0.084389	0.001887	44.7163	16.2158	-163.094	-0.053078	0.081760	-0.985771	-0.987093	-0.033001	44.7163	-0.985218	-1.434496E+13	2.300504E-15	NaN
617	1.000000	0.091102	7.37109e+06	-46239.1	1005.82	-29769.9	0.000000	0.000000	6.090767	-0.068529	NaN	0.000000	0.001523	0.001720	28.0824	0.087355	0.001801	48.5051	48.2402	-164.76	-0.078588	0.089835	-0.977751	-0.979018	-0.068529	48.5051	-0.976691	-1.101115E+13	6.223644E-15	NaN
617	1.000000	0.099125	7.37109e+06	-46239.1	1005.82	-29769.9	0.000000	0.000000	6.098792	-0.011328	NaN	0.000000	0.001491	0.001719	28.0828	0.109805	0.002034	53.9785	18.4523	-162.707	0.034031	0.097804	-0.969728	-0.971049	-0.011328	53.9785	-0.969571	-8.828260E+12	1.283152E-15	NaN
617	1.000000	0.107120	7.37109e+06	-46239.1	1005.82	-29769.9	0.000000	0.000000	6.106786	-0.048194	NaN	0.000000	0.001533	0.001698	28.0826	0.057333	0.001918	29.8986	177.366	-164.705	-0.137701	0.105780	-0.961733	-0.963072	-0.048194	29.8986	-0.960524	-6.667091E+12	7.228589E-15	NaN
617	1.000000	0.115099	7.37109e+06	-46239.1	1005.82	-29769.9	0.000000	0.000000	6.114765	-0.053711	NaN	0.000000	0.001535	0.001706	28.0826	0.076306	0.001906	40.0335	56.8664	-165.86	0.012368	0.113791	-0.953754	-0.955062	-0.053711	40.0335	-0.952748	-5.236990E+12	1.025614E-14	NaN
617	1.000000	0.123131	7.37109e+06	-46239.1	1005.82	-29769.9	0.000000	0.000000	6.122796	-0.079319	NaN	0.000000	0.001522	0.001710	28.0828	0.058958	0.001943	30.3389	-164.609	-162.442	-0.014324	0.121807	-0.945722	-0.947046	-0.079319	30.3389	-0.943761	-3.961608E+12	2.002193E-14	NaN
617	1.000000	0.131106	7.37109e+06	-46239.1	1005.82	-29769.9	0.000000	0.000000	6.130776	0.048755	NaN	0.000000	0.001484	0.001697	28.0825	0.020258	0.002003	10.1154	-21.896	-163.655	0.038253	0.129822	-0.937747	-0.939030	0.048755	10.1154	-0.941361	-3.677099E+12	-1.325899E-14	NaN
617	1.000000	0.139145	7.37109e+06	-46239.1	1005.82	-29769.9	0.000000	0.000000	6.138812	-0.015367	NaN	0.000000	0.001519	0.001668	28.0828	0.028197	0.002005	14.0664	-141.34	-163.571	0.030875	0.137760	-0.929708	-0.931093	-0.015367	14.0664	-0.928889	-2.495734E+12	6.157311E-15	NaN
617	1.000000	0.147127	7.37109e+06	-46239.1	1005.82	-29769.9	0.000000	0.000000	6.146795	0.017005	NaN	0.000000	0.001536	0.001652	28.0827	0.084780	0.001958	43.2921	-11.1005	-163.897	0.126852	0.145764	-0.921726	-0.923088	0.017005	43.2921	-0.922021	-2.015999E+12	-8.435161E-15	NaN
617	1.000000	0.155094	7.37109e+06	-46239.1	1005.82	-29769.9	0.000000	0.000000	6.154762	-0.005706	NaN	0.000000	0.001546	0.001666	28.0827	0.067054	0.002057	32.5913	159.793	-164.126	-0.030714	0.153783	-0.913759	-0.915070	-0.005706	32.5913	-0.913628	-1.552949E+12	3.674383E-15	NaN
617	1.000000	0.163123	7.37109e+06	-46239.1	1005.82	-29769.9	0.000000	0.000000	6.162790	-0.029577	NaN	0.000000	0.001554	0.001654	28.0827	0.105930	0.001957	54.1151	-1.264637	-166.474	-0.101223	0.161835	-0.905730	-0.907018	-0.029577	54.1151	-0.905320	-1.199346E+12	2.466052E-14	NaN
617	1.000000	0.171114	7.37109e+06	-46239.1	1005.82	-29769.9	0.000000	0.000000	6.170780	-0.061198	NaN	0.000000	0.001534	0.001694	28.0826	0.119435	0.002093	57.0747	-3.795533	-164.88	-0.019538	0.169810	-0.897739	-0.899042	-0.061198	57.0747	-0.896934	-9.239331E+11	6.623683E-14	NaN
617	1.000000	0.179132	7.37109e+06	-46239.1	1005.82	-29769.9	0.000000	0.000000	6.178797	-0.068465	NaN	0.000000	0.001531	0.001689	28.0828	0.056013	0.002144	26.1266	-63.2096	-166.778	-0.000510	0.177822	-0.889721	-0.891031	-0.068465	26.1266	-0.887755	-6.943390E+11	9.860511E-14	NaN
617	1.000000	0.187134	7.37109e+06	-46239.1	1005.82	-29769.9	0.000000	0.000000	6.186801	-0.026906	NaN	0.000000	0.001527	0.001636	28.0827	0.067008	0.002007	33.3807	-165.241	-163.186	-0.027852	0.185797	-0.881719	-0.883056	-0.026906	33.3807	-0.881114	-5.646463E+11	4.765020E-14	NaN
617	1.000000	0.195130	7.37109e+06	-46239.1	1005.82	-29769.9	0.000000	0.000000	6.194793	-0.107543	NaN	0.000000	0.001539	0.001682	28.083	0.023866	0.002024	11.7915	73.3051	-159.873	-0.095521	0.193851	-0.873723	-0.875002	-0.107543	11.7915	-0.866883	-3.624637E+11	2.967003E-13	NaN
617	1.000000	0.203136	7.37109e+06	-46239.1	1005.82	-29769.9	0.000000	0.000000	6.202805	0.021586	NaN	0.000000	0.001561	0.001673	28.0827	0.048273	0.001956	24.6832	-72.4792	-164.365	-0.074189	0.201854	-0.865717	-0.866998	0.021586	24.6832	-0.866372	-3.567482E+11	-6.050804E-14	NaN
617	1.000000	0.211127	7.37109e+06	-46239.1	1005.82	-29769.9	0.000000	0.000000	6.210795	0.000641	NaN	0.000000	0.001572	0.001654	28.0816	0.098146	0.002186	44.8931	-40.6154	-163.89	0.047534	0.209794	-0.857725	-0.859058	0.000641	44.8931	-0.857736	-2.725693E+11	-2.352238E-15	NaN
617	1.000000	0.219157	7.37109e+06	-46239.1	1005.82	-29769.9	0.000000	0.000000	6.218823	-0.049803	NaN	0.000000	0.001552	0.001667	28.0814	0.040548	0.002002	20.2585	155.808	-163.486	-0.127835	0.217831	-0.849695	-0.851022	-0.049803	20.2585	-0.847852	-2.002835E+11	2.486613E-13	NaN
617	1.000000	0.227162	7.37109e+06	-46239.1	1005.82	-29769.9	0.000000	0.000000	6.226826	-0.085629	NaN	0.000000	0.001555	0.001694	28.0813	0.042463	0.002054	20.6707	-62.7198	-166.83	-0.098441	0.225824	-0.841691	-0.843029	-0.085629	20.6707	-0.838584	-1.500049E+11	5.708389E-13	NaN
617	1.000000	0.235191	7.37109e+06	-46239.1	1005.82	-29769.9	0.000000	0.000000	6.234856	-0.072521	NaN	0.000000	0.001549	0.001686	28.0816	0.038286	0.001991	19.2315	-77.1974	-163.594	-0.095574	0.233815	-0.833662	-0.835037	-0.072521	19.2315	-0.830834	-1.177838E+11	6.157150E-13	NaN
617	1.000000	0.243153	7.37109e+06	-46239.1	1005.82	-29769.9	0.000000	0.000000	6.242821	0.006786	NaN	0.000000	0.001578	0.001707	28.0814	0.031679	0.002053	15.4307	162.491	-162.579	0.012980	0.241835	-0.825700	-0.827017	0.006786	15.4307	-0.826030	-1.013828E+11	-6.693327E-14	NaN
617	1.000000	0.251195	7.37109e+06	-46239.1	1005.82	-29769.9	0.000000	0.000000	6.250860	-0.082841	NaN	0.000000	0.001566	0.001655	28.0814	0.084413	0.002022	41.7492	41.1891	-164.34	-0.008730	0.249842	-0.817658	-0.819011	-0.082841	41.7492	-0.816169	-7.451807E+10	1.111686E-12	NaN
617	1.000000	0.259132	7.37109e+06	-46239.1	1005.82	-29769.9	0.000000	0.000000	6.258799	-0.030675	NaN	0.000000	0.001539	0.001672	28.0813	0.077660	0.001970	39.4311	146.761	-163.313	0.034739	0.257890	-0.809720	-0.810963	-0.030675	39.4311	-0.809137	-5.982212E+10	5.127658E-13	NaN
617	1.000000	0.267168	7.37109e+06	-46239.1	1005.82	-29769.9	0.000000	0.000000	6.266835	-0.032675	NaN	0.000000	0.001544	0.001680	28.0814	0.074341	0.002013	36.9233	-73.6714	-163.093	-0.030506	0.265889	-0.801685	-0.802964	-0.032675	36.9233	-0.801021	-4.642167E+10	7.038840E-13	NaN
617	1.000000	0.275171	7.37109e+06	-46239.1	1005.82	-29769.9	0.000000	0.000000	6.274837	-0.031779	NaN	0.000000	0.001571	0.001687	28.0815	0.108230	0.002060	52.5343	103.909	-164.885	-0.036451	0.273806	-0.793682	-0.795047	-0.031779	52.5343	-0.793228	-3.638544E+10	8.733873E-13	NaN
617	1.000000	0.283175	7.37109e+06	-46239.1	1005.82	-29769.9	0.000000	0.000000	6.282842	-0.010044	NaN	0.000000	0.001590	0.001681	28.0814	0.075339	0.002131	35.3538	-113.179	-163.996	-0.003196	0.281907	-0.785678	-0.786945	-0.010044	35.3538	-0.785465	-2.854211E+10	3.519044E-13	NaN
617	1.000000	0.291188	7.37109e+06	-46239.1	1005.82	-29769.9	0.000000	0.000000	6.290854	-0.044394	NaN	0.000000	0.001546	0.001657	28.0816	0.025321	0.002012	12.5858	141.244	-166.034	-0.021058	0.289871	-0.777664	-0.778982	-0.044394	12.5858	-0.775019	-2.058430E+10	2.156700E-12	NaN
617	1.000000	0.299168	7.37109e+06	-46239.1	1005.82	-29769.9	0.000000	0.000000	6.298840	0.104543	NaN	0.000000	0.001549	0.001650	28.0816	0.059723	0.001926	31.0131	-32.7827	-165.74	0.059943	0.297838	-0.769685	-0.771014	0.104543	31.0131	-0.772213	-1.885373E+10	-5.544929E-12	NaN
617	1.000000	0.307213	7.37109e+06	-46239.1	1005.82	-29769.9	0.000000	0.000000	6.306883	0.061835	NaN	0.000000	0.001575	0.001681	28.0813	0.120449	0.002010	59.9381	24.5675	-166.445	-0.025516	0.305879	-0.761640	-0.762973	0.061835	59.9381	-0.762414	-1.387200E+10	-4.457516E-12	NaN
617	1.000000	0.315207	7.37109e+06	-46239.1	1005.82	-29769.9	0.000000	0.000000	6.314876	0.015175	NaN	0.000000	0.001539	0.001687	28.0814	0.107547	0.001995	53.9121	96.1537	-166.893	-0.020097	0.313849	-0.753646	-0.755004	0.015175	53.9121	-0.753857	-1.060997E+10	-1.430284E-12	NaN
617	1.000000	0.323197	7.37109e+06	-46239.1	1005.82	-29769.9	0.000000	0.000000	6.322863	-0.046517	NaN	0.000000	0.001549	0.001681	28.0814	0.027760	0.001980	14.0219	125.584	-165.49	-0.008188	0.321876	-0.745656	-0.746977	-0.046517	14.0219	-0.743168	-7.589292E+9	6.129348E-12	NaN
617	1.000000	0.331188	7.37109e+06	-46239.1	1005.82	-29769.9	0.000000	0.000000	6.330854	-0.046889	NaN	0.000000	0.001582	0.001642	28.0815	0.096304	0.002068	46.5623	-164.946	-168.181	-0.002285	0.329922	-0.737665	-0.738931	-0.046889	46.5623	-0.736910	-6.236761E+9	7.518130E-12	NaN
617	1.000000	0.339208	7.37109e+06	-46239.1	1005.82	-29769.9	0.000000	0.000000	6.338876	-0.014259	NaN	0.000000	0.001563	0.001658	28.0815	0.107235	0.001999	53.6493	174.627	-163.618	-0.032673	0.337843	-0.729644	-0.731010	-0.014259	53.6493	-0.729445	-4.934507E+9	2.889689E-12	NaN
617	1.000000	0.347239	7.37109e+06	-46239.1	1005.82	-29769.9	0.000000	0.000000	6.346904	-0.079978	NaN	0.000000	0.001534	0.001671	28.0824	0.079496	0.002067	38.4575	87.1025	-164.207	-0.095996	0.345886	-0.721613	-0.722967	-0.079978	38.4575	-0.720054	-3.674547E+9	2.176531E-11	NaN
617	1.000000	0.355205	7.37109e+06	-46239.1	1005.82	-29769.9	0.000000	0.000000	6.354870	-0.053274	NaN	0.000000	0.001532	0.001656	28.0828	0.072443	0.001891	38.3157	-81.9057	-166.813	-0.032732	0.353935	-0.713648	-0.714917	-0.053274	38.3157	-0.712605	-2.908053E+9	1.831960E-11	NaN
617	1.000000	0.363222	7.37109e+06	-46239.1	1005.82	-29769.9	0.000000	0.000000	6.362889	-0.033937	NaN	0.000000	0.001558	0.001644	28.083	0.119759	0.002310	51.8493	2.317144	-165.27	-0.087832	0.361914	-0.705630	-0.706939	-0.033937	51.8493	-0.705139	-2.299883E+9	1.475595E-11	NaN
617	1.000000	0.371201	7.37109e+06	-46239.1	1005.82	-29769.9	0.000000	0.000000	6.370868	-0.030987	NaN	0.000000	0.001544	0.001666	28.0827	0.065492	0.002021	32.4135	165.061	-165.07	0.007461	0.369863	-0.697651	-0.698990	-0.030987	32.4135	-0.696934	-1.776888E+9	1.743885E-11	NaN
617	1.000000	0.379215	7.37109e+06	-46239.1	1005.82	-29769.9	0.000000	0.000000	6.378884	0.031241	NaN	0.000000	0.001513	0.001659	28.0829	0.052036	0.001987	26.1892	-139.394	-168.946	0.058004	0.377901	-0.689638	-0.690952	0.031241	26.1892	-0.690533	-1.452780E+9	-2.150402E-11	NaN
617	1.000000	0.387223	7.37109e+06	-46239.1	1005.82	-29769.9	0.000000	0.000000	6.386892	0.026778	NaN	0.000000	0.001560	0.001683	28.0831	0.095310	0.001999	47.69	106.559	-165.612	0.012091	0.385938	-0.681630	-0.682915	0.026778	47.69	-0.682051	-1.112380E+9	-2.407313E-11	NaN
617	1.000000	0.395245	7.37109e+06	-46239.1	1005.82	-29769.9	0.000000	0.000000	6.394910	-0.077733	NaN	0.000000	0.001526	0.001659	28.0828	0.185077	0.001956	94.6122	-64.2348	-165.047	-0.023959	0.393876	-0.673607	-0.674977	-0.077733	94.6122	-0.672991	-8.362273E+8	9.295650E-11	NaN
617	1.000000	0.403235	7.37109e+06	-46239.1	1005.82	-29769.9	0.000000	0.000000	6.402903	0.009085	NaN	0.000000	0.001560	0.001653	28.083	0.083298	0.002140	38.9205	8.941008	-166.238	-0.017199	0.401974	-0.665618	-0.666878	0.009085	38.9205	-0.665793	-6.665064E+8	-1.363060E-11	NaN
617	1.000000	0.411244	7.37109e+06	-46239.1	1005.82	-29769.9	0.000000	0.000000	6.410913	0.009626	NaN	0.000000	0.001545	0.001686	28.0831	0.093692	0.002120	44.189	12.4812	-161.962	-0.046561	0.409885	-0.657608	-0.658968	0.009626	44.189	-0.657772	-5.175421E+8	-1.859969E-11	NaN
617	1.000000	0.419258	7.37109e+06	-46239.1	1005.82	-29769.9	0.000000	0.000000	6.418924	-0.028615	NaN	0.000000	0.001548	0.001676	28.0829	0.114613	0.002148	53.3496	-169.338	-162.575	0.078693	0.417899	-0.649595	-0.650954	-0.028615	53.3496	-0.649193	-3.947962E+8	7.247934E-11	NaN
617	1.000000	0.427230	7.37109e+06	-46239.1	1005.82	-29769.9	0.000000	0.000000	6.426899	0.030528	NaN	0.000000	0.001548	0.001655	28.0832	0.080413	0.001949	41.267	-115.916	-164.176	0.075693	0.425918	-0.641623	-0.642935	0.030528	41.267	-0.642178	-3.163484E+8	-9.650169E-11	NaN
617	1.000000	0.435238	7.37109e+06	-46239.1	1005.82	-29769.9	0.000000	0.000000	6.434904	-0.053041	NaN	0.000000	0.001533	0.001657	28.083	0.084461	0.001982	42.6209	-101.986	-167.316	-0.064136	0.433926	-0.633615	-0.634926	-0.053041	42.6209	-0.632681	-2.343366E+8	2.263467E-10	NaN
617	1.000000	0.443246	7.37109e+06	-46239.1	1005.82	-29769.9	0.000000	0.000000	6.442911	-0.053065	NaN	0.000000	0.001554	0.001718	28.0833	0.124396	0.001928	64.5249	109.612	-163.218	-0.087348	0.441909	-0.625607	-0.626944	-0.053065	64.5249	-0.624990	-1.837432E+8	2.887992E-10	NaN
617	1.000000	0.451258	7.37109e+06	-46239.1	1005.82	-29769.9	0.000000	0.000000	6.450927	0.012263	NaN	0.000000	0.001617	0.001707	28.0832	0.086641	0.002082	41.6194	-111.234	-163.128	0.031970	0.449946	-0.617595	-0.618907	0.012263	41.6194	-0.617816	-1.464215E+8	-8.375187E-11	NaN
617	1.000000	0.459238	7.37109e+06	-46239.1	1005.82	-29769.9	0.000000	0.000000	6.458904	-0.030876	NaN	0.000000	0.001590	0.001734	28.0831	0.021838	0.001931	11.3103	18.6605	-164.056	-0.064403	0.457940	-0.609615	-0.610913	-0.030876	11.3103	-0.607568	-1.058389E+8	2.917305E-10	NaN
617	1.000000	0.467263	7.37109e+06	-46239.1	1005.82	-29769.9	0.000000	0.000000	6.466932	0.009571	NaN	0.000000	0.001665	0.001680	28.083	0.064328	0.002091	30.7579	163.093	-167.363	-0.061293	0.465907	-0.601589	-0.602946	0.009571	30.7579	-0.601823	-8.821880E+7	-1.084870E-10	NaN
617	1.000000	0.475259	7.37109e+06	-46239.1	1005.82	-29769.9	0.000000	0.000000	6.474926	-0.017260	NaN	0.000000	0.001638	0.001686	28.0828	0.064589	0.002046	31.5667	60.7706	-166.239	0.068254	0.473943	-0.593594	-0.594910	-0.017260	31.5667	-0.593184	-6.707325E+7	2.573275E-10	NaN
617	1.000000	0.483244	7.37109e+06	-46239.1	1005.82	-29769.9	0.000000	0.000000	6.482909	-0.067921	NaN	0.000000	0.001643	0.001679	28.0824	0.026381	0.002044	12.9092	-32.4056	-166.602	0.018855	0.481938	-0.585609	-0.586915	-0.067921	12.9092	-0.581663	-4.652347E+7	1.459930E-9	NaN
617	1.000000	0.491256	7.37109e+06	-46239.1	1005.82	-29769.9	0.000000	0.000000	6.490921	-0.069545	NaN	0.000000	0.001595	0.001735	28.0819	0.041624	0.001909	21.8032	129.594	-165.089	-0.033366	0.489978	-0.577597	-0.578875	-0.069545	21.8032	-0.575205	-3.789012E+7	1.835444E-9	NaN
617	1.000000	0.499265	7.37109e+06	-46239.1	1005.82	-29769.9	0.000000	0.000000	6.498931	-0.026370	NaN	0.000000	0.001603	0.001728	28.0818	0.104445	0.002142	48.7716	-52.7234	-163.994	-0.020208	0.497982	-0.569588	-0.570871	-0.026370	48.7716	-0.569183	-3.128524E+7	8.428794E-10	NaN
617	1.000000	0.507252	7.37109e+06	-46239.1	1005.82	-29769.9	0.000000	0.000000	6.506916	-0.091914	NaN	0.000000	0.001606	0.001764	28.0817	0.020318	0.001952	10.4109	-47.5262	-167.949	0.000159	0.505974	-0.561601	-0.562878	-0.091914	10.4109	-0.554979	-1.990206E+7	4.618337E-9	NaN
617	1.000000	0.515269	7.37109e+06	-46239.1	1005.82	-29769.9	0.000000	0.000000	6.514934	-0.088455	NaN	0.000000	0.001620	0.001699	28.0815	0.144810	0.001868	77.5203	-93.8661	-163.389	-0.093602	0.513905	-0.553583	-0.554948	-0.088455	77.5203	-0.552728	-1.852380E+7	4.775228E-9	NaN
617	1.000000	0.523292	7.37109e+06	-46239.1	1005.82	-29769.9	0.000000	0.000000	6.522957	-0.054740	NaN	0.000000	0.001600	0.001767	28.0816	0.040105	0.001995	20.0983	-122.01	-164.453	-0.068267	0.521996	-0.545561	-0.546857	-0.054740	20.0983	-0.543518	-1.380835E+7	3.964283E-9	NaN
617	1.000000	0.531266	7.37109e+06	-46239.1	1005.82	-29769.9	0.000000	0.000000	6.530931	-0.067838	NaN	0.000000	0.001548	0.001727	28.0817	0.026589	0.002055	12.9354	-64.1855	-164.887	-0.024391	0.530010	-0.537587	-0.538843	-0.067838	12.9354	-0.533653	-1.007627E+7	6.732422E-9	NaN
617	1.000000	0.539271	7.37109e+06	-46239.1	1005.82	-29769.9	0.000000	0.000000	6.538937	-0.052250	NaN	0.000000	0.001573	0.001690	28.0817	0.100438	0.002091	48.0435	-56.447	-165.058	-0.089191	0.537962	-0.529582	-0.530891	-0.052250	48.0435	-0.528766	-8.61862e+06	6.062509E-9	NaN
617	1.000000	0.547270	7.37109e+06	-46239.1	1005.82	-29769.9	0.000000	0.000000	6.546938	0.011364	NaN	0.000000	0.001580	0.001665	28.0819	0.143299	0.002143	66.8694	18.9151	-167.875	-0.076463	0.545970	-0.521583	-0.522883	0.011364	66.8694	-0.521710	-6.87669e+06	-1.652604E-9	NaN
617	1.000000	0.555288	7.37109e+06	-46239.1	1005.82	-29769.9	0.000000	0.000000	6.554953	-0.069918	NaN	0.000000	0.001577	0.001728	28.0818	0.080746	0.002064	39.1293	-134.295	-164.692	-0.096504	0.554009	-0.513565	-0.514844	-0.069918	39.1293	-0.512225	-5.07461e+06	1.377802E-8	NaN
617	1.000000	0.563306	7.37109e+06	-46239.1	1005.82	-29769.9	0.000000	0.000000	6.562973	-0.028098	NaN	0.000000	0.001573	0.001721	28.0815	0.039699	0.001954	20.3198	85.9045	-165.837	-0.040889	0.561976	-0.505547	-0.506877	-0.028098	20.3198	-0.504510	-3.96194e+06	7.092072E-9	NaN
617	1.000000	0.571284	7.37109e+06	-46239.1	1005.82	-29769.9	0.000000	0.000000	6.570950	-0.047029	NaN	0.000000	0.001573	0.001720	28.0817	0.095152	0.001997	47.641	165.55	-165.546	-0.003558	0.569964	-0.497568	-0.498888	-0.047029	47.641	-0.496828	-3.09567e+06	1.519171E-8	NaN
617	1.000000	0.579296	7.37109e+06	-46239.1	1005.82	-29769.9	0.000000	0.000000	6.578963	-0.021154	NaN	0.000000	0.001579	0.001745	28.0813	0.044676	0.001930	23.146	60.4883	-165.317	0.062841	0.577945	-0.489557	-0.490908	-0.021154	23.146	-0.488871	-2.39671e+06	8.826263E-9	NaN
617	1.000000	0.587318	7.37109e+06	-46239.1	1005.82	-29769.9	0.000000	0.000000	6.586984	-0.037712	NaN	0.000000	0.001592	0.001753	28.0818	0.110075	0.001940	56.7485	-13.6937	-164.021	0.079172	0.585952	-0.481535	-0.482900	-0.037712	56.7485	-0.481037	-1.86224e+06	2.025058E-8	NaN
617	1.000000	0.595295	7.37109e+06	-46239.1	1005.82	-29769.9	0.000000	0.000000	6.594962	-0.011325	NaN	0.000000	0.001567	0.001723	28.0818	0.053002	0.001951	27.1732	-171.431	-164.091	-0.031542	0.594038	-0.473558	-0.474815	-0.011325	27.1732	-0.473245	-1.44847e+06	7.818542E-9	NaN
617	1.000000	0.603308	7.37109e+06	-46239.1	1005.82	-29769.9	0.000000	0.000000	6.602972	-0.103415	NaN	0.000000	0.001578	0.001741	28.0817	0.047914	0.002156	22.2241	141.964	-164.512	-0.123221	0.602057	-0.465544	-0.466796	-0.103415	22.2241	-0.462054	-1.00898e+06	1.024947E-7	NaN
617	1.000000	0.611340	7.37109e+06	-46239.1	1005.82	-29769.9	0.000000	0.000000	6.611005	-0.074665	NaN	0.000000	0.001592	0.001752	28.0817	0.177405	0.002063	85.9738	94.1741	-164.025	0.003573	0.610022	-0.457512	-0.458831	-0.074665	85.9738	-0.456861	-852886	8.754348E-8	NaN
617	1.000000	0.619342	7.37109e+06	-46239.1	1005.82	-29769.9	0.000000	0.000000	6.619009	-0.033721	NaN	0.000000	0.001510	0.001779	28.0819	0.061333	0.002000	30.6655	-14.0995	-167.131	-0.114167	0.618040	-0.449511	-0.450813	-0.033721	30.6655	-0.448686	-654385	5.153130E-8	NaN
617	1.000000	0.627344	7.37109e+06	-46239.1	1005.82	-29769.9	0.000000	0.000000	6.627011	-0.008236	NaN	0.000000	0.001537	0.001763	28.0835	0.019727	0.001995	9.886220	-160.725	-166.242	0.000529	0.626037	-0.441509	-0.442816	-0.008236	9.886220	-0.440884	-507976	1.621290E-8	NaN
617	1.000000	0.635376	7.37109e+06	-46239.1	1005.82	-29769.9	0.000000	0.000000	6.635044	0.007949	NaN	0.000000	0.001548	0.001775	28.083	0.068825	0.002092	32.9036	-90.3422	-166.651	-0.003993	0.634012	-0.433477	-0.434840	0.007949	32.9036	-0.433658	-401597	-1.979386E-8	NaN
617	1.000000	0.643303	7.37109e+06	-46239.1	1005.82	-29769.9	0.000000	0.000000	6.642969	-0.050871	NaN	0.000000	0.001570	0.001774	28.0831	0.071269	0.002093	34.048	-156.317	-167.937	-0.057892	0.642099	-0.425550	-0.426753	-0.050871	34.048	-0.424429	-297301	1.711106E-7	NaN
617	1.000000	0.651311	7.37109e+06	-46239.1	1005.82	-29769.9	0.000000	0.000000	6.650977	-0.038596	NaN	0.000000	0.001529	0.001776	28.0832	0.078428	0.002000	39.2093	-149.894	-165.934	-0.078927	0.650018	-0.417542	-0.418835	-0.038596	39.2093	-0.416804	-231775	1.665215E-7	NaN
617	1.000000	0.659369	7.37109e+06	-46239.1	1005.82	-29769.9	0.000000	0.000000	6.659034	-0.061273	NaN	0.000000	0.001558	0.001758	28.0829	0.042353	0.001990	21.2788	-46.7754	-166.383	-0.018935	0.658006	-0.409484	-0.410847	-0.061273	21.2788	-0.407325	-169957	3.605194E-7	NaN
617	1.000000	0.667331	7.37109e+06	-46239.1	1005.82	-29769.9	0.000000	0.000000	6.666998	-0.011414	NaN	0.000000	0.001555	0.001761	28.083	0.032999	0.002001	16.4873	158.912	-168.742	-0.006463	0.665996	-0.401522	-0.402857	-0.011414	16.4873	-0.401003	-138132	8.263366E-8	NaN
617	1.000000	0.675345	7.37109e+06	-46239.1	1005.82	-29769.9	0.000000	0.000000	6.675012	-0.010248	NaN	0.000000	0.001550	0.001762	28.0829	0.032934	0.001958	16.8194	94.318	-162.988	-0.055844	0.674013	-0.393508	-0.394840	-0.010248	16.8194	-0.393051	-106364	9.634447E-8	NaN
617	1.000000	0.683364	7.37109e+06	-46239.1	1005.82	-29769.9	0.000000	0.000000	6.683028	-0.100463	NaN	0.000000	0.001573	0.001742	28.0829	0.097655	0.001952	50.031	-133.461	-164.326	-0.110760	0.682001	-0.385488	-0.386851	-0.100463	50.031	-0.383982	-78886.8	1.273504E-6	NaN
617	1.000000	0.691345	7.37109e+06	-46239.1	1005.82	-29769.9	0.000000	0.000000	6.691015	0.047086	NaN	0.000000	0.001620	0.001777	28.0832	0.075705	0.001853	40.8656	-65.9875	-162.427	0.061859	0.690038	-0.377507	-0.378815	0.047086	40.8656	-0.378372	-65541	-7.184212E-7	NaN
617	1.000000	0.699352	7.37109e+06	-46239.1	1005.82	-29769.9	0.000000	0.000000	6.699017	-0.065959	NaN	0.000000	0.001562	0.001786	28.0829	0.100732	0.002061	48.8661	65.6442	-164.945	-0.170215	0.698029	-0.369501	-0.370824	-0.065959	48.8661	-0.368488	-47244.6	1.396121E-6	NaN
617	1.000000	0.707354	7.37109e+06	-46239.1	1005.82	-29769.9	0.000000	0.000000	6.707020	-0.053039	NaN	0.000000	0.001548	0.001745	28.0832	0.094451	0.001876	50.3367	145.709	-166.338	-0.031353	0.706074	-0.361499	-0.362779	-0.053039	50.3367	-0.360708	-36482.4	1.453812E-6	NaN
617	1.000000	0.715383	7.37109e+06	-46239.1	1005.82	-29769.9	0.000000	0.000000	6.715048	-0.051129	NaN	0.000000	0.001565	0.001752	28.0827	0.089812	0.001919	46.8029	-178.532	-166.384	-0.031032	0.714061	-0.353470	-0.354792	-0.051129	46.8029	-0.352651	-27890.3	1.833213E-6	NaN
617	1.000000	0.723368	7.37109e+06	-46239.1	1005.82	-29769.9	0.000000	0.000000	6.723034	-0.025999	NaN	0.000000	0.001557	0.001749	28.0828	0.079174	0.001920	41.2304	-69.0427	-167.631	-0.075920	0.722058	-0.345485	-0.346794	-0.025999	41.2304	-0.345012	-21604.1	1.203417E-6	NaN
617	1.000000	0.731367	7.37109e+06	-46239.1	1005.82	-29769.9	0.000000	0.000000	6.731033	-0.052320	NaN	0.000000	0.001546	0.001748	28.0828	0.061916	0.001966	31.5013	-4.786834	-168.417	-0.091627	0.730072	-0.337486	-0.338780	-0.052320	31.5013	-0.336240	-16095.3	3.250640E-6	NaN
617	1.000000	0.739388	7.37109e+06	-46239.1	1005.82	-29769.9	0.000000	0.000000	6.739055	-0.033174	NaN	0.000000	0.001526	0.001754	28.0829	0.074886	0.001973	37.9565	80.0876	-163.246	0.026733	0.738070	-0.329464	-0.330783	-0.033174	37.9565	-0.328809	-12531.5	2.647284E-6	NaN
617	1.000000	0.747358	7.37109e+06	-46239.1	1005.82	-29769.9	0.000000	0.000000	6.747024	-0.055056	NaN	0.000000	0.001558	0.001767	28.083	0.061982	0.001928	32.1414	109.686	-165.73	-0.068777	0.746075	-0.321495	-0.322778	-0.055056	32.1414	-0.320210	-9369.74	5.875972E-6	NaN
617	1.000000	0.755352	7.37109e+06	-46239.1	1005.82	-29769.9	0.000000	0.000000	6.755022	0.048173	NaN	0.000000	0.001554	0.001724	28.0825	0.121085	0.001961	61.7489	-11.8528	-164.973	0.073099	0.754034	-0.313501	-0.314819	0.048173	61.7489	-0.314086	-7611.2	-6.329238E-6	NaN
617	1.000000	0.763375	7.37109e+06	-46239.1	1005.82	-29769.9	0.000000	0.000000	6.763038	-0.106772	NaN	0.000000	0.001563	0.001764	28.0816	0.060269	0.001981	30.4273	-107.265	-165.982	-0.085695	0.762068	-0.305478	-0.306785	-0.106772	30.4273	-0.302846	-5187.66	2.058190E-5	NaN
617	1.000000	0.771385	7.37109e+06	-46239.1	1005.82	-29769.9	0.000000	0.000000	6.771053	0.001008	NaN	0.000000	0.001548	0.001759	28.0816	0.050325	0.001985	25.352	94.8996	-167.303	-0.025832	0.770133	-0.297467	-0.298720	0.001008	25.352	-0.297497	-4318.67	-2.333819E-7	NaN
617	1.000000	0.779389	7.37109e+06	-46239.1	1005.82	-29769.9	0.000000	0.000000	6.779057	0.013606	NaN	0.000000	0.001565	0.001761	28.0817	0.121072	0.002097	57.7287	-23.912	-165.359	0.006675	0.778040	-0.289464	-0.290813	0.013606	57.7287	-0.289641	-3295.46	-4.128580E-6	NaN
617	1.000000	0.787350	7.37109e+06	-46239.1	1005.82	-29769.9	0.000000	0.000000	6.787015	-0.092447	NaN	0.000000	0.001601	0.001799	28.0817	0.079414	0.002060	38.5583	175.176	-163.133	-0.068061	0.786084	-0.281502	-0.282769	-0.092447	38.5583	-0.279704	-2336.18	3.957191E-5	NaN
617	1.000000	0.795372	7.37109e+06	-46239.1	1005.82	-29769.9	0.000000	0.000000	6.795038	-0.052161	NaN	0.000000	0.001590	0.001770	28.0815	0.083907	0.001903	44.0832	-148.391	-164.823	-0.070966	0.794053	-0.273481	-0.274800	-0.052161	44.0832	-0.272593	-1823.59	2.860363E-5	NaN
617	1.000000	0.803377	7.37109e+06	-46239.1	1005.82	-29769.9	0.000000	0.000000	6.803043	-0.039899	NaN	0.000000	0.001592	0.001784	28.0819	0.106517	0.002160	49.3117	-178.217	-164.057	-0.070281	0.802101	-0.265476	-0.266752	-0.039899	49.3117	-0.264869	-1391.21	2.867914E-5	NaN
617	1.000000	0.811385	7.37109e+06	-46239.1	1005.82	-29769.9	0.000000	0.000000	6.811050	-0.061661	NaN	0.000000	0.001565	0.001766	28.0818	0.026425	0.002094	12.6218	174.803	-166.02	-0.059213	0.810100	-0.257468	-0.258753	-0.061661	12.6218	-0.253804	-941.222	6.551139E-5	NaN
617	1.000000	0.819414	7.37109e+06	-46239.1	1005.82	-29769.9	0.000000	0.000000	6.819078	-0.091398	NaN	0.000000	0.001520	0.001809	28.0819	0.030785	0.001889	16.3009	-126.004	-167.572	-0.084525	0.817981	-0.249439	-0.250872	-0.091398	16.3009	-0.245233	-693.553	0.000132	NaN
617	1.000000	0.827446	7.37109e+06	-46239.1	1005.82	-29769.9	0.000000	0.000000	6.827113	-0.019680	NaN	0.000000	0.001563	0.001798	28.0815	0.085658	0.001953	43.8564	106.547	-165.451	0.001380	0.826129	-0.241407	-0.242724	-0.019680	43.8564	-0.241071	-597.403	3.294281E-5	NaN
617	1.000000	0.835411	7.37109e+06	-46239.1	1005.82	-29769.9	0.000000	0.000000	6.835076	-0.053709	NaN	0.000000	0.001565	0.001801	28.0817	0.077513	0.001994	38.8806	9.734946	-162.815	-0.045681	0.834037	-0.233442	-0.234816	-0.053709	38.8806	-0.232406	-436.977	0.000123	NaN
617	1.000000	0.843432	7.37109e+06	-46239.1	1005.82	-29769.9	0.000000	0.000000	6.843098	-0.045791	NaN	0.000000	0.001595	0.001762	28.0817	0.015377	0.001955	7.863520	-30.5961	-169.646	-0.096631	0.842074	-0.225421	-0.226779	-0.045791	7.863520	-0.221054	-288.739	0.000159	NaN
617	1.000000	0.851416	7.37109e+06	-46239.1	1005.82	-29769.9	0.000000	0.000000	6.851083	-0.013278	NaN	0.000000	0.001556	0.001695	28.0818	0.021259	0.001949	10.9106	-173.567	-164.822	-0.046840	0.850119	-0.217437	-0.218734	-0.013278	10.9106	-0.216524	-244.344	5.434235E-5	NaN
617	1.000000	0.859421	7.37109e+06	-46239.1	1005.82	-29769.9	0.000000	0.000000	6.859087	-0.038417	NaN	0.000000	0.001566	0.001709	28.0818	0.075846	0.001976	38.3841	125.873	-167.951	0.036927	0.858154	-0.209432	-0.210699	-0.038417	38.3841	-0.208681	-182.575	0.000210	NaN
617	1.000000	0.867396	7.37109e+06	-46239.1	1005.82	-29769.9	0.000000	0.000000	6.867063	-0.017341	NaN	0.000000	0.001576	0.001677	28.0815	0.153082	0.002026	75.5604	-42.3196	-164.416	-0.063534	0.866167	-0.201457	-0.202686	-0.017341	75.5604	-0.201285	-138.291	0.000125	NaN
617	1.000000	0.875407	7.37109e+06	-46239.1	1005.82	-29769.9	0.000000	0.000000	6.875073	-0.050706	NaN	0.000000	0.001579	0.001684	28.0818	0.043671	0.001990	21.9454	-117.035	-167.377	-0.066770	0.874074	-0.193445	-0.194778	-0.050706	21.9454	-0.191712	-96.0712	0.000528	NaN
617	1.000000	0.883435	7.37109e+06	-46239.1	1005.82	-29769.9	0.000000	0.000000	6.883099	-0.084011	NaN	0.000000	0.001564	0.001711	28.082	0.054643	0.001832	29.8265	26.2346	-164.421	-0.147541	0.882092	-0.185418	-0.186761	-0.084011	29.8265	-0.183305	-69.4268	0.001210	NaN
617	1.000000	0.891392	7.37109e+06	-46239.1	1005.82	-29769.9	0.000000	0.000000	6.891058	-0.048928	NaN	0.000000	0.001537	0.001706	28.0819	0.052528	0.001958	26.8252	-9.785004	-166.02	-0.020208	0.890172	-0.177461	-0.178680	-0.048928	26.8252	-0.176093	-52.3286	0.000935	NaN
617	1.000000	0.899431	7.37109e+06	-46239.1	1005.82	-29769.9	0.000000	0.000000	6.899097	-0.049297	NaN	0.000000	0.001532	0.001695	28.0831	0.000989	0.001953	0.506192	3.644772	-164.145	-0.054054	0.898076	-0.169422	-0.170776	-0.049297	0.506192	-0.096381	-1.516186	0.032514	NaN
617	1.000000	0.907461	7.37109e+06	-46239.1	1005.82	-29769.9	0.000000	0.000000	6.907127	-0.032074	NaN	0.000000	0.001551	0.001698	28.083	0.045280	0.002064	21.9368	-167.419	-166.604	-0.046480	0.906187	-0.161392	-0.162666	-0.032074	21.9368	-0.160295	-27.7481	0.001156	NaN
617	1.000000	0.915443	7.37109e+06	-46239.1	1005.82	-29769.9	0.000000	0.000000	6.915109	-0.037135	NaN	0.000000	0.001574	0.001704	28.0829	0.041054	0.002073	19.8081	-91.1168	-165.176	-0.058255	0.914157	-0.153410	-0.154696	-0.037135	19.8081	-0.152004	-19.6995	0.001885	NaN
617	1.000000	0.923458	7.37109e+06	-46239.1	1005.82	-29769.9	0.000000	0.000000	6.923123	-0.052312	NaN	0.000000	0.001558	0.001688	28.0829	0.063827	0.001958	32.6037	79.1791	-165.122	-0.020010	0.922145	-0.145395	-0.146708	-0.052312	32.6037	-0.144192	-14.1644	0.003693	NaN
617	1.000000	0.931436	7.37109e+06	-46239.1	1005.82	-29769.9	0.000000	0.000000	6.931102	-0.031612	NaN	0.000000	0.001591	0.001705	28.083	0.083333	0.001976	42.1809	-47.248	-165.949	0.020738	0.930183	-0.137417	-0.138670	-0.031612	42.1809	-0.136855	-10.3179	0.003064	NaN
617	1.000000	0.939448	7.37109e+06	-46239.1	1005.82	-29769.9	0.000000	0.000000	6.939116	-0.012499	NaN	0.000000	0.001548	0.001714	28.0832	0.040843	0.002000	20.4211	114.099	-167.381	-0.051654	0.938203	-0.129404	-0.130650	-0.012499	20.4211	-0.128945	-7.269186	0.001719	NaN
617	1.000000	0.947438	7.37109e+06	-46239.1	1005.82	-29769.9	0.000000	0.000000	6.947101	-0.098761	NaN	0.000000	0.001536	0.001691	28.0828	0.076055	0.002082	36.5324	49.7607	-165.895	-0.113345	0.946126	-0.121415	-0.122727	-0.098761	36.5324	-0.119388	-4.695775	0.021032	NaN
617	1.000000	0.955447	7.37109e+06	-46239.1	1005.82	-29769.9	0.000000	0.000000	6.955114	-0.032424	NaN	0.000000	0.001544	0.001688	28.0828	0.099525	0.001977	50.3473	62.9255	-167.259	-0.016520	0.954136	-0.113406	-0.114717	-0.032424	50.3473	-0.112923	-3.460063	0.009371	NaN
617	1.000000	0.963474	7.37109e+06	-46239.1	1005.82	-29769.9	0.000000	0.000000	6.963140	-0.023671	NaN	0.000000	0.001574	0.001681	28.0828	0.081891	0.002025	40.4427	103.572	-168.294	0.003636	0.962133	-0.105379	-0.106719	-0.023671	40.4427	-0.104940	-2.343599	0.010100	NaN
617	1.000000	0.971447	7.37109e+06	-46239.1	1005.82	-29769.9	0.000000	0.000000	6.971116	0.029467	NaN	0.000000	0.001547	0.001707	28.083	0.020617	0.002049	10.064	81.7484	-165.886	0.028526	0.970173	-0.097405	-0.098680	0.029467	10.064	-0.099601	-1.790312	-0.016459	NaN
617	1.000000	0.979466	7.37109e+06	-46239.1	1005.82	-29769.9	0.000000	0.000000	6.979133	-0.011375	NaN	0.000000	0.001555	0.001690	28.0829	0.011863	0.001989	5.964630	-122.225	-168.618	0.008173	0.978139	-0.089387	-0.090714	-0.011375	5.964630	-0.087957	-0.967323	0.011760	NaN
617	1.000000	0.987436	7.37109e+06	-46239.1	1005.82	-29769.9	0.000000	0.000000	6.987102	-0.036665	NaN	0.000000	0.001579	0.001706	28.0828	0.060914	0.001993	30.5594	-71.875	-164.105	-0.077096	0.986149	-0.081417	-0.082703	-0.036665	30.5594	-0.080517	-0.637679	0.057497	NaN
617	1.000000	0.995483	7.37109e+06	-46239.1	1005.82	-29769.9	0.000000	0.000000	6.995151	0.002984	NaN	0.000000	0.001558	0.001688	28.083	0.036394	0.002042	17.8192	-136.072	-168.802	-0.025308	0.994170	-0.073370	-0.074683	0.002984	17.8192	-0.073495	-0.422073	-0.007069	NaN
617	1.000000	1.003467	7.37109e+06	-46239.1	1005.82	-29769.9	0.000000	0.000000	7.003132	-0.066528	NaN	0.000000	0.001543	0.001669	28.0828	0.046308	0.002056	22.5243	73.8474	-165.049	-0.020655	1.002143	-0.065386	-0.066710	-0.066528	22.5243	-0.063170	-0.221567	0.300260	NaN
617	1.000000	1.011469	7.37109e+06	-46239.1	1005.82	-29769.9	0.000000	0.000000	7.011133	-0.082004	NaN	0.000000	0.001541	0.001654	28.083	0.050933	0.001992	25.5659	-85.2994	-164.134	-0.052913	1.010178	-0.057384	-0.058675	-0.082004	25.5659	-0.054978	-0.128589	0.637724	NaN
617	1.000000	1.019488	7.37109e+06	-46239.1	1005.82	-29769.9	0.000000	0.000000	7.019152	-0.093591	NaN	0.000000	0.001564	0.001645	28.0828	0.087869	0.002045	42.9761	-37.8015	-167.527	-0.009800	1.018162	-0.049365	-0.050691	-0.093591	42.9761	-0.047732	-0.077872	1.201855	NaN
617	1.000000	1.027491	7.37109e+06	-46239.1	1005.82	-29769.9	0.000000	0.000000	7.027158	-0.028046	NaN	0.000000	0.001557	0.001643	28.0829	0.065038	0.002001	32.4989	-29.0154	-170.655	-0.053062	1.026131	-0.041361	-0.042722	-0.028046	32.4989	-0.040714	-0.047541	0.589928	NaN
617	1.000000	1.035478	7.37109e+06	-46239.1	1005.82	-29769.9	0.000000	0.000000	7.035143	-0.078867	NaN	0.000000	0.001533	0.001632	28.082	0.049952	0.002088	23.9284	178.346	-168.589	-0.122200	1.034180	-0.033374	-0.034673	-0.078867	23.9284	-0.030902	-0.024393	3.233234	NaN
617	1.000000	1.043526	7.37109e+06	-46239.1	1005.82	-29769.9	0.000000	0.000000	7.043194	-0.006893	NaN	0.000000	0.001517	0.001600	28.0817	0.122574	0.001983	61.7998	116.228	-165.994	0.005529	1.042187	-0.025326	-0.026666	-0.006893	61.7998	-0.025243	-0.017119	0.402642	NaN
617	1.000000	1.051480	7.37109e+06	-46239.1	1005.82	-29769.9	0.000000	0.000000	7.051146	-0.045286	NaN	0.000000	0.001541	0.001642	28.0818	0.075077	0.001951	38.4771	-64.1957	-164.18	-0.044016	1.050167	-0.017373	-0.018686	-0.045286	38.4771	-0.016490	-0.010188	4.445169	NaN
617	1.000000	1.059515	7.37109e+06	-46239.1	1005.82	-29769.9	0.000000	0.000000	7.059181	-0.046375	NaN	0.000000	0.001549	0.001616	28.0815	0.041347	0.002083	19.8484	-104.172	-166.944	-0.098766	1.058183	-0.009338	-0.010670	-0.046375	19.8484	-0.007586	-0.004988	9.297271	NaN
617	1.000000	1.067482	7.37109e+06	-46239.1	1005.82	-29769.9	0.000000	0.000000	7.067286	3.312903	NaN	0.000000	0.001558	0.001669	28.0819	4.161497	0.001880	2213.36	12.0177	-171.044	2.231633	1.066168	-0.001371	-0.002685	3.312903	2213.36	-0.002494	-0.001778	-1862.77	NaN
617	2.000000	1.074045	7.37109e+06	-46239.1	1005.82	-29769.9	0.000000	0.000000	7.074158	10.8397	NaN	0.000000	0.001536	0.001620	28.0819	9.513004	0.001526	6233.93	6.605592	-173.1	10.9356	1.073636	0.005192	0.004783	10.8397	6233.93	0.003888	0.003141	3451.19	101627
617	2.000000	1.076039	7.37109e+06	-46239.1	1005.82	-29769.9	0.000000	0.000000	7.076289	14.1435	NaN	0.000000	0.001558	0.001639	28.0816	12.3219	0.001719	7167.68	9.414871	-178.623	13.596	1.075675	0.007187	0.006822	14.1435	7167.68	0.005707	0.004788	2954.25	94644.9
617	2.000000	1.078008	7.37109e+06	-46239.1	1005.82	-29769.9	0.000000	0.000000	7.078441	18.6298	NaN	0.000000	0.001529	0.001653	28.0818	13.7446	0.001727	7960.56	2.614748	-171.001	18.1745	1.077656	0.009155	0.008803	18.6298	7960.56	0.007400	0.006432	2896.41	90686.4
617	2.000000	1.079992	7.37109e+06	-46239.1	1005.82	-29769.9	0.000000	0.000000	7.080535	21.299	NaN	0.000000	0.001567	0.001621	28.082	16.7065	0.001812	9220.73	4.910725	-174.858	20.5218	1.079682	0.011139	0.010829	21.299	9220.73	0.009406	0.008529	2497.2	91219.2
617	2.000000	1.082044	7.37109e+06	-46239.1	1005.82	-29769.9	0.000000	0.000000	7.082826	27.112	NaN	0.000000	0.001547	0.001693	28.0826	18.2884	0.001783	10258.8	3.351764	-173.143	27.1719	1.081605	0.013191	0.012752	27.112	10258.8	0.011209	0.010556	2568.37	91225.3
617	2.000000	1.083940	7.37109e+06	-46239.1	1005.82	-29769.9	0.000000	0.000000	7.084878	30.9044	NaN	0.000000	0.001569	0.001687	28.0819	19.7943	0.001749	11316.7	1.539329	-174.057	28.381	1.083625	0.015087	0.014773	30.9044	11316.7	0.013039	0.012758	2422.3	91537.3
617	2.000000	1.085970	7.37109e+06	-46239.1	1005.82	-29769.9	0.000000	0.000000	7.087050	34.3465	NaN	0.000000	0.001604	0.001689	28.0817	22.5639	0.001706	13228.9	5.272899	-179.167	33.7229	1.085632	0.017117	0.016779	34.3465	13228.9	0.015170	0.015513	2214.11	97041
617	2.000000	1.088002	7.37109e+06	-46239.1	1005.82	-29769.9	0.000000	0.000000	7.089284	39.2662	NaN	0.000000	0.001596	0.001682	28.0821	23.9742	0.001898	12634.5	5.325082	-178.361	40.4536	1.087716	0.019149	0.018863	39.2662	12634.5	0.016818	0.017787	2207.61	86553.1
617	2.000000	1.089965	7.37109e+06	-46239.1	1005.82	-29769.9	0.000000	0.000000	7.091456	44.3473	NaN	0.000000	0.001576	0.001633	28.0819	26.0407	0.001780	14632.5	2.959984	-177.015	44.0344	1.089611	0.021112	0.020759	44.3473	14632.5	0.018839	0.020751	2137.08	92804.8
617	2.000000	1.092008	7.37109e+06	-46239.1	1005.82	-29769.9	0.000000	0.000000	7.093864	53.2282	NaN	0.000000	0.001566	0.001643	28.0831	27.8466	0.001759	15831.1	7.181067	178.811	54.9592	1.091575	0.023155	0.022723	53.2282	15831.1	0.020633	0.023547	2260.51	94257.8
617	2.000000	1.093942	7.37109e+06	-46239.1	1005.82	-29769.9	0.000000	0.000000	7.095922	56.2244	NaN	0.000000	0.001594	0.001653	28.0818	30.2443	0.001861	16248.3	10.169	174.532	56.3634	1.093606	0.025090	0.024753	56.2244	16248.3	0.022494	0.026614	2112.55	90996.3
617	2.000000	1.095873	7.37109e+06	-46239.1	1005.82	-29769.9	0.000000	0.000000	7.098205	64.8132	NaN	0.000000	0.001558	0.001676	28.0816	31.5576	0.001724	18303.8	5.281695	177.825	61.5548	1.095622	0.027020	0.026769	64.8132	18303.8	0.024365	0.029870	2169.87	96760.6
617	2.000000	1.097914	7.37109e+06	-46239.1	1005.82	-29769.9	0.000000	0.000000	7.100488	70.6826	NaN	0.000000	0.001562	0.001613	28.0832	32.4602	0.001718	18896.4	3.067312	-179.851	69.2128	1.097562	0.029062	0.028709	70.6826	18896.4	0.026256	0.033341	2120.01	94550.8
617	2.000000	1.099956	7.37109e+06	-46239.1	1005.82	-29769.9	0.000000	0.000000	7.102788	76.9684	NaN	0.000000	0.001498	0.001672	28.083	35.7934	0.001841	19440.7	8.610530	175.465	77.5816	1.099559	0.031103	0.030707	76.9684	19440.7	0.028134	0.036964	2082.23	92383.4
617	2.000000	1.101959	7.37109e+06	-46239.1	1005.82	-29769.9	0.000000	0.000000	7.105121	84.9998	NaN	0.000000	0.001526	0.001619	28.0832	37.6684	0.001756	21453.8	7.320391	174.935	85.8167	1.101638	0.033106	0.032785	84.9998	21453.8	0.030135	0.041023	2071.99	96774.7
617	2.000000	1.103923	7.37109e+06	-46239.1	1005.82	-29769.9	0.000000	0.000000	7.107407	92.8426	NaN	0.000000	0.001531	0.001670	28.0829	38.5513	0.001790	21534.7	6.940007	175.837	92.238	1.103639	0.035070	0.034786	92.8426	21534.7	0.031836	0.044636	2080.01	93125.9
617	2.000000	1.105928	7.37109e+06	-46239.1	1005.82	-29769.9	0.000000	0.000000	7.109648	98.5631	NaN	0.000000	0.001526	0.001653	28.0828	42.1709	0.001778	23715.1	5.721477	174.582	98.2695	1.105703	0.037075	0.036851	98.5631	23715.1	0.033958	0.049348	1997.31	97535.7
617	2.000000	1.107868	7.37109e+06	-46239.1	1005.82	-29769.9	0.000000	0.000000	7.112227	114.118	NaN	0.000000	0.001544	0.001682	28.0831	42.1879	0.001788	23589.6	3.041739	178.29	111.673	1.107589	0.039015	0.038737	114.118	23589.6	0.035387	0.052650	2167.48	93927.9
617	2.000000	1.109884	7.37109e+06	-46239.1	1005.82	-29769.9	0.000000	0.000000	7.114481	119.915	NaN	0.000000	0.001555	0.001647	28.0829	46.1207	0.001940	23770.6	2.270375	179.559	117.197	1.109566	0.041031	0.040713	119.915	23770.6	0.037247	0.057108	2099.79	90879.3
617	2.000000	1.111882	7.37109e+06	-46239.1	1005.82	-29769.9	0.000000	0.000000	7.116809	127.926	NaN	0.000000	0.001565	0.001660	28.0836	48.1152	0.001922	25037.4	8.427366	173.004	127.086	1.111518	0.043030	0.042665	127.926	25037.4	0.039198	0.061971	2064.28	91890
617	2.000000	1.113860	7.37109e+06	-46239.1	1005.82	-29769.9	0.000000	0.000000	7.119109	135.749	NaN	0.000000	0.001516	0.001671	28.0829	48.0069	0.001704	28178.2	2.553504	176.377	132.324	1.113649	0.045008	0.044796	135.749	28178.2	0.041394	0.067682	2005.7	98957.8
617	2.000000	1.115924	7.37109e+06	-46239.1	1005.82	-29769.9	0.000000	0.000000	7.121584	145.766	NaN	0.000000	0.001507	0.001665	28.083	50.8448	0.001847	27526.1	2.325217	178	145.601	1.115593	0.047071	0.046740	145.766	27526.1	0.043099	0.072284	2016.58	93540
617	2.000000	1.117873	7.37109e+06	-46239.1	1005.82	-29769.9	0.000000	0.000000	7.124021	157.637	NaN	0.000000	0.001524	0.001655	28.083	52.5501	0.001800	29202.6	5.079883	173.859	155.845	1.117637	0.049020	0.048784	157.637	29202.6	0.044972	0.077507	2033.83	95834.6
617	2.000000	1.119893	7.37109e+06	-46239.1	1005.82	-29769.9	0.000000	0.000000	7.126407	166.546	NaN	0.000000	0.001513	0.001683	28.0829	53.9215	0.001666	32358.9	6.992539	171.814	165.652	1.119544	0.051040	0.050691	166.546	32358.9	0.047180	0.083895	1985.16	102070
617	2.000000	1.121910	7.37109e+06	-46239.1	1005.82	-29769.9	0.000000	0.000000	7.128949	179.312	NaN	0.000000	0.001526	0.001679	28.0834	56.3923	0.001823	30935.1	6.917012	173.534	177.545	1.121509	0.053057	0.052656	179.312	30935.1	0.048709	0.088466	2026.91	95024.8
617	2.000000	1.123809	7.37109e+06	-46239.1	1005.82	-29769.9	0.000000	0.000000	7.131374	192.106	NaN	0.000000	0.001561	0.001647	28.0828	58.0812	0.001869	31078.8	5.074841	174.141	188.377	1.123529	0.054956	0.054676	192.106	31078.8	0.050320	0.093405	2056.7	92907.9
617	2.000000	1.125876	7.37109e+06	-46239.1	1005.82	-29769.9	0.000000	0.000000	7.133930	204.002	NaN	0.000000	0.001554	0.001647	28.0831	61.238	0.001852	33066.8	6.117267	172.464	203.506	1.125551	0.057023	0.056698	204.002	33066.8	0.052396	0.099962	2040.8	95553.9
617	2.000000	1.127841	7.37109e+06	-46239.1	1005.82	-29769.9	0.000000	0.000000	7.136372	215.595	NaN	0.000000	0.001522	0.001648	28.083	61.1256	0.001750	34934.3	3.996383	174.098	212.116	1.127577	0.058988	0.058724	215.595	34934.3	0.054360	0.106363	2026.97	97865.3
617	2.000000	1.129776	7.37109e+06	-46239.1	1005.82	-29769.9	0.000000	0.000000	7.138744	226.241	NaN	0.000000	0.001537	0.001643	28.0828	63.4866	0.001862	34095.2	3.613101	174.761	220.038	1.129477	0.060923	0.060624	226.241	34095.2	0.055946	0.111674	2025.9	93215.8
617	2.000000	1.131849	7.37109e+06	-46239.1	1005.82	-29769.9	0.000000	0.000000	7.141343	239.03	NaN	0.000000	0.001513	0.001606	28.0817	64.6298	0.001754	36855.4	2.735876	175.585	235.485	1.131515	0.062996	0.062662	239.03	36855.4	0.058132	0.119194	2005.38	97531.7
617	2.000000	1.133830	7.37109e+06	-46239.1	1005.82	-29769.9	0.000000	0.000000	7.143741	249.169	NaN	0.000000	0.001530	0.001638	28.0816	66.9716	0.001865	35900.6	6.575539	172.011	245.716	1.133479	0.064978	0.064626	249.169	35900.6	0.059772	0.124992	1993.47	92775.5
617	2.000000	1.136001	7.37109e+06	-46239.1	1005.82	-29769.9	0.000000	0.000000	7.146079	253.242	NaN	0.000000	0.001544	0.001634	28.0821	68.5859	0.001733	39581.1	3.057026	173.739	258.36	1.135682	0.067148	0.066829	253.242	39581.1	0.062350	0.134368	1884.68	98653.5
617	2.000000	1.137804	7.37109e+06	-46239.1	1005.82	-29769.9	0.000000	0.000000	7.148728	273.807	NaN	0.000000	0.001583	0.001609	28.0817	70.1458	0.001844	38047.6	5.217674	172.069	270.263	1.137565	0.068951	0.068712	273.807	38047.6	0.063554	0.138860	1971.82	93285
617	2.000000	1.139902	7.37109e+06	-46239.1	1005.82	-29769.9	0.000000	0.000000	7.151339	286.295	NaN	0.000000	0.001579	0.001658	28.0818	71.7144	0.001872	38319.1	3.316026	174.593	288.601	1.139504	0.071049	0.070651	286.295	38319.1	0.065445	0.146056	1960.18	91607.1
617	2.000000	1.141863	7.37109e+06	-46239.1	1005.82	-29769.9	0.000000	0.000000	7.153983	302.897	NaN	0.000000	0.001534	0.001635	28.0817	73.0014	0.001752	41678.1	4.252157	172.904	302.363	1.141586	0.073010	0.072734	302.897	41678.1	0.067560	0.154302	1963.01	96938.2
617	2.000000	1.143770	7.37109e+06	-46239.1	1005.82	-29769.9	0.000000	0.000000	7.156441	316.297	NaN	0.000000	0.001544	0.001645	28.0816	73.8848	0.001775	41626.3	5.399534	171.853	310.377	1.143440	0.074917	0.074587	316.297	41626.3	0.069218	0.160923	1965.52	94805
617	2.000000	1.145891	7.37109e+06	-46239.1	1005.82	-29769.9	0.000000	0.000000	7.158897	324.449	NaN	0.000000	0.001596	0.001621	28.0827	76.9712	0.001805	42649.4	3.529109	172.813	324.733	1.145591	0.077038	0.076738	324.449	42649.4	0.071333	0.169552	1913.57	94631.4
617	2.000000	1.147772	7.37109e+06	-46239.1	1005.82	-29769.9	0.000000	0.000000	7.161044	330.911	NaN	0.000000	0.001559	0.001632	28.0819	77.2114	0.001763	43803.5	2.978827	173.064	325.571	1.147642	0.078920	0.078789	330.911	43803.5	0.073254	0.177575	1863.5	94971
617	2.000000	1.149859	7.37109e+06	-46239.1	1005.82	-29769.9	0.000000	0.000000	7.164143	355.532	NaN	0.000000	0.001565	0.001638	28.0816	80.4726	0.001753	45913.9	3.811713	172.103	355.158	1.149500	0.081006	0.080647	355.532	45913.9	0.075199	0.185876	1912.73	97298.3
617	2.000000	1.151896	7.37109e+06	-46239.1	1005.82	-29769.9	0.000000	0.000000	7.167009	375.712	NaN	0.000000	0.001568	0.001634	28.0817	83.7567	0.001767	47406.2	7.185228	169.252	374.999	1.151513	0.083043	0.082660	375.712	47406.2	0.077099	0.194159	1935.07	98294.4
617	2.000000	1.153754	7.37109e+06	-46239.1	1005.82	-29769.9	0.000000	0.000000	7.169380	388.185	NaN	0.000000	0.001581	0.001629	28.0815	86.1977	0.001963	43905.4	5.175184	171.324	382.529	1.153527	0.084901	0.084674	388.185	43905.4	0.078270	0.199348	1947.27	89843.2
617	2.000000	1.155815	7.37109e+06	-46239.1	1005.82	-29769.9	0.000000	0.000000	7.172071	403.509	NaN	0.000000	0.001586	0.001622	28.0819	86.8705	0.001744	49811.6	5.450404	170.303	400.536	1.155512	0.086963	0.086659	403.509	49811.6	0.080887	0.211173	1910.8	99034
617	2.000000	1.157807	7.37109e+06	-46239.1	1005.82	-29769.9	0.000000	0.000000	7.174946	424.98	NaN	0.000000	0.001583	0.001610	28.0817	87.3125	0.001761	49584	5.772136	170.047	422.744	1.157554	0.088954	0.088701	424.98	49584	0.082526	0.218742	1942.84	96860.9
617	2.000000	1.159816	7.37109e+06	-46239.1	1005.82	-29769.9	0.000000	0.000000	7.177602	440.727	NaN	0.000000	0.001588	0.001626	28.0819	89.129	0.001903	46843.6	3.338860	173.292	437.991	1.159411	0.090963	0.090558	440.727	46843.6	0.083907	0.225215	1956.92	90183.2
617	2.000000	1.161933	7.37109e+06	-46239.1	1005.82	-29769.9	0.000000	0.000000	7.180174	451.808	NaN	0.000000	0.001607	0.001611	28.0822	90.6774	0.001665	54467.5	5.231346	169.977	454.029	1.161477	0.093080	0.092624	451.808	54467.5	0.086859	0.239347	1887.67	101718
617	2.000000	1.163832	7.37109e+06	-46239.1	1005.82	-29769.9	0.000000	0.000000	7.182880	471.44	NaN	0.000000	0.001600	0.001642	28.0816	91.1249	0.001712	53218.4	2.836807	172.27	468.404	1.163564	0.094979	0.094711	471.44	53218.4	0.088335	0.246567	1912.01	97919.2
617	2.000000	1.165818	7.37109e+06	-46239.1	1005.82	-29769.9	0.000000	0.000000	7.185345	483.078	NaN	0.000000	0.001589	0.001645	28.0829	94.6718	0.001773	53391.8	1.386174	173.661	480.246	1.165664	0.096965	0.096811	483.078	53391.8	0.090179	0.255728	1889.03	96462.6
617	2.000000	1.167916	7.37109e+06	-46239.1	1005.82	-29769.9	0.000000	0.000000	7.188410	506.612	NaN	0.000000	0.001556	0.001630	28.0831	96.2086	0.001786	53866.7	5.115359	170.324	510.981	1.167578	0.099063	0.098725	506.612	53866.7	0.092010	0.264971	1911.95	95608.1
617	2.000000	1.169722	7.37109e+06	-46239.1	1005.82	-29769.9	0.000000	0.000000	7.190895	523.141	NaN	0.000000	0.001597	0.001632	28.0831	98.6338	0.001755	56203.8	4.636001	170.136	516.98	1.169545	0.100869	0.100692	523.141	56203.8	0.093888	0.274617	1904.98	97988.6
617	2.000000	1.171818	7.37109e+06	-46239.1	1005.82	-29769.9	0.000000	0.000000	7.193754	541.696	NaN	0.000000	0.001580	0.001614	28.083	100.457	0.001786	56249	1.619333	173.752	538.619	1.171440	0.102965	0.102587	541.696	56249	0.095742	0.284297	1905.39	96383.3