File: remote_trans/data/nanoindenter/0828-1/data/Data_2025-08-06,11h17m57s/2025-07-22_16-23-58_1_1054.txt
2025-07-22, 16:23:58, 1
Index	Phase	Displacement	Time	Pos X	Pos Y	Pos Z	Rot A	Rot B	Piezo Z	Force A	Force B	Gripper	Voltage A	Voltage B	Temperature	Amplitude force	Amplitude pos	Stiffness	Phase shift	Phase excitation	Force A raw	Displacement raw	HMax	HMax raw	Real Force	Real Stiffness	Contact Depth	Area	Hardness	Reduced Mod.
[#]	[#]	[um]	[s]	[um]	[um]	[um]	[m°]	[m°]	[um]	[uN]	[uN]	[V]	[V]	[V]	[°C]	[uN]	[um]	[N/m]	[°]	[°]	[uN]	[um]	[um]	[um]	[uN]	[N/m]	[um]	[um^2]	[MPa]	[MPa]
1054	1.000000	0.002089	7.37535e+06	-52839.1	1055.82	-29748	0.000000	0.000000	6.002814	-0.047139	NaN	0.000000	0.001659	0.001721	28.0829	0.048548	0.000931	52.1292	-140.078	-160.858	-0.123214	0.000821	-1.127004	-1.128272	-0.047139	52.1292	-1.126326	-1.130664E+15	4.169150E-17	NaN
1054	1.000000	0.012149	7.37535e+06	-52839.1	1055.82	-29748	0.000000	0.000000	6.012874	-0.064572	NaN	0.000000	0.001585	0.001727	28.083	0.014521	0.001294	11.2249	-92.7894	16.8507	-0.109808	0.010684	-1.116944	-1.118409	-0.064572	11.2249	-1.112629	-7.405820E+14	8.719151E-17	NaN
1054	1.000000	0.022027	7.37535e+06	-52839.1	1055.82	-29748	0.000000	0.000000	6.022755	0.018063	NaN	0.000000	0.001666	0.001702	28.0827	0.071093	0.001808	39.3229	111.092	-168.785	0.051215	0.020731	-1.107065	-1.108362	0.018063	39.3229	-1.107410	-6.302715E+14	-2.865947E-17	NaN
1054	1.000000	0.032002	7.37535e+06	-52839.1	1055.82	-29748	0.000000	0.000000	6.032728	-0.026814	NaN	0.000000	0.001616	0.001666	28.0831	0.065826	0.001983	33.1918	87.2952	14.2926	0.024879	0.030645	-1.097091	-1.098448	-0.026814	33.1918	-1.096485	-4.496549E+14	5.963214E-17	NaN
1054	1.000000	0.042030	7.37535e+06	-52839.1	1055.82	-29748	0.000000	0.000000	6.042759	0.045180	NaN	0.000000	0.001634	0.001659	28.0833	0.044244	0.001872	23.6393	-26.2799	-163.913	-0.004670	0.040736	-1.087063	-1.088357	0.045180	23.6393	-1.088496	-3.512542E+14	-1.286234E-16	NaN
1054	1.000000	0.052041	7.37535e+06	-52839.1	1055.82	-29748	0.000000	0.000000	6.052769	0.003462	NaN	0.000000	0.001612	0.001703	28.0832	0.094899	0.001995	47.5575	-150.947	18.2206	-0.059001	0.050708	-1.077052	-1.078385	0.003462	47.5575	-1.077106	-2.469732E+14	-1.401743E-17	NaN
1054	1.000000	0.062020	7.37535e+06	-52839.1	1055.82	-29748	0.000000	0.000000	6.062747	-0.012416	NaN	0.000000	0.001573	0.001644	28.0829	0.082959	0.002034	40.7953	-97.4022	-162.197	-0.007623	0.060681	-1.067072	-1.068412	-0.012416	40.7953	-1.066844	-1.797997E+14	6.905596E-17	NaN
1054	1.000000	0.072032	7.37535e+06	-52839.1	1055.82	-29748	0.000000	0.000000	6.072759	0.003497	NaN	0.000000	0.001584	0.001699	28.083	0.055057	0.001945	28.3129	-63.8408	12.565	-0.100376	0.070660	-1.057061	-1.058433	0.003497	28.3129	-1.057154	-1.332202E+14	-2.624855E-17	NaN
1054	1.000000	0.082031	7.37535e+06	-52839.1	1055.82	-29748	0.000000	0.000000	6.082757	-0.023574	NaN	0.000000	0.001565	0.001710	28.0832	0.002637	0.001995	1.321448	89.2906	-161.505	-0.009721	0.080673	-1.047062	-1.048420	-0.023574	1.321448	-1.033683	-6.441857E+13	3.659467E-16	NaN
1054	1.000000	0.092026	7.37535e+06	-52839.1	1055.82	-29748	0.000000	0.000000	6.092756	0.046013	NaN	0.000000	0.001578	0.001665	28.0829	0.034848	0.002150	16.2106	99.5138	15.4205	-0.076802	0.090639	-1.037066	-1.038454	0.046013	16.2106	-1.039195	-7.640910E+13	-6.021878E-16	NaN
1054	1.000000	0.102016	7.37535e+06	-52839.1	1055.82	-29748	0.000000	0.000000	6.102742	-0.034834	NaN	0.000000	0.001587	0.001675	28.0829	0.059059	0.002176	27.1458	-148.319	-166.062	0.018740	0.100781	-1.027077	-1.028312	-0.034834	27.1458	-1.026114	-5.095778E+13	6.835911E-16	NaN
1054	1.000000	0.112026	7.37535e+06	-52839.1	1055.82	-29748	0.000000	0.000000	6.112753	-0.008185	NaN	0.000000	0.001550	0.001706	28.0831	0.090212	0.002159	41.7891	126.71	13.8036	0.011693	0.110672	-1.017067	-1.018420	-0.008185	41.7891	-1.016920	-3.832732E+13	2.135434E-16	NaN
1054	1.000000	0.122059	7.37535e+06	-52839.1	1055.82	-29748	0.000000	0.000000	6.122786	-0.003702	NaN	0.000000	0.001591	0.001681	28.0841	0.012360	0.001795	6.884946	-103.401	-166.162	-0.006031	0.120738	-1.007033	-1.008354	-0.003702	6.884946	-1.006630	-2.786278E+13	1.328690E-16	NaN
1054	1.000000	0.132061	7.37535e+06	-52839.1	1055.82	-29748	0.000000	0.000000	6.132790	0.039743	NaN	0.000000	0.001624	0.001693	28.0841	0.152313	0.001932	78.8341	111.775	14.5602	0.082827	0.130747	-0.997031	-0.998346	0.039743	78.8341	-0.997410	-2.093585E+13	-1.898342E-15	NaN
1054	1.000000	0.142039	7.37535e+06	-52839.1	1055.82	-29748	0.000000	0.000000	6.142766	0.001512	NaN	0.000000	0.001621	0.001721	28.084	0.063109	0.002000	31.5469	123.649	-164.61	0.034485	0.140798	-0.987054	-0.988295	0.001512	31.5469	-0.987090	-1.520253E+13	-9.948775E-17	NaN
1054	1.000000	0.152054	7.37535e+06	-52839.1	1055.82	-29748	0.000000	0.000000	6.152780	-0.030315	NaN	0.000000	0.001585	0.001671	28.0842	0.047397	0.002011	23.5705	-105.019	18.7632	0.065096	0.150731	-0.977039	-0.978362	-0.030315	23.5705	-0.976074	-1.080234E+13	2.806307E-15	NaN
1054	1.000000	0.162069	7.37535e+06	-52839.1	1055.82	-29748	0.000000	0.000000	6.162799	0.065553	NaN	0.000000	0.001605	0.001727	28.0839	0.027761	0.001990	13.9491	59.6323	-165.47	0.072131	0.160747	-0.967024	-0.968346	0.065553	13.9491	-0.970548	-9.100283E+12	-7.203448E-15	NaN
1054	1.000000	0.172086	7.37535e+06	-52839.1	1055.82	-29748	0.000000	0.000000	6.172812	-0.042204	NaN	0.000000	0.001617	0.001749	28.0841	0.017456	0.002018	8.651970	-59.3252	14.4653	-0.018706	0.170693	-0.957007	-0.958400	-0.042204	8.651970	-0.953348	-5.335556E+12	7.909883E-15	NaN
1054	1.000000	0.182056	7.37535e+06	-52839.1	1055.82	-29748	0.000000	0.000000	6.182778	-0.113979	NaN	0.000000	0.001622	0.001744	28.0845	0.068272	0.002032	33.604	-88.3389	-167.432	-0.048268	0.180789	-0.947037	-0.948304	-0.113979	33.604	-0.944493	-4.052772E+12	2.812374E-14	NaN
1054	1.000000	0.192066	7.37535e+06	-52839.1	1055.82	-29748	0.000000	0.000000	6.192791	-0.060479	NaN	0.000000	0.001590	0.001712	28.0841	0.101347	0.001972	51.387	-114.602	15.1585	-0.108442	0.190697	-0.937027	-0.938396	-0.060479	51.387	-0.936144	-3.126862E+12	1.934172E-14	NaN
1054	1.000000	0.202079	7.37535e+06	-52839.1	1055.82	-29748	0.000000	0.000000	6.202808	0.037649	NaN	0.000000	0.001592	0.001724	28.0841	0.048151	0.001995	24.1307	42.1437	-164.71	0.070668	0.200790	-0.927014	-0.928303	0.037649	24.1307	-0.928184	-2.441666E+12	-1.541950E-14	NaN
1054	1.000000	0.212089	7.37535e+06	-52839.1	1055.82	-29748	0.000000	0.000000	6.212813	-0.068590	NaN	0.000000	0.001581	0.001744	28.0841	0.035437	0.002049	17.2916	-110.559	17.081	-0.014254	0.210661	-0.917004	-0.918431	-0.068590	17.2916	-0.914029	-1.572450E+12	4.361952E-14	NaN
1054	1.000000	0.222098	7.37535e+06	-52839.1	1055.82	-29748	0.000000	0.000000	6.222826	0.035198	NaN	0.000000	0.001601	0.001710	28.0844	0.040741	0.001961	20.772	-133.201	-167.439	0.050567	0.220792	-0.906995	-0.908301	0.035198	20.772	-0.908266	-1.314441E+12	-2.677806E-14	NaN
1054	1.000000	0.232109	7.37535e+06	-52839.1	1055.82	-29748	0.000000	0.000000	6.232835	-0.018552	NaN	0.000000	0.001576	0.001718	28.0836	0.133609	0.001882	70.9854	43.3088	14.9972	-0.002755	0.230764	-0.896984	-0.898328	-0.018552	70.9854	-0.896788	-9.197329E+11	2.017143E-14	NaN
1054	1.000000	0.242109	7.37535e+06	-52839.1	1055.82	-29748	0.000000	0.000000	6.242836	-0.002057	NaN	0.000000	0.001560	0.001757	28.084	0.034448	0.002201	15.6524	141.584	-164.898	0.064349	0.240879	-0.886984	-0.888214	-0.002057	15.6524	-0.886885	-6.757875E+11	3.044472E-15	NaN
1054	1.000000	0.252092	7.37535e+06	-52839.1	1055.82	-29748	0.000000	0.000000	6.252819	-0.014115	NaN	0.000000	0.001551	0.001716	28.083	0.085451	0.002001	42.7015	-107.184	15.5366	-0.044919	0.250728	-0.877001	-0.878365	-0.014115	42.7015	-0.876753	-4.929364E+11	2.863371E-14	NaN
1054	1.000000	0.262116	7.37535e+06	-52839.1	1055.82	-29748	0.000000	0.000000	6.262843	-0.001145	NaN	0.000000	0.001522	0.001726	28.0829	0.069477	0.002026	34.2958	-109.587	-165.52	0.085593	0.260782	-0.866977	-0.868311	-0.001145	34.2958	-0.866952	-3.632450E+11	3.153202E-15	NaN
1054	1.000000	0.272111	7.37535e+06	-52839.1	1055.82	-29748	0.000000	0.000000	6.272835	-0.073659	NaN	0.000000	0.001583	0.001779	28.0827	0.026796	0.001945	13.7783	159.739	15.9018	-0.151017	0.270767	-0.856982	-0.858326	-0.073659	13.7783	-0.852973	-2.349569E+11	3.134984E-13	NaN
1054	1.000000	0.282114	7.37535e+06	-52839.1	1055.82	-29748	0.000000	0.000000	6.282840	-0.031635	NaN	0.000000	0.001561	0.001779	28.0826	0.154166	0.001990	77.4701	134.941	-164.188	-0.050362	0.280771	-0.846978	-0.848322	-0.031635	77.4701	-0.846672	-1.930500E+11	1.638689E-13	NaN
1054	1.000000	0.292093	7.37535e+06	-52839.1	1055.82	-29748	0.000000	0.000000	6.292817	-0.090741	NaN	0.000000	0.001553	0.001753	28.0836	0.033702	0.001879	17.9326	98.1623	12.1916	-0.098598	0.290731	-0.837000	-0.838362	-0.090741	17.9326	-0.833205	-1.268286E+11	7.154653E-13	NaN
1054	1.000000	0.302136	7.37535e+06	-52839.1	1055.82	-29748	0.000000	0.000000	6.302864	0.009474	NaN	0.000000	0.001559	0.001754	28.0826	0.131468	0.001927	68.2273	-54.275	-163.966	-0.008112	0.300789	-0.826957	-0.828304	0.009474	68.2273	-0.827061	-1.047002E+11	-9.049102E-14	NaN
1054	1.000000	0.312135	7.37535e+06	-52839.1	1055.82	-29748	0.000000	0.000000	6.312863	0.009020	NaN	0.000000	0.001563	0.001754	28.0827	0.004158	0.002043	2.035416	40.5645	14.6954	-0.056232	0.310753	-0.816958	-0.818340	0.009020	2.035416	-0.820282	-8.472850E+10	-1.064616E-13	NaN
1054	1.000000	0.322121	7.37535e+06	-52839.1	1055.82	-29748	0.000000	0.000000	6.322846	-0.069833	NaN	0.000000	0.001527	0.001716	28.0827	0.054132	0.002047	26.4504	136.321	-163.238	-0.134418	0.320818	-0.806972	-0.808275	-0.069833	26.4504	-0.804992	-5.255472E+10	1.328764E-12	NaN
1054	1.000000	0.332137	7.37535e+06	-52839.1	1055.82	-29748	0.000000	0.000000	6.332861	-0.067434	NaN	0.000000	0.001516	0.001725	28.083	0.056868	0.002008	28.3221	116.04	17.0151	-0.030644	0.330795	-0.796956	-0.798298	-0.067434	28.3221	-0.795170	-3.866266E+10	1.744175E-12	NaN
1054	1.000000	0.342113	7.37535e+06	-52839.1	1055.82	-29748	0.000000	0.000000	6.342841	0.028288	NaN	0.000000	0.001546	0.001762	28.0824	0.054295	0.002074	26.1748	75.5335	-164.402	0.015393	0.340847	-0.786980	-0.788246	0.028288	26.1748	-0.787791	-3.069541E+10	-9.215767E-13	NaN
1054	1.000000	0.352131	7.37535e+06	-52839.1	1055.82	-29748	0.000000	0.000000	6.352857	-0.039862	NaN	0.000000	0.001525	0.001752	28.0827	0.026381	0.001862	14.1653	-149.139	16.7277	-0.023067	0.350812	-0.776962	-0.778281	-0.039862	14.1653	-0.774851	-2.047638E+10	1.946738E-12	NaN
1054	1.000000	0.362176	7.37535e+06	-52839.1	1055.82	-29748	0.000000	0.000000	6.362901	-0.073150	NaN	0.000000	0.001566	0.001729	28.0827	0.063183	0.001938	32.6069	47.6138	-169.861	-0.044197	0.360854	-0.766916	-0.768239	-0.073150	32.6069	-0.765234	-1.515286E+10	4.827467E-12	NaN
1054	1.000000	0.372182	7.37535e+06	-52839.1	1055.82	-29748	0.000000	0.000000	6.372907	-0.049605	NaN	0.000000	0.001518	0.001747	28.083	0.130447	0.001985	65.7052	106.217	17.9035	-0.017061	0.370798	-0.756911	-0.758295	-0.049605	65.7052	-0.756344	-1.147006E+10	4.324766E-12	NaN
1054	1.000000	0.382175	7.37535e+06	-52839.1	1055.82	-29748	0.000000	0.000000	6.382900	-0.071881	NaN	0.000000	0.001524	0.001737	28.0828	0.037913	0.001995	19.007	-167.487	-161.675	-0.049073	0.380851	-0.746917	-0.748242	-0.071881	19.007	-0.744081	-7.809705E+9	9.204098E-12	NaN
1054	1.000000	0.392155	7.37535e+06	-52839.1	1055.82	-29748	0.000000	0.000000	6.392881	-0.033840	NaN	0.000000	0.001557	0.001769	28.084	0.041998	0.002136	19.6622	160.985	14.1598	-0.090327	0.390867	-0.736937	-0.738225	-0.033840	19.6622	-0.735647	-5.994484E+9	5.645241E-12	NaN
1054	1.000000	0.402147	7.37535e+06	-52839.1	1055.82	-29748	0.000000	0.000000	6.402873	-0.029818	NaN	0.000000	0.001545	0.001732	28.0843	0.053610	0.002039	26.2937	-91.3729	-166.967	-0.030485	0.400858	-0.726946	-0.728235	-0.029818	26.2937	-0.726095	-4.442018E+9	6.712610E-12	NaN
1054	1.000000	0.412170	7.37535e+06	-52839.1	1055.82	-29748	0.000000	0.000000	6.412897	-0.002632	NaN	0.000000	0.001521	0.001740	28.0842	0.117612	0.001930	60.9333	-35.7121	12.7645	-0.014017	0.410793	-0.716923	-0.718299	-0.002632	60.9333	-0.716890	-3.327052E+9	7.912026E-13	NaN
1054	1.000000	0.422189	7.37535e+06	-52839.1	1055.82	-29748	0.000000	0.000000	6.422914	-0.053265	NaN	0.000000	0.001542	0.001777	28.0839	0.031014	0.001966	15.772	148.231	-161.316	-0.037466	0.420869	-0.706904	-0.708224	-0.053265	15.772	-0.704371	-2.244994E+9	2.372595E-11	NaN
1054	1.000000	0.432181	7.37535e+06	-52839.1	1055.82	-29748	0.000000	0.000000	6.432906	-0.062965	NaN	0.000000	0.001570	0.001741	28.084	0.047549	0.001915	24.8361	-129.126	18.0048	-0.090270	0.430868	-0.696911	-0.698225	-0.062965	24.8361	-0.695010	-1.672528E+9	3.764659E-11	NaN
1054	1.000000	0.442190	7.37535e+06	-52839.1	1055.82	-29748	0.000000	0.000000	6.442913	-0.103378	NaN	0.000000	0.001541	0.001727	28.084	0.064159	0.001975	32.4824	37.3381	-167.819	-0.114891	0.440891	-0.686903	-0.688202	-0.103378	32.4824	-0.684516	-1.202135E+9	8.599526E-11	NaN
1054	1.000000	0.452168	7.37535e+06	-52839.1	1055.82	-29748	0.000000	0.000000	6.452894	-0.009681	NaN	0.000000	0.001591	0.001747	28.0844	0.083220	0.001938	42.9436	-132.661	16.6539	0.026258	0.450838	-0.676925	-0.678255	-0.009681	42.9436	-0.676756	-9.415336E+8	1.028176E-11	NaN
1054	1.000000	0.462207	7.37535e+06	-52839.1	1055.82	-29748	0.000000	0.000000	6.462934	-0.021959	NaN	0.000000	0.001587	0.001696	28.0838	0.048995	0.001946	25.1753	54.3925	-168.769	0.026261	0.460864	-0.666886	-0.668229	-0.021959	25.1753	-0.666232	-6.757784E+8	3.249365E-11	NaN
1054	1.000000	0.472190	7.37535e+06	-52839.1	1055.82	-29748	0.000000	0.000000	6.472914	-0.082612	NaN	0.000000	0.001610	0.001701	28.0844	0.037193	0.001902	19.5574	172.899	15.3781	-0.070319	0.470836	-0.656903	-0.658256	-0.082612	19.5574	-0.653735	-4.556484E+8	1.813054E-10	NaN
1054	1.000000	0.482208	7.37535e+06	-52839.1	1055.82	-29748	0.000000	0.000000	6.482933	-0.041847	NaN	0.000000	0.001578	0.001729	28.0839	0.100709	0.002006	50.2016	-108.282	-165.145	-0.102981	0.480936	-0.646885	-0.648157	-0.041847	50.2016	-0.646260	-3.598772E+8	1.162803E-10	NaN
1054	1.000000	0.492191	7.37535e+06	-52839.1	1055.82	-29748	0.000000	0.000000	6.492920	0.032486	NaN	0.000000	0.001605	0.001712	28.0843	0.034278	0.002084	16.4494	-175.856	13.0477	-0.025765	0.490869	-0.636902	-0.638223	0.032486	16.4494	-0.638383	-2.806077E+8	-1.157718E-10	NaN
1054	1.000000	0.502215	7.37535e+06	-52839.1	1055.82	-29748	0.000000	0.000000	6.502945	0.065003	NaN	0.000000	0.001529	0.001752	28.0844	0.027795	0.002002	13.8861	-75.8583	-162.839	0.009524	0.500883	-0.626878	-0.628209	0.065003	13.8861	-0.630389	-2.179516E+8	-2.982467E-10	NaN
1054	1.000000	0.512223	7.37535e+06	-52839.1	1055.82	-29748	0.000000	0.000000	6.512950	-0.000165	NaN	0.000000	0.001566	0.001733	28.0846	0.039722	0.001903	20.8756	9.079265	15.7212	-0.034568	0.510867	-0.616870	-0.618226	-0.000165	20.8756	-0.616864	-1.420758E+8	1.161096E-12	NaN
1054	1.000000	0.522213	7.37535e+06	-52839.1	1055.82	-29748	0.000000	0.000000	6.522938	-0.048295	NaN	0.000000	0.001567	0.001719	28.0841	0.074873	0.002021	37.0546	124.595	-164.517	-0.031083	0.520942	-0.606880	-0.608151	-0.048295	37.0546	-0.605903	-1.003988E+8	4.810303E-10	NaN
1054	1.000000	0.532214	7.37535e+06	-52839.1	1055.82	-29748	0.000000	0.000000	6.532937	-0.085183	NaN	0.000000	0.001626	0.001715	28.083	0.100833	0.002012	50.1182	100.588	15.0432	-0.088553	0.530857	-0.596879	-0.598236	-0.085183	50.1182	-0.595604	-7.242857E+7	1.176090E-9	NaN
1054	1.000000	0.542251	7.37535e+06	-52839.1	1055.82	-29748	0.000000	0.000000	6.542977	-0.042664	NaN	0.000000	0.001617	0.001738	28.083	0.104300	0.001988	52.4557	103.018	-166.565	0.000839	0.540875	-0.586842	-0.588218	-0.042664	52.4557	-0.586232	-5.379000E+7	7.931542E-10	NaN
1054	1.000000	0.552205	7.37535e+06	-52839.1	1055.82	-29748	0.000000	0.000000	6.552933	0.022652	NaN	0.000000	0.001581	0.001756	28.083	0.037030	0.001985	18.6515	-67.6877	12.0972	-0.001783	0.550853	-0.576888	-0.578239	0.022652	18.6515	-0.577799	-4.114722E+7	-5.505159E-10	NaN
1054	1.000000	0.562277	7.37535e+06	-52839.1	1055.82	-29748	0.000000	0.000000	6.563003	-0.016179	NaN	0.000000	0.001612	0.001735	28.0828	0.045100	0.001978	22.8004	-59.3212	-165.753	0.020409	0.560948	-0.566816	-0.568145	-0.016179	22.8004	-0.566284	-2.852824E+7	5.671336E-10	NaN
1054	1.000000	0.572235	7.37535e+06	-52839.1	1055.82	-29748	0.000000	0.000000	6.572962	-0.000223	NaN	0.000000	0.001620	0.001743	28.083	0.055104	0.001956	28.1656	86.8743	15.7609	-0.067063	0.570886	-0.556858	-0.558207	-0.000223	28.1656	-0.556852	-2.112618E+7	1.057691E-11	NaN
1054	1.000000	0.582234	7.37535e+06	-52839.1	1055.82	-29748	0.000000	0.000000	6.582963	0.037956	NaN	0.000000	0.001635	0.001736	28.083	0.044230	0.001923	22.996	21.8318	-167.684	-0.040794	0.580960	-0.546859	-0.548133	0.037956	22.996	-0.548097	-1.598057E+7	-2.375163E-9	NaN
1054	1.000000	0.592244	7.37535e+06	-52839.1	1055.82	-29748	0.000000	0.000000	6.592973	0.033474	NaN	0.000000	0.001590	0.001751	28.0829	0.043536	0.002031	21.4337	-13.0494	12.0068	-0.005881	0.590888	-0.536849	-0.538205	0.033474	21.4337	-0.538020	-1.158499E+7	-2.889458E-9	NaN
1054	1.000000	0.602268	7.37535e+06	-52839.1	1055.82	-29748	0.000000	0.000000	6.602998	0.066356	NaN	0.000000	0.001638	0.001730	28.0829	0.034542	0.002007	17.2149	151.917	-162.756	-0.033533	0.600930	-0.526825	-0.528163	0.066356	17.2149	-0.529716	-8.88448e+06	-7.468697E-9	NaN
1054	1.000000	0.612221	7.37535e+06	-52839.1	1055.82	-29748	0.000000	0.000000	6.612945	-0.069118	NaN	0.000000	0.001663	0.001672	28.0828	0.044513	0.001899	23.4462	-58.2029	15.0251	-0.100509	0.610894	-0.516872	-0.518199	-0.069118	23.4462	-0.514661	-5.48673e+06	1.259730E-8	NaN
1054	1.000000	0.622269	7.37536e+06	-52839.1	1055.82	-29748	0.000000	0.000000	6.622996	-0.014744	NaN	0.000000	0.001671	0.001722	28.0828	0.059653	0.001912	31.2047	-117.638	-164.72	-0.114203	0.620945	-0.506824	-0.508147	-0.014744	31.2047	-0.506469	-4.21914e+06	3.494461E-9	NaN
1054	1.000000	0.632227	7.37536e+06	-52839.1	1055.82	-29748	0.000000	0.000000	6.632953	-0.032609	NaN	0.000000	0.001655	0.001725	28.0827	0.042548	0.001877	22.6642	105.822	10.1407	0.015410	0.630933	-0.496866	-0.498160	-0.032609	22.6642	-0.495787	-2.99378e+06	1.089241E-8	NaN
1054	1.000000	0.642263	7.37536e+06	-52839.1	1055.82	-29748	0.000000	0.000000	6.642991	0.001591	NaN	0.000000	0.001661	0.001750	28.0827	0.091748	0.002068	44.3623	136.233	-165.272	-0.051569	0.640975	-0.486830	-0.488117	0.001591	44.3623	-0.486857	-2.24622e+06	-7.080954E-10	NaN
1054	1.000000	0.652267	7.37536e+06	-52839.1	1055.82	-29748	0.000000	0.000000	6.652993	-0.034039	NaN	0.000000	0.001628	0.001754	28.0827	0.050733	0.002063	24.5868	-124.172	12.5377	-0.110186	0.650886	-0.476826	-0.478207	-0.034039	24.5868	-0.475787	-1.57228e+06	2.164963E-8	NaN
1054	1.000000	0.662282	7.37536e+06	-52839.1	1055.82	-29748	0.000000	0.000000	6.663009	-0.019064	NaN	0.000000	0.001624	0.001752	28.0839	0.026435	0.002046	12.9225	-152.127	-164.179	-0.055444	0.661028	-0.466811	-0.468065	-0.019064	12.9225	-0.465704	-1.13536e+06	1.679103E-8	NaN
1054	1.000000	0.672288	7.37536e+06	-52839.1	1055.82	-29748	0.000000	0.000000	6.673012	-0.082188	NaN	0.000000	0.001624	0.001719	28.0838	0.004841	0.002155	2.246435	65.2166	13.4507	-0.055572	0.670940	-0.456805	-0.458153	-0.082188	2.246435	-0.429366	-349209	2.353543E-7	NaN
1054	1.000000	0.682272	7.37536e+06	-52839.1	1055.82	-29748	0.000000	0.000000	6.682996	-0.070782	NaN	0.000000	0.001614	0.001759	28.0841	0.076225	0.002014	37.8396	27.2929	-167.692	-0.016491	0.681026	-0.446821	-0.448066	-0.070782	37.8396	-0.445418	-588547	1.202663E-7	NaN
1054	1.000000	0.692275	7.37536e+06	-52839.1	1055.82	-29748	0.000000	0.000000	6.693003	0.001921	NaN	0.000000	0.001547	0.001779	28.084	0.029027	0.001953	14.8618	-28.2514	15.9219	-0.033465	0.690891	-0.436817	-0.438202	0.001921	14.8618	-0.436914	-446475	-4.302092E-9	NaN
1054	1.000000	0.702267	7.37536e+06	-52839.1	1055.82	-29748	0.000000	0.000000	6.702992	-0.051530	NaN	0.000000	0.001592	0.001712	28.0839	0.058730	0.002007	29.269	-126.412	-162.939	-0.010619	0.700972	-0.426826	-0.428121	-0.051530	29.269	-0.425505	-307919	1.673476E-7	NaN
1054	1.000000	0.712319	7.37536e+06	-52839.1	1055.82	-29748	0.000000	0.000000	6.713046	-0.007484	NaN	0.000000	0.001597	0.001751	28.0837	0.069985	0.001910	36.6349	-152.901	15.4284	-0.001604	0.710949	-0.416774	-0.418144	-0.007484	36.6349	-0.416621	-230394	3.248194E-8	NaN
1054	1.000000	0.722321	7.37536e+06	-52839.1	1055.82	-29748	0.000000	0.000000	6.723049	0.005951	NaN	0.000000	0.001592	0.001774	28.0839	0.026522	0.001996	13.2853	100.923	-163.193	0.122721	0.720969	-0.406772	-0.408124	0.005951	13.2853	-0.407108	-168754	-3.526669E-8	NaN
1054	1.000000	0.732304	7.37536e+06	-52839.1	1055.82	-29748	0.000000	0.000000	6.733031	0.002996	NaN	0.000000	0.001593	0.001778	28.0835	0.093418	0.002036	45.8885	141.32	17.201	0.043957	0.730908	-0.396789	-0.398185	0.002996	45.8885	-0.396838	-120471	-2.486717E-8	NaN
1054	1.000000	0.742314	7.37536e+06	-52839.1	1055.82	-29748	0.000000	0.000000	6.743038	-0.079431	NaN	0.000000	0.001607	0.001736	28.0837	0.034391	0.002106	16.329	156.095	-163.171	-0.095200	0.741028	-0.386779	-0.388065	-0.079431	16.329	-0.383131	-76699.9	1.035603E-6	NaN
1054	1.000000	0.752319	7.37536e+06	-52839.1	1055.82	-29748	0.000000	0.000000	6.753046	-0.023532	NaN	0.000000	0.001594	0.001732	28.0836	0.072062	0.001937	37.1948	-1.532198	17.3028	-0.030415	0.750932	-0.376773	-0.378161	-0.023532	37.1948	-0.376299	-61198.5	3.845229E-7	NaN
1054	1.000000	0.762299	7.37536e+06	-52839.1	1055.82	-29748	0.000000	0.000000	6.763025	-0.030372	NaN	0.000000	0.001551	0.001756	28.0839	0.082022	0.001998	41.0537	-158.665	-165.951	-0.005202	0.760990	-0.366794	-0.368103	-0.030372	41.0537	-0.366239	-43845.9	6.927072E-7	NaN
1054	1.000000	0.772307	7.37536e+06	-52839.1	1055.82	-29748	0.000000	0.000000	6.773034	0.004244	NaN	0.000000	0.001600	0.001747	28.0837	0.107330	0.002144	50.0695	138.156	18.6225	-0.025339	0.771004	-0.356786	-0.358089	0.004244	50.0695	-0.356850	-32083.1	-1.322848E-7	NaN
1054	1.000000	0.782333	7.37536e+06	-52839.1	1055.82	-29748	0.000000	0.000000	6.783061	0.009991	NaN	0.000000	0.001605	0.001735	28.0836	0.156273	0.002037	76.7017	156.144	-162.687	-0.054484	0.781048	-0.346759	-0.348045	0.009991	76.7017	-0.346857	-22980.4	-4.347708E-7	NaN
1054	1.000000	0.792338	7.37536e+06	-52839.1	1055.82	-29748	0.000000	0.000000	6.793064	-0.031257	NaN	0.000000	0.001606	0.001756	28.0838	0.012231	0.001876	6.520947	173.153	16.5692	0.017772	0.791012	-0.336755	-0.338080	-0.031257	6.520947	-0.333160	-14510.9	2.154028E-6	NaN
1054	1.000000	0.802344	7.37536e+06	-52839.1	1055.82	-29748	0.000000	0.000000	6.803068	-0.084392	NaN	0.000000	0.001577	0.001735	28.0826	0.066619	0.002000	33.3022	173.298	-162.892	-0.024605	0.801080	-0.326749	-0.328013	-0.084392	33.3022	-0.324848	-10962.5	7.698250E-6	NaN
1054	1.000000	0.812343	7.37536e+06	-52839.1	1055.82	-29748	0.000000	0.000000	6.813069	-0.021125	NaN	0.000000	0.001567	0.001730	28.0824	0.095792	0.002055	46.6114	88.3988	18.2323	-0.005407	0.810984	-0.316750	-0.318109	-0.021125	46.6114	-0.316410	-8236.6	2.564824E-6	NaN
1054	1.000000	0.822333	7.37536e+06	-52839.1	1055.82	-29748	0.000000	0.000000	6.823060	0.008562	NaN	0.000000	0.001612	0.001732	28.0824	0.150473	0.002066	72.8453	-21.8466	-164.271	-0.027282	0.821047	-0.306760	-0.308046	0.008562	72.8453	-0.306848	-5948.04	-1.439396E-6	NaN
1054	1.000000	0.832335	7.37536e+06	-52839.1	1055.82	-29748	0.000000	0.000000	6.833060	-0.049745	NaN	0.000000	0.001639	0.001741	28.0828	0.066622	0.001953	34.1048	-170.679	12.8253	-0.071424	0.831029	-0.296758	-0.298064	-0.049745	34.1048	-0.295664	-4055.13	1.226709E-5	NaN
1054	1.000000	0.842355	7.37536e+06	-52839.1	1055.82	-29748	0.000000	0.000000	6.843080	-0.042290	NaN	0.000000	0.001622	0.001757	28.0826	0.040505	0.002005	20.1997	-152.871	-166.336	0.001899	0.841046	-0.286738	-0.288047	-0.042290	20.1997	-0.285168	-2823.52	1.497781E-5	NaN
1054	1.000000	0.852351	7.37536e+06	-52839.1	1055.82	-29748	0.000000	0.000000	6.853077	-0.029586	NaN	0.000000	0.001605	0.001729	28.0826	0.077407	0.002132	36.3097	-96.6628	17.7759	0.034384	0.850980	-0.276742	-0.278113	-0.029586	36.3097	-0.276131	-2063.07	1.434055E-5	NaN
1054	1.000000	0.862331	7.37536e+06	-52839.1	1055.82	-29748	0.000000	0.000000	6.863060	0.023527	NaN	0.000000	0.001609	0.001762	28.0827	0.067801	0.001947	34.8287	-45.1601	-166.731	0.056756	0.861070	-0.266761	-0.268023	0.023527	34.8287	-0.267268	-1513.46	-1.554531E-5	NaN
1054	1.000000	0.872349	7.37536e+06	-52839.1	1055.82	-29748	0.000000	0.000000	6.873076	-0.002626	NaN	0.000000	0.001601	0.001745	28.0828	0.067805	0.002023	33.5162	-147.498	17.8074	-0.037746	0.871077	-0.256744	-0.258016	-0.002626	33.5162	-0.256685	-1042.41	2.519064E-6	NaN
1054	1.000000	0.882368	7.37536e+06	-52839.1	1055.82	-29748	0.000000	0.000000	6.883094	-0.026624	NaN	0.000000	0.001549	0.001764	28.0826	0.072833	0.002036	35.7782	-77.6088	-162.091	-0.039383	0.881045	-0.246725	-0.248048	-0.026624	35.7782	-0.246167	-717.097	3.712789E-5	NaN
1054	1.000000	0.892418	7.37536e+06	-52839.1	1055.82	-29748	0.000000	0.000000	6.893145	-0.009569	NaN	0.000000	0.001565	0.001736	28.0825	0.134864	0.001985	67.9538	-176.802	17.6169	-0.021219	0.891067	-0.236675	-0.238026	-0.009569	67.9538	-0.236569	-508.008	1.883586E-5	NaN
1054	1.000000	0.902353	7.37536e+06	-52839.1	1055.82	-29748	0.000000	0.000000	6.903080	-0.010638	NaN	0.000000	0.001593	0.001752	28.0828	0.047450	0.002082	22.7894	123.066	-163.9	-0.065875	0.901066	-0.226740	-0.228027	-0.010638	22.7894	-0.226390	-351.068	3.030195E-5	NaN
1054	1.000000	0.912375	7.37536e+06	-52839.1	1055.82	-29748	0.000000	0.000000	6.913104	0.036621	NaN	0.000000	0.001541	0.001766	28.0827	0.014960	0.001965	7.614317	59.7869	14.8975	0.008285	0.911004	-0.216718	-0.218089	0.036621	7.614317	-0.220325	-281.102	-0.000130	NaN
1054	1.000000	0.922404	7.37536e+06	-52839.1	1055.82	-29748	0.000000	0.000000	6.923130	-0.019592	NaN	0.000000	0.001577	0.001708	28.0827	0.024452	0.002062	11.8572	120.035	-166.126	-0.021094	0.921110	-0.206689	-0.207983	-0.019592	11.8572	-0.205450	-161.767	0.000121	NaN
1054	1.000000	0.932382	7.37536e+06	-52839.1	1055.82	-29748	0.000000	0.000000	6.933107	-0.057078	NaN	0.000000	0.001540	0.001722	28.083	0.033099	0.002079	15.9172	151.808	14.4896	0.004747	0.931042	-0.196711	-0.198051	-0.057078	15.9172	-0.194022	-104.95	0.000544	NaN
1054	1.000000	0.942416	7.37536e+06	-52839.1	1055.82	-29748	0.000000	0.000000	6.943143	-0.021030	NaN	0.000000	0.001551	0.001736	28.0841	0.060994	0.001967	31.0105	11.1003	-164.023	0.009788	0.941081	-0.186677	-0.188012	-0.021030	31.0105	-0.186168	-77.5883	0.000271	NaN
1054	1.000000	0.952398	7.37536e+06	-52839.1	1055.82	-29748	0.000000	0.000000	6.953123	-0.058311	NaN	0.000000	0.001570	0.001739	28.0841	0.043738	0.001901	23.0052	156.09	16.3016	-0.046391	0.951078	-0.176694	-0.178014	-0.058311	23.0052	-0.174793	-49.7083	0.001173	NaN
1054	1.000000	0.962398	7.37536e+06	-52839.1	1055.82	-29748	0.000000	0.000000	6.963126	0.010248	NaN	0.000000	0.001568	0.001747	28.084	0.046207	0.002064	22.3845	82.2162	-165.539	0.028271	0.961116	-0.166694	-0.167977	0.010248	22.3845	-0.167038	-36.4759	-0.000281	NaN
1054	1.000000	0.972388	7.37536e+06	-52839.1	1055.82	-29748	0.000000	0.000000	6.973112	-0.080741	NaN	0.000000	0.001580	0.001715	28.0846	0.046701	0.001989	23.4757	118.134	15.5467	0.034880	0.971073	-0.156705	-0.158020	-0.080741	23.4757	-0.154125	-21.519	0.003752	NaN
1054	1.000000	0.982391	7.37536e+06	-52839.1	1055.82	-29748	0.000000	0.000000	6.983121	0.066128	NaN	0.000000	0.001579	0.001694	28.0838	0.102504	0.002021	50.7158	-17.8925	-164.933	-0.033235	0.981085	-0.146701	-0.148008	0.066128	50.7158	-0.147679	-16.4265	-0.004026	NaN
1054	1.000000	0.992400	7.37536e+06	-52839.1	1055.82	-29748	0.000000	0.000000	6.993124	-0.075099	NaN	0.000000	0.001597	0.001691	28.0841	0.046641	0.002065	22.5888	140.356	12.8556	-0.041172	0.991027	-0.136693	-0.138066	-0.075099	22.5888	-0.134199	-9.182983	0.008178	NaN
1054	1.000000	1.002402	7.37536e+06	-52839.1	1055.82	-29748	0.000000	0.000000	7.003130	0.016262	NaN	0.000000	0.001541	0.001685	28.084	0.044682	0.002038	21.9192	108.029	-160.853	-0.023324	1.001132	-0.126691	-0.127960	0.016262	21.9192	-0.127247	-6.733934	-0.002415	NaN
1054	1.000000	1.012417	7.37536e+06	-52839.1	1055.82	-29748	0.000000	0.000000	7.013144	-0.008267	NaN	0.000000	0.001598	0.001688	28.0841	0.052323	0.001911	27.3748	67.4457	14.8073	-0.006358	1.011107	-0.116675	-0.117986	-0.008267	27.3748	-0.116449	-4.091485	0.002021	NaN
1054	1.000000	1.022429	7.37536e+06	-52839.1	1055.82	-29748	0.000000	0.000000	7.023156	-0.013685	NaN	0.000000	0.001574	0.001697	28.0839	0.019043	0.002001	9.518787	-179.447	-164.472	-0.111633	1.021121	-0.106664	-0.107972	-0.013685	9.518787	-0.105586	-2.419945	0.005655	NaN
1054	1.000000	1.032457	7.37536e+06	-52839.1	1055.82	-29748	0.000000	0.000000	7.033184	-0.000813	NaN	0.000000	0.001549	0.001748	28.0843	0.087903	0.001952	45.0314	-84.8801	14.1339	-0.050628	1.031102	-0.096636	-0.097990	-0.000813	45.0314	-0.096622	-1.535369	0.000529	NaN
1054	1.000000	1.042457	7.37536e+06	-52839.1	1055.82	-29748	0.000000	0.000000	7.043185	0.021199	NaN	0.000000	0.001597	0.001666	28.0841	0.028911	0.001930	14.9814	107.09	-168.052	-0.030329	1.041098	-0.086636	-0.087994	0.021199	14.9814	-0.087697	-0.953688	-0.022229	NaN
1054	1.000000	1.052439	7.37536e+06	-52839.1	1055.82	-29748	0.000000	0.000000	7.053165	-0.031728	NaN	0.000000	0.001612	0.001687	28.084	0.125313	0.001918	65.3509	-58.5299	16.7573	-0.021416	1.051076	-0.076653	-0.078017	-0.031728	65.3509	-0.076289	-0.498570	0.063638	NaN
1054	1.000000	1.062473	7.37536e+06	-52839.1	1055.82	-29748	0.000000	0.000000	7.063201	0.008872	NaN	0.000000	0.001573	0.001700	28.0837	0.049107	0.001915	25.6483	-119.608	-162.53	0.054545	1.061158	-0.066619	-0.067935	0.008872	25.6483	-0.066879	-0.280775	-0.031600	NaN
1054	1.000000	1.072444	7.37536e+06	-52839.1	1055.82	-29748	0.000000	0.000000	7.073170	-0.038133	NaN	0.000000	0.001610	0.001750	28.0827	0.049968	0.002093	23.8778	-12.1119	14.7934	0.087294	1.071083	-0.056648	-0.058010	-0.038133	23.8778	-0.055451	-0.132782	0.287187	NaN
1054	1.000000	1.082465	7.37536e+06	-52839.1	1055.82	-29748	0.000000	0.000000	7.083194	0.023850	NaN	0.000000	0.001612	0.001722	28.0828	0.024054	0.002146	11.2114	81.1982	-164.995	0.007676	1.081120	-0.046627	-0.047973	0.023850	11.2114	-0.048223	-0.080600	-0.295912	NaN
1054	1.000000	1.092440	7.37536e+06	-52839.1	1055.82	-29748	0.000000	0.000000	7.093169	0.050438	NaN	0.000000	0.001591	0.001691	28.0828	0.079756	0.001895	42.0866	129.437	16.7449	-0.012882	1.091063	-0.036653	-0.038030	0.050438	42.0866	-0.037552	-0.038141	-1.322432	NaN
1054	1.000000	1.102468	7.37536e+06	-52839.1	1055.82	-29748	0.000000	0.000000	7.103195	-0.014040	NaN	0.000000	0.001592	0.001731	28.0827	0.050673	0.001974	25.6746	-86.168	-165.781	-0.029651	1.101141	-0.026625	-0.027952	-0.014040	25.6746	-0.026215	-0.018159	0.773197	NaN
1054	1.000000	1.112452	7.37536e+06	-52839.1	1055.82	-29748	0.000000	0.000000	7.113176	-0.075527	NaN	0.000000	0.001590	0.001724	28.0827	0.047833	0.002010	23.8026	-126.081	16.7925	-0.106696	1.111086	-0.016641	-0.018007	-0.075527	23.8026	-0.014261	-0.008837	8.546897	NaN
1054	1.000000	1.122442	7.37536e+06	-52839.1	1055.82	-29748	0.000000	0.000000	7.123171	0.022756	NaN	0.000000	0.001555	0.001717	28.0829	0.101050	0.002086	48.4436	-168.183	-165.427	-0.006005	1.121106	-0.006650	-0.007987	0.022756	48.4436	-0.007003	-0.004642	-4.902055	NaN
1054	1.000000	1.132393	7.37536e+06	-52839.1	1055.82	-29748	0.000000	0.000000	7.133387	6.482315	NaN	0.000000	0.001572	0.001735	28.0826	6.786874	0.001766	3843.84	15.0314	7.788020	4.771789	1.131069	0.003300	0.001976	6.482315	3843.84	0.002036	0.001584	4093.28	88248.9
1054	2.000000	1.136077	7.37536e+06	-52839.1	1055.82	-29748	0.000000	0.000000	7.137232	10.4042	NaN	0.000000	0.001544	0.001756	28.0826	10.1099	0.001592	6352.29	7.505617	-173.153	9.776563	1.135756	0.006984	0.006663	10.4042	6352.29	0.005756	0.004834	2152.32	83474.3
1054	2.000000	1.138586	7.37536e+06	-52839.1	1055.82	-29748	0.000000	0.000000	7.139813	12.148	NaN	0.000000	0.001622	0.001748	28.0832	13.2857	0.001863	7131.68	11.0113	3.796213	11.0972	1.138225	0.009494	0.009132	12.148	7131.68	0.008216	0.007266	1672	76441.7
1054	2.000000	1.141035	7.37536e+06	-52839.1	1055.82	-29748	0.000000	0.000000	7.142477	17.3685	NaN	0.000000	0.001601	0.001753	28.0827	15.9103	0.001799	8842.35	9.017114	-177.123	16.2158	1.140743	0.011942	0.011650	17.3685	8842.35	0.010469	0.009708	1789.15	81994.1
1054	2.000000	1.143569	7.37536e+06	-52839.1	1055.82	-29748	0.000000	0.000000	7.145253	23.2785	NaN	0.000000	0.001610	0.001715	28.0829	17.8171	0.001896	9398.22	9.828763	3.880793	22.6128	1.143113	0.014476	0.014020	23.2785	9398.22	0.012618	0.012239	1902.02	77615.4
1054	2.000000	1.146005	7.37536e+06	-52839.1	1055.82	-29748	0.000000	0.000000	7.147887	28.0588	NaN	0.000000	0.001613	0.001744	28.0829	20.217	0.001633	12381.2	6.511554	-177.713	26.8096	1.145719	0.016913	0.016626	28.0588	12381.2	0.015213	0.015571	1802.04	90653.6
1054	2.000000	1.148494	7.37536e+06	-52839.1	1055.82	-29748	0.000000	0.000000	7.150538	32.0318	NaN	0.000000	0.001593	0.001742	28.0832	23.3157	0.001774	13146.2	6.180761	1.915245	30.2398	1.148170	0.019401	0.019077	32.0318	13146.2	0.017573	0.018872	1697.35	87431.9
1054	2.000000	1.150995	7.37536e+06	-52839.1	1055.82	-29748	0.000000	0.000000	7.153273	37.7007	NaN	0.000000	0.001563	0.001667	28.0829	25.5622	0.001853	13797.3	5.896899	-177.492	36.7596	1.150675	0.021903	0.021583	37.7007	13797.3	0.019853	0.022312	1689.68	84390.6
1054	2.000000	1.153560	7.37536e+06	-52839.1	1055.82	-29748	0.000000	0.000000	7.155916	39.6071	NaN	0.000000	0.001582	0.001749	28.0842	27.3762	0.001741	15722.6	4.591938	2.211057	39.1222	1.153153	0.024467	0.024060	39.6071	15722.6	0.022577	0.026755	1480.34	87819.5
1054	2.000000	1.155998	7.37536e+06	-52839.1	1055.82	-29748	0.000000	0.000000	7.158650	46.7947	NaN	0.000000	0.001610	0.001680	28.0843	29.3364	0.001806	16245.8	0.780366	-174.251	47.0198	1.155689	0.026905	0.026596	46.7947	16245.8	0.024745	0.030553	1531.61	84916.3
1054	2.000000	1.158506	7.37536e+06	-52839.1	1055.82	-29748	0.000000	0.000000	7.161526	55.7421	NaN	0.000000	0.001649	0.001711	28.0843	32.3035	0.001771	18237.5	6.678723	-1.761447	54.6795	1.158136	0.029414	0.029044	55.7421	18237.5	0.027121	0.034988	1593.17	89079.6
1054	2.000000	1.160965	7.37536e+06	-52839.1	1055.82	-29748	0.000000	0.000000	7.164069	57.7812	NaN	0.000000	0.001608	0.001688	28.0841	35.2526	0.001808	19501.8	5.347082	179.137	55.9588	1.160700	0.031872	0.031608	57.7812	19501.8	0.029650	0.040022	1443.73	89063.3
1054	2.000000	1.163486	7.37536e+06	-52839.1	1055.82	-29748	0.000000	0.000000	7.166951	66.5652	NaN	0.000000	0.001629	0.001696	28.0842	37.3207	0.001885	19798.7	3.978484	0.004234	63.6475	1.163162	0.034394	0.034069	66.5652	19798.7	0.031872	0.044713	1488.71	85544.3
1054	2.000000	1.165984	7.37536e+06	-52839.1	1055.82	-29748	0.000000	0.000000	7.169995	79.8521	NaN	0.000000	0.001630	0.001717	28.0843	39.3487	0.001836	21434.2	3.925858	179.694	79.3121	1.165663	0.036891	0.036571	79.8521	21434.2	0.034097	0.049664	1607.83	87873.5
1054	2.000000	1.168500	7.37536e+06	-52839.1	1055.82	-29748	0.000000	0.000000	7.172780	86.37	NaN	0.000000	0.001620	0.001700	28.084	42.274	0.001846	22896.3	4.328733	-1.590746	84.9332	1.168126	0.039408	0.039034	86.37	22896.3	0.036579	0.055485	1556.63	88807.5
1054	2.000000	1.170932	7.37536e+06	-52839.1	1055.82	-29748	0.000000	0.000000	7.175699	98.2142	NaN	0.000000	0.001614	0.001710	28.0839	44.6867	0.001772	25218.9	6.699066	175.503	95.3943	1.170604	0.041840	0.041511	98.2142	25218.9	0.038919	0.061264	1603.13	93088.9
1054	2.000000	1.173532	7.37536e+06	-52839.1	1055.82	-29748	0.000000	0.000000	7.178631	106.277	NaN	0.000000	0.001619	0.001712	28.084	46.952	0.001807	25977.8	3.103859	-0.465445	106.352	1.173160	0.044439	0.044068	106.277	25977.8	0.041371	0.067620	1571.68	91272
1054	2.000000	1.175967	7.37536e+06	-52839.1	1055.82	-29748	0.000000	0.000000	7.181551	118.083	NaN	0.000000	0.001582	0.001714	28.0841	49.2319	0.001738	28329.3	8.970405	172.019	116.821	1.175606	0.046875	0.046513	118.083	28329.3	0.043748	0.074074	1594.13	95099.2
1054	2.000000	1.178391	7.37536e+06	-52839.1	1055.82	-29748	0.000000	0.000000	7.184582	132.863	NaN	0.000000	0.001579	0.001705	28.0839	51.6689	0.001731	29843.9	6.597681	-7.094235	128.18	1.178078	0.049298	0.048985	132.863	29843.9	0.045959	0.080333	1653.91	96201.6
1054	2.000000	1.180943	7.37536e+06	-52839.1	1055.82	-29748	0.000000	0.000000	7.187371	138.612	NaN	0.000000	0.001602	0.001687	28.0838	55.0862	0.001890	29152.7	7.615867	173.71	137.654	1.180582	0.051850	0.051490	138.612	29152.7	0.048284	0.087184	1589.88	90205.7
1054	2.000000	1.183459	7.37536e+06	-52839.1	1055.82	-29748	0.000000	0.000000	7.190335	149.498	NaN	0.000000	0.001552	0.001723	28.0839	55.724	0.001701	32763.4	3.575753	-4.191712	145.702	1.183143	0.054366	0.054050	149.498	32763.4	0.050944	0.095353	1567.84	96938.3
1054	2.000000	1.185925	7.37536e+06	-52839.1	1055.82	-29748	0.000000	0.000000	7.193147	157.919	NaN	0.000000	0.001561	0.001692	28.084	58.1625	0.001827	31840.5	3.588773	175.486	154.823	1.185636	0.056832	0.056543	157.919	31840.5	0.053112	0.102275	1544.07	90964
1054	2.000000	1.188391	7.37536e+06	-52839.1	1055.82	-29748	0.000000	0.000000	7.196299	174.602	NaN	0.000000	0.001589	0.001742	28.0825	60.5938	0.001857	32632.8	5.948765	-6.036052	169.533	1.187976	0.059298	0.058883	174.602	32632.8	0.055285	0.109447	1595.32	90121
1054	2.000000	1.190908	7.37536e+06	-52839.1	1055.82	-29748	0.000000	0.000000	7.199256	185.288	NaN	0.000000	0.001606	0.001702	28.0828	62.6615	0.001671	37491.5	3.699707	173.919	182.128	1.190698	0.061816	0.061605	185.288	37491.5	0.058109	0.119115	1555.54	99248.2
1054	2.000000	1.193447	7.37536e+06	-52839.1	1055.82	-29748	0.000000	0.000000	7.202266	196.744	NaN	0.000000	0.001573	0.001704	28.0828	64.3427	0.001761	36538.8	4.648991	-6.054869	193.522	1.193155	0.064354	0.064062	196.744	36538.8	0.060316	0.126944	1549.85	93696
1054	2.000000	1.195989	7.37536e+06	-52839.1	1055.82	-29748	0.000000	0.000000	7.205335	209.554	NaN	0.000000	0.001593	0.001736	28.0824	68.3945	0.001813	37718	9.459210	168.249	210.921	1.195630	0.066896	0.066537	209.554	37718	0.062730	0.135778	1543.36	93520.5
1054	2.000000	1.198449	7.37536e+06	-52839.1	1055.82	-29748	0.000000	0.000000	7.208312	222.126	NaN	0.000000	0.001617	0.001733	28.0824	68.8844	0.001820	37844.3	-0.466177	-1.214927	219.522	1.198111	0.069356	0.069018	222.126	37844.3	0.064954	0.144170	1540.73	91062
1054	2.000000	1.200865	7.37536e+06	-52839.1	1055.82	-29748	0.000000	0.000000	7.211461	239.94	NaN	0.000000	0.001601	0.001737	28.0823	72.9429	0.001830	39870.3	3.752416	174.096	235.642	1.200648	0.071772	0.071556	239.94	39870.3	0.067258	0.153115	1567.06	93092.5
1054	2.000000	1.203396	7.37536e+06	-52839.1	1055.82	-29748	0.000000	0.000000	7.214709	257.373	NaN	0.000000	0.001594	0.001685	28.0825	74.0731	0.001764	41992.1	5.167955	-7.762701	252.234	1.203101	0.074303	0.074008	257.373	41992.1	0.069707	0.162896	1579.98	95057.2
1054	2.000000	1.205993	7.37536e+06	-52839.1	1055.82	-29748	0.000000	0.000000	7.218019	274.734	NaN	0.000000	0.001585	0.001706	28.0823	74.9095	0.001735	43174	-0.004758	177.685	277.126	1.205577	0.076900	0.076485	274.734	43174	0.072127	0.172849	1589.45	94877.2
1054	2.000000	1.208337	7.37536e+06	-52839.1	1055.82	-29748	0.000000	0.000000	7.220994	290.063	NaN	0.000000	0.001593	0.001720	28.0825	78.4875	0.001778	44150.1	3.939752	-6.565893	283.546	1.207966	0.079244	0.078873	290.063	44150.1	0.074317	0.182090	1592.97	94528.3
1054	2.000000	1.210939	7.37536e+06	-52839.1	1055.82	-29748	0.000000	0.000000	7.224152	303.55	NaN	0.000000	0.001593	0.001679	28.0824	82.1189	0.001922	42726.7	5.916622	170.732	303.291	1.210722	0.081847	0.081629	303.55	42726.7	0.076518	0.191610	1584.21	89179.2
1054	2.000000	1.213405	7.37536e+06	-52839.1	1055.82	-29748	0.000000	0.000000	7.227452	323.87	NaN	0.000000	0.001625	0.001759	28.0828	83.6	0.001917	43621.1	7.243476	-9.930532	318.309	1.213064	0.084312	0.083971	323.87	43621.1	0.078743	0.201462	1607.6	88791.9
1054	2.000000	1.215962	7.37536e+06	-52839.1	1055.82	-29748	0.000000	0.000000	7.230481	335.325	NaN	0.000000	0.001596	0.001733	28.0823	86.7835	0.001845	47034.5	5.691238	170.666	337.495	1.215651	0.086869	0.086558	335.325	47034.5	0.081522	0.214092	1566.27	92873.1
1054	2.000000	1.218458	7.37536e+06	-52839.1	1055.82	-29748	0.000000	0.000000	7.233819	355.791	NaN	0.000000	0.001598	0.001723	28.0824	88.5334	0.001813	48845.4	3.560762	-7.288352	355.08	1.218045	0.089366	0.088952	355.791	48845.4	0.083903	0.225195	1579.93	94041.2
1054	2.000000	1.220995	7.37536e+06	-52839.1	1055.82	-29748	0.000000	0.000000	7.237288	378.459	NaN	0.000000	0.001588	0.001727	28.0836	91.9278	0.001850	49689.5	4.431795	172.098	380.202	1.220588	0.091902	0.091495	378.459	49689.5	0.086190	0.236109	1602.9	93429
1054	2.000000	1.223458	7.37536e+06	-52839.1	1055.82	-29748	0.000000	0.000000	7.240497	396.586	NaN	0.000000	0.001609	0.001719	28.0838	94.0287	0.001770	53111.2	6.862026	-10.9012	396.774	1.223078	0.094365	0.093985	396.586	53111.2	0.088765	0.248689	1594.71	97304.1
1054	2.000000	1.225971	7.37536e+06	-52839.1	1055.82	-29748	0.000000	0.000000	7.243812	416.107	NaN	0.000000	0.001577	0.001758	28.0837	95.5831	0.001784	53587.1	4.982340	170.497	418.016	1.225596	0.096878	0.096503	416.107	53587.1	0.091054	0.260126	1599.64	95993.5
1054	2.000000	1.228448	7.37536e+06	-52839.1	1055.82	-29748	0.000000	0.000000	7.247214	438.589	NaN	0.000000	0.001601	0.001741	28.0839	98.438	0.001867	52717.8	3.261287	-7.879068	438.759	1.228068	0.099355	0.098975	438.589	52717.8	0.093115	0.270629	1620.63	92585.6
1054	2.000000	1.230888	7.37536e+06	-52839.1	1055.82	-29748	0.000000	0.000000	7.250330	455.029	NaN	0.000000	0.001574	0.001742	28.0839	100.744	0.001753	57485.3	5.890887	168.964	453.129	1.230577	0.101795	0.101485	455.029	57485.3	0.095858	0.284909	1597.1	98395.9
1054	2.000000	1.232388	7.37536e+06	-52839.1	1055.82	-29748	0.000000	0.000000	7.252801	478.645	NaN	0.000000	0.001597	0.001748	28.0838	101.556	0.001841	55162.7	5.723099	-10.5013	474.524	1.231983	0.103295	0.102891	478.645	55162.7	0.096787	0.289823	1651.51	93616.4