File: remote_trans/data/nanoindenter/0828-1/data/Data_2025-08-06,11h17m57s/2025-07-22_16-23-58_1_330.txt
2025-07-22, 16:23:58, 1
Index	Phase	Displacement	Time	Pos X	Pos Y	Pos Z	Rot A	Rot B	Piezo Z	Force A	Force B	Gripper	Voltage A	Voltage B	Temperature	Amplitude force	Amplitude pos	Stiffness	Phase shift	Phase excitation	Force A raw	Displacement raw	HMax	HMax raw	Real Force	Real Stiffness	Contact Depth	Area	Hardness	Reduced Mod.
[#]	[#]	[um]	[s]	[um]	[um]	[um]	[m°]	[m°]	[um]	[uN]	[uN]	[V]	[V]	[V]	[°C]	[uN]	[um]	[N/m]	[°]	[°]	[uN]	[um]	[um]	[um]	[uN]	[N/m]	[um]	[um^2]	[MPa]	[MPa]
330	1.000000	0.002929	7.36829e+06	-55139.1	955.818	-29742.5	0.000000	0.000000	6.002808	-0.014155	NaN	0.000000	0.001676	0.001669	28.0801	0.115746	0.001159	99.9085	37.6383	-167.126	0.017459	0.001655	-1.000857	-1.002131	-0.014155	99.9085	-1.000750	-2.322041E+13	6.095889E-16	NaN
330	1.000000	0.010883	7.36829e+06	-55139.1	955.819	-29742.5	0.000000	0.000000	6.010764	0.011141	NaN	0.000000	0.001654	0.001649	28.08	0.118510	0.000955	124.055	-100.866	-168.562	-0.060169	0.009618	-0.992902	-0.994168	0.011141	124.055	-0.992969	-1.824328E+13	-6.106782E-16	NaN
330	1.000000	0.018878	7.36829e+06	-55139.1	955.818	-29742.5	0.000000	0.000000	6.018756	-0.024669	NaN	0.000000	0.001690	0.001708	28.0798	0.062191	0.001652	37.6414	-119.772	-162.051	5.701277E-5	0.017540	-0.984908	-0.986245	-0.024669	37.6414	-0.984416	-1.399285E+13	1.763004E-15	NaN
330	1.000000	0.026919	7.36829e+06	-55139.1	955.818	-29742.5	0.000000	0.000000	6.026800	0.031366	NaN	0.000000	0.001674	0.001698	28.0799	0.039825	0.001832	21.7383	22.1359	-166.473	-0.078808	0.025577	-0.976867	-0.978208	0.031366	21.7383	-0.977949	-1.144929E+13	-2.739563E-15	NaN
330	1.000000	0.034868	7.36829e+06	-55139.1	955.818	-29742.5	0.000000	0.000000	6.034747	-0.015513	NaN	0.000000	0.001675	0.001691	28.0797	0.118509	0.001856	63.864	92.7542	-168.501	-0.011721	0.033579	-0.968917	-0.970207	-0.015513	63.864	-0.968735	-8.602354E+12	1.803290E-15	NaN
330	1.000000	0.042861	7.36829e+06	-55139.1	955.818	-29742.5	0.000000	0.000000	6.042740	-0.014514	NaN	0.000000	0.001672	0.001730	28.0797	0.094616	0.002112	44.7978	10.3775	-165.887	0.005387	0.041553	-0.960925	-0.962233	-0.014514	44.7978	-0.960682	-6.699816E+12	2.166334E-15	NaN
330	1.000000	0.050869	7.36829e+06	-55139.1	955.818	-29742.5	0.000000	0.000000	6.050749	-0.010236	NaN	0.000000	0.001695	0.001706	28.0799	0.063197	0.002028	31.1611	-7.228794	-167.894	0.021669	0.049515	-0.952916	-0.954271	-0.010236	31.1611	-0.952670	-5.224348E+12	1.959276E-15	NaN
330	1.000000	0.058873	7.36829e+06	-55139.1	955.819	-29742.5	0.000000	0.000000	6.058751	-0.021559	NaN	0.000000	0.001706	0.001719	28.08	0.048048	0.002025	23.7227	-29.1642	-162.807	0.018425	0.057585	-0.944913	-0.946201	-0.021559	23.7227	-0.944231	-4.019956E+12	5.363047E-15	NaN
330	1.000000	0.066897	7.36829e+06	-55139.1	955.819	-29742.5	0.000000	0.000000	6.066779	0.065377	NaN	0.000000	0.001697	0.001726	28.0809	0.060601	0.001885	32.154	82.9899	-161.911	0.075419	0.065553	-0.936889	-0.938233	0.065377	32.154	-0.938414	-3.355327E+12	-1.948467E-14	NaN
330	1.000000	0.074887	7.36829e+06	-55139.1	955.819	-29742.5	0.000000	0.000000	6.074765	-0.038569	NaN	0.000000	0.001640	0.001715	28.0809	0.122584	0.001951	62.8323	-29.9665	-165.207	-0.109039	0.073540	-0.928899	-0.930246	-0.038569	62.8323	-0.928438	-2.461041E+12	1.567173E-14	NaN
330	1.000000	0.082865	7.36829e+06	-55139.1	955.818	-29742.5	0.000000	0.000000	6.082745	-0.006543	NaN	0.000000	0.001667	0.001659	28.0809	0.060697	0.001965	30.8818	136.057	-166.018	-0.026500	0.081539	-0.920921	-0.922246	-0.006543	30.8818	-0.920762	-1.938605E+12	3.374924E-15	NaN
330	1.000000	0.090865	7.36829e+06	-55139.1	955.818	-29742.5	0.000000	0.000000	6.090743	-0.061527	NaN	0.000000	0.001676	0.001708	28.0809	0.053756	0.001980	27.1483	23.8578	-164.362	-0.039406	0.089607	-0.912920	-0.914179	-0.061527	27.1483	-0.911220	-1.440939E+12	4.269888E-14	NaN
330	1.000000	0.098909	7.36829e+06	-55139.1	955.818	-29742.5	0.000000	0.000000	6.098789	-0.000316	NaN	0.000000	0.001696	0.001736	28.081	0.052918	0.001934	27.3635	39.0044	-166.644	0.017077	0.097610	-0.904877	-0.906176	-0.000316	27.3635	-0.904868	-1.182602E+12	2.668167E-16	NaN
330	1.000000	0.106898	7.36829e+06	-55139.1	955.819	-29742.5	0.000000	0.000000	6.106781	0.056286	NaN	0.000000	0.001690	0.001721	28.081	0.050230	0.002131	23.5701	32.6861	-167.004	-0.032335	0.105580	-0.896887	-0.898206	0.056286	23.5701	-0.898678	-9.754476E+11	-5.770277E-14	NaN
330	1.000000	0.114900	7.36829e+06	-55139.1	955.817	-29742.5	0.000000	0.000000	6.114781	0.013936	NaN	0.000000	0.001693	0.001661	28.0811	0.038717	0.002016	19.2063	97.6755	-165.223	0.023804	0.113527	-0.888885	-0.890259	0.013936	19.2063	-0.889429	-7.314812E+11	-1.905174E-14	NaN
330	1.000000	0.122899	7.36829e+06	-55139.1	955.818	-29742.5	0.000000	0.000000	6.122777	-0.037201	NaN	0.000000	0.001666	0.001705	28.0811	0.055653	0.002021	27.541	-38.6779	-165.379	-0.025100	0.121615	-0.880887	-0.882170	-0.037201	27.541	-0.879874	-5.432532E+11	6.847816E-14	NaN
330	1.000000	0.130911	7.36829e+06	-55139.1	955.818	-29742.5	0.000000	0.000000	6.130791	-0.007550	NaN	0.000000	0.001728	0.001705	28.0812	0.096890	0.002085	46.48	-99.8645	-163.449	-0.024912	0.129576	-0.872874	-0.874209	-0.007550	46.48	-0.872752	-4.351919E+11	1.734783E-14	NaN
330	1.000000	0.138912	7.36829e+06	-55139.1	955.818	-29742.5	0.000000	0.000000	6.138793	0.007896	NaN	0.000000	0.001685	0.001698	28.0811	0.074301	0.001925	38.6051	174.9	-163.563	-0.062686	0.137580	-0.864873	-0.866205	0.007896	38.6051	-0.865026	-3.420963E+11	-2.308192E-14	NaN
330	1.000000	0.146909	7.36829e+06	-55139.1	955.818	-29742.5	0.000000	0.000000	6.146788	-0.005975	NaN	0.000000	0.001689	0.001680	28.0814	0.048363	0.002023	23.9011	30.2109	-161.919	-0.036793	0.145609	-0.856877	-0.858177	-0.005975	23.9011	-0.856689	-2.638178E+11	2.264881E-14	NaN
330	1.000000	0.154880	7.36829e+06	-55139.1	955.819	-29742.5	0.000000	0.000000	6.154763	0.069153	NaN	0.000000	0.001679	0.001702	28.0815	0.058390	0.001968	29.6767	12.4156	-164.564	0.000651	0.153624	-0.848905	-0.850162	0.069153	29.6767	-0.850653	-2.185656E+11	-3.163968E-13	NaN
330	1.000000	0.162914	7.36829e+06	-55139.1	955.818	-29742.5	0.000000	0.000000	6.162795	0.016070	NaN	0.000000	0.001685	0.001642	28.0812	0.145125	0.001925	75.3706	106.919	-162.701	0.099869	0.161605	-0.840871	-0.842180	0.016070	75.3706	-0.841031	-1.619065E+11	-9.925204E-14	NaN
330	1.000000	0.170923	7.36829e+06	-55139.1	955.817	-29742.5	0.000000	0.000000	6.170801	-0.037403	NaN	0.000000	0.001679	0.001651	28.0812	0.063677	0.002087	30.5155	67.1322	-165.856	-0.054230	0.169596	-0.832862	-0.834189	-0.037403	30.5155	-0.831943	-1.219330E+11	3.067530E-13	NaN
330	1.000000	0.178913	7.36829e+06	-55139.1	955.817	-29742.5	0.000000	0.000000	6.178793	-0.004645	NaN	0.000000	0.001691	0.001655	28.0815	0.059801	0.002023	29.5554	-162.21	-164.923	-0.025909	0.177638	-0.824872	-0.826147	-0.004645	29.5554	-0.824754	-9.742608E+10	4.767306E-14	NaN
330	1.000000	0.186886	7.36829e+06	-55139.1	955.818	-29742.5	0.000000	0.000000	6.186764	-0.045276	NaN	0.000000	0.001691	0.001713	28.0813	0.071243	0.001920	37.1042	-18.3174	-168.153	0.067302	0.185623	-0.816899	-0.818163	-0.045276	37.1042	-0.815984	-7.408760E+10	6.111201E-13	NaN
330	1.000000	0.194916	7.36829e+06	-55139.1	955.817	-29742.5	0.000000	0.000000	6.194795	-0.021637	NaN	0.000000	0.001670	0.001695	28.0811	0.039857	0.001973	20.2038	73.9406	-164.117	0.019088	0.193619	-0.808870	-0.810166	-0.021637	20.2038	-0.808066	-5.785446E+10	3.739976E-13	NaN
330	1.000000	0.202949	7.36829e+06	-55139.1	955.818	-29742.5	0.000000	0.000000	6.202827	-0.052220	NaN	0.000000	0.001674	0.001721	28.0801	0.046741	0.002036	22.9527	75.8025	-165.813	-0.024019	0.201595	-0.800836	-0.802191	-0.052220	22.9527	-0.799130	-4.375717E+10	1.193411E-12	NaN
330	1.000000	0.210935	7.36829e+06	-55139.1	955.818	-29742.5	0.000000	0.000000	6.210815	0.021443	NaN	0.000000	0.001649	0.001705	28.0803	0.063146	0.002044	30.8903	-34.6678	-163.963	-0.016765	0.209644	-0.792851	-0.794142	0.021443	30.8903	-0.793371	-3.654844E+10	-5.866962E-13	NaN
330	1.000000	0.218939	7.36829e+06	-55139.1	955.818	-29742.5	0.000000	0.000000	6.218817	-0.030785	NaN	0.000000	0.001667	0.001704	28.0804	0.086947	0.001885	46.1378	-172.852	-166.276	0.016118	0.217672	-0.784847	-0.786114	-0.030785	46.1378	-0.784346	-2.756045E+10	1.117016E-12	NaN
330	1.000000	0.226943	7.36829e+06	-55139.1	955.818	-29742.5	0.000000	0.000000	6.226821	-0.038887	NaN	0.000000	0.001681	0.001704	28.08	0.052609	0.002152	24.4435	154.914	-165.604	-0.050660	0.225623	-0.776842	-0.778162	-0.038887	24.4435	-0.775649	-2.099427E+10	1.852261E-12	NaN
330	1.000000	0.234968	7.36829e+06	-55139.1	955.818	-29742.5	0.000000	0.000000	6.234847	-0.024080	NaN	0.000000	0.001678	0.001710	28.0801	0.087847	0.002018	43.5229	-146.546	-163.084	0.028950	0.233631	-0.768818	-0.770155	-0.024080	43.5229	-0.768403	-1.673358E+10	1.439047E-12	NaN
330	1.000000	0.242936	7.36829e+06	-55139.1	955.818	-29742.5	0.000000	0.000000	6.242815	-0.012404	NaN	0.000000	0.001666	0.001709	28.0803	0.061549	0.001985	31.0138	-87.0377	-163.651	-0.098262	0.241698	-0.760850	-0.762087	-0.012404	31.0138	-0.760550	-1.308527E+10	9.479223E-13	NaN
330	1.000000	0.250964	7.36829e+06	-55139.1	955.818	-29742.5	0.000000	0.000000	6.250842	-0.032033	NaN	0.000000	0.001660	0.001701	28.0798	0.059533	0.002069	28.7741	-2.299682	-167.259	-0.032632	0.249670	-0.752822	-0.754115	-0.032033	28.7741	-0.751987	-1.000610E+10	3.201374E-12	NaN
330	1.000000	0.258954	7.36829e+06	-55139.1	955.818	-29742.5	0.000000	0.000000	6.258833	-0.028793	NaN	0.000000	0.001683	0.001715	28.0801	0.058511	0.001952	29.9794	126.77	-166.185	0.006432	0.257625	-0.744831	-0.746161	-0.028793	29.9794	-0.744111	-7.817033E+9	3.683361E-12	NaN
330	1.000000	0.266961	7.36829e+06	-55139.1	955.818	-29742.5	0.000000	0.000000	6.266840	-0.035813	NaN	0.000000	0.001683	0.001704	28.0801	0.039955	0.001950	20.4886	128.014	-164.665	-0.000225	0.265651	-0.736824	-0.738135	-0.035813	20.4886	-0.735513	-5.969470E+9	5.999393E-12	NaN
330	1.000000	0.275000	7.36829e+06	-55139.1	955.819	-29742.5	0.000000	0.000000	6.274878	-0.053262	NaN	0.000000	0.001642	0.001702	28.0802	0.015776	0.002007	7.861218	165.679	-166.177	-0.134886	0.273605	-0.728785	-0.730181	-0.053262	7.861218	-0.723704	-4.120756E+9	1.292521E-11	NaN
330	1.000000	0.282962	7.36829e+06	-55139.1	955.818	-29742.5	0.000000	0.000000	6.282842	0.010990	NaN	0.000000	0.001652	0.001736	28.08	0.163300	0.001860	87.7959	45.9334	-164.842	0.065497	0.281683	-0.720824	-0.722103	0.010990	87.7959	-0.720918	-3.775622E+9	-2.910702E-12	NaN
330	1.000000	0.290999	7.36829e+06	-55139.1	955.818	-29742.5	0.000000	0.000000	6.290878	-0.028530	NaN	0.000000	0.001683	0.001677	28.0799	0.037922	0.001973	19.2225	-144.587	-164.356	-0.110315	0.289644	-0.712786	-0.714141	-0.028530	19.2225	-0.711673	-2.824092E+9	1.010250E-11	NaN
330	1.000000	0.298969	7.36829e+06	-55139.1	955.818	-29742.5	0.000000	0.000000	6.298848	-0.030531	NaN	0.000000	0.001681	0.001666	28.0799	0.067372	0.002112	31.8949	10.7593	-163.896	0.026509	0.297693	-0.704816	-0.706092	-0.030531	31.8949	-0.704098	-2.225835E+9	1.371667E-11	NaN
330	1.000000	0.306965	7.36829e+06	-55139.1	955.818	-29742.5	0.000000	0.000000	6.306845	0.013216	NaN	0.000000	0.001692	0.001715	28.0798	0.084905	0.001933	43.9129	-54.0139	-168.445	0.072549	0.305650	-0.696821	-0.698135	0.013216	43.9129	-0.697046	-1.783163E+9	-7.411763E-12	NaN
330	1.000000	0.314994	7.36829e+06	-55139.1	955.818	-29742.5	0.000000	0.000000	6.314874	-0.000445	NaN	0.000000	0.001692	0.001634	28.0799	0.067004	0.001995	33.5791	-31.538	-163.937	-0.027565	0.313665	-0.688792	-0.690121	-0.000445	33.5791	-0.688782	-1.374892E+9	3.239716E-13	NaN
330	1.000000	0.322974	7.36829e+06	-55139.1	955.817	-29742.5	0.000000	0.000000	6.322853	-0.010896	NaN	0.000000	0.001731	0.001656	28.0798	0.150119	0.002002	74.9886	-43.5986	-163.827	-0.025974	0.321680	-0.680812	-0.682105	-0.010896	74.9886	-0.680703	-1.066148E+9	1.022014E-11	NaN
330	1.000000	0.331000	7.36829e+06	-55139.1	955.819	-29742.5	0.000000	0.000000	6.330875	-0.130368	NaN	0.000000	0.001711	0.001663	28.0803	0.032682	0.002083	15.6871	-69.3742	-166.573	0.002439	0.329716	-0.672785	-0.674069	-0.130368	15.6871	-0.666552	-6.826500E+8	1.909728E-10	NaN
330	1.000000	0.338972	7.36829e+06	-55139.1	955.818	-29742.5	0.000000	0.000000	6.338850	-0.054743	NaN	0.000000	0.001689	0.001669	28.0812	0.042933	0.001954	21.9741	-141.827	-162.202	-0.068052	0.337681	-0.664814	-0.666105	-0.054743	21.9741	-0.662945	-6.092626E+8	8.985067E-11	NaN
330	1.000000	0.346990	7.36829e+06	-55139.1	955.818	-29742.5	0.000000	0.000000	6.346869	-0.012320	NaN	0.000000	0.001670	0.001661	28.0811	0.036363	0.001994	18.2395	98.2772	-163.297	-0.074160	0.345643	-0.656796	-0.658142	-0.012320	18.2395	-0.656289	-4.938933E+8	2.494386E-11	NaN
330	1.000000	0.354977	7.36829e+06	-55139.1	955.818	-29742.5	0.000000	0.000000	6.354856	0.000391	NaN	0.000000	0.001683	0.001643	28.0814	0.152765	0.002040	74.8722	166.685	-166.663	0.030579	0.353639	-0.648809	-0.650147	0.000391	74.8722	-0.648813	-3.900868E+8	-1.001436E-12	NaN
330	1.000000	0.362997	7.36829e+06	-55139.1	955.819	-29742.5	0.000000	0.000000	6.362875	-0.044686	NaN	0.000000	0.001664	0.001647	28.0812	0.093299	0.001937	48.1672	145.251	-165.659	0.011265	0.361686	-0.640788	-0.642099	-0.044686	48.1672	-0.640092	-2.961805E+8	1.508754E-10	NaN
330	1.000000	0.370984	7.36829e+06	-55139.1	955.817	-29742.5	0.000000	0.000000	6.370863	-0.026896	NaN	0.000000	0.001689	0.001657	28.0814	0.034993	0.001902	18.3988	84.5952	-162.724	-0.037243	0.369682	-0.632801	-0.634103	-0.026896	18.3988	-0.631705	-2.272150E+8	1.183709E-10	NaN
330	1.000000	0.378978	7.36829e+06	-55139.1	955.817	-29742.5	0.000000	0.000000	6.378858	0.008555	NaN	0.000000	0.001688	0.001676	28.0815	0.052866	0.001960	26.9759	179.122	-163.444	-0.008188	0.377666	-0.624808	-0.626120	0.008555	26.9759	-0.625045	-1.840636E+8	-4.647710E-11	NaN
330	1.000000	0.387022	7.36829e+06	-55139.1	955.817	-29742.5	0.000000	0.000000	6.386900	-0.048837	NaN	0.000000	0.001745	0.001706	28.0812	0.043694	0.001990	21.9545	122.571	-165.206	-0.050549	0.385673	-0.616763	-0.618113	-0.048837	21.9545	-0.615095	-1.343370E+8	3.635426E-10	NaN
330	1.000000	0.395029	7.36829e+06	-55139.1	955.818	-29742.5	0.000000	0.000000	6.394909	-0.005983	NaN	0.000000	0.001736	0.001683	28.0813	0.031953	0.002091	15.2805	150.081	-164.585	0.063109	0.393705	-0.608756	-0.610081	-0.005983	15.2805	-0.608462	-1.088827E+8	5.494724E-11	NaN
330	1.000000	0.402994	7.36829e+06	-55139.1	955.818	-29742.5	0.000000	0.000000	6.402873	-0.030389	NaN	0.000000	0.001714	0.001697	28.0814	0.103422	0.002005	51.5856	-93.4505	-163.924	0.012610	0.401656	-0.600792	-0.602129	-0.030389	51.5856	-0.600350	-8.419318E+7	3.609431E-10	NaN
330	1.000000	0.410997	7.36829e+06	-55139.1	955.818	-29742.5	0.000000	0.000000	6.410875	-0.028962	NaN	0.000000	0.001730	0.001665	28.0815	0.081996	0.001968	41.6571	82.1485	-162.494	-0.082809	0.409696	-0.592789	-0.594090	-0.028962	41.6571	-0.592268	-6.515152E+7	4.445340E-10	NaN
330	1.000000	0.419040	7.36829e+06	-55139.1	955.816	-29742.5	0.000000	0.000000	6.418917	-0.086169	NaN	0.000000	0.001700	0.001656	28.0815	0.068758	0.001938	35.4799	154.605	-168.656	-0.044147	0.417748	-0.584745	-0.586037	-0.086169	35.4799	-0.582924	-4.842517E+7	1.779435E-9	NaN
330	1.000000	0.427028	7.36829e+06	-55139.1	955.818	-29742.5	0.000000	0.000000	6.426907	0.001835	NaN	0.000000	0.001725	0.001666	28.0814	0.024926	0.001908	13.0631	70.2049	-162.412	0.036475	0.425757	-0.576758	-0.578029	0.001835	13.0631	-0.576863	-3.994173E+7	-4.594558E-11	NaN
330	1.000000	0.435061	7.36829e+06	-55139.1	955.819	-29742.5	0.000000	0.000000	6.434942	0.035712	NaN	0.000000	0.001718	0.001665	28.0815	0.095255	0.002108	45.1898	125.173	-163.693	0.043856	0.433779	-0.568724	-0.570007	0.035712	45.1898	-0.569317	-3.141931E+7	-1.136632E-9	NaN
330	1.000000	0.443008	7.36829e+06	-55139.1	955.817	-29742.5	0.000000	0.000000	6.442887	-0.024015	NaN	0.000000	0.001723	0.001674	28.0814	0.053373	0.002077	25.6931	18.5231	-166.064	-0.070200	0.441693	-0.560778	-0.562093	-0.024015	25.6931	-0.560077	-2.341211E+7	1.025757E-9	NaN
330	1.000000	0.451049	7.36829e+06	-55139.1	955.818	-29742.5	0.000000	0.000000	6.450930	0.036930	NaN	0.000000	0.001711	0.001685	28.0816	0.112948	0.002105	53.655	98.7568	-163.167	0.094973	0.449707	-0.552737	-0.554078	0.036930	53.655	-0.553253	-1.883662E+7	-1.960525E-9	NaN
330	1.000000	0.459038	7.36829e+06	-55139.1	955.819	-29742.5	0.000000	0.000000	6.458920	0.047704	NaN	0.000000	0.001726	0.001707	28.0816	0.038185	0.002021	18.8917	-130.707	-164.254	0.024379	0.457727	-0.544748	-0.546059	0.047704	18.8917	-0.546641	-1.525550E+7	-3.126999E-9	NaN
330	1.000000	0.467061	7.36829e+06	-55139.1	955.818	-29742.5	0.000000	0.000000	6.466939	-0.052246	NaN	0.000000	0.001741	0.001710	28.0818	0.012727	0.001932	6.588247	-107.335	-163.886	-0.060171	0.465701	-0.536725	-0.538085	-0.052246	6.588247	-0.530777	-9.19102e+06	5.684454E-9	NaN
330	1.000000	0.475074	7.36829e+06	-55139.1	955.818	-29742.5	0.000000	0.000000	6.474955	0.033416	NaN	0.000000	0.001729	0.001720	28.08	0.071196	0.001879	37.8976	-0.774480	-163.391	0.003864	0.473745	-0.528712	-0.530041	0.033416	37.8976	-0.529373	-8.7875e+06	-3.802656E-9	NaN
330	1.000000	0.483043	7.36829e+06	-55139.1	955.818	-29742.5	0.000000	0.000000	6.482925	0.061596	NaN	0.000000	0.001734	0.001741	28.0802	0.069518	0.002105	33.0186	125.504	-164.338	0.050125	0.481743	-0.520743	-0.522043	0.061596	33.0186	-0.522142	-6.97238e+06	-8.834272E-9	NaN
330	1.000000	0.491053	7.36829e+06	-55139.1	955.818	-29742.5	0.000000	0.000000	6.490930	-0.072726	NaN	0.000000	0.001725	0.001706	28.0804	0.069937	0.001939	36.0597	164.844	-166.805	-0.019927	0.489773	-0.512732	-0.514012	-0.072726	36.0597	-0.511220	-4.91363e+06	1.480081E-8	NaN
330	1.000000	0.499026	7.36829e+06	-55139.1	955.818	-29742.5	0.000000	0.000000	6.498903	-0.077051	NaN	0.000000	0.001708	0.001725	28.0805	0.107383	0.002038	52.6928	154.476	-167.269	-0.080101	0.497803	-0.504760	-0.505982	-0.077051	52.6928	-0.503663	-3.8557e+06	1.998360E-8	NaN
330	1.000000	0.507057	7.36829e+06	-55139.1	955.818	-29742.5	0.000000	0.000000	6.506935	-0.046621	NaN	0.000000	0.001701	0.001690	28.0803	0.093290	0.001985	46.9928	-33.0946	-165.534	-0.088215	0.505794	-0.496729	-0.497992	-0.046621	46.9928	-0.495985	-3.0129e+06	1.547382E-8	NaN
330	1.000000	0.515059	7.36829e+06	-55139.1	955.817	-29742.5	0.000000	0.000000	6.514937	-0.056908	NaN	0.000000	0.001670	0.001716	28.0805	0.062409	0.001989	31.3713	102.542	-165.168	-0.040564	0.513753	-0.488726	-0.490032	-0.056908	31.3713	-0.487366	-2.28335e+06	2.492298E-8	NaN
330	1.000000	0.523082	7.36829e+06	-55139.1	955.818	-29742.5	0.000000	0.000000	6.522960	-0.041962	NaN	0.000000	0.001725	0.001714	28.0807	0.091771	0.001944	47.1957	130.146	-163.549	-0.026001	0.521773	-0.480704	-0.482012	-0.041962	47.1957	-0.480037	-1.80321e+06	2.327083E-8	NaN
330	1.000000	0.531053	7.36829e+06	-55139.1	955.818	-29742.5	0.000000	0.000000	6.530929	-0.094777	NaN	0.000000	0.001707	0.001716	28.0805	0.074647	0.002028	36.8087	47.2489	-162.937	-0.106459	0.529795	-0.472732	-0.473990	-0.094777	36.8087	-0.470801	-1.33858e+06	7.080430E-8	NaN
330	1.000000	0.539107	7.36829e+06	-55139.1	955.817	-29742.5	0.000000	0.000000	6.538988	0.024821	NaN	0.000000	0.001713	0.001717	28.0805	0.073614	0.001976	37.263	97.7622	-165.445	0.003398	0.537768	-0.464679	-0.466018	0.024821	37.263	-0.465178	-1.11623e+06	-2.223668E-8	NaN
330	1.000000	0.547060	7.36829e+06	-55139.1	955.818	-29742.5	0.000000	0.000000	6.546937	-0.062369	NaN	0.000000	0.001671	0.001746	28.0804	0.037736	0.002113	17.8611	148.944	-163.815	-0.009122	0.545819	-0.456726	-0.457967	-0.062369	17.8611	-0.454107	-780109	7.994905E-8	NaN
330	1.000000	0.555100	7.36829e+06	-55139.1	955.818	-29742.5	0.000000	0.000000	6.554978	-0.049509	NaN	0.000000	0.001691	0.001752	28.0808	0.088296	0.002033	43.4369	-56.9702	-163.462	0.027395	0.553756	-0.448686	-0.450029	-0.049509	43.4369	-0.447831	-636486	7.778472E-8	NaN
330	1.000000	0.563085	7.36829e+06	-55139.1	955.818	-29742.5	0.000000	0.000000	6.562962	-0.075797	NaN	0.000000	0.001711	0.001725	28.0806	0.106372	0.001992	53.4108	-42.7658	-166.404	-0.045821	0.561745	-0.440700	-0.442040	-0.075797	53.4108	-0.439636	-487782	1.553914E-7	NaN
330	1.000000	0.571090	7.36829e+06	-55139.1	955.819	-29742.5	0.000000	0.000000	6.570969	-0.023965	NaN	0.000000	0.001670	0.001701	28.0805	0.026428	0.002012	13.1372	-149.173	-162.959	-0.004880	0.569779	-0.432695	-0.434007	-0.023965	13.1372	-0.431327	-372250	6.437909E-8	NaN
330	1.000000	0.579079	7.36829e+06	-55139.1	955.818	-29742.5	0.000000	0.000000	6.578956	-0.065123	NaN	0.000000	0.001725	0.001737	28.0802	0.110026	0.001988	55.3388	-127.172	-163.774	-0.003903	0.577771	-0.424707	-0.426015	-0.065123	55.3388	-0.423824	-291489	2.234147E-7	NaN
330	1.000000	0.587100	7.36829e+06	-55139.1	955.819	-29742.5	0.000000	0.000000	6.586979	-0.003679	NaN	0.000000	0.001749	0.001754	28.0803	0.093255	0.002028	45.9851	-33.456	-165.252	-0.014075	0.585806	-0.416686	-0.417980	-0.003679	45.9851	-0.416626	-230430	1.596628E-8	NaN
330	1.000000	0.595114	7.3683e+06	-55139.1	955.817	-29742.5	0.000000	0.000000	6.594992	-0.029165	NaN	0.000000	0.001719	0.001751	28.0802	0.116545	0.002000	58.2671	7.325330	-162.639	-0.030537	0.593838	-0.408672	-0.409947	-0.029165	58.2671	-0.408296	-175457	1.662257E-7	NaN
330	1.000000	0.603092	7.3683e+06	-55139.1	955.818	-29742.5	0.000000	0.000000	6.602970	-0.033927	NaN	0.000000	0.001711	0.001726	28.0803	0.058105	0.002038	28.5152	-9.968072	-166.165	-0.010421	0.601806	-0.400693	-0.401979	-0.033927	28.5152	-0.399801	-132788	2.555003E-7	NaN
330	1.000000	0.611125	7.3683e+06	-55139.1	955.818	-29742.5	0.000000	0.000000	6.611007	0.061989	NaN	0.000000	0.001647	0.001743	28.0816	0.128489	0.002072	62.0236	-176.065	-164.102	0.013721	0.609805	-0.392661	-0.393980	0.061989	62.0236	-0.393410	-107627	-5.759640E-7	NaN
330	1.000000	0.619084	7.3683e+06	-55139.1	955.818	-29742.5	0.000000	0.000000	6.618966	0.044652	NaN	0.000000	0.001637	0.001737	28.0809	0.081020	0.001987	40.7721	19.5992	-166.646	0.028612	0.617790	-0.384702	-0.385995	0.044652	40.7721	-0.385523	-83000	-5.379741E-7	NaN
330	1.000000	0.627138	7.3683e+06	-55139.1	955.818	-29742.5	0.000000	0.000000	6.627015	-0.073085	NaN	0.000000	0.001626	0.001717	28.0812	0.136757	0.002005	68.1946	-0.198643	-164.393	-0.043131	0.625809	-0.376647	-0.377977	-0.073085	68.1946	-0.375844	-60283.1	1.212367E-6	NaN
330	1.000000	0.635101	7.3683e+06	-55139.1	955.818	-29742.5	0.000000	0.000000	6.634980	-0.005447	NaN	0.000000	0.001627	0.001704	28.0813	0.051127	0.002033	25.1545	119.353	-165.891	-0.034087	0.633826	-0.368685	-0.369960	-0.005447	25.1545	-0.368523	-47298.2	1.151720E-7	NaN
330	1.000000	0.643155	7.3683e+06	-55139.1	955.818	-29742.5	0.000000	0.000000	6.643039	0.096487	NaN	0.000000	0.001612	0.001727	28.0817	0.058777	0.002096	28.041	-110.962	-162.836	0.082883	0.641796	-0.360630	-0.361990	0.096487	28.041	-0.363211	-39649	-2.433523E-6	NaN
330	1.000000	0.651132	7.3683e+06	-55139.1	955.818	-29742.5	0.000000	0.000000	6.651012	0.022285	NaN	0.000000	0.001632	0.001695	28.0814	0.118531	0.002110	56.176	19.5505	-165.413	0.049472	0.649785	-0.352654	-0.354000	0.022285	56.176	-0.352951	-28171.7	-7.910402E-7	NaN
330	1.000000	0.659139	7.3683e+06	-55139.1	955.819	-29742.5	0.000000	0.000000	6.659019	0.011815	NaN	0.000000	0.001655	0.001708	28.0813	0.176119	0.002014	87.435	151.657	-165.29	-0.031670	0.657867	-0.344647	-0.345918	0.011815	87.435	-0.344748	-21413.9	-5.517555E-7	NaN
330	1.000000	0.667112	7.3683e+06	-55139.1	955.818	-29742.5	0.000000	0.000000	6.666988	-0.080309	NaN	0.000000	0.001606	0.001720	28.0814	0.110823	0.002047	54.1509	70.2701	-163.75	-0.010384	0.665785	-0.336674	-0.338000	-0.080309	54.1509	-0.335561	-15732.2	5.104762E-6	NaN
330	1.000000	0.675106	7.3683e+06	-55139.1	955.817	-29742.6	0.000000	0.000000	6.674984	-0.037141	NaN	0.000000	0.001617	0.001724	28.0814	0.110144	0.001967	56.0058	-45.4766	-165.364	-0.007517	0.673800	-0.328679	-0.329985	-0.037141	56.0058	-0.328182	-12269.2	3.027193E-6	NaN
330	1.000000	0.683139	7.3683e+06	-55139.1	955.817	-29742.6	0.000000	0.000000	6.683019	-0.011415	NaN	0.000000	0.001647	0.001690	28.0818	0.096165	0.002039	47.1661	-72.9519	-164.288	-0.012754	0.681783	-0.320646	-0.322003	-0.011415	47.1661	-0.320465	-9450.94	1.207830E-6	NaN
330	1.000000	0.691179	7.3683e+06	-55139.1	955.817	-29742.6	0.000000	0.000000	6.691057	-0.033018	NaN	0.000000	0.001671	0.001720	28.0813	0.107972	0.001982	54.4861	-31.3781	-166.095	-0.001374	0.689826	-0.312607	-0.313959	-0.033018	54.4861	-0.312153	-7126.75	4.632991E-6	NaN
330	1.000000	0.699136	7.3683e+06	-55139.1	955.818	-29742.6	0.000000	0.000000	6.699018	0.043600	NaN	0.000000	0.001628	0.001709	28.0817	0.039404	0.002096	18.7961	90.309	-163.396	-0.004572	0.697767	-0.304650	-0.306019	0.043600	18.7961	-0.306389	-5855.52	-7.445952E-6	NaN
330	1.000000	0.707110	7.3683e+06	-55139.1	955.818	-29742.6	0.000000	0.000000	6.706989	-0.039408	NaN	0.000000	0.001598	0.001682	28.0815	0.072171	0.002065	34.958	8.892819	-165.17	-0.038345	0.705813	-0.296675	-0.297973	-0.039408	34.958	-0.295830	-4078.26	9.662982E-6	NaN
330	1.000000	0.715132	7.3683e+06	-55139.1	955.818	-29742.6	0.000000	0.000000	6.715010	-0.035711	NaN	0.000000	0.001605	0.001681	28.0815	0.088693	0.001915	46.3253	44.5743	-164.429	-0.027872	0.713799	-0.288654	-0.289986	-0.035711	46.3253	-0.288076	-3122.15	1.143811E-5	NaN
330	1.000000	0.723156	7.3683e+06	-55139.1	955.818	-29742.6	0.000000	0.000000	6.723038	0.069497	NaN	0.000000	0.001610	0.001703	28.0816	0.074094	0.001977	37.4719	-71.6586	-163.143	0.008317	0.721824	-0.280630	-0.281962	0.069497	37.4719	-0.282021	-2531.84	-2.744938E-5	NaN
330	1.000000	0.731165	7.3683e+06	-55139.1	955.818	-29742.6	0.000000	0.000000	6.731045	-0.011137	NaN	0.000000	0.001617	0.001684	28.0815	0.018371	0.002113	8.694806	31.6822	-167.016	-0.005214	0.729868	-0.272620	-0.273917	-0.011137	8.694806	-0.271659	-1765.03	6.309874E-6	NaN
330	1.000000	0.739153	7.3683e+06	-55139.1	955.819	-29742.6	0.000000	0.000000	6.739032	-0.020490	NaN	0.000000	0.001590	0.001682	28.0816	0.109997	0.001930	56.9815	-110.385	-162.344	0.029872	0.737904	-0.264633	-0.265882	-0.020490	56.9815	-0.264363	-1366.68	1.499272E-5	NaN
330	1.000000	0.747147	7.3683e+06	-55139.1	955.818	-29742.6	0.000000	0.000000	6.747025	-0.048771	NaN	0.000000	0.001627	0.001682	28.0802	0.116840	0.002058	56.7798	146.541	-164.819	-0.030814	0.745872	-0.256638	-0.257914	-0.048771	56.7798	-0.255994	-1017.22	4.794583E-5	NaN
330	1.000000	0.755198	7.3683e+06	-55139.1	955.819	-29742.6	0.000000	0.000000	6.755075	-0.069049	NaN	0.000000	0.001608	0.001666	28.0806	0.029743	0.002049	14.5193	-37.2846	-163.386	0.028451	0.753883	-0.248588	-0.249902	-0.069049	14.5193	-0.245021	-688.304	0.000100	NaN
330	1.000000	0.763171	7.3683e+06	-55139.1	955.818	-29742.6	0.000000	0.000000	6.763050	-0.013274	NaN	0.000000	0.001611	0.001681	28.0803	0.038054	0.002029	18.758	141.02	-166.347	-0.032488	0.761834	-0.240615	-0.241951	-0.013274	18.758	-0.240084	-576.587	2.302129E-5	NaN
330	1.000000	0.771194	7.3683e+06	-55139.1	955.818	-29742.6	0.000000	0.000000	6.771074	0.025522	NaN	0.000000	0.001649	0.001677	28.0802	0.062203	0.001913	32.5225	7.668533	-167.638	-0.006064	0.769860	-0.232592	-0.233925	0.025522	32.5225	-0.233181	-449.416	-5.679010E-5	NaN
330	1.000000	0.779171	7.3683e+06	-55139.1	955.818	-29742.6	0.000000	0.000000	6.779049	-0.038339	NaN	0.000000	0.001644	0.001724	28.0802	0.093471	0.002028	46.0971	-124.653	-162.757	-0.059400	0.777778	-0.224614	-0.226007	-0.038339	46.0971	-0.223991	-321.584	0.000119	NaN
330	1.000000	0.787197	7.3683e+06	-55139.1	955.817	-29742.6	0.000000	0.000000	6.787077	0.012208	NaN	0.000000	0.001633	0.001685	28.0803	0.044448	0.001951	22.7862	-36.4402	-163.645	0.002371	0.785859	-0.216589	-0.217927	0.012208	22.7862	-0.216990	-248.593	-4.910822E-5	NaN
330	1.000000	0.795166	7.3683e+06	-55139.1	955.817	-29742.6	0.000000	0.000000	6.795045	-0.020268	NaN	0.000000	0.001631	0.001696	28.0804	0.040292	0.001973	20.4189	-139.354	-163.014	-0.074007	0.793887	-0.208620	-0.209898	-0.020268	20.4189	-0.207875	-177.158	0.000114	NaN
330	1.000000	0.803181	7.3683e+06	-55139.1	955.818	-29742.6	0.000000	0.000000	6.803061	-0.000786	NaN	0.000000	0.001631	0.001690	28.0802	0.042107	0.002099	20.0588	-97.7699	-164.603	0.006071	0.801850	-0.200605	-0.201936	-0.000786	20.0588	-0.200575	-134.632	5.835630E-6	NaN
330	1.000000	0.811238	7.3683e+06	-55139.1	955.819	-29742.6	0.000000	0.000000	6.811116	-0.025255	NaN	0.000000	0.001653	0.001720	28.0802	0.089126	0.002051	43.4587	157.757	-165.248	-0.045231	0.809918	-0.192548	-0.193868	-0.025255	43.4587	-0.192112	-97.5541	0.000259	NaN
330	1.000000	0.819212	7.3683e+06	-55139.1	955.817	-29742.6	0.000000	0.000000	6.819092	-0.001254	NaN	0.000000	0.001626	0.001666	28.0804	0.018077	0.001812	9.973910	-83.3577	-166.115	0.077765	0.817848	-0.184573	-0.185938	-0.001254	9.973910	-0.184479	-72.6686	1.725202E-5	NaN
330	1.000000	0.827199	7.3683e+06	-55139.1	955.817	-29742.6	0.000000	0.000000	6.827078	1.332111E-5	NaN	0.000000	0.001637	0.001677	28.0803	0.097077	0.002007	48.3687	92.8663	-166.401	-0.021531	0.825873	-0.176587	-0.177912	1.332111E-5	48.3687	-0.176587	-53.3591	-2.496503E-7	NaN
330	1.000000	0.835184	7.3683e+06	-55139.1	955.818	-29742.6	0.000000	0.000000	6.835064	0.008671	NaN	0.000000	0.001665	0.001694	28.0803	0.102699	0.002044	50.2513	151.336	-164.682	-0.033546	0.833962	-0.168602	-0.169823	0.008671	50.2513	-0.168731	-39.0439	-0.000222	NaN
330	1.000000	0.843179	7.3683e+06	-55139.1	955.818	-29742.6	0.000000	0.000000	6.843056	-0.056292	NaN	0.000000	0.001624	0.001720	28.0801	0.104414	0.001992	52.4215	-42.0736	-165.109	-0.049801	0.841900	-0.160607	-0.161886	-0.056292	52.4215	-0.159801	-27.193	0.002070	NaN
330	1.000000	0.851217	7.3683e+06	-55139.1	955.818	-29742.6	0.000000	0.000000	6.851097	0.016734	NaN	0.000000	0.001668	0.001697	28.0801	0.036028	0.001956	18.4173	-141.985	-166.349	0.053730	0.849894	-0.152569	-0.153891	0.016734	18.4173	-0.153250	-20.7504	-0.000806	NaN
330	1.000000	0.859207	7.3683e+06	-55139.1	955.818	-29742.6	0.000000	0.000000	6.859087	0.016475	NaN	0.000000	0.001650	0.001712	28.0802	0.054996	0.002115	26.0039	24.6759	-165.259	0.046547	0.857886	-0.144579	-0.145899	0.016475	26.0039	-0.145054	-14.695	-0.001121	NaN
330	1.000000	0.867211	7.3683e+06	-55139.1	955.818	-29742.6	0.000000	0.000000	6.867088	-0.058385	NaN	0.000000	0.001630	0.001730	28.0801	0.100650	0.002032	49.5428	164.285	-163.617	-0.078679	0.865915	-0.136575	-0.137871	-0.058385	49.5428	-0.135691	-9.805287	0.005954	NaN
330	1.000000	0.875216	7.3683e+06	-55139.1	955.818	-29742.6	0.000000	0.000000	6.875094	-0.049207	NaN	0.000000	0.001596	0.001699	28.0801	0.059594	0.001986	30.0007	116.269	-164.452	-0.020783	0.873904	-0.128569	-0.129882	-0.049207	30.0007	-0.127339	-6.761974	0.007277	NaN
330	1.000000	0.883200	7.3683e+06	-55139.1	955.818	-29742.6	0.000000	0.000000	6.883079	-0.015901	NaN	0.000000	0.001689	0.001665	28.0814	0.147805	0.002075	71.234	41.1543	-165.819	-0.070990	0.881898	-0.120586	-0.121887	-0.015901	71.234	-0.120419	-4.926318	0.003228	NaN
330	1.000000	0.891224	7.3683e+06	-55139.1	955.819	-29742.6	0.000000	0.000000	6.891105	0.027506	NaN	0.000000	0.001657	0.001684	28.0813	0.147738	0.001843	80.1643	-158.139	-162.602	0.036853	0.889900	-0.112562	-0.113886	0.027506	80.1643	-0.112819	-3.442917	-0.007989	NaN
330	1.000000	0.899253	7.3683e+06	-55139.1	955.818	-29742.6	0.000000	0.000000	6.899135	0.053670	NaN	0.000000	0.001658	0.001705	28.0813	0.064299	0.002053	31.3186	36.8668	-164.385	0.005908	0.897867	-0.104532	-0.105919	0.053670	31.3186	-0.105818	-2.447932	-0.021925	NaN
330	1.000000	0.907206	7.3683e+06	-55139.1	955.818	-29742.6	0.000000	0.000000	6.907085	-0.015268	NaN	0.000000	0.001761	0.001705	28.0811	0.129837	0.001924	67.484	-82.543	-167.902	0.057708	0.905924	-0.096579	-0.097861	-0.015268	67.484	-0.096410	-1.518469	0.010055	NaN
330	1.000000	0.915269	7.3683e+06	-55139.1	955.819	-29742.6	0.000000	0.000000	6.915148	0.000572	NaN	0.000000	0.001732	0.001694	28.0812	0.055388	0.002111	26.2405	165.045	-162.999	0.025244	0.913925	-0.088517	-0.089861	0.000572	26.2405	-0.088533	-0.998277	-0.000573	NaN
330	1.000000	0.923255	7.3683e+06	-55139.1	955.818	-29742.6	0.000000	0.000000	6.923133	-0.029615	NaN	0.000000	0.001750	0.001664	28.0813	0.086629	0.001845	46.9467	35.4828	-165.525	-0.029134	0.921987	-0.080531	-0.081798	-0.029615	46.9467	-0.080058	-0.621053	0.047685	NaN
330	1.000000	0.931241	7.3683e+06	-55139.1	955.819	-29742.6	0.000000	0.000000	6.931121	-0.012834	NaN	0.000000	0.001767	0.001677	28.0815	0.053195	0.002033	26.1675	-20.7463	-164.527	-0.055214	0.929948	-0.072544	-0.073838	-0.012834	26.1675	-0.072176	-0.389716	0.032932	NaN
330	1.000000	0.939225	7.3683e+06	-55139.1	955.818	-29742.6	0.000000	0.000000	6.939104	-0.010743	NaN	0.000000	0.001740	0.001651	28.0813	0.114796	0.002034	56.4293	105.587	-162.693	0.019156	0.937963	-0.064561	-0.065823	-0.010743	56.4293	-0.064418	-0.240106	0.044742	NaN
330	1.000000	0.947217	7.3683e+06	-55139.1	955.818	-29742.6	0.000000	0.000000	6.947096	-0.016817	NaN	0.000000	0.001734	0.001684	28.0812	0.068850	0.002044	33.6761	-7.795500	-162.866	-0.067151	0.945921	-0.056569	-0.057864	-0.016817	33.6761	-0.056194	-0.139642	0.120428	NaN
330	1.000000	0.955259	7.3683e+06	-55139.1	955.818	-29742.6	0.000000	0.000000	6.955137	-0.042650	NaN	0.000000	0.001753	0.001672	28.0816	0.037077	0.001982	18.705	128.267	-163.359	-0.060737	0.953958	-0.048527	-0.049827	-0.042650	18.705	-0.046816	-0.073028	0.584031	NaN
330	1.000000	0.963224	7.3683e+06	-55139.1	955.817	-29742.6	0.000000	0.000000	6.963103	-0.028164	NaN	0.000000	0.001749	0.001672	28.082	0.007301	0.001865	3.914463	-0.045539	-165.53	-0.045907	0.961918	-0.040561	-0.041867	-0.028164	3.914463	-0.035165	-0.032385	0.869660	NaN
330	1.000000	0.971257	7.3683e+06	-55139.1	955.818	-29742.6	0.000000	0.000000	6.971138	0.023075	NaN	0.000000	0.001679	0.001675	28.0816	0.072216	0.001978	36.5161	101.82	-165.337	0.016780	0.969923	-0.032528	-0.033863	0.023075	36.5161	-0.033002	-0.028002	-0.824039	NaN
330	1.000000	0.979245	7.3683e+06	-55139.1	955.818	-29742.6	0.000000	0.000000	6.979125	0.002843	NaN	0.000000	0.001703	0.001649	28.0813	0.028755	0.001993	14.4284	-95.4199	-164.508	-0.009128	0.977919	-0.024540	-0.025866	0.002843	14.4284	-0.024688	-0.016557	-0.171715	NaN
330	1.000000	0.987228	7.3683e+06	-55139.1	955.818	-29742.6	0.000000	0.000000	6.987108	0.002521	NaN	0.000000	0.001666	0.001662	28.0815	0.038953	0.002067	18.8467	-54.7642	-166.925	-0.031847	0.985967	-0.016557	-0.017819	0.002521	18.8467	-0.016658	-0.010293	-0.244945	NaN
330	1.000000	0.995289	7.3683e+06	-55139.1	955.818	-29742.6	0.000000	0.000000	6.995168	-0.029427	NaN	0.000000	0.001640	0.001674	28.0816	0.069708	0.001934	36.0431	145.048	-167.256	-0.061341	0.993993	-0.008496	-0.009793	-0.029427	36.0431	-0.007884	-0.005164	5.698814	NaN
330	1.000000	1.003269	7.3683e+06	-55139.1	955.818	-29742.6	0.000000	0.000000	7.003146	-0.074172	NaN	0.000000	0.001650	0.001677	28.0813	0.015606	0.002033	7.676203	-16.3803	-165.053	-0.084359	1.001992	-0.000517	-0.001794	-0.074172	7.676203	0.006730	0.005769	-12.8579	92.3387
330	1.000000	1.011268	7.3683e+06	-55139.1	955.818	-29742.6	0.000000	0.000000	7.011294	3.539498	NaN	0.000000	0.001658	0.001678	28.0814	4.438847	0.001898	2338.42	12.0967	-169.391	2.090195	1.009975	0.007483	0.006189	3.539498	2338.42	0.006347	0.005397	655.835	29081.8
330	2.000000	1.016860	7.3683e+06	-55139.1	955.818	-29742.6	0.000000	0.000000	7.017121	9.252686	NaN	0.000000	0.001656	0.001688	28.0799	9.302101	0.001567	5934.72	7.074039	-173.191	8.664850	1.016539	0.013075	0.012753	9.252686	5934.72	0.011905	0.011377	813.297	50835.2
330	2.000000	1.018911	7.3683e+06	-55139.1	955.819	-29742.6	0.000000	0.000000	7.019323	12.9425	NaN	0.000000	0.001622	0.001701	28.08	11.2936	0.001716	6582.33	6.091165	-167.694	13.4648	1.018519	0.015125	0.014734	12.9425	6582.33	0.013650	0.013528	956.748	51706.3
330	2.000000	1.020821	7.3683e+06	-55139.1	955.818	-29742.6	0.000000	0.000000	7.021278	14.0327	NaN	0.000000	0.001637	0.001698	28.0803	13.3764	0.001678	7971.7	1.861131	-171.152	12.9572	1.020534	0.017036	0.016749	14.0327	7971.7	0.015716	0.016251	863.478	57131.9
330	2.000000	1.022799	7.3683e+06	-55139.1	955.818	-29742.6	0.000000	0.000000	7.023367	16.7419	NaN	0.000000	0.001633	0.001684	28.0798	16.6138	0.001713	9696.42	5.621084	-175.598	15.8587	1.022563	0.019013	0.018778	16.7419	9696.42	0.017719	0.019083	877.31	64129.6
330	2.000000	1.024794	7.3683e+06	-55139.1	955.819	-29742.6	0.000000	0.000000	7.025614	22.8638	NaN	0.000000	0.001611	0.001716	28.0797	18.4722	0.001718	10754.7	4.740942	-174.47	22.8805	1.024425	0.021008	0.020640	22.8638	10754.7	0.019414	0.021629	1057.07	66811.4
330	2.000000	1.026817	7.3683e+06	-55139.1	955.818	-29742.6	0.000000	0.000000	7.027796	26.717	NaN	0.000000	0.001616	0.001674	28.0798	21.6703	0.001834	11813.6	7.774116	-178.204	26.0064	1.026494	0.023032	0.022708	26.717	11813.6	0.021335	0.024684	1082.34	68697.8
330	2.000000	1.028855	7.3683e+06	-55139.1	955.819	-29742.6	0.000000	0.000000	7.030123	33.7422	NaN	0.000000	0.001639	0.001682	28.08	23.0185	0.001837	12532.6	6.372759	-175.449	34.4793	1.028390	0.025069	0.024605	33.7422	12532.6	0.023050	0.027564	1224.15	68967.6
330	2.000000	1.030755	7.3683e+06	-55139.1	955.818	-29742.6	0.000000	0.000000	7.032105	35.7225	NaN	0.000000	0.001613	0.001683	28.0807	24.987	0.001765	14154.6	5.875256	-176.316	36.259	1.030396	0.026970	0.026610	35.7225	14154.6	0.025077	0.031156	1146.58	73266.1
330	2.000000	1.032774	7.3683e+06	-55139.1	955.819	-29742.6	0.000000	0.000000	7.034237	38.4814	NaN	0.000000	0.001640	0.001691	28.0799	27.27	0.001729	15772.6	0.548735	-174.235	37.5173	1.032478	0.028989	0.028692	38.4814	15772.6	0.027159	0.035060	1097.58	76960.5
330	2.000000	1.034730	7.3683e+06	-55139.1	955.818	-29742.6	0.000000	0.000000	7.036532	46.729	NaN	0.000000	0.001658	0.001683	28.0803	29.4092	0.001696	17336.7	5.242503	-178.652	45.3383	1.034436	0.030945	0.030651	46.729	17336.7	0.028923	0.038542	1212.43	80681.4
330	2.000000	1.036719	7.3683e+06	-55139.1	955.819	-29742.6	0.000000	0.000000	7.038696	50.985	NaN	0.000000	0.001652	0.001726	28.08	31.4593	0.001730	18186.7	2.960562	-178.001	49.7041	1.036430	0.032934	0.032644	50.985	18186.7	0.030831	0.042484	1200.1	80614.8
330	2.000000	1.038820	7.3683e+06	-55139.1	955.819	-29742.6	0.000000	0.000000	7.041082	57.9112	NaN	0.000000	0.001644	0.001707	28.0798	33.9079	0.001778	19066.6	6.523268	179.477	59.3247	1.038391	0.035034	0.034605	57.9112	19066.6	0.032756	0.046650	1241.39	80653
330	2.000000	1.040705	7.3683e+06	-55139.1	955.82	-29742.6	0.000000	0.000000	7.043263	65.1152	NaN	0.000000	0.001624	0.001741	28.0808	35.866	0.001865	19231.5	5.211457	179.453	62.6003	1.040436	0.036919	0.036650	65.1152	19231.5	0.034380	0.050312	1294.23	78334.2
330	2.000000	1.042716	7.3683e+06	-55139.1	955.819	-29742.6	0.000000	0.000000	7.045248	64.4924	NaN	0.000000	0.001671	0.001732	28.08	37.1374	0.001674	22185.2	3.760655	179.795	62.6424	1.042513	0.038930	0.038727	64.4924	22185.2	0.036750	0.055899	1153.73	85730.5
330	2.000000	1.044760	7.3683e+06	-55139.1	955.819	-29742.6	0.000000	0.000000	7.047755	75.7361	NaN	0.000000	0.001668	0.001706	28.0799	38.6122	0.001754	22013.8	5.324877	179.555	74.1481	1.044378	0.040975	0.040592	75.7361	22013.8	0.038394	0.059945	1263.43	82147.1
330	2.000000	1.046745	7.3683e+06	-55139.1	955.818	-29742.6	0.000000	0.000000	7.050105	84.6006	NaN	0.000000	0.001645	0.001707	28.0799	41.2309	0.001788	23055	5.333128	178.211	85.8833	1.046380	0.042959	0.042594	84.6006	23055	0.040207	0.064565	1310.32	82897.1
330	2.000000	1.048771	7.3683e+06	-55139.1	955.818	-29742.6	0.000000	0.000000	7.052376	90.5493	NaN	0.000000	0.001647	0.001717	28.0798	42.9198	0.001824	23526.3	2.719074	-179.291	89.0561	1.048452	0.044986	0.044666	90.5493	23526.3	0.042099	0.069565	1301.65	81494.9
330	2.000000	1.050792	7.3683e+06	-55139.1	955.818	-29742.6	0.000000	0.000000	7.054691	97.6977	NaN	0.000000	0.001645	0.001740	28.0816	45.3341	0.001736	26117.5	4.933638	177.458	99.1366	1.050446	0.047007	0.046661	97.6977	26117.5	0.044201	0.075335	1296.84	86937.1
330	2.000000	1.052742	7.3683e+06	-55139.1	955.818	-29742.6	0.000000	0.000000	7.056880	103.527	NaN	0.000000	0.001670	0.001711	28.0812	48.5285	0.001870	25951.6	5.731300	176.721	103.235	1.052506	0.048956	0.048720	103.527	25951.6	0.045964	0.080348	1288.48	83646.9
330	2.000000	1.054775	7.3683e+06	-55139.1	955.819	-29742.6	0.000000	0.000000	7.059503	117.856	NaN	0.000000	0.001642	0.001690	28.0811	49.4654	0.001777	27836.5	8.862929	173.06	118.699	1.054404	0.050990	0.050619	117.856	27836.5	0.047814	0.085778	1373.98	86836.2
330	2.000000	1.056663	7.3683e+06	-55139.1	955.819	-29742.6	0.000000	0.000000	7.061690	125.134	NaN	0.000000	0.001663	0.001680	28.0812	50.9228	0.001751	29082	2.158567	179.601	120.807	1.056331	0.052878	0.052545	125.134	29082	0.049650	0.091336	1370.05	87918
330	2.000000	1.058803	7.3683e+06	-55139.1	955.818	-29742.6	0.000000	0.000000	7.064057	130.666	NaN	0.000000	0.001674	0.001696	28.0809	53.5369	0.001785	29986.6	3.063651	178.677	133.098	1.058459	0.055017	0.054673	130.666	29986.6	0.051749	0.097895	1334.75	87562.8
330	2.000000	1.060734	7.3683e+06	-55139.1	955.819	-29742.6	0.000000	0.000000	7.066446	141.763	NaN	0.000000	0.001698	0.001707	28.0813	55.0348	0.001804	30512.3	3.678904	177.408	142.398	1.060473	0.056949	0.056688	141.763	30512.3	0.053464	0.103421	1370.74	86685
330	2.000000	1.062715	7.3683e+06	-55139.1	955.818	-29742.6	0.000000	0.000000	7.068847	151.986	NaN	0.000000	0.001675	0.001681	28.0812	57.0923	0.001648	34637.6	2.854103	176.502	149.435	1.062437	0.058929	0.058652	151.986	34637.6	0.055639	0.110635	1373.76	95142.5
330	2.000000	1.064756	7.3683e+06	-55139.1	955.819	-29742.6	0.000000	0.000000	7.071242	160.586	NaN	0.000000	0.001648	0.001663	28.0813	59.0884	0.001799	32848.3	8.548899	171.7	162.22	1.064499	0.060971	0.060713	160.586	32848.3	0.057304	0.116319	1380.56	87995.4
330	2.000000	1.066736	7.3683e+06	-55139.1	955.818	-29742.6	0.000000	0.000000	7.073557	168.753	NaN	0.000000	0.001711	0.001662	28.0815	62.2147	0.001799	34573.5	7.418429	172.103	170.761	1.066421	0.062950	0.062636	168.753	34573.5	0.059289	0.123272	1368.94	89967
330	2.000000	1.068816	7.3683e+06	-55139.1	955.819	-29742.6	0.000000	0.000000	7.076093	179.823	NaN	0.000000	0.001673	0.001678	28.0809	62.8613	0.001637	38395.2	5.100649	174	183.805	1.068382	0.065030	0.064596	179.823	38395.2	0.061517	0.131306	1369.5	96807.5
330	2.000000	1.070724	7.3683e+06	-55139.1	955.818	-29742.6	0.000000	0.000000	7.078751	198.038	NaN	0.000000	0.001677	0.001706	28.0814	63.8612	0.001648	38745.3	2.610597	176.489	198.064	1.070414	0.066939	0.066629	198.038	38745.3	0.063105	0.137179	1443.65	95575.9
330	2.000000	1.072703	7.3683e+06	-55139.1	955.818	-29742.6	0.000000	0.000000	7.081029	205.317	NaN	0.000000	0.001661	0.001672	28.081	67.0273	0.001677	39972	4.689028	174.724	204.73	1.072339	0.068918	0.068554	205.317	39972	0.065066	0.144597	1419.93	96039.6
330	2.000000	1.074723	7.3683e+06	-55139.1	955.818	-29742.6	0.000000	0.000000	7.083511	216.558	NaN	0.000000	0.001660	0.001678	28.0809	68.297	0.001650	41379.8	8.009583	170.983	216.885	1.074294	0.070938	0.070508	216.558	41379.8	0.067012	0.152148	1423.34	96923.3
330	2.000000	1.076637	7.3683e+06	-55139.1	955.818	-29742.6	0.000000	0.000000	7.086020	230.999	NaN	0.000000	0.001687	0.001654	28.0812	71.5464	0.001921	37243.4	4.187588	175.455	226.906	1.076269	0.072852	0.072483	230.999	37243.4	0.068200	0.156843	1472.8	85919.2
330	2.000000	1.078629	7.3683e+06	-55139.1	955.818	-29742.6	0.000000	0.000000	7.088527	243.523	NaN	0.000000	0.001700	0.001659	28.081	73.2477	0.001781	41138.4	6.019757	172.738	238.955	1.078324	0.074844	0.074538	243.523	41138.4	0.070404	0.165735	1469.35	92323.6
330	2.000000	1.080701	7.3683e+06	-55139.1	955.818	-29742.6	0.000000	0.000000	7.091169	257.384	NaN	0.000000	0.001680	0.001675	28.0814	74.2365	0.001798	41278.6	2.153225	177.554	256.297	1.080245	0.076916	0.076460	257.384	41278.6	0.072239	0.173317	1485.05	90589.5
330	2.000000	1.082668	7.3683e+06	-55139.1	955.817	-29742.6	0.000000	0.000000	7.093491	266.027	NaN	0.000000	0.001662	0.001674	28.081	78.5208	0.001824	43047.2	6.770939	171.679	263.747	1.082347	0.078883	0.078561	266.027	43047.2	0.074248	0.181795	1463.33	92241.6
330	2.000000	1.084612	7.3683e+06	-55139.1	955.818	-29742.6	0.000000	0.000000	7.096217	285.019	NaN	0.000000	0.001676	0.001666	28.0798	78.3244	0.001691	46322.7	4.620562	173.88	279.742	1.084260	0.080827	0.080474	285.019	46322.7	0.076212	0.190272	1497.95	97024.1
330	2.000000	1.086657	7.3683e+06	-55139.1	955.818	-29742.6	0.000000	0.000000	7.098445	289.472	NaN	0.000000	0.001672	0.001700	28.0797	82.0106	0.001737	47212.9	5.831254	171.445	287.11	1.086450	0.082871	0.082664	289.472	47212.9	0.078273	0.199360	1452	96608.3
330	2.000000	1.088606	7.3683e+06	-55139.1	955.817	-29742.6	0.000000	0.000000	7.101304	311.604	NaN	0.000000	0.001661	0.001663	28.0798	84.1715	0.001718	48993.4	5.838628	171.782	303.586	1.088275	0.084821	0.084489	311.604	48993.4	0.080051	0.207359	1502.73	98299.1
330	2.000000	1.090707	7.3683e+06	-55139.1	955.818	-29742.6	0.000000	0.000000	7.103781	320.741	NaN	0.000000	0.001646	0.001704	28.0804	86.7215	0.001831	47369.4	6.287163	171.322	322.602	1.090351	0.086922	0.086565	320.741	47369.4	0.081843	0.215573	1487.85	93212.4
330	2.000000	1.092656	7.3683e+06	-55139.1	955.819	-29742.6	0.000000	0.000000	7.106436	337.9	NaN	0.000000	0.001674	0.001691	28.0799	88.9709	0.001836	48460	6.639292	171.069	335.237	1.092427	0.088871	0.088641	337.9	48460	0.083641	0.223961	1508.75	93555.8
330	2.000000	1.094764	7.3683e+06	-55139.1	955.818	-29742.6	0.000000	0.000000	7.109133	352.222	NaN	0.000000	0.001676	0.001661	28.0799	90.5184	0.001839	49215.7	5.916466	171.487	355.937	1.094342	0.090979	0.090557	352.222	49215.7	0.085611	0.233326	1509.57	93088.3
330	2.000000	1.096698	7.3683e+06	-55139.1	955.818	-29742.6	0.000000	0.000000	7.111787	369.723	NaN	0.000000	0.001655	0.001686	28.0799	92.6724	0.001779	52091.1	6.307751	170.673	370.845	1.096341	0.092912	0.092556	369.723	52091.1	0.087589	0.242907	1522.08	96564.3
330	2.000000	1.098679	7.3683e+06	-55139.1	955.818	-29742.6	0.000000	0.000000	7.114506	387.651	NaN	0.000000	0.001668	0.001656	28.0797	94.0083	0.001832	51301.9	1.734024	175.742	384.688	1.098327	0.094894	0.094541	387.651	51301.9	0.089226	0.250975	1544.58	93560.4
330	2.000000	1.100656	7.3683e+06	-55139.1	955.818	-29742.6	0.000000	0.000000	7.117320	408.02	NaN	0.000000	0.001644	0.001711	28.0801	96.774	0.001819	53215.9	6.105979	171.43	405.727	1.100212	0.096870	0.096426	408.02	53215.9	0.091120	0.260456	1566.56	95268.1
330	2.000000	1.102683	7.3683e+06	-55139.1	955.819	-29742.6	0.000000	0.000000	7.119730	417.315	NaN	0.000000	0.001646	0.001668	28.0798	99.1012	0.001837	53943.4	6.441298	170.796	416.714	1.102345	0.098898	0.098560	417.315	53943.4	0.093096	0.270528	1542.59	94755.7
330	2.000000	1.104631	7.3683e+06	-55139.1	955.819	-29742.6	0.000000	0.000000	7.122402	434.909	NaN	0.000000	0.001610	0.001675	28.08	99.47	0.001638	60723.3	5.096157	170.743	433.066	1.104359	0.100846	0.100574	434.909	60723.3	0.095474	0.282889	1537.39	104309
330	2.000000	1.106557	7.3683e+06	-55139.1	955.819	-29742.6	0.000000	0.000000	7.124653	442.835	NaN	0.000000	0.001670	0.001673	28.0798	102.038	0.001733	58875.2	3.629644	172.269	436.563	1.106352	0.102771	0.102566	442.835	58875.2	0.097130	0.291644	1518.41	99604.5
330	2.000000	1.108739	7.3683e+06	-55139.1	955.817	-29742.6	0.000000	0.000000	7.127987	470.822	NaN	0.000000	0.001689	0.001714	28.0798	104.644	0.001810	57811.7	4.181268	172.626	473.903	1.108378	0.104953	0.104593	470.822	57811.7	0.098845	0.300849	1564.98	96297.5
330	2.000000	1.110574	7.3683e+06	-55139.1	955.819	-29742.6	0.000000	0.000000	7.130670	491.434	NaN	0.000000	0.001648	0.001722	28.08	105.572	0.001723	61284.9	5.492133	170.802	487.101	1.110187	0.106789	0.106401	491.434	61284.9	0.100775	0.311359	1578.35	100345
330	2.000000	1.112589	7.3683e+06	-55139.1	955.82	-29742.6	0.000000	0.000000	7.133300	506.38	NaN	0.000000	0.001663	0.001748	28.0799	108.511	0.001734	62588.8	4.817271	170.971	502.167	1.112360	0.108804	0.108574	506.38	62588.8	0.102736	0.322218	1571.55	100738
330	2.000000	1.114657	7.3683e+06	-55139.1	955.819	-29742.6	0.000000	0.000000	7.136159	525.631	NaN	0.000000	0.001744	0.001735	28.0805	109.915	0.001778	61822	6.731762	169.691	523.751	1.114265	0.110871	0.110479	525.631	61822	0.104495	0.332104	1582.73	98012