File: remote_trans/data/nanoindenter/0828-1/data/Data_2025-08-06,11h17m57s/2025-07-22_16-23-58_1_786.txt
2025-07-22, 16:23:58, 1
Index	Phase	Displacement	Time	Pos X	Pos Y	Pos Z	Rot A	Rot B	Piezo Z	Force A	Force B	Gripper	Voltage A	Voltage B	Temperature	Amplitude force	Amplitude pos	Stiffness	Phase shift	Phase excitation	Force A raw	Displacement raw	HMax	HMax raw	Real Force	Real Stiffness	Contact Depth	Area	Hardness	Reduced Mod.
[#]	[#]	[um]	[s]	[um]	[um]	[um]	[m°]	[m°]	[um]	[uN]	[uN]	[V]	[V]	[V]	[°C]	[uN]	[um]	[N/m]	[°]	[°]	[uN]	[um]	[um]	[um]	[uN]	[N/m]	[um]	[um^2]	[MPa]	[MPa]
786	1.000000	0.002728	7.37274e+06	-39439.1	1055.82	-29793.2	0.000000	0.000000	6.002820	0.017730	NaN	0.000000	0.001599	0.001690	28.0806	0.111080	0.001027	108.166	-99.7081	-162.48	0.089004	0.001392	-1.753488	-1.754824	0.017730	108.166	-1.753611	-2.620642E+23	-6.765652E-26	NaN
786	1.000000	0.014686	7.37274e+06	-39439.1	1055.82	-29793.2	0.000000	0.000000	6.014781	0.081225	NaN	0.000000	0.001597	0.001708	28.0805	0.074026	0.001675	44.2048	-150.547	-164.4	0.044394	0.013509	-1.741529	-1.742706	0.081225	44.2048	-1.742907	-1.889253E+23	-4.299303E-25	NaN
786	1.000000	0.026680	7.37274e+06	-39439.1	1055.82	-29793.2	0.000000	0.000000	6.026771	-0.014024	NaN	0.000000	0.001622	0.001693	28.0806	0.137067	0.001880	72.9109	-49.2008	-165.652	-0.004316	0.025343	-1.729535	-1.730872	-0.014024	72.9109	-1.729391	-1.249721E+23	1.122182E-25	NaN
786	1.000000	0.038657	7.37274e+06	-39439.1	1055.82	-29793.2	0.000000	0.000000	6.038747	-0.022418	NaN	0.000000	0.001571	0.001676	28.0808	0.038688	0.001878	20.6007	121.959	-158.969	-0.064636	0.037366	-1.717559	-1.718849	-0.022418	20.6007	-1.716743	-8.488474E+22	2.641021E-25	NaN
786	1.000000	0.050651	7.37274e+06	-39439.1	1055.82	-29793.2	0.000000	0.000000	6.050745	0.068486	NaN	0.000000	0.001580	0.001727	28.0808	0.096897	0.001926	50.3134	48.4815	-165.469	0.000853	0.049339	-1.705565	-1.706876	0.068486	50.3134	-1.706586	-6.221865E+22	-1.100731E-24	NaN
786	1.000000	0.062666	7.37274e+06	-39439.1	1055.82	-29793.2	0.000000	0.000000	6.062755	-0.072948	NaN	0.000000	0.001627	0.001693	28.0808	0.078401	0.001984	39.5256	-119.668	-165.111	-0.063081	0.061363	-1.693549	-1.694852	-0.072948	39.5256	-1.692165	-4.002707E+22	1.822467E-24	NaN
786	1.000000	0.074674	7.37274e+06	-39439.1	1055.82	-29793.2	0.000000	0.000000	6.074767	0.030411	NaN	0.000000	0.001620	0.001725	28.0808	0.128306	0.002051	62.5698	-109.88	-164.008	-0.051651	0.073352	-1.681542	-1.682864	0.030411	62.5698	-1.681906	-2.924488E+22	-1.039884E-24	NaN
786	1.000000	0.086685	7.37274e+06	-39439.1	1055.82	-29793.2	0.000000	0.000000	6.086775	-0.038381	NaN	0.000000	0.001585	0.001742	28.0808	0.115151	0.002031	56.7081	60.2009	-166.809	-0.047311	0.085369	-1.669530	-1.670846	-0.038381	56.7081	-1.669022	-1.971742E+22	1.946540E-24	NaN
786	1.000000	0.098662	7.37274e+06	-39439.1	1055.82	-29793.2	0.000000	0.000000	6.098750	-0.086900	NaN	0.000000	0.001619	0.001704	28.082	0.035622	0.002040	17.4624	133.294	-162.056	-0.023319	0.097326	-1.657554	-1.658889	-0.086900	17.4624	-1.653821	-1.238289E+22	7.017748E-24	NaN
786	1.000000	0.110667	7.37274e+06	-39439.1	1055.82	-29793.2	0.000000	0.000000	6.110760	0.030196	NaN	0.000000	0.001566	0.001704	28.0824	0.083465	0.001863	44.8088	-54.5237	-166.505	-0.039208	0.109338	-1.645548	-1.646877	0.030196	44.8088	-1.646054	-9.762847E+21	-3.092959E-24	NaN
786	1.000000	0.122704	7.37274e+06	-39439.1	1055.82	-29793.2	0.000000	0.000000	6.122796	-0.002599	NaN	0.000000	0.001618	0.001640	28.0824	0.077543	0.001933	40.1165	108.649	-166.162	-0.057858	0.121382	-1.633511	-1.634833	-0.002599	40.1165	-1.633462	-6.640342E+21	3.914069E-25	NaN
786	1.000000	0.134686	7.37274e+06	-39439.1	1055.82	-29793.2	0.000000	0.000000	6.134780	0.056024	NaN	0.000000	0.001642	0.001684	28.0822	0.074479	0.002030	36.6819	67.0161	-164.205	0.052875	0.133293	-1.621530	-1.622922	0.056024	36.6819	-1.622675	-4.772734E+21	-1.173824E-23	NaN
786	1.000000	0.146687	7.37274e+06	-39439.1	1055.82	-29793.2	0.000000	0.000000	6.146776	-0.062531	NaN	0.000000	0.001610	0.001688	28.0822	0.074930	0.001897	39.4973	-129.979	-167.047	-0.081243	0.145397	-1.609528	-1.610819	-0.062531	39.4973	-1.608341	-3.077191E+21	2.032085E-23	NaN
786	1.000000	0.158708	7.37274e+06	-39439.1	1055.82	-29793.2	0.000000	0.000000	6.158798	-0.037388	NaN	0.000000	0.001584	0.001726	28.0827	0.118479	0.001950	60.7646	-122.172	-164.56	-0.004525	0.157454	-1.597507	-1.598762	-0.037388	60.7646	-1.597046	-2.177388E+21	1.717118E-23	NaN
786	1.000000	0.170720	7.37274e+06	-39439.1	1055.82	-29793.2	0.000000	0.000000	6.170809	-0.046137	NaN	0.000000	0.001556	0.001689	28.0822	0.033188	0.002033	16.3278	70.6817	-165.877	0.044756	0.169395	-1.585496	-1.586821	-0.046137	16.3278	-1.583376	-1.432527E+21	3.220643E-23	NaN
786	1.000000	0.182708	7.37274e+06	-39439.1	1055.82	-29793.2	0.000000	0.000000	6.182801	0.033475	NaN	0.000000	0.001616	0.001680	28.0825	0.155270	0.001984	78.2757	-161.14	-165.4	0.020212	0.181438	-1.573507	-1.574777	0.033475	78.2757	-1.573828	-1.069219E+21	-3.130759E-23	NaN
786	1.000000	0.194718	7.37274e+06	-39439.1	1055.82	-29793.2	0.000000	0.000000	6.194809	-0.019719	NaN	0.000000	0.001608	0.001715	28.0824	0.071639	0.001918	37.3582	28.887	-164.02	0.041761	0.193395	-1.561497	-1.562821	-0.019719	37.3582	-1.561101	-7.239825E+20	2.723638E-23	NaN
786	1.000000	0.206746	7.37274e+06	-39439.1	1055.82	-29793.2	0.000000	0.000000	6.206836	-0.030516	NaN	0.000000	0.001595	0.001699	28.0823	0.079538	0.002063	38.5471	108.034	-161.419	-0.004279	0.205379	-1.549470	-1.550836	-0.030516	38.5471	-1.548876	-4.977759E+20	6.130554E-23	NaN
786	1.000000	0.218741	7.37274e+06	-39439.1	1055.82	-29793.2	0.000000	0.000000	6.218832	-0.018344	NaN	0.000000	0.001623	0.001713	28.082	0.017289	0.001853	9.331945	32.521	-165.344	0.016002	0.217356	-1.537474	-1.538859	-0.018344	9.331945	-1.536000	-3.354685E+20	5.468101E-23	NaN
786	1.000000	0.230700	7.37274e+06	-39439.1	1055.82	-29793.2	0.000000	0.000000	6.230791	-0.009533	NaN	0.000000	0.001610	0.001732	28.0819	0.066940	0.001975	33.8887	143.118	-163.99	-0.054569	0.229408	-1.525515	-1.526807	-0.009533	33.8887	-1.525304	-2.416926E+20	3.944102E-23	NaN
786	1.000000	0.242734	7.37274e+06	-39439.1	1055.82	-29793.2	0.000000	0.000000	6.242824	-0.040596	NaN	0.000000	0.001627	0.001697	28.081	0.126429	0.001883	67.1489	-79.3671	-163.391	0.006663	0.241426	-1.513481	-1.514789	-0.040596	67.1489	-1.513028	-1.658832E+20	2.447269E-22	NaN
786	1.000000	0.254751	7.37274e+06	-39439.1	1055.82	-29793.2	0.000000	0.000000	6.254842	-0.002646	NaN	0.000000	0.001620	0.001715	28.081	0.021461	0.001954	10.9804	54.4304	-164.2	-0.041305	0.253410	-1.501465	-1.502805	-0.002646	10.9804	-1.501284	-1.157215E+20	2.286258E-23	NaN
786	1.000000	0.266740	7.37274e+06	-39439.1	1055.82	-29793.2	0.000000	0.000000	6.266832	0.001859	NaN	0.000000	0.001605	0.001736	28.0812	0.024631	0.002081	11.8362	-18.2508	-165.964	-0.032674	0.265438	-1.489475	-1.490777	0.001859	11.8362	-1.489593	-8.085386E+19	-2.298613E-23	NaN
786	1.000000	0.278752	7.37274e+06	-39439.1	1055.82	-29793.2	0.000000	0.000000	6.278845	0.034968	NaN	0.000000	0.001591	0.001692	28.0809	0.081767	0.001949	41.9499	50.3994	-165.058	0.019162	0.277412	-1.477463	-1.478803	0.034968	41.9499	-1.478088	-5.681193E+19	-6.155099E-22	NaN
786	1.000000	0.290747	7.37274e+06	-39439.1	1055.82	-29793.2	0.000000	0.000000	6.290838	-0.009617	NaN	0.000000	0.001639	0.001710	28.081	0.068553	0.002059	33.2898	101.339	-165.31	0.017480	0.289440	-1.465468	-1.466776	-0.009617	33.2898	-1.465251	-3.831779E+19	2.509726E-22	NaN
786	1.000000	0.302758	7.37274e+06	-39439.1	1055.82	-29793.2	0.000000	0.000000	6.302851	0.027852	NaN	0.000000	0.001587	0.001732	28.0809	0.119487	0.002003	59.6612	35.865	-164.593	0.027006	0.301438	-1.453457	-1.454777	0.027852	59.6612	-1.453807	-2.697068E+19	-1.032691E-21	NaN
786	1.000000	0.314773	7.37274e+06	-39439.1	1055.82	-29793.2	0.000000	0.000000	6.314863	-0.026463	NaN	0.000000	0.001614	0.001704	28.0808	0.082755	0.002079	39.7981	-65.1926	-166.691	0.118757	0.313433	-1.441443	-1.442782	-0.026463	39.7981	-1.440944	-1.817353E+19	1.456149E-21	NaN
786	1.000000	0.326743	7.37274e+06	-39439.1	1055.82	-29793.2	0.000000	0.000000	6.326832	-0.067529	NaN	0.000000	0.001607	0.001687	28.0811	0.089335	0.002044	43.7165	-133.74	-165.925	0.000838	0.325465	-1.429472	-1.430750	-0.067529	43.7165	-1.428314	-1.233270E+19	5.475629E-21	NaN
786	1.000000	0.338773	7.37274e+06	-39439.1	1055.82	-29793.2	0.000000	0.000000	6.338864	-0.010570	NaN	0.000000	0.001588	0.001759	28.081	0.055518	0.001945	28.5436	-19.0545	-164.922	-0.011237	0.337477	-1.417443	-1.418738	-0.010570	28.5436	-1.417165	-8.757855E+18	1.206909E-21	NaN
786	1.000000	0.350794	7.37274e+06	-39439.1	1055.82	-29793.2	0.000000	0.000000	6.350887	0.035813	NaN	0.000000	0.001626	0.001771	28.081	0.007742	0.001957	3.956954	79.5949	-162.063	0.061239	0.349462	-1.405421	-1.406753	0.035813	3.956954	-1.412209	-7.521521E+18	-4.761432E-21	NaN
786	1.000000	0.362778	7.37274e+06	-39439.1	1055.82	-29793.2	0.000000	0.000000	6.362870	0.000999	NaN	0.000000	0.001576	0.001732	28.081	0.106813	0.002020	52.8857	164.098	-166.039	-0.037320	0.361510	-1.393437	-1.394705	0.000999	52.8857	-1.393451	-4.227724E+18	-2.362081E-22	NaN
786	1.000000	0.374784	7.37274e+06	-39439.1	1055.82	-29793.2	0.000000	0.000000	6.374875	-0.010709	NaN	0.000000	0.001606	0.001748	28.0822	0.060699	0.002102	28.8724	33.1437	-164.452	0.014275	0.373402	-1.381431	-1.382813	-0.010709	28.8724	-1.381153	-2.897534E+18	3.695867E-21	NaN
786	1.000000	0.386774	7.37274e+06	-39439.1	1055.82	-29793.2	0.000000	0.000000	6.386869	0.079111	NaN	0.000000	0.001617	0.001714	28.0822	0.044148	0.002062	21.4091	117.887	-166.043	0.098379	0.385495	-1.369442	-1.370721	0.079111	21.4091	-1.372213	-2.201548E+18	-3.593444E-20	NaN
786	1.000000	0.398803	7.37274e+06	-39439.1	1055.82	-29793.2	0.000000	0.000000	6.398895	-0.005302	NaN	0.000000	0.001605	0.001737	28.082	0.090312	0.002080	43.4263	26.8168	-163.977	-0.057599	0.397474	-1.357412	-1.358741	-0.005302	43.4263	-1.357320	-1.393009E+18	3.806106E-21	NaN
786	1.000000	0.410829	7.37274e+06	-39439.1	1055.82	-29793.2	0.000000	0.000000	6.410923	0.036175	NaN	0.000000	0.001590	0.001745	28.0819	0.045519	0.001878	24.2332	-2.713625	-162.874	0.060882	0.409520	-1.345386	-1.346695	0.036175	24.2332	-1.346506	-9.990215E+17	-3.621033E-20	NaN
786	1.000000	0.422814	7.37274e+06	-39439.1	1055.82	-29793.2	0.000000	0.000000	6.422907	0.029079	NaN	0.000000	0.001581	0.001786	28.0818	0.090766	0.001985	45.7233	133.784	-164.615	0.055495	0.421542	-1.333401	-1.334674	0.029079	45.7233	-1.333878	-6.775903E+17	-4.291527E-20	NaN
786	1.000000	0.434824	7.37274e+06	-39439.1	1055.82	-29793.2	0.000000	0.000000	6.434916	-0.011196	NaN	0.000000	0.001595	0.001758	28.0819	0.016328	0.002034	8.027815	-98.3455	-165.36	0.027826	0.433528	-1.321391	-1.322687	-0.011196	8.027815	-1.320345	-4.468999E+17	2.505330E-20	NaN
786	1.000000	0.446831	7.37274e+06	-39439.1	1055.82	-29793.2	0.000000	0.000000	6.446920	-0.049154	NaN	0.000000	0.001601	0.001762	28.0819	0.128258	0.001927	66.5572	-113.009	-161.609	-0.006671	0.445500	-1.309385	-1.310715	-0.049154	66.5572	-1.308831	-3.136117E+17	1.567354E-19	NaN
786	1.000000	0.458829	7.37274e+06	-39439.1	1055.82	-29793.2	0.000000	0.000000	6.458923	0.045067	NaN	0.000000	0.001591	0.001777	28.0821	0.067598	0.002039	33.1472	-96.6146	-164.752	0.060342	0.457478	-1.297386	-1.298737	0.045067	33.1472	-1.298406	-2.275578E+17	-1.980453E-19	NaN
786	1.000000	0.470816	7.37274e+06	-39439.1	1055.82	-29793.2	0.000000	0.000000	6.470906	-0.047852	NaN	0.000000	0.001590	0.001767	28.0823	0.129397	0.001849	69.9919	38.0647	-167.615	-0.000620	0.469557	-1.285399	-1.286658	-0.047852	69.9919	-1.284886	-1.501083E+17	3.187835E-19	NaN
786	1.000000	0.482823	7.37274e+06	-39439.1	1055.82	-29793.2	0.000000	0.000000	6.482913	-0.051429	NaN	0.000000	0.001572	0.001769	28.0819	0.086348	0.002105	41.0301	26.6429	-166.292	-0.035079	0.481536	-1.273392	-1.274679	-0.051429	41.0301	-1.272452	-1.023700E+17	5.023846E-19	NaN
786	1.000000	0.494866	7.37274e+06	-39439.1	1055.82	-29793.2	0.000000	0.000000	6.494956	-0.039923	NaN	0.000000	0.001579	0.001744	28.082	0.156822	0.001980	79.2177	75.3533	-163.229	0.031851	0.493518	-1.261349	-1.262697	-0.039923	79.2177	-1.260971	-7.188777E+16	5.553550E-19	NaN
786	1.000000	0.506841	7.37274e+06	-39439.1	1055.82	-29793.2	0.000000	0.000000	6.506931	-0.035165	NaN	0.000000	0.001572	0.001751	28.0808	0.126986	0.002027	62.646	-166.927	-161.574	-0.007966	0.505555	-1.249374	-1.250660	-0.035165	62.646	-1.248953	-4.964996E+16	7.082596E-19	NaN
786	1.000000	0.518853	7.37274e+06	-39439.1	1055.82	-29793.2	0.000000	0.000000	6.518944	-0.016613	NaN	0.000000	0.001592	0.001776	28.0804	0.058936	0.002009	29.3387	42.2896	-165.003	0.032700	0.517527	-1.237362	-1.238689	-0.016613	29.3387	-1.236938	-3.429021E+16	4.844703E-19	NaN
786	1.000000	0.530874	7.37274e+06	-39439.1	1055.82	-29793.2	0.000000	0.000000	6.530959	-0.138241	NaN	0.000000	0.001529	0.001753	28.0809	0.138077	0.002074	66.5807	-75.2206	-163.17	-0.115927	0.529599	-1.225342	-1.226616	-0.138241	66.5807	-1.223785	-2.286431E+16	6.046156E-18	NaN
786	1.000000	0.542863	7.37274e+06	-39439.1	1055.82	-29793.2	0.000000	0.000000	6.542953	-0.036444	NaN	0.000000	0.001558	0.001751	28.081	0.032701	0.001951	16.7587	81.8285	-162.921	-0.043096	0.541561	-1.213352	-1.214655	-0.036444	16.7587	-1.211721	-1.576471E+16	2.311720E-18	NaN
786	1.000000	0.554881	7.37274e+06	-39439.1	1055.82	-29793.2	0.000000	0.000000	6.554971	-0.036101	NaN	0.000000	0.001590	0.001785	28.0812	0.060515	0.001971	30.7069	-13.7122	-162.759	0.047815	0.553519	-1.201335	-1.202696	-0.036101	30.7069	-1.200453	-1.113815E+16	3.241238E-18	NaN
786	1.000000	0.566850	7.37274e+06	-39439.1	1055.82	-29793.2	0.000000	0.000000	6.566941	-0.024111	NaN	0.000000	0.001574	0.001765	28.0807	0.050666	0.002004	25.2827	-104.579	-166.51	-0.064317	0.565547	-1.189365	-1.190668	-0.024111	25.2827	-1.188650	-7.740017E+15	3.115051E-18	NaN
786	1.000000	0.578890	7.37274e+06	-39439.1	1055.82	-29793.2	0.000000	0.000000	6.578979	-0.041992	NaN	0.000000	0.001579	0.001763	28.0808	0.059962	0.002062	29.0747	-123.95	-165.062	-0.029521	0.577600	-1.177326	-1.178615	-0.041992	29.0747	-1.176243	-5.278753E+15	7.954816E-18	NaN
786	1.000000	0.590889	7.37274e+06	-39439.1	1055.82	-29793.2	0.000000	0.000000	6.590981	-0.000246	NaN	0.000000	0.001572	0.001777	28.0808	0.107063	0.002047	52.2903	-34.4415	-161.481	-0.043439	0.589534	-1.165326	-1.166681	-0.000246	52.2903	-1.165323	-3.768834E+15	6.532345E-20	NaN
786	1.000000	0.602877	7.37274e+06	-39439.1	1055.82	-29793.2	0.000000	0.000000	6.602967	-0.059629	NaN	0.000000	0.001622	0.001740	28.0808	0.120725	0.001953	61.8258	-165.634	-160.458	-0.094511	0.601548	-1.153338	-1.154667	-0.059629	61.8258	-1.152614	-2.546067E+15	2.342001E-17	NaN
786	1.000000	0.614883	7.37274e+06	-39439.1	1055.82	-29793.2	0.000000	0.000000	6.614973	-0.054550	NaN	0.000000	0.001657	0.001795	28.0812	0.062037	0.001925	32.2352	-145.17	-163.981	-0.019765	0.613559	-1.141332	-1.142657	-0.054550	32.2352	-1.140063	-1.728144E+15	3.156591E-17	NaN
786	1.000000	0.626893	7.37274e+06	-39439.1	1055.82	-29793.2	0.000000	0.000000	6.626985	0.021921	NaN	0.000000	0.001642	0.001750	28.0805	0.053179	0.001912	27.8188	-40.0616	-166.397	0.023142	0.625595	-1.129323	-1.130620	0.021921	27.8188	-1.129914	-1.263173E+15	-1.735377E-17	NaN
786	1.000000	0.638897	7.37274e+06	-39439.1	1055.82	-29793.2	0.000000	0.000000	6.638987	-0.023148	NaN	0.000000	0.001647	0.001726	28.0811	0.013235	0.002010	6.583781	-111.112	-165.681	0.006755	0.637602	-1.117319	-1.118613	-0.023148	6.583781	-1.114682	-7.890668E+14	2.933534E-17	NaN
786	1.000000	0.650884	7.37274e+06	-39439.1	1055.82	-29793.2	0.000000	0.000000	6.650975	-0.017626	NaN	0.000000	0.001654	0.001821	28.0823	0.032750	0.001878	17.4417	36.447	-166.76	0.051122	0.649623	-1.105331	-1.106592	-0.017626	17.4417	-1.104573	-5.773637E+14	3.052835E-17	NaN
786	1.000000	0.662905	7.37274e+06	-39439.1	1055.82	-29793.2	0.000000	0.000000	6.662997	0.001362	NaN	0.000000	0.001629	0.001761	28.0821	0.016975	0.001904	8.914031	-49.1928	-167.414	0.015373	0.661585	-1.093310	-1.094631	0.001362	8.914031	-1.093424	-4.090646E+14	-3.330689E-18	NaN
786	1.000000	0.674917	7.37274e+06	-39439.1	1055.82	-29793.2	0.000000	0.000000	6.675011	0.037053	NaN	0.000000	0.001643	0.001787	28.0821	0.087927	0.002028	43.3665	142.612	-164.337	0.033661	0.673617	-1.081298	-1.082598	0.037053	43.3665	-1.081939	-2.867854E+14	-1.292013E-16	NaN
786	1.000000	0.686920	7.37274e+06	-39439.1	1055.82	-29793.2	0.000000	0.000000	6.687011	-0.020082	NaN	0.000000	0.001655	0.001727	28.0821	0.063479	0.002027	31.3116	115.01	-165.383	-0.014695	0.685624	-1.069296	-1.070591	-0.020082	31.3116	-1.068815	-1.911006E+14	1.050869E-16	NaN
786	1.000000	0.698935	7.37274e+06	-39439.1	1055.82	-29793.2	0.000000	0.000000	6.699025	-0.038000	NaN	0.000000	0.001612	0.001765	28.0823	0.063158	0.001888	33.4478	-177.648	-166.836	-0.023265	0.697626	-1.057280	-1.058590	-0.038000	33.4478	-1.056428	-1.302626E+14	2.917219E-16	NaN
786	1.000000	0.710938	7.37274e+06	-39439.1	1055.82	-29793.2	0.000000	0.000000	6.711029	-0.026242	NaN	0.000000	0.001595	0.001783	28.0824	0.097551	0.002059	47.3783	-143.218	-166.057	-0.043675	0.709625	-1.045277	-1.046590	-0.026242	47.3783	-1.044861	-9.106110E+13	2.881779E-16	NaN
786	1.000000	0.722927	7.37274e+06	-39439.1	1055.82	-29793.2	0.000000	0.000000	6.723017	-0.029662	NaN	0.000000	0.001645	0.001761	28.082	0.034276	0.002030	16.8862	38.3795	-164.947	0.002033	0.721577	-1.033288	-1.034638	-0.029662	16.8862	-1.031971	-6.109300E+13	4.855167E-16	NaN
786	1.000000	0.734959	7.37274e+06	-39439.1	1055.82	-29793.2	0.000000	0.000000	6.735049	-0.030912	NaN	0.000000	0.001594	0.001759	28.0822	0.051304	0.002019	25.4129	168.487	-163.086	-0.076440	0.733659	-1.021256	-1.022556	-0.030912	25.4129	-1.020344	-4.261679E+13	7.253536E-16	NaN
786	1.000000	0.746927	7.37274e+06	-39439.1	1055.82	-29793.2	0.000000	0.000000	6.747019	-0.007914	NaN	0.000000	0.001571	0.001737	28.0822	0.071560	0.002053	34.8524	3.823116	-164.572	-0.021271	0.745626	-1.009288	-1.010589	-0.007914	34.8524	-1.009118	-3.009594E+13	2.629729E-16	NaN
786	1.000000	0.758955	7.37274e+06	-39439.1	1055.82	-29793.2	0.000000	0.000000	6.759047	0.000203	NaN	0.000000	0.001580	0.001759	28.082	0.051739	0.002057	25.1552	-136.926	-166.091	-0.035641	0.757652	-0.997260	-0.998563	0.000203	25.1552	-0.997266	-2.084317E+13	-9.761123E-18	NaN
786	1.000000	0.770958	7.37274e+06	-39439.1	1055.82	-29793.2	0.000000	0.000000	6.771049	-0.013867	NaN	0.000000	0.001565	0.001792	28.0822	0.087971	0.002046	43.0017	-2.000770	-163.978	0.015772	0.769695	-0.985257	-0.986520	-0.013867	43.0017	-0.985015	-1.425518E+13	9.727470E-16	NaN
786	1.000000	0.782947	7.37274e+06	-39439.1	1055.82	-29793.2	0.000000	0.000000	6.783038	-0.021873	NaN	0.000000	0.001563	0.001788	28.0807	0.123131	0.002098	58.6986	-133.676	-162.804	0.005193	0.781662	-0.973268	-0.974553	-0.021873	58.6986	-0.972989	-9.816129E+12	2.228300E-15	NaN
786	1.000000	0.794983	7.37274e+06	-39439.1	1055.82	-29793.2	0.000000	0.000000	6.795074	-0.008697	NaN	0.000000	0.001562	0.001772	28.0807	0.045650	0.001971	23.1566	41.0514	-164.119	-0.022339	0.793690	-0.961232	-0.962525	-0.008697	23.1566	-0.960951	-6.755962E+12	1.287372E-15	NaN
786	1.000000	0.806948	7.37274e+06	-39439.1	1055.82	-29793.2	0.000000	0.000000	6.807037	-0.054566	NaN	0.000000	0.001548	0.001818	28.0809	0.102710	0.001985	51.7431	-40.8034	-163.472	-0.006104	0.805647	-0.949267	-0.950569	-0.054566	51.7431	-0.948476	-4.586479E+12	1.189704E-14	NaN
786	1.000000	0.819016	7.37274e+06	-39439.1	1055.82	-29793.2	0.000000	0.000000	6.819107	0.000265	NaN	0.000000	0.001586	0.001803	28.0807	0.092365	0.002020	45.716	71.8842	-163.084	-0.014540	0.817674	-0.937200	-0.938541	0.000265	45.716	-0.937204	-3.231567E+12	-8.201180E-17	NaN
786	1.000000	0.830992	7.37274e+06	-39439.1	1055.82	-29793.2	0.000000	0.000000	6.831082	-0.045587	NaN	0.000000	0.001613	0.001783	28.0808	0.028917	0.001886	15.3361	164.964	-164.863	-0.052814	0.829637	-0.925223	-0.926578	-0.045587	15.3361	-0.922994	-2.077892E+12	2.193885E-14	NaN
786	1.000000	0.842977	7.37274e+06	-39439.1	1055.82	-29793.2	0.000000	0.000000	6.843067	-0.043436	NaN	0.000000	0.001570	0.001798	28.0807	0.141279	0.002063	68.4754	-100.922	-162.843	-0.008803	0.841675	-0.913238	-0.914540	-0.043436	68.4754	-0.912762	-1.511717E+12	2.873265E-14	NaN
786	1.000000	0.855026	7.37274e+06	-39439.1	1055.82	-29793.2	0.000000	0.000000	6.855114	-0.072758	NaN	0.000000	0.001553	0.001794	28.0806	0.047832	0.001908	25.0676	-57.3399	-165.093	-0.039615	0.853664	-0.901190	-0.902551	-0.072758	25.0676	-0.899013	-9.856583E+11	7.381705E-14	NaN
786	1.000000	0.867033	7.37274e+06	-39439.1	1055.82	-29793.2	0.000000	0.000000	6.867125	-0.005084	NaN	0.000000	0.001574	0.001782	28.0806	0.046863	0.002008	23.3411	145.656	-163.317	-0.016640	0.865634	-0.889182	-0.890581	-0.005084	23.3411	-0.889019	-7.221886E+11	7.040106E-15	NaN
786	1.000000	0.878980	7.37274e+06	-39439.1	1055.82	-29793.2	0.000000	0.000000	6.879070	-0.026547	NaN	0.000000	0.001574	0.001756	28.0806	0.104349	0.001882	55.458	12.66	-165.51	-0.043501	0.877672	-0.877236	-0.878544	-0.026547	55.458	-0.876877	-4.948411E+11	5.364766E-14	NaN
786	1.000000	0.891006	7.37274e+06	-39439.1	1055.82	-29793.2	0.000000	0.000000	6.891095	-0.057822	NaN	0.000000	0.001556	0.001795	28.0807	0.052511	0.001910	27.4981	111.438	-166.841	0.040214	0.889766	-0.865210	-0.866450	-0.057822	27.4981	-0.863633	-3.275553E+11	1.765265E-13	NaN
786	1.000000	0.903007	7.37274e+06	-39439.1	1055.82	-29793.2	0.000000	0.000000	6.903096	-0.066354	NaN	0.000000	0.001564	0.001763	28.0808	0.079305	0.002101	37.7498	-83.4423	-168.688	-0.091256	0.901715	-0.853208	-0.854500	-0.066354	37.7498	-0.851890	-2.271564E+11	2.921089E-13	NaN
786	1.000000	0.914988	7.37274e+06	-39439.1	1055.82	-29793.2	0.000000	0.000000	6.915078	-0.039966	NaN	0.000000	0.001551	0.001808	28.0817	0.036973	0.002040	18.1213	176.741	-166.501	-0.049183	0.913747	-0.841227	-0.842469	-0.039966	18.1213	-0.839573	-1.547059E+11	2.583384E-13	NaN
786	1.000000	0.927019	7.37274e+06	-39439.1	1055.82	-29793.2	0.000000	0.000000	6.927108	-0.068616	NaN	0.000000	0.001532	0.001817	28.0822	0.054226	0.002134	25.4138	171.868	-167.812	-0.012258	0.925741	-0.829196	-0.830475	-0.068616	25.4138	-0.827171	-1.050605E+11	6.531101E-13	NaN
786	1.000000	0.939013	7.37274e+06	-39439.1	1055.82	-29793.2	0.000000	0.000000	6.939102	-0.084318	NaN	0.000000	0.001562	0.001790	28.0819	0.051327	0.001920	26.7372	-150.216	-164.877	-0.026944	0.937723	-0.817202	-0.818492	-0.084318	26.7372	-0.814837	-7.147990E+10	1.179609E-12	NaN
786	1.000000	0.951030	7.37274e+06	-39439.1	1055.82	-29793.2	0.000000	0.000000	6.951119	-0.078384	NaN	0.000000	0.001582	0.001751	28.082	0.055781	0.002001	27.8783	174.793	-162.017	-0.005508	0.949733	-0.805185	-0.806482	-0.078384	27.8783	-0.803076	-4.950144E+10	1.583459E-12	NaN
786	1.000000	0.963015	7.37274e+06	-39439.1	1055.82	-29793.2	0.000000	0.000000	6.963106	-0.002584	NaN	0.000000	0.001548	0.001787	28.0822	0.028824	0.002131	13.5237	160.571	-165.533	0.006170	0.961679	-0.793200	-0.794537	-0.002584	13.5237	-0.793057	-3.619102E+10	7.140357E-14	NaN
786	1.000000	0.975035	7.37275e+06	-39439.1	1055.82	-29793.2	0.000000	0.000000	6.975127	-0.005824	NaN	0.000000	0.001586	0.001813	28.0819	0.034623	0.002061	16.8023	1.034487	-164.613	-0.028777	0.973700	-0.781180	-0.782515	-0.005824	16.8023	-0.780920	-2.475903E+10	2.352138E-13	NaN
786	1.000000	0.987044	7.37275e+06	-39439.1	1055.82	-29793.2	0.000000	0.000000	6.987137	0.037282	NaN	0.000000	0.001572	0.001789	28.0822	0.001874	0.001985	0.944170	46.85	-166.48	0.018969	0.985720	-0.769172	-0.770495	0.037282	0.944170	-0.798787	-4.329076E+10	-8.612070E-13	NaN
786	1.000000	0.999017	7.37275e+06	-39439.1	1055.82	-29793.2	0.000000	0.000000	6.999106	-0.069018	NaN	0.000000	0.001567	0.001807	28.0819	0.086495	0.002006	43.128	117.414	-168.275	-0.072504	0.997711	-0.757198	-0.758504	-0.069018	43.128	-0.755998	-1.134611E+10	6.082965E-12	NaN
786	1.000000	1.011036	7.37275e+06	-39439.1	1055.82	-29793.2	0.000000	0.000000	7.011126	-0.038932	NaN	0.000000	0.001576	0.001783	28.0821	0.030854	0.002115	14.5857	176.178	-165.268	-0.114456	1.009778	-0.745180	-0.746438	-0.038932	14.5857	-0.743178	-7.591634E+9	5.128247E-12	NaN
786	1.000000	1.023064	7.37275e+06	-39439.1	1055.82	-29793.2	0.000000	0.000000	7.023153	-0.047735	NaN	0.000000	0.001591	0.001794	28.0821	0.076994	0.001981	38.8724	-91.2148	-165.772	-0.014147	1.021802	-0.733152	-0.734413	-0.047735	38.8724	-0.732231	-5.385289E+9	8.863949E-12	NaN
786	1.000000	1.035095	7.37275e+06	-39439.1	1055.82	-29793.2	0.000000	0.000000	7.035187	0.005287	NaN	0.000000	0.001575	0.001801	28.0821	0.125869	0.002017	62.4001	-136.726	-169.219	-0.052223	1.033745	-0.721120	-0.722470	0.005287	62.4001	-0.721183	-3.807250E+9	-1.388794E-12	NaN
786	1.000000	1.047038	7.37275e+06	-39439.1	1055.82	-29793.2	0.000000	0.000000	7.047129	-0.019376	NaN	0.000000	0.001556	0.001773	28.082	0.035254	0.002052	17.1801	-67.8092	-165.501	-0.100141	1.045827	-0.709177	-0.710388	-0.019376	17.1801	-0.708331	-2.542588E+9	7.620461E-12	NaN
786	1.000000	1.059088	7.37275e+06	-39439.1	1055.82	-29793.2	0.000000	0.000000	7.059179	-0.028933	NaN	0.000000	0.001575	0.001786	28.081	0.075061	0.001969	38.1233	122.717	-168.498	6.899329E-5	1.057727	-0.697127	-0.698488	-0.028933	38.1233	-0.696558	-1.755975E+9	1.647671E-11	NaN
786	1.000000	1.071052	7.37275e+06	-39439.1	1055.82	-29793.2	0.000000	0.000000	7.071142	-0.030843	NaN	0.000000	0.001588	0.001790	28.0811	0.013599	0.002079	6.542500	-147.226	-164.087	-0.008592	1.069727	-0.685164	-0.686488	-0.030843	6.542500	-0.681628	-1.097666E+9	2.809871E-11	NaN
786	1.000000	1.083101	7.37275e+06	-39439.1	1055.82	-29793.2	0.000000	0.000000	7.083191	-0.054107	NaN	0.000000	0.001604	0.001769	28.0807	0.105323	0.001971	53.4366	-158.078	-164.664	0.002939	1.081745	-0.673114	-0.674470	-0.054107	53.4366	-0.672354	-8.196192E+8	6.601444E-11	NaN
786	1.000000	1.095088	7.37275e+06	-39439.1	1055.82	-29793.2	0.000000	0.000000	7.095179	-0.018829	NaN	0.000000	0.001576	0.001757	28.0808	0.065923	0.001883	35.0167	172.154	-163.163	-0.030901	1.093740	-0.661127	-0.662476	-0.018829	35.0167	-0.660724	-5.680480E+8	3.314751E-11	NaN
786	1.000000	1.107068	7.37275e+06	-39439.1	1055.82	-29793.2	0.000000	0.000000	7.107160	0.014949	NaN	0.000000	0.001566	0.001743	28.081	0.055492	0.001974	28.1159	-157.296	-168.131	0.038508	1.105776	-0.649148	-0.650439	0.014949	28.1159	-0.649547	-3.992271E+8	-3.744529E-11	NaN
786	1.000000	1.119098	7.37275e+06	-39439.1	1055.82	-29793.2	0.000000	0.000000	7.119189	-0.018806	NaN	0.000000	0.001601	0.001785	28.0808	0.106604	0.001887	56.4968	136.846	-162.665	0.015920	1.117756	-0.637118	-0.638459	-0.018806	56.4968	-0.636868	-2.674918E+8	7.030500E-11	NaN
786	1.000000	1.131085	7.37275e+06	-39439.1	1055.82	-29793.2	0.000000	0.000000	7.131176	0.000354	NaN	0.000000	0.001584	0.001759	28.0807	0.118588	0.002012	58.9436	116.39	-166.086	0.021118	1.129779	-0.625131	-0.626436	0.000354	58.9436	-0.625135	-1.845862E+8	-1.918270E-12	NaN
786	1.000000	1.143111	7.37275e+06	-39439.1	1055.82	-29793.2	0.000000	0.000000	7.143204	0.029490	NaN	0.000000	0.001592	0.001793	28.0806	0.035465	0.001848	19.1942	-1.007462	-164.492	0.031495	1.141814	-0.613104	-0.614402	0.029490	19.1942	-0.614257	-1.308174E+8	-2.254287E-10	NaN
786	1.000000	1.155123	7.37275e+06	-39439.1	1055.82	-29793.2	0.000000	0.000000	7.155213	-0.041477	NaN	0.000000	0.001581	0.001822	28.0809	0.030239	0.002022	14.9579	166.183	-166.087	-0.070803	1.153749	-0.601092	-0.602466	-0.041477	14.9579	-0.599013	-8.069748E+7	5.139777E-10	NaN
786	1.000000	1.167129	7.37275e+06	-39439.1	1055.82	-29793.2	0.000000	0.000000	7.167223	0.051742	NaN	0.000000	0.001588	0.001812	28.0807	0.045088	0.001930	23.3629	92.1684	-165.726	0.047948	1.165802	-0.589086	-0.590414	0.051742	23.3629	-0.590747	-6.208174E+7	-8.334570E-10	NaN
786	1.000000	1.179111	7.37275e+06	-39439.1	1055.82	-29793.2	0.000000	0.000000	7.179203	-0.006825	NaN	0.000000	0.001594	0.001811	28.0807	0.056132	0.001997	28.1146	-66.6667	-162.918	-0.018732	1.177807	-0.577104	-0.578408	-0.006825	28.1146	-0.576922	-4.001636E+7	1.705442E-10	NaN
786	1.000000	1.191144	7.37275e+06	-39439.1	1055.82	-29793.2	0.000000	0.000000	7.191236	0.007173	NaN	0.000000	0.001575	0.001819	28.082	0.066116	0.001997	33.1082	46.4694	-162.698	-0.029361	1.189867	-0.565071	-0.566348	0.007173	33.1082	-0.565234	-2.759049E+7	-2.599867E-10	NaN
786	1.000000	1.203109	7.37275e+06	-39439.1	1055.82	-29793.2	0.000000	0.000000	7.203201	-0.005131	NaN	0.000000	0.001590	0.001793	28.0822	0.049605	0.001916	25.8917	-64.7087	-165.208	-0.024233	1.201778	-0.553106	-0.554437	-0.005131	25.8917	-0.552958	-1.866004E+7	2.749903E-10	NaN
786	1.000000	1.215135	7.37275e+06	-39439.1	1055.82	-29793.2	0.000000	0.000000	7.215223	-0.085017	NaN	0.000000	0.001591	0.001774	28.082	0.138610	0.002104	65.8831	123.666	-164.659	-0.079503	1.213869	-0.541081	-0.542346	-0.085017	65.8831	-0.540113	-1.238581E+7	6.864044E-9	NaN
786	1.000000	1.227144	7.37275e+06	-39439.1	1055.82	-29793.2	0.000000	0.000000	7.227234	-0.058777	NaN	0.000000	0.001534	0.001788	28.0818	0.105346	0.001946	54.1338	-1.950438	-167.357	-0.077238	1.225808	-0.529071	-0.530408	-0.058777	54.1338	-0.528257	-8.4793e+06	6.931861E-9	NaN
786	1.000000	1.239138	7.37275e+06	-39439.1	1055.82	-29793.2	0.000000	0.000000	7.239229	-0.032055	NaN	0.000000	0.001553	0.001789	28.0821	0.052308	0.001966	26.6055	162.598	-166.085	-0.012796	1.237839	-0.517077	-0.518376	-0.032055	26.6055	-0.516173	-5.75922e+06	5.565893E-9	NaN
786	1.000000	1.251087	7.37275e+06	-39439.1	1055.82	-29793.2	0.000000	0.000000	7.251176	-0.046192	NaN	0.000000	0.001570	0.001776	28.082	0.117886	0.001937	60.8631	-87.5507	-160.999	-0.031901	1.249812	-0.505129	-0.506403	-0.046192	60.8631	-0.504560	-3.96831e+06	1.164017E-8	NaN
786	1.000000	1.263155	7.37275e+06	-39439.1	1055.82	-29793.2	0.000000	0.000000	7.263246	-0.012810	NaN	0.000000	0.001572	0.001798	28.0819	0.104530	0.001962	53.2848	-110.852	-166.087	-0.030439	1.261819	-0.493060	-0.494396	-0.012810	53.2848	-0.492880	-2.72666e+06	4.697926E-9	NaN
786	1.000000	1.275155	7.37275e+06	-39439.1	1055.82	-29793.2	0.000000	0.000000	7.275247	0.006862	NaN	0.000000	0.001583	0.001814	28.0819	0.069195	0.001947	35.5378	-65.8023	-162.153	0.015395	1.273865	-0.481060	-0.482350	0.006862	35.5378	-0.481205	-1.8724e+06	-3.665023E-9	NaN
786	1.000000	1.287173	7.37275e+06	-39439.1	1055.82	-29793.2	0.000000	0.000000	7.287261	-0.084351	NaN	0.000000	0.001568	0.001776	28.0819	0.081603	0.002089	39.0561	124.674	-165.121	-0.016893	1.285839	-0.469042	-0.470376	-0.084351	39.0561	-0.467422	-1.20018e+06	7.028240E-8	NaN
786	1.000000	1.299156	7.37275e+06	-39439.1	1055.82	-29793.2	0.000000	0.000000	7.299249	0.032685	NaN	0.000000	0.001591	0.001771	28.0821	0.097613	0.002005	48.6803	115.393	-166.25	-0.052793	1.297897	-0.457059	-0.458318	0.032685	48.6803	-0.457563	-872484	-3.746216E-8	NaN
786	1.000000	1.311176	7.37275e+06	-39439.1	1055.82	-29793.2	0.000000	0.000000	7.311269	0.020038	NaN	0.000000	0.001603	0.001766	28.0819	0.022592	0.002054	10.9975	50.8725	-168.407	0.078322	1.309847	-0.445039	-0.446369	0.020038	10.9975	-0.446405	-607718	-3.297274E-8	NaN
786	1.000000	1.323162	7.37275e+06	-39439.1	1055.82	-29793.2	0.000000	0.000000	7.323254	0.018549	NaN	0.000000	0.001593	0.001794	28.0817	0.049628	0.001963	25.2775	-87.8801	-164.77	0.044040	1.321851	-0.433054	-0.434364	0.018549	25.2775	-0.433604	-400889	-4.626861E-8	NaN
786	1.000000	1.335184	7.37275e+06	-39439.1	1055.82	-29793.2	0.000000	0.000000	7.335272	-0.108884	NaN	0.000000	0.001584	0.001753	28.0807	0.025927	0.001928	13.45	136.599	-167.345	-0.043668	1.333866	-0.421031	-0.422349	-0.108884	13.45	-0.414959	-218211	4.989830E-7	NaN
786	1.000000	1.347207	7.37275e+06	-39439.1	1055.82	-29793.2	0.000000	0.000000	7.347295	-0.075109	NaN	0.000000	0.001602	0.001769	28.0805	0.089216	0.002094	42.6115	-88.69	-165.397	-0.009667	1.345886	-0.409009	-0.410329	-0.075109	42.6115	-0.407687	-171986	4.367180E-7	NaN
786	1.000000	1.359201	7.37275e+06	-39439.1	1055.82	-29793.2	0.000000	0.000000	7.359290	-0.065226	NaN	0.000000	0.001607	0.001768	28.0809	0.105856	0.001993	53.1013	8.737934	-168.796	0.008009	1.357898	-0.397014	-0.398317	-0.065226	53.1013	-0.396093	-117556	5.548459E-7	NaN
786	1.000000	1.371196	7.37275e+06	-39439.1	1055.82	-29793.2	0.000000	0.000000	7.371286	-0.047413	NaN	0.000000	0.001582	0.001803	28.0807	0.067620	0.001991	33.9602	-82.431	-167.54	-0.091006	1.369902	-0.385019	-0.386313	-0.047413	33.9602	-0.383972	-78859.4	6.012307E-7	NaN
786	1.000000	1.383231	7.37275e+06	-39439.1	1055.82	-29793.2	0.000000	0.000000	7.383323	0.007854	NaN	0.000000	0.001606	0.001783	28.0808	0.095993	0.002133	45.007	155.56	-167.466	-0.087230	1.381867	-0.372984	-0.374348	0.007854	45.007	-0.373115	-55076	-1.425965E-7	NaN
786	1.000000	1.395220	7.37275e+06	-39439.1	1055.82	-29793.2	0.000000	0.000000	7.395309	-0.063895	NaN	0.000000	0.001632	0.001780	28.0809	0.072423	0.002025	35.7629	152.661	-163.918	0.024127	1.393880	-0.360996	-0.362335	-0.063895	35.7629	-0.359656	-35226.4	1.813842E-6	NaN
786	1.000000	1.407220	7.37275e+06	-39439.1	1055.82	-29793.2	0.000000	0.000000	7.407311	0.004117	NaN	0.000000	0.001572	0.001777	28.0809	0.095098	0.002005	47.4223	161.542	-169.521	-0.013879	1.405930	-0.348996	-0.350286	0.004117	47.4223	-0.349061	-24738.3	-1.664415E-7	NaN
786	1.000000	1.419236	7.37275e+06	-39439.1	1055.82	-29793.2	0.000000	0.000000	7.419328	0.007737	NaN	0.000000	0.001600	0.001782	28.0807	0.055482	0.001924	28.8358	-9.761275	-165.625	-0.043727	1.417938	-0.336979	-0.338277	0.007737	28.8358	-0.337180	-16612	-4.657507E-7	NaN
786	1.000000	1.431220	7.37275e+06	-39439.1	1055.82	-29793.2	0.000000	0.000000	7.431313	0.010756	NaN	0.000000	0.001579	0.001776	28.0805	0.088978	0.001977	45.0091	86.7991	-167.414	-0.024630	1.429878	-0.324995	-0.326337	0.010756	45.0091	-0.325174	-11083.9	-9.704056E-7	NaN
786	1.000000	1.443241	7.37275e+06	-39439.1	1055.82	-29793.2	0.000000	0.000000	7.443329	-0.091254	NaN	0.000000	0.001556	0.001765	28.0807	0.138815	0.001999	69.4584	-16.3156	-163.029	-0.066607	1.441906	-0.312974	-0.314309	-0.091254	69.4584	-0.311988	-7087.07	1.287607E-5	NaN
786	1.000000	1.455246	7.37275e+06	-39439.1	1055.82	-29793.2	0.000000	0.000000	7.455336	-0.043424	NaN	0.000000	0.001542	0.001767	28.0806	0.118775	0.002097	56.6305	-145.666	-166.545	-0.077140	1.453939	-0.300969	-0.302276	-0.043424	56.6305	-0.300394	-4769.85	9.103958E-6	NaN
786	1.000000	1.467245	7.37275e+06	-39439.1	1055.82	-29793.2	0.000000	0.000000	7.467335	-0.054017	NaN	0.000000	0.001540	0.001774	28.0821	0.047108	0.001951	24.1438	-35.5976	-168.156	0.064895	1.465928	-0.288970	-0.290288	-0.054017	24.1438	-0.287292	-3038.76	1.777593E-5	NaN
786	1.000000	1.479232	7.37275e+06	-39439.1	1055.82	-29793.2	0.000000	0.000000	7.479321	-0.049882	NaN	0.000000	0.001519	0.001783	28.082	0.137776	0.002027	67.9774	110.102	-166.727	-0.080431	1.477971	-0.276984	-0.278244	-0.049882	67.9774	-0.276433	-2084.94	2.392470E-5	NaN
786	1.000000	1.491246	7.37275e+06	-39439.1	1055.82	-29793.2	0.000000	0.000000	7.491338	0.014930	NaN	0.000000	0.001567	0.001818	28.0819	0.041069	0.001998	20.5588	47.1734	-163.117	0.016490	1.489991	-0.264969	-0.266224	0.014930	20.5588	-0.265514	-1423.08	-1.049136E-5	NaN
786	1.000000	1.503248	7.37275e+06	-39439.1	1055.82	-29793.2	0.000000	0.000000	7.503339	-0.010940	NaN	0.000000	0.001610	0.001792	28.0831	0.042226	0.002028	20.8163	39.1929	-164.34	0.030900	1.501979	-0.252967	-0.254237	-0.010940	20.8163	-0.252573	-900.982	1.214235E-5	NaN
786	1.000000	1.515257	7.37275e+06	-39439.1	1055.82	-29793.2	0.000000	0.000000	7.515345	-0.075661	NaN	0.000000	0.001590	0.001791	28.0818	0.100597	0.001940	51.8456	-53.9644	-162.667	-0.030803	1.513977	-0.240959	-0.242238	-0.075661	51.8456	-0.239864	-572.044	0.000132	NaN
786	1.000000	1.527285	7.37275e+06	-39439.1	1055.82	-29793.1	0.000000	0.000000	7.527375	-0.026227	NaN	0.000000	0.001563	0.001809	28.082	0.072859	0.002000	36.43	-0.573398	-164.745	0.073799	1.525947	-0.228931	-0.230269	-0.026227	36.43	-0.228391	-377.645	6.945009E-5	NaN
786	1.000000	1.539272	7.37275e+06	-39439.1	1055.82	-29793.1	0.000000	0.000000	7.539363	-0.000375	NaN	0.000000	0.001530	0.001784	28.0819	0.026535	0.001972	13.4537	-143.451	-163.354	-0.048116	1.537931	-0.216944	-0.218284	-0.000375	13.4537	-0.216923	-247.971	1.510827E-6	NaN
786	1.000000	1.551275	7.37275e+06	-39439.1	1055.82	-29793.1	0.000000	0.000000	7.551368	0.043587	NaN	0.000000	0.001545	0.001801	28.082	0.081468	0.002016	40.4091	13.5027	-164.879	-0.037007	1.549970	-0.204941	-0.206245	0.043587	40.4091	-0.205750	-163.598	-0.000266	NaN
786	1.000000	1.563313	7.37275e+06	-39439.1	1055.82	-29793.1	0.000000	0.000000	7.563400	-0.104286	NaN	0.000000	0.001516	0.001810	28.0823	0.136074	0.001954	69.6539	-90.2231	-163.978	-0.076509	1.561958	-0.192902	-0.194257	-0.104286	69.6539	-0.191779	-96.3185	0.001083	NaN
786	1.000000	1.575303	7.37275e+06	-39439.1	1055.82	-29793.1	0.000000	0.000000	7.575395	-0.003469	NaN	0.000000	0.001548	0.001774	28.0821	0.180765	0.002023	89.3398	78.772	-164.109	0.009331	1.573968	-0.180912	-0.182247	-0.003469	89.3398	-0.180883	-63.1646	5.491312E-5	NaN
786	1.000000	1.587307	7.37275e+06	-39439.1	1055.82	-29793.1	0.000000	0.000000	7.587400	0.023153	NaN	0.000000	0.001543	0.001766	28.0819	0.056032	0.002009	27.8845	125.784	-167.109	0.005426	1.585993	-0.168908	-0.170223	0.023153	27.8845	-0.169531	-40.3146	-0.000574	NaN
786	1.000000	1.599303	7.37275e+06	-39439.1	1055.82	-29793.1	0.000000	0.000000	7.599393	-0.030540	NaN	0.000000	0.001553	0.001747	28.0808	0.068799	0.002053	33.507	-153.139	-165.216	-0.057071	1.597977	-0.156912	-0.158238	-0.030540	33.507	-0.156229	-23.4777	0.001301	NaN
786	1.000000	1.611334	7.37275e+06	-39439.1	1055.82	-29793.1	0.000000	0.000000	7.611426	0.009387	NaN	0.000000	0.001541	0.001793	28.0807	0.069581	0.002076	33.5183	177.523	-167.086	0.038924	1.610017	-0.144882	-0.146198	0.009387	33.5183	-0.145092	-14.7185	-0.000638	NaN
786	1.000000	1.623346	7.37275e+06	-39439.1	1055.82	-29793.1	0.000000	0.000000	7.623439	0.034051	NaN	0.000000	0.001510	0.001762	28.0805	0.124833	0.002088	59.7983	23.4912	-163.486	0.020391	1.622023	-0.132870	-0.134192	0.034051	59.7983	-0.133297	-8.824227	-0.003859	NaN
786	1.000000	1.635328	7.37275e+06	-39439.1	1055.82	-29793.1	0.000000	0.000000	7.635419	-0.012139	NaN	0.000000	0.001500	0.001727	28.0806	0.124819	0.002022	61.7336	74.457	-164.809	-0.033480	1.634044	-0.120887	-0.122171	-0.012139	61.7336	-0.120740	-5.000176	0.002428	NaN
786	1.000000	1.647343	7.37275e+06	-39439.1	1055.82	-29793.1	0.000000	0.000000	7.647436	0.018745	NaN	0.000000	0.001523	0.001758	28.081	0.048201	0.001998	24.1251	120.728	-164.61	0.027205	1.646018	-0.108872	-0.110197	0.018745	24.1251	-0.109455	-2.926564	-0.006405	NaN
786	1.000000	1.659355	7.37275e+06	-39439.1	1055.82	-29793.1	0.000000	0.000000	7.659447	-0.014555	NaN	0.000000	0.001512	0.001800	28.0812	0.105661	0.001811	58.3502	95.8032	-165.171	0.034840	1.657997	-0.096860	-0.098218	-0.014555	58.3502	-0.096673	-1.539395	0.009455	NaN
786	1.000000	1.671374	7.37275e+06	-39439.1	1055.82	-29793.1	0.000000	0.000000	7.671464	-0.040485	NaN	0.000000	0.001537	0.001794	28.0808	0.104414	0.002106	49.5718	-126.359	-163.883	-0.043220	1.670040	-0.084842	-0.086176	-0.040485	49.5718	-0.084229	-0.787005	0.051442	NaN
786	1.000000	1.683375	7.37275e+06	-39439.1	1055.82	-29793.1	0.000000	0.000000	7.683465	-0.032454	NaN	0.000000	0.001506	0.001794	28.0807	0.078771	0.002011	39.1635	-158.329	-161.9	-0.008602	1.682030	-0.072841	-0.074185	-0.032454	39.1635	-0.072219	-0.390736	0.083060	NaN
786	1.000000	1.695347	7.37275e+06	-39439.1	1055.82	-29793.1	0.000000	0.000000	7.695438	-0.023569	NaN	0.000000	0.001542	0.001745	28.0804	0.073566	0.001943	37.8586	9.329213	-164.295	-0.062736	1.694067	-0.060868	-0.062148	-0.023569	37.8586	-0.060401	-0.184925	0.127450	NaN
786	1.000000	1.707365	7.37275e+06	-39439.1	1055.82	-29793.1	0.000000	0.000000	7.707456	-0.020921	NaN	0.000000	0.001562	0.001843	28.0806	0.101079	0.001971	51.2783	-143.23	-163.707	0.041344	1.706071	-0.048850	-0.050144	-0.020921	51.2783	-0.048544	-0.082433	0.253791	NaN
786	1.000000	1.719387	7.37275e+06	-39439.1	1055.82	-29793.1	0.000000	0.000000	7.719477	-0.027916	NaN	0.000000	0.001563	0.001830	28.0807	0.149000	0.001997	74.6028	-170.988	-165.736	0.018119	1.718083	-0.036828	-0.038132	-0.027916	74.6028	-0.036548	-0.035592	0.784327	NaN
786	1.000000	1.731370	7.37275e+06	-39439.1	1055.82	-29793.1	0.000000	0.000000	7.731463	0.039691	NaN	0.000000	0.001558	0.001806	28.0806	0.031849	0.001981	16.0769	-85.2861	-164.83	0.070108	1.730043	-0.024845	-0.026172	0.039691	16.0769	-0.026697	-0.018703	-2.122207	NaN
786	1.000000	1.743369	7.37275e+06	-39439.1	1055.82	-29793.1	0.000000	0.000000	7.743460	-0.008433	NaN	0.000000	0.001555	0.001818	28.082	0.093240	0.002027	45.9992	104.839	-164.626	0.001583	1.742081	-0.012846	-0.014134	-0.008433	45.9992	-0.012709	-0.007935	1.062828	NaN
786	1.000000	1.755355	7.37275e+06	-39439.1	1055.82	-29793.1	0.000000	0.000000	7.755509	1.514584	NaN	0.000000	0.001574	0.001793	28.082	2.090866	0.001933	1081.82	5.487134	-165.655	0.531469	1.754072	-0.000861	-0.002143	1.514584	1081.82	-0.001911	-0.001377	-1099.67	NaN
786	2.000000	1.763917	7.37275e+06	-39439.1	1055.82	-29793.1	0.000000	0.000000	7.764399	9.500801	NaN	0.000000	0.001624	0.001793	28.082	9.301534	0.001562	5954.06	4.487862	-170.826	8.951981	1.763618	0.007702	0.007403	9.500801	5954.06	0.006505	0.005549	1712.09	73024.6
786	2.000000	1.766886	7.37275e+06	-39439.1	1055.82	-29793.1	0.000000	0.000000	7.767554	14.0265	NaN	0.000000	0.001604	0.001848	28.0818	12.5702	0.001868	6727.6	4.859853	-171.111	13.2862	1.766593	0.010671	0.010377	14.0265	6727.6	0.009107	0.008206	1709.24	67851.7
786	2.000000	1.769857	7.37275e+06	-39439.1	1055.82	-29793.1	0.000000	0.000000	7.770713	18.6093	NaN	0.000000	0.001601	0.001826	28.0819	15.2288	0.001822	8357.46	6.067619	-173.109	18.022	1.769599	0.013641	0.013384	18.6093	8357.46	0.011971	0.011456	1624.46	71340.7
786	2.000000	1.772873	7.37275e+06	-39439.1	1055.82	-29793.1	0.000000	0.000000	7.774005	25.336	NaN	0.000000	0.001586	0.001806	28.0819	19.0619	0.001902	10020.7	6.710306	-175.638	25.012	1.772565	0.016657	0.016350	25.336	10020.7	0.014761	0.014968	1692.67	74832.4
786	2.000000	1.775824	7.37275e+06	-39439.1	1055.82	-29793.1	0.000000	0.000000	7.777245	32.3341	NaN	0.000000	0.001594	0.001777	28.082	21.6	0.001837	11759.3	5.008736	-176.557	30.817	1.775592	0.019609	0.019377	32.3341	11759.3	0.017547	0.018833	1716.87	78287.6
786	2.000000	1.778800	7.37275e+06	-39439.1	1055.82	-29793.1	0.000000	0.000000	7.780580	41.079	NaN	0.000000	0.001600	0.001812	28.0819	24.0148	0.001757	13665.9	3.475800	-175.754	38.3908	1.778484	0.022585	0.022268	41.079	13665.9	0.020331	0.023065	1781.04	82212.8
786	2.000000	1.781892	7.37275e+06	-39439.1	1055.82	-29793.1	0.000000	0.000000	7.783956	48.0037	NaN	0.000000	0.001587	0.001819	28.0831	26.3196	0.001858	14163.5	4.758080	-176.588	50.6804	1.781570	0.025676	0.025355	48.0037	14163.5	0.023134	0.027709	1732.42	77737.8
786	2.000000	1.784842	7.37275e+06	-39439.1	1055.82	-29793.1	0.000000	0.000000	7.787300	57.5926	NaN	0.000000	0.001615	0.001793	28.0818	29.2627	0.001733	16890.2	7.616997	179.346	58.8287	1.784473	0.028626	0.028258	57.5926	16890.2	0.026069	0.032989	1745.81	84961.7
786	2.000000	1.787838	7.37275e+06	-39439.1	1055.82	-29793.1	0.000000	0.000000	7.790729	68.1285	NaN	0.000000	0.001594	0.001776	28.0818	32.3108	0.001745	18521.5	6.010691	178.683	66.7032	1.787492	0.031622	0.031276	68.1285	18521.5	0.028864	0.038422	1773.19	86330.2
786	2.000000	1.790792	7.37275e+06	-39439.1	1055.82	-29793.1	0.000000	0.000000	7.793804	71.0533	NaN	0.000000	0.001568	0.001805	28.0809	34.2719	0.001890	18136.8	6.726564	178.455	69.9699	1.790509	0.034577	0.034294	71.0533	18136.8	0.031639	0.044209	1607.23	78810
786	2.000000	1.793763	7.37275e+06	-39439.1	1055.82	-29793.1	0.000000	0.000000	7.797279	83.3363	NaN	0.000000	0.001551	0.001807	28.0803	36.0748	0.001847	19534	1.884776	-177.187	81.2069	1.793420	0.037547	0.037205	83.3363	19534	0.034348	0.050238	1658.82	79624.5
786	2.000000	1.796771	7.37275e+06	-39439.1	1055.82	-29793.1	0.000000	0.000000	7.800898	98.1915	NaN	0.000000	0.001555	0.001816	28.081	38.863	0.001830	21240.9	3.634666	-179.643	95.718	1.796427	0.040556	0.040212	98.1915	21240.9	0.037089	0.056721	1731.12	81484.3
786	2.000000	1.799769	7.37275e+06	-39439.1	1055.82	-29793.1	0.000000	0.000000	7.804198	105.553	NaN	0.000000	0.001605	0.001830	28.0802	41.5057	0.001805	22996.2	5.260266	177.673	104.486	1.799486	0.043554	0.043271	105.553	22996.2	0.040111	0.064316	1641.18	82846
786	2.000000	1.802763	7.37275e+06	-39439.1	1055.82	-29793.1	0.000000	0.000000	7.807829	121.048	NaN	0.000000	0.001587	0.001788	28.0804	44.1686	0.001786	24727.6	4.783262	178.368	121.355	1.802477	0.046548	0.046261	121.048	24727.6	0.042876	0.071673	1688.89	84387.5
786	2.000000	1.805835	7.37275e+06	-39439.1	1055.82	-29793.1	0.000000	0.000000	7.811300	130.772	NaN	0.000000	0.001580	0.001804	28.0805	47.5687	0.001824	26082.5	6.214442	175.889	133.374	1.805500	0.049619	0.049285	130.772	26082.5	0.045859	0.080045	1633.72	84227.8
786	2.000000	1.808856	7.37275e+06	-39439.1	1055.82	-29793.1	0.000000	0.000000	7.814853	143.694	NaN	0.000000	0.001573	0.001821	28.0807	49.6587	0.001784	27831.7	3.600426	178.142	147.251	1.808536	0.052641	0.052321	143.694	27831.7	0.048769	0.088646	1620.99	85405
786	2.000000	1.811760	7.37275e+06	-39439.1	1055.82	-29793.1	0.000000	0.000000	7.818488	161.489	NaN	0.000000	0.001561	0.001812	28.0817	51.7508	0.001754	29507.9	4.900210	176.192	160.193	1.811448	0.055545	0.055233	161.489	29507.9	0.051440	0.096917	1666.25	86598.6
786	2.000000	1.814751	7.37275e+06	-39439.1	1055.82	-29793.1	0.000000	0.000000	7.822003	174.246	NaN	0.000000	0.001583	0.001818	28.0803	54.8816	0.001780	30827.2	4.145776	177.013	173.171	1.814419	0.058536	0.058204	174.246	30827.2	0.054297	0.106156	1641.42	86444.2
786	2.000000	1.817717	7.37275e+06	-39439.1	1055.82	-29793.1	0.000000	0.000000	7.825567	188.792	NaN	0.000000	0.001571	0.001830	28.0803	57.2567	0.001794	31921.2	4.396633	175.671	186.804	1.817439	0.061502	0.061224	188.792	31921.2	0.057066	0.115499	1634.57	85814.9
786	2.000000	1.820721	7.37275e+06	-39439.1	1055.82	-29793.1	0.000000	0.000000	7.828981	198.772	NaN	0.000000	0.001569	0.001822	28.0804	60.0662	0.001791	33540.6	4.168897	175.444	196.599	1.820499	0.064506	0.064283	198.772	33540.6	0.060061	0.126029	1577.2	86319.6
786	2.000000	1.823702	7.37275e+06	-39439.1	1055.82	-29793.1	0.000000	0.000000	7.832707	216.9	NaN	0.000000	0.001552	0.001816	28.0811	63.8983	0.001815	35199.6	5.970157	173.521	213.154	1.823486	0.067487	0.067271	216.9	35199.6	0.062866	0.136284	1591.53	87114.2
786	2.000000	1.826686	7.37275e+06	-39439.1	1055.82	-29793.1	0.000000	0.000000	7.836646	240.146	NaN	0.000000	0.001550	0.001793	28.0819	66.4043	0.001788	37141.3	5.302027	173.995	235.162	1.826364	0.070471	0.070148	240.146	37141.3	0.065621	0.146734	1636.61	88586.1
786	2.000000	1.829639	7.37275e+06	-39439.1	1055.82	-29793.1	0.000000	0.000000	7.840243	255.813	NaN	0.000000	0.001549	0.001834	28.0816	69.6291	0.001835	37954.5	2.410412	176.691	250.273	1.829413	0.073424	0.073197	255.813	37954.5	0.068369	0.157517	1624.04	87372.2
786	2.000000	1.832663	7.37275e+06	-39439.1	1055.82	-29793.1	0.000000	0.000000	7.843853	270.06	NaN	0.000000	0.001578	0.001839	28.0819	72.4332	0.001783	40628.3	3.709802	174.979	264.478	1.832410	0.076448	0.076195	270.06	40628.3	0.071463	0.170090	1587.75	90004.3
786	2.000000	1.835791	7.37275e+06	-39439.1	1055.82	-29793.1	0.000000	0.000000	7.847820	290.503	NaN	0.000000	0.001559	0.001817	28.0821	75.2305	0.001855	40557.6	2.915986	176.052	292.374	1.835476	0.079576	0.079260	290.503	40557.6	0.074204	0.181607	1599.62	86951.9
786	2.000000	1.838783	7.37275e+06	-39439.1	1055.82	-29793.1	0.000000	0.000000	7.851725	312.708	NaN	0.000000	0.001608	0.001832	28.0816	78.0634	0.001819	42918.9	9.119664	169.719	313.96	1.838342	0.082567	0.082127	312.708	42918.9	0.077103	0.194176	1610.44	88986.5
786	2.000000	1.841729	7.37275e+06	-39439.1	1055.82	-29793.1	0.000000	0.000000	7.855159	324.603	NaN	0.000000	0.001562	0.001799	28.0816	79.1795	0.001747	45311.1	5.305487	172.199	323.6	1.841510	0.085513	0.085295	324.603	45311.1	0.080141	0.207767	1562.34	90821.7
786	2.000000	1.844597	7.37275e+06	-39439.1	1055.82	-29793.1	0.000000	0.000000	7.858997	348.179	NaN	0.000000	0.001609	0.001814	28.0815	81.556	0.001781	45797.9	5.021485	172.824	341.609	1.844391	0.088382	0.088175	348.179	45797.9	0.082680	0.219460	1586.53	89318.5
786	2.000000	1.847757	7.37275e+06	-39439.1	1055.82	-29793.1	0.000000	0.000000	7.863238	374.506	NaN	0.000000	0.001602	0.001807	28.0816	84.1347	0.001849	45504.2	6.015758	173.048	374.663	1.847240	0.091541	0.091024	374.506	45504.2	0.085369	0.232164	1613.11	86283.4
786	2.000000	1.850748	7.37275e+06	-39439.1	1055.82	-29793.1	0.000000	0.000000	7.866923	391.377	NaN	0.000000	0.001606	0.001814	28.0818	86.4447	0.001818	47560.6	2.830838	174.683	391.16	1.850359	0.094533	0.094144	391.377	47560.6	0.088361	0.246697	1586.47	87486
786	2.000000	1.853686	7.37275e+06	-39439.1	1055.82	-29793.1	0.000000	0.000000	7.870756	413.188	NaN	0.000000	0.001540	0.001805	28.0816	88.0836	0.001728	50963.3	2.489946	174.6	410.937	1.853458	0.097470	0.097242	413.188	50963.3	0.091390	0.261822	1578.12	90997.2
786	2.000000	1.856631	7.37275e+06	-39439.1	1055.82	-29793.1	0.000000	0.000000	7.874431	430.937	NaN	0.000000	0.001592	0.001851	28.0817	91.1463	0.001843	49452.5	2.452168	174.975	424.972	1.856385	0.100415	0.100169	430.937	49452.5	0.093880	0.274575	1569.47	86224.7
786	2.000000	1.859699	7.37275e+06	-39439.1	1055.82	-29793.1	0.000000	0.000000	7.878477	454.708	NaN	0.000000	0.001584	0.001822	28.0804	94.733	0.001946	48676.7	4.995610	172.888	454.078	1.859308	0.103484	0.103093	454.708	48676.7	0.096478	0.288183	1577.84	82843.8
786	2.000000	1.861218	7.37275e+06	-39439.1	1055.82	-29793.1	0.000000	0.000000	7.880264	461.243	NaN	0.000000	0.001560	0.001786	28.0804	94.4493	0.001751	53927.5	5.091158	-8.087007	459.05	1.860971	0.105003	0.104756	461.243	53927.5	0.098588	0.299460	1540.25	90035.5