File: remote_trans/data/nanoindenter/0828-1/data/Data_2025-08-06,11h17m57s/2025-07-22_16-23-58_1_248.txt
2025-07-22, 16:23:58, 1
Index	Phase	Displacement	Time	Pos X	Pos Y	Pos Z	Rot A	Rot B	Piezo Z	Force A	Force B	Gripper	Voltage A	Voltage B	Temperature	Amplitude force	Amplitude pos	Stiffness	Phase shift	Phase excitation	Force A raw	Displacement raw	HMax	HMax raw	Real Force	Real Stiffness	Contact Depth	Area	Hardness	Reduced Mod.
[#]	[#]	[um]	[s]	[um]	[um]	[um]	[m°]	[m°]	[um]	[uN]	[uN]	[V]	[V]	[V]	[°C]	[uN]	[um]	[N/m]	[°]	[°]	[uN]	[um]	[um]	[um]	[uN]	[N/m]	[um]	[um^2]	[MPa]	[MPa]
248	1.000000	0.002754	7.36747e+06	-51039.1	955.819	-29754.1	0.000000	0.000000	6.002834	-0.010112	NaN	0.000000	0.001645	0.001701	28.0785	0.080100	0.000994	80.6125	-72.3298	-162.592	-0.001205	0.001429	-0.979771	-0.981096	-0.010112	80.6125	-0.979676	-1.207958E+13	8.371522E-16	NaN
248	1.000000	0.010677	7.36747e+06	-51039.1	955.818	-29754.1	0.000000	0.000000	6.010763	0.130811	NaN	0.000000	0.001634	0.001740	28.0787	0.093105	0.001014	91.8094	-28.4362	-167.296	0.141858	0.009435	-0.971848	-0.973090	0.130811	91.8094	-0.972916	-9.794120E+12	-1.335606E-14	NaN
248	1.000000	0.018686	7.36747e+06	-51039.1	955.818	-29754.1	0.000000	0.000000	6.018768	0.039131	NaN	0.000000	0.001658	0.001707	28.0787	0.009294	0.001683	5.522058	-117.084	-167.327	0.054017	0.017405	-0.963839	-0.965120	0.039131	5.522058	-0.969153	-8.714697E+12	-4.490235E-15	NaN
248	1.000000	0.026722	7.36747e+06	-51039.1	955.817	-29754.1	0.000000	0.000000	6.026800	-0.050765	NaN	0.000000	0.001671	0.001642	28.0788	0.102887	0.001874	54.8947	114.984	-164.23	-0.065065	0.025383	-0.955803	-0.957142	-0.050765	54.8947	-0.955110	-5.635506E+12	9.008001E-15	NaN
248	1.000000	0.034648	7.36747e+06	-51039.1	955.819	-29754.1	0.000000	0.000000	6.034727	-0.027140	NaN	0.000000	0.001667	0.001670	28.0787	0.010523	0.001907	5.517022	5.427631	-164.324	0.010896	0.033356	-0.947877	-0.949169	-0.027140	5.517022	-0.944188	-4.014506E+12	6.760477E-15	NaN
248	1.000000	0.042679	7.36747e+06	-51039.1	955.819	-29754.1	0.000000	0.000000	6.042763	0.083712	NaN	0.000000	0.001678	0.001661	28.0792	0.092650	0.002061	44.9602	-95.7257	-166.497	0.081498	0.041376	-0.939846	-0.941149	0.083712	44.9602	-0.941242	-3.663528E+12	-2.284999E-14	NaN
248	1.000000	0.050664	7.36747e+06	-51039.1	955.818	-29754.1	0.000000	0.000000	6.050745	0.005771	NaN	0.000000	0.001667	0.001673	28.0788	0.113091	0.002039	55.4636	148.649	-162.265	0.009834	0.049332	-0.931861	-0.933192	0.005771	55.4636	-0.931939	-2.743850E+12	-2.103426E-15	NaN
248	1.000000	0.058705	7.36747e+06	-51039.1	955.819	-29754.1	0.000000	0.000000	6.058787	0.038285	NaN	0.000000	0.001649	0.001661	28.0787	0.024716	0.002058	12.0072	-121.297	-163.718	-0.035385	0.057381	-0.923820	-0.925144	0.038285	12.0072	-0.926212	-2.296484E+12	-1.667130E-14	NaN
248	1.000000	0.066671	7.36747e+06	-51039.1	955.819	-29754.1	0.000000	0.000000	6.066754	0.060677	NaN	0.000000	0.001647	0.001700	28.0792	0.061603	0.002032	30.3172	-139.963	-162.519	-0.017537	0.065356	-0.915853	-0.917168	0.060677	30.3172	-0.917354	-1.743752E+12	-3.479658E-14	NaN
248	1.000000	0.074665	7.36747e+06	-51039.1	955.817	-29754.1	0.000000	0.000000	6.074747	0.039814	NaN	0.000000	0.001666	0.001695	28.0789	0.029830	0.002021	14.7591	132.799	-165.759	0.051798	0.073357	-0.907860	-0.909168	0.039814	14.7591	-0.909883	-1.382241E+12	-2.880371E-14	NaN
248	1.000000	0.082691	7.36747e+06	-51039.1	955.817	-29754.1	0.000000	0.000000	6.082772	0.012879	NaN	0.000000	0.001676	0.001681	28.0791	0.049389	0.002059	23.9862	-145.876	-165.548	0.018747	0.081352	-0.899834	-0.901172	0.012879	23.9862	-0.900237	-1.023925E+12	-1.257844E-14	NaN
248	1.000000	0.090670	7.36747e+06	-51039.1	955.819	-29754.1	0.000000	0.000000	6.090747	-0.071401	NaN	0.000000	0.001656	0.001690	28.0787	0.125115	0.002077	60.247	-13.6233	-163.415	-0.068924	0.089349	-0.891855	-0.893175	-0.071401	60.247	-0.890966	-7.673240E+11	9.305174E-14	NaN
248	1.000000	0.098680	7.36747e+06	-51039.1	955.819	-29754.1	0.000000	0.000000	6.098758	-0.041426	NaN	0.000000	0.001670	0.001711	28.0787	0.095073	0.001915	49.6385	-1.292557	-167.624	0.049923	0.097290	-0.883845	-0.885235	-0.041426	49.6385	-0.883219	-6.028949E+11	6.871241E-14	NaN
248	1.000000	0.106700	7.36748e+06	-51039.1	955.817	-29754.1	0.000000	0.000000	6.106785	0.104837	NaN	0.000000	0.001662	0.001679	28.0792	0.078295	0.001992	39.3087	-21.6114	-163.871	0.091860	0.105352	-0.875825	-0.877173	0.104837	39.3087	-0.877825	-5.096710E+11	-2.056948E-13	NaN
248	1.000000	0.114701	7.36748e+06	-51039.1	955.818	-29754.1	0.000000	0.000000	6.114781	-0.008599	NaN	0.000000	0.001631	0.001700	28.0788	0.099585	0.001955	50.9395	30.139	-164.546	0.065123	0.113347	-0.867824	-0.869178	-0.008599	50.9395	-0.867697	-3.717833E+11	2.312812E-14	NaN
248	1.000000	0.122683	7.36748e+06	-51039.1	955.819	-29754.1	0.000000	0.000000	6.122766	0.060820	NaN	0.000000	0.001709	0.001673	28.0787	0.101427	0.002092	48.4733	-126.052	-167.593	0.023875	0.121405	-0.859842	-0.861120	0.060820	48.4733	-0.860783	-2.997187E+11	-2.029247E-13	NaN
248	1.000000	0.130730	7.36748e+06	-51039.1	955.818	-29754.1	0.000000	0.000000	6.130809	-0.049645	NaN	0.000000	0.001700	0.001675	28.0786	0.032580	0.002057	15.8425	-22.3044	-165.076	-0.004321	0.129419	-0.851795	-0.853106	-0.049645	15.8425	-0.849444	-2.104815E+11	2.358628E-13	NaN
248	1.000000	0.138675	7.36748e+06	-51039.1	955.818	-29754.1	0.000000	0.000000	6.138754	-0.029878	NaN	0.000000	0.001712	0.001669	28.0784	0.024316	0.001984	12.2568	122.604	-168.778	-0.065359	0.137368	-0.843850	-0.845157	-0.029878	12.2568	-0.842022	-1.669860E+11	1.789279E-13	NaN
248	1.000000	0.146719	7.36748e+06	-51039.1	955.819	-29754.1	0.000000	0.000000	6.146799	-0.004339	NaN	0.000000	0.001671	0.001651	28.0777	0.108755	0.002010	54.1003	56.4863	-167.625	0.015598	0.145362	-0.835806	-0.837162	-0.004339	54.1003	-0.835746	-1.372949E+11	3.160035E-14	NaN
248	1.000000	0.154695	7.36748e+06	-51039.1	955.818	-29754.1	0.000000	0.000000	6.154777	0.030762	NaN	0.000000	0.001691	0.001680	28.0778	0.013450	0.001873	7.182389	-155.004	-166.472	0.050767	0.153395	-0.827829	-0.829129	0.030762	7.182389	-0.831042	-1.185501E+11	-2.594844E-13	NaN
248	1.000000	0.162691	7.36748e+06	-51039.1	955.818	-29754.1	0.000000	0.000000	6.162771	-0.013738	NaN	0.000000	0.001672	0.001686	28.0778	0.049286	0.002013	24.4879	-91.9235	-164.811	0.010104	0.161333	-0.819834	-0.821192	-0.013738	24.4879	-0.819413	-8.246088E+10	1.665991E-13	NaN
248	1.000000	0.170715	7.36748e+06	-51039.1	955.819	-29754.1	0.000000	0.000000	6.170794	-0.040787	NaN	0.000000	0.001617	0.001675	28.0776	0.065428	0.002080	31.4576	-177.818	-165.944	-0.067229	0.169417	-0.811810	-0.813108	-0.040787	31.4576	-0.810838	-6.308633E+10	6.465245E-13	NaN
248	1.000000	0.178724	7.36748e+06	-51039.1	955.817	-29754.1	0.000000	0.000000	6.178804	-0.008367	NaN	0.000000	0.001692	0.001690	28.0776	0.091546	0.001971	46.4552	177.577	-166.54	-0.028575	0.177387	-0.803801	-0.805138	-0.008367	46.4552	-0.803666	-5.042149E+10	1.659446E-13	NaN
248	1.000000	0.186734	7.36748e+06	-51039.1	955.819	-29754.1	0.000000	0.000000	6.186813	-0.024760	NaN	0.000000	0.001675	0.001672	28.0776	0.091708	0.002000	45.8519	-83.4433	-164.599	0.043985	0.185437	-0.795791	-0.797088	-0.024760	45.8519	-0.795386	-3.892462E+10	6.361093E-13	NaN
248	1.000000	0.194727	7.36748e+06	-51039.1	955.818	-29754.1	0.000000	0.000000	6.194808	0.013967	NaN	0.000000	0.001695	0.001700	28.078	0.080071	0.001997	40.0969	59.8888	-167.583	0.054701	0.193427	-0.787797	-0.789098	0.013967	40.0969	-0.788059	-3.095397E+10	-4.512256E-13	NaN
248	1.000000	0.202727	7.36748e+06	-51039.1	955.817	-29754.1	0.000000	0.000000	6.202807	-0.007360	NaN	0.000000	0.001654	0.001700	28.0776	0.163901	0.001964	83.4618	-90.5407	-163.213	-0.034250	0.201412	-0.779798	-0.781113	-0.007360	83.4618	-0.779732	-2.385546E+10	3.085212E-13	NaN
248	1.000000	0.210729	7.36748e+06	-51039.1	955.817	-29754.1	0.000000	0.000000	6.210809	-0.004138	NaN	0.000000	0.001667	0.001749	28.0778	0.068392	0.002025	33.7722	-61.6657	-164.612	0.012511	0.209420	-0.771796	-0.773105	-0.004138	33.7722	-0.771704	-1.855539E+10	2.230002E-13	NaN
248	1.000000	0.218723	7.36748e+06	-51039.1	955.818	-29754.1	0.000000	0.000000	6.218805	0.037728	NaN	0.000000	0.001692	0.001711	28.0779	0.159492	0.002088	76.3907	70.6938	-167.725	-0.066669	0.217367	-0.763802	-0.765158	0.037728	76.3907	-0.764173	-1.465757E+10	-2.573959E-12	NaN
248	1.000000	0.226763	7.36748e+06	-51039.1	955.818	-29754.1	0.000000	0.000000	6.226845	0.033556	NaN	0.000000	0.001674	0.001718	28.0778	0.074095	0.002055	36.0602	158.165	-165.68	0.015755	0.225398	-0.755762	-0.757127	0.033556	36.0602	-0.756460	-1.151155E+10	-2.915003E-12	NaN
248	1.000000	0.234741	7.36748e+06	-51039.1	955.817	-29754.1	0.000000	0.000000	6.234820	-0.028353	NaN	0.000000	0.001687	0.001746	28.0777	0.044385	0.001992	22.2775	-102.152	-165.416	0.030698	0.233408	-0.747784	-0.749117	-0.028353	22.2775	-0.746829	-8.512465E+9	3.330783E-12	NaN
248	1.000000	0.242770	7.36748e+06	-51039.1	955.818	-29754.1	0.000000	0.000000	6.242849	-0.039876	NaN	0.000000	0.001709	0.001705	28.0777	0.071954	0.002030	35.4441	-133.947	-165.05	-0.046172	0.241383	-0.739755	-0.741142	-0.039876	35.4441	-0.738911	-6.640819E+9	6.004670E-12	NaN
248	1.000000	0.250761	7.36748e+06	-51039.1	955.817	-29754.1	0.000000	0.000000	6.250842	0.017166	NaN	0.000000	0.001686	0.001698	28.0782	0.086768	0.001996	43.4734	51.4308	-167.764	0.027665	0.249398	-0.731764	-0.733127	0.017166	43.4734	-0.732060	-5.356485E+9	-3.204749E-12	NaN
248	1.000000	0.258746	7.36748e+06	-51039.1	955.818	-29754.1	0.000000	0.000000	6.258828	0.048232	NaN	0.000000	0.001680	0.001678	28.0779	0.030996	0.001938	15.996	-177.283	-163.847	0.036451	0.257426	-0.723779	-0.725099	0.048232	15.996	-0.726041	-4.434428E+9	-1.087673E-11	NaN
248	1.000000	0.266761	7.36748e+06	-51039.1	955.818	-29754.1	0.000000	0.000000	6.266843	0.016959	NaN	0.000000	0.001626	0.001673	28.0779	0.045209	0.002119	21.3347	19.9035	-165.288	-0.013577	0.265488	-0.715763	-0.717037	0.016959	21.3347	-0.716360	-3.272044E+9	-5.183017E-12	NaN
248	1.000000	0.274764	7.36748e+06	-51039.1	955.817	-29754.1	0.000000	0.000000	6.274843	-0.047673	NaN	0.000000	0.001663	0.001680	28.078	0.054696	0.002042	26.7864	-165.069	-168.125	-0.021213	0.273470	-0.707761	-0.709055	-0.047673	26.7864	-0.706426	-2.394778E+9	1.990716E-11	NaN
248	1.000000	0.282756	7.36748e+06	-51039.1	955.818	-29754.1	0.000000	0.000000	6.282836	-0.020949	NaN	0.000000	0.001631	0.001656	28.079	0.092259	0.001983	46.5332	-176.41	-165.734	-0.032184	0.281444	-0.699768	-0.701080	-0.020949	46.5332	-0.699431	-1.922019E+9	1.089940E-11	NaN
248	1.000000	0.290753	7.36748e+06	-51039.1	955.818	-29754.1	0.000000	0.000000	6.290836	0.058879	NaN	0.000000	0.001664	0.001685	28.0792	0.016181	0.002015	8.030614	84.1121	-166.864	-0.078927	0.289440	-0.691771	-0.693085	0.058879	8.030614	-0.697270	-1.795766E+9	-3.278783E-11	NaN
248	1.000000	0.298772	7.36748e+06	-51039.1	955.817	-29754.1	0.000000	0.000000	6.298853	0.021448	NaN	0.000000	0.001644	0.001667	28.0791	0.020202	0.001940	10.4121	-128.045	-168.67	0.034153	0.297468	-0.683753	-0.685056	0.021448	10.4121	-0.685298	-1.232098E+9	-1.740802E-11	NaN
248	1.000000	0.306786	7.36748e+06	-51039.1	955.818	-29754.1	0.000000	0.000000	6.306867	0.021708	NaN	0.000000	0.001639	0.001678	28.0793	0.113640	0.002055	55.3097	82.253	-167.06	0.120271	0.305486	-0.675739	-0.677039	0.021708	55.3097	-0.676034	-9.203488E+8	-2.358702E-11	NaN
248	1.000000	0.314799	7.36748e+06	-51039.1	955.819	-29754.1	0.000000	0.000000	6.314881	0.043798	NaN	0.000000	0.001698	0.001661	28.0793	0.096510	0.002031	47.5087	27.5163	-171.75	-0.024730	0.313483	-0.667726	-0.669042	0.043798	47.5087	-0.668417	-7.239772E+8	-6.049592E-11	NaN
248	1.000000	0.322809	7.36748e+06	-51039.1	955.817	-29754.1	0.000000	0.000000	6.322891	0.046453	NaN	0.000000	0.001699	0.001674	28.0793	0.011500	0.002020	5.692660	102.46	-164.583	0.060346	0.321489	-0.659716	-0.661036	0.046453	5.692660	-0.665836	-6.674122E+8	-6.960155E-11	NaN
248	1.000000	0.330809	7.36748e+06	-51039.1	955.817	-29754.1	0.000000	0.000000	6.330889	-0.006166	NaN	0.000000	0.001597	0.001672	28.0792	0.089991	0.001977	45.5088	145.516	-165.425	-0.008754	0.329464	-0.651716	-0.653061	-0.006166	45.5088	-0.651614	-4.261539E+8	1.446892E-11	NaN
248	1.000000	0.338802	7.36748e+06	-51039.1	955.817	-29754.1	0.000000	0.000000	6.338883	0.013511	NaN	0.000000	0.001629	0.001658	28.0792	0.009045	0.001971	4.588229	18.9104	-165.454	0.017196	0.337519	-0.643722	-0.645006	0.013511	4.588229	-0.645931	-3.561597E+8	-3.793453E-11	NaN
248	1.000000	0.346828	7.36748e+06	-51039.1	955.818	-29754.1	0.000000	0.000000	6.346909	-0.000539	NaN	0.000000	0.001685	0.001668	28.0793	0.074788	0.002008	37.2469	-45.0626	-168.368	0.014611	0.345470	-0.635697	-0.637055	-0.000539	37.2469	-0.635686	-2.576827E+8	2.091768E-12	NaN
248	1.000000	0.354780	7.36748e+06	-51039.1	955.818	-29754.1	0.000000	0.000000	6.354859	-0.032807	NaN	0.000000	0.001644	0.001670	28.0792	0.128673	0.001945	66.1437	62.6735	-164.176	-0.079681	0.353505	-0.627745	-0.629020	-0.032807	66.1437	-0.627373	-1.981260E+8	1.655844E-10	NaN
248	1.000000	0.362790	7.36748e+06	-51039.1	955.817	-29754.1	0.000000	0.000000	6.362870	-0.021609	NaN	0.000000	0.001606	0.001706	28.0792	0.100128	0.002014	49.7145	32.2499	-164.524	0.033364	0.361483	-0.619734	-0.621042	-0.021609	49.7145	-0.619408	-1.539929E+8	1.403220E-10	NaN
248	1.000000	0.370788	7.36748e+06	-51039.1	955.819	-29754.1	0.000000	0.000000	6.370868	-0.010212	NaN	0.000000	0.001613	0.001695	28.079	0.053984	0.001975	27.3295	-24.601	-164.282	-0.016408	0.369460	-0.611737	-0.613065	-0.010212	27.3295	-0.611457	-1.197179E+8	8.530326E-11	NaN
248	1.000000	0.378784	7.36748e+06	-51039.1	955.819	-29754.1	0.000000	0.000000	6.378860	-0.111622	NaN	0.000000	0.001583	0.001702	28.0788	0.075709	0.002087	36.27	-14.2342	-164.285	-0.101759	0.377494	-0.603740	-0.605031	-0.111622	36.27	-0.601432	-8.713362E+7	1.281039E-9	NaN
248	1.000000	0.386793	7.36748e+06	-51039.1	955.819	-29754.1	0.000000	0.000000	6.386873	-0.021945	NaN	0.000000	0.001613	0.001700	28.0788	0.057015	0.002006	28.4168	167.77	-166.334	0.028009	0.385471	-0.595732	-0.597054	-0.021945	28.4168	-0.595153	-7.139758E+7	3.073604E-10	NaN
248	1.000000	0.394817	7.36748e+06	-51039.1	955.817	-29754.1	0.000000	0.000000	6.394896	-0.028189	NaN	0.000000	0.001607	0.001692	28.0788	0.063566	0.001964	32.3612	145.868	-166.689	0.017148	0.393525	-0.587708	-0.589000	-0.028189	32.3612	-0.587055	-5.521517E+7	5.105319E-10	NaN
248	1.000000	0.402787	7.36748e+06	-51039.1	955.818	-29754.1	0.000000	0.000000	6.402868	0.011584	NaN	0.000000	0.001593	0.001697	28.0789	0.018042	0.001883	9.582291	-149.789	-167.203	-0.064464	0.401430	-0.579738	-0.581095	0.011584	9.582291	-0.580644	-4.504211E+7	-2.571756E-10	NaN
248	1.000000	0.410794	7.36748e+06	-51039.1	955.818	-29754.1	0.000000	0.000000	6.410875	0.027172	NaN	0.000000	0.001615	0.001742	28.0791	0.046070	0.001995	23.0897	-140.788	-165.837	0.020222	0.409485	-0.571731	-0.573040	0.027172	23.0897	-0.572614	-3.489343E+7	-7.787181E-10	NaN
248	1.000000	0.418827	7.36748e+06	-51039.1	955.818	-29754.1	0.000000	0.000000	6.418906	-0.036690	NaN	0.000000	0.001597	0.001745	28.0778	0.170213	0.002000	85.1203	123.229	-163.386	-0.024283	0.417502	-0.563698	-0.565023	-0.036690	85.1203	-0.563375	-2.600487E+7	1.410884E-9	NaN
248	1.000000	0.426872	7.36748e+06	-51039.1	955.818	-29754.1	0.000000	0.000000	6.426955	0.061765	NaN	0.000000	0.001601	0.001752	28.0778	0.100033	0.001891	52.9066	-35.4366	-165.358	0.134102	0.425513	-0.555653	-0.557012	0.061765	52.9066	-0.556529	-2.090976E+7	-2.953867E-9	NaN
248	1.000000	0.434844	7.36748e+06	-51039.1	955.818	-29754.1	0.000000	0.000000	6.434922	-0.047279	NaN	0.000000	0.001584	0.001717	28.0779	0.068835	0.001964	35.0524	87.9157	-164.051	-0.001679	0.433539	-0.547681	-0.548985	-0.047279	35.0524	-0.546670	-1.526929E+7	3.096339E-9	NaN
248	1.000000	0.442839	7.36748e+06	-51039.1	955.818	-29754.1	0.000000	0.000000	6.442918	-0.034038	NaN	0.000000	0.001605	0.001728	28.0782	0.055802	0.002029	27.5088	-102.531	-163.783	-0.026771	0.441515	-0.539686	-0.541009	-0.034038	27.5088	-0.538758	-1.186132E+7	2.869659E-9	NaN
248	1.000000	0.450871	7.36748e+06	-51039.1	955.818	-29754.1	0.000000	0.000000	6.450952	0.011760	NaN	0.000000	0.001599	0.001641	28.0781	0.054317	0.002137	25.4184	94.1253	-164.062	0.009872	0.449553	-0.531654	-0.532972	0.011760	25.4184	-0.532001	-9.55788e+06	-1.230355E-9	NaN
248	1.000000	0.458813	7.36748e+06	-51039.1	955.818	-29754.1	0.000000	0.000000	6.458895	0.023577	NaN	0.000000	0.001624	0.001682	28.0778	0.085344	0.001939	44.0209	-101.903	-162.743	0.051689	0.457520	-0.523712	-0.525005	0.023577	44.0209	-0.524113	-7.42653e+06	-3.174651E-9	NaN
248	1.000000	0.466841	7.36748e+06	-51039.1	955.818	-29754.1	0.000000	0.000000	6.466922	0.031418	NaN	0.000000	0.001627	0.001676	28.0776	0.096479	0.001995	48.3563	168.772	-167.247	-0.022813	0.465485	-0.515684	-0.517040	0.031418	48.3563	-0.516172	-5.75887e+06	-5.455521E-9	NaN
248	1.000000	0.474803	7.36748e+06	-51039.1	955.817	-29754.1	0.000000	0.000000	6.474882	-0.027495	NaN	0.000000	0.001604	0.001705	28.0776	0.054455	0.002018	26.983	-27.5012	-169.502	0.008032	0.473526	-0.507722	-0.508999	-0.027495	26.983	-0.506958	-4.28579e+06	6.415368E-9	NaN
248	1.000000	0.482879	7.36748e+06	-51039.1	955.818	-29754.1	0.000000	0.000000	6.482959	-0.005616	NaN	0.000000	0.001638	0.001681	28.0778	0.142911	0.001955	73.0978	144.868	-162.118	-0.024759	0.481544	-0.499646	-0.500981	-0.005616	73.0978	-0.499588	-3.3828e+06	1.660211E-9	NaN
248	1.000000	0.490901	7.36748e+06	-51039.1	955.818	-29754.1	0.000000	0.000000	6.490982	0.002362	NaN	0.000000	0.001687	0.001677	28.0779	0.030463	0.002144	14.2069	-174.335	-165.038	0.047769	0.489505	-0.491624	-0.493020	0.002362	14.2069	-0.491749	-2.6292e+06	-8.985564E-10	NaN
248	1.000000	0.498865	7.36748e+06	-51039.1	955.818	-29754.1	0.000000	0.000000	6.498948	0.057672	NaN	0.000000	0.001657	0.001688	28.0779	0.036048	0.002006	17.9731	77.5051	-169.089	-0.018619	0.497519	-0.483660	-0.485006	0.057672	17.9731	-0.486066	-2.18979e+06	-2.633690E-8	NaN
248	1.000000	0.506830	7.36748e+06	-51039.1	955.816	-29754.1	0.000000	0.000000	6.506910	-0.005512	NaN	0.000000	0.001663	0.001703	28.0779	0.054388	0.002104	25.8544	85.4235	-162.702	-0.045365	0.505550	-0.475695	-0.476975	-0.005512	25.8544	-0.475535	-1.55955e+06	3.534644E-9	NaN
248	1.000000	0.514857	7.36748e+06	-51039.1	955.819	-29754.1	0.000000	0.000000	6.514939	0.023475	NaN	0.000000	0.001665	0.001671	28.0777	0.013775	0.002094	6.577967	-175.384	-164.401	0.080505	0.513529	-0.467668	-0.468996	0.023475	6.577967	-0.470344	-1.31897e+06	-1.779764E-8	NaN
248	1.000000	0.522860	7.36748e+06	-51039.1	955.818	-29754.1	0.000000	0.000000	6.522944	0.088532	NaN	0.000000	0.001676	0.001671	28.0776	0.069352	0.001853	37.426	-101.641	-167.354	0.037756	0.521595	-0.459665	-0.460930	0.088532	37.426	-0.461439	-989086	-8.950860E-8	NaN
248	1.000000	0.530860	7.36748e+06	-51039.1	955.818	-29754.1	0.000000	0.000000	6.530941	0.010268	NaN	0.000000	0.001712	0.001727	28.0776	0.153370	0.001797	85.3324	18.1669	-168.666	-0.067658	0.529575	-0.451665	-0.452949	0.010268	85.3324	-0.451755	-722852	-1.420525E-8	NaN
248	1.000000	0.538910	7.36748e+06	-51039.1	955.818	-29754.1	0.000000	0.000000	6.538991	0.031656	NaN	0.000000	0.001693	0.001665	28.0779	0.114553	0.001954	58.6186	50.7928	-165.651	-0.022120	0.537569	-0.443615	-0.444955	0.031656	58.6186	-0.444020	-562442	-5.628306E-8	NaN
248	1.000000	0.546864	7.36748e+06	-51039.1	955.818	-29754.1	0.000000	0.000000	6.546944	-0.005464	NaN	0.000000	0.001681	0.001662	28.0779	0.156595	0.002041	76.7404	-177.407	-163.457	-0.011937	0.545601	-0.435661	-0.436924	-0.005464	76.7404	-0.435608	-427898	1.276923E-8	NaN
248	1.000000	0.554879	7.36748e+06	-51039.1	955.819	-29754.1	0.000000	0.000000	6.554959	-0.009526	NaN	0.000000	0.001640	0.001651	28.0791	0.036270	0.001988	18.2444	80.5003	-169.304	0.021773	0.553572	-0.427646	-0.428953	-0.009526	18.2444	-0.427254	-325987	2.922167E-8	NaN
248	1.000000	0.562883	7.36748e+06	-51039.1	955.817	-29754.1	0.000000	0.000000	6.562964	0.018340	NaN	0.000000	0.001659	0.001668	28.0791	0.088370	0.001987	44.4632	13.1019	-168.813	0.030725	0.561543	-0.419642	-0.420982	0.018340	44.4632	-0.419951	-256874	-7.139623E-8	NaN
248	1.000000	0.570888	7.36748e+06	-51039.1	955.818	-29754.1	0.000000	0.000000	6.570970	0.028176	NaN	0.000000	0.001631	0.001690	28.0791	0.039770	0.001978	20.1076	53.8785	-173.44	0.041093	0.569561	-0.411637	-0.412964	0.028176	20.1076	-0.412688	-202586	-1.390819E-7	NaN
248	1.000000	0.578894	7.36748e+06	-51039.1	955.818	-29754.1	0.000000	0.000000	6.578971	-0.069532	NaN	0.000000	0.001645	0.001684	28.0792	0.056196	0.001971	28.5069	-119.181	-166.67	0.020457	0.577555	-0.403631	-0.404970	-0.069532	28.5069	-0.401802	-141801	4.903459E-7	NaN
248	1.000000	0.586895	7.36748e+06	-51039.1	955.818	-29754.1	0.000000	0.000000	6.586976	0.016975	NaN	0.000000	0.001682	0.001674	28.0792	0.086945	0.002025	42.9335	108.291	-165.873	0.104681	0.585540	-0.395630	-0.396985	0.016975	42.9335	-0.395926	-116913	-1.451916E-7	NaN
248	1.000000	0.594906	7.36748e+06	-51039.1	955.818	-29754.1	0.000000	0.000000	6.594990	0.094223	NaN	0.000000	0.001669	0.001711	28.0792	0.044623	0.002022	22.0661	69.8177	-165.076	0.058374	0.593607	-0.387619	-0.388918	0.094223	22.0661	-0.390822	-98837.1	-9.533180E-7	NaN
248	1.000000	0.602901	7.36748e+06	-51039.1	955.818	-29754.1	0.000000	0.000000	6.602981	-0.015581	NaN	0.000000	0.001659	0.001699	28.0791	0.080588	0.002059	39.1437	135.155	-168.52	-0.069570	0.601614	-0.379624	-0.380911	-0.015581	39.1437	-0.379325	-67640.2	2.303444E-7	NaN
248	1.000000	0.610929	7.36748e+06	-51039.1	955.818	-29754.1	0.000000	0.000000	6.611010	-0.000465	NaN	0.000000	0.001657	0.001668	28.0791	0.035106	0.002010	17.4643	-122.557	-164.021	-0.045479	0.609597	-0.371596	-0.372928	-0.000465	17.4643	-0.371576	-52337.4	8.886971E-9	NaN
248	1.000000	0.618915	7.36748e+06	-51039.1	955.818	-29754.1	0.000000	0.000000	6.618996	0.010943	NaN	0.000000	0.001666	0.001656	28.0791	0.126300	0.001856	68.0332	-27.5153	-167.738	-0.045731	0.617594	-0.363610	-0.364931	0.010943	68.0332	-0.363731	-40339.9	-2.712767E-7	NaN
248	1.000000	0.626914	7.36748e+06	-51039.1	955.817	-29754.1	0.000000	0.000000	6.626995	0.010336	NaN	0.000000	0.001691	0.001638	28.0789	0.143681	0.002108	68.1526	-53.7709	-164.37	0.005358	0.625562	-0.355611	-0.356962	0.010336	68.1526	-0.355725	-30902.6	-3.344685E-7	NaN
248	1.000000	0.634911	7.36748e+06	-51039.1	955.818	-29754.1	0.000000	0.000000	6.634988	-0.084482	NaN	0.000000	0.001680	0.001679	28.0791	0.104818	0.001955	53.6018	-62.3478	-168.572	-0.053152	0.633561	-0.347613	-0.348963	-0.084482	53.6018	-0.346431	-22655.2	3.729031E-6	NaN
248	1.000000	0.642906	7.36748e+06	-51039.1	955.817	-29754.1	0.000000	0.000000	6.642986	-0.023456	NaN	0.000000	0.001641	0.001685	28.0795	0.067823	0.001989	34.0916	153.957	-168.81	0.049140	0.641586	-0.339619	-0.340939	-0.023456	34.0916	-0.339103	-17720.4	1.323696E-6	NaN
248	1.000000	0.650950	7.36748e+06	-51039.1	955.819	-29754.1	0.000000	0.000000	6.651031	0.030676	NaN	0.000000	0.001652	0.001718	28.0793	0.052273	0.002064	25.3232	-22.4509	-164.399	0.076603	0.649573	-0.331575	-0.332952	0.030676	25.3232	-0.332484	-14184.1	-2.162708E-6	NaN
248	1.000000	0.658925	7.36748e+06	-51039.1	955.819	-29754.1	0.000000	0.000000	6.659003	-0.064886	NaN	0.000000	0.001664	0.001687	28.0789	0.078793	0.002072	38.0194	2.162573	-168.351	-0.055289	0.657572	-0.323600	-0.324953	-0.064886	38.0194	-0.322320	-10063.9	6.447409E-6	NaN
248	1.000000	0.666930	7.36748e+06	-51039.1	955.818	-29754.1	0.000000	0.000000	6.667011	0.003127	NaN	0.000000	0.001671	0.001678	28.0787	0.146510	0.001927	76.041	-4.789855	-168.373	0.001964	0.665564	-0.315595	-0.316961	0.003127	76.041	-0.315626	-8020.08	-3.899565E-7	NaN
248	1.000000	0.674944	7.36748e+06	-51039.1	955.818	-29754.1	0.000000	0.000000	6.675022	-0.048630	NaN	0.000000	0.001610	0.001670	28.0786	0.032165	0.001945	16.5405	-30.5056	-168.807	-0.075842	0.673616	-0.307581	-0.308908	-0.048630	16.5405	-0.305376	-5656.38	8.597340E-6	NaN
248	1.000000	0.682936	7.36748e+06	-51039.1	955.817	-29754.1	0.000000	0.000000	6.683018	0.042504	NaN	0.000000	0.001632	0.001661	28.0789	0.095756	0.001999	47.9036	77.6596	-169.587	0.003261	0.681569	-0.299589	-0.300956	0.042504	47.9036	-0.300254	-4746.99	-8.953827E-6	NaN
248	1.000000	0.690935	7.36748e+06	-51039.1	955.819	-29754.1	0.000000	0.000000	6.691017	0.034850	NaN	0.000000	0.001643	0.001660	28.0776	0.077005	0.002026	38.0033	-100.622	-165.063	0.038004	0.689624	-0.291590	-0.292900	0.034850	38.0033	-0.292278	-3609.1	-9.656026E-6	NaN
248	1.000000	0.698937	7.36748e+06	-51039.1	955.818	-29754.1	0.000000	0.000000	6.699018	0.001813	NaN	0.000000	0.001642	0.001677	28.0774	0.134632	0.002107	63.8854	-121.301	-169.781	0.032303	0.697664	-0.283587	-0.284861	0.001813	63.8854	-0.283609	-2675.11	-6.778079E-7	NaN
248	1.000000	0.706928	7.36748e+06	-51039.1	955.818	-29754.1	0.000000	0.000000	6.707005	-0.086082	NaN	0.000000	0.001666	0.001677	28.078	0.047310	0.002015	23.4747	-162.588	-167.99	-0.085503	0.705630	-0.275597	-0.276895	-0.086082	23.4747	-0.272846	-1839.76	4.678990E-5	NaN
248	1.000000	0.714946	7.36748e+06	-51039.1	955.818	-29754.1	0.000000	0.000000	6.715028	0.035989	NaN	0.000000	0.001657	0.001648	28.0776	0.043115	0.001989	21.6777	92.4539	-168.733	-0.025387	0.713672	-0.267579	-0.268852	0.035989	21.6777	-0.268824	-1598.3	-2.251674E-5	NaN
248	1.000000	0.722961	7.36748e+06	-51039.1	955.818	-29754.1	0.000000	0.000000	6.723040	-0.036109	NaN	0.000000	0.001623	0.001681	28.0777	0.047671	0.001959	24.3345	-101.704	-169.808	-0.054764	0.721643	-0.259564	-0.260882	-0.036109	24.3345	-0.258451	-1109.59	3.254259E-5	NaN
248	1.000000	0.730953	7.36748e+06	-51039.1	955.818	-29754.1	0.000000	0.000000	6.731032	-0.039303	NaN	0.000000	0.001607	0.001693	28.0776	0.076620	0.001979	38.724	-32.9329	-166.147	0.047154	0.729662	-0.251572	-0.252863	-0.039303	38.724	-0.250811	-846.255	4.644374E-5	NaN
248	1.000000	0.738944	7.36748e+06	-51039.1	955.817	-29754.1	0.000000	0.000000	6.739021	-0.075934	NaN	0.000000	0.001603	0.001671	28.0777	0.112301	0.002058	54.5575	7.172508	-166.226	-0.019254	0.737678	-0.243581	-0.244847	-0.075934	54.5575	-0.242537	-629.699	0.000121	NaN
248	1.000000	0.746942	7.36748e+06	-51039.1	955.818	-29754.1	0.000000	0.000000	6.747023	0.005413	NaN	0.000000	0.001602	0.001673	28.0779	0.061724	0.001988	31.0488	-107.877	-164.928	0.063414	0.745669	-0.235583	-0.236855	0.005413	31.0488	-0.235714	-492.552	-1.099005E-5	NaN
248	1.000000	0.754978	7.36748e+06	-51039.1	955.817	-29754.1	0.000000	0.000000	6.755058	0.003300	NaN	0.000000	0.001594	0.001640	28.0776	0.067651	0.001942	34.8432	-146.139	-165.37	0.073634	0.753622	-0.227547	-0.228903	0.003300	34.8432	-0.227618	-367.16	-8.988398E-6	NaN
248	1.000000	0.762982	7.36748e+06	-51039.1	955.817	-29754.1	0.000000	0.000000	6.763061	-0.043762	NaN	0.000000	0.001613	0.001619	28.0777	0.021094	0.001961	10.7547	22.1985	-164.971	0.005295	0.761699	-0.219543	-0.220826	-0.043762	10.7547	-0.216491	-244.047	0.000179	NaN
248	1.000000	0.770994	7.36748e+06	-51039.1	955.817	-29754.1	0.000000	0.000000	6.771072	-0.070333	NaN	0.000000	0.001567	0.001668	28.0776	0.016301	0.002112	7.720034	166.571	-165.451	0.020266	0.769663	-0.211531	-0.212862	-0.070333	7.720034	-0.204698	-157.263	0.000447	NaN
248	1.000000	0.778969	7.36748e+06	-51039.1	955.819	-29754.1	0.000000	0.000000	6.779046	-0.067577	NaN	0.000000	0.001571	0.001672	28.0778	0.053314	0.001974	27.005	-46.7703	-166.219	-0.069118	0.777711	-0.203556	-0.204814	-0.067577	27.005	-0.201679	-140.366	0.000481	NaN
248	1.000000	0.786985	7.36748e+06	-51039.1	955.818	-29754.1	0.000000	0.000000	6.787064	-0.016568	NaN	0.000000	0.001586	0.001722	28.0778	0.071664	0.001985	36.1077	-159.336	-164.911	-0.065203	0.785684	-0.195540	-0.196841	-0.016568	36.1077	-0.195196	-109.762	0.000151	NaN
248	1.000000	0.794958	7.36748e+06	-51039.1	955.819	-29754.1	0.000000	0.000000	6.795036	-0.066287	NaN	0.000000	0.001586	0.001713	28.0776	0.044584	0.001899	23.4729	-93.7536	-166.064	0.022673	0.793601	-0.187567	-0.188924	-0.066287	23.4729	-0.185449	-75.4561	0.000878	NaN
248	1.000000	0.802992	7.36748e+06	-51039.1	955.818	-29754.1	0.000000	0.000000	6.803073	0.022734	NaN	0.000000	0.001565	0.001656	28.0777	0.096468	0.002092	46.1156	160.116	-167.505	0.010016	0.801668	-0.179533	-0.180857	0.022734	46.1156	-0.179903	-60.7867	-0.000374	NaN
248	1.000000	0.811005	7.36748e+06	-51039.1	955.818	-29754.1	0.000000	0.000000	6.811084	-0.036893	NaN	0.000000	0.001564	0.001685	28.0775	0.041243	0.002068	19.9467	120.298	-166.381	-0.023285	0.809746	-0.171520	-0.172779	-0.036893	19.9467	-0.170133	-41.2966	0.000893	NaN
248	1.000000	0.818969	7.36748e+06	-51039.1	955.818	-29754.1	0.000000	0.000000	6.819049	-0.006186	NaN	0.000000	0.001556	0.001682	28.0777	0.067730	0.001995	33.9517	-20.2632	-166.367	0.031874	0.817669	-0.163556	-0.164856	-0.006186	33.9517	-0.163419	-31.5131	0.000196	NaN
248	1.000000	0.826972	7.36748e+06	-51039.1	955.818	-29754.1	0.000000	0.000000	6.827055	0.055433	NaN	0.000000	0.001596	0.001620	28.0789	0.133794	0.001967	68.0336	121.52	-165.537	0.101413	0.825728	-0.155553	-0.156797	0.055433	68.0336	-0.156164	-23.4147	-0.002367	NaN
248	1.000000	0.834991	7.36748e+06	-51039.1	955.818	-29754.1	0.000000	0.000000	6.835070	-0.046664	NaN	0.000000	0.001551	0.001648	28.0787	0.067112	0.001954	34.3524	35.3056	-166.331	-0.006823	0.833695	-0.147533	-0.148830	-0.046664	34.3524	-0.146515	-15.636	0.002984	NaN
248	1.000000	0.843014	7.36748e+06	-51039.1	955.818	-29754.1	0.000000	0.000000	6.843097	0.047126	NaN	0.000000	0.001561	0.001642	28.0789	0.057977	0.002108	27.5052	-87.5037	-163.868	0.017509	0.841704	-0.139511	-0.140821	0.047126	27.5052	-0.140796	-12.2431	-0.003849	NaN
248	1.000000	0.850988	7.36748e+06	-51039.1	955.817	-29754.1	0.000000	0.000000	6.851067	-0.030607	NaN	0.000000	0.001587	0.001630	28.0789	0.052974	0.002089	25.3563	171.713	-166.916	0.016473	0.849742	-0.131537	-0.132783	-0.030607	25.3563	-0.130632	-7.839170	0.003904	NaN
248	1.000000	0.859026	7.36748e+06	-51039.1	955.818	-29754.1	0.000000	0.000000	6.859104	-0.072872	NaN	0.000000	0.001626	0.001664	28.0788	0.131973	0.002043	64.6129	136.419	-161.752	-0.010710	0.857648	-0.123498	-0.124877	-0.072872	64.6129	-0.122653	-5.461758	0.013342	NaN
248	1.000000	0.867017	7.36748e+06	-51039.1	955.817	-29754.1	0.000000	0.000000	6.867096	-0.046579	NaN	0.000000	0.001600	0.001668	28.0789	0.037343	0.001991	18.7534	-50.1241	-166.675	-0.004714	0.865728	-0.115508	-0.116797	-0.046579	18.7534	-0.113645	-3.581703	0.013005	NaN
248	1.000000	0.875010	7.36748e+06	-51039.1	955.817	-29754.1	0.000000	0.000000	6.875090	-0.010521	NaN	0.000000	0.001600	0.001648	28.0791	0.101057	0.001948	51.8831	171.091	-170.978	0.020814	0.873727	-0.107515	-0.108797	-0.010521	51.8831	-0.107363	-2.641871	0.003982	NaN
248	1.000000	0.883026	7.36748e+06	-51039.1	955.817	-29754.1	0.000000	0.000000	6.883107	-0.004310	NaN	0.000000	0.001587	0.001683	28.0787	0.021466	0.001981	10.8344	-166.459	-164.154	-0.042320	0.881695	-0.099498	-0.100830	-0.004310	10.8344	-0.099200	-1.753898	0.002457	NaN
248	1.000000	0.891011	7.36748e+06	-51039.1	955.818	-29754.1	0.000000	0.000000	6.891092	0.008350	NaN	0.000000	0.001616	0.001690	28.0787	0.078994	0.002040	38.7158	-169.131	-165.813	0.051154	0.889729	-0.091513	-0.092796	0.008350	38.7158	-0.091675	-1.182840	-0.007059	NaN
248	1.000000	0.899037	7.36748e+06	-51039.1	955.819	-29754.1	0.000000	0.000000	6.899116	-0.043090	NaN	0.000000	0.001647	0.001699	28.079	0.105069	0.001979	53.0915	167.088	-167.372	0.017804	0.897695	-0.083488	-0.084830	-0.043090	53.0915	-0.082879	-0.729456	0.059072	NaN
248	1.000000	0.907014	7.36748e+06	-51039.1	955.819	-29754.1	0.000000	0.000000	6.907094	-0.020498	NaN	0.000000	0.001615	0.001666	28.0789	0.063703	0.002013	31.6525	-172.62	-167.808	-0.018568	0.905739	-0.075510	-0.076786	-0.020498	31.6525	-0.075025	-0.462549	0.044315	NaN
248	1.000000	0.915030	7.36748e+06	-51039.1	955.818	-29754.1	0.000000	0.000000	6.915109	-0.025855	NaN	0.000000	0.001636	0.001679	28.0791	0.017937	0.002146	8.357915	-114.075	-164.637	-0.005668	0.913703	-0.067495	-0.068822	-0.025855	8.357915	-0.065175	-0.252016	0.102593	NaN
248	1.000000	0.923053	7.36748e+06	-51039.1	955.817	-29754.1	0.000000	0.000000	6.923132	-0.030236	NaN	0.000000	0.001636	0.001680	28.0786	0.097115	0.001975	49.1752	-63.8868	-162.149	-0.079283	0.921745	-0.059472	-0.060779	-0.030236	49.1752	-0.059011	-0.168671	0.179258	NaN
248	1.000000	0.931018	7.36748e+06	-51039.1	955.818	-29754.1	0.000000	0.000000	6.931099	0.006597	NaN	0.000000	0.001598	0.001654	28.0789	0.157246	0.001909	82.3888	50.1859	-166.689	-0.053355	0.929745	-0.051507	-0.052780	0.006597	82.3888	-0.051567	-0.101735	-0.064840	NaN
248	1.000000	0.939039	7.36748e+06	-51039.1	955.817	-29754.1	0.000000	0.000000	6.939118	-0.035100	NaN	0.000000	0.001628	0.001655	28.0791	0.062515	0.001987	31.4609	-127.077	-168.134	-0.062042	0.937713	-0.043486	-0.044812	-0.035100	31.4609	-0.042649	-0.054463	0.644467	NaN
248	1.000000	0.947055	7.36748e+06	-51039.1	955.819	-29754.1	0.000000	0.000000	6.947137	0.030746	NaN	0.000000	0.001625	0.001560	28.0802	0.057164	0.001877	30.4602	114.216	-167.646	0.024539	0.945757	-0.035470	-0.036768	0.030746	30.4602	-0.036227	-0.034817	-0.883084	NaN
248	1.000000	0.955025	7.36748e+06	-51039.1	955.818	-29754.1	0.000000	0.000000	6.955103	-0.058156	NaN	0.000000	0.001599	0.001630	28.0789	0.112007	0.001968	56.9076	103.232	-165.152	0.064747	0.953716	-0.027500	-0.028809	-0.058156	56.9076	-0.026733	-0.018744	3.102574	NaN
248	1.000000	0.963043	7.36748e+06	-51039.1	955.818	-29754.1	0.000000	0.000000	6.963124	0.000546	NaN	0.000000	0.001566	0.001626	28.0775	0.017780	0.001982	8.970571	77.4235	-164.105	0.062373	0.961733	-0.019482	-0.020792	0.000546	8.970571	-0.019527	-0.012218	-0.044716	NaN
248	1.000000	0.971041	7.36748e+06	-51039.1	955.819	-29754.1	0.000000	0.000000	6.971125	0.094287	NaN	0.000000	0.001616	0.001638	28.0777	0.062499	0.002017	30.9936	159.303	-165.938	0.059845	0.969714	-0.011484	-0.012810	0.094287	30.9936	-0.013766	-0.008546	-11.0326	NaN
248	1.000000	0.979044	7.36748e+06	-51039.1	955.818	-29754.1	0.000000	0.000000	6.979127	0.063791	NaN	0.000000	0.001627	0.001607	28.0777	0.145192	0.001890	76.8163	119.06	-166.571	0.061742	0.977735	-0.003481	-0.004790	0.063791	76.8163	-0.004104	-0.002846	-22.4158	NaN
248	1.000000	0.987036	7.36748e+06	-51039.1	955.82	-29754.1	0.000000	0.000000	6.987259	3.450717	NaN	0.000000	0.001658	0.001621	28.0773	4.286457	0.001935	2215.19	8.605897	-169.302	2.080973	0.985787	0.004511	0.003262	3.450717	2215.19	0.003343	0.002671	1292.03	39162.1
248	2.000000	0.992645	7.36748e+06	-51039.1	955.818	-29754.1	0.000000	0.000000	6.993166	10.7177	NaN	0.000000	0.001622	0.001609	28.0776	9.809498	0.001555	6309.11	2.546345	-168.55	10.2086	0.992335	0.010120	0.009810	10.7177	6309.11	0.008846	0.007927	1351.98	64740.6
248	2.000000	0.994644	7.36748e+06	-51039.1	955.819	-29754.1	0.000000	0.000000	6.995281	13.5285	NaN	0.000000	0.001633	0.001621	28.0774	13.0569	0.001868	6991.21	10.4758	-179.203	12.9469	0.994317	0.012119	0.011792	13.5285	6991.21	0.010668	0.009933	1361.99	64089.6
248	2.000000	0.996617	7.36748e+06	-51039.1	955.818	-29754.1	0.000000	0.000000	6.997382	16.6424	NaN	0.000000	0.001698	0.001640	28.078	14.0162	0.001709	8200.51	1.512764	-170.529	15.7882	0.996316	0.014092	0.013791	16.6424	8200.51	0.012570	0.012180	1366.36	67887.4
248	2.000000	0.998611	7.36748e+06	-51039.1	955.818	-29754.1	0.000000	0.000000	6.999439	18.1753	NaN	0.000000	0.001717	0.001640	28.0775	16.6041	0.001720	9653.41	1.621757	-172.704	18.3869	0.998276	0.016086	0.015752	18.1753	9653.41	0.014674	0.014853	1223.64	72366.9
248	2.000000	1.000615	7.36748e+06	-51039.1	955.817	-29754.1	0.000000	0.000000	7.001699	24.4161	NaN	0.000000	0.001691	0.001640	28.0774	19.6983	0.001901	10362.9	7.710231	-177.645	24.7255	1.000263	0.018090	0.017738	24.4161	10362.9	0.016323	0.017090	1428.69	72424.7
248	2.000000	1.002566	7.36748e+06	-51039.1	955.818	-29754.1	0.000000	0.000000	7.003912	30.7772	NaN	0.000000	0.001652	0.001628	28.0779	20.5515	0.001743	11792.6	4.873912	-178.202	29.5547	1.002267	0.020041	0.019742	30.7772	11792.6	0.018084	0.019620	1568.68	76919.3
248	2.000000	1.004571	7.36748e+06	-51039.1	955.818	-29754.1	0.000000	0.000000	7.005934	31.1999	NaN	0.000000	0.001635	0.001628	28.0774	22.9338	0.001830	12532	6.433782	-178.476	30.4899	1.004238	0.022046	0.021713	31.1999	12532	0.020179	0.022824	1366.98	75787.6
248	2.000000	1.006549	7.36748e+06	-51039.1	955.818	-29754.1	0.000000	0.000000	7.008158	37.1726	NaN	0.000000	0.001665	0.001640	28.0781	24.0757	0.001776	13559.3	3.516177	-177.61	35.1682	1.006225	0.024024	0.023700	37.1726	13559.3	0.021968	0.025730	1444.71	77230.5
248	2.000000	1.008582	7.36748e+06	-51039.1	955.82	-29754.1	0.000000	0.000000	7.010328	40.491	NaN	0.000000	0.001663	0.001650	28.0773	26.6264	0.001838	14486	5.718167	179.755	41.3034	1.008300	0.026057	0.025775	40.491	14486	0.023961	0.029153	1388.93	77514.6
248	2.000000	1.010604	7.36748e+06	-51039.1	955.82	-29754.1	0.000000	0.000000	7.012627	47.2351	NaN	0.000000	0.001680	0.001643	28.0773	28.5306	0.001720	16585.1	4.784285	-179.976	48.2196	1.010219	0.028080	0.027694	47.2351	16585.1	0.025944	0.032755	1442.08	83724.6
248	2.000000	1.012564	7.36748e+06	-51039.1	955.82	-29754.1	0.000000	0.000000	7.014812	52.7216	NaN	0.000000	0.001681	0.001652	28.0777	30.7915	0.001966	15663.1	5.861792	179.655	53.4999	1.012277	0.030039	0.029752	52.7216	15663.1	0.027514	0.035749	1474.77	75686.5
248	2.000000	1.014517	7.36748e+06	-51039.1	955.82	-29754.1	0.000000	0.000000	7.016983	58.0237	NaN	0.000000	0.001556	0.001648	28.0773	31.5287	0.001720	18331.7	2.393572	-179.327	55.2001	1.014219	0.031992	0.031695	58.0237	18331.7	0.029618	0.039955	1452.21	83789.3
248	2.000000	1.016562	7.36748e+06	-51039.1	955.82	-29754.1	0.000000	0.000000	7.019290	64.3964	NaN	0.000000	0.001594	0.001633	28.0784	33.0393	0.001826	18094.7	2.228476	-177.336	64.6901	1.016164	0.034037	0.033639	64.3964	18094.7	0.031368	0.043626	1476.09	79149.7
248	2.000000	1.018541	7.36748e+06	-51039.1	955.821	-29754.1	0.000000	0.000000	7.021600	72.4181	NaN	0.000000	0.001596	0.001642	28.0785	35.9326	0.001775	20238.6	3.973855	179.078	72.1753	1.018179	0.036016	0.035655	72.4181	20238.6	0.033333	0.047935	1510.77	84455.6
248	2.000000	1.020565	7.36748e+06	-51039.1	955.819	-29754.1	0.000000	0.000000	7.023836	77.5705	NaN	0.000000	0.001628	0.001626	28.0786	37.4529	0.001774	21109.6	4.656155	178.301	76.2932	1.020161	0.038041	0.037637	77.5705	21109.6	0.035285	0.052411	1480.05	84245.1
248	2.000000	1.022494	7.36748e+06	-51039.1	955.819	-29754.1	0.000000	0.000000	7.026142	86.7525	NaN	0.000000	0.001620	0.001640	28.0786	39.6203	0.001818	21798.5	8.395693	174.383	84.8257	1.022168	0.039970	0.039643	86.7525	21798.5	0.036985	0.056468	1536.31	83810.1
248	2.000000	1.024497	7.36748e+06	-51039.1	955.819	-29754.1	0.000000	0.000000	7.028418	93.3817	NaN	0.000000	0.001609	0.001607	28.0786	41.5938	0.001735	23974.4	1.099696	-179.299	91.9476	1.024218	0.041972	0.041694	93.3817	23974.4	0.039051	0.061599	1515.97	88254.2
248	2.000000	1.026434	7.36748e+06	-51039.1	955.819	-29754.1	0.000000	0.000000	7.030674	101.156	NaN	0.000000	0.001585	0.001611	28.0795	43.0684	0.001845	23344.7	6.053226	175.628	96.8157	1.026141	0.043909	0.043616	101.156	23344.7	0.040659	0.065743	1538.67	83183.5
248	2.000000	1.028493	7.36748e+06	-51039.1	955.82	-29754.1	0.000000	0.000000	7.033087	109.743	NaN	0.000000	0.001562	0.001636	28.0785	45.4931	0.001810	25131.3	0.592851	-179.137	106.747	1.028175	0.045968	0.045650	109.743	25131.3	0.042693	0.071174	1541.89	86065.2
248	2.000000	1.030486	7.36748e+06	-51039.1	955.82	-29754.1	0.000000	0.000000	7.035455	118.877	NaN	0.000000	0.001575	0.001633	28.0787	47.8407	0.001827	26189.9	4.634479	176.32	116.979	1.030172	0.047961	0.047647	118.877	26189.9	0.044557	0.076334	1557.32	86605.8
248	2.000000	1.032532	7.36748e+06	-51039.1	955.819	-29754.1	0.000000	0.000000	7.037745	124.816	NaN	0.000000	0.001547	0.001639	28.0788	48.7675	0.001771	27530.8	5.786701	174.77	124.305	1.032150	0.050007	0.049625	124.816	27530.8	0.046607	0.082215	1518.17	87723.9
248	2.000000	1.034509	7.36748e+06	-51039.1	955.819	-29754.1	0.000000	0.000000	7.040034	132.389	NaN	0.000000	0.001561	0.001644	28.0785	51.2971	0.001874	27370.6	7.993020	173.85	131.222	1.034113	0.051984	0.051588	132.389	27370.6	0.048357	0.087402	1514.72	84586
248	2.000000	1.036458	7.36748e+06	-51039.1	955.82	-29754.1	0.000000	0.000000	7.042392	142.338	NaN	0.000000	0.001563	0.001613	28.0792	51.8551	0.001882	27550.7	2.844719	177.802	140.423	1.036233	0.053933	0.053708	142.338	27550.7	0.050058	0.092593	1537.23	82721.1
248	2.000000	1.038436	7.36748e+06	-51039.1	955.82	-29754.1	0.000000	0.000000	7.044711	150.634	NaN	0.000000	0.001564	0.001634	28.0787	54.0951	0.001757	30794.9	2.113989	177.411	147.353	1.038253	0.055912	0.055728	150.634	30794.9	0.052243	0.099472	1514.33	89207.6
248	2.000000	1.040631	7.36748e+06	-51039.1	955.82	-29754.1	0.000000	0.000000	7.047325	160.809	NaN	0.000000	0.001559	0.001602	28.0787	57.8835	0.001814	31915.5	7.922485	172.392	166.828	1.040136	0.058106	0.057612	160.809	31915.5	0.054328	0.106257	1513.39	89453.2
248	2.000000	1.042528	7.36748e+06	-51039.1	955.819	-29754.1	0.000000	0.000000	7.049666	171.616	NaN	0.000000	0.001521	0.001649	28.0787	58.9797	0.001818	32447.7	5.657154	173.287	173.106	1.042245	0.060004	0.059720	171.616	32447.7	0.056037	0.111982	1532.53	88589.7
248	2.000000	1.044556	7.36748e+06	-51039.1	955.821	-29754.1	0.000000	0.000000	7.051974	178.429	NaN	0.000000	0.001526	0.001686	28.0785	61.2986	0.001778	34482.7	4.015655	173.626	178.273	1.044388	0.062031	0.061863	178.429	34482.7	0.058150	0.119260	1496.14	91227.9
248	2.000000	1.046484	7.36748e+06	-51039.1	955.82	-29754.1	0.000000	0.000000	7.054686	197.478	NaN	0.000000	0.001539	0.001633	28.079	61.4562	0.001802	34099.6	1.891594	176.97	195.739	1.046162	0.063959	0.063638	197.478	34099.6	0.059616	0.124435	1586.99	88318.4
248	2.000000	1.048426	7.36748e+06	-51039.1	955.82	-29754.1	0.000000	0.000000	7.057152	210.249	NaN	0.000000	0.001504	0.001606	28.0787	64.879	0.001758	36908.9	6.095543	171.645	206.341	1.048096	0.065901	0.065571	210.249	36908.9	0.061629	0.131713	1596.27	92916
248	2.000000	1.050531	7.36748e+06	-51039.1	955.822	-29754.1	0.000000	0.000000	7.059687	220.685	NaN	0.000000	0.001601	0.001658	28.0787	67.3643	0.001823	36954.5	7.637675	170.947	220.351	1.050182	0.068007	0.067658	220.685	36954.5	0.063528	0.138762	1590.39	90637.1
248	2.000000	1.052513	7.36748e+06	-51039.1	955.821	-29754.1	0.000000	0.000000	7.061950	227.523	NaN	0.000000	0.001605	0.001622	28.0774	68.6793	0.001774	38706.6	5.352448	171.984	229.93	1.052244	0.069988	0.069719	227.523	38706.6	0.065580	0.146573	1552.29	92370.1
248	2.000000	1.054450	7.36748e+06	-51039.1	955.82	-29754.1	0.000000	0.000000	7.064541	243.416	NaN	0.000000	0.001620	0.001621	28.0773	69.7458	0.001694	41168	0.969048	176.217	240.25	1.054212	0.071925	0.071688	243.416	41168	0.067491	0.154030	1580.31	95836.4
248	2.000000	1.056467	7.36748e+06	-51039.1	955.82	-29754.1	0.000000	0.000000	7.067158	258.029	NaN	0.000000	0.001635	0.001669	28.0776	71.522	0.001879	38054.1	3.410072	174.463	255.84	1.056165	0.073942	0.073640	258.029	38054.1	0.068857	0.159468	1618.07	87063.9
248	2.000000	1.058429	7.36748e+06	-51039.1	955.82	-29754.1	0.000000	0.000000	7.069469	266.524	NaN	0.000000	0.001626	0.001630	28.0773	74.7463	0.001781	41978.6	6.400914	170.876	263.093	1.058094	0.075904	0.075570	266.524	41978.6	0.071142	0.168764	1579.27	93360.1
248	2.000000	1.060493	7.36748e+06	-51039.1	955.821	-29754.1	0.000000	0.000000	7.072164	281.84	NaN	0.000000	0.001626	0.001643	28.0775	76.9826	0.001760	43736.9	9.058072	168.26	280.582	1.060128	0.077968	0.077603	281.84	43736.9	0.073135	0.177075	1591.64	94960.5
248	2.000000	1.062407	7.36748e+06	-51039.1	955.82	-29754.1	0.000000	0.000000	7.074277	286.701	NaN	0.000000	0.001603	0.001632	28.0775	77.9957	0.001775	43936.1	4.061937	171.991	281.519	1.062165	0.079882	0.079640	286.701	43936.1	0.074988	0.184969	1550	93335.4
248	2.000000	1.064471	7.36748e+06	-51039.1	955.819	-29754.1	0.000000	0.000000	7.077190	307.314	NaN	0.000000	0.001597	0.001624	28.0776	80.7573	0.001970	40983.6	5.758476	171.793	305.159	1.064106	0.081947	0.081581	307.314	40983.6	0.076323	0.190755	1611.04	85732.4
248	2.000000	1.066441	7.36748e+06	-51039.1	955.819	-29754.1	0.000000	0.000000	7.079698	320.409	NaN	0.000000	0.001581	0.001619	28.0775	80.6198	0.001737	46407.6	2.250344	174.173	318.243	1.066150	0.083916	0.083625	320.409	46407.6	0.078738	0.201438	1590.61	94469.6
248	2.000000	1.068393	7.36748e+06	-51039.1	955.819	-29754.1	0.000000	0.000000	7.082230	334.52	NaN	0.000000	0.001608	0.001597	28.0773	84.2612	0.001999	42145.9	4.610000	173.247	330.679	1.068040	0.085868	0.085516	334.52	42145.9	0.079915	0.206743	1618.04	84686.3
248	2.000000	1.070427	7.36748e+06	-51039.1	955.82	-29754.1	0.000000	0.000000	7.084947	351.13	NaN	0.000000	0.001587	0.001607	28.0774	85.3722	0.001830	46640.8	4.730400	172.153	348.099	1.070063	0.087902	0.087538	351.13	46640.8	0.082255	0.217483	1614.51	91374.8
248	2.000000	1.072428	7.36748e+06	-51039.1	955.819	-29754.1	0.000000	0.000000	7.087584	366.585	NaN	0.000000	0.001626	0.001629	28.0773	85.6826	0.001695	50554.5	2.411159	173.35	363.488	1.072097	0.089903	0.089573	366.585	50554.5	0.084465	0.227855	1608.85	96761.9
248	2.000000	1.074510	7.36748e+06	-51039.1	955.82	-29754.1	0.000000	0.000000	7.090359	383.455	NaN	0.000000	0.001602	0.001636	28.0788	88.7356	0.001797	49368.6	1.995430	173.994	384.101	1.074194	0.091985	0.091669	383.455	49368.6	0.086160	0.235965	1625.05	92853.9
248	2.000000	1.076450	7.36748e+06	-51039.1	955.821	-29754.1	0.000000	0.000000	7.092898	398.012	NaN	0.000000	0.001603	0.001649	28.0775	89.8047	0.001849	48570.3	6.378862	169.661	395.922	1.076163	0.093925	0.093638	398.012	48570.3	0.087780	0.243839	1632.27	89865.4
248	2.000000	1.078464	7.36748e+06	-51039.1	955.819	-29754.1	0.000000	0.000000	7.095328	408.116	NaN	0.000000	0.001589	0.001623	28.0774	92.2859	0.001856	49711.9	2.301841	173.48	406.247	1.078211	0.095939	0.095686	408.116	49711.9	0.089782	0.253740	1608.4	90165.2
248	2.000000	1.080442	7.36748e+06	-51039.1	955.819	-29754.1	0.000000	0.000000	7.097983	424.607	NaN	0.000000	0.001606	0.001608	28.0777	94.1671	0.001804	52196.5	2.906535	172.902	423.318	1.080187	0.097917	0.097662	424.607	52196.5	0.091816	0.263984	1608.46	92816.6
248	2.000000	1.082494	7.36748e+06	-51039.1	955.82	-29754.1	0.000000	0.000000	7.100449	434.659	NaN	0.000000	0.001618	0.001645	28.0774	95.6224	0.001840	51960.3	0.881662	174.634	434.972	1.082256	0.099969	0.099731	434.659	51960.3	0.093696	0.273621	1588.54	90754.8
248	2.000000	1.084434	7.36748e+06	-51039.1	955.82	-29754.1	0.000000	0.000000	7.103291	456.575	NaN	0.000000	0.001601	0.001601	28.0777	98.0014	0.001774	55243.8	3.152965	172.199	455.693	1.084208	0.101909	0.101683	456.575	55243.8	0.095711	0.284132	1606.91	94688.4
248	2.000000	1.086505	7.36748e+06	-51039.1	955.82	-29754.1	0.000000	0.000000	7.105805	467.352	NaN	0.000000	0.001565	0.001632	28.0788	100.167	0.001812	55273.7	6.913540	168.903	468.704	1.086081	0.103980	0.103556	467.352	55273.7	0.097639	0.294361	1587.69	93079
248	2.000000	1.088315	7.36748e+06	-51039.1	955.819	-29754.1	0.000000	0.000000	7.108561	490.362	NaN	0.000000	0.001592	0.001628	28.0787	102.799	0.001832	56115.1	4.537004	171.317	483.507	1.088083	0.105790	0.105558	490.362	56115.1	0.099236	0.302965	1618.54	93144.3
248	2.000000	1.090382	7.36748e+06	-51039.1	955.821	-29754.1	0.000000	0.000000	7.110969	498.665	NaN	0.000000	0.001605	0.001601	28.0788	104.609	0.001734	60332.5	2.801755	172.045	492.871	1.089997	0.107857	0.107472	498.665	60332.5	0.101658	0.316231	1576.9	98021.7