File: remote_trans/data/nanoindenter/0828-1/data/Data_2025-08-06,11h17m57s/2025-07-22_16-23-58_1_11.txt
2025-07-22, 16:23:58, 1
Index	Phase	Displacement	Time	Pos X	Pos Y	Pos Z	Rot A	Rot B	Piezo Z	Force A	Force B	Gripper	Voltage A	Voltage B	Temperature	Amplitude force	Amplitude pos	Stiffness	Phase shift	Phase excitation	Force A raw	Displacement raw	HMax	HMax raw	Real Force	Real Stiffness	Contact Depth	Area	Hardness	Reduced Mod.
[#]	[#]	[um]	[s]	[um]	[um]	[um]	[m°]	[m°]	[um]	[uN]	[uN]	[V]	[V]	[V]	[°C]	[uN]	[um]	[N/m]	[°]	[°]	[uN]	[um]	[um]	[um]	[uN]	[N/m]	[um]	[um^2]	[MPa]	[MPa]
11	1.000000	0.002964	7.36515e+06	-39189.1	955.818	-29795.4	0.000000	0.000000	6.002810	-0.009628	NaN	0.000000	0.001571	0.001644	28.1199	0.062404	0.001063	58.7161	167.613	-165.422	-0.068674	0.001756	-1.078545	-1.079753	-0.009628	58.7161	-1.078422	-2.572349E+14	3.742930E-17	NaN
11	1.000000	0.010920	7.36515e+06	-39189.1	955.818	-29795.4	0.000000	0.000000	6.010770	0.102004	NaN	0.000000	0.001579	0.001662	28.1193	0.045675	0.001038	43.9929	-27.1361	-164.467	0.049720	0.009600	-1.070590	-1.071909	0.102004	43.9929	-1.072329	-2.130474E+14	-4.787850E-16	NaN
11	1.000000	0.018922	7.36515e+06	-39189.1	955.819	-29795.4	0.000000	0.000000	6.018770	0.053089	NaN	0.000000	0.001578	0.001644	28.1196	0.022615	0.001747	12.9454	-133.253	-165.573	0.086954	0.017668	-1.062588	-1.063842	0.053089	12.9454	-1.065664	-1.733520E+14	-3.062472E-16	NaN
11	1.000000	0.026934	7.36515e+06	-39189.1	955.819	-29795.4	0.000000	0.000000	6.026781	0.014372	NaN	0.000000	0.001562	0.001627	28.1195	0.062426	0.001710	36.5061	-86.6429	-165.79	0.061599	0.025632	-1.054576	-1.055878	0.014372	36.5061	-1.054871	-1.241332E+14	-1.157761E-16	NaN
11	1.000000	0.034891	7.36515e+06	-39189.1	955.818	-29795.4	0.000000	0.000000	6.034735	-0.074409	NaN	0.000000	0.001545	0.001625	28.1198	0.070041	0.001827	38.3442	-46.3672	-168.992	-0.030859	0.033600	-1.046618	-1.047910	-0.074409	38.3442	-1.045163	-9.191469E+13	8.095431E-16	NaN
11	1.000000	0.042951	7.36515e+06	-39189.1	955.819	-29795.4	0.000000	0.000000	6.042800	0.080296	NaN	0.000000	0.001554	0.001654	28.1186	0.097849	0.001910	51.235	176.98	-168.205	0.051723	0.041610	-1.038559	-1.039900	0.080296	51.235	-1.039734	-7.769522E+13	-1.033480E-15	NaN
11	1.000000	0.050921	7.36515e+06	-39189.1	955.818	-29795.4	0.000000	0.000000	6.050769	0.040621	NaN	0.000000	0.001575	0.001629	28.1195	0.090217	0.002115	42.6581	-147.822	-167.68	0.006268	0.049618	-1.030588	-1.031892	0.040621	42.6581	-1.031303	-5.984125E+13	-6.788165E-16	NaN
11	1.000000	0.058935	7.36515e+06	-39189.1	955.819	-29795.4	0.000000	0.000000	6.058783	0.038984	NaN	0.000000	0.001538	0.001643	28.1194	0.072754	0.002090	34.8078	-51.129	-168.193	0.064567	0.057633	-1.022575	-1.023877	0.038984	34.8078	-1.023415	-4.686977E+13	-8.317567E-16	NaN
11	1.000000	0.066929	7.36515e+06	-39189.1	955.819	-29795.4	0.000000	0.000000	6.066776	0.021578	NaN	0.000000	0.001518	0.001651	28.1201	0.081156	0.001883	43.0914	-122.51	-166.592	-0.021374	0.065626	-1.014581	-1.015884	0.021578	43.0914	-1.014956	-3.606479E+13	-5.983258E-16	NaN
11	1.000000	0.074927	7.36515e+06	-39189.1	955.819	-29795.4	0.000000	0.000000	6.074775	0.045490	NaN	0.000000	0.001538	0.001660	28.1195	0.071895	0.002033	35.3723	44.0983	-165.595	0.039914	0.073591	-1.006583	-1.007919	0.045490	35.3723	-1.007547	-2.866608E+13	-1.586876E-15	NaN
11	1.000000	0.082919	7.36515e+06	-39189.1	955.818	-29795.4	0.000000	0.000000	6.082768	0.061598	NaN	0.000000	0.001542	0.001616	28.1211	0.120619	0.002054	58.731	68.6118	-165.412	-0.006337	0.081587	-0.998590	-0.999922	0.061598	58.731	-0.999377	-2.225261E+13	-2.768114E-15	NaN
11	1.000000	0.090944	7.36515e+06	-39189.1	955.819	-29795.4	0.000000	0.000000	6.090793	0.081626	NaN	0.000000	0.001583	0.001664	28.1206	0.136570	0.002122	64.3593	130.227	-164.586	0.026446	0.089572	-0.990566	-0.991938	0.081626	64.3593	-0.991517	-1.743987E+13	-4.680408E-15	NaN
11	1.000000	0.098932	7.36515e+06	-39189.1	955.819	-29795.4	0.000000	0.000000	6.098778	-0.014829	NaN	0.000000	0.001589	0.001638	28.1206	0.071727	0.001994	35.9672	42.6326	-167.829	-0.035206	0.097633	-0.982577	-0.983877	-0.014829	35.9672	-0.982268	-1.309076E+13	1.132770E-15	NaN
11	1.000000	0.106935	7.36515e+06	-39189.1	955.818	-29795.4	0.000000	0.000000	6.106780	-0.028838	NaN	0.000000	0.001565	0.001672	28.121	0.099435	0.001930	51.5093	-81.5703	-166.949	-0.058053	0.105614	-0.974575	-0.975895	-0.028838	51.5093	-0.974155	-1.017785E+13	2.833430E-15	NaN
11	1.000000	0.114921	7.36515e+06	-39189.1	955.819	-29795.4	0.000000	0.000000	6.114766	-0.038920	NaN	0.000000	0.001574	0.001635	28.1204	0.008139	0.001960	4.152797	-170.458	-165.939	-0.020868	0.113633	-0.966588	-0.967877	-0.038920	4.152797	-0.959559	-6.470338E+12	6.015167E-15	NaN
11	1.000000	0.122952	7.36515e+06	-39189.1	955.818	-29795.4	0.000000	0.000000	6.122801	0.061632	NaN	0.000000	0.001570	0.001614	28.1198	0.102361	0.002104	48.6439	-95.0912	-165.265	0.002854	0.121612	-0.958557	-0.959897	0.061632	48.6439	-0.959508	-6.459955E+12	-9.540678E-15	NaN
11	1.000000	0.130944	7.36515e+06	-39189.1	955.819	-29795.4	0.000000	0.000000	6.130793	0.072196	NaN	0.000000	0.001602	0.001596	28.1197	0.127503	0.002050	62.2029	152.026	-163.254	0.105399	0.129658	-0.950566	-0.951852	0.072196	62.2029	-0.951436	-5.028043E+12	-1.435874E-14	NaN
11	1.000000	0.138975	7.36515e+06	-39189.1	955.819	-29795.4	0.000000	0.000000	6.138822	0.031582	NaN	0.000000	0.001540	0.001647	28.119	0.033152	0.002024	16.3803	157.262	-169.595	0.017804	0.137648	-0.942535	-0.943861	0.031582	16.3803	-0.943981	-3.988799E+12	-7.917772E-15	NaN
11	1.000000	0.146934	7.36515e+06	-39189.1	955.817	-29795.4	0.000000	0.000000	6.146781	0.014746	NaN	0.000000	0.001544	0.001629	28.1199	0.117795	0.001977	59.5837	146.628	-168.815	0.002224	0.145688	-0.934576	-0.935822	0.014746	59.5837	-0.934761	-2.995380E+12	-4.922849E-15	NaN
11	1.000000	0.154966	7.36515e+06	-39189.1	955.819	-29795.4	0.000000	0.000000	6.154815	0.064721	NaN	0.000000	0.001535	0.001621	28.1186	0.077496	0.001936	40.0226	-126.329	-165.162	0.057348	0.153629	-0.926544	-0.927880	0.064721	40.0226	-0.927757	-2.409445E+12	-2.686118E-14	NaN
11	1.000000	0.162933	7.36515e+06	-39189.1	955.819	-29795.4	0.000000	0.000000	6.162777	-0.047465	NaN	0.000000	0.001525	0.001613	28.1199	0.079373	0.001961	40.4718	166.54	-167.307	-0.008931	0.161657	-0.918576	-0.919852	-0.047465	40.4718	-0.917697	-1.762418E+12	2.693155E-14	NaN
11	1.000000	0.170963	7.36515e+06	-39189.1	955.818	-29795.4	0.000000	0.000000	6.170807	-0.069881	NaN	0.000000	0.001548	0.001608	28.1201	0.097246	0.002045	47.5639	70.0704	-165.125	-0.105042	0.169623	-0.910546	-0.911886	-0.069881	47.5639	-0.909444	-1.363511E+12	5.125101E-14	NaN
11	1.000000	0.178943	7.36515e+06	-39189.1	955.818	-29795.4	0.000000	0.000000	6.178789	-0.012033	NaN	0.000000	0.001545	0.001633	28.1197	0.017084	0.002014	8.481392	-175.244	-167.78	0.019709	0.177616	-0.902566	-0.903894	-0.012033	8.481392	-0.901502	-1.065030E+12	1.129869E-14	NaN
11	1.000000	0.186923	7.36515e+06	-39189.1	955.818	-29795.4	0.000000	0.000000	6.186770	0.024151	NaN	0.000000	0.001537	0.001666	28.119	0.108170	0.001796	60.2275	-158.024	-166.005	0.017487	0.185707	-0.894587	-0.895803	0.024151	60.2275	-0.894887	-8.669102E+11	-2.785907E-14	NaN
11	1.000000	0.195004	7.36515e+06	-39189.1	955.819	-29795.4	0.000000	0.000000	6.194851	0.008878	NaN	0.000000	0.001551	0.001629	28.1186	0.095492	0.002148	44.4588	-158.363	-166.664	-0.042322	0.193648	-0.886506	-0.887861	0.008878	44.4588	-0.886655	-6.709629E+11	-1.323113E-14	NaN
11	1.000000	0.202942	7.36515e+06	-39189.1	955.818	-29795.4	0.000000	0.000000	6.202789	0.011522	NaN	0.000000	0.001547	0.001593	28.1178	0.168053	0.001948	86.262	-61.1152	-164.499	-0.023344	0.201687	-0.878567	-0.879822	0.011522	86.262	-0.878667	-5.232207E+11	-2.202122E-14	NaN
11	1.000000	0.210969	7.36515e+06	-39189.1	955.818	-29795.4	0.000000	0.000000	6.210816	0.017931	NaN	0.000000	0.001565	0.001600	28.1173	0.154182	0.002015	76.532	113.789	-167.911	0.029190	0.209671	-0.870540	-0.871839	0.017931	76.532	-0.870716	-4.084416E+11	-4.390209E-14	NaN
11	1.000000	0.219001	7.36515e+06	-39189.1	955.818	-29795.4	0.000000	0.000000	6.218845	-0.045609	NaN	0.000000	0.001574	0.001577	28.1173	0.082121	0.001876	43.7792	-173.039	-165.984	0.030290	0.217668	-0.862509	-0.863842	-0.045609	43.7792	-0.861727	-3.086740E+11	1.477585E-13	NaN
11	1.000000	0.226986	7.36515e+06	-39189.1	955.818	-29795.4	0.000000	0.000000	6.226834	0.033663	NaN	0.000000	0.001539	0.001573	28.1174	0.111463	0.001989	56.0422	41.8725	-164.932	-0.029586	0.225690	-0.854523	-0.855820	0.033663	56.0422	-0.854974	-2.500821E+11	-1.346074E-13	NaN
11	1.000000	0.234976	7.36515e+06	-39189.1	955.818	-29795.4	0.000000	0.000000	6.234826	0.092503	NaN	0.000000	0.001567	0.001639	28.1174	0.042611	0.001925	22.1388	44.2148	-165.5	0.041207	0.233690	-0.846534	-0.847820	0.092503	22.1388	-0.849667	-2.119505E+11	-4.364370E-13	NaN
11	1.000000	0.242980	7.36515e+06	-39189.1	955.818	-29795.4	0.000000	0.000000	6.242823	-0.090617	NaN	0.000000	0.001575	0.001626	28.1181	0.127296	0.002019	63.0493	13.62	-163.459	0.035172	0.241734	-0.838529	-0.839776	-0.090617	63.0493	-0.837451	-1.447982E+11	6.258174E-13	NaN
11	1.000000	0.250990	7.36515e+06	-39189.1	955.819	-29795.4	0.000000	0.000000	6.250834	-0.055558	NaN	0.000000	0.001613	0.001623	28.1181	0.068522	0.001959	34.9764	37.1393	-162.602	0.034453	0.249688	-0.830519	-0.831821	-0.055558	34.9764	-0.829328	-1.123759E+11	4.943932E-13	NaN
11	1.000000	0.258948	7.36515e+06	-39189.1	955.818	-29795.4	0.000000	0.000000	6.258794	0.000667	NaN	0.000000	0.001610	0.001601	28.1182	0.056709	0.002053	27.6213	-68.5218	-165.763	-0.047760	0.257677	-0.822561	-0.823832	0.000667	27.6213	-0.822580	-9.103094E+10	-7.321956E-15	NaN
11	1.000000	0.267003	7.36515e+06	-39189.1	955.819	-29795.4	0.000000	0.000000	6.266849	-0.005296	NaN	0.000000	0.001599	0.001582	28.1183	0.054696	0.001960	27.9028	-17.3858	-162.884	0.013867	0.265681	-0.814507	-0.815828	-0.005296	27.9028	-0.814365	-7.043408E+10	7.518541E-14	NaN
11	1.000000	0.275003	7.36515e+06	-39189.1	955.818	-29795.4	0.000000	0.000000	6.274852	0.058923	NaN	0.000000	0.001585	0.001586	28.1183	0.046550	0.001968	23.6585	-80.7104	-164.338	-0.003835	0.273716	-0.806506	-0.807794	0.058923	23.6585	-0.808374	-5.841335E+10	-1.008720E-12	NaN
11	1.000000	0.283018	7.36515e+06	-39189.1	955.818	-29795.4	0.000000	0.000000	6.282863	-0.045163	NaN	0.000000	0.001618	0.001596	28.1165	0.077499	0.002040	37.9896	97.9331	-166.872	-0.020485	0.281707	-0.798491	-0.799803	-0.045163	37.9896	-0.797600	-4.171362E+10	1.082688E-12	NaN
11	1.000000	0.291008	7.36515e+06	-39189.1	955.818	-29795.4	0.000000	0.000000	6.290853	-0.038577	NaN	0.000000	0.001607	0.001618	28.117	0.076109	0.002007	37.9203	-157.676	-166.241	0.015065	0.289700	-0.790501	-0.791810	-0.038577	37.9203	-0.789738	-3.262360E+10	1.182480E-12	NaN
11	1.000000	0.299009	7.36515e+06	-39189.1	955.818	-29795.4	0.000000	0.000000	6.298854	-0.044512	NaN	0.000000	0.001597	0.001576	28.1176	0.054641	0.001937	28.2123	8.004833	-163.405	-0.013433	0.297730	-0.782500	-0.783780	-0.044512	28.2123	-0.781317	-2.506856E+10	1.775593E-12	NaN
11	1.000000	0.307005	7.36515e+06	-39189.1	955.818	-29795.4	0.000000	0.000000	6.306848	-0.083994	NaN	0.000000	0.001597	0.001592	28.1168	0.006835	0.002080	3.286250	-52.2267	-167.445	-0.053553	0.305710	-0.774504	-0.775800	-0.083994	3.286250	-0.755335	-1.111295E+10	7.558187E-12	NaN
11	1.000000	0.315046	7.36515e+06	-39189.1	955.819	-29795.4	0.000000	0.000000	6.314893	0.021391	NaN	0.000000	0.001528	0.001617	28.1169	0.039531	0.002104	18.7926	131.301	-165.577	0.034474	0.313723	-0.766464	-0.767787	0.021391	18.7926	-0.767317	-1.617446E+10	-1.322540E-12	NaN
11	1.000000	0.323003	7.36515e+06	-39189.1	955.817	-29795.4	0.000000	0.000000	6.322852	0.080707	NaN	0.000000	0.001504	0.001617	28.1191	0.056708	0.001966	28.8454	46.9374	-165.389	0.032320	0.321734	-0.758507	-0.759775	0.080707	28.8454	-0.760605	-1.310806E+10	-6.157028E-12	NaN
11	1.000000	0.331029	7.36515e+06	-39189.1	955.818	-29795.4	0.000000	0.000000	6.330873	-0.037277	NaN	0.000000	0.001561	0.001605	28.1195	0.018467	0.002066	8.938160	-137.127	-165.879	-0.011170	0.329742	-0.750481	-0.751767	-0.037277	8.938160	-0.747353	-8.653384E+9	4.307834E-12	NaN
11	1.000000	0.339016	7.36515e+06	-39189.1	955.819	-29795.4	0.000000	0.000000	6.338862	-0.015485	NaN	0.000000	0.001542	0.001615	28.1193	0.018300	0.001972	9.281157	152.866	-165.002	0.025345	0.337718	-0.742493	-0.743792	-0.015485	9.281157	-0.741242	-7.144463E+9	2.167397E-12	NaN
11	1.000000	0.347034	7.36515e+06	-39189.1	955.818	-29795.4	0.000000	0.000000	6.346881	0.027964	NaN	0.000000	0.001507	0.001625	28.1193	0.051540	0.001950	26.428	64.6482	-165.234	0.080043	0.345742	-0.734476	-0.735768	0.027964	26.428	-0.735269	-5.923981E+9	-4.720488E-12	NaN
11	1.000000	0.355025	7.36515e+06	-39189.1	955.818	-29795.4	0.000000	0.000000	6.354869	-0.032541	NaN	0.000000	0.001533	0.001670	28.1194	0.074211	0.002021	36.7134	38.6355	-166.423	-0.085549	0.353700	-0.726485	-0.727810	-0.032541	36.7134	-0.725820	-4.403872E+9	7.389140E-12	NaN
11	1.000000	0.363004	7.36515e+06	-39189.1	955.818	-29795.4	0.000000	0.000000	6.362851	0.011732	NaN	0.000000	0.001566	0.001598	28.1185	0.058242	0.001996	29.1815	134.674	-166.304	0.005061	0.361732	-0.718506	-0.719778	0.011732	29.1815	-0.718807	-3.533500E+9	-3.320268E-12	NaN
11	1.000000	0.371043	7.36515e+06	-39189.1	955.818	-29795.4	0.000000	0.000000	6.370889	-0.000122	NaN	0.000000	0.001547	0.001601	28.1178	0.063390	0.001928	32.8852	65.2365	-165.606	0.002278	0.369715	-0.710467	-0.711795	-0.000122	32.8852	-0.710464	-2.718809E+9	4.497999E-14	NaN
11	1.000000	0.379039	7.36515e+06	-39189.1	955.818	-29795.4	0.000000	0.000000	6.378880	-0.111905	NaN	0.000000	0.001588	0.001593	28.1185	0.089169	0.001883	47.3618	82.2573	-168.124	-0.101111	0.377732	-0.702471	-0.703778	-0.111905	47.3618	-0.700699	-2.000202E+9	5.594686E-11	NaN
11	1.000000	0.387047	7.36515e+06	-39189.1	955.817	-29795.4	0.000000	0.000000	6.386893	-0.021734	NaN	0.000000	0.001562	0.001598	28.1175	0.097306	0.001981	49.1175	76.206	-166.569	0.024170	0.385706	-0.694462	-0.695803	-0.021734	49.1175	-0.694130	-1.626885E+9	1.335906E-11	NaN
11	1.000000	0.395058	7.36515e+06	-39189.1	955.817	-29795.4	0.000000	0.000000	6.394901	-0.082196	NaN	0.000000	0.001571	0.001555	28.1182	0.077290	0.001975	39.1299	-57.7188	-167.159	-0.020000	0.393734	-0.686452	-0.687776	-0.082196	39.1299	-0.684876	-1.215865E+9	6.760285E-11	NaN
11	1.000000	0.403032	7.36515e+06	-39189.1	955.818	-29795.4	0.000000	0.000000	6.402878	-0.006963	NaN	0.000000	0.001566	0.001623	28.119	0.087952	0.001962	44.8364	103.805	-160.989	0.074788	0.401747	-0.678478	-0.679763	-0.006963	44.8364	-0.678361	-9.903569E+8	7.030663E-12	NaN
11	1.000000	0.411032	7.36515e+06	-39189.1	955.818	-29795.4	0.000000	0.000000	6.410879	0.024548	NaN	0.000000	0.001592	0.001623	28.1183	0.141150	0.001984	71.1349	-72.0286	-165.451	0.023513	0.409734	-0.670477	-0.671775	0.024548	71.1349	-0.670736	-7.788745E+8	-3.151751E-11	NaN
11	1.000000	0.419072	7.36515e+06	-39189.1	955.817	-29795.4	0.000000	0.000000	6.418919	0.040806	NaN	0.000000	0.001569	0.001589	28.1188	0.135381	0.001975	68.5487	-47.0754	-166.43	0.042620	0.417708	-0.662438	-0.663802	0.040806	68.5487	-0.662885	-6.081005E+8	-6.710371E-11	NaN
11	1.000000	0.427059	7.36515e+06	-39189.1	955.819	-29795.4	0.000000	0.000000	6.426905	0.005444	NaN	0.000000	0.001523	0.001596	28.1191	0.085615	0.002024	42.304	-21.6277	-161.732	-0.068802	0.425744	-0.654451	-0.655765	0.005444	42.304	-0.654548	-4.674836E+8	-1.164481E-11	NaN
11	1.000000	0.435084	7.36515e+06	-39189.1	955.818	-29795.4	0.000000	0.000000	6.434934	0.074630	NaN	0.000000	0.001526	0.001587	28.1192	0.053854	0.002003	26.8805	86.9483	-164.894	0.048861	0.433718	-0.646425	-0.647792	0.074630	26.8805	-0.648507	-3.863436E+8	-1.931705E-10	NaN
11	1.000000	0.443097	7.36515e+06	-39189.1	955.819	-29795.4	0.000000	0.000000	6.442945	0.047894	NaN	0.000000	0.001526	0.001608	28.1176	0.017992	0.002081	8.646663	-24.115	-165.479	0.042612	0.441774	-0.638413	-0.639736	0.047894	8.646663	-0.642567	-3.202658E+8	-1.495434E-10	NaN
11	1.000000	0.451077	7.36515e+06	-39189.1	955.819	-29795.4	0.000000	0.000000	6.450924	0.013743	NaN	0.000000	0.001535	0.001591	28.1178	0.013995	0.001871	7.481061	-30.1049	-167.903	0.047604	0.449814	-0.630432	-0.631695	0.013743	7.481061	-0.631810	-2.279707E+8	-6.028239E-11	NaN
11	1.000000	0.459066	7.36515e+06	-39189.1	955.818	-29795.4	0.000000	0.000000	6.458912	-0.005814	NaN	0.000000	0.001549	0.001647	28.1164	0.036825	0.001857	19.8258	-172.963	-167.427	-0.024897	0.457772	-0.622444	-0.623738	-0.005814	19.8258	-0.622224	-1.683445E+8	3.453477E-11	NaN
11	1.000000	0.467121	7.36515e+06	-39189.1	955.818	-29795.4	0.000000	0.000000	6.466969	0.049586	NaN	0.000000	0.001571	0.001630	28.1165	0.122793	0.001981	61.993	150.019	-166.549	-0.036522	0.465753	-0.614389	-0.615756	0.049586	61.993	-0.614989	-1.338861E+8	-3.703582E-10	NaN
11	1.000000	0.475086	7.36515e+06	-39189.1	955.819	-29795.4	0.000000	0.000000	6.474934	0.057256	NaN	0.000000	0.001560	0.001637	28.116	0.045607	0.002060	22.1343	-90.4257	-165.382	0.128351	0.473689	-0.606424	-0.607821	0.057256	22.1343	-0.608364	-1.085428E+8	-5.274959E-10	NaN
11	1.000000	0.483078	7.36515e+06	-39189.1	955.818	-29795.4	0.000000	0.000000	6.482924	-0.002353	NaN	0.000000	0.001528	0.001630	28.1173	0.009519	0.001950	4.880645	178.279	-166.244	0.021107	0.481820	-0.598431	-0.599689	-0.002353	4.880645	-0.598070	-7.832008E+7	3.004379E-11	NaN
11	1.000000	0.491082	7.36515e+06	-39189.1	955.819	-29795.4	0.000000	0.000000	6.490929	0.005167	NaN	0.000000	0.001541	0.001602	28.1168	0.020059	0.002005	10.0049	-172.792	-164.647	-0.006731	0.489791	-0.590427	-0.591719	0.005167	10.0049	-0.590815	-6.221543E+7	-8.305325E-11	NaN
11	1.000000	0.499098	7.36515e+06	-39189.1	955.818	-29795.4	0.000000	0.000000	6.498945	0.015352	NaN	0.000000	0.001563	0.001588	28.1174	0.092286	0.002125	43.4203	40.934	-164.874	0.009677	0.497845	-0.582411	-0.583665	0.015352	43.4203	-0.582677	-4.804651E+7	-3.195165E-10	NaN
11	1.000000	0.507087	7.36515e+06	-39189.1	955.819	-29795.4	0.000000	0.000000	6.506934	0.004516	NaN	0.000000	0.001547	0.001626	28.1173	0.050898	0.001997	25.4821	139.783	-169.807	0.018965	0.505790	-0.574422	-0.575719	0.004516	25.4821	-0.574555	-3.711550E+7	-1.216765E-10	NaN
11	1.000000	0.515106	7.36515e+06	-39189.1	955.818	-29795.4	0.000000	0.000000	6.514955	0.047847	NaN	0.000000	0.001514	0.001612	28.1175	0.085586	0.001883	45.4603	9.674566	-166.039	0.025164	0.513767	-0.566403	-0.567743	0.047847	45.4603	-0.567193	-2.936531E+7	-1.629359E-9	NaN
11	1.000000	0.523116	7.36515e+06	-39189.1	955.819	-29795.4	0.000000	0.000000	6.522962	0.002055	NaN	0.000000	0.001580	0.001608	28.116	0.097670	0.002139	45.6632	164.492	-163.076	0.024791	0.521820	-0.558394	-0.559690	0.002055	45.6632	-0.558427	-2.221363E+7	-9.250646E-11	NaN
11	1.000000	0.531089	7.36515e+06	-39189.1	955.819	-29795.4	0.000000	0.000000	6.530938	0.064444	NaN	0.000000	0.001558	0.001588	28.1159	0.043520	0.002161	20.1391	162.769	-166.09	0.083804	0.529809	-0.550420	-0.551700	0.064444	20.1391	-0.552820	-1.857842E+7	-3.468732E-9	NaN
11	1.000000	0.539126	7.36515e+06	-39189.1	955.818	-29795.4	0.000000	0.000000	6.538971	-0.027173	NaN	0.000000	0.001547	0.001579	28.1161	0.071164	0.002098	33.9166	12.8775	-167.33	0.050672	0.537762	-0.542384	-0.543748	-0.027173	33.9166	-0.541783	-1.306406E+7	2.079972E-9	NaN
11	1.000000	0.547086	7.36515e+06	-39189.1	955.818	-29795.4	0.000000	0.000000	6.546931	-0.009464	NaN	0.000000	0.001611	0.001567	28.1156	0.127308	0.001992	63.896	74.4914	-164.192	0.036160	0.545779	-0.534424	-0.535731	-0.009464	63.896	-0.534313	-1.029094E+7	9.196200E-10	NaN
11	1.000000	0.555132	7.36515e+06	-39189.1	955.819	-29795.4	0.000000	0.000000	6.554978	0.005069	NaN	0.000000	0.001590	0.001587	28.1161	0.079068	0.001979	39.9611	27.1583	-167.432	-0.069269	0.553815	-0.526378	-0.527695	0.005069	39.9611	-0.526473	-8.00907e+06	-6.328855E-10	NaN
11	1.000000	0.563099	7.36515e+06	-39189.1	955.818	-29795.4	0.000000	0.000000	6.562943	-0.064108	NaN	0.000000	0.001570	0.001572	28.1168	0.096084	0.001957	49.0948	158.771	-163.844	0.013580	0.561854	-0.518410	-0.519655	-0.064108	49.0948	-0.517431	-5.99601e+06	1.069172E-8	NaN
11	1.000000	0.571105	7.36515e+06	-39189.1	955.819	-29795.4	0.000000	0.000000	6.570953	0.043657	NaN	0.000000	0.001578	0.001571	28.1163	0.055991	0.001989	28.157	104.153	-167.225	0.032418	0.569805	-0.510405	-0.511704	0.043657	28.157	-0.511568	-4.96878e+06	-8.786354E-9	NaN
11	1.000000	0.579128	7.36515e+06	-39189.1	955.818	-29795.4	0.000000	0.000000	6.578976	0.022690	NaN	0.000000	0.001587	0.001571	28.117	0.059410	0.001973	30.1165	124.765	-162.526	0.104830	0.577738	-0.502381	-0.503771	0.022690	30.1165	-0.502946	-3.76799e+06	-6.021672E-9	NaN
11	1.000000	0.587129	7.36515e+06	-39189.1	955.817	-29795.4	0.000000	0.000000	6.586975	-0.021831	NaN	0.000000	0.001638	0.001546	28.1165	0.059880	0.002084	28.7385	63.1678	-161.24	0.040468	0.585792	-0.494380	-0.495718	-0.021831	28.7385	-0.493811	-2.80949e+06	7.770438E-9	NaN
11	1.000000	0.595151	7.36515e+06	-39189.1	955.819	-29795.4	0.000000	0.000000	6.594995	-0.059658	NaN	0.000000	0.001630	0.001574	28.1184	0.022986	0.002046	11.2354	81.3993	-167.74	-0.049881	0.593815	-0.486358	-0.487695	-0.059658	11.2354	-0.482376	-1.94437e+06	3.068242E-8	NaN
11	1.000000	0.603147	7.36515e+06	-39189.1	955.818	-29795.4	0.000000	0.000000	6.602996	0.066813	NaN	0.000000	0.001622	0.001561	28.1173	0.041844	0.002029	20.6216	-70.0172	-164.884	0.007794	0.601830	-0.478362	-0.479680	0.066813	20.6216	-0.480792	-1.84765e+06	-3.616117E-8	NaN
11	1.000000	0.611119	7.36515e+06	-39189.1	955.818	-29795.4	0.000000	0.000000	6.610966	-0.002051	NaN	0.000000	0.001623	0.001574	28.1164	0.126736	0.001971	64.2955	117.391	-165.967	-0.017251	0.609816	-0.470390	-0.471693	-0.002051	64.2955	-0.470366	-1.31991e+06	1.553586E-9	NaN
11	1.000000	0.619158	7.36515e+06	-39189.1	955.819	-29795.4	0.000000	0.000000	6.619003	-0.046379	NaN	0.000000	0.001631	0.001602	28.1172	0.063940	0.002045	31.26	-137.668	-163.882	0.010793	0.617822	-0.462351	-0.463688	-0.046379	31.26	-0.461239	-982699	4.719585E-8	NaN
11	1.000000	0.627162	7.36515e+06	-39189.1	955.818	-29795.4	0.000000	0.000000	6.627006	-0.059011	NaN	0.000000	0.001598	0.001582	28.1165	0.051849	0.001961	26.4414	-102.411	-162.34	-0.091250	0.625895	-0.454348	-0.455615	-0.059011	26.4414	-0.452674	-744709	7.923986E-8	NaN
11	1.000000	0.635177	7.36515e+06	-39189.1	955.819	-29795.4	0.000000	0.000000	6.635026	0.075909	NaN	0.000000	0.001650	0.001556	28.1166	0.082082	0.002047	40.1019	16.5165	-166.214	0.035287	0.633822	-0.446333	-0.447688	0.075909	40.1019	-0.447753	-634872	-1.195665E-7	NaN
11	1.000000	0.643155	7.36515e+06	-39189.1	955.818	-29795.4	0.000000	0.000000	6.643001	0.002974	NaN	0.000000	0.001650	0.001543	28.1178	0.064268	0.001985	32.3822	-109.901	-167.908	-0.005357	0.641896	-0.438355	-0.439613	0.002974	32.3822	-0.438424	-468933	-6.342699E-9	NaN
11	1.000000	0.651136	7.36515e+06	-39189.1	955.819	-29795.4	0.000000	0.000000	6.650983	0.031396	NaN	0.000000	0.001654	0.001537	28.1186	0.140143	0.001889	74.2048	136.443	-164.871	0.083842	0.649829	-0.430374	-0.431681	0.031396	74.2048	-0.430691	-364618	-8.610599E-8	NaN
11	1.000000	0.659168	7.36515e+06	-39189.1	955.819	-29795.4	0.000000	0.000000	6.659017	0.052816	NaN	0.000000	0.001627	0.001563	28.1179	0.140434	0.002066	67.9814	-176.213	-164.118	0.009989	0.657865	-0.422341	-0.423644	0.052816	67.9814	-0.422924	-283056	-1.865925E-7	NaN
11	1.000000	0.667185	7.36515e+06	-39189.1	955.818	-29795.4	0.000000	0.000000	6.667032	0.013707	NaN	0.000000	0.001564	0.001545	28.1183	0.060997	0.001967	31.0035	-0.978215	-168.202	-0.063961	0.665864	-0.414325	-0.415646	0.013707	31.0035	-0.414656	-216059	-6.344102E-8	NaN
11	1.000000	0.675196	7.36515e+06	-39189.1	955.819	-29795.4	0.000000	0.000000	6.675046	0.098012	NaN	0.000000	0.001590	0.001535	28.1175	0.034548	0.002140	16.1429	78.1216	-167.347	0.074871	0.673894	-0.406313	-0.407616	0.098012	16.1429	-0.410867	-190866	-5.135098E-7	NaN
11	1.000000	0.683163	7.36515e+06	-39189.1	955.818	-29795.4	0.000000	0.000000	6.683009	0.005819	NaN	0.000000	0.001632	0.001563	28.1163	0.078770	0.001962	40.1421	131.765	-162.628	0.058120	0.681901	-0.398347	-0.399608	0.005819	40.1421	-0.398456	-127048	-4.579865E-8	NaN
11	1.000000	0.691172	7.36515e+06	-39189.1	955.818	-29795.4	0.000000	0.000000	6.691022	0.098014	NaN	0.000000	0.001594	0.001563	28.117	0.124595	0.001905	65.4065	-149.779	-165.076	0.112594	0.689852	-0.390338	-0.391658	0.098014	65.4065	-0.391461	-100941	-9.709983E-7	NaN
11	1.000000	0.699171	7.36515e+06	-39189.1	955.818	-29795.4	0.000000	0.000000	6.699019	0.026693	NaN	0.000000	0.001617	0.001597	28.1157	0.073036	0.002078	35.1442	-80.7076	-165.812	0.041305	0.697922	-0.382338	-0.383587	0.026693	35.1442	-0.382908	-76138	-3.505876E-7	NaN
11	1.000000	0.707172	7.36515e+06	-39189.1	955.818	-29795.4	0.000000	0.000000	6.707018	-0.004331	NaN	0.000000	0.001595	0.001591	28.1163	0.115835	0.002077	55.7709	69.8417	-166.83	-0.010568	0.705911	-0.374338	-0.375599	-0.004331	55.7709	-0.374279	-57241.5	7.566772E-8	NaN
11	1.000000	0.715192	7.36515e+06	-39189.1	955.818	-29795.4	0.000000	0.000000	6.715040	0.061055	NaN	0.000000	0.001606	0.001565	28.1165	0.132033	0.001961	67.3393	-130.735	-168.809	0.014575	0.713882	-0.366318	-0.367628	0.061055	67.3393	-0.366998	-44964.4	-1.357848E-6	NaN
11	1.000000	0.723208	7.36515e+06	-39189.1	955.818	-29795.4	0.000000	0.000000	6.723050	-0.105326	NaN	0.000000	0.001698	0.001604	28.1168	0.156024	0.002046	76.2467	113.889	-167.141	-0.084461	0.721872	-0.358302	-0.359638	-0.105326	76.2467	-0.357266	-32531.4	3.237682E-6	NaN
11	1.000000	0.731160	7.36515e+06	-39189.1	955.82	-29795.4	0.000000	0.000000	6.731007	0.020975	NaN	0.000000	0.001640	0.001578	28.1169	0.059413	0.001957	30.3548	-24.1129	-164.892	0.064093	0.729843	-0.350350	-0.351667	0.020975	30.3548	-0.350868	-26278.4	-7.981738E-7	NaN
11	1.000000	0.739177	7.36515e+06	-39189.1	955.818	-29795.4	0.000000	0.000000	6.739025	0.045022	NaN	0.000000	0.001624	0.001557	28.1159	0.098914	0.002046	48.3547	-64.7817	-165.194	0.032220	0.737908	-0.342333	-0.343601	0.045022	48.3547	-0.343031	-20216.7	-2.226977E-6	NaN
11	1.000000	0.747193	7.36515e+06	-39189.1	955.818	-29795.4	0.000000	0.000000	6.747040	0.008664	NaN	0.000000	0.001650	0.001580	28.116	0.060624	0.002080	29.152	159.735	-166.09	0.071260	0.745855	-0.334316	-0.335655	0.008664	29.152	-0.334539	-15200.4	-5.699534E-7	NaN
11	1.000000	0.755193	7.36515e+06	-39189.1	955.818	-29795.4	0.000000	0.000000	6.755041	0.038710	NaN	0.000000	0.001639	0.001585	28.1158	0.081779	0.001953	41.8732	166.295	-167.722	0.009759	0.753896	-0.326316	-0.327613	0.038710	41.8732	-0.327010	-11793	-3.282483E-6	NaN
11	1.000000	0.763226	7.36515e+06	-39189.1	955.819	-29795.4	0.000000	0.000000	6.763070	-0.043893	NaN	0.000000	0.001633	0.001558	28.1154	0.054781	0.001976	27.7235	80.3833	-167.404	-0.067100	0.761900	-0.318284	-0.319609	-0.043893	27.7235	-0.317097	-8430.83	5.206248E-6	NaN
11	1.000000	0.771206	7.36515e+06	-39189.1	955.819	-29795.4	0.000000	0.000000	6.771052	-0.000624	NaN	0.000000	0.001643	0.001578	28.1151	0.116376	0.002010	57.8942	-47.726	-162.96	0.029945	0.769878	-0.310304	-0.311632	-0.000624	57.8942	-0.310296	-6690.05	9.328729E-8	NaN
11	1.000000	0.779217	7.36515e+06	-39189.1	955.818	-29795.4	0.000000	0.000000	6.779063	0.004859	NaN	0.000000	0.001657	0.001612	28.115	0.140317	0.002130	65.8731	-177.052	-165.118	-0.026012	0.777882	-0.302293	-0.303628	0.004859	65.8731	-0.302348	-5099.96	-9.527876E-7	NaN
11	1.000000	0.787223	7.36515e+06	-39189.1	955.818	-29795.4	0.000000	0.000000	6.787069	-0.009658	NaN	0.000000	0.001627	0.001580	28.1148	0.085585	0.002097	40.8034	119.807	-167.473	0.026986	0.785980	-0.294287	-0.295530	-0.009658	40.8034	-0.294109	-3844	2.512540E-6	NaN
11	1.000000	0.795198	7.36515e+06	-39189.1	955.819	-29795.4	0.000000	0.000000	6.795046	0.049850	NaN	0.000000	0.001635	0.001598	28.1144	0.019830	0.002084	9.513513	137.78	-164.647	0.043179	0.793940	-0.286312	-0.287570	0.049850	9.513513	-0.290242	-3364.53	-1.481634E-5	NaN
11	1.000000	0.803243	7.36515e+06	-39189.1	955.819	-29795.4	0.000000	0.000000	6.803092	0.082803	NaN	0.000000	0.001656	0.001620	28.1154	0.067048	0.001972	34.0047	-10.9298	-165.926	0.021236	0.801925	-0.278267	-0.279584	0.082803	34.0047	-0.280093	-2367.97	-3.496776E-5	NaN
11	1.000000	0.811200	7.36515e+06	-39189.1	955.818	-29795.4	0.000000	0.000000	6.811046	-0.021932	NaN	0.000000	0.001624	0.001608	28.1159	0.067662	0.002007	33.7078	46.4609	-164.17	0.052491	0.809959	-0.270309	-0.271551	-0.021932	33.7078	-0.269821	-1655.11	1.325088E-5	NaN
11	1.000000	0.819229	7.36515e+06	-39189.1	955.818	-29795.4	0.000000	0.000000	6.819079	0.080594	NaN	0.000000	0.001648	0.001586	28.1157	0.010348	0.002088	4.955895	-86.2223	-167.188	0.047973	0.817946	-0.262280	-0.263563	0.080594	4.955895	-0.274477	-1947.51	-4.138287E-5	NaN
11	1.000000	0.827200	7.36515e+06	-39189.1	955.818	-29795.4	0.000000	0.000000	6.827046	-0.021560	NaN	0.000000	0.001656	0.001561	28.1157	0.064202	0.001949	32.9449	-164.647	-165.499	-0.048745	0.825937	-0.254309	-0.255573	-0.021560	32.9449	-0.253818	-941.705	2.289474E-5	NaN
11	1.000000	0.835257	7.36515e+06	-39189.1	955.819	-29795.4	0.000000	0.000000	6.835100	-0.079328	NaN	0.000000	0.001617	0.001530	28.1158	0.028646	0.001918	14.9389	120.561	-164.437	0.012546	0.833927	-0.246252	-0.247583	-0.079328	14.9389	-0.242270	-623.682	0.000127	NaN
11	1.000000	0.843222	7.36515e+06	-39189.1	955.818	-29795.4	0.000000	0.000000	6.843069	0.010804	NaN	0.000000	0.001603	0.001565	28.1154	0.080144	0.002016	39.7534	148.546	-162.348	0.030516	0.841941	-0.238287	-0.239569	0.010804	39.7534	-0.238491	-544.464	-1.984402E-5	NaN
11	1.000000	0.851236	7.36515e+06	-39189.1	955.818	-29795.4	0.000000	0.000000	6.851083	0.002733	NaN	0.000000	0.001646	0.001583	28.1144	0.101832	0.002086	48.8143	-142.274	-165.307	0.012842	0.849918	-0.230273	-0.231592	0.002733	48.8143	-0.230315	-405.04	-6.746915E-6	NaN
11	1.000000	0.859251	7.36515e+06	-39189.1	955.818	-29795.4	0.000000	0.000000	6.859095	-0.050745	NaN	0.000000	0.001624	0.001558	28.1139	0.070586	0.001983	35.5865	-65.8493	-168.22	-0.009291	0.857916	-0.222258	-0.223594	-0.050745	35.5865	-0.221189	-290.176	0.000175	NaN
11	1.000000	0.867278	7.36515e+06	-39189.1	955.819	-29795.4	0.000000	0.000000	6.867126	0.028326	NaN	0.000000	0.001644	0.001589	28.1153	0.144738	0.002149	67.3531	128.925	-167.589	0.015356	0.865992	-0.214231	-0.215517	0.028326	67.3531	-0.214547	-227.102	-0.000125	NaN
11	1.000000	0.875238	7.36515e+06	-39189.1	955.819	-29795.4	0.000000	0.000000	6.875084	-0.012029	NaN	0.000000	0.001592	0.001612	28.115	0.054062	0.001950	27.7227	171.584	-164.72	-0.073394	0.873946	-0.206271	-0.207564	-0.012029	27.7227	-0.205946	-164.806	7.298647E-5	NaN
11	1.000000	0.883245	7.36515e+06	-39189.1	955.819	-29795.4	0.000000	0.000000	6.883092	0.001170	NaN	0.000000	0.001588	0.001552	28.1162	0.044460	0.001989	22.3546	-152.328	-167.209	-0.058787	0.881982	-0.198264	-0.199527	0.001170	22.3546	-0.198303	-123.532	-9.475084E-6	NaN
11	1.000000	0.891242	7.36515e+06	-39189.1	955.819	-29795.4	0.000000	0.000000	6.891091	0.046476	NaN	0.000000	0.001633	0.001567	28.1161	0.104288	0.002105	49.55	150.849	-162.096	0.035733	0.889915	-0.190267	-0.191595	0.046476	49.55	-0.190971	-93.3751	-0.000498	NaN
11	1.000000	0.899263	7.36515e+06	-39189.1	955.819	-29795.4	0.000000	0.000000	6.899110	0.024959	NaN	0.000000	0.001622	0.001561	28.1161	0.092845	0.001919	48.3827	127.503	-166.09	-0.051150	0.897953	-0.182247	-0.183556	0.024959	48.3827	-0.182634	-67.6334	-0.000369	NaN
11	1.000000	0.907249	7.36515e+06	-39189.1	955.819	-29795.4	0.000000	0.000000	6.907093	-0.039967	NaN	0.000000	0.001625	0.001529	28.1172	0.065563	0.002026	32.3596	-19.7909	-165.079	-0.054605	0.905959	-0.174261	-0.175550	-0.039967	32.3596	-0.173335	-46.9154	0.000852	NaN
11	1.000000	0.915274	7.36515e+06	-39189.1	955.818	-29795.4	0.000000	0.000000	6.915119	-0.030153	NaN	0.000000	0.001622	0.001550	28.1164	0.055982	0.002055	27.2444	-109.457	-164.761	-0.063348	0.913971	-0.166236	-0.167539	-0.030153	27.2444	-0.165406	-34.1531	0.000883	NaN
11	1.000000	0.923253	7.36515e+06	-39189.1	955.818	-29795.4	0.000000	0.000000	6.923099	-0.009115	NaN	0.000000	0.001611	0.001536	28.1161	0.067568	0.001964	34.3957	129.449	-163.849	-0.061741	0.922000	-0.158257	-0.159510	-0.009115	34.3957	-0.158058	-25.3159	0.000360	NaN
11	1.000000	0.931296	7.36515e+06	-39189.1	955.818	-29795.4	0.000000	0.000000	6.931145	0.050331	NaN	0.000000	0.001603	0.001579	28.1153	0.060155	0.002025	29.7108	11.373	-164.028	0.049863	0.929942	-0.150213	-0.151568	0.050331	29.7108	-0.151484	-19.2757	-0.002611	NaN
11	1.000000	0.939308	7.36515e+06	-39189.1	955.818	-29795.5	0.000000	0.000000	6.939156	0.034523	NaN	0.000000	0.001605	0.001573	28.1153	0.191880	0.001954	98.2037	12.2634	-164.934	-0.008364	0.937945	-0.142201	-0.143565	0.034523	98.2037	-0.142465	-13.1551	-0.002624	NaN
11	1.000000	0.947282	7.36515e+06	-39189.1	955.818	-29795.5	0.000000	0.000000	6.947130	0.042358	NaN	0.000000	0.001588	0.001537	28.115	0.036601	0.002095	17.4674	-93.5234	-167.379	0.050998	0.945986	-0.134228	-0.135523	0.042358	17.4674	-0.136047	-9.959415	-0.004253	NaN
11	1.000000	0.955265	7.36515e+06	-39189.1	955.818	-29795.5	0.000000	0.000000	6.955112	-0.002385	NaN	0.000000	0.001582	0.001523	28.1149	0.076496	0.002050	37.3157	-31.6703	-166.613	-0.070901	0.953986	-0.126244	-0.127524	-0.002385	37.3157	-0.126196	-6.421124	0.000372	NaN
11	1.000000	0.963282	7.36515e+06	-39189.1	955.818	-29795.4	0.000000	0.000000	6.963128	-0.016911	NaN	0.000000	0.001601	0.001570	28.1158	0.009501	0.001888	5.032594	168.807	-167.142	-0.002953	0.961962	-0.118228	-0.119548	-0.016911	5.032594	-0.115707	-3.950607	0.004281	NaN
11	1.000000	0.971296	7.36515e+06	-39189.1	955.819	-29795.4	0.000000	0.000000	6.971143	0.023184	NaN	0.000000	0.001570	0.001572	28.1161	0.126078	0.001933	65.2088	-19.0714	-165.61	0.002459	0.970006	-0.110214	-0.111504	0.023184	65.2088	-0.110480	-3.076040	-0.007537	NaN
11	1.000000	0.979306	7.36515e+06	-39189.1	955.819	-29795.5	0.000000	0.000000	6.979152	-0.005883	NaN	0.000000	0.001555	0.001564	28.1155	0.068358	0.001906	35.8646	80.1528	-167.493	0.009683	0.977961	-0.102204	-0.103548	-0.005883	35.8646	-0.102081	-2.030680	0.002897	NaN
11	1.000000	0.987311	7.36515e+06	-39189.1	955.819	-29795.5	0.000000	0.000000	6.987158	0.018919	NaN	0.000000	0.001583	0.001577	28.1157	0.025440	0.002110	12.0577	-178.905	-163.685	0.047486	0.986006	-0.094198	-0.095504	0.018919	12.0577	-0.095375	-1.438644	-0.013151	NaN
11	1.000000	0.995325	7.36515e+06	-39189.1	955.819	-29795.5	0.000000	0.000000	6.995172	0.023031	NaN	0.000000	0.001582	0.001558	28.1164	0.037610	0.002053	18.3233	-22.8455	-166.77	0.038342	0.993986	-0.086184	-0.087524	0.023031	18.3233	-0.087127	-0.924308	-0.024917	NaN
11	1.000000	1.003319	7.36515e+06	-39189.1	955.819	-29795.5	0.000000	0.000000	7.003170	0.112839	NaN	0.000000	0.001568	0.001586	28.1136	0.065210	0.001910	34.1357	70.5288	-164.005	0.045493	1.001998	-0.078190	-0.079512	0.112839	34.1357	-0.080670	-0.643267	-0.175416	NaN
11	1.000000	1.011320	7.36515e+06	-39189.1	955.818	-29795.5	0.000000	0.000000	7.011167	0.033012	NaN	0.000000	0.001559	0.001577	28.1137	0.075339	0.001977	38.1116	-122.012	-164.081	0.005851	1.009914	-0.070190	-0.071596	0.033012	38.1116	-0.070840	-0.359184	-0.091909	NaN
11	1.000000	1.019322	7.36515e+06	-39189.1	955.819	-29795.5	0.000000	0.000000	7.019169	0.019298	NaN	0.000000	0.001560	0.001572	28.1132	0.006485	0.001977	3.280331	-139.263	-168.963	-0.029279	1.017994	-0.062188	-0.063515	0.019298	3.280331	-0.066600	-0.275875	-0.069950	NaN
11	1.000000	1.027319	7.36515e+06	-39189.1	955.819	-29795.5	0.000000	0.000000	7.027166	0.023380	NaN	0.000000	0.001574	0.001591	28.1131	0.001926	0.001980	0.972316	-99.4256	-163.393	0.064308	1.026039	-0.054191	-0.055471	0.023380	0.972316	-0.072225	-0.390870	-0.059815	NaN
11	1.000000	1.035298	7.36515e+06	-39189.1	955.819	-29795.5	0.000000	0.000000	7.035146	0.042562	NaN	0.000000	0.001582	0.001603	28.1137	0.077925	0.002095	37.1934	84.7974	-164.052	0.118869	1.034020	-0.046211	-0.047489	0.042562	37.1934	-0.047070	-0.074338	-0.572547	NaN
11	1.000000	1.043331	7.36515e+06	-39189.1	955.818	-29795.5	0.000000	0.000000	7.043177	-0.011633	NaN	0.000000	0.001565	0.001555	28.1143	0.060282	0.001961	30.733	128.302	-166.476	0.052348	1.041988	-0.038178	-0.039522	-0.011633	30.733	-0.037894	-0.039056	0.297859	NaN
11	1.000000	1.051306	7.36515e+06	-39189.1	955.819	-29795.5	0.000000	0.000000	7.051153	0.018912	NaN	0.000000	0.001552	0.001627	28.1148	0.088740	0.002040	43.5	-142.281	-165.564	0.037396	1.050047	-0.030204	-0.031462	0.018912	43.5	-0.030530	-0.023811	-0.794247	NaN
11	1.000000	1.059303	7.36515e+06	-39189.1	955.819	-29795.5	0.000000	0.000000	7.059150	0.020491	NaN	0.000000	0.001575	0.001621	28.1142	0.081067	0.002004	40.4521	-37.8491	-166.007	-0.005792	1.058045	-0.022207	-0.023464	0.020491	40.4521	-0.022587	-0.014616	-1.401892	NaN
11	1.000000	1.067330	7.36515e+06	-39189.1	955.819	-29795.5	0.000000	0.000000	7.067177	0.029069	NaN	0.000000	0.001575	0.001621	28.1145	0.032347	0.002027	15.9609	-155.181	-162.432	0.091451	1.066040	-0.014180	-0.015469	0.029069	15.9609	-0.015546	-0.009605	-3.026537	NaN
11	1.000000	1.075300	7.36515e+06	-39189.1	955.818	-29795.5	0.000000	0.000000	7.075149	0.056480	NaN	0.000000	0.001623	0.001602	28.1141	0.056928	0.001816	31.3522	56.6223	-168.28	0.006684	1.074025	-0.006209	-0.007484	0.056480	31.3522	-0.007560	-0.004973	-11.357	NaN
11	1.000000	1.083319	7.36515e+06	-39189.1	955.818	-29795.5	0.000000	0.000000	7.083229	1.537294	NaN	0.000000	0.001617	0.001599	28.1125	2.386685	0.002000	1193.51	8.487946	-169.141	0.585090	1.082035	0.001810	0.000526	1.537294	1193.51	0.000844	0.000641	2398.36	43070.2
11	2.000000	1.089943	7.36515e+06	-39189.1	955.818	-29795.5	0.000000	0.000000	7.090106	7.695729	NaN	0.000000	0.001613	0.001579	28.1132	7.825996	0.001601	4887.8	8.032974	-172.266	7.758191	1.089593	0.008434	0.008084	7.695729	4887.8	0.007253	0.006285	1224.47	56329.4
11	2.000000	1.091913	7.36515e+06	-39189.1	955.819	-29795.5	0.000000	0.000000	7.092275	12.5424	NaN	0.000000	0.001586	0.001613	28.1123	10.5927	0.001664	6364.4	5.009310	-173.629	12.2859	1.091601	0.010404	0.010092	12.5424	6364.4	0.008926	0.008012	1565.48	64962.6
11	2.000000	1.093908	7.36515e+06	-39189.1	955.819	-29795.5	0.000000	0.000000	7.094339	14.2138	NaN	0.000000	0.001597	0.001568	28.1135	12.2006	0.001794	6801.71	6.384742	-171.524	13.509	1.093568	0.012399	0.012058	14.2138	6801.71	0.010832	0.010120	1404.49	61772.3
11	2.000000	1.095854	7.36515e+06	-39189.1	955.819	-29795.5	0.000000	0.000000	7.096365	16.1715	NaN	0.000000	0.001624	0.001572	28.1129	14.3017	0.001864	7672.31	8.652626	-176.494	16.3072	1.095610	0.014344	0.014100	16.1715	7672.31	0.012764	0.012418	1302.31	62904.4
11	2.000000	1.097836	7.36515e+06	-39189.1	955.819	-29795.5	0.000000	0.000000	7.098586	21.9781	NaN	0.000000	0.001617	0.001584	28.1136	15.8458	0.001769	8955.41	4.295334	-173.946	21.3032	1.097530	0.016327	0.016020	21.9781	8955.41	0.014486	0.014606	1504.71	67700.2
11	2.000000	1.099840	7.36515e+06	-39189.1	955.819	-29795.5	0.000000	0.000000	7.100573	21.5838	NaN	0.000000	0.001619	0.001562	28.1135	16.7486	0.001643	10191.6	7.374649	-177.187	21.2045	1.099569	0.018330	0.018060	21.5838	10191.6	0.016742	0.017679	1220.88	70030.5
11	2.000000	1.101849	7.36515e+06	-39189.1	955.819	-29795.5	0.000000	0.000000	7.102821	27.4067	NaN	0.000000	0.001605	0.001568	28.115	19.4088	0.001815	10693.7	6.567418	-176.441	27.887	1.101504	0.020339	0.019994	27.4067	10693.7	0.018417	0.020116	1362.46	68886.8
11	2.000000	1.103826	7.36515e+06	-39189.1	955.82	-29795.5	0.000000	0.000000	7.105036	33.1936	NaN	0.000000	0.001620	0.001580	28.1158	21.4373	0.001730	12388.8	6.561123	-178.083	31.7577	1.103471	0.022317	0.021961	33.1936	12388.8	0.020307	0.023027	1441.5	74590.4
11	2.000000	1.105853	7.36515e+06	-39189.1	955.819	-29795.5	0.000000	0.000000	7.107132	34.8526	NaN	0.000000	0.001546	0.001597	28.1152	22.5706	0.001724	13094.9	7.183000	-178.808	35.4414	1.105542	0.024344	0.024032	34.8526	13094.9	0.022347	0.026366	1321.87	73680.4
11	2.000000	1.107817	7.36515e+06	-39189.1	955.819	-29795.5	0.000000	0.000000	7.109264	38.9614	NaN	0.000000	0.001567	0.001582	28.1133	25.1948	0.001870	13474.4	3.181649	-176.449	37.4406	1.107541	0.026307	0.026031	38.9614	13474.4	0.024139	0.029467	1322.19	71715.4
11	2.000000	1.109826	7.36515e+06	-39189.1	955.819	-29795.4	0.000000	0.000000	7.111540	45.4453	NaN	0.000000	0.001562	0.001588	28.114	26.8095	0.001757	15261.6	7.638712	178.73	44.0872	1.109430	0.028316	0.027920	45.4453	15261.6	0.026083	0.033015	1376.5	76739
11	2.000000	1.111826	7.36516e+06	-39189.1	955.819	-29795.5	0.000000	0.000000	7.113664	48.465	NaN	0.000000	0.001615	0.001627	28.1134	28.8662	0.001905	15156.4	6.313683	-178.598	48.1695	1.111454	0.030316	0.029944	48.465	15156.4	0.027918	0.036539	1326.4	72442.4
11	2.000000	1.113853	7.36516e+06	-39189.1	955.819	-29795.5	0.000000	0.000000	7.115846	52.2272	NaN	0.000000	0.001555	0.001594	28.1138	30.8439	0.001836	16802.8	7.458019	178.388	52.4752	1.113535	0.032344	0.032025	52.2272	16802.8	0.030013	0.040770	1281.03	76029.9
11	2.000000	1.115783	7.36516e+06	-39189.1	955.819	-29795.5	0.000000	0.000000	7.118010	57.9292	NaN	0.000000	0.001596	0.001606	28.114	32.0288	0.001798	17816.5	8.019413	178.018	57.2841	1.115518	0.034273	0.034009	57.9292	17816.5	0.031835	0.044632	1297.92	77049.6
11	2.000000	1.117806	7.36516e+06	-39189.1	955.819	-29795.5	0.000000	0.000000	7.120215	62.3721	NaN	0.000000	0.001536	0.001590	28.1147	34.2276	0.001933	17704.2	8.919899	177.642	62.3373	1.117482	0.036296	0.035972	62.3721	17704.2	0.033654	0.048658	1281.85	73328.8
11	2.000000	1.119802	7.36516e+06	-39189.1	955.819	-29795.5	0.000000	0.000000	7.122490	69.1428	NaN	0.000000	0.001516	0.001561	28.1147	35	0.001826	19171.5	5.863156	178.953	68.2729	1.119471	0.038293	0.037962	69.1428	19171.5	0.035588	0.053123	1301.56	75995.3
11	2.000000	1.121743	7.36516e+06	-39189.1	955.819	-29795.5	0.000000	0.000000	7.124740	76.6896	NaN	0.000000	0.001547	0.001563	28.1143	37.0178	0.001852	19986.4	5.672718	178.429	74.7001	1.121459	0.040233	0.039949	76.6896	19986.4	0.037355	0.057372	1336.71	76235.4
11	2.000000	1.123862	7.36516e+06	-39189.1	955.819	-29795.5	0.000000	0.000000	7.126984	79.7063	NaN	0.000000	0.001546	0.001577	28.1156	37.7262	0.001766	21365.6	2.065421	-178.382	80.2838	1.123515	0.042353	0.042006	79.7063	21365.6	0.039555	0.062883	1267.53	77843.3
11	2.000000	1.125751	7.36516e+06	-39189.1	955.819	-29795.5	0.000000	0.000000	7.129106	85.3878	NaN	0.000000	0.001559	0.001635	28.1144	39.1605	0.001737	22546.6	2.113856	-178.853	83.2664	1.125586	0.044241	0.044076	85.3878	22546.6	0.041401	0.067698	1261.3	79170.9
11	2.000000	1.127850	7.36516e+06	-39189.1	955.818	-29795.5	0.000000	0.000000	7.131516	92.9631	NaN	0.000000	0.001548	0.001630	28.1137	43.1152	0.001977	21804.9	6.906006	177.071	93.166	1.127575	0.046340	0.046065	92.9631	21804.9	0.043143	0.072402	1283.98	74037.5
11	2.000000	1.129788	7.36516e+06	-39189.1	955.819	-29795.5	0.000000	0.000000	7.133879	103.279	NaN	0.000000	0.001553	0.001600	28.1133	44.3246	0.001798	24651.1	9.356598	173.897	103.985	1.129469	0.048279	0.047960	103.279	24651.1	0.045137	0.077975	1324.5	80654.8
11	2.000000	1.131749	7.36516e+06	-39189.1	955.819	-29795.5	0.000000	0.000000	7.136343	115.537	NaN	0.000000	0.001558	0.001593	28.1132	45.3832	0.001750	25926.5	4.530099	177.261	111.635	1.131374	0.050240	0.049864	115.537	25926.5	0.046897	0.083065	1390.92	82188
11	2.000000	1.133825	7.36516e+06	-39189.1	955.82	-29795.5	0.000000	0.000000	7.138561	118.976	NaN	0.000000	0.001626	0.001603	28.1138	47.6486	0.001719	27716.5	6.375887	176.726	118.974	1.133401	0.052316	0.051891	118.976	27716.5	0.049096	0.089640	1327.26	84578.5
11	2.000000	1.135749	7.36516e+06	-39189.1	955.819	-29795.5	0.000000	0.000000	7.140990	131.29	NaN	0.000000	0.001594	0.001578	28.1115	49.1874	0.001759	27960.8	4.903207	176.282	129.523	1.135473	0.054239	0.053963	131.29	27960.8	0.050718	0.094645	1387.19	83037.4
11	2.000000	1.137753	7.36516e+06	-39189.1	955.819	-29795.5	0.000000	0.000000	7.143292	138.543	NaN	0.000000	0.001604	0.001599	28.1127	52.0574	0.001794	29022.3	5.037439	175.385	135.326	1.137491	0.056243	0.055982	138.543	29022.3	0.052663	0.100822	1374.13	83507.9
11	2.000000	1.139810	7.36516e+06	-39189.1	955.819	-29795.5	0.000000	0.000000	7.145703	147.143	NaN	0.000000	0.001620	0.001618	28.113	52.6707	0.001871	28152.3	3.779456	178.154	148.94	1.139423	0.058300	0.057913	147.143	28152.3	0.054380	0.106431	1382.51	78840.9
11	2.000000	1.141773	7.36516e+06	-39189.1	955.819	-29795.5	0.000000	0.000000	7.148051	156.507	NaN	0.000000	0.001605	0.001610	28.1136	54.819	0.001632	33593.4	3.344579	176.588	157.352	1.141472	0.060264	0.059962	156.507	33593.4	0.056769	0.114480	1367.12	90711.6
11	2.000000	1.143823	7.36516e+06	-39189.1	955.82	-29795.5	0.000000	0.000000	7.150717	171.509	NaN	0.000000	0.001614	0.001624	28.1126	57.8928	0.001863	31075.5	4.209698	177.009	172.287	1.143488	0.062314	0.061979	171.509	31075.5	0.058174	0.119343	1437.11	82185
11	2.000000	1.145776	7.36516e+06	-39189.1	955.819	-29795.5	0.000000	0.000000	7.152734	173.079	NaN	0.000000	0.001616	0.001583	28.1131	60.5958	0.001799	33683.8	7.587710	171.598	171.348	1.145507	0.064266	0.063997	173.079	33683.8	0.060412	0.127291	1359.7	86257
11	2.000000	1.147751	7.36516e+06	-39189.1	955.82	-29795.5	0.000000	0.000000	7.155074	181.962	NaN	0.000000	0.001602	0.001618	28.1122	62.5898	0.001847	33879.6	4.839118	174.832	180.865	1.147455	0.066241	0.065946	181.962	33879.6	0.062213	0.133863	1359.32	84602.2
11	2.000000	1.149719	7.36516e+06	-39189.1	955.819	-29795.5	0.000000	0.000000	7.157334	189.056	NaN	0.000000	0.001592	0.001606	28.1114	62.5783	0.001678	37296.4	3.719133	175.012	185.587	1.149428	0.068209	0.067919	189.056	37296.4	0.064407	0.142085	1330.58	90399.4
11	2.000000	1.151745	7.36516e+06	-39189.1	955.82	-29795.5	0.000000	0.000000	7.160003	204.711	NaN	0.000000	0.001601	0.001639	28.1124	65.7808	0.001807	36409.6	3.522263	175.61	202.361	1.151379	0.070235	0.069869	204.711	36409.6	0.066018	0.148269	1380.67	86390.1
11	2.000000	1.153824	7.36516e+06	-39189.1	955.82	-29795.5	0.000000	0.000000	7.162422	212.973	NaN	0.000000	0.001607	0.001602	28.1116	68.4838	0.001884	36355.4	6.328082	172.918	215.739	1.153537	0.072315	0.072027	212.973	36355.4	0.067921	0.155734	1367.54	84168.6
11	2.000000	1.155730	7.36516e+06	-39189.1	955.818	-29795.5	0.000000	0.000000	7.164830	225.17	NaN	0.000000	0.001633	0.001621	28.1117	68.7662	0.001740	39530.6	5.906650	173.101	222.684	1.155348	0.074221	0.073838	225.17	39530.6	0.069949	0.163879	1374	89216.4
11	2.000000	1.157714	7.36516e+06	-39189.1	955.819	-29795.5	0.000000	0.000000	7.167048	230.898	NaN	0.000000	0.001575	0.001582	28.1133	71.5706	0.001792	39930	3.574183	175.177	229.009	1.157456	0.076204	0.075947	230.898	39930	0.071867	0.171766	1344.26	88024.6
11	2.000000	1.159692	7.36516e+06	-39189.1	955.819	-29795.5	0.000000	0.000000	7.169582	244.415	NaN	0.000000	0.001594	0.001598	28.1131	71.7366	0.001792	40028.9	0.983132	177.531	239.459	1.159452	0.078182	0.077943	244.415	40028.9	0.073603	0.179051	1365.06	86428.9
11	2.000000	1.161669	7.36516e+06	-39189.1	955.82	-29795.5	0.000000	0.000000	7.172148	258.748	NaN	0.000000	0.001612	0.001598	28.1129	76.0215	0.001849	41114.3	3.581409	174.085	253.434	1.161388	0.080160	0.079879	258.748	41114.3	0.075440	0.186918	1384.29	86884.2
11	2.000000	1.163788	7.36516e+06	-39189.1	955.819	-29795.5	0.000000	0.000000	7.174806	271.864	NaN	0.000000	0.001577	0.001599	28.1123	77.744	0.001822	42669.1	4.951376	173.322	271.822	1.163408	0.082278	0.081898	271.864	42669.1	0.077499	0.195925	1387.59	88072.6
11	2.000000	1.165720	7.36516e+06	-39189.1	955.82	-29795.5	0.000000	0.000000	7.177288	285.252	NaN	0.000000	0.001607	0.001625	28.1122	79.2939	0.001787	44366.3	7.191595	170.768	284.335	1.165355	0.084210	0.083845	285.252	44366.3	0.079388	0.204360	1395.83	89666
11	2.000000	1.167681	7.36516e+06	-39189.1	955.82	-29795.5	0.000000	0.000000	7.179430	289.648	NaN	0.000000	0.001602	0.001612	28.1117	81.6854	0.001810	45126.3	1.942726	175.453	286.301	1.167444	0.086171	0.085935	289.648	45126.3	0.081358	0.213333	1357.73	89263.6
11	2.000000	1.169753	7.36516e+06	-39189.1	955.819	-29795.5	0.000000	0.000000	7.181998	301.713	NaN	0.000000	0.001555	0.001609	28.1122	82.2737	0.001858	44291.1	2.933530	174.628	300.659	1.169637	0.088244	0.088127	301.713	44291.1	0.083135	0.221583	1361.62	85964.8
11	2.000000	1.171592	7.36516e+06	-39189.1	955.82	-29795.5	0.000000	0.000000	7.184478	317.325	NaN	0.000000	0.001598	0.001603	28.1137	85.5587	0.001877	45582.4	3.274863	174.321	309.684	1.171353	0.090082	0.089844	317.325	45582.4	0.084861	0.229739	1381.24	86886.7
11	2.000000	1.173678	7.36516e+06	-39189.1	955.819	-29795.5	0.000000	0.000000	7.187375	337.061	NaN	0.000000	0.001616	0.001610	28.1123	88.0124	0.001813	48548.2	5.943356	170.886	333.255	1.173402	0.092169	0.091892	337.061	48548.2	0.086962	0.239848	1405.31	90568.8
11	2.000000	1.175723	7.36516e+06	-39189.1	955.82	-29795.5	0.000000	0.000000	7.189794	346.146	NaN	0.000000	0.001610	0.001622	28.112	89.3605	0.001773	50391.6	6.933121	169.728	342.354	1.175411	0.094214	0.093901	346.146	50391.6	0.089062	0.250159	1383.7	92049.9
11	2.000000	1.177820	7.36516e+06	-39189.1	955.819	-29795.5	0.000000	0.000000	7.191842	344.973	NaN	0.000000	0.001588	0.001592	28.1145	91.2705	0.001857	49146.3	5.698804	170.802	346.367	1.177723	0.096311	0.096214	344.973	49146.3	0.091046	0.260086	1326.38	88045.1
11	2.000000	1.179628	7.36516e+06	-39189.1	955.82	-29795.5	0.000000	0.000000	7.194837	373.859	NaN	0.000000	0.001588	0.001642	28.1133	90.734	0.001678	54087.1	2.948387	172.993	369.406	1.179477	0.098119	0.097967	373.859	54087.1	0.092934	0.269700	1386.2	95153.9
11	2.000000	1.181639	7.36516e+06	-39189.1	955.818	-29795.5	0.000000	0.000000	7.197426	387.921	NaN	0.000000	0.001599	0.001628	28.1142	92.9784	0.001821	51052.2	1.534914	174.874	382.358	1.181425	0.100129	0.099915	387.921	51052.2	0.094430	0.277431	1398.26	88554.3
11	2.000000	1.183744	7.36516e+06	-39189.1	955.819	-29795.5	0.000000	0.000000	7.200427	409.716	NaN	0.000000	0.001601	0.001617	28.1141	95.3063	0.001744	54640.4	4.508592	171.903	408.641	1.183371	0.102235	0.101862	409.716	54640.4	0.096611	0.288886	1418.26	92880.4
11	2.000000	1.185736	7.36516e+06	-39189.1	955.819	-29795.5	0.000000	0.000000	7.203291	430.948	NaN	0.000000	0.001607	0.001600	28.1138	96.4944	0.001831	52700.8	4.012802	172.899	431.809	1.185405	0.104226	0.103896	430.948	52700.8	0.098093	0.296798	1451.99	88381.2
11	2.000000	1.187722	7.36516e+06	-39189.1	955.819	-29795.5	0.000000	0.000000	7.205911	446.357	NaN	0.000000	0.001557	0.001595	28.1125	98.3386	0.001691	58142.8	2.589389	173.236	444.15	1.187355	0.106213	0.105845	446.357	58142.8	0.100455	0.309606	1441.69	95469.5