File: remote_trans/data/nanoindenter/0828-1/data/Data_2025-08-06,11h17m57s/2025-07-22_16-23-58_1_712.txt
2025-07-22, 16:23:58, 1
Index	Phase	Displacement	Time	Pos X	Pos Y	Pos Z	Rot A	Rot B	Piezo Z	Force A	Force B	Gripper	Voltage A	Voltage B	Temperature	Amplitude force	Amplitude pos	Stiffness	Phase shift	Phase excitation	Force A raw	Displacement raw	HMax	HMax raw	Real Force	Real Stiffness	Contact Depth	Area	Hardness	Reduced Mod.
[#]	[#]	[um]	[s]	[um]	[um]	[um]	[m°]	[m°]	[um]	[uN]	[uN]	[V]	[V]	[V]	[°C]	[uN]	[um]	[N/m]	[°]	[°]	[uN]	[um]	[um]	[um]	[uN]	[N/m]	[um]	[um^2]	[MPa]	[MPa]
712	1.000000	0.002935	7.37202e+06	-41489.1	1005.82	-29786	0.000000	0.000000	6.002758	-0.005104	NaN	0.000000	0.001631	0.001763	28.081	0.040676	0.000897	45.3677	23.759	-158.152	0.050457	0.001718	-1.159776	-1.160993	-0.005104	45.3677	-1.159691	-3.167605E+15	1.611442E-18	NaN
712	1.000000	0.013037	7.37202e+06	-41489.1	1005.82	-29786	0.000000	0.000000	6.012859	-0.052492	NaN	0.000000	0.001634	0.001769	28.0807	0.191815	0.001118	171.514	-152.588	19.7748	-0.103501	0.011604	-1.149673	-1.151106	-0.052492	171.514	-1.149444	-2.308671E+15	2.273671E-17	NaN
712	1.000000	0.022927	7.37202e+06	-41489.1	1005.82	-29786	0.000000	0.000000	6.022753	0.044627	NaN	0.000000	0.001634	0.001761	28.0811	0.080466	0.001738	46.2982	-152.335	-166.497	-0.015262	0.021628	-1.139783	-1.141083	0.044627	46.2982	-1.140506	-1.751959E+15	-2.547289E-17	NaN
712	1.000000	0.032910	7.37202e+06	-41489.1	1005.82	-29786	0.000000	0.000000	6.032737	0.081770	NaN	0.000000	0.001637	0.001745	28.0808	0.031316	0.001970	15.8986	35.86	13.6416	0.049809	0.031546	-1.129800	-1.131164	0.081770	15.8986	-1.133658	-1.418025E+15	-5.766477E-17	NaN
712	1.000000	0.042941	7.37202e+06	-41489.1	1005.82	-29786	0.000000	0.000000	6.042763	-0.054514	NaN	0.000000	0.001623	0.001724	28.0817	0.011094	0.001987	5.582373	-37.7609	-163.81	-0.059159	0.041620	-1.119769	-1.121090	-0.054514	5.582373	-1.112445	-7.363761E+14	7.403040E-17	NaN
712	1.000000	0.052894	7.37202e+06	-41489.1	1005.82	-29786	0.000000	0.000000	6.052718	0.000249	NaN	0.000000	0.001632	0.001719	28.0807	0.102922	0.002117	48.6257	153.276	15.6002	-0.001779	0.051566	-1.109816	-1.111144	0.000249	48.6257	-1.109820	-6.790040E+14	-3.668917E-19	NaN
712	1.000000	0.062933	7.37202e+06	-41489.1	1005.82	-29786	0.000000	0.000000	6.062753	-0.078374	NaN	0.000000	0.001631	0.001740	28.0806	0.094720	0.002025	46.7647	17.7633	-165.975	0.000758	0.061609	-1.099778	-1.101101	-0.078374	46.7647	-1.098521	-4.788608E+14	1.636671E-16	NaN
712	1.000000	0.072935	7.37202e+06	-41489.1	1005.82	-29786	0.000000	0.000000	6.072759	-0.007761	NaN	0.000000	0.001616	0.001775	28.0806	0.082566	0.002039	40.4957	-87.3841	15.8797	0.018691	0.071578	-1.089775	-1.091132	-0.007761	40.4957	-1.089631	-3.637982E+14	2.133443E-17	NaN
712	1.000000	0.082932	7.37202e+06	-41489.1	1005.82	-29786	0.000000	0.000000	6.082757	0.008231	NaN	0.000000	0.001631	0.001770	28.0805	0.049975	0.001997	25.0243	-171.245	-163.966	0.018031	0.081646	-1.079778	-1.081064	0.008231	25.0243	-1.080024	-2.703012E+14	-3.045249E-17	NaN
712	1.000000	0.092944	7.37202e+06	-41489.1	1005.82	-29786	0.000000	0.000000	6.092767	-0.027708	NaN	0.000000	0.001656	0.001764	28.0792	0.043890	0.001920	22.8546	122.837	14.7725	-0.002504	0.091589	-1.069766	-1.071121	-0.027708	22.8546	-1.068857	-1.913518E+14	1.448009E-16	NaN
712	1.000000	0.102966	7.37202e+06	-41489.1	1005.82	-29786	0.000000	0.000000	6.102789	-0.020594	NaN	0.000000	0.001709	0.001742	28.0791	0.051776	0.002006	25.8105	-152.311	-164.288	-0.023078	0.101613	-1.059744	-1.061097	-0.020594	25.8105	-1.059146	-1.416920E+14	1.453436E-16	NaN
712	1.000000	0.112946	7.37202e+06	-41489.1	1005.82	-29786	0.000000	0.000000	6.112770	0.007670	NaN	0.000000	0.001691	0.001771	28.0798	0.141580	0.001927	73.4675	-116.98	21.7372	0.008786	0.111578	-1.049764	-1.051132	0.007670	73.4675	-1.049843	-1.062430E+14	-7.218974E-17	NaN
712	1.000000	0.122951	7.37202e+06	-41489.1	1005.82	-29786	0.000000	0.000000	6.122774	-0.033778	NaN	0.000000	0.001677	0.001738	28.0793	0.018350	0.002040	8.994166	145.002	-163.386	-0.023679	0.121633	-1.039759	-1.041078	-0.033778	8.994166	-1.036942	-7.126047E+13	4.740061E-16	NaN
712	1.000000	0.132946	7.37202e+06	-41489.1	1005.82	-29786	0.000000	0.000000	6.132772	0.058133	NaN	0.000000	0.001663	0.001739	28.0794	0.088848	0.002039	43.5813	-49.2852	11.4512	0.039478	0.131590	-1.029765	-1.031120	0.058133	43.5813	-1.030765	-5.885336E+13	-9.877667E-16	NaN
712	1.000000	0.142965	7.37202e+06	-41489.1	1005.82	-29786	0.000000	0.000000	6.142790	0.023008	NaN	0.000000	0.001689	0.001737	28.0795	0.100513	0.001987	50.5765	-98.0357	-163.979	0.029355	0.141641	-1.019745	-1.021069	0.023008	50.5765	-1.020086	-4.227784E+13	-5.442202E-16	NaN
712	1.000000	0.152969	7.37202e+06	-41489.1	1005.82	-29786	0.000000	0.000000	6.152794	0.019177	NaN	0.000000	0.001692	0.001738	28.0795	0.051582	0.002037	25.3202	-85.9828	20.8889	-0.019242	0.151632	-1.009741	-1.011079	0.019177	25.3202	-1.010309	-3.122785E+13	-6.141035E-16	NaN
712	1.000000	0.162968	7.37202e+06	-41489.1	1005.82	-29786	0.000000	0.000000	6.162792	-0.000511	NaN	0.000000	0.001693	0.001716	28.0793	0.036158	0.001897	19.0631	-56.2086	-164.623	0.038894	0.161636	-0.999743	-1.001074	-0.000511	19.0631	-0.999722	-2.249218E+13	2.271041E-17	NaN
712	1.000000	0.172969	7.37202e+06	-41489.1	1005.82	-29786	0.000000	0.000000	6.172789	-0.094131	NaN	0.000000	0.001656	0.001672	28.0792	0.014801	0.001841	8.039568	39.3625	13.8116	0.001664	0.171594	-0.989741	-0.991117	-0.094131	8.039568	-0.980960	-1.257020E+13	7.488411E-15	NaN
712	1.000000	0.182987	7.37202e+06	-41489.1	1005.82	-29786	0.000000	0.000000	6.182809	-0.046464	NaN	0.000000	0.001580	0.001736	28.0796	0.185890	0.002169	85.7002	-178.934	-160.462	-0.134308	0.181670	-0.979724	-0.981040	-0.046464	85.7002	-0.979317	-1.194564E+13	3.889584E-15	NaN
712	1.000000	0.192995	7.37202e+06	-41489.1	1005.82	-29786	0.000000	0.000000	6.192820	0.042964	NaN	0.000000	0.001611	0.001752	28.0792	0.069761	0.001993	34.9995	-146.832	14.7902	0.016583	0.191624	-0.969716	-0.971087	0.042964	34.9995	-0.970636	-9.125086E+12	-4.708316E-15	NaN
712	1.000000	0.202985	7.37202e+06	-41489.1	1005.82	-29786	0.000000	0.000000	6.202809	0.004300	NaN	0.000000	0.001591	0.001753	28.0792	0.082954	0.002017	41.1307	-89.9263	-166.41	0.024432	0.201683	-0.959725	-0.961027	0.004300	41.1307	-0.959803	-6.519546E+12	-6.594924E-16	NaN
712	1.000000	0.212991	7.37202e+06	-41489.1	1005.82	-29786	0.000000	0.000000	6.212812	-0.066433	NaN	0.000000	0.001574	0.001753	28.0792	0.089954	0.001993	45.1396	-126.132	12.1756	-0.120397	0.211651	-0.949719	-0.951059	-0.066433	45.1396	-0.948615	-4.606294E+12	1.442212E-14	NaN
712	1.000000	0.223030	7.37202e+06	-41489.1	1005.82	-29786	0.000000	0.000000	6.222851	-0.068881	NaN	0.000000	0.001620	0.001758	28.0799	0.066221	0.002055	32.2176	167.037	-165.972	-0.021086	0.221665	-0.939681	-0.941045	-0.068881	32.2176	-0.938077	-3.320418E+12	2.074479E-14	NaN
712	1.000000	0.233012	7.37202e+06	-41489.1	1005.82	-29786	0.000000	0.000000	6.232836	0.016264	NaN	0.000000	0.001584	0.001781	28.0802	0.018229	0.001947	9.363643	92.2725	17.3291	0.040414	0.231630	-0.929699	-0.931080	0.016264	9.363643	-0.931001	-2.665094E+12	-6.102720E-15	NaN
712	1.000000	0.242999	7.37202e+06	-41489.1	1005.82	-29786	0.000000	0.000000	6.242821	-0.046380	NaN	0.000000	0.001627	0.001757	28.0803	0.068845	0.002002	34.3953	84.0011	-168.494	-0.065482	0.241734	-0.919711	-0.920976	-0.046380	34.3953	-0.918700	-1.818231E+12	2.550858E-14	NaN
712	1.000000	0.252981	7.37202e+06	-41489.1	1005.82	-29786	0.000000	0.000000	6.252803	-0.045787	NaN	0.000000	0.001576	0.001771	28.0806	0.109125	0.002018	54.0738	-79.5036	16.2932	0.023771	0.251697	-0.909729	-0.911014	-0.045787	54.0738	-0.909094	-1.348729E+12	3.394833E-14	NaN
712	1.000000	0.263019	7.37202e+06	-41489.1	1005.82	-29786	0.000000	0.000000	6.262843	-0.002386	NaN	0.000000	0.001617	0.001783	28.0804	0.064641	0.001868	34.6024	-161.778	-165.1	-0.035491	0.261724	-0.899691	-0.900987	-0.002386	34.6024	-0.899639	-1.005053E+12	2.373829E-15	NaN
712	1.000000	0.273007	7.37202e+06	-41489.1	1005.82	-29786	0.000000	0.000000	6.272830	-0.007838	NaN	0.000000	0.001645	0.001785	28.0804	0.105213	0.002040	51.5813	-120.145	13.282	-0.054894	0.271631	-0.889704	-0.891079	-0.007838	51.5813	-0.889590	-7.351349E+11	1.066226E-14	NaN
712	1.000000	0.283015	7.37202e+06	-41489.1	1005.82	-29786	0.000000	0.000000	6.282841	0.039056	NaN	0.000000	0.001602	0.001793	28.0803	0.076729	0.001984	38.6665	-175.903	-169.038	-0.022154	0.281743	-0.879695	-0.880967	0.039056	38.6665	-0.880452	-5.531299E+11	-7.060876E-14	NaN
712	1.000000	0.293000	7.37202e+06	-41489.1	1005.82	-29786	0.000000	0.000000	6.292824	-0.004924	NaN	0.000000	0.001597	0.001798	28.0807	0.100846	0.001959	51.4891	-102.881	17.7559	-0.015788	0.291658	-0.869710	-0.871052	-0.004924	51.4891	-0.869639	-3.949608E+11	1.246772E-14	NaN
712	1.000000	0.303000	7.37202e+06	-41489.1	1005.82	-29786	0.000000	0.000000	6.302824	-0.005169	NaN	0.000000	0.001584	0.001765	28.0803	0.074362	0.002057	36.145	-135.749	-166.156	0.046832	0.301747	-0.859710	-0.860963	-0.005169	36.145	-0.859603	-2.888968E+11	1.789276E-14	NaN
712	1.000000	0.313036	7.37202e+06	-41489.1	1005.82	-29786	0.000000	0.000000	6.312858	-0.045375	NaN	0.000000	0.001562	0.001754	28.0802	0.117575	0.001839	63.9244	176.403	15.9187	0.016828	0.311669	-0.849674	-0.851042	-0.045375	63.9244	-0.849142	-2.085050E+11	2.176203E-13	NaN
712	1.000000	0.323040	7.37202e+06	-41489.1	1005.82	-29786	0.000000	0.000000	6.322860	-0.087562	NaN	0.000000	0.001568	0.001769	28.0803	0.079763	0.002006	39.7609	-92.5623	-166.305	-0.038351	0.321746	-0.839670	-0.840965	-0.087562	39.7609	-0.838019	-1.473832E+11	5.941102E-13	NaN
712	1.000000	0.333049	7.37202e+06	-41489.1	1005.82	-29786	0.000000	0.000000	6.332875	0.038834	NaN	0.000000	0.001642	0.001773	28.0803	0.125306	0.002110	59.3835	67.6086	12.4204	-0.042391	0.331647	-0.829661	-0.831063	0.038834	59.3835	-0.830151	-1.153020E+11	-3.368027E-13	NaN
712	1.000000	0.343034	7.37202e+06	-41489.1	1005.82	-29786	0.000000	0.000000	6.342859	0.024539	NaN	0.000000	0.001583	0.001788	28.0804	0.034631	0.002081	16.639	-77.768	-164.741	-0.036133	0.341706	-0.819677	-0.821004	0.024539	16.639	-0.820783	-8.606446E+10	-2.851233E-13	NaN
712	1.000000	0.353034	7.37202e+06	-41489.1	1005.82	-29786	0.000000	0.000000	6.352857	-0.022492	NaN	0.000000	0.001636	0.001807	28.0803	0.074663	0.002002	37.2971	-169.32	16.004	0.030305	0.351672	-0.809676	-0.811038	-0.022492	37.2971	-0.809224	-5.998467E+10	3.749673E-13	NaN
712	1.000000	0.363053	7.37202e+06	-41489.1	1005.82	-29786	0.000000	0.000000	6.362877	0.008546	NaN	0.000000	0.001616	0.001785	28.0796	0.078680	0.001880	41.8409	27.132	-167.359	0.015016	0.361772	-0.799658	-0.800938	0.008546	41.8409	-0.799811	-4.469859E+10	-1.911987E-13	NaN
712	1.000000	0.373087	7.37202e+06	-41489.1	1005.82	-29786	0.000000	0.000000	6.372911	-0.003402	NaN	0.000000	0.001664	0.001792	28.0789	0.035119	0.001985	17.6884	-105.755	12.2051	0.010083	0.371732	-0.789623	-0.790979	-0.003402	17.6884	-0.789479	-3.236001E+10	1.051232E-13	NaN
712	1.000000	0.383057	7.37202e+06	-41489.1	1005.82	-29786	0.000000	0.000000	6.382880	-0.031600	NaN	0.000000	0.001660	0.001779	28.0789	0.150236	0.001869	80.3645	136.629	-166.893	-0.011594	0.381737	-0.779653	-0.780973	-0.031600	80.3645	-0.779358	-2.357822E+10	1.340226E-12	NaN
712	1.000000	0.393076	7.37202e+06	-41489.1	1005.82	-29786	0.000000	0.000000	6.392900	-0.012563	NaN	0.000000	0.001617	0.001795	28.0791	0.023466	0.002006	11.7002	-126.672	14.3518	-0.035739	0.391661	-0.769634	-0.771050	-0.012563	11.7002	-0.768829	-1.695821E+10	7.408055E-13	NaN
712	1.000000	0.403073	7.37202e+06	-41489.1	1005.82	-29786	0.000000	0.000000	6.402895	-0.050551	NaN	0.000000	0.001637	0.001751	28.0795	0.066874	0.001928	34.6776	-76.8697	-169.448	-0.017331	0.401746	-0.759637	-0.760965	-0.050551	34.6776	-0.758544	-1.228839E+10	4.113743E-12	NaN
712	1.000000	0.413054	7.37202e+06	-41489.1	1005.82	-29786	0.000000	0.000000	6.412875	-0.065391	NaN	0.000000	0.001612	0.001786	28.0793	0.095751	0.001978	48.4072	108.444	16.8315	-0.090486	0.411725	-0.749656	-0.750985	-0.065391	48.4072	-0.748643	-9.010525E+9	7.257191E-12	NaN
712	1.000000	0.423089	7.37202e+06	-41489.1	1005.82	-29786	0.000000	0.000000	6.422914	0.018673	NaN	0.000000	0.001627	0.001781	28.0793	0.100564	0.001920	52.3799	141.901	-166.819	0.075389	0.421733	-0.739621	-0.740977	0.018673	52.3799	-0.739888	-6.847505E+9	-2.727047E-12	NaN
712	1.000000	0.433083	7.37202e+06	-41489.1	1005.82	-29786	0.000000	0.000000	6.432906	-0.013465	NaN	0.000000	0.001621	0.001790	28.0793	0.076166	0.001921	39.6568	-131.581	14.6933	-0.070283	0.431692	-0.729627	-0.731018	-0.013465	39.6568	-0.729373	-4.923312E+9	2.734922E-12	NaN
712	1.000000	0.443113	7.37202e+06	-41489.1	1005.82	-29786	0.000000	0.000000	6.442940	0.077298	NaN	0.000000	0.001636	0.001771	28.0792	0.045267	0.002099	21.5677	142.858	-165.397	0.050209	0.441789	-0.719597	-0.720921	0.077298	21.5677	-0.722285	-3.941247E+9	-1.961262E-11	NaN
712	1.000000	0.453054	7.37202e+06	-41489.1	1005.82	-29786	0.000000	0.000000	6.452876	-0.043402	NaN	0.000000	0.001638	0.001797	28.0791	0.108763	0.002026	53.6818	2.445589	17.1686	0.026363	0.451747	-0.709656	-0.710963	-0.043402	53.6818	-0.709050	-2.600641E+9	1.668906E-11	NaN
712	1.000000	0.463130	7.37202e+06	-41489.1	1005.82	-29786	0.000000	0.000000	6.462955	0.030942	NaN	0.000000	0.001636	0.001797	28.0791	0.040559	0.002031	19.969	7.455873	-160.665	0.033600	0.461804	-0.699580	-0.700906	0.030942	19.969	-0.700742	-2.002935E+9	-1.544820E-11	NaN
712	1.000000	0.473089	7.37202e+06	-41489.1	1005.82	-29786	0.000000	0.000000	6.472913	0.001810	NaN	0.000000	0.001606	0.001771	28.0793	0.043486	0.002043	21.2841	-75.2263	14.8174	-0.046427	0.471735	-0.689622	-0.690975	0.001810	21.2841	-0.689685	-1.414549E+9	-1.279482E-12	NaN
712	1.000000	0.483124	7.37202e+06	-41489.1	1005.82	-29786	0.000000	0.000000	6.482946	-0.059229	NaN	0.000000	0.001622	0.001786	28.0792	0.050627	0.002041	24.8048	-125.761	-168.566	-0.033473	0.481861	-0.679586	-0.680850	-0.059229	24.8048	-0.677795	-9.728595E+8	6.088137E-11	NaN
712	1.000000	0.493110	7.37202e+06	-41489.1	1005.82	-29786	0.000000	0.000000	6.492937	0.072607	NaN	0.000000	0.001685	0.001800	28.0791	0.042173	0.002096	20.1166	122.805	16.1656	0.038865	0.491725	-0.669600	-0.670985	0.072607	20.1166	-0.672307	-8.183942E+8	-8.871845E-11	NaN
712	1.000000	0.503123	7.37202e+06	-41489.1	1005.82	-29786	0.000000	0.000000	6.502945	-0.058707	NaN	0.000000	0.001699	0.001787	28.0804	0.083103	0.001907	43.5749	-74.3061	-164.843	-0.027471	0.501841	-0.659587	-0.660869	-0.058707	43.5749	-0.658577	-5.308469E+8	1.105905E-10	NaN
712	1.000000	0.513106	7.37202e+06	-41489.1	1005.82	-29786	0.000000	0.000000	6.512931	0.037446	NaN	0.000000	0.001682	0.001786	28.0806	0.139540	0.002163	64.5266	-13.9153	15.384	0.014459	0.511762	-0.649605	-0.650948	0.037446	64.5266	-0.650040	-4.054915E+8	-9.234630E-11	NaN
712	1.000000	0.523158	7.37202e+06	-41489.1	1005.82	-29786	0.000000	0.000000	6.522984	0.036957	NaN	0.000000	0.001632	0.001769	28.0804	0.023726	0.001975	12.0139	171.908	-167.594	-0.015402	0.521816	-0.639552	-0.640894	0.036957	12.0139	-0.641859	-3.131792E+8	-1.180049E-10	NaN
712	1.000000	0.533147	7.37202e+06	-41489.1	1005.82	-29786	0.000000	0.000000	6.532969	-0.051956	NaN	0.000000	0.001624	0.001792	28.0804	0.026809	0.002154	12.4465	-94.0931	15.8216	-0.052308	0.531761	-0.629563	-0.630949	-0.051956	12.4465	-0.626432	-1.923197E+8	2.701563E-10	NaN
712	1.000000	0.543123	7.37202e+06	-41489.1	1005.82	-29786	0.000000	0.000000	6.542947	-0.003522	NaN	0.000000	0.001601	0.001806	28.0807	0.024889	0.002138	11.6435	-140.757	-168.808	0.002932	0.541813	-0.619588	-0.620897	-0.003522	11.6435	-0.619361	-1.537608E+8	2.290434E-11	NaN
712	1.000000	0.553153	7.37202e+06	-41489.1	1005.82	-29786	0.000000	0.000000	6.552976	-0.043198	NaN	0.000000	0.001584	0.001795	28.0805	0.072466	0.001955	37.0687	-174.048	16.4873	-0.050061	0.551747	-0.609557	-0.610963	-0.043198	37.0687	-0.608683	-1.096453E+8	3.939775E-10	NaN
712	1.000000	0.563141	7.37202e+06	-41489.1	1005.82	-29786	0.000000	0.000000	6.562965	-0.018075	NaN	0.000000	0.001614	0.001822	28.0804	0.035150	0.002006	17.5248	-48.0287	-162.45	0.030576	0.561831	-0.599569	-0.600879	-0.018075	17.5248	-0.598795	-8.014310E+7	2.255365E-10	NaN
712	1.000000	0.573152	7.37202e+06	-41489.1	1005.82	-29786	0.000000	0.000000	6.572977	0.013549	NaN	0.000000	0.001606	0.001782	28.0807	0.066818	0.002113	31.6187	87.888	15.8616	-0.124200	0.571773	-0.589558	-0.590938	0.013549	31.6187	-0.589879	-6.039521E+7	-2.243443E-10	NaN
712	1.000000	0.583182	7.37202e+06	-41489.1	1005.82	-29786	0.000000	0.000000	6.583004	-0.046621	NaN	0.000000	0.001594	0.001799	28.0808	0.142484	0.001918	74.2781	11.4885	-167.985	-0.008733	0.581846	-0.579528	-0.580865	-0.046621	74.2781	-0.579057	-4.282677E+7	1.088598E-9	NaN
712	1.000000	0.593162	7.37202e+06	-41489.1	1005.82	-29786	0.000000	0.000000	6.592989	0.062198	NaN	0.000000	0.001615	0.001776	28.0807	0.044103	0.001974	22.3389	102.15	13.1995	0.101777	0.591752	-0.569548	-0.570958	0.062198	22.3389	-0.571636	-3.382490E+7	-1.838818E-9	NaN
712	1.000000	0.603132	7.37202e+06	-41489.1	1005.82	-29786	0.000000	0.000000	6.602955	-0.015212	NaN	0.000000	0.001603	0.001811	28.0806	0.054547	0.002060	26.4793	114.004	-165.438	-0.047276	0.601871	-0.559578	-0.560839	-0.015212	26.4793	-0.559147	-2.272907E+7	6.692774E-10	NaN
712	1.000000	0.613170	7.37202e+06	-41489.1	1005.82	-29786	0.000000	0.000000	6.612995	0.038663	NaN	0.000000	0.001645	0.001806	28.0806	0.063059	0.001979	31.8697	169.549	13.3527	-0.016646	0.611793	-0.549541	-0.550917	0.038663	31.8697	-0.550450	-1.722642E+7	-2.244428E-9	NaN
712	1.000000	0.623187	7.37202e+06	-41489.1	1005.82	-29786	0.000000	0.000000	6.623011	-0.003537	NaN	0.000000	0.001704	0.001770	28.0804	0.075688	0.002058	36.7804	-134.658	-162.585	0.004770	0.621878	-0.539523	-0.540833	-0.003537	36.7804	-0.539451	-1.212660E+7	2.916995E-10	NaN
712	1.000000	0.633167	7.37202e+06	-41489.1	1005.82	-29786	0.000000	0.000000	6.632991	-0.002945	NaN	0.000000	0.001661	0.001796	28.0797	0.074746	0.001990	37.5598	-64.8409	16.0566	-0.047130	0.631802	-0.529543	-0.530908	-0.002945	37.5598	-0.529484	-8.8189e+06	3.339136E-10	NaN
712	1.000000	0.643150	7.37202e+06	-41489.1	1005.82	-29786	0.000000	0.000000	6.642973	-0.030558	NaN	0.000000	0.001645	0.001781	28.0792	0.033345	0.001975	16.8849	-59.4638	-164.593	-0.007668	0.641896	-0.519560	-0.520815	-0.030558	16.8849	-0.518203	-6.14611e+06	4.971968E-9	NaN
712	1.000000	0.653180	7.37202e+06	-41489.1	1005.82	-29786	0.000000	0.000000	6.653001	-0.076357	NaN	0.000000	0.001631	0.001781	28.0793	0.023125	0.002100	11.0097	-25.9108	12.37	-0.029825	0.651787	-0.509530	-0.510923	-0.076357	11.0097	-0.504329	-3.939e+06	1.938483E-8	NaN
712	1.000000	0.663186	7.37202e+06	-41489.1	1005.82	-29786	0.000000	0.000000	6.663009	-0.010887	NaN	0.000000	0.001630	0.001761	28.0789	0.028601	0.001971	14.5142	73.1762	-163.512	-0.009285	0.661906	-0.499524	-0.500805	-0.010887	14.5142	-0.498962	-3.31538e+06	3.283722E-9	NaN
712	1.000000	0.673207	7.37202e+06	-41489.1	1005.82	-29786	0.000000	0.000000	6.673030	-0.027581	NaN	0.000000	0.001593	0.001756	28.0793	0.079270	0.001888	41.9913	-64.9436	16.0434	-0.065769	0.671822	-0.489503	-0.490888	-0.027581	41.9913	-0.489011	-2.4075e+06	1.145613E-8	NaN
712	1.000000	0.683213	7.37202e+06	-41489.1	1005.82	-29786	0.000000	0.000000	6.683035	-0.047531	NaN	0.000000	0.001645	0.001803	28.0792	0.007782	0.002084	3.734078	-42.542	-167.842	-0.046563	0.681881	-0.479497	-0.480829	-0.047531	3.734078	-0.469950	-1.3023e+06	3.649768E-8	NaN
712	1.000000	0.693210	7.37202e+06	-41489.1	1005.82	-29786	0.000000	0.000000	6.693031	-0.071426	NaN	0.000000	0.001626	0.001792	28.0793	0.118074	0.002094	56.3825	-104.834	14.7975	-0.106259	0.691849	-0.469501	-0.470862	-0.071426	56.3825	-0.468551	-1.24473e+06	5.738263E-8	NaN
712	1.000000	0.703188	7.37202e+06	-41489.1	1005.82	-29786	0.000000	0.000000	6.703012	-0.011822	NaN	0.000000	0.001626	0.001744	28.0791	0.045312	0.001978	22.9045	-57.3663	-165.073	-0.049610	0.701940	-0.459522	-0.460770	-0.011822	22.9045	-0.459135	-918031	1.287729E-8	NaN
712	1.000000	0.713223	7.37202e+06	-41489.1	1005.82	-29786	0.000000	0.000000	6.713047	-0.005731	NaN	0.000000	0.001609	0.001797	28.0793	0.026220	0.001965	13.3436	-18.2725	15.6236	0.015354	0.711868	-0.449487	-0.450842	-0.005731	13.3436	-0.449165	-664628	8.623235E-9	NaN
712	1.000000	0.723203	7.37202e+06	-41489.1	1005.82	-29786	0.000000	0.000000	6.723027	-0.000592	NaN	0.000000	0.001579	0.001777	28.0793	0.018837	0.002056	9.161615	4.436650	-163.734	0.021308	0.721924	-0.439508	-0.440786	-0.000592	9.161615	-0.439459	-484986	1.220821E-9	NaN
712	1.000000	0.733198	7.37202e+06	-41489.1	1005.82	-29786	0.000000	0.000000	6.733021	-0.028079	NaN	0.000000	0.001617	0.001743	28.0794	0.058708	0.002041	28.7589	2.855935	15.6086	-0.003866	0.731881	-0.429512	-0.430830	-0.028079	28.7589	-0.428780	-342604	8.195678E-8	NaN
712	1.000000	0.743247	7.37202e+06	-41489.1	1005.82	-29786	0.000000	0.000000	6.743072	0.022225	NaN	0.000000	0.001615	0.001758	28.0791	0.014897	0.002027	7.350481	-154.528	-164.242	0.036989	0.741847	-0.419463	-0.420863	0.022225	7.350481	-0.421731	-272241	-8.163854E-8	NaN
712	1.000000	0.753219	7.37202e+06	-41489.1	1005.82	-29786	0.000000	0.000000	6.753044	0.040191	NaN	0.000000	0.001616	0.001770	28.0794	0.023697	0.002045	11.587	116.601	13.4962	0.016791	0.751847	-0.409492	-0.410863	0.040191	11.587	-0.412093	-198682	-2.022882E-7	NaN
712	1.000000	0.763220	7.37202e+06	-41489.1	1005.82	-29786	0.000000	0.000000	6.763042	-0.059016	NaN	0.000000	0.001620	0.001776	28.0797	0.115674	0.002017	57.339	44.5341	-168.273	-0.078282	0.761931	-0.399490	-0.400779	-0.059016	57.339	-0.398718	-128147	4.605336E-7	NaN
712	1.000000	0.773214	7.37202e+06	-41489.1	1005.82	-29786	0.000000	0.000000	6.773038	-0.006473	NaN	0.000000	0.001625	0.001761	28.0809	0.116724	0.002065	56.529	-130.297	14.129	0.007250	0.771873	-0.389496	-0.390837	-0.006473	56.529	-0.389410	-94346.6	6.860913E-8	NaN
712	1.000000	0.783212	7.37202e+06	-41489.1	1005.82	-29786	0.000000	0.000000	6.783035	-0.023881	NaN	0.000000	0.001629	0.001782	28.0807	0.112509	0.001989	56.5537	-10.3553	-163.795	0.027474	0.781859	-0.379498	-0.380851	-0.023881	56.5537	-0.379181	-67318.5	3.547517E-7	NaN
712	1.000000	0.793270	7.37202e+06	-41489.1	1005.82	-29786	0.000000	0.000000	6.793091	-0.085028	NaN	0.000000	0.001566	0.001722	28.0809	0.071511	0.002126	33.6346	46.2475	13.008	-0.070300	0.791885	-0.369440	-0.370825	-0.085028	33.6346	-0.367544	-45786.7	1.857049E-6	NaN
712	1.000000	0.803233	7.37202e+06	-41489.1	1005.82	-29786	0.000000	0.000000	6.803056	-0.023984	NaN	0.000000	0.001606	0.001725	28.0806	0.058090	0.001782	32.6057	135.313	-162.768	-0.068060	0.801979	-0.359477	-0.360731	-0.023984	32.6057	-0.358926	-34380.5	6.976157E-7	NaN
712	1.000000	0.813247	7.37202e+06	-41489.1	1005.82	-29786	0.000000	0.000000	6.813070	-0.019872	NaN	0.000000	0.001619	0.001730	28.0807	0.092688	0.001838	50.4338	-64.8676	11.6055	-0.077953	0.811824	-0.349464	-0.350886	-0.019872	50.4338	-0.349168	-24827.1	8.004114E-7	NaN
712	1.000000	0.823253	7.37202e+06	-41489.1	1005.82	-29786	0.000000	0.000000	6.823078	0.010273	NaN	0.000000	0.001622	0.001748	28.0805	0.074322	0.001993	37.2871	62.5973	-166.225	-0.037252	0.821960	-0.339457	-0.340751	0.010273	37.2871	-0.339664	-18057.2	-5.688907E-7	NaN
712	1.000000	0.833229	7.37202e+06	-41489.1	1005.82	-29786	0.000000	0.000000	6.833052	-0.009170	NaN	0.000000	0.001660	0.001736	28.0808	0.025136	0.002041	12.3136	-54.9579	16.8017	0.044671	0.831928	-0.329481	-0.330782	-0.009170	12.3136	-0.328923	-12579.8	7.289490E-7	NaN
712	1.000000	0.843277	7.37202e+06	-41489.1	1005.82	-29786	0.000000	0.000000	6.843099	-0.042947	NaN	0.000000	0.001655	0.001722	28.0804	0.110786	0.002044	54.1905	45.5961	-166.856	0.016391	0.841964	-0.319434	-0.320746	-0.042947	54.1905	-0.318839	-8944.34	4.801535E-6	NaN
712	1.000000	0.853251	7.37202e+06	-41489.1	1005.82	-29786	0.000000	0.000000	6.853071	-0.109051	NaN	0.000000	0.001635	0.001730	28.0807	0.065706	0.002017	32.5719	42.8868	12.9674	-0.102766	0.851909	-0.309459	-0.310802	-0.109051	32.5719	-0.306948	-5968.26	1.827186E-5	NaN
712	1.000000	0.863266	7.37202e+06	-41489.1	1005.82	-29786	0.000000	0.000000	6.863091	0.041302	NaN	0.000000	0.001656	0.001788	28.0807	0.114029	0.002022	56.4028	-75.5276	-165.258	0.096049	0.861973	-0.299444	-0.300737	0.041302	56.4028	-0.299994	-4704.8	-8.778676E-6	NaN
712	1.000000	0.873265	7.37202e+06	-41489.1	1005.82	-29786	0.000000	0.000000	6.873089	0.004423	NaN	0.000000	0.001637	0.001765	28.0806	0.032618	0.001981	16.4693	128.506	10.9236	0.052107	0.871940	-0.289445	-0.290771	0.004423	16.4693	-0.289647	-3296.18	-1.341978E-6	NaN
712	1.000000	0.883259	7.37202e+06	-41489.1	1005.82	-29786	0.000000	0.000000	6.883080	-0.069420	NaN	0.000000	0.001636	0.001750	28.0805	0.128181	0.002018	63.5143	-156.804	-165.81	-0.089694	0.881942	-0.279451	-0.280768	-0.069420	63.5143	-0.278631	-2250.66	3.084446E-5	NaN
712	1.000000	0.893286	7.37202e+06	-41489.1	1005.82	-29786	0.000000	0.000000	6.893111	0.017069	NaN	0.000000	0.001637	0.001770	28.0805	0.091331	0.002002	45.6187	126.829	12.6262	-0.007990	0.891889	-0.269424	-0.270821	0.017069	45.6187	-0.269705	-1648.39	-1.035472E-5	NaN
712	1.000000	0.903265	7.37202e+06	-41489.1	1005.82	-29786	0.000000	0.000000	6.903090	0.013334	NaN	0.000000	0.001634	0.001751	28.0807	0.089069	0.002074	42.9427	149.538	-166.074	-0.005426	0.901965	-0.259445	-0.260745	0.013334	42.9427	-0.259678	-1158.73	-1.150744E-5	NaN
712	1.000000	0.913282	7.37202e+06	-41489.1	1005.82	-29786	0.000000	0.000000	6.913105	-0.023480	NaN	0.000000	0.001640	0.001770	28.0794	0.035944	0.001955	18.3839	103.068	15.4751	-0.126223	0.911929	-0.249428	-0.250781	-0.023480	18.3839	-0.248470	-778.564	3.015830E-5	NaN
712	1.000000	0.923269	7.37202e+06	-41489.1	1005.82	-29786	0.000000	0.000000	6.923092	-0.028624	NaN	0.000000	0.001674	0.001721	28.0794	0.093504	0.002045	45.7197	-70.8664	-167.459	0.041828	0.921973	-0.239441	-0.240738	-0.028624	45.7197	-0.238972	-553.965	5.167102E-5	NaN
712	1.000000	0.933326	7.37202e+06	-41489.1	1005.82	-29786	0.000000	0.000000	6.933150	-0.005983	NaN	0.000000	0.001624	0.001696	28.0793	0.069655	0.002051	33.9679	-87.0898	13.2659	-0.020803	0.931961	-0.229384	-0.230750	-0.005983	33.9679	-0.229252	-389.668	1.535480E-5	NaN
712	1.000000	0.943296	7.37202e+06	-41489.1	1005.82	-29786	0.000000	0.000000	6.943118	-0.044345	NaN	0.000000	0.001628	0.001712	28.0797	0.126594	0.001920	65.9188	-129.336	-165.377	-0.012786	0.941946	-0.219414	-0.220764	-0.044345	65.9188	-0.218910	-266.832	0.000166	NaN
712	1.000000	0.953292	7.37202e+06	-41489.1	1005.82	-29786	0.000000	0.000000	6.953113	-0.065468	NaN	0.000000	0.001641	0.001738	28.0793	0.082688	0.001991	41.5225	-82.0745	13.2802	-0.053676	0.951915	-0.209418	-0.210796	-0.065468	41.5225	-0.208236	-179.561	0.000365	NaN
712	1.000000	0.963284	7.37202e+06	-41489.1	1005.82	-29786	0.000000	0.000000	6.963108	-0.018118	NaN	0.000000	0.001630	0.001732	28.0795	0.065536	0.002024	32.3757	5.852849	-165.56	0.007772	0.962004	-0.199426	-0.200706	-0.018118	32.3757	-0.199006	-126.868	0.000143	NaN
712	1.000000	0.973304	7.37202e+06	-41489.1	1005.82	-29786	0.000000	0.000000	6.973127	-0.009726	NaN	0.000000	0.001627	0.001711	28.0795	0.039460	0.001920	20.5477	30.3648	15.5845	0.045097	0.971948	-0.189406	-0.190762	-0.009726	20.5477	-0.189051	-86.7295	0.000112	NaN
712	1.000000	0.983322	7.37202e+06	-41489.1	1005.82	-29786	0.000000	0.000000	6.983146	0.014047	NaN	0.000000	0.001638	0.001689	28.0796	0.045719	0.002044	22.364	55.3822	-165.877	-0.006804	0.982044	-0.179389	-0.180666	0.014047	22.364	-0.179860	-60.6848	-0.000231	NaN
712	1.000000	0.993333	7.37202e+06	-41489.1	1005.82	-29786	0.000000	0.000000	6.993157	-0.002441	NaN	0.000000	0.001666	0.001697	28.0795	0.038652	0.001970	19.6219	50.3805	9.680789	-0.038761	0.991923	-0.169377	-0.170787	-0.002441	19.6219	-0.169284	-39.9178	6.114699E-5	NaN
712	1.000000	1.003318	7.37202e+06	-41489.1	1005.82	-29786	0.000000	0.000000	7.003141	-0.021847	NaN	0.000000	0.001643	0.001706	28.0795	0.088016	0.001944	45.2828	77.756	-163.549	-0.027149	1.001995	-0.159392	-0.160715	-0.021847	45.2828	-0.159030	-26.3471	0.000829	NaN
712	1.000000	1.013310	7.37202e+06	-41489.1	1005.82	-29786	0.000000	0.000000	7.013135	0.003286	NaN	0.000000	0.001628	0.001726	28.0795	0.060102	0.001916	31.374	161.295	13.978	-0.035636	1.011964	-0.149400	-0.150746	0.003286	31.374	-0.149478	-17.7208	-0.000185	NaN
712	1.000000	1.023347	7.37202e+06	-41489.1	1005.82	-29786	0.000000	0.000000	7.023171	-0.011322	NaN	0.000000	0.001738	0.001742	28.0796	0.061118	0.001991	30.6954	108.506	-163.299	0.002073	1.021978	-0.139363	-0.140732	-0.011322	30.6954	-0.139086	-11.3704	0.000996	NaN
712	1.000000	1.033326	7.37202e+06	-41489.1	1005.82	-29786	0.000000	0.000000	7.033151	0.011303	NaN	0.000000	0.001679	0.001719	28.0794	0.079084	0.001988	39.7781	88.8838	13.1195	-0.026050	1.032020	-0.129384	-0.130690	0.011303	39.7781	-0.129597	-7.484720	-0.001510	NaN
712	1.000000	1.043358	7.37202e+06	-41489.1	1005.82	-29786	0.000000	0.000000	7.043180	-0.036580	NaN	0.000000	0.001609	0.001694	28.0805	0.140869	0.001994	70.6353	27.4598	-162.935	-0.008126	1.041971	-0.119353	-0.120739	-0.036580	70.6353	-0.118964	-4.603963	0.007945	NaN
712	1.000000	1.053322	7.37202e+06	-41489.1	1005.82	-29786	0.000000	0.000000	7.053146	0.000660	NaN	0.000000	0.001596	0.001726	28.0808	0.074584	0.001978	37.7152	-179.304	12.8546	-0.037027	1.051978	-0.109388	-0.110732	0.000660	37.7152	-0.109401	-2.918938	-0.000226	NaN
712	1.000000	1.063331	7.37202e+06	-41489.1	1005.82	-29786	0.000000	0.000000	7.063153	-0.033042	NaN	0.000000	0.001606	0.001727	28.0805	0.012690	0.002024	6.268640	-102.58	-162.222	-0.002468	1.062003	-0.099380	-0.100707	-0.033042	6.268640	-0.095426	-1.442505	0.022906	NaN
712	1.000000	1.073343	7.37202e+06	-41489.1	1005.82	-29786	0.000000	0.000000	7.073168	0.032170	NaN	0.000000	0.001619	0.001698	28.0805	0.026208	0.001949	13.4462	-23.2027	12.496	-0.004361	1.071949	-0.089367	-0.090761	0.032170	13.4462	-0.091162	-1.150753	-0.027955	NaN
712	1.000000	1.083332	7.37202e+06	-41489.1	1005.82	-29786	0.000000	0.000000	7.083155	-0.024812	NaN	0.000000	0.001601	0.001712	28.0805	0.112920	0.002002	56.3995	136.49	-167.534	0.010825	1.082041	-0.079378	-0.080669	-0.024812	56.3995	-0.079048	-0.585890	0.042349	NaN
712	1.000000	1.093340	7.37202e+06	-41489.1	1005.82	-29786	0.000000	0.000000	7.093163	-0.023813	NaN	0.000000	0.001583	0.001736	28.0806	0.129464	0.001976	65.5242	-130.841	14.196	-0.042609	1.092014	-0.069370	-0.070696	-0.023813	65.5242	-0.069098	-0.322582	0.073821	NaN
712	1.000000	1.103359	7.37202e+06	-41489.1	1005.82	-29786	0.000000	0.000000	7.103182	-0.009999	NaN	0.000000	0.001628	0.001676	28.0804	0.061684	0.002070	29.7919	-170.074	-167.924	0.068649	1.102038	-0.059351	-0.060672	-0.009999	29.7919	-0.059100	-0.169666	0.058935	NaN
712	1.000000	1.113344	7.37202e+06	-41489.1	1005.82	-29786	0.000000	0.000000	7.113168	0.000464	NaN	0.000000	0.001603	0.001704	28.0804	0.165555	0.001930	85.7644	80.9407	12.4456	-0.090486	1.112029	-0.049366	-0.050681	0.000464	85.7644	-0.049370	-0.087333	-0.005311	NaN
712	1.000000	1.123351	7.37202e+06	-41489.1	1005.82	-29786	0.000000	0.000000	7.123175	-0.005958	NaN	0.000000	0.001586	0.001737	28.0804	0.155066	0.002131	72.7771	-149.204	-166.207	-0.081366	1.122032	-0.039359	-0.040678	-0.005958	72.7771	-0.039298	-0.043058	0.138379	NaN
712	1.000000	1.133363	7.37202e+06	-41489.1	1005.82	-29786	0.000000	0.000000	7.133183	-0.098771	NaN	0.000000	0.001599	0.001730	28.0803	0.108156	0.002062	52.4464	-53.2802	18.8921	-0.111835	1.132011	-0.029347	-0.030699	-0.098771	52.4464	-0.027935	-0.020192	4.891474	NaN
712	1.000000	1.143378	7.37202e+06	-41489.1	1005.82	-29786	0.000000	0.000000	7.143201	-0.037009	NaN	0.000000	0.001622	0.001707	28.0804	0.128176	0.001971	65.0412	-2.632786	-168.816	0.007460	1.142088	-0.019332	-0.020622	-0.037009	65.0412	-0.018905	-0.011778	3.142106	NaN
712	1.000000	1.153372	7.37202e+06	-41489.1	1005.82	-29786	0.000000	0.000000	7.153197	0.041547	NaN	0.000000	0.001599	0.001685	28.0802	0.092922	0.001970	47.169	82.4006	13.0086	0.066360	1.151993	-0.009339	-0.010717	0.041547	47.169	-0.009999	-0.006387	-6.505051	NaN
712	1.000000	1.163376	7.37202e+06	-41489.1	1005.82	-29786	0.000000	0.000000	7.163310	2.688811	NaN	0.000000	0.001582	0.001719	28.0807	3.698474	0.001859	1989.17	5.898090	-165.542	1.316001	1.162045	0.000666	-0.000665	2.688811	1989.17	-0.000348	-0.000258	-10404.2	NaN
712	2.000000	1.169542	7.37202e+06	-41489.1	1005.82	-29786	0.000000	0.000000	7.169794	10.432	NaN	0.000000	0.001573	0.001698	28.0803	9.949210	0.001693	5877.69	7.413376	9.090894	9.676190	1.169156	0.006831	0.006445	10.432	5877.69	0.005500	0.004595	2270.53	79224.5
712	2.000000	1.171975	7.37202e+06	-41489.1	1005.82	-29786	0.000000	0.000000	7.172394	14.4778	NaN	0.000000	0.001591	0.001713	28.0792	12.3254	0.001641	7510.7	3.646920	-171.946	13.0127	1.171685	0.009265	0.008975	14.4778	7510.7	0.007819	0.006857	2111.32	82866.4
712	2.000000	1.174503	7.37202e+06	-41489.1	1005.82	-29786	0.000000	0.000000	7.175031	17.1111	NaN	0.000000	0.001605	0.001701	28.0791	15.3455	0.001773	8652.65	6.866321	3.948791	16.5539	1.174208	0.011793	0.011498	17.1111	8652.65	0.010310	0.009528	1795.86	80987.7
712	2.000000	1.176979	7.37202e+06	-41489.1	1005.82	-29786	0.000000	0.000000	7.177656	20.7774	NaN	0.000000	0.001558	0.001672	28.0793	18.1601	0.001805	10062	8.184527	-176.789	21.2207	1.176606	0.014268	0.013896	20.7774	10062	0.012720	0.012363	1680.55	82677.2
712	2.000000	1.179476	7.37202e+06	-41489.1	1005.82	-29786	0.000000	0.000000	7.180411	27.0333	NaN	0.000000	0.001587	0.001700	28.0793	20.893	0.001768	11819.5	7.463053	0.865056	24.9247	1.179050	0.016766	0.016340	27.0333	11819.5	0.015050	0.015353	1760.82	87152.4
712	2.000000	1.181910	7.37202e+06	-41489.1	1005.82	-29786	0.000000	0.000000	7.183046	31.939	NaN	0.000000	0.001651	0.001723	28.0791	23.2134	0.001824	12725.5	7.938199	-178.764	31.2036	1.181658	0.019200	0.018947	31.939	12725.5	0.017317	0.018501	1726.36	85477.6
712	2.000000	1.184447	7.37202e+06	-41489.1	1005.82	-29786	0.000000	0.000000	7.185776	36.628	NaN	0.000000	0.001654	0.001752	28.0792	25.816	0.001782	14483.1	7.890485	-2.047894	35.8741	1.184111	0.021737	0.021401	36.628	14483.1	0.019840	0.022291	1643.17	88627.7
712	2.000000	1.186944	7.37202e+06	-41489.1	1005.82	-29786	0.000000	0.000000	7.188591	44.3621	NaN	0.000000	0.001654	0.001730	28.079	28.2939	0.001855	15254.8	3.888940	-178.191	43.7514	1.186603	0.024233	0.023892	44.3621	15254.8	0.022052	0.025870	1714.78	86651.9
712	2.000000	1.189428	7.37202e+06	-41489.1	1005.82	-29786	0.000000	0.000000	7.191441	53.2672	NaN	0.000000	0.001620	0.001719	28.0791	30.3956	0.001815	16749.9	3.999353	1.897657	49.7751	1.189032	0.026718	0.026322	53.2672	16749.9	0.024333	0.029813	1786.74	88631
712	2.000000	1.191891	7.37202e+06	-41489.1	1005.82	-29786	0.000000	0.000000	7.194102	58.1031	NaN	0.000000	0.001654	0.001705	28.0793	33.1755	0.001672	19838.8	5.964805	177.025	57.1403	1.191594	0.029180	0.028884	58.1031	19838.8	0.026984	0.034724	1673.3	97269.1
712	2.000000	1.194444	7.37202e+06	-41489.1	1005.82	-29786	0.000000	0.000000	7.197077	68.3535	NaN	0.000000	0.001652	0.001762	28.0795	35.7348	0.001745	20481.3	6.368301	-2.751672	69.6135	1.194039	0.031734	0.031329	68.3535	20481.3	0.029231	0.039164	1745.29	94555.2
712	2.000000	1.196877	7.37202e+06	-41489.1	1005.82	-29786	0.000000	0.000000	7.199934	78.6734	NaN	0.000000	0.001685	0.001755	28.0794	38.1987	0.001876	20357.9	2.572764	-178.897	77.4677	1.196630	0.034167	0.033919	78.6734	20357.9	0.031269	0.043414	1812.17	89267
712	2.000000	1.199391	7.37202e+06	-41489.1	1005.82	-29786	0.000000	0.000000	7.202897	89.6038	NaN	0.000000	0.001668	0.001734	28.0792	40.5145	0.001703	23790.6	6.035628	-4.435767	86.1172	1.199051	0.036680	0.036341	89.6038	23790.6	0.033856	0.049115	1824.37	98078
712	2.000000	1.201871	7.37202e+06	-41489.1	1005.82	-29786	0.000000	0.000000	7.205732	98.2225	NaN	0.000000	0.001662	0.001711	28.0795	42.74	0.001715	24918.3	7.004750	174.424	95.6992	1.201509	0.039161	0.038799	98.2225	24918.3	0.036205	0.054589	1799.32	97440.6
712	2.000000	1.204367	7.37202e+06	-41489.1	1005.82	-29786	0.000000	0.000000	7.208626	107.908	NaN	0.000000	0.001622	0.001696	28.0796	45.4424	0.001769	25681	8.875752	-8.514204	104.418	1.204026	0.041657	0.041316	107.908	25681	0.038506	0.060224	1791.78	95609.6
712	2.000000	1.206876	7.37202e+06	-41489.1	1005.82	-29786	0.000000	0.000000	7.211426	114.999	NaN	0.000000	0.001633	0.001714	28.0806	47.892	0.001849	25898.2	2.497957	178.068	115.377	1.206640	0.044166	0.043930	114.999	25898.2	0.040836	0.066206	1736.99	91959.2
712	2.000000	1.209400	7.37202e+06	-41489.1	1005.82	-29786	0.000000	0.000000	7.214614	131.168	NaN	0.000000	0.001612	0.001676	28.0807	49.9425	0.001858	26882	6.982086	-5.520177	129.389	1.209046	0.046689	0.046336	131.168	26882	0.043030	0.072093	1819.44	91472.1
712	2.000000	1.211863	7.37202e+06	-41489.1	1005.82	-29786	0.000000	0.000000	7.217684	145.921	NaN	0.000000	0.001584	0.001715	28.0808	51.1008	0.001759	29056.7	0.403011	-179.679	144.81	1.211587	0.049153	0.048877	145.921	29056.7	0.045387	0.078689	1854.4	94637.3
712	2.000000	1.214384	7.37202e+06	-41489.1	1005.82	-29786	0.000000	0.000000	7.220638	156.463	NaN	0.000000	0.001638	0.001716	28.0805	54.3087	0.001757	30908.4	1.797040	-2.128013	154.758	1.214096	0.051674	0.051386	156.463	30908.4	0.047877	0.085965	1820.08	96314.2
712	2.000000	1.216799	7.37202e+06	-41489.1	1005.82	-29786	0.000000	0.000000	7.223780	174.163	NaN	0.000000	0.001585	0.001739	28.0806	57.434	0.001771	32428.6	4.556276	174.771	171.132	1.216542	0.054088	0.053831	174.163	32428.6	0.050060	0.092600	1880.81	97363.4
712	2.000000	1.219393	7.37202e+06	-41489.1	1005.82	-29786	0.000000	0.000000	7.226962	188.447	NaN	0.000000	0.001580	0.001762	28.0807	58.9476	0.001692	34833.8	4.528666	-5.577745	184.939	1.218924	0.056683	0.056214	188.447	34833.8	0.052625	0.100700	1871.37	100291
712	2.000000	1.221830	7.37202e+06	-41489.1	1005.82	-29786	0.000000	0.000000	7.229973	202.412	NaN	0.000000	0.001564	0.001730	28.0808	61.42	0.001788	34357.4	3.028433	175.871	199.102	1.221420	0.059120	0.058710	202.412	34357.4	0.054702	0.107497	1882.95	95740.2
712	2.000000	1.224315	7.37202e+06	-41489.1	1005.82	-29786	0.000000	0.000000	7.233050	216.809	NaN	0.000000	0.001601	0.001697	28.0807	64.9745	0.001886	34454.9	8.380779	-9.888981	211.642	1.223942	0.061605	0.061231	216.809	34454.9	0.056886	0.114879	1887.29	92876.2
712	2.000000	1.226845	7.37202e+06	-41489.1	1005.82	-29786	0.000000	0.000000	7.236173	231.271	NaN	0.000000	0.001580	0.001731	28.0804	66.2044	0.001794	36910.9	1.430279	176.989	229.967	1.226529	0.064134	0.063818	231.271	36910.9	0.059435	0.123791	1868.24	95848
712	2.000000	1.229302	7.37202e+06	-41489.1	1005.82	-29786	0.000000	0.000000	7.239256	246.503	NaN	0.000000	0.001649	0.001734	28.0807	68.9	0.001860	37046.3	6.170369	-7.156717	240.311	1.228985	0.066591	0.066275	246.503	37046.3	0.061601	0.131612	1872.96	93297.7
712	2.000000	1.231773	7.37202e+06	-41489.1	1005.82	-29786	0.000000	0.000000	7.242451	264.084	NaN	0.000000	0.001645	0.001728	28.0805	69.1284	0.001650	41907.8	0.169966	177.501	259.045	1.231478	0.069063	0.068768	264.084	41907.8	0.064337	0.141818	1862.13	101672
712	2.000000	1.234301	7.37202e+06	-41489.1	1005.82	-29786	0.000000	0.000000	7.245489	276.51	NaN	0.000000	0.001619	0.001746	28.0808	74.7588	0.001863	40129.5	6.784437	-8.931455	273.302	1.234037	0.071590	0.071327	276.51	40129.5	0.066423	0.149841	1845.36	94715.6
712	2.000000	1.236823	7.37202e+06	-41489.1	1005.82	-29786	0.000000	0.000000	7.248647	291.984	NaN	0.000000	0.001619	0.001720	28.0805	75.7862	0.001789	42370.1	1.715981	175.657	288.865	1.236612	0.074113	0.073902	291.984	42370.1	0.068944	0.159819	1826.97	96831.8
712	2.000000	1.239342	7.37202e+06	-41489.1	1005.82	-29786	0.000000	0.000000	7.251758	306.39	NaN	0.000000	0.001617	0.001641	28.0799	77.7723	0.001808	43025.2	2.371765	-5.208849	302.507	1.238957	0.076632	0.076247	306.39	43025.2	0.071291	0.169380	1808.89	95513.4
712	2.000000	1.241738	7.37202e+06	-41489.1	1005.82	-29786	0.000000	0.000000	7.254854	323.415	NaN	0.000000	0.001619	0.001696	28.0793	80.3553	0.001893	42439.4	2.813257	174.162	317.314	1.241495	0.079028	0.078785	323.415	42439.4	0.073313	0.177824	1818.73	91948.9
712	2.000000	1.244241	7.37202e+06	-41489.1	1005.82	-29786	0.000000	0.000000	7.258108	341.707	NaN	0.000000	0.001651	0.001695	28.0796	83.4809	0.001651	50550.1	6.178844	-10.3366	335.172	1.243913	0.081531	0.081203	341.707	50550.1	0.076461	0.191358	1785.69	105578
712	2.000000	1.246863	7.37202e+06	-41489.1	1005.82	-29786	0.000000	0.000000	7.260869	345.069	NaN	0.000000	0.001624	0.001704	28.0794	86.4421	0.001785	48423.6	0.845220	174.849	342.659	1.246783	0.084153	0.084073	345.069	48423.6	0.078809	0.201754	1710.35	98496.1
712	2.000000	1.249329	7.37202e+06	-41489.1	1005.82	-29786	0.000000	0.000000	7.264646	376.984	NaN	0.000000	0.001646	0.001713	28.0798	89.4262	0.001807	49496	10.5614	-14.1147	374.415	1.248964	0.086619	0.086253	376.984	49496	0.080907	0.211262	1784.44	98385.8
712	2.000000	1.251769	7.37202e+06	-41489.1	1005.82	-29786	0.000000	0.000000	7.267967	398.425	NaN	0.000000	0.001615	0.001733	28.0795	91.8536	0.001863	49312.9	6.821378	169.123	395.01	1.251454	0.089059	0.088744	398.425	49312.9	0.082999	0.220949	1803.25	95849.1
712	2.000000	1.254352	7.37202e+06	-41489.1	1005.82	-29786	0.000000	0.000000	7.271432	419.878	NaN	0.000000	0.001603	0.001732	28.0796	93.5453	0.001818	51444.8	3.167066	-7.231625	418.023	1.253934	0.091642	0.091224	419.878	51444.8	0.085521	0.232892	1802.89	97395.3
712	2.000000	1.256853	7.37202e+06	-41489.1	1005.82	-29786	0.000000	0.000000	7.274468	432.916	NaN	0.000000	0.001592	0.001735	28.0796	96.6746	0.001803	53626.5	5.810088	169.329	432.144	1.256589	0.094142	0.093879	432.916	53626.5	0.088088	0.245351	1764.48	98914.1
712	2.000000	1.259367	7.37202e+06	-41489.1	1005.82	-29786	0.000000	0.000000	7.278236	463.404	NaN	0.000000	0.001606	0.001734	28.0794	98.6079	0.001778	55462.7	5.938897	-10.3088	460.321	1.258922	0.096657	0.096211	463.404	55462.7	0.090391	0.256786	1804.63	99997.4
712	2.000000	1.261802	7.37202e+06	-41489.1	1005.82	-29786	0.000000	0.000000	7.281407	481.308	NaN	0.000000	0.001579	0.001733	28.0792	101.807	0.001842	55257.5	4.576394	170.127	479.836	1.261538	0.099092	0.098828	481.308	55257.5	0.092560	0.267778	1797.41	97561.1
712	2.000000	1.264219	7.37202e+06	-41489.1	1005.82	-29786	0.000000	0.000000	7.284749	503.821	NaN	0.000000	0.001581	0.001734	28.0794	104.025	0.001787	58224.6	6.006400	-11.1464	496.224	1.263867	0.101509	0.101157	503.821	58224.6	0.095019	0.280502	1796.14	100441
712	2.000000	1.266816	7.37203e+06	-41489.1	1005.82	-29786	0.000000	0.000000	7.288248	525.778	NaN	0.000000	0.001579	0.001734	28.0795	106.407	0.001799	59132.4	4.822160	169.897	526.299	1.266516	0.104106	0.103806	525.778	59132.4	0.097437	0.293284	1792.73	99759.6