File: remote_trans/data/nanoindenter/0828-1/data/Data_2025-08-06,11h17m57s/2025-07-22_16-23-58_1_134.txt
2025-07-22, 16:23:58, 1
Index	Phase	Displacement	Time	Pos X	Pos Y	Pos Z	Rot A	Rot B	Piezo Z	Force A	Force B	Gripper	Voltage A	Voltage B	Temperature	Amplitude force	Amplitude pos	Stiffness	Phase shift	Phase excitation	Force A raw	Displacement raw	HMax	HMax raw	Real Force	Real Stiffness	Contact Depth	Area	Hardness	Reduced Mod.
[#]	[#]	[um]	[s]	[um]	[um]	[um]	[m°]	[m°]	[um]	[uN]	[uN]	[V]	[V]	[V]	[°C]	[uN]	[um]	[N/m]	[°]	[°]	[uN]	[um]	[um]	[um]	[uN]	[N/m]	[um]	[um^2]	[MPa]	[MPa]
134	1.000000	0.002695	7.36635e+06	-45339.1	955.819	-29773.2	0.000000	0.000000	6.002797	-0.018079	NaN	0.000000	0.001561	0.001712	28.0832	0.048917	0.000945	51.7881	125.805	-168.965	-0.042277	0.001426	-1.096738	-1.098008	-0.018079	51.7881	-1.096477	-4.495395E+14	4.021573E-17	NaN
134	1.000000	0.012770	7.36635e+06	-45339.1	955.819	-29773.2	0.000000	0.000000	6.012872	-0.018900	NaN	0.000000	0.001564	0.001744	28.1124	0.030687	0.001064	28.8545	-23.9874	16.3105	0.001372	0.011302	-1.086664	-1.088132	-0.018900	28.8545	-1.086173	-3.269050E+14	5.781427E-17	NaN
134	1.000000	0.022639	7.36635e+06	-45339.1	955.819	-29773.2	0.000000	0.000000	6.022744	0.053005	NaN	0.000000	0.001558	0.001737	28.1284	0.060643	0.001736	34.9336	-45.688	-164.799	-0.005463	0.021344	-1.076795	-1.078089	0.053005	34.9336	-1.077933	-2.533677E+14	-2.092016E-16	NaN
134	1.000000	0.032658	7.36635e+06	-45339.1	955.817	-29773.2	0.000000	0.000000	6.032762	0.030738	NaN	0.000000	0.001545	0.001770	28.0888	0.041990	0.001962	21.4068	170.429	15.4963	-0.051139	0.031283	-1.066775	-1.068151	0.030738	21.4068	-1.067852	-1.854954E+14	-1.657092E-16	NaN
134	1.000000	0.042664	7.36635e+06	-45339.1	955.818	-29773.2	0.000000	0.000000	6.042767	0.001913	NaN	0.000000	0.001549	0.001751	28.083	0.013498	0.002034	6.635255	-110.042	-166.424	0.014891	0.041378	-1.056770	-1.058056	0.001913	6.635255	-1.056986	-1.325301E+14	-1.443551E-17	NaN
134	1.000000	0.052637	7.36635e+06	-45339.1	955.819	-29773.2	0.000000	0.000000	6.052737	-0.068546	NaN	0.000000	0.001578	0.001771	28.1111	0.086503	0.001975	43.8005	-4.271318	14.1905	-0.030196	0.051285	-1.046796	-1.048148	-0.068546	43.8005	-1.045623	-9.323243E+13	7.352194E-16	NaN
134	1.000000	0.062656	7.36635e+06	-45339.1	955.819	-29773.2	0.000000	0.000000	6.062759	0.003391	NaN	0.000000	0.001565	0.001751	28.1302	0.018338	0.001972	9.301118	-86.0022	-163.466	-0.005807	0.061372	-1.036778	-1.038062	0.003391	9.301118	-1.037051	-7.150154E+13	-4.742845E-17	NaN
134	1.000000	0.072646	7.36635e+06	-45339.1	955.819	-29773.2	0.000000	0.000000	6.072748	-0.026618	NaN	0.000000	0.001563	0.001710	28.089	0.121969	0.001964	62.0992	29.555	16.5793	-0.009386	0.071288	-1.026788	-1.028146	-0.026618	62.0992	-1.026466	-5.151679E+13	5.166807E-16	NaN
134	1.000000	0.082648	7.36635e+06	-45339.1	955.819	-29773.2	0.000000	0.000000	6.082752	0.008867	NaN	0.000000	0.001555	0.001745	28.083	0.038357	0.001821	21.0691	172.691	-165.479	-0.071489	0.081357	-1.016785	-1.018076	0.008867	21.0691	-1.017101	-3.854284E+13	-2.300655E-16	NaN
134	1.000000	0.092658	7.36635e+06	-45339.1	955.818	-29773.2	0.000000	0.000000	6.092759	-0.041851	NaN	0.000000	0.001573	0.001777	28.1113	0.036990	0.001941	19.0564	-12.5929	17.0447	0.038787	0.091366	-1.006775	-1.008068	-0.041851	19.0564	-1.005128	-2.659550E+13	1.573598E-15	NaN
134	1.000000	0.102653	7.36635e+06	-45339.1	955.819	-29773.2	0.000000	0.000000	6.102756	0.014470	NaN	0.000000	0.001537	0.001760	28.1279	0.021082	0.001942	10.8544	-1.571548	-165.229	0.016924	0.101345	-0.996781	-0.998089	0.014470	10.8544	-0.997781	-2.117830E+13	-6.832261E-16	NaN
134	1.000000	0.112675	7.36635e+06	-45339.1	955.819	-29773.2	0.000000	0.000000	6.112778	0.014352	NaN	0.000000	0.001550	0.001781	28.0885	0.133186	0.002013	66.1599	61.7694	13.965	0.090250	0.111280	-0.986759	-0.988154	0.014352	66.1599	-0.986922	-1.512348E+13	-9.490080E-16	NaN
134	1.000000	0.122674	7.36635e+06	-45339.1	955.817	-29773.2	0.000000	0.000000	6.122775	-0.056982	NaN	0.000000	0.001545	0.001697	28.081	0.044697	0.002012	22.2095	33.0108	-162.16	-0.073391	0.121356	-0.976760	-0.978078	-0.056982	22.2095	-0.974835	-1.039496E+13	5.481656E-15	NaN
134	1.000000	0.132691	7.36635e+06	-45339.1	955.819	-29773.2	0.000000	0.000000	6.132794	0.017393	NaN	0.000000	0.001560	0.001723	28.1086	0.016910	0.002123	7.966073	-86.3392	14.9308	0.032175	0.131314	-0.966743	-0.968120	0.017393	7.966073	-0.968381	-8.508221E+12	-2.044258E-15	NaN
134	1.000000	0.142704	7.36635e+06	-45339.1	955.819	-29773.2	0.000000	0.000000	6.142805	-0.056992	NaN	0.000000	0.001571	0.001706	28.1294	0.063047	0.002001	31.5027	111.027	-162.954	-0.090832	0.141378	-0.956730	-0.958055	-0.056992	31.5027	-0.955373	-5.681727E+12	1.003079E-14	NaN
134	1.000000	0.152677	7.36635e+06	-45339.1	955.818	-29773.2	0.000000	0.000000	6.152782	0.045917	NaN	0.000000	0.001586	0.001759	28.0903	0.164059	0.002039	80.4479	162.662	17.264	-0.012104	0.151370	-0.946757	-0.948063	0.045917	80.4479	-0.947185	-4.406150E+12	-1.042112E-14	NaN
134	1.000000	0.162713	7.36635e+06	-45339.1	955.818	-29773.2	0.000000	0.000000	6.162816	-0.013929	NaN	0.000000	0.001552	0.001750	28.0817	0.027745	0.001867	14.8612	139.046	-162.589	0.074002	0.161386	-0.936720	-0.938048	-0.013929	14.8612	-0.936017	-3.114603E+12	4.472316E-15	NaN
134	1.000000	0.172721	7.36635e+06	-45339.1	955.818	-29773.2	0.000000	0.000000	6.172822	-0.034756	NaN	0.000000	0.001542	0.001740	28.1108	0.047976	0.001855	25.8685	102.657	15.7524	-0.061539	0.171389	-0.926713	-0.928045	-0.034756	25.8685	-0.925705	-2.260609E+12	1.537450E-14	NaN
134	1.000000	0.182678	7.36635e+06	-45339.1	955.818	-29773.2	0.000000	0.000000	6.182780	-0.026273	NaN	0.000000	0.001549	0.001729	28.1283	0.052239	0.001913	27.3115	142.482	-165.827	-0.038171	0.181403	-0.916756	-0.918031	-0.026273	27.3115	-0.916034	-1.673628E+12	1.569845E-14	NaN
134	1.000000	0.192723	7.36635e+06	-45339.1	955.819	-29773.2	0.000000	0.000000	6.192826	0.006480	NaN	0.000000	0.001570	0.001746	28.0892	0.061284	0.002038	30.07	93.4718	12.8123	0.088845	0.191298	-0.906711	-0.908135	0.006480	30.07	-0.906872	-1.258675E+12	-5.148178E-15	NaN
134	1.000000	0.202732	7.36635e+06	-45339.1	955.819	-29773.2	0.000000	0.000000	6.202836	0.031966	NaN	0.000000	0.001588	0.001787	28.0829	0.092938	0.001857	50.0386	-131.389	-165.099	0.022619	0.201399	-0.896702	-0.898035	0.031966	50.0386	-0.897181	-9.310477E+11	-3.433317E-14	NaN
134	1.000000	0.212712	7.36635e+06	-45339.1	955.818	-29773.2	0.000000	0.000000	6.212815	0.006731	NaN	0.000000	0.001546	0.001775	28.1112	0.092732	0.001937	47.8717	110.375	14.3706	-0.034435	0.211358	-0.886722	-0.888076	0.006731	47.8717	-0.886827	-6.745690E+11	-9.977846E-15	NaN
134	1.000000	0.222717	7.36635e+06	-45339.1	955.818	-29773.2	0.000000	0.000000	6.222819	-0.016227	NaN	0.000000	0.001570	0.001800	28.1309	0.071763	0.002022	35.4837	2.131904	-160.134	0.094946	0.221375	-0.876717	-0.878059	-0.016227	35.4837	-0.876374	-4.871594E+11	3.331032E-14	NaN
134	1.000000	0.232719	7.36635e+06	-45339.1	955.818	-29773.2	0.000000	0.000000	6.232820	-0.026539	NaN	0.000000	0.001569	0.001761	28.0908	0.069197	0.002022	34.2148	122.442	15.7603	-0.044540	0.231370	-0.866715	-0.868063	-0.026539	34.2148	-0.866133	-3.540987E+11	7.494766E-14	NaN
134	1.000000	0.242707	7.36635e+06	-45339.1	955.819	-29773.2	0.000000	0.000000	6.242809	-0.024061	NaN	0.000000	0.001533	0.001802	28.0843	0.097109	0.001993	48.7223	-74.66	-160.517	0.007062	0.241396	-0.856727	-0.858038	-0.024061	48.7223	-0.856356	-2.610959E+11	9.215288E-14	NaN
134	1.000000	0.252738	7.36635e+06	-45339.1	955.818	-29773.2	0.000000	0.000000	6.252842	0.035218	NaN	0.000000	0.001533	0.001778	28.111	0.072621	0.001915	37.9149	-164.554	15.8313	0.021310	0.251388	-0.846696	-0.848045	0.035218	37.9149	-0.847393	-1.974380E+11	-1.783772E-13	NaN
134	1.000000	0.262722	7.36635e+06	-45339.1	955.819	-29773.2	0.000000	0.000000	6.262823	-0.026464	NaN	0.000000	0.001524	0.001776	28.13	0.073229	0.002042	35.8694	165.872	-165.185	-0.090055	0.261438	-0.836712	-0.837996	-0.026464	35.8694	-0.836159	-1.390751E+11	1.902838E-13	NaN
134	1.000000	0.272722	7.36635e+06	-45339.1	955.819	-29773.2	0.000000	0.000000	6.272824	-0.008009	NaN	0.000000	0.001582	0.001808	28.0898	0.057430	0.002042	28.1305	-39.7429	11.8126	0.023515	0.271345	-0.826712	-0.828088	-0.008009	28.1305	-0.826498	-1.028776E+11	7.785358E-14	NaN
134	1.000000	0.282733	7.36635e+06	-45339.1	955.819	-29773.2	0.000000	0.000000	6.282833	-0.060454	NaN	0.000000	0.001597	0.001765	28.0822	0.030946	0.001983	15.602	-130.516	-166.259	-0.077459	0.281427	-0.816701	-0.818007	-0.060454	15.602	-0.813795	-6.919169E+10	8.737126E-13	NaN
134	1.000000	0.292743	7.36635e+06	-45339.1	955.818	-29773.2	0.000000	0.000000	6.292847	0.030724	NaN	0.000000	0.001615	0.001742	28.1097	0.118664	0.001921	61.7648	-135.434	13.0542	0.085221	0.291454	-0.806691	-0.807980	0.030724	61.7648	-0.807064	-5.607034E+10	-5.479562E-13	NaN
134	1.000000	0.302751	7.36635e+06	-45339.1	955.818	-29773.2	0.000000	0.000000	6.302853	-0.025797	NaN	0.000000	0.001643	0.001758	28.1297	0.029297	0.002075	14.1204	94.794	-162.748	-0.049733	0.301462	-0.796682	-0.797971	-0.025797	14.1204	-0.795312	-3.883473E+10	6.642767E-13	NaN
134	1.000000	0.312777	7.36635e+06	-45339.1	955.818	-29773.2	0.000000	0.000000	6.312877	-0.061548	NaN	0.000000	0.001633	0.001744	28.0899	0.028508	0.001892	15.0685	-100.258	15.4095	-0.075795	0.311389	-0.786657	-0.788044	-0.061548	15.0685	-0.783593	-2.691887E+10	2.286419E-12	NaN
134	1.000000	0.322767	7.36635e+06	-45339.1	955.819	-29773.2	0.000000	0.000000	6.322869	-0.035286	NaN	0.000000	0.001621	0.001772	28.0818	0.089331	0.002099	42.5534	-48.7542	-165.268	-0.087899	0.321424	-0.776666	-0.778010	-0.035286	42.5534	-0.776044	-2.125564E+10	1.660068E-12	NaN
134	1.000000	0.332769	7.36635e+06	-45339.1	955.818	-29773.2	0.000000	0.000000	6.332869	-0.059075	NaN	0.000000	0.001640	0.001772	28.11	0.063159	0.002095	30.1496	72.4205	14.1129	-0.070615	0.331377	-0.766665	-0.768057	-0.059075	30.1496	-0.765196	-1.513474E+10	3.903258E-12	NaN
134	1.000000	0.342786	7.36635e+06	-45339.1	955.818	-29773.2	0.000000	0.000000	6.342888	-0.016000	NaN	0.000000	0.001651	0.001729	28.1274	0.067133	0.002138	31.3985	-162.706	-161.265	-0.013120	0.341479	-0.756647	-0.757955	-0.016000	31.3985	-0.756265	-1.144162E+10	1.398376E-12	NaN
134	1.000000	0.352772	7.36635e+06	-45339.1	955.818	-29773.2	0.000000	0.000000	6.352876	0.031636	NaN	0.000000	0.001652	0.001762	28.0882	0.064836	0.002004	32.35	178.253	18.0435	0.038709	0.351427	-0.746662	-0.748007	0.031636	32.35	-0.747395	-8.664763E+9	-3.651068E-12	NaN
134	1.000000	0.362803	7.36635e+06	-45339.1	955.818	-29773.2	0.000000	0.000000	6.362905	-0.008828	NaN	0.000000	0.001611	0.001772	28.0795	0.102742	0.002116	48.5593	109.824	-161.372	0.016533	0.361464	-0.736631	-0.737969	-0.008828	48.5593	-0.736495	-6.156108E+9	1.434097E-12	NaN
134	1.000000	0.372737	7.36635e+06	-45339.1	955.818	-29773.2	0.000000	0.000000	6.372839	-0.009468	NaN	0.000000	0.001564	0.001754	28.1081	0.060206	0.001997	30.143	49.7283	16.5378	-0.013000	0.371380	-0.726697	-0.728054	-0.009468	30.143	-0.726462	-4.493420E+9	2.107034E-12	NaN
134	1.000000	0.382788	7.36635e+06	-45339.1	955.819	-29773.2	0.000000	0.000000	6.382889	-0.027414	NaN	0.000000	0.001593	0.001722	28.129	0.101725	0.002061	49.3534	-130.762	-164.691	-0.029359	0.381493	-0.716646	-0.717941	-0.027414	49.3534	-0.716229	-3.258686E+9	8.412581E-12	NaN
134	1.000000	0.392796	7.36635e+06	-45339.1	955.818	-29773.2	0.000000	0.000000	6.392901	0.056464	NaN	0.000000	0.001612	0.001747	28.0896	0.037210	0.002020	18.4195	-47.4768	15.9497	0.125655	0.391428	-0.706638	-0.708006	0.056464	18.4195	-0.708937	-2.591428E+9	-2.178870E-11	NaN
134	1.000000	0.402799	7.36635e+06	-45339.1	955.818	-29773.2	0.000000	0.000000	6.402900	-0.043209	NaN	0.000000	0.001545	0.001736	28.0825	0.069192	0.001995	34.6835	116.796	-165.316	-0.017421	0.401485	-0.696635	-0.697948	-0.043209	34.6835	-0.695700	-1.709241E+9	2.527942E-11	NaN
134	1.000000	0.412804	7.36635e+06	-45339.1	955.818	-29773.2	0.000000	0.000000	6.412908	0.019930	NaN	0.000000	0.001559	0.001731	28.1088	0.071071	0.001983	35.8349	-149.914	15.73	-0.009775	0.411438	-0.686630	-0.687996	0.019930	35.8349	-0.687047	-1.301824E+9	-1.530901E-11	NaN
134	1.000000	0.422797	7.36635e+06	-45339.1	955.819	-29773.2	0.000000	0.000000	6.422898	-0.036792	NaN	0.000000	0.001538	0.001754	28.1286	0.092131	0.002147	42.9134	-93.5043	-166.788	-0.099525	0.421494	-0.676637	-0.677940	-0.036792	42.9134	-0.675994	-9.192035E+8	4.002551E-11	NaN
134	1.000000	0.432796	7.36635e+06	-45339.1	955.817	-29773.2	0.000000	0.000000	6.432896	-0.071432	NaN	0.000000	0.001556	0.001758	28.0895	0.140877	0.002089	67.4225	-167.279	13.7155	0.001141	0.431455	-0.666637	-0.667978	-0.071432	67.4225	-0.665843	-6.675481E+8	1.070067E-10	NaN
134	1.000000	0.442820	7.36635e+06	-45339.1	955.819	-29773.2	0.000000	0.000000	6.442921	-0.042463	NaN	0.000000	0.001582	0.001756	28.0794	0.089184	0.001994	44.7258	18.3619	-163.965	-0.081670	0.441496	-0.656614	-0.657938	-0.042463	44.7258	-0.655902	-4.878895E+8	8.703307E-11	NaN
134	1.000000	0.452817	7.36635e+06	-45339.1	955.818	-29773.2	0.000000	0.000000	6.452916	-0.089480	NaN	0.000000	0.001579	0.001776	28.1075	0.114937	0.001982	58.0006	-86.1984	11.7025	-0.052732	0.451459	-0.646616	-0.647975	-0.089480	58.0006	-0.645459	-3.508960E+8	2.550043E-10	NaN
134	1.000000	0.462820	7.36635e+06	-45339.1	955.818	-29773.2	0.000000	0.000000	6.462922	-0.012291	NaN	0.000000	0.001605	0.001740	28.1293	0.089688	0.001980	45.2913	-111.314	-165.262	-0.038854	0.461506	-0.636614	-0.637928	-0.012291	45.2913	-0.636411	-2.636527E+8	4.661842E-11	NaN
134	1.000000	0.472831	7.36635e+06	-45339.1	955.818	-29773.2	0.000000	0.000000	6.472934	0.008219	NaN	0.000000	0.001575	0.001737	28.0901	0.051811	0.001953	26.5272	57.2228	12.9512	0.049287	0.471438	-0.626602	-0.627996	0.008219	26.5272	-0.626835	-1.947831E+8	-4.219554E-11	NaN
134	1.000000	0.482824	7.36635e+06	-45339.1	955.819	-29773.2	0.000000	0.000000	6.482925	-0.042612	NaN	0.000000	0.001556	0.001768	28.0823	0.128397	0.002030	63.2453	-28.713	-168.295	-0.019766	0.481582	-0.616609	-0.617852	-0.042612	63.2453	-0.616104	-1.386989E+8	3.072291E-10	NaN
134	1.000000	0.492824	7.36635e+06	-45339.1	955.817	-29773.2	0.000000	0.000000	6.492925	-0.041245	NaN	0.000000	0.001546	0.001749	28.1088	0.030475	0.001963	15.5215	-57.9084	12.9564	-0.097411	0.491458	-0.606610	-0.607976	-0.041245	15.5215	-0.604617	-9.639020E+7	4.278980E-10	NaN
134	1.000000	0.502826	7.36635e+06	-45339.1	955.818	-29773.2	0.000000	0.000000	6.502925	-0.083309	NaN	0.000000	0.001539	0.001759	28.1295	0.045755	0.002106	21.7306	-36.5634	-164.841	0.012520	0.501550	-0.596608	-0.597884	-0.083309	21.7306	-0.593733	-6.825277E+7	1.220602E-9	NaN
134	1.000000	0.512857	7.36635e+06	-45339.1	955.819	-29773.2	0.000000	0.000000	6.512960	-0.014599	NaN	0.000000	0.001584	0.001751	28.0896	0.084898	0.001998	42.4994	177.502	15.259	0.076245	0.511462	-0.586576	-0.587972	-0.014599	42.4994	-0.586319	-5.393915E+7	2.706580E-10	NaN
134	1.000000	0.522856	7.36635e+06	-45339.1	955.819	-29773.2	0.000000	0.000000	6.522958	-0.009854	NaN	0.000000	0.001555	0.001750	28.0822	0.022991	0.001896	12.1285	-49.2701	-167.972	0.004494	0.521531	-0.576578	-0.577902	-0.009854	12.1285	-0.575969	-3.882164E+7	2.538353E-10	NaN
134	1.000000	0.532837	7.36635e+06	-45339.1	955.818	-29773.2	0.000000	0.000000	6.532938	-0.041877	NaN	0.000000	0.001561	0.001734	28.1085	0.071445	0.002088	34.2159	151.583	16.2692	-0.014552	0.531536	-0.566597	-0.567898	-0.041877	34.2159	-0.565679	-2.798385E+7	1.496454E-9	NaN
134	1.000000	0.542852	7.36635e+06	-45339.1	955.82	-29773.2	0.000000	0.000000	6.542953	-0.038424	NaN	0.000000	0.001535	0.001760	28.1306	0.042966	0.001941	22.1367	52.1969	-167.515	-0.064510	0.541559	-0.556582	-0.557874	-0.038424	22.1367	-0.555280	-2.009405E+7	1.912194E-9	NaN
134	1.000000	0.552886	7.36635e+06	-45339.1	955.818	-29773.2	0.000000	0.000000	6.552988	-0.033788	NaN	0.000000	0.001559	0.001741	28.092	0.066114	0.002030	32.5701	59.9962	11.9781	0.068488	0.551477	-0.546547	-0.547957	-0.033788	32.5701	-0.545769	-1.483689E+7	2.277280E-9	NaN
134	1.000000	0.562854	7.36635e+06	-45339.1	955.818	-29773.2	0.000000	0.000000	6.562958	0.030069	NaN	0.000000	0.001546	0.001754	28.0822	0.101038	0.002008	50.3152	-61.6815	-162.445	-0.095678	0.561605	-0.536580	-0.537829	0.030069	50.3152	-0.537028	-1.122368E+7	-2.679053E-9	NaN
134	1.000000	0.572901	7.36635e+06	-45339.1	955.819	-29773.2	0.000000	0.000000	6.573002	-0.028920	NaN	0.000000	0.001598	0.001714	28.1098	0.020721	0.002040	10.1597	148.681	12.7574	0.008195	0.571442	-0.526533	-0.527992	-0.028920	10.1597	-0.524398	-7.49452e+06	3.858805E-9	NaN
134	1.000000	0.582867	7.36635e+06	-45339.1	955.818	-29773.2	0.000000	0.000000	6.582966	-0.100428	NaN	0.000000	0.001600	0.001714	28.13	0.025126	0.002087	12.038	128.857	-166.462	-0.077568	0.581624	-0.516566	-0.517810	-0.100428	12.038	-0.510309	-4.77227e+06	2.104403E-8	NaN
134	1.000000	0.592896	7.36635e+06	-45339.1	955.818	-29773.2	0.000000	0.000000	6.593000	0.011991	NaN	0.000000	0.001595	0.001727	28.0908	0.088703	0.002120	41.8405	69.3338	13.5368	-0.025766	0.591592	-0.506537	-0.507842	0.011991	41.8405	-0.506752	-4.25761e+06	-2.816323E-9	NaN
134	1.000000	0.602892	7.36635e+06	-45339.1	955.818	-29773.2	0.000000	0.000000	6.602994	-0.026281	NaN	0.000000	0.001575	0.001743	28.0812	0.055740	0.002011	27.7176	-74.8336	-165.186	0.051771	0.601576	-0.496542	-0.497857	-0.026281	27.7176	-0.495831	-2.99801e+06	8.766135E-9	NaN
134	1.000000	0.612866	7.36635e+06	-45339.1	955.818	-29773.2	0.000000	0.000000	6.612969	-0.000454	NaN	0.000000	0.001643	0.001753	28.1071	0.046169	0.001940	23.8012	166.801	14.9897	0.041579	0.611506	-0.486568	-0.487927	-0.000454	23.8012	-0.486553	-2.2244e+06	2.039913E-10	NaN
134	1.000000	0.622918	7.36635e+06	-45339.1	955.818	-29773.2	0.000000	0.000000	6.623022	0.028128	NaN	0.000000	0.001602	0.001764	28.13	0.164001	0.001877	87.3966	87.9216	-161.299	0.028915	0.621565	-0.476516	-0.477869	0.028128	87.3966	-0.476757	-1.62226e+06	-1.733877E-8	NaN
134	1.000000	0.632929	7.36635e+06	-45339.1	955.818	-29773.2	0.000000	0.000000	6.633030	-0.049220	NaN	0.000000	0.001644	0.001763	28.0908	0.023177	0.001912	12.1218	-39.35	18.8892	-0.037408	0.631541	-0.466505	-0.467893	-0.049220	12.1218	-0.463459	-1.05588e+06	4.661518E-8	NaN
134	1.000000	0.642878	7.36635e+06	-45339.1	955.818	-29773.2	0.000000	0.000000	6.642982	0.014433	NaN	0.000000	0.001648	0.001729	28.081	0.050528	0.001933	26.1378	36.1105	-163.393	0.012909	0.641633	-0.456555	-0.457801	0.014433	26.1378	-0.456969	-855887	-1.686305E-8	NaN
134	1.000000	0.652896	7.36635e+06	-45339.1	955.818	-29773.2	0.000000	0.000000	6.652999	0.007686	NaN	0.000000	0.001627	0.001750	28.1078	0.074696	0.002018	37.0229	33.8469	14.5616	-0.007165	0.651521	-0.446538	-0.447912	0.007686	37.0229	-0.446693	-613426	-1.252903E-8	NaN
134	1.000000	0.662916	7.36635e+06	-45339.1	955.818	-29773.2	0.000000	0.000000	6.663018	-0.019880	NaN	0.000000	0.001642	0.001769	28.1291	0.114123	0.001980	57.6302	-137.559	-163.814	-0.003084	0.661515	-0.436518	-0.437919	-0.019880	57.6302	-0.436259	-437065	4.548494E-8	NaN
134	1.000000	0.672909	7.36635e+06	-45339.1	955.817	-29773.2	0.000000	0.000000	6.673012	0.002238	NaN	0.000000	0.001643	0.001752	28.0905	0.026349	0.001928	13.6637	41.1292	16.1791	0.040980	0.671551	-0.426525	-0.427883	0.002238	13.6637	-0.426648	-319607	-7.002509E-9	NaN
134	1.000000	0.682900	7.36635e+06	-45339.1	955.819	-29773.2	0.000000	0.000000	6.683002	-0.027662	NaN	0.000000	0.001635	0.001730	28.0802	0.072125	0.001989	36.2639	151.44	-163.945	-0.050010	0.681572	-0.416534	-0.417862	-0.027662	36.2639	-0.415962	-225481	1.226815E-7	NaN
134	1.000000	0.692916	7.36635e+06	-45339.1	955.818	-29773.2	0.000000	0.000000	6.693018	-0.026848	NaN	0.000000	0.001651	0.001760	28.1067	0.121957	0.001955	62.396	-169.585	13.8709	-0.052956	0.691512	-0.406518	-0.407922	-0.026848	62.396	-0.406195	-163780	1.639289E-7	NaN
134	1.000000	0.702930	7.36635e+06	-45339.1	955.819	-29773.2	0.000000	0.000000	6.703031	-0.038649	NaN	0.000000	0.001618	0.001762	28.1298	0.121266	0.001870	64.857	-29.8837	-163.443	0.013588	0.701630	-0.396504	-0.397804	-0.038649	64.857	-0.396057	-117415	3.291667E-7	NaN
134	1.000000	0.712916	7.36635e+06	-45339.1	955.818	-29773.2	0.000000	0.000000	6.713020	0.024846	NaN	0.000000	0.001654	0.001742	28.0907	0.078933	0.002027	38.941	46.0191	15.4585	-0.007738	0.711580	-0.386517	-0.387854	0.024846	38.941	-0.386996	-87130.9	-2.851611E-7	NaN
134	1.000000	0.722932	7.36635e+06	-45339.1	955.819	-29773.2	0.000000	0.000000	6.723034	-0.019302	NaN	0.000000	0.001657	0.001740	28.0804	0.046926	0.001904	24.6518	43.3502	-164.94	0.014321	0.721647	-0.376502	-0.377787	-0.019302	24.6518	-0.375915	-60425.2	3.194406E-7	NaN
134	1.000000	0.732945	7.36635e+06	-45339.1	955.818	-29773.2	0.000000	0.000000	6.733046	-0.033049	NaN	0.000000	0.001594	0.001753	28.107	0.057868	0.001959	29.5429	-149.371	16.5358	-0.086244	0.731555	-0.366489	-0.367879	-0.033049	29.5429	-0.365650	-42996.2	7.686504E-7	NaN
134	1.000000	0.742935	7.36635e+06	-45339.1	955.819	-29773.2	0.000000	0.000000	6.743037	-0.001706	NaN	0.000000	0.001574	0.001750	28.1293	0.016278	0.002087	7.798912	147.59	-166.788	-0.067399	0.741640	-0.356499	-0.357794	-0.001706	7.798912	-0.356335	-31537.4	5.408592E-8	NaN
134	1.000000	0.752946	7.36635e+06	-45339.1	955.818	-29773.2	0.000000	0.000000	6.753048	-0.004887	NaN	0.000000	0.001621	0.001762	28.0912	0.077184	0.001941	39.7705	74.987	15.7555	0.021877	0.751589	-0.346488	-0.347844	-0.004887	39.7705	-0.346396	-22628.3	2.159853E-7	NaN
134	1.000000	0.762925	7.36635e+06	-45339.1	955.818	-29773.2	0.000000	0.000000	6.763025	-0.061254	NaN	0.000000	0.001581	0.001764	28.0811	0.054256	0.002045	26.5261	-0.263395	-161.237	-0.055821	0.761636	-0.336509	-0.337798	-0.061254	26.5261	-0.334777	-15322.4	3.997678E-6	NaN
134	1.000000	0.772944	7.36635e+06	-45339.1	955.818	-29773.2	0.000000	0.000000	6.773047	-0.005186	NaN	0.000000	0.001591	0.001787	28.1065	0.079773	0.002082	38.3115	-108.694	15.2253	-0.019976	0.771589	-0.326489	-0.327845	-0.005186	38.3115	-0.326388	-11548	4.490707E-7	NaN
134	1.000000	0.782946	7.36635e+06	-45339.1	955.819	-29773.2	0.000000	0.000000	6.783046	-0.073860	NaN	0.000000	0.001634	0.001772	28.1314	0.039928	0.002181	18.3035	-149.638	-164.092	-0.014860	0.781609	-0.316487	-0.317825	-0.073860	18.3035	-0.313461	-7451.16	9.912604E-6	NaN
134	1.000000	0.792984	7.36635e+06	-45339.1	955.819	-29773.2	0.000000	0.000000	6.793084	-0.065865	NaN	0.000000	0.001607	0.001755	28.0928	0.082113	0.001989	41.2823	84.9457	13.71	-0.094681	0.791627	-0.306450	-0.307807	-0.065865	41.2823	-0.305253	-5632.68	1.169334E-5	NaN
134	1.000000	0.802944	7.36635e+06	-45339.1	955.818	-29773.2	0.000000	0.000000	6.803045	-0.034263	NaN	0.000000	0.001615	0.001775	28.0823	0.091515	0.002048	44.6869	-89.175	-165.414	0.013322	0.801666	-0.296490	-0.297768	-0.034263	44.6869	-0.295915	-4090.2	8.376760E-6	NaN
134	1.000000	0.812966	7.36635e+06	-45339.1	955.818	-29773.2	0.000000	0.000000	6.813069	0.012718	NaN	0.000000	0.001636	0.001745	28.1085	0.073946	0.001957	37.7855	-38.6953	17.5575	-0.031238	0.811615	-0.286468	-0.287819	0.012718	37.7855	-0.286720	-2979.3	-4.268724E-6	NaN
134	1.000000	0.822940	7.36635e+06	-45339.1	955.818	-29773.2	0.000000	0.000000	6.823042	-0.006356	NaN	0.000000	0.001608	0.001725	28.1303	0.077059	0.001957	39.3691	-171.621	-166.378	-0.117663	0.821644	-0.276494	-0.277790	-0.006356	39.3691	-0.276373	-2080.57	3.054975E-6	NaN
134	1.000000	0.832965	7.36635e+06	-45339.1	955.818	-29773.2	0.000000	0.000000	6.833064	-0.094478	NaN	0.000000	0.001616	0.001729	28.0917	0.119703	0.002083	57.4738	-110.018	16.9124	-0.093465	0.831606	-0.266468	-0.267828	-0.094478	57.4738	-0.265235	-1409.23	6.704274E-5	NaN
134	1.000000	0.842990	7.36635e+06	-45339.1	955.818	-29773.2	0.000000	0.000000	6.843088	-0.121315	NaN	0.000000	0.001609	0.001767	28.0811	0.067122	0.001840	36.4731	117.748	-165.587	-0.098318	0.841691	-0.256443	-0.257743	-0.121315	36.4731	-0.253949	-946.073	0.000128	NaN
134	1.000000	0.853004	7.36635e+06	-45339.1	955.819	-29773.2	0.000000	0.000000	6.853106	-0.027997	NaN	0.000000	0.001653	0.001756	28.1057	0.058099	0.001915	30.3388	-41.8945	14.107	-0.033405	0.851576	-0.246430	-0.247858	-0.027997	30.3388	-0.245738	-706.175	3.964559E-5	NaN
134	1.000000	0.863011	7.36635e+06	-45339.1	955.818	-29773.2	0.000000	0.000000	6.863113	-0.023290	NaN	0.000000	0.001630	0.001778	28.1317	0.026704	0.001884	14.1738	-31.2196	-164.632	0.011965	0.861715	-0.236422	-0.237719	-0.023290	14.1738	-0.235190	-483.315	4.818702E-5	NaN
134	1.000000	0.873005	7.36635e+06	-45339.1	955.819	-29773.2	0.000000	0.000000	6.873107	-0.026935	NaN	0.000000	0.001596	0.001734	28.0927	0.009261	0.001970	4.700932	80.5324	11.7182	-0.040680	0.871596	-0.226429	-0.227838	-0.026935	4.700932	-0.222131	-300.393	8.966659E-5	NaN
134	1.000000	0.882998	7.36635e+06	-45339.1	955.818	-29773.2	0.000000	0.000000	6.883098	-0.080146	NaN	0.000000	0.001578	0.001797	28.0817	0.012656	0.002113	5.990108	113.401	-166.914	-0.074491	0.881678	-0.216436	-0.217756	-0.080146	5.990108	-0.206401	-167.643	0.000478	NaN
134	1.000000	0.893019	7.36635e+06	-45339.1	955.819	-29773.2	0.000000	0.000000	6.893122	0.012715	NaN	0.000000	0.001550	0.001754	28.1064	0.149720	0.002117	70.7209	-144.489	16.2614	-0.087706	0.891681	-0.206415	-0.207753	0.012715	70.7209	-0.206550	-168.582	-7.542094E-5	NaN
134	1.000000	0.903038	7.36635e+06	-45339.1	955.819	-29773.2	0.000000	0.000000	6.903138	-0.073527	NaN	0.000000	0.001567	0.001804	28.129	0.033041	0.001912	17.2821	76.6557	-163.405	-0.023834	0.901705	-0.196396	-0.197729	-0.073527	17.2821	-0.193205	-101.723	0.000723	NaN
134	1.000000	0.913014	7.36635e+06	-45339.1	955.818	-29773.2	0.000000	0.000000	6.913116	-0.018126	NaN	0.000000	0.001582	0.001780	28.0912	0.093353	0.001960	47.62	-7.931003	14.6544	-0.118886	0.911652	-0.186419	-0.187782	-0.018126	47.62	-0.186134	-77.4864	0.000234	NaN
134	1.000000	0.923012	7.36635e+06	-45339.1	955.819	-29773.2	0.000000	0.000000	6.923116	0.016338	NaN	0.000000	0.001588	0.001777	28.0794	0.103296	0.001905	54.2268	147.633	-163.25	-0.079043	0.921719	-0.176421	-0.177715	0.016338	54.2268	-0.176647	-53.4861	-0.000305	NaN
134	1.000000	0.932986	7.36635e+06	-45339.1	955.818	-29773.2	0.000000	0.000000	6.933089	0.005055	NaN	0.000000	0.001597	0.001775	28.105	0.052564	0.001924	27.3243	-122.334	14.2925	-0.046918	0.931644	-0.166448	-0.167790	0.005055	27.3243	-0.166587	-35.8191	-0.000141	NaN
134	1.000000	0.943045	7.36635e+06	-45339.1	955.817	-29773.2	0.000000	0.000000	6.943146	-0.038813	NaN	0.000000	0.001540	0.001748	28.1302	0.102003	0.002024	50.3961	-122.865	-163.729	-0.040428	0.941714	-0.156388	-0.157719	-0.038813	50.3961	-0.155811	-23.0758	0.001682	NaN
134	1.000000	0.953023	7.36635e+06	-45339.1	955.818	-29773.2	0.000000	0.000000	6.953120	-0.150062	NaN	0.000000	0.001536	0.001789	28.0924	0.060862	0.002072	29.3678	-155.534	13.2335	-0.061920	0.951707	-0.146410	-0.147726	-0.150062	29.3678	-0.142578	-13.2191	0.011352	NaN
134	1.000000	0.963052	7.36635e+06	-45339.1	955.818	-29773.2	0.000000	0.000000	6.963153	-0.046982	NaN	0.000000	0.001542	0.001780	28.0815	0.079055	0.001905	41.5014	-105.529	-164.119	0.044433	0.961714	-0.136381	-0.137720	-0.046982	41.5014	-0.135532	-9.737379	0.004825	NaN
134	1.000000	0.973017	7.36635e+06	-45339.1	955.818	-29773.2	0.000000	0.000000	6.973118	-0.028341	NaN	0.000000	0.001566	0.001795	28.1058	0.110965	0.002014	55.1091	-138.232	16.8342	-0.001111	0.971661	-0.126417	-0.127773	-0.028341	55.1091	-0.126031	-6.373240	0.004447	NaN
134	1.000000	0.983046	7.36635e+06	-45339.1	955.819	-29773.2	0.000000	0.000000	6.983147	-0.055207	NaN	0.000000	0.001601	0.001763	28.1295	0.083357	0.001790	46.5722	-80.8751	-163.701	-0.028824	0.981796	-0.116388	-0.117637	-0.055207	46.5722	-0.115499	-3.911779	0.014113	NaN
134	1.000000	0.993045	7.36635e+06	-45339.1	955.819	-29773.2	0.000000	0.000000	6.993145	-0.077891	NaN	0.000000	0.001607	0.001787	28.091	0.031999	0.002116	15.1235	-38.8185	17.6214	0.018955	0.991679	-0.106389	-0.107755	-0.077891	15.1235	-0.102526	-2.076807	0.037505	NaN
134	1.000000	1.003032	7.36635e+06	-45339.1	955.818	-29773.2	0.000000	0.000000	7.003136	0.038835	NaN	0.000000	0.001606	0.001769	28.0806	0.049240	0.001941	25.3749	-139.016	-163.77	0.101405	1.001704	-0.096402	-0.097730	0.038835	25.3749	-0.097550	-1.611005	-0.024106	NaN
134	1.000000	1.013054	7.36635e+06	-45339.1	955.818	-29773.2	0.000000	0.000000	7.013156	-0.015855	NaN	0.000000	0.001572	0.001761	28.1038	0.012853	0.001989	6.460651	-73.3747	16.9288	0.035572	1.011687	-0.086380	-0.087746	-0.015855	6.460651	-0.084540	-0.800788	0.019799	NaN
134	1.000000	1.023048	7.36635e+06	-45339.1	955.818	-29773.2	0.000000	0.000000	7.023147	-0.082303	NaN	0.000000	0.001602	0.001743	28.1313	0.101255	0.002019	50.1569	79.9546	-164.507	-0.002739	1.021743	-0.076386	-0.077691	-0.082303	50.1569	-0.075155	-0.466162	0.176554	NaN
134	1.000000	1.033095	7.36635e+06	-45339.1	955.819	-29773.2	0.000000	0.000000	7.033197	-0.018630	NaN	0.000000	0.001655	0.001740	28.0927	0.091790	0.002028	45.2601	120.109	12.7198	0.029283	1.031717	-0.066339	-0.067717	-0.018630	45.2601	-0.066030	-0.266107	0.070010	NaN
134	1.000000	1.043078	7.36635e+06	-45339.1	955.819	-29773.2	0.000000	0.000000	7.043178	-0.066791	NaN	0.000000	0.001656	0.001755	28.0828	0.095338	0.001893	50.3675	65.1801	-162.69	-0.076980	1.041744	-0.056356	-0.057690	-0.066791	50.3675	-0.055361	-0.131981	0.506068	NaN
134	1.000000	1.053071	7.36635e+06	-45339.1	955.82	-29773.2	0.000000	0.000000	7.053173	-0.004741	NaN	0.000000	0.001640	0.001737	28.106	0.163360	0.002083	78.4415	-141.183	17.7753	-0.010779	1.051764	-0.046363	-0.047669	-0.004741	78.4415	-0.046318	-0.070512	0.067241	NaN
134	1.000000	1.063073	7.36635e+06	-45339.1	955.819	-29773.2	0.000000	0.000000	7.063177	0.027573	NaN	0.000000	0.001658	0.001777	28.1303	0.143733	0.002052	70.0553	78.9576	-162.809	0.045535	1.061762	-0.036360	-0.037672	0.027573	70.0553	-0.036656	-0.035857	-0.768973	NaN
134	1.000000	1.073066	7.36635e+06	-45339.1	955.819	-29773.2	0.000000	0.000000	7.073168	0.000673	NaN	0.000000	0.001654	0.001758	28.0921	0.112581	0.001945	57.8817	-132.723	18.2433	-0.018499	1.071643	-0.026368	-0.027791	0.000673	57.8817	-0.026377	-0.018340	-0.036673	NaN
134	1.000000	1.083080	7.36635e+06	-45339.1	955.819	-29773.2	0.000000	0.000000	7.083213	0.731355	NaN	0.000000	0.001632	0.001751	28.0806	0.869991	0.002070	420.195	17.0404	-166.002	0.568168	1.081757	-0.016354	-0.017677	0.731355	420.195	-0.017659	-0.010937	-66.8677	NaN
134	1.000000	1.093089	7.36635e+06	-45339.1	955.819	-29773.2	0.000000	0.000000	7.093234	1.016464	NaN	0.000000	0.001648	0.001772	28.1041	0.739840	0.002039	362.768	24.757	12.8146	1.108208	1.091742	-0.006344	-0.007692	1.016464	362.768	-0.008446	-0.005492	-185.085	NaN
134	1.000000	1.103078	7.36635e+06	-45339.1	955.819	-29773.2	0.000000	0.000000	7.103222	1.025846	NaN	0.000000	0.001657	0.001768	28.1316	1.161513	0.001979	586.849	19.3935	-162.354	0.916246	1.101788	0.003644	0.002355	1.025846	586.849	0.002333	0.001826	561.893	12548.3
134	1.000000	1.113106	7.36635e+06	-45339.1	955.819	-29773.2	0.000000	0.000000	7.113357	3.598224	NaN	0.000000	0.001612	0.001782	28.093	4.221189	0.001876	2249.57	24.9615	11.9458	2.877909	1.111711	0.013673	0.012277	3.598224	2249.57	0.012473	0.012062	298.32	18714.2
134	2.000000	1.119620	7.36635e+06	-45339.1	955.82	-29773.2	0.000000	0.000000	7.120160	10.6544	NaN	0.000000	0.001623	0.001778	28.0829	9.198233	0.001719	5351.14	10.9547	-171.926	10.2258	1.119296	0.020186	0.019862	10.6544	5351.14	0.018693	0.020529	518.981	34121.7
134	2.000000	1.122173	7.36635e+06	-45339.1	955.82	-29773.2	0.000000	0.000000	7.122961	16.6491	NaN	0.000000	0.001650	0.001784	28.1056	12.0076	0.001738	6909.1	5.096885	9.595710	16.3176	1.121748	0.022740	0.022314	16.6491	6909.1	0.020932	0.024029	692.887	40722.2
134	2.000000	1.124544	7.36635e+06	-45339.1	955.819	-29773.2	0.000000	0.000000	7.125748	26.7865	NaN	0.000000	0.001625	0.001780	28.1308	14.9273	0.001583	9431.96	6.284790	-175.462	25.6325	1.124217	0.025111	0.024783	26.7865	9431.96	0.022981	0.027444	976.043	52017.8
134	2.000000	1.127071	7.36635e+06	-45339.1	955.82	-29773.2	0.000000	0.000000	7.128682	36.6854	NaN	0.000000	0.001586	0.001806	28.0921	18.2369	0.001697	10746.5	7.700674	1.466819	35.4135	1.126735	0.027637	0.027302	36.6854	10746.5	0.025077	0.031156	1177.49	55625.5
134	2.000000	1.129543	7.36635e+06	-45339.1	955.819	-29773.2	0.000000	0.000000	7.131740	50.9495	NaN	0.000000	0.001519	0.001777	28.0803	21.1484	0.001845	11461.2	4.221664	-174.923	49.6154	1.129208	0.030109	0.029774	50.9495	11461.2	0.026775	0.034324	1484.37	56520.4
134	2.000000	1.132032	7.36635e+06	-45339.1	955.82	-29773.2	0.000000	0.000000	7.134907	67.4281	NaN	0.000000	0.001557	0.001764	28.1028	22.9559	0.001725	13310.6	3.424567	5.063033	65.0435	1.131620	0.032599	0.032186	67.4281	13310.6	0.028799	0.038292	1760.89	62146.6
134	2.000000	1.134536	7.36635e+06	-45339.1	955.819	-29773.2	0.000000	0.000000	7.138057	83.1415	NaN	0.000000	0.001605	0.001757	28.1303	25.4823	0.001693	15049.3	2.514099	-175.125	81.9674	1.134177	0.035103	0.034744	83.1415	15049.3	0.030959	0.042755	1944.58	66495.5
134	2.000000	1.136987	7.36635e+06	-45339.1	955.819	-29773.2	0.000000	0.000000	7.141373	104.197	NaN	0.000000	0.001604	0.001750	28.0929	28.3101	0.001664	17013.2	4.145152	1.449049	100.712	1.136677	0.037553	0.037243	104.197	17013.2	0.032960	0.047102	2212.16	71621
134	2.000000	1.139455	7.36635e+06	-45339.1	955.819	-29773.2	0.000000	0.000000	7.144687	124.78	NaN	0.000000	0.001597	0.001760	28.082	31.8778	0.001886	16898.9	2.367419	-176.254	120.824	1.139231	0.040021	0.039798	124.78	16898.9	0.034483	0.050549	2468.51	68671.4
134	2.000000	1.141991	7.36635e+06	-45339.1	955.82	-29773.2	0.000000	0.000000	7.148228	149.222	NaN	0.000000	0.001572	0.001746	28.1043	33.5646	0.001663	20184.6	1.763847	2.894055	145.087	1.141636	0.042557	0.042203	149.222	20184.6	0.037012	0.056536	2639.43	77558.9
134	2.000000	1.144452	7.36635e+06	-45339.1	955.819	-29773.2	0.000000	0.000000	7.151751	175.082	NaN	0.000000	0.001593	0.001759	28.1301	36.0495	0.001704	21158.4	2.078578	-178.315	172.09	1.144181	0.045018	0.044747	175.082	21158.4	0.038812	0.060994	2870.49	78273.5
134	2.000000	1.146985	7.36635e+06	-45339.1	955.819	-29773.2	0.000000	0.000000	7.155410	202.442	NaN	0.000000	0.001603	0.001735	28.0911	39.8615	0.001822	21876.4	2.810734	0.446510	198.82	1.146695	0.047551	0.047261	202.442	21876.4	0.040611	0.065617	3085.2	78026.2
134	2.000000	1.149531	7.36635e+06	-45339.1	955.818	-29773.2	0.000000	0.000000	7.158811	223.264	NaN	0.000000	0.001645	0.001740	28.0799	42.6716	0.001736	24574.5	6.789705	175.422	223.53	1.149277	0.050097	0.049844	223.264	24574.5	0.043283	0.072788	3067.33	83220.1
134	2.000000	1.151953	7.36635e+06	-45339.1	955.819	-29773.2	0.000000	0.000000	7.162603	256.574	NaN	0.000000	0.001622	0.001774	28.1033	43.9937	0.001801	24433.2	2.279764	0.979394	251.391	1.151551	0.052520	0.052117	256.574	24433.2	0.044644	0.076580	3350.42	80667.3
134	2.000000	1.154436	7.36635e+06	-45339.1	955.819	-29773.2	0.000000	0.000000	7.166289	285.854	NaN	0.000000	0.001624	0.001750	28.1306	46.0622	0.001637	28145.8	1.973200	179.152	281.318	1.154157	0.055002	0.054724	285.854	28145.8	0.047385	0.084502	3382.79	88461.1
134	2.000000	1.156953	7.36635e+06	-45339.1	955.819	-29773.2	0.000000	0.000000	7.170109	317.54	NaN	0.000000	0.001620	0.001778	28.0927	49.9397	0.001789	27918.2	1.769850	-0.501106	312.629	1.156611	0.057519	0.057177	317.54	27918.2	0.048989	0.089313	3555.36	85350.1
134	2.000000	1.159478	7.36635e+06	-45339.1	955.819	-29773.2	0.000000	0.000000	7.174076	352.623	NaN	0.000000	0.001609	0.001806	28.081	53.065	0.001759	30168.4	4.263661	176.644	350.504	1.159068	0.060044	0.059635	352.623	30168.4	0.051278	0.096405	3657.73	88772.1
134	2.000000	1.161962	7.36635e+06	-45339.1	955.819	-29773.2	0.000000	0.000000	7.178227	393.169	NaN	0.000000	0.001590	0.001794	28.1049	55.0354	0.001960	28074.6	2.753814	-1.126895	387.113	1.161561	0.062528	0.062128	393.169	28074.6	0.052025	0.098774	3980.49	81614.1
134	2.000000	1.164380	7.36635e+06	-45339.1	955.818	-29773.2	0.000000	0.000000	7.182076	427.967	NaN	0.000000	0.001618	0.001746	28.1308	57.0258	0.001816	31403.7	3.574785	176.698	421.961	1.164074	0.064947	0.064641	427.967	31403.7	0.054726	0.107578	3978.19	87476.7
134	2.000000	1.166939	7.36636e+06	-45339.1	955.819	-29773.2	0.000000	0.000000	7.186308	468.676	NaN	0.000000	0.001645	0.001779	28.093	59.6124	0.001796	33197	1.560544	-1.665275	463.149	1.166582	0.067505	0.067148	468.676	33197	0.056917	0.114985	4075.98	89444.1
134	2.000000	1.169560	7.36636e+06	-45339.1	955.818	-29773.2	0.000000	0.000000	7.190368	503.686	NaN	0.000000	0.001626	0.001762	28.0808	62.9546	0.001774	35483.3	4.668959	175.667	508.359	1.169191	0.070127	0.069757	503.686	35483.3	0.059480	0.123951	4063.58	92081.4
134	2.000000	1.171882	7.36636e+06	-45339.1	955.818	-29773.2	0.000000	0.000000	7.194731	553.325	NaN	0.000000	0.001611	0.001733	28.1042	62.7257	0.001695	37006.3	-0.716282	0.162619	544.602	1.171491	0.072449	0.072058	553.325	37006.3	0.061234	0.130272	4247.46	93674.9
134	2.000000	1.174369	7.36636e+06	-45339.1	955.819	-29773.2	0.000000	0.000000	7.198329	580.369	NaN	0.000000	0.001617	0.001750	28.1317	64.5393	0.001772	36426.3	-0.110170	179.377	574.434	1.174190	0.074935	0.074757	580.369	36426.3	0.062986	0.136732	4244.57	90002.3
134	2.000000	1.176912	7.36636e+06	-45339.1	955.818	-29773.2	0.000000	0.000000	7.203301	639.452	NaN	0.000000	0.001611	0.001756	28.0948	67.3232	0.001746	38565.7	3.864386	-4.940487	633.043	1.176603	0.077478	0.077169	639.452	38565.7	0.065043	0.144509	4424.98	92688.7
134	2.000000	1.179473	7.36636e+06	-45339.1	955.818	-29773.2	0.000000	0.000000	7.206862	663.787	NaN	0.000000	0.001627	0.001760	28.0822	70.1495	0.001786	39272.3	0.689977	178.014	663.779	1.179292	0.080039	0.079859	663.787	39272.3	0.067363	0.153526	4323.61	91573.2
134	2.000000	1.181918	7.36636e+06	-45339.1	955.818	-29773.2	0.000000	0.000000	7.211786	724.081	NaN	0.000000	0.001602	0.001751	28.1049	71.3947	0.001789	39902.5	0.781122	-1.456123	717.478	1.181515	0.082485	0.082081	724.081	39902.5	0.068875	0.159541	4538.52	91271.8
134	2.000000	1.184384	7.36636e+06	-45339.1	955.818	-29773.2	0.000000	0.000000	7.216013	766.937	NaN	0.000000	0.001629	0.001751	28.1307	73.7324	0.001754	42026	5.393643	172.9	762.897	1.184116	0.084950	0.084682	766.937	42026	0.071263	0.169265	4530.99	93327.2
134	2.000000	1.186911	7.36636e+06	-45339.1	955.819	-29773.2	0.000000	0.000000	7.219472	789.583	NaN	0.000000	0.001611	0.001725	28.0932	75.518	0.001858	40654.2	2.787117	-4.337015	783.367	1.186694	0.087478	0.087260	789.583	40654.2	0.072911	0.176132	4482.92	88503.5
134	2.000000	1.189466	7.36636e+06	-45339.1	955.819	-29773.2	0.000000	0.000000	7.224503	849.829	NaN	0.000000	0.001621	0.001734	28.0814	78.1691	0.001841	42459.9	5.740213	172.389	849.728	1.189106	0.090032	0.089672	849.829	42459.9	0.075021	0.185111	4590.93	90164.7
134	2.000000	1.191985	7.36636e+06	-45339.1	955.819	-29773.2	0.000000	0.000000	7.226613	839.887	NaN	0.000000	0.001662	0.001750	28.1035	79.1307	0.001797	44040.9	2.982882	-5.242675	836.253	1.191940	0.092551	0.092506	839.887	44040.9	0.078248	0.199250	4215.24	90142.6
134	2.000000	1.194660	7.36636e+06	-45339.1	955.818	-29773.2	0.000000	0.000000	7.231714	898.902	NaN	0.000000	0.001624	0.001740	28.1319	80.7249	0.001840	43865	7.826955	173.035	907.846	1.194030	0.095226	0.094597	898.902	43865	0.079857	0.206479	4353.47	88196.9
134	2.000000	1.196827	7.36636e+06	-45339.1	955.819	-29773.2	0.000000	0.000000	7.234838	922.189	NaN	0.000000	0.001616	0.001729	28.0936	83.132	0.001838	45220.8	3.543084	-5.943118	913.73	1.196525	0.097393	0.097091	922.189	45220.8	0.082098	0.216753	4254.55	88741.8
134	2.000000	1.199360	7.36636e+06	-45339.1	955.82	-29773.2	0.000000	0.000000	7.239819	981.733	NaN	0.000000	0.001596	0.001692	28.0808	84.8149	0.001787	47464.6	4.025084	173.895	976.408	1.199009	0.099926	0.099575	981.733	47464.6	0.084413	0.227612	4313.19	90896.2
134	2.000000	1.201841	7.36636e+06	-45339.1	955.819	-29773.2	0.000000	0.000000	7.243004	998.86	NaN	0.000000	0.001621	0.001750	28.1026	85.9953	0.001785	48165.3	2.808286	-5.022496	990.15	1.201585	0.102408	0.102152	998.86	48165.3	0.086854	0.239325	4173.66	89952.5
134	2.000000	1.204431	7.36636e+06	-45339.1	955.819	-29773.2	0.000000	0.000000	7.247193	1037.78	NaN	0.000000	0.001627	0.001744	28.1296	87.6898	0.001869	46927.1	5.291887	174.264	1033.3	1.204078	0.104997	0.104644	1037.78	46927.1	0.088411	0.246942	4202.52	86277.9
134	2.000000	1.206748	7.36636e+06	-45339.1	955.819	-29773.2	0.000000	0.000000	7.246912	974.544	NaN	0.000000	0.001611	0.001762	28.0925	89.8968	0.001820	49380.7	3.692167	-6.649273	961.657	1.206376	0.107314	0.106942	974.544	49380.7	0.092513	0.267540	3642.61	87224
134	2.000000	1.209301	7.36636e+06	-45339.1	955.818	-29773.2	0.000000	0.000000	7.253668	1076.8	NaN	0.000000	0.001638	0.001725	28.0789	92.7045	0.001852	50055.4	6.630208	170.822	1068.69	1.208983	0.109867	0.109549	1076.8	50055.4	0.093733	0.273814	3932.6	87396.9
134	2.000000	1.212143	7.36636e+06	-45339.1	955.819	-29773.2	0.000000	0.000000	7.258122	1116.02	NaN	0.000000	0.001594	0.001711	28.102	94.1176	0.001864	50483.4	13.3805	-13.0419	1118.3	1.211385	0.112709	0.111951	1116.02	50483.4	0.096129	0.286337	3897.57	86195.3
134	2.000000	1.214153	7.36636e+06	-45339.1	955.819	-29773.2	0.000000	0.000000	7.258860	1085.08	NaN	0.000000	0.001607	0.001736	28.1305	95.6772	0.001863	51367.4	3.697854	173.213	1069.92	1.213849	0.114719	0.114416	1085.08	51367.4	0.098877	0.301017	3604.7	85539.1
134	2.000000	1.216868	7.36636e+06	-45339.1	955.82	-29773.2	0.000000	0.000000	7.264195	1148.81	NaN	0.000000	0.001594	0.001724	28.0932	97.8138	0.001920	50940.3	4.680758	-7.665764	1141.97	1.216509	0.117434	0.117075	1148.81	50940.3	0.100520	0.309962	3706.29	83595