File: remote_trans/data/nanoindenter/0828-1/data/Data_2025-08-06,11h17m57s/2025-07-22_16-23-58_1_790.txt
2025-07-22, 16:23:58, 1
Index	Phase	Displacement	Time	Pos X	Pos Y	Pos Z	Rot A	Rot B	Piezo Z	Force A	Force B	Gripper	Voltage A	Voltage B	Temperature	Amplitude force	Amplitude pos	Stiffness	Phase shift	Phase excitation	Force A raw	Displacement raw	HMax	HMax raw	Real Force	Real Stiffness	Contact Depth	Area	Hardness	Reduced Mod.
[#]	[#]	[um]	[s]	[um]	[um]	[um]	[m°]	[m°]	[um]	[uN]	[uN]	[V]	[V]	[V]	[°C]	[uN]	[um]	[N/m]	[°]	[°]	[uN]	[um]	[um]	[um]	[uN]	[N/m]	[um]	[um^2]	[MPa]	[MPa]
790	1.000000	0.002672	7.37278e+06	-39639.1	1055.82	-29793.2	0.000000	0.000000	6.002808	0.002305	NaN	0.000000	0.001582	0.001664	28.0814	0.102156	0.000913	111.871	-39.3754	-168.181	-0.045304	0.001429	-1.043242	-1.044485	0.002305	111.871	-1.043258	-8.665032E+13	-2.660445E-17	NaN
790	1.000000	0.010601	7.37278e+06	-39639.1	1055.82	-29793.2	0.000000	0.000000	6.010736	-0.018492	NaN	0.000000	0.001659	0.001689	28.0816	0.071863	0.000992	72.4577	-173.552	-169.317	-0.064690	0.009283	-1.035313	-1.036631	-0.018492	72.4577	-1.035122	-6.735517E+13	2.745401E-16	NaN
790	1.000000	0.018616	7.37278e+06	-39639.1	1055.82	-29793.2	0.000000	0.000000	6.018752	-0.007805	NaN	0.000000	0.001652	0.001669	28.0814	0.053961	0.001658	32.5379	-154.98	-165.32	-0.050997	0.017267	-1.027298	-1.028647	-0.007805	32.5379	-1.027118	-5.256761E+13	1.484661E-16	NaN
790	1.000000	0.026653	7.37278e+06	-39639.1	1055.82	-29793.2	0.000000	0.000000	6.026791	0.031169	NaN	0.000000	0.001629	0.001663	28.0804	0.078058	0.001999	39.0419	-140.494	-166.346	-0.091100	0.025336	-1.019261	-1.020578	0.031169	39.0419	-1.019859	-4.198173E+13	-7.424357E-16	NaN
790	1.000000	0.034642	7.37278e+06	-39639.1	1055.82	-29793.2	0.000000	0.000000	6.034775	-0.079145	NaN	0.000000	0.001694	0.001648	28.0827	0.037017	0.002015	18.368	24.8421	-170.913	-0.064516	0.033259	-1.011272	-1.012655	-0.079145	18.368	-1.008041	-2.910776E+13	2.719024E-15	NaN
790	1.000000	0.042615	7.37278e+06	-39639.1	1055.82	-29793.2	0.000000	0.000000	6.042749	-0.051239	NaN	0.000000	0.001599	0.001706	28.0838	0.029304	0.001996	14.6802	-172.901	-164.834	-0.002478	0.041273	-1.003299	-1.004641	-0.051239	14.6802	-1.000681	-2.317061E+13	2.211393E-15	NaN
790	1.000000	0.050610	7.37278e+06	-39639.1	1055.82	-29793.2	0.000000	0.000000	6.050742	-0.098476	NaN	0.000000	0.001633	0.001675	28.081	0.046992	0.001894	24.8131	-124.994	-170.824	-0.150042	0.049291	-0.995304	-0.996623	-0.098476	24.8131	-0.992328	-1.788388E+13	5.506384E-15	NaN
790	1.000000	0.058607	7.37278e+06	-39639.1	1055.82	-29793.2	0.000000	0.000000	6.058745	0.026838	NaN	0.000000	0.001675	0.001711	28.0809	0.039142	0.002154	18.1686	53.1381	-168.314	-0.028295	0.057315	-0.987307	-0.988599	0.026838	18.1686	-0.988414	-1.584007E+13	-1.694288E-15	NaN
790	1.000000	0.066594	7.37278e+06	-39639.1	1055.82	-29793.2	0.000000	0.000000	6.066727	-0.094087	NaN	0.000000	0.001674	0.001695	28.0803	0.088166	0.002006	43.9603	-7.608562	-167.536	-0.042588	0.065266	-0.979320	-0.980648	-0.094087	43.9603	-0.977714	-1.136625E+13	8.277775E-15	NaN
790	1.000000	0.074637	7.37278e+06	-39639.1	1055.82	-29793.2	0.000000	0.000000	6.074771	-0.065095	NaN	0.000000	0.001616	0.001680	28.0803	0.081762	0.001836	44.5238	-173.777	-165.969	-0.046179	0.073330	-0.971277	-0.972584	-0.065095	44.5238	-0.970180	-8.996885E+12	7.235280E-15	NaN
790	1.000000	0.082639	7.37278e+06	-39639.1	1055.82	-29793.2	0.000000	0.000000	6.082773	-0.064678	NaN	0.000000	0.001584	0.001633	28.0802	0.021320	0.002027	10.5179	169.533	-165.102	0.005134	0.081312	-0.963275	-0.964602	-0.064678	10.5179	-0.958663	-6.292788E+12	1.027812E-14	NaN
790	1.000000	0.090639	7.37278e+06	-39639.1	1055.82	-29793.2	0.000000	0.000000	6.090775	0.002802	NaN	0.000000	0.001601	0.001689	28.0804	0.058365	0.002082	28.0298	-159.304	-164.51	-0.018475	0.089337	-0.955275	-0.956577	0.002802	28.0298	-0.955350	-5.677801E+12	-4.935560E-16	NaN
790	1.000000	0.098643	7.37278e+06	-39639.1	1055.82	-29793.2	0.000000	0.000000	6.098776	-0.079432	NaN	0.000000	0.001580	0.001696	28.0804	0.084182	0.002028	41.5054	111.616	-166.677	-0.062839	0.097321	-0.947271	-0.948593	-0.079432	41.5054	-0.945836	-4.225391E+12	1.879877E-14	NaN
790	1.000000	0.106635	7.37278e+06	-39639.1	1055.82	-29793.2	0.000000	0.000000	6.106770	-0.051622	NaN	0.000000	0.001576	0.001690	28.0801	0.051442	0.002048	25.1165	-123.131	-163.576	0.017523	0.105345	-0.939279	-0.940569	-0.051622	25.1165	-0.937737	-3.285528E+12	1.571206E-14	NaN
790	1.000000	0.114636	7.37278e+06	-39639.1	1055.82	-29793.2	0.000000	0.000000	6.114768	-0.099984	NaN	0.000000	0.001578	0.001687	28.0805	0.073111	0.001962	37.255	-30.087	-169.75	-0.113622	0.113293	-0.931278	-0.932621	-0.099984	37.255	-0.929266	-2.525134E+12	3.959568E-14	NaN
790	1.000000	0.122637	7.37278e+06	-39639.1	1055.82	-29793.2	0.000000	0.000000	6.122772	-0.024455	NaN	0.000000	0.001559	0.001657	28.0802	0.033875	0.002013	16.8285	32.5483	-165.747	0.011747	0.121351	-0.923277	-0.924563	-0.024455	16.8285	-0.922187	-2.026465E+12	1.206781E-14	NaN
790	1.000000	0.130633	7.37278e+06	-39639.1	1055.82	-29793.2	0.000000	0.000000	6.130768	-0.012324	NaN	0.000000	0.001591	0.001696	28.0803	0.024990	0.001974	12.6581	-164.303	-163.809	-0.040837	0.129335	-0.915281	-0.916579	-0.012324	12.6581	-0.914551	-1.598196E+12	7.711313E-15	NaN
790	1.000000	0.138646	7.37278e+06	-39639.1	1055.82	-29793.2	0.000000	0.000000	6.138779	-0.056891	NaN	0.000000	0.001587	0.001685	28.0804	0.083261	0.001907	43.6558	75.857	-164.637	-0.069937	0.137325	-0.907269	-0.908589	-0.056891	43.6558	-0.906291	-1.236128E+12	4.602323E-14	NaN
790	1.000000	0.146660	7.37278e+06	-39639.1	1055.82	-29793.2	0.000000	0.000000	6.146794	-0.055531	NaN	0.000000	0.001598	0.001707	28.0802	0.053251	0.002019	26.3759	-98.8153	-164.633	-0.050845	0.145305	-0.899254	-0.900609	-0.055531	26.3759	-0.897675	-9.454679E+11	5.873369E-14	NaN
790	1.000000	0.154639	7.37278e+06	-39639.1	1055.82	-29793.2	0.000000	0.000000	6.154769	-0.145162	NaN	0.000000	0.001606	0.001703	28.0805	0.043209	0.002025	21.3366	88.6844	-167.07	-0.097664	0.153367	-0.891275	-0.892547	-0.145162	21.3366	-0.886173	-6.609618E+11	2.196222E-13	NaN
790	1.000000	0.162672	7.37278e+06	-39639.1	1055.82	-29793.2	0.000000	0.000000	6.162805	-0.069651	NaN	0.000000	0.001566	0.001728	28.0812	0.140467	0.001895	74.1335	-108.426	-168.497	-0.084976	0.161302	-0.883242	-0.884612	-0.069651	74.1335	-0.882537	-5.902276E+11	1.180063E-13	NaN
790	1.000000	0.170648	7.37278e+06	-39639.1	1055.82	-29793.2	0.000000	0.000000	6.170784	-0.017913	NaN	0.000000	0.001638	0.001688	28.0817	0.075308	0.002023	37.2336	74.9244	-165.617	-0.036849	0.169320	-0.875266	-0.876594	-0.017913	37.2336	-0.874905	-4.653673E+11	3.849248E-14	NaN
790	1.000000	0.178674	7.37278e+06	-39639.1	1055.82	-29793.2	0.000000	0.000000	6.178810	0.010884	NaN	0.000000	0.001610	0.001677	28.0813	0.042712	0.002053	20.8035	-134.559	-168.712	-0.067192	0.177355	-0.867240	-0.868559	0.010884	20.8035	-0.867633	-3.710333E+11	-2.933361E-14	NaN
790	1.000000	0.186638	7.37278e+06	-39639.1	1055.82	-29793.2	0.000000	0.000000	6.186772	-0.069122	NaN	0.000000	0.001637	0.001710	28.0814	0.063448	0.001881	33.738	49.8069	-168.544	-0.114712	0.185313	-0.859276	-0.860601	-0.069122	33.738	-0.857739	-2.725941E+11	2.535698E-13	NaN
790	1.000000	0.194691	7.37278e+06	-39639.1	1055.82	-29793.2	0.000000	0.000000	6.194824	-0.073863	NaN	0.000000	0.001643	0.001691	28.0819	0.116979	0.001988	58.831	70.8226	-166.439	-0.133552	0.193363	-0.851223	-0.852551	-0.073863	58.831	-0.850281	-2.160464E+11	3.418853E-13	NaN
790	1.000000	0.202707	7.37278e+06	-39639.1	1055.82	-29793.2	0.000000	0.000000	6.202842	-0.029236	NaN	0.000000	0.001623	0.001651	28.0815	0.013775	0.001913	7.201251	31.7217	-165.39	-0.056797	0.201380	-0.843207	-0.844534	-0.029236	7.201251	-0.840162	-1.575768E+11	1.855341E-13	NaN
790	1.000000	0.210666	7.37278e+06	-39639.1	1055.82	-29793.2	0.000000	0.000000	6.210801	-0.036019	NaN	0.000000	0.001586	0.001679	28.0816	0.081761	0.001912	42.7571	-83.7541	-166.593	-0.083321	0.209352	-0.835248	-0.836562	-0.036019	42.7571	-0.834616	-1.325407E+11	2.717608E-13	NaN
790	1.000000	0.218686	7.37278e+06	-39639.1	1055.82	-29793.2	0.000000	0.000000	6.218819	-0.072371	NaN	0.000000	0.001642	0.001639	28.0814	0.071214	0.001990	35.7796	-167.59	-164.174	-0.046225	0.217354	-0.827228	-0.828560	-0.072371	35.7796	-0.825711	-1.003802E+11	7.209669E-13	NaN
790	1.000000	0.226701	7.37278e+06	-39639.1	1055.82	-29793.2	0.000000	0.000000	6.226833	-0.102174	NaN	0.000000	0.001602	0.001650	28.0813	0.063082	0.002034	31.0074	75.2845	-167.243	-0.117739	0.225423	-0.819213	-0.820491	-0.102174	31.0074	-0.816742	-7.586200E+10	1.346838E-12	NaN
790	1.000000	0.234691	7.37278e+06	-39639.1	1055.82	-29793.2	0.000000	0.000000	6.234824	-0.079631	NaN	0.000000	0.001622	0.001662	28.0818	0.078132	0.001968	39.6914	162.453	-165.137	-0.078217	0.233382	-0.811223	-0.812532	-0.079631	39.6914	-0.809719	-6.091944E+10	1.307157E-12	NaN
790	1.000000	0.242710	7.37278e+06	-39639.1	1055.82	-29793.2	0.000000	0.000000	6.242845	-0.024879	NaN	0.000000	0.001648	0.001679	28.0814	0.056114	0.001939	28.9333	-164.62	-168.46	-0.009378	0.241395	-0.803204	-0.804519	-0.024879	28.9333	-0.802559	-4.870791E+10	5.107742E-13	NaN
790	1.000000	0.250681	7.37278e+06	-39639.1	1055.82	-29793.2	0.000000	0.000000	6.250817	-0.009323	NaN	0.000000	0.001634	0.001690	28.0816	0.052369	0.001912	27.396	127.701	-168.518	-0.021272	0.249371	-0.795233	-0.796543	-0.009323	27.396	-0.794978	-3.843130E+10	2.425825E-13	NaN
790	1.000000	0.258697	7.37278e+06	-39639.1	1055.82	-29793.2	0.000000	0.000000	6.258833	-0.010120	NaN	0.000000	0.001636	0.001706	28.0816	0.129661	0.001903	68.1276	-170.54	-167.622	-0.077975	0.257379	-0.787217	-0.788535	-0.010120	68.1276	-0.787106	-3.004499E+10	3.368200E-13	NaN
790	1.000000	0.266697	7.37278e+06	-39639.1	1055.82	-29793.2	0.000000	0.000000	6.266831	-0.037561	NaN	0.000000	0.001613	0.001665	28.0814	0.055398	0.001936	28.6083	-177.968	-165.87	-0.015031	0.265384	-0.779217	-0.780530	-0.037561	28.6083	-0.778233	-2.276219E+10	1.650166E-12	NaN
790	1.000000	0.274723	7.37278e+06	-39639.1	1055.82	-29793.2	0.000000	0.000000	6.274853	-0.163111	NaN	0.000000	0.001609	0.001657	28.0817	0.032508	0.001934	16.8058	-99.974	-163.909	-0.035069	0.273428	-0.771191	-0.772486	-0.163111	16.8058	-0.763912	-1.453816E+10	1.121954E-11	NaN
790	1.000000	0.282704	7.37278e+06	-39639.1	1055.82	-29793.2	0.000000	0.000000	6.282841	0.013788	NaN	0.000000	0.001604	0.001690	28.0817	0.037863	0.001996	18.971	101.553	-168.377	-0.039847	0.281445	-0.763210	-0.764469	0.013788	18.971	-0.763755	-1.446714E+10	-9.530908E-13	NaN
790	1.000000	0.290730	7.37278e+06	-39639.1	1055.82	-29793.2	0.000000	0.000000	6.290866	-0.006947	NaN	0.000000	0.001638	0.001687	28.0818	0.025099	0.002114	11.8706	90.288	-164.492	-0.027672	0.289372	-0.755184	-0.756542	-0.006947	11.8706	-0.754745	-1.090928E+10	6.367965E-13	NaN
790	1.000000	0.298723	7.37278e+06	-39639.1	1055.82	-29793.2	0.000000	0.000000	6.298856	-0.071178	NaN	0.000000	0.001637	0.001691	28.081	0.044095	0.001934	22.8007	-130.499	-166.629	-0.072649	0.297435	-0.747191	-0.748479	-0.071178	22.8007	-0.744850	-8.000203E+9	8.897045E-12	NaN
790	1.000000	0.306722	7.37278e+06	-39639.1	1055.82	-29793.2	0.000000	0.000000	6.306853	-0.105201	NaN	0.000000	0.001645	0.001674	28.0804	0.050114	0.002146	23.3547	159.256	-165.444	-0.084611	0.305397	-0.739193	-0.740517	-0.105201	23.3547	-0.735814	-6.026084E+9	1.745755E-11	NaN
790	1.000000	0.314728	7.37278e+06	-39639.1	1055.82	-29793.2	0.000000	0.000000	6.314861	-0.089542	NaN	0.000000	0.001629	0.001642	28.0802	0.029815	0.001962	15.1938	-151.561	-167.631	-0.103269	0.313449	-0.731186	-0.732465	-0.089542	15.1938	-0.726766	-4.536517E+9	1.973813E-11	NaN
790	1.000000	0.322721	7.37278e+06	-39639.1	1055.82	-29793.2	0.000000	0.000000	6.322855	-0.055263	NaN	0.000000	0.001609	0.001658	28.0804	0.054513	0.001974	27.6189	-57.0853	-164.462	-0.047865	0.321361	-0.723193	-0.724553	-0.055263	27.6189	-0.721693	-3.868619E+9	1.428500E-11	NaN
790	1.000000	0.330701	7.37278e+06	-39639.1	1055.82	-29793.2	0.000000	0.000000	6.330834	-0.075021	NaN	0.000000	0.001609	0.001663	28.0806	0.099269	0.002015	49.2745	-59.6944	-166.904	-0.037166	0.329447	-0.715213	-0.716467	-0.075021	49.2745	-0.714071	-3.045097E+9	2.463664E-11	NaN
790	1.000000	0.338747	7.37278e+06	-39639.1	1055.82	-29793.2	0.000000	0.000000	6.338883	-0.025942	NaN	0.000000	0.001614	0.001702	28.0803	0.039023	0.002112	18.4802	-22.6234	-162.539	-0.112550	0.337439	-0.707167	-0.708475	-0.025942	18.4802	-0.706114	-2.371400E+9	1.093962E-11	NaN
790	1.000000	0.346727	7.37278e+06	-39639.1	1055.82	-29793.2	0.000000	0.000000	6.346862	-0.022926	NaN	0.000000	0.001605	0.001725	28.0804	0.021012	0.001926	10.9095	72.5541	-168.509	0.005684	0.345395	-0.699187	-0.700519	-0.022926	10.9095	-0.697611	-1.815131E+9	1.263065E-11	NaN
790	1.000000	0.354742	7.37278e+06	-39639.1	1055.82	-29793.2	0.000000	0.000000	6.354875	-0.067459	NaN	0.000000	0.001648	0.001703	28.0804	0.076613	0.001866	41.0498	42.0619	-168.627	-0.114990	0.353424	-0.691172	-0.692490	-0.067459	41.0498	-0.689940	-1.425927E+9	4.730883E-11	NaN
790	1.000000	0.362744	7.37278e+06	-39639.1	1055.82	-29793.2	0.000000	0.000000	6.362877	-0.062865	NaN	0.000000	0.001628	0.001679	28.0813	0.086401	0.002024	42.6965	-47.4298	-169.455	-0.073821	0.361466	-0.683170	-0.684448	-0.062865	42.6965	-0.682066	-1.112914E+9	5.648715E-11	NaN
790	1.000000	0.370757	7.37278e+06	-39639.1	1055.82	-29793.2	0.000000	0.000000	6.370889	-0.111675	NaN	0.000000	0.001618	0.001673	28.0806	0.056291	0.002110	26.6801	55.7765	-167.2	-0.169516	0.369416	-0.675157	-0.676498	-0.111675	26.6801	-0.672017	-8.109574E+8	1.377072E-10	NaN
790	1.000000	0.378726	7.37278e+06	-39639.1	1055.82	-29793.2	0.000000	0.000000	6.378859	-0.090086	NaN	0.000000	0.001599	0.001715	28.0805	0.040287	0.002023	19.9157	145.92	-165.308	-0.079672	0.377418	-0.667188	-0.668496	-0.090086	19.9157	-0.663795	-6.258190E+8	1.439495E-10	NaN
790	1.000000	0.386770	7.37278e+06	-39639.1	1055.82	-29793.2	0.000000	0.000000	6.386903	-0.083433	NaN	0.000000	0.001582	0.001651	28.0808	0.057064	0.002091	27.2893	-30.5321	-166.882	-0.085800	0.385470	-0.659144	-0.660444	-0.083433	27.2893	-0.656851	-5.027279E+8	1.659608E-10	NaN
790	1.000000	0.394768	7.37278e+06	-39639.1	1055.82	-29793.2	0.000000	0.000000	6.394902	-0.056744	NaN	0.000000	0.001641	0.001710	28.0805	0.115722	0.001994	58.0384	-141.805	-166.792	-0.045548	0.393477	-0.651146	-0.652437	-0.056744	58.0384	-0.650412	-4.102877E+8	1.383033E-10	NaN
790	1.000000	0.402740	7.37278e+06	-39639.1	1055.82	-29793.2	0.000000	0.000000	6.402870	-0.149537	NaN	0.000000	0.001648	0.001694	28.0807	0.091226	0.001919	47.542	167.664	-168.83	-0.086365	0.401452	-0.643174	-0.644462	-0.149537	47.542	-0.640815	-3.030174E+8	4.934936E-10	NaN
790	1.000000	0.410745	7.37278e+06	-39639.1	1055.82	-29793.2	0.000000	0.000000	6.410879	-0.036343	NaN	0.000000	0.001627	0.001671	28.0803	0.044204	0.002011	21.9853	-162.923	-164.675	0.005431	0.409414	-0.635169	-0.636500	-0.036343	21.9853	-0.633930	-2.437688E+8	1.490895E-10	NaN
790	1.000000	0.418748	7.37278e+06	-39639.1	1055.82	-29793.2	0.000000	0.000000	6.418883	-0.020743	NaN	0.000000	0.001600	0.001676	28.0803	0.054850	0.002030	27.0255	-63.2381	-168.739	-0.037357	0.417475	-0.627166	-0.628439	-0.020743	27.0255	-0.626591	-1.932840E+8	1.073211E-10	NaN
790	1.000000	0.426746	7.37278e+06	-39639.1	1055.82	-29793.2	0.000000	0.000000	6.426879	-0.077457	NaN	0.000000	0.001597	0.001704	28.0804	0.155687	0.001965	79.2195	68.3907	-166.522	-0.142767	0.425453	-0.619168	-0.620461	-0.077457	79.2195	-0.618435	-1.493199E+8	5.187328E-10	NaN
790	1.000000	0.434767	7.37278e+06	-39639.1	1055.82	-29793.2	0.000000	0.000000	6.434902	-0.022897	NaN	0.000000	0.001597	0.001734	28.0808	0.080887	0.001994	40.5713	135.258	-168.598	0.008908	0.433521	-0.611147	-0.612393	-0.022897	40.5713	-0.610724	-1.169685E+8	1.957545E-10	NaN
790	1.000000	0.442791	7.37278e+06	-39639.1	1055.82	-29793.2	0.000000	0.000000	6.442925	-0.055336	NaN	0.000000	0.001608	0.001712	28.0819	0.058031	0.002115	27.4442	84.4569	-164.889	-0.196259	0.441474	-0.603123	-0.604440	-0.055336	27.4442	-0.601611	-8.762849E+7	6.314805E-10	NaN
790	1.000000	0.450802	7.37278e+06	-39639.1	1055.82	-29793.2	0.000000	0.000000	6.450940	0.040542	NaN	0.000000	0.001596	0.001716	28.0814	0.018106	0.001969	9.193886	119.795	-169.367	-0.044643	0.449457	-0.595112	-0.596457	0.040542	9.193886	-0.598419	-7.919385E+7	-5.119315E-10	NaN
790	1.000000	0.458761	7.37278e+06	-39639.1	1055.82	-29793.2	0.000000	0.000000	6.458896	-0.035219	NaN	0.000000	0.001592	0.001682	28.0814	0.088012	0.002089	42.1312	0.874954	-166.804	0.008912	0.457487	-0.587153	-0.588427	-0.035219	42.1312	-0.586526	-5.429506E+7	6.486532E-10	NaN
790	1.000000	0.466792	7.37278e+06	-39639.1	1055.82	-29793.2	0.000000	0.000000	6.466925	-0.074477	NaN	0.000000	0.001552	0.001715	28.0815	0.127117	0.002148	59.1856	69.4261	-168.717	-0.066344	0.465486	-0.579122	-0.580428	-0.074477	59.1856	-0.578178	-4.164656E+7	1.788310E-9	NaN
790	1.000000	0.474782	7.37278e+06	-39639.1	1055.82	-29793.2	0.000000	0.000000	6.474918	-0.012378	NaN	0.000000	0.001598	0.001698	28.0814	0.096988	0.001931	50.2173	36.5829	-168.292	0.050594	0.473472	-0.571132	-0.572442	-0.012378	50.2173	-0.570947	-3.309183E+7	3.740604E-10	NaN
790	1.000000	0.482777	7.37278e+06	-39639.1	1055.82	-29793.2	0.000000	0.000000	6.482915	0.030275	NaN	0.000000	0.001613	0.001684	28.0817	0.070384	0.001923	36.6088	-120.581	-167.313	-0.009377	0.481480	-0.563137	-0.564434	0.030275	36.6088	-0.563757	-2.632303E+7	-1.150147E-9	NaN
790	1.000000	0.490804	7.37278e+06	-39639.1	1055.82	-29793.2	0.000000	0.000000	6.490937	-0.087320	NaN	0.000000	0.001620	0.001710	28.0813	0.054265	0.002021	26.8506	-148.073	-163.019	-0.078645	0.489495	-0.555110	-0.556419	-0.087320	26.8506	-0.552670	-1.849005E+7	4.722557E-9	NaN
790	1.000000	0.498780	7.37278e+06	-39639.1	1055.82	-29793.2	0.000000	0.000000	6.498915	-0.039682	NaN	0.000000	0.001589	0.001720	28.0815	0.047167	0.001982	23.7946	46.3357	-166.728	-0.081296	0.497528	-0.547134	-0.548386	-0.039682	23.7946	-0.545883	-1.489068E+7	2.664884E-9	NaN
790	1.000000	0.506813	7.37278e+06	-39639.1	1055.82	-29793.2	0.000000	0.000000	6.506946	-0.087059	NaN	0.000000	0.001602	0.001745	28.0815	0.052358	0.002129	24.5914	-161.266	-166.489	-0.052396	0.505490	-0.539101	-0.540424	-0.087059	24.5914	-0.536445	-1.101659E+7	7.902535E-9	NaN
790	1.000000	0.514835	7.37278e+06	-39639.1	1055.82	-29793.2	0.000000	0.000000	6.514971	-0.021458	NaN	0.000000	0.001607	0.001737	28.0814	0.070996	0.001992	35.6399	79.8728	-171.933	-0.006315	0.513463	-0.531079	-0.532451	-0.021458	35.6399	-0.530627	-9.14713e+06	2.345853E-9	NaN
790	1.000000	0.522807	7.37278e+06	-39639.1	1055.82	-29793.2	0.000000	0.000000	6.522941	-0.036694	NaN	0.000000	0.001583	0.001760	28.0819	0.048031	0.002099	22.8773	-114.25	-169.828	-0.075128	0.521525	-0.523107	-0.524389	-0.036694	22.8773	-0.521904	-6.91957e+06	5.302865E-9	NaN
790	1.000000	0.530805	7.37278e+06	-39639.1	1055.82	-29793.2	0.000000	0.000000	6.530938	-0.068194	NaN	0.000000	0.001587	0.001724	28.0815	0.119778	0.001964	60.9782	108.62	-165.863	-0.053849	0.529548	-0.515109	-0.516366	-0.068194	60.9782	-0.514270	-5.41847e+06	1.258548E-8	NaN
790	1.000000	0.538802	7.37278e+06	-39639.1	1055.82	-29793.2	0.000000	0.000000	6.538936	-0.054122	NaN	0.000000	0.001583	0.001722	28.0817	0.083390	0.002130	39.1423	-135.423	-165.702	-0.016289	0.537481	-0.507112	-0.508433	-0.054122	39.1423	-0.506075	-4.16611e+06	1.299102E-8	NaN
790	1.000000	0.546807	7.37278e+06	-39639.1	1055.82	-29793.2	0.000000	0.000000	6.546940	-0.074944	NaN	0.000000	0.001556	0.001708	28.0813	0.030449	0.001996	15.2545	127.875	-168.599	-0.049382	0.545527	-0.499107	-0.500387	-0.074944	15.2545	-0.495423	-2.95895e+06	2.532778E-8	NaN
790	1.000000	0.554853	7.37278e+06	-39639.1	1055.82	-29793.2	0.000000	0.000000	6.554988	-0.040910	NaN	0.000000	0.001612	0.001714	28.0813	0.053642	0.001918	27.9682	8.278814	-162.888	-0.062477	0.553450	-0.491061	-0.492464	-0.040910	27.9682	-0.489964	-2.48248e+06	1.647955E-8	NaN
790	1.000000	0.562834	7.37278e+06	-39639.1	1055.82	-29793.2	0.000000	0.000000	6.562966	-0.088464	NaN	0.000000	0.001584	0.001699	28.0816	0.027943	0.002026	13.7929	-8.728931	-165.777	-0.131001	0.561532	-0.483080	-0.484382	-0.088464	13.7929	-0.478270	-1.70335e+06	5.193546E-8	NaN
790	1.000000	0.570859	7.37278e+06	-39639.1	1055.82	-29793.2	0.000000	0.000000	6.570992	-0.091698	NaN	0.000000	0.001607	0.001689	28.0811	0.139654	0.002028	68.859	119.441	-164.636	-0.009655	0.569503	-0.475055	-0.476411	-0.091698	68.859	-0.474056	-1.48686e+06	6.167202E-8	NaN
790	1.000000	0.578852	7.37279e+06	-39639.1	1055.82	-29793.2	0.000000	0.000000	6.578988	-0.022820	NaN	0.000000	0.001644	0.001686	28.0804	0.081931	0.001933	42.3804	59.1144	-167.955	-0.072710	0.577574	-0.467062	-0.468340	-0.022820	42.3804	-0.466658	-1.17089e+06	1.948963E-8	NaN
790	1.000000	0.586858	7.37279e+06	-39639.1	1055.82	-29793.2	0.000000	0.000000	6.586993	-0.050669	NaN	0.000000	0.001584	0.001661	28.0806	0.080038	0.002039	39.2442	-106.89	-165.136	-0.032843	0.585444	-0.459056	-0.460470	-0.050669	39.2442	-0.458087	-887426	5.709638E-8	NaN
790	1.000000	0.594841	7.37279e+06	-39639.1	1055.82	-29793.2	0.000000	0.000000	6.594978	0.022847	NaN	0.000000	0.001562	0.001728	28.0804	0.038945	0.002100	18.5493	-118.156	-167.519	-0.034362	0.593521	-0.451073	-0.452393	0.022847	18.5493	-0.451997	-728540	-3.135940E-8	NaN
790	1.000000	0.602868	7.37279e+06	-39639.1	1055.82	-29793.2	0.000000	0.000000	6.603002	-0.053336	NaN	0.000000	0.001624	0.001693	28.0803	0.133609	0.002004	66.6576	126.128	-165.56	-0.076388	0.601535	-0.443046	-0.444379	-0.053336	66.6576	-0.442446	-534409	9.980357E-8	NaN
790	1.000000	0.610848	7.37279e+06	-39639.1	1055.82	-29793.2	0.000000	0.000000	6.610983	-0.033057	NaN	0.000000	0.001626	0.001719	28.0804	0.031645	0.002019	15.6758	47.3168	-166.61	-0.024709	0.609502	-0.435066	-0.436412	-0.033057	15.6758	-0.433484	-399332	8.278011E-8	NaN
790	1.000000	0.618858	7.37279e+06	-39639.1	1055.82	-29793.2	0.000000	0.000000	6.618993	-0.023987	NaN	0.000000	0.001606	0.001693	28.0804	0.089159	0.002032	43.8795	-145.157	-165.573	-0.103971	0.617572	-0.427056	-0.428342	-0.023987	43.8795	-0.426646	-319594	7.505577E-8	NaN
790	1.000000	0.626842	7.37279e+06	-39639.1	1055.82	-29793.2	0.000000	0.000000	6.626973	-0.120899	NaN	0.000000	0.001652	0.001679	28.0805	0.104746	0.001930	54.2772	90.8261	-166.215	-0.129879	0.625565	-0.419072	-0.420349	-0.120899	54.2772	-0.417402	-236346	5.115329E-7	NaN
790	1.000000	0.634842	7.37279e+06	-39639.1	1055.82	-29793.2	0.000000	0.000000	6.634976	-0.048596	NaN	0.000000	0.001687	0.001718	28.0807	0.119124	0.001924	61.9021	35.0022	-167.871	-0.033342	0.633557	-0.411072	-0.412357	-0.048596	61.9021	-0.410483	-188483	2.578291E-7	NaN
790	1.000000	0.642872	7.37279e+06	-39639.1	1055.82	-29793.2	0.000000	0.000000	6.643010	0.027519	NaN	0.000000	0.001688	0.001672	28.0804	0.084668	0.002069	40.9154	-54.5519	-166.718	-0.061753	0.641615	-0.403042	-0.404299	0.027519	40.9154	-0.403546	-150156	-1.832701E-7	NaN
790	1.000000	0.650858	7.37279e+06	-39639.1	1055.82	-29793.2	0.000000	0.000000	6.650995	0.032423	NaN	0.000000	0.001682	0.001713	28.0802	0.121908	0.002095	58.1935	167.286	-167.865	0.024445	0.649543	-0.395056	-0.396371	0.032423	58.1935	-0.395474	-115188	-2.814761E-7	NaN
790	1.000000	0.658877	7.37279e+06	-39639.1	1055.82	-29793.2	0.000000	0.000000	6.659012	-0.038106	NaN	0.000000	0.001678	0.001690	28.0802	0.023887	0.002115	11.2931	17.781	-165.382	-0.119673	0.657546	-0.387037	-0.388368	-0.038106	11.2931	-0.384506	-80262.5	4.747662E-7	NaN
790	1.000000	0.666869	7.37279e+06	-39639.1	1055.82	-29793.2	0.000000	0.000000	6.667004	-0.019631	NaN	0.000000	0.001665	0.001693	28.0803	0.054305	0.002111	25.7261	-15.7432	-164.396	-0.015397	0.665553	-0.379045	-0.380361	-0.019631	25.7261	-0.378473	-65760.9	2.985260E-7	NaN
790	1.000000	0.674883	7.37279e+06	-39639.1	1055.82	-29793.2	0.000000	0.000000	6.675016	-0.073560	NaN	0.000000	0.001683	0.001726	28.0804	0.056029	0.002038	27.4886	-156.058	-170.803	-0.095897	0.673567	-0.371031	-0.372347	-0.073560	27.4886	-0.369024	-48092.3	1.529570E-6	NaN
790	1.000000	0.682893	7.37279e+06	-39639.1	1055.82	-29793.2	0.000000	0.000000	6.683027	-0.065410	NaN	0.000000	0.001652	0.001716	28.0801	0.061720	0.001916	32.21	52.3183	-164.559	-0.102576	0.681568	-0.363021	-0.364346	-0.065410	32.21	-0.361498	-37453.4	1.746432E-6	NaN
790	1.000000	0.690919	7.37279e+06	-39639.1	1055.82	-29793.2	0.000000	0.000000	6.691056	0.021353	NaN	0.000000	0.001575	0.001735	28.0804	0.109923	0.001916	57.3657	28.4944	-168.247	-0.033997	0.689598	-0.354995	-0.356316	0.021353	57.3657	-0.355274	-30441.3	-7.014610E-7	NaN
790	1.000000	0.698850	7.37279e+06	-39639.1	1055.82	-29793.2	0.000000	0.000000	6.698983	-0.085083	NaN	0.000000	0.001602	0.001727	28.0802	0.012581	0.001938	6.490179	160.751	-164.822	-0.038859	0.697615	-0.347064	-0.348299	-0.085083	6.490179	-0.337232	-16641.1	5.112785E-6	NaN
790	1.000000	0.706896	7.37279e+06	-39639.1	1055.82	-29793.2	0.000000	0.000000	6.707031	-0.037189	NaN	0.000000	0.001561	0.001752	28.0806	0.082595	0.001952	42.3101	47.664	-165.774	-0.083873	0.705587	-0.339018	-0.340327	-0.037189	42.3101	-0.338359	-17283.1	2.151762E-6	NaN
790	1.000000	0.714893	7.37279e+06	-39639.1	1055.82	-29793.2	0.000000	0.000000	6.715027	-0.056856	NaN	0.000000	0.001565	0.001774	28.0814	0.008125	0.002129	3.816961	147.458	-165.658	-0.006851	0.713518	-0.331021	-0.332396	-0.056856	3.816961	-0.319849	-9255.99	6.142663E-6	NaN
790	1.000000	0.722905	7.37279e+06	-39639.1	1055.82	-29793.2	0.000000	0.000000	6.723039	-0.055437	NaN	0.000000	0.001623	0.001752	28.0814	0.011789	0.002017	5.845778	-96.5623	-164.726	-0.044284	0.721554	-0.323009	-0.324360	-0.055437	5.845778	-0.315896	-8094.12	6.849013E-6	NaN
790	1.000000	0.730874	7.37279e+06	-39639.1	1055.82	-29793.2	0.000000	0.000000	6.731007	-0.098836	NaN	0.000000	0.001596	0.001744	28.0815	0.075488	0.002073	36.4112	-83.2649	-165.341	-0.103764	0.729615	-0.315040	-0.316299	-0.098836	36.4112	-0.313004	-7336.2	1.347233E-5	NaN
790	1.000000	0.738913	7.37279e+06	-39639.1	1055.82	-29793.2	0.000000	0.000000	6.739048	-0.041314	NaN	0.000000	0.001561	0.001748	28.0815	0.070860	0.002033	34.8547	-86.7253	-165.863	-0.054928	0.737514	-0.307001	-0.308400	-0.041314	34.8547	-0.306112	-5800.32	7.122723E-6	NaN
790	1.000000	0.746895	7.37279e+06	-39639.1	1055.82	-29793.2	0.000000	0.000000	6.747028	-0.061996	NaN	0.000000	0.001587	0.001713	28.0815	0.098248	0.002007	48.952	65.6429	-164.96	-0.056078	0.745609	-0.299019	-0.300305	-0.061996	48.952	-0.298069	-4404.33	1.407620E-5	NaN
790	1.000000	0.754911	7.37279e+06	-39639.1	1055.82	-29793.2	0.000000	0.000000	6.755044	-0.078976	NaN	0.000000	0.001591	0.001725	28.0815	0.031340	0.001949	16.0785	-154.417	-170.267	0.003638	0.753598	-0.291003	-0.292316	-0.078976	16.0785	-0.287319	-3041.56	2.596549E-5	NaN
790	1.000000	0.762908	7.37279e+06	-39639.1	1055.82	-29793.2	0.000000	0.000000	6.763040	-0.120073	NaN	0.000000	0.001590	0.001739	28.0814	0.030192	0.001984	15.217	-16.2582	-165.658	-0.042267	0.761591	-0.283006	-0.284323	-0.120073	15.217	-0.277088	-2132.98	5.629335E-5	NaN
790	1.000000	0.770913	7.37279e+06	-39639.1	1055.82	-29793.2	0.000000	0.000000	6.771049	0.001964	NaN	0.000000	0.001614	0.001713	28.0817	0.034517	0.001958	17.6288	-26.2525	-168.588	0.021066	0.769596	-0.275001	-0.276318	0.001964	17.6288	-0.275085	-1989.21	-9.873943E-7	NaN
790	1.000000	0.778921	7.37279e+06	-39639.1	1055.82	-29793.2	0.000000	0.000000	6.779054	-0.073715	NaN	0.000000	0.001594	0.001731	28.0815	0.025577	0.002000	12.7859	-152.736	-168.345	-0.108834	0.777589	-0.266993	-0.268325	-0.073715	12.7859	-0.262669	-1287.61	5.724927E-5	NaN
790	1.000000	0.786901	7.37279e+06	-39639.1	1055.82	-29793.2	0.000000	0.000000	6.787035	-0.072075	NaN	0.000000	0.001586	0.001738	28.0814	0.076701	0.002029	37.8035	-42.5272	-166.974	-0.034786	0.785612	-0.259013	-0.260302	-0.072075	37.8035	-0.257583	-1076.04	6.698208E-5	NaN
790	1.000000	0.794950	7.37279e+06	-39639.1	1055.82	-29793.2	0.000000	0.000000	6.795081	-0.137937	NaN	0.000000	0.001615	0.001716	28.0814	0.139090	0.001989	69.9194	166.03	-169.31	-0.092831	0.793590	-0.250964	-0.252324	-0.137937	69.9194	-0.249484	-807.217	0.000171	NaN
790	1.000000	0.802896	7.37279e+06	-39639.1	1055.82	-29793.2	0.000000	0.000000	6.803031	-0.019001	NaN	0.000000	0.001580	0.001732	28.0813	0.087365	0.002035	42.932	108.029	-163.347	-0.104296	0.801608	-0.243018	-0.244306	-0.019001	42.932	-0.242686	-633.078	3.001446E-5	NaN
790	1.000000	0.810931	7.37279e+06	-39639.1	1055.82	-29793.2	0.000000	0.000000	6.811066	-0.030890	NaN	0.000000	0.001607	0.001690	28.0816	0.101669	0.001861	54.6249	-102.391	-168.739	-0.000940	0.809603	-0.234983	-0.236311	-0.030890	54.6249	-0.234559	-472.405	6.538978E-5	NaN
790	1.000000	0.818944	7.37279e+06	-39639.1	1055.82	-29793.2	0.000000	0.000000	6.819078	-0.056693	NaN	0.000000	0.001603	0.001746	28.0815	0.007752	0.002052	3.778207	106.949	-164.557	-0.094518	0.817610	-0.226970	-0.228304	-0.056693	3.778207	-0.215716	-237.149	0.000239	NaN
790	1.000000	0.826941	7.37279e+06	-39639.1	1055.82	-29793.2	0.000000	0.000000	6.827076	-0.028504	NaN	0.000000	0.001584	0.001699	28.0816	0.089165	0.001899	46.9657	101.871	-165.933	-0.094953	0.825577	-0.218973	-0.220337	-0.028504	46.9657	-0.218518	-263.008	0.000108	NaN
790	1.000000	0.834924	7.37279e+06	-39639.1	1055.82	-29793.2	0.000000	0.000000	6.835056	-0.116144	NaN	0.000000	0.001583	0.001700	28.0816	0.146871	0.002031	72.31	88.4709	-168.498	-0.007546	0.833658	-0.210990	-0.212256	-0.116144	72.31	-0.209785	-190.257	0.000610	NaN
790	1.000000	0.842975	7.37279e+06	-39639.1	1055.82	-29793.2	0.000000	0.000000	6.843115	0.094282	NaN	0.000000	0.001687	0.001701	28.0816	0.111498	0.001994	55.92	-118.981	-168.113	0.054132	0.841667	-0.202939	-0.204247	0.094282	55.92	-0.204204	-154.369	-0.000611	NaN
790	1.000000	0.850975	7.37279e+06	-39639.1	1055.82	-29793.2	0.000000	0.000000	6.851109	-0.065358	NaN	0.000000	0.001623	0.001728	28.0803	0.028752	0.001959	14.6798	12.2006	-166.84	-0.052278	0.849698	-0.194939	-0.196216	-0.065358	14.6798	-0.191599	-95.6558	0.000683	NaN
790	1.000000	0.858981	7.37279e+06	-39639.1	1055.82	-29793.2	0.000000	0.000000	6.859114	-0.070791	NaN	0.000000	0.001628	0.001729	28.0802	0.105995	0.001901	55.7662	122.477	-162.923	-0.087940	0.857635	-0.186933	-0.188279	-0.070791	55.7662	-0.185981	-77.0285	0.000919	NaN
790	1.000000	0.866943	7.37279e+06	-39639.1	1055.82	-29793.2	0.000000	0.000000	6.867075	-0.113150	NaN	0.000000	0.001608	0.001694	28.0803	0.100820	0.001983	50.8364	-137.487	-167.501	-0.192112	0.865649	-0.178971	-0.180265	-0.113150	50.8364	-0.177301	-54.8825	0.002062	NaN
790	1.000000	0.874969	7.37279e+06	-39639.1	1055.82	-29793.2	0.000000	0.000000	6.875104	-0.029789	NaN	0.000000	0.001574	0.001696	28.0801	0.163611	0.001967	83.1713	77.4926	-168.074	-0.039525	0.873648	-0.170945	-0.172266	-0.029789	83.1713	-0.170677	-42.2042	0.000706	NaN
790	1.000000	0.882941	7.37279e+06	-39639.1	1055.82	-29793.2	0.000000	0.000000	6.883075	-0.054498	NaN	0.000000	0.001612	0.001632	28.08	0.049117	0.002054	23.9147	-64.8722	-166.195	-0.041100	0.881645	-0.162973	-0.164269	-0.054498	23.9147	-0.161264	-28.868	0.001888	NaN
790	1.000000	0.890962	7.37279e+06	-39639.1	1055.82	-29793.2	0.000000	0.000000	6.891093	-0.134529	NaN	0.000000	0.001580	0.001654	28.0803	0.074906	0.001971	37.9971	178.866	-165.916	-0.091978	0.889605	-0.154952	-0.156309	-0.134529	37.9971	-0.152296	-19.9413	0.006746	NaN
790	1.000000	0.899004	7.37279e+06	-39639.1	1055.82	-29793.2	0.000000	0.000000	6.899139	-0.021795	NaN	0.000000	0.001612	0.001647	28.08	0.121284	0.001940	62.5074	67.4948	-164.392	-0.063235	0.897657	-0.146910	-0.148257	-0.021795	62.5074	-0.146649	-15.7253	0.001386	NaN
790	1.000000	0.906970	7.37279e+06	-39639.1	1055.82	-29793.2	0.000000	0.000000	6.907103	-0.084533	NaN	0.000000	0.001612	0.001683	28.0804	0.035417	0.001980	17.8919	28.7653	-166.677	-0.048548	0.905691	-0.138944	-0.140223	-0.084533	17.8919	-0.135400	-9.681184	0.008732	NaN
790	1.000000	0.914988	7.37279e+06	-39639.1	1055.82	-29793.2	0.000000	0.000000	6.915123	-0.031175	NaN	0.000000	0.001636	0.001656	28.0801	0.108777	0.002070	52.5433	99.4225	-164.738	0.012161	0.913641	-0.130926	-0.132273	-0.031175	52.5433	-0.130481	-7.786431	0.004004	NaN
790	1.000000	0.922951	7.37279e+06	-39639.1	1055.82	-29793.2	0.000000	0.000000	6.923087	0.005878	NaN	0.000000	0.001637	0.001677	28.0801	0.064529	0.002053	31.4357	-73.2721	-165.769	0.042011	0.921613	-0.122963	-0.124301	0.005878	31.4357	-0.123104	-5.576113	-0.001054	NaN
790	1.000000	0.930965	7.37279e+06	-39639.1	1055.82	-29793.2	0.000000	0.000000	6.931098	-0.094716	NaN	0.000000	0.001636	0.001643	28.0801	0.036730	0.001987	18.488	145.305	-167.379	-0.072997	0.929660	-0.114949	-0.116254	-0.094716	18.488	-0.111106	-3.170614	0.029873	NaN
790	1.000000	0.938967	7.37279e+06	-39639.1	1055.82	-29793.2	0.000000	0.000000	6.939099	-0.090477	NaN	0.000000	0.001617	0.001714	28.0802	0.052031	0.002035	25.5732	-154.768	-163.604	-0.090372	0.937690	-0.106947	-0.108224	-0.090477	25.5732	-0.104294	-2.269289	0.039870	NaN
790	1.000000	0.947000	7.37279e+06	-39639.1	1055.82	-29793.2	0.000000	0.000000	6.947133	-0.073890	NaN	0.000000	0.001654	0.001688	28.0804	0.095703	0.002001	47.8243	-130.875	-166.658	-0.043794	0.945707	-0.098914	-0.100207	-0.073890	47.8243	-0.097755	-1.628223	0.045380	NaN
790	1.000000	0.955000	7.37279e+06	-39639.1	1055.82	-29793.2	0.000000	0.000000	6.955133	-0.094347	NaN	0.000000	0.001644	0.001666	28.0801	0.041362	0.002065	20.0275	47.9883	-164.577	-0.082658	0.953687	-0.090914	-0.092227	-0.094347	20.0275	-0.087381	-0.937273	0.100661	NaN
790	1.000000	0.962987	7.37279e+06	-39639.1	1055.82	-29793.2	0.000000	0.000000	6.963119	-0.088220	NaN	0.000000	0.001683	0.001672	28.0802	0.071264	0.001907	37.3678	-126.836	-165.951	-0.111294	0.961659	-0.082927	-0.084255	-0.088220	37.3678	-0.081157	-0.661446	0.133374	NaN
790	1.000000	0.971000	7.37279e+06	-39639.1	1055.82	-29793.2	0.000000	0.000000	6.971137	0.004178	NaN	0.000000	0.001630	0.001699	28.08	0.085952	0.002015	42.6592	-87.7337	-164.601	-0.040313	0.969647	-0.074914	-0.076267	0.004178	42.6592	-0.074987	-0.461514	-0.009053	NaN
790	1.000000	0.978991	7.37279e+06	-39639.1	1055.82	-29793.2	0.000000	0.000000	6.979127	-0.002903	NaN	0.000000	0.001633	0.001689	28.0802	0.123675	0.001986	62.2594	-83.8733	-166.954	-0.006799	0.977667	-0.066923	-0.068247	-0.002903	62.2594	-0.066888	-0.280937	0.010332	NaN
790	1.000000	0.987000	7.37279e+06	-39639.1	1055.82	-29793.2	0.000000	0.000000	6.987131	-0.109443	NaN	0.000000	0.001622	0.001671	28.0816	0.066792	0.001994	33.4921	37.9119	-168.711	-0.133132	0.985701	-0.058914	-0.060213	-0.109443	33.4921	-0.056464	-0.142209	0.769594	NaN
790	1.000000	0.995010	7.37279e+06	-39639.1	1055.82	-29793.2	0.000000	0.000000	6.995144	-0.062845	NaN	0.000000	0.001645	0.001651	28.0816	0.096295	0.001927	49.9664	-125.359	-167.677	-0.073593	0.993707	-0.050904	-0.052207	-0.062845	49.9664	-0.049961	-0.091000	0.690599	NaN
790	1.000000	1.003011	7.37279e+06	-39639.1	1055.82	-29793.2	0.000000	0.000000	7.003143	-0.104262	NaN	0.000000	0.001598	0.001663	28.0814	0.028077	0.001810	15.5115	61.6468	-165.176	-0.146330	1.001704	-0.042903	-0.044210	-0.104262	15.5115	-0.037862	-0.038968	2.675606	NaN
790	1.000000	1.010986	7.37279e+06	-39639.1	1055.82	-29793.2	0.000000	0.000000	7.011121	-0.022620	NaN	0.000000	0.001613	0.001690	28.0812	0.062865	0.001887	33.3087	54.8629	-163.953	-0.077457	1.009696	-0.034928	-0.036218	-0.022620	33.3087	-0.034419	-0.030789	0.734664	NaN
790	1.000000	1.019028	7.37279e+06	-39639.1	1055.82	-29793.2	0.000000	0.000000	7.019163	-0.027223	NaN	0.000000	0.001644	0.001696	28.0815	0.041774	0.002046	20.4203	-35.0563	-168.162	-0.018214	1.017711	-0.026886	-0.028203	-0.027223	20.4203	-0.025886	-0.017799	1.529498	NaN
790	1.000000	1.027017	7.37279e+06	-39639.1	1055.82	-29793.2	0.000000	0.000000	7.027152	-0.019182	NaN	0.000000	0.001622	0.001681	28.0813	0.060227	0.001962	30.6907	-168.858	-166.857	-0.037955	1.025755	-0.018897	-0.020159	-0.019182	30.6907	-0.018429	-0.011451	1.675184	NaN
790	1.000000	1.035052	7.37279e+06	-39639.1	1055.82	-29793.2	0.000000	0.000000	7.035186	-0.059099	NaN	0.000000	0.001614	0.001647	28.0814	0.146433	0.002047	71.5372	-178.476	-164.179	-0.031798	1.033770	-0.010862	-0.012144	-0.059099	71.5372	-0.010242	-0.006526	9.056246	NaN
790	1.000000	1.043027	7.37279e+06	-39639.1	1055.82	-29793.2	0.000000	0.000000	7.043187	0.589197	NaN	0.000000	0.001616	0.001691	28.0821	1.100659	0.002084	528.191	8.816610	-165.47	0.057326	1.041707	-0.002887	-0.004207	0.589197	528.191	-0.003724	-0.002599	-226.692	NaN
790	2.000000	1.050429	7.37279e+06	-39639.1	1055.82	-29793.2	0.000000	0.000000	7.050933	8.934718	NaN	0.000000	0.001574	0.001682	28.0814	7.519006	0.001629	4615.38	8.877403	-170.579	8.895668	1.049599	0.004515	0.003685	8.934718	4615.38	0.003063	0.002433	3671.64	85481.1
790	2.000000	1.052571	7.37279e+06	-39639.1	1055.82	-29793.2	0.000000	0.000000	7.053153	10.8392	NaN	0.000000	0.001578	0.001684	28.0815	10.4373	0.001673	6239.41	10.1356	-176.529	11.3464	1.052211	0.006657	0.006297	10.8392	6239.41	0.005354	0.004459	2430.77	85366.8
790	2.000000	1.054572	7.37279e+06	-39639.1	1055.82	-29793.2	0.000000	0.000000	7.055375	16.2266	NaN	0.000000	0.001605	0.001703	28.0814	13.2195	0.001723	7670.69	8.080017	-177.346	15.1529	1.054244	0.008658	0.008330	16.2266	7670.69	0.007071	0.006104	2658.14	89698.1
790	2.000000	1.056509	7.37279e+06	-39639.1	1055.82	-29793.2	0.000000	0.000000	7.057369	17.6137	NaN	0.000000	0.001641	0.001697	28.0813	14.7563	0.001708	8640.48	6.548947	-176.32	16.6378	1.056182	0.010595	0.010268	17.6137	8640.48	0.009066	0.008162	2157.93	87378.2
790	2.000000	1.058483	7.37279e+06	-39639.1	1055.82	-29793.2	0.000000	0.000000	7.059561	22.8996	NaN	0.000000	0.001604	0.001691	28.0815	16.8861	0.001779	9490.01	2.116534	-172.971	21.7921	1.058225	0.012569	0.012311	22.8996	9490.01	0.010759	0.010038	2281.34	86540.7
790	2.000000	1.060479	7.37279e+06	-39639.1	1055.82	-29793.2	0.000000	0.000000	7.061839	29.7705	NaN	0.000000	0.001638	0.001669	28.0813	18.4912	0.001809	10219.3	2.161281	-173.055	27.784	1.060130	0.014565	0.014216	29.7705	10219.3	0.012380	0.011949	2491.47	85413.5
790	2.000000	1.062501	7.37279e+06	-39639.1	1055.82	-29793.2	0.000000	0.000000	7.063906	30.8833	NaN	0.000000	0.001644	0.001710	28.0819	20.5726	0.001668	12332.7	5.094811	-178.683	31.2248	1.062188	0.016587	0.016274	30.8833	12332.7	0.014709	0.014899	2072.82	92310.7
790	2.000000	1.064573	7.37279e+06	-39639.1	1055.82	-29793.2	0.000000	0.000000	7.066246	37.4147	NaN	0.000000	0.001637	0.001704	28.0811	22.8463	0.001832	12472.8	4.828994	-175.973	38.4676	1.064107	0.018659	0.018193	37.4147	12472.8	0.016409	0.017210	2173.98	86864.6
790	2.000000	1.066515	7.37279e+06	-39639.1	1055.82	-29793.2	0.000000	0.000000	7.068316	40.5156	NaN	0.000000	0.001629	0.001678	28.0813	24.7804	0.001857	13341.2	6.536507	-178.626	42.7419	1.066138	0.020601	0.020224	40.5156	13341.2	0.018323	0.019975	2028.29	86242.9
790	2.000000	1.068471	7.37279e+06	-39639.1	1055.82	-29793.2	0.000000	0.000000	7.070637	49.395	NaN	0.000000	0.001617	0.001700	28.0803	27.0416	0.001813	14911.8	9.262768	175.674	48.2888	1.068124	0.022557	0.022210	49.395	14911.8	0.020072	0.022656	2180.19	90512.7
790	2.000000	1.070442	7.37279e+06	-39639.1	1055.82	-29793.2	0.000000	0.000000	7.072821	54.5872	NaN	0.000000	0.001583	0.001699	28.0802	27.788	0.001792	15504	2.900058	-176.789	52.6817	1.070134	0.024528	0.024220	54.5872	15504	0.021887	0.025595	2132.71	88539.6
790	2.000000	1.072459	7.37279e+06	-39639.1	1055.82	-29793.2	0.000000	0.000000	7.075008	58.7011	NaN	0.000000	0.001634	0.001663	28.081	29.5264	0.001833	16107.5	4.416218	-179.627	57.571	1.072117	0.026545	0.026203	58.7011	16107.5	0.023812	0.028890	2031.92	86582.8
790	2.000000	1.074451	7.37279e+06	-39639.1	1055.82	-29793.2	0.000000	0.000000	7.077279	65.4986	NaN	0.000000	0.001600	0.001663	28.0801	31.6057	0.001778	17780.4	6.811102	177.052	64.8274	1.074122	0.028537	0.028208	65.4986	17780.4	0.025774	0.032440	2019.09	90193.6
790	2.000000	1.076459	7.37279e+06	-39639.1	1055.82	-29793.2	0.000000	0.000000	7.079607	73.2825	NaN	0.000000	0.001616	0.001681	28.0801	32.7468	0.001785	18350	4.437513	179.5	73.5411	1.076152	0.030545	0.030238	73.2825	18350	0.027550	0.035819	2045.92	88583.6
790	2.000000	1.078427	7.37279e+06	-39639.1	1055.82	-29793.2	0.000000	0.000000	7.081850	79.988	NaN	0.000000	0.001604	0.001688	28.0802	35.7596	0.001811	19745.7	3.739800	178.508	77.7177	1.078142	0.032513	0.032228	79.988	19745.7	0.029475	0.039662	2016.75	90585.8
790	2.000000	1.080405	7.37279e+06	-39639.1	1055.82	-29793.2	0.000000	0.000000	7.084225	89.6637	NaN	0.000000	0.001633	0.001732	28.0801	36.662	0.001742	21050.3	5.171476	176.722	86.9017	1.080138	0.034491	0.034224	89.6637	21050.3	0.031296	0.043473	2062.53	92241
790	2.000000	1.082441	7.37279e+06	-39639.1	1055.82	-29793.2	0.000000	0.000000	7.086615	98.2559	NaN	0.000000	0.001625	0.001676	28.0821	39.1161	0.001787	21886.5	3.421684	178.49	96.6742	1.082056	0.036527	0.036142	98.2559	21886.5	0.033160	0.047549	2066.42	91702.1
790	2.000000	1.084444	7.37279e+06	-39639.1	1055.82	-29793.2	0.000000	0.000000	7.088939	106.077	NaN	0.000000	0.001596	0.001710	28.0801	40.9695	0.001859	22036.6	3.030424	179.507	105.553	1.084206	0.038530	0.038292	106.077	22036.6	0.034919	0.051558	2057.42	88668.4
790	2.000000	1.086452	7.37279e+06	-39639.1	1055.82	-29793.2	0.000000	0.000000	7.091224	112.806	NaN	0.000000	0.001623	0.001667	28.0801	43.6131	0.001860	23448.8	7.707442	174.115	113.175	1.086095	0.040538	0.040181	112.806	23448.8	0.036930	0.056335	2002.42	90262.1
790	2.000000	1.088380	7.37279e+06	-39639.1	1055.82	-29793.2	0.000000	0.000000	7.093665	125.306	NaN	0.000000	0.001602	0.001659	28.0801	43.9068	0.001718	25553.5	2.053382	179.09	122.4	1.088090	0.042466	0.042176	125.306	25553.5	0.038788	0.060933	2056.44	94579.2
790	2.000000	1.090416	7.37279e+06	-39639.1	1055.82	-29793.2	0.000000	0.000000	7.095960	131.607	NaN	0.000000	0.001617	0.001731	28.0801	45.2596	0.001681	26926.6	1.862797	178.229	129.431	1.090123	0.044502	0.044209	131.607	26926.6	0.040836	0.066207	1987.8	95609.8
790	2.000000	1.092399	7.37279e+06	-39639.1	1055.82	-29793.2	0.000000	0.000000	7.098372	142.032	NaN	0.000000	0.001611	0.001706	28.0807	48.1887	0.001790	26927.8	3.888049	175.689	139.206	1.092126	0.046485	0.046212	142.032	26927.8	0.042530	0.070729	2008.12	92507.2
790	2.000000	1.094461	7.37279e+06	-39639.1	1055.82	-29793.2	0.000000	0.000000	7.100911	153.633	NaN	0.000000	0.001630	0.001714	28.08	49.2877	0.001784	27624.6	0.136694	179.951	152.396	1.094076	0.048547	0.048162	153.633	27624.6	0.044376	0.075825	2026.15	91656.1
790	2.000000	1.096492	7.37279e+06	-39639.1	1055.82	-29793.2	0.000000	0.000000	7.103197	159.841	NaN	0.000000	0.001656	0.001679	28.0801	51.4494	0.001712	30060.9	2.699215	177.133	162.512	1.096075	0.050578	0.050161	159.841	30060.9	0.046590	0.082166	1945.34	95814.1
790	2.000000	1.098432	7.37279e+06	-39639.1	1055.82	-29793.2	0.000000	0.000000	7.105448	167.413	NaN	0.000000	0.001644	0.001715	28.0802	54.4373	0.001832	29717.2	2.257325	176.981	165.675	1.098227	0.052518	0.052313	167.413	29717.2	0.048293	0.087211	1919.64	91938.5
790	2.000000	1.100422	7.37279e+06	-39639.1	1055.82	-29793.2	0.000000	0.000000	7.107979	180.572	NaN	0.000000	0.001602	0.001714	28.08	55.6139	0.001802	30864.4	7.028704	172.579	179.747	1.100087	0.054508	0.054173	180.572	30864.4	0.050120	0.092785	1946.13	92574.5
790	2.000000	1.102384	7.37279e+06	-39639.1	1055.82	-29793.2	0.000000	0.000000	7.110378	191.2	NaN	0.000000	0.001608	0.001691	28.0815	57.7731	0.001849	31245	5.468107	173.495	188.683	1.102107	0.056470	0.056193	191.2	31245	0.051881	0.098315	1944.78	91042.7
790	2.000000	1.104570	7.37279e+06	-39639.1	1055.82	-29793.2	0.000000	0.000000	7.112855	198.314	NaN	0.000000	0.001573	0.001704	28.0811	59.6761	0.001875	31823.1	5.185306	174.105	204.382	1.104169	0.058656	0.058255	198.314	31823.1	0.053982	0.105117	1886.61	89676.5
790	2.000000	1.106338	7.37279e+06	-39639.1	1055.82	-29793.2	0.000000	0.000000	7.115231	213.1	NaN	0.000000	0.001599	0.001680	28.0814	60.2572	0.001733	34762.1	5.364255	171.985	208.313	1.106154	0.060424	0.060240	213.1	34762.1	0.055826	0.111267	1915.2	95212.7
790	2.000000	1.108462	7.37279e+06	-39639.1	1055.82	-29793.2	0.000000	0.000000	7.117796	223.832	NaN	0.000000	0.001617	0.001678	28.0813	63.4866	0.001761	36044.2	3.401169	174.71	227.221	1.108113	0.062548	0.062199	223.832	36044.2	0.057890	0.118353	1891.24	95723.8
790	2.000000	1.110412	7.37279e+06	-39639.1	1055.82	-29793.2	0.000000	0.000000	7.120275	236.717	NaN	0.000000	0.001582	0.001717	28.0809	64.0032	0.001702	37611.2	4.701668	172.621	236.299	1.110151	0.064498	0.064237	236.717	37611.2	0.059777	0.125011	1893.58	97189.1
790	2.000000	1.112364	7.37279e+06	-39639.1	1055.82	-29793.2	0.000000	0.000000	7.123027	256.156	NaN	0.000000	0.001615	0.001724	28.0813	67.2921	0.001867	36042.4	5.154102	173.19	253.481	1.111968	0.066450	0.066054	256.156	36042.4	0.061120	0.129854	1972.64	91381.6
790	2.000000	1.114444	7.37279e+06	-39639.1	1055.82	-29793.2	0.000000	0.000000	7.125581	267.689	NaN	0.000000	0.001616	0.001701	28.081	69.2652	0.001811	38243.5	5.919845	172.376	268.267	1.114006	0.068530	0.068092	267.689	38243.5	0.063280	0.137833	1942.12	94113.7
790	2.000000	1.116347	7.37279e+06	-39639.1	1055.82	-29793.2	0.000000	0.000000	7.128014	280.593	NaN	0.000000	0.001596	0.001707	28.0811	69.6834	0.001811	38473.2	0.994068	176.87	275.302	1.116021	0.070433	0.070107	280.593	38473.2	0.064964	0.144206	1945.77	92563.4
790	2.000000	1.118365	7.37279e+06	-39639.1	1055.82	-29793.2	0.000000	0.000000	7.130555	293.331	NaN	0.000000	0.001601	0.001648	28.0811	73.1825	0.001803	40580	5.224861	171.921	290.681	1.118048	0.072451	0.072134	293.331	40580	0.067029	0.152213	1927.11	95029.5
790	2.000000	1.120381	7.37279e+06	-39639.1	1055.82	-29793.2	0.000000	0.000000	7.133246	309.753	NaN	0.000000	0.001614	0.001668	28.0812	73.8024	0.001878	39304.8	5.840876	172.204	309.063	1.119921	0.074467	0.074007	309.753	39304.8	0.068557	0.158266	1957.17	90266.4
790	2.000000	1.122359	7.37279e+06	-39639.1	1055.82	-29793.2	0.000000	0.000000	7.135338	312.52	NaN	0.000000	0.001605	0.001696	28.0809	75.7539	0.001793	42253.7	-0.424517	177.176	310.524	1.122130	0.076445	0.076216	312.52	42253.7	0.070898	0.167760	1862.9	94252.7
790	2.000000	1.124492	7.37279e+06	-39639.1	1055.82	-29793.2	0.000000	0.000000	7.138223	330.841	NaN	0.000000	0.001644	0.001712	28.0811	79.6201	0.001906	41780.5	5.145671	171.969	333.899	1.124126	0.078578	0.078212	330.841	41780.5	0.072639	0.174987	1890.66	91252.4
790	2.000000	1.126361	7.37279e+06	-39639.1	1055.82	-29793.2	0.000000	0.000000	7.140925	351.103	NaN	0.000000	0.001606	0.001649	28.081	80.2689	0.001871	42902.9	4.515609	172.471	348.64	1.126034	0.080447	0.080120	351.103	42902.9	0.074309	0.182056	1928.54	91866.4
790	2.000000	1.128418	7.37279e+06	-39639.1	1055.82	-29793.2	0.000000	0.000000	7.143368	360.488	NaN	0.000000	0.001650	0.001664	28.081	82.9804	0.001938	42818.8	2.814754	174.428	361.906	1.127960	0.082504	0.082046	360.488	42818.8	0.076189	0.190173	1895.58	89708.3
790	2.000000	1.130332	7.37279e+06	-39639.1	1055.82	-29793.2	0.000000	0.000000	7.146068	379.601	NaN	0.000000	0.001630	0.001651	28.081	82.0225	0.001683	48731.7	3.837872	172.357	376.197	1.130045	0.084418	0.084131	379.601	48731.7	0.078576	0.200714	1891.26	99379.4
790	2.000000	1.132241	7.37279e+06	-39639.1	1055.82	-29793.2	0.000000	0.000000	7.148574	394.138	NaN	0.000000	0.001633	0.001659	28.0809	83.6904	0.001712	48876.7	2.172912	173.494	387.155	1.131989	0.086327	0.086075	394.138	48876.7	0.080279	0.208396	1891.3	97820.7
790	2.000000	1.134309	7.37279e+06	-39639.1	1055.82	-29793.2	0.000000	0.000000	7.151156	406.635	NaN	0.000000	0.001595	0.001666	28.081	87.4668	0.001806	48436.8	6.360320	169.287	400.266	1.134051	0.088395	0.088137	406.635	48436.8	0.082099	0.216757	1876	95052.2
790	2.000000	1.136337	7.37279e+06	-39639.1	1055.82	-29793.2	0.000000	0.000000	7.153696	419.09	NaN	0.000000	0.001627	0.001719	28.08	88.2184	0.001841	47928.2	3.648234	172.122	415.921	1.136009	0.090423	0.090095	419.09	47928.2	0.083865	0.225018	1862.47	92311.5
790	2.000000	1.138381	7.37279e+06	-39639.1	1055.82	-29793.2	0.000000	0.000000	7.156295	432.603	NaN	0.000000	0.001602	0.001678	28.0795	91.0685	0.001731	52598	4.794343	170.047	433.677	1.138187	0.092467	0.092273	432.603	52598	0.086299	0.236635	1828.14	98787.6
790	2.000000	1.140321	7.37279e+06	-39639.1	1055.82	-29793.2	0.000000	0.000000	7.159109	453.894	NaN	0.000000	0.001579	0.001720	28.0798	92.4047	0.001880	49141.9	4.701659	171.4	450.26	1.139935	0.094407	0.094021	453.894	49141.9	0.087479	0.242371	1872.72	91197.9
790	2.000000	1.142390	7.37279e+06	-39639.1	1055.82	-29793.2	0.000000	0.000000	7.161903	471.512	NaN	0.000000	0.001599	0.001702	28.0797	95.5152	0.001918	49806.9	4.835268	171.109	472.945	1.142009	0.096476	0.096095	471.512	49806.9	0.089376	0.251720	1873.16	90699.3
790	2.000000	1.144308	7.37279e+06	-39639.1	1055.82	-29793.2	0.000000	0.000000	7.164416	486.015	NaN	0.000000	0.001586	0.001689	28.08	96.7492	0.001833	52788.7	4.929796	170.219	481.215	1.144039	0.098394	0.098125	486.015	52788.7	0.091489	0.262324	1852.73	94166.2
790	2.000000	1.146269	7.37279e+06	-39639.1	1055.82	-29793.2	0.000000	0.000000	7.167070	502.881	NaN	0.000000	0.001596	0.001640	28.0798	97.8069	0.001813	53935.6	4.511785	170.757	497.075	1.145980	0.100355	0.100066	502.881	53935.6	0.093362	0.271900	1849.5	94502.7
790	2.000000	1.148306	7.37279e+06	-39639.1	1055.82	-29793.2	0.000000	0.000000	7.169679	516.785	NaN	0.000000	0.001605	0.001684	28.0799	99.7235	0.001836	54310.2	2.315467	172.852	513.301	1.148088	0.102392	0.102174	516.785	54310.2	0.095256	0.281742	1834.25	93482.2
790	2.000000	1.148787	7.37279e+06	-39639.1	1055.82	-29793.2	0.000000	0.000000	7.170570	526.758	NaN	0.000000	0.001602	0.001656	28.0796	100.536	0.001837	54734.7	6.111758	-10.9803	518.609	1.148409	0.102873	0.102495	526.758	54734.7	0.095655	0.283840	1855.83	93864.1