File: remote_trans/data/nanoindenter/0828-1/data/Data_2025-08-06,11h17m57s/2025-07-22_16-23-58_1_391.txt
2025-07-22, 16:23:58, 1
Index	Phase	Displacement	Time	Pos X	Pos Y	Pos Z	Rot A	Rot B	Piezo Z	Force A	Force B	Gripper	Voltage A	Voltage B	Temperature	Amplitude force	Amplitude pos	Stiffness	Phase shift	Phase excitation	Force A raw	Displacement raw	HMax	HMax raw	Real Force	Real Stiffness	Contact Depth	Area	Hardness	Reduced Mod.
[#]	[#]	[um]	[s]	[um]	[um]	[um]	[m°]	[m°]	[um]	[uN]	[uN]	[V]	[V]	[V]	[°C]	[uN]	[um]	[N/m]	[°]	[°]	[uN]	[um]	[um]	[um]	[uN]	[N/m]	[um]	[um^2]	[MPa]	[MPa]
391	1.000000	0.002513	7.36889e+06	-57539.1	1005.82	-29736.9	0.000000	0.000000	6.002793	-0.012055	NaN	0.000000	0.001651	0.001642	28.0807	0.040014	0.000949	42.1468	-93.507	-166.648	0.002470	0.001218	-1.053070	-1.054365	-0.012055	42.1468	-1.052856	-1.166280E+14	1.033608E-16	NaN
391	1.000000	0.010525	7.36889e+06	-57539.1	1005.82	-29736.9	0.000000	0.000000	6.010806	-0.008062	NaN	0.000000	0.001634	0.001659	28.08	0.115379	0.000986	116.986	-161.727	-157.321	0.016729	0.009141	-1.045058	-1.046442	-0.008062	116.986	-1.045006	-9.146938E+13	8.813668E-17	NaN
391	1.000000	0.018509	7.36889e+06	-57539.1	1005.82	-29736.9	0.000000	0.000000	6.018787	-0.086807	NaN	0.000000	0.001656	0.001610	28.0804	0.063907	0.001734	36.859	34.2069	-169.57	-0.034566	0.017188	-1.037074	-1.038395	-0.086807	36.859	-1.035308	-6.774347E+13	1.281410E-15	NaN
391	1.000000	0.026501	7.36889e+06	-57539.1	1005.82	-29736.9	0.000000	0.000000	6.026778	-0.084122	NaN	0.000000	0.001634	0.001669	28.0816	0.051264	0.001796	28.5437	-111.463	-167.596	-0.129077	0.025126	-1.029082	-1.030457	-0.084122	28.5437	-1.026872	-5.216817E+13	1.612507E-15	NaN
391	1.000000	0.034445	7.36889e+06	-57539.1	1005.82	-29736.9	0.000000	0.000000	6.034727	0.039533	NaN	0.000000	0.001629	0.001606	28.0816	0.090412	0.001879	48.1079	55.4084	-169.957	-0.025469	0.033184	-1.021138	-1.022399	0.039533	48.1079	-1.021755	-4.452062E+13	-8.879711E-16	NaN
391	1.000000	0.042478	7.36889e+06	-57539.1	1005.82	-29736.9	0.000000	0.000000	6.042760	0.007860	NaN	0.000000	0.001635	0.001654	28.0814	0.104106	0.001914	54.3974	-122.446	-169.178	-0.069967	0.041198	-1.013105	-1.014385	0.007860	54.3974	-1.013213	-3.416854E+13	-2.300487E-16	NaN
391	1.000000	0.050466	7.36889e+06	-57539.1	1005.82	-29736.9	0.000000	0.000000	6.050748	0.008650	NaN	0.000000	0.001676	0.001645	28.0814	0.034278	0.002060	16.6392	-7.234575	-163.762	0.025554	0.049158	-1.005117	-1.006425	0.008650	16.6392	-1.005507	-2.690932E+13	-3.214492E-16	NaN
391	1.000000	0.058459	7.36889e+06	-57539.1	1005.82	-29736.9	0.000000	0.000000	6.058741	0.024052	NaN	0.000000	0.001632	0.001639	28.0814	0.044827	0.001992	22.5009	85.3244	-163.786	-0.048079	0.057176	-0.997124	-0.998407	0.024052	22.5009	-0.997926	-2.127357E+13	-1.130594E-15	NaN
391	1.000000	0.066488	7.36889e+06	-57539.1	1005.82	-29736.9	0.000000	0.000000	6.066768	-0.042036	NaN	0.000000	0.001688	0.001619	28.0819	0.054402	0.002054	26.4911	70.8133	-169.587	-0.070702	0.065171	-0.989095	-0.990412	-0.042036	26.4911	-0.987905	-1.559164E+13	2.696088E-15	NaN
391	1.000000	0.074442	7.36889e+06	-57539.1	1005.82	-29736.9	0.000000	0.000000	6.074721	-0.063337	NaN	0.000000	0.001631	0.001650	28.0816	0.014206	0.001894	7.500825	55.8663	-165.816	-0.043365	0.073183	-0.981141	-0.982400	-0.063337	7.500825	-0.974808	-1.038615E+13	6.098198E-15	NaN
391	1.000000	0.082458	7.36889e+06	-57539.1	1005.82	-29736.9	0.000000	0.000000	6.082740	0.028427	NaN	0.000000	0.001612	0.001648	28.0813	0.183595	0.001939	94.6702	-154.222	-167.089	-0.041987	0.081158	-0.973125	-0.974425	0.028427	94.6702	-0.973350	-9.926909E+12	-2.863668E-15	NaN
391	1.000000	0.090493	7.36889e+06	-57539.1	1005.82	-29736.9	0.000000	0.000000	6.090776	0.042943	NaN	0.000000	0.001652	0.001623	28.0812	0.024068	0.002001	12.0269	34.7609	-166.276	-0.029513	0.089195	-0.965090	-0.966388	0.042943	12.0269	-0.967768	-8.347849E+12	-5.144223E-15	NaN
391	1.000000	0.098458	7.36889e+06	-57539.1	1005.82	-29736.9	0.000000	0.000000	6.098738	-0.026963	NaN	0.000000	0.001668	0.001626	28.0815	0.079147	0.001977	40.0264	-179.908	-169.852	-0.024307	0.097158	-0.957125	-0.958425	-0.026963	40.0264	-0.956620	-5.906041E+12	4.565353E-15	NaN
391	1.000000	0.106499	7.36889e+06	-57539.1	1005.82	-29736.9	0.000000	0.000000	6.106781	0.025713	NaN	0.000000	0.001646	0.001598	28.0813	0.047333	0.001975	23.9693	70.8811	-167.68	-0.085533	0.105188	-0.949084	-0.950395	0.025713	23.9693	-0.949889	-4.792127E+12	-5.365648E-15	NaN
391	1.000000	0.114502	7.36889e+06	-57539.1	1005.82	-29736.9	0.000000	0.000000	6.114782	-0.010255	NaN	0.000000	0.001638	0.001643	28.0812	0.063621	0.001909	33.3242	86.4571	-164.692	-0.039010	0.113199	-0.941081	-0.942383	-0.010255	33.3242	-0.940851	-3.619202E+12	2.833418E-15	NaN
391	1.000000	0.122529	7.36889e+06	-57539.1	1005.82	-29736.9	0.000000	0.000000	6.122807	-0.064569	NaN	0.000000	0.001658	0.001657	28.0814	0.048368	0.002067	23.3952	72.2313	-164.081	-0.032458	0.121161	-0.933054	-0.934422	-0.064569	23.3952	-0.930984	-2.663672E+12	2.424072E-14	NaN
391	1.000000	0.130504	7.36889e+06	-57539.1	1005.82	-29736.9	0.000000	0.000000	6.130786	0.019464	NaN	0.000000	0.001664	0.001668	28.0809	0.058046	0.001956	29.6741	-100.312	-165.615	-0.035715	0.129189	-0.925079	-0.926394	0.019464	29.6741	-0.925571	-2.251181E+12	-8.645929E-15	NaN
391	1.000000	0.138504	7.36889e+06	-57539.1	1005.82	-29736.9	0.000000	0.000000	6.138787	0.030348	NaN	0.000000	0.001666	0.001626	28.0811	0.089766	0.002004	44.795	111.95	-166.667	0.012963	0.137172	-0.917079	-0.918411	0.030348	44.795	-0.917587	-1.756403E+12	-1.727840E-14	NaN
391	1.000000	0.146507	7.36889e+06	-57539.1	1005.82	-29736.9	0.000000	0.000000	6.146787	-0.034263	NaN	0.000000	0.001655	0.001654	28.0808	0.039824	0.001952	20.3991	142.686	-166.067	-0.020272	0.145257	-0.909076	-0.910326	-0.034263	20.3991	-0.907816	-1.296182E+12	2.643390E-14	NaN
391	1.000000	0.154499	7.36889e+06	-57539.1	1005.82	-29736.9	0.000000	0.000000	6.154782	0.052272	NaN	0.000000	0.001679	0.001664	28.0809	0.139467	0.001933	72.1576	166.461	-163.048	0.043183	0.153158	-0.901084	-0.902425	0.052272	72.1576	-0.901628	-1.069200E+12	-4.888868E-14	NaN
391	1.000000	0.162522	7.36889e+06	-57539.1	1005.82	-29736.9	0.000000	0.000000	6.162804	0.009262	NaN	0.000000	0.001630	0.001649	28.0798	0.043583	0.001965	22.1842	109.577	-167.189	0.047828	0.161155	-0.893061	-0.894428	0.009262	22.1842	-0.893374	-8.270250E+11	-1.119932E-14	NaN
391	1.000000	0.170502	7.36889e+06	-57539.1	1005.82	-29736.9	0.000000	0.000000	6.170783	0.006331	NaN	0.000000	0.001626	0.001636	28.0798	0.036116	0.002046	17.6501	71.8949	-169.313	-0.036854	0.169216	-0.885081	-0.886367	0.006331	17.6501	-0.885350	-6.442459E+11	-9.827255E-15	NaN
391	1.000000	0.178516	7.36889e+06	-57539.1	1005.82	-29736.9	0.000000	0.000000	6.178798	0.015477	NaN	0.000000	0.001629	0.001644	28.0799	0.034252	0.001978	17.3192	168.988	-165.779	-0.052056	0.177241	-0.877067	-0.878342	0.015477	17.3192	-0.877737	-5.082775E+11	-3.045051E-14	NaN
391	1.000000	0.186532	7.36889e+06	-57539.1	1005.82	-29736.9	0.000000	0.000000	6.186812	-0.031293	NaN	0.000000	0.001630	0.001630	28.0798	0.007171	0.002011	3.566459	120.422	-167.601	-0.006933	0.185168	-0.869051	-0.870415	-0.031293	3.566459	-0.862470	-3.159006E+11	9.905890E-14	NaN
391	1.000000	0.194517	7.36889e+06	-57539.1	1005.82	-29736.9	0.000000	0.000000	6.194797	-0.035098	NaN	0.000000	0.001661	0.001593	28.0798	0.066612	0.002087	31.9114	-68.8724	-167.267	-0.021082	0.193183	-0.861066	-0.862400	-0.035098	31.9114	-0.860241	-2.946992E+11	1.190986E-13	NaN
391	1.000000	0.202524	7.36889e+06	-57539.1	1005.82	-29736.9	0.000000	0.000000	6.202805	-0.015153	NaN	0.000000	0.001655	0.001626	28.0799	0.053600	0.001935	27.7001	118.442	-166.367	0.035941	0.201240	-0.853059	-0.854343	-0.015153	27.7001	-0.852649	-2.325965E+11	6.514909E-14	NaN
391	1.000000	0.210532	7.36889e+06	-57539.1	1005.82	-29736.9	0.000000	0.000000	6.210812	-0.029307	NaN	0.000000	0.001623	0.001644	28.0799	0.032371	0.001971	16.4224	154.599	-168.156	0.002068	0.209187	-0.845051	-0.846396	-0.029307	16.4224	-0.843713	-1.760311E+11	1.664891E-13	NaN
391	1.000000	0.218524	7.36889e+06	-57539.1	1005.82	-29736.9	0.000000	0.000000	6.218804	-0.037762	NaN	0.000000	0.001622	0.001673	28.0801	0.093856	0.001950	48.1274	-113.338	-168.973	-0.011358	0.217185	-0.837059	-0.838398	-0.037762	48.1274	-0.836470	-1.404330E+11	2.688995E-13	NaN
391	1.000000	0.226534	7.36889e+06	-57539.1	1005.82	-29736.9	0.000000	0.000000	6.226815	-0.014444	NaN	0.000000	0.001685	0.001661	28.0797	0.073817	0.001979	37.3036	23.3342	-167.83	0.009572	0.225248	-0.829049	-0.830335	-0.014444	37.3036	-0.828758	-1.103958E+11	1.308387E-13	NaN
391	1.000000	0.234552	7.36889e+06	-57539.1	1005.82	-29736.9	0.000000	0.000000	6.234832	-0.010657	NaN	0.000000	0.001613	0.001648	28.0797	0.047248	0.001901	24.859	145.756	-170.157	0.019829	0.233258	-0.821031	-0.822325	-0.010657	24.859	-0.820710	-8.586932E+10	1.241127E-13	NaN
391	1.000000	0.242553	7.36889e+06	-57539.1	1005.82	-29736.9	0.000000	0.000000	6.242833	-0.026937	NaN	0.000000	0.001656	0.001630	28.0798	0.069106	0.002026	34.1135	145.887	-163.733	0.039883	0.241190	-0.813030	-0.814393	-0.026937	34.1135	-0.812437	-6.631906E+10	4.061769E-13	NaN
391	1.000000	0.250559	7.36889e+06	-57539.1	1005.82	-29736.9	0.000000	0.000000	6.250839	-0.033589	NaN	0.000000	0.001645	0.001646	28.0797	0.021188	0.001987	10.6654	16.5333	-166.571	-0.007441	0.249241	-0.805024	-0.806342	-0.033589	10.6654	-0.802662	-4.886444E+10	6.873830E-13	NaN
391	1.000000	0.258577	7.36889e+06	-57539.1	1005.82	-29736.9	0.000000	0.000000	6.258858	-0.009965	NaN	0.000000	0.001655	0.001659	28.08	0.088322	0.002016	43.8064	-89.5349	-167.276	0.014567	0.257277	-0.797006	-0.798306	-0.009965	43.8064	-0.796835	-4.072843E+10	2.446629E-13	NaN
391	1.000000	0.266554	7.36889e+06	-57539.1	1005.82	-29736.9	0.000000	0.000000	6.266834	-0.033492	NaN	0.000000	0.001640	0.001635	28.0797	0.030882	0.002094	14.7485	-55.737	-167.266	-0.031968	0.265259	-0.789029	-0.790324	-0.033492	14.7485	-0.787326	-3.025232E+10	1.107078E-12	NaN
391	1.000000	0.274554	7.36889e+06	-57539.1	1005.82	-29737	0.000000	0.000000	6.274832	-0.076929	NaN	0.000000	0.001642	0.001637	28.0799	0.011539	0.002030	5.683109	-109.629	-166.184	-0.053905	0.273315	-0.781029	-0.782268	-0.076929	5.683109	-0.770877	-1.808133E+10	4.254624E-12	NaN
391	1.000000	0.282557	7.36889e+06	-57539.1	1005.82	-29737	0.000000	0.000000	6.282838	-0.011796	NaN	0.000000	0.001670	0.001640	28.08	0.056905	0.002116	26.889	-51.5529	-168.865	0.051783	0.281240	-0.773026	-0.774343	-0.011796	26.889	-0.772696	-1.914104E+10	6.162926E-13	NaN
391	1.000000	0.290588	7.36889e+06	-57539.1	1005.82	-29737	0.000000	0.000000	6.290870	0.017204	NaN	0.000000	0.001634	0.001637	28.0798	0.044350	0.001903	23.3094	152.811	-165.155	0.006077	0.289286	-0.764995	-0.766297	0.017204	23.3094	-0.765549	-1.530305E+10	-1.124231E-12	NaN
391	1.000000	0.298572	7.36889e+06	-57539.1	1005.82	-29737	0.000000	0.000000	6.298851	-0.046521	NaN	0.000000	0.001638	0.001631	28.0811	0.069654	0.001948	35.7527	86.6052	-166.474	-0.030940	0.297246	-0.757011	-0.758337	-0.046521	35.7527	-0.756036	-1.135958E+10	4.095340E-12	NaN
391	1.000000	0.306587	7.36889e+06	-57539.1	1005.82	-29737	0.000000	0.000000	6.306870	0.028262	NaN	0.000000	0.001625	0.001605	28.0811	0.151934	0.001921	79.0917	110.593	-170.138	0.004952	0.305250	-0.748996	-0.750333	0.028262	79.0917	-0.749264	-9.187544E+9	-3.076068E-12	NaN
391	1.000000	0.314578	7.36889e+06	-57539.1	1005.82	-29737	0.000000	0.000000	6.314860	0.011162	NaN	0.000000	0.001654	0.001649	28.0813	0.083397	0.001963	42.4846	-111.118	-168.188	-0.085033	0.313267	-0.741005	-0.742316	0.011162	42.4846	-0.741202	-7.135600E+9	-1.564257E-12	NaN
391	1.000000	0.322568	7.36889e+06	-57539.1	1005.82	-29737	0.000000	0.000000	6.322848	-0.043462	NaN	0.000000	0.001660	0.001659	28.0812	0.064371	0.001979	32.5227	132.76	-164.778	-0.011085	0.321321	-0.733015	-0.734262	-0.043462	32.5227	-0.732012	-5.348524E+9	8.126041E-12	NaN
391	1.000000	0.330563	7.36889e+06	-57539.1	1005.82	-29737	0.000000	0.000000	6.330843	-0.027350	NaN	0.000000	0.001632	0.001666	28.0811	0.041336	0.002025	20.4096	-42.4416	-166.421	-0.107165	0.329319	-0.725020	-0.726264	-0.027350	20.4096	-0.724015	-4.161179E+9	6.572699E-12	NaN
391	1.000000	0.338599	7.36889e+06	-57539.1	1005.82	-29737	0.000000	0.000000	6.338880	-0.004254	NaN	0.000000	0.001615	0.001631	28.0812	0.153144	0.001968	77.8099	-174.473	-165.158	0.049233	0.337256	-0.716984	-0.718327	-0.004254	77.8099	-0.716943	-3.332583E+9	1.276537E-12	NaN
391	1.000000	0.346608	7.36889e+06	-57539.1	1005.82	-29737	0.000000	0.000000	6.346888	-0.014022	NaN	0.000000	0.001617	0.001700	28.0809	0.031066	0.002079	14.9448	110.422	-163.599	-0.079650	0.345242	-0.708975	-0.710341	-0.014022	14.9448	-0.708272	-2.537814E+9	5.525237E-12	NaN
391	1.000000	0.354610	7.36889e+06	-57539.1	1005.82	-29737	0.000000	0.000000	6.354890	-0.050996	NaN	0.000000	0.001621	0.001670	28.081	0.053680	0.001980	27.106	121.646	-165.53	0.027624	0.353260	-0.700973	-0.702323	-0.050996	27.106	-0.699562	-1.929939E+9	2.642372E-11	NaN
391	1.000000	0.362604	7.36889e+06	-57539.1	1005.82	-29737	0.000000	0.000000	6.362882	-0.068354	NaN	0.000000	0.001618	0.001667	28.0809	0.006483	0.001946	3.330996	177.355	-164.894	-0.042295	0.361282	-0.692979	-0.694301	-0.068354	3.330996	-0.677589	-9.665513E+8	7.071936E-11	NaN
391	1.000000	0.370589	7.36889e+06	-57539.1	1005.82	-29737	0.000000	0.000000	6.370868	-0.061527	NaN	0.000000	0.001613	0.001712	28.0811	0.098621	0.001902	51.8457	175.564	-167.875	-0.015427	0.369305	-0.684994	-0.686278	-0.061527	51.8457	-0.684104	-1.186639E+9	5.184996E-11	NaN
391	1.000000	0.378626	7.36889e+06	-57539.1	1005.82	-29737	0.000000	0.000000	6.378907	-0.001160	NaN	0.000000	0.001606	0.001664	28.0809	0.072955	0.002084	35.0131	-100.973	-165.6	0.045081	0.377307	-0.676957	-0.678276	-0.001160	35.0131	-0.676933	-9.467830E+8	1.225194E-12	NaN
391	1.000000	0.386606	7.36889e+06	-57539.1	1005.82	-29737	0.000000	0.000000	6.386889	0.034074	NaN	0.000000	0.001627	0.001702	28.0808	0.083747	0.002048	40.883	109.278	-166.728	0.089327	0.385283	-0.668977	-0.670300	0.034074	40.883	-0.669602	-7.515172E+8	-4.533976E-11	NaN
391	1.000000	0.394582	7.36889e+06	-57539.1	1005.82	-29737	0.000000	0.000000	6.394860	-0.090466	NaN	0.000000	0.001622	0.001670	28.0811	0.138646	0.001898	73.0377	164.659	-166.324	-0.113496	0.393330	-0.661001	-0.662253	-0.090466	73.0377	-0.660072	-5.564804E+8	1.625690E-10	NaN
391	1.000000	0.402621	7.36889e+06	-57539.1	1005.82	-29737	0.000000	0.000000	6.402901	-0.026665	NaN	0.000000	0.001608	0.001648	28.0809	0.100062	0.002015	49.6579	52.728	-166.918	0.030908	0.401337	-0.652962	-0.654246	-0.026665	49.6579	-0.652559	-4.390523E+8	6.073302E-11	NaN
391	1.000000	0.410626	7.36889e+06	-57539.1	1005.82	-29737	0.000000	0.000000	6.410907	0.010003	NaN	0.000000	0.001600	0.001643	28.081	0.046451	0.001954	23.7693	-129.889	-167.167	0.047946	0.409283	-0.644957	-0.646300	0.010003	23.7693	-0.645273	-3.488346E+8	-2.867662E-11	NaN
391	1.000000	0.418627	7.36889e+06	-57539.1	1005.82	-29737	0.000000	0.000000	6.418910	0.040709	NaN	0.000000	0.001632	0.001653	28.0807	0.092060	0.002077	44.3134	-162.457	-165.594	-0.038807	0.417327	-0.636956	-0.638256	0.040709	44.3134	-0.637645	-2.741406E+8	-1.484967E-10	NaN
391	1.000000	0.426601	7.36889e+06	-57539.1	1005.82	-29737	0.000000	0.000000	6.426885	0.060262	NaN	0.000000	0.001625	0.001647	28.0809	0.050435	0.001904	26.4848	117.062	-165.736	-0.000906	0.425260	-0.628982	-0.630323	0.060262	26.4848	-0.630688	-2.200271E+8	-2.738866E-10	NaN
391	1.000000	0.434628	7.36889e+06	-57539.1	1005.82	-29737	0.000000	0.000000	6.434910	0.011331	NaN	0.000000	0.001607	0.001632	28.0797	0.004208	0.001920	2.191810	-21.8816	-166.577	-0.011793	0.433396	-0.620955	-0.622187	0.011331	2.191810	-0.624832	-1.828235E+8	-6.197604E-11	NaN
391	1.000000	0.442629	7.36889e+06	-57539.1	1005.82	-29737	0.000000	0.000000	6.442910	0.006950	NaN	0.000000	0.001619	0.001627	28.0795	0.090932	0.002046	44.4535	-35.3885	-163.969	-0.013728	0.441372	-0.612954	-0.614211	0.006950	44.4535	-0.613071	-1.259988E+8	-5.515536E-11	NaN
391	1.000000	0.450628	7.36889e+06	-57539.1	1005.82	-29737	0.000000	0.000000	6.450910	0.031540	NaN	0.000000	0.001635	0.001620	28.0798	0.065558	0.001997	32.8205	120.137	-165.683	-0.004139	0.449324	-0.604955	-0.606259	0.031540	32.8205	-0.605676	-9.968027E+7	-3.164120E-10	NaN
391	1.000000	0.458607	7.36889e+06	-57539.1	1005.82	-29737	0.000000	0.000000	6.458887	-0.026811	NaN	0.000000	0.001598	0.001647	28.0794	0.007575	0.001939	3.906666	136.604	-164.144	-0.053838	0.457283	-0.596976	-0.598300	-0.026811	3.906666	-0.591829	-6.425006E+7	4.172872E-10	NaN
391	1.000000	0.466654	7.36889e+06	-57539.1	1005.82	-29737	0.000000	0.000000	6.466932	-0.064443	NaN	0.000000	0.001625	0.001663	28.0792	0.130253	0.002059	63.2689	-114.192	-167.879	-0.034156	0.465287	-0.588929	-0.590296	-0.064443	63.2689	-0.588166	-5.719699E+7	1.126682E-9	NaN
391	1.000000	0.474667	7.36889e+06	-57539.1	1005.82	-29737	0.000000	0.000000	6.474950	0.042834	NaN	0.000000	0.001624	0.001654	28.0794	0.095696	0.002190	43.7039	-85.292	-166.668	0.045870	0.473358	-0.580916	-0.582225	0.042834	43.7039	-0.581651	-4.650595E+7	-9.210457E-10	NaN
391	1.000000	0.482675	7.36889e+06	-57539.1	1005.82	-29737	0.000000	0.000000	6.482955	-0.035393	NaN	0.000000	0.001638	0.001649	28.0793	0.041510	0.001862	22.2928	-116.339	-168.472	0.020831	0.481352	-0.572908	-0.574231	-0.035393	22.2928	-0.571717	-3.391213E+7	1.043656E-9	NaN
391	1.000000	0.490646	7.36889e+06	-57539.1	1005.82	-29737	0.000000	0.000000	6.490925	-0.069036	NaN	0.000000	0.001639	0.001600	28.0798	0.050660	0.001959	25.8601	-85.9461	-167.608	0.035990	0.489322	-0.564937	-0.566261	-0.069036	25.8601	-0.562935	-2.564284E+7	2.692205E-9	NaN
391	1.000000	0.498657	7.36889e+06	-57539.1	1005.82	-29737	0.000000	0.000000	6.498937	-0.029564	NaN	0.000000	0.001604	0.001638	28.0795	0.076143	0.001787	42.5997	-97.8161	-169.42	0.006749	0.497306	-0.556926	-0.558277	-0.029564	42.5997	-0.556405	-2.082761E+7	1.419473E-9	NaN
391	1.000000	0.506679	7.36889e+06	-57539.1	1005.82	-29737	0.000000	0.000000	6.506960	0.003152	NaN	0.000000	0.001643	0.001647	28.0798	0.053328	0.001908	27.9538	-75.7972	-164.818	0.039958	0.505393	-0.548904	-0.550190	0.003152	27.9538	-0.548989	-1.644171E+7	-1.917031E-10	NaN
391	1.000000	0.514665	7.36889e+06	-57539.1	1005.82	-29737	0.000000	0.000000	6.514947	0.015241	NaN	0.000000	0.001609	0.001630	28.0794	0.032430	0.001942	16.6989	170.294	-165.578	0.033249	0.513379	-0.540918	-0.542204	0.015241	16.6989	-0.541602	-1.298904E+7	-1.173349E-9	NaN
391	1.000000	0.522658	7.36889e+06	-57539.1	1005.82	-29737	0.000000	0.000000	6.522940	0.006237	NaN	0.000000	0.001597	0.001641	28.0795	0.019119	0.002047	9.339150	-47.2988	-167.077	-0.028936	0.521372	-0.532925	-0.534211	0.006237	9.339150	-0.533425	-1.000312E+7	-6.234592E-10	NaN
391	1.000000	0.530650	7.36889e+06	-57539.1	1005.82	-29737	0.000000	0.000000	6.530928	-0.065784	NaN	0.000000	0.001618	0.001601	28.0796	0.051420	0.002160	23.8026	-69.577	-165.846	-0.053624	0.529353	-0.524933	-0.526230	-0.065784	23.8026	-0.522860	-7.13459e+06	9.220415E-9	NaN
391	1.000000	0.538665	7.36889e+06	-57539.1	1005.82	-29737	0.000000	0.000000	6.538949	0.064253	NaN	0.000000	0.001602	0.001605	28.0795	0.047653	0.002064	23.0862	-122.079	-166.594	0.039721	0.537360	-0.516918	-0.518223	0.064253	23.0862	-0.519005	-6.30616e+06	-1.018895E-8	NaN
391	1.000000	0.546699	7.36889e+06	-57539.1	1005.82	-29737	0.000000	0.000000	6.546979	-0.027498	NaN	0.000000	0.001618	0.001620	28.0799	0.064790	0.001955	33.1427	4.476055	-163.353	0.043790	0.545356	-0.508884	-0.510227	-0.027498	33.1427	-0.508262	-4.46895e+06	6.153235E-9	NaN
391	1.000000	0.554686	7.36889e+06	-57539.1	1005.82	-29737	0.000000	0.000000	6.554964	-0.086590	NaN	0.000000	0.001612	0.001636	28.0796	0.057598	0.002034	28.3206	-43.794	-169.137	0.011752	0.553361	-0.500897	-0.502222	-0.086590	28.3206	-0.498604	-3.27744e+06	2.641992E-8	NaN
391	1.000000	0.562667	7.36889e+06	-57539.1	1005.82	-29737	0.000000	0.000000	6.562945	-0.083330	NaN	0.000000	0.001571	0.001648	28.0796	0.120220	0.001941	61.9492	177.603	-165.096	-0.048569	0.561373	-0.492916	-0.494210	-0.083330	61.9492	-0.491907	-2.64265e+06	3.153268E-8	NaN
391	1.000000	0.570723	7.36889e+06	-57539.1	1005.82	-29737	0.000000	0.000000	6.571007	0.061393	NaN	0.000000	0.001633	0.001638	28.0811	0.043049	0.002042	21.084	78.1977	-164.196	0.063445	0.569404	-0.484860	-0.486179	0.061393	21.084	-0.487044	-2.25982e+06	-2.716696E-8	NaN
391	1.000000	0.578692	7.36889e+06	-57539.1	1005.82	-29737	0.000000	0.000000	6.578972	-0.052063	NaN	0.000000	0.001614	0.001667	28.0809	0.050031	0.002136	23.4204	-45.4977	-167.666	-0.023515	0.577374	-0.476891	-0.478209	-0.052063	23.4204	-0.475223	-1.54393e+06	3.372132E-8	NaN
391	1.000000	0.586675	7.36889e+06	-57539.1	1005.82	-29737	0.000000	0.000000	6.586955	-0.027909	NaN	0.000000	0.001588	0.001635	28.0812	0.135423	0.002079	65.1401	-0.838742	-169.807	-0.087659	0.585369	-0.468908	-0.470214	-0.027909	65.1401	-0.468587	-1.24619e+06	2.239521E-8	NaN
391	1.000000	0.594694	7.36889e+06	-57539.1	1005.82	-29737	0.000000	0.000000	6.594976	0.009093	NaN	0.000000	0.001606	0.001627	28.0808	0.084173	0.001877	44.8528	168.521	-165.553	-0.002254	0.593422	-0.460889	-0.462161	0.009093	44.8528	-0.461041	-976427	-9.312571E-9	NaN
391	1.000000	0.602687	7.36889e+06	-57539.1	1005.82	-29737	0.000000	0.000000	6.602967	-0.029058	NaN	0.000000	0.001621	0.001679	28.0811	0.028847	0.002100	13.74	-18.8018	-163.276	-0.079567	0.601466	-0.452896	-0.454117	-0.029058	13.74	-0.451310	-712495	4.078339E-8	NaN
391	1.000000	0.610695	7.36889e+06	-57539.1	1005.82	-29737	0.000000	0.000000	6.610975	-0.012512	NaN	0.000000	0.001648	0.001656	28.081	0.063133	0.002045	30.8721	-100.95	-170.075	-0.050701	0.609361	-0.444888	-0.446222	-0.012512	30.8721	-0.444584	-572838	2.184167E-8	NaN
391	1.000000	0.618719	7.36889e+06	-57539.1	1005.82	-29737	0.000000	0.000000	6.618996	-0.107298	NaN	0.000000	0.001630	0.001698	28.0809	0.098429	0.001934	50.8928	144.28	-166.635	-0.025425	0.617417	-0.436864	-0.438166	-0.107298	50.8928	-0.435282	-423395	2.534240E-7	NaN
391	1.000000	0.626699	7.36889e+06	-57539.1	1005.82	-29737	0.000000	0.000000	6.626977	-0.075549	NaN	0.000000	0.001631	0.001670	28.081	0.064752	0.001999	32.3978	112.241	-167.231	-0.092205	0.625411	-0.428884	-0.430172	-0.075549	32.3978	-0.427135	-324725	2.326559E-7	NaN
391	1.000000	0.634725	7.36889e+06	-57539.1	1005.82	-29737	0.000000	0.000000	6.635004	-0.033776	NaN	0.000000	0.001640	0.001693	28.0809	0.005386	0.002038	2.643376	50.0239	-169.288	-0.116855	0.633379	-0.420858	-0.422204	-0.033776	2.643376	-0.411275	-193433	1.746153E-7	NaN
391	1.000000	0.642726	7.36889e+06	-57539.1	1005.82	-29737	0.000000	0.000000	6.643003	-0.089210	NaN	0.000000	0.001613	0.001643	28.0812	0.059869	0.002071	28.9146	6.503062	-166.386	0.043495	0.641410	-0.412857	-0.414173	-0.089210	28.9146	-0.410543	-188853	4.723782E-7	NaN
391	1.000000	0.650732	7.36889e+06	-57539.1	1005.82	-29737	0.000000	0.000000	6.651013	-0.010891	NaN	0.000000	0.001608	0.001622	28.0808	0.104901	0.002023	51.8507	147.726	-164.635	0.089689	0.649425	-0.404851	-0.406158	-0.010891	51.8507	-0.404694	-155914	6.985143E-8	NaN
391	1.000000	0.658722	7.36889e+06	-57539.1	1005.82	-29737	0.000000	0.000000	6.659000	-0.065258	NaN	0.000000	0.001637	0.001571	28.0808	0.025245	0.001957	12.899	8.733780	-164.381	-0.105277	0.657394	-0.396861	-0.398189	-0.065258	12.899	-0.393067	-106418	6.132195E-7	NaN
391	1.000000	0.666741	7.36889e+06	-57539.1	1005.82	-29737	0.000000	0.000000	6.667020	-0.055430	NaN	0.000000	0.001599	0.001588	28.0809	0.125752	0.002085	60.3219	128.995	-167.781	-0.042793	0.665409	-0.388842	-0.390174	-0.055430	60.3219	-0.388153	-90517.7	6.123616E-7	NaN
391	1.000000	0.674732	7.36889e+06	-57539.1	1005.82	-29737	0.000000	0.000000	6.675010	-0.078445	NaN	0.000000	0.001638	0.001554	28.0808	0.048308	0.002001	24.1378	-37.7974	-167.311	-0.111987	0.673417	-0.380851	-0.382166	-0.078445	24.1378	-0.378413	-65631.3	1.195238E-6	NaN
391	1.000000	0.682733	7.36889e+06	-57539.1	1005.82	-29737	0.000000	0.000000	6.683013	-0.035170	NaN	0.000000	0.001642	0.001606	28.0812	0.138111	0.001976	69.9093	-111.174	-166.583	0.017870	0.681442	-0.372850	-0.374141	-0.035170	69.9093	-0.372473	-53916.9	6.523029E-7	NaN
391	1.000000	0.690721	7.36889e+06	-57539.1	1005.82	-29737	0.000000	0.000000	6.691002	-0.012493	NaN	0.000000	0.001603	0.001567	28.0809	0.020807	0.001914	10.8686	-111.362	-164.862	-0.052390	0.689462	-0.364862	-0.366121	-0.012493	10.8686	-0.364000	-40702.4	3.069392E-7	NaN
391	1.000000	0.698726	7.36889e+06	-57539.1	1005.82	-29737	0.000000	0.000000	6.699005	-0.057135	NaN	0.000000	0.001588	0.001606	28.0813	0.048280	0.002065	23.3841	41.9098	-166.589	-0.065888	0.697462	-0.356857	-0.358121	-0.057135	23.3841	-0.355025	-30189.3	1.892564E-6	NaN
391	1.000000	0.706719	7.36889e+06	-57539.1	1005.82	-29737	0.000000	0.000000	6.707002	0.037304	NaN	0.000000	0.001610	0.001630	28.0798	0.057049	0.001938	29.4443	-168.513	-163.117	0.056327	0.705459	-0.348864	-0.350124	0.037304	29.4443	-0.349814	-25369.2	-1.470442E-6	NaN
391	1.000000	0.714747	7.36889e+06	-57539.1	1005.82	-29737	0.000000	0.000000	6.715028	-0.006499	NaN	0.000000	0.001649	0.001618	28.0796	0.008624	0.002053	4.199747	-63.3895	-166.512	0.007421	0.713483	-0.340836	-0.342100	-0.006499	4.199747	-0.339675	-18064.3	3.597950E-7	NaN
391	1.000000	0.722739	7.36889e+06	-57539.1	1005.82	-29737	0.000000	0.000000	6.723018	-0.054761	NaN	0.000000	0.001615	0.001579	28.0798	0.036443	0.001961	18.5853	-11.3519	-165.009	-0.045568	0.721428	-0.332844	-0.334155	-0.054761	18.5853	-0.330635	-13327.3	4.108943E-6	NaN
391	1.000000	0.730755	7.36889e+06	-57539.1	1005.82	-29737	0.000000	0.000000	6.731035	-0.036282	NaN	0.000000	0.001622	0.001613	28.0797	0.066707	0.001958	34.0756	69.9099	-166.099	-0.064556	0.729476	-0.324828	-0.326107	-0.036282	34.0756	-0.324029	-10663.1	3.402589E-6	NaN
391	1.000000	0.738768	7.36889e+06	-57539.1	1005.82	-29737	0.000000	0.000000	6.739048	-0.027201	NaN	0.000000	0.001649	0.001617	28.0799	0.060618	0.001927	31.4549	76.5854	-166.194	-0.046668	0.737416	-0.316815	-0.318167	-0.027201	31.4549	-0.316167	-8168.87	3.329859E-6	NaN
391	1.000000	0.746780	7.36889e+06	-57539.1	1005.82	-29737	0.000000	0.000000	6.747059	-0.046711	NaN	0.000000	0.001575	0.001604	28.0796	0.087600	0.001939	45.176	23.7787	-163.213	-0.002285	0.745468	-0.308803	-0.310115	-0.046711	45.176	-0.308027	-6192.24	7.543492E-6	NaN
391	1.000000	0.754775	7.36889e+06	-57539.1	1005.82	-29737	0.000000	0.000000	6.755056	-0.003853	NaN	0.000000	0.001608	0.001578	28.0797	0.081500	0.002122	38.3993	-174.758	-165.182	0.032810	0.753432	-0.300808	-0.302151	-0.003853	38.3993	-0.300733	-4825.56	7.985213E-7	NaN
391	1.000000	0.762769	7.36889e+06	-57539.1	1005.82	-29737	0.000000	0.000000	6.763050	0.003151	NaN	0.000000	0.001608	0.001582	28.0798	0.044306	0.002080	21.2979	130.25	-167.255	0.001725	0.761526	-0.292814	-0.294057	0.003151	21.2979	-0.292925	-3690.49	-8.538022E-7	NaN
391	1.000000	0.770759	7.36889e+06	-57539.1	1005.82	-29737	0.000000	0.000000	6.771042	0.047430	NaN	0.000000	0.001616	0.001570	28.0798	0.109181	0.002028	53.8257	171.908	-161.568	-0.017570	0.769445	-0.284824	-0.286138	0.047430	53.8257	-0.285485	-2854.66	-1.661475E-5	NaN
391	1.000000	0.778776	7.36889e+06	-57539.1	1005.82	-29737	0.000000	0.000000	6.779056	-0.025028	NaN	0.000000	0.001627	0.001545	28.0799	0.079708	0.001964	40.5798	43.8198	-165.352	0.017868	0.777489	-0.276807	-0.278094	-0.025028	40.5798	-0.276344	-2078.49	1.204135E-5	NaN
391	1.000000	0.786784	7.36889e+06	-57539.1	1005.82	-29737	0.000000	0.000000	6.787064	-0.022876	NaN	0.000000	0.001707	0.001563	28.0797	0.029728	0.002033	14.6237	-77.8252	-165.237	-0.085373	0.785404	-0.268799	-0.270179	-0.022876	14.6237	-0.267626	-1532.58	1.492658E-5	NaN
391	1.000000	0.794771	7.36889e+06	-57539.1	1005.82	-29737	0.000000	0.000000	6.795051	-0.029505	NaN	0.000000	0.001678	0.001544	28.0798	0.021112	0.001970	10.7145	-39.282	-167.634	-0.054261	0.793481	-0.260812	-0.262102	-0.029505	10.7145	-0.258747	-1121.25	2.631444E-5	NaN
391	1.000000	0.802799	7.36889e+06	-57539.1	1005.82	-29737	0.000000	0.000000	6.803080	-0.017279	NaN	0.000000	0.001657	0.001588	28.0798	0.066052	0.002004	32.9625	84.7542	-166.506	-0.087860	0.801451	-0.252784	-0.254132	-0.017279	32.9625	-0.252390	-895.148	1.930277E-5	NaN
391	1.000000	0.810779	7.36889e+06	-57539.1	1005.82	-29737	0.000000	0.000000	6.811061	-0.003652	NaN	0.000000	0.001670	0.001574	28.0797	0.039816	0.002038	19.5389	85.4646	-161.325	-0.001978	0.809496	-0.244804	-0.246087	-0.003652	19.5389	-0.244663	-679.546	5.374250E-6	NaN
391	1.000000	0.818783	7.36889e+06	-57539.1	1005.82	-29737	0.000000	0.000000	6.819063	-0.032083	NaN	0.000000	0.001689	0.001591	28.08	0.101233	0.002035	49.7516	66.9154	-166.059	-0.054918	0.817489	-0.236800	-0.238094	-0.032083	49.7516	-0.236316	-503.389	6.373344E-5	NaN
391	1.000000	0.826789	7.36889e+06	-57539.1	1005.82	-29737	0.000000	0.000000	6.827070	0.012332	NaN	0.000000	0.001706	0.001558	28.0797	0.071771	0.002030	35.3627	-117.319	-164.901	-0.013950	0.825509	-0.228794	-0.230074	0.012332	35.3627	-0.229056	-386.903	-3.187256E-5	NaN
391	1.000000	0.834794	7.36889e+06	-57539.1	1005.82	-29737	0.000000	0.000000	6.835076	0.007189	NaN	0.000000	0.001683	0.001594	28.08	0.057575	0.002071	27.8073	-126.448	-172.24	-0.044638	0.833494	-0.220789	-0.222089	0.007189	27.8073	-0.220982	-287.983	-2.496495E-5	NaN
391	1.000000	0.842796	7.36889e+06	-57539.1	1005.82	-29737	0.000000	0.000000	6.843076	-0.018624	NaN	0.000000	0.001697	0.001616	28.0815	0.048459	0.002012	24.0793	51.2552	-166.008	0.012811	0.841494	-0.212787	-0.214089	-0.018624	24.0793	-0.212207	-208.213	8.944866E-5	NaN
391	1.000000	0.850821	7.36889e+06	-57539.1	1005.82	-29737	0.000000	0.000000	6.851104	0.032745	NaN	0.000000	0.001693	0.001588	28.0811	0.055670	0.002037	27.3249	-163.209	-167.817	0.000693	0.849475	-0.204762	-0.206108	0.032745	27.3249	-0.205660	-163.051	-0.000201	NaN
391	1.000000	0.858795	7.36889e+06	-57539.1	1005.82	-29737	0.000000	0.000000	6.859074	-0.054400	NaN	0.000000	0.001712	0.001555	28.0813	0.076134	0.002035	37.4175	154.506	-170.049	-0.089663	0.857542	-0.196788	-0.198041	-0.054400	37.4175	-0.195698	-111.881	0.000486	NaN
391	1.000000	0.866802	7.36889e+06	-57539.1	1005.82	-29737	0.000000	0.000000	6.867081	-0.038941	NaN	0.000000	0.001650	0.001561	28.081	0.052899	0.001946	27.177	-99.2134	-165.934	-0.020583	0.865499	-0.188781	-0.190084	-0.038941	27.177	-0.187707	-82.346	0.000473	NaN
391	1.000000	0.874817	7.36889e+06	-57539.1	1005.82	-29737	0.000000	0.000000	6.875096	-0.050022	NaN	0.000000	0.001634	0.001580	28.081	0.045761	0.001939	23.5972	-179.385	-167.112	-0.099601	0.873506	-0.180766	-0.182077	-0.050022	23.5972	-0.179176	-59.08	0.000847	NaN
391	1.000000	0.882810	7.36889e+06	-57539.1	1005.82	-29737	0.000000	0.000000	6.883091	0.005506	NaN	0.000000	0.001641	0.001615	28.0811	0.067422	0.002071	32.5584	-104.717	-167.151	-0.045641	0.881480	-0.172773	-0.174103	0.005506	32.5584	-0.172900	-46.1125	-0.000119	NaN
391	1.000000	0.890835	7.36889e+06	-57539.1	1005.82	-29737	0.000000	0.000000	6.891112	-0.103166	NaN	0.000000	0.001628	0.001597	28.0813	0.037838	0.001973	19.1776	-114.719	-166.845	-0.120033	0.889511	-0.164748	-0.166072	-0.103166	19.1776	-0.160713	-28.2256	0.003655	NaN
391	1.000000	0.898826	7.36889e+06	-57539.1	1005.82	-29737	0.000000	0.000000	6.899106	-0.041741	NaN	0.000000	0.001636	0.001621	28.0813	0.169929	0.001985	85.5926	-45.7689	-165.291	-0.049925	0.897540	-0.156757	-0.158043	-0.041741	85.5926	-0.156391	-23.6357	0.001766	NaN
391	1.000000	0.906807	7.36889e+06	-57539.1	1005.82	-29737	0.000000	0.000000	6.907087	-0.029769	NaN	0.000000	0.001656	0.001608	28.0812	0.063561	0.002109	30.1446	-4.761683	-164.389	0.021011	0.905527	-0.148776	-0.150056	-0.029769	30.1446	-0.148035	-16.6755	0.001785	NaN
391	1.000000	0.914812	7.36889e+06	-57539.1	1005.82	-29737	0.000000	0.000000	6.915094	-0.005021	NaN	0.000000	0.001656	0.001586	28.0814	0.005213	0.002045	2.548539	5.853706	-166.066	0.005401	0.913493	-0.140771	-0.142090	-0.005021	2.548539	-0.139293	-11.4729	0.000438	NaN
391	1.000000	0.922850	7.36889e+06	-57539.1	1005.82	-29737	0.000000	0.000000	6.923129	-0.043203	NaN	0.000000	0.001655	0.001585	28.0815	0.065551	0.001906	34.4006	146.722	-164.846	-0.010083	0.921502	-0.132733	-0.134081	-0.043203	34.4006	-0.131791	-8.254532	0.005234	NaN
391	1.000000	0.930857	7.36889e+06	-57539.1	1005.82	-29737	0.000000	0.000000	6.931139	0.004454	NaN	0.000000	0.001624	0.001604	28.0815	0.059522	0.001887	31.5386	18.5209	-164.252	0.033044	0.929476	-0.124726	-0.126107	0.004454	31.5386	-0.124832	-6.034806	-0.000738	NaN
391	1.000000	0.938856	7.36889e+06	-57539.1	1005.82	-29737	0.000000	0.000000	6.939136	-0.042211	NaN	0.000000	0.001625	0.001594	28.0817	0.029170	0.001836	15.8918	-38.3079	-164.417	-0.025019	0.937522	-0.116727	-0.118061	-0.042211	15.8918	-0.114734	-3.772493	0.011189	NaN
391	1.000000	0.946859	7.36889e+06	-57539.1	1005.82	-29737	0.000000	0.000000	6.947139	-0.030949	NaN	0.000000	0.001590	0.001582	28.0811	0.061952	0.001930	32.1009	105.083	-169.386	0.016170	0.945572	-0.108724	-0.110011	-0.030949	32.1009	-0.108001	-2.725979	0.011353	NaN
391	1.000000	0.954823	7.36889e+06	-57539.1	1005.82	-29737	0.000000	0.000000	6.955103	-0.048535	NaN	0.000000	0.001582	0.001585	28.0813	0.123670	0.002003	61.7337	100.787	-167.536	-0.075188	0.953534	-0.100760	-0.102049	-0.048535	61.7337	-0.100170	-1.843070	0.026334	NaN
391	1.000000	0.962856	7.36889e+06	-57539.1	1005.82	-29737	0.000000	0.000000	6.963138	0.015898	NaN	0.000000	0.001592	0.001566	28.0812	0.011736	0.002038	5.760053	161.032	-166.258	-0.034994	0.961529	-0.092726	-0.094054	0.015898	5.760053	-0.094797	-1.395647	-0.011391	NaN
391	1.000000	0.970864	7.36889e+06	-57539.1	1005.82	-29737	0.000000	0.000000	6.971144	-0.028353	NaN	0.000000	0.001562	0.001566	28.0813	0.024693	0.001944	12.7005	154.19	-167.444	-0.002385	0.969551	-0.084719	-0.086032	-0.028353	12.7005	-0.083044	-0.736288	0.038508	NaN
391	1.000000	0.978825	7.36889e+06	-57539.1	1005.82	-29737	0.000000	0.000000	6.979106	0.008706	NaN	0.000000	0.001593	0.001571	28.0803	0.132714	0.001920	69.1327	30.1444	-165.534	-0.029681	0.977496	-0.076758	-0.078087	0.008706	69.1327	-0.076853	-0.515406	-0.016892	NaN
391	1.000000	0.986833	7.36889e+06	-57539.1	1005.82	-29737	0.000000	0.000000	6.987112	-0.034250	NaN	0.000000	0.001561	0.001601	28.0799	0.182192	0.001901	95.8501	-72.6438	-163.183	-0.012240	0.985608	-0.068750	-0.069975	-0.034250	95.8501	-0.068482	-0.310470	0.110316	NaN
391	1.000000	0.994858	7.36889e+06	-57539.1	1005.82	-29737	0.000000	0.000000	6.995139	-0.024626	NaN	0.000000	0.001526	0.001572	28.0798	0.051455	0.002068	24.8825	-120.188	-168.115	-0.003173	0.993516	-0.060725	-0.062067	-0.024626	24.8825	-0.059982	-0.179884	0.136902	NaN
391	1.000000	1.002889	7.36889e+06	-57539.1	1005.82	-29737	0.000000	0.000000	7.003171	0.015543	NaN	0.000000	0.001564	0.001575	28.0796	0.037576	0.001928	19.4889	122.313	-167.614	0.057684	1.001541	-0.052694	-0.054042	0.015543	19.4889	-0.053292	-0.114584	-0.135644	NaN
391	1.000000	1.010877	7.36889e+06	-57539.1	1005.82	-29737	0.000000	0.000000	7.011156	-0.050604	NaN	0.000000	0.001608	0.001578	28.0798	0.052047	0.002084	24.9737	-125.67	-166.76	-0.064290	1.009594	-0.044706	-0.045989	-0.050604	24.9737	-0.043187	-0.056563	0.894644	NaN
391	1.000000	1.018875	7.36889e+06	-57539.1	1005.82	-29737	0.000000	0.000000	7.019158	0.043248	NaN	0.000000	0.001642	0.001572	28.0799	0.081813	0.001931	42.3628	-139.894	-168.317	0.002604	1.017591	-0.036708	-0.037992	0.043248	42.3628	-0.037474	-0.037936	-1.140019	NaN
391	1.000000	1.026870	7.36889e+06	-57539.1	1005.82	-29737	0.000000	0.000000	7.027147	-0.093777	NaN	0.000000	0.001657	0.001590	28.0799	0.067956	0.001947	34.909	71.3652	-166.426	-0.091031	1.025603	-0.028713	-0.029980	-0.093777	34.909	-0.026698	-0.018705	5.013631	NaN
391	1.000000	1.034888	7.36889e+06	-57539.1	1005.82	-29737	0.000000	0.000000	7.035168	-0.037168	NaN	0.000000	0.001677	0.001565	28.08	0.103207	0.002058	50.1486	129.512	-164.55	-0.060442	1.033532	-0.020695	-0.022051	-0.037168	50.1486	-0.020139	-0.012664	2.935005	NaN
391	1.000000	1.042885	7.36889e+06	-57539.1	1005.82	-29737	0.000000	0.000000	7.043167	0.009038	NaN	0.000000	0.001685	0.001551	28.0797	0.138700	0.001997	69.4523	-44.2045	-166.103	0.045273	1.041583	-0.012698	-0.014000	0.009038	69.4523	-0.012796	-0.007985	-1.131986	NaN
391	1.000000	1.050904	7.36889e+06	-57539.1	1005.82	-29737	0.000000	0.000000	7.051184	-0.039796	NaN	0.000000	0.001688	0.001556	28.0798	0.021382	0.001855	11.5262	50.887	-165.967	-0.033142	1.049609	-0.004679	-0.005974	-0.039796	11.5262	-0.002089	-0.001501	26.5111	NaN
391	1.000000	1.058839	7.36889e+06	-57539.1	1005.82	-29737	0.000000	0.000000	7.059218	2.385077	NaN	0.000000	0.001647	0.001553	28.0798	3.043691	0.001900	1602.09	9.192349	-166.482	0.991635	1.057538	0.003256	0.001955	2.385077	1602.09	0.002139	0.001668	1430.1	35842.1
391	2.000000	1.065526	7.36889e+06	-57539.1	1005.82	-29737	0.000000	0.000000	7.066140	8.080249	NaN	0.000000	0.001596	0.001558	28.0801	9.127255	0.001758	5191.56	7.932433	-171.032	8.212938	1.065086	0.009943	0.009503	8.080249	5191.56	0.008776	0.007853	1028.98	53525.6
391	2.000000	1.067449	7.36889e+06	-57539.1	1005.82	-29737	0.000000	0.000000	7.068098	8.933099	NaN	0.000000	0.001599	0.001559	28.08	10.5369	0.001694	6221.77	8.529479	-173.973	9.093176	1.067218	0.011866	0.011635	8.933099	6221.77	0.010789	0.010071	886.969	56642.2
391	2.000000	1.069481	7.36889e+06	-57539.1	1005.82	-29737	0.000000	0.000000	7.070308	13.2583	NaN	0.000000	0.001587	0.001578	28.0799	13.5253	0.001740	7774.61	4.468072	-173.205	13.0222	1.069147	0.013898	0.013564	13.2583	7774.61	0.012619	0.012240	1083.21	64204.3
391	2.000000	1.071406	7.36889e+06	-57539.1	1005.82	-29737	0.000000	0.000000	7.072374	16.6931	NaN	0.000000	0.001573	0.001605	28.0797	15.3708	0.001734	8862.68	6.803782	-176.365	15.4297	1.071109	0.015823	0.015526	16.6931	8862.68	0.014410	0.014507	1150.67	67227.2
391	2.000000	1.073447	7.36889e+06	-57539.1	1005.82	-29737	0.000000	0.000000	7.074488	18.4539	NaN	0.000000	0.001585	0.001620	28.0798	17.211	0.001836	9371.67	9.642763	-175.811	19.7442	1.073115	0.017865	0.017532	18.4539	9371.67	0.016388	0.017181	1074.12	65323.8
391	2.000000	1.075442	7.36889e+06	-57539.1	1005.82	-29737	0.000000	0.000000	7.076621	21.8226	NaN	0.000000	0.001596	0.001544	28.0796	19.1051	0.001894	10089.1	10.5733	-178.228	22.0381	1.075125	0.019859	0.019542	21.8226	10089.1	0.018237	0.019847	1099.55	65430.3
391	2.000000	1.077383	7.36889e+06	-57539.1	1005.82	-29737	0.000000	0.000000	7.078668	24.4023	NaN	0.000000	0.001639	0.001558	28.081	20.5611	0.001815	11325.9	5.675541	-176.371	23.486	1.077142	0.021800	0.021559	24.4023	11325.9	0.020184	0.022832	1068.78	68481.3
391	2.000000	1.079387	7.36889e+06	-57539.1	1005.82	-29737	0.000000	0.000000	7.080900	29.9146	NaN	0.000000	0.001608	0.001582	28.0814	24.0441	0.001860	12927.7	11.0869	176.557	30.1969	1.079084	0.023804	0.023501	29.9146	12927.7	0.022069	0.025898	1155.08	73394
391	2.000000	1.081395	7.36889e+06	-57539.1	1005.82	-29737	0.000000	0.000000	7.083196	36.9275	NaN	0.000000	0.001615	0.001598	28.081	25.5831	0.001759	14542	6.684017	179.362	36.9918	1.081054	0.025812	0.025472	36.9275	14542	0.023908	0.029059	1270.79	77940
391	2.000000	1.083434	7.36889e+06	-57539.1	1005.82	-29737	0.000000	0.000000	7.085416	41.3305	NaN	0.000000	0.001625	0.001537	28.0811	27.9036	0.001806	15446.7	8.607815	179.242	42.9374	1.083026	0.027851	0.027443	41.3305	15446.7	0.025845	0.032570	1268.96	78198.3
391	2.000000	1.085409	7.36889e+06	-57539.1	1005.82	-29737	0.000000	0.000000	7.087684	48.4719	NaN	0.000000	0.001608	0.001607	28.0811	30.5908	0.001704	17949.6	7.869342	178.012	48.8818	1.085046	0.029826	0.029463	48.4719	17949.6	0.027800	0.036308	1335.03	86065.5
391	2.000000	1.087383	7.36889e+06	-57539.1	1005.82	-29737	0.000000	0.000000	7.089677	48.9037	NaN	0.000000	0.001631	0.001596	28.0825	31.3958	0.001682	18670.8	3.692329	-179.794	48.5045	1.087060	0.031800	0.031477	48.9037	18670.8	0.029836	0.040405	1210.35	84863.6
391	2.000000	1.089373	7.36889e+06	-57539.1	1005.82	-29737	0.000000	0.000000	7.092055	58.3489	NaN	0.000000	0.001655	0.001580	28.0817	35.5821	0.001689	21062.9	5.431037	177.637	58.1181	1.089058	0.033790	0.033475	58.3489	21062.9	0.031712	0.044367	1315.14	91361
391	2.000000	1.091414	7.36889e+06	-57539.1	1005.82	-29737	0.000000	0.000000	7.094459	67.1746	NaN	0.000000	0.001614	0.001583	28.0813	35.8741	0.001826	19649.9	7.823071	177.415	68.829	1.091017	0.035831	0.035434	67.1746	19649.9	0.033267	0.047787	1405.71	82125.6
391	2.000000	1.093384	7.36889e+06	-57539.1	1005.82	-29737	0.000000	0.000000	7.096651	72.5592	NaN	0.000000	0.001610	0.001569	28.0812	39.3962	0.001910	20627.2	8.403583	176.029	74.5732	1.092956	0.037801	0.037373	72.5592	20627.2	0.035163	0.052126	1392	82544.1
391	2.000000	1.095343	7.36889e+06	-57539.1	1005.82	-29737	0.000000	0.000000	7.098881	79.153	NaN	0.000000	0.001620	0.001581	28.0811	41.2865	0.001741	23720.1	3.978092	177.829	77.3585	1.095023	0.039760	0.039440	79.153	23720.1	0.037258	0.057133	1385.42	90666.2
391	2.000000	1.097367	7.36889e+06	-57539.1	1005.82	-29737	0.000000	0.000000	7.101128	84.5766	NaN	0.000000	0.001630	0.001563	28.0812	42.4397	0.001780	23847	4.794956	176.552	83.8699	1.097068	0.041784	0.041485	84.5766	23847	0.039124	0.061783	1368.93	87654.2
391	2.000000	1.099339	7.36889e+06	-57539.1	1005.82	-29737	0.000000	0.000000	7.103552	95.5597	NaN	0.000000	0.001639	0.001600	28.0812	45.0358	0.001663	27082.5	4.792659	175.375	94.796	1.099132	0.043756	0.043549	95.5597	27082.5	0.041110	0.066928	1427.8	95644.1
391	2.000000	1.101389	7.36889e+06	-57539.1	1005.82	-29737	0.000000	0.000000	7.105750	99.1614	NaN	0.000000	0.001632	0.001584	28.0811	46.4247	0.001826	25427.6	8.359317	173.784	99.7766	1.101117	0.045806	0.045534	99.1614	25427.6	0.042881	0.071686	1383.28	86768.7
391	2.000000	1.103249	7.36889e+06	-57539.1	1005.82	-29737	0.000000	0.000000	7.108136	111.943	NaN	0.000000	0.001643	0.001540	28.0811	49.585	0.001797	27594.2	5.585332	174.864	106.24	1.102945	0.047666	0.047362	111.943	27594.2	0.044623	0.076521	1462.91	91138.3
391	2.000000	1.105310	7.36889e+06	-57539.1	1005.82	-29737	0.000000	0.000000	7.110874	128.403	NaN	0.000000	0.001620	0.001587	28.0812	50.7109	0.001851	27394.8	5.254295	175.8	124.323	1.104947	0.049727	0.049364	128.403	27394.8	0.046211	0.081063	1583.99	87908.3
391	2.000000	1.107285	7.36889e+06	-57539.1	1005.82	-29737	0.000000	0.000000	7.112805	127.303	NaN	0.000000	0.001594	0.001586	28.0811	52.2294	0.001807	28899.1	4.257033	176.195	124.011	1.107011	0.051702	0.051428	127.303	28899.1	0.048399	0.087528	1454.43	89245
391	2.000000	1.109381	7.36889e+06	-57539.1	1005.82	-29737	0.000000	0.000000	7.114968	128.955	NaN	0.000000	0.001608	0.001600	28.0817	55.7074	0.001854	30051	3.808784	175.387	130.527	1.109178	0.053798	0.053595	128.955	30051	0.050580	0.094214	1368.75	89448.9
391	2.000000	1.111345	7.36889e+06	-57539.1	1005.82	-29737	0.000000	0.000000	7.117950	153.704	NaN	0.000000	0.001643	0.001575	28.0803	56.2046	0.001812	31016.4	5.783077	175.192	154.326	1.110947	0.055762	0.055364	153.704	31016.4	0.052045	0.098838	1555.11	90136.8
391	2.000000	1.113349	7.36889e+06	-57539.1	1005.82	-29737	0.000000	0.000000	7.120273	161.45	NaN	0.000000	0.001674	0.001584	28.0796	58.7885	0.001675	35104.4	4.737493	174.267	162.184	1.112937	0.057766	0.057354	161.45	35104.4	0.054317	0.106221	1519.94	98407.6
391	2.000000	1.115328	7.36889e+06	-57539.1	1005.82	-29737	0.000000	0.000000	7.122634	170.737	NaN	0.000000	0.001712	0.001577	28.0796	60.9999	0.001661	36714	3.941820	174.14	166.327	1.114900	0.059745	0.059317	170.737	36714	0.056257	0.112731	1514.56	99904.4
391	2.000000	1.117298	7.36889e+06	-57539.1	1005.82	-29737	0.000000	0.000000	7.125053	181.653	NaN	0.000000	0.001644	0.001570	28.0798	62.6264	0.001743	35936.3	3.430225	174.483	179.252	1.117026	0.061715	0.061443	181.653	35936.3	0.057924	0.118469	1533.33	95390.3
391	2.000000	1.119282	7.36889e+06	-57539.1	1005.82	-29737	0.000000	0.000000	7.127074	182.551	NaN	0.000000	0.001642	0.001595	28.0801	66.0683	0.001781	37099.4	4.105593	173.462	179.668	1.119066	0.063699	0.063483	182.551	37099.4	0.060009	0.125839	1450.67	95550.5
391	2.000000	1.121404	7.36889e+06	-57539.1	1005.82	-29737	0.000000	0.000000	7.129711	195.066	NaN	0.000000	0.001650	0.001618	28.0798	66.8503	0.001782	37520.9	3.508607	174.953	200.259	1.121115	0.065821	0.065532	195.066	37520.9	0.061921	0.132788	1469	94073.3
391	2.000000	1.123294	7.36889e+06	-57539.1	1005.82	-29737	0.000000	0.000000	7.132248	210.77	NaN	0.000000	0.001619	0.001555	28.0797	68.9088	0.001769	38947.4	3.184519	174.398	208.343	1.123085	0.067711	0.067502	210.77	38947.4	0.063653	0.139231	1513.81	95363.9
391	2.000000	1.125251	7.36889e+06	-57539.1	1005.82	-29737	0.000000	0.000000	7.134805	225.359	NaN	0.000000	0.001702	0.001608	28.0798	71.7748	0.001936	37076.9	6.896241	171.981	219.974	1.124988	0.069668	0.069405	225.359	37076.9	0.065109	0.144765	1556.72	89031.9
391	2.000000	1.127270	7.36889e+06	-57539.1	1005.82	-29737	0.000000	0.000000	7.137327	237.595	NaN	0.000000	0.001697	0.001608	28.0799	72.4176	0.001728	41902.4	4.607894	173.018	234.98	1.126877	0.071687	0.071294	237.595	41902.4	0.067434	0.153807	1544.76	97616.7
391	2.000000	1.129276	7.36889e+06	-57539.1	1005.82	-29737	0.000000	0.000000	7.139439	240.17	NaN	0.000000	0.001696	0.001611	28.0799	75.9208	0.001747	43460.7	3.385324	173.344	236.948	1.129031	0.073693	0.073448	240.17	43460.7	0.069549	0.162256	1480.19	98575.5
391	2.000000	1.131381	7.36889e+06	-57539.1	1005.82	-29737	0.000000	0.000000	7.142505	263.529	NaN	0.000000	0.001667	0.001599	28.0799	75.9408	0.001644	46187.3	0.025355	176.695	264.732	1.130906	0.075798	0.075323	263.529	46187.3	0.071519	0.170320	1547.25	102250
391	2.000000	1.133333	7.36889e+06	-57539.1	1005.82	-29737	0.000000	0.000000	7.144928	274.991	NaN	0.000000	0.001682	0.001588	28.0797	78.9816	0.001647	47948.6	5.416482	171.301	277.401	1.132932	0.077750	0.077349	274.991	47948.6	0.073448	0.178397	1541.45	103718
391	2.000000	1.135348	7.36889e+06	-57539.1	1005.82	-29737	0.000000	0.000000	7.147626	291.585	NaN	0.000000	0.001649	0.001602	28.0798	81.2246	0.001748	46470.1	2.058844	174.752	292.206	1.134979	0.079765	0.079396	291.585	46470.1	0.075059	0.185273	1573.81	98637.2
391	2.000000	1.137312	7.36889e+06	-57539.1	1005.82	-29737	0.000000	0.000000	7.150055	302.872	NaN	0.000000	0.001681	0.001661	28.0799	83.4859	0.001731	48220.5	5.284823	172.133	302.275	1.136889	0.081729	0.081306	302.872	48220.5	0.077019	0.193805	1562.77	100074
391	2.000000	1.139212	7.36889e+06	-57539.1	1005.82	-29737	0.000000	0.000000	7.152396	313.603	NaN	0.000000	0.001665	0.001650	28.0799	86.657	0.001859	46621.3	3.132499	173.139	309.141	1.138943	0.083629	0.083360	313.603	46621.3	0.078584	0.200749	1562.16	95067.3
391	2.000000	1.141262	7.36889e+06	-57539.1	1005.82	-29737	0.000000	0.000000	7.155071	328.793	NaN	0.000000	0.001695	0.001650	28.0802	86.8539	0.001837	47293.1	2.693457	173.88	326.028	1.140983	0.085679	0.085400	328.793	47293.1	0.080464	0.209241	1571.36	94459.9
391	2.000000	1.143292	7.36889e+06	-57539.1	1005.82	-29737	0.000000	0.000000	7.157519	338.941	NaN	0.000000	0.001615	0.001643	28.0799	89.5928	0.001740	51495.5	4.193104	171.052	336.102	1.143011	0.087709	0.087428	338.941	51495.5	0.082773	0.219893	1541.39	100331
391	2.000000	1.145234	7.36889e+06	-57539.1	1005.82	-29737	0.000000	0.000000	7.160362	360.842	NaN	0.000000	0.001630	0.001606	28.0805	92.2785	0.001890	48827.2	7.280826	169.355	355.506	1.144859	0.089651	0.089276	360.842	48827.2	0.084108	0.226166	1595.47	93803.9
391	2.000000	1.147380	7.36889e+06	-57539.1	1005.82	-29737	0.000000	0.000000	7.162725	366.109	NaN	0.000000	0.001633	0.001614	28.0811	93.9103	0.001759	53381.2	8.589557	166.941	373.781	1.147000	0.091797	0.091417	366.109	53381.2	0.086653	0.238351	1536.01	99897.2
391	2.000000	1.149268	7.36889e+06	-57539.1	1005.82	-29737	0.000000	0.000000	7.165433	386.043	NaN	0.000000	0.001597	0.001658	28.0811	95.229	0.001770	53810.7	0.627892	174.967	383.142	1.149090	0.093685	0.093507	386.043	53810.7	0.088304	0.246417	1566.63	99039
391	2.000000	1.151277	7.36889e+06	-57539.1	1005.82	-29737	0.000000	0.000000	7.168252	405.719	NaN	0.000000	0.001619	0.001647	28.0813	95.8295	0.001774	54020	4.890300	170.999	405.056	1.150946	0.095694	0.095363	405.719	54020	0.090061	0.255136	1590.2	97710.5
391	2.000000	1.153196	7.36889e+06	-57539.1	1005.82	-29737	0.000000	0.000000	7.170550	414.933	NaN	0.000000	0.001618	0.001635	28.0813	99.4048	0.001820	54605.1	8.268681	167.326	408.312	1.152892	0.097613	0.097309	414.933	54605.1	0.091914	0.264483	1568.85	97008
391	2.000000	1.155248	7.36889e+06	-57539.1	1005.82	-29737	0.000000	0.000000	7.173287	431.6	NaN	0.000000	0.001609	0.001642	28.0814	100.143	0.001753	57137.2	2.495896	172.648	427.656	1.154950	0.099665	0.099367	431.6	57137.2	0.094000	0.275196	1568.34	99511.1
391	2.000000	1.157228	7.36889e+06	-57539.1	1005.82	-29737	0.000000	0.000000	7.175985	449.043	NaN	0.000000	0.001626	0.001668	28.0812	101.655	0.001803	56385.9	2.502453	172.949	444.867	1.156948	0.101645	0.101365	449.043	56385.9	0.095672	0.283930	1581.53	96680.4
391	2.000000	1.159284	7.36889e+06	-57539.1	1005.82	-29737	0.000000	0.000000	7.178755	466.388	NaN	0.000000	0.001592	0.001651	28.0813	104.716	0.001820	57538.9	6.540496	168.134	466.1	1.159095	0.103701	0.103512	466.388	57538.9	0.097622	0.294273	1584.88	96908.1
391	2.000000	1.161215	7.36889e+06	-57539.1	1005.82	-29737	0.000000	0.000000	7.181991	498.097	NaN	0.000000	0.001585	0.001611	28.0814	105.136	0.001690	62201.1	6.720194	168.164	494.975	1.160850	0.105632	0.105267	498.097	62201.1	0.099627	0.305084	1632.65	102887
391	2.000000	1.163233	7.36889e+06	-57539.1	1005.82	-29737	0.000000	0.000000	7.184511	510.295	NaN	0.000000	0.001592	0.001606	28.0814	107.153	0.001737	61690.1	4.251545	170.435	507.531	1.162775	0.107650	0.107192	510.295	61690.1	0.101447	0.315060	1619.67	100413