File: remote_trans/data/nanoindenter/0828-1/data/Data_2025-08-06,11h17m57s/2025-07-22_16-23-58_1_1052.txt
2025-07-22, 16:23:58, 1
Index	Phase	Displacement	Time	Pos X	Pos Y	Pos Z	Rot A	Rot B	Piezo Z	Force A	Force B	Gripper	Voltage A	Voltage B	Temperature	Amplitude force	Amplitude pos	Stiffness	Phase shift	Phase excitation	Force A raw	Displacement raw	HMax	HMax raw	Real Force	Real Stiffness	Contact Depth	Area	Hardness	Reduced Mod.
[#]	[#]	[um]	[s]	[um]	[um]	[um]	[m°]	[m°]	[um]	[uN]	[uN]	[V]	[V]	[V]	[°C]	[uN]	[um]	[N/m]	[°]	[°]	[uN]	[um]	[um]	[um]	[uN]	[N/m]	[um]	[um^2]	[MPa]	[MPa]
1052	1.000000	0.002268	7.37533e+06	-52739.1	1055.82	-29748.1	0.000000	0.000000	6.002792	-0.063928	NaN	0.000000	0.001664	0.001819	28.083	0.152422	0.000912	167.077	-177.771	-162.644	-0.014606	0.001011	-1.219167	-1.220424	-0.063928	167.077	-1.218880	-1.965688E+16	3.252172E-18	NaN
1052	1.000000	0.012318	7.37533e+06	-52739.1	1055.82	-29748.1	0.000000	0.000000	6.012846	0.025538	NaN	0.000000	0.001632	0.001797	28.083	0.143675	0.001268	113.303	78.6214	20.9531	-0.050203	0.010873	-1.209117	-1.210563	0.025538	113.303	-1.209287	-1.462478E+16	-1.746236E-18	NaN
1052	1.000000	0.022195	7.37533e+06	-52739.1	1055.82	-29748.1	0.000000	0.000000	6.022722	0.021727	NaN	0.000000	0.001639	0.001783	28.0829	0.093153	0.001620	57.4848	-166.958	-162.326	0.039907	0.020885	-1.199241	-1.200550	0.021727	57.4848	-1.199524	-1.082367E+16	-2.007390E-18	NaN
1052	1.000000	0.032228	7.37533e+06	-52739.1	1055.82	-29748.1	0.000000	0.000000	6.032753	-0.026085	NaN	0.000000	0.001649	0.001781	28.083	0.120465	0.001946	61.9049	125.93	11.6432	-0.062007	0.030903	-1.189208	-1.190532	-0.026085	61.9049	-1.188891	-7.797902E+15	3.345164E-18	NaN
1052	1.000000	0.042211	7.37533e+06	-52739.1	1055.82	-29748.1	0.000000	0.000000	6.042738	0.026938	NaN	0.000000	0.001671	0.001765	28.0833	0.058443	0.001890	30.9175	34.7666	-167.356	-0.035799	0.040968	-1.179225	-1.180468	0.026938	30.9175	-1.179878	-5.905292E+15	-4.561677E-18	NaN
1052	1.000000	0.052252	7.37533e+06	-52739.1	1055.82	-29748.1	0.000000	0.000000	6.052777	-0.030712	NaN	0.000000	0.001625	0.001767	28.0844	0.152670	0.002076	73.5248	85.6839	13.7584	-0.016914	0.050883	-1.169183	-1.170552	-0.030712	73.5248	-1.168870	-4.204805E+15	7.303969E-18	NaN
1052	1.000000	0.062226	7.37533e+06	-52739.1	1055.82	-29748.1	0.000000	0.000000	6.062750	-0.053691	NaN	0.000000	0.001645	0.001793	28.0843	0.023613	0.002080	11.3518	119.079	-163.088	-0.140970	0.060938	-1.159209	-1.160498	-0.053691	11.3518	-1.155662	-2.797196E+15	1.919472E-17	NaN
1052	1.000000	0.072246	7.37533e+06	-52739.1	1055.82	-29748.1	0.000000	0.000000	6.072772	-0.017358	NaN	0.000000	0.001656	0.001762	28.0847	0.095777	0.001952	49.0781	32.2899	16.3394	0.068319	0.070897	-1.149189	-1.150539	-0.017358	49.0781	-1.148924	-2.271933E+15	7.640173E-18	NaN
1052	1.000000	0.082226	7.37533e+06	-52739.1	1055.82	-29748.1	0.000000	0.000000	6.082750	-0.060800	NaN	0.000000	0.001628	0.001777	28.0847	0.011405	0.001973	5.781611	-78.8184	-163.417	-0.079538	0.080947	-1.139209	-1.140489	-0.060800	5.781611	-1.131322	-1.319346E+15	4.608310E-17	NaN
1052	1.000000	0.092243	7.37533e+06	-52739.1	1055.82	-29748.1	0.000000	0.000000	6.092772	0.064654	NaN	0.000000	0.001661	0.001759	28.0845	0.068220	0.002017	33.8187	81.7423	14.9912	0.020188	0.090849	-1.129192	-1.130586	0.064654	33.8187	-1.130626	-1.291275E+15	-5.007011E-17	NaN
1052	1.000000	0.102260	7.37533e+06	-52739.1	1055.82	-29748.1	0.000000	0.000000	6.102786	-0.009078	NaN	0.000000	0.001647	0.001743	28.0846	0.100816	0.001949	51.715	-151.114	-168.69	-0.066124	0.100928	-1.119175	-1.120508	-0.009078	51.715	-1.119044	-9.028997E+14	1.005442E-17	NaN
1052	1.000000	0.112238	7.37533e+06	-52739.1	1055.82	-29748.1	0.000000	0.000000	6.112762	-0.050751	NaN	0.000000	0.001623	0.001740	28.0848	0.032777	0.002041	16.0607	-33.9087	13.2775	-0.024931	0.110853	-1.109198	-1.110583	-0.050751	16.0607	-1.106828	-6.190310E+14	8.198390E-17	NaN
1052	1.000000	0.122246	7.37533e+06	-52739.1	1055.82	-29748.1	0.000000	0.000000	6.122773	0.009248	NaN	0.000000	0.001719	0.001759	28.0843	0.091245	0.001966	46.4042	-166.837	-167.262	-0.016095	0.120913	-1.099190	-1.100523	0.009248	46.4042	-1.099339	-4.911311E+14	-1.883086E-17	NaN
1052	1.000000	0.132272	7.37533e+06	-52739.1	1055.82	-29748.1	0.000000	0.000000	6.132799	0.000891	NaN	0.000000	0.001644	0.001796	28.0845	0.070494	0.002026	34.801	-22.8519	13.8287	0.046323	0.130896	-1.089163	-1.090539	0.000891	34.801	-1.089182	-3.587832E+14	-2.484629E-18	NaN
1052	1.000000	0.142250	7.37533e+06	-52739.1	1055.82	-29748.1	0.000000	0.000000	6.142775	-0.021113	NaN	0.000000	0.001630	0.001779	28.0845	0.073212	0.002027	36.1154	-166.999	-167.527	-0.012446	0.140926	-1.079186	-1.080509	-0.021113	36.1154	-1.078747	-2.598318E+14	8.125693E-17	NaN
1052	1.000000	0.152272	7.37533e+06	-52739.1	1055.82	-29748.1	0.000000	0.000000	6.152794	-0.110695	NaN	0.000000	0.001621	0.001797	28.0848	0.041254	0.002013	20.4963	-162.403	14.4107	-0.084975	0.150872	-1.069163	-1.070563	-0.110695	20.4963	-1.065113	-1.704215E+14	6.495375E-16	NaN
1052	1.000000	0.162279	7.37533e+06	-52739.1	1055.82	-29748.1	0.000000	0.000000	6.162806	0.016826	NaN	0.000000	0.001627	0.001775	28.0844	0.055709	0.002013	27.6759	142.859	-162.679	-0.031700	0.161016	-1.059157	-1.060420	0.016826	27.6759	-1.059613	-1.437533E+14	-1.170471E-16	NaN
1052	1.000000	0.172287	7.37533e+06	-52739.1	1055.82	-29748.1	0.000000	0.000000	6.172809	-0.102814	NaN	0.000000	0.001616	0.001782	28.0846	0.055132	0.002118	26.0305	-68.3029	13.7421	-0.007983	0.170904	-1.049149	-1.050531	-0.102814	26.0305	-1.046187	-9.487417E+13	1.083691E-15	NaN
1052	1.000000	0.182281	7.37533e+06	-52739.1	1055.82	-29748.1	0.000000	0.000000	6.182806	-0.044354	NaN	0.000000	0.001637	0.001760	28.0846	0.023176	0.001959	11.831	33.5979	-162.179	-0.025110	0.180969	-1.039154	-1.040467	-0.044354	11.831	-1.036342	-6.994913E+13	6.340908E-16	NaN
1052	1.000000	0.192296	7.37533e+06	-52739.1	1055.82	-29748.1	0.000000	0.000000	6.192820	-0.062438	NaN	0.000000	0.001596	0.001775	28.0837	0.057607	0.002056	28.0251	38.2329	16.352	0.027085	0.190900	-1.029139	-1.030535	-0.062438	28.0251	-1.027469	-5.314089E+13	1.174948E-15	NaN
1052	1.000000	0.202263	7.37533e+06	-52739.1	1055.82	-29748.1	0.000000	0.000000	6.202790	0.002341	NaN	0.000000	0.001597	0.001802	28.0835	0.087013	0.001940	44.8558	80.7437	-170.339	6.110569E-6	0.201000	-1.019172	-1.020435	0.002341	44.8558	-1.019212	-4.114749E+13	-5.690267E-17	NaN
1052	1.000000	0.212255	7.37533e+06	-52739.1	1055.82	-29748.1	0.000000	0.000000	6.212778	-0.086844	NaN	0.000000	0.001600	0.001745	28.0835	0.058812	0.001949	30.1715	47.9452	14.3797	-0.073366	0.210946	-1.009181	-1.010489	-0.086844	30.1715	-1.007022	-2.820328E+13	3.079232E-15	NaN
1052	1.000000	0.222287	7.37533e+06	-52739.1	1055.82	-29748.1	0.000000	0.000000	6.222813	-0.003729	NaN	0.000000	0.001577	0.001736	28.0835	0.054290	0.001763	30.7996	-59.3493	-166.987	0.080477	0.220930	-0.999149	-1.000506	-0.003729	30.7996	-0.999058	-2.203345E+13	1.692437E-16	NaN
1052	1.000000	0.232327	7.37533e+06	-52739.1	1055.82	-29748.1	0.000000	0.000000	6.232855	0.027673	NaN	0.000000	0.001596	0.001752	28.0834	0.065186	0.002116	30.7993	-51.9601	11.2648	-0.020797	0.230917	-0.989108	-0.990518	0.027673	30.7993	-0.989782	-1.652643E+13	-1.674479E-15	NaN
1052	1.000000	0.242312	7.37533e+06	-52739.1	1055.82	-29748.1	0.000000	0.000000	6.242835	-0.073665	NaN	0.000000	0.001603	0.001772	28.0833	0.045059	0.001902	23.6938	95.2255	-167.988	-0.029795	0.240982	-0.979124	-0.980453	-0.073665	23.6938	-0.976792	-1.104550E+13	6.669257E-15	NaN
1052	1.000000	0.252307	7.37533e+06	-52739.1	1055.82	-29748.1	0.000000	0.000000	6.252832	-0.018023	NaN	0.000000	0.001585	0.001764	28.0834	0.120856	0.001818	66.4793	-144.359	12.0074	-0.010734	0.250954	-0.969129	-0.970482	-0.018023	66.4793	-0.968926	-8.653309E+12	2.082798E-15	NaN
1052	1.000000	0.262284	7.37533e+06	-52739.1	1055.82	-29748.1	0.000000	0.000000	6.262810	-0.033421	NaN	0.000000	0.001618	0.001779	28.0837	0.037922	0.002026	18.7205	63.2383	-165.379	-0.013779	0.261008	-0.959151	-0.960428	-0.033421	18.7205	-0.957812	-6.128723E+12	5.453131E-15	NaN
1052	1.000000	0.272312	7.37533e+06	-52739.1	1055.82	-29748.1	0.000000	0.000000	6.272838	-0.023779	NaN	0.000000	0.001636	0.001764	28.0833	0.022094	0.001919	11.5159	-41.0206	14.4051	0.034488	0.270935	-0.949123	-0.950501	-0.023779	11.5159	-0.947575	-4.459792E+12	5.331782E-15	NaN
1052	1.000000	0.282324	7.37533e+06	-52739.1	1055.82	-29748.1	0.000000	0.000000	6.282850	-0.024727	NaN	0.000000	0.001676	0.001711	28.0837	0.044858	0.001832	24.4794	-152.301	-166.134	-0.039573	0.281034	-0.939111	-0.940401	-0.024727	24.4794	-0.938353	-3.349045E+12	7.383305E-15	NaN
1052	1.000000	0.292294	7.37533e+06	-52739.1	1055.82	-29748.1	0.000000	0.000000	6.292819	-0.030384	NaN	0.000000	0.001609	0.001776	28.0834	0.087666	0.001904	46.0396	38.6946	15.5457	0.010091	0.290946	-0.929142	-0.930489	-0.030384	46.0396	-0.928647	-2.477048E+12	1.226602E-14	NaN
1052	1.000000	0.302325	7.37533e+06	-52739.1	1055.82	-29748.1	0.000000	0.000000	6.302852	-0.000288	NaN	0.000000	0.001632	0.001748	28.0838	0.081507	0.002037	40.0219	174.959	-170.408	-0.020025	0.300995	-0.919110	-0.920441	-0.000288	40.0219	-0.919105	-1.841283E+12	1.565101E-16	NaN
1052	1.000000	0.312347	7.37533e+06	-52739.1	1055.82	-29748.1	0.000000	0.000000	6.312873	-0.005288	NaN	0.000000	0.001679	0.001736	28.0834	0.104252	0.001983	52.5852	-42.9833	11.2719	0.019174	0.310959	-0.909088	-0.910476	-0.005288	52.5852	-0.909013	-1.345334E+12	3.930289E-15	NaN
1052	1.000000	0.322350	7.37533e+06	-52739.1	1055.82	-29748.1	0.000000	0.000000	6.322878	0.016614	NaN	0.000000	0.001706	0.001773	28.0836	0.121265	0.001968	61.6288	86.517	-167.193	-0.021471	0.321040	-0.899085	-0.900395	0.016614	61.6288	-0.899287	-9.941143E+11	-1.671243E-14	NaN
1052	1.000000	0.332348	7.37533e+06	-52739.1	1055.82	-29748.1	0.000000	0.000000	6.332871	-0.080495	NaN	0.000000	0.001676	0.001768	28.0849	0.012296	0.002001	6.144713	-25.3566	10.8654	-0.014817	0.330968	-0.889088	-0.890468	-0.080495	6.144713	-0.879263	-5.330166E+11	1.510175E-13	NaN
1052	1.000000	0.342352	7.37533e+06	-52739.1	1055.82	-29748.1	0.000000	0.000000	6.342876	-0.083330	NaN	0.000000	0.001685	0.001785	28.0847	0.079528	0.002044	38.9113	172.551	-165.968	-0.017099	0.341003	-0.879083	-0.880432	-0.083330	38.9113	-0.877477	-5.041796E+11	1.652788E-13	NaN
1052	1.000000	0.352354	7.37533e+06	-52739.1	1055.82	-29748.2	0.000000	0.000000	6.352875	-0.117888	NaN	0.000000	0.001649	0.001736	28.0845	0.117042	0.002031	57.6283	-76.8774	14.3038	-0.117733	0.350952	-0.869082	-0.870483	-0.117888	57.6283	-0.867547	-3.700502E+11	3.185720E-13	NaN
1052	1.000000	0.362352	7.37533e+06	-52739.1	1055.82	-29748.2	0.000000	0.000000	6.362878	-0.012465	NaN	0.000000	0.001648	0.001782	28.0848	0.025586	0.002094	12.2177	40.9985	-167.033	-0.012862	0.361047	-0.859084	-0.860388	-0.012465	12.2177	-0.858319	-2.775630E+11	4.490801E-14	NaN
1052	1.000000	0.372333	7.37533e+06	-52739.1	1055.82	-29748.2	0.000000	0.000000	6.372860	0.004248	NaN	0.000000	0.001716	0.001763	28.0845	0.057976	0.002094	27.6837	46.247	15.0147	-0.127048	0.371006	-0.849102	-0.850430	0.004248	27.6837	-0.849217	-2.089973E+11	-2.032574E-14	NaN
1052	1.000000	0.382382	7.37533e+06	-52739.1	1055.82	-29748.2	0.000000	0.000000	6.382909	0.013077	NaN	0.000000	0.001712	0.001813	28.0847	0.050637	0.002167	23.369	-55.2785	-161.734	-0.057786	0.381087	-0.839054	-0.840349	0.013077	23.369	-0.839473	-1.542258E+11	-8.479210E-14	NaN
1052	1.000000	0.392336	7.37533e+06	-52739.1	1055.82	-29748.2	0.000000	0.000000	6.392860	-0.061937	NaN	0.000000	0.001673	0.001844	28.0846	0.087545	0.001925	45.4853	-103.735	13.2447	-0.073595	0.391023	-0.829099	-0.830412	-0.061937	45.4853	-0.828078	-1.080768E+11	5.730875E-13	NaN
1052	1.000000	0.402374	7.37533e+06	-52739.1	1055.82	-29748.2	0.000000	0.000000	6.402898	-0.060354	NaN	0.000000	0.001664	0.001801	28.0848	0.133867	0.001913	69.971	91.8649	-165.699	-0.046978	0.401109	-0.819062	-0.820326	-0.060354	69.971	-0.818415	-7.993082E+10	7.550769E-13	NaN
1052	1.000000	0.412374	7.37533e+06	-52739.1	1055.82	-29748.2	0.000000	0.000000	6.412902	0.038934	NaN	0.000000	0.001684	0.001775	28.0843	0.044159	0.001886	23.4093	-80.2482	12.4807	-0.047228	0.410968	-0.809061	-0.810468	0.038934	23.4093	-0.810309	-6.205238E+10	-6.274417E-13	NaN
1052	1.000000	0.422385	7.37533e+06	-52739.1	1055.82	-29748.2	0.000000	0.000000	6.422910	-0.046304	NaN	0.000000	0.001657	0.001809	28.0844	0.013770	0.002055	6.699447	170.879	-165.102	-0.031526	0.421092	-0.799050	-0.800344	-0.046304	6.699447	-0.793866	-3.711851E+10	1.247466E-12	NaN
1052	1.000000	0.432373	7.37533e+06	-52739.1	1055.82	-29748.2	0.000000	0.000000	6.432898	-0.041825	NaN	0.000000	0.001687	0.001777	28.0843	0.084541	0.002121	39.857	87.7129	12.5596	-0.041099	0.431023	-0.789063	-0.790412	-0.041825	39.857	-0.788276	-3.116457E+10	1.342079E-12	NaN
1052	1.000000	0.442386	7.37533e+06	-52739.1	1055.82	-29748.2	0.000000	0.000000	6.442911	-0.041784	NaN	0.000000	0.001669	0.001792	28.0849	0.105341	0.002006	52.521	-25.7981	-169.635	-0.015410	0.441069	-0.779049	-0.780366	-0.041784	52.521	-0.778453	-2.291942E+10	1.823064E-12	NaN
1052	1.000000	0.452377	7.37533e+06	-52739.1	1055.82	-29748.2	0.000000	0.000000	6.452902	-0.051985	NaN	0.000000	0.001682	0.001793	28.0844	0.069691	0.001984	35.133	-135.841	14.9231	-0.064810	0.451050	-0.769058	-0.770386	-0.051985	35.133	-0.767948	-1.649715E+10	3.151156E-12	NaN
1052	1.000000	0.462402	7.37533e+06	-52739.1	1055.82	-29748.2	0.000000	0.000000	6.462927	-0.045422	NaN	0.000000	0.001660	0.001833	28.0835	0.133719	0.001989	67.2416	89.7975	-168.459	-0.020395	0.461148	-0.759033	-0.760287	-0.045422	67.2416	-0.758526	-1.228160E+10	3.698390E-12	NaN
1052	1.000000	0.472417	7.37533e+06	-52739.1	1055.82	-29748.2	0.000000	0.000000	6.472944	-0.010745	NaN	0.000000	0.001665	0.001815	28.0832	0.142620	0.001966	72.5603	36.5551	15.2724	0.002026	0.471011	-0.749018	-0.750424	-0.010745	72.5603	-0.748907	-9.085328E+9	1.182625E-12	NaN
1052	1.000000	0.482411	7.37533e+06	-52739.1	1055.82	-29748.2	0.000000	0.000000	6.482933	-0.101697	NaN	0.000000	0.001684	0.001800	28.0838	0.043139	0.002122	20.3294	-147.342	-165.623	-0.111520	0.481080	-0.739025	-0.740355	-0.101697	20.3294	-0.735273	-5.924635E+9	1.716508E-11	NaN
1052	1.000000	0.492409	7.37533e+06	-52739.1	1055.82	-29748.2	0.000000	0.000000	6.492938	0.048121	NaN	0.000000	0.001699	0.001820	28.0834	0.116899	0.002089	55.9543	101.923	12.8214	0.039013	0.491049	-0.729026	-0.730386	0.048121	55.9543	-0.729671	-4.969682E+9	-9.683009E-12	NaN
1052	1.000000	0.502432	7.37533e+06	-52739.1	1055.82	-29748.2	0.000000	0.000000	6.502960	0.013891	NaN	0.000000	0.001678	0.001821	28.0835	0.080123	0.001875	42.7288	154.921	-168.512	-0.114261	0.501127	-0.719003	-0.720308	0.013891	42.7288	-0.719247	-3.582623E+9	-3.877257E-12	NaN
1052	1.000000	0.512416	7.37533e+06	-52739.1	1055.82	-29748.2	0.000000	0.000000	6.512943	0.017773	NaN	0.000000	0.001683	0.001837	28.0834	0.101473	0.002077	48.8463	108.762	14.9522	0.006080	0.511035	-0.709020	-0.710400	0.017773	48.8463	-0.709293	-2.620554E+9	-6.782324E-12	NaN
1052	1.000000	0.522427	7.37533e+06	-52739.1	1055.82	-29748.2	0.000000	0.000000	6.522953	-0.012992	NaN	0.000000	0.001704	0.001823	28.0838	0.084920	0.001953	43.4815	-115.083	-165.385	0.017911	0.521099	-0.699009	-0.700336	-0.012992	43.4815	-0.698784	-1.883349E+9	6.898469E-12	NaN
1052	1.000000	0.532439	7.37533e+06	-52739.1	1055.82	-29748.2	0.000000	0.000000	6.532961	-0.096190	NaN	0.000000	0.001726	0.001843	28.0837	0.104788	0.001976	53.0192	-40.0582	11.2531	-0.062247	0.531105	-0.688997	-0.690331	-0.096190	53.0192	-0.687636	-1.326192E+9	7.253110E-11	NaN
1052	1.000000	0.542418	7.37533e+06	-52739.1	1055.82	-29748.2	0.000000	0.000000	6.542942	-0.076370	NaN	0.000000	0.001738	0.001829	28.0834	0.081168	0.002087	38.8892	-62.8234	-169.385	-0.030846	0.541158	-0.679017	-0.680278	-0.076370	38.8892	-0.677544	-9.652036E+8	7.912334E-11	NaN
1052	1.000000	0.552455	7.37533e+06	-52739.1	1055.82	-29748.2	0.000000	0.000000	6.552982	0.001486	NaN	0.000000	0.001730	0.001854	28.0837	0.031506	0.002009	15.6849	-16.3754	11.8832	-0.045897	0.551058	-0.668980	-0.670377	0.001486	15.6849	-0.669051	-7.385957E+8	-2.011575E-12	NaN
1052	1.000000	0.562433	7.37533e+06	-52739.1	1055.82	-29748.2	0.000000	0.000000	6.562958	-0.029170	NaN	0.000000	0.001702	0.001852	28.0834	0.084240	0.001860	45.2968	158.64	-166.472	-0.022327	0.561093	-0.659003	-0.660342	-0.029170	45.2968	-0.658520	-5.298937E+8	5.504956E-11	NaN
1052	1.000000	0.572487	7.37533e+06	-52739.1	1055.82	-29748.2	0.000000	0.000000	6.573014	0.017857	NaN	0.000000	0.001703	0.001829	28.0834	0.029685	0.002120	14.0047	143.579	13.8217	0.030381	0.571052	-0.648949	-0.650384	0.017857	14.0047	-0.649905	-4.037680E+8	-4.422480E-11	NaN
1052	1.000000	0.582430	7.37533e+06	-52739.1	1055.82	-29748.2	0.000000	0.000000	6.582954	-0.066338	NaN	0.000000	0.001694	0.001818	28.0834	0.061444	0.001974	31.1187	-114.537	-164.108	-0.031935	0.581113	-0.639006	-0.640322	-0.066338	31.1187	-0.637407	-2.720867E+8	2.438114E-10	NaN
1052	1.000000	0.592444	7.37533e+06	-52739.1	1055.82	-29748.2	0.000000	0.000000	6.592970	-0.020911	NaN	0.000000	0.001704	0.001821	28.0836	0.036196	0.002069	17.4986	-105.821	14.6559	-0.019243	0.591061	-0.628991	-0.630375	-0.020911	17.4986	-0.628095	-2.027027E+8	1.031625E-10	NaN
1052	1.000000	0.602433	7.37533e+06	-52739.1	1055.82	-29748.2	0.000000	0.000000	6.602958	-0.039901	NaN	0.000000	0.001720	0.001819	28.0845	0.064091	0.001879	34.1103	-97.0847	-168.046	-0.046506	0.601175	-0.619003	-0.620260	-0.039901	34.1103	-0.618125	-1.478635E+8	2.698532E-10	NaN
1052	1.000000	0.612451	7.37533e+06	-52739.1	1055.82	-29748.2	0.000000	0.000000	6.612976	-0.051062	NaN	0.000000	0.001696	0.001817	28.0843	0.079148	0.001964	40.2994	-17.1667	14.8276	-0.059443	0.611111	-0.608984	-0.610325	-0.051062	40.2994	-0.608034	-1.074143E+8	4.753721E-10	NaN
1052	1.000000	0.622462	7.37533e+06	-52739.1	1055.82	-29748.2	0.000000	0.000000	6.622986	-0.056094	NaN	0.000000	0.001706	0.001799	28.0845	0.058138	0.001919	30.3003	56.0282	-163.342	-0.133231	0.621111	-0.598974	-0.600324	-0.056094	30.3003	-0.597585	-7.712616E+7	7.273019E-10	NaN
1052	1.000000	0.632463	7.37533e+06	-52739.1	1055.82	-29748.2	0.000000	0.000000	6.632986	-0.078632	NaN	0.000000	0.001676	0.001770	28.0849	0.021719	0.002012	10.7962	30.7673	16.4546	-0.056692	0.631124	-0.588972	-0.590311	-0.078632	10.7962	-0.583510	-4.933523E+7	1.593831E-9	NaN
1052	1.000000	0.642474	7.37533e+06	-52739.1	1055.82	-29748.2	0.000000	0.000000	6.642999	-0.037271	NaN	0.000000	0.001699	0.001781	28.0845	0.064791	0.002030	31.9241	-140.016	-164.917	-0.116037	0.641183	-0.578962	-0.580253	-0.037271	31.9241	-0.578086	-4.152461E+7	8.975578E-10	NaN
1052	1.000000	0.652479	7.37534e+06	-52739.1	1055.82	-29748.2	0.000000	0.000000	6.653007	0.021467	NaN	0.000000	0.001675	0.001747	28.0846	0.108031	0.001971	54.8034	-113.91	14.2286	0.014659	0.651129	-0.568956	-0.570307	0.021467	54.8034	-0.569250	-3.135211E+7	-6.847123E-10	NaN
1052	1.000000	0.662497	7.37534e+06	-52739.1	1055.82	-29748.2	0.000000	0.000000	6.663026	0.052992	NaN	0.000000	0.001769	0.001761	28.0846	0.009288	0.002006	4.631143	74.9168	-166.664	0.044652	0.661175	-0.558938	-0.560260	0.052992	4.631143	-0.567520	-2.967277E+7	-1.785865E-9	NaN
1052	1.000000	0.672501	7.37534e+06	-52739.1	1055.82	-29748.2	0.000000	0.000000	6.673023	-0.102323	NaN	0.000000	0.001731	0.001761	28.0846	0.057203	0.002048	27.9323	-166.041	12.5535	0.010157	0.671106	-0.548935	-0.550330	-0.102323	27.9323	-0.546187	-1.503596E+7	6.805216E-9	NaN
1052	1.000000	0.682479	7.37534e+06	-52739.1	1055.82	-29748.2	0.000000	0.000000	6.683004	-0.035631	NaN	0.000000	0.001663	0.001792	28.0845	0.066810	0.001993	33.5175	39.7814	-162.659	-0.146943	0.681127	-0.538957	-0.540308	-0.035631	33.5175	-0.538159	-1.163663E+7	3.062002E-9	NaN
1052	1.000000	0.692501	7.37534e+06	-52739.1	1055.82	-29748.2	0.000000	0.000000	6.693025	-0.046064	NaN	0.000000	0.001671	0.001759	28.0845	0.097354	0.001977	49.2489	137.402	13.1726	-0.146612	0.691133	-0.528935	-0.530302	-0.046064	49.2489	-0.528233	-8.47301e+06	5.436509E-9	NaN
1052	1.000000	0.702490	7.37534e+06	-52739.1	1055.82	-29748.2	0.000000	0.000000	6.703013	-0.091156	NaN	0.000000	0.001606	0.001797	28.0847	0.088622	0.002007	44.165	36.8588	-165.642	-0.022700	0.701140	-0.518945	-0.520295	-0.091156	44.165	-0.517397	-5.98954e+06	1.521917E-8	NaN
1052	1.000000	0.712503	7.37534e+06	-52739.1	1055.82	-29748.2	0.000000	0.000000	6.713027	-0.061890	NaN	0.000000	0.001640	0.001782	28.0846	0.034268	0.001881	18.2135	137.998	14.2538	-0.088030	0.711177	-0.508933	-0.510259	-0.061890	18.2135	-0.506384	-4.20764e+06	1.470898E-8	NaN
1052	1.000000	0.722470	7.37534e+06	-52739.1	1055.82	-29748.2	0.000000	0.000000	6.722995	-0.034406	NaN	0.000000	0.001599	0.001780	28.0845	0.079029	0.001958	40.3553	-109.966	-169.376	-0.007907	0.721264	-0.498965	-0.500171	-0.034406	40.3553	-0.498326	-3.24832e+06	1.059205E-8	NaN
1052	1.000000	0.732477	7.37534e+06	-52739.1	1055.82	-29748.2	0.000000	0.000000	6.733000	-0.090179	NaN	0.000000	0.001589	0.001802	28.0844	0.074416	0.002029	36.6772	134.358	10.3239	-0.079563	0.731139	-0.488959	-0.490296	-0.090179	36.6772	-0.487115	-2.26496e+06	3.981474E-8	NaN
1052	1.000000	0.742503	7.37534e+06	-52739.1	1055.82	-29748.2	0.000000	0.000000	6.743032	0.049076	NaN	0.000000	0.001615	0.001778	28.0835	0.028051	0.001950	14.3856	-78.4382	-166.381	-0.076945	0.741172	-0.478932	-0.480263	0.049076	14.3856	-0.481491	-1.88969e+06	-2.597023E-8	NaN
1052	1.000000	0.752513	7.37534e+06	-52739.1	1055.82	-29748.2	0.000000	0.000000	6.753039	-0.014014	NaN	0.000000	0.001534	0.001780	28.0833	0.049908	0.002071	24.0944	-150.387	13.2228	0.014893	0.751141	-0.468922	-0.470294	-0.014014	24.0944	-0.468486	-1.24213e+06	1.128246E-8	NaN
1052	1.000000	0.762545	7.37534e+06	-52739.1	1055.82	-29748.2	0.000000	0.000000	6.763070	-0.040408	NaN	0.000000	0.001605	0.001778	28.0832	0.045091	0.001993	22.6214	-156.345	-166.415	-0.017271	0.761200	-0.458890	-0.460235	-0.040408	22.6214	-0.457551	-872146	4.633222E-8	NaN
1052	1.000000	0.772534	7.37534e+06	-52739.1	1055.82	-29748.2	0.000000	0.000000	6.773061	0.006416	NaN	0.000000	0.001595	0.001798	28.0833	0.021040	0.002002	10.5082	171.912	13.1413	0.000741	0.771177	-0.448902	-0.450259	0.006416	10.5082	-0.449360	-668842	-9.593325E-9	NaN
1052	1.000000	0.782518	7.37534e+06	-52739.1	1055.82	-29748.2	0.000000	0.000000	6.783041	-0.081946	NaN	0.000000	0.001598	0.001801	28.0833	0.034454	0.002066	16.674	74.2128	-165.998	-0.103163	0.781222	-0.438917	-0.440214	-0.081946	16.674	-0.435231	-422692	1.938671E-7	NaN
1052	1.000000	0.792540	7.37534e+06	-52739.1	1055.82	-29748.2	0.000000	0.000000	6.793066	-0.034322	NaN	0.000000	0.001605	0.001777	28.0834	0.100253	0.002054	48.8203	119.06	10.4242	-0.077749	0.791160	-0.428895	-0.430275	-0.034322	48.8203	-0.428368	-338038	1.015320E-7	NaN
1052	1.000000	0.802549	7.37534e+06	-52739.1	1055.82	-29748.2	0.000000	0.000000	6.803074	-0.036750	NaN	0.000000	0.001569	0.001773	28.0834	0.049098	0.001989	24.6796	115.4	-163.475	-0.089672	0.801153	-0.418886	-0.420282	-0.036750	24.6796	-0.417770	-239207	1.536309E-7	NaN
1052	1.000000	0.812538	7.37534e+06	-52739.1	1055.82	-29748.2	0.000000	0.000000	6.813062	-0.052309	NaN	0.000000	0.001616	0.001793	28.0834	0.059127	0.001892	31.2441	150.728	14.8847	-0.049383	0.811105	-0.408897	-0.410330	-0.052309	31.2441	-0.407642	-171733	3.045947E-7	NaN
1052	1.000000	0.822576	7.37534e+06	-52739.1	1055.82	-29748.2	0.000000	0.000000	6.823100	-0.046548	NaN	0.000000	0.001603	0.001767	28.0832	0.033416	0.002066	16.1719	-75.095	-165.663	0.002516	0.821252	-0.398860	-0.400183	-0.046548	16.1719	-0.396701	-119928	3.881292E-7	NaN
1052	1.000000	0.832515	7.37534e+06	-52739.1	1055.82	-29748.2	0.000000	0.000000	6.833043	0.037377	NaN	0.000000	0.001582	0.001775	28.0833	0.134157	0.002016	66.5573	131.554	13.1875	-0.010142	0.831210	-0.388920	-0.390225	0.037377	66.5573	-0.389342	-94134.2	-3.970578E-7	NaN
1052	1.000000	0.842526	7.37534e+06	-52739.1	1055.82	-29748.2	0.000000	0.000000	6.843050	-0.053141	NaN	0.000000	0.001623	0.001798	28.0834	0.081220	0.001986	40.8976	-164.485	-166.418	-0.085288	0.841272	-0.378910	-0.380164	-0.053141	40.8976	-0.377935	-64602.3	8.225906E-7	NaN
1052	1.000000	0.852532	7.37534e+06	-52739.1	1055.82	-29748.2	0.000000	0.000000	6.853058	-0.028975	NaN	0.000000	0.001615	0.001808	28.0834	0.061373	0.001965	31.2363	30.5784	12.7395	0.044222	0.851231	-0.368903	-0.370205	-0.028975	31.2363	-0.368208	-46806.4	6.190445E-7	NaN
1052	1.000000	0.862563	7.37534e+06	-52739.1	1055.82	-29748.2	0.000000	0.000000	6.863087	-0.055386	NaN	0.000000	0.001628	0.001791	28.0835	0.070910	0.001782	39.7986	52.9493	-166.87	-0.049046	0.861279	-0.358872	-0.360156	-0.055386	39.7986	-0.357829	-33146.8	1.670921E-6	NaN
1052	1.000000	0.872566	7.37534e+06	-52739.1	1055.82	-29748.2	0.000000	0.000000	6.873091	-0.054745	NaN	0.000000	0.001632	0.001806	28.0846	0.049578	0.002063	24.0355	-18.2634	14.0563	-0.022988	0.871249	-0.348869	-0.350187	-0.054745	24.0355	-0.347161	-23215.2	2.358152E-6	NaN
1052	1.000000	0.882580	7.37534e+06	-52739.1	1055.82	-29748.2	0.000000	0.000000	6.883103	-0.080129	NaN	0.000000	0.001633	0.001754	28.085	0.079927	0.002076	38.5083	-145.401	-167.383	0.003833	0.881244	-0.338856	-0.340192	-0.080129	38.5083	-0.337295	-16676.5	4.804902E-6	NaN
1052	1.000000	0.892559	7.37534e+06	-52739.1	1055.82	-29748.2	0.000000	0.000000	6.893086	0.014842	NaN	0.000000	0.001661	0.001760	28.0846	0.074541	0.001922	38.7846	-126.603	12.302	0.035608	0.891203	-0.328877	-0.330232	0.014842	38.7846	-0.329164	-12682.3	-1.170251E-6	NaN
1052	1.000000	0.902597	7.37534e+06	-52739.1	1055.82	-29748.2	0.000000	0.000000	6.903121	-0.056849	NaN	0.000000	0.001631	0.001828	28.0846	0.045657	0.001899	24.0485	-20.8059	-167.153	-0.071605	0.901247	-0.318839	-0.320189	-0.056849	24.0485	-0.317066	-8422.04	6.750020E-6	NaN
1052	1.000000	0.912593	7.37534e+06	-52739.1	1055.82	-29748.2	0.000000	0.000000	6.913120	-0.005669	NaN	0.000000	0.001579	0.001813	28.0844	0.053463	0.002179	24.5361	-149.997	13.2266	0.022035	0.911278	-0.308842	-0.310157	-0.005669	24.5361	-0.308669	-6329.21	8.956997E-7	NaN
1052	1.000000	0.922579	7.37534e+06	-52739.1	1055.82	-29748.2	0.000000	0.000000	6.923104	-0.043822	NaN	0.000000	0.001608	0.001813	28.0847	0.070347	0.002068	34.0241	-83.8957	-170.16	-0.109504	0.921230	-0.298856	-0.300205	-0.043822	34.0241	-0.297890	-4377.33	1.001109E-5	NaN
1052	1.000000	0.932587	7.37534e+06	-52739.1	1055.82	-29748.2	0.000000	0.000000	6.933111	-0.051916	NaN	0.000000	0.001577	0.001776	28.0843	0.056101	0.001952	28.7339	150.471	9.899590	-0.004431	0.931281	-0.288849	-0.290155	-0.051916	28.7339	-0.287494	-3059.99	1.696620E-5	NaN
1052	1.000000	0.942602	7.37534e+06	-52739.1	1055.82	-29748.2	0.000000	0.000000	6.943129	-0.008879	NaN	0.000000	0.001600	0.001804	28.0845	0.081535	0.001933	42.1773	-72.3573	-167.276	-0.026046	0.941270	-0.278833	-0.280165	-0.008879	42.1773	-0.278675	-2254.1	3.939256E-6	NaN
1052	1.000000	0.952570	7.37534e+06	-52739.1	1055.82	-29748.2	0.000000	0.000000	6.953098	0.017057	NaN	0.000000	0.001653	0.001782	28.0845	0.106742	0.002078	51.3556	-94.3579	11.579	-0.005714	0.951214	-0.268865	-0.270222	0.017057	51.3556	-0.269114	-1614.63	-1.056425E-5	NaN
1052	1.000000	0.962637	7.37534e+06	-52739.1	1055.82	-29748.2	0.000000	0.000000	6.963162	-0.041403	NaN	0.000000	0.001669	0.001798	28.0845	0.123220	0.001911	64.4859	-144.473	-164.2	0.019137	0.961234	-0.258799	-0.260201	-0.041403	64.4859	-0.258317	-1104.35	3.749080E-5	NaN
1052	1.000000	0.972631	7.37534e+06	-52739.1	1055.82	-29748.2	0.000000	0.000000	6.973159	0.023145	NaN	0.000000	0.001720	0.001781	28.0844	0.055323	0.001851	29.8885	-156.153	10.964	0.002901	0.971217	-0.248804	-0.250219	0.023145	29.8885	-0.249385	-804.36	-2.877447E-5	NaN
1052	1.000000	0.982579	7.37534e+06	-52739.1	1055.82	-29748.2	0.000000	0.000000	6.983104	-0.049695	NaN	0.000000	0.001630	0.001800	28.0844	0.084069	0.002008	41.8693	166.562	-163.189	0.007611	0.981285	-0.238856	-0.240151	-0.049695	41.8693	-0.237966	-534.255	9.301672E-5	NaN
1052	1.000000	0.992611	7.37534e+06	-52739.1	1055.82	-29748.2	0.000000	0.000000	6.993138	0.005937	NaN	0.000000	0.001590	0.001809	28.0848	0.081639	0.001895	43.086	-144.928	10.8217	0.044692	0.991248	-0.228824	-0.230187	0.005937	43.086	-0.228927	-385.097	-1.541715E-5	NaN
1052	1.000000	1.002618	7.37534e+06	-52739.1	1055.82	-29748.2	0.000000	0.000000	7.003145	0.008505	NaN	0.000000	0.001607	0.001815	28.0847	0.049170	0.002116	23.2334	46.6795	-167.761	1.306202E-5	1.001263	-0.218818	-0.220172	0.008505	23.2334	-0.219092	-268.635	-3.166079E-5	NaN
1052	1.000000	1.012603	7.37534e+06	-52739.1	1055.82	-29748.2	0.000000	0.000000	7.013124	-0.128805	NaN	0.000000	0.001590	0.001757	28.0834	0.073024	0.001989	36.7063	-171.588	10.9532	-0.094767	1.011294	-0.208833	-0.210141	-0.128805	36.7063	-0.206201	-166.391	0.000774	NaN
1052	1.000000	1.022635	7.37534e+06	-52739.1	1055.82	-29748.2	0.000000	0.000000	7.023160	-0.021483	NaN	0.000000	0.001592	0.001799	28.0832	0.082980	0.001928	43.0409	-24.447	-163.735	-0.058103	1.021371	-0.198801	-0.200064	-0.021483	43.0409	-0.198426	-124.11	0.000173	NaN
1052	1.000000	1.032634	7.37534e+06	-52739.1	1055.82	-29748.2	0.000000	0.000000	7.033162	0.033851	NaN	0.000000	0.001619	0.001784	28.0834	0.034586	0.001970	17.5526	-1.757117	12.1479	0.049960	1.031256	-0.188802	-0.190179	0.033851	17.5526	-0.190248	-90.8185	-0.000373	NaN
1052	1.000000	1.042637	7.37534e+06	-52739.1	1055.82	-29748.2	0.000000	0.000000	7.043162	-0.047068	NaN	0.000000	0.001616	0.001771	28.0831	0.130236	0.001966	66.2597	26.2914	-168.408	0.023790	1.041307	-0.178798	-0.180128	-0.047068	66.2597	-0.178266	-57.0044	0.000826	NaN
1052	1.000000	1.052605	7.37534e+06	-52739.1	1055.82	-29748.2	0.000000	0.000000	7.053129	-0.064477	NaN	0.000000	0.001600	0.001795	28.083	0.118422	0.002063	57.4081	-163.926	14.6395	-0.104059	1.051271	-0.168831	-0.170165	-0.064477	57.4081	-0.167988	-37.8969	0.001701	NaN
1052	1.000000	1.062636	7.37534e+06	-52739.1	1055.82	-29748.2	0.000000	0.000000	7.063160	-0.045379	NaN	0.000000	0.001621	0.001751	28.0832	0.036304	0.002005	18.1052	-161.586	-166.081	0.023492	1.061246	-0.158800	-0.160189	-0.045379	18.1052	-0.156920	-24.157	0.001879	NaN
1052	1.000000	1.072641	7.37534e+06	-52739.1	1055.82	-29748.2	0.000000	0.000000	7.073164	-0.106384	NaN	0.000000	0.001638	0.001757	28.0832	0.039256	0.001972	19.9068	-109.404	10.3588	-0.185751	1.071350	-0.148794	-0.150086	-0.106384	19.9068	-0.144786	-14.528	0.007323	NaN
1052	1.000000	1.082656	7.37534e+06	-52739.1	1055.82	-29748.2	0.000000	0.000000	7.083182	-0.003978	NaN	0.000000	0.001630	0.001787	28.0833	0.057845	0.001945	29.7334	73.4903	-168.179	0.065463	1.081334	-0.138780	-0.140102	-0.003978	29.7334	-0.138679	-11.1714	0.000356	NaN
1052	1.000000	1.092687	7.37534e+06	-52739.1	1055.82	-29748.2	0.000000	0.000000	7.093210	-0.078247	NaN	0.000000	0.001649	0.001795	28.083	0.063518	0.001942	32.7106	103.645	13.7193	-0.139633	1.091283	-0.128748	-0.130152	-0.078247	32.7106	-0.126954	-6.645415	0.011775	NaN
1052	1.000000	1.102677	7.37534e+06	-52739.1	1055.82	-29748.2	0.000000	0.000000	7.103199	-0.113811	NaN	0.000000	0.001671	0.001741	28.0834	0.106947	0.002036	52.5366	-143.804	-163.055	-0.138487	1.101376	-0.118759	-0.120060	-0.113811	52.5366	-0.117134	-4.225637	0.026934	NaN
1052	1.000000	1.112666	7.37534e+06	-52739.1	1055.82	-29748.2	0.000000	0.000000	7.113191	-0.026815	NaN	0.000000	0.001624	0.001790	28.083	0.013309	0.002077	6.408155	-174.156	16.2362	-0.040654	1.111335	-0.108769	-0.110100	-0.026815	6.408155	-0.105631	-2.425402	0.011056	NaN
1052	1.000000	1.122686	7.37534e+06	-52739.1	1055.82	-29748.2	0.000000	0.000000	7.123210	-0.059170	NaN	0.000000	0.001621	0.001774	28.0831	0.108594	0.001915	56.7213	80.6373	-168.292	-0.040781	1.121352	-0.098749	-0.100083	-0.059170	56.7213	-0.097967	-1.646125	0.035945	NaN
1052	1.000000	1.132664	7.37534e+06	-52739.1	1055.82	-29748.2	0.000000	0.000000	7.133191	-0.008008	NaN	0.000000	0.001607	0.001782	28.0832	0.110579	0.002096	52.7453	152.295	12.1875	0.038460	1.131344	-0.088771	-0.090092	-0.008008	52.7453	-0.088657	-1.005030	0.007968	NaN
1052	1.000000	1.142674	7.37534e+06	-52739.1	1055.82	-29748.2	0.000000	0.000000	7.143198	-0.055680	NaN	0.000000	0.001612	0.001764	28.0836	0.090202	0.001902	47.4281	-122.631	-167.35	-0.069687	1.141337	-0.078762	-0.080099	-0.055680	47.4281	-0.077881	-0.547427	0.101712	NaN
1052	1.000000	1.152659	7.37534e+06	-52739.1	1055.82	-29748.2	0.000000	0.000000	7.153184	-0.035502	NaN	0.000000	0.001589	0.001753	28.0845	0.040613	0.002119	19.1646	-115.379	9.994054	-0.078264	1.151280	-0.068776	-0.070155	-0.035502	19.1646	-0.067387	-0.289899	0.122463	NaN
1052	1.000000	1.162679	7.37534e+06	-52739.1	1055.82	-29748.2	0.000000	0.000000	7.163205	-0.028129	NaN	0.000000	0.001551	0.001774	28.0843	0.109204	0.001939	56.3235	-87.7426	-165.788	-0.044051	1.161422	-0.058756	-0.060014	-0.028129	56.3235	-0.058381	-0.161745	0.173910	NaN
1052	1.000000	1.172672	7.37534e+06	-52739.1	1055.82	-29748.2	0.000000	0.000000	7.173198	0.003341	NaN	0.000000	0.001610	0.001801	28.0844	0.055408	0.001891	29.3043	93.2747	9.783311	-0.034085	1.171302	-0.048764	-0.050133	0.003341	29.3043	-0.048849	-0.084211	-0.039676	NaN
1052	1.000000	1.182693	7.37534e+06	-52739.1	1055.82	-29748.2	0.000000	0.000000	7.183218	-0.016322	NaN	0.000000	0.001605	0.001807	28.0846	0.073002	0.001812	40.286	-12.0852	-164.817	-0.055870	1.181338	-0.038743	-0.040098	-0.016322	40.286	-0.038439	-0.040560	0.402426	NaN
1052	1.000000	1.192672	7.37534e+06	-52739.1	1055.82	-29748.2	0.000000	0.000000	7.193196	-0.055929	NaN	0.000000	0.001582	0.001767	28.0845	0.015186	0.001926	7.884358	-113.067	14.5756	-0.058288	1.191318	-0.028764	-0.030117	-0.055929	7.884358	-0.023444	-0.015374	3.637789	NaN
1052	1.000000	1.202701	7.37534e+06	-52739.1	1055.82	-29748.2	0.000000	0.000000	7.203238	0.270407	NaN	0.000000	0.001584	0.001794	28.0846	0.553488	0.002055	269.31	14.8681	-164.944	0.176047	1.201390	-0.018735	-0.020045	0.270407	269.31	-0.019488	-0.012189	-22.184	NaN
1052	1.000000	1.212689	7.37534e+06	-52739.1	1055.82	-29748.2	0.000000	0.000000	7.213319	2.520161	NaN	0.000000	0.001594	0.001834	28.0847	1.358090	0.001943	698.903	14.8612	15.1913	2.383913	1.211311	-0.008747	-0.010124	2.520161	698.903	-0.011451	-0.007215	-349.28	NaN
1052	1.000000	1.222706	7.37534e+06	-52739.1	1055.82	-29748.2	0.000000	0.000000	7.223399	4.031021	NaN	0.000000	0.001591	0.001799	28.0845	3.761953	0.002077	1810.87	18.7379	-174.127	3.121473	1.221392	0.001271	-4.294852E-5	4.031021	1810.87	-0.000399	-0.000296	-13635.9	NaN
1052	2.000000	1.227909	7.37534e+06	-52739.1	1055.82	-29748.2	0.000000	0.000000	7.228833	9.658052	NaN	0.000000	0.001574	0.001719	28.0847	8.670158	0.001668	5198.64	4.100032	10.961	9.383800	1.227564	0.006474	0.006128	9.658052	5198.64	0.005080	0.004207	2295.84	73230
1052	2.000000	1.230355	7.37534e+06	-52739.1	1055.82	-29748.2	0.000000	0.000000	7.231392	12.3979	NaN	0.000000	0.001585	0.001717	28.0844	11.7251	0.001669	7024.09	-0.037626	-168.007	12.1429	1.230111	0.008920	0.008675	12.3979	7024.09	0.007596	0.006630	1869.88	78812.6
1052	2.000000	1.232901	7.37534e+06	-52739.1	1055.82	-29748.2	0.000000	0.000000	7.234120	16.8232	NaN	0.000000	0.001621	0.001698	28.0844	14.7786	0.001683	8778.6	4.596811	6.215221	16.0066	1.232495	0.011466	0.011059	16.8232	8778.6	0.010028	0.009213	1826.02	83559.6
1052	2.000000	1.235387	7.37534e+06	-52739.1	1055.82	-29748.2	0.000000	0.000000	7.236756	20.475	NaN	0.000000	0.001590	0.001728	28.0844	17.4203	0.001802	9669.51	5.460950	-174.111	21.1007	1.234991	0.013952	0.013556	20.475	9669.51	0.012364	0.011929	1716.42	80886.7
1052	2.000000	1.237840	7.37534e+06	-52739.1	1055.82	-29748.2	0.000000	0.000000	7.239280	22.2255	NaN	0.000000	0.001609	0.001729	28.0843	19.7574	0.001814	10889.7	8.114815	0.704585	21.8631	1.237402	0.016404	0.015967	22.2255	10889.7	0.014873	0.015117	1470.23	80919.8
1052	2.000000	1.240333	7.37534e+06	-52739.1	1055.82	-29748.2	0.000000	0.000000	7.241868	24.5156	NaN	0.000000	0.001654	0.001784	28.0834	21.9254	0.001787	12268.8	5.977706	-177.646	24.1506	1.240020	0.018898	0.018585	24.5156	12268.8	0.017399	0.018619	1316.7	82148
1052	2.000000	1.242810	7.37534e+06	-52739.1	1055.82	-29748.2	0.000000	0.000000	7.244586	30.3647	NaN	0.000000	0.001600	0.001752	28.0832	24.1966	0.001810	13369.1	5.770007	1.214612	28.6657	1.242423	0.021375	0.020988	30.3647	13369.1	0.019672	0.022029	1378.4	82295.9
1052	2.000000	1.245264	7.37534e+06	-52739.1	1055.82	-29748.2	0.000000	0.000000	7.247170	33.5223	NaN	0.000000	0.001583	0.001711	28.0833	26.7077	0.001766	15122.8	8.939602	176.172	31.7616	1.245014	0.023829	0.023579	33.5223	15122.8	0.022166	0.026062	1286.28	85586.8
1052	2.000000	1.247750	7.37534e+06	-52739.1	1055.82	-29748.2	0.000000	0.000000	7.249834	37.8503	NaN	0.000000	0.001623	0.001737	28.0833	29.3546	0.001887	15557.2	4.098281	1.893938	34.0965	1.247347	0.026315	0.025912	37.8503	15557.2	0.024490	0.030095	1257.71	81933.4
1052	2.000000	1.250286	7.37534e+06	-52739.1	1055.82	-29748.2	0.000000	0.000000	7.252675	45.2786	NaN	0.000000	0.001606	0.001721	28.0834	31.2639	0.001787	17492.3	4.076849	-179.264	43.8362	1.249915	0.028851	0.028480	45.2786	17492.3	0.026909	0.034581	1309.36	85941.5
1052	2.000000	1.252814	7.37534e+06	-52739.1	1055.82	-29748.2	0.000000	0.000000	7.255336	48.5372	NaN	0.000000	0.001586	0.001710	28.0834	34.2127	0.001806	18946.8	9.849020	-5.095061	47.7952	1.252567	0.031378	0.031132	48.5372	18946.8	0.029457	0.039625	1224.9	86960.7
1052	2.000000	1.255226	7.37534e+06	-52739.1	1055.82	-29748.2	0.000000	0.000000	7.258236	60.383	NaN	0.000000	0.001633	0.001740	28.0832	35.0869	0.001670	21009.3	5.928733	177.032	58.5913	1.254973	0.033791	0.033538	60.383	21009.3	0.031635	0.044201	1366.11	91300.1
1052	2.000000	1.257831	7.37534e+06	-52739.1	1055.82	-29748.2	0.000000	0.000000	7.261107	66.8412	NaN	0.000000	0.001612	0.001749	28.0831	39.0644	0.001740	22446.5	6.002330	-2.720552	68.8879	1.257440	0.036396	0.036004	66.8412	22446.5	0.034162	0.049813	1341.84	91885.9
1052	2.000000	1.260249	7.37534e+06	-52739.1	1055.82	-29748.2	0.000000	0.000000	7.263965	77.547	NaN	0.000000	0.001589	0.001752	28.0833	42.306	0.001688	25057.1	5.986954	176.086	77.5243	1.259968	0.038814	0.038533	77.547	25057.1	0.036493	0.055279	1402.82	97369.4
1052	2.000000	1.262721	7.37534e+06	-52739.1	1055.82	-29748.2	0.000000	0.000000	7.266769	85.6123	NaN	0.000000	0.001617	0.001699	28.0831	44.5161	0.001773	25107.4	8.157802	-6.873771	79.8728	1.262349	0.041286	0.040913	85.6123	25107.4	0.038728	0.060783	1408.49	93043
1052	2.000000	1.265273	7.37534e+06	-52739.1	1055.82	-29748.2	0.000000	0.000000	7.269650	93.6276	NaN	0.000000	0.001583	0.001717	28.0832	47.372	0.001838	25775.6	7.557519	173.833	93.748	1.264936	0.043837	0.043500	93.6276	25775.6	0.041113	0.066937	1398.75	91022.5
1052	2.000000	1.267798	7.37534e+06	-52739.1	1055.82	-29748.2	0.000000	0.000000	7.272610	104.182	NaN	0.000000	0.001619	0.001725	28.0832	50.1548	0.001614	31073.8	4.696480	-6.160990	101.259	1.267412	0.046363	0.045977	104.182	31073.8	0.043848	0.074351	1401.22	104117
1052	2.000000	1.270217	7.37534e+06	-52739.1	1055.82	-29748.2	0.000000	0.000000	7.275617	118.502	NaN	0.000000	0.001583	0.001771	28.0833	53.9872	0.001878	28742.6	5.499576	174.873	115.841	1.269934	0.048781	0.048499	118.502	28742.6	0.045689	0.079556	1489.54	93102.8
1052	2.000000	1.272771	7.37534e+06	-52739.1	1055.82	-29748.2	0.000000	0.000000	7.278551	127.73	NaN	0.000000	0.001697	0.001724	28.083	55.8501	0.001774	31477.2	2.863367	-3.117515	125.321	1.272451	0.051335	0.051015	127.73	31477.2	0.048292	0.087207	1464.68	97385.6
1052	2.000000	1.275174	7.37534e+06	-52739.1	1055.82	-29748.2	0.000000	0.000000	7.281623	144.007	NaN	0.000000	0.001710	0.001726	28.0844	58.1176	0.001800	32294.4	4.941992	174.163	138.886	1.274915	0.053739	0.053480	144.007	32294.4	0.050394	0.093636	1537.95	96422.8
1052	2.000000	1.277683	7.37534e+06	-52739.1	1055.82	-29748.2	0.000000	0.000000	7.284755	159.153	NaN	0.000000	0.001712	0.001740	28.0846	60.678	0.001768	34310.7	3.082040	-4.100719	153.289	1.277373	0.056247	0.055937	159.153	34310.7	0.052768	0.101161	1573.26	98558.7
1052	2.000000	1.280158	7.37534e+06	-52739.1	1055.82	-29748.2	0.000000	0.000000	7.287779	172.484	NaN	0.000000	0.001691	0.001725	28.0843	63.3394	0.001669	37945	-0.841617	179.085	166.316	1.279902	0.058723	0.058466	172.484	37945	0.055313	0.109541	1574.6	104746
1052	2.000000	1.282702	7.37534e+06	-52739.1	1055.82	-29748.2	0.000000	0.000000	7.291102	191.44	NaN	0.000000	0.001669	0.001741	28.0843	67.0585	0.001801	37240.6	7.155092	-8.143733	186.918	1.282214	0.061266	0.060779	191.44	37240.6	0.057411	0.116688	1640.61	99603.9
1052	2.000000	1.285105	7.37534e+06	-52739.1	1055.82	-29748.2	0.000000	0.000000	7.294150	207.124	NaN	0.000000	0.001653	0.001754	28.0844	68.5805	0.001796	38190.8	1.440329	176.814	200.166	1.284832	0.063670	0.063397	207.124	38190.8	0.059602	0.124385	1665.18	98934.5
1052	2.000000	1.287737	7.37534e+06	-52739.1	1055.82	-29748.2	0.000000	0.000000	7.297500	224.569	NaN	0.000000	0.001634	0.001732	28.0844	73.1349	0.001761	41523.3	5.295852	-7.729152	222.097	1.287294	0.066302	0.065859	224.569	41523.3	0.062245	0.133983	1676.1	103643
1052	2.000000	1.290209	7.37534e+06	-52739.1	1055.82	-29748.2	0.000000	0.000000	7.300899	247.129	NaN	0.000000	0.001643	0.001720	28.0841	76.7673	0.001910	40197	8.383665	169.613	244.079	1.289803	0.068773	0.068368	247.129	40197	0.064162	0.141155	1750.76	97750.5
1052	2.000000	1.292676	7.37534e+06	-52739.1	1055.82	-29748.2	0.000000	0.000000	7.304212	267.677	NaN	0.000000	0.001680	0.001752	28.0843	78.522	0.001885	41652.5	7.569673	-10.0299	261.067	1.292341	0.071241	0.070906	267.677	41652.5	0.066421	0.149835	1786.48	98312.3
1052	2.000000	1.295264	7.37534e+06	-52739.1	1055.82	-29748.2	0.000000	0.000000	7.307564	286.238	NaN	0.000000	0.001637	0.001727	28.0846	80.7365	0.001772	45558.6	5.523743	170.921	287.068	1.294980	0.073829	0.073545	286.238	45558.6	0.069117	0.160514	1783.26	103893
1052	2.000000	1.297784	7.37534e+06	-52739.1	1055.82	-29748.2	0.000000	0.000000	7.311022	309.065	NaN	0.000000	0.001654	0.001690	28.0845	83.5194	0.001689	49440.8	5.474130	-9.455919	310.413	1.297330	0.076349	0.075894	309.065	49440.8	0.071660	0.170907	1808.38	109264
1052	2.000000	1.300099	7.37534e+06	-52739.1	1055.82	-29748.2	0.000000	0.000000	7.314187	329.714	NaN	0.000000	0.001667	0.001738	28.0841	87.4463	0.001847	47334.8	3.762366	172.31	324.415	1.299963	0.078664	0.078528	329.714	47334.8	0.073440	0.178362	1848.57	102401
1052	2.000000	1.302676	7.37534e+06	-52739.1	1055.82	-29748.2	0.000000	0.000000	7.317908	357.538	NaN	0.000000	0.001640	0.001703	28.0845	87.7531	0.001728	50791	2.631023	-6.291461	352.398	1.302330	0.081241	0.080894	357.538	50791	0.075961	0.189180	1889.94	106690
1052	2.000000	1.305128	7.37534e+06	-52739.1	1055.82	-29748.2	0.000000	0.000000	7.321242	378.979	NaN	0.000000	0.001654	0.001735	28.0843	90.1714	0.001701	53003.2	2.668840	172.833	372.817	1.304824	0.083693	0.083388	378.979	53003.2	0.078330	0.199616	1898.54	108387
1052	2.000000	1.307725	7.37534e+06	-52739.1	1055.82	-29748.2	0.000000	0.000000	7.324902	404.848	NaN	0.000000	0.001685	0.001742	28.0839	93.4462	0.001854	50389.1	3.238906	-7.384138	402.457	1.307427	0.086289	0.085992	404.848	50389.1	0.080264	0.208327	1943.33	100864
1052	2.000000	1.310197	7.37534e+06	-52739.1	1055.82	-29748.2	0.000000	0.000000	7.328349	428.545	NaN	0.000000	0.001687	0.001729	28.0831	95.8752	0.001809	53008.5	6.798460	169.105	427.235	1.309949	0.088761	0.088514	428.545	53008.5	0.082698	0.219542	1951.99	103362
1052	2.000000	1.312695	7.37534e+06	-52739.1	1055.82	-29748.2	0.000000	0.000000	7.332287	463.555	NaN	0.000000	0.001714	0.001726	28.0831	97.2685	0.001842	52814.3	4.801312	-9.101247	459.271	1.312356	0.091259	0.090921	463.555	52814.3	0.084676	0.228860	2025.49	100865
1052	2.000000	1.315163	7.37534e+06	-52739.1	1055.82	-29748.2	0.000000	0.000000	7.335894	491.257	NaN	0.000000	0.001691	0.001722	28.0833	99.9268	0.001844	54195.4	7.550304	167.94	487.399	1.314878	0.093727	0.093443	491.257	54195.4	0.086929	0.239689	2049.56	101137
1052	2.000000	1.317596	7.37534e+06	-52739.1	1055.82	-29748.2	0.000000	0.000000	7.339189	512.2	NaN	0.000000	0.001654	0.001724	28.0829	100.392	0.001703	58955.8	0.949830	-6.197017	504.154	1.317315	0.096161	0.095879	512.2	58955.8	0.089645	0.253056	2024.06	107076
1052	2.000000	1.320096	7.37534e+06	-52739.1	1055.82	-29748.2	0.000000	0.000000	7.343054	545.386	NaN	0.000000	0.001610	0.001751	28.0833	104.737	0.001740	60189.4	3.213578	171.523	539.999	1.319836	0.098661	0.098400	545.386	60189.4	0.091865	0.264234	2064.02	106979
1052	2.000000	1.322652	7.37534e+06	-52739.1	1055.82	-29748.2	0.000000	0.000000	7.347065	580.777	NaN	0.000000	0.001592	0.001716	28.083	107.124	0.001743	61454.4	8.682657	-14.1552	575.536	1.322278	0.101217	0.100843	580.777	61454.4	0.094129	0.275867	2105.28	106900
1052	2.000000	1.324629	7.37534e+06	-52739.1	1055.82	-29748.2	0.000000	0.000000	7.350387	613.48	NaN	0.000000	0.001616	0.001729	28.0829	108.222	0.001745	62000.6	6.829095	-12.554	607.006	1.324243	0.103193	0.102808	613.48	62000.6	0.095772	0.284456	2156.68	106209