File: remote_trans/data/nanoindenter/0828-1/data/Data_2025-08-06,11h17m57s/2025-07-22_16-23-58_1_21.txt
2025-07-22, 16:23:58, 1
Index	Phase	Displacement	Time	Pos X	Pos Y	Pos Z	Rot A	Rot B	Piezo Z	Force A	Force B	Gripper	Voltage A	Voltage B	Temperature	Amplitude force	Amplitude pos	Stiffness	Phase shift	Phase excitation	Force A raw	Displacement raw	HMax	HMax raw	Real Force	Real Stiffness	Contact Depth	Area	Hardness	Reduced Mod.
[#]	[#]	[um]	[s]	[um]	[um]	[um]	[m°]	[m°]	[um]	[uN]	[uN]	[V]	[V]	[V]	[°C]	[uN]	[um]	[N/m]	[°]	[°]	[uN]	[um]	[um]	[um]	[uN]	[N/m]	[um]	[um^2]	[MPa]	[MPa]
21	1.000000	0.002330	7.36524e+06	-39689.1	955.819	-29793.7	0.000000	0.000000	6.002737	0.057122	NaN	0.000000	0.001572	0.001643	28.1095	0.079675	0.001040	76.6363	8.368649	176.533	0.037577	0.001082	-0.978929	-0.980177	0.057122	76.6363	-0.979488	-1.200913E+13	-4.756514E-15	NaN
21	1.000000	0.010321	7.36524e+06	-39689.1	955.819	-29793.7	0.000000	0.000000	6.010725	0.007216	NaN	0.000000	0.001570	0.001613	28.1089	0.028086	0.000944	29.7562	114.833	170.673	0.036248	0.008979	-0.970938	-0.972280	0.007216	29.7562	-0.971120	-9.263145E+12	-7.790195E-16	NaN
21	1.000000	0.018302	7.36524e+06	-39689.1	955.819	-29793.7	0.000000	0.000000	6.018709	0.056907	NaN	0.000000	0.001612	0.001654	28.1081	0.038265	0.001569	24.3884	-162.014	177.708	0.047576	0.017023	-0.962957	-0.964237	0.056907	24.3884	-0.964707	-7.591417E+12	-7.496184E-15	NaN
21	1.000000	0.026315	7.36525e+06	-39689.1	955.819	-29793.7	0.000000	0.000000	6.026721	0.050088	NaN	0.000000	0.001620	0.001694	28.1083	0.033839	0.001821	18.5845	-61.0354	178.601	0.054697	0.024961	-0.954945	-0.956298	0.050088	18.5845	-0.956966	-5.969881E+12	-8.390136E-15	NaN
21	1.000000	0.034288	7.36525e+06	-39689.1	955.819	-29793.7	0.000000	0.000000	6.034692	0.018893	NaN	0.000000	0.001618	0.001657	28.1083	0.019122	0.002068	9.247016	40.9466	178.711	0.066056	0.032984	-0.946972	-0.948276	0.018893	9.247016	-0.948504	-4.590393E+12	-4.115677E-15	NaN
21	1.000000	0.042279	7.36525e+06	-39689.1	955.818	-29793.7	0.000000	0.000000	6.042679	-0.077545	NaN	0.000000	0.001611	0.001687	28.1091	0.018770	0.001989	9.439140	-96.0485	179.345	-0.110452	0.040991	-0.938981	-0.940269	-0.077545	9.439140	-0.932819	-2.819988E+12	2.749824E-14	NaN
21	1.000000	0.050289	7.36525e+06	-39689.1	955.818	-29793.7	0.000000	0.000000	6.050694	0.031265	NaN	0.000000	0.001569	0.001677	28.1083	0.055323	0.001961	28.2093	-12.9876	178.669	-0.000245	0.049011	-0.930971	-0.932249	0.031265	28.2093	-0.931802	-2.732230E+12	-1.144287E-14	NaN
21	1.000000	0.058278	7.36525e+06	-39689.1	955.818	-29793.7	0.000000	0.000000	6.058680	-0.057989	NaN	0.000000	0.001590	0.001660	28.1092	0.059562	0.002005	29.7105	-77.1259	176.468	-0.101003	0.056955	-0.922981	-0.924304	-0.057989	29.7105	-0.921517	-1.984674E+12	2.921854E-14	NaN
21	1.000000	0.066318	7.36525e+06	-39689.1	955.819	-29793.7	0.000000	0.000000	6.066720	-0.037043	NaN	0.000000	0.001605	0.001690	28.1097	0.007432	0.002037	3.648434	-55.8742	176.498	0.039613	0.064982	-0.914941	-0.916277	-0.037043	3.648434	-0.907327	-1.276588E+12	2.901721E-14	NaN
21	1.000000	0.074282	7.36525e+06	-39689.1	955.819	-29793.7	0.000000	0.000000	6.074689	0.062945	NaN	0.000000	0.001603	0.001619	28.1094	0.063754	0.001968	32.3917	58.9019	178.271	0.114665	0.072928	-0.906977	-0.908332	0.062945	32.3917	-0.908434	-1.321341E+12	-4.763748E-14	NaN
21	1.000000	0.082306	7.36525e+06	-39689.1	955.819	-29793.7	0.000000	0.000000	6.082709	-0.007854	NaN	0.000000	0.001543	0.001646	28.1099	0.100965	0.001990	50.739	-43.5328	176.424	-0.008963	0.080935	-0.898954	-0.900324	-0.007854	50.739	-0.898837	-9.802959E+11	8.012128E-15	NaN
21	1.000000	0.090293	7.36525e+06	-39689.1	955.818	-29793.7	0.000000	0.000000	6.090693	-0.077469	NaN	0.000000	0.001556	0.001628	28.109	0.077243	0.001923	40.1668	-25.1056	175.627	-7.783744E-5	0.088965	-0.890967	-0.892294	-0.077469	40.1668	-0.889520	-7.335499E+11	1.056083E-13	NaN
21	1.000000	0.098313	7.36525e+06	-39689.1	955.819	-29793.7	0.000000	0.000000	6.098716	-0.039611	NaN	0.000000	0.001591	0.001661	28.1076	0.059091	0.001902	31.0663	-98.6359	179.218	-0.064444	0.096991	-0.882946	-0.884269	-0.039611	31.0663	-0.881990	-5.802506E+11	6.826583E-14	NaN
21	1.000000	0.106312	7.36525e+06	-39689.1	955.818	-29793.7	0.000000	0.000000	6.106714	-0.045711	NaN	0.000000	0.001550	0.001676	28.1078	0.072186	0.002130	33.8944	-74.4147	178.106	0.019298	0.104987	-0.874948	-0.876272	-0.045711	33.8944	-0.873936	-4.515390E+11	1.012328E-13	NaN
21	1.000000	0.114334	7.36525e+06	-39689.1	955.819	-29793.7	0.000000	0.000000	6.114737	-0.026857	NaN	0.000000	0.001574	0.001639	28.108	0.064700	0.002127	30.4159	3.794597	175.925	-0.064497	0.113001	-0.866925	-0.868258	-0.026857	30.4159	-0.866263	-3.555348E+11	7.554041E-14	NaN
21	1.000000	0.122305	7.36525e+06	-39689.1	955.818	-29793.7	0.000000	0.000000	6.122710	0.015915	NaN	0.000000	0.001615	0.001642	28.1083	0.020342	0.002000	10.1699	33.431	178.407	0.041812	0.121008	-0.858954	-0.860252	0.015915	10.1699	-0.860128	-2.936666E+11	-5.419512E-14	NaN
21	1.000000	0.130356	7.36525e+06	-39689.1	955.818	-29793.7	0.000000	0.000000	6.130759	-0.026026	NaN	0.000000	0.001581	0.001634	28.1079	0.045209	0.002129	21.2363	-93.46	-179.197	0.014435	0.129019	-0.850903	-0.852240	-0.026026	21.2363	-0.849984	-2.140539E+11	1.215872E-13	NaN
21	1.000000	0.138328	7.36525e+06	-39689.1	955.818	-29793.7	0.000000	0.000000	6.138732	0.000555	NaN	0.000000	0.001588	0.001641	28.1089	0.036806	0.001965	18.7293	-59.1423	176.911	0.056830	0.136976	-0.842931	-0.844283	0.000555	18.7293	-0.842954	-1.719107E+11	-3.227847E-15	NaN
21	1.000000	0.146320	7.36525e+06	-39689.1	955.819	-29793.7	0.000000	0.000000	6.146725	0.026562	NaN	0.000000	0.001603	0.001670	28.1086	0.071300	0.002038	34.9784	-172.36	177.722	0.051896	0.145011	-0.834939	-0.836248	0.026562	34.9784	-0.835509	-1.362829E+11	-1.949021E-13	NaN
21	1.000000	0.154308	7.36525e+06	-39689.1	955.819	-29793.7	0.000000	0.000000	6.154711	-0.010892	NaN	0.000000	0.001610	0.001664	28.1082	0.022205	0.002088	10.6349	145.297	179.163	0.015273	0.153025	-0.826951	-0.828234	-0.010892	10.6349	-0.826183	-1.018706E+11	1.069239E-13	NaN
21	1.000000	0.162339	7.36525e+06	-39689.1	955.819	-29793.7	0.000000	0.000000	6.162740	-0.089373	NaN	0.000000	0.001603	0.001643	28.1077	0.031738	0.001982	16.0118	43.8506	177.699	-0.012170	0.161083	-0.818920	-0.820176	-0.089373	16.0118	-0.814734	-7.125035E+10	1.254351E-12	NaN
21	1.000000	0.170357	7.36525e+06	-39689.1	955.818	-29793.7	0.000000	0.000000	6.170761	-0.016785	NaN	0.000000	0.001577	0.001646	28.1075	0.061223	0.001983	30.8725	135.373	179.755	0.016699	0.169040	-0.810902	-0.812219	-0.016785	30.8725	-0.810494	-6.241331E+10	2.689319E-13	NaN
21	1.000000	0.178331	7.36525e+06	-39689.1	955.818	-29793.7	0.000000	0.000000	6.178732	-0.063946	NaN	0.000000	0.001620	0.001633	28.1061	0.060893	0.002061	29.5461	-107.183	179.079	-0.126190	0.177030	-0.802928	-0.804230	-0.063946	29.5461	-0.801305	-4.683583E+10	1.365318E-12	NaN
21	1.000000	0.186312	7.36525e+06	-39689.1	955.818	-29793.7	0.000000	0.000000	6.186716	0.016814	NaN	0.000000	0.001537	0.001651	28.107	0.032409	0.002028	15.9784	-82.0794	178.751	-0.033200	0.185042	-0.794948	-0.796217	0.016814	15.9784	-0.795737	-3.935404E+10	-4.272551E-13	NaN
21	1.000000	0.194349	7.36525e+06	-39689.1	955.818	-29793.7	0.000000	0.000000	6.194752	-0.016509	NaN	0.000000	0.001576	0.001616	28.1069	0.032638	0.001995	16.3595	-160.157	174.696	-0.049200	0.193003	-0.786910	-0.788257	-0.016509	16.3595	-0.786153	-2.916312E+10	5.660852E-13	NaN
21	1.000000	0.202359	7.36525e+06	-39689.1	955.818	-29793.7	0.000000	0.000000	6.202763	-0.001229	NaN	0.000000	0.001593	0.001629	28.1063	0.105958	0.002002	52.9201	-147.431	179.981	0.000290	0.201047	-0.778900	-0.780213	-0.001229	52.9201	-0.778883	-2.323019E+10	5.288452E-14	NaN
21	1.000000	0.210342	7.36525e+06	-39689.1	955.818	-29793.7	0.000000	0.000000	6.210747	0.013906	NaN	0.000000	0.001553	0.001656	28.1065	0.057162	0.001983	28.8224	-131.887	179.571	0.007640	0.209016	-0.770917	-0.772243	0.013906	28.8224	-0.771279	-1.831025E+10	-7.594569E-13	NaN
21	1.000000	0.218339	7.36525e+06	-39689.1	955.819	-29793.7	0.000000	0.000000	6.218745	0.041709	NaN	0.000000	0.001574	0.001652	28.1071	0.055238	0.001927	28.6642	-117.274	176.906	0.040831	0.217034	-0.762920	-0.764225	0.041709	28.6642	-0.764011	-1.458371E+10	-2.859951E-12	NaN
21	1.000000	0.226356	7.36525e+06	-39689.1	955.818	-29793.7	0.000000	0.000000	6.226760	-0.004929	NaN	0.000000	0.001575	0.001640	28.1076	0.044366	0.001996	22.2228	-178.953	178.076	0.018677	0.225024	-0.754903	-0.756236	-0.004929	22.2228	-0.754737	-1.090668E+10	4.519487E-13	NaN
21	1.000000	0.234348	7.36525e+06	-39689.1	955.819	-29793.7	0.000000	0.000000	6.234752	0.001483	NaN	0.000000	0.001580	0.001629	28.1077	0.021056	0.001967	10.7071	-147.768	179.28	-0.027819	0.233074	-0.746911	-0.748186	0.001483	10.7071	-0.747015	-8.562224E+9	-1.732095E-13	NaN
21	1.000000	0.242389	7.36525e+06	-39689.1	955.818	-29793.7	0.000000	0.000000	6.242792	-0.030640	NaN	0.000000	0.001584	0.001632	28.1068	0.040659	0.001954	20.8107	-109.958	176.757	-0.081820	0.241084	-0.738870	-0.740175	-0.030640	20.8107	-0.737766	-6.406540E+9	4.782627E-12	NaN
21	1.000000	0.250345	7.36525e+06	-39689.1	955.818	-29793.7	0.000000	0.000000	6.250749	0.017254	NaN	0.000000	0.001606	0.001626	28.1078	0.098306	0.002025	48.546	169.436	178.572	-0.033345	0.249060	-0.730915	-0.732200	0.017254	48.546	-0.731181	-5.210807E+9	-3.311248E-12	NaN
21	1.000000	0.258369	7.36525e+06	-39689.1	955.818	-29793.7	0.000000	0.000000	6.258775	0.049248	NaN	0.000000	0.001574	0.001652	28.1056	0.065932	0.002029	32.4885	8.142921	175.513	0.029762	0.257062	-0.722891	-0.724198	0.049248	32.4885	-0.724028	-4.162869E+9	-1.183023E-11	NaN
21	1.000000	0.266360	7.36525e+06	-39689.1	955.818	-29793.7	0.000000	0.000000	6.266763	-0.001942	NaN	0.000000	0.001567	0.001678	28.1062	0.053317	0.002004	26.6075	130.79	175.798	-0.065756	0.265036	-0.714900	-0.716223	-0.001942	26.6075	-0.714845	-3.120022E+9	6.225767E-13	NaN
21	1.000000	0.274350	7.36525e+06	-39689.1	955.818	-29793.7	0.000000	0.000000	6.274750	-0.108706	NaN	0.000000	0.001598	0.001650	28.1061	0.037718	0.001817	20.7583	40.9275	179.815	-0.097618	0.273056	-0.706909	-0.708203	-0.108706	20.7583	-0.702981	-2.149026E+9	5.058390E-11	NaN
21	1.000000	0.282389	7.36525e+06	-39689.1	955.819	-29793.7	0.000000	0.000000	6.282792	-0.003290	NaN	0.000000	0.001589	0.001639	28.1056	0.031223	0.002056	15.1895	97.6699	178.809	0.013348	0.281042	-0.698871	-0.700218	-0.003290	15.1895	-0.698708	-1.878842E+9	1.750830E-12	NaN
21	1.000000	0.290396	7.36525e+06	-39689.1	955.818	-29793.7	0.000000	0.000000	6.290800	-0.008049	NaN	0.000000	0.001564	0.001645	28.1075	0.102066	0.002083	49.0101	110.427	179.144	-0.015856	0.289052	-0.690863	-0.692207	-0.008049	49.0101	-0.690740	-1.462281E+9	5.504464E-12	NaN
21	1.000000	0.298403	7.36525e+06	-39689.1	955.819	-29793.7	0.000000	0.000000	6.298811	0.088552	NaN	0.000000	0.001572	0.001635	28.108	0.040778	0.002105	19.3736	-71.2293	175.743	0.099990	0.297073	-0.682856	-0.684186	0.088552	19.3736	-0.686284	-1.270962E+9	-6.967282E-11	NaN
21	1.000000	0.306375	7.36525e+06	-39689.1	955.818	-29793.7	0.000000	0.000000	6.306780	0.018115	NaN	0.000000	0.001571	0.001612	28.1079	0.066363	0.002010	33.0099	47.0293	176.408	-0.059483	0.305050	-0.674884	-0.676209	0.018115	33.0099	-0.675296	-8.991957E+8	-2.014570E-11	NaN
21	1.000000	0.314399	7.36525e+06	-39689.1	955.818	-29793.7	0.000000	0.000000	6.314805	0.056891	NaN	0.000000	0.001574	0.001576	28.1085	0.100380	0.001887	53.2074	-93.8281	179.639	0.022980	0.313092	-0.666860	-0.668168	0.056891	53.2074	-0.667662	-7.069507E+8	-8.047408E-11	NaN
21	1.000000	0.322407	7.36525e+06	-39689.1	955.818	-29793.7	0.000000	0.000000	6.322809	-0.040403	NaN	0.000000	0.001589	0.001634	28.1083	0.060420	0.002101	28.7561	121.237	177.168	0.024900	0.321112	-0.658852	-0.660148	-0.040403	28.7561	-0.657799	-5.179779E+8	7.800203E-11	NaN
21	1.000000	0.330371	7.36525e+06	-39689.1	955.818	-29793.7	0.000000	0.000000	6.330778	0.075056	NaN	0.000000	0.001539	0.001634	28.1079	0.116893	0.002048	57.0879	-107.533	178.893	0.030371	0.329032	-0.650889	-0.652228	0.075056	57.0879	-0.651875	-4.296719E+8	-1.746813E-10	NaN
21	1.000000	0.338397	7.36525e+06	-39689.1	955.818	-29793.7	0.000000	0.000000	6.338799	-0.025813	NaN	0.000000	0.001617	0.001604	28.1074	0.048735	0.001985	24.5554	178.389	177.81	-0.045321	0.337072	-0.642863	-0.644188	-0.025813	24.5554	-0.642074	-3.153176E+8	8.186497E-11	NaN
21	1.000000	0.346434	7.36525e+06	-39689.1	955.818	-29793.7	0.000000	0.000000	6.346837	-0.028225	NaN	0.000000	0.001587	0.001593	28.1069	0.065966	0.001954	33.7514	26.3369	177.41	-0.042340	0.345055	-0.634825	-0.636204	-0.028225	33.7514	-0.634198	-2.458481E+8	1.148069E-10	NaN
21	1.000000	0.354418	7.36525e+06	-39689.1	955.819	-29793.7	0.000000	0.000000	6.354819	-0.062018	NaN	0.000000	0.001560	0.001591	28.1068	0.151193	0.001974	76.599	60.2262	176.495	-0.045979	0.353106	-0.626841	-0.628154	-0.062018	76.599	-0.626234	-1.911165E+8	3.245040E-10	NaN
21	1.000000	0.362414	7.36525e+06	-39689.1	955.818	-29793.7	0.000000	0.000000	6.362818	0.017069	NaN	0.000000	0.001595	0.001580	28.1064	0.026706	0.002081	12.8348	-6.617647	179.846	0.015183	0.361078	-0.618846	-0.620181	0.017069	12.8348	-0.619843	-1.561263E+8	-1.093260E-10	NaN
21	1.000000	0.370401	7.36525e+06	-39689.1	955.818	-29793.7	0.000000	0.000000	6.370802	-0.052522	NaN	0.000000	0.001593	0.001619	28.1066	0.077411	0.002084	37.1476	107.136	178.193	-0.033979	0.369085	-0.610859	-0.612175	-0.052522	37.1476	-0.609798	-1.135900E+8	4.623844E-10	NaN
21	1.000000	0.378457	7.36525e+06	-39689.1	955.818	-29793.7	0.000000	0.000000	6.378861	0.014516	NaN	0.000000	0.001592	0.001597	28.1078	0.028315	0.001998	14.1748	60.8969	178.993	-0.009566	0.377102	-0.602803	-0.604158	0.014516	14.1748	-0.603571	-9.324563E+7	-1.556799E-10	NaN
21	1.000000	0.386430	7.36525e+06	-39689.1	955.819	-29793.7	0.000000	0.000000	6.386832	-0.035643	NaN	0.000000	0.001616	0.001627	28.1078	0.021796	0.002052	10.6234	5.725424	177.684	-0.072765	0.385114	-0.594830	-0.596145	-0.035643	10.6234	-0.592313	-6.524609E+7	5.462865E-10	NaN
21	1.000000	0.394439	7.36525e+06	-39689.1	955.818	-29793.7	0.000000	0.000000	6.394841	-0.050058	NaN	0.000000	0.001596	0.001652	28.1076	0.057548	0.002063	27.902	117.694	178.299	0.035773	0.393163	-0.586820	-0.588097	-0.050058	27.902	-0.585475	-5.251264E+7	9.532505E-10	NaN
21	1.000000	0.402442	7.36525e+06	-39689.1	955.818	-29793.7	0.000000	0.000000	6.402844	-0.057635	NaN	0.000000	0.001583	0.001604	28.1074	0.022977	0.002074	11.0799	23.6558	178.281	-0.071819	0.401107	-0.578817	-0.580152	-0.057635	11.0799	-0.574916	-3.754333E+7	1.535157E-9	NaN
21	1.000000	0.410433	7.36525e+06	-39689.1	955.818	-29793.7	0.000000	0.000000	6.410834	-0.060057	NaN	0.000000	0.001621	0.001604	28.1082	0.102379	0.002035	50.2975	-73.7546	179.656	-0.067409	0.409114	-0.570826	-0.572146	-0.060057	50.2975	-0.569931	-3.203893E+7	1.874514E-9	NaN
21	1.000000	0.418474	7.36525e+06	-39689.1	955.818	-29793.7	0.000000	0.000000	6.418877	-0.021124	NaN	0.000000	0.001592	0.001613	28.1065	0.101791	0.002077	49.011	89.674	173.915	0.054561	0.417111	-0.562786	-0.564148	-0.021124	49.011	-0.562463	-2.526030E+7	8.362375E-10	NaN
21	1.000000	0.426442	7.36525e+06	-39689.1	955.818	-29793.7	0.000000	0.000000	6.426845	-0.016598	NaN	0.000000	0.001585	0.001639	28.1056	0.023667	0.001963	12.058	-93.1691	178.962	-0.025789	0.425119	-0.554818	-0.556141	-0.016598	12.058	-0.553785	-1.915892E+7	8.663496E-10	NaN
21	1.000000	0.434438	7.36525e+06	-39689.1	955.819	-29793.7	0.000000	0.000000	6.434842	-0.009972	NaN	0.000000	0.001647	0.001591	28.1053	0.075117	0.001976	38.0124	64.8125	178.432	0.009345	0.433140	-0.546821	-0.548120	-0.009972	38.0124	-0.546624	-1.524718E+7	6.540214E-10	NaN
21	1.000000	0.442443	7.36525e+06	-39689.1	955.819	-29793.7	0.000000	0.000000	6.442846	-0.021021	NaN	0.000000	0.001614	0.001581	28.1052	0.137394	0.001853	74.1643	-143.315	-179.641	-0.040844	0.441139	-0.538817	-0.540120	-0.021021	74.1643	-0.538604	-1.180310E+7	1.780968E-9	NaN
21	1.000000	0.450428	7.36525e+06	-39689.1	955.818	-29793.7	0.000000	0.000000	6.450831	-0.005993	NaN	0.000000	0.001610	0.001572	28.1057	0.060423	0.002044	29.5629	51.6856	174.963	-0.043688	0.449155	-0.530832	-0.532104	-0.005993	29.5629	-0.530680	-9.16245e+06	6.540640E-10	NaN
21	1.000000	0.458465	7.36525e+06	-39689.1	955.818	-29793.7	0.000000	0.000000	6.458870	0.019191	NaN	0.000000	0.001596	0.001631	28.1057	0.090789	0.002040	44.5124	-128.434	177.606	0.049718	0.457135	-0.522794	-0.524124	0.019191	44.5124	-0.523117	-7.19357e+06	-2.667763E-9	NaN
21	1.000000	0.466455	7.36525e+06	-39689.1	955.819	-29793.7	0.000000	0.000000	6.466857	-0.047827	NaN	0.000000	0.001557	0.001611	28.1065	0.022661	0.002026	11.1858	-18.9001	177.712	-0.106634	0.465138	-0.514805	-0.516122	-0.047827	11.1858	-0.511598	-4.97357e+06	9.616279E-9	NaN
21	1.000000	0.474482	7.36525e+06	-39689.1	955.819	-29793.7	0.000000	0.000000	6.474884	-0.037458	NaN	0.000000	0.001633	0.001605	28.1064	0.066080	0.001997	33.084	-153.797	178.771	0.001125	0.473132	-0.506777	-0.508127	-0.037458	33.084	-0.505928	-4.14652e+06	9.033710E-9	NaN
21	1.000000	0.482482	7.36525e+06	-39689.1	955.818	-29793.7	0.000000	0.000000	6.482885	-0.033216	NaN	0.000000	0.001584	0.001598	28.1068	0.066154	0.002058	32.1495	105.784	174.712	-0.090234	0.481123	-0.498777	-0.500137	-0.033216	32.1495	-0.498002	-3.2147e+06	1.033253E-8	NaN
21	1.000000	0.490507	7.36525e+06	-39689.1	955.819	-29793.7	0.000000	0.000000	6.490913	0.053116	NaN	0.000000	0.001599	0.001592	28.1055	0.038834	0.002039	19.0471	36.2625	176.466	0.108077	0.489188	-0.490752	-0.492071	0.053116	19.0471	-0.492843	-2.72344e+06	-1.950308E-8	NaN
21	1.000000	0.498478	7.36525e+06	-39689.1	955.818	-29793.7	0.000000	0.000000	6.498881	-0.024367	NaN	0.000000	0.001613	0.001576	28.1051	0.073618	0.002046	35.9851	57.0278	176.47	-0.044461	0.497175	-0.482782	-0.484084	-0.024367	35.9851	-0.482274	-1.93799e+06	1.257314E-8	NaN
21	1.000000	0.506440	7.36525e+06	-39689.1	955.818	-29793.7	0.000000	0.000000	6.506842	-0.052194	NaN	0.000000	0.001607	0.001638	28.1045	0.015480	0.001822	8.498641	118.585	179.273	0.035219	0.505146	-0.474820	-0.476114	-0.052194	8.498641	-0.470213	-1.31341e+06	3.973928E-8	NaN
21	1.000000	0.514456	7.36525e+06	-39689.1	955.818	-29793.7	0.000000	0.000000	6.514859	-0.040366	NaN	0.000000	0.001591	0.001587	28.1045	0.148665	0.001929	77.0673	99.4656	176.523	-0.016906	0.513183	-0.466803	-0.468077	-0.040366	77.0673	-0.466410	-1.16156e+06	3.475119E-8	NaN
21	1.000000	0.522465	7.36525e+06	-39689.1	955.818	-29793.7	0.000000	0.000000	6.522870	0.033337	NaN	0.000000	0.001614	0.001599	28.104	0.039333	0.001950	20.1755	-135.418	175.339	-0.013359	0.521191	-0.458794	-0.460068	0.033337	20.1755	-0.460033	-945122	-3.527318E-8	NaN
21	1.000000	0.530456	7.36525e+06	-39689.1	955.818	-29793.7	0.000000	0.000000	6.530860	0.019087	NaN	0.000000	0.001618	0.001604	28.1054	0.049048	0.001991	24.6333	-21.6015	175.408	-0.013446	0.529162	-0.450804	-0.452097	0.019087	24.6333	-0.451385	-714234	-2.672314E-8	NaN
21	1.000000	0.538508	7.36525e+06	-39689.1	955.819	-29793.7	0.000000	0.000000	6.538913	0.022426	NaN	0.000000	0.001575	0.001626	28.1054	0.023309	0.001954	11.9276	142.077	176.824	0.096935	0.537157	-0.442751	-0.444103	0.022426	11.9276	-0.444161	-565022	-3.969110E-8	NaN
21	1.000000	0.546508	7.36525e+06	-39689.1	955.818	-29793.7	0.000000	0.000000	6.546910	-0.029647	NaN	0.000000	0.001590	0.001634	28.1053	0.020639	0.002145	9.622261	-120.515	179.401	0.047566	0.545201	-0.434752	-0.436058	-0.029647	9.622261	-0.432441	-385994	7.680712E-8	NaN
21	1.000000	0.554496	7.36525e+06	-39689.1	955.818	-29793.7	0.000000	0.000000	6.554902	0.049297	NaN	0.000000	0.001589	0.001611	28.1056	0.106915	0.001991	53.6876	124.764	173.908	0.027608	0.553192	-0.426764	-0.428068	0.049297	53.6876	-0.427452	-328103	-1.502499E-7	NaN
21	1.000000	0.562511	7.36525e+06	-39689.1	955.818	-29793.7	0.000000	0.000000	6.562915	0.005708	NaN	0.000000	0.001597	0.001585	28.1069	0.057077	0.002152	26.5275	-36.7941	-179.81	0.017222	0.561205	-0.418749	-0.420055	0.005708	26.5275	-0.418910	-248288	-2.299069E-8	NaN
21	1.000000	0.570502	7.36525e+06	-39689.1	955.818	-29793.7	0.000000	0.000000	6.570904	-0.062572	NaN	0.000000	0.001559	0.001622	28.1065	0.041882	0.001984	21.1152	-40.028	175.173	-0.054697	0.569220	-0.410757	-0.412039	-0.062572	21.1152	-0.408535	-176831	3.538502E-7	NaN
21	1.000000	0.578520	7.36525e+06	-39689.1	955.818	-29793.7	0.000000	0.000000	6.578924	-0.002265	NaN	0.000000	0.001574	0.001608	28.1053	0.037932	0.002003	18.9404	126.739	175.659	-0.122167	0.577189	-0.402739	-0.404070	-0.002265	18.9404	-0.402649	-145801	1.553441E-8	NaN
21	1.000000	0.586500	7.36525e+06	-39689.1	955.819	-29793.7	0.000000	0.000000	6.586905	0.035677	NaN	0.000000	0.001557	0.001616	28.1058	0.057106	0.001957	29.1772	-163.04	174.83	0.038599	0.585212	-0.394759	-0.396048	0.035677	29.1772	-0.395676	-115956	-3.076742E-7	NaN
21	1.000000	0.594528	7.36525e+06	-39689.1	955.818	-29793.7	0.000000	0.000000	6.594930	-0.031343	NaN	0.000000	0.001594	0.001568	28.1056	0.069015	0.002056	33.5742	-12.8825	177.989	0.010207	0.593176	-0.386732	-0.388083	-0.031343	33.5742	-0.386032	-84404.4	3.713490E-7	NaN
21	1.000000	0.602517	7.36525e+06	-39689.1	955.819	-29793.7	0.000000	0.000000	6.602922	0.014429	NaN	0.000000	0.001574	0.001594	28.1059	0.070940	0.002003	35.4253	-172.148	177.089	0.063969	0.601220	-0.378742	-0.380039	0.014429	35.4253	-0.379047	-67021.8	-2.152920E-7	NaN
21	1.000000	0.610538	7.36525e+06	-39689.1	955.818	-29793.7	0.000000	0.000000	6.610939	-0.075801	NaN	0.000000	0.001574	0.001603	28.1056	0.057477	0.002011	28.5753	-1.134264	175.615	-0.101038	0.609186	-0.370721	-0.372074	-0.075801	28.5753	-0.368732	-47627.2	1.591557E-6	NaN
21	1.000000	0.618544	7.36525e+06	-39689.1	955.817	-29793.7	0.000000	0.000000	6.618949	0.025709	NaN	0.000000	0.001653	0.001608	28.1061	0.065295	0.001998	32.6724	-74.8907	179.608	0.122918	0.617203	-0.362715	-0.364056	0.025709	32.6724	-0.363305	-39773.4	-6.463846E-7	NaN
21	1.000000	0.626543	7.36525e+06	-39689.1	955.818	-29793.7	0.000000	0.000000	6.626947	-0.001876	NaN	0.000000	0.001648	0.001579	28.1061	0.019142	0.002030	9.431488	-70.454	172.726	0.055571	0.625246	-0.354716	-0.356013	-0.001876	9.431488	-0.354567	-29732.2	6.309861E-8	NaN
21	1.000000	0.634513	7.36525e+06	-39689.1	955.818	-29793.7	0.000000	0.000000	6.634917	0.000681	NaN	0.000000	0.001643	0.001571	28.1063	0.090267	0.001901	47.4915	65.1338	174.787	-0.068188	0.633217	-0.346747	-0.348043	0.000681	47.4915	-0.346757	-22903.8	-2.973785E-8	NaN
21	1.000000	0.642529	7.36525e+06	-39689.1	955.818	-29793.7	0.000000	0.000000	6.642930	-0.079210	NaN	0.000000	0.001639	0.001590	28.1065	0.144308	0.002082	69.3186	26.6661	179.137	0.034650	0.641243	-0.338730	-0.340017	-0.079210	69.3186	-0.337873	-17003.5	4.658464E-6	NaN
21	1.000000	0.650528	7.36525e+06	-39689.1	955.818	-29793.7	0.000000	0.000000	6.650931	-0.024015	NaN	0.000000	0.001656	0.001559	28.1062	0.127202	0.002134	59.6091	-150.829	179.531	0.011022	0.649229	-0.330731	-0.332031	-0.024015	59.6091	-0.330429	-13235.4	1.814472E-6	NaN
21	1.000000	0.658540	7.36525e+06	-39689.1	955.818	-29793.7	0.000000	0.000000	6.658941	-0.065173	NaN	0.000000	0.001687	0.001584	28.1054	0.091014	0.002123	42.8671	62.5416	176.044	0.001094	0.657258	-0.322719	-0.324001	-0.065173	42.8671	-0.321579	-9814.49	6.640503E-6	NaN
21	1.000000	0.666535	7.36525e+06	-39689.1	955.818	-29793.7	0.000000	0.000000	6.666939	-0.004272	NaN	0.000000	0.001699	0.001559	28.1047	0.076193	0.002067	36.8689	-174.401	179.557	0.040437	0.665226	-0.314724	-0.316034	-0.004272	36.8689	-0.314637	-7755.19	5.509150E-7	NaN
21	1.000000	0.674548	7.36525e+06	-39689.1	955.818	-29793.7	0.000000	0.000000	6.674948	-0.093325	NaN	0.000000	0.001685	0.001595	28.1054	0.031019	0.001862	16.6558	14.2384	175.863	-0.014853	0.673236	-0.306712	-0.308023	-0.093325	16.6558	-0.302509	-5128.14	1.819853E-5	NaN
21	1.000000	0.682596	7.36525e+06	-39689.1	955.819	-29793.7	0.000000	0.000000	6.682999	-0.026021	NaN	0.000000	0.001691	0.001587	28.1052	0.078834	0.002086	37.7929	2.608588	176.18	-0.065741	0.681237	-0.298663	-0.300022	-0.026021	37.7929	-0.298147	-4416.06	5.892283E-6	NaN
21	1.000000	0.690548	7.36525e+06	-39689.1	955.818	-29793.7	0.000000	0.000000	6.690949	-0.071678	NaN	0.000000	0.001690	0.001598	28.105	0.088337	0.001936	45.639	-173.569	178.411	0.002816	0.689234	-0.290712	-0.292026	-0.071678	45.639	-0.289534	-3283.33	2.183099E-5	NaN
21	1.000000	0.698547	7.36525e+06	-39689.1	955.819	-29793.7	0.000000	0.000000	6.698950	-0.018431	NaN	0.000000	0.001658	0.001629	28.105	0.009285	0.001988	4.670675	81.093	177.425	0.045241	0.697266	-0.282712	-0.283994	-0.018431	4.670675	-0.279753	-2340.12	7.876309E-6	NaN
21	1.000000	0.706579	7.36525e+06	-39689.1	955.818	-29793.7	0.000000	0.000000	6.706982	-0.012525	NaN	0.000000	0.001665	0.001585	28.1049	0.073680	0.002074	35.527	72.2699	179.588	-0.003250	0.705252	-0.274680	-0.276007	-0.012525	35.527	-0.274416	-1943.37	6.445137E-6	NaN
21	1.000000	0.714537	7.36525e+06	-39689.1	955.818	-29793.7	0.000000	0.000000	6.714940	-0.029861	NaN	0.000000	0.001648	0.001593	28.1047	0.121064	0.002139	56.6049	-87.6672	-177.353	-0.088285	0.713196	-0.266722	-0.268063	-0.029861	56.6049	-0.266327	-1464.29	2.039255E-5	NaN
21	1.000000	0.722549	7.36525e+06	-39689.1	955.818	-29793.7	0.000000	0.000000	6.722951	-0.036076	NaN	0.000000	0.001627	0.001616	28.1055	0.048414	0.002035	23.7956	107.557	179.979	-0.050863	0.721311	-0.258710	-0.259948	-0.036076	23.7956	-0.257573	-1075.69	3.353753E-5	NaN
21	1.000000	0.730570	7.36525e+06	-39689.1	955.818	-29793.7	0.000000	0.000000	6.730971	-0.063272	NaN	0.000000	0.001638	0.001623	28.1048	0.036492	0.001996	18.2796	93.6416	177.635	-0.066161	0.729265	-0.250690	-0.251994	-0.063272	18.2796	-0.248094	-768.167	8.236803E-5	NaN
21	1.000000	0.738586	7.36525e+06	-39689.1	955.817	-29793.7	0.000000	0.000000	6.738989	-0.020328	NaN	0.000000	0.001629	0.001595	28.1035	0.086290	0.001991	43.3469	40.0644	177.543	-0.025283	0.737238	-0.242673	-0.244021	-0.020328	43.3469	-0.242321	-624.839	3.253294E-5	NaN
21	1.000000	0.746574	7.36525e+06	-39689.1	955.818	-29793.7	0.000000	0.000000	6.746977	-0.022150	NaN	0.000000	0.001653	0.001622	28.1033	0.113536	0.002057	55.2004	125.02	176.792	-0.048697	0.745201	-0.234685	-0.236059	-0.022150	55.2004	-0.234384	-469.432	4.718403E-5	NaN
21	1.000000	0.754581	7.36525e+06	-39689.1	955.818	-29793.7	0.000000	0.000000	6.754986	0.029951	NaN	0.000000	0.001628	0.001618	28.1036	0.050695	0.002097	24.1709	12.6481	175.413	-0.006892	0.753270	-0.226678	-0.227990	0.029951	24.1709	-0.227608	-367.019	-8.160640E-5	NaN
21	1.000000	0.762569	7.36525e+06	-39689.1	955.818	-29793.7	0.000000	0.000000	6.762974	0.019525	NaN	0.000000	0.001585	0.001637	28.103	0.069175	0.001840	37.5893	-156.899	-178.907	0.045097	0.761278	-0.218690	-0.219981	0.019525	37.5893	-0.219080	-268.509	-7.271627E-5	NaN
21	1.000000	0.770589	7.36525e+06	-39689.1	955.818	-29793.7	0.000000	0.000000	6.770991	-0.030505	NaN	0.000000	0.001554	0.001633	28.1027	0.051802	0.001878	27.5854	-147.626	174.615	0.000503	0.769248	-0.210671	-0.212012	-0.030505	27.5854	-0.209841	-190.656	0.000160	NaN
21	1.000000	0.778585	7.36525e+06	-39689.1	955.819	-29793.7	0.000000	0.000000	6.778990	0.028540	NaN	0.000000	0.001572	0.001630	28.104	0.033097	0.001942	17.0407	162.388	177.396	-0.033557	0.777286	-0.202674	-0.203973	0.028540	17.0407	-0.203931	-152.792	-0.000187	NaN
21	1.000000	0.786589	7.36525e+06	-39689.1	955.819	-29793.7	0.000000	0.000000	6.786992	-0.019730	NaN	0.000000	0.001561	0.001619	28.1041	0.032204	0.002035	15.8279	29.4908	177.719	0.017334	0.785312	-0.194671	-0.195947	-0.019730	15.8279	-0.193736	-103.81	0.000190	NaN
21	1.000000	0.794577	7.36525e+06	-39689.1	955.818	-29793.7	0.000000	0.000000	6.794982	0.030043	NaN	0.000000	0.001577	0.001627	28.1045	0.048119	0.002019	23.8275	-70.892	176.667	0.046624	0.793312	-0.186683	-0.187947	0.030043	23.8275	-0.187628	-82.0971	-0.000366	NaN
21	1.000000	0.802603	7.36525e+06	-39689.1	955.818	-29793.7	0.000000	0.000000	6.803007	0.011145	NaN	0.000000	0.001584	0.001603	28.1042	0.083592	0.001913	43.7017	-139.845	179.944	0.020117	0.801239	-0.178656	-0.180021	0.011145	43.7017	-0.178848	-58.3227	-0.000191	NaN
21	1.000000	0.810619	7.36525e+06	-39689.1	955.819	-29793.7	0.000000	0.000000	6.811023	-0.000796	NaN	0.000000	0.001606	0.001627	28.1037	0.057826	0.002043	28.2998	-92.9757	177.643	0.029280	0.809297	-0.170641	-0.171963	-0.000796	28.2998	-0.170620	-42.1081	1.890030E-5	NaN
21	1.000000	0.818614	7.36525e+06	-39689.1	955.818	-29793.7	0.000000	0.000000	6.819020	0.044303	NaN	0.000000	0.001594	0.001653	28.1033	0.040612	0.002062	19.6949	-143.032	177.023	0.093731	0.817305	-0.162645	-0.163954	0.044303	19.6949	-0.164332	-32.7017	-0.001355	NaN
21	1.000000	0.826623	7.36525e+06	-39689.1	955.817	-29793.7	0.000000	0.000000	6.827026	-0.028266	NaN	0.000000	0.001564	0.001644	28.103	0.098724	0.002011	49.0969	168.555	177.447	-0.012754	0.825288	-0.154637	-0.155971	-0.028266	49.0969	-0.154205	-21.5901	0.001309	NaN
21	1.000000	0.834605	7.36525e+06	-39689.1	955.818	-29793.7	0.000000	0.000000	6.835008	-0.019969	NaN	0.000000	0.001604	0.001634	28.104	0.123881	0.001916	64.6612	-113.615	176.367	0.002913	0.833261	-0.146655	-0.147998	-0.019969	64.6612	-0.146423	-15.5754	0.001282	NaN
21	1.000000	0.842630	7.36525e+06	-39689.1	955.818	-29793.7	0.000000	0.000000	6.843034	-0.011474	NaN	0.000000	0.001597	0.001666	28.1046	0.148464	0.002127	69.7856	-120.52	175.789	0.008413	0.841278	-0.138629	-0.139982	-0.011474	69.7856	-0.138506	-11.0876	0.001035	NaN
21	1.000000	0.850621	7.36525e+06	-39689.1	955.818	-29793.7	0.000000	0.000000	6.851023	-0.037272	NaN	0.000000	0.001567	0.001633	28.1041	0.130456	0.002020	64.5677	-87.7517	178.305	-0.037893	0.849314	-0.130639	-0.131946	-0.037272	64.5677	-0.130206	-7.691390	0.004846	NaN
21	1.000000	0.858644	7.36525e+06	-39689.1	955.818	-29793.7	0.000000	0.000000	6.859047	-0.022202	NaN	0.000000	0.001577	0.001624	28.1054	0.136336	0.002073	65.7822	-179.329	178.877	0.015992	0.857308	-0.122615	-0.123951	-0.022202	65.7822	-0.122362	-5.389255	0.004120	NaN
21	1.000000	0.866609	7.36525e+06	-39689.1	955.818	-29793.7	0.000000	0.000000	6.867011	-0.044387	NaN	0.000000	0.001572	0.001669	28.1055	0.116574	0.002079	56.0636	146.507	175.158	-0.016920	0.865367	-0.114650	-0.115892	-0.044387	56.0636	-0.114057	-3.652740	0.012152	NaN
21	1.000000	0.874632	7.36525e+06	-39689.1	955.818	-29793.7	0.000000	0.000000	6.875037	0.035177	NaN	0.000000	0.001564	0.001628	28.105	0.059315	0.001990	29.8125	-174.063	174.242	0.047126	0.873266	-0.106627	-0.107994	0.035177	29.8125	-0.107512	-2.661393	-0.013218	NaN
21	1.000000	0.882632	7.36525e+06	-39689.1	955.818	-29793.7	0.000000	0.000000	6.883035	-0.026102	NaN	0.000000	0.001569	0.001668	28.105	0.187671	0.002075	90.4408	124.504	179.048	0.067496	0.881299	-0.098628	-0.099960	-0.026102	90.4408	-0.098411	-1.684230	0.015498	NaN
21	1.000000	0.890629	7.36525e+06	-39689.1	955.818	-29793.7	0.000000	0.000000	6.891033	-0.015324	NaN	0.000000	0.001577	0.001638	28.1047	0.046278	0.002021	22.8987	-104.921	-178.559	-0.005736	0.889364	-0.090630	-0.091895	-0.015324	22.8987	-0.090128	-1.088480	0.014078	NaN
21	1.000000	0.898644	7.36525e+06	-39689.1	955.818	-29793.7	0.000000	0.000000	6.899044	-0.093048	NaN	0.000000	0.001596	0.001659	28.1042	0.045073	0.002003	22.4997	-164.206	176.073	-0.073398	0.897337	-0.082615	-0.083922	-0.093048	22.4997	-0.079514	-0.601874	0.154598	NaN
21	1.000000	0.906642	7.36525e+06	-39689.1	955.819	-29793.7	0.000000	0.000000	6.907046	0.004801	NaN	0.000000	0.001586	0.001667	28.1042	0.038468	0.002118	18.162	84.2216	176.639	-0.051565	0.905321	-0.074617	-0.075938	0.004801	18.162	-0.074816	-0.456826	-0.010509	NaN
21	1.000000	0.914646	7.36525e+06	-39689.1	955.818	-29793.7	0.000000	0.000000	6.915049	-0.037626	NaN	0.000000	0.001588	0.001643	28.1038	0.081683	0.001946	41.9729	-24.2769	176.398	-0.055570	0.913345	-0.066613	-0.067915	-0.037626	41.9729	-0.065941	-0.264596	0.142203	NaN
21	1.000000	0.922630	7.36525e+06	-39689.1	955.818	-29793.7	0.000000	0.000000	6.923032	-0.041938	NaN	0.000000	0.001587	0.001631	28.1039	0.047842	0.002082	22.9812	-135.277	177.729	-0.073008	0.921337	-0.058629	-0.059922	-0.041938	22.9812	-0.057261	-0.150051	0.279490	NaN
21	1.000000	0.930682	7.36525e+06	-39689.1	955.818	-29793.7	0.000000	0.000000	6.931085	-0.014227	NaN	0.000000	0.001601	0.001650	28.1034	0.046121	0.001975	23.3513	58.0393	175.448	-0.025107	0.929346	-0.050577	-0.051913	-0.014227	23.3513	-0.050120	-0.092019	0.154610	NaN
21	1.000000	0.938660	7.36525e+06	-39689.1	955.818	-29793.7	0.000000	0.000000	6.939061	-0.067179	NaN	0.000000	0.001582	0.001641	28.1045	0.049037	0.001973	24.8486	20.5687	176.686	-0.081127	0.937345	-0.042600	-0.043915	-0.067179	24.8486	-0.040572	-0.047070	1.427207	NaN
21	1.000000	0.946677	7.36525e+06	-39689.1	955.817	-29793.7	0.000000	0.000000	6.947082	0.017637	NaN	0.000000	0.001580	0.001695	28.1043	0.017273	0.002077	8.318380	65.3739	174.913	0.021989	0.945372	-0.034582	-0.035887	0.017637	8.318380	-0.036172	-0.034687	-0.508463	NaN
21	1.000000	0.954688	7.36525e+06	-39689.1	955.818	-29793.7	0.000000	0.000000	6.955093	0.008948	NaN	0.000000	0.001586	0.001702	28.1043	0.021299	0.001897	11.2281	92.4118	176.184	0.067697	0.953302	-0.026571	-0.027958	0.008948	11.2281	-0.027169	-0.019255	-0.464740	NaN
21	1.000000	0.962647	7.36525e+06	-39689.1	955.818	-29793.7	0.000000	0.000000	6.963049	-0.064130	NaN	0.000000	0.001560	0.001669	28.105	0.134891	0.002006	67.2486	-21.3981	179.458	-0.063488	0.961341	-0.018612	-0.019919	-0.064130	67.2486	-0.017897	-0.011094	5.780631	NaN
21	1.000000	0.970674	7.36525e+06	-39689.1	955.818	-29793.7	0.000000	0.000000	6.971076	-0.046632	NaN	0.000000	0.001588	0.001665	28.1037	0.101829	0.001929	52.7944	-154.283	178.518	-0.058880	0.969364	-0.010586	-0.011895	-0.046632	52.7944	-0.009923	-0.006343	7.351217	NaN
21	1.000000	0.978656	7.36525e+06	-39689.1	955.819	-29793.7	0.000000	0.000000	6.979060	0.001817	NaN	0.000000	0.001628	0.001645	28.1019	0.030417	0.001946	15.631	-155.054	174.994	-0.031534	0.977373	-0.002604	-0.003887	0.001817	15.631	-0.002691	-0.001912	-0.950310	NaN
21	1.000000	0.986628	7.36525e+06	-39689.1	955.818	-29793.7	0.000000	0.000000	6.987273	5.872899	NaN	0.000000	0.001633	0.001670	28.1022	5.729843	0.001838	3118.15	6.240429	175.024	3.531608	0.985335	0.005368	0.004075	5.872899	3118.15	0.003956	0.003200	1835.2	50359.9
21	2.000000	0.990336	7.36525e+06	-39689.1	955.818	-29793.7	0.000000	0.000000	6.991099	8.738681	NaN	0.000000	0.001659	0.001647	28.1011	8.236166	0.001665	4947.42	0.808109	175.12	8.128764	0.989987	0.009077	0.008728	8.738681	4947.42	0.007752	0.006789	1287.23	54860.3
21	2.000000	0.992276	7.36525e+06	-39689.1	955.819	-29793.7	0.000000	0.000000	6.993159	11.6672	NaN	0.000000	0.001655	0.001623	28.1023	10.9255	0.001813	6025.06	8.074918	167.158	11.1922	0.992071	0.011016	0.010812	11.6672	6025.06	0.009564	0.008701	1340.9	59013.4
21	2.000000	0.994254	7.36525e+06	-39689.1	955.818	-29793.7	0.000000	0.000000	6.995303	15.6934	NaN	0.000000	0.001618	0.001676	28.1022	13.1161	0.001734	7562.39	7.112157	166.826	15.0091	0.993988	0.012995	0.012728	15.6934	7562.39	0.011438	0.010824	1449.82	66409.7
21	2.000000	0.996229	7.36525e+06	-39689.1	955.819	-29793.7	0.000000	0.000000	6.997428	19.3609	NaN	0.000000	0.001666	0.001662	28.1028	15.3561	0.001982	7746.18	9.361376	166.573	19.2978	0.995949	0.014969	0.014689	19.3609	7746.18	0.013095	0.012828	1509.25	62485.4
21	2.000000	0.998299	7.36525e+06	-39689.1	955.819	-29793.7	0.000000	0.000000	6.999618	22.2664	NaN	0.000000	0.001584	0.001687	28.1027	17.3353	0.001817	9541.39	10.7272	162.779	22.7352	0.997892	0.017040	0.016633	22.2664	9541.39	0.015289	0.015673	1420.66	69631.4
21	2.000000	1.000196	7.36525e+06	-39689.1	955.819	-29793.7	0.000000	0.000000	7.001642	25.3629	NaN	0.000000	0.001571	0.001648	28.1024	17.9649	0.001758	10219	3.224714	169.885	24.1587	0.999835	0.018936	0.018576	25.3629	10219	0.017075	0.018152	1397.22	69297.2
21	2.000000	1.002240	7.36525e+06	-39689.1	955.818	-29793.7	0.000000	0.000000	7.003826	28.7622	NaN	0.000000	0.001580	0.001709	28.1024	21.0366	0.001907	11028.9	7.123406	164.268	27.7788	1.001949	0.020981	0.020689	28.7622	11028.9	0.019025	0.021033	1367.46	69478.9
21	2.000000	1.004212	7.36525e+06	-39689.1	955.818	-29793.7	0.000000	0.000000	7.005990	33.4429	NaN	0.000000	0.001571	0.001670	28.103	21.4098	0.001671	12811.6	2.529051	167.117	32.0777	1.003902	0.022952	0.022642	33.4429	12811.6	0.020994	0.024129	1385.99	75354
21	2.000000	1.006268	7.36525e+06	-39689.1	955.819	-29793.7	0.000000	0.000000	7.008149	35.9398	NaN	0.000000	0.001593	0.001685	28.1023	24.3103	0.001849	13148	5.546095	165.486	36.5704	1.005883	0.025008	0.024623	35.9398	13148	0.022958	0.027406	1311.4	72562.7
21	2.000000	1.008233	7.36525e+06	-39689.1	955.819	-29793.7	0.000000	0.000000	7.010335	41.3317	NaN	0.000000	0.001587	0.001653	28.1021	25.5783	0.001724	14832.3	7.963790	162.982	41.2981	1.007906	0.026974	0.026647	41.3317	14832.3	0.024884	0.030804	1341.74	77210.3
21	2.000000	1.010185	7.36525e+06	-39689.1	955.819	-29793.7	0.000000	0.000000	7.012487	46.1828	NaN	0.000000	0.001632	0.001653	28.1008	28.0757	0.001862	15074.8	5.034933	162.766	43.8144	1.009894	0.028926	0.028634	46.1828	15074.8	0.026628	0.034045	1356.54	74644.8
21	2.000000	1.012166	7.36525e+06	-39689.1	955.819	-29793.7	0.000000	0.000000	7.014741	52.8274	NaN	0.000000	0.001574	0.001708	28.1019	29.6641	0.001724	17204.5	5.117531	161.939	49.8477	1.011882	0.030907	0.030623	52.8274	17204.5	0.028604	0.037900	1393.85	80740.9
21	2.000000	1.014154	7.36525e+06	-39689.1	955.819	-29793.7	0.000000	0.000000	7.017003	59.499	NaN	0.000000	0.001623	0.001656	28.1002	31.0691	0.001798	17276.2	3.546871	163.563	57.6384	1.013897	0.032895	0.032638	59.499	17276.2	0.030312	0.041393	1437.42	77581.5
21	2.000000	1.016219	7.36525e+06	-39689.1	955.818	-29793.7	0.000000	0.000000	7.019204	62.8014	NaN	0.000000	0.001627	0.001666	28.103	34.0044	0.001891	17985.2	7.033136	161.107	63.0659	1.015932	0.034960	0.034673	62.8014	17985.2	0.032341	0.045736	1373.12	76834.8
21	2.000000	1.018121	7.36525e+06	-39689.1	955.818	-29793.7	0.000000	0.000000	7.021425	70.578	NaN	0.000000	0.001630	0.001668	28.1036	35.3219	0.001790	19733	4.782983	161.14	65.9061	1.017916	0.036862	0.036656	70.578	19733	0.034179	0.049852	1415.74	80746.6
21	2.000000	1.020178	7.36525e+06	-39689.1	955.817	-29793.7	0.000000	0.000000	7.023775	77.6848	NaN	0.000000	0.001605	0.001683	28.1041	36.418	0.001766	20617.2	3.604671	162.259	75.1027	1.019853	0.038919	0.038593	77.6848	20617.2	0.036093	0.054321	1430.1	80819.6
21	2.000000	1.022268	7.36525e+06	-39689.1	955.818	-29793.7	0.000000	0.000000	7.025934	79.3848	NaN	0.000000	0.001597	0.001697	28.1037	39.4185	0.001926	20468.7	5.688311	160.729	83.0845	1.021987	0.041008	0.040727	79.3848	20468.7	0.038100	0.059209	1340.74	76854.3
21	2.000000	1.024219	7.36525e+06	-39689.1	955.817	-29793.7	0.000000	0.000000	7.028343	90.5345	NaN	0.000000	0.001601	0.001710	28.103	39.8727	0.001734	22992.4	1.925127	163.402	90.1103	1.023913	0.042959	0.042653	90.5345	22992.4	0.040006	0.064044	1413.62	83007.3
21	2.000000	1.026188	7.36525e+06	-39689.1	955.817	-29793.7	0.000000	0.000000	7.030551	96.3549	NaN	0.000000	0.001622	0.001656	28.1037	42.4395	0.001743	24343.8	3.066712	162.222	97.0417	1.025812	0.044929	0.044553	96.3549	24343.8	0.041960	0.069192	1392.58	84553.9
21	2.000000	1.028221	7.36525e+06	-39689.1	955.817	-29793.7	0.000000	0.000000	7.032942	105.044	NaN	0.000000	0.001636	0.001696	28.1028	44.6746	0.001873	23857.2	6.685960	159.061	103.767	1.027838	0.046962	0.046579	105.044	23857.2	0.043659	0.073827	1422.84	80220.4
21	2.000000	1.030123	7.36525e+06	-39689.1	955.818	-29793.7	0.000000	0.000000	7.035097	111.2	NaN	0.000000	0.001605	0.001653	28.1023	46.3272	0.001787	25921.1	2.890672	161.047	107.68	1.029891	0.048864	0.048631	111.2	25921.1	0.045647	0.079433	1399.92	84028.3
21	2.000000	1.032203	7.36525e+06	-39689.1	955.819	-29793.7	0.000000	0.000000	7.037439	117.582	NaN	0.000000	0.001624	0.001693	28.1026	49.5714	0.001884	26307.8	7.121557	156.071	116.96	1.031920	0.050944	0.050661	117.582	26307.8	0.047591	0.085114	1381.46	82386.7
21	2.000000	1.034207	7.36525e+06	-39689.1	955.818	-29793.7	0.000000	0.000000	7.039833	127.071	NaN	0.000000	0.001627	0.001689	28.1015	49.9844	0.001859	26882.7	4.013480	159.687	127.711	1.033829	0.052948	0.052570	127.071	26882.7	0.049402	0.090575	1402.94	81609.6
21	2.000000	1.036181	7.36525e+06	-39689.1	955.817	-29793.7	0.000000	0.000000	7.042265	138.223	NaN	0.000000	0.001592	0.001683	28.1043	51.8724	0.001838	28219.7	4.552719	159.452	137.449	1.035844	0.054922	0.054585	138.223	28219.7	0.051248	0.096311	1435.17	83078.4
21	2.000000	1.038270	7.36525e+06	-39689.1	955.818	-29793.7	0.000000	0.000000	7.044656	145.568	NaN	0.000000	0.001597	0.001637	28.1036	54.7674	0.001892	28948.9	7.968013	155.674	149.272	1.037850	0.057011	0.056590	145.568	28948.9	0.053239	0.102688	1417.57	82536.3
21	2.000000	1.040161	7.36525e+06	-39689.1	955.818	-29793.7	0.000000	0.000000	7.046901	154.185	NaN	0.000000	0.001589	0.001672	28.1035	54.7582	0.001783	30704	3.563791	158.724	151.616	1.039874	0.058902	0.058615	154.185	30704	0.055136	0.108945	1415.25	84989.2
21	2.000000	1.042157	7.36525e+06	-39689.1	955.819	-29793.7	0.000000	0.000000	7.049184	161.18	NaN	0.000000	0.001549	0.001668	28.1033	57.4231	0.001872	30667	3.547963	158.509	159.731	1.041918	0.060898	0.060658	161.18	30667	0.056956	0.115119	1400.11	82579.2
21	2.000000	1.044148	7.36525e+06	-39689.1	955.818	-29793.7	0.000000	0.000000	7.051633	172.326	NaN	0.000000	0.001585	0.001688	28.103	57.5293	0.001723	33396.8	4.937143	157.964	169.816	1.043647	0.062888	0.062388	172.326	33396.8	0.059018	0.122312	1408.9	87245.6
21	2.000000	1.046221	7.36525e+06	-39689.1	955.819	-29793.7	0.000000	0.000000	7.054030	180.197	NaN	0.000000	0.001577	0.001712	28.1015	60.5421	0.001859	32571	6.151793	155.499	181.512	1.045795	0.064962	0.064536	180.197	32571	0.060812	0.128737	1399.73	82937.9
21	2.000000	1.048095	7.36525e+06	-39689.1	955.818	-29793.7	0.000000	0.000000	7.056452	193.535	NaN	0.000000	0.001565	0.001693	28.1022	62.1488	0.001757	35377.1	4.882515	156.815	189.401	1.047830	0.066836	0.066571	193.535	35377.1	0.062733	0.135791	1425.24	87712.2
21	2.000000	1.050257	7.36525e+06	-39689.1	955.818	-29793.7	0.000000	0.000000	7.058915	200.857	NaN	0.000000	0.001580	0.001645	28.1024	63.6949	0.001841	34600	7.843419	154.383	203.799	1.049758	0.068998	0.068499	200.857	34600	0.064644	0.142985	1404.75	83599.6
21	2.000000	1.052165	7.36525e+06	-39689.1	955.818	-29793.7	0.000000	0.000000	7.061174	209.413	NaN	0.000000	0.001623	0.001643	28.1005	65.7323	0.001888	34807.7	4.841620	156.375	208.877	1.051834	0.070905	0.070574	209.413	34807.7	0.066393	0.149726	1398.64	82186.4
21	2.000000	1.054200	7.36525e+06	-39689.1	955.818	-29793.7	0.000000	0.000000	7.063750	222.576	NaN	0.000000	0.001612	0.001657	28.1004	67.1022	0.001868	35919.1	7.186052	154.081	224.636	1.053849	0.072940	0.072589	222.576	35919.1	0.068293	0.157213	1415.76	82766.4
21	2.000000	1.056164	7.36525e+06	-39689.1	955.818	-29793.7	0.000000	0.000000	7.066026	230.15	NaN	0.000000	0.001576	0.001633	28.1017	69.697	0.001853	37615.7	5.366275	155.478	230.065	1.055896	0.074905	0.074636	230.15	37615.7	0.070316	0.165374	1391.69	84510
21	2.000000	1.058216	7.36525e+06	-39689.1	955.818	-29793.7	0.000000	0.000000	7.068676	244.711	NaN	0.000000	0.001556	0.001646	28.1019	70.6464	0.001867	37832.7	7.681368	154.361	245.957	1.057748	0.076956	0.076488	244.711	37832.7	0.072105	0.172757	1416.51	83161.7
21	2.000000	1.060102	7.36525e+06	-39689.1	955.819	-29793.7	0.000000	0.000000	7.071050	256.593	NaN	0.000000	0.001598	0.001633	28.1027	71.4753	0.001740	41075.8	4.812396	155.538	254.815	1.059776	0.078842	0.078516	256.593	41075.8	0.074157	0.181409	1414.45	88111
21	2.000000	1.062178	7.36525e+06	-39689.1	955.819	-29793.7	0.000000	0.000000	7.073553	266.994	NaN	0.000000	0.001584	0.001630	28.1014	74.3479	0.001816	40947	5.405984	155.051	267.982	1.061807	0.080918	0.080548	266.994	40947	0.076028	0.189470	1409.16	85946
21	2.000000	1.064173	7.36525e+06	-39689.1	955.818	-29793.7	0.000000	0.000000	7.076127	281.059	NaN	0.000000	0.001578	0.001596	28.1017	75.9027	0.001829	41497.9	7.357553	152.867	281.865	1.063744	0.082914	0.082484	281.059	41497.9	0.077834	0.197409	1423.74	85332.9
21	2.000000	1.066190	7.36525e+06	-39689.1	955.819	-29793.7	0.000000	0.000000	7.078568	291.387	NaN	0.000000	0.001590	0.001625	28.1007	78.0716	0.001844	42332	4.678979	155.524	294.191	1.065855	0.084930	0.084596	291.387	42332	0.079768	0.206076	1413.98	85197.7
21	2.000000	1.068125	7.36525e+06	-39689.1	955.818	-29793.7	0.000000	0.000000	7.081126	306.546	NaN	0.000000	0.001585	0.001644	28.1007	79.3779	0.001678	47314.3	5.123631	154.117	303.364	1.067763	0.086866	0.086504	306.546	47314.3	0.082006	0.216329	1417.04	92941.2
21	2.000000	1.070130	7.36525e+06	-39689.1	955.819	-29793.7	0.000000	0.000000	7.083662	319.461	NaN	0.000000	0.001588	0.001640	28.1006	80.9555	0.001754	46151.8	6.017913	153.144	322.698	1.069790	0.088871	0.088531	319.461	46151.8	0.083679	0.224141	1425.27	89063.7
21	2.000000	1.072096	7.36525e+06	-39689.1	955.818	-29793.7	0.000000	0.000000	7.086186	333.055	NaN	0.000000	0.001605	0.001595	28.1002	84.4051	0.001783	47336	5.392923	153.33	328.76	1.071859	0.090837	0.090600	333.055	47336	0.085560	0.233079	1428.94	89580.4
21	2.000000	1.074039	7.36525e+06	-39689.1	955.819	-29793.7	0.000000	0.000000	7.088895	351.699	NaN	0.000000	0.001575	0.001588	28.1012	82.6167	0.001665	49630.9	2.396415	156.511	344.995	1.073699	0.092779	0.092439	351.699	49630.9	0.087465	0.242299	1451.51	92119.1
21	2.000000	1.076224	7.36525e+06	-39689.1	955.818	-29793.7	0.000000	0.000000	7.091337	357.935	NaN	0.000000	0.001570	0.001629	28.1011	87.2005	0.001774	49166.1	1.711189	157.603	362.736	1.075835	0.094965	0.094575	357.935	49166.1	0.089505	0.252359	1418.36	89418.9
21	2.000000	1.078154	7.36525e+06	-39689.1	955.818	-29793.7	0.000000	0.000000	7.093872	372.662	NaN	0.000000	0.001582	0.001595	28.1014	88.4506	0.001743	50748.9	2.458962	156.799	372.224	1.077850	0.096894	0.096591	372.662	50748.9	0.091387	0.261809	1423.41	90616.6
21	2.000000	1.080117	7.36525e+06	-39689.1	955.819	-29793.7	0.000000	0.000000	7.096652	392.528	NaN	0.000000	0.001567	0.001613	28.1015	90.9131	0.001738	52311.7	3.762142	155.17	390.44	1.079781	0.098858	0.098522	392.528	52311.7	0.093230	0.271220	1447.27	91772
21	2.000000	1.082139	7.36525e+06	-39689.1	955.818	-29793.7	0.000000	0.000000	7.099331	408.527	NaN	0.000000	0.001593	0.001634	28.1015	93.9783	0.001740	54017.7	4.644264	153.924	408.463	1.081791	0.100880	0.100532	408.527	54017.7	0.095208	0.281491	1451.3	93020.2
21	2.000000	1.084116	7.36525e+06	-39689.1	955.818	-29793.7	0.000000	0.000000	7.102067	427.015	NaN	0.000000	0.001601	0.001625	28.1015	95.9446	0.001734	55334.6	7.658589	150.504	425.196	1.083731	0.102856	0.102472	427.015	55334.6	0.097069	0.291318	1465.8	93666.8
21	2.000000	1.086132	7.36525e+06	-39689.1	955.818	-29793.7	0.000000	0.000000	7.104450	435.925	NaN	0.000000	0.001629	0.001663	28.1014	98.9944	0.001805	54848.2	4.210915	154.327	436.707	1.085817	0.104873	0.104557	435.925	54848.2	0.098912	0.301208	1447.26	91306.7
21	2.000000	1.087071	7.36525e+06	-39689.1	955.818	-29793.7	0.000000	0.000000	7.105914	448.709	NaN	0.000000	0.001601	0.001659	28.0948	98.872	0.001767	55945.2	3.769170	154.541	445.503	1.086770	0.105812	0.105510	448.709	55945.2	0.099796	0.306008	1466.33	92399.5