File: remote_trans/data/nanoindenter/0828-1/data/Data_2025-08-06,11h17m57s/2025-07-22_16-23-58_1_603.txt
2025-07-22, 16:23:58, 1
Index	Phase	Displacement	Time	Pos X	Pos Y	Pos Z	Rot A	Rot B	Piezo Z	Force A	Force B	Gripper	Voltage A	Voltage B	Temperature	Amplitude force	Amplitude pos	Stiffness	Phase shift	Phase excitation	Force A raw	Displacement raw	HMax	HMax raw	Real Force	Real Stiffness	Contact Depth	Area	Hardness	Reduced Mod.
[#]	[#]	[um]	[s]	[um]	[um]	[um]	[m°]	[m°]	[um]	[uN]	[uN]	[V]	[V]	[V]	[°C]	[uN]	[um]	[N/m]	[°]	[°]	[uN]	[um]	[um]	[um]	[uN]	[N/m]	[um]	[um^2]	[MPa]	[MPa]
603	1.000000	0.002191	7.37095e+06	-46939.1	1005.82	-29767.6	0.000000	0.000000	6.002830	0.010283	NaN	0.000000	0.001528	0.001696	28.0823	0.045736	0.000977	46.8143	-123.122	-165.218	-0.028527	0.000910	-1.182102	-1.183383	0.010283	46.8143	-1.182267	-6.356853E+15	-1.617648E-18	NaN
603	1.000000	0.012220	7.37095e+06	-46939.1	1005.82	-29767.6	0.000000	0.000000	6.012858	0.006114	NaN	0.000000	0.001537	0.001736	28.0824	0.150512	0.001276	118.001	169.358	18.9566	0.023039	0.010824	-1.172073	-1.173469	0.006114	118.001	-1.172112	-4.647173E+15	-1.315647E-18	NaN
603	1.000000	0.022113	7.37095e+06	-46939.1	1005.82	-29767.6	0.000000	0.000000	6.022752	0.023890	NaN	0.000000	0.001547	0.001720	28.082	0.098846	0.001689	58.5231	-70.7975	-168.391	0.040453	0.020813	-1.162181	-1.163480	0.023890	58.5231	-1.162487	-3.453029E+15	-6.918557E-18	NaN
603	1.000000	0.032136	7.37095e+06	-46939.1	1005.82	-29767.6	0.000000	0.000000	6.032777	0.053112	NaN	0.000000	0.001518	0.001738	28.082	0.094875	0.001956	48.4953	-51.1388	14.5296	-0.022360	0.030793	-1.152157	-1.153501	0.053112	48.4953	-1.152979	-2.574839E+15	-2.062719E-17	NaN
603	1.000000	0.042104	7.37095e+06	-46939.1	1005.82	-29767.6	0.000000	0.000000	6.042745	0.073815	NaN	0.000000	0.001531	0.001728	28.0831	0.103639	0.001996	51.9109	-115.005	-165.338	0.020609	0.040763	-1.142189	-1.143531	0.073815	51.9109	-1.143256	-1.907189E+15	-3.870362E-17	NaN
603	1.000000	0.052121	7.37095e+06	-46939.1	1005.82	-29767.6	0.000000	0.000000	6.052762	0.078647	NaN	0.000000	0.001547	0.001712	28.0822	0.097818	0.002092	46.749	-76.1498	13.7288	0.085365	0.050737	-1.132173	-1.133556	0.078647	46.749	-1.133435	-1.408277E+15	-5.584648E-17	NaN
603	1.000000	0.062104	7.37095e+06	-46939.1	1005.82	-29767.6	0.000000	0.000000	6.062744	0.060953	NaN	0.000000	0.001567	0.001695	28.0825	0.163661	0.001956	83.6686	76.6812	-164.713	0.041708	0.060813	-1.122190	-1.123481	0.060953	83.6686	-1.122736	-1.011994E+15	-6.023095E-17	NaN
603	1.000000	0.072093	7.37095e+06	-46939.1	1005.82	-29767.6	0.000000	0.000000	6.072733	0.039015	NaN	0.000000	0.001541	0.001685	28.0823	0.063775	0.002037	31.3044	-178.9	11.4171	0.085524	0.070754	-1.112200	-1.113539	0.039015	31.3044	-1.113135	-7.522350E+14	-5.186526E-17	NaN
603	1.000000	0.082143	7.37095e+06	-46939.1	1005.82	-29767.6	0.000000	0.000000	6.082784	0.059583	NaN	0.000000	0.001547	0.001702	28.0824	0.040695	0.002010	20.2507	-82.0251	-167.752	0.050898	0.080803	-1.102150	-1.103490	0.059583	20.2507	-1.104357	-5.735259E+14	-1.038891E-16	NaN
603	1.000000	0.092159	7.37095e+06	-46939.1	1005.82	-29767.6	0.000000	0.000000	6.092800	0.087638	NaN	0.000000	0.001536	0.001713	28.0822	0.029578	0.002013	14.6971	85.8807	11.1367	0.115657	0.090754	-1.092135	-1.093539	0.087638	14.6971	-1.096607	-4.513556E+14	-1.941665E-16	NaN
603	1.000000	0.102107	7.37095e+06	-46939.1	1005.82	-29767.6	0.000000	0.000000	6.102747	0.047608	NaN	0.000000	0.001547	0.001687	28.0817	0.038274	0.002053	18.6409	131.776	-165.981	0.109895	0.100800	-1.082186	-1.083493	0.047608	18.6409	-1.084102	-3.066269E+14	-1.552642E-16	NaN
603	1.000000	0.112132	7.37095e+06	-46939.1	1005.82	-29767.6	0.000000	0.000000	6.112769	-0.038309	NaN	0.000000	0.001504	0.001697	28.0812	0.038271	0.002014	18.9996	108.154	10.0904	-0.085638	0.110791	-1.072161	-1.073502	-0.038309	18.9996	-1.070649	-2.022601E+14	1.894058E-16	NaN
603	1.000000	0.122125	7.37095e+06	-46939.1	1005.82	-29767.6	0.000000	0.000000	6.122763	-0.002964	NaN	0.000000	0.001523	0.001700	28.0809	0.016500	0.001948	8.470032	104.839	-167.442	-0.015421	0.120799	-1.062168	-1.063494	-0.002964	8.470032	-1.061906	-1.543227E+14	1.920885E-17	NaN
603	1.000000	0.132153	7.37095e+06	-46939.1	1005.82	-29767.6	0.000000	0.000000	6.132791	-0.016823	NaN	0.000000	0.001497	0.001669	28.0809	0.029894	0.002019	14.8083	-114.549	14.2814	0.001796	0.130803	-1.052140	-1.053490	-0.016823	14.8083	-1.051288	-1.111037E+14	1.514191E-16	NaN
603	1.000000	0.142141	7.37095e+06	-46939.1	1005.82	-29767.6	0.000000	0.000000	6.142782	0.091648	NaN	0.000000	0.001511	0.001670	28.0808	0.071444	0.002053	34.8048	-32.7604	-167.119	0.055210	0.140812	-1.042153	-1.043482	0.091648	34.8048	-1.044128	-8.901588E+13	-1.029573E-15	NaN
603	1.000000	0.152145	7.37095e+06	-46939.1	1005.82	-29767.6	0.000000	0.000000	6.152783	-0.014983	NaN	0.000000	0.001497	0.001687	28.081	0.078726	0.001965	40.0738	-36.9383	14.0519	0.007872	0.150817	-1.032148	-1.033476	-0.014983	40.0738	-1.031868	-6.089792E+13	2.460301E-16	NaN
603	1.000000	0.162156	7.37095e+06	-46939.1	1005.82	-29767.6	0.000000	0.000000	6.162792	-0.053993	NaN	0.000000	0.001518	0.001680	28.0808	0.070980	0.002029	34.9769	-98.8534	-165.061	-0.057107	0.160817	-1.022137	-1.023476	-0.053993	34.9769	-1.020980	-4.346428E+13	1.242232E-15	NaN
603	1.000000	0.172161	7.37095e+06	-46939.1	1005.82	-29767.6	0.000000	0.000000	6.172803	0.079867	NaN	0.000000	0.001475	0.001671	28.0811	0.081509	0.001902	42.8445	-117.608	14.5725	0.069944	0.170737	-1.012132	-1.013556	0.079867	42.8445	-1.013530	-3.450568E+13	-2.314613E-15	NaN
603	1.000000	0.182175	7.37095e+06	-46939.1	1005.82	-29767.6	0.000000	0.000000	6.182815	0.032194	NaN	0.000000	0.001496	0.001690	28.0812	0.089577	0.001990	45.0105	40.4227	-163.557	0.044249	0.180843	-1.002118	-1.003451	0.032194	45.0105	-1.002654	-2.463223E+13	-1.306991E-15	NaN
603	1.000000	0.192162	7.37095e+06	-46939.1	1005.82	-29767.6	0.000000	0.000000	6.192803	0.060074	NaN	0.000000	0.001525	0.001699	28.0811	0.096873	0.002108	45.9572	-34.785	16.1033	0.035517	0.190797	-0.992131	-0.993496	0.060074	45.9572	-0.993111	-1.832377E+13	-3.278482E-15	NaN
603	1.000000	0.202152	7.37095e+06	-46939.1	1005.82	-29767.6	0.000000	0.000000	6.202788	-0.046718	NaN	0.000000	0.001528	0.001732	28.0811	0.076391	0.002023	37.7694	-68.8817	-165.114	-0.027037	0.200869	-0.982142	-0.983424	-0.046718	37.7694	-0.981214	-1.266966E+13	3.687413E-15	NaN
603	1.000000	0.212192	7.37095e+06	-46939.1	1005.82	-29767.6	0.000000	0.000000	6.212830	-0.001618	NaN	0.000000	0.001484	0.001717	28.0812	0.080027	0.002046	39.1176	76.8209	14.5969	0.040038	0.210810	-0.972101	-0.973483	-0.001618	39.1176	-0.972070	-9.540332E+12	1.696442E-16	NaN
603	1.000000	0.222192	7.37095e+06	-46939.1	1005.82	-29767.6	0.000000	0.000000	6.222830	-0.005274	NaN	0.000000	0.001543	0.001695	28.0812	0.076289	0.001979	38.5556	125.808	-162.903	-0.127417	0.220868	-0.962101	-0.963426	-0.005274	38.5556	-0.961999	-6.979315E+12	7.556464E-16	NaN
603	1.000000	0.232201	7.37095e+06	-46939.1	1005.82	-29767.6	0.000000	0.000000	6.232842	0.067873	NaN	0.000000	0.001495	0.001702	28.0811	0.017506	0.001933	9.056817	-14.1446	16.1617	0.041745	0.230811	-0.952093	-0.953483	0.067873	9.056817	-0.957713	-6.109954E+12	-1.110855E-14	NaN
603	1.000000	0.242183	7.37095e+06	-46939.1	1005.82	-29767.6	0.000000	0.000000	6.242823	0.033887	NaN	0.000000	0.001528	0.001721	28.0825	0.045991	0.002040	22.5479	-16.7909	-167.876	0.081198	0.240915	-0.942110	-0.943378	0.033887	22.5479	-0.943237	-3.897742E+12	-8.694053E-15	NaN
603	1.000000	0.252180	7.37095e+06	-46939.1	1005.82	-29767.6	0.000000	0.000000	6.252822	0.077408	NaN	0.000000	0.001511	0.001711	28.0824	0.050202	0.001954	25.6907	-147.257	12.9749	0.083343	0.250821	-0.932113	-0.933472	0.077408	25.6907	-0.934373	-2.959444E+12	-2.615622E-14	NaN
603	1.000000	0.262216	7.37095e+06	-46939.1	1005.82	-29767.6	0.000000	0.000000	6.262855	0.037204	NaN	0.000000	0.001479	0.001713	28.0824	0.093898	0.001952	48.1019	103.414	-168.638	0.016948	0.260899	-0.922078	-0.923394	0.037204	48.1019	-0.922658	-2.056316E+12	-1.809243E-14	NaN
603	1.000000	0.272203	7.37095e+06	-46939.1	1005.82	-29767.6	0.000000	0.000000	6.272839	-0.047906	NaN	0.000000	0.001540	0.001703	28.0825	0.110226	0.001964	56.1342	119.433	13.7009	0.073945	0.270829	-0.912090	-0.913464	-0.047906	56.1342	-0.911450	-1.451281E+12	3.300964E-14	NaN
603	1.000000	0.282230	7.37095e+06	-46939.1	1005.82	-29767.6	0.000000	0.000000	6.282869	0.017911	NaN	0.000000	0.001479	0.001709	28.0823	0.057616	0.001952	29.5114	-5.616605	-167.946	-0.015836	0.280892	-0.902063	-0.903401	0.017911	29.5114	-0.902518	-1.099246E+12	-1.629385E-14	NaN
603	1.000000	0.292244	7.37095e+06	-46939.1	1005.82	-29767.6	0.000000	0.000000	6.292882	0.000185	NaN	0.000000	0.001529	0.001701	28.0824	0.103427	0.001974	52.3818	91.7402	13.9051	0.050125	0.290791	-0.892049	-0.893502	0.000185	52.3818	-0.892052	-7.936952E+11	-2.326923E-16	NaN
603	1.000000	0.302241	7.37095e+06	-46939.1	1005.82	-29767.6	0.000000	0.000000	6.302885	0.129542	NaN	0.000000	0.001508	0.001737	28.0822	0.048049	0.002004	23.9719	-72.2934	-164.48	0.057445	0.300923	-0.882052	-0.883370	0.129542	23.9719	-0.886105	-6.595645E+11	-1.964057E-13	NaN
603	1.000000	0.312236	7.37095e+06	-46939.1	1005.82	-29767.6	0.000000	0.000000	6.312875	0.021739	NaN	0.000000	0.001579	0.001722	28.0823	0.042186	0.001963	21.4858	-39.2918	12.7407	0.002444	0.310807	-0.872057	-0.873486	0.021739	21.4858	-0.872816	-4.360535E+11	-4.985378E-14	NaN
603	1.000000	0.322217	7.37095e+06	-46939.1	1005.82	-29767.6	0.000000	0.000000	6.322855	-0.006829	NaN	0.000000	0.001572	0.001716	28.0824	0.115719	0.002107	54.9265	134.207	-164.812	0.092500	0.320912	-0.862077	-0.863381	-0.006829	54.9265	-0.861983	-3.111467E+11	2.194693E-14	NaN
603	1.000000	0.332257	7.37095e+06	-46939.1	1005.82	-29767.6	0.000000	0.000000	6.332896	0.008718	NaN	0.000000	0.001542	0.001742	28.0822	0.040781	0.002090	19.5127	-152.985	11.5468	-0.007640	0.330817	-0.852036	-0.853476	0.008718	19.5127	-0.852371	-2.305927E+11	-3.780816E-14	NaN
603	1.000000	0.342201	7.37095e+06	-46939.1	1005.82	-29767.6	0.000000	0.000000	6.342840	0.018040	NaN	0.000000	0.001566	0.001745	28.082	0.056870	0.001918	29.6504	177.636	-165.907	0.060794	0.340920	-0.842092	-0.843373	0.018040	29.6504	-0.842548	-1.697511E+11	-1.062725E-13	NaN
603	1.000000	0.352243	7.37095e+06	-46939.1	1005.82	-29767.6	0.000000	0.000000	6.352880	-0.024049	NaN	0.000000	0.001536	0.001780	28.082	0.051601	0.001913	26.9791	-59.6164	12.4864	-0.101482	0.350900	-0.832051	-0.833393	-0.024049	26.9791	-0.831382	-1.198161E+11	2.007149E-13	NaN
603	1.000000	0.362231	7.37095e+06	-46939.1	1005.82	-29767.6	0.000000	0.000000	6.362873	0.086032	NaN	0.000000	0.001528	0.001711	28.0823	0.056888	0.002054	27.6973	-120.625	-164.639	0.140189	0.360875	-0.822062	-0.823419	0.086032	27.6973	-0.824392	-9.632955E+10	-8.931021E-13	NaN
603	1.000000	0.372220	7.37095e+06	-46939.1	1005.82	-29767.6	0.000000	0.000000	6.372856	-0.045617	NaN	0.000000	0.001601	0.001699	28.082	0.077406	0.001896	40.8319	-5.439740	14.6952	-0.033039	0.370889	-0.812074	-0.813404	-0.045617	40.8319	-0.811236	-6.387582E+10	7.141546E-13	NaN
603	1.000000	0.382236	7.37095e+06	-46939.1	1005.82	-29767.6	0.000000	0.000000	6.382873	-0.014089	NaN	0.000000	0.001620	0.001743	28.081	0.073762	0.001970	37.4511	149.001	-167.615	0.013873	0.380917	-0.802058	-0.803376	-0.014089	37.4511	-0.801776	-4.752957E+10	2.964359E-13	NaN
603	1.000000	0.392253	7.37095e+06	-46939.1	1005.82	-29767.6	0.000000	0.000000	6.392893	0.029586	NaN	0.000000	0.001632	0.001730	28.0809	0.087623	0.001958	44.7608	49.332	15.1887	0.107157	0.390929	-0.792040	-0.793364	0.029586	44.7608	-0.792536	-3.560585E+10	-8.309230E-13	NaN
603	1.000000	0.402268	7.37095e+06	-46939.1	1005.82	-29767.6	0.000000	0.000000	6.402907	0.016519	NaN	0.000000	0.001603	0.001755	28.081	0.054128	0.002065	26.2153	-118.825	-167.864	0.074428	0.400978	-0.782025	-0.783316	0.016519	26.2153	-0.782497	-2.601161E+10	-6.350676E-13	NaN
603	1.000000	0.412262	7.37095e+06	-46939.1	1005.82	-29767.6	0.000000	0.000000	6.412898	-0.048517	NaN	0.000000	0.001613	0.001744	28.0808	0.047025	0.002074	22.6749	28.7259	15.1034	-0.094516	0.410872	-0.772031	-0.773422	-0.048517	22.6749	-0.770427	-1.782817E+10	2.721392E-12	NaN
603	1.000000	0.422276	7.37095e+06	-46939.1	1005.82	-29767.6	0.000000	0.000000	6.422918	0.080210	NaN	0.000000	0.001608	0.001766	28.0808	0.081292	0.002110	38.535	-137.542	-166.217	0.125990	0.420946	-0.762017	-0.763347	0.080210	38.535	-0.763578	-1.438723E+10	-5.575114E-12	NaN
603	1.000000	0.432251	7.37095e+06	-46939.1	1005.82	-29767.6	0.000000	0.000000	6.432892	0.076920	NaN	0.000000	0.001598	0.001766	28.0809	0.076249	0.002042	37.3371	-49.3311	11.9565	0.079954	0.430951	-0.752042	-0.753342	0.076920	37.3371	-0.753587	-1.052077E+10	-7.311267E-12	NaN
603	1.000000	0.442275	7.37095e+06	-46939.1	1005.82	-29767.6	0.000000	0.000000	6.442914	0.018976	NaN	0.000000	0.001629	0.001767	28.0809	0.101066	0.002129	47.4742	-97.2406	-163.895	0.026387	0.440953	-0.742018	-0.743340	0.018976	47.4742	-0.742318	-7.389687E+9	-2.567868E-12	NaN
603	1.000000	0.452291	7.37095e+06	-46939.1	1005.82	-29767.6	0.000000	0.000000	6.452929	0.020274	NaN	0.000000	0.001601	0.001731	28.0806	0.040933	0.001943	21.0654	-27.6925	17.8172	-0.024459	0.450914	-0.732003	-0.733379	0.020274	21.0654	-0.732725	-5.469397E+9	-3.706798E-12	NaN
603	1.000000	0.462260	7.37095e+06	-46939.1	1005.82	-29767.6	0.000000	0.000000	6.462902	0.101631	NaN	0.000000	0.001610	0.001730	28.0807	0.022115	0.001893	11.6828	126.063	-169.445	0.083408	0.460908	-0.722033	-0.723385	0.101631	11.6828	-0.728558	-4.799002E+9	-2.117757E-11	NaN
603	1.000000	0.472294	7.37095e+06	-46939.1	1005.82	-29767.6	0.000000	0.000000	6.472932	-0.014736	NaN	0.000000	0.001631	0.001739	28.0811	0.132271	0.002096	63.1047	-126.051	14.5557	-0.043301	0.470897	-0.711999	-0.713396	-0.014736	63.1047	-0.711824	-2.837529E+9	5.193121E-12	NaN
603	1.000000	0.482290	7.37095e+06	-46939.1	1005.82	-29767.6	0.000000	0.000000	6.482930	0.050402	NaN	0.000000	0.001533	0.001738	28.0809	0.024349	0.002028	12.0091	-135.705	-167.9	-0.009892	0.481002	-0.702003	-0.703291	0.050402	12.0091	-0.705151	-2.300728E+9	-2.190694E-11	NaN
603	1.000000	0.492311	7.37095e+06	-46939.1	1005.82	-29767.6	0.000000	0.000000	6.492951	0.049011	NaN	0.000000	0.001540	0.001716	28.0807	0.082917	0.002026	40.9352	-7.916606	16.1244	0.012850	0.490966	-0.691983	-0.693328	0.049011	40.9352	-0.692881	-1.564168E+9	-3.133346E-11	NaN
603	1.000000	0.502299	7.37095e+06	-46939.1	1005.82	-29767.6	0.000000	0.000000	6.502938	0.024150	NaN	0.000000	0.001514	0.001774	28.0812	0.043833	0.002031	21.5858	-72.6819	-162.623	0.093373	0.501010	-0.681995	-0.683283	0.024150	21.5858	-0.682834	-1.140141E+9	-2.118123E-11	NaN
603	1.000000	0.512302	7.37095e+06	-46939.1	1005.82	-29767.6	0.000000	0.000000	6.512939	-0.018432	NaN	0.000000	0.001558	0.001732	28.0815	0.076266	0.001827	41.7341	-97.2658	13.7668	-0.100969	0.510875	-0.671992	-0.673418	-0.018432	41.7341	-0.671661	-8.018938E+8	2.298497E-11	NaN
603	1.000000	0.522334	7.37095e+06	-46939.1	1005.82	-29767.6	0.000000	0.000000	6.522973	0.024077	NaN	0.000000	0.001528	0.001772	28.0823	0.031479	0.002136	14.735	130.255	-165.615	-0.036176	0.520977	-0.661959	-0.663317	0.024077	14.735	-0.663185	-6.138816E+8	-3.922106E-11	NaN
603	1.000000	0.532322	7.37095e+06	-46939.1	1005.82	-29767.6	0.000000	0.000000	6.532963	0.067598	NaN	0.000000	0.001576	0.001781	28.0821	0.051924	0.002172	23.9065	137.003	14.3943	0.083175	0.530995	-0.651972	-0.653298	0.067598	23.9065	-0.654092	-4.608179E+8	-1.466924E-10	NaN
603	1.000000	0.542328	7.37095e+06	-46939.1	1005.82	-29767.6	0.000000	0.000000	6.542970	0.098443	NaN	0.000000	0.001554	0.001739	28.0824	0.017801	0.002125	8.376998	-56.918	-165.979	0.060034	0.541005	-0.641966	-0.643288	0.098443	8.376998	-0.650779	-4.150704E+8	-2.371730E-10	NaN
603	1.000000	0.552285	7.37095e+06	-46939.1	1005.82	-29767.6	0.000000	0.000000	6.552925	0.032372	NaN	0.000000	0.001565	0.001750	28.0819	0.110592	0.001962	56.3593	-174.731	13.4734	0.051116	0.550983	-0.632008	-0.633310	0.032372	56.3593	-0.632439	-2.325476E+8	-1.392076E-10	NaN
603	1.000000	0.562308	7.37095e+06	-46939.1	1005.82	-29767.6	0.000000	0.000000	6.562949	0.073033	NaN	0.000000	0.001553	0.001734	28.0817	0.088836	0.002112	42.0686	158.819	-165.474	0.091471	0.561019	-0.621985	-0.623275	0.073033	42.0686	-0.623287	-1.741046E+8	-4.194772E-10	NaN
603	1.000000	0.572327	7.37095e+06	-46939.1	1005.82	-29767.6	0.000000	0.000000	6.572967	0.037077	NaN	0.000000	0.001543	0.001791	28.082	0.107172	0.001822	58.8056	-151.691	15.1025	0.002427	0.570942	-0.611966	-0.613351	0.037077	58.8056	-0.612439	-1.235009E+8	-3.002201E-10	NaN
603	1.000000	0.582330	7.37095e+06	-46939.1	1005.82	-29767.6	0.000000	0.000000	6.582967	-0.024599	NaN	0.000000	0.001533	0.001768	28.0823	0.023061	0.002090	11.0336	-139.361	-163.411	-0.029284	0.581003	-0.601964	-0.603291	-0.024599	11.0336	-0.600291	-8.403762E+7	2.927171E-10	NaN
603	1.000000	0.592352	7.37095e+06	-46939.1	1005.82	-29767.6	0.000000	0.000000	6.592991	0.009519	NaN	0.000000	0.001591	0.001729	28.0819	0.030936	0.001899	16.2908	-139.468	16.3344	0.071772	0.591041	-0.591941	-0.593252	0.009519	16.2908	-0.592379	-6.538270E+7	-1.455870E-10	NaN
603	1.000000	0.602328	7.37095e+06	-46939.1	1005.82	-29767.6	0.000000	0.000000	6.602970	0.080607	NaN	0.000000	0.001546	0.001751	28.0821	0.122421	0.001917	63.8475	-97.1	-168.181	0.112401	0.601066	-0.581965	-0.583228	0.080607	63.8475	-0.582912	-4.840711E+7	-1.665195E-9	NaN
603	1.000000	0.612334	7.37095e+06	-46939.1	1005.82	-29767.6	0.000000	0.000000	6.612971	-0.037603	NaN	0.000000	0.001565	0.001750	28.0821	0.135974	0.002105	64.5904	-118.776	11.7034	-0.029717	0.611019	-0.571959	-0.573274	-0.037603	64.5904	-0.571523	-3.370294E+7	1.115725E-9	NaN
603	1.000000	0.622368	7.37095e+06	-46939.1	1005.82	-29767.6	0.000000	0.000000	6.623006	-0.021115	NaN	0.000000	0.001517	0.001750	28.0823	0.122009	0.002117	57.6368	-103.935	-166.336	-0.102509	0.621029	-0.561925	-0.563264	-0.021115	57.6368	-0.561650	-2.461520E+7	8.577899E-10	NaN
603	1.000000	0.632365	7.37095e+06	-46939.1	1005.82	-29767.6	0.000000	0.000000	6.633005	0.037170	NaN	0.000000	0.001565	0.001730	28.0823	0.043541	0.002066	21.0773	-74.6796	14.2127	0.084076	0.631006	-0.551928	-0.553287	0.037170	21.0773	-0.553251	-1.883549E+7	-1.973407E-9	NaN
603	1.000000	0.642332	7.37095e+06	-46939.1	1005.82	-29767.6	0.000000	0.000000	6.642970	0.006596	NaN	0.000000	0.001567	0.001745	28.0823	0.036882	0.002054	17.9567	143.377	-164.69	0.024509	0.641025	-0.541961	-0.543268	0.006596	17.9567	-0.542237	-1.325483E+7	-4.976036E-10	NaN
603	1.000000	0.652351	7.37095e+06	-46939.1	1005.82	-29767.6	0.000000	0.000000	6.652990	0.024803	NaN	0.000000	0.001570	0.001753	28.081	0.101897	0.001930	52.7857	-65.9271	14.0563	0.038163	0.650967	-0.531943	-0.533327	0.024803	52.7857	-0.532295	-9.6481e+06	-2.570772E-9	NaN
603	1.000000	0.662384	7.37095e+06	-46939.1	1005.82	-29767.6	0.000000	0.000000	6.663020	-0.062709	NaN	0.000000	0.001580	0.001767	28.0809	0.116281	0.001847	62.9533	-74.2413	-166.842	-0.061803	0.661054	-0.521909	-0.523240	-0.062709	62.9533	-0.521162	-6.75707e+06	9.280537E-9	NaN
603	1.000000	0.672371	7.37095e+06	-46939.1	1005.82	-29767.6	0.000000	0.000000	6.673012	0.073328	NaN	0.000000	0.001574	0.001764	28.0809	0.170176	0.002018	84.3301	-156.177	13.6923	0.069785	0.670972	-0.511922	-0.513321	0.073328	84.3301	-0.512575	-5.13178e+06	-1.428898E-8	NaN
603	1.000000	0.682369	7.37095e+06	-46939.1	1005.82	-29767.6	0.000000	0.000000	6.683008	0.015508	NaN	0.000000	0.001619	0.001714	28.0809	0.080491	0.001990	40.4436	100.832	-162.491	0.002172	0.681036	-0.501924	-0.503257	0.015508	40.4436	-0.502211	-3.68014e+06	-4.213907E-9	NaN
603	1.000000	0.692394	7.37095e+06	-46939.1	1005.82	-29767.6	0.000000	0.000000	6.693032	0.000460	NaN	0.000000	0.001608	0.001729	28.081	0.072219	0.001958	36.89	9.806842	12.9615	0.017362	0.690991	-0.491899	-0.493303	0.000460	36.89	-0.491908	-2.64275e+06	-1.740997E-10	NaN
603	1.000000	0.702381	7.37095e+06	-46939.1	1005.82	-29767.6	0.000000	0.000000	6.703020	0.038036	NaN	0.000000	0.001521	0.001744	28.0809	0.112105	0.002077	53.9856	-9.748457	-165.316	0.077321	0.701038	-0.481913	-0.483255	0.038036	53.9856	-0.482441	-1.94847e+06	-1.952108E-8	NaN
603	1.000000	0.712370	7.37095e+06	-46939.1	1005.82	-29767.6	0.000000	0.000000	6.713008	0.017805	NaN	0.000000	0.001543	0.001759	28.081	0.021376	0.001916	11.1569	-100.37	9.937735	-0.036087	0.710944	-0.471924	-0.473350	0.017805	11.1569	-0.473121	-1.44266e+06	-1.234184E-8	NaN
603	1.000000	0.722385	7.37095e+06	-46939.1	1005.82	-29767.6	0.000000	0.000000	6.723024	0.025077	NaN	0.000000	0.001509	0.001712	28.081	0.037687	0.002043	18.4433	131.329	-163.515	0.006816	0.721128	-0.461909	-0.463165	0.025077	18.4433	-0.462928	-1.03791e+06	-2.416158E-8	NaN
603	1.000000	0.732421	7.37095e+06	-46939.1	1005.82	-29767.6	0.000000	0.000000	6.733061	0.050467	NaN	0.000000	0.001528	0.001716	28.0812	0.044855	0.002020	22.2004	82.2477	16.3668	0.057038	0.731038	-0.451872	-0.453255	0.050467	22.2004	-0.453577	-766835	-6.581158E-8	NaN
603	1.000000	0.742390	7.37095e+06	-46939.1	1005.82	-29767.6	0.000000	0.000000	6.743028	0.005751	NaN	0.000000	0.001570	0.001727	28.081	0.071306	0.002001	35.6336	135.624	-165.66	-0.012610	0.741094	-0.441903	-0.443200	0.005751	35.6336	-0.442024	-527145	-1.090984E-8	NaN
603	1.000000	0.752438	7.37095e+06	-46939.1	1005.82	-29767.6	0.000000	0.000000	6.753079	0.055515	NaN	0.000000	0.001518	0.001759	28.081	0.043990	0.001921	22.9007	158.402	15.615	0.073911	0.751007	-0.431855	-0.433286	0.055515	22.9007	-0.433673	-401793	-1.381679E-7	NaN
603	1.000000	0.762430	7.37095e+06	-46939.1	1005.82	-29767.6	0.000000	0.000000	6.763072	0.081724	NaN	0.000000	0.001504	0.001731	28.0813	0.044292	0.002057	21.5317	-155.682	-167.836	0.044246	0.761107	-0.421863	-0.423186	0.081724	21.5317	-0.424710	-300033	-2.723821E-7	NaN
603	1.000000	0.772388	7.37095e+06	-46939.1	1005.82	-29767.6	0.000000	0.000000	6.773028	0.056410	NaN	0.000000	0.001502	0.001739	28.0812	0.063550	0.001992	31.9091	-88.8139	16.1953	0.002612	0.771101	-0.411906	-0.413193	0.056410	31.9091	-0.413231	-206221	-2.735390E-7	NaN
603	1.000000	0.782414	7.37095e+06	-46939.1	1005.82	-29767.6	0.000000	0.000000	6.783051	-0.018796	NaN	0.000000	0.001523	0.001732	28.0811	0.068862	0.001941	35.4808	-26.6501	-167.78	-0.021087	0.781057	-0.401880	-0.403237	-0.018796	35.4808	-0.401482	-140324	1.339468E-7	NaN
603	1.000000	0.792388	7.37095e+06	-46939.1	1005.82	-29767.6	0.000000	0.000000	6.793027	0.016626	NaN	0.000000	0.001497	0.001779	28.0824	0.055184	0.002033	27.1394	-144.498	12.7053	-0.004543	0.791010	-0.391905	-0.393284	0.016626	27.1394	-0.392364	-103986	-1.598849E-7	NaN
603	1.000000	0.802422	7.37095e+06	-46939.1	1005.82	-29767.6	0.000000	0.000000	6.803060	-0.004686	NaN	0.000000	0.001511	0.001743	28.0824	0.179927	0.002045	87.9827	-61.4747	-164.931	0.052643	0.801140	-0.381872	-0.383153	-0.004686	87.9827	-0.381832	-73479.9	6.377698E-8	NaN
603	1.000000	0.812405	7.37095e+06	-46939.1	1005.82	-29767.6	0.000000	0.000000	6.813044	0.011605	NaN	0.000000	0.001535	0.001712	28.0823	0.055446	0.002133	25.9916	179.132	14.5632	-0.014596	0.811033	-0.371888	-0.373260	0.011605	25.9916	-0.372223	-53472.8	-2.170181E-7	NaN
603	1.000000	0.822416	7.37095e+06	-46939.1	1005.82	-29767.6	0.000000	0.000000	6.823056	0.049892	NaN	0.000000	0.001516	0.001779	28.0817	0.016577	0.002026	8.181189	167.068	-170.754	0.043425	0.821135	-0.361878	-0.363159	0.049892	8.181189	-0.366451	-44155.8	-1.129903E-6	NaN
603	1.000000	0.832436	7.37095e+06	-46939.1	1005.82	-29767.6	0.000000	0.000000	6.833077	0.050142	NaN	0.000000	0.001529	0.001788	28.0825	0.057191	0.002049	27.9127	99.0418	13.8723	-0.008373	0.831096	-0.351857	-0.353197	0.050142	27.9127	-0.353204	-28410.4	-1.764929E-6	NaN
603	1.000000	0.842444	7.37095e+06	-46939.1	1005.82	-29767.6	0.000000	0.000000	6.843085	0.075226	NaN	0.000000	0.001495	0.001775	28.0825	0.092702	0.001969	47.0815	-14.5484	-162.724	-0.032911	0.841158	-0.341850	-0.343136	0.075226	47.0815	-0.343048	-20228.1	-3.718891E-6	NaN
603	1.000000	0.852453	7.37095e+06	-46939.1	1005.82	-29767.6	0.000000	0.000000	6.853091	-0.007716	NaN	0.000000	0.001533	0.001772	28.0824	0.032589	0.001944	16.7655	-162.762	12.7399	-0.014671	0.851139	-0.331841	-0.333154	-0.007716	16.7655	-0.331495	-13719.7	5.624360E-7	NaN
603	1.000000	0.862459	7.37095e+06	-46939.1	1005.82	-29767.6	0.000000	0.000000	6.863099	0.045649	NaN	0.000000	0.001530	0.001735	28.0823	0.085035	0.002013	42.2421	-137.832	-166.071	0.085137	0.861168	-0.321835	-0.323125	0.045649	42.2421	-0.322645	-10175.3	-4.486292E-6	NaN
603	1.000000	0.872476	7.37095e+06	-46939.1	1005.82	-29767.6	0.000000	0.000000	6.873113	-0.028238	NaN	0.000000	0.001540	0.001773	28.0825	0.088242	0.002077	42.4783	-152.651	13.3218	0.031988	0.871094	-0.311817	-0.313200	-0.028238	42.4783	-0.311319	-6927.29	4.076304E-6	NaN
603	1.000000	0.882438	7.37095e+06	-46939.1	1005.82	-29767.6	0.000000	0.000000	6.883078	0.053884	NaN	0.000000	0.001501	0.001772	28.0823	0.067136	0.002077	32.3274	-146.853	-165.08	0.043674	0.881143	-0.301855	-0.303151	0.053884	32.3274	-0.303105	-5233.85	-1.029522E-5	NaN
603	1.000000	0.892468	7.37095e+06	-46939.1	1005.82	-29767.6	0.000000	0.000000	6.893108	0.043908	NaN	0.000000	0.001511	0.001758	28.0823	0.097964	0.001886	51.9541	103.703	13.5272	0.048650	0.891133	-0.291825	-0.293160	0.043908	51.9541	-0.292459	-3631.71	-1.209015E-5	NaN
603	1.000000	0.902464	7.37095e+06	-46939.1	1005.82	-29767.6	0.000000	0.000000	6.903106	0.077474	NaN	0.000000	0.001552	0.001755	28.0823	0.041969	0.002018	20.7939	11.0894	-169.389	0.010538	0.901190	-0.281829	-0.283104	0.077474	20.7939	-0.284623	-2770.78	-2.796127E-5	NaN
603	1.000000	0.912481	7.37095e+06	-46939.1	1005.82	-29767.6	0.000000	0.000000	6.913120	0.042848	NaN	0.000000	0.001550	0.001768	28.0823	0.025398	0.002039	12.4579	-113.667	13.5708	-0.002591	0.911083	-0.271813	-0.273210	0.042848	12.4579	-0.274392	-1941.77	-2.206661E-5	NaN
603	1.000000	0.922481	7.37095e+06	-46939.1	1005.82	-29767.6	0.000000	0.000000	6.923120	0.013695	NaN	0.000000	0.001572	0.001775	28.0811	0.035749	0.001990	17.9683	-17.0418	-163.402	-0.029364	0.921115	-0.261812	-0.263178	0.013695	17.9683	-0.262384	-1274.72	-1.074343E-5	NaN
603	1.000000	0.932449	7.37095e+06	-46939.1	1005.82	-29767.6	0.000000	0.000000	6.933091	0.097462	NaN	0.000000	0.001573	0.001763	28.081	0.022462	0.002127	10.5591	127.551	12.5238	0.057799	0.931073	-0.251845	-0.253220	0.097462	10.5591	-0.258767	-1122.05	-8.686004E-5	NaN
603	1.000000	0.942472	7.37095e+06	-46939.1	1005.82	-29767.6	0.000000	0.000000	6.943108	-0.031548	NaN	0.000000	0.001563	0.001781	28.0813	0.034743	0.001994	17.4258	104.49	-166.983	0.024852	0.941185	-0.241822	-0.243108	-0.031548	17.4258	-0.240464	-584.516	5.397265E-5	NaN
603	1.000000	0.952488	7.37095e+06	-46939.1	1005.82	-29767.6	0.000000	0.000000	6.953127	0.024532	NaN	0.000000	0.001591	0.001775	28.0811	0.025404	0.002027	12.5329	125.466	15.139	0.084536	0.951124	-0.231805	-0.233169	0.024532	12.5329	-0.233273	-450.926	-5.440444E-5	NaN
603	1.000000	0.962483	7.37095e+06	-46939.1	1005.82	-29767.6	0.000000	0.000000	6.963123	0.057403	NaN	0.000000	0.001549	0.001794	28.0811	0.047070	0.001938	24.2856	-48.595	-169.501	0.085810	0.961171	-0.221811	-0.223122	0.057403	24.2856	-0.223583	-316.822	-0.000181	NaN
603	1.000000	0.972521	7.37095e+06	-46939.1	1005.82	-29767.6	0.000000	0.000000	6.973160	0.001873	NaN	0.000000	0.001587	0.001769	28.0813	0.058281	0.001918	30.3921	-110.4	13.7123	0.029359	0.971123	-0.211772	-0.213170	0.001873	30.3921	-0.211818	-205.224	-9.126221E-6	NaN
603	1.000000	0.982504	7.37095e+06	-46939.1	1005.82	-29767.6	0.000000	0.000000	6.983144	0.040638	NaN	0.000000	0.001531	0.001747	28.0814	0.039711	0.002066	19.2221	177.301	-166.301	0.041819	0.981215	-0.201790	-0.203078	0.040638	19.2221	-0.203375	-149.632	-0.000272	NaN
603	1.000000	0.992488	7.37095e+06	-46939.1	1005.82	-29767.6	0.000000	0.000000	6.993129	0.070281	NaN	0.000000	0.001622	0.001800	28.0811	0.064293	0.002082	30.8861	-2.788985	11.7698	0.033033	0.991158	-0.191805	-0.193136	0.070281	30.8861	-0.193512	-102.923	-0.000683	NaN
603	1.000000	1.002486	7.37095e+06	-46939.1	1005.82	-29767.6	0.000000	0.000000	7.003125	0.024713	NaN	0.000000	0.001510	0.001772	28.0811	0.043322	0.001988	21.795	-38.5129	-167.755	0.027706	1.001236	-0.181807	-0.183057	0.024713	21.795	-0.182658	-67.6972	-0.000365	NaN
603	1.000000	1.012528	7.37095e+06	-46939.1	1005.82	-29767.6	0.000000	0.000000	7.013169	0.068278	NaN	0.000000	0.001512	0.001783	28.0813	0.110002	0.001974	55.7356	-79.6513	12.1436	0.023727	1.011121	-0.171765	-0.173172	0.068278	55.7356	-0.172684	-45.7177	-0.001493	NaN
603	1.000000	1.022508	7.37095e+06	-46939.1	1005.82	-29767.6	0.000000	0.000000	7.023149	0.075573	NaN	0.000000	0.001530	0.001779	28.0813	0.025363	0.001903	13.3284	77.7946	-167.307	0.003043	1.021160	-0.161785	-0.163133	0.075573	13.3284	-0.166038	-35.0356	-0.002157	NaN
603	1.000000	1.032521	7.37095e+06	-46939.1	1005.82	-29767.6	0.000000	0.000000	7.033159	-0.021646	NaN	0.000000	0.001531	0.001785	28.0811	0.006092	0.001982	3.074140	-111.472	15.5999	0.105995	1.031084	-0.151772	-0.153209	-0.021646	3.074140	-0.146491	-15.6205	0.001386	NaN
603	1.000000	1.042517	7.37095e+06	-46939.1	1005.82	-29767.6	0.000000	0.000000	7.043153	-0.051639	NaN	0.000000	0.001520	0.001776	28.0818	0.060455	0.002090	28.9297	10.621	-168.136	-0.086629	1.041201	-0.141777	-0.143092	-0.051639	28.9297	-0.140438	-12.0556	0.004283	NaN
603	1.000000	1.052566	7.37095e+06	-46939.1	1005.82	-29767.6	0.000000	0.000000	7.053203	-0.015220	NaN	0.000000	0.001607	0.001830	28.0815	0.065221	0.002026	32.1943	157.33	14.3006	-0.077198	1.051196	-0.131727	-0.133097	-0.015220	32.1943	-0.131373	-8.102422	0.001878	NaN
603	1.000000	1.062537	7.37095e+06	-46939.1	1005.82	-29767.6	0.000000	0.000000	7.063176	0.016144	NaN	0.000000	0.001592	0.001806	28.0827	0.052870	0.001819	29.0602	178.144	-165.53	0.013963	1.061176	-0.121756	-0.123117	0.016144	29.0602	-0.122173	-5.342531	-0.003022	NaN
603	1.000000	1.072549	7.37095e+06	-46939.1	1005.82	-29767.6	0.000000	0.000000	7.073188	0.025584	NaN	0.000000	0.001556	0.001778	28.0825	0.139312	0.002034	68.5021	67.0736	11.96	0.092939	1.071111	-0.111744	-0.113182	0.025584	68.5021	-0.112024	-3.314065	-0.007720	NaN
603	1.000000	1.082549	7.37095e+06	-46939.1	1005.82	-29767.6	0.000000	0.000000	7.083188	0.011727	NaN	0.000000	0.001537	0.001800	28.0827	0.058050	0.001952	29.7332	130.488	-169.636	0.036176	1.081209	-0.101744	-0.103085	0.011727	29.7332	-0.102040	-2.026491	-0.005787	NaN
603	1.000000	1.092527	7.37095e+06	-46939.1	1005.82	-29767.6	0.000000	0.000000	7.093164	-0.037715	NaN	0.000000	0.001592	0.001829	28.0825	0.107545	0.001998	53.8225	52.473	14.5588	-0.001924	1.091179	-0.091766	-0.093114	-0.037715	53.8225	-0.091240	-1.155612	0.032637	NaN
603	1.000000	1.102556	7.37095e+06	-46939.1	1005.82	-29767.6	0.000000	0.000000	7.103194	-0.006630	NaN	0.000000	0.001606	0.001829	28.0825	0.064714	0.001973	32.7935	-61.0661	-167.422	-0.053899	1.101261	-0.081737	-0.083032	-0.006630	32.7935	-0.081586	-0.677844	0.009781	NaN
603	1.000000	1.112542	7.37095e+06	-46939.1	1005.82	-29767.6	0.000000	0.000000	7.113182	0.041818	NaN	0.000000	0.001566	0.001826	28.0825	0.086719	0.002158	40.18	0.113463	12.2221	-0.017305	1.111192	-0.071751	-0.073101	0.041818	40.18	-0.072532	-0.398214	-0.105013	NaN
603	1.000000	1.122563	7.37095e+06	-46939.1	1005.82	-29767.6	0.000000	0.000000	7.123201	0.002347	NaN	0.000000	0.001584	0.001822	28.0826	0.025889	0.001899	13.6327	-108.705	-162.914	-0.058168	1.121208	-0.061730	-0.063085	0.002347	13.6327	-0.061859	-0.203478	-0.011532	NaN
603	1.000000	1.132572	7.37095e+06	-46939.1	1005.82	-29767.6	0.000000	0.000000	7.133212	0.045505	NaN	0.000000	0.001604	0.001837	28.0825	0.117313	0.002075	56.5292	108.022	12.3772	-0.014332	1.131201	-0.051721	-0.053093	0.045505	56.5292	-0.052325	-0.107207	-0.424461	NaN
603	1.000000	1.142557	7.37095e+06	-46939.1	1005.82	-29767.6	0.000000	0.000000	7.143198	0.068477	NaN	0.000000	0.001520	0.001839	28.0825	0.074697	0.001968	37.9477	-165.697	-166.759	0.073859	1.141233	-0.041737	-0.043060	0.068477	37.9477	-0.043090	-0.056180	-1.218891	NaN
603	1.000000	1.152564	7.37095e+06	-46939.1	1005.82	-29767.6	0.000000	0.000000	7.153202	0.018716	NaN	0.000000	0.001525	0.001869	28.0827	0.065595	0.001866	35.1581	-4.214014	14.9565	0.036252	1.151217	-0.031730	-0.033077	0.018716	35.1581	-0.032129	-0.026430	-0.708155	NaN
603	1.000000	1.162559	7.37095e+06	-46939.1	1005.82	-29767.6	0.000000	0.000000	7.163200	0.064484	NaN	0.000000	0.001508	0.001891	28.0828	0.149215	0.002091	71.3505	70.5766	-165.591	0.066588	1.161252	-0.021734	-0.023041	0.064484	71.3505	-0.022412	-0.014467	-4.457328	NaN
603	1.000000	1.172556	7.37095e+06	-46939.1	1005.82	-29767.6	0.000000	0.000000	7.173197	0.067880	NaN	0.000000	0.001535	0.001850	28.0827	0.099281	0.001950	50.9219	41.6898	14.0498	0.072065	1.171222	-0.011737	-0.013071	0.067880	50.9219	-0.012737	-0.007951	-8.537465	NaN
603	1.000000	1.182569	7.37095e+06	-46939.1	1005.82	-29767.6	0.000000	0.000000	7.183226	0.446154	NaN	0.000000	0.001530	0.001817	28.0827	0.659440	0.001883	350.199	14.023	-166.554	0.128475	1.181263	-0.001724	-0.003031	0.446154	350.199	-0.002680	-0.001905	-234.224	NaN
603	2.000000	1.191596	7.37095e+06	-46939.1	1005.82	-29767.6	0.000000	0.000000	7.192588	8.611438	NaN	0.000000	0.001541	0.001886	28.0827	8.934448	0.001594	5604.39	5.659651	9.433384	7.991942	1.191069	0.007302	0.006776	8.611438	5604.39	0.006150	0.005207	1653.66	70955.7
603	2.000000	1.194130	7.37095e+06	-46939.1	1005.82	-29767.6	0.000000	0.000000	7.195239	11.4579	NaN	0.000000	0.001535	0.001868	28.0814	11.8379	0.001772	6679.34	8.026040	-175.122	10.9615	1.193803	0.009837	0.009510	11.4579	6679.34	0.008550	0.007614	1504.76	69933.9
603	2.000000	1.196589	7.37095e+06	-46939.1	1005.82	-29767.6	0.000000	0.000000	7.197879	15.8749	NaN	0.000000	0.001498	0.001859	28.0815	14.6592	0.001818	8064.97	5.027549	7.974733	14.7791	1.196240	0.012295	0.011946	15.8749	8064.97	0.010819	0.010106	1570.84	73297.1
603	2.000000	1.199048	7.37095e+06	-46939.1	1005.82	-29767.6	0.000000	0.000000	7.200598	22.1616	NaN	0.000000	0.001556	0.001856	28.0814	17.2712	0.001674	10315.6	2.770471	-173.914	20.9675	1.198712	0.014755	0.014419	22.1616	10315.6	0.013144	0.012889	1719.38	83014.8
603	2.000000	1.201524	7.37095e+06	-46939.1	1005.82	-29767.6	0.000000	0.000000	7.203303	27.7415	NaN	0.000000	0.001521	0.001836	28.0817	19.6015	0.001751	11197.2	6.190287	1.931029	25.9146	1.201155	0.017231	0.016862	27.7415	11197.2	0.015373	0.015786	1757.35	81422.7
603	2.000000	1.204081	7.37095e+06	-46939.1	1005.82	-29767.6	0.000000	0.000000	7.205973	30.5215	NaN	0.000000	0.001535	0.001826	28.0816	21.8892	0.001770	12368.2	7.452672	-177.951	31.298	1.203649	0.019787	0.019356	30.5215	12368.2	0.017936	0.019403	1573.05	81123.8
603	2.000000	1.206543	7.37095e+06	-46939.1	1005.82	-29767.6	0.000000	0.000000	7.208673	36.29	NaN	0.000000	0.001553	0.001855	28.0814	23.9658	0.001612	14865.1	5.749034	0.685811	35.2191	1.206240	0.022249	0.021947	36.29	14865.1	0.020418	0.023204	1563.97	89158.3
603	2.000000	1.209042	7.37095e+06	-46939.1	1005.82	-29767.6	0.000000	0.000000	7.211338	40.3287	NaN	0.000000	0.001540	0.001850	28.0814	26.3717	0.001671	15779.7	5.364266	-179.461	40.0566	1.208770	0.024749	0.024476	40.3287	15779.7	0.022832	0.027189	1483.25	87432.6
603	2.000000	1.211528	7.37095e+06	-46939.1	1005.82	-29767.6	0.000000	0.000000	7.214018	45.0455	NaN	0.000000	0.001550	0.001869	28.0817	29.6112	0.001815	16313.6	8.868789	-3.578201	45.2767	1.211216	0.027235	0.026923	45.0455	16313.6	0.025164	0.031314	1438.5	84226.9
603	2.000000	1.213967	7.37095e+06	-46939.1	1005.82	-29767.6	0.000000	0.000000	7.216958	57.2372	NaN	0.000000	0.001498	0.001826	28.0813	32.0599	0.001791	17896.8	5.657197	179.017	54.8118	1.213668	0.029674	0.029375	57.2372	17896.8	0.027275	0.035285	1622.13	87046.5
603	2.000000	1.216510	7.37095e+06	-46939.1	1005.82	-29767.6	0.000000	0.000000	7.219736	62.9463	NaN	0.000000	0.001531	0.001842	28.0815	34.3503	0.001848	18589.6	7.578154	-2.633219	60.4291	1.216185	0.032216	0.031892	62.9463	18589.6	0.029677	0.040077	1570.65	84839.2
603	2.000000	1.219076	7.37095e+06	-46939.1	1005.82	-29767.6	0.000000	0.000000	7.222516	68.1647	NaN	0.000000	0.001489	0.001799	28.0815	36.5848	0.001790	20434.1	10.429	174.591	72.1434	1.218658	0.034782	0.034364	68.1647	20434.1	0.032280	0.045603	1494.75	87424.5
603	2.000000	1.221507	7.37095e+06	-46939.1	1005.82	-29767.6	0.000000	0.000000	7.225532	82.3784	NaN	0.000000	0.001496	0.001863	28.0817	39.4827	0.001783	22143.2	4.270084	-0.902516	80.4035	1.221066	0.037214	0.036773	82.3784	22143.2	0.034424	0.050412	1634.09	90104
603	2.000000	1.224080	7.37095e+06	-46939.1	1005.82	-29767.6	0.000000	0.000000	7.228470	91.2533	NaN	0.000000	0.001530	0.001807	28.0816	41.8208	0.001714	24403.9	4.816487	177.058	93.1777	1.223657	0.039787	0.039364	91.2533	24403.9	0.036982	0.056462	1616.18	93832.4
603	2.000000	1.226556	7.37095e+06	-46939.1	1005.82	-29767.6	0.000000	0.000000	7.231369	101.571	NaN	0.000000	0.001520	0.001849	28.0825	43.8621	0.001777	24687.6	3.834030	-1.250939	102.131	1.226054	0.042262	0.041761	101.571	24687.6	0.039176	0.061917	1640.43	90645.4
603	2.000000	1.229009	7.37095e+06	-46939.1	1005.82	-29767.6	0.000000	0.000000	7.234208	110.942	NaN	0.000000	0.001523	0.001824	28.083	47.2347	0.001756	26893.6	4.956664	175.576	111.184	1.228671	0.044716	0.044378	110.942	26893.6	0.041622	0.068287	1624.65	94026.9
603	2.000000	1.231450	7.37095e+06	-46939.1	1005.82	-29767.6	0.000000	0.000000	7.237127	122.563	NaN	0.000000	0.001524	0.001855	28.0829	49.8082	0.001870	26641.8	5.225434	-4.678391	118.958	1.231144	0.047157	0.046851	122.563	26641.8	0.043706	0.073958	1657.21	89504.7
603	2.000000	1.233976	7.37095e+06	-46939.1	1005.82	-29767.6	0.000000	0.000000	7.240131	134.19	NaN	0.000000	0.001496	0.001850	28.0828	51.7834	0.001742	29724.4	3.759865	175.714	132.852	1.233673	0.049683	0.049380	134.19	29724.4	0.046297	0.081312	1650.31	95237.6
603	2.000000	1.236476	7.37095e+06	-46939.1	1005.82	-29767.6	0.000000	0.000000	7.243214	148.382	NaN	0.000000	0.001544	0.001840	28.0827	53.0878	0.001669	31814.2	5.101882	-6.513543	144.988	1.236114	0.052183	0.051820	148.382	31814.2	0.048685	0.088391	1678.7	97766.5
603	2.000000	1.238951	7.37096e+06	-46939.1	1005.82	-29767.6	0.000000	0.000000	7.246265	162.373	NaN	0.000000	0.001531	0.001860	28.083	54.2389	0.001827	29684.1	4.775428	174.977	160.982	1.238625	0.054658	0.054331	162.373	29684.1	0.050555	0.094137	1724.85	88392.7
603	2.000000	1.241419	7.37096e+06	-46939.1	1005.82	-29767.6	0.000000	0.000000	7.248798	163.964	NaN	0.000000	0.001540	0.001856	28.0828	57.2689	0.001810	31631.8	2.158720	-3.230126	158.831	1.241113	0.057126	0.056819	163.964	31631.8	0.053238	0.102683	1596.8	90187.6
603	2.000000	1.244017	7.37096e+06	-46939.1	1005.82	-29767.6	0.000000	0.000000	7.251698	171.299	NaN	0.000000	0.001533	0.001860	28.0828	60.9559	0.001806	33745.5	6.764310	171.685	174.285	1.243811	0.059724	0.059518	171.299	33745.5	0.055917	0.111575	1535.29	92300.9
603	2.000000	1.246524	7.37096e+06	-46939.1	1005.82	-29767.6	0.000000	0.000000	7.254883	187.797	NaN	0.000000	0.001509	0.001859	28.0827	61.7102	0.001845	33441.6	7.215994	-7.619440	186.365	1.246071	0.062231	0.061777	187.797	33441.6	0.058019	0.118802	1580.76	88643.9
603	2.000000	1.248866	7.37096e+06	-46939.1	1005.82	-29767.6	0.000000	0.000000	7.257755	200.687	NaN	0.000000	0.001526	0.001861	28.083	62.3774	0.001730	36052.6	-0.139580	178.54	193.927	1.248491	0.064573	0.064197	200.687	36052.6	0.060398	0.127239	1577.25	92342.1
603	2.000000	1.251458	7.37096e+06	-46939.1	1005.82	-29767.6	0.000000	0.000000	7.260789	211.436	NaN	0.000000	0.001507	0.001867	28.0828	66.5455	0.001754	37949.5	7.096230	-9.071019	209.717	1.251025	0.067165	0.066732	211.436	37949.5	0.062986	0.136734	1546.33	93765.1
603	2.000000	1.253925	7.37096e+06	-46939.1	1005.82	-29767.6	0.000000	0.000000	7.263683	221.849	NaN	0.000000	0.001574	0.001867	28.0829	69.7472	0.001809	38559.8	5.429064	171.838	220.086	1.253685	0.069631	0.069392	221.849	38559.8	0.065316	0.145558	1524.13	92339.8
603	2.000000	1.256467	7.37096e+06	-46939.1	1005.82	-29767.6	0.000000	0.000000	7.267040	241.669	NaN	0.000000	0.001541	0.001868	28.0829	70.5054	0.001760	40063.4	3.730001	-5.841414	238.945	1.256100	0.072174	0.071807	241.669	40063.4	0.067650	0.154658	1562.6	93075.3
603	2.000000	1.258829	7.37096e+06	-46939.1	1005.82	-29767.6	0.000000	0.000000	7.269858	252.752	NaN	0.000000	0.001560	0.001838	28.0829	73.2761	0.001899	38596.8	6.716784	171.13	246.501	1.258564	0.074535	0.074271	252.752	38596.8	0.069624	0.162562	1554.81	87461.1
603	2.000000	1.261359	7.37096e+06	-46939.1	1005.82	-29767.6	0.000000	0.000000	7.273558	281.196	NaN	0.000000	0.001512	0.001849	28.0816	73.7913	0.001668	44230.8	4.522571	-7.801808	274.915	1.261046	0.077066	0.076753	281.196	44230.8	0.072298	0.173560	1620.16	97000.4
603	2.000000	1.263932	7.37096e+06	-46939.1	1005.82	-29767.6	0.000000	0.000000	7.276093	280.299	NaN	0.000000	0.001523	0.001862	28.0815	77.528	0.001704	45508.2	4.076794	172.3	279.726	1.263589	0.079638	0.079296	280.299	45508.2	0.075019	0.185102	1514.29	96640.1
603	2.000000	1.266459	7.37096e+06	-46939.1	1005.82	-29767.6	0.000000	0.000000	7.279190	294.165	NaN	0.000000	0.001515	0.001837	28.0817	80.3728	0.001751	45889.8	5.329007	-8.836597	290.153	1.266263	0.082165	0.081969	294.165	45889.8	0.077358	0.195299	1506.23	94872.3
603	2.000000	1.268827	7.37096e+06	-46939.1	1005.82	-29767.6	0.000000	0.000000	7.282341	313.195	NaN	0.000000	0.001497	0.001853	28.0816	82.5658	0.001843	44788.1	3.757250	172.852	306.837	1.268596	0.084534	0.084303	313.195	44788.1	0.079289	0.203914	1535.91	90617.5
603	2.000000	1.271325	7.37096e+06	-46939.1	1005.82	-29767.6	0.000000	0.000000	7.286010	341.673	NaN	0.000000	0.001567	0.001854	28.0816	86.7525	0.001803	48120.7	9.642066	-13.4226	334.011	1.270985	0.087032	0.086692	341.673	48120.7	0.081707	0.214943	1589.6	94829.6
603	2.000000	1.273875	7.37096e+06	-46939.1	1005.82	-29767.6	0.000000	0.000000	7.288863	349.049	NaN	0.000000	0.001544	0.001823	28.0814	89.0234	0.001906	46699.6	4.580443	171.903	345.698	1.273712	0.089582	0.089418	349.049	46699.6	0.083976	0.225542	1547.6	89840.4
603	2.000000	1.276422	7.37096e+06	-46939.1	1005.82	-29767.6	0.000000	0.000000	7.292509	375.796	NaN	0.000000	0.001558	0.001824	28.0817	90.0111	0.001810	49726.7	6.091585	-9.296436	373.439	1.275879	0.092128	0.091586	375.796	49726.7	0.086460	0.237417	1582.85	93241
603	2.000000	1.278873	7.37096e+06	-46939.1	1005.82	-29767.6	0.000000	0.000000	7.295395	386.383	NaN	0.000000	0.001525	0.001837	28.0815	91.9457	0.001796	51206.3	6.493440	169.743	382.245	1.278521	0.094579	0.094227	386.383	51206.3	0.088920	0.249456	1548.9	93669.9
603	2.000000	1.281398	7.37096e+06	-46939.1	1005.82	-29767.6	0.000000	0.000000	7.298626	403.528	NaN	0.000000	0.001547	0.001832	28.0817	95.6886	0.001897	50453	7.808896	-11.6915	399.389	1.280987	0.097105	0.096694	403.528	50453	0.091106	0.260388	1549.72	90333.7
603	2.000000	1.283999	7.37096e+06	-46939.1	1005.82	-29767.6	0.000000	0.000000	7.301994	422.201	NaN	0.000000	0.001554	0.001865	28.0814	96.198	0.001793	53665.4	1.855846	174.326	426.582	1.283655	0.099705	0.099362	422.201	53665.4	0.093805	0.274186	1539.83	93636.3
603	2.000000	1.286462	7.37096e+06	-46939.1	1005.82	-29767.6	0.000000	0.000000	7.305512	447.836	NaN	0.000000	0.001553	0.001851	28.0818	98.5262	0.001836	53655.8	8.337062	-12.1745	444.688	1.285943	0.102169	0.101650	447.836	53655.8	0.095909	0.285178	1570.38	91797.9
603	2.000000	1.288916	7.37096e+06	-46939.1	1005.82	-29767.6	0.000000	0.000000	7.308735	466.559	NaN	0.000000	0.001519	0.001811	28.0813	99.3697	0.001889	52603.6	5.313715	171.138	463.681	1.288420	0.104623	0.104126	466.559	52603.6	0.097971	0.296140	1575.47	88316.1
603	2.000000	1.289894	7.37096e+06	-46939.1	1005.82	-29767.6	0.000000	0.000000	7.309683	465.836	NaN	0.000000	0.001535	0.001794	28.0815	100.213	0.001720	58272.8	4.110115	170.849	461.38	1.289669	0.105601	0.105375	465.836	58272.8	0.099605	0.304967	1527.5	96407.8