File: remote_trans/data/nanoindenter/0828-1/data/Data_2025-08-06,11h17m57s/2025-07-22_16-23-58_1_1039.txt
2025-07-22, 16:23:58, 1
Index	Phase	Displacement	Time	Pos X	Pos Y	Pos Z	Rot A	Rot B	Piezo Z	Force A	Force B	Gripper	Voltage A	Voltage B	Temperature	Amplitude force	Amplitude pos	Stiffness	Phase shift	Phase excitation	Force A raw	Displacement raw	HMax	HMax raw	Real Force	Real Stiffness	Contact Depth	Area	Hardness	Reduced Mod.
[#]	[#]	[um]	[s]	[um]	[um]	[um]	[m°]	[m°]	[um]	[uN]	[uN]	[V]	[V]	[V]	[°C]	[uN]	[um]	[N/m]	[°]	[°]	[uN]	[um]	[um]	[um]	[uN]	[N/m]	[um]	[um^2]	[MPa]	[MPa]
1039	1.000000	0.002724	7.37521e+06	-52089.1	1055.82	-29750.1	0.000000	0.000000	6.002814	-0.037604	NaN	0.000000	0.001513	0.001734	28.0829	0.049861	0.000981	50.8181	-157.68	-165.792	0.051771	0.001436	-0.811184	-0.812472	-0.037604	50.8181	-0.810629	-6.267662E+10	5.999739E-13	NaN
1039	1.000000	0.010695	7.37521e+06	-52089.1	1055.82	-29750.1	0.000000	0.000000	6.010789	0.052238	NaN	0.000000	0.001551	0.001760	28.0823	0.054452	0.000960	56.7333	-164.13	-169.034	-0.006973	0.009346	-0.803213	-0.804562	0.052238	56.7333	-0.803904	-5.079827E+10	-1.028348E-12	NaN
1039	1.000000	0.018660	7.37521e+06	-52089.1	1055.82	-29750.1	0.000000	0.000000	6.018751	-0.008146	NaN	0.000000	0.001558	0.001739	28.0821	0.099750	0.001650	60.4418	162.739	-165.403	-0.061572	0.017328	-0.795248	-0.796581	-0.008146	60.4418	-0.795147	-3.863476E+10	2.108350E-13	NaN
1039	1.000000	0.026724	7.37521e+06	-52089.1	1055.82	-29750.1	0.000000	0.000000	6.026815	-0.013513	NaN	0.000000	0.001619	0.001768	28.0825	0.071982	0.001985	36.271	-73.6808	-164.299	0.019678	0.025379	-0.787184	-0.788529	-0.013513	36.271	-0.786904	-2.985646E+10	4.525952E-13	NaN
1039	1.000000	0.034659	7.37521e+06	-52089.1	1055.82	-29750.1	0.000000	0.000000	6.034752	0.032581	NaN	0.000000	0.001612	0.001729	28.0824	0.054317	0.001955	27.7876	136.925	-162.959	0.041876	0.033364	-0.779249	-0.780544	0.032581	27.7876	-0.780128	-2.415312E+10	-1.348915E-12	NaN
1039	1.000000	0.042647	7.37521e+06	-52089.1	1055.82	-29750.1	0.000000	0.000000	6.042741	0.062909	NaN	0.000000	0.001633	0.001750	28.0826	0.021047	0.002054	10.2455	126.332	-163.513	0.024798	0.041338	-0.771261	-0.772570	0.062909	10.2455	-0.775866	-2.113756E+10	-2.976173E-12	NaN
1039	1.000000	0.050658	7.37521e+06	-52089.1	1055.82	-29750.1	0.000000	0.000000	6.050747	-0.055644	NaN	0.000000	0.001648	0.001732	28.0823	0.066817	0.002056	32.5054	155.259	-167.286	-0.066948	0.049383	-0.763251	-0.764525	-0.055644	32.5054	-0.761967	-1.367903E+10	4.067856E-12	NaN
1039	1.000000	0.058641	7.37521e+06	-52089.1	1055.82	-29750.1	0.000000	0.000000	6.058733	0.005157	NaN	0.000000	0.001667	0.001737	28.0827	0.104632	0.001973	53.0335	-148.818	-164.283	0.069386	0.057376	-0.755267	-0.756532	0.005157	53.0335	-0.755340	-1.111461E+10	-4.640002E-13	NaN
1039	1.000000	0.066634	7.37521e+06	-52089.1	1055.82	-29750.1	0.000000	0.000000	6.066725	-0.027438	NaN	0.000000	0.001640	0.001723	28.0825	0.034663	0.001960	17.6833	37.7694	-166.588	-0.058281	0.065334	-0.747274	-0.748574	-0.027438	17.6833	-0.746110	-8.322707E+9	3.296763E-12	NaN
1039	1.000000	0.074696	7.37521e+06	-52089.1	1055.82	-29750.1	0.000000	0.000000	6.074788	0.011255	NaN	0.000000	0.001644	0.001711	28.0824	0.062256	0.001956	31.8216	92.3014	-164.373	0.033751	0.073337	-0.739212	-0.740572	0.011255	31.8216	-0.739478	-6.759930E+9	-1.664924E-12	NaN
1039	1.000000	0.082684	7.37521e+06	-52089.1	1055.82	-29750.1	0.000000	0.000000	6.082775	-0.012905	NaN	0.000000	0.001641	0.001709	28.0828	0.032670	0.002028	16.1102	8.599502	-165.491	-0.040607	0.081381	-0.731224	-0.732527	-0.012905	16.1102	-0.730623	-5.120421E+9	2.520301E-12	NaN
1039	1.000000	0.090690	7.37521e+06	-52089.1	1055.82	-29750.1	0.000000	0.000000	6.090782	0.016704	NaN	0.000000	0.001651	0.001704	28.0823	0.034650	0.002126	16.3003	29.1882	-166.353	-0.037275	0.089321	-0.723218	-0.724587	0.016704	16.3003	-0.723987	-4.157568E+9	-4.017732E-12	NaN
1039	1.000000	0.098682	7.37521e+06	-52089.1	1055.82	-29750.1	0.000000	0.000000	6.098771	-0.054683	NaN	0.000000	0.001644	0.001743	28.0823	0.076890	0.002034	37.7936	40.9085	-166.833	0.025766	0.097392	-0.715227	-0.716516	-0.054683	37.7936	-0.714141	-3.051823E+9	1.791800E-11	NaN
1039	1.000000	0.106668	7.37521e+06	-52089.1	1055.82	-29750.1	0.000000	0.000000	6.106762	0.042284	NaN	0.000000	0.001619	0.001739	28.0822	0.058294	0.001978	29.4765	-85.4066	-166.31	-0.033601	0.105417	-0.707240	-0.708491	0.042284	29.4765	-0.708316	-2.541334E+9	-1.663844E-11	NaN
1039	1.000000	0.114697	7.37521e+06	-52089.1	1055.82	-29750.1	0.000000	0.000000	6.114786	-0.066295	NaN	0.000000	0.001642	0.001728	28.0834	0.082267	0.002035	40.4242	81.305	-166.852	-0.009875	0.113354	-0.699211	-0.700555	-0.066295	40.4242	-0.697981	-1.836368E+9	3.610090E-11	NaN
1039	1.000000	0.122643	7.37521e+06	-52089.1	1055.82	-29750.1	0.000000	0.000000	6.122734	-0.017874	NaN	0.000000	0.001650	0.001735	28.0835	0.100980	0.001907	52.9508	173.602	-166.087	-0.062554	0.121348	-0.691265	-0.692560	-0.017874	52.9508	-0.691012	-1.474834E+9	1.211942E-11	NaN
1039	1.000000	0.130679	7.37521e+06	-52089.1	1055.82	-29750.1	0.000000	0.000000	6.130770	-0.005000	NaN	0.000000	0.001663	0.001735	28.0833	0.030068	0.001980	15.1846	-109.035	-164.857	0.000437	0.129378	-0.683230	-0.684530	-0.005000	15.1846	-0.682983	-1.145493E+9	4.364986E-12	NaN
1039	1.000000	0.138693	7.37521e+06	-52089.1	1055.82	-29750.1	0.000000	0.000000	6.138784	-0.011427	NaN	0.000000	0.001654	0.001731	28.0836	0.044804	0.002059	21.7612	-166.98	-164.559	0.021386	0.137388	-0.675215	-0.676520	-0.011427	21.7612	-0.674822	-8.858700E+8	1.289926E-11	NaN
1039	1.000000	0.146700	7.37521e+06	-52089.1	1055.82	-29750.1	0.000000	0.000000	6.146791	-0.026183	NaN	0.000000	0.001657	0.001714	28.0835	0.087055	0.001987	43.8081	5.844644	-165.19	-0.048383	0.145381	-0.667208	-0.668527	-0.026183	43.8081	-0.666760	-6.871243E+8	3.810463E-11	NaN
1039	1.000000	0.154676	7.37521e+06	-52089.1	1055.82	-29750.1	0.000000	0.000000	6.154769	0.024025	NaN	0.000000	0.001705	0.001707	28.0836	0.031093	0.001929	16.1166	85.2778	-166.051	0.065759	0.153351	-0.659232	-0.660557	0.024025	16.1166	-0.660350	-5.613876E+8	-4.279598E-11	NaN
1039	1.000000	0.162690	7.37521e+06	-52089.1	1055.82	-29750.1	0.000000	0.000000	6.162784	0.042149	NaN	0.000000	0.001652	0.001761	28.0837	0.115134	0.001915	60.121	-96.9666	-165.599	-0.008943	0.161414	-0.651218	-0.652494	0.042149	60.121	-0.651744	-4.278953E+8	-9.850262E-11	NaN
1039	1.000000	0.170739	7.37521e+06	-52089.1	1055.82	-29750.1	0.000000	0.000000	6.170829	-0.043894	NaN	0.000000	0.001652	0.001732	28.0836	0.038053	0.002138	17.7989	32.7928	-167.915	0.022383	0.169373	-0.643169	-0.644535	-0.043894	17.7989	-0.641319	-3.078859E+8	1.425670E-10	NaN
1039	1.000000	0.178695	7.37521e+06	-52089.1	1055.82	-29750.1	0.000000	0.000000	6.178786	-0.013086	NaN	0.000000	0.001661	0.001699	28.0839	0.056429	0.001976	28.5626	162.654	-167.487	-0.029692	0.177391	-0.635214	-0.636517	-0.013086	28.5626	-0.634870	-2.511231E+8	5.210860E-11	NaN
1039	1.000000	0.186726	7.37521e+06	-52089.1	1055.82	-29750.1	0.000000	0.000000	6.186817	-0.021355	NaN	0.000000	0.001616	0.001711	28.0836	0.038597	0.002002	19.2839	165.296	-165.165	0.045134	0.185403	-0.627182	-0.628505	-0.021355	19.2839	-0.626351	-1.918259E+8	1.113262E-10	NaN
1039	1.000000	0.194688	7.37521e+06	-52089.1	1055.82	-29750.1	0.000000	0.000000	6.194780	0.005764	NaN	0.000000	0.001621	0.001779	28.0837	0.058206	0.002092	27.8172	-177.306	-163.734	0.033416	0.193403	-0.619220	-0.620505	0.005764	27.8172	-0.619375	-1.538321E+8	-3.747073E-11	NaN
1039	1.000000	0.202708	7.37521e+06	-52089.1	1055.82	-29750.1	0.000000	0.000000	6.202798	-0.051616	NaN	0.000000	0.001624	0.001726	28.0833	0.027295	0.001892	14.4236	-178.829	-165.442	0.028693	0.201358	-0.611200	-0.612550	-0.051616	14.4236	-0.608516	-1.090679E+8	4.732456E-10	NaN
1039	1.000000	0.210733	7.37521e+06	-52089.1	1055.82	-29750.1	0.000000	0.000000	6.210824	0.006726	NaN	0.000000	0.001636	0.001731	28.0835	0.058465	0.001989	29.3889	-82.1649	-164.745	-0.029908	0.209404	-0.603176	-0.604504	0.006726	29.3889	-0.603347	-9.258746E+7	-7.264964E-11	NaN
1039	1.000000	0.218742	7.37521e+06	-52089.1	1055.82	-29750.1	0.000000	0.000000	6.218834	0.017408	NaN	0.000000	0.001665	0.001750	28.0836	0.098535	0.002013	48.9547	80.4817	-163.47	0.049094	0.217357	-0.595167	-0.596551	0.017408	48.9547	-0.595433	-7.203621E+7	-2.416600E-10	NaN
1039	1.000000	0.226713	7.37521e+06	-52089.1	1055.82	-29750.1	0.000000	0.000000	6.226804	-0.011339	NaN	0.000000	0.001627	0.001765	28.0834	0.192664	0.001962	98.209	129.949	-168.342	-0.033491	0.225418	-0.587195	-0.588490	-0.011339	98.209	-0.587108	-5.530898E+7	2.050138E-10	NaN
1039	1.000000	0.234721	7.37521e+06	-52089.1	1055.82	-29750.1	0.000000	0.000000	6.234811	-0.021715	NaN	0.000000	0.001624	0.001722	28.0839	0.012758	0.001953	6.531477	124.173	-166.742	-0.035747	0.233397	-0.579188	-0.580511	-0.021715	6.531477	-0.576694	-3.972735E+7	5.466048E-10	NaN
1039	1.000000	0.242735	7.37521e+06	-52089.1	1055.82	-29750.1	0.000000	0.000000	6.242829	0.062928	NaN	0.000000	0.001636	0.001745	28.0835	0.076813	0.002006	38.3008	-155.883	-162.762	0.046958	0.241400	-0.571173	-0.572508	0.062928	38.3008	-0.572405	-3.466260E+7	-1.815439E-9	NaN
1039	1.000000	0.250762	7.37521e+06	-52089.1	1055.82	-29750.1	0.000000	0.000000	6.250854	0.000501	NaN	0.000000	0.001629	0.001723	28.0824	0.091392	0.002047	44.6501	-116.886	-162.814	0.017912	0.249424	-0.563146	-0.564484	0.000501	44.6501	-0.563154	-2.582280E+7	-1.940469E-11	NaN
1039	1.000000	0.258728	7.37521e+06	-52089.1	1055.82	-29750.1	0.000000	0.000000	6.258820	0.026237	NaN	0.000000	0.001611	0.001760	28.0823	0.139647	0.001878	74.343	38.4938	-165.421	0.004956	0.257416	-0.555180	-0.556492	0.026237	74.343	-0.555445	-2.019993E+7	-1.298876E-9	NaN
1039	1.000000	0.266768	7.37521e+06	-52089.1	1055.82	-29750.1	0.000000	0.000000	6.266861	0.024457	NaN	0.000000	0.001645	0.001751	28.0822	0.041968	0.001866	22.4848	96.8694	-164.562	0.019138	0.265393	-0.547140	-0.548515	0.024457	22.4848	-0.547956	-1.590895E+7	-1.537342E-9	NaN
1039	1.000000	0.274733	7.37521e+06	-52089.1	1055.82	-29750.1	0.000000	0.000000	6.274822	-0.059193	NaN	0.000000	0.001671	0.001715	28.0826	0.079679	0.002013	39.5733	94.8141	-165.802	-0.070680	0.273443	-0.539175	-0.540465	-0.059193	39.5733	-0.538053	-1.159726E+7	5.104049E-9	NaN
1039	1.000000	0.282714	7.37521e+06	-52089.1	1055.82	-29750.1	0.000000	0.000000	6.282805	-0.023606	NaN	0.000000	0.001667	0.001733	28.0823	0.007345	0.001954	3.759755	-16.19	-167.718	-0.028609	0.281467	-0.531194	-0.532441	-0.023606	3.759755	-0.526485	-8.01213e+06	2.946330E-9	NaN
1039	1.000000	0.290758	7.37521e+06	-52089.1	1055.82	-29750.1	0.000000	0.000000	6.290854	0.093667	NaN	0.000000	0.001619	0.001700	28.0827	0.086412	0.001922	44.9651	156.656	-163.433	0.047043	0.289469	-0.523150	-0.524439	0.093667	44.9651	-0.524712	-7.57031e+06	-1.237297E-8	NaN
1039	1.000000	0.298782	7.37521e+06	-52089.1	1055.82	-29750.1	0.000000	0.000000	6.298873	-0.014852	NaN	0.000000	0.001620	0.001722	28.0823	0.068399	0.001967	34.7778	-135.031	-165.815	-0.058701	0.297485	-0.515127	-0.516423	-0.014852	34.7778	-0.514806	-5.51236e+06	2.694376E-9	NaN
1039	1.000000	0.306773	7.37521e+06	-52089.1	1055.82	-29750.1	0.000000	0.000000	6.306864	-0.027179	NaN	0.000000	0.001652	0.001706	28.0823	0.034064	0.001976	17.2426	93.717	-165.835	-0.070938	0.305409	-0.507135	-0.508499	-0.027179	17.2426	-0.505953	-4.14976e+06	6.549501E-9	NaN
1039	1.000000	0.314768	7.37521e+06	-52089.1	1055.82	-29750.1	0.000000	0.000000	6.314861	0.047913	NaN	0.000000	0.001614	0.001721	28.0823	0.033069	0.001926	17.1705	162.599	-166.018	0.059793	0.313414	-0.499141	-0.500494	0.047913	17.1705	-0.501233	-3.56634e+06	-1.343473E-8	NaN
1039	1.000000	0.322761	7.37521e+06	-52089.1	1055.82	-29750.1	0.000000	0.000000	6.322852	0.002962	NaN	0.000000	0.001677	0.001705	28.0823	0.084080	0.002043	41.1521	-138.368	-165.787	0.014551	0.321472	-0.491147	-0.492436	0.002962	41.1521	-0.491201	-2.58333e+06	-1.146420E-9	NaN
1039	1.000000	0.330806	7.37521e+06	-52089.1	1055.82	-29750.1	0.000000	0.000000	6.330898	0.005527	NaN	0.000000	0.001671	0.001711	28.0827	0.048178	0.002051	23.4871	109.732	-164.775	-0.021866	0.329443	-0.483102	-0.484465	0.005527	23.4871	-0.483278	-2.00173e+06	-2.761211E-9	NaN
1039	1.000000	0.338761	7.37521e+06	-52089.1	1055.82	-29750.1	0.000000	0.000000	6.338852	-0.022127	NaN	0.000000	0.001678	0.001680	28.0821	0.082323	0.002069	39.7949	-112.941	-166.726	0.041154	0.337467	-0.475147	-0.476441	-0.022127	39.7949	-0.474730	-1.51956e+06	1.456169E-8	NaN
1039	1.000000	0.346758	7.37521e+06	-52089.1	1055.82	-29750.1	0.000000	0.000000	6.346852	0.034655	NaN	0.000000	0.001678	0.001661	28.0821	0.061244	0.001958	31.2728	113.762	-166.325	0.110530	0.345445	-0.467150	-0.468463	0.034655	31.2728	-0.467981	-1.22203e+06	-2.835832E-8	NaN
1039	1.000000	0.354775	7.37521e+06	-52089.1	1055.82	-29750.1	0.000000	0.000000	6.354871	0.103875	NaN	0.000000	0.001625	0.001674	28.0824	0.035529	0.002006	17.7115	32.4875	-168.379	0.028644	0.353457	-0.459133	-0.460451	0.103875	17.7115	-0.463532	-1.05836e+06	-9.814741E-8	NaN
1039	1.000000	0.362781	7.37521e+06	-52089.1	1055.82	-29750.1	0.000000	0.000000	6.362873	0.014642	NaN	0.000000	0.001647	0.001634	28.0824	0.051144	0.001979	25.8433	160.014	-163.933	-0.072724	0.361480	-0.451127	-0.452428	0.014642	25.8433	-0.451552	-718121	-2.038961E-8	NaN
1039	1.000000	0.370818	7.37521e+06	-52089.1	1055.82	-29750.1	0.000000	0.000000	6.370911	0.021574	NaN	0.000000	0.001648	0.001686	28.0824	0.031556	0.001964	16.0643	50.3943	-165.86	0.002487	0.369451	-0.443090	-0.444458	0.021574	16.0643	-0.444097	-563846	-3.826141E-8	NaN
1039	1.000000	0.378769	7.37521e+06	-52089.1	1055.82	-29750.1	0.000000	0.000000	6.378859	-0.049258	NaN	0.000000	0.001646	0.001657	28.0823	0.109888	0.002018	54.4434	57.1045	-167.064	-0.032723	0.377455	-0.435139	-0.436453	-0.049258	54.4434	-0.434461	-412222	1.194945E-7	NaN
1039	1.000000	0.386792	7.37521e+06	-52089.1	1055.82	-29750.1	0.000000	0.000000	6.386881	-0.076450	NaN	0.000000	0.001657	0.001659	28.0838	0.043771	0.001950	22.4489	67.4223	-161.487	-0.008710	0.385475	-0.427116	-0.428433	-0.076450	22.4489	-0.424562	-298590	2.560376E-7	NaN
1039	1.000000	0.394780	7.37521e+06	-52089.1	1055.82	-29750.1	0.000000	0.000000	6.394871	-0.025144	NaN	0.000000	0.001642	0.001648	28.0837	0.074968	0.001857	40.3692	18.8663	-165.736	-0.034073	0.393452	-0.419128	-0.420456	-0.025144	40.3692	-0.418661	-246276	1.020949E-7	NaN
1039	1.000000	0.402818	7.37521e+06	-52089.1	1055.82	-29750.1	0.000000	0.000000	6.402910	0.013625	NaN	0.000000	0.001697	0.001672	28.0836	0.105718	0.002100	50.3428	81.4038	-167.655	0.030678	0.401507	-0.411091	-0.412401	0.013625	50.3428	-0.411293	-193549	-7.039563E-8	NaN
1039	1.000000	0.410817	7.37521e+06	-52089.1	1055.82	-29750.1	0.000000	0.000000	6.410909	-0.008535	NaN	0.000000	0.001715	0.001681	28.0836	0.082225	0.001953	42.0967	-131.895	-166.874	-0.005027	0.409477	-0.403091	-0.404431	-0.008535	42.0967	-0.402939	-147193	5.798589E-8	NaN
1039	1.000000	0.418804	7.37521e+06	-52089.1	1055.82	-29750.1	0.000000	0.000000	6.418894	-0.044865	NaN	0.000000	0.001677	0.001642	28.0836	0.068043	0.002005	33.9331	-65.1731	-165.059	-0.080704	0.417541	-0.395104	-0.396367	-0.044865	33.9331	-0.394112	-110142	4.073392E-7	NaN
1039	1.000000	0.426820	7.37521e+06	-52089.1	1055.82	-29750.1	0.000000	0.000000	6.426909	-0.054748	NaN	0.000000	0.001691	0.001614	28.0839	0.042338	0.001992	21.2556	-12.8643	-165.977	-0.075048	0.425500	-0.387088	-0.388408	-0.054748	21.2556	-0.385156	-82002.2	6.676436E-7	NaN
1039	1.000000	0.434810	7.37521e+06	-52089.1	1055.82	-29750.1	0.000000	0.000000	6.434903	0.042385	NaN	0.000000	0.001681	0.001638	28.0838	0.083218	0.002066	40.2731	78.015	-166.976	0.017312	0.433484	-0.379098	-0.380424	0.042385	40.2731	-0.379888	-68908.9	-6.150910E-7	NaN
1039	1.000000	0.442828	7.37521e+06	-52089.1	1055.82	-29750.1	0.000000	0.000000	6.442919	-0.024538	NaN	0.000000	0.001613	0.001662	28.0838	0.044099	0.002051	21.5019	158.973	-167.491	-0.044619	0.441480	-0.371080	-0.372428	-0.024538	21.5019	-0.370224	-50044.1	4.903210E-7	NaN
1039	1.000000	0.450817	7.37521e+06	-52089.1	1055.82	-29750.1	0.000000	0.000000	6.450910	0.041172	NaN	0.000000	0.001662	0.001657	28.0836	0.093525	0.001970	47.4848	149.46	-169.082	0.018029	0.449550	-0.363091	-0.364358	0.041172	47.4848	-0.363742	-40354.5	-1.020249E-6	NaN
1039	1.000000	0.458847	7.37521e+06	-52089.1	1055.82	-29750.1	0.000000	0.000000	6.458940	0.030826	NaN	0.000000	0.001662	0.001664	28.0836	0.044340	0.001893	23.422	171.975	-168.783	0.075249	0.457546	-0.355061	-0.356363	0.030826	23.422	-0.356048	-31237.3	-9.868347E-7	NaN
1039	1.000000	0.466869	7.37521e+06	-52089.1	1055.82	-29750.1	0.000000	0.000000	6.466961	0.011602	NaN	0.000000	0.001686	0.001668	28.0836	0.073304	0.002109	34.7506	-132.98	-163.892	-0.015227	0.465554	-0.347039	-0.348354	0.011602	34.7506	-0.347290	-23315.5	-4.976149E-7	NaN
1039	1.000000	0.474833	7.37521e+06	-52089.1	1055.82	-29750.1	0.000000	0.000000	6.474923	-0.029480	NaN	0.000000	0.001647	0.001639	28.0835	0.044892	0.002104	21.3363	171.982	-166.8	-0.020317	0.473497	-0.339075	-0.340411	-0.029480	21.3363	-0.338039	-17098.6	1.724142E-6	NaN
1039	1.000000	0.482815	7.37521e+06	-52089.1	1055.82	-29750.1	0.000000	0.000000	6.482907	0.018748	NaN	0.000000	0.001669	0.001630	28.0842	0.031832	0.002047	15.5544	126.97	-166.106	-0.059921	0.481489	-0.331093	-0.332419	0.018748	15.5544	-0.331997	-13953.6	-1.343561E-6	NaN
1039	1.000000	0.490845	7.37521e+06	-52089.1	1055.82	-29750.1	0.000000	0.000000	6.490937	0.009357	NaN	0.000000	0.001635	0.001651	28.0835	0.144986	0.001992	72.783	-141.274	-164.852	0.044500	0.489469	-0.323064	-0.324440	0.009357	72.783	-0.323160	-10354.1	-9.036675E-7	NaN
1039	1.000000	0.498840	7.37521e+06	-52089.1	1055.82	-29750.1	0.000000	0.000000	6.498932	0.015134	NaN	0.000000	0.001653	0.001628	28.0839	0.043119	0.002063	20.9011	114.752	-165.261	0.006073	0.497514	-0.315069	-0.316394	0.015134	20.9011	-0.315612	-8016.26	-1.887866E-6	NaN
1039	1.000000	0.506858	7.37521e+06	-52089.1	1055.82	-29750.1	0.000000	0.000000	6.506950	0.004425	NaN	0.000000	0.001627	0.001645	28.0838	0.051195	0.002101	24.3659	-172.251	-166.951	-0.000354	0.505586	-0.307050	-0.308322	0.004425	24.3659	-0.307186	-6017.02	-7.354943E-7	NaN
1039	1.000000	0.514832	7.37521e+06	-52089.1	1055.82	-29750.1	0.000000	0.000000	6.514922	-0.043768	NaN	0.000000	0.001615	0.001624	28.0837	0.067813	0.002090	32.4522	115.143	-169.135	0.011676	0.513553	-0.299076	-0.300355	-0.043768	32.4522	-0.298064	-4403.55	9.939272E-6	NaN
1039	1.000000	0.522828	7.37521e+06	-52089.1	1055.82	-29750.1	0.000000	0.000000	6.522920	0.010546	NaN	0.000000	0.001656	0.001618	28.0827	0.056092	0.002157	26.0089	-8.454980	-167.19	0.052955	0.521512	-0.291080	-0.292396	0.010546	26.0089	-0.291384	-3499.7	-3.013375E-6	NaN
1039	1.000000	0.530870	7.37521e+06	-52089.1	1055.82	-29750.1	0.000000	0.000000	6.530960	-0.032129	NaN	0.000000	0.001617	0.001648	28.0826	0.031003	0.002042	15.1821	-128.496	-169.378	0.001652	0.529583	-0.283039	-0.284325	-0.032129	15.1821	-0.281451	-2482.3	1.294336E-5	NaN
1039	1.000000	0.538853	7.37521e+06	-52089.1	1055.82	-29750.1	0.000000	0.000000	6.538943	-0.026849	NaN	0.000000	0.001642	0.001655	28.0828	0.021101	0.001927	10.9512	-79.7393	-165.251	-0.069813	0.537570	-0.275056	-0.276338	-0.026849	10.9512	-0.273217	-1863.72	1.440595E-5	NaN
1039	1.000000	0.546849	7.37521e+06	-52089.1	1055.82	-29750.1	0.000000	0.000000	6.546939	-0.022293	NaN	0.000000	0.001674	0.001659	28.0826	0.055379	0.001965	28.1875	-130.212	-165.432	-0.053548	0.545500	-0.267060	-0.268408	-0.022293	28.1875	-0.266466	-1471.48	1.515007E-5	NaN
1039	1.000000	0.554831	7.37521e+06	-52089.1	1055.82	-29750.1	0.000000	0.000000	6.554922	-0.022169	NaN	0.000000	0.001657	0.001638	28.0827	0.060862	0.002041	29.8215	-11.4875	-164.406	-0.036105	0.553506	-0.259077	-0.260402	-0.022169	29.8215	-0.258520	-1112.28	1.993108E-5	NaN
1039	1.000000	0.562883	7.37521e+06	-52089.1	1055.82	-29750.1	0.000000	0.000000	6.562974	-0.018994	NaN	0.000000	0.001625	0.001634	28.0828	0.098550	0.002085	47.2693	96.3341	-166.895	-0.052622	0.561525	-0.251025	-0.252383	-0.018994	47.2693	-0.250723	-843.626	2.251496E-5	NaN
1039	1.000000	0.570870	7.37521e+06	-52089.1	1055.82	-29750.1	0.000000	0.000000	6.570964	0.060981	NaN	0.000000	0.001631	0.001635	28.0825	0.155527	0.002041	76.1856	160.046	-164.757	-0.007495	0.569579	-0.243039	-0.244329	0.060981	76.1856	-0.243639	-655.067	-9.309184E-5	NaN
1039	1.000000	0.578850	7.37521e+06	-52089.1	1055.82	-29750.1	0.000000	0.000000	6.578940	-0.039399	NaN	0.000000	0.001637	0.001652	28.0828	0.173943	0.002011	86.4759	-106.05	-166.804	-0.056358	0.577552	-0.235058	-0.236356	-0.039399	86.4759	-0.234717	-475.117	8.292550E-5	NaN
1039	1.000000	0.586854	7.37521e+06	-52089.1	1055.82	-29750.1	0.000000	0.000000	6.586944	-0.057818	NaN	0.000000	0.001633	0.001627	28.0826	0.053679	0.002003	26.7943	-107.278	-165.769	-0.003561	0.585538	-0.227054	-0.228370	-0.057818	26.7943	-0.225435	-339.038	0.000171	NaN
1039	1.000000	0.594883	7.37521e+06	-52089.1	1055.82	-29750.1	0.000000	0.000000	6.594973	-0.034195	NaN	0.000000	0.001656	0.001650	28.0829	0.063797	0.001931	33.0449	-85.778	-165.207	-0.101139	0.593629	-0.219025	-0.220279	-0.034195	33.0449	-0.218249	-260.415	0.000131	NaN
1039	1.000000	0.602904	7.37521e+06	-52089.1	1055.82	-29750.1	0.000000	0.000000	6.602994	-0.032901	NaN	0.000000	0.001657	0.001674	28.0828	0.143784	0.002001	71.8563	-129.06	-167.705	0.050114	0.601569	-0.211004	-0.212339	-0.032901	71.8563	-0.210661	-196.57	0.000167	NaN
1039	1.000000	0.610894	7.37521e+06	-52089.1	1055.82	-29750.1	0.000000	0.000000	6.610987	0.020633	NaN	0.000000	0.001667	0.001656	28.0821	0.069516	0.002087	33.3107	-154.471	-164.533	0.041246	0.609574	-0.203014	-0.204334	0.020633	33.3107	-0.203478	-150.214	-0.000137	NaN
1039	1.000000	0.618884	7.37521e+06	-52089.1	1055.82	-29750.1	0.000000	0.000000	6.618974	-0.036681	NaN	0.000000	0.001696	0.001645	28.0825	0.062373	0.002186	28.5345	3.697360	-163.239	0.049272	0.617583	-0.195024	-0.196326	-0.036681	28.5345	-0.194060	-105.103	0.000349	NaN
1039	1.000000	0.626892	7.37521e+06	-52089.1	1055.82	-29750.1	0.000000	0.000000	6.626981	-0.055245	NaN	0.000000	0.001599	0.001656	28.0826	0.090421	0.001904	47.4783	169.912	-168.628	-0.073499	0.625587	-0.187016	-0.188322	-0.055245	47.4783	-0.186144	-77.515	0.000713	NaN
1039	1.000000	0.634897	7.37521e+06	-52089.1	1055.82	-29750.1	0.000000	0.000000	6.634988	-0.013977	NaN	0.000000	0.001637	0.001655	28.0827	0.069239	0.001995	34.7026	147.062	-165.633	-0.026335	0.633606	-0.179011	-0.180302	-0.013977	34.7026	-0.178709	-58.0064	0.000241	NaN
1039	1.000000	0.642898	7.37521e+06	-52089.1	1055.82	-29750.1	0.000000	0.000000	6.642990	0.018438	NaN	0.000000	0.001659	0.001638	28.0826	0.098188	0.001971	49.8131	-105.333	-165.725	0.000131	0.641616	-0.171010	-0.172292	0.018438	49.8131	-0.171288	-43.2465	-0.000426	NaN
1039	1.000000	0.650906	7.37521e+06	-52089.1	1055.82	-29750.1	0.000000	0.000000	6.650997	2.858825E-7	NaN	0.000000	0.001640	0.001647	28.0828	0.067342	0.001935	34.8016	-153.397	-166.032	-0.030273	0.649627	-0.163002	-0.164281	2.858825E-7	34.8016	-0.163002	-30.9846	-9.226602E-9	NaN
1039	1.000000	0.658919	7.37521e+06	-52089.1	1055.82	-29750.1	0.000000	0.000000	6.659011	-0.000406	NaN	0.000000	0.001632	0.001647	28.0839	0.041564	0.001978	21.0157	6.651391	-166.317	-0.062494	0.657642	-0.154989	-0.156266	-0.000406	21.0157	-0.154975	-22.2907	1.819999E-5	NaN
1039	1.000000	0.666918	7.37521e+06	-52089.1	1055.82	-29750.1	0.000000	0.000000	6.667007	-0.057583	NaN	0.000000	0.001672	0.001645	28.0841	0.053908	0.001928	27.9588	74.1674	-166.434	-0.009688	0.665557	-0.146991	-0.148351	-0.057583	27.9588	-0.145446	-14.942	0.003854	NaN
1039	1.000000	0.674912	7.37521e+06	-52089.1	1055.82	-29750.1	0.000000	0.000000	6.675003	-0.007705	NaN	0.000000	0.001636	0.001641	28.0841	0.100900	0.001983	50.8739	-179.809	-164.62	-0.005775	0.673604	-0.138997	-0.140304	-0.007705	50.8739	-0.138883	-11.2706	0.000684	NaN
1039	1.000000	0.682927	7.37521e+06	-52089.1	1055.82	-29750.1	0.000000	0.000000	6.683013	-0.143338	NaN	0.000000	0.001623	0.001671	28.0838	0.061951	0.001960	31.6071	-100.564	-165.948	-0.104766	0.681633	-0.130981	-0.132275	-0.143338	31.6071	-0.127580	-6.835782	0.020969	NaN
1039	1.000000	0.690945	7.37521e+06	-52089.1	1055.82	-29750.1	0.000000	0.000000	6.691034	-0.048230	NaN	0.000000	0.001613	0.001693	28.0842	0.090176	0.001908	47.2597	-156.056	-162.148	-0.019113	0.689592	-0.122963	-0.124316	-0.048230	47.2597	-0.122198	-5.348683	0.009017	NaN
1039	1.000000	0.698932	7.37521e+06	-52089.1	1055.82	-29750.1	0.000000	0.000000	6.699023	-0.010244	NaN	0.000000	0.001631	0.001685	28.084	0.071903	0.002023	35.5448	159.012	-166.066	0.046115	0.697632	-0.114976	-0.116276	-0.010244	35.5448	-0.114760	-3.777125	0.002712	NaN
1039	1.000000	0.706933	7.37521e+06	-52089.1	1055.82	-29750.1	0.000000	0.000000	6.707024	-0.012585	NaN	0.000000	0.001657	0.001634	28.0843	0.090688	0.001966	46.1243	142.289	-167.988	-0.037872	0.705610	-0.106975	-0.108298	-0.012585	46.1243	-0.106770	-2.565935	0.004905	NaN
1039	1.000000	0.714915	7.37521e+06	-52089.1	1055.82	-29750.1	0.000000	0.000000	6.715005	-0.035415	NaN	0.000000	0.001635	0.001674	28.0839	0.064379	0.002105	30.5825	156.209	-166.836	-0.043627	0.713686	-0.098993	-0.100222	-0.035415	30.5825	-0.098124	-1.659540	0.021340	NaN
1039	1.000000	0.722907	7.37521e+06	-52089.1	1055.82	-29750.1	0.000000	0.000000	6.722999	0.010916	NaN	0.000000	0.001650	0.001707	28.0839	0.015263	0.001999	7.634485	114.803	-165.941	0.015735	0.721690	-0.091001	-0.092218	0.010916	7.634485	-0.092074	-1.208292	-0.009034	NaN
1039	1.000000	0.730940	7.37521e+06	-52089.1	1055.82	-29750.1	0.000000	0.000000	6.731031	-0.021731	NaN	0.000000	0.001616	0.001661	28.0853	0.006372	0.001942	3.281034	61.1305	-166.981	0.004226	0.729617	-0.082968	-0.084291	-0.021731	3.281034	-0.078001	-0.551255	0.039421	NaN
1039	1.000000	0.738931	7.37521e+06	-52089.1	1055.82	-29750.1	0.000000	0.000000	6.739034	0.260735	NaN	0.000000	0.001620	0.001689	28.0837	0.185497	0.002000	92.7549	12.0062	-168.59	0.166025	0.737610	-0.074977	-0.076298	0.260735	92.7549	-0.077085	-0.522493	-0.499022	NaN
1039	1.000000	0.746960	7.37521e+06	-52089.1	1055.82	-29750.1	0.000000	0.000000	6.747095	1.060476	NaN	0.000000	0.001626	0.001663	28.0841	0.373103	0.002012	185.398	12.544	-168.494	0.813208	0.745649	-0.066948	-0.068260	1.060476	185.398	-0.071238	-0.368065	-2.881215	NaN
1039	1.000000	0.754961	7.37521e+06	-52089.1	1055.82	-29750.1	0.000000	0.000000	6.755108	1.337978	NaN	0.000000	0.001579	0.001660	28.0838	0.722196	0.001900	380.146	6.380788	-166.715	1.498289	0.753623	-0.058947	-0.060285	1.337978	380.146	-0.061587	-0.199884	-6.693759	NaN
1039	1.000000	0.762955	7.37521e+06	-52089.1	1055.82	-29750.1	0.000000	0.000000	6.763117	1.706835	NaN	0.000000	0.001602	0.001652	28.0839	0.869821	0.001854	469.156	11.7927	-165.54	1.744576	0.761590	-0.050953	-0.052318	1.706835	469.156	-0.053682	-0.117692	-14.5025	NaN
1039	1.000000	0.770977	7.37521e+06	-52089.1	1055.82	-29750.1	0.000000	0.000000	6.771146	1.870769	NaN	0.000000	0.001643	0.001669	28.0846	0.841690	0.002025	415.689	15.5828	-166.791	1.884710	0.769667	-0.042931	-0.044241	1.870769	415.689	-0.046306	-0.070456	-26.5524	NaN
1039	1.000000	0.778985	7.37521e+06	-52089.1	1055.82	-29750.1	0.000000	0.000000	6.779157	1.961718	NaN	0.000000	0.001671	0.001716	28.0838	0.942271	0.002048	459.989	18.9051	-163.36	1.880193	0.777622	-0.034923	-0.036286	1.961718	459.989	-0.038122	-0.039676	-49.4428	NaN
1039	1.000000	0.786947	7.37521e+06	-52089.1	1055.82	-29750.1	0.000000	0.000000	6.787137	2.395409	NaN	0.000000	0.001643	0.001695	28.084	1.033919	0.001996	518.006	11.7128	-164.744	2.326140	0.785683	-0.026961	-0.028225	2.395409	518.006	-0.030430	-0.023658	-101.253	NaN
1039	1.000000	0.794942	7.37521e+06	-52089.1	1055.82	-29750.1	0.000000	0.000000	6.795145	2.692364	NaN	0.000000	0.001645	0.001698	28.0825	1.153870	0.002061	559.841	17.9106	-168.125	2.656467	0.793636	-0.018966	-0.020272	2.692364	559.841	-0.022573	-0.014604	-184.355	NaN
1039	1.000000	0.802976	7.37521e+06	-52089.1	1055.82	-29750.1	0.000000	0.000000	6.803198	3.153967	NaN	0.000000	0.001682	0.001676	28.0827	1.358622	0.002034	667.797	10.6234	-171.735	3.072477	0.801634	-0.010932	-0.012274	3.153967	667.797	-0.014474	-0.008962	-351.91	NaN
1039	1.000000	0.810954	7.37521e+06	-52089.1	1055.82	-29750.1	0.000000	0.000000	6.811198	3.691597	NaN	0.000000	0.001631	0.001705	28.0828	1.748784	0.001964	890.221	14.4015	-170.295	3.420704	0.809661	-0.002954	-0.004247	3.691597	890.221	-0.006064	-0.004075	-905.821	NaN
1039	1.000000	0.818991	7.37521e+06	-52089.1	1055.82	-29750.1	0.000000	0.000000	6.819261	4.334642	NaN	0.000000	0.001684	0.001699	28.0826	2.215493	0.002064	1073.49	16.1763	-168.455	4.440710	0.817671	0.005083	0.003763	4.334642	1073.49	0.002054	0.001599	2711.29	24529.1
1039	1.000000	0.826933	7.37521e+06	-52089.1	1055.82	-29750.1	0.000000	0.000000	6.827251	5.518865	NaN	0.000000	0.001714	0.001702	28.0825	2.279358	0.001927	1182.97	4.854614	-165.243	5.350398	0.825637	0.013025	0.011729	5.518865	1182.97	0.009526	0.008659	637.351	11614.8
1039	1.000000	0.834984	7.37521e+06	-52089.1	1055.82	-29750.1	0.000000	0.000000	6.835339	6.398301	NaN	0.000000	0.001705	0.001679	28.0823	2.551338	0.001930	1321.73	10.7516	-170.022	6.256977	0.833679	0.021076	0.019771	6.398301	1321.73	0.017445	0.018685	342.421	8834.11
1039	1.000000	0.842968	7.37521e+06	-52089.1	1055.82	-29750.1	0.000000	0.000000	6.843411	8.561968	NaN	0.000000	0.001686	0.001635	28.0826	3.371655	0.001880	1793.2	9.345523	-170.777	8.132352	0.841648	0.029060	0.027740	8.561968	1793.2	0.025479	0.031892	268.468	9174.05
1039	2.000000	0.846652	7.37521e+06	-52089.1	1055.82	-29750.1	0.000000	0.000000	6.847033	7.055897	NaN	0.000000	0.001675	0.001688	28.083	3.540095	0.001920	1843.62	6.094375	-170.174	7.263221	0.846273	0.032743	0.032365	7.055897	1843.62	0.029873	0.040481	174.302	8371.81
1039	2.000000	0.848566	7.37521e+06	-52089.1	1055.82	-29750.1	0.000000	0.000000	6.848960	7.336502	NaN	0.000000	0.001649	0.001668	28.0825	3.869760	0.002023	1912.53	8.772825	-170.052	7.115262	0.848329	0.034658	0.034421	7.336502	1912.53	0.031781	0.044517	164.804	8281.73
1039	2.000000	0.850579	7.37521e+06	-52089.1	1055.82	-29750.1	0.000000	0.000000	6.851022	8.542397	NaN	0.000000	0.001658	0.001678	28.0824	3.476197	0.001881	1848.09	13.6737	-172.088	8.421585	0.850322	0.036671	0.036414	8.542397	1848.09	0.033204	0.047648	179.282	7735.25
1039	2.000000	0.852576	7.37521e+06	-52089.1	1055.82	-29750.1	0.000000	0.000000	6.853048	9.252650	NaN	0.000000	0.001685	0.001690	28.0826	3.774073	0.001855	2034.05	3.928705	-168.181	8.799546	0.852255	0.038668	0.038347	9.252650	2034.05	0.035256	0.052343	176.768	8122.77
1039	2.000000	0.854575	7.37521e+06	-52089.1	1055.82	-29750.1	0.000000	0.000000	6.855095	10.4249	NaN	0.000000	0.001700	0.001739	28.0825	3.413754	0.002049	1666.23	6.143764	-169.903	10.1795	0.854304	0.040666	0.040396	10.4249	1666.23	0.035974	0.054038	192.919	6548.74
1039	2.000000	0.856579	7.37521e+06	-52089.1	1055.82	-29750.1	0.000000	0.000000	6.857128	11.1196	NaN	0.000000	0.001680	0.001720	28.0828	4.298153	0.001923	2234.64	-2.924424	-166.211	11.0908	0.856296	0.042671	0.042388	11.1196	2234.64	0.038939	0.061316	181.351	8245.08
1039	2.000000	0.858562	7.37521e+06	-52089.1	1055.82	-29750.1	0.000000	0.000000	6.859171	12.5894	NaN	0.000000	0.001688	0.001718	28.0825	4.324964	0.001914	2260.05	7.860637	-169.237	12.3733	0.858231	0.044654	0.044323	12.5894	2260.05	0.040476	0.065265	192.898	8082.62
1039	2.000000	0.860537	7.37521e+06	-52089.1	1055.82	-29750.1	0.000000	0.000000	6.861186	13.5525	NaN	0.000000	0.001646	0.001669	28.0826	3.843273	0.002032	1891.65	11.5821	-169.906	13.5942	0.860224	0.046628	0.046316	13.5525	1891.65	0.041255	0.067312	201.337	6661.4
1039	2.000000	0.862547	7.37521e+06	-52089.1	1055.82	-29750.1	0.000000	0.000000	6.863235	14.505	NaN	0.000000	0.001690	0.001689	28.0829	4.577391	0.001968	2325.63	7.215173	-171.887	14.3697	0.862231	0.048639	0.048323	14.505	2325.63	0.043961	0.074665	194.268	7775.99
1039	2.000000	0.864555	7.37521e+06	-52089.1	1055.82	-29750.1	0.000000	0.000000	6.865286	15.5592	NaN	0.000000	0.001719	0.001676	28.0827	4.518190	0.001885	2396.79	-3.450721	-167.246	15.3822	0.864236	0.050647	0.050328	15.5592	2396.79	0.045778	0.079811	194.952	7751.25
1039	2.000000	0.866527	7.37521e+06	-52089.1	1055.82	-29750.1	0.000000	0.000000	6.867327	17.2112	NaN	0.000000	0.001708	0.001675	28.084	4.522462	0.001956	2311.97	1.405306	-169.027	17.0752	0.866209	0.052619	0.052301	17.2112	2311.97	0.047036	0.083472	206.191	7311.15
1039	2.000000	0.868522	7.37521e+06	-52089.1	1055.82	-29750.1	0.000000	0.000000	6.869388	18.8431	NaN	0.000000	0.001714	0.001669	28.0841	4.691828	0.002075	2261.17	6.873951	-171.182	18.3513	0.868216	0.054614	0.054307	18.8431	2261.17	0.048364	0.087422	215.541	6987.09
1039	2.000000	0.870534	7.37521e+06	-52089.1	1055.82	-29750.1	0.000000	0.000000	6.871467	20.444	NaN	0.000000	0.001669	0.001682	28.0842	4.637610	0.002023	2292.48	2.072417	-166.933	20.5431	0.870228	0.056626	0.056320	20.444	2292.48	0.049938	0.092220	221.687	6897.09
1039	2.000000	0.872503	7.37521e+06	-52089.1	1055.82	-29750.1	0.000000	0.000000	6.873462	21.1042	NaN	0.000000	0.001725	0.001650	28.0843	4.819196	0.002020	2386.04	6.373482	-170.544	20.8284	0.872282	0.058594	0.058373	21.1042	2386.04	0.051961	0.098570	214.103	6943.5
1039	2.000000	0.874498	7.37521e+06	-52089.1	1055.82	-29750.1	0.000000	0.000000	6.875556	23.5054	NaN	0.000000	0.001678	0.001670	28.0841	4.671027	0.002017	2315.44	8.821101	-169.837	23.3548	0.874259	0.060590	0.060351	23.5054	2315.44	0.052976	0.101833	230.822	6629.21
1039	2.000000	0.876509	7.37521e+06	-52089.1	1055.82	-29750.1	0.000000	0.000000	6.877622	24.8404	NaN	0.000000	0.001671	0.001682	28.0841	4.963852	0.002015	2463.66	3.275431	-169.311	24.3836	0.876230	0.062600	0.062322	24.8404	2463.66	0.055038	0.108620	228.691	6829.67
1039	2.000000	0.878476	7.37521e+06	-52089.1	1055.82	-29750.1	0.000000	0.000000	6.879648	26.2645	NaN	0.000000	0.001668	0.001687	28.0841	4.932742	0.002082	2368.86	10.8858	-172.448	25.5611	0.878152	0.064568	0.064244	26.2645	2368.86	0.056253	0.112715	233.018	6446.47
1039	2.000000	0.880525	7.37521e+06	-52089.1	1055.82	-29750.1	0.000000	0.000000	6.881732	27.12	NaN	0.000000	0.001652	0.001682	28.0841	4.841735	0.001947	2486.96	2.901693	-169.087	27.1362	0.880144	0.066617	0.066236	27.12	2486.96	0.058438	0.120268	225.496	6551.9
1039	2.000000	0.882491	7.37521e+06	-52089.1	1055.82	-29750.1	0.000000	0.000000	6.883761	28.6427	NaN	0.000000	0.001668	0.001622	28.0841	4.960983	0.002100	2361.82	7.101345	-167.825	28.5299	0.882254	0.068583	0.068346	28.6427	2361.82	0.059488	0.123978	231.031	6128.41
1039	2.000000	0.884491	7.37521e+06	-52089.1	1055.82	-29750.1	0.000000	0.000000	6.885820	30.0832	NaN	0.000000	0.001682	0.001642	28.0838	5.015680	0.001938	2588.28	5.468860	-171.132	30.1692	0.884157	0.070583	0.070249	30.0832	2588.28	0.061866	0.132585	226.898	6494.37
1039	2.000000	0.886490	7.37521e+06	-52089.1	1055.82	-29750.1	0.000000	0.000000	6.887871	31.353	NaN	0.000000	0.001685	0.001633	28.084	5.191801	0.001950	2661.9	8.943414	-172.911	31.2514	0.886188	0.072582	0.072279	31.353	2661.9	0.063748	0.139589	224.609	6509.35
1039	2.000000	0.888501	7.37522e+06	-52089.1	1055.82	-29750.1	0.000000	0.000000	6.889902	31.851	NaN	0.000000	0.001730	0.001617	28.0838	4.961014	0.001836	2702.04	2.305404	-167.534	31.4341	0.888226	0.074593	0.074318	31.851	2702.04	0.065752	0.147238	216.324	6433.61
1039	2.000000	0.890507	7.37522e+06	-52089.1	1055.82	-29750.1	0.000000	0.000000	6.891902	31.7022	NaN	0.000000	0.001672	0.001649	28.0839	5.391484	0.001880	2867.12	8.293984	-173.03	31.5062	0.890140	0.076599	0.076232	31.7022	2867.12	0.068306	0.157264	201.586	6605.49
1039	2.000000	0.892523	7.37522e+06	-52089.1	1055.82	-29750.1	0.000000	0.000000	6.893853	30.104	NaN	0.000000	0.001679	0.001694	28.0839	5.238231	0.001973	2654.56	4.804945	-170.502	30.1177	0.892195	0.078615	0.078287	30.104	2654.56	0.070110	0.164535	182.964	5979.1
1039	2.000000	0.894521	7.37522e+06	-52089.1	1055.82	-29750.1	0.000000	0.000000	6.895702	26.4759	NaN	0.000000	0.001671	0.001714	28.0836	5.313102	0.002079	2555.52	6.193631	-169.221	27.66	0.894198	0.080613	0.080289	26.4759	2555.52	0.072843	0.175845	150.563	5567.84
1039	2.000000	0.896507	7.37522e+06	-52089.1	1055.82	-29750.1	0.000000	0.000000	6.897558	23.3446	NaN	0.000000	0.001654	0.001696	28.0845	5.142627	0.002112	2435.32	9.185876	-171.271	23.7615	0.896149	0.082599	0.082241	23.3446	2435.32	0.075409	0.186785	124.981	5148.23
1039	2.000000	0.898489	7.37522e+06	-52089.1	1055.82	-29750.1	0.000000	0.000000	6.899468	21.5795	NaN	0.000000	0.001645	0.001648	28.0839	4.788282	0.002085	2296.45	5.665654	-167.701	22.1013	0.898169	0.084581	0.084261	21.5795	2296.45	0.077533	0.196074	110.058	4738.28
1039	2.000000	0.900488	7.37522e+06	-52089.1	1055.82	-29750.1	0.000000	0.000000	6.901434	20.7822	NaN	0.000000	0.001657	0.001648	28.083	4.712142	0.001980	2379.91	9.275720	-172.641	20.7603	0.900202	0.086580	0.086294	20.7822	2379.91	0.080030	0.207267	100.268	4776.04
1039	2.000000	0.902506	7.37522e+06	-52089.1	1055.82	-29750.1	0.000000	0.000000	6.903422	20.0489	NaN	0.000000	0.001688	0.001667	28.0825	4.668080	0.002034	2295	6.296513	-168.128	20.3491	0.902146	0.088598	0.088238	20.0489	2295	0.082046	0.216510	92.6005	4506.27
1039	2.000000	0.904449	7.37522e+06	-52089.1	1055.82	-29750.1	0.000000	0.000000	6.905355	19.7883	NaN	0.000000	0.001712	0.001663	28.0823	4.806444	0.001960	2452.36	6.801818	-170.488	19.4081	0.904243	0.090541	0.090335	19.7883	2452.36	0.084489	0.227970	86.8022	4692.66
1039	2.000000	0.906504	7.37522e+06	-52089.1	1055.82	-29750.1	0.000000	0.000000	6.907386	19.2026	NaN	0.000000	0.001704	0.001649	28.0827	4.853348	0.001917	2531.57	10.4653	-172.965	19.5041	0.906213	0.092596	0.092305	19.2026	2531.57	0.086907	0.239583	80.1499	4725.36
1039	2.000000	0.908480	7.37522e+06	-52089.1	1055.82	-29750.1	0.000000	0.000000	6.909347	18.8633	NaN	0.000000	0.001700	0.001637	28.0826	4.780952	0.001913	2498.88	10.1292	-172.906	18.9314	0.908244	0.094571	0.094336	18.8633	2498.88	0.088910	0.249406	75.633	4571.57
1039	2.000000	0.910511	7.37522e+06	-52089.1	1055.82	-29750.1	0.000000	0.000000	6.911369	18.6206	NaN	0.000000	0.001683	0.001674	28.0828	4.960744	0.002107	2354.88	10.8232	-171.477	18.9075	0.910176	0.096603	0.096268	18.6206	2354.88	0.090673	0.258204	72.116	4234.09
1039	2.000000	0.912458	7.37522e+06	-52089.1	1055.82	-29750.1	0.000000	0.000000	6.913322	18.7688	NaN	0.000000	0.001637	0.001686	28.0824	4.797636	0.002156	2225.22	4.536671	-166.363	19.0359	0.912123	0.098550	0.098215	18.7688	2225.22	0.092224	0.266064	70.5425	3941.43
1039	2.000000	0.914477	7.37522e+06	-52089.1	1055.82	-29750.1	0.000000	0.000000	6.915335	18.6133	NaN	0.000000	0.001673	0.001664	28.0823	4.789797	0.001844	2596.82	8.196438	-169.552	18.6743	0.914153	0.100569	0.100245	18.6133	2596.82	0.095194	0.281417	66.1415	4472.39
1039	2.000000	0.916472	7.37522e+06	-52089.1	1055.82	-29750.1	0.000000	0.000000	6.917325	18.5036	NaN	0.000000	0.001679	0.001677	28.0824	4.803678	0.001983	2422.25	9.100692	-171.639	18.4378	0.916200	0.102564	0.102292	18.5036	2422.25	0.096835	0.290076	63.7886	4109
1039	2.000000	0.918436	7.37522e+06	-52089.1	1055.82	-29750.1	0.000000	0.000000	6.919286	18.4416	NaN	0.000000	0.001672	0.001659	28.0827	4.877466	0.002033	2399.36	7.208548	-169.536	18.2274	0.918170	0.104528	0.104262	18.4416	2399.36	0.098764	0.300407	61.3888	3999.57
1039	2.000000	0.920459	7.37522e+06	-52089.1	1055.82	-29750.1	0.000000	0.000000	6.921306	18.3584	NaN	0.000000	0.001618	0.001650	28.0827	4.763824	0.001924	2475.88	7.855949	-171.078	18.3678	0.920089	0.106551	0.106181	18.3584	2475.88	0.100990	0.312542	58.739	4046.21
1039	2.000000	0.922427	7.37522e+06	-52089.1	1055.82	-29750.1	0.000000	0.000000	6.923280	18.5131	NaN	0.000000	0.001617	0.001649	28.0825	4.833992	0.001999	2417.68	7.765207	-170.295	18.3195	0.922159	0.108518	0.108251	18.5131	2417.68	0.102775	0.322439	57.416	3890
1039	2.000000	0.924479	7.37522e+06	-52089.1	1055.82	-29750.1	0.000000	0.000000	6.925325	18.3524	NaN	0.000000	0.001621	0.001670	28.0824	4.892569	0.002000	2446.25	6.766751	-171.262	18.6952	0.924182	0.110571	0.110274	18.3524	2446.25	0.104944	0.334654	54.8401	3863.45
1039	2.000000	0.926479	7.37522e+06	-52089.1	1055.82	-29750.1	0.000000	0.000000	6.927345	18.819	NaN	0.000000	0.001601	0.001630	28.0824	5.049848	0.002134	2366.84	8.532869	-169.402	18.7632	0.926176	0.112571	0.112268	18.819	2366.84	0.106608	0.344166	54.6798	3686.03
1039	2.000000	0.928474	7.37522e+06	-52089.1	1055.82	-29750.1	0.000000	0.000000	6.929333	18.6492	NaN	0.000000	0.001614	0.001636	28.0825	4.980048	0.001967	2531.65	4.733386	-168.247	18.7761	0.928123	0.114566	0.114215	18.6492	2531.65	0.109041	0.358312	52.0474	3864.08
1039	2.000000	0.930473	7.37522e+06	-52089.1	1055.82	-29750.1	0.000000	0.000000	6.931332	18.6683	NaN	0.000000	0.001670	0.001621	28.0827	5.111217	0.002032	2515.44	6.615198	-169.67	18.9148	0.930214	0.116565	0.116306	18.6683	2515.44	0.110999	0.369883	50.4708	3778.81
1039	2.000000	0.932457	7.37522e+06	-52089.1	1055.82	-29750.1	0.000000	0.000000	6.933283	17.8511	NaN	0.000000	0.001647	0.001625	28.0823	5.138480	0.002093	2455.23	9.500387	-172.845	17.9375	0.932184	0.118549	0.118275	17.8511	2455.23	0.113096	0.382471	46.6731	3627.15
1039	2.000000	0.934440	7.37522e+06	-52089.1	1055.82	-29750.1	0.000000	0.000000	6.935248	17.407	NaN	0.000000	0.001612	0.001648	28.0833	5.136133	0.002124	2418.08	9.413477	-170.289	17.5127	0.934193	0.120532	0.120284	17.407	2418.08	0.115133	0.394894	44.0801	3515.63
1039	2.000000	0.936451	7.37522e+06	-52089.1	1055.82	-29750.1	0.000000	0.000000	6.937228	16.6672	NaN	0.000000	0.001629	0.001664	28.0836	4.917857	0.002116	2323.96	7.297176	-169.22	16.5358	0.936167	0.122543	0.122259	16.6672	2323.96	0.117164	0.407462	40.905	3326.28
1039	2.000000	0.938464	7.37522e+06	-52089.1	1055.82	-29750.1	0.000000	0.000000	6.939220	16.1739	NaN	0.000000	0.001646	0.001659	28.0836	4.697077	0.001946	2413.95	5.671209	-168.351	16.4701	0.938164	0.124555	0.124256	16.1739	2413.95	0.119530	0.422345	38.2955	3393.66
1039	2.000000	0.940427	7.37522e+06	-52089.1	1055.82	-29750.1	0.000000	0.000000	6.941165	15.7168	NaN	0.000000	0.001664	0.001645	28.0839	4.768581	0.002100	2270.97	11.4411	-172.227	15.8953	0.940124	0.126518	0.126216	15.7168	2270.97	0.121328	0.433819	36.2289	3150.14
1039	2.000000	0.942455	7.37522e+06	-52089.1	1055.82	-29750.1	0.000000	0.000000	6.943183	15.4886	NaN	0.000000	0.001656	0.001631	28.0838	4.711494	0.002090	2254.28	9.317130	-171.979	15.7433	0.942139	0.128547	0.128231	15.4886	2254.28	0.123394	0.447188	34.6356	3079.9
1039	2.000000	0.943430	7.37522e+06	-52089.1	1055.82	-29750.1	0.000000	0.000000	6.944128	14.7441	NaN	0.000000	0.001620	0.001635	28.0836	4.638899	0.001995	2325.58	7.434505	-170.824	14.8849	0.943165	0.129522	0.129256	14.7441	2325.58	0.124767	0.456186	32.3205	3145.82