File: remote_trans/data/nanoindenter/0828-1/data/Data_2025-08-06,11h17m57s/2025-07-22_16-23-58_1_683.txt
2025-07-22, 16:23:58, 1
Index	Phase	Displacement	Time	Pos X	Pos Y	Pos Z	Rot A	Rot B	Piezo Z	Force A	Force B	Gripper	Voltage A	Voltage B	Temperature	Amplitude force	Amplitude pos	Stiffness	Phase shift	Phase excitation	Force A raw	Displacement raw	HMax	HMax raw	Real Force	Real Stiffness	Contact Depth	Area	Hardness	Reduced Mod.
[#]	[#]	[um]	[s]	[um]	[um]	[um]	[m°]	[m°]	[um]	[uN]	[uN]	[V]	[V]	[V]	[°C]	[uN]	[um]	[N/m]	[°]	[°]	[uN]	[um]	[um]	[um]	[uN]	[N/m]	[um]	[um^2]	[MPa]	[MPa]
683	1.000000	0.002722	7.37173e+06	-42939.1	1005.82	-29780.9	0.000000	0.000000	6.002779	-0.018854	NaN	0.000000	0.001689	0.001757	28.0814	0.071260	0.000979	72.805	-51.7136	179.679	0.009441	0.001466	-1.137334	-1.138590	-0.018854	72.805	-1.137140	-1.579009E+15	1.194042E-17	NaN
683	1.000000	0.012786	7.37173e+06	-42939.1	1005.82	-29780.9	0.000000	0.000000	6.012844	-0.008427	NaN	0.000000	0.001642	0.001775	28.0812	0.077470	0.001247	62.139	-147.797	13.6049	0.068545	0.011300	-1.127269	-1.128756	-0.008427	62.139	-1.127168	-1.160458E+15	7.261818E-18	NaN
683	1.000000	0.022676	7.37173e+06	-42939.1	1005.82	-29780.9	0.000000	0.000000	6.022734	-0.001429	NaN	0.000000	0.001657	0.001805	28.0811	0.069602	0.001778	39.1512	-135.985	-163.985	-0.016213	0.021416	-1.117380	-1.118640	-0.001429	39.1512	-1.117352	-8.569384E+14	1.667753E-18	NaN
683	1.000000	0.032699	7.37173e+06	-42939.1	1005.82	-29780.9	0.000000	0.000000	6.032760	0.058430	NaN	0.000000	0.001619	0.001770	28.0811	0.104363	0.002003	52.1051	81.0073	15.6164	-0.007363	0.031348	-1.107357	-1.108708	0.058430	52.1051	-1.108198	-6.458073E+14	-9.047522E-17	NaN
683	1.000000	0.042667	7.37173e+06	-42939.1	1005.82	-29780.9	0.000000	0.000000	6.042722	-0.071069	NaN	0.000000	0.001638	0.001776	28.0813	0.017793	0.001945	9.148814	-24.9404	-167.471	-0.056688	0.041380	-1.097389	-1.098676	-0.071069	9.148814	-1.091563	-3.861867E+14	1.840268E-16	NaN
683	1.000000	0.052708	7.37173e+06	-42939.1	1005.82	-29780.9	0.000000	0.000000	6.052763	-0.083663	NaN	0.000000	0.001616	0.001793	28.0812	0.053145	0.001910	27.8296	-22.2785	16.3441	0.009086	0.051332	-1.087347	-1.088723	-0.083663	27.8296	-1.085093	-3.161659E+14	2.646189E-16	NaN
683	1.000000	0.062701	7.37173e+06	-42939.1	1005.82	-29780.9	0.000000	0.000000	6.062758	-0.046788	NaN	0.000000	0.001673	0.001800	28.0812	0.082176	0.002066	39.7775	30.379	-169.054	0.051117	0.061384	-1.077354	-1.078672	-0.046788	39.7775	-1.076472	-2.421779E+14	1.931979E-16	NaN
683	1.000000	0.072692	7.37173e+06	-42939.1	1005.82	-29780.9	0.000000	0.000000	6.072749	-0.024377	NaN	0.000000	0.001669	0.001774	28.0812	0.112827	0.002085	54.1152	157.219	17.1457	-0.041645	0.071337	-1.067364	-1.068719	-0.024377	54.1152	-1.067026	-1.808161E+14	1.348139E-16	NaN
683	1.000000	0.082698	7.37173e+06	-42939.1	1005.82	-29780.9	0.000000	0.000000	6.082756	0.003019	NaN	0.000000	0.001706	0.001785	28.0826	0.116956	0.002032	57.5671	-76.3816	-165.228	0.052476	0.081397	-1.057358	-1.058659	0.003019	57.5671	-1.057397	-1.342267E+14	-2.249498E-17	NaN
683	1.000000	0.092677	7.37173e+06	-42939.1	1005.82	-29780.9	0.000000	0.000000	6.092737	0.021358	NaN	0.000000	0.001694	0.001776	28.0825	0.060947	0.001881	32.4093	-134.432	12.0284	0.003042	0.091339	-1.047378	-1.048717	0.021358	32.4093	-1.047873	-9.995742E+13	-2.136760E-16	NaN
683	1.000000	0.102719	7.37173e+06	-42939.1	1005.82	-29780.9	0.000000	0.000000	6.102777	-0.003138	NaN	0.000000	0.001651	0.001787	28.0824	0.049035	0.002111	23.224	82.4161	-164.793	-0.008514	0.101342	-1.037337	-1.038714	-0.003138	23.224	-1.037235	-7.191047E+13	4.363996E-17	NaN
683	1.000000	0.112727	7.37173e+06	-42939.1	1005.82	-29780.9	0.000000	0.000000	6.112783	-0.038285	NaN	0.000000	0.001647	0.001780	28.0824	0.020247	0.002052	9.869120	65.6423	12.8781	0.029695	0.111321	-1.027329	-1.028735	-0.038285	9.869120	-1.024420	-4.835227E+13	7.917936E-16	NaN
683	1.000000	0.122707	7.37173e+06	-42939.1	1005.82	-29780.9	0.000000	0.000000	6.122766	0.029041	NaN	0.000000	0.001698	0.001827	28.0827	0.039954	0.001881	21.2413	110.177	-165.372	-0.011632	0.121413	-1.017349	-1.018642	0.029041	21.2413	-1.018374	-4.009373E+13	-7.243175E-16	NaN
683	1.000000	0.132713	7.37173e+06	-42939.1	1005.82	-29780.9	0.000000	0.000000	6.132768	-0.074250	NaN	0.000000	0.001612	0.001782	28.0825	0.094617	0.001884	50.2105	42.7246	14.6539	-0.073409	0.131359	-1.007343	-1.008697	-0.074250	50.2105	-1.006234	-2.752279E+13	2.697780E-15	NaN
683	1.000000	0.142745	7.37173e+06	-42939.1	1005.82	-29780.9	0.000000	0.000000	6.142804	0.011705	NaN	0.000000	0.001613	0.001774	28.0825	0.015513	0.001857	8.352007	8.710003	-171.343	0.056725	0.141462	-0.997311	-0.998594	0.011705	8.352007	-0.998362	-2.156321E+13	-5.428228E-16	NaN
683	1.000000	0.152716	7.37173e+06	-42939.1	1005.82	-29780.9	0.000000	0.000000	6.152773	-0.014278	NaN	0.000000	0.001601	0.001747	28.0827	0.120835	0.002064	58.5563	-38.2921	12.6959	0.010007	0.151368	-0.987340	-0.988688	-0.014278	58.5563	-0.987157	-1.523439E+13	9.372231E-16	NaN
683	1.000000	0.162709	7.37173e+06	-42939.1	1005.82	-29780.9	0.000000	0.000000	6.162768	0.022154	NaN	0.000000	0.001625	0.001794	28.0826	0.024795	0.002053	12.08	-150.495	-166.349	0.039753	0.161424	-0.977347	-0.978632	0.022154	12.08	-0.978722	-1.172717E+13	-1.889110E-15	NaN
683	1.000000	0.172714	7.37173e+06	-42939.1	1005.82	-29780.9	0.000000	0.000000	6.172775	0.069111	NaN	0.000000	0.001577	0.001776	28.0825	0.010667	0.002029	5.258260	-104.348	12.7975	-0.057474	0.171360	-0.967342	-0.968695	0.069111	5.258260	-0.977199	-1.118599E+13	-6.178332E-15	NaN
683	1.000000	0.182767	7.37173e+06	-42939.1	1005.82	-29780.9	0.000000	0.000000	6.182824	-0.032098	NaN	0.000000	0.001629	0.001739	28.0823	0.053935	0.001945	27.7308	94.7885	-166.456	0.064743	0.181447	-0.957288	-0.958609	-0.032098	27.7308	-0.956420	-5.869540E+12	5.468653E-15	NaN
683	1.000000	0.192758	7.37173e+06	-42939.1	1005.82	-29780.9	0.000000	0.000000	6.192817	0.030029	NaN	0.000000	0.001651	0.001764	28.0826	0.042706	0.001953	21.8695	133.586	13.5329	-0.012095	0.191446	-0.947298	-0.948610	0.030029	21.8695	-0.948328	-4.565366E+12	-6.577637E-15	NaN
683	1.000000	0.202729	7.37173e+06	-42939.1	1005.82	-29780.9	0.000000	0.000000	6.202789	0.038986	NaN	0.000000	0.001665	0.001778	28.0825	0.103489	0.002015	51.3618	-144.159	-165.264	0.020208	0.201446	-0.937327	-0.938610	0.038986	51.3618	-0.937896	-3.301802E+12	-1.180737E-14	NaN
683	1.000000	0.212752	7.37173e+06	-42939.1	1005.82	-29780.9	0.000000	0.000000	6.212809	-0.018256	NaN	0.000000	0.001650	0.001768	28.0826	0.096497	0.001960	49.2289	135.174	16.8956	-0.052075	0.211416	-0.927304	-0.928640	-0.018256	49.2289	-0.927026	-2.355330E+12	7.751048E-15	NaN
683	1.000000	0.222732	7.37173e+06	-42939.1	1005.82	-29780.9	0.000000	0.000000	6.222791	0.031905	NaN	0.000000	0.001615	0.001784	28.0812	0.050753	0.001894	26.7917	-37.7096	-162.21	0.003204	0.221457	-0.917324	-0.918599	0.031905	26.7917	-0.918217	-1.791148E+12	-1.781261E-14	NaN
683	1.000000	0.232760	7.37173e+06	-42939.1	1005.82	-29780.9	0.000000	0.000000	6.232818	0.008335	NaN	0.000000	0.001551	0.001768	28.0813	0.093711	0.001961	47.7908	105.05	16.3481	0.052141	0.231434	-0.907296	-0.908621	0.008335	47.7908	-0.907427	-1.280582E+12	-6.508939E-15	NaN
683	1.000000	0.242768	7.37173e+06	-42939.1	1005.82	-29780.9	0.000000	0.000000	6.242824	-0.069898	NaN	0.000000	0.001607	0.001766	28.0812	0.069595	0.001967	35.3788	140.515	-163.273	0.023380	0.241472	-0.897288	-0.898584	-0.069898	35.3788	-0.895806	-8.920486E+11	7.835716E-14	NaN
683	1.000000	0.252777	7.37173e+06	-42939.1	1005.82	-29780.9	0.000000	0.000000	6.252835	-0.010067	NaN	0.000000	0.001584	0.001771	28.0815	0.032823	0.002085	15.7449	135.906	12.5159	-0.008628	0.251426	-0.887279	-0.888630	-0.010067	15.7449	-0.886799	-6.739729E+11	1.493737E-14	NaN
683	1.000000	0.262762	7.37173e+06	-42939.1	1005.82	-29780.9	0.000000	0.000000	6.262817	-0.080458	NaN	0.000000	0.001564	0.001782	28.0817	0.048936	0.001903	25.7185	132.825	-167.762	-0.046112	0.261511	-0.877293	-0.878545	-0.080458	25.7185	-0.874947	-4.659801E+11	1.726632E-13	NaN
683	1.000000	0.272789	7.37173e+06	-42939.1	1005.82	-29780.9	0.000000	0.000000	6.272845	-0.048222	NaN	0.000000	0.001538	0.001752	28.0813	0.131444	0.002042	64.3758	-22.1603	9.157281	-0.052023	0.271405	-0.867267	-0.868651	-0.048222	64.3758	-0.866705	-3.604669E+11	1.337775E-13	NaN
683	1.000000	0.282778	7.37173e+06	-42939.1	1005.82	-29780.9	0.000000	0.000000	6.282836	-0.008917	NaN	0.000000	0.001615	0.001751	28.0814	0.061078	0.002040	29.9453	-106.747	-170.47	-0.085484	0.281484	-0.857278	-0.858572	-0.008917	29.9453	-0.857054	-2.668378E+11	3.341914E-14	NaN
683	1.000000	0.292789	7.37173e+06	-42939.1	1005.82	-29780.9	0.000000	0.000000	6.292846	-0.016756	NaN	0.000000	0.001571	0.001764	28.0814	0.093981	0.002034	46.1943	127.236	13.4298	0.008030	0.291486	-0.847267	-0.848570	-0.016756	46.1943	-0.846995	-1.950039E+11	8.592612E-14	NaN
683	1.000000	0.302795	7.37173e+06	-42939.1	1005.82	-29780.9	0.000000	0.000000	6.302854	0.032875	NaN	0.000000	0.001581	0.001747	28.0814	0.064848	0.002080	31.1727	-142.147	-168.622	0.043748	0.301467	-0.837261	-0.838589	0.032875	31.1727	-0.838052	-1.475376E+11	-2.228233E-13	NaN
683	1.000000	0.312811	7.37173e+06	-42939.1	1005.82	-29780.9	0.000000	0.000000	6.312867	-0.070739	NaN	0.000000	0.001549	0.001798	28.0812	0.047078	0.001963	23.981	-4.404141	14.5264	-0.109851	0.311447	-0.827244	-0.828608	-0.070739	23.981	-0.825032	-9.827472E+10	7.198091E-13	NaN
683	1.000000	0.322793	7.37173e+06	-42939.1	1005.82	-29780.9	0.000000	0.000000	6.322851	0.004300	NaN	0.000000	0.001650	0.001766	28.0811	0.085969	0.001941	44.2976	154.784	-167.549	0.012047	0.321491	-0.817263	-0.818565	0.004300	44.2976	-0.817336	-7.728181E+10	-5.563942E-14	NaN
683	1.000000	0.332802	7.37173e+06	-42939.1	1005.82	-29780.9	0.000000	0.000000	6.332862	0.039698	NaN	0.000000	0.001624	0.001787	28.0812	0.060297	0.002041	29.5445	-113.449	15.6082	0.080727	0.331539	-0.807254	-0.808517	0.039698	29.5445	-0.808261	-5.820787E+10	-6.820082E-13	NaN
683	1.000000	0.342810	7.37173e+06	-42939.1	1005.82	-29780.9	0.000000	0.000000	6.342866	-0.055582	NaN	0.000000	0.001649	0.001769	28.0814	0.026942	0.001972	13.6616	-160.802	-161.296	-0.127064	0.341473	-0.797246	-0.798583	-0.055582	13.6616	-0.794194	-3.750084E+10	1.482155E-12	NaN
683	1.000000	0.352826	7.37173e+06	-42939.1	1005.82	-29780.9	0.000000	0.000000	6.352883	-0.034750	NaN	0.000000	0.001622	0.001765	28.0824	0.060344	0.001896	31.8209	-98.5619	13.0976	0.013583	0.351476	-0.787230	-0.788580	-0.034750	31.8209	-0.786411	-2.939884E+10	1.182010E-12	NaN
683	1.000000	0.362810	7.37173e+06	-42939.1	1005.82	-29780.9	0.000000	0.000000	6.362869	0.012565	NaN	0.000000	0.001589	0.001800	28.0825	0.052426	0.001964	26.6922	-15.6543	-165.047	-0.032679	0.361509	-0.777245	-0.778547	0.012565	26.6922	-0.777598	-2.231487E+10	-5.630565E-13	NaN
683	1.000000	0.372840	7.37173e+06	-42939.1	1005.82	-29780.9	0.000000	0.000000	6.372899	0.009962	NaN	0.000000	0.001623	0.001793	28.0827	0.141515	0.001968	71.898	54.2869	15.0084	-0.005437	0.371550	-0.767216	-0.768506	0.009962	71.898	-0.767320	-1.617556E+10	-6.158411E-13	NaN
683	1.000000	0.382825	7.37173e+06	-42939.1	1005.82	-29780.9	0.000000	0.000000	6.382882	-0.016628	NaN	0.000000	0.001640	0.001764	28.0826	0.017690	0.001946	9.088274	-123.464	-168.013	0.089889	0.381506	-0.757231	-0.758550	-0.016628	9.088274	-0.755859	-1.129683E+10	1.471931E-12	NaN
683	1.000000	0.392833	7.37173e+06	-42939.1	1005.82	-29780.9	0.000000	0.000000	6.392892	0.013392	NaN	0.000000	0.001644	0.001771	28.0825	0.175743	0.001951	90.0961	-130.134	12.2102	0.046926	0.391499	-0.747222	-0.748556	0.013392	90.0961	-0.747334	-8.648191E+9	-1.548549E-12	NaN
683	1.000000	0.402816	7.37173e+06	-42939.1	1005.82	-29780.9	0.000000	0.000000	6.402874	-0.004773	NaN	0.000000	0.001630	0.001758	28.0825	0.103721	0.002002	51.8144	143.464	-170.399	0.019711	0.401528	-0.737239	-0.738527	-0.004773	51.8144	-0.737170	-6.287976E+9	7.590913E-13	NaN
683	1.000000	0.412831	7.37173e+06	-42939.1	1005.82	-29780.9	0.000000	0.000000	6.412891	0.059830	NaN	0.000000	0.001594	0.001791	28.0826	0.079871	0.002025	39.4342	-132.005	13.1678	0.050340	0.411490	-0.727225	-0.728565	0.059830	39.4342	-0.728363	-4.769734E+9	-1.254358E-11	NaN
683	1.000000	0.422839	7.37173e+06	-42939.1	1005.82	-29780.9	0.000000	0.000000	6.422896	-0.036597	NaN	0.000000	0.001582	0.001792	28.0826	0.008160	0.002029	4.022405	118.121	-165.715	-0.049507	0.421539	-0.717217	-0.718517	-0.036597	4.022405	-0.710393	-2.712784E+9	1.349052E-11	NaN
683	1.000000	0.432881	7.37173e+06	-42939.1	1005.82	-29780.9	0.000000	0.000000	6.432937	-0.060007	NaN	0.000000	0.001673	0.001786	28.0829	0.043749	0.001907	22.94	3.932726	12.6193	-0.067111	0.431490	-0.707175	-0.708566	-0.060007	22.94	-0.705213	-2.305198E+9	2.603119E-11	NaN
683	1.000000	0.442878	7.37173e+06	-42939.1	1005.82	-29780.9	0.000000	0.000000	6.442934	-0.044691	NaN	0.000000	0.001678	0.001827	28.0827	0.041295	0.001963	21.0383	87.9357	-164.698	-0.069954	0.441579	-0.697178	-0.698477	-0.044691	21.0383	-0.695585	-1.703043E+9	2.624172E-11	NaN
683	1.000000	0.452856	7.37173e+06	-42939.1	1005.82	-29780.9	0.000000	0.000000	6.452911	-0.063826	NaN	0.000000	0.001707	0.001784	28.0831	0.036922	0.002115	17.4597	108.608	12.1039	-0.035362	0.451505	-0.687200	-0.688551	-0.063826	17.4597	-0.684458	-1.199966E+9	5.318994E-11	NaN
683	1.000000	0.462877	7.37173e+06	-42939.1	1005.82	-29780.9	0.000000	0.000000	6.462936	0.027186	NaN	0.000000	0.001671	0.001790	28.0826	0.082619	0.001981	41.7093	-171.927	-167.071	-0.010013	0.461505	-0.677179	-0.678551	0.027186	41.7093	-0.677668	-9.689717E+8	-2.805663E-11	NaN
683	1.000000	0.472863	7.37173e+06	-42939.1	1005.82	-29780.9	0.000000	0.000000	6.472920	-0.030687	NaN	0.000000	0.001585	0.001771	28.0828	0.040893	0.001962	20.8461	-139.916	15.7134	-0.081586	0.471554	-0.667192	-0.668502	-0.030687	20.8461	-0.666088	-6.727337E+8	4.561521E-11	NaN
683	1.000000	0.482876	7.37173e+06	-42939.1	1005.82	-29780.9	0.000000	0.000000	6.482937	0.065172	NaN	0.000000	0.001597	0.001785	28.0829	0.083962	0.002045	41.0524	-129.236	-166.308	0.033550	0.481544	-0.657180	-0.658512	0.065172	41.0524	-0.658371	-5.274122E+8	-1.235700E-10	NaN
683	1.000000	0.492920	7.37173e+06	-42939.1	1005.82	-29780.9	0.000000	0.000000	6.492979	0.026016	NaN	0.000000	0.001618	0.001766	28.082	0.046167	0.001903	24.2551	-99.2008	17.0224	-0.090198	0.491533	-0.647136	-0.648522	0.026016	24.2551	-0.647940	-3.794856E+8	-6.855465E-11	NaN
683	1.000000	0.502880	7.37173e+06	-42939.1	1005.82	-29780.9	0.000000	0.000000	6.502940	0.042371	NaN	0.000000	0.001621	0.001773	28.0815	0.040869	0.002106	19.4091	110.664	-166.004	0.072883	0.501611	-0.637175	-0.638445	0.042371	19.4091	-0.638813	-2.844448E+8	-1.489591E-10	NaN
683	1.000000	0.512900	7.37173e+06	-42939.1	1005.82	-29780.9	0.000000	0.000000	6.512956	-0.038949	NaN	0.000000	0.001653	0.001741	28.0816	0.047120	0.002072	22.7416	59.5158	10.416	-0.046811	0.511533	-0.627156	-0.628522	-0.038949	22.7416	-0.625872	-1.889374E+8	2.061484E-10	NaN
683	1.000000	0.522910	7.37173e+06	-42939.1	1005.82	-29780.9	0.000000	0.000000	6.522971	0.045232	NaN	0.000000	0.001678	0.001766	28.0817	0.068007	0.001939	35.0789	-161.552	-166.147	-0.129772	0.521572	-0.617145	-0.618484	0.045232	35.0789	-0.618112	-1.478038E+8	-3.060253E-10	NaN
683	1.000000	0.532907	7.37173e+06	-42939.1	1005.82	-29780.9	0.000000	0.000000	6.532963	-0.054197	NaN	0.000000	0.001624	0.001770	28.0814	0.087790	0.001993	44.042	-133.392	15.4408	-0.018955	0.531552	-0.607149	-0.608504	-0.054197	44.042	-0.606226	-1.014329E+8	5.343135E-10	NaN
683	1.000000	0.542914	7.37173e+06	-42939.1	1005.82	-29780.9	0.000000	0.000000	6.542970	-0.042201	NaN	0.000000	0.001584	0.001798	28.0816	0.087967	0.001993	44.1403	-176.356	-166.128	0.005517	0.541552	-0.597142	-0.598504	-0.042201	44.1403	-0.596425	-7.433897E+7	5.676880E-10	NaN
683	1.000000	0.552904	7.37173e+06	-42939.1	1005.82	-29780.9	0.000000	0.000000	6.552959	-0.083452	NaN	0.000000	0.001621	0.001758	28.0815	0.052560	0.001861	28.2412	-10.0899	14.2014	-0.093547	0.551547	-0.587151	-0.588509	-0.083452	28.2412	-0.584935	-5.162027E+7	1.616650E-9	NaN
683	1.000000	0.562908	7.37173e+06	-42939.1	1005.82	-29780.9	0.000000	0.000000	6.562966	0.018495	NaN	0.000000	0.001583	0.001752	28.0816	0.087662	0.001903	46.0629	-49.5023	-163.79	-0.005891	0.561616	-0.577148	-0.578440	0.018495	46.0629	-0.577449	-4.069293E+7	-4.545032E-10	NaN
683	1.000000	0.572924	7.37173e+06	-42939.1	1005.82	-29780.9	0.000000	0.000000	6.572980	-0.059035	NaN	0.000000	0.001611	0.001776	28.0813	0.044463	0.001850	24.037	20.3225	14.0485	-0.035983	0.571482	-0.567132	-0.568574	-0.059035	24.037	-0.565290	-2.763984E+7	2.135875E-9	NaN
683	1.000000	0.582905	7.37173e+06	-42939.1	1005.82	-29780.9	0.000000	0.000000	6.582965	0.031470	NaN	0.000000	0.001618	0.001760	28.0813	0.020645	0.001937	10.66	-127.99	-163.931	0.034734	0.581626	-0.557150	-0.558430	0.031470	10.66	-0.559365	-2.288691E+7	-1.375006E-9	NaN
683	1.000000	0.592901	7.37173e+06	-42939.1	1005.82	-29780.9	0.000000	0.000000	6.592959	0.012104	NaN	0.000000	0.001583	0.001795	28.0814	0.059204	0.001880	31.49	-49.7358	12.1032	0.047533	0.591569	-0.547155	-0.548487	0.012104	31.49	-0.547444	-1.565099E+7	-7.733690E-10	NaN
683	1.000000	0.602958	7.37173e+06	-42939.1	1005.82	-29780.9	0.000000	0.000000	6.603011	-0.126875	NaN	0.000000	0.001556	0.001799	28.0812	0.067566	0.002144	31.5158	-160.89	-166.512	-0.100411	0.601613	-0.537098	-0.538443	-0.126875	31.5158	-0.534078	-1.021401E+7	1.242163E-8	NaN
683	1.000000	0.612911	7.37173e+06	-42939.1	1005.82	-29780.9	0.000000	0.000000	6.612967	-0.064248	NaN	0.000000	0.001593	0.001770	28.081	0.078487	0.002307	34.0255	9.380235	14.6234	-0.100233	0.611535	-0.527144	-0.528521	-0.064248	34.0255	-0.525728	-7.82045e+06	8.215376E-9	NaN
683	1.000000	0.622941	7.37173e+06	-42939.1	1005.82	-29780.9	0.000000	0.000000	6.622997	-0.070181	NaN	0.000000	0.001617	0.001762	28.0812	0.074885	0.002105	35.5832	-41.8616	-167.182	-0.049026	0.621634	-0.517115	-0.518422	-0.070181	35.5832	-0.515635	-5.66077e+06	1.239785E-8	NaN
683	1.000000	0.632919	7.37173e+06	-42939.1	1005.82	-29780.9	0.000000	0.000000	6.632975	-0.059939	NaN	0.000000	0.001586	0.001782	28.0827	0.110543	0.001989	55.5695	150.878	14.6043	-0.011920	0.631586	-0.507137	-0.508470	-0.059939	55.5695	-0.506328	-4.20004e+06	1.427116E-8	NaN
683	1.000000	0.642931	7.37173e+06	-42939.1	1005.82	-29780.9	0.000000	0.000000	6.642992	0.069138	NaN	0.000000	0.001596	0.001765	28.0827	0.074762	0.001976	37.8443	-3.707546	-163.088	0.012638	0.641641	-0.497125	-0.498415	0.069138	37.8443	-0.498495	-3.26606e+06	-2.116872E-8	NaN
683	1.000000	0.652913	7.37173e+06	-42939.1	1005.82	-29780.9	0.000000	0.000000	6.652972	0.022080	NaN	0.000000	0.001603	0.001789	28.0824	0.056051	0.002055	27.2726	133.373	16.309	0.062019	0.651580	-0.487143	-0.488475	0.022080	27.2726	-0.487750	-2.31177e+06	-9.551209E-9	NaN
683	1.000000	0.662958	7.37173e+06	-42939.1	1005.82	-29780.9	0.000000	0.000000	6.663016	-0.023948	NaN	0.000000	0.001611	0.001785	28.0826	0.057269	0.001939	29.5374	37.5933	-163.559	-0.038200	0.661682	-0.477097	-0.478374	-0.023948	29.5374	-0.476489	-1.6083e+06	1.489008E-8	NaN
683	1.000000	0.672921	7.37173e+06	-42939.1	1005.82	-29780.9	0.000000	0.000000	6.672983	0.080657	NaN	0.000000	0.001641	0.001796	28.0828	0.033181	0.002031	16.3341	76.7468	9.977910	0.095619	0.671601	-0.467135	-0.468455	0.080657	16.3341	-0.470838	-1.34017e+06	-6.018436E-8	NaN
683	1.000000	0.682957	7.37173e+06	-42939.1	1005.82	-29780.9	0.000000	0.000000	6.683013	-0.050714	NaN	0.000000	0.001635	0.001755	28.0827	0.041358	0.002000	20.68	178.784	-166.463	-0.037021	0.681653	-0.457099	-0.458403	-0.050714	20.68	-0.455259	-809781	6.262627E-8	NaN
683	1.000000	0.692958	7.37173e+06	-42939.1	1005.82	-29780.9	0.000000	0.000000	6.693018	0.045136	NaN	0.000000	0.001614	0.001768	28.0827	0.060417	0.001869	32.3335	103.44	13.3776	-0.004792	0.691563	-0.447098	-0.448493	0.045136	32.3335	-0.448145	-643003	-7.019610E-8	NaN
683	1.000000	0.702966	7.37173e+06	-42939.1	1005.82	-29780.9	0.000000	0.000000	6.703026	0.057365	NaN	0.000000	0.001597	0.001796	28.0826	0.075222	0.002027	37.1118	-178.539	-166.563	0.030458	0.701692	-0.437090	-0.438364	0.057365	37.1118	-0.438249	-466285	-1.230250E-7	NaN
683	1.000000	0.712942	7.37173e+06	-42939.1	1005.82	-29780.9	0.000000	0.000000	6.713001	0.018992	NaN	0.000000	0.001583	0.001790	28.0827	0.054780	0.001898	28.8596	-119.996	12.728	0.012121	0.711617	-0.427114	-0.428438	0.018992	28.8596	-0.427608	-329767	-5.759144E-8	NaN
683	1.000000	0.722979	7.37173e+06	-42939.1	1005.82	-29780.9	0.000000	0.000000	6.723037	-0.016248	NaN	0.000000	0.001573	0.001794	28.0827	0.112168	0.002004	55.9749	159.998	-163.072	-0.042140	0.721678	-0.417077	-0.418378	-0.016248	55.9749	-0.416859	-232193	6.997557E-8	NaN
683	1.000000	0.732955	7.37173e+06	-42939.1	1005.82	-29780.9	0.000000	0.000000	6.733010	-0.070551	NaN	0.000000	0.001590	0.001761	28.0826	0.079826	0.001997	39.9703	-148.91	13.8234	-0.044161	0.731655	-0.407101	-0.408401	-0.070551	39.9703	-0.405777	-161553	4.367053E-7	NaN
683	1.000000	0.742991	7.37173e+06	-42939.1	1005.82	-29780.9	0.000000	0.000000	6.743047	-0.045714	NaN	0.000000	0.001571	0.001792	28.0827	0.121809	0.002041	59.671	77.3826	-166.703	0.028436	0.741715	-0.397065	-0.398341	-0.045714	59.671	-0.396491	-119102	3.838225E-7	NaN
683	1.000000	0.752962	7.37173e+06	-42939.1	1005.82	-29780.9	0.000000	0.000000	6.753020	-0.017121	NaN	0.000000	0.001589	0.001759	28.0829	0.046603	0.001901	24.5089	145.768	9.270215	0.008659	0.751601	-0.387094	-0.388455	-0.017121	24.5089	-0.386570	-85915.1	1.992758E-7	NaN
683	1.000000	0.762999	7.37174e+06	-42939.1	1005.82	-29780.9	0.000000	0.000000	6.763055	-0.042654	NaN	0.000000	0.001627	0.001721	28.0814	0.089063	0.001991	44.7403	150.283	-167.715	-0.078098	0.761663	-0.377057	-0.378393	-0.042654	44.7403	-0.376342	-61285.5	6.959872E-7	NaN
683	1.000000	0.772969	7.37174e+06	-42939.1	1005.82	-29780.9	0.000000	0.000000	6.773028	0.012912	NaN	0.000000	0.001583	0.001776	28.0814	0.103251	0.001962	52.6386	-65.4732	13.371	-0.143729	0.771632	-0.367087	-0.368424	0.012912	52.6386	-0.367270	-45373.2	-2.845767E-7	NaN
683	1.000000	0.782981	7.37174e+06	-42939.1	1005.82	-29780.9	0.000000	0.000000	6.783041	0.045943	NaN	0.000000	0.001581	0.001788	28.0816	0.028326	0.001907	14.8557	102.719	-164.082	-1.175273E-5	0.781687	-0.357075	-0.358368	0.045943	14.8557	-0.359394	-34920.8	-1.315644E-6	NaN
683	1.000000	0.792989	7.37174e+06	-42939.1	1005.82	-29780.9	0.000000	0.000000	6.793047	0.007451	NaN	0.000000	0.001605	0.001759	28.0814	0.036577	0.002042	17.9105	43.8462	16.0671	-0.040909	0.791674	-0.347067	-0.348381	0.007451	17.9105	-0.347379	-23385.2	-3.186279E-7	NaN
683	1.000000	0.803041	7.37174e+06	-42939.1	1005.82	-29780.9	0.000000	0.000000	6.803099	0.002092	NaN	0.000000	0.001638	0.001722	28.0814	0.043084	0.002127	20.2595	-94.0409	-168.247	0.044164	0.801695	-0.337015	-0.338361	0.002092	20.2595	-0.337092	-16563	-1.262783E-7	NaN
683	1.000000	0.812973	7.37174e+06	-42939.1	1005.82	-29780.9	0.000000	0.000000	6.813030	-0.033539	NaN	0.000000	0.001617	0.001756	28.0817	0.122032	0.002017	60.51	167.424	12.8465	-0.011753	0.811656	-0.327083	-0.328400	-0.033539	60.51	-0.326667	-11657.3	2.877088E-6	NaN
683	1.000000	0.823043	7.37174e+06	-42939.1	1005.82	-29780.9	0.000000	0.000000	6.823102	0.003909	NaN	0.000000	0.001651	0.001747	28.0817	0.033594	0.002009	16.7187	12.2146	-163.451	0.011434	0.821741	-0.317012	-0.318315	0.003909	16.7187	-0.317188	-8456.99	-4.621689E-7	NaN
683	1.000000	0.833002	7.37174e+06	-42939.1	1005.82	-29780.9	0.000000	0.000000	6.833062	0.026585	NaN	0.000000	0.001620	0.001769	28.0816	0.055616	0.001968	28.2618	145.392	15.1076	0.018998	0.831660	-0.307053	-0.308396	0.026585	28.2618	-0.307759	-6135.77	-4.332801E-6	NaN
683	1.000000	0.843005	7.37174e+06	-42939.1	1005.82	-29780.9	0.000000	0.000000	6.843063	-0.002163	NaN	0.000000	0.001635	0.001771	28.0815	0.070773	0.001947	36.3528	36.5384	-166.844	0.037461	0.841696	-0.297050	-0.298360	-0.002163	36.3528	-0.297006	-4246.41	5.092949E-7	NaN
683	1.000000	0.853019	7.37174e+06	-42939.1	1005.82	-29780.9	0.000000	0.000000	6.853080	0.048002	NaN	0.000000	0.001612	0.001751	28.0819	0.038317	0.002080	18.425	116.706	15.4193	0.000997	0.851624	-0.287036	-0.288432	0.048002	18.425	-0.288990	-3222.33	-1.489660E-5	NaN
683	1.000000	0.863030	7.37174e+06	-42939.1	1005.82	-29780.9	0.000000	0.000000	6.863087	-0.018737	NaN	0.000000	0.001581	0.001808	28.0813	0.039565	0.002141	18.4786	98.818	-167.233	-0.046553	0.861722	-0.277026	-0.278334	-0.018737	18.4786	-0.276265	-2072.77	9.039795E-6	NaN
683	1.000000	0.873024	7.37174e+06	-42939.1	1005.82	-29780.9	0.000000	0.000000	6.873081	-0.032966	NaN	0.000000	0.001584	0.001767	28.0817	0.107654	0.001971	54.606	-14.266	17.8036	0.038216	0.871627	-0.267031	-0.268429	-0.032966	54.606	-0.266579	-1477.29	2.231544E-5	NaN
683	1.000000	0.883049	7.37174e+06	-42939.1	1005.82	-29780.9	0.000000	0.000000	6.883105	-0.056149	NaN	0.000000	0.001590	0.001768	28.0815	0.057684	0.001996	28.8992	165.674	-167.234	-0.102744	0.881747	-0.257007	-0.258308	-0.056149	28.8992	-0.255549	-1001.32	5.607534E-5	NaN
683	1.000000	0.893028	7.37174e+06	-42939.1	1005.82	-29780.9	0.000000	0.000000	6.893086	-0.013018	NaN	0.000000	0.001617	0.001768	28.0821	0.029980	0.002104	14.2509	114.664	14.5039	0.010454	0.891671	-0.247028	-0.248385	-0.013018	14.2509	-0.246342	-721.608	1.803997E-5	NaN
683	1.000000	0.903070	7.37174e+06	-42939.1	1005.82	-29780.9	0.000000	0.000000	6.903125	-0.072606	NaN	0.000000	0.001539	0.001779	28.0827	0.040308	0.002011	20.0459	-92.8123	-166.746	-0.089433	0.901777	-0.236986	-0.238279	-0.072606	20.0459	-0.234269	-467.49	0.000155	NaN
683	1.000000	0.913070	7.37174e+06	-42939.1	1005.82	-29780.9	0.000000	0.000000	6.913131	0.066897	NaN	0.000000	0.001565	0.001786	28.0829	0.112376	0.001859	60.4448	-48.7959	15.3626	0.082426	0.911666	-0.226986	-0.228389	0.066897	60.4448	-0.227816	-369.82	-0.000181	NaN
683	1.000000	0.923046	7.37174e+06	-42939.1	1005.82	-29780.9	0.000000	0.000000	6.923103	-0.019094	NaN	0.000000	0.001558	0.001774	28.0828	0.110741	0.002070	53.4979	-5.947128	-168.51	-0.067478	0.921746	-0.217010	-0.218310	-0.019094	53.4979	-0.216742	-246.324	7.751570E-5	NaN
683	1.000000	0.933065	7.37174e+06	-42939.1	1005.82	-29780.9	0.000000	0.000000	6.933122	-0.018068	NaN	0.000000	0.001573	0.001723	28.0828	0.081170	0.001986	40.881	-41.314	11.0511	-0.023847	0.931738	-0.206991	-0.208318	-0.018068	40.881	-0.206660	-169.275	0.000107	NaN
683	1.000000	0.943087	7.37174e+06	-42939.1	1005.82	-29780.9	0.000000	0.000000	6.943145	-0.014583	NaN	0.000000	0.001566	0.001766	28.0826	0.055529	0.002005	27.6979	139.176	-167.708	0.068204	0.941777	-0.196968	-0.198278	-0.014583	27.6979	-0.196574	-115.674	0.000126	NaN
683	1.000000	0.953083	7.37174e+06	-42939.1	1005.82	-29780.9	0.000000	0.000000	6.953141	-0.009589	NaN	0.000000	0.001564	0.001750	28.0827	0.042351	0.002108	20.0892	-140.659	14.9395	0.024525	0.951722	-0.186973	-0.188334	-0.009589	20.0892	-0.186615	-78.9421	0.000121	NaN
683	1.000000	0.963034	7.37174e+06	-42939.1	1005.82	-29780.9	0.000000	0.000000	6.963093	0.030441	NaN	0.000000	0.001640	0.001747	28.0826	0.084191	0.001876	44.8722	-127.928	-168.722	0.078620	0.961793	-0.177022	-0.178262	0.030441	44.8722	-0.177531	-55.3808	-0.000550	NaN
683	1.000000	0.973050	7.37174e+06	-42939.1	1005.82	-29780.9	0.000000	0.000000	6.973108	-0.001917	NaN	0.000000	0.001650	0.001731	28.0826	0.030929	0.001865	16.582	115.04	18.4807	0.034611	0.971717	-0.167005	-0.168339	-0.001917	16.582	-0.166919	-36.3016	5.280191E-5	NaN
683	1.000000	0.983076	7.37174e+06	-42939.1	1005.82	-29780.9	0.000000	0.000000	6.983136	0.045227	NaN	0.000000	0.001626	0.001734	28.0826	0.052655	0.001991	26.4425	-147.444	-166.833	-0.002487	0.981728	-0.156980	-0.158328	0.045227	26.4425	-0.158263	-25.53	-0.001772	NaN
683	1.000000	0.993090	7.37174e+06	-42939.1	1005.82	-29780.9	0.000000	0.000000	6.993150	0.023979	NaN	0.000000	0.001664	0.001748	28.0826	0.036935	0.002044	18.0661	48.6906	14.5365	0.028594	0.991716	-0.146965	-0.148340	0.023979	18.0661	-0.147961	-16.623	-0.001443	NaN
683	1.000000	1.003071	7.37174e+06	-42939.1	1005.82	-29780.9	0.000000	0.000000	7.003127	-0.063616	NaN	0.000000	0.001628	0.001760	28.0827	0.067565	0.001960	34.4796	-40.7996	-167.76	-0.062984	1.001765	-0.136985	-0.138290	-0.063616	34.4796	-0.135601	-9.766683	0.006514	NaN
683	1.000000	1.013103	7.37174e+06	-42939.1	1005.82	-29780.9	0.000000	0.000000	7.013161	-0.013601	NaN	0.000000	0.001645	0.001746	28.0824	0.020614	0.002009	10.262	-78.4621	14.4028	0.033427	1.011702	-0.126953	-0.128354	-0.013601	10.262	-0.125959	-6.352262	0.002141	NaN
683	1.000000	1.023085	7.37174e+06	-42939.1	1005.82	-29780.9	0.000000	0.000000	7.023142	-0.022309	NaN	0.000000	0.001641	0.001746	28.0824	0.192014	0.002073	92.6483	-106.832	-165.037	-0.021658	1.021854	-0.116971	-0.118202	-0.022309	92.6483	-0.116790	-4.157863	0.005366	NaN
683	1.000000	1.033067	7.37174e+06	-42939.1	1005.82	-29780.9	0.000000	0.000000	7.033122	-0.080923	NaN	0.000000	0.001654	0.001738	28.0822	0.089072	0.001993	44.6872	11.4902	15.8818	-0.038272	1.031736	-0.106989	-0.108320	-0.080923	44.6872	-0.105631	-2.425344	0.033366	NaN
683	1.000000	1.043096	7.37174e+06	-42939.1	1005.82	-29780.9	0.000000	0.000000	7.043152	-0.037185	NaN	0.000000	0.001663	0.001724	28.0812	0.112370	0.002026	55.4639	-32.4443	-167.03	0.015365	1.041821	-0.096960	-0.098235	-0.037185	55.4639	-0.096457	-1.522247	0.024428	NaN
683	1.000000	1.053096	7.37174e+06	-42939.1	1005.82	-29780.9	0.000000	0.000000	7.053154	0.011410	NaN	0.000000	0.001610	0.001745	28.081	0.018013	0.002014	8.943317	82.0374	11.4392	0.010292	1.051739	-0.086960	-0.088317	0.011410	8.943317	-0.087917	-0.965238	-0.011821	NaN
683	1.000000	1.063144	7.37174e+06	-42939.1	1005.82	-29780.9	0.000000	0.000000	7.063203	0.009388	NaN	0.000000	0.001644	0.001778	28.0811	0.071320	0.002139	33.3456	55.0632	-166.065	-0.055426	1.061826	-0.076912	-0.078229	0.009388	33.3456	-0.077123	-0.523650	-0.017929	NaN
683	1.000000	1.073112	7.37174e+06	-42939.1	1005.82	-29780.9	0.000000	0.000000	7.073171	-0.001063	NaN	0.000000	0.001648	0.001756	28.081	0.085084	0.001985	42.857	122.419	10.9584	0.001135	1.071773	-0.066943	-0.068283	-0.001063	42.857	-0.066925	-0.281590	0.003774	NaN
683	1.000000	1.083133	7.37174e+06	-42939.1	1005.82	-29780.9	0.000000	0.000000	7.083190	-0.017326	NaN	0.000000	0.001657	0.001753	28.0816	0.060644	0.002022	29.9898	-36.6126	-165.362	-0.025053	1.081787	-0.056923	-0.058268	-0.017326	29.9898	-0.056490	-0.142458	0.121624	NaN
683	1.000000	1.093124	7.37174e+06	-42939.1	1005.82	-29780.9	0.000000	0.000000	7.093182	0.006715	NaN	0.000000	0.001650	0.001762	28.0811	0.100935	0.001913	52.7537	137.264	14.0532	-0.029557	1.091820	-0.046932	-0.048236	0.006715	52.7537	-0.047027	-0.074117	-0.090595	NaN
683	1.000000	1.103130	7.37174e+06	-42939.1	1005.82	-29780.9	0.000000	0.000000	7.103190	0.040572	NaN	0.000000	0.001630	0.001774	28.081	0.076825	0.001836	41.842	-55.422	-167.131	0.158556	1.101820	-0.036926	-0.038235	0.040572	41.842	-0.037653	-0.038409	-1.056328	NaN
683	1.000000	1.113107	7.37174e+06	-42939.1	1005.82	-29780.9	0.000000	0.000000	7.113166	0.007699	NaN	0.000000	0.001658	0.001774	28.0811	0.076688	0.001921	39.9207	169.609	13.5336	-0.015290	1.111779	-0.026949	-0.028277	0.007699	39.9207	-0.027093	-0.019165	-0.401736	NaN
683	1.000000	1.123105	7.37174e+06	-42939.1	1005.82	-29780.9	0.000000	0.000000	7.123162	-0.039480	NaN	0.000000	0.001662	0.001732	28.0811	0.112804	0.002069	54.5305	-72.5168	-165.011	-0.064566	1.121765	-0.016951	-0.018291	-0.039480	54.5305	-0.016408	-0.010136	3.894956	NaN
683	1.000000	1.133144	7.37174e+06	-42939.1	1005.82	-29780.9	0.000000	0.000000	7.133203	0.014758	NaN	0.000000	0.001689	0.001767	28.081	0.070523	0.002097	33.6354	-94.2003	15.9479	0.006662	1.131799	-0.006912	-0.008256	0.014758	33.6354	-0.007241	-0.004784	-3.084890	NaN
683	1.000000	1.143098	7.37174e+06	-42939.1	1005.82	-29780.9	0.000000	0.000000	7.143397	5.862454	NaN	0.000000	0.001724	0.001789	28.0811	6.607242	0.001775	3722.19	12.5019	-173.039	4.188538	1.141744	0.003042	0.001688	5.862454	3722.19	0.001860	0.001442	4064.67	89545.8
683	2.000000	1.147295	7.37174e+06	-42939.1	1005.82	-29780.9	0.000000	0.000000	7.147799	10.8623	NaN	0.000000	0.001659	0.001770	28.0814	10.3159	0.001683	6128.57	9.995512	4.175055	10.4666	1.146892	0.007239	0.006836	10.8623	6128.57	0.005909	0.004979	2181.74	79354.6
683	2.000000	1.149743	7.37174e+06	-42939.1	1005.82	-29780.9	0.000000	0.000000	7.150410	14.8028	NaN	0.000000	0.001617	0.001736	28.0813	13.8358	0.001695	8163.46	7.173689	-176.774	14.5502	1.149459	0.009687	0.009403	14.8028	8163.46	0.008327	0.007381	2005.53	86814.3
683	2.000000	1.152269	7.37174e+06	-42939.1	1005.82	-29780.9	0.000000	0.000000	7.153115	19.1659	NaN	0.000000	0.001612	0.001770	28.0825	15.7593	0.001635	9638.63	4.989216	3.987083	18.1334	1.151915	0.012213	0.011859	19.1659	9638.63	0.010722	0.009995	1917.56	88084.4
683	2.000000	1.154709	7.37174e+06	-42939.1	1005.82	-29780.9	0.000000	0.000000	7.155736	23.5725	NaN	0.000000	0.001601	0.001726	28.0826	18.1774	0.001630	11152.1	5.453158	-176.541	23.1811	1.154403	0.014653	0.014347	23.5725	11152.1	0.013068	0.012795	1842.34	90076.9
683	2.000000	1.157218	7.37174e+06	-42939.1	1005.82	-29780.9	0.000000	0.000000	7.158388	27.0568	NaN	0.000000	0.001587	0.001767	28.0823	21.4621	0.001809	11861.2	6.511215	-0.270122	25.7302	1.156899	0.017162	0.016844	27.0568	11861.2	0.015451	0.015892	1702.54	85962.9
683	2.000000	1.159673	7.37174e+06	-42939.1	1005.82	-29780.9	0.000000	0.000000	7.161232	36.508	NaN	0.000000	0.001603	0.001750	28.0828	24.2002	0.001775	13636.1	5.413617	179.835	35.2306	1.159409	0.019618	0.019353	36.508	13636.1	0.017610	0.018924	1929.15	90563.3
683	2.000000	1.162200	7.37174e+06	-42939.1	1005.82	-29780.9	0.000000	0.000000	7.163862	39.0135	NaN	0.000000	0.001634	0.001688	28.0824	26.2783	0.001849	14210.7	5.723768	0.587876	37.2819	1.161950	0.022144	0.021894	39.0135	14210.7	0.020085	0.022676	1720.47	86219.3
683	2.000000	1.164681	7.37174e+06	-42939.1	1005.82	-29780.9	0.000000	0.000000	7.166737	48.6037	NaN	0.000000	0.001600	0.001748	28.0829	28.5674	0.001816	15732.5	5.063856	-178.987	48.1695	1.164410	0.024626	0.024354	48.6037	15732.5	0.022308	0.026300	1848.02	88632
683	2.000000	1.167191	7.37174e+06	-42939.1	1005.82	-29780.9	0.000000	0.000000	7.169523	55.3297	NaN	0.000000	0.001575	0.001741	28.0826	31.2851	0.001849	16924.2	5.952005	-0.960329	54.2085	1.166843	0.027135	0.026787	55.3297	16924.2	0.024683	0.030442	1817.57	88623.2
683	2.000000	1.169632	7.37174e+06	-42939.1	1005.82	-29780.9	0.000000	0.000000	7.172416	66.3251	NaN	0.000000	0.001593	0.001747	28.0829	32.6806	0.001720	18997.1	2.160116	-178.284	63.9975	1.169351	0.029576	0.029295	66.3251	18997.1	0.026958	0.034674	1912.82	93208.9
683	2.000000	1.172167	7.37174e+06	-42939.1	1005.82	-29780.9	0.000000	0.000000	7.175389	76.9783	NaN	0.000000	0.001571	0.001770	28.0824	35.2951	0.001826	19325.8	4.782204	0.281612	74.221	1.171756	0.032111	0.031701	76.9783	19325.8	0.029123	0.038946	1976.51	89469.6
683	2.000000	1.174713	7.37174e+06	-42939.1	1005.82	-29780.9	0.000000	0.000000	7.178147	82.1285	NaN	0.000000	0.001584	0.001814	28.0826	38.6706	0.001764	21924.2	8.134736	174.382	83.1997	1.174342	0.034658	0.034287	82.1285	21924.2	0.031848	0.044661	1838.92	94783.3
683	2.000000	1.177203	7.37174e+06	-42939.1	1005.82	-29780.9	0.000000	0.000000	7.180929	89.2475	NaN	0.000000	0.001587	0.001772	28.0824	41.5838	0.001793	23191.8	5.314101	-3.913347	88.9483	1.176825	0.037147	0.036770	89.2475	23191.8	0.034261	0.050039	1783.55	94722.4
683	2.000000	1.179663	7.37174e+06	-42939.1	1005.82	-29780.9	0.000000	0.000000	7.183841	100.244	NaN	0.000000	0.001629	0.001763	28.0829	44.8682	0.001759	25501.7	9.177180	171.636	98.8085	1.179333	0.039607	0.039278	100.244	25501.7	0.036659	0.055680	1800.37	98740.2
683	2.000000	1.182126	7.37174e+06	-42939.1	1005.82	-29780.9	0.000000	0.000000	7.186751	111.105	NaN	0.000000	0.001608	0.001760	28.0822	45.9295	0.001765	26026	6.830152	-6.162135	106.648	1.181842	0.042070	0.041787	111.105	26026	0.038869	0.061137	1817.31	96167.7
683	2.000000	1.184685	7.37174e+06	-42939.1	1005.82	-29780.9	0.000000	0.000000	7.189814	123.373	NaN	0.000000	0.001607	0.001728	28.0826	46.8994	0.001750	26797.3	1.660984	179.172	125.538	1.184355	0.044629	0.044299	123.373	26797.3	0.041176	0.067103	1838.57	94513.8
683	2.000000	1.187121	7.37174e+06	-42939.1	1005.82	-29780.9	0.000000	0.000000	7.192772	136.074	NaN	0.000000	0.001582	0.001783	28.0812	50.5365	0.001864	27110.1	3.283373	-2.810514	133.452	1.186753	0.047065	0.046697	136.074	27110.1	0.043300	0.072836	1868.23	91776.6
683	2.000000	1.189552	7.37174e+06	-42939.1	1005.82	-29780.9	0.000000	0.000000	7.195653	147.017	NaN	0.000000	0.001564	0.001776	28.0812	51.9999	0.001770	29377.5	0.576624	179.176	142.296	1.189344	0.049497	0.049288	147.017	29377.5	0.045743	0.079712	1844.35	95066.6
683	2.000000	1.192136	7.37174e+06	-42939.1	1005.82	-29780.9	0.000000	0.000000	7.198834	161.549	NaN	0.000000	0.001614	0.001802	28.0809	54.4561	0.001817	29966.6	3.973338	-3.669237	159.792	1.191786	0.052080	0.051730	161.549	29966.6	0.048037	0.086443	1868.85	93120.5
683	2.000000	1.194609	7.37174e+06	-42939.1	1005.82	-29780.9	0.000000	0.000000	7.201759	172.547	NaN	0.000000	0.001652	0.001733	28.0813	56.7355	0.001704	33290.5	3.755722	174.58	171.19	1.194393	0.054554	0.054337	172.547	33290.5	0.050666	0.094484	1826.21	98949.8
683	2.000000	1.197118	7.37174e+06	-42939.1	1005.82	-29780.9	0.000000	0.000000	7.204990	190.094	NaN	0.000000	0.001640	0.001722	28.0806	59.9692	0.001798	33361	6.186756	-7.731084	186.793	1.196720	0.057063	0.056664	190.094	33361	0.052789	0.101229	1877.87	95799
683	2.000000	1.199616	7.37174e+06	-42939.1	1005.82	-29780.9	0.000000	0.000000	7.207949	201.32	NaN	0.000000	0.001680	0.001743	28.0812	63.0682	0.001899	33211.6	5.506939	173.346	198.22	1.199264	0.059560	0.059208	201.32	33211.6	0.055014	0.108539	1854.82	92102.2
683	2.000000	1.202104	7.37174e+06	-42939.1	1005.82	-29780.9	0.000000	0.000000	7.211184	219.509	NaN	0.000000	0.001603	0.001712	28.0809	64.0127	0.001598	40055.7	4.762896	-6.815573	216.883	1.201786	0.062048	0.061730	219.509	40055.7	0.057938	0.118518	1852.12	106303
683	2.000000	1.204581	7.37174e+06	-42939.1	1005.82	-29780.9	0.000000	0.000000	7.214515	240.27	NaN	0.000000	0.001584	0.001720	28.0811	65.5977	0.001680	39041.5	2.885393	174.69	236.476	1.204186	0.064526	0.064130	240.27	39041.5	0.059910	0.125485	1914.72	100694
683	2.000000	1.207021	7.37174e+06	-42939.1	1005.82	-29780.9	0.000000	0.000000	7.217497	253.479	NaN	0.000000	0.001611	0.001731	28.081	69.6975	0.001753	39750.4	1.965456	-4.178652	245.814	1.206582	0.066965	0.066526	253.479	39750.4	0.062182	0.133751	1895.16	99304
683	2.000000	1.209565	7.37174e+06	-42939.1	1005.82	-29780.9	0.000000	0.000000	7.220683	269.106	NaN	0.000000	0.001627	0.001771	28.0818	74.6245	0.001912	39024.9	5.620826	171.76	267.129	1.209402	0.069509	0.069346	269.106	39024.9	0.064337	0.141818	1897.55	94678.1
683	2.000000	1.212146	7.37174e+06	-42939.1	1005.82	-29780.9	0.000000	0.000000	7.223910	284.806	NaN	0.000000	0.001623	0.001731	28.0811	76.0497	0.001871	40650.6	5.607605	-7.870965	284.165	1.211790	0.072090	0.071735	284.806	40650.6	0.066836	0.151455	1880.46	95432.8
683	2.000000	1.214661	7.37174e+06	-42939.1	1005.82	-29780.9	0.000000	0.000000	7.227164	302.787	NaN	0.000000	0.001639	0.001735	28.0815	78.7881	0.001965	40102.7	4.134773	173.624	303.984	1.214255	0.074605	0.074199	302.787	40102.7	0.068942	0.159811	1894.66	91652.4
683	2.000000	1.217061	7.37174e+06	-42939.1	1005.82	-29780.9	0.000000	0.000000	7.230452	324.397	NaN	0.000000	0.001592	0.001802	28.0812	77.8504	0.001647	47278.1	-1.946708	-1.683583	319.781	1.216772	0.077005	0.076716	324.397	47278.1	0.071859	0.171733	1888.96	104233
683	2.000000	1.219651	7.37174e+06	-42939.1	1005.82	-29780.9	0.000000	0.000000	7.233511	335.797	NaN	0.000000	0.001626	0.001803	28.0814	82.5682	0.001743	47376.3	-1.649460	177.581	335.748	1.219420	0.079596	0.079364	335.797	47376.3	0.074280	0.181932	1845.73	101480
683	2.000000	1.222134	7.37174e+06	-42939.1	1005.82	-29780.9	0.000000	0.000000	7.236984	359.904	NaN	0.000000	0.001630	0.001750	28.0827	85.1894	0.001823	46727.6	1.924077	-5.650683	357.154	1.221756	0.082078	0.081700	359.904	46727.6	0.076301	0.190661	1887.66	97772.4
683	2.000000	1.224506	7.37174e+06	-42939.1	1005.82	-29780.9	0.000000	0.000000	7.240039	376.512	NaN	0.000000	0.001556	0.001769	28.0825	86.9763	0.001717	50653.8	2.226850	173.326	371.828	1.224262	0.084450	0.084206	376.512	50653.8	0.078875	0.202054	1863.42	102956
683	2.000000	1.227072	7.37174e+06	-42939.1	1005.82	-29780.9	0.000000	0.000000	7.243487	397.969	NaN	0.000000	0.001531	0.001762	28.0825	89.8429	0.001769	50801.3	5.765436	-10.5255	393.522	1.226740	0.087016	0.086684	397.969	50801.3	0.081141	0.212335	1874.25	100725
683	2.000000	1.229647	7.37174e+06	-42939.1	1005.82	-29780.9	0.000000	0.000000	7.246765	415.08	NaN	0.000000	0.001543	0.001731	28.0825	92.3707	0.001879	49153.1	1.872402	174.012	417.579	1.229427	0.089591	0.089371	415.08	49153.1	0.083257	0.222159	1868.39	95277.8
683	2.000000	1.232068	7.37174e+06	-42939.1	1005.82	-29780.9	0.000000	0.000000	7.250406	444.771	NaN	0.000000	0.001540	0.001723	28.0827	93.9613	0.001754	53574	7.489097	-11.7757	441.46	1.231684	0.092012	0.091629	444.771	53574	0.085785	0.234162	1899.41	101151
683	2.000000	1.234538	7.37174e+06	-42939.1	1005.82	-29780.9	0.000000	0.000000	7.253667	464.013	NaN	0.000000	0.001576	0.001748	28.0824	95.5231	0.001861	51342.1	5.225024	170.249	460.514	1.234296	0.094482	0.094240	464.013	51342.1	0.087704	0.243468	1905.85	95066.1
683	2.000000	1.237044	7.37174e+06	-42939.1	1005.82	-29780.9	0.000000	0.000000	7.257308	491.629	NaN	0.000000	0.001580	0.001756	28.0825	96.8545	0.001846	52475.9	4.676924	-8.599602	486.577	1.236631	0.096988	0.096575	491.629	52475.9	0.089961	0.254636	1930.71	95010.9
683	2.000000	1.239637	7.37174e+06	-42939.1	1005.82	-29780.9	0.000000	0.000000	7.260382	503.315	NaN	0.000000	0.001598	0.001785	28.0826	99.149	0.001740	56981.5	3.877850	170.871	505.823	1.239254	0.099581	0.099198	503.315	56981.5	0.092956	0.269812	1865.43	100225
683	2.000000	1.241941	7.37174e+06	-42939.1	1005.82	-29780.9	0.000000	0.000000	7.263939	533.801	NaN	0.000000	0.001599	0.001791	28.0826	100.677	0.001745	57679	4.452014	-9.180353	522.424	1.241586	0.101885	0.101531	533.801	57679	0.094944	0.280112	1905.67	99569.4
683	2.000000	1.243447	7.37174e+06	-42939.1	1005.82	-29780.9	0.000000	0.000000	7.265787	542.115	NaN	0.000000	0.001605	0.001799	28.0828	103.192	0.001850	55778.3	6.399612	168.4	533.231	1.243180	0.103391	0.103124	542.115	55778.3	0.096102	0.286194	1894.23	95259.5