File: remote_trans/data/nanoindenter/0828-1/data/Data_2025-08-06,11h17m57s/2025-07-22_16-23-58_1_686.txt
2025-07-22, 16:23:58, 1
Index	Phase	Displacement	Time	Pos X	Pos Y	Pos Z	Rot A	Rot B	Piezo Z	Force A	Force B	Gripper	Voltage A	Voltage B	Temperature	Amplitude force	Amplitude pos	Stiffness	Phase shift	Phase excitation	Force A raw	Displacement raw	HMax	HMax raw	Real Force	Real Stiffness	Contact Depth	Area	Hardness	Reduced Mod.
[#]	[#]	[um]	[s]	[um]	[um]	[um]	[m°]	[m°]	[um]	[uN]	[uN]	[V]	[V]	[V]	[°C]	[uN]	[um]	[N/m]	[°]	[°]	[uN]	[um]	[um]	[um]	[uN]	[N/m]	[um]	[um^2]	[MPa]	[MPa]
686	1.000000	0.002324	7.37176e+06	-42789.1	1005.82	-29781.5	0.000000	0.000000	6.002796	0.007781	NaN	0.000000	0.001565	0.001736	28.0807	0.084982	0.000983	86.4536	-110.709	-169.468	0.091217	0.001062	-1.028451	-1.029714	0.007781	86.4536	-1.028519	-5.489826E+13	-1.417321E-16	NaN
686	1.000000	0.010271	7.37176e+06	-42789.1	1005.82	-29781.5	0.000000	0.000000	6.010741	-0.024843	NaN	0.000000	0.001569	0.001726	28.0802	0.089925	0.000934	96.2944	55.5362	-171.706	-0.028428	0.008986	-1.020505	-1.021790	-0.024843	96.2944	-1.020311	-4.257337E+13	5.835222E-16	NaN
686	1.000000	0.018304	7.37176e+06	-42789.1	1005.82	-29781.5	0.000000	0.000000	6.018777	0.046695	NaN	0.000000	0.001568	0.001755	28.0804	0.048970	0.001580	30.9968	48.949	-166.787	0.018087	0.016952	-1.012472	-1.013824	0.046695	30.9968	-1.013602	-3.458220E+13	-1.350272E-15	NaN
686	1.000000	0.026329	7.37176e+06	-42789.1	1005.82	-29781.5	0.000000	0.000000	6.026799	-0.032205	NaN	0.000000	0.001585	0.001687	28.0804	0.107118	0.001973	54.2997	149.216	-162.373	-0.052205	0.024954	-1.004447	-1.005822	-0.032205	54.2997	-1.004002	-2.568293E+13	1.253931E-15	NaN
686	1.000000	0.034269	7.37176e+06	-42789.1	1005.82	-29781.5	0.000000	0.000000	6.034735	-0.108411	NaN	0.000000	0.001608	0.001696	28.0802	0.030872	0.001953	15.8038	-173.403	-164.486	-0.065561	0.032952	-0.996507	-0.997824	-0.108411	15.8038	-0.991362	-1.735636E+13	6.246182E-15	NaN
686	1.000000	0.042311	7.37176e+06	-42789.1	1005.82	-29781.5	0.000000	0.000000	6.042781	-0.023098	NaN	0.000000	0.001574	0.001699	28.0802	0.026729	0.002033	13.1497	3.046538	-165.054	-0.050695	0.040995	-0.988464	-0.989781	-0.023098	13.1497	-0.987147	-1.522951E+13	1.516630E-15	NaN
686	1.000000	0.050280	7.37176e+06	-42789.1	1005.82	-29781.5	0.000000	0.000000	6.050750	-0.018613	NaN	0.000000	0.001566	0.001711	28.0802	0.064842	0.001961	33.0725	164.473	-164.843	0.005978	0.048931	-0.980496	-0.981845	-0.018613	33.0725	-0.980074	-1.222951E+13	1.521987E-15	NaN
686	1.000000	0.058270	7.37176e+06	-42789.1	1005.82	-29781.5	0.000000	0.000000	6.058740	-0.028893	NaN	0.000000	0.001585	0.001713	28.0808	0.120362	0.001986	60.6153	-6.105576	-165.301	-0.043935	0.056981	-0.972506	-0.973795	-0.028893	60.6153	-0.972148	-9.563424E+12	3.021226E-15	NaN
686	1.000000	0.066278	7.37176e+06	-42789.1	1005.82	-29781.5	0.000000	0.000000	6.066747	-0.044803	NaN	0.000000	0.001591	0.001713	28.0802	0.037227	0.001881	19.7949	142.232	-167.219	-0.005250	0.064974	-0.964498	-0.965801	-0.044803	19.7949	-0.962800	-7.155173E+12	6.261646E-15	NaN
686	1.000000	0.074259	7.37176e+06	-42789.1	1005.82	-29781.5	0.000000	0.000000	6.074730	0.001963	NaN	0.000000	0.001599	0.001710	28.0804	0.064989	0.002010	32.3343	41.4912	-168.574	-0.076044	0.072997	-0.956517	-0.957779	0.001963	32.3343	-0.956562	-5.895522E+12	-3.329159E-16	NaN
686	1.000000	0.082286	7.37176e+06	-42789.1	1005.82	-29781.5	0.000000	0.000000	6.082756	-0.011894	NaN	0.000000	0.001623	0.001677	28.0801	0.016912	0.002109	8.017698	81.0766	-166.056	-0.078519	0.081023	-0.948490	-0.949753	-0.011894	8.017698	-0.947378	-4.432616E+12	2.683328E-15	NaN
686	1.000000	0.090304	7.37176e+06	-42789.1	1005.82	-29781.5	0.000000	0.000000	6.090772	-0.071523	NaN	0.000000	0.001617	0.001733	28.0802	0.086999	0.001980	43.9425	29.373	-169.874	0.024462	0.088981	-0.940472	-0.941795	-0.071523	43.9425	-0.939251	-3.443743E+12	2.076911E-14	NaN
686	1.000000	0.098324	7.37176e+06	-42789.1	1005.82	-29781.5	0.000000	0.000000	6.098793	-0.049866	NaN	0.000000	0.001570	0.001732	28.0809	0.080470	0.001974	40.7728	85.1225	-168.065	-0.028421	0.096985	-0.932452	-0.933790	-0.049866	40.7728	-0.931534	-2.709601E+12	1.840352E-14	NaN
686	1.000000	0.106291	7.37176e+06	-42789.1	1005.82	-29781.5	0.000000	0.000000	6.106764	0.045825	NaN	0.000000	0.001580	0.001716	28.0814	0.066004	0.001909	34.5835	-108.251	-168.289	-0.023709	0.104952	-0.924484	-0.925824	0.045825	34.5835	-0.925478	-2.244725E+12	-2.041473E-14	NaN
686	1.000000	0.114294	7.37176e+06	-42789.1	1005.82	-29781.5	0.000000	0.000000	6.114765	0.007380	NaN	0.000000	0.001579	0.001711	28.0817	0.069168	0.002058	33.6134	-112.113	-166.638	0.072000	0.112992	-0.916482	-0.917783	0.007380	33.6134	-0.916647	-1.705799E+12	-4.326141E-15	NaN
686	1.000000	0.122329	7.37176e+06	-42789.1	1005.82	-29781.5	0.000000	0.000000	6.122800	-0.009284	NaN	0.000000	0.001557	0.001725	28.0815	0.056131	0.002088	26.8781	109.663	-169.72	-0.049557	0.120990	-0.908446	-0.909785	-0.009284	26.8781	-0.908187	-1.311231E+12	7.080025E-15	NaN
686	1.000000	0.130317	7.37176e+06	-42789.1	1005.82	-29781.5	0.000000	0.000000	6.130787	-0.010187	NaN	0.000000	0.001560	0.001743	28.0815	0.059125	0.002021	29.2612	83.2655	-163.494	0.027947	0.128960	-0.900459	-0.901816	-0.010187	29.2612	-0.900198	-1.022690E+12	9.961144E-15	NaN
686	1.000000	0.138303	7.37176e+06	-42789.1	1005.82	-29781.5	0.000000	0.000000	6.138773	-0.031962	NaN	0.000000	0.001576	0.001745	28.0816	0.031027	0.001930	16.0764	120.608	-166.109	-0.112982	0.137013	-0.892473	-0.893763	-0.031962	16.0764	-0.890982	-7.676858E+11	4.163432E-14	NaN
686	1.000000	0.146365	7.37176e+06	-42789.1	1005.82	-29781.5	0.000000	0.000000	6.146835	-0.033630	NaN	0.000000	0.001578	0.001762	28.0813	0.030358	0.001949	15.5761	10.0854	-163.027	-0.062459	0.145017	-0.884410	-0.885759	-0.033630	15.5761	-0.882791	-5.949106E+11	5.652946E-14	NaN
686	1.000000	0.154351	7.37176e+06	-42789.1	1005.82	-29781.5	0.000000	0.000000	6.154823	0.032073	NaN	0.000000	0.001588	0.001725	28.0816	0.186582	0.001999	93.347	-165.574	-169.563	-0.020763	0.152992	-0.876425	-0.877784	0.032073	93.347	-0.876682	-4.918590E+11	-6.520804E-14	NaN
686	1.000000	0.162326	7.37176e+06	-42789.1	1005.82	-29781.5	0.000000	0.000000	6.162798	0.030110	NaN	0.000000	0.001564	0.001726	28.0814	0.045176	0.001978	22.8355	99.9351	-166.123	-0.051754	0.161002	-0.868449	-0.869774	0.030110	22.8355	-0.869438	-3.925054E+11	-7.671174E-14	NaN
686	1.000000	0.170321	7.37176e+06	-42789.1	1005.82	-29781.5	0.000000	0.000000	6.170790	-0.056027	NaN	0.000000	0.001578	0.001732	28.0817	0.059117	0.002073	28.5146	3.666212	-166.318	0.011551	0.169010	-0.860454	-0.861765	-0.056027	28.5146	-0.858981	-2.833507E+11	1.977285E-13	NaN
686	1.000000	0.178324	7.37176e+06	-42789.1	1005.82	-29781.5	0.000000	0.000000	6.178795	0.020681	NaN	0.000000	0.001599	0.001760	28.0817	0.080171	0.001979	40.5143	-19.0631	-166.648	0.060538	0.177050	-0.852452	-0.853726	0.020681	40.5143	-0.852835	-2.339517E+11	-8.839780E-14	NaN
686	1.000000	0.186294	7.37176e+06	-42789.1	1005.82	-29781.5	0.000000	0.000000	6.186764	-0.018434	NaN	0.000000	0.001617	0.001708	28.0813	0.144299	0.002087	69.1289	-132.97	-164.943	-0.027139	0.184995	-0.844482	-0.845781	-0.018434	69.1289	-0.844282	-1.791850E+11	1.028797E-13	NaN
686	1.000000	0.194325	7.37176e+06	-42789.1	1005.82	-29781.5	0.000000	0.000000	6.194796	0.017920	NaN	0.000000	0.001585	0.001713	28.0813	0.048764	0.002051	23.7711	43.6607	-166.353	0.007098	0.193045	-0.836451	-0.837731	0.017920	23.7711	-0.837016	-1.428468E+11	-1.254466E-13	NaN
686	1.000000	0.202351	7.37176e+06	-42789.1	1005.82	-29781.5	0.000000	0.000000	6.202819	-0.074085	NaN	0.000000	0.001590	0.001700	28.0815	0.058743	0.001897	30.9688	170.366	-167.267	-0.125163	0.201085	-0.828425	-0.829691	-0.074085	30.9688	-0.826631	-1.033038E+11	7.171523E-13	NaN
686	1.000000	0.210344	7.37176e+06	-42789.1	1005.82	-29781.5	0.000000	0.000000	6.210812	-0.072000	NaN	0.000000	0.001600	0.001703	28.0815	0.060554	0.001854	32.6648	-76.147	-166.691	-0.020004	0.209022	-0.820432	-0.821754	-0.072000	32.6648	-0.818779	-8.084472E+10	8.905905E-13	NaN
686	1.000000	0.218305	7.37176e+06	-42789.1	1005.82	-29781.5	0.000000	0.000000	6.218772	-0.092933	NaN	0.000000	0.001594	0.001727	28.0814	0.053118	0.002007	26.463	-108.14	-164.321	-0.096772	0.217022	-0.812471	-0.813754	-0.092933	26.463	-0.809837	-6.114451E+10	1.519899E-12	NaN
686	1.000000	0.226358	7.37176e+06	-42789.1	1005.82	-29781.5	0.000000	0.000000	6.226828	0.001263	NaN	0.000000	0.001584	0.001737	28.0814	0.042955	0.001915	22.4324	153.199	-165.438	-0.010918	0.225043	-0.804418	-0.805733	0.001263	22.4324	-0.804460	-5.168963E+10	-2.443947E-14	NaN
686	1.000000	0.234358	7.37176e+06	-42789.1	1005.82	-29781.5	0.000000	0.000000	6.234824	-0.120316	NaN	0.000000	0.001610	0.001704	28.0811	0.079653	0.001925	41.3811	13.2623	-167.57	-0.021514	0.233079	-0.796418	-0.797697	-0.120316	41.3811	-0.794237	-3.755093E+10	3.204068E-12	NaN
686	1.000000	0.242349	7.37176e+06	-42789.1	1005.82	-29781.5	0.000000	0.000000	6.242818	-0.048939	NaN	0.000000	0.001553	0.001707	28.08	0.043888	0.001879	23.362	70.6825	-161.932	-0.103042	0.240999	-0.788427	-0.789777	-0.048939	23.362	-0.786856	-2.981101E+10	1.641643E-12	NaN
686	1.000000	0.250356	7.37176e+06	-42789.1	1005.82	-29781.5	0.000000	0.000000	6.250829	0.052664	NaN	0.000000	0.001553	0.001756	28.0801	0.024682	0.002050	12.0393	90.5753	-169.355	-0.000943	0.249034	-0.780419	-0.781742	0.052664	12.0393	-0.783700	-2.700892E+10	-1.949875E-12	NaN
686	1.000000	0.258407	7.37176e+06	-42789.1	1005.82	-29781.5	0.000000	0.000000	6.258875	-0.073092	NaN	0.000000	0.001553	0.001746	28.0802	0.110069	0.001992	55.2473	-123.687	-165.205	-0.102985	0.257086	-0.772369	-0.773690	-0.073092	55.2473	-0.771377	-1.836641E+10	3.979650E-12	NaN
686	1.000000	0.266384	7.37176e+06	-42789.1	1005.82	-29781.5	0.000000	0.000000	6.266855	-0.006527	NaN	0.000000	0.001562	0.001749	28.0802	0.022432	0.002072	10.8257	132.575	-166.535	2.228014E-5	0.265012	-0.764392	-0.765764	-0.006527	10.8257	-0.763940	-1.455093E+10	4.485283E-13	NaN
686	1.000000	0.274372	7.37176e+06	-42789.1	1005.82	-29781.5	0.000000	0.000000	6.274843	0.008385	NaN	0.000000	0.001542	0.001700	28.0801	0.074820	0.002020	37.0372	133.3	-168.087	-0.023055	0.273002	-0.756404	-0.757773	0.008385	37.0372	-0.756574	-1.155288E+10	-7.257661E-13	NaN
686	1.000000	0.282382	7.37176e+06	-42789.1	1005.82	-29781.5	0.000000	0.000000	6.282852	-0.023634	NaN	0.000000	0.001589	0.001773	28.0802	0.060096	0.001931	31.1138	13.4997	-166.129	-0.036832	0.281061	-0.748394	-0.749715	-0.023634	31.1138	-0.747824	-8.782125E+9	2.691157E-12	NaN
686	1.000000	0.290381	7.37176e+06	-42789.1	1005.82	-29781.5	0.000000	0.000000	6.290852	-0.000328	NaN	0.000000	0.001582	0.001664	28.0802	0.056250	0.001981	28.3972	64.29	-166.906	-0.033275	0.289044	-0.740395	-0.741732	-0.000328	28.3972	-0.740386	-6.955281E+9	4.717969E-14	NaN
686	1.000000	0.298381	7.37176e+06	-42789.1	1005.82	-29781.5	0.000000	0.000000	6.298849	-0.075877	NaN	0.000000	0.001600	0.001671	28.0801	0.070933	0.002079	34.1155	88.9403	-166.689	-0.101148	0.297054	-0.732395	-0.733722	-0.075877	34.1155	-0.730727	-5.137015E+9	1.477056E-11	NaN
686	1.000000	0.306368	7.37176e+06	-42789.1	1005.82	-29781.5	0.000000	0.000000	6.306838	-0.031625	NaN	0.000000	0.001604	0.001695	28.08	0.106680	0.002147	49.6808	153.928	-167.973	-0.008878	0.305053	-0.724407	-0.725723	-0.031625	49.6808	-0.723930	-4.150152E+9	7.620297E-12	NaN
686	1.000000	0.314401	7.37176e+06	-42789.1	1005.82	-29781.5	0.000000	0.000000	6.314870	-0.056325	NaN	0.000000	0.001606	0.001683	28.0799	0.024600	0.002043	12.0402	79.8748	-164.702	-0.038899	0.313082	-0.716375	-0.717694	-0.056325	12.0402	-0.712866	-2.931962E+9	1.921084E-11	NaN
686	1.000000	0.322417	7.37176e+06	-42789.1	1005.82	-29781.5	0.000000	0.000000	6.322889	0.029756	NaN	0.000000	0.001587	0.001734	28.0802	0.038465	0.002035	18.9033	-129.097	-164.586	0.053045	0.321028	-0.708359	-0.709748	0.029756	18.9033	-0.709540	-2.640980E+9	-1.126700E-11	NaN
686	1.000000	0.330378	7.37176e+06	-42789.1	1005.82	-29781.5	0.000000	0.000000	6.330847	-0.060256	NaN	0.000000	0.001562	0.001719	28.0801	0.124289	0.001936	64.1955	134.113	-166.89	-0.050998	0.329078	-0.700397	-0.701698	-0.060256	64.1955	-0.699693	-1.937961E+9	3.109226E-11	NaN
686	1.000000	0.338411	7.37176e+06	-42789.1	1005.82	-29781.5	0.000000	0.000000	6.338880	-0.057861	NaN	0.000000	0.001564	0.001720	28.08	0.100526	0.002052	48.9961	-58.8843	-167.303	-0.047377	0.337143	-0.692364	-0.693633	-0.057861	48.9961	-0.691479	-1.496665E+9	3.866004E-11	NaN
686	1.000000	0.346394	7.37176e+06	-42789.1	1005.82	-29781.5	0.000000	0.000000	6.346864	-0.024673	NaN	0.000000	0.001545	0.001709	28.0799	0.136420	0.002025	67.3844	-80.3411	-167.781	0.021524	0.345021	-0.684382	-0.685755	-0.024673	67.3844	-0.684107	-1.186779E+9	2.078965E-11	NaN
686	1.000000	0.354415	7.37176e+06	-42789.1	1005.82	-29781.5	0.000000	0.000000	6.354887	0.037935	NaN	0.000000	0.001519	0.001680	28.0799	0.020599	0.001961	10.5038	-145.876	-168.737	0.083306	0.353105	-0.676361	-0.677670	0.037935	10.5038	-0.679070	-1.012700E+9	-3.745905E-11	NaN
686	1.000000	0.362422	7.37176e+06	-42789.1	1005.82	-29781.5	0.000000	0.000000	6.362891	-0.064600	NaN	0.000000	0.001571	0.001677	28.0801	0.095913	0.002059	46.5899	104.503	-171.993	-0.012634	0.361122	-0.668353	-0.669653	-0.064600	46.5899	-0.667313	-6.992244E+8	9.238766E-11	NaN
686	1.000000	0.370412	7.37176e+06	-42789.1	1005.82	-29781.5	0.000000	0.000000	6.370883	-0.005839	NaN	0.000000	0.001532	0.001687	28.08	0.062491	0.002052	30.4481	-170.976	-166.933	0.049009	0.369083	-0.660363	-0.661692	-0.005839	30.4481	-0.660220	-5.590825E+8	1.044475E-11	NaN
686	1.000000	0.378421	7.37176e+06	-42789.1	1005.82	-29781.5	0.000000	0.000000	6.378892	0.003020	NaN	0.000000	0.001540	0.001700	28.0815	0.024474	0.001947	12.5713	38.5421	-171.516	0.063082	0.377102	-0.652355	-0.653673	0.003020	12.5713	-0.652535	-4.387158E+8	-6.884568E-12	NaN
686	1.000000	0.386423	7.37176e+06	-42789.1	1005.82	-29781.5	0.000000	0.000000	6.386895	0.028319	NaN	0.000000	0.001548	0.001702	28.0813	0.058905	0.001919	30.699	131.12	-167.97	-0.043041	0.385125	-0.644353	-0.645651	0.028319	30.699	-0.645045	-3.463335E+8	-8.176833E-11	NaN
686	1.000000	0.394423	7.37176e+06	-42789.1	1005.82	-29781.5	0.000000	0.000000	6.394892	-0.038974	NaN	0.000000	0.001558	0.001693	28.0813	0.027277	0.001934	14.1024	-93.8259	-167.408	-0.105272	0.393145	-0.636353	-0.637631	-0.038974	14.1024	-0.634280	-2.464873E+8	1.581188E-10	NaN
686	1.000000	0.402415	7.37176e+06	-42789.1	1005.82	-29781.5	0.000000	0.000000	6.402883	-0.063308	NaN	0.000000	0.001531	0.001746	28.0813	0.069373	0.001991	34.8464	-15.9536	-168.813	0.057648	0.401069	-0.628361	-0.629707	-0.063308	34.8464	-0.626998	-1.957919E+8	3.233413E-10	NaN
686	1.000000	0.410438	7.37176e+06	-42789.1	1005.82	-29781.5	0.000000	0.000000	6.410909	-0.012853	NaN	0.000000	0.001596	0.001720	28.0812	0.019192	0.002024	9.483719	-179.344	-165.508	0.012654	0.409128	-0.620338	-0.621648	-0.012853	9.483719	-0.619321	-1.535681E+8	8.369563E-11	NaN
686	1.000000	0.418429	7.37176e+06	-42789.1	1005.82	-29781.5	0.000000	0.000000	6.418899	-0.013676	NaN	0.000000	0.001648	0.001708	28.0814	0.062471	0.002112	29.5768	-68.6835	-163.432	-0.004711	0.417089	-0.612347	-0.613687	-0.013676	29.5768	-0.612000	-1.217966E+8	1.122872E-10	NaN
686	1.000000	0.426436	7.37176e+06	-42789.1	1005.82	-29781.5	0.000000	0.000000	6.426909	0.049133	NaN	0.000000	0.001589	0.001699	28.0814	0.028940	0.002035	14.2234	-51.319	-167.962	0.003554	0.425156	-0.604340	-0.605620	0.049133	14.2234	-0.606931	-1.037236E+8	-4.736958E-10	NaN
686	1.000000	0.434455	7.37176e+06	-42789.1	1005.82	-29781.5	0.000000	0.000000	6.434924	-0.024393	NaN	0.000000	0.001624	0.001678	28.0813	0.059169	0.001993	29.6951	141.173	-166.971	0.045192	0.433128	-0.596321	-0.597648	-0.024393	29.6951	-0.595705	-7.266023E+7	3.357168E-10	NaN
686	1.000000	0.442447	7.37176e+06	-42789.1	1005.82	-29781.5	0.000000	0.000000	6.442917	-0.021936	NaN	0.000000	0.001631	0.001673	28.0812	0.065823	0.002085	31.568	134.79	-167.423	-0.006120	0.441125	-0.588329	-0.589651	-0.021936	31.568	-0.587808	-5.655139E+7	3.878973E-10	NaN
686	1.000000	0.450447	7.37176e+06	-42789.1	1005.82	-29781.5	0.000000	0.000000	6.450917	-0.021987	NaN	0.000000	0.001631	0.001690	28.0812	0.093296	0.001972	47.3154	148.349	-166.831	-0.045190	0.449174	-0.580329	-0.581601	-0.021987	47.3154	-0.579980	-4.410169E+7	4.985539E-10	NaN
686	1.000000	0.458431	7.37176e+06	-42789.1	1005.82	-29781.5	0.000000	0.000000	6.458902	-0.011832	NaN	0.000000	0.001594	0.001750	28.0812	0.112584	0.001802	62.4624	121.834	-166.881	0.000881	0.457131	-0.572345	-0.573645	-0.011832	62.4624	-0.572203	-3.443984E+7	3.435598E-10	NaN
686	1.000000	0.466460	7.37176e+06	-42789.1	1005.82	-29781.5	0.000000	0.000000	6.466931	0.010848	NaN	0.000000	0.001583	0.001728	28.081	0.091821	0.001896	48.4205	-88.6481	-164.725	-0.030488	0.465127	-0.564316	-0.565649	0.010848	48.4205	-0.564484	-2.693936E+7	-4.026995E-10	NaN
686	1.000000	0.474467	7.37176e+06	-42789.1	1005.82	-29781.5	0.000000	0.000000	6.474936	-0.039022	NaN	0.000000	0.001632	0.001708	28.0812	0.094439	0.002028	46.5578	-179.161	-163.774	-0.098590	0.473169	-0.556309	-0.557607	-0.039022	46.5578	-0.555680	-2.035191E+7	1.917359E-9	NaN
686	1.000000	0.482476	7.37176e+06	-42789.1	1005.82	-29781.5	0.000000	0.000000	6.482945	-0.039930	NaN	0.000000	0.001593	0.001736	28.0812	0.020352	0.001949	10.4439	166.849	-171.413	-0.003597	0.481148	-0.548300	-0.549627	-0.039930	10.4439	-0.545432	-1.467820E+7	2.720386E-9	NaN
686	1.000000	0.490467	7.37176e+06	-42789.1	1005.82	-29781.5	0.000000	0.000000	6.490938	-0.015933	NaN	0.000000	0.001602	0.001696	28.0821	0.093646	0.001993	46.9911	120.333	-168.748	0.004583	0.489190	-0.540308	-0.541586	-0.015933	46.9911	-0.540054	-1.236259E+7	1.288795E-9	NaN
686	1.000000	0.498444	7.37176e+06	-42789.1	1005.82	-29781.5	0.000000	0.000000	6.498914	-0.021754	NaN	0.000000	0.001615	0.001742	28.0847	0.139309	0.002117	65.8031	83.5129	-168.373	-0.039788	0.497223	-0.532332	-0.533552	-0.021754	65.8031	-0.532084	-9.58331e+06	2.269979E-9	NaN
686	1.000000	0.506468	7.37176e+06	-42789.1	1005.82	-29781.5	0.000000	0.000000	6.506937	-0.052892	NaN	0.000000	0.001589	0.001718	28.0828	0.097653	0.002062	47.3598	44.0605	-165.387	-0.070511	0.505211	-0.524307	-0.525565	-0.052892	47.3598	-0.523470	-7.27514e+06	7.270304E-9	NaN
686	1.000000	0.514486	7.37176e+06	-42789.1	1005.82	-29781.5	0.000000	0.000000	6.514954	-0.077916	NaN	0.000000	0.001616	0.001702	28.0808	0.124726	0.001988	62.7392	-5.442577	-167.108	-0.027872	0.513116	-0.516290	-0.517660	-0.077916	62.7392	-0.515358	-5.61074e+06	1.388697E-8	NaN
686	1.000000	0.522461	7.37176e+06	-42789.1	1005.82	-29781.5	0.000000	0.000000	6.522931	-0.022068	NaN	0.000000	0.001608	0.001675	28.0802	0.049812	0.002061	24.1725	126.587	-166.413	-0.036499	0.521170	-0.508315	-0.509606	-0.022068	24.1725	-0.507630	-4.37928e+06	5.039102E-9	NaN
686	1.000000	0.530467	7.37176e+06	-42789.1	1005.82	-29781.5	0.000000	0.000000	6.530940	0.055340	NaN	0.000000	0.001594	0.001713	28.0799	0.032323	0.001993	16.2157	120.827	-165.845	-0.062561	0.529130	-0.500309	-0.501646	0.055340	16.2157	-0.502869	-3.75863e+06	-1.472347E-8	NaN
686	1.000000	0.538463	7.37176e+06	-42789.1	1005.82	-29781.5	0.000000	0.000000	6.538934	0.003235	NaN	0.000000	0.001594	0.001712	28.0802	0.032892	0.001953	16.8394	52.7095	-167.365	-0.016404	0.537178	-0.492312	-0.493597	0.003235	16.8394	-0.492457	-2.68976e+06	-1.202679E-9	NaN
686	1.000000	0.546493	7.37176e+06	-42789.1	1005.82	-29781.5	0.000000	0.000000	6.546962	-0.038969	NaN	0.000000	0.001567	0.001716	28.0798	0.108382	0.002077	52.188	-25.1869	-164.115	-0.008591	0.545191	-0.484283	-0.485585	-0.038969	52.188	-0.483723	-2.03062e+06	1.919067E-8	NaN
686	1.000000	0.554499	7.37176e+06	-42789.1	1005.82	-29781.5	0.000000	0.000000	6.554966	-0.095904	NaN	0.000000	0.001592	0.001706	28.08	0.098043	0.002036	48.1649	-148.095	-163.738	-0.039042	0.553160	-0.476277	-0.477616	-0.095904	48.1649	-0.474783	-1.52217e+06	6.300438E-8	NaN
686	1.000000	0.562529	7.37176e+06	-42789.1	1005.82	-29781.5	0.000000	0.000000	6.562997	-0.075102	NaN	0.000000	0.001556	0.001710	28.08	0.022949	0.002036	11.2697	1.102204	-164.402	-0.047017	0.561196	-0.468247	-0.469580	-0.075102	11.2697	-0.463249	-1.04872e+06	7.161351E-8	NaN
686	1.000000	0.570512	7.37176e+06	-42789.1	1005.82	-29781.5	0.000000	0.000000	6.570979	-0.087592	NaN	0.000000	0.001532	0.001730	28.0798	0.132515	0.002050	64.6355	152.43	-164.357	-0.063344	0.569203	-0.460264	-0.461573	-0.087592	64.6355	-0.459248	-921389	9.506549E-8	NaN
686	1.000000	0.578502	7.37176e+06	-42789.1	1005.82	-29781.5	0.000000	0.000000	6.578972	-0.022761	NaN	0.000000	0.001569	0.001709	28.0801	0.191148	0.001906	100.297	96.7405	-168.895	-0.075268	0.577202	-0.452274	-0.453573	-0.022761	100.297	-0.452104	-731080	3.113327E-8	NaN
686	1.000000	0.586504	7.37176e+06	-42789.1	1005.82	-29781.5	0.000000	0.000000	6.586972	-0.058482	NaN	0.000000	0.001560	0.001662	28.0799	0.015883	0.002028	7.830140	-1.584192	-169.606	0.022308	0.585195	-0.444272	-0.445581	-0.058482	7.830140	-0.438670	-472711	1.237169E-7	NaN
686	1.000000	0.594528	7.37176e+06	-42789.1	1005.82	-29781.5	0.000000	0.000000	6.594998	-0.012914	NaN	0.000000	0.001535	0.001693	28.0801	0.037124	0.001963	18.9147	118.688	-166.199	-0.089697	0.593223	-0.436248	-0.437553	-0.012914	18.9147	-0.435736	-429690	3.005345E-8	NaN
686	1.000000	0.602507	7.37176e+06	-42789.1	1005.82	-29781.5	0.000000	0.000000	6.602975	-0.062008	NaN	0.000000	0.001543	0.001714	28.08	0.046487	0.002043	22.7505	-58.7337	-167.164	-0.021287	0.601223	-0.428269	-0.429553	-0.062008	22.7505	-0.426225	-315233	1.967054E-7	NaN
686	1.000000	0.610551	7.37176e+06	-42789.1	1005.82	-29781.5	0.000000	0.000000	6.611017	-0.108159	NaN	0.000000	0.001530	0.001734	28.0798	0.039154	0.002049	19.1056	49.3509	-166.805	0.032142	0.609199	-0.420225	-0.421577	-0.108159	19.1056	-0.415979	-225612	4.794042E-7	NaN
686	1.000000	0.618501	7.37176e+06	-42789.1	1005.82	-29781.5	0.000000	0.000000	6.618972	-0.004679	NaN	0.000000	0.001539	0.001707	28.0798	0.126506	0.002098	60.3125	-176.712	-165.967	0.071573	0.617168	-0.412275	-0.413608	-0.004679	60.3125	-0.412216	-199484	2.345457E-8	NaN
686	1.000000	0.626544	7.37176e+06	-42789.1	1005.82	-29781.5	0.000000	0.000000	6.627012	-0.078108	NaN	0.000000	0.001570	0.001691	28.08	0.108385	0.002051	52.8378	-73.9144	-167.816	-0.006862	0.625222	-0.404231	-0.405554	-0.078108	52.8378	-0.403123	-148084	5.274597E-7	NaN
686	1.000000	0.634551	7.37176e+06	-42789.1	1005.82	-29781.5	0.000000	0.000000	6.635020	-0.042781	NaN	0.000000	0.001563	0.001774	28.0802	0.054793	0.002098	26.1209	74.3958	-167.517	-0.080284	0.633220	-0.396225	-0.397556	-0.042781	26.1209	-0.394997	-113394	3.772806E-7	NaN
686	1.000000	0.642512	7.37176e+06	-42789.1	1005.82	-29781.5	0.000000	0.000000	6.642981	-0.046287	NaN	0.000000	0.001570	0.001732	28.0799	0.115277	0.001972	58.4442	-70.6694	-164.408	0.015113	0.641182	-0.388264	-0.389594	-0.046287	58.4442	-0.387670	-89088.4	5.195669E-7	NaN
686	1.000000	0.650515	7.37176e+06	-42789.1	1005.82	-29781.5	0.000000	0.000000	6.650981	-0.115059	NaN	0.000000	0.001548	0.001693	28.0812	0.045673	0.001894	24.118	126.172	-169.486	-0.122381	0.649194	-0.380261	-0.381582	-0.115059	24.118	-0.376683	-61981.4	1.856347E-6	NaN
686	1.000000	0.658568	7.37176e+06	-42789.1	1005.82	-29781.5	0.000000	0.000000	6.659035	-0.083574	NaN	0.000000	0.001595	0.001713	28.0813	0.020473	0.001975	10.3678	-24.7758	-168.932	-0.067803	0.657266	-0.372208	-0.373510	-0.083574	10.3678	-0.366162	-43734	1.910956E-6	NaN
686	1.000000	0.666526	7.37176e+06	-42789.1	1005.82	-29781.5	0.000000	0.000000	6.666997	0.002179	NaN	0.000000	0.001575	0.001697	28.0812	0.047524	0.002042	23.2686	116.66	-167.844	-0.014921	0.665201	-0.364250	-0.365574	0.002179	23.2686	-0.364320	-41137.9	-5.297273E-8	NaN
686	1.000000	0.674554	7.37176e+06	-42789.1	1005.82	-29781.5	0.000000	0.000000	6.675025	-0.003006	NaN	0.000000	0.001562	0.001745	28.0815	0.069953	0.002116	33.0569	-46.7256	-166.548	-0.028240	0.673227	-0.356222	-0.357549	-0.003006	33.0569	-0.356153	-31347.2	9.590873E-8	NaN
686	1.000000	0.682549	7.37176e+06	-42789.1	1005.82	-29781.5	0.000000	0.000000	6.683020	-0.004210	NaN	0.000000	0.001559	0.001720	28.0813	0.076336	0.001903	40.1205	-135.999	-168.924	0.002218	0.681173	-0.348227	-0.349602	-0.004210	40.1205	-0.348148	-23994.5	1.754599E-7	NaN
686	1.000000	0.690540	7.37176e+06	-42789.1	1005.82	-29781.5	0.000000	0.000000	6.691008	-0.053494	NaN	0.000000	0.001558	0.001707	28.0816	0.142650	0.001982	71.9824	114.601	-166.394	-0.010059	0.689258	-0.340236	-0.341518	-0.053494	71.9824	-0.339679	-18066.3	2.960959E-6	NaN
686	1.000000	0.698533	7.37176e+06	-42789.1	1005.82	-29781.5	0.000000	0.000000	6.699004	-0.009361	NaN	0.000000	0.001519	0.001713	28.0814	0.051351	0.002045	25.1149	-109.699	-171.618	-0.066413	0.697302	-0.332243	-0.333473	-0.009361	25.1149	-0.331963	-13937.6	6.716662E-7	NaN
686	1.000000	0.706562	7.37176e+06	-42789.1	1005.82	-29781.5	0.000000	0.000000	6.707030	-0.063950	NaN	0.000000	0.001601	0.001738	28.0814	0.041423	0.001971	21.0182	174.87	-167.773	-0.029120	0.705197	-0.324214	-0.325579	-0.063950	21.0182	-0.321932	-9932.41	6.438556E-6	NaN
686	1.000000	0.714560	7.37176e+06	-42789.1	1005.82	-29781.5	0.000000	0.000000	6.715030	-0.025246	NaN	0.000000	0.001545	0.001713	28.0813	0.057146	0.002038	28.0339	-171.015	-165.823	-0.009266	0.713284	-0.316216	-0.317492	-0.025246	28.0339	-0.315540	-7996.91	3.156956E-6	NaN
686	1.000000	0.722563	7.37176e+06	-42789.1	1005.82	-29781.5	0.000000	0.000000	6.723035	0.017436	NaN	0.000000	0.001589	0.001701	28.0815	0.070045	0.002040	34.331	-167.176	-166.971	0.038721	0.721222	-0.308212	-0.309554	0.017436	34.331	-0.308593	-6312.91	-2.761977E-6	NaN
686	1.000000	0.730553	7.37176e+06	-42789.1	1005.82	-29781.5	0.000000	0.000000	6.731020	-0.072231	NaN	0.000000	0.001616	0.001671	28.0817	0.082693	0.001915	43.1882	-117.888	-166.737	-0.064122	0.729217	-0.300223	-0.301558	-0.072231	43.1882	-0.298969	-4542.36	1.590160E-5	NaN
686	1.000000	0.738562	7.37176e+06	-42789.1	1005.82	-29781.5	0.000000	0.000000	6.739031	-0.033762	NaN	0.000000	0.001624	0.001685	28.0814	0.056537	0.001808	31.2634	24.678	-167.094	-0.031375	0.737208	-0.292214	-0.293568	-0.033762	31.2634	-0.291404	-3502.13	9.640369E-6	NaN
686	1.000000	0.746595	7.37176e+06	-42789.1	1005.82	-29781.5	0.000000	0.000000	6.747065	-0.006323	NaN	0.000000	0.001604	0.001717	28.0816	0.112739	0.002030	55.5436	129.584	-167.664	0.112324	0.745253	-0.284181	-0.285523	-0.006323	55.5436	-0.284096	-2720.64	2.324060E-6	NaN
686	1.000000	0.754586	7.37176e+06	-42789.1	1005.82	-29781.5	0.000000	0.000000	6.755057	-0.010980	NaN	0.000000	0.001538	0.001689	28.0812	0.067713	0.001963	34.491	-156.028	-163.049	0.016123	0.753257	-0.276190	-0.277519	-0.010980	34.491	-0.275951	-2050.19	5.355407E-6	NaN
686	1.000000	0.762570	7.37176e+06	-42789.1	1005.82	-29781.5	0.000000	0.000000	6.763039	-0.036762	NaN	0.000000	0.001571	0.001666	28.0813	0.135904	0.001907	71.2779	-5.866849	-164.813	-0.022701	0.761249	-0.268206	-0.269527	-0.036762	71.2779	-0.267819	-1543	2.382484E-5	NaN
686	1.000000	0.770575	7.37176e+06	-42789.1	1005.82	-29781.5	0.000000	0.000000	6.771045	-0.025511	NaN	0.000000	0.001583	0.001692	28.0816	0.060248	0.002036	29.5892	-90.1549	-166.511	-0.053310	0.769258	-0.260201	-0.261517	-0.025511	29.5892	-0.259554	-1153.68	2.211255E-5	NaN
686	1.000000	0.778564	7.37176e+06	-42789.1	1005.82	-29781.5	0.000000	0.000000	6.779035	0.018715	NaN	0.000000	0.001567	0.001712	28.0812	0.030555	0.001942	15.7328	-6.167423	-163.82	-0.057258	0.777306	-0.252212	-0.253470	0.018715	15.7328	-0.253104	-918.138	-2.038384E-5	NaN
686	1.000000	0.786619	7.37176e+06	-42789.1	1005.82	-29781.5	0.000000	0.000000	6.787091	0.017882	NaN	0.000000	0.001552	0.001736	28.0802	0.044636	0.002020	22.0941	156.442	-170.539	-0.002024	0.785303	-0.244157	-0.245473	0.017882	22.0941	-0.244764	-681.991	-2.621987E-5	NaN
686	1.000000	0.794593	7.37176e+06	-42789.1	1005.82	-29781.5	0.000000	0.000000	6.795063	-0.016262	NaN	0.000000	0.001579	0.001674	28.0801	0.097485	0.002012	48.4534	172.627	-167.021	0.008191	0.793284	-0.236183	-0.237492	-0.016262	48.4534	-0.235931	-496.429	3.275787E-5	NaN
686	1.000000	0.802595	7.37176e+06	-42789.1	1005.82	-29781.5	0.000000	0.000000	6.803063	-0.076518	NaN	0.000000	0.001608	0.001683	28.0802	0.030105	0.001871	16.0895	44.4463	-168.098	0.000981	0.801291	-0.228180	-0.229485	-0.076518	16.0895	-0.224614	-329	0.000233	NaN
686	1.000000	0.810595	7.37176e+06	-42789.1	1005.82	-29781.5	0.000000	0.000000	6.811063	-0.073921	NaN	0.000000	0.001582	0.001673	28.0801	0.067500	0.001988	33.9614	175.778	-168.175	-0.151445	0.809280	-0.220180	-0.221495	-0.073921	33.9614	-0.218548	-263.3	0.000281	NaN
686	1.000000	0.818597	7.37176e+06	-42789.1	1005.82	-29781.5	0.000000	0.000000	6.819066	-0.030088	NaN	0.000000	0.001584	0.001695	28.0802	0.060743	0.002188	27.7592	97.3403	-167.669	0.024393	0.817335	-0.212179	-0.213440	-0.030088	27.7592	-0.211366	-201.801	0.000149	NaN
686	1.000000	0.826607	7.37176e+06	-42789.1	1005.82	-29781.5	0.000000	0.000000	6.827079	0.016266	NaN	0.000000	0.001581	0.001701	28.0802	0.152268	0.001952	77.9912	-134.071	-168.277	-0.029743	0.825307	-0.204169	-0.205469	0.016266	77.9912	-0.204325	-155.076	-0.000105	NaN
686	1.000000	0.834593	7.37176e+06	-42789.1	1005.82	-29781.5	0.000000	0.000000	6.835063	-0.017191	NaN	0.000000	0.001619	0.001675	28.0803	0.031858	0.001905	16.7256	80.1412	-170.634	-0.035697	0.833292	-0.196183	-0.197484	-0.017191	16.7256	-0.195412	-110.669	0.000155	NaN
686	1.000000	0.842613	7.37176e+06	-42789.1	1005.82	-29781.5	0.000000	0.000000	6.843083	-0.027272	NaN	0.000000	0.001598	0.001700	28.0803	0.080456	0.002007	40.0937	179.467	-164.443	0.018470	0.841292	-0.188163	-0.189484	-0.027272	40.0937	-0.187653	-82.1746	0.000332	NaN
686	1.000000	0.850617	7.37176e+06	-42789.1	1005.82	-29781.5	0.000000	0.000000	6.851086	-0.034719	NaN	0.000000	0.001577	0.001685	28.0802	0.057000	0.002097	27.178	-80.4171	-168.471	-0.021424	0.849342	-0.180159	-0.181434	-0.034719	27.178	-0.179201	-59.138	0.000587	NaN
686	1.000000	0.858643	7.37176e+06	-42789.1	1005.82	-29781.5	0.000000	0.000000	6.859111	-0.089692	NaN	0.000000	0.001538	0.001689	28.0801	0.099157	0.002012	49.2935	125.119	-166.356	-0.089374	0.857292	-0.172132	-0.173484	-0.089692	49.2935	-0.170768	-42.3578	0.002117	NaN
686	1.000000	0.866608	7.37176e+06	-42789.1	1005.82	-29781.5	0.000000	0.000000	6.867074	-0.115705	NaN	0.000000	0.001577	0.001661	28.0801	0.074354	0.001955	38.0281	-103.462	-166.853	-0.060097	0.865330	-0.164168	-0.165446	-0.115705	38.0281	-0.161886	-29.6093	0.003908	NaN
686	1.000000	0.874630	7.37176e+06	-42789.1	1005.82	-29781.5	0.000000	0.000000	6.875099	-0.052577	NaN	0.000000	0.001558	0.001715	28.0801	0.124388	0.002078	59.8489	122.319	-169.706	-0.064789	0.873335	-0.156145	-0.157441	-0.052577	59.8489	-0.155487	-22.7683	0.002309	NaN
686	1.000000	0.882603	7.37176e+06	-42789.1	1005.82	-29781.5	0.000000	0.000000	6.883074	0.012922	NaN	0.000000	0.001564	0.001723	28.08	0.127224	0.002036	62.4771	-164.669	-170.126	0.023555	0.881324	-0.148173	-0.149451	0.012922	62.4771	-0.148328	-16.8828	-0.000765	NaN
686	1.000000	0.890625	7.37176e+06	-42789.1	1005.82	-29781.5	0.000000	0.000000	6.891094	-0.046186	NaN	0.000000	0.001598	0.001713	28.0802	0.066577	0.002009	33.1376	-176.624	-166.063	-0.041087	0.889348	-0.140151	-0.141428	-0.046186	33.1376	-0.139106	-11.38	0.004058	NaN
686	1.000000	0.898633	7.37176e+06	-42789.1	1005.82	-29781.5	0.000000	0.000000	6.899104	-0.010890	NaN	0.000000	0.001580	0.001715	28.0804	0.040558	0.001969	20.5973	-80.9165	-167.052	0.007489	0.897336	-0.132142	-0.133440	-0.010890	20.5973	-0.131746	-8.237946	0.001322	NaN
686	1.000000	0.906634	7.37176e+06	-42789.1	1005.82	-29781.5	0.000000	0.000000	6.907104	-0.022754	NaN	0.000000	0.001558	0.001716	28.0801	0.010029	0.002096	4.784317	-89.1848	-168.545	-0.064105	0.905333	-0.124142	-0.125442	-0.022754	4.784317	-0.120575	-4.962198	0.004586	NaN
686	1.000000	0.914657	7.37176e+06	-42789.1	1005.82	-29781.5	0.000000	0.000000	6.915128	-0.004613	NaN	0.000000	0.001584	0.001718	28.0803	0.129916	0.001954	66.4886	43.448	-166.761	-0.024139	0.913309	-0.116119	-0.117467	-0.004613	66.4886	-0.116067	-4.018342	0.001148	NaN
686	1.000000	0.922617	7.37176e+06	-42789.1	1005.82	-29781.5	0.000000	0.000000	6.923087	-0.006021	NaN	0.000000	0.001573	0.001706	28.0815	0.074086	0.001868	39.6647	156.907	-169.252	0.021013	0.921322	-0.108159	-0.109454	-0.006021	39.6647	-0.108045	-2.731891	0.002204	NaN
686	1.000000	0.930646	7.37176e+06	-42789.1	1005.82	-29781.5	0.000000	0.000000	6.931117	-0.007124	NaN	0.000000	0.001566	0.001672	28.0815	0.052692	0.002025	26.0224	-157.322	-166.789	0.054590	0.929313	-0.100130	-0.101463	-0.007124	26.0224	-0.099925	-1.820120	0.003914	NaN
686	1.000000	0.938679	7.37176e+06	-42789.1	1005.82	-29781.5	0.000000	0.000000	6.939148	-0.052389	NaN	0.000000	0.001531	0.001658	28.0814	0.047254	0.002167	21.8106	-36.5131	-167.774	-0.053948	0.937359	-0.092097	-0.093417	-0.052389	21.8106	-0.090295	-1.098351	0.047698	NaN
686	1.000000	0.946668	7.37176e+06	-42789.1	1005.82	-29781.5	0.000000	0.000000	6.947135	-0.088384	NaN	0.000000	0.001535	0.001692	28.081	0.040313	0.001927	20.9229	-144.411	-166.871	-0.079513	0.945357	-0.084108	-0.085419	-0.088384	20.9229	-0.080940	-0.653302	0.135288	NaN
686	1.000000	0.954645	7.37176e+06	-42789.1	1005.82	-29781.5	0.000000	0.000000	6.955116	0.003148	NaN	0.000000	0.001518	0.001744	28.0817	0.031940	0.001936	16.4986	-93.6614	-166.903	0.000609	0.953362	-0.076131	-0.077414	0.003148	16.4986	-0.076274	-0.498127	-0.006319	NaN
686	1.000000	0.962686	7.37176e+06	-42789.1	1005.82	-29781.5	0.000000	0.000000	6.963158	0.032892	NaN	0.000000	0.001484	0.001745	28.0816	0.087057	0.001867	46.6215	-125.171	-166.763	0.009419	0.961305	-0.068090	-0.069471	0.032892	46.6215	-0.068619	-0.313123	-0.105045	NaN
686	1.000000	0.970648	7.37176e+06	-42789.1	1005.82	-29781.5	0.000000	0.000000	6.971117	-0.052711	NaN	0.000000	0.001485	0.001724	28.0815	0.034735	0.001989	17.4611	117.87	-166.789	-0.078387	0.969331	-0.060128	-0.061444	-0.052711	17.4611	-0.057864	-0.156244	0.337361	NaN
686	1.000000	0.978683	7.37176e+06	-42789.1	1005.82	-29781.5	0.000000	0.000000	6.979151	-0.078137	NaN	0.000000	0.001524	0.001732	28.0815	0.114370	0.002027	56.418	-96.7429	-166.291	0.023542	0.977370	-0.052092	-0.053406	-0.078137	56.418	-0.051054	-0.098183	0.795831	NaN
686	1.000000	0.986634	7.37176e+06	-42789.1	1005.82	-29781.5	0.000000	0.000000	6.987103	-0.066883	NaN	0.000000	0.001469	0.001729	28.0814	0.140312	0.001964	71.4365	-96.994	-166.214	-0.093662	0.985390	-0.044141	-0.045386	-0.066883	71.4365	-0.043439	-0.057578	1.161608	NaN
686	1.000000	0.994661	7.37176e+06	-42789.1	1005.82	-29781.5	0.000000	0.000000	6.995130	-0.046536	NaN	0.000000	0.001483	0.001687	28.0821	0.065433	0.002088	31.3369	-140.403	-164.515	-0.076693	0.993348	-0.036115	-0.037428	-0.046536	31.3369	-0.035001	-0.032026	1.453054	NaN
686	1.000000	1.002680	7.37176e+06	-42789.1	1005.82	-29781.5	0.000000	0.000000	7.003151	-0.005365	NaN	0.000000	0.001525	0.001682	28.0815	0.071983	0.001967	36.588	176.034	-170.43	0.025200	1.001352	-0.028096	-0.029424	-0.005365	36.588	-0.027986	-0.020257	0.264833	NaN
686	1.000000	1.010650	7.37176e+06	-42789.1	1005.82	-29781.5	0.000000	0.000000	7.011117	-0.095472	NaN	0.000000	0.001491	0.001682	28.0815	0.028792	0.001946	14.7928	-169.726	-167.034	-0.150065	1.009408	-0.020126	-0.021368	-0.095472	14.7928	-0.015285	-0.009447	10.1062	NaN
686	1.000000	1.018671	7.37176e+06	-42789.1	1005.82	-29781.5	0.000000	0.000000	7.019143	0.017129	NaN	0.000000	0.001533	0.001729	28.0812	0.058635	0.001814	32.3243	-74.7412	-164.171	0.008109	1.017425	-0.012105	-0.013351	0.017129	32.3243	-0.012502	-0.007816	-2.191537	NaN
686	1.000000	1.026696	7.37176e+06	-42789.1	1005.82	-29781.5	0.000000	0.000000	7.027164	-0.073745	NaN	0.000000	0.001512	0.001753	28.0813	0.118379	0.001913	61.8726	140	-164.924	0.034556	1.025400	-0.004080	-0.005375	-0.073745	61.8726	-0.003186	-0.002245	32.8553	NaN
686	1.000000	1.034663	7.37176e+06	-42789.1	1005.82	-29781.5	0.000000	0.000000	7.035320	4.549998	NaN	0.000000	0.001506	0.001714	28.0812	5.581442	0.001865	2992.39	7.963853	-170.13	2.640652	1.033314	0.003887	0.002538	4.549998	2992.39	0.002746	0.002168	2099.16	58723.1
686	2.000000	1.039221	7.37177e+06	-42789.1	1005.82	-29781.5	0.000000	0.000000	7.040157	11.3193	NaN	0.000000	0.001537	0.001682	28.0812	10.4264	0.001635	6377.71	3.022684	-170.476	10.4325	1.038874	0.008446	0.008098	11.3193	6377.71	0.007114	0.006147	1841.36	74318.6
686	2.000000	1.041189	7.37177e+06	-42789.1	1005.82	-29781.5	0.000000	0.000000	7.042288	15.2846	NaN	0.000000	0.001537	0.001667	28.0814	12.3993	0.001529	8108.24	4.662793	-176.198	13.9268	1.040898	0.010413	0.010123	15.2846	8108.24	0.008999	0.008090	1889.31	82361.6
686	2.000000	1.043154	7.37177e+06	-42789.1	1005.82	-29781.5	0.000000	0.000000	7.044399	18.853	NaN	0.000000	0.001574	0.001710	28.0801	15.2844	0.001751	8731	5.869189	-175.681	17.4631	1.042849	0.012378	0.012073	18.853	8731	0.010758	0.010036	1878.47	79624.9
686	2.000000	1.045211	7.37177e+06	-42789.1	1005.82	-29781.5	0.000000	0.000000	7.046555	21.2356	NaN	0.000000	0.001549	0.001660	28.0798	17.3811	0.001685	10312.8	6.264961	-177.143	20.7541	1.044858	0.014436	0.014082	21.2356	10312.8	0.012891	0.012575	1688.7	84021.9
686	2.000000	1.047139	7.37177e+06	-42789.1	1005.82	-29781.5	0.000000	0.000000	7.048655	25.4462	NaN	0.000000	0.001532	0.001695	28.0798	18.9567	0.001791	10584.9	3.490114	-175.877	24.2072	1.046853	0.016363	0.016077	25.4462	10584.9	0.014560	0.014703	1730.7	79755.1
686	2.000000	1.049171	7.37177e+06	-42789.1	1005.82	-29781.5	0.000000	0.000000	7.050841	29.1742	NaN	0.000000	0.001527	0.001674	28.08	21.6108	0.001852	11668.1	5.046658	-177.393	28.7309	1.048802	0.018395	0.018026	29.1742	11668.1	0.016520	0.017366	1679.94	80894.7
686	2.000000	1.051118	7.37177e+06	-42789.1	1005.82	-29781.5	0.000000	0.000000	7.053026	34.9706	NaN	0.000000	0.001511	0.001676	28.08	22.4704	0.001691	13285.4	3.971016	-176.623	34.52	1.050862	0.020342	0.020086	34.9706	13285.4	0.018368	0.020042	1744.82	85737.8
686	2.000000	1.053121	7.37177e+06	-42789.1	1005.82	-29781.5	0.000000	0.000000	7.055236	40.0142	NaN	0.000000	0.001541	0.001728	28.0807	25.3	0.001692	14952.5	5.315633	179.59	38.7842	1.052848	0.022345	0.022072	40.0142	14952.5	0.020338	0.023076	1733.99	89929.7
686	2.000000	1.055177	7.37177e+06	-42789.1	1005.82	-29781.5	0.000000	0.000000	7.057554	46.3864	NaN	0.000000	0.001564	0.001673	28.0801	27.6867	0.001823	15184	7.859460	179.291	46.0065	1.054756	0.024401	0.023980	46.3864	15184	0.022110	0.025966	1786.41	86090.3
686	2.000000	1.057106	7.37177e+06	-42789.1	1005.82	-29781.5	0.000000	0.000000	7.059712	51.9501	NaN	0.000000	0.001514	0.001749	28.08	29.5803	0.001861	15893.8	3.716311	-178.174	50.1357	1.056753	0.026330	0.025977	51.9501	15893.8	0.023879	0.029008	1790.9	85259.4
686	2.000000	1.059124	7.37177e+06	-42789.1	1005.82	-29781.5	0.000000	0.000000	7.061950	57.2944	NaN	0.000000	0.001536	0.001750	28.0803	32.2416	0.001806	17854.6	7.192995	176.375	57.1832	1.058869	0.028348	0.028093	57.2944	17854.6	0.025941	0.032751	1749.41	90139.4
686	2.000000	1.061142	7.37177e+06	-42789.1	1005.82	-29781.5	0.000000	0.000000	7.064316	65.7586	NaN	0.000000	0.001518	0.001782	28.0801	33.2548	0.001687	19707.5	8.098062	174.665	66.0197	1.060718	0.030366	0.029942	65.7586	19707.5	0.027864	0.036432	1804.95	94332.6
686	2.000000	1.063104	7.37177e+06	-42789.1	1005.82	-29781.5	0.000000	0.000000	7.066525	71.773	NaN	0.000000	0.001524	0.001717	28.0812	35.4583	0.001799	19714.4	6.134294	178.006	70.946	1.062785	0.032328	0.032009	71.773	19714.4	0.029598	0.039914	1798.19	90155.8
686	2.000000	1.065208	7.37177e+06	-42789.1	1005.82	-29781.5	0.000000	0.000000	7.068833	76.7378	NaN	0.000000	0.001560	0.001693	28.0803	37.2551	0.001813	20551	5.749957	178.85	79.5304	1.064798	0.034432	0.034022	76.7378	20551	0.031632	0.044194	1736.39	89315.1
686	2.000000	1.067115	7.37177e+06	-42789.1	1005.82	-29781.5	0.000000	0.000000	7.071001	83.1082	NaN	0.000000	0.001581	0.001744	28.08	39.3949	0.001831	21521.2	7.195873	174.864	82.4786	1.066789	0.036339	0.036013	83.1082	21521.2	0.033442	0.048181	1724.9	89577.6
686	2.000000	1.069099	7.37177e+06	-42789.1	1005.82	-29781.5	0.000000	0.000000	7.073365	92.3251	NaN	0.000000	0.001547	0.001768	28.0804	40.4536	0.001784	22671.4	-0.149456	-177.169	91.3519	1.068755	0.038323	0.037979	92.3251	22671.4	0.035269	0.052374	1762.79	90509.1
686	2.000000	1.071121	7.37177e+06	-42789.1	1005.82	-29781.5	0.000000	0.000000	7.075642	98.5427	NaN	0.000000	0.001535	0.001759	28.0799	41.8001	0.001728	24193.1	4.051063	177.973	98.7012	1.070806	0.040345	0.040030	98.5427	24193.1	0.037290	0.057213	1722.38	92409.6
686	2.000000	1.073054	7.37177e+06	-42789.1	1005.82	-29781.5	0.000000	0.000000	7.077907	106.627	NaN	0.000000	0.001576	0.001798	28.0812	43.8281	0.001820	24081.5	6.307846	175.813	104.67	1.072717	0.042278	0.041941	106.627	24081.5	0.038957	0.061361	1737.7	88819.8
686	2.000000	1.075099	7.37177e+06	-42789.1	1005.82	-29781.5	0.000000	0.000000	7.080257	114.042	NaN	0.000000	0.001580	0.001765	28.08	45.4939	0.001734	26232.2	6.173476	175.069	112.298	1.074781	0.044323	0.044005	114.042	26232.2	0.041062	0.066802	1707.15	92728.1
686	2.000000	1.077091	7.37177e+06	-42789.1	1005.82	-29781.5	0.000000	0.000000	7.082614	122.916	NaN	0.000000	0.001531	0.001776	28.0814	47.3286	0.001827	25910.1	6.833381	174.779	123.529	1.076760	0.046315	0.045984	122.916	25910.1	0.042757	0.071348	1722.76	88624.1
686	2.000000	1.079050	7.37177e+06	-42789.1	1005.82	-29781.5	0.000000	0.000000	7.084905	130.993	NaN	0.000000	0.001560	0.001761	28.0818	49.0938	0.001718	28582.7	4.652414	175.253	128.775	1.078750	0.048274	0.047974	130.993	28582.7	0.044837	0.077126	1698.43	94031.9
686	2.000000	1.081091	7.37177e+06	-42789.1	1005.82	-29781.5	0.000000	0.000000	7.087303	139.687	NaN	0.000000	0.001587	0.001742	28.0812	49.9236	0.001747	28580.8	3.904303	176.17	139.618	1.080782	0.050315	0.050006	139.687	28580.8	0.046649	0.082338	1696.5	91001.1
686	2.000000	1.083035	7.37177e+06	-42789.1	1005.82	-29781.5	0.000000	0.000000	7.089529	146.527	NaN	0.000000	0.001569	0.001719	28.0822	52.1074	0.001658	31429	5.802269	172.666	142.725	1.082821	0.052260	0.052045	146.527	31429	0.048763	0.088628	1653.28	96453.6
686	2.000000	1.085105	7.37177e+06	-42789.1	1005.82	-29781.5	0.000000	0.000000	7.092054	157.609	NaN	0.000000	0.001564	0.001744	28.0814	54.1132	0.001748	30958.6	5.725327	173.773	157.783	1.084833	0.054329	0.054058	157.609	30958.6	0.050511	0.093999	1676.71	92255.7
686	2.000000	1.087042	7.37177e+06	-42789.1	1005.82	-29781.5	0.000000	0.000000	7.094499	169.957	NaN	0.000000	0.001628	0.001763	28.0814	55.5539	0.001730	32102.9	2.649692	176.797	167.561	1.086751	0.056267	0.055975	169.957	32102.9	0.052296	0.099642	1705.67	92917.4
686	2.000000	1.089056	7.37177e+06	-42789.1	1005.82	-29781.5	0.000000	0.000000	7.096739	175.479	NaN	0.000000	0.001578	0.001768	28.0817	59.6247	0.001921	31039.4	7.012910	173.171	174.367	1.088793	0.058280	0.058017	175.479	31039.4	0.054040	0.105308	1666.34	87388.6
686	2.000000	1.091052	7.37177e+06	-42789.1	1005.82	-29781.5	0.000000	0.000000	7.099281	188.779	NaN	0.000000	0.001573	0.001749	28.0812	60.3918	0.001761	34295.8	5.730969	172.366	187.731	1.090719	0.060276	0.059944	188.779	34295.8	0.056147	0.112357	1680.17	93479
686	2.000000	1.093041	7.37177e+06	-42789.1	1005.82	-29781.5	0.000000	0.000000	7.101599	196.763	NaN	0.000000	0.001600	0.001748	28.0817	61.9707	0.001799	34456.6	2.580820	175.96	193.827	1.092689	0.062266	0.061913	196.763	34456.6	0.057983	0.118674	1658.01	91383.4
686	2.000000	1.095134	7.37177e+06	-42789.1	1005.82	-29781.5	0.000000	0.000000	7.104031	205.01	NaN	0.000000	0.001604	0.001800	28.0814	65.7515	0.001939	33906.8	9.046545	170.257	206.767	1.094728	0.064358	0.063952	205.01	33906.8	0.059823	0.125176	1637.77	87558.7
686	2.000000	1.097066	7.37177e+06	-42789.1	1005.82	-29781.5	0.000000	0.000000	7.106556	219.46	NaN	0.000000	0.001552	0.001820	28.0814	65.7116	0.001870	35137.6	4.726053	173.69	217.444	1.096777	0.066290	0.066001	219.46	35137.6	0.061606	0.131629	1667.27	88485.2
686	2.000000	1.099004	7.37177e+06	-42789.1	1005.82	-29781.5	0.000000	0.000000	7.108853	228.182	NaN	0.000000	0.001572	0.001831	28.0817	68.4285	0.001789	38243	4.433679	173.397	225.576	1.098748	0.068228	0.067972	228.182	38243	0.063753	0.139609	1634.44	93512.3
686	2.000000	1.101041	7.37177e+06	-42789.1	1005.82	-29781.5	0.000000	0.000000	7.111501	243.043	NaN	0.000000	0.001589	0.001828	28.0814	68.6982	0.001836	37415.9	5.531599	172.637	241.388	1.100696	0.070265	0.069920	243.043	37415.9	0.065393	0.145854	1666.35	89509.8
686	2.000000	1.102983	7.37177e+06	-42789.1	1005.82	-29781.5	0.000000	0.000000	7.113816	252.122	NaN	0.000000	0.001554	0.001809	28.0821	71.9561	0.001842	39063.1	4.127263	173.597	248.694	1.102715	0.072207	0.071940	252.122	39063.1	0.067366	0.153539	1642.07	91081.7
686	2.000000	1.105052	7.37177e+06	-42789.1	1005.82	-29781.5	0.000000	0.000000	7.116432	265.421	NaN	0.000000	0.001571	0.001816	28.0814	73.0773	0.001879	38889.6	3.111253	174.547	262.69	1.104707	0.074276	0.073931	265.421	38889.6	0.069158	0.160678	1651.88	88639.7
686	2.000000	1.107050	7.37177e+06	-42789.1	1005.82	-29781.5	0.000000	0.000000	7.118790	274.178	NaN	0.000000	0.001565	0.001822	28.0813	75.3062	0.001790	42069.4	6.432092	170.715	273.653	1.106656	0.076274	0.075880	274.178	42069.4	0.071386	0.169773	1614.97	93283.6
686	2.000000	1.109077	7.37177e+06	-42789.1	1005.82	-29781.5	0.000000	0.000000	7.121399	288.331	NaN	0.000000	0.001601	0.001782	28.0814	77.4679	0.001887	41055.5	4.371426	172.885	289.971	1.108808	0.078301	0.078032	288.331	41055.5	0.073034	0.176649	1632.22	89246
686	2.000000	1.110989	7.37177e+06	-42789.1	1005.82	-29781.5	0.000000	0.000000	7.123871	301.977	NaN	0.000000	0.001590	0.001830	28.08	78	0.001774	43969.8	4.202192	172.288	298.362	1.110729	0.080213	0.079953	301.977	43969.8	0.075062	0.185289	1629.77	93326.1
686	2.000000	1.113040	7.37177e+06	-42789.1	1005.82	-29781.5	0.000000	0.000000	7.126426	314.24	NaN	0.000000	0.001586	0.001778	28.0808	79.7603	0.001806	44155.2	4.638890	172.139	313.131	1.112666	0.082264	0.081890	314.24	44155.2	0.076926	0.193398	1624.83	91733.7
686	2.000000	1.115050	7.37177e+06	-42789.1	1005.82	-29781.5	0.000000	0.000000	7.129152	331.638	NaN	0.000000	0.001604	0.001757	28.0801	81.1681	0.001886	43035.8	3.504350	173.787	328.306	1.114733	0.084275	0.083957	331.638	43035.8	0.078495	0.200351	1655.28	87843
686	2.000000	1.117184	7.37177e+06	-42789.1	1005.82	-29781.5	0.000000	0.000000	7.131532	337.642	NaN	0.000000	0.001608	0.001775	28.0802	83.0632	0.001758	47248	6.325240	169.885	345.988	1.116771	0.086408	0.085995	337.642	47248	0.081049	0.211913	1593.31	93773
686	2.000000	1.119022	7.37177e+06	-42789.1	1005.82	-29781.5	0.000000	0.000000	7.134163	356.95	NaN	0.000000	0.001605	0.001798	28.0802	86.5335	0.001950	44371.6	6.239355	171.582	355.187	1.118664	0.088246	0.087888	356.95	44371.6	0.082212	0.217284	1642.78	86969
686	2.000000	1.121136	7.37177e+06	-42789.1	1005.82	-29781.5	0.000000	0.000000	7.136889	371.807	NaN	0.000000	0.001619	0.001754	28.0801	86.5281	0.001831	47260.4	8.489751	169.332	375.18	1.120536	0.090361	0.089760	371.807	47260.4	0.084460	0.227833	1631.93	90461.1
686	2.000000	1.123048	7.37177e+06	-42789.1	1005.82	-29781.5	0.000000	0.000000	7.139032	377.439	NaN	0.000000	0.001620	0.001795	28.0802	88.3209	0.001717	51441	6.093183	169.263	377.392	1.122786	0.092273	0.092010	377.439	51441	0.086770	0.238915	1579.81	96152.5
686	2.000000	1.125098	7.37177e+06	-42789.1	1005.82	-29781.5	0.000000	0.000000	7.142107	402.384	NaN	0.000000	0.001638	0.001765	28.0801	89.8742	0.001777	50587.8	3.081023	173.317	402.52	1.124622	0.094322	0.093846	402.384	50587.8	0.088357	0.246674	1631.24	93058.9
686	2.000000	1.127007	7.37177e+06	-42789.1	1005.82	-29781.5	0.000000	0.000000	7.144608	416.785	NaN	0.000000	0.001560	0.001788	28.0803	92.3053	0.001713	53886.4	6.202847	169.499	416.133	1.126611	0.096232	0.095835	416.785	53886.4	0.090431	0.256987	1621.81	97117.4
686	2.000000	1.129097	7.37177e+06	-42789.1	1005.82	-29781.5	0.000000	0.000000	7.147157	427.945	NaN	0.000000	0.001567	0.001822	28.0802	94.9023	0.001846	51417.6	11.6036	164.98	429.491	1.128662	0.098322	0.097886	427.945	51417.6	0.092079	0.265326	1612.9	91200.1
686	2.000000	1.130965	7.37177e+06	-42789.1	1005.82	-29781.5	0.000000	0.000000	7.149615	442.317	NaN	0.000000	0.001629	0.001782	28.08	93.9707	0.001645	57133.7	4.054053	171.042	438.75	1.130684	0.100189	0.099908	442.317	57133.7	0.094382	0.277183	1595.76	99147.6
686	2.000000	1.132927	7.37177e+06	-42789.1	1005.82	-29781.5	0.000000	0.000000	7.151811	447.991	NaN	0.000000	0.001585	0.001767	28.0802	97.495	0.001894	51468.2	2.225886	173.226	441.967	1.132719	0.102151	0.101943	447.991	51468.2	0.095623	0.283671	1579.26	88288.5
686	2.000000	1.135013	7.37177e+06	-42789.1	1005.82	-29781.5	0.000000	0.000000	7.154774	469.342	NaN	0.000000	0.001566	0.001793	28.0803	99.4445	0.001847	53828.6	3.280910	172.293	465.235	1.134651	0.104237	0.103875	469.342	53828.6	0.097698	0.294677	1592.73	90596.8
686	2.000000	1.136547	7.37177e+06	-42789.1	1005.82	-29781.5	0.000000	0.000000	7.156744	479.932	NaN	0.000000	0.001595	0.001756	28.0801	100.814	0.001809	55722.8	5.658718	-9.466491	480.07	1.135995	0.105772	0.105219	479.932	55722.8	0.099312	0.303376	1581.97	92430.6