File: remote_trans/data/nanoindenter/0828-1/data/Data_2025-08-06,11h17m57s/2025-07-22_16-23-58_1_499.txt
2025-07-22, 16:23:58, 1
Index	Phase	Displacement	Time	Pos X	Pos Y	Pos Z	Rot A	Rot B	Piezo Z	Force A	Force B	Gripper	Voltage A	Voltage B	Temperature	Amplitude force	Amplitude pos	Stiffness	Phase shift	Phase excitation	Force A raw	Displacement raw	HMax	HMax raw	Real Force	Real Stiffness	Contact Depth	Area	Hardness	Reduced Mod.
[#]	[#]	[um]	[s]	[um]	[um]	[um]	[m°]	[m°]	[um]	[uN]	[uN]	[V]	[V]	[V]	[°C]	[uN]	[um]	[N/m]	[°]	[°]	[uN]	[um]	[um]	[um]	[uN]	[N/m]	[um]	[um^2]	[MPa]	[MPa]
499	1.000000	0.002763	7.36993e+06	-52139.1	1005.82	-29750	0.000000	0.000000	6.002774	-0.059128	NaN	0.000000	0.001625	0.001770	28.0827	0.060792	0.000958	63.447	110.498	-165.046	-0.051967	0.001494	-1.173015	-1.174284	-0.059128	63.447	-1.172316	-4.676455E+15	1.264370E-17	NaN
499	1.000000	0.012856	7.36993e+06	-52139.1	1005.82	-29750	0.000000	0.000000	6.012869	-0.028052	NaN	0.000000	0.001607	0.001740	28.083	0.044780	0.001129	39.6469	-160.713	18.4519	0.000359	0.011449	-1.162922	-1.164328	-0.028052	39.6469	-1.162391	-3.442819E+15	8.147904E-18	NaN
499	1.000000	0.022740	7.36993e+06	-52139.1	1005.82	-29750	0.000000	0.000000	6.022752	-0.025787	NaN	0.000000	0.001613	0.001722	28.0827	0.046422	0.001620	28.6589	40.1401	-160.725	0.016612	0.021414	-1.153038	-1.154364	-0.025787	28.6589	-1.152363	-2.526415E+15	1.020685E-17	NaN
499	1.000000	0.032697	7.36993e+06	-52139.1	1005.82	-29750	0.000000	0.000000	6.032710	-0.018161	NaN	0.000000	0.001626	0.001725	28.0815	0.022765	0.001970	11.557	101.135	15.8052	0.034941	0.031390	-1.143080	-1.144387	-0.018161	11.557	-1.141902	-1.829115E+15	9.929025E-18	NaN
499	1.000000	0.042724	7.36993e+06	-52139.1	1005.82	-29750	0.000000	0.000000	6.042738	0.010841	NaN	0.000000	0.001620	0.001724	28.0818	0.070110	0.001893	37.0385	-72.5277	-163.621	0.015056	0.041414	-1.133053	-1.134364	0.010841	37.0385	-1.133273	-1.401264E+15	-7.736406E-18	NaN
499	1.000000	0.052742	7.36993e+06	-52139.1	1005.82	-29750	0.000000	0.000000	6.052752	-0.079818	NaN	0.000000	0.001631	0.001726	28.0813	0.048955	0.001895	25.8286	8.926122	15.7068	-0.043237	0.051344	-1.123036	-1.124434	-0.079818	25.8286	-1.120718	-9.508495E+14	8.394359E-17	NaN
499	1.000000	0.062737	7.36993e+06	-52139.1	1005.82	-29750	0.000000	0.000000	6.062753	0.043005	NaN	0.000000	0.001658	0.001733	28.0812	0.059534	0.001959	30.3914	-112.527	-162.114	0.079674	0.061407	-1.113040	-1.114371	0.043005	30.3914	-1.114102	-7.750510E+14	-5.548655E-17	NaN
499	1.000000	0.072735	7.36993e+06	-52139.1	1005.82	-29750	0.000000	0.000000	6.072750	0.028237	NaN	0.000000	0.001645	0.001742	28.0811	0.109716	0.002007	54.6798	-88.2139	18.6891	-0.050219	0.071411	-1.103042	-1.104367	0.028237	54.6798	-1.103430	-5.573221E+14	-5.066587E-17	NaN
499	1.000000	0.082738	7.36993e+06	-52139.1	1005.82	-29750	0.000000	0.000000	6.082751	-0.006660	NaN	0.000000	0.001635	0.001671	28.0815	0.044715	0.002143	20.8642	-72.8978	-165.058	-0.032763	0.081445	-1.093040	-1.094333	-0.006660	20.8642	-1.092801	-4.012531E+14	1.659692E-17	NaN
499	1.000000	0.092721	7.36993e+06	-52139.1	1005.82	-29750	0.000000	0.000000	6.092737	0.040383	NaN	0.000000	0.001695	0.001769	28.0813	0.051301	0.001959	26.1919	172.444	15.3104	0.014179	0.091377	-1.083056	-1.084401	0.040383	26.1919	-1.084213	-3.076800E+14	-1.312509E-16	NaN
499	1.000000	0.102752	7.36993e+06	-52139.1	1005.82	-29750	0.000000	0.000000	6.102765	-0.022503	NaN	0.000000	0.001649	0.001731	28.0813	0.014010	0.001839	7.616016	167.219	-166.777	-0.011069	0.101423	-1.073026	-1.074355	-0.022503	7.616016	-1.070810	-2.032663E+14	1.107071E-16	NaN
499	1.000000	0.112737	7.36993e+06	-52139.1	1005.82	-29750	0.000000	0.000000	6.112747	-0.080269	NaN	0.000000	0.001579	0.001736	28.0814	0.062049	0.002115	29.3318	84.3299	18.1598	-0.107901	0.111427	-1.063041	-1.064351	-0.080269	29.3318	-1.060988	-1.500034E+14	5.351157E-16	NaN
499	1.000000	0.122766	7.36993e+06	-52139.1	1005.82	-29750	0.000000	0.000000	6.122779	-0.026684	NaN	0.000000	0.001589	0.001717	28.0816	0.087515	0.001929	45.3744	153.778	-162.15	-0.092394	0.121461	-1.053011	-1.054317	-0.026684	45.3744	-1.052570	-1.156021E+14	2.308228E-16	NaN
499	1.000000	0.132786	7.36993e+06	-52139.1	1005.82	-29750	0.000000	0.000000	6.132797	-0.054152	NaN	0.000000	0.001585	0.001698	28.0808	0.065185	0.002046	31.8555	114.08	16.4562	0.039259	0.131410	-1.042992	-1.044368	-0.054152	31.8555	-1.041717	-8.261443E+13	6.554770E-16	NaN
499	1.000000	0.142798	7.36993e+06	-52139.1	1005.82	-29750	0.000000	0.000000	6.142811	-0.008230	NaN	0.000000	0.001578	0.001724	28.0812	0.104043	0.002051	50.7321	107.539	-162.236	-0.085021	0.141481	-1.032980	-1.034297	-0.008230	50.7321	-1.032858	-6.279509E+13	1.310645E-16	NaN
499	1.000000	0.152757	7.36993e+06	-52139.1	1005.82	-29750	0.000000	0.000000	6.152770	-0.005537	NaN	0.000000	0.001602	0.001731	28.0809	0.006854	0.001820	3.765817	140.958	19.2471	-0.055698	0.151397	-1.023021	-1.024381	-0.005537	3.765817	-1.021918	-4.474678E+13	1.237418E-16	NaN
499	1.000000	0.162792	7.36993e+06	-52139.1	1005.82	-29750	0.000000	0.000000	6.162805	-0.015429	NaN	0.000000	0.001604	0.001716	28.081	0.071013	0.002027	35.0258	-26.7281	-163.79	0.042864	0.161497	-1.012986	-1.014281	-0.015429	35.0258	-1.012655	-3.358292E+13	4.594356E-16	NaN
499	1.000000	0.172787	7.36993e+06	-52139.1	1005.82	-29750	0.000000	0.000000	6.172799	-0.051305	NaN	0.000000	0.001599	0.001703	28.082	0.101140	0.002055	49.2118	53.176	17.7294	-0.102498	0.171410	-1.002991	-1.004368	-0.051305	49.2118	-1.002209	-2.429436E+13	2.111813E-15	NaN
499	1.000000	0.182817	7.36993e+06	-52139.1	1005.82	-29750	0.000000	0.000000	6.182828	-0.058065	NaN	0.000000	0.001545	0.001668	28.0825	0.032631	0.002132	15.3052	-164.014	-164.25	-0.013898	0.181474	-0.992961	-0.994304	-0.058065	15.3052	-0.990115	-1.669795E+13	3.477375E-15	NaN
499	1.000000	0.192792	7.36993e+06	-52139.1	1005.82	-29750	0.000000	0.000000	6.192805	-0.015082	NaN	0.000000	0.001599	0.001709	28.0818	0.018458	0.002040	9.046637	-63.583	16.8242	-0.027242	0.191406	-0.982986	-0.984372	-0.015082	9.046637	-0.981735	-1.287620E+13	1.171339E-15	NaN
499	1.000000	0.202794	7.36993e+06	-52139.1	1005.82	-29750	0.000000	0.000000	6.202807	-0.002438	NaN	0.000000	0.001596	0.001702	28.0821	0.092086	0.001948	47.2768	26.808	-167.098	0.028908	0.201511	-0.972984	-0.974267	-0.002438	47.2768	-0.972945	-9.802880E+12	2.487257E-16	NaN
499	1.000000	0.212796	7.36993e+06	-52139.1	1005.82	-29750	0.000000	0.000000	6.212809	-0.001752	NaN	0.000000	0.001621	0.001728	28.082	0.065925	0.002044	32.2567	-65.3509	13.8526	-0.047176	0.211454	-0.962982	-0.964324	-0.001752	32.2567	-0.962941	-7.186588E+12	2.437630E-16	NaN
499	1.000000	0.222795	7.36993e+06	-52139.1	1005.82	-29750	0.000000	0.000000	6.222809	0.000359	NaN	0.000000	0.001583	0.001717	28.0821	0.043237	0.002032	21.2801	-25.1044	-169.18	0.029833	0.221538	-0.952983	-0.954240	0.000359	21.2801	-0.952995	-5.277422E+12	-6.794180E-17	NaN
499	1.000000	0.232817	7.36993e+06	-52139.1	1005.82	-29750	0.000000	0.000000	6.232829	-0.028605	NaN	0.000000	0.001553	0.001719	28.0819	0.079811	0.001997	39.9669	-90.4709	13.6186	-0.015309	0.231425	-0.942961	-0.944352	-0.028605	39.9669	-0.942424	-3.800543E+12	7.526611E-15	NaN
499	1.000000	0.242783	7.36993e+06	-52139.1	1005.82	-29750	0.000000	0.000000	6.242792	-0.093878	NaN	0.000000	0.001578	0.001743	28.0819	0.072131	0.002062	34.9838	-65.8685	-164.262	-0.030595	0.241490	-0.932995	-0.934288	-0.093878	34.9838	-0.930983	-2.663535E+12	3.524575E-14	NaN
499	1.000000	0.252832	7.36993e+06	-52139.1	1005.82	-29750	0.000000	0.000000	6.252844	-0.027406	NaN	0.000000	0.001605	0.001708	28.0821	0.059772	0.001946	30.7081	78.981	17.7486	-0.052408	0.251457	-0.922946	-0.924321	-0.027406	30.7081	-0.922277	-2.032098E+12	1.348650E-14	NaN
499	1.000000	0.262832	7.36993e+06	-52139.1	1005.82	-29750	0.000000	0.000000	6.262846	-0.002332	NaN	0.000000	0.001644	0.001697	28.0819	0.168632	0.002030	83.0506	-1.529903	-164.517	-0.015382	0.261486	-0.912945	-0.914292	-0.002332	83.0506	-0.912924	-1.519354E+12	1.534851E-15	NaN
499	1.000000	0.272873	7.36993e+06	-52139.1	1005.82	-29750	0.000000	0.000000	6.272883	-0.071912	NaN	0.000000	0.001584	0.001753	28.0819	0.154546	0.002073	74.5424	14.8298	12.9385	-0.005487	0.271458	-0.902905	-0.904320	-0.071912	74.5424	-0.902182	-1.087786E+12	6.610827E-14	NaN
499	1.000000	0.282833	7.36993e+06	-52139.1	1005.82	-29750	0.000000	0.000000	6.282847	0.015051	NaN	0.000000	0.001532	0.001687	28.0818	0.074086	0.001742	42.5329	52.7857	-169.099	0.021453	0.281491	-0.892945	-0.894287	0.015051	42.5329	-0.893210	-8.228279E+11	-1.829158E-14	NaN
499	1.000000	0.292851	7.36993e+06	-52139.1	1005.82	-29750	0.000000	0.000000	6.292865	0.002981	NaN	0.000000	0.001572	0.001699	28.0821	0.010210	0.001995	5.117315	19.2808	16.0518	-0.106363	0.291433	-0.882927	-0.884344	0.002981	5.117315	-0.883364	-6.056088E+11	-4.922194E-15	NaN
499	1.000000	0.302826	7.36993e+06	-52139.1	1005.82	-29750	0.000000	0.000000	6.302839	-0.014129	NaN	0.000000	0.001632	0.001701	28.0809	0.115847	0.001991	58.1956	-67.4404	-160.875	-0.035841	0.301488	-0.872951	-0.874290	-0.014129	58.1956	-0.872769	-4.354215E+11	3.244872E-14	NaN
499	1.000000	0.312823	7.36993e+06	-52139.1	1005.82	-29750	0.000000	0.000000	6.312837	0.009134	NaN	0.000000	0.001678	0.001681	28.0806	0.052999	0.002158	24.5637	-1.346023	16.598	-0.013359	0.311467	-0.862954	-0.864311	0.009134	24.5637	-0.863233	-3.235050E+11	-2.823375E-14	NaN
499	1.000000	0.322853	7.36993e+06	-52139.1	1005.82	-29750	0.000000	0.000000	6.322866	0.006712	NaN	0.000000	0.001676	0.001659	28.0811	0.102791	0.002033	50.5527	-84.694	-162.246	0.049929	0.321561	-0.852925	-0.854217	0.006712	50.5527	-0.853025	-2.353394E+11	-2.851867E-14	NaN
499	1.000000	0.332864	7.36993e+06	-52139.1	1005.82	-29750	0.000000	0.000000	6.332877	-0.002518	NaN	0.000000	0.001685	0.001734	28.0807	0.083028	0.002095	39.631	-159.344	14.5448	-0.018044	0.331450	-0.842914	-0.844327	-0.002518	39.631	-0.842866	-1.714449E+11	1.468439E-14	NaN
499	1.000000	0.342865	7.36993e+06	-52139.1	1005.82	-29750	0.000000	0.000000	6.342878	-0.021463	NaN	0.000000	0.001670	0.001711	28.0808	0.035010	0.001840	19.0243	-148.522	-164.451	-0.005778	0.341524	-0.832913	-0.834254	-0.021463	19.0243	-0.832067	-1.224032E+11	1.753506E-13	NaN
499	1.000000	0.352836	7.36993e+06	-52139.1	1005.82	-29750	0.000000	0.000000	6.352850	0.010839	NaN	0.000000	0.001655	0.001721	28.0807	0.049583	0.001991	24.9031	45.2544	13.6541	-0.086716	0.351493	-0.822942	-0.824285	0.010839	24.9031	-0.823268	-9.300969E+10	-1.165326E-13	NaN
499	1.000000	0.362846	7.36993e+06	-52139.1	1005.82	-29750	0.000000	0.000000	6.362857	-0.075477	NaN	0.000000	0.001707	0.001711	28.081	0.112367	0.001987	56.5469	-60.2239	-164.926	-0.022797	0.361544	-0.812932	-0.814234	-0.075477	56.5469	-0.811931	-6.527730E+10	1.156260E-12	NaN
499	1.000000	0.372850	7.36993e+06	-52139.1	1005.82	-29750	0.000000	0.000000	6.372859	-0.103585	NaN	0.000000	0.001642	0.001682	28.0807	0.095317	0.001948	48.9282	-165.548	14.3028	-0.123399	0.371490	-0.802928	-0.804288	-0.103585	48.9282	-0.801340	-4.688680E+10	2.209259E-12	NaN
499	1.000000	0.382883	7.36993e+06	-52139.1	1005.82	-29750	0.000000	0.000000	6.382898	0.026830	NaN	0.000000	0.001642	0.001686	28.0807	0.037645	0.001882	20.0006	-123.177	-162.87	-0.051323	0.381540	-0.792895	-0.794238	0.026830	20.0006	-0.793901	-3.715818E+10	-7.220590E-13	NaN
499	1.000000	0.392870	7.36993e+06	-52139.1	1005.82	-29750	0.000000	0.000000	6.392882	-0.037341	NaN	0.000000	0.001619	0.001708	28.081	0.188624	0.002040	92.4623	94.837	16.4585	-0.060745	0.391521	-0.782908	-0.784257	-0.037341	92.4623	-0.782605	-2.609921E+10	1.430730E-12	NaN
499	1.000000	0.402893	7.36993e+06	-52139.1	1005.82	-29750	0.000000	0.000000	6.402909	0.044500	NaN	0.000000	0.001648	0.001656	28.0809	0.065513	0.002043	32.0652	-114.945	-162.855	0.056578	0.401551	-0.772885	-0.774227	0.044500	32.0652	-0.773926	-1.989175E+10	-2.237125E-12	NaN
499	1.000000	0.412889	7.36993e+06	-52139.1	1005.82	-29750	0.000000	0.000000	6.412902	-0.036939	NaN	0.000000	0.001662	0.001638	28.0809	0.175671	0.002144	81.9396	-145.186	13.8743	0.005786	0.411573	-0.762888	-0.764205	-0.036939	81.9396	-0.762550	-1.393136E+10	2.651477E-12	NaN
499	1.000000	0.422886	7.36993e+06	-52139.1	1005.82	-29750	0.000000	0.000000	6.422901	0.025202	NaN	0.000000	0.001663	0.001680	28.0808	0.131247	0.001981	66.262	-162.14	-163.023	0.072189	0.421620	-0.752891	-0.754158	0.025202	66.262	-0.753177	-1.038620E+10	-2.426471E-12	NaN
499	1.000000	0.432925	7.36993e+06	-52139.1	1005.82	-29750	0.000000	0.000000	6.432939	-0.002407	NaN	0.000000	0.001673	0.001674	28.0811	0.007941	0.002007	3.956696	-95.8971	16.5493	0.060412	0.431517	-0.742852	-0.744260	-0.002407	3.956696	-0.742396	-7.407804E+9	3.249466E-13	NaN
499	1.000000	0.442921	7.36993e+06	-52139.1	1005.82	-29750	0.000000	0.000000	6.442933	-0.042693	NaN	0.000000	0.001643	0.001686	28.082	0.067642	0.001956	34.5758	-35.2859	-164.041	0.011317	0.441559	-0.732857	-0.734219	-0.042693	34.5758	-0.731931	-5.334847E+9	8.002707E-12	NaN
499	1.000000	0.452918	7.36993e+06	-52139.1	1005.82	-29750	0.000000	0.000000	6.452933	0.036485	NaN	0.000000	0.001554	0.001666	28.0821	0.125321	0.002042	61.359	73.0896	17.6714	0.038419	0.451516	-0.722859	-0.724262	0.036485	61.359	-0.723305	-4.069557E+9	-8.965255E-12	NaN
499	1.000000	0.462894	7.36993e+06	-52139.1	1005.82	-29750	0.000000	0.000000	6.462904	-0.084537	NaN	0.000000	0.001587	0.001711	28.0821	0.036966	0.002059	17.9495	43.3733	-165.099	0.005876	0.461557	-0.712883	-0.714221	-0.084537	17.9495	-0.709351	-2.625392E+9	3.219964E-11	NaN
499	1.000000	0.472901	7.36994e+06	-52139.1	1005.82	-29750	0.000000	0.000000	6.472914	-0.023803	NaN	0.000000	0.001578	0.001713	28.0824	0.128582	0.002086	61.6523	-100.989	15.6567	-0.037914	0.471537	-0.702877	-0.704241	-0.023803	61.6523	-0.702587	-2.122566E+9	1.121411E-11	NaN
499	1.000000	0.482937	7.36994e+06	-52139.1	1005.82	-29750	0.000000	0.000000	6.482950	-0.026058	NaN	0.000000	0.001575	0.001707	28.0819	0.043452	0.001946	22.3303	-160.664	-164.644	-0.022499	0.481628	-0.692840	-0.694150	-0.026058	22.3303	-0.691965	-1.519756E+9	1.714626E-11	NaN
499	1.000000	0.492897	7.36994e+06	-52139.1	1005.82	-29750	0.000000	0.000000	6.492910	-0.010647	NaN	0.000000	0.001555	0.001717	28.0821	0.067845	0.001939	34.9832	68.0643	13.4315	-0.010622	0.491593	-0.682881	-0.684185	-0.010647	34.9832	-0.682653	-1.133653E+9	9.391772E-12	NaN
499	1.000000	0.502940	7.36994e+06	-52139.1	1005.82	-29750	0.000000	0.000000	6.502954	-0.003741	NaN	0.000000	0.001603	0.001740	28.082	0.050413	0.001904	26.4716	-49.9396	-164.763	0.055596	0.501592	-0.672837	-0.674186	-0.003741	26.4716	-0.672731	-8.294140E+8	4.510613E-12	NaN
499	1.000000	0.512917	7.36994e+06	-52139.1	1005.82	-29750	0.000000	0.000000	6.512932	0.036330	NaN	0.000000	0.001587	0.001724	28.0823	0.065895	0.001948	33.8323	-57.5024	16.6478	-0.042613	0.511605	-0.662861	-0.664173	0.036330	33.8323	-0.663666	-6.232802E+8	-5.828770E-11	NaN
499	1.000000	0.522928	7.36994e+06	-52139.1	1005.82	-29750	0.000000	0.000000	6.522939	-0.056981	NaN	0.000000	0.001590	0.001720	28.0823	0.113424	0.001958	57.9241	-165.805	-164.928	-0.057980	0.521623	-0.652850	-0.654155	-0.056981	57.9241	-0.652112	-4.329004E+8	1.316266E-10	NaN
499	1.000000	0.532904	7.36994e+06	-52139.1	1005.82	-29750	0.000000	0.000000	6.532915	-0.053975	NaN	0.000000	0.001589	0.001714	28.0821	0.038860	0.002055	18.9072	105.282	13.3101	0.003793	0.531558	-0.642874	-0.644220	-0.053975	18.9072	-0.640733	-3.022356E+8	1.785855E-10	NaN
499	1.000000	0.542953	7.36994e+06	-52139.1	1005.82	-29750	0.000000	0.000000	6.542965	-0.052908	NaN	0.000000	0.001654	0.001712	28.082	0.057357	0.001925	29.7885	-20.4032	-167.062	0.003013	0.541618	-0.632825	-0.634160	-0.052908	29.7885	-0.631493	-2.256932E+8	2.344236E-10	NaN
499	1.000000	0.552927	7.36994e+06	-52139.1	1005.82	-29750	0.000000	0.000000	6.552936	-0.113040	NaN	0.000000	0.001635	0.001698	28.0824	0.106155	0.001971	53.8546	52.4563	12.8306	-0.068211	0.551584	-0.622851	-0.624194	-0.113040	53.8546	-0.621277	-1.633727E+8	6.919149E-10	NaN
499	1.000000	0.562960	7.36994e+06	-52139.1	1005.82	-29750	0.000000	0.000000	6.562973	-0.026675	NaN	0.000000	0.001610	0.001721	28.0819	0.161473	0.001932	83.559	-177.805	-166.65	-0.103225	0.561625	-0.612818	-0.614153	-0.026675	83.559	-0.612578	-1.240453E+8	2.150404E-10	NaN
499	1.000000	0.572931	7.36994e+06	-52139.1	1005.82	-29750	0.000000	0.000000	6.572946	0.039351	NaN	0.000000	0.001582	0.001764	28.0824	0.075700	0.002016	37.5464	63.0677	11.7705	-0.032144	0.571572	-0.602847	-0.604205	0.039351	37.5464	-0.603633	-9.342979E+7	-4.211780E-10	NaN
499	1.000000	0.582951	7.36994e+06	-52139.1	1005.82	-29750	0.000000	0.000000	6.582964	-0.030133	NaN	0.000000	0.001613	0.001697	28.0809	0.049573	0.002058	24.0832	38.3828	-164.504	-0.028774	0.581671	-0.592826	-0.594107	-0.030133	24.0832	-0.591888	-6.437121E+7	4.681167E-10	NaN
499	1.000000	0.592971	7.36994e+06	-52139.1	1005.82	-29750	0.000000	0.000000	6.592986	0.036382	NaN	0.000000	0.001598	0.001720	28.081	0.107143	0.001985	53.9652	-1.688560	15.3325	-0.032153	0.591647	-0.582806	-0.584131	0.036382	53.9652	-0.583312	-4.902634E+7	-7.420859E-10	NaN
499	1.000000	0.602971	7.36994e+06	-52139.1	1005.82	-29750	0.000000	0.000000	6.602982	-0.058869	NaN	0.000000	0.001557	0.001713	28.081	0.043653	0.002086	20.9282	57.8539	-167.448	-0.028345	0.601654	-0.572807	-0.574124	-0.058869	20.9282	-0.570697	-3.282969E+7	1.793169E-9	NaN
499	1.000000	0.612968	7.36994e+06	-52139.1	1005.82	-29750	0.000000	0.000000	6.612976	-0.135970	NaN	0.000000	0.001597	0.001738	28.0812	0.041082	0.002084	19.7114	-156.879	18.0709	-0.098040	0.611603	-0.562810	-0.564175	-0.135970	19.7114	-0.557637	-2.166096E+7	6.277216E-9	NaN
499	1.000000	0.622977	7.36994e+06	-52139.1	1005.82	-29750	0.000000	0.000000	6.622991	0.010635	NaN	0.000000	0.001596	0.001733	28.0812	0.091691	0.002005	45.7227	-163.968	-163.203	-0.047847	0.621696	-0.552800	-0.554081	0.010635	45.7227	-0.552975	-1.867030E+7	-5.696263E-10	NaN
499	1.000000	0.632989	7.36994e+06	-52139.1	1005.82	-29750	0.000000	0.000000	6.633002	-0.012204	NaN	0.000000	0.001583	0.001731	28.081	0.092242	0.001980	46.5845	-78.5835	14.8964	0.046760	0.631609	-0.542788	-0.544169	-0.012204	46.5845	-0.542592	-1.340598E+7	9.103293E-10	NaN
499	1.000000	0.642981	7.36994e+06	-52139.1	1005.82	-29750	0.000000	0.000000	6.642997	0.039897	NaN	0.000000	0.001585	0.001810	28.0809	0.097799	0.002011	48.6336	-97.5503	-161.827	-0.071165	0.641726	-0.532796	-0.534052	0.039897	48.6336	-0.533412	-9.9987e+06	-3.990199E-9	NaN
499	1.000000	0.652987	7.36994e+06	-52139.1	1005.82	-29750	0.000000	0.000000	6.653001	-0.003925	NaN	0.000000	0.001539	0.001814	28.0809	0.127720	0.001999	63.8825	163.695	16.4983	-0.006298	0.651629	-0.522790	-0.524149	-0.003925	63.8825	-0.522744	-7.10816e+06	5.522513E-10	NaN
499	1.000000	0.662985	7.36994e+06	-52139.1	1005.82	-29750	0.000000	0.000000	6.662996	-0.056524	NaN	0.000000	0.001599	0.001757	28.0811	0.054524	0.002068	26.3679	116.204	-163.473	-0.060028	0.661672	-0.512793	-0.514106	-0.056524	26.3679	-0.511186	-4.90826e+06	1.151603E-8	NaN
499	1.000000	0.673012	7.36994e+06	-52139.1	1005.82	-29750	0.000000	0.000000	6.673025	-0.007892	NaN	0.000000	0.001589	0.001769	28.0808	0.036748	0.001953	18.8182	-144.036	14.9634	0.054403	0.671623	-0.502766	-0.504155	-0.007892	18.8182	-0.502452	-3.70863e+06	2.127976E-9	NaN
499	1.000000	0.683012	7.36994e+06	-52139.1	1005.82	-29750	0.000000	0.000000	6.683024	-0.021130	NaN	0.000000	0.001600	0.001771	28.081	0.033818	0.001871	18.0795	-87.1754	-166.627	-0.055335	0.681630	-0.492766	-0.494147	-0.021130	18.0795	-0.491890	-2.64116e+06	8.000428E-9	NaN
499	1.000000	0.693018	7.36994e+06	-52139.1	1005.82	-29750	0.000000	0.000000	6.693029	-0.074598	NaN	0.000000	0.001515	0.001761	28.0813	0.077961	0.001973	39.5141	40.6067	16.4502	-0.048884	0.691581	-0.482760	-0.484197	-0.074598	39.5141	-0.481344	-1.88077e+06	3.966385E-8	NaN
499	1.000000	0.703018	7.36994e+06	-52139.1	1005.82	-29750	0.000000	0.000000	6.703033	0.031355	NaN	0.000000	0.001539	0.001793	28.081	0.064903	0.002069	31.3683	-152.545	-162.599	-0.015804	0.701697	-0.472760	-0.474081	0.031355	31.3683	-0.473510	-1.46088e+06	-2.146331E-8	NaN
499	1.000000	0.713014	7.36994e+06	-52139.1	1005.82	-29750	0.000000	0.000000	6.713028	0.014793	NaN	0.000000	0.001594	0.001773	28.0818	0.031051	0.001933	16.0622	112.348	14.5887	0.030384	0.711655	-0.462764	-0.464123	0.014793	16.0622	-0.463455	-1.05573e+06	-1.401244E-8	NaN
499	1.000000	0.723003	7.36994e+06	-52139.1	1005.82	-29750	0.000000	0.000000	6.723013	-0.072609	NaN	0.000000	0.001546	0.001732	28.0824	0.069904	0.002098	33.3201	25.8943	-163.16	-0.019877	0.721682	-0.452775	-0.454096	-0.072609	33.3201	-0.451141	-708603	1.024675E-7	NaN
499	1.000000	0.733008	7.36994e+06	-52139.1	1005.82	-29750	0.000000	0.000000	6.733020	-0.039618	NaN	0.000000	0.001595	0.001730	28.0821	0.116985	0.002017	57.9917	-120.399	18.2713	-0.034504	0.731647	-0.442770	-0.444131	-0.039618	57.9917	-0.442258	-531155	7.458897E-8	NaN
499	1.000000	0.743039	7.36994e+06	-52139.1	1005.82	-29750	0.000000	0.000000	6.743055	0.061877	NaN	0.000000	0.001576	0.001728	28.0821	0.038013	0.001969	19.3085	164.629	-161.174	-0.007436	0.741734	-0.432739	-0.434043	0.061877	19.3085	-0.435142	-421469	-1.468135E-7	NaN
499	1.000000	0.753017	7.36994e+06	-52139.1	1005.82	-29750	0.000000	0.000000	6.753030	6.131730E-5	NaN	0.000000	0.001572	0.001724	28.0821	0.077464	0.002010	38.5419	26.2257	17.3621	-0.030823	0.751639	-0.422761	-0.424139	6.131730E-5	38.5419	-0.422762	-281562	-2.177751E-10	NaN
499	1.000000	0.763029	7.36994e+06	-52139.1	1005.82	-29750	0.000000	0.000000	6.763041	-0.040749	NaN	0.000000	0.001578	0.001731	28.0823	0.086557	0.002028	42.6863	115.433	-163.462	-0.063039	0.761732	-0.412748	-0.414045	-0.040749	42.6863	-0.412032	-198288	2.055026E-7	NaN
499	1.000000	0.773030	7.36994e+06	-52139.1	1005.82	-29750	0.000000	0.000000	6.773043	-0.009216	NaN	0.000000	0.001573	0.001724	28.0822	0.030429	0.002057	14.7906	-165.13	15.1984	0.008099	0.771661	-0.402748	-0.404116	-0.009216	14.7906	-0.402281	-144049	6.398147E-8	NaN
499	1.000000	0.783028	7.36994e+06	-52139.1	1005.82	-29750	0.000000	0.000000	6.783039	-0.058434	NaN	0.000000	0.001581	0.001721	28.0822	0.077625	0.001999	38.8314	-71.0808	-166.757	-0.040655	0.781786	-0.392750	-0.393991	-0.058434	38.8314	-0.391621	-101473	5.758571E-7	NaN
499	1.000000	0.793042	7.36994e+06	-52139.1	1005.82	-29750	0.000000	0.000000	6.793053	-0.066190	NaN	0.000000	0.001588	0.001773	28.0821	0.057025	0.001934	29.4795	-34.872	15.7809	0.014309	0.791675	-0.382736	-0.384103	-0.066190	29.4795	-0.381052	-71610.9	9.243058E-7	NaN
499	1.000000	0.803047	7.36994e+06	-52139.1	1005.82	-29750	0.000000	0.000000	6.803060	-0.015257	NaN	0.000000	0.001567	0.001800	28.0823	0.081007	0.002004	40.4272	53.3745	-163.982	-0.090977	0.801773	-0.372731	-0.374005	-0.015257	40.4272	-0.372448	-53872.5	2.832148E-7	NaN
499	1.000000	0.813055	7.36994e+06	-52139.1	1005.82	-29750	0.000000	0.000000	6.813067	-0.047951	NaN	0.000000	0.001575	0.001745	28.0822	0.013095	0.002109	6.209268	-71.1816	17.888	-0.040810	0.811690	-0.362722	-0.364088	-0.047951	6.209268	-0.356931	-32169.8	1.490560E-6	NaN
499	1.000000	0.823048	7.36994e+06	-52139.1	1005.82	-29750	0.000000	0.000000	6.823062	0.002006	NaN	0.000000	0.001596	0.001770	28.0825	0.054205	0.001887	28.7216	31.9306	-164.359	-0.022794	0.821763	-0.352730	-0.354015	0.002006	28.7216	-0.352782	-28012.7	-7.161858E-8	NaN
499	1.000000	0.833055	7.36994e+06	-52139.1	1005.82	-29750	0.000000	0.000000	6.833068	-0.007919	NaN	0.000000	0.001572	0.001796	28.0822	0.103278	0.001985	52.0388	-80.3359	14.0418	-0.042251	0.831736	-0.342723	-0.344042	-0.007919	52.0388	-0.342609	-19932.3	3.972882E-7	NaN
499	1.000000	0.843065	7.36994e+06	-52139.1	1005.82	-29750	0.000000	0.000000	6.843080	0.027741	NaN	0.000000	0.001584	0.001758	28.0822	0.069091	0.002079	33.2366	-20.46	-163.043	0.014514	0.841774	-0.332713	-0.334004	0.027741	33.2366	-0.333339	-14598.4	-1.900280E-6	NaN
499	1.000000	0.853035	7.36994e+06	-52139.1	1005.82	-29750	0.000000	0.000000	6.853050	0.023442	NaN	0.000000	0.001585	0.001771	28.081	0.073288	0.002091	35.0535	168.921	15.3024	0.054454	0.851702	-0.322743	-0.324076	0.023442	35.0535	-0.323244	-10383.6	-2.257592E-6	NaN
499	1.000000	0.863096	7.36994e+06	-52139.1	1005.82	-29750	0.000000	0.000000	6.863111	0.048642	NaN	0.000000	0.001566	0.001776	28.0811	0.074522	0.001972	37.7919	29.4763	-165.292	0.066581	0.861781	-0.312682	-0.313997	0.048642	37.7919	-0.313647	-7498.55	-6.486848E-6	NaN
499	1.000000	0.873082	7.36994e+06	-52139.1	1005.82	-29750	0.000000	0.000000	6.873094	-0.040863	NaN	0.000000	0.001562	0.001769	28.0812	0.021294	0.002054	10.3688	-171.782	16.1418	-0.033599	0.871706	-0.302696	-0.304072	-0.040863	10.3688	-0.299740	-4664.1	8.761167E-6	NaN
499	1.000000	0.883092	7.36994e+06	-52139.1	1005.82	-29750	0.000000	0.000000	6.883106	-0.006649	NaN	0.000000	0.001519	0.001791	28.0811	0.101584	0.001849	54.9296	-29.6083	-162.486	-0.113667	0.881761	-0.292685	-0.294017	-0.006649	54.9296	-0.292595	-3648.71	1.822316E-6	NaN
499	1.000000	0.893101	7.36994e+06	-52139.1	1005.82	-29750	0.000000	0.000000	6.893112	-0.054353	NaN	0.000000	0.001516	0.001791	28.0811	0.047839	0.001972	24.2584	142.193	15.643	-0.055695	0.891729	-0.282677	-0.284049	-0.054353	24.2584	-0.280997	-2443.43	2.224443E-5	NaN
499	1.000000	0.903093	7.36994e+06	-52139.1	1005.82	-29750	0.000000	0.000000	6.903108	0.028748	NaN	0.000000	0.001551	0.001830	28.0811	0.111012	0.002105	52.7301	-26.8566	-164.355	0.071006	0.901771	-0.272684	-0.274007	0.028748	52.7301	-0.273093	-1855.7	-1.549185E-5	NaN
499	1.000000	0.913107	7.36994e+06	-52139.1	1005.82	-29750	0.000000	0.000000	6.913122	0.039557	NaN	0.000000	0.001554	0.001847	28.0812	0.049610	0.002065	24.0184	-126.282	15.7415	0.066469	0.911660	-0.262671	-0.264118	0.039557	24.0184	-0.263906	-1344.9	-2.941245E-5	NaN
499	1.000000	0.923116	7.36994e+06	-52139.1	1005.82	-29750	0.000000	0.000000	6.923129	-0.006154	NaN	0.000000	0.001570	0.001819	28.0815	0.147497	0.001921	76.7854	26.1937	-167.429	0.006522	0.921763	-0.252662	-0.254015	-0.006154	76.7854	-0.252602	-901.904	6.822861E-6	NaN
499	1.000000	0.933127	7.36994e+06	-52139.1	1005.82	-29750	0.000000	0.000000	6.933137	-0.084032	NaN	0.000000	0.001571	0.001858	28.0812	0.047955	0.002030	23.6287	-115.177	12.9415	-0.037590	0.931801	-0.242651	-0.243977	-0.084032	23.6287	-0.239983	-574.505	0.000146	NaN
499	1.000000	0.943094	7.36994e+06	-52139.1	1005.82	-29750	0.000000	0.000000	6.943108	0.003644	NaN	0.000000	0.001552	0.001853	28.0812	0.042646	0.001980	21.5365	161.767	-168.555	-0.029957	0.941806	-0.232683	-0.233972	0.003644	21.5365	-0.232810	-443.428	-8.217309E-6	NaN
499	1.000000	0.953127	7.36994e+06	-52139.1	1005.82	-29750	0.000000	0.000000	6.953140	-0.013427	NaN	0.000000	0.001555	0.001859	28.0811	0.075468	0.001969	38.3332	177.491	13.6511	0.005943	0.951714	-0.222651	-0.224064	-0.013427	38.3332	-0.222388	-303.239	4.427745E-5	NaN
499	1.000000	0.963103	7.36994e+06	-52139.1	1005.82	-29750	0.000000	0.000000	6.963112	-0.102509	NaN	0.000000	0.001572	0.001794	28.0812	0.109400	0.002086	52.4419	-179.272	-164.741	-0.033822	0.961768	-0.212675	-0.214010	-0.102509	52.4419	-0.211209	-200.623	0.000511	NaN
499	1.000000	0.973148	7.36994e+06	-52139.1	1005.82	-29750	0.000000	0.000000	6.973162	0.003078	NaN	0.000000	0.001578	0.001810	28.0811	0.029150	0.001894	15.3891	89.52	13.6449	-0.030823	0.971728	-0.202630	-0.204050	0.003078	15.3891	-0.202780	-146.314	-2.103364E-5	NaN
499	1.000000	0.983121	7.36994e+06	-52139.1	1005.82	-29750	0.000000	0.000000	6.983133	-0.035211	NaN	0.000000	0.001561	0.001778	28.081	0.053676	0.001965	27.3186	-153.719	-164.568	0.001429	0.981833	-0.192657	-0.193945	-0.035211	27.3186	-0.191690	-95.9886	0.000367	NaN
499	1.000000	0.993125	7.36994e+06	-52139.1	1005.82	-29750	0.000000	0.000000	6.993137	-0.029915	NaN	0.000000	0.001569	0.001749	28.0822	0.016574	0.002038	8.133480	108.309	14.1664	-0.032520	0.991726	-0.182653	-0.184052	-0.029915	8.133480	-0.179894	-60.7676	0.000492	NaN
499	1.000000	1.003133	7.36994e+06	-52139.1	1005.82	-29750	0.000000	0.000000	7.003147	0.004355	NaN	0.000000	0.001563	0.001728	28.0823	0.085543	0.001944	44.0033	69.4263	-164.494	-0.041279	1.001835	-0.172644	-0.173943	0.004355	44.0033	-0.172719	-45.781	-9.512073E-5	NaN
499	1.000000	1.013109	7.36994e+06	-52139.1	1005.82	-29750	0.000000	0.000000	7.013121	-0.022876	NaN	0.000000	0.001583	0.001740	28.0822	0.092619	0.002059	44.9822	-130.185	13.635	-0.104001	1.011792	-0.162669	-0.163986	-0.022876	44.9822	-0.162288	-30.0974	0.000760	NaN
499	1.000000	1.023151	7.36994e+06	-52139.1	1005.82	-29750	0.000000	0.000000	7.023165	-0.002172	NaN	0.000000	0.001537	0.001755	28.0825	0.062483	0.002040	30.6334	106.912	-164.421	-0.108913	1.021900	-0.152626	-0.153878	-0.002172	30.6334	-0.152573	-20.173	0.000108	NaN
499	1.000000	1.033141	7.36994e+06	-52139.1	1005.82	-29750	0.000000	0.000000	7.033151	-0.090453	NaN	0.000000	0.001569	0.001758	28.0822	0.063647	0.002085	30.5198	-129.206	15.2224	-0.089941	1.031786	-0.142637	-0.143992	-0.090453	30.5198	-0.140414	-12.0431	0.007511	NaN
499	1.000000	1.043136	7.36994e+06	-52139.1	1005.82	-29750	0.000000	0.000000	7.043151	0.040402	NaN	0.000000	0.001554	0.001730	28.0818	0.019324	0.001971	9.806338	-96.5966	-161.789	0.050641	1.041909	-0.132642	-0.133869	0.040402	9.806338	-0.135732	-9.822965	-0.004113	NaN
499	1.000000	1.053168	7.36994e+06	-52139.1	1005.82	-29750	0.000000	0.000000	7.053183	0.019415	NaN	0.000000	0.001535	0.001739	28.0825	0.087533	0.002079	42.1096	-36.5263	14.2116	-0.011655	1.051822	-0.122610	-0.123956	0.019415	42.1096	-0.122955	-5.538287	-0.003506	NaN
499	1.000000	1.063159	7.36994e+06	-52139.1	1005.82	-29750	0.000000	0.000000	7.063171	-0.022597	NaN	0.000000	0.001570	0.001738	28.0821	0.060571	0.002093	28.9406	-105.414	-164.35	-0.057359	1.061886	-0.112619	-0.113891	-0.022597	28.9406	-0.112033	-3.315486	0.006815	NaN
499	1.000000	1.073181	7.36994e+06	-52139.1	1005.82	-29750	0.000000	0.000000	7.073195	-0.003980	NaN	0.000000	0.001521	0.001745	28.0821	0.059145	0.001962	30.1441	143.382	13.139	-0.087510	1.071766	-0.102596	-0.104012	-0.003980	30.1441	-0.102497	-2.073803	0.001919	NaN
499	1.000000	1.083171	7.36994e+06	-52139.1	1005.82	-29750	0.000000	0.000000	7.083183	-0.034614	NaN	0.000000	0.001574	0.001750	28.0823	0.079308	0.002096	37.8397	65.3929	-164.837	-0.042722	1.081891	-0.092607	-0.093887	-0.034614	37.8397	-0.091921	-1.198472	0.028882	NaN
499	1.000000	1.093150	7.36994e+06	-52139.1	1005.82	-29750	0.000000	0.000000	7.093162	-0.015105	NaN	0.000000	0.001550	0.001708	28.0822	0.032958	0.002060	16.0005	-70.664	14.0496	-0.006372	1.091829	-0.082628	-0.083949	-0.015105	16.0005	-0.081920	-0.690872	0.021864	NaN
499	1.000000	1.103175	7.36994e+06	-52139.1	1005.82	-29750	0.000000	0.000000	7.103187	-0.033153	NaN	0.000000	0.001543	0.001764	28.0822	0.096188	0.002025	47.5071	112.802	-167.479	-0.042817	1.101842	-0.072603	-0.073935	-0.033153	47.5071	-0.072079	-0.387425	0.085572	NaN
499	1.000000	1.113157	7.36994e+06	-52139.1	1005.82	-29750	0.000000	0.000000	7.113170	-0.011827	NaN	0.000000	0.001543	0.001752	28.0823	0.086795	0.002091	41.499	162.43	18.3794	-0.010568	1.111787	-0.062621	-0.063991	-0.011827	41.499	-0.062407	-0.210866	0.056085	NaN
499	1.000000	1.123191	7.36994e+06	-52139.1	1005.82	-29750	0.000000	0.000000	7.123204	0.001147	NaN	0.000000	0.001539	0.001767	28.0813	0.074307	0.002060	36.0781	-21.4961	-160.882	0.035316	1.121875	-0.052587	-0.053902	0.001147	36.0781	-0.052611	-0.109344	-0.010488	NaN
499	1.000000	1.133163	7.36994e+06	-52139.1	1005.82	-29750	0.000000	0.000000	7.133177	0.019171	NaN	0.000000	0.001544	0.001721	28.0809	0.069465	0.002043	34.0055	-147.095	14.3226	0.090054	1.131807	-0.042615	-0.043971	0.019171	34.0055	-0.043038	-0.055973	-0.342509	NaN
499	1.000000	1.143201	7.36994e+06	-52139.1	1005.82	-29750	0.000000	0.000000	7.143215	0.008146	NaN	0.000000	0.001560	0.001750	28.081	0.041290	0.002113	19.5434	142.399	-163.413	0.059990	1.141936	-0.032577	-0.033842	0.008146	19.5434	-0.032889	-0.027793	-0.293100	NaN
499	1.000000	1.153167	7.36994e+06	-52139.1	1005.82	-29750	0.000000	0.000000	7.153179	-0.027190	NaN	0.000000	0.001551	0.001756	28.0809	0.162485	0.001893	85.8371	157.647	14.3424	0.025368	1.151872	-0.022611	-0.023906	-0.027190	85.8371	-0.022373	-0.014434	1.883789	NaN
499	1.000000	1.163185	7.36994e+06	-52139.1	1005.82	-29750	0.000000	0.000000	7.163199	0.010862	NaN	0.000000	0.001545	0.001742	28.0812	0.061737	0.002086	29.598	-146.551	-163.184	0.076640	1.161895	-0.012593	-0.013882	0.010862	29.598	-0.012868	-0.008027	-1.353210	NaN
499	1.000000	1.173192	7.36994e+06	-52139.1	1005.82	-29750	0.000000	0.000000	7.173207	0.032343	NaN	0.000000	0.001495	0.001706	28.0809	0.011412	0.002052	5.561592	-17.1864	13.6396	6.024546E-5	1.171842	-0.002586	-0.003935	0.032343	5.561592	-0.006948	-0.004609	-7.017231	NaN
499	1.000000	1.183175	7.36994e+06	-52139.1	1005.82	-29750	0.000000	0.000000	7.183476	6.981439	NaN	0.000000	0.001565	0.001741	28.0812	7.831687	0.001764	4438.51	16.8443	-175.97	6.023089	1.181904	0.007397	0.006126	6.981439	4438.51	0.006218	0.005272	1324.18	55848.5
499	2.000000	1.187270	7.36994e+06	-52139.1	1005.82	-29750	0.000000	0.000000	7.187696	10.027	NaN	0.000000	0.001539	0.001725	28.0811	10.9173	0.001736	6287	10.6794	7.272054	10.5654	1.186917	0.011492	0.011139	10.027	6287	0.010296	0.009512	1054.16	58895.8
499	2.000000	1.189683	7.36994e+06	-52139.1	1005.82	-29750	0.000000	0.000000	7.190343	15.7033	NaN	0.000000	0.001522	0.001733	28.0814	14.1432	0.001700	8321.31	4.683408	-172.319	14.8614	1.189293	0.013906	0.013515	15.7033	8321.31	0.012490	0.012083	1299.65	69164.5
499	2.000000	1.192189	7.36994e+06	-52139.1	1005.82	-29750	0.000000	0.000000	7.193063	20.9337	NaN	0.000000	0.001554	0.001728	28.0811	17.0346	0.001599	10650.6	7.051242	3.019398	19.8551	1.191847	0.016411	0.016069	20.9337	10650.6	0.014937	0.015201	1377.09	78923.7
499	2.000000	1.194679	7.36994e+06	-52139.1	1005.82	-29750	0.000000	0.000000	7.195697	24.4227	NaN	0.000000	0.001544	0.001763	28.0814	19.6873	0.001805	10906	7.730580	-176.661	24.3809	1.194401	0.018902	0.018623	24.4227	10906	0.017222	0.018364	1329.94	73529.1
499	2.000000	1.197095	7.36994e+06	-52139.1	1005.82	-29750	0.000000	0.000000	7.198377	30.8547	NaN	0.000000	0.001555	0.001733	28.0813	22.1337	0.001682	13157	6.915802	0.611728	28.4459	1.196803	0.021317	0.021025	30.8547	13157	0.019558	0.021853	1411.93	81316.4
499	2.000000	1.199701	7.36994e+06	-52139.1	1005.82	-29750	0.000000	0.000000	7.201180	35.6384	NaN	0.000000	0.001562	0.001729	28.0813	25.5572	0.001832	13947.2	3.064939	-175.334	36.1423	1.199385	0.023923	0.023607	35.6384	13947.2	0.022007	0.025794	1381.63	79341
499	2.000000	1.202141	7.36994e+06	-52139.1	1005.82	-29750	0.000000	0.000000	7.204009	45.0766	NaN	0.000000	0.001577	0.001681	28.081	27.3066	0.001801	15165.9	2.274008	5.732473	42.8122	1.201853	0.026364	0.026075	45.0766	15165.9	0.024134	0.029460	1530.1	80728.1
499	2.000000	1.204673	7.36994e+06	-52139.1	1005.82	-29750	0.000000	0.000000	7.206664	48.0787	NaN	0.000000	0.001572	0.001734	28.0828	30.5239	0.001691	18055.3	5.771261	179.321	49.8676	1.204418	0.028895	0.028640	48.0787	18055.3	0.026898	0.034560	1391.17	88734.2
499	2.000000	1.207099	7.36994e+06	-52139.1	1005.82	-29750	0.000000	0.000000	7.209483	57.6429	NaN	0.000000	0.001574	0.001742	28.0825	33.7693	0.001777	19005.5	4.546506	-0.151084	54.885	1.206781	0.031321	0.031003	57.6429	19005.5	0.029047	0.038791	1486	88163.3
499	2.000000	1.209615	7.36994e+06	-52139.1	1005.82	-29750	0.000000	0.000000	7.212336	65.8344	NaN	0.000000	0.001532	0.001780	28.0825	36.6515	0.001794	20435.3	3.385532	179.871	64.2913	1.209372	0.033837	0.033594	65.8344	20435.3	0.031421	0.043741	1505.11	89271.4
499	2.000000	1.212161	7.36994e+06	-52139.1	1005.82	-29750	0.000000	0.000000	7.215243	74.6062	NaN	0.000000	0.001545	0.001767	28.0822	39.2116	0.001825	21484.7	5.616748	-1.479583	74.0481	1.211791	0.036383	0.036014	74.6062	21484.7	0.033779	0.048941	1524.42	88729.4
499	2.000000	1.214565	7.36994e+06	-52139.1	1005.82	-29750	0.000000	0.000000	7.218057	84.5829	NaN	0.000000	0.001546	0.001777	28.0823	40.1947	0.001761	22830.3	1.389165	-177.914	81.8459	1.214277	0.038787	0.038500	84.5829	22830.3	0.036008	0.054120	1562.89	89661.8
499	2.000000	1.217094	7.36994e+06	-52139.1	1005.82	-29750	0.000000	0.000000	7.220972	93.9571	NaN	0.000000	0.001551	0.001804	28.0825	44.1183	0.001875	23534.1	7.681553	-3.965290	91.7975	1.216710	0.041316	0.040932	93.9571	23534.1	0.038322	0.059763	1572.15	87953.6
499	2.000000	1.219675	7.36994e+06	-52139.1	1005.82	-29750	0.000000	0.000000	7.223957	103.793	NaN	0.000000	0.001571	0.001779	28.0824	46.3709	0.001899	24418	7.494745	176.447	104.967	1.219229	0.043897	0.043452	103.793	24418	0.040709	0.065874	1575.63	86921.5
499	2.000000	1.222118	7.36994e+06	-52139.1	1005.82	-29750	0.000000	0.000000	7.227029	119.088	NaN	0.000000	0.001560	0.001771	28.0821	47.3044	0.001780	26582.4	6.164886	-3.668588	116.223	1.221727	0.046340	0.045950	119.088	26582.4	0.042980	0.071956	1655.01	90538.3
499	2.000000	1.224635	7.36994e+06	-52139.1	1005.82	-29750	0.000000	0.000000	7.229893	127.514	NaN	0.000000	0.001569	0.001773	28.0824	49.6134	0.001786	27779.3	8.061300	173.447	127.684	1.224250	0.048857	0.048472	127.514	27779.3	0.045414	0.078768	1618.86	90431.7
499	2.000000	1.227144	7.36994e+06	-52139.1	1005.82	-29750	0.000000	0.000000	7.232835	138.035	NaN	0.000000	0.001574	0.001768	28.0825	52.8634	0.001691	31258	4.765339	-3.711973	137.561	1.226736	0.051367	0.050959	138.035	31258	0.048055	0.086495	1595.86	97104.2
499	2.000000	1.229682	7.36994e+06	-52139.1	1005.82	-29750	0.000000	0.000000	7.235748	147.172	NaN	0.000000	0.001514	0.001738	28.0824	56.7234	0.001784	31794.8	4.995532	175.283	150.567	1.229333	0.053904	0.053555	147.172	31794.8	0.050433	0.093755	1569.75	94870.8
499	2.000000	1.232027	7.36994e+06	-52139.1	1005.82	-29750	0.000000	0.000000	7.238469	156.314	NaN	0.000000	0.001571	0.001763	28.0822	57.3977	0.001663	34515.4	1.552462	-2.534247	149.781	1.231786	0.056249	0.056008	156.314	34515.4	0.052853	0.101434	1541.04	99013.6
499	2.000000	1.234572	7.36994e+06	-52139.1	1005.82	-29750	0.000000	0.000000	7.241918	178.286	NaN	0.000000	0.001552	0.001774	28.0826	59.7868	0.001825	32755.1	4.847579	175.507	175.9	1.234205	0.058794	0.058428	178.286	32755.1	0.054712	0.107532	1657.98	91260.5
499	2.000000	1.237055	7.36994e+06	-52139.1	1005.82	-29750	0.000000	0.000000	7.244818	188.431	NaN	0.000000	0.001529	0.001756	28.0823	63.2863	0.001866	33916.5	3.601366	-4.248828	185.212	1.236799	0.061277	0.061021	188.431	33916.5	0.057110	0.115651	1629.31	91119
499	2.000000	1.239593	7.36994e+06	-52139.1	1005.82	-29750	0.000000	0.000000	7.247961	203.128	NaN	0.000000	0.001513	0.001738	28.0812	65.7185	0.001794	36624.7	2.687327	176.365	201.318	1.239370	0.063815	0.063592	203.128	36624.7	0.059656	0.124576	1630.55	94804.6
499	2.000000	1.242154	7.36994e+06	-52139.1	1005.82	-29750	0.000000	0.000000	7.251244	220.707	NaN	0.000000	0.001532	0.001764	28.0809	67.7775	0.001850	36630.9	5.807167	-5.600834	219.672	1.241681	0.066376	0.065903	220.707	36630.9	0.061857	0.132551	1665.08	91924.2
499	2.000000	1.244578	7.36994e+06	-52139.1	1005.82	-29750	0.000000	0.000000	7.254208	233.826	NaN	0.000000	0.001506	0.001798	28.0814	70.4233	0.001776	39659.1	6.043173	172.68	234.631	1.244295	0.068800	0.068517	233.826	39659.1	0.064378	0.141973	1646.98	96164.3
499	2.000000	1.247062	7.36994e+06	-52139.1	1005.82	-29750	0.000000	0.000000	7.257284	248.235	NaN	0.000000	0.001566	0.001763	28.0809	73.2246	0.001819	40258.1	7.446681	-8.588460	244.199	1.246737	0.071284	0.070960	248.235	40258.1	0.066659	0.150765	1646.51	94727.7
499	2.000000	1.249554	7.36994e+06	-52139.1	1005.82	-29750	0.000000	0.000000	7.260371	262.686	NaN	0.000000	0.001543	0.001758	28.0811	74.3946	0.001763	42209.1	4.230332	174.187	260.389	1.249243	0.073776	0.073465	262.686	42209.1	0.069109	0.160481	1636.87	96265
499	2.000000	1.252050	7.36994e+06	-52139.1	1005.82	-29750	0.000000	0.000000	7.263543	279.122	NaN	0.000000	0.001536	0.001782	28.0809	76.5038	0.001621	47207.8	5.147364	-8.084332	274.222	1.251704	0.076273	0.075926	279.122	47207.8	0.071838	0.171645	1626.16	104105
499	2.000000	1.254551	7.36994e+06	-52139.1	1005.82	-29750	0.000000	0.000000	7.266696	294.984	NaN	0.000000	0.001556	0.001780	28.0811	79.3826	0.001845	43030.5	7.803686	170.868	292.948	1.254179	0.078773	0.078402	294.984	43030.5	0.073631	0.179173	1646.36	92878
499	2.000000	1.256994	7.36994e+06	-52139.1	1005.82	-29750	0.000000	0.000000	7.269720	309.1	NaN	0.000000	0.001545	0.001799	28.0809	83.0309	0.001816	45721	9.521568	-12.2714	303.903	1.256761	0.081217	0.080984	309.1	45721	0.076146	0.189984	1626.98	95836.4
499	2.000000	1.259453	7.36994e+06	-52139.1	1005.82	-29750	0.000000	0.000000	7.272909	326.862	NaN	0.000000	0.001508	0.001784	28.0811	83.1609	0.001800	46194.5	0.388424	177.246	319.008	1.259203	0.083675	0.083426	326.862	46194.5	0.078368	0.199783	1636.08	94424.4
499	2.000000	1.262078	7.36994e+06	-52139.1	1005.82	-29750	0.000000	0.000000	7.276272	344.79	NaN	0.000000	0.001561	0.001727	28.081	85.7406	0.001759	48745	6.260023	-8.372172	341.665	1.261636	0.086300	0.085858	344.79	48745	0.080995	0.211669	1628.92	96800
499	2.000000	1.264569	7.36994e+06	-52139.1	1005.82	-29750	0.000000	0.000000	7.279287	357.542	NaN	0.000000	0.001540	0.001730	28.0812	88.0106	0.001850	47562.5	3.579271	174.088	357.993	1.264207	0.088791	0.088429	357.542	47562.5	0.083153	0.221670	1612.95	92296.3
499	2.000000	1.267014	7.36994e+06	-52139.1	1005.82	-29750	0.000000	0.000000	7.282421	374.285	NaN	0.000000	0.001578	0.001708	28.0809	91.1928	0.001772	51472.6	4.787551	-7.746392	369.065	1.266691	0.091236	0.090913	374.285	51472.6	0.085783	0.234150	1598.48	97185.6
499	2.000000	1.269553	7.36994e+06	-52139.1	1005.82	-29750	0.000000	0.000000	7.285662	391.344	NaN	0.000000	0.001541	0.001776	28.0813	94.937	0.001806	52560.3	3.680084	173.53	389.601	1.269248	0.093776	0.093470	391.344	52560.3	0.088191	0.245860	1591.73	96847.2
499	2.000000	1.271995	7.36994e+06	-52139.1	1005.82	-29750	0.000000	0.000000	7.289045	414.239	NaN	0.000000	0.001530	0.001771	28.0823	96.0906	0.001901	50547.9	4.113820	-5.698129	408.992	1.271660	0.096217	0.095882	414.239	50547.9	0.090071	0.255185	1623.29	91421.5
499	2.000000	1.274407	7.36994e+06	-52139.1	1005.82	-29750	0.000000	0.000000	7.292198	432.245	NaN	0.000000	0.001504	0.001728	28.0824	97.6661	0.001601	60993.6	3.523755	172.562	422.377	1.274100	0.098630	0.098322	432.245	60993.6	0.093315	0.271655	1591.15	106917
499	2.000000	1.276938	7.36994e+06	-52139.1	1005.82	-29750	0.000000	0.000000	7.295627	454.09	NaN	0.000000	0.001562	0.001734	28.0823	100.999	0.001845	54743.3	3.816899	-6.496402	443.395	1.276511	0.101160	0.100733	454.09	54743.3	0.094939	0.280086	1621.25	94505.8
499	2.000000	1.279526	7.36994e+06	-52139.1	1005.82	-29750	0.000000	0.000000	7.298988	472.892	NaN	0.000000	0.001515	0.001723	28.0823	104.538	0.001833	57019.8	6.588179	169.63	472.715	1.279172	0.103748	0.103394	472.892	57019.8	0.097528	0.293769	1609.74	96116.1
499	2.000000	1.282052	7.36994e+06	-52139.1	1005.82	-29750	0.000000	0.000000	7.302410	494.683	NaN	0.000000	0.001561	0.001713	28.0823	106.024	0.001786	59371.5	8.195464	-11.7588	489.946	1.281649	0.106274	0.105871	494.683	59371.5	0.100025	0.307256	1610	97859
499	2.000000	1.283528	7.36994e+06	-52139.1	1005.82	-29750	0.000000	0.000000	7.304120	500.345	NaN	0.000000	0.001562	0.001753	28.0825	108.618	0.001873	58006.8	7.917545	167.84	500.134	1.283267	0.107751	0.107489	500.345	58006.8	0.101281	0.314149	1592.7	94555