File: remote_trans/data/nanoindenter/0828-1/data/Data_2025-08-06,11h17m57s/2025-07-22_16-23-58_1_753.txt
2025-07-22, 16:23:58, 1
Index	Phase	Displacement	Time	Pos X	Pos Y	Pos Z	Rot A	Rot B	Piezo Z	Force A	Force B	Gripper	Voltage A	Voltage B	Temperature	Amplitude force	Amplitude pos	Stiffness	Phase shift	Phase excitation	Force A raw	Displacement raw	HMax	HMax raw	Real Force	Real Stiffness	Contact Depth	Area	Hardness	Reduced Mod.
[#]	[#]	[um]	[s]	[um]	[um]	[um]	[m°]	[m°]	[um]	[uN]	[uN]	[V]	[V]	[V]	[°C]	[uN]	[um]	[N/m]	[°]	[°]	[uN]	[um]	[um]	[um]	[uN]	[N/m]	[um]	[um^2]	[MPa]	[MPa]
753	1.000000	0.002831	7.37242e+06	-39439.1	1005.82	-29793.8	0.000000	0.000000	6.002800	-0.014054	NaN	0.000000	0.001625	0.001720	28.0822	0.113458	0.000853	132.96	-53.0312	-167.638	-0.025868	0.001534	-1.092793	-1.094090	-0.014054	132.96	-1.092713	-4.001686E+14	3.512015E-17	NaN
753	1.000000	0.012904	7.37242e+06	-39439.1	1005.82	-29793.8	0.000000	0.000000	6.012869	-0.089736	NaN	0.000000	0.001638	0.001687	28.0822	0.022082	0.001322	16.7056	86.175	21.8608	-0.133840	0.011415	-1.082720	-1.084209	-0.089736	16.7056	-1.078691	-2.593818E+14	3.459623E-16	NaN
753	1.000000	0.022796	7.37242e+06	-39439.1	1005.82	-29793.8	0.000000	0.000000	6.022766	0.018876	NaN	0.000000	0.001640	0.001701	28.0823	0.056913	0.001783	31.9138	-154.945	-166.002	-0.015671	0.021493	-1.072828	-1.074131	0.018876	31.9138	-1.073272	-2.193519E+14	-8.605321E-17	NaN
753	1.000000	0.032769	7.37242e+06	-39439.1	1005.82	-29793.8	0.000000	0.000000	6.032737	-0.028122	NaN	0.000000	0.001645	0.001718	28.0823	0.030339	0.001952	15.543	-120.424	11.7145	-0.012705	0.031434	-1.062855	-1.064190	-0.028122	15.543	-1.061498	-1.523863E+14	1.845460E-16	NaN
753	1.000000	0.042784	7.37242e+06	-39439.1	1005.82	-29793.8	0.000000	0.000000	6.042754	0.001443	NaN	0.000000	0.001614	0.001714	28.0826	0.064556	0.001944	33.2161	41.4235	-165.245	0.006200	0.041486	-1.052839	-1.054138	0.001443	33.2161	-1.052872	-1.166861E+14	-1.236250E-17	NaN
753	1.000000	0.052790	7.37242e+06	-39439.1	1005.82	-29793.8	0.000000	0.000000	6.052758	-0.032094	NaN	0.000000	0.001628	0.001719	28.0821	0.063636	0.001887	33.7233	-115.26	11.7602	-0.023513	0.051379	-1.042834	-1.044244	-0.032094	33.7233	-1.042120	-8.365113E+13	3.836638E-16	NaN
753	1.000000	0.062788	7.37242e+06	-39439.1	1005.82	-29793.8	0.000000	0.000000	6.062756	-0.033467	NaN	0.000000	0.001663	0.001707	28.0822	0.099643	0.002166	46.0033	-88.0511	-165.462	-0.042167	0.061466	-1.032836	-1.034158	-0.033467	46.0033	-1.032290	-6.169945E+13	5.424201E-16	NaN
753	1.000000	0.072797	7.37242e+06	-39439.1	1005.82	-29793.8	0.000000	0.000000	6.072766	0.011513	NaN	0.000000	0.001646	0.001707	28.0824	0.053259	0.001863	28.5893	-33.5514	14.668	-0.027132	0.071455	-1.022827	-1.024169	0.011513	28.5893	-1.023129	-4.645693E+13	-2.478211E-16	NaN
753	1.000000	0.082782	7.37242e+06	-39439.1	1005.82	-29793.8	0.000000	0.000000	6.082749	-0.041681	NaN	0.000000	0.001618	0.001683	28.0824	0.105686	0.001983	53.2981	-133.919	-163.502	-0.037217	0.081480	-1.012842	-1.014144	-0.041681	53.2981	-1.012255	-3.316941E+13	1.256619E-15	NaN
753	1.000000	0.092823	7.37242e+06	-39439.1	1005.82	-29793.8	0.000000	0.000000	6.092792	-0.020900	NaN	0.000000	0.001603	0.001693	28.0821	0.028385	0.002017	14.0719	46.2754	12.877	-0.014624	0.091456	-1.002800	-1.004168	-0.020900	14.0719	-1.001686	-2.390420E+13	8.743438E-16	NaN
753	1.000000	0.102829	7.37242e+06	-39439.1	1005.82	-29793.8	0.000000	0.000000	6.102795	-0.064290	NaN	0.000000	0.001602	0.001688	28.0821	0.050985	0.001899	26.8513	-4.630814	-164.477	-0.013653	0.101501	-0.992795	-0.994123	-0.064290	26.8513	-0.990999	-1.716216E+13	3.746029E-15	NaN
753	1.000000	0.112827	7.37242e+06	-39439.1	1005.82	-29793.8	0.000000	0.000000	6.112793	-0.072588	NaN	0.000000	0.001571	0.001727	28.0823	0.078425	0.001958	40.0555	-24.6043	13.1897	-0.096817	0.111412	-0.982797	-0.984212	-0.072588	40.0555	-0.981438	-1.275789E+13	5.689671E-15	NaN
753	1.000000	0.122804	7.37242e+06	-39439.1	1005.82	-29793.8	0.000000	0.000000	6.122774	0.019652	NaN	0.000000	0.001622	0.001743	28.0821	0.074994	0.002044	36.6942	-115.566	-164.478	-0.001058	0.121490	-0.972820	-0.974133	0.019652	36.6942	-0.973221	-9.887232E+12	-1.987592E-15	NaN
753	1.000000	0.132821	7.37242e+06	-39439.1	1005.82	-29793.8	0.000000	0.000000	6.132789	-0.018776	NaN	0.000000	0.001639	0.001734	28.0821	0.050879	0.002016	25.2355	168.782	9.822566	-0.025711	0.131450	-0.962803	-0.964174	-0.018776	25.2355	-0.962245	-7.032840E+12	2.669728E-15	NaN
753	1.000000	0.142800	7.37242e+06	-39439.1	1005.82	-29793.8	0.000000	0.000000	6.142767	-0.066664	NaN	0.000000	0.001636	0.001735	28.0833	0.052813	0.001964	26.8861	84.1453	-164.903	-0.031020	0.141561	-0.952824	-0.954063	-0.066664	26.8861	-0.950964	-4.954812E+12	1.345435E-14	NaN
753	1.000000	0.152822	7.37242e+06	-39439.1	1005.82	-29793.8	0.000000	0.000000	6.152791	0.004706	NaN	0.000000	0.001615	0.001771	28.0837	0.072686	0.002027	35.8636	144.603	13.1788	-0.072314	0.151427	-0.942802	-0.944197	0.004706	35.8636	-0.942900	-3.857119E+12	-1.220183E-15	NaN
753	1.000000	0.162825	7.37242e+06	-39439.1	1005.82	-29793.8	0.000000	0.000000	6.162793	-0.035171	NaN	0.000000	0.001621	0.001774	28.0834	0.036179	0.002030	17.8246	-78.3534	-166.348	-0.031405	0.161526	-0.932799	-0.934098	-0.035171	17.8246	-0.931319	-2.691524E+12	1.306719E-14	NaN
753	1.000000	0.172833	7.37242e+06	-39439.1	1005.82	-29793.8	0.000000	0.000000	6.172800	-0.036594	NaN	0.000000	0.001590	0.001734	28.0836	0.053382	0.002121	25.1652	-126.406	9.058410	-0.046464	0.171459	-0.922791	-0.924165	-0.036594	25.1652	-0.921700	-1.996005E+12	1.833385E-14	NaN
753	1.000000	0.182841	7.37242e+06	-39439.1	1005.82	-29793.8	0.000000	0.000000	6.182806	-0.080804	NaN	0.000000	0.001599	0.001749	28.0836	0.067438	0.001975	34.1437	117.859	-168.898	-0.104296	0.181507	-0.912783	-0.914117	-0.080804	34.1437	-0.911008	-1.431465E+12	5.644861E-14	NaN
753	1.000000	0.192834	7.37242e+06	-39439.1	1005.82	-29793.8	0.000000	0.000000	6.192801	-0.043382	NaN	0.000000	0.001632	0.001734	28.0838	0.015461	0.002161	7.155027	119.298	12.4729	-0.001712	0.191481	-0.902790	-0.904143	-0.043382	7.155027	-0.898242	-9.623122E+11	4.508116E-14	NaN
753	1.000000	0.202808	7.37242e+06	-39439.1	1005.82	-29793.8	0.000000	0.000000	6.202775	-0.056486	NaN	0.000000	0.001594	0.001768	28.0835	0.011007	0.001951	5.641321	-6.018271	-165.464	-0.062383	0.201536	-0.892816	-0.894088	-0.056486	5.641321	-0.885306	-6.433657E+11	8.779724E-14	NaN
753	1.000000	0.212844	7.37242e+06	-39439.1	1005.82	-29793.8	0.000000	0.000000	6.212811	-0.055174	NaN	0.000000	0.001614	0.001746	28.0834	0.118396	0.002046	57.873	-152.097	14.6737	-0.090589	0.211475	-0.882780	-0.884149	-0.055174	57.873	-0.882065	-5.816085E+11	9.486501E-14	NaN
753	1.000000	0.222858	7.37242e+06	-39439.1	1005.82	-29793.8	0.000000	0.000000	6.222826	-0.022374	NaN	0.000000	0.001603	0.001712	28.0835	0.048529	0.002010	24.147	161.968	-166.93	-0.015033	0.221514	-0.872765	-0.874110	-0.022374	24.147	-0.872070	-4.260445E+11	5.251579E-14	NaN
753	1.000000	0.232849	7.37242e+06	-39439.1	1005.82	-29793.8	0.000000	0.000000	6.232819	0.028684	NaN	0.000000	0.001585	0.001736	28.0832	0.059810	0.002150	27.8126	4.281475	11.071	-0.075798	0.231440	-0.862775	-0.864184	0.028684	27.8126	-0.863548	-3.266960E+11	-8.779898E-14	NaN
753	1.000000	0.242868	7.37242e+06	-39439.1	1005.82	-29793.8	0.000000	0.000000	6.242833	-0.090675	NaN	0.000000	0.001610	0.001745	28.0834	0.098720	0.001914	51.5762	-160.025	-165.495	-0.045979	0.241500	-0.852756	-0.854124	-0.090675	51.5762	-0.851437	-2.239759E+11	4.048415E-13	NaN
753	1.000000	0.252891	7.37242e+06	-39439.1	1005.82	-29793.8	0.000000	0.000000	6.252859	-0.036200	NaN	0.000000	0.001588	0.001735	28.083	0.139595	0.001958	71.2843	-80.6311	10.7745	-0.063814	0.251510	-0.842733	-0.844114	-0.036200	71.2843	-0.842352	-1.687137E+11	2.145644E-13	NaN
753	1.000000	0.262856	7.37242e+06	-39439.1	1005.82	-29793.8	0.000000	0.000000	6.262824	-0.024634	NaN	0.000000	0.001603	0.001739	28.0837	0.133566	0.001955	68.3334	67.4514	-168.796	-0.008119	0.261577	-0.832768	-0.834046	-0.024634	68.3334	-0.832498	-1.240614E+11	1.985668E-13	NaN
753	1.000000	0.272881	7.37242e+06	-39439.1	1005.82	-29793.8	0.000000	0.000000	6.272850	-0.006120	NaN	0.000000	0.001607	0.001779	28.0829	0.139736	0.001930	72.4145	-97.0143	12.3976	-0.084293	0.271477	-0.822743	-0.824147	-0.006120	72.4145	-0.822680	-9.131570E+10	6.702403E-14	NaN
753	1.000000	0.282874	7.37242e+06	-39439.1	1005.82	-29793.8	0.000000	0.000000	6.282845	0.043029	NaN	0.000000	0.001584	0.001729	28.0822	0.026417	0.001998	13.2214	132.847	-166.127	0.023191	0.281542	-0.812750	-0.814082	0.043029	13.2214	-0.815191	-7.227519E+10	-5.953526E-13	NaN
753	1.000000	0.292856	7.37242e+06	-39439.1	1005.82	-29793.8	0.000000	0.000000	6.292826	0.036782	NaN	0.000000	0.001637	0.001751	28.0822	0.055598	0.002101	26.4597	-126.795	11.0633	-0.046899	0.291489	-0.802768	-0.804135	0.036782	26.4597	-0.803811	-5.065077E+10	-7.261795E-13	NaN
753	1.000000	0.302884	7.37242e+06	-39439.1	1005.82	-29793.8	0.000000	0.000000	6.302851	-0.031286	NaN	0.000000	0.001589	0.001706	28.0823	0.017484	0.002001	8.736748	75.4558	-165.85	-0.007389	0.301569	-0.792740	-0.794055	-0.031286	8.736748	-0.790054	-3.294747E+10	9.495827E-13	NaN
753	1.000000	0.312904	7.37242e+06	-39439.1	1005.82	-29793.8	0.000000	0.000000	6.312873	-0.019400	NaN	0.000000	0.001601	0.001703	28.0821	0.119538	0.002078	57.5338	13.4777	13.4154	-0.056614	0.311519	-0.782720	-0.784105	-0.019400	57.5338	-0.782467	-2.598652E+10	7.465434E-13	NaN
753	1.000000	0.322885	7.37242e+06	-39439.1	1005.82	-29793.8	0.000000	0.000000	6.322854	-0.001912	NaN	0.000000	0.001610	0.001751	28.0822	0.084932	0.001937	43.8441	35.1318	-167.49	0.004323	0.321613	-0.772739	-0.774010	-0.001912	43.8441	-0.772706	-1.914664E+10	9.987659E-14	NaN
753	1.000000	0.332920	7.37242e+06	-39439.1	1005.82	-29793.8	0.000000	0.000000	6.332886	-0.074771	NaN	0.000000	0.001644	0.001740	28.0823	0.088333	0.001970	44.8364	-64.1449	16.9991	-0.097528	0.331566	-0.762704	-0.764058	-0.074771	44.8364	-0.761453	-1.346084E+10	5.554710E-12	NaN
753	1.000000	0.342912	7.37242e+06	-39439.1	1005.82	-29793.8	0.000000	0.000000	6.342882	0.020965	NaN	0.000000	0.001644	0.001719	28.0822	0.052126	0.001914	27.23	154.551	-168.365	-0.082517	0.341643	-0.752711	-0.753981	0.020965	27.23	-0.753289	-1.042282E+10	-2.011457E-12	NaN
753	1.000000	0.352930	7.37242e+06	-39439.1	1005.82	-29793.8	0.000000	0.000000	6.352897	-0.055052	NaN	0.000000	0.001630	0.001761	28.0822	0.075901	0.002001	37.9385	143.857	13.1906	-0.028288	0.351565	-0.742694	-0.744059	-0.055052	37.9385	-0.741606	-7.226418E+9	7.618162E-12	NaN
753	1.000000	0.362903	7.37242e+06	-39439.1	1005.82	-29793.8	0.000000	0.000000	6.362871	-0.032207	NaN	0.000000	0.001630	0.001744	28.0822	0.053487	0.002133	25.0777	-122.244	-166.494	-0.008509	0.361626	-0.732721	-0.733998	-0.032207	25.0777	-0.731758	-5.305961E+9	6.069872E-12	NaN
753	1.000000	0.372931	7.37242e+06	-39439.1	1005.82	-29793.8	0.000000	0.000000	6.372901	0.026714	NaN	0.000000	0.001624	0.001702	28.0822	0.083738	0.002057	40.7085	151.355	15.31	-0.058882	0.371570	-0.722692	-0.724054	0.026714	40.7085	-0.723185	-4.054156E+9	-6.589265E-12	NaN
753	1.000000	0.382918	7.37242e+06	-39439.1	1005.82	-29793.8	0.000000	0.000000	6.382888	0.022167	NaN	0.000000	0.001616	0.001674	28.0819	0.106420	0.001965	54.1645	-113.71	-166.961	0.041661	0.381605	-0.712706	-0.714019	0.022167	54.1645	-0.713013	-2.945499E+9	-7.525776E-12	NaN
753	1.000000	0.392937	7.37242e+06	-39439.1	1005.82	-29793.8	0.000000	0.000000	6.392904	-0.054526	NaN	0.000000	0.001612	0.001729	28.082	0.054153	0.001979	27.3585	120.704	12.4274	-0.091697	0.391580	-0.702687	-0.704043	-0.054526	27.3585	-0.701192	-2.031467E+9	2.684074E-11	NaN
753	1.000000	0.402932	7.37242e+06	-39439.1	1005.82	-29793.8	0.000000	0.000000	6.402900	-0.039035	NaN	0.000000	0.001586	0.001713	28.0821	0.107277	0.002034	52.7368	-129.97	-165.711	-0.033147	0.401648	-0.692691	-0.693976	-0.039035	52.7368	-0.692136	-1.527955E+9	2.554711E-11	NaN
753	1.000000	0.412956	7.37242e+06	-39439.1	1005.82	-29793.8	0.000000	0.000000	6.412922	-0.075373	NaN	0.000000	0.001624	0.001705	28.0834	0.176311	0.002067	85.2974	22.2046	15.1442	-0.090244	0.411545	-0.682668	-0.684078	-0.075373	85.2974	-0.682005	-1.110783E+9	6.785618E-11	NaN
753	1.000000	0.422939	7.37242e+06	-39439.1	1005.82	-29793.8	0.000000	0.000000	6.422904	-0.098514	NaN	0.000000	0.001606	0.001757	28.0832	0.084630	0.002028	41.7371	-147.746	-163.781	-0.063410	0.421655	-0.672684	-0.673968	-0.098514	41.7371	-0.670914	-7.832534E+8	1.257758E-10	NaN
753	1.000000	0.432945	7.37242e+06	-39439.1	1005.82	-29793.8	0.000000	0.000000	6.432911	-0.077470	NaN	0.000000	0.001576	0.001727	28.083	0.082506	0.002081	39.6433	-10.3258	12.1045	-0.042630	0.431652	-0.662679	-0.663972	-0.077470	39.6433	-0.661213	-5.768825E+8	1.342910E-10	NaN
753	1.000000	0.442960	7.37242e+06	-39439.1	1005.82	-29793.8	0.000000	0.000000	6.442926	-0.084020	NaN	0.000000	0.001596	0.001739	28.0834	0.137670	0.001954	70.4585	-176.745	-169.77	0.001215	0.441637	-0.652664	-0.653987	-0.084020	70.4585	-0.651769	-4.282423E+8	1.961975E-10	NaN
753	1.000000	0.452941	7.37242e+06	-39439.1	1005.82	-29793.8	0.000000	0.000000	6.452909	-0.020301	NaN	0.000000	0.001605	0.001700	28.0832	0.035849	0.002028	17.6732	-20.9537	18.3124	-0.007835	0.451570	-0.642683	-0.644054	-0.020301	17.6732	-0.641822	-3.128109E+8	6.489791E-11	NaN
753	1.000000	0.462950	7.37242e+06	-39439.1	1005.82	-29793.8	0.000000	0.000000	6.462916	-0.057270	NaN	0.000000	0.001656	0.001689	28.0832	0.115009	0.001991	57.7732	-130.257	-166.223	-0.095223	0.461681	-0.632674	-0.633943	-0.057270	57.7732	-0.631931	-2.288404E+8	2.502606E-10	NaN
753	1.000000	0.472927	7.37242e+06	-39439.1	1005.82	-29793.8	0.000000	0.000000	6.472897	0.024452	NaN	0.000000	0.001642	0.001737	28.0831	0.097785	0.001936	50.4985	-111.878	16.7996	-0.008638	0.471609	-0.622697	-0.624015	0.024452	50.4985	-0.623060	-1.728592E+8	-1.414559E-10	NaN
753	1.000000	0.482942	7.37242e+06	-39439.1	1005.82	-29793.8	0.000000	0.000000	6.482908	-0.072054	NaN	0.000000	0.001632	0.001699	28.0834	0.074171	0.001941	38.2081	-63.534	-165.546	-0.011011	0.481738	-0.612682	-0.613886	-0.072054	38.2081	-0.611267	-1.190003E+8	6.054954E-10	NaN
753	1.000000	0.492990	7.37242e+06	-39439.1	1005.82	-29793.8	0.000000	0.000000	6.492958	-0.034414	NaN	0.000000	0.001619	0.001727	28.0832	0.065595	0.002009	32.6488	-60.6795	14.3867	-0.056533	0.491581	-0.602633	-0.604043	-0.034414	32.6488	-0.601843	-8.827525E+7	3.898470E-10	NaN
753	1.000000	0.502952	7.37242e+06	-39439.1	1005.82	-29793.8	0.000000	0.000000	6.502919	-0.038802	NaN	0.000000	0.001630	0.001690	28.0833	0.042932	0.002109	20.3552	-21.3936	-168.065	-0.057876	0.501598	-0.592672	-0.594026	-0.038802	20.3552	-0.591242	-6.306540E+7	6.152591E-10	NaN
753	1.000000	0.512965	7.37242e+06	-39439.1	1005.82	-29793.8	0.000000	0.000000	6.512932	-0.045011	NaN	0.000000	0.001610	0.001730	28.0833	0.044322	0.002021	21.9324	-53.8357	14.7824	-0.080429	0.511620	-0.582659	-0.584004	-0.045011	21.9324	-0.581120	-4.572781E+7	9.843352E-10	NaN
753	1.000000	0.522960	7.37242e+06	-39439.1	1005.82	-29793.8	0.000000	0.000000	6.522925	-0.110375	NaN	0.000000	0.001655	0.001680	28.0835	0.020793	0.001982	10.4901	-34.2181	-166.218	-0.009978	0.521716	-0.572663	-0.573908	-0.110375	10.4901	-0.564772	-2.718784E+7	4.059714E-9	NaN
753	1.000000	0.532966	7.37242e+06	-39439.1	1005.82	-29793.8	0.000000	0.000000	6.532936	0.019575	NaN	0.000000	0.001665	0.001727	28.0831	0.044563	0.001858	23.9782	-109.649	17.6956	0.001827	0.531567	-0.562658	-0.564057	0.019575	23.9782	-0.563270	-2.591811E+7	-7.552498E-10	NaN
753	1.000000	0.542975	7.37242e+06	-39439.1	1005.82	-29793.8	0.000000	0.000000	6.542941	-0.064562	NaN	0.000000	0.001680	0.001715	28.0833	0.068763	0.002013	34.1569	-174.28	-166.392	-0.029121	0.541657	-0.552649	-0.553967	-0.064562	34.1569	-0.551232	-1.766098E+7	3.655627E-9	NaN
753	1.000000	0.552973	7.37242e+06	-39439.1	1005.82	-29793.8	0.000000	0.000000	6.552941	-0.015972	NaN	0.000000	0.001687	0.001713	28.0821	0.123844	0.001996	62.0372	-46.347	14.0947	-0.033843	0.551609	-0.542651	-0.544014	-0.015972	62.0372	-0.542458	-1.334868E+7	1.196535E-9	NaN
753	1.000000	0.563018	7.37242e+06	-39439.1	1005.82	-29793.8	0.000000	0.000000	6.562985	-0.055744	NaN	0.000000	0.001677	0.001720	28.0823	0.050200	0.002030	24.7301	-85.1242	-165.133	-0.027260	0.561710	-0.532606	-0.533914	-0.055744	24.7301	-0.530915	-9.23172e+06	6.038296E-9	NaN
753	1.000000	0.573002	7.37242e+06	-39439.1	1005.82	-29793.8	0.000000	0.000000	6.572967	-0.096298	NaN	0.000000	0.001637	0.001711	28.0823	0.059670	0.002099	28.4299	6.971263	12.4533	0.005355	0.571601	-0.522622	-0.524023	-0.096298	28.4299	-0.520082	-6.52732e+06	1.475300E-8	NaN
753	1.000000	0.583018	7.37242e+06	-39439.1	1005.82	-29793.8	0.000000	0.000000	6.582986	-0.030307	NaN	0.000000	0.001628	0.001730	28.0823	0.095576	0.001958	48.8216	-30.243	-166.492	-0.106457	0.581727	-0.512606	-0.513896	-0.030307	48.8216	-0.512140	-5.06081e+06	5.988560E-9	NaN
753	1.000000	0.593026	7.37242e+06	-39439.1	1005.82	-29793.8	0.000000	0.000000	6.592992	-0.062096	NaN	0.000000	0.001663	0.001659	28.0823	0.025351	0.001963	12.9157	-110.864	16.9569	-0.024363	0.591641	-0.502598	-0.503983	-0.062096	12.9157	-0.498992	-3.31862e+06	1.871128E-8	NaN
753	1.000000	0.603012	7.37242e+06	-39439.1	1005.82	-29793.8	0.000000	0.000000	6.602980	-0.020114	NaN	0.000000	0.001649	0.001691	28.0821	0.077863	0.002035	38.2631	-16.879	-169.126	-0.056269	0.601715	-0.492612	-0.493908	-0.020114	38.2631	-0.492218	-2.66917e+06	7.535583E-9	NaN
753	1.000000	0.612996	7.37242e+06	-39439.1	1005.82	-29793.8	0.000000	0.000000	6.612964	-0.036566	NaN	0.000000	0.001615	0.001706	28.082	0.017448	0.001917	9.102527	68.5529	16.5366	-0.011000	0.611602	-0.482627	-0.484022	-0.036566	9.102527	-0.479615	-1.77882e+06	2.055639E-8	NaN
753	1.000000	0.623030	7.37242e+06	-39439.1	1005.82	-29793.8	0.000000	0.000000	6.622996	-0.058696	NaN	0.000000	0.001659	0.001700	28.0821	0.038258	0.002014	18.9971	100.15	-168.344	-0.051389	0.621805	-0.472594	-0.473818	-0.058696	18.9971	-0.470277	-1.31611e+06	4.459806E-8	NaN
753	1.000000	0.633025	7.37242e+06	-39439.1	1005.82	-29793.8	0.000000	0.000000	6.632996	0.047236	NaN	0.000000	0.001680	0.001714	28.0824	0.091552	0.001994	45.9229	-20.1148	13.0356	0.068732	0.631681	-0.462599	-0.463943	0.047236	45.9229	-0.463371	-1.05286e+06	-4.486499E-8	NaN
753	1.000000	0.643042	7.37242e+06	-39439.1	1005.82	-29793.8	0.000000	0.000000	6.643009	-0.056278	NaN	0.000000	0.001651	0.001656	28.0838	0.064409	0.001911	33.7046	49.2247	-165.415	-0.056725	0.641677	-0.452582	-0.453947	-0.056278	33.7046	-0.451329	-712955	7.893650E-8	NaN
753	1.000000	0.653064	7.37242e+06	-39439.1	1005.82	-29793.8	0.000000	0.000000	6.653029	-0.094703	NaN	0.000000	0.001636	0.001681	28.0851	0.084787	0.002121	39.9661	168.11	13.0816	-0.035157	0.651663	-0.442560	-0.443961	-0.094703	39.9661	-0.440782	-506296	1.870506E-7	NaN
753	1.000000	0.663026	7.37242e+06	-39439.1	1005.82	-29793.8	0.000000	0.000000	6.662992	-0.072009	NaN	0.000000	0.001640	0.001677	28.0826	0.074947	0.002012	37.243	140.941	-168.009	-0.006278	0.661741	-0.432598	-0.433882	-0.072009	37.243	-0.431148	-370084	1.945755E-7	NaN
753	1.000000	0.673045	7.37242e+06	-39439.1	1005.82	-29793.8	0.000000	0.000000	6.673015	0.043135	NaN	0.000000	0.001626	0.001713	28.0826	0.061802	0.001973	31.3257	87.6249	14.6744	0.054970	0.671683	-0.422579	-0.423941	0.043135	31.3257	-0.423612	-289480	-1.490102E-7	NaN
753	1.000000	0.683048	7.37242e+06	-39439.1	1005.82	-29793.8	0.000000	0.000000	6.683014	-0.080593	NaN	0.000000	0.001605	0.001715	28.0828	0.062482	0.001997	31.2834	-132.279	-169.94	-0.114224	0.681784	-0.412576	-0.413840	-0.080593	31.2834	-0.410644	-189476	4.253475E-7	NaN
753	1.000000	0.693071	7.37242e+06	-39439.1	1005.82	-29793.8	0.000000	0.000000	6.693038	-0.050566	NaN	0.000000	0.001603	0.001669	28.0833	0.090813	0.002020	44.9522	-10.9106	16.0535	-0.058561	0.691705	-0.402552	-0.403918	-0.050566	44.9522	-0.401709	-141370	3.576891E-7	NaN
753	1.000000	0.703038	7.37242e+06	-39439.1	1005.82	-29793.8	0.000000	0.000000	6.703004	-0.064784	NaN	0.000000	0.001625	0.001684	28.0835	0.080614	0.002009	40.1338	-57.0799	-165.197	-0.001887	0.701704	-0.392586	-0.393920	-0.064784	40.1338	-0.391375	-100656	6.436198E-7	NaN
753	1.000000	0.713071	7.37242e+06	-39439.1	1005.82	-29793.8	0.000000	0.000000	6.713036	-0.082455	NaN	0.000000	0.001648	0.001705	28.0833	0.060373	0.002074	29.1101	-16.9223	13.2486	-0.012627	0.711687	-0.382553	-0.383937	-0.082455	29.1101	-0.380429	-70152.7	1.175365E-6	NaN
753	1.000000	0.723047	7.37242e+06	-39439.1	1005.82	-29793.8	0.000000	0.000000	6.723016	0.009225	NaN	0.000000	0.001648	0.001683	28.0834	0.078771	0.002034	38.7316	74.3744	-163.521	0.005802	0.721771	-0.372577	-0.373853	0.009225	38.7316	-0.372756	-54424.2	-1.695058E-7	NaN
753	1.000000	0.733077	7.37242e+06	-39439.1	1005.82	-29793.8	0.000000	0.000000	6.733043	-0.067512	NaN	0.000000	0.001611	0.001682	28.0833	0.064563	0.001938	33.3074	-51.3279	12.8897	-0.036487	0.731725	-0.362547	-0.363898	-0.067512	33.3074	-0.361026	-36870.5	1.831066E-6	NaN
753	1.000000	0.743072	7.37242e+06	-39439.1	1005.82	-29793.8	0.000000	0.000000	6.743037	-0.088847	NaN	0.000000	0.001644	0.001686	28.0832	0.116869	0.001882	62.1132	-99.015	-165.49	-0.091738	0.741694	-0.352552	-0.353930	-0.088847	62.1132	-0.351479	-26820.2	3.312706E-6	NaN
753	1.000000	0.753082	7.37242e+06	-39439.1	1005.82	-29793.8	0.000000	0.000000	6.753046	-0.110536	NaN	0.000000	0.001596	0.001678	28.0835	0.031334	0.001990	15.747	-119.713	13.4138	-0.049346	0.751702	-0.342542	-0.343922	-0.110536	15.747	-0.337277	-16666.4	6.632302E-6	NaN
753	1.000000	0.763076	7.37242e+06	-39439.1	1005.82	-29793.8	0.000000	0.000000	6.763042	-0.072196	NaN	0.000000	0.001596	0.001678	28.0834	0.054473	0.001988	27.4013	170.443	-170.954	-0.111096	0.761747	-0.332548	-0.333877	-0.072196	27.4013	-0.330572	-13299.1	5.428677E-6	NaN
753	1.000000	0.773094	7.37242e+06	-39439.1	1005.82	-29793.8	0.000000	0.000000	6.773062	-0.030694	NaN	0.000000	0.001564	0.001658	28.0833	0.072067	0.002106	34.2141	68.2798	12.6334	-0.012856	0.771698	-0.322530	-0.323926	-0.030694	34.2141	-0.321857	-9907.31	3.098131E-6	NaN
753	1.000000	0.783094	7.37242e+06	-39439.1	1005.82	-29793.8	0.000000	0.000000	6.783062	-0.025682	NaN	0.000000	0.001611	0.001655	28.0834	0.024560	0.002002	12.2687	-3.290475	-165.407	0.058746	0.781810	-0.312529	-0.313814	-0.025682	12.2687	-0.310960	-6843.09	3.752915E-6	NaN
753	1.000000	0.793087	7.37242e+06	-39439.1	1005.82	-29793.8	0.000000	0.000000	6.793056	-0.005568	NaN	0.000000	0.001581	0.001686	28.0835	0.136282	0.001991	68.4533	151.618	14.8275	-0.023593	0.791715	-0.302536	-0.303909	-0.005568	68.4533	-0.302475	-5122.21	1.087055E-6	NaN
753	1.000000	0.803096	7.37242e+06	-39439.1	1005.82	-29793.8	0.000000	0.000000	6.803063	-0.059228	NaN	0.000000	0.001596	0.001709	28.0831	0.067633	0.002012	33.6071	162.584	-164.133	-0.079783	0.801767	-0.292528	-0.293856	-0.059228	33.6071	-0.291206	-3478.27	1.702792E-5	NaN
753	1.000000	0.813108	7.37242e+06	-39439.1	1005.82	-29793.8	0.000000	0.000000	6.813080	0.053719	NaN	0.000000	0.001607	0.001677	28.083	0.097675	0.001940	50.3575	-136.062	12.7321	0.101999	0.811691	-0.282515	-0.283933	0.053719	50.3575	-0.283315	-2648.07	-2.028612E-5	NaN
753	1.000000	0.823129	7.37242e+06	-39439.1	1005.82	-29793.8	0.000000	0.000000	6.823096	-0.052295	NaN	0.000000	0.001577	0.001670	28.0819	0.060161	0.002172	27.702	-32.1107	-163.659	-0.015131	0.821779	-0.272494	-0.273845	-0.052295	27.702	-0.271079	-1729.55	3.023624E-5	NaN
753	1.000000	0.833117	7.37242e+06	-39439.1	1005.82	-29793.8	0.000000	0.000000	6.833086	-0.019033	NaN	0.000000	0.001627	0.001653	28.082	0.152687	0.002028	75.2748	104.236	14.6467	-0.092762	0.831777	-0.262507	-0.263847	-0.019033	75.2748	-0.262317	-1271.72	1.496653E-5	NaN
753	1.000000	0.843103	7.37242e+06	-39439.1	1005.82	-29793.8	0.000000	0.000000	6.843069	-0.065239	NaN	0.000000	0.001712	0.001680	28.082	0.030632	0.001828	16.7554	-55.993	-166.221	-0.068225	0.841770	-0.252521	-0.253854	-0.065239	16.7554	-0.249601	-810.574	8.048526E-5	NaN
753	1.000000	0.853116	7.37242e+06	-39439.1	1005.82	-29793.8	0.000000	0.000000	6.853081	-0.102277	NaN	0.000000	0.001663	0.001676	28.0819	0.000767	0.001964	0.390680	167.19	11.4139	-0.077825	0.851722	-0.242508	-0.243901	-0.102277	0.390680	-0.046164	-0.069754	1.466262	NaN
753	1.000000	0.863097	7.37242e+06	-39439.1	1005.82	-29793.8	0.000000	0.000000	6.863063	-0.063369	NaN	0.000000	0.001700	0.001678	28.0823	0.033054	0.001920	17.2165	134.276	-165.084	-0.089262	0.861803	-0.232527	-0.233821	-0.063369	17.2165	-0.229766	-397.034	0.000160	NaN
753	1.000000	0.873141	7.37242e+06	-39439.1	1005.82	-29793.8	0.000000	0.000000	6.873106	-0.116192	NaN	0.000000	0.001657	0.001682	28.0816	0.063043	0.002051	30.745	-156.259	11.1532	-0.135885	0.871762	-0.222482	-0.223862	-0.116192	30.745	-0.219648	-274.189	0.000424	NaN
753	1.000000	0.883143	7.37242e+06	-39439.1	1005.82	-29793.8	0.000000	0.000000	6.883109	-0.089246	NaN	0.000000	0.001675	0.001671	28.0821	0.132941	0.002016	65.9381	-69.4405	-167.299	-0.088655	0.881787	-0.212481	-0.213837	-0.089246	65.9381	-0.211465	-202.548	0.000441	NaN
753	1.000000	0.893098	7.37242e+06	-39439.1	1005.82	-29793.8	0.000000	0.000000	6.893063	-0.094933	NaN	0.000000	0.001607	0.001680	28.0821	0.123645	0.002044	60.493	-32.4617	11.0796	-0.111284	0.891768	-0.202526	-0.203856	-0.094933	60.493	-0.201349	-138.625	0.000685	NaN
753	1.000000	0.903139	7.37242e+06	-39439.1	1005.82	-29793.8	0.000000	0.000000	6.903103	-0.123331	NaN	0.000000	0.001622	0.001681	28.0824	0.041352	0.001825	22.6625	-44.3467	-165.04	-0.093313	0.901794	-0.192484	-0.193830	-0.123331	22.6625	-0.188403	-84.5884	0.001458	NaN
753	1.000000	0.913164	7.37242e+06	-39439.1	1005.82	-29793.8	0.000000	0.000000	6.913129	-0.105168	NaN	0.000000	0.001604	0.001676	28.0819	0.071480	0.002041	35.0262	-142.809	14.4634	-0.082138	0.911790	-0.182460	-0.183834	-0.105168	35.0262	-0.180208	-61.5181	0.001710	NaN
753	1.000000	0.923132	7.37242e+06	-39439.1	1005.82	-29793.8	0.000000	0.000000	6.923097	-0.110902	NaN	0.000000	0.001612	0.001661	28.0821	0.092748	0.002004	46.2833	89.3008	-167.929	-0.118507	0.921801	-0.172491	-0.173823	-0.110902	46.2833	-0.170694	-42.234	0.002626	NaN
753	1.000000	0.933127	7.37242e+06	-39439.1	1005.82	-29793.8	0.000000	0.000000	6.933094	-0.045395	NaN	0.000000	0.001642	0.001676	28.0819	0.111591	0.001808	61.7295	-16.2709	11.8286	-0.052955	0.931772	-0.162497	-0.163852	-0.045395	61.7295	-0.161945	-29.6806	0.001529	NaN
753	1.000000	0.943154	7.37242e+06	-39439.1	1005.82	-29793.8	0.000000	0.000000	6.943121	-0.070821	NaN	0.000000	0.001623	0.001691	28.082	0.176489	0.001898	92.9707	-93.7054	-169.249	-0.055116	0.941852	-0.152469	-0.153772	-0.070821	92.9707	-0.151898	-19.6125	0.003611	NaN
753	1.000000	0.953171	7.37242e+06	-39439.1	1005.82	-29793.8	0.000000	0.000000	6.953140	0.003202	NaN	0.000000	0.001584	0.001733	28.0817	0.068032	0.001885	36.0965	-175.526	11.6155	-0.037364	0.951754	-0.142453	-0.143870	0.003202	36.0965	-0.142520	-13.1859	-0.000243	NaN
753	1.000000	0.963165	7.37242e+06	-39439.1	1005.82	-29793.8	0.000000	0.000000	6.963135	0.013836	NaN	0.000000	0.001618	0.001694	28.0833	0.094663	0.002054	46.0874	77.8987	-167.484	-0.006278	0.961807	-0.132459	-0.133817	0.013836	46.0874	-0.132684	-8.588106	-0.001611	NaN
753	1.000000	0.973133	7.37242e+06	-39439.1	1005.82	-29793.8	0.000000	0.000000	6.973098	-0.089426	NaN	0.000000	0.001639	0.001702	28.0833	0.020603	0.002015	10.2252	-44.1185	17.2204	-0.094796	0.971778	-0.122491	-0.123846	-0.089426	10.2252	-0.115932	-3.992769	0.022397	NaN
753	1.000000	0.983177	7.37242e+06	-39439.1	1005.82	-29793.8	0.000000	0.000000	6.983146	-0.012943	NaN	0.000000	0.001617	0.001731	28.0831	0.029285	0.001959	14.9492	68.0124	-165.39	-0.046807	0.981842	-0.112447	-0.113781	-0.012943	14.9492	-0.111797	-3.278050	0.003949	NaN
753	1.000000	0.993202	7.37242e+06	-39439.1	1005.82	-29793.8	0.000000	0.000000	6.993167	-0.095056	NaN	0.000000	0.001635	0.001686	28.0831	0.023809	0.002011	11.838	13.7115	14.9804	-0.058471	0.991816	-0.102422	-0.103807	-0.095056	11.838	-0.096399	-1.517651	0.062634	NaN
753	1.000000	1.003188	7.37242e+06	-39439.1	1005.82	-29793.8	0.000000	0.000000	7.003155	-0.043915	NaN	0.000000	0.001612	0.001689	28.0833	0.054578	0.001996	27.3379	-27.5973	-165.952	-0.048855	1.001852	-0.092436	-0.093772	-0.043915	27.3379	-0.091231	-1.155051	0.038020	NaN
753	1.000000	1.013191	7.37242e+06	-39439.1	1005.82	-29793.8	0.000000	0.000000	7.013158	-0.045649	NaN	0.000000	0.001638	0.001664	28.0835	0.052767	0.001942	27.1723	-156.287	15.2738	-0.098698	1.011824	-0.082433	-0.083799	-0.045649	27.1723	-0.081173	-0.662061	0.068950	NaN
753	1.000000	1.023176	7.37242e+06	-39439.1	1005.82	-29793.8	0.000000	0.000000	7.023144	-0.028248	NaN	0.000000	0.001616	0.001729	28.0833	0.082187	0.001969	41.7382	-92.2962	-167.831	0.006992	1.021860	-0.072448	-0.073764	-0.028248	41.7382	-0.071940	-0.384164	0.073532	NaN
753	1.000000	1.033189	7.37242e+06	-39439.1	1005.82	-29793.8	0.000000	0.000000	7.033156	-0.052647	NaN	0.000000	0.001646	0.001707	28.083	0.085255	0.002037	41.8494	44.789	14.9879	-0.097174	1.031839	-0.062435	-0.063785	-0.052647	41.8494	-0.061491	-0.198642	0.265035	NaN
753	1.000000	1.043195	7.37242e+06	-39439.1	1005.82	-29793.8	0.000000	0.000000	7.043162	-0.042123	NaN	0.000000	0.001677	0.001728	28.0832	0.046838	0.002033	23.0424	-101.474	-167.273	-0.018770	1.041818	-0.052429	-0.053806	-0.042123	23.0424	-0.051058	-0.098214	0.428893	NaN
753	1.000000	1.053191	7.37242e+06	-39439.1	1005.82	-29793.8	0.000000	0.000000	7.053157	-0.063642	NaN	0.000000	0.001633	0.001714	28.0833	0.091600	0.001957	46.8142	-5.034207	14.8787	-0.068194	1.051825	-0.042433	-0.043799	-0.063642	46.8142	-0.041413	-0.049930	1.274615	NaN
753	1.000000	1.063181	7.37242e+06	-39439.1	1005.82	-29793.8	0.000000	0.000000	7.063149	-0.018855	NaN	0.000000	0.001650	0.001721	28.083	0.047481	0.002029	23.4054	-49.2779	-167.301	-0.042064	1.061889	-0.032443	-0.033735	-0.018855	23.4054	-0.031839	-0.025930	0.727154	NaN
753	1.000000	1.073186	7.37242e+06	-39439.1	1005.82	-29793.8	0.000000	0.000000	7.073179	0.574054	NaN	0.000000	0.001637	0.001736	28.0831	0.834143	0.002045	407.991	13.5207	15.515	0.284098	1.071829	-0.022438	-0.023794	0.574054	407.991	-0.023493	-0.015420	-37.229	NaN
753	1.000000	1.083199	7.37242e+06	-39439.1	1005.82	-29793.8	0.000000	0.000000	7.083355	4.531692	NaN	0.000000	0.001649	0.001679	28.0832	1.679038	0.001842	911.709	8.759713	-167.159	4.036083	1.081904	-0.012425	-0.013720	4.531692	911.709	-0.016152	-0.009977	-454.201	NaN
753	1.000000	1.093189	7.37242e+06	-39439.1	1005.82	-29793.8	0.000000	0.000000	7.093192	0.825477	NaN	0.000000	0.001677	0.001698	28.0822	1.359596	0.001897	716.774	17.5563	12.7722	0.198140	1.091880	-0.002435	-0.003744	0.825477	716.774	-0.003298	-0.002319	-355.927	NaN
753	2.000000	1.101766	7.37242e+06	-39439.1	1005.82	-29793.8	0.000000	0.000000	7.102106	9.037856	NaN	0.000000	0.001666	0.001694	28.0819	9.240337	0.001641	5629.7	7.178524	-172.411	8.391867	1.101382	0.006142	0.005758	9.037856	5629.7	0.004938	0.004077	2216.89	80555.9
753	2.000000	1.104234	7.37242e+06	-39439.1	1005.82	-29793.8	0.000000	0.000000	7.104717	12.5155	NaN	0.000000	0.001651	0.001677	28.082	12.3623	0.001721	7185.06	9.304491	3.169121	11.979	1.103829	0.008610	0.008205	12.5155	7185.06	0.007304	0.006336	1975.33	82470.5
753	2.000000	1.106725	7.37242e+06	-39439.1	1005.82	-29793.8	0.000000	0.000000	7.107384	16.784	NaN	0.000000	0.001699	0.001681	28.082	15.4868	0.001785	8675.12	12.0632	179.712	16.4541	1.106367	0.011101	0.010743	16.784	8675.12	0.009650	0.008796	1908.22	84511.5
753	2.000000	1.109192	7.37242e+06	-39439.1	1005.82	-29793.8	0.000000	0.000000	7.110069	22.0929	NaN	0.000000	0.001728	0.001676	28.0821	17.5246	0.001697	10323.9	2.327347	6.873741	20.7235	1.108890	0.013569	0.013266	22.0929	10323.9	0.011964	0.011446	1930.12	88162
753	2.000000	1.111615	7.37242e+06	-39439.1	1005.82	-29793.8	0.000000	0.000000	7.112808	29.8014	NaN	0.000000	0.001723	0.001677	28.0819	20.7754	0.001653	12567.7	4.605100	-177.772	27.7733	1.111310	0.015991	0.015686	29.8014	12567.7	0.014212	0.014249	2091.41	96190.4
753	2.000000	1.114134	7.37242e+06	-39439.1	1005.82	-29793.8	0.000000	0.000000	7.115570	35.6831	NaN	0.000000	0.001702	0.001688	28.082	24.6028	0.001959	12555.7	7.255830	0.425368	33.5845	1.113792	0.018510	0.018169	35.6831	12555.7	0.016379	0.017168	2078.43	87549
753	2.000000	1.116643	7.37242e+06	-39439.1	1005.82	-29793.8	0.000000	0.000000	7.118387	43.1924	NaN	0.000000	0.001683	0.001681	28.0823	26.7121	0.001703	15688	5.242051	-179.904	42.2434	1.116379	0.021020	0.020755	43.1924	15688	0.018955	0.020926	2064.04	99082.4
753	2.000000	1.119210	7.37242e+06	-39439.1	1005.82	-29793.8	0.000000	0.000000	7.121356	52.9603	NaN	0.000000	0.001698	0.001691	28.0822	28.3765	0.001706	16633.3	5.178043	1.275482	54.0905	1.118817	0.023587	0.023193	52.9603	16633.3	0.021199	0.024461	2165.11	97166.3
753	2.000000	1.121643	7.37242e+06	-39439.1	1005.82	-29793.8	0.000000	0.000000	7.124202	63.0262	NaN	0.000000	0.001658	0.001669	28.082	31.2654	0.001704	18352.1	5.909827	178.034	61.9257	1.121286	0.026019	0.025663	63.0262	18352.1	0.023444	0.028245	2231.41	99767.2
753	2.000000	1.124135	7.37243e+06	-39439.1	1005.82	-29793.8	0.000000	0.000000	7.127116	73.2851	NaN	0.000000	0.001655	0.001703	28.0821	33.9365	0.001793	18930.5	3.168115	0.747028	71.5288	1.123711	0.028511	0.028087	73.2851	18930.5	0.025608	0.032131	2280.83	96488.3
753	2.000000	1.126639	7.37243e+06	-39439.1	1005.82	-29793.8	0.000000	0.000000	7.130026	83.1838	NaN	0.000000	0.001682	0.001670	28.0824	36.3776	0.001742	20880	4.943968	177.251	80.8798	1.126308	0.031015	0.030684	83.1838	20880	0.028027	0.036753	2263.31	99507.9
753	2.000000	1.129126	7.37243e+06	-39439.1	1005.82	-29793.8	0.000000	0.000000	7.133005	95.1533	NaN	0.000000	0.001679	0.001688	28.0821	38.3793	0.001783	21527.8	4.336009	-1.365566	93.2149	1.128765	0.033502	0.033141	95.1533	21527.8	0.030187	0.041133	2313.32	96979.2
753	2.000000	1.131673	7.37243e+06	-39439.1	1005.82	-29793.8	0.000000	0.000000	7.135987	105.718	NaN	0.000000	0.001645	0.001694	28.0821	40.8245	0.001656	24654.8	6.847594	174.965	106.928	1.131317	0.036049	0.035693	105.718	24654.8	0.032833	0.046821	2257.9	104100
753	2.000000	1.134154	7.37243e+06	-39439.1	1005.82	-29793.8	0.000000	0.000000	7.138862	115.319	NaN	0.000000	0.001662	0.001664	28.0835	44.2433	0.001755	25215.6	7.367495	-6.781234	114.905	1.133823	0.038530	0.038199	115.319	25215.6	0.035100	0.051979	2218.58	101048
753	2.000000	1.136567	7.37243e+06	-39439.1	1005.82	-29793.8	0.000000	0.000000	7.141911	130.797	NaN	0.000000	0.001630	0.001682	28.0836	46.6756	0.001744	26760.1	2.706487	176.965	127.248	1.136248	0.040943	0.040624	130.797	26760.1	0.037277	0.057182	2287.39	102243
753	2.000000	1.139124	7.37243e+06	-39439.1	1005.82	-29793.8	0.000000	0.000000	7.144998	143.71	NaN	0.000000	0.001644	0.001704	28.0835	48.8614	0.001841	26537.7	6.139751	-5.537479	143.437	1.138856	0.043500	0.043232	143.71	26537.7	0.039438	0.062585	2296.24	96917.3
753	2.000000	1.141570	7.37243e+06	-39439.1	1005.82	-29793.8	0.000000	0.000000	7.147759	151.362	NaN	0.000000	0.001620	0.001689	28.0836	51.1702	0.001778	28772.7	7.454096	171.611	148.003	1.141278	0.045946	0.045654	151.362	28772.7	0.042001	0.069301	2184.12	99858.4
753	2.000000	1.144135	7.37243e+06	-39439.1	1005.82	-29793.8	0.000000	0.000000	7.151166	171.859	NaN	0.000000	0.001658	0.001668	28.0835	53.9977	0.001787	30214.1	9.419326	-10.875	170.457	1.143710	0.048511	0.048086	171.859	30214.1	0.044245	0.075459	2277.51	100491
753	2.000000	1.146542	7.37243e+06	-39439.1	1005.82	-29793.8	0.000000	0.000000	7.154029	182.944	NaN	0.000000	0.001656	0.001724	28.0834	57.8103	0.001841	31407.7	9.109266	168.755	180.236	1.146401	0.050918	0.050778	182.944	31407.7	0.046549	0.082047	2229.75	100180
753	2.000000	1.149190	7.37243e+06	-39439.1	1005.82	-29793.8	0.000000	0.000000	7.157163	194.765	NaN	0.000000	0.001591	0.001710	28.0838	58.8237	0.001777	33097	7.013668	-8.576912	195.943	1.148808	0.053566	0.053185	194.765	33097	0.049153	0.089813	2168.57	100900
753	2.000000	1.151612	7.37243e+06	-39439.1	1005.82	-29793.8	0.000000	0.000000	7.160217	210.162	NaN	0.000000	0.001610	0.001648	28.0831	60.3225	0.001719	35083.9	3.214355	175.221	209.407	1.151270	0.055988	0.055647	210.162	35083.9	0.051495	0.097091	2164.58	102871
753	2.000000	1.154118	7.37243e+06	-39439.1	1005.82	-29793.8	0.000000	0.000000	7.163348	225.36	NaN	0.000000	0.001617	0.001657	28.084	63.4394	0.001907	33258.4	6.759275	-7.987376	222.978	1.153745	0.058494	0.058121	225.36	33258.4	0.053412	0.103250	2182.66	94564.8
753	2.000000	1.156584	7.37243e+06	-39439.1	1005.82	-29793.8	0.000000	0.000000	7.166367	238.816	NaN	0.000000	0.001626	0.001691	28.0834	66.4103	0.001870	35522.1	7.377053	170.671	236.402	1.156388	0.060960	0.060764	238.816	35522.1	0.055918	0.111578	2140.35	97158.8
753	2.000000	1.159108	7.37243e+06	-39439.1	1005.82	-29793.8	0.000000	0.000000	7.169737	259.416	NaN	0.000000	0.001620	0.001689	28.0837	67.17	0.001811	37093.5	3.104276	-4.842480	255.986	1.158693	0.063484	0.063069	259.416	37093.5	0.058239	0.119568	2169.62	98008.5
753	2.000000	1.161510	7.37243e+06	-39439.1	1005.82	-29793.8	0.000000	0.000000	7.172711	273.325	NaN	0.000000	0.001592	0.001659	28.0834	69.6575	0.001822	38232.1	6.249969	171.138	268.23	1.161268	0.065886	0.065644	273.325	38232.1	0.060525	0.127696	2140.43	97748.8
753	2.000000	1.163944	7.37243e+06	-39439.1	1005.82	-29793.8	0.000000	0.000000	7.175432	280.325	NaN	0.000000	0.001647	0.001690	28.0838	71.8591	0.001820	39489.4	5.479446	-8.523865	269.869	1.163625	0.068320	0.068001	280.325	39489.4	0.062996	0.136769	2049.62	97557.1
753	2.000000	1.166527	7.37243e+06	-39439.1	1005.82	-29793.8	0.000000	0.000000	7.179258	310.58	NaN	0.000000	0.001630	0.001696	28.0831	74.876	0.001916	39085.4	6.628103	171.333	306.715	1.166188	0.070903	0.070564	310.58	39085.4	0.064943	0.144128	2154.9	94061.8
753	2.000000	1.169138	7.37243e+06	-39439.1	1005.82	-29793.8	0.000000	0.000000	7.182385	323.12	NaN	0.000000	0.001627	0.001696	28.0821	76.5391	0.001835	41710.1	3.660405	-6.877126	320.27	1.168798	0.073514	0.073174	323.12	41710.1	0.067704	0.154872	2086.37	96834.2
753	2.000000	1.171548	7.37243e+06	-39439.1	1005.82	-29793.8	0.000000	0.000000	7.185632	343.502	NaN	0.000000	0.001641	0.001695	28.082	78.2551	0.001682	46514.1	4.040577	171.806	340.318	1.171231	0.075924	0.075607	343.502	46514.1	0.070385	0.165659	2073.55	104412
753	2.000000	1.174076	7.37243e+06	-39439.1	1005.82	-29793.8	0.000000	0.000000	7.188860	360.526	NaN	0.000000	0.001622	0.001706	28.0824	81.6671	0.001737	47012.8	4.407104	-8.430396	358.71	1.173699	0.078452	0.078075	360.526	47012.8	0.072700	0.175246	2057.26	102604
753	2.000000	1.176578	7.37243e+06	-39439.1	1005.82	-29793.8	0.000000	0.000000	7.191962	375.122	NaN	0.000000	0.001596	0.001716	28.0819	84.6116	0.001761	48058.4	1.860768	174.095	374.073	1.176329	0.080954	0.080705	375.122	48058.4	0.075100	0.185452	2022.75	101959
753	2.000000	1.179115	7.37243e+06	-39439.1	1005.82	-29793.8	0.000000	0.000000	7.195464	398.604	NaN	0.000000	0.001667	0.001738	28.0821	86.7127	0.001799	48191.2	4.608015	-8.680443	395.883	1.178652	0.083491	0.083028	398.604	48191.2	0.077287	0.194989	2044.23	99709.4
753	2.000000	1.181468	7.37243e+06	-39439.1	1005.82	-29793.8	0.000000	0.000000	7.198608	417.836	NaN	0.000000	0.001645	0.001734	28.0821	88.3685	0.001772	49866.7	3.439048	172.136	411.799	1.181216	0.085845	0.085592	417.836	49866.7	0.079560	0.205137	2036.86	100592
753	2.000000	1.183979	7.37243e+06	-39439.1	1005.82	-29793.8	0.000000	0.000000	7.202037	440.185	NaN	0.000000	0.001613	0.001773	28.082	92.1196	0.001848	49845.2	5.742248	-9.965250	433.095	1.183716	0.088355	0.088092	440.185	49845.2	0.081732	0.215060	2046.8	98201.3
753	2.000000	1.186523	7.37243e+06	-39439.1	1005.82	-29793.8	0.000000	0.000000	7.205375	459.521	NaN	0.000000	0.001590	0.001732	28.0818	94.0103	0.001855	50669.8	2.887584	173.105	456.974	1.186193	0.090899	0.090569	459.521	50669.8	0.084097	0.226113	2032.26	97355.4
753	2.000000	1.188976	7.37243e+06	-39439.1	1005.82	-29793.8	0.000000	0.000000	7.208679	480.232	NaN	0.000000	0.001655	0.001716	28.0819	95.3018	0.001763	54060.3	4.703582	-9.491238	470.854	1.188639	0.093352	0.093015	480.232	54060.3	0.086690	0.238527	2013.32	101131
753	2.000000	1.191455	7.37243e+06	-39439.1	1005.82	-29793.8	0.000000	0.000000	7.212189	505.315	NaN	0.000000	0.001633	0.001729	28.0821	98.3144	0.001882	52226.8	4.753260	171.363	499.342	1.191134	0.095831	0.095510	505.315	52226.8	0.088574	0.247748	2039.63	95865.4
753	2.000000	1.193947	7.37243e+06	-39439.1	1005.82	-29793.8	0.000000	0.000000	7.215490	525.013	NaN	0.000000	0.001649	0.001770	28.082	100.375	0.001814	55348.1	3.853967	-8.468548	516.449	1.193555	0.098323	0.097931	525.013	55348.1	0.091209	0.260907	2012.26	98999.5
753	2.000000	1.196525	7.37243e+06	-39439.1	1005.82	-29793.8	0.000000	0.000000	7.219096	550.002	NaN	0.000000	0.001602	0.001780	28.0819	104.004	0.001925	54018.4	6.444778	168.972	547.019	1.196249	0.100901	0.100626	550.002	54018.4	0.093265	0.271401	2026.53	94734.8
753	2.000000	1.199067	7.37243e+06	-39439.1	1005.82	-29793.8	0.000000	0.000000	7.222717	576.266	NaN	0.000000	0.001632	0.001725	28.082	104.761	0.001740	60191.5	6.334340	-11.3959	574.038	1.198575	0.103444	0.102951	576.266	60191.5	0.096263	0.287046	2007.58	102644
753	2.000000	1.199567	7.37243e+06	-39439.1	1005.82	-29793.8	0.000000	0.000000	7.223231	576.604	NaN	0.000000	0.001623	0.001735	28.0819	105.32	0.001805	58360.4	2.920222	171.728	576.685	1.199321	0.103943	0.103697	576.604	58360.4	0.096533	0.288474	1998.8	99274.6