File: remote_trans/data/nanoindenter/0828-1/data/Data_2025-08-06,11h17m57s/2025-07-22_16-23-58_1_1020.txt
2025-07-22, 16:23:58, 1
Index	Phase	Displacement	Time	Pos X	Pos Y	Pos Z	Rot A	Rot B	Piezo Z	Force A	Force B	Gripper	Voltage A	Voltage B	Temperature	Amplitude force	Amplitude pos	Stiffness	Phase shift	Phase excitation	Force A raw	Displacement raw	HMax	HMax raw	Real Force	Real Stiffness	Contact Depth	Area	Hardness	Reduced Mod.
[#]	[#]	[um]	[s]	[um]	[um]	[um]	[m°]	[m°]	[um]	[uN]	[uN]	[V]	[V]	[V]	[°C]	[uN]	[um]	[N/m]	[°]	[°]	[uN]	[um]	[um]	[um]	[uN]	[N/m]	[um]	[um^2]	[MPa]	[MPa]
1020	1.000000	0.002903	7.37502e+06	-51139.1	1055.82	-29753.2	0.000000	0.000000	6.002820	0.081831	NaN	0.000000	0.001542	0.001645	28.0824	0.053489	0.001016	52.6523	5.483352	-169.821	0.052613	0.001616	-1.178563	-1.179851	0.081831	52.6523	-1.179729	-5.878147E+15	-1.392119E-17	NaN
1020	1.000000	0.012935	7.37502e+06	-51139.1	1055.82	-29753.2	0.000000	0.000000	6.012846	-0.041177	NaN	0.000000	0.001548	0.001657	28.0822	0.154232	0.001274	121.098	-133.399	16.5546	0.003896	0.011473	-1.168532	-1.169994	-0.041177	121.098	-1.168277	-4.128530E+15	9.973836E-18	NaN
1020	1.000000	0.022828	7.37502e+06	-51139.1	1055.82	-29753.2	0.000000	0.000000	6.022743	0.022513	NaN	0.000000	0.001567	0.001663	28.0835	0.091861	0.001895	48.4689	66.1185	-164.931	0.046471	0.021505	-1.158638	-1.159961	0.022513	48.4689	-1.158987	-3.099463E+15	-7.263619E-18	NaN
1020	1.000000	0.032861	7.37502e+06	-51139.1	1055.82	-29753.2	0.000000	0.000000	6.032776	0.036339	NaN	0.000000	0.001548	0.001702	28.0836	0.073445	0.001818	40.4055	121.821	16.088	-0.019904	0.031527	-1.148605	-1.149939	0.036339	40.4055	-1.149280	-2.297025E+15	-1.582012E-17	NaN
1020	1.000000	0.042830	7.37502e+06	-51139.1	1055.82	-29753.2	0.000000	0.000000	6.042745	0.037735	NaN	0.000000	0.001572	0.001678	28.0836	0.138363	0.001861	74.3667	-173.445	-165.619	-0.009363	0.041476	-1.138637	-1.139991	0.037735	74.3667	-1.139017	-1.673243E+15	-2.255219E-17	NaN
1020	1.000000	0.052820	7.37502e+06	-51139.1	1055.82	-29753.2	0.000000	0.000000	6.052734	0.021778	NaN	0.000000	0.001533	0.001653	28.0837	0.048263	0.002003	24.0993	-139.399	11.0095	-0.021442	0.051476	-1.128647	-1.129990	0.021778	24.0993	-1.129325	-1.240407E+15	-1.755687E-17	NaN
1020	1.000000	0.062834	7.37503e+06	-51139.1	1055.82	-29753.2	0.000000	0.000000	6.062747	-0.011054	NaN	0.000000	0.001543	0.001647	28.0836	0.096263	0.002027	47.5009	118.091	-165.278	-0.004438	0.061496	-1.118633	-1.119971	-0.011054	47.5009	-1.118458	-8.867238E+14	1.246601E-17	NaN
1020	1.000000	0.072832	7.37503e+06	-51139.1	1055.82	-29753.2	0.000000	0.000000	6.072745	-0.004515	NaN	0.000000	0.001569	0.001630	28.0837	0.022397	0.002068	10.8295	119.876	14.0157	-0.058931	0.071540	-1.108635	-1.109926	-0.004515	10.8295	-1.108322	-6.482907E+14	6.964861E-18	NaN
1020	1.000000	0.082844	7.37503e+06	-51139.1	1055.82	-29753.2	0.000000	0.000000	6.082759	0.026436	NaN	0.000000	0.001576	0.001654	28.0837	0.024472	0.001959	12.4913	-37.1527	-165.524	0.126058	0.081561	-1.098622	-1.099906	0.026436	12.4913	-1.100210	-5.045231E+14	-5.239723E-17	NaN
1020	1.000000	0.092853	7.37503e+06	-51139.1	1055.82	-29753.2	0.000000	0.000000	6.092765	-0.018218	NaN	0.000000	0.001549	0.001647	28.0836	0.088965	0.002046	43.4777	88.8486	13.4388	-0.009621	0.091516	-1.088614	-1.089950	-0.018218	43.4777	-1.088299	-3.491217E+14	5.218112E-17	NaN
1020	1.000000	0.102848	7.37503e+06	-51139.1	1055.82	-29753.2	0.000000	0.000000	6.102763	0.056448	NaN	0.000000	0.001545	0.001665	28.0835	0.135043	0.002038	66.2602	127.263	-163.729	0.069532	0.101524	-1.078619	-1.079942	0.056448	66.2602	-1.079258	-2.639701E+14	-2.138443E-16	NaN
1020	1.000000	0.112881	7.37503e+06	-51139.1	1055.82	-29753.2	0.000000	0.000000	6.112794	-0.004058	NaN	0.000000	0.001494	0.001697	28.0833	0.095660	0.002006	47.6877	7.793722	14.6247	-0.021393	0.111522	-1.068585	-1.069945	-0.004058	47.6877	-1.068522	-1.893764E+14	2.142892E-17	NaN
1020	1.000000	0.122859	7.37503e+06	-51139.1	1055.82	-29753.2	0.000000	0.000000	6.122773	0.011231	NaN	0.000000	0.001564	0.001670	28.0835	0.057426	0.002076	27.6626	-117.197	-168.917	0.021725	0.121526	-1.058607	-1.059941	0.011231	27.6626	-1.058912	-1.406681E+14	-7.984240E-17	NaN
1020	1.000000	0.132868	7.37503e+06	-51139.1	1055.82	-29753.2	0.000000	0.000000	6.132780	-0.021065	NaN	0.000000	0.001518	0.001689	28.0832	0.057319	0.002048	27.9823	-121.26	13.9852	-0.082781	0.131502	-1.048599	-1.049965	-0.021065	27.9823	-1.048034	-1.004590E+14	2.096858E-16	NaN
1020	1.000000	0.142879	7.37503e+06	-51139.1	1055.82	-29753.2	0.000000	0.000000	6.142793	0.023462	NaN	0.000000	0.001519	0.001687	28.0833	0.049258	0.002010	24.5067	81.3628	-164.389	-0.015642	0.141517	-1.038588	-1.039949	0.023462	24.5067	-1.039306	-7.667218E+13	-3.060079E-16	NaN
1020	1.000000	0.152867	7.37503e+06	-51139.1	1055.82	-29753.2	0.000000	0.000000	6.152782	0.019938	NaN	0.000000	0.001565	0.001626	28.0823	0.040375	0.002079	19.42	-87.6244	14.9875	0.120951	0.151488	-1.028599	-1.029978	0.019938	19.42	-1.029369	-5.636322E+13	-3.537442E-16	NaN
1020	1.000000	0.162874	7.37503e+06	-51139.1	1055.82	-29753.2	0.000000	0.000000	6.162787	-0.006412	NaN	0.000000	0.001550	0.001689	28.0822	0.033378	0.002039	16.3699	124.694	-166.286	-0.114951	0.161527	-1.018593	-1.019940	-0.006412	16.3699	-1.018299	-4.000017E+13	1.603014E-16	NaN
1020	1.000000	0.172879	7.37503e+06	-51139.1	1055.82	-29753.2	0.000000	0.000000	6.172790	-0.056411	NaN	0.000000	0.001473	0.001692	28.0821	0.046586	0.001875	24.8494	148.159	13.7047	-0.050612	0.171496	-1.008588	-1.009971	-0.056411	24.8494	-1.006885	-2.808393E+13	2.008650E-15	NaN
1020	1.000000	0.182879	7.37503e+06	-51139.1	1055.82	-29753.2	0.000000	0.000000	6.182791	-0.028886	NaN	0.000000	0.001488	0.001703	28.0823	0.052425	0.002053	25.5309	168.866	-165.778	-0.091072	0.181604	-0.998588	-0.999863	-0.028886	25.5309	-0.997739	-2.115108E+13	1.365721E-15	NaN
1020	1.000000	0.192893	7.37503e+06	-51139.1	1055.82	-29753.2	0.000000	0.000000	6.192804	-0.063747	NaN	0.000000	0.001485	0.001675	28.0827	0.015311	0.002119	7.226017	115.498	13.4489	-0.023751	0.191552	-0.988573	-0.989914	-0.063747	7.226017	-0.981957	-1.296506E+13	4.916800E-15	NaN
1020	1.000000	0.202896	7.37503e+06	-51139.1	1055.82	-29753.2	0.000000	0.000000	6.202809	-0.013317	NaN	0.000000	0.001472	0.001673	28.0825	0.074315	0.001982	37.4871	0.682694	-165.775	0.060259	0.201564	-0.978571	-0.979903	-0.013317	37.4871	-0.978304	-1.157614E+13	1.150354E-15	NaN
1020	1.000000	0.212894	7.37503e+06	-51139.1	1055.82	-29753.2	0.000000	0.000000	6.212806	-0.048192	NaN	0.000000	0.001557	0.001695	28.0826	0.103773	0.002013	51.5586	-175.804	16.1054	0.018274	0.211526	-0.968572	-0.969940	-0.048192	51.5586	-0.967871	-8.374764E+12	5.754478E-15	NaN
1020	1.000000	0.222898	7.37503e+06	-51139.1	1055.82	-29753.2	0.000000	0.000000	6.222806	-0.121326	NaN	0.000000	0.001526	0.001658	28.0827	0.078227	0.002032	38.4896	-51.887	-167.532	-0.090498	0.221529	-0.958569	-0.959938	-0.121326	38.4896	-0.956205	-5.830432E+12	2.080909E-14	NaN
1020	1.000000	0.232895	7.37503e+06	-51139.1	1055.82	-29753.2	0.000000	0.000000	6.232806	-0.062484	NaN	0.000000	0.001547	0.001666	28.0826	0.029003	0.001968	14.734	-9.057818	14.8583	-0.065986	0.231570	-0.948571	-0.949897	-0.062484	14.734	-0.945391	-4.167320E+12	1.499384E-14	NaN
1020	1.000000	0.242923	7.37503e+06	-51139.1	1055.82	-29753.2	0.000000	0.000000	6.242836	-0.000105	NaN	0.000000	0.001551	0.001697	28.0825	0.081092	0.002009	40.3686	77.8697	-167.117	-0.013541	0.241572	-0.938544	-0.939895	-0.000105	40.3686	-0.938542	-3.368720E+12	3.115946E-17	NaN
1020	1.000000	0.252902	7.37503e+06	-51139.1	1055.82	-29753.2	0.000000	0.000000	6.252811	-0.095580	NaN	0.000000	0.001610	0.001665	28.0823	0.085490	0.001859	45.9846	25.7706	14.529	-0.092055	0.251544	-0.928565	-0.929923	-0.095580	45.9846	-0.927006	-2.353897E+12	4.060507E-14	NaN
1020	1.000000	0.262896	7.37503e+06	-51139.1	1055.82	-29753.2	0.000000	0.000000	6.262809	-0.005829	NaN	0.000000	0.001575	0.001644	28.0827	0.095279	0.001999	47.6539	20.704	-163.861	-0.035592	0.261586	-0.918570	-0.919881	-0.005829	47.6539	-0.918479	-1.805781E+12	3.227830E-15	NaN
1020	1.000000	0.272933	7.37503e+06	-51139.1	1055.82	-29753.2	0.000000	0.000000	6.272846	-0.014796	NaN	0.000000	0.001576	0.001676	28.0824	0.015382	0.002025	7.596051	-146.94	12.9616	-0.080218	0.271610	-0.908534	-0.909856	-0.014796	7.596051	-0.907073	-1.266555E+12	1.168194E-14	NaN
1020	1.000000	0.282920	7.37503e+06	-51139.1	1055.82	-29753.2	0.000000	0.000000	6.282831	-0.056568	NaN	0.000000	0.001553	0.001698	28.0826	0.037389	0.001886	19.8268	-11.6158	-167.433	-0.016047	0.281623	-0.898547	-0.899844	-0.056568	19.8268	-0.896407	-9.088904E+11	6.223839E-14	NaN
1020	1.000000	0.292935	7.37503e+06	-51139.1	1055.82	-29753.2	0.000000	0.000000	6.292851	0.061953	NaN	0.000000	0.001550	0.001688	28.0839	0.001664	0.002194	0.758453	-150.725	13.9062	0.021593	0.291573	-0.888531	-0.889894	0.061953	0.758453	-0.949794	-4.778004E+12	-1.296631E-14	NaN
1020	1.000000	0.302942	7.37503e+06	-51139.1	1055.82	-29753.2	0.000000	0.000000	6.302855	-0.014097	NaN	0.000000	0.001554	0.001667	28.0842	0.019805	0.002042	9.700097	-91.0231	-168.073	-0.050979	0.301657	-0.878524	-0.879810	-0.014097	9.700097	-0.877434	-5.035122E+11	2.799742E-14	NaN
1020	1.000000	0.312960	7.37503e+06	-51139.1	1055.82	-29753.2	0.000000	0.000000	6.312869	-0.113061	NaN	0.000000	0.001557	0.001650	28.0837	0.016732	0.002012	8.315294	64.7972	12.0981	-0.069807	0.311626	-0.868506	-0.869841	-0.113061	8.315294	-0.858309	-2.774781E+11	4.074587E-13	NaN
1020	1.000000	0.322958	7.37503e+06	-51139.1	1055.82	-29753.2	0.000000	0.000000	6.322871	0.010410	NaN	0.000000	0.001581	0.001675	28.0838	0.051082	0.001893	26.9875	31.1192	-168.728	0.103202	0.321599	-0.858509	-0.859867	0.010410	26.9875	-0.858798	-2.817428E+11	-3.694682E-14	NaN
1020	1.000000	0.332958	7.37503e+06	-51139.1	1055.82	-29753.2	0.000000	0.000000	6.332874	0.051604	NaN	0.000000	0.001581	0.001689	28.0838	0.068000	0.002039	33.3499	121.934	8.321251	0.031422	0.331612	-0.848508	-0.849855	0.051604	33.3499	-0.849669	-2.119606E+11	-2.434598E-13	NaN
1020	1.000000	0.342969	7.37503e+06	-51139.1	1055.82	-29753.2	0.000000	0.000000	6.342882	0.011966	NaN	0.000000	0.001575	0.001685	28.084	0.066825	0.001994	33.5084	-90.6343	-167.579	0.005704	0.341631	-0.838498	-0.839836	0.011966	33.5084	-0.838766	-1.508598E+11	-7.931790E-14	NaN
1020	1.000000	0.352940	7.37503e+06	-51139.1	1055.82	-29753.2	0.000000	0.000000	6.352854	0.030145	NaN	0.000000	0.001528	0.001705	28.0838	0.046615	0.002187	21.3133	-80.837	16.2142	-0.004610	0.351650	-0.828527	-0.829816	0.030145	21.3133	-0.829588	-1.132911E+11	-2.660864E-13	NaN
1020	1.000000	0.362949	7.37503e+06	-51139.1	1055.82	-29753.2	0.000000	0.000000	6.362861	-0.014840	NaN	0.000000	0.001572	0.001673	28.0836	0.052384	0.001915	27.3553	-112.85	-167.29	0.035150	0.361664	-0.818518	-0.819803	-0.014840	27.3553	-0.818111	-7.917616E+10	1.874312E-13	NaN
1020	1.000000	0.372968	7.37503e+06	-51139.1	1055.82	-29753.2	0.000000	0.000000	6.372882	0.022036	NaN	0.000000	0.001572	0.001700	28.0837	0.180817	0.001982	91.2423	149.108	11.5186	0.037569	0.371592	-0.808498	-0.809875	0.022036	91.2423	-0.808679	-5.897323E+10	-3.736604E-13	NaN
1020	1.000000	0.382961	7.37503e+06	-51139.1	1055.82	-29753.2	0.000000	0.000000	6.382873	-0.038895	NaN	0.000000	0.001569	0.001690	28.0836	0.065724	0.002082	31.5699	-177.343	-167.184	-0.051501	0.381702	-0.798505	-0.799765	-0.038895	31.5699	-0.797581	-4.168967E+10	9.329645E-13	NaN
1020	1.000000	0.392973	7.37503e+06	-51139.1	1055.82	-29753.2	0.000000	0.000000	6.392883	-0.077802	NaN	0.000000	0.001548	0.001697	28.0837	0.039217	0.002172	18.0547	74.442	14.6426	-0.031570	0.391604	-0.788494	-0.789863	-0.077802	18.0547	-0.785262	-2.836105E+10	2.743267E-12	NaN
1020	1.000000	0.402975	7.37503e+06	-51139.1	1055.82	-29753.2	0.000000	0.000000	6.402887	-0.031176	NaN	0.000000	0.001583	0.001706	28.0837	0.034373	0.001963	17.5085	-14.6172	-166.737	-0.002054	0.401674	-0.778492	-0.779793	-0.031176	17.5085	-0.777157	-2.200844E+10	1.416535E-12	NaN
1020	1.000000	0.413013	7.37503e+06	-51139.1	1055.82	-29753.2	0.000000	0.000000	6.412924	-0.069549	NaN	0.000000	0.001576	0.001695	28.0838	0.218028	0.001983	109.953	175.372	13.3197	-0.092321	0.411601	-0.768453	-0.769866	-0.069549	109.953	-0.767979	-1.651303E+10	4.211740E-12	NaN
1020	1.000000	0.422986	7.37503e+06	-51139.1	1055.82	-29753.2	0.000000	0.000000	6.422897	-0.053403	NaN	0.000000	0.001574	0.001697	28.0839	0.092580	0.001962	47.1833	-72.6578	-165.541	-0.099536	0.421674	-0.758480	-0.759793	-0.053403	47.1833	-0.757631	-1.194200E+10	4.471873E-12	NaN
1020	1.000000	0.433018	7.37503e+06	-51139.1	1055.82	-29753.2	0.000000	0.000000	6.432932	0.006162	NaN	0.000000	0.001581	0.001674	28.0824	0.097450	0.001967	49.535	-35.3225	13.9814	-0.031518	0.431672	-0.748448	-0.749795	0.006162	49.535	-0.748542	-8.981878E+9	-6.860210E-13	NaN
1020	1.000000	0.442984	7.37503e+06	-51139.1	1055.82	-29753.2	0.000000	0.000000	6.442898	0.019486	NaN	0.000000	0.001560	0.001687	28.0827	0.086000	0.001924	44.7068	114.467	-166.332	0.030685	0.441709	-0.738483	-0.739757	0.019486	44.7068	-0.738810	-6.619780E+9	-2.943640E-12	NaN
1020	1.000000	0.453030	7.37503e+06	-51139.1	1055.82	-29753.2	0.000000	0.000000	6.452943	0.007034	NaN	0.000000	0.001572	0.001709	28.0828	0.079696	0.001872	42.5663	158.155	11.9014	0.022068	0.451647	-0.728437	-0.729819	0.007034	42.5663	-0.728561	-4.799441E+9	-1.465628E-12	NaN
1020	1.000000	0.463024	7.37503e+06	-51139.1	1055.82	-29753.2	0.000000	0.000000	6.462939	0.047818	NaN	0.000000	0.001561	0.001713	28.0824	0.104827	0.001975	53.0776	-110.251	-166.142	0.063202	0.461728	-0.718443	-0.719738	0.047818	53.0776	-0.719118	-3.568194E+9	-1.340125E-11	NaN
1020	1.000000	0.472980	7.37503e+06	-51139.1	1055.82	-29753.2	0.000000	0.000000	6.472891	-0.056729	NaN	0.000000	0.001589	0.001690	28.0823	0.026739	0.002090	12.7963	-87.9067	8.572597	-0.037454	0.471642	-0.708487	-0.709825	-0.056729	12.7963	-0.705162	-2.301508E+9	2.464868E-11	NaN
1020	1.000000	0.483004	7.37503e+06	-51139.1	1055.82	-29753.2	0.000000	0.000000	6.482916	-0.019491	NaN	0.000000	0.001540	0.001699	28.0824	0.050676	0.002153	23.5422	-7.570328	-169.305	-0.013378	0.481694	-0.698463	-0.699773	-0.019491	23.5422	-0.697842	-1.828345E+9	1.066037E-11	NaN
1020	1.000000	0.493005	7.37503e+06	-51139.1	1055.82	-29753.2	0.000000	0.000000	6.492918	-0.004148	NaN	0.000000	0.001562	0.001720	28.0824	0.049746	0.002020	24.6274	-58.0331	13.5353	-0.033823	0.491693	-0.688461	-0.689774	-0.004148	24.6274	-0.688335	-1.355694E+9	3.059328E-12	NaN
1020	1.000000	0.503045	7.37503e+06	-51139.1	1055.82	-29753.2	0.000000	0.000000	6.502959	0.010217	NaN	0.000000	0.001530	0.001709	28.0823	0.022631	0.002055	11.0102	-119.259	-167.038	-0.018281	0.501742	-0.678421	-0.679725	0.010217	11.0102	-0.679117	-1.014226E+9	-1.007415E-11	NaN
1020	1.000000	0.513018	7.37503e+06	-51139.1	1055.82	-29753.2	0.000000	0.000000	6.512931	-0.014398	NaN	0.000000	0.001515	0.001659	28.0826	0.024146	0.002117	11.4047	-119.946	14.854	-0.026286	0.511730	-0.668448	-0.669737	-0.014398	11.4047	-0.667502	-7.033836E+8	2.046894E-11	NaN
1020	1.000000	0.523042	7.37503e+06	-51139.1	1055.82	-29753.2	0.000000	0.000000	6.522955	-0.011082	NaN	0.000000	0.001504	0.001671	28.0828	0.084288	0.001853	45.4964	39.5373	-167.215	-0.005830	0.521713	-0.658424	-0.659754	-0.011082	45.4964	-0.658242	-5.252693E+8	2.109729E-11	NaN
1020	1.000000	0.533034	7.37503e+06	-51139.1	1055.82	-29753.2	0.000000	0.000000	6.532947	0.011912	NaN	0.000000	0.001537	0.001682	28.0825	0.084639	0.001875	45.1324	-38.6557	12.139	-0.033823	0.531692	-0.648433	-0.649774	0.011912	45.1324	-0.648631	-3.878524E+8	-3.071274E-11	NaN
1020	1.000000	0.543018	7.37503e+06	-51139.1	1055.82	-29753.2	0.000000	0.000000	6.542930	-0.051734	NaN	0.000000	0.001536	0.001697	28.0825	0.029535	0.001992	14.8281	125.077	-168.687	-0.093929	0.541724	-0.638448	-0.639743	-0.051734	14.8281	-0.635832	-2.588725E+8	1.998429E-10	NaN
1020	1.000000	0.553028	7.37503e+06	-51139.1	1055.82	-29753.2	0.000000	0.000000	6.552940	-0.023463	NaN	0.000000	0.001546	0.001657	28.0825	0.023594	0.002095	11.2616	64.696	11.6598	-0.052893	0.551642	-0.628439	-0.629824	-0.023463	11.2616	-0.626876	-1.950385E+8	1.202982E-10	NaN
1020	1.000000	0.563047	7.37503e+06	-51139.1	1055.82	-29753.2	0.000000	0.000000	6.562961	0.018399	NaN	0.000000	0.001527	0.001688	28.0836	0.106297	0.001930	55.0691	29.4867	-169.074	-0.076744	0.561759	-0.618420	-0.619708	0.018399	55.0691	-0.618670	-1.504371E+8	-1.223057E-10	NaN
1020	1.000000	0.573086	7.37503e+06	-51139.1	1055.82	-29753.2	0.000000	0.000000	6.573001	0.036810	NaN	0.000000	0.001494	0.001657	28.0836	0.060039	0.001904	31.5351	57.7414	6.371808	-0.024266	0.571710	-0.608380	-0.609757	0.036810	31.5351	-0.609256	-1.116539E+8	-3.296786E-10	NaN
1020	1.000000	0.583036	7.37503e+06	-51139.1	1055.82	-29753.2	0.000000	0.000000	6.582952	0.062681	NaN	0.000000	0.001540	0.001659	28.0836	0.052949	0.001852	28.5881	-128.977	-167.356	-0.038635	0.581725	-0.598430	-0.599742	0.062681	28.5881	-0.600075	-8.346213E+7	-7.510147E-10	NaN
1020	1.000000	0.593063	7.37503e+06	-51139.1	1055.82	-29753.2	0.000000	0.000000	6.592976	-0.012982	NaN	0.000000	0.001588	0.001661	28.0838	0.036944	0.002030	18.2	-132.165	12.9644	-0.031399	0.591675	-0.588403	-0.589792	-0.012982	18.2	-0.587868	-5.665979E+7	2.291287E-10	NaN
1020	1.000000	0.603050	7.37503e+06	-51139.1	1055.82	-29753.2	0.000000	0.000000	6.602963	0.001992	NaN	0.000000	0.001598	0.001666	28.0837	0.032858	0.001966	16.7111	150.701	-162.563	0.038589	0.601734	-0.578417	-0.579733	0.001992	16.7111	-0.578507	-4.208357E+7	-4.734578E-11	NaN
1020	1.000000	0.613070	7.37503e+06	-51139.1	1055.82	-29753.2	0.000000	0.000000	6.612984	0.020219	NaN	0.000000	0.001557	0.001687	28.0837	0.084562	0.001956	43.2383	-91.0367	10.2614	0.030684	0.611706	-0.568397	-0.569760	0.020219	43.2383	-0.568748	-3.085531E+7	-6.552721E-10	NaN
1020	1.000000	0.623071	7.37503e+06	-51139.1	1055.82	-29753.2	0.000000	0.000000	6.622981	-0.092390	NaN	0.000000	0.001586	0.001699	28.0834	0.078783	0.001979	39.8091	-160.693	-168.236	-0.112625	0.621773	-0.558395	-0.559693	-0.092390	39.8091	-0.556655	-2.099370E+7	4.400850E-9	NaN
1020	1.000000	0.633080	7.37503e+06	-51139.1	1055.82	-29753.2	0.000000	0.000000	6.632991	-0.054790	NaN	0.000000	0.001567	0.001703	28.0836	0.075340	0.001904	39.5729	-42.7366	10.8817	-0.023462	0.631753	-0.548387	-0.549714	-0.054790	39.5729	-0.547348	-1.560347E+7	3.511404E-9	NaN
1020	1.000000	0.643082	7.37503e+06	-51139.1	1055.82	-29753.2	0.000000	0.000000	6.642994	-0.036797	NaN	0.000000	0.001576	0.001677	28.0833	0.087610	0.001912	45.8223	60.576	-166.122	-0.024654	0.641744	-0.538385	-0.539723	-0.036797	45.8223	-0.537782	-1.149734E+7	3.200494E-9	NaN
1020	1.000000	0.653072	7.37503e+06	-51139.1	1055.82	-29753.2	0.000000	0.000000	6.652985	-0.011914	NaN	0.000000	0.001569	0.001689	28.0836	0.066793	0.002009	33.2533	77.6717	13.5281	-0.002549	0.651653	-0.528394	-0.529814	-0.011914	33.2533	-0.528126	-8.44382e+06	1.410946E-9	NaN
1020	1.000000	0.663096	7.37503e+06	-51139.1	1055.82	-29753.2	0.000000	0.000000	6.663007	-0.055307	NaN	0.000000	0.001543	0.001699	28.0834	0.045989	0.001976	23.2689	174.119	-165.98	-0.034140	0.661775	-0.518371	-0.519691	-0.055307	23.2689	-0.516588	-5.8363e+06	9.476379E-9	NaN
1020	1.000000	0.673086	7.37503e+06	-51139.1	1055.82	-29753.2	0.000000	0.000000	6.672998	-0.033632	NaN	0.000000	0.001524	0.001656	28.0837	0.052960	0.002038	25.9802	-59.5155	12.2649	-0.057642	0.671686	-0.508380	-0.509780	-0.033632	25.9802	-0.507409	-4.34836e+06	7.734454E-9	NaN
1020	1.000000	0.683103	7.37503e+06	-51139.1	1055.82	-29753.2	0.000000	0.000000	6.683017	0.007579	NaN	0.000000	0.001558	0.001682	28.0835	0.115779	0.001885	61.4283	24.3679	-170.619	-0.003937	0.681755	-0.498363	-0.499711	0.007579	61.4283	-0.498456	-3.26193e+06	-2.323547E-9	NaN
1020	1.000000	0.693119	7.37503e+06	-51139.1	1055.82	-29753.2	0.000000	0.000000	6.693032	0.012003	NaN	0.000000	0.001575	0.001675	28.0837	0.101221	0.001905	53.1468	151.703	12.5056	0.023357	0.691733	-0.488348	-0.489734	0.012003	53.1468	-0.488517	-2.36958e+06	-5.065276E-9	NaN
1020	1.000000	0.703130	7.37503e+06	-51139.1	1055.82	-29753.2	0.000000	0.000000	6.703043	-0.004450	NaN	0.000000	0.001562	0.001674	28.0825	0.106864	0.001969	54.267	-123.019	-164.735	-0.046648	0.701751	-0.478337	-0.479716	-0.004450	54.267	-0.478275	-1.70365e+06	2.612027E-9	NaN
1020	1.000000	0.713126	7.37503e+06	-51139.1	1055.82	-29753.2	0.000000	0.000000	6.713036	-0.071043	NaN	0.000000	0.001638	0.001655	28.0823	0.061491	0.001995	30.8199	-116.667	12.2964	0.043021	0.711717	-0.468341	-0.469750	-0.071043	30.8199	-0.466612	-1.16916e+06	6.076398E-8	NaN
1020	1.000000	0.723148	7.37503e+06	-51139.1	1055.82	-29753.2	0.000000	0.000000	6.723059	-0.043100	NaN	0.000000	0.001620	0.001665	28.0826	0.105758	0.002099	50.3955	-126.43	-165.808	-0.010633	0.721815	-0.458319	-0.459652	-0.043100	50.3955	-0.457678	-875735	4.921588E-8	NaN
1020	1.000000	0.733122	7.37503e+06	-51139.1	1055.82	-29753.2	0.000000	0.000000	6.733035	-0.010907	NaN	0.000000	0.001641	0.001669	28.0824	0.090226	0.001899	47.5165	-81.8809	11.763	-0.009285	0.731747	-0.448345	-0.449720	-0.010907	47.5165	-0.448173	-643585	1.694678E-8	NaN
1020	1.000000	0.743128	7.37503e+06	-51139.1	1055.82	-29753.2	0.000000	0.000000	6.743041	-0.016697	NaN	0.000000	0.001609	0.001691	28.0822	0.035787	0.001983	18.0471	95.1124	-166.699	-0.073250	0.741863	-0.438339	-0.439604	-0.016697	18.0471	-0.437645	-457206	3.651923E-8	NaN
1020	1.000000	0.753105	7.37503e+06	-51139.1	1055.82	-29753.2	0.000000	0.000000	6.753019	0.016816	NaN	0.000000	0.001602	0.001727	28.0821	0.006759	0.001933	3.496060	-95.1773	16.7786	-0.001526	0.751750	-0.428361	-0.429716	0.016816	3.496060	-0.431969	-380109	-4.424101E-8	NaN
1020	1.000000	0.763138	7.37503e+06	-51139.1	1055.82	-29753.2	0.000000	0.000000	6.763050	-0.033941	NaN	0.000000	0.001591	0.001687	28.0823	0.063466	0.002115	30.0038	-157.697	-165.785	0.012145	0.761828	-0.418328	-0.419638	-0.033941	30.0038	-0.417480	-236954	1.432381E-7	NaN
1020	1.000000	0.773108	7.37503e+06	-51139.1	1055.82	-29753.2	0.000000	0.000000	6.773021	-0.005209	NaN	0.000000	0.001589	0.001728	28.0825	0.140173	0.002018	69.4446	75.1835	13.19	-0.053653	0.771790	-0.408359	-0.409676	-0.005209	69.4446	-0.408303	-175492	2.968268E-8	NaN
1020	1.000000	0.783140	7.37503e+06	-51139.1	1055.82	-29753.2	0.000000	0.000000	6.783053	-0.004152	NaN	0.000000	0.001598	0.001676	28.0823	0.049788	0.002025	24.5869	50.7396	-167.885	-0.066672	0.781892	-0.398327	-0.399574	-0.004152	24.5869	-0.398200	-125984	3.295368E-8	NaN
1020	1.000000	0.793136	7.37503e+06	-51139.1	1055.82	-29753.2	0.000000	0.000000	6.793049	0.007165	NaN	0.000000	0.001526	0.001650	28.0823	0.048123	0.001973	24.3951	-178.747	12.2504	0.057337	0.791861	-0.388331	-0.389606	0.007165	24.3951	-0.388551	-91715.1	-7.812147E-8	NaN
1020	1.000000	0.803154	7.37503e+06	-51139.1	1055.82	-29753.2	0.000000	0.000000	6.803069	0.053504	NaN	0.000000	0.001531	0.001658	28.0822	0.060900	0.002080	29.2759	-21.2699	-168.374	0.038994	0.801852	-0.378313	-0.379615	0.053504	29.2759	-0.379684	-68446.2	-7.816995E-7	NaN
1020	1.000000	0.813136	7.37503e+06	-51139.1	1055.82	-29753.2	0.000000	0.000000	6.813048	-0.019069	NaN	0.000000	0.001544	0.001637	28.0823	0.063524	0.002106	30.1607	51.252	14.9768	-0.017630	0.811752	-0.368331	-0.369715	-0.019069	30.1607	-0.367857	-46264.5	4.121643E-7	NaN
1020	1.000000	0.823155	7.37503e+06	-51139.1	1055.82	-29753.2	0.000000	0.000000	6.823067	-0.035625	NaN	0.000000	0.001527	0.001645	28.0822	0.150722	0.002055	73.3553	152.065	-166.344	-0.026909	0.821856	-0.358311	-0.359611	-0.035625	73.3553	-0.357947	-33277.9	1.070523E-6	NaN
1020	1.000000	0.833153	7.37503e+06	-51139.1	1055.82	-29753.2	0.000000	0.000000	6.833066	-0.007973	NaN	0.000000	0.001529	0.001676	28.0823	0.103251	0.002065	50.0067	73.6673	11.4983	-0.000918	0.831813	-0.348314	-0.349654	-0.007973	50.0067	-0.348194	-24031.8	3.317514E-7	NaN
1020	1.000000	0.843176	7.37503e+06	-51139.1	1055.82	-29753.2	0.000000	0.000000	6.843088	-0.029386	NaN	0.000000	0.001548	0.001692	28.0837	0.107861	0.002046	52.7175	145.707	-167.692	-0.053299	0.841869	-0.338291	-0.339597	-0.029386	52.7175	-0.337873	-17003.3	1.728235E-6	NaN
1020	1.000000	0.853199	7.37503e+06	-51139.1	1055.82	-29753.2	0.000000	0.000000	6.853112	-0.002683	NaN	0.000000	0.001508	0.001641	28.0835	0.065054	0.001992	32.6529	-158.662	12.9119	0.018745	0.851841	-0.328267	-0.329626	-0.002683	32.6529	-0.328206	-12279	2.184867E-7	NaN
1020	1.000000	0.863202	7.37503e+06	-51139.1	1055.82	-29753.2	0.000000	0.000000	6.863115	-0.015148	NaN	0.000000	0.001526	0.001678	28.0836	0.081231	0.001931	42.0723	-120.119	-167.029	-0.042812	0.861853	-0.318265	-0.319614	-0.015148	42.0723	-0.317995	-8691.75	1.742819E-6	NaN
1020	1.000000	0.873192	7.37503e+06	-51139.1	1055.82	-29753.2	0.000000	0.000000	6.873106	0.021722	NaN	0.000000	0.001566	0.001642	28.0836	0.073870	0.001912	38.633	72.06	11.2941	0.092361	0.871851	-0.308275	-0.309615	0.021722	38.633	-0.308697	-6335.19	-3.428792E-6	NaN
1020	1.000000	0.883200	7.37503e+06	-51139.1	1055.82	-29753.2	0.000000	0.000000	6.883112	-0.021293	NaN	0.000000	0.001563	0.001638	28.0836	0.027111	0.002047	13.2415	13.6032	-164.795	0.041214	0.881838	-0.298267	-0.299629	-0.021293	13.2415	-0.297061	-4254.46	5.004920E-6	NaN
1020	1.000000	0.893163	7.37503e+06	-51139.1	1055.82	-29753.2	0.000000	0.000000	6.893077	0.021704	NaN	0.000000	0.001532	0.001636	28.0834	0.105727	0.001859	56.879	-29.7567	11.2024	0.038500	0.891827	-0.288304	-0.289639	0.021704	56.879	-0.288590	-3178.13	-6.829237E-6	NaN
1020	1.000000	0.903214	7.37503e+06	-51139.1	1055.82	-29753.2	0.000000	0.000000	6.903128	0.020362	NaN	0.000000	0.001541	0.001653	28.0836	0.016287	0.002014	8.088074	67.6474	-166.787	-0.023648	0.901863	-0.278253	-0.279604	0.020362	8.088074	-0.280141	-2371.93	-8.584444E-6	NaN
1020	1.000000	0.913226	7.37503e+06	-51139.1	1055.82	-29753.2	0.000000	0.000000	6.913137	-0.038276	NaN	0.000000	0.001515	0.001668	28.0835	0.015390	0.002021	7.615372	83.7051	14.1434	-0.114279	0.911853	-0.268241	-0.269614	-0.038276	7.615372	-0.264471	-1371.89	2.790029E-5	NaN
1020	1.000000	0.923197	7.37503e+06	-51139.1	1055.82	-29753.2	0.000000	0.000000	6.923106	-0.092160	NaN	0.000000	0.001550	0.001686	28.0837	0.061880	0.002170	28.5109	-75.6423	-162.07	-0.002667	0.921892	-0.258270	-0.259574	-0.092160	28.5109	-0.255845	-1011.87	9.107904E-5	NaN
1020	1.000000	0.933228	7.37503e+06	-51139.1	1055.82	-29753.2	0.000000	0.000000	6.933142	0.015201	NaN	0.000000	0.001504	0.001624	28.0832	0.049424	0.002104	23.4879	-6.697849	14.0594	0.085370	0.931800	-0.248238	-0.249667	0.015201	23.4879	-0.248724	-785.623	-1.934834E-5	NaN
1020	1.000000	0.943229	7.37503e+06	-51139.1	1055.82	-29753.2	0.000000	0.000000	6.943140	-0.054135	NaN	0.000000	0.001573	0.001663	28.0842	0.014317	0.001958	7.310390	-3.036585	-166.554	-0.079598	0.941888	-0.238238	-0.239578	-0.054135	7.310390	-0.232684	-441.402	0.000123	NaN
1020	1.000000	0.953226	7.37503e+06	-51139.1	1055.82	-29753.2	0.000000	0.000000	6.953139	-0.016249	NaN	0.000000	0.001556	0.001693	28.0834	0.039847	0.001965	20.2819	-51.738	13.3561	-0.027050	0.951863	-0.228241	-0.229603	-0.016249	20.2819	-0.227640	-367.449	4.422225E-5	NaN
1020	1.000000	0.963224	7.37503e+06	-51139.1	1055.82	-29753.2	0.000000	0.000000	6.963135	-0.030206	NaN	0.000000	0.001604	0.001657	28.0837	0.033720	0.001962	17.1848	25.476	-167.017	-0.006613	0.961909	-0.218243	-0.219557	-0.030206	17.1848	-0.216925	-247.991	0.000122	NaN
1020	1.000000	0.973219	7.37503e+06	-51139.1	1055.82	-29753.2	0.000000	0.000000	6.973131	-0.021916	NaN	0.000000	0.001586	0.001635	28.0822	0.075440	0.001972	38.2561	76.5841	10.2705	-0.060772	0.971853	-0.208248	-0.209614	-0.021916	38.2561	-0.207818	-176.78	0.000124	NaN
1020	1.000000	0.983209	7.37503e+06	-51139.1	1055.82	-29753.2	0.000000	0.000000	6.983119	-0.083721	NaN	0.000000	0.001569	0.001678	28.0829	0.054191	0.001973	27.4672	-132.188	-166.066	-0.052440	0.981892	-0.198257	-0.199575	-0.083721	27.4672	-0.195971	-113.053	0.000741	NaN
1020	1.000000	0.993223	7.37503e+06	-51139.1	1055.82	-29753.2	0.000000	0.000000	6.993134	-0.052362	NaN	0.000000	0.001568	0.001662	28.0826	0.022992	0.002108	10.9074	31.0188	15.6313	-0.070731	0.991870	-0.188244	-0.189597	-0.052362	10.9074	-0.184643	-73.1334	0.000716	NaN
1020	1.000000	1.003256	7.37503e+06	-51139.1	1055.82	-29753.2	0.000000	0.000000	7.003169	-0.011634	NaN	0.000000	0.001547	0.001650	28.0825	0.123300	0.002006	61.4723	73.4735	-166.196	-0.030260	1.001926	-0.178211	-0.179541	-0.011634	61.4723	-0.178069	-56.5654	0.000206	NaN
1020	1.000000	1.013226	7.37503e+06	-51139.1	1055.82	-29753.2	0.000000	0.000000	7.013137	-0.047875	NaN	0.000000	0.001550	0.001676	28.0823	0.155283	0.001936	80.2122	72.4023	12.2175	0.048967	1.011881	-0.168241	-0.169586	-0.047875	80.2122	-0.167793	-37.6011	0.001273	NaN
1020	1.000000	1.023202	7.37503e+06	-51139.1	1055.82	-29753.2	0.000000	0.000000	7.023113	-0.033543	NaN	0.000000	0.001602	0.001695	28.0827	0.118688	0.001853	64.0634	-100.59	-165.328	0.013633	1.021908	-0.158265	-0.159559	-0.033543	64.0634	-0.157872	-25.1234	0.001335	NaN
1020	1.000000	1.033248	7.37503e+06	-51139.1	1055.82	-29753.2	0.000000	0.000000	7.033160	-0.031913	NaN	0.000000	0.001605	0.001704	28.0823	0.147458	0.002078	70.9608	160.338	12.8267	-0.060003	1.031887	-0.148218	-0.149580	-0.031913	70.9608	-0.147881	-16.5671	0.001926	NaN
1020	1.000000	1.043259	7.37503e+06	-51139.1	1055.82	-29753.2	0.000000	0.000000	7.043173	0.004871	NaN	0.000000	0.001624	0.001674	28.0824	0.008661	0.001965	4.406956	63.7921	-164.154	0.021543	1.041957	-0.138208	-0.139510	0.004871	4.406956	-0.139036	-11.3459	-0.000429	NaN
1020	1.000000	1.053260	7.37503e+06	-51139.1	1055.82	-29753.2	0.000000	0.000000	7.053170	-0.078314	NaN	0.000000	0.001633	0.001688	28.0824	0.066776	0.001995	33.4673	-106.769	10.9732	-0.057618	1.051894	-0.128206	-0.129573	-0.078314	33.4673	-0.126451	-6.495780	0.012056	NaN
1020	1.000000	1.063268	7.37503e+06	-51139.1	1055.82	-29753.2	0.000000	0.000000	7.063180	-0.039232	NaN	0.000000	0.001615	0.001644	28.0824	0.061190	0.002018	30.3265	78.2202	-167.456	0.093266	1.061954	-0.118198	-0.119513	-0.039232	30.3265	-0.117228	-4.244384	0.009243	NaN
1020	1.000000	1.073246	7.37503e+06	-51139.1	1055.82	-29753.2	0.000000	0.000000	7.073158	-0.025217	NaN	0.000000	0.001627	0.001701	28.0823	0.011674	0.001935	6.032799	-173.416	12.1761	-0.052235	1.071890	-0.108221	-0.109577	-0.025217	6.032799	-0.105086	-2.360624	0.010682	NaN
1020	1.000000	1.083265	7.37503e+06	-51139.1	1055.82	-29753.2	0.000000	0.000000	7.083178	0.004843	NaN	0.000000	0.001607	0.001679	28.0822	0.069963	0.002006	34.8832	-5.272079	-169.483	-0.057012	1.081999	-0.098202	-0.099468	0.004843	34.8832	-0.098306	-1.675125	-0.002891	NaN
1020	1.000000	1.093232	7.37503e+06	-51139.1	1055.82	-29753.2	0.000000	0.000000	7.093144	-0.040562	NaN	0.000000	0.001614	0.001665	28.0824	0.105244	0.001978	53.1995	-24.5003	15.0091	0.030792	1.091890	-0.088234	-0.089576	-0.040562	53.1995	-0.087662	-0.951867	0.042613	NaN
1020	1.000000	1.103250	7.37503e+06	-51139.1	1055.82	-29753.2	0.000000	0.000000	7.103165	0.055287	NaN	0.000000	0.001617	0.001683	28.0824	0.066355	0.001972	33.6425	35.3628	-165.552	0.063977	1.101969	-0.078217	-0.079498	0.055287	33.6425	-0.079449	-0.599640	-0.092200	NaN
1020	1.000000	1.113240	7.37503e+06	-51139.1	1055.82	-29753.2	0.000000	0.000000	7.113154	0.015982	NaN	0.000000	0.001585	0.001705	28.0835	0.064577	0.001985	32.5372	-125.642	11.1197	-0.024016	1.111918	-0.068226	-0.069549	0.015982	32.5372	-0.068595	-0.312654	-0.051119	NaN
1020	1.000000	1.123263	7.37503e+06	-51139.1	1055.82	-29753.2	0.000000	0.000000	7.123174	-0.056195	NaN	0.000000	0.001556	0.001711	28.0834	0.120040	0.001954	61.4449	116.94	-168.263	-0.093633	1.121965	-0.058204	-0.059502	-0.056195	61.4449	-0.057518	-0.152663	0.368101	NaN
1020	1.000000	1.133267	7.37503e+06	-51139.1	1055.82	-29753.2	0.000000	0.000000	7.133184	0.077124	NaN	0.000000	0.001584	0.001672	28.0839	0.067225	0.001947	34.5195	-22.4338	13.3017	0.009834	1.131904	-0.048199	-0.049562	0.077124	34.5195	-0.049875	-0.090460	-0.852580	NaN
1020	1.000000	1.143264	7.37503e+06	-51139.1	1055.82	-29753.2	0.000000	0.000000	7.143178	0.033763	NaN	0.000000	0.001535	0.001680	28.0835	0.044577	0.002127	20.9578	98.472	-165.856	0.024553	1.141981	-0.038203	-0.039486	0.033763	20.9578	-0.039411	-0.043400	-0.777959	NaN
1020	1.000000	1.153294	7.37503e+06	-51139.1	1055.82	-29753.2	0.000000	0.000000	7.153208	0.023385	NaN	0.000000	0.001521	0.001644	28.0835	0.100740	0.001947	51.7327	64.1379	13.8754	0.004503	1.151991	-0.028173	-0.029475	0.023385	51.7327	-0.028512	-0.020937	-1.116939	NaN
1020	1.000000	1.163262	7.37503e+06	-51139.1	1055.82	-29753.2	0.000000	0.000000	7.163174	-0.030818	NaN	0.000000	0.001577	0.001650	28.0837	0.013637	0.002153	6.334671	52.5	-165.32	-0.086899	1.162027	-0.018205	-0.019439	-0.030818	6.334671	-0.014556	-0.009011	3.420032	NaN
1020	1.000000	1.173295	7.37503e+06	-51139.1	1055.82	-29753.2	0.000000	0.000000	7.173207	-0.027617	NaN	0.000000	0.001594	0.001681	28.0836	0.041103	0.001973	20.8326	-5.462315	11.932	-0.059027	1.171940	-0.008172	-0.009527	-0.027617	20.8326	-0.007178	-0.004746	5.818532	NaN
1020	1.000000	1.183298	7.37503e+06	-51139.1	1055.82	-29753.2	0.000000	0.000000	7.183224	0.312189	NaN	0.000000	0.001579	0.001658	28.0835	0.603590	0.001972	306.068	25.4363	-168.097	0.070110	1.181964	0.001831	0.000497	0.312189	306.068	0.001066	0.000813	383.838	9805.2
1020	2.000000	1.191414	7.37503e+06	-51139.1	1055.82	-29753.2	0.000000	0.000000	7.191660	8.088682	NaN	0.000000	0.001567	0.001698	28.0837	8.380841	0.001694	4945.94	5.327789	8.724075	7.554221	1.191008	0.009947	0.009542	8.088682	4945.94	0.008721	0.007794	1037.77	51183.9
1020	2.000000	1.193868	7.37503e+06	-51139.1	1055.82	-29753.2	0.000000	0.000000	7.194312	12.8982	NaN	0.000000	0.001554	0.001743	28.0837	11.9349	0.001778	6712.07	8.926494	-177.359	12.1557	1.193562	0.012402	0.012096	12.8982	6712.07	0.010960	0.010268	1256.09	60516.8
1020	2.000000	1.196413	7.37503e+06	-51139.1	1055.82	-29753.2	0.000000	0.000000	7.196985	16.0169	NaN	0.000000	0.001572	0.001674	28.0835	13.5121	0.001654	8170.62	7.320801	4.616368	16.9382	1.195959	0.014947	0.014492	16.0169	8170.62	0.013477	0.013307	1203.63	64712.1
1020	2.000000	1.198859	7.37503e+06	-51139.1	1055.82	-29753.2	0.000000	0.000000	7.199613	20.4468	NaN	0.000000	0.001528	0.001711	28.0836	16.3851	0.001913	8565.25	5.305403	-174.42	20.0319	1.198511	0.017392	0.017044	20.4468	8565.25	0.015602	0.016096	1270.31	61681.5
1020	2.000000	1.201331	7.37503e+06	-51139.1	1055.82	-29753.2	0.000000	0.000000	7.202254	24.5516	NaN	0.000000	0.001593	0.001686	28.0838	18.8854	0.001834	10299	6.252043	1.911038	22.6049	1.200932	0.019865	0.019465	24.5516	10299	0.018077	0.019610	1252	67194.3
1020	2.000000	1.203776	7.37503e+06	-51139.1	1055.82	-29753.2	0.000000	0.000000	7.204921	29.9379	NaN	0.000000	0.001550	0.001673	28.0837	20.8802	0.001671	12498	5.160953	-179.142	28.1482	1.203520	0.022310	0.022053	29.9379	12498	0.020513	0.023355	1281.86	74717.4
1020	2.000000	1.206365	7.37503e+06	-51139.1	1055.82	-29753.2	0.000000	0.000000	7.207756	35.9439	NaN	0.000000	0.001552	0.001696	28.0826	23.4036	0.001855	12616.8	4.727754	3.046323	35.6637	1.205954	0.024898	0.024488	35.9439	12616.8	0.022762	0.027069	1327.86	70062.5
1020	2.000000	1.208780	7.37503e+06	-51139.1	1055.82	-29753.2	0.000000	0.000000	7.210460	42.9425	NaN	0.000000	0.001595	0.001675	28.0823	25.5524	0.001846	13842.7	3.311005	-176.859	40.9515	1.208452	0.027314	0.026986	42.9425	13842.7	0.024987	0.030992	1385.59	71840
1020	2.000000	1.211249	7.37503e+06	-51139.1	1055.82	-29753.2	0.000000	0.000000	7.213362	53.4987	NaN	0.000000	0.001577	0.001680	28.083	28.376	0.001669	17005.7	5.555004	-2.664954	51.1807	1.210937	0.029782	0.029470	53.4987	17005.7	0.027423	0.035571	1503.99	82379.6
1020	2.000000	1.213756	7.37503e+06	-51139.1	1055.82	-29753.2	0.000000	0.000000	7.216017	57.0867	NaN	0.000000	0.001555	0.001634	28.0822	31.6209	0.001808	17489.2	6.464627	176.296	55.7717	1.213552	0.032290	0.032085	57.0867	17489.2	0.029842	0.040416	1412.48	79481.5
1020	2.000000	1.216338	7.37503e+06	-51139.1	1055.82	-29753.2	0.000000	0.000000	7.219069	68.5102	NaN	0.000000	0.001637	0.001703	28.0828	33.1541	0.001772	18705.4	4.366840	-1.654081	67.0881	1.215934	0.034872	0.034468	68.5102	18705.4	0.032125	0.045263	1513.61	80328.3
1020	2.000000	1.218871	7.37503e+06	-51139.1	1055.82	-29753.2	0.000000	0.000000	7.221711	71.1709	NaN	0.000000	0.001624	0.001696	28.0824	35.3962	0.001792	19755.9	5.277171	177.793	76.4581	1.218601	0.037404	0.037134	71.1709	19755.9	0.034702	0.051054	1394.02	79883
1020	2.000000	1.221270	7.37503e+06	-51139.1	1055.82	-29753.2	0.000000	0.000000	7.224745	86.6123	NaN	0.000000	0.001520	0.001681	28.0828	37.6127	0.001840	20441.9	5.899897	-3.377176	84.0971	1.220893	0.039803	0.039426	86.6123	20441.9	0.036625	0.055598	1557.84	79207.3
1020	2.000000	1.223783	7.37503e+06	-51139.1	1055.82	-29753.2	0.000000	0.000000	7.227513	92.8212	NaN	0.000000	0.001532	0.001662	28.0823	39.9622	0.001888	21164.6	2.443455	179.383	91.8534	1.223527	0.042316	0.042060	92.8212	21164.6	0.039027	0.061538	1508.37	77949.6
1020	2.000000	1.226238	7.37503e+06	-51139.1	1055.82	-29753.2	0.000000	0.000000	7.230477	105.185	NaN	0.000000	0.001497	0.001671	28.0827	42.0969	0.001765	23855.4	5.499043	-4.462563	102.687	1.225953	0.044771	0.044486	105.185	23855.4	0.041465	0.067868	1549.84	83661.9
1020	2.000000	1.228707	7.37503e+06	-51139.1	1055.82	-29753.2	0.000000	0.000000	7.233241	112.358	NaN	0.000000	0.001535	0.001659	28.0823	44.2313	0.001852	23887.4	5.994995	174.862	109.693	1.228473	0.047241	0.047006	112.358	23887.4	0.043713	0.073976	1518.85	80241.2
1020	2.000000	1.231260	7.37503e+06	-51139.1	1055.82	-29753.2	0.000000	0.000000	7.236315	125.027	NaN	0.000000	0.001538	0.001666	28.0826	46.1793	0.001831	25224.7	4.151248	-4.004668	121.99	1.230872	0.049793	0.049406	125.027	25224.7	0.046076	0.080671	1549.85	81141.3
1020	2.000000	1.233695	7.37503e+06	-51139.1	1055.82	-29753.2	0.000000	0.000000	7.239264	137.533	NaN	0.000000	0.001523	0.001674	28.0822	48.5131	0.001758	27595.1	2.462744	177.455	133.801	1.233436	0.052228	0.051970	137.533	27595.1	0.048490	0.087803	1566.39	85084.7
1020	2.000000	1.236285	7.37503e+06	-51139.1	1055.82	-29753.2	0.000000	0.000000	7.242355	149.734	NaN	0.000000	0.001559	0.001696	28.0827	50.68	0.001816	27909.3	6.178057	-5.836602	148.053	1.235797	0.054818	0.054331	149.734	27909.3	0.050794	0.094883	1578.09	82780.3
1020	2.000000	1.238751	7.37503e+06	-51139.1	1055.82	-29753.2	0.000000	0.000000	7.245297	161.275	NaN	0.000000	0.001553	0.001681	28.0835	51.9491	0.001721	30185.7	3.553604	176.257	159.877	1.238376	0.057285	0.056909	161.275	30185.7	0.053278	0.102813	1568.63	86010.3
1020	2.000000	1.241210	7.37503e+06	-51139.1	1055.82	-29753.2	0.000000	0.000000	7.248329	175.22	NaN	0.000000	0.001570	0.001664	28.0841	54.9775	0.001832	30016.7	6.177475	-6.032754	171.327	1.240891	0.059743	0.059425	175.22	30016.7	0.055365	0.109716	1597.03	82794.5
1020	2.000000	1.243710	7.37503e+06	-51139.1	1055.82	-29753.2	0.000000	0.000000	7.251375	188.502	NaN	0.000000	0.001532	0.001666	28.0834	57.2787	0.001763	32486	3.899590	174.523	185.263	1.243411	0.062243	0.061945	188.502	32486	0.057891	0.118356	1592.68	86273.1
1020	2.000000	1.246222	7.37503e+06	-51139.1	1055.82	-29753.2	0.000000	0.000000	7.254563	204.923	NaN	0.000000	0.001553	0.001684	28.0837	59.6839	0.001809	32992.9	7.514565	-7.963587	201.278	1.245802	0.064756	0.064336	204.923	32992.9	0.060097	0.126158	1624.34	84866.5
1020	2.000000	1.248830	7.37503e+06	-51139.1	1055.82	-29753.2	0.000000	0.000000	7.257539	213.882	NaN	0.000000	0.001614	0.001694	28.0835	62.1956	0.001701	36567.7	3.021514	175.326	219.575	1.248434	0.067364	0.066967	213.882	36567.7	0.062977	0.136699	1564.61	90362.3
1020	2.000000	1.251178	7.37503e+06	-51139.1	1055.82	-29753.2	0.000000	0.000000	7.260565	230.355	NaN	0.000000	0.001584	0.001681	28.0837	65.2403	0.001760	37072.6	4.064995	-5.873050	226.083	1.250779	0.069712	0.069312	230.355	37072.6	0.065052	0.144543	1593.68	89089.7
1020	2.000000	1.253717	7.37503e+06	-51139.1	1055.82	-29753.2	0.000000	0.000000	7.263836	248.172	NaN	0.000000	0.001552	0.001685	28.0836	68.5372	0.001854	36965.9	4.831489	173.091	247.76	1.253453	0.072250	0.071986	248.172	36965.9	0.067215	0.152945	1622.62	86358.9
1020	2.000000	1.256274	7.37503e+06	-51139.1	1055.82	-29753.2	0.000000	0.000000	7.266924	261.079	NaN	0.000000	0.001549	0.001677	28.0836	70.1652	0.001821	38526.9	5.084950	-7.294270	260.151	1.255947	0.074808	0.074481	261.079	38526.9	0.069725	0.162972	1601.98	87192.7
1020	2.000000	1.258740	7.37503e+06	-51139.1	1055.82	-29753.2	0.000000	0.000000	7.270112	278.665	NaN	0.000000	0.001560	0.001711	28.0837	72.039	0.001698	42426.8	4.749269	171.613	277.28	1.258419	0.077273	0.076952	278.665	42426.8	0.072347	0.173765	1603.69	92989.2
1020	2.000000	1.261323	7.37503e+06	-51139.1	1055.82	-29753.2	0.000000	0.000000	7.273284	292.969	NaN	0.000000	0.001596	0.001722	28.0839	74.1993	0.001745	42517.6	4.369012	-7.728193	293.422	1.260953	0.079856	0.079486	292.969	42517.6	0.074689	0.183682	1594.98	90637.8
1020	2.000000	1.263665	7.37503e+06	-51139.1	1055.82	-29753.2	0.000000	0.000000	7.276305	309.487	NaN	0.000000	0.001582	0.001725	28.0838	77.1938	0.001774	43506	5.382068	171.229	305.942	1.263554	0.082198	0.082087	309.487	43506	0.076863	0.193120	1602.56	90450
1020	2.000000	1.266241	7.37503e+06	-51139.1	1055.82	-29753.2	0.000000	0.000000	7.279576	326.376	NaN	0.000000	0.001573	0.001680	28.0837	78.6252	0.001717	45794.9	3.600926	-7.559619	324.805	1.266019	0.084774	0.084552	326.376	45794.9	0.079429	0.204546	1595.61	92511.4
1020	2.000000	1.268730	7.37503e+06	-51139.1	1055.82	-29753.2	0.000000	0.000000	7.282892	346.506	NaN	0.000000	0.001569	0.001676	28.084	80.9739	0.001786	45327.7	4.675815	171.71	346.981	1.268319	0.087263	0.086852	346.506	45327.7	0.081530	0.214125	1618.24	89495.9
1020	2.000000	1.271162	7.37503e+06	-51139.1	1055.82	-29753.2	0.000000	0.000000	7.286288	369.932	NaN	0.000000	0.001664	0.001747	28.0837	83.1369	0.001867	44521.5	4.413037	-7.475852	365.753	1.270790	0.089695	0.089323	369.932	44521.5	0.083463	0.223125	1657.96	86113
1020	2.000000	1.273620	7.37503e+06	-51139.1	1055.82	-29753.2	0.000000	0.000000	7.289753	394.423	NaN	0.000000	0.001662	0.001797	28.0825	85.7237	0.001843	46501.8	2.654286	173.803	388.454	1.273394	0.092153	0.091928	394.423	46501.8	0.085792	0.234192	1684.18	87792.3
1020	2.000000	1.276206	7.37503e+06	-51139.1	1055.82	-29753.2	0.000000	0.000000	7.293040	411.46	NaN	0.000000	0.001674	0.001679	28.0835	87.2958	0.001867	46756.3	2.948366	-6.070665	407.759	1.275881	0.094740	0.094414	411.46	46756.3	0.088140	0.245606	1675.29	86197.3
1020	2.000000	1.278727	7.37503e+06	-51139.1	1055.82	-29753.2	0.000000	0.000000	7.296407	432.035	NaN	0.000000	0.001613	0.001670	28.0827	89.08	0.001783	49958.1	3.386967	173.144	431.918	1.278404	0.097260	0.096937	432.035	49958.1	0.090774	0.258713	1669.94	89736.6
1020	2.000000	1.281137	7.37503e+06	-51139.1	1055.82	-29753.2	0.000000	0.000000	7.299747	454.648	NaN	0.000000	0.001570	0.001689	28.0826	92.1766	0.001699	54251.2	5.004355	-9.816975	447.732	1.280630	0.099670	0.099163	454.648	54251.2	0.093385	0.272019	1671.38	95034.8
1020	2.000000	1.283709	7.37503e+06	-51139.1	1055.82	-29753.2	0.000000	0.000000	7.302939	469.714	NaN	0.000000	0.001598	0.001713	28.0826	95.0289	0.001803	52716.9	3.289077	172.018	467.742	1.283438	0.102243	0.101971	469.714	52716.9	0.095560	0.283340	1657.77	90483.3
1020	2.000000	1.286250	7.37503e+06	-51139.1	1055.82	-29753.2	0.000000	0.000000	7.306509	494.738	NaN	0.000000	0.001527	0.001693	28.0827	97.6569	0.001752	55741.2	9.052262	-13.2518	494.598	1.285762	0.104783	0.104295	494.738	55741.2	0.098127	0.296977	1665.92	93452
1020	2.000000	1.288619	7.37503e+06	-51139.1	1055.82	-29753.2	0.000000	0.000000	7.309572	511.624	NaN	0.000000	0.001555	0.001746	28.0826	99.2408	0.001741	56991.6	3.296069	171.539	506.289	1.288409	0.107152	0.106943	511.624	56991.6	0.100420	0.309412	1653.53	93608.5
1020	2.000000	1.289096	7.37503e+06	-51139.1	1055.82	-29753.2	0.000000	0.000000	7.310463	521.684	NaN	0.000000	0.001558	0.001743	28.0827	99.6719	0.001744	57162.5	6.428140	-11.0978	514.707	1.288725	0.107629	0.107258	521.684	57162.5	0.100784	0.311413	1675.21	93587