File: remote_trans/data/nanoindenter/0828-1/data/Data_2025-08-06,11h17m57s/2025-07-22_16-23-58_1_257.txt
2025-07-22, 16:23:58, 1
Index	Phase	Displacement	Time	Pos X	Pos Y	Pos Z	Rot A	Rot B	Piezo Z	Force A	Force B	Gripper	Voltage A	Voltage B	Temperature	Amplitude force	Amplitude pos	Stiffness	Phase shift	Phase excitation	Force A raw	Displacement raw	HMax	HMax raw	Real Force	Real Stiffness	Contact Depth	Area	Hardness	Reduced Mod.
[#]	[#]	[um]	[s]	[um]	[um]	[um]	[m°]	[m°]	[um]	[uN]	[uN]	[V]	[V]	[V]	[°C]	[uN]	[um]	[N/m]	[°]	[°]	[uN]	[um]	[um]	[um]	[uN]	[N/m]	[um]	[um^2]	[MPa]	[MPa]
257	1.000000	0.003130	7.36757e+06	-51489.1	955.818	-29752.3	0.000000	0.000000	6.002826	-0.112792	NaN	0.000000	0.001609	0.001612	28.0793	0.102443	0.000860	119.164	-86.1761	-162.554	-0.039124	0.001841	-1.210305	-1.211594	-0.112792	119.164	-1.209595	-1.476440E+16	7.639446E-18	NaN
257	1.000000	0.013205	7.36757e+06	-51489.1	955.818	-29752.3	0.000000	0.000000	6.012907	0.020625	NaN	0.000000	0.001613	0.001608	28.0796	0.039786	0.001243	32.0059	-42.9237	19.0079	0.013410	0.011697	-1.200230	-1.201738	0.020625	32.0059	-1.200713	-1.122786E+16	-1.836957E-18	NaN
257	1.000000	0.023051	7.36757e+06	-51489.1	955.818	-29752.3	0.000000	0.000000	6.022753	0.028156	NaN	0.000000	0.001609	0.001575	28.0789	0.051867	0.001741	29.7985	145.555	-163.969	0.040066	0.021718	-1.190383	-1.191716	0.028156	29.7985	-1.191092	-8.345505E+15	-3.373785E-18	NaN
257	1.000000	0.033015	7.36757e+06	-51489.1	955.818	-29752.3	0.000000	0.000000	6.032715	-0.025277	NaN	0.000000	0.001644	0.001558	28.0793	0.109981	0.001862	59.0613	42.3466	17.6804	0.057860	0.031731	-1.180419	-1.181703	-0.025277	59.0613	-1.180098	-5.945526E+15	4.251515E-18	NaN
257	1.000000	0.043067	7.36757e+06	-51489.1	955.819	-29752.3	0.000000	0.000000	6.042769	0.021383	NaN	0.000000	0.001604	0.001609	28.079	0.068576	0.001943	35.2966	128.964	-167.676	0.058643	0.041766	-1.170367	-1.171668	0.021383	35.2966	-1.170822	-4.465783E+15	-4.788108E-18	NaN
257	1.000000	0.053048	7.36757e+06	-51489.1	955.819	-29752.3	0.000000	0.000000	6.052751	0.045274	NaN	0.000000	0.001642	0.001629	28.0791	0.064254	0.001923	33.4095	-49.1672	16.3308	0.096784	0.051706	-1.160387	-1.161728	0.045274	33.4095	-1.161403	-3.339430E+15	-1.355739E-17	NaN
257	1.000000	0.063046	7.36757e+06	-51489.1	955.818	-29752.3	0.000000	0.000000	6.062745	-0.047105	NaN	0.000000	0.001628	0.001653	28.0788	0.037756	0.001995	18.9206	104.901	-166.758	-0.122143	0.061749	-1.150388	-1.151685	-0.047105	18.9206	-1.148521	-2.243848E+15	2.099298E-17	NaN
257	1.000000	0.073035	7.36757e+06	-51489.1	955.818	-29752.3	0.000000	0.000000	6.072738	0.040487	NaN	0.000000	0.001577	0.001661	28.0791	0.065641	0.001946	33.7383	8.836220	14.1349	0.098722	0.071683	-1.140399	-1.141752	0.040487	33.7383	-1.141299	-1.795386E+15	-2.255046E-17	NaN
257	1.000000	0.083084	7.36757e+06	-51489.1	955.818	-29752.3	0.000000	0.000000	6.082787	0.041301	NaN	0.000000	0.001596	0.001636	28.079	0.064946	0.002075	31.296	-46.1513	-168.365	0.002961	0.081747	-1.130350	-1.131687	0.041301	31.296	-1.131340	-1.320071E+15	-3.128728E-17	NaN
257	1.000000	0.093058	7.36757e+06	-51489.1	955.818	-29752.3	0.000000	0.000000	6.092757	-0.043130	NaN	0.000000	0.001583	0.001633	28.0792	0.063998	0.002108	30.3624	151.931	14.9306	-0.018594	0.091716	-1.120376	-1.121718	-0.043130	30.3624	-1.119311	-9.103931E+14	4.737529E-17	NaN
257	1.000000	0.103070	7.36757e+06	-51489.1	955.818	-29752.3	0.000000	0.000000	6.102773	0.029655	NaN	0.000000	0.001549	0.001611	28.0802	0.031329	0.002019	15.5152	-134.816	-162.793	0.108287	0.101716	-1.110364	-1.111718	0.029655	15.5152	-1.111798	-7.217917E+14	-4.108504E-17	NaN
257	1.000000	0.113082	7.36757e+06	-51489.1	955.819	-29752.3	0.000000	0.000000	6.112785	0.047250	NaN	0.000000	0.001618	0.001625	28.0802	0.031028	0.002026	15.3132	166.44	17.0173	0.012383	0.111741	-1.100352	-1.101693	0.047250	15.3132	-1.102667	-5.443303E+14	-8.680441E-17	NaN
257	1.000000	0.123077	7.36757e+06	-51489.1	955.818	-29752.3	0.000000	0.000000	6.122779	0.025666	NaN	0.000000	0.001583	0.001619	28.0804	0.098246	0.002072	47.4195	165.799	-163.356	0.024027	0.121730	-1.090358	-1.091704	0.025666	47.4195	-1.090764	-3.767593E+14	-6.812346E-17	NaN
257	1.000000	0.133090	7.36757e+06	-51489.1	955.819	-29752.3	0.000000	0.000000	6.132794	0.068187	NaN	0.000000	0.001627	0.001634	28.0801	0.112901	0.001955	57.7526	123.302	19.6036	0.047534	0.131672	-1.080344	-1.081762	0.068187	57.7526	-1.081230	-2.805658E+14	-2.430352E-16	NaN
257	1.000000	0.143112	7.36757e+06	-51489.1	955.82	-29752.3	0.000000	0.000000	6.142812	-0.045527	NaN	0.000000	0.001622	0.001635	28.0802	0.105321	0.001815	58.0152	42.3613	-166.194	0.014377	0.141796	-1.070322	-1.071638	-0.045527	58.0152	-1.069733	-1.966107E+14	2.315578E-16	NaN
257	1.000000	0.153112	7.36757e+06	-51489.1	955.818	-29752.3	0.000000	0.000000	6.152813	-0.011312	NaN	0.000000	0.001683	0.001638	28.0798	0.049964	0.002058	24.2741	178.959	12.2809	0.035411	0.151706	-1.060323	-1.061728	-0.011312	24.2741	-1.059973	-1.453645E+14	7.781545E-17	NaN
257	1.000000	0.163107	7.36757e+06	-51489.1	955.818	-29752.3	0.000000	0.000000	6.162810	0.028341	NaN	0.000000	0.001686	0.001584	28.0803	0.062716	0.001888	33.2215	-171.407	-167.712	0.066710	0.161777	-1.050327	-1.051657	0.028341	33.2215	-1.050967	-1.100053E+14	-2.576297E-16	NaN
257	1.000000	0.173115	7.36757e+06	-51489.1	955.818	-29752.3	0.000000	0.000000	6.172815	-0.019325	NaN	0.000000	0.001659	0.001665	28.0799	0.096748	0.001940	49.8702	176.029	14.8896	-0.060680	0.171749	-1.040319	-1.041686	-0.019325	49.8702	-1.040029	-7.840707E+13	2.464712E-16	NaN
257	1.000000	0.183080	7.36757e+06	-51489.1	955.818	-29752.3	0.000000	0.000000	6.182779	-0.036280	NaN	0.000000	0.001698	0.001576	28.0803	0.106263	0.002050	51.8417	151.896	-167.149	-0.039512	0.181824	-1.030355	-1.031610	-0.036280	51.8417	-1.029830	-5.717308E+13	6.345685E-16	NaN
257	1.000000	0.193121	7.36757e+06	-51489.1	955.818	-29752.3	0.000000	0.000000	6.192823	0.009314	NaN	0.000000	0.001681	0.001644	28.0801	0.084647	0.001978	42.7895	-173.925	15.9511	-0.027092	0.191712	-1.020313	-1.021722	0.009314	42.7895	-1.020476	-4.279195E+13	-2.176687E-16	NaN
257	1.000000	0.203108	7.36757e+06	-51489.1	955.819	-29752.3	0.000000	0.000000	6.202815	0.135991	NaN	0.000000	0.001710	0.001646	28.0804	0.005424	0.002002	2.708953	161.776	-168.637	0.131290	0.201813	-1.010326	-1.011621	0.135991	2.708953	-1.047976	-1.002795E+14	-1.356123E-15	NaN
257	1.000000	0.213108	7.36757e+06	-51489.1	955.818	-29752.3	0.000000	0.000000	6.212812	0.062500	NaN	0.000000	0.001629	0.001662	28.08	0.013584	0.002043	6.649485	-8.011057	15.5281	0.047508	0.211804	-1.000327	-1.001631	0.062500	6.649485	-1.007376	-2.851437E+13	-2.191864E-15	NaN
257	1.000000	0.223169	7.36757e+06	-51489.1	955.818	-29752.3	0.000000	0.000000	6.222869	-0.030265	NaN	0.000000	0.001616	0.001632	28.0801	0.002608	0.001910	1.365458	-137.124	-164.46	-0.023798	0.221785	-0.990265	-0.991649	-0.030265	1.365458	-0.973641	-1.001698E+13	3.021354E-15	NaN
257	1.000000	0.233136	7.36757e+06	-51489.1	955.818	-29752.3	0.000000	0.000000	6.232837	-0.018584	NaN	0.000000	0.001623	0.001576	28.0791	0.075809	0.002028	37.3815	102.89	13.6439	0.012403	0.231774	-0.980298	-0.981660	-0.018584	37.3815	-0.979925	-1.217308E+13	1.526638E-15	NaN
257	1.000000	0.243128	7.36757e+06	-51489.1	955.818	-29752.3	0.000000	0.000000	6.242832	0.064103	NaN	0.000000	0.001629	0.001667	28.0791	0.040192	0.001974	20.356	-65.8448	-165.918	0.022551	0.241861	-0.970306	-0.971573	0.064103	20.356	-0.972668	-9.719020E+12	-6.595627E-15	NaN
257	1.000000	0.253144	7.36757e+06	-51489.1	955.818	-29752.3	0.000000	0.000000	6.252846	0.022865	NaN	0.000000	0.001626	0.001635	28.0788	0.070071	0.001995	35.1205	39.9996	15.803	-0.011265	0.251838	-0.960291	-0.961596	0.022865	35.1205	-0.960779	-6.720021E+12	-3.402518E-15	NaN
257	1.000000	0.263116	7.36757e+06	-51489.1	955.818	-29752.3	0.000000	0.000000	6.262818	0.010209	NaN	0.000000	0.001630	0.001659	28.079	0.061943	0.002070	29.928	-152.631	-169.218	-0.004906	0.261865	-0.950318	-0.951569	0.010209	29.928	-0.950574	-4.895145E+12	-2.085437E-15	NaN
257	1.000000	0.273141	7.36757e+06	-51489.1	955.819	-29752.3	0.000000	0.000000	6.272845	0.058977	NaN	0.000000	0.001623	0.001659	28.0788	0.045861	0.001941	23.6284	159.521	14.593	0.002740	0.271791	-0.940293	-0.941643	0.058977	23.6284	-0.942165	-3.770055E+12	-1.564355E-14	NaN
257	1.000000	0.283157	7.36757e+06	-51489.1	955.819	-29752.3	0.000000	0.000000	6.282858	-0.010296	NaN	0.000000	0.001604	0.001663	28.0789	0.085702	0.001862	46.0331	-5.879911	-161.253	0.001145	0.281834	-0.930278	-0.931600	-0.010296	46.0331	-0.930110	-2.592262E+12	3.971812E-15	NaN
257	1.000000	0.293160	7.36757e+06	-51489.1	955.818	-29752.3	0.000000	0.000000	6.292863	0.025046	NaN	0.000000	0.001600	0.001649	28.0788	0.040188	0.002024	19.8525	90.0059	17.3459	0.154496	0.291755	-0.920274	-0.921680	0.025046	19.8525	-0.921220	-1.966437E+12	-1.273694E-14	NaN
257	1.000000	0.303134	7.36757e+06	-51489.1	955.817	-29752.3	0.000000	0.000000	6.302835	-0.007633	NaN	0.000000	0.001601	0.001644	28.079	0.048467	0.002079	23.3104	-130.11	-163.99	0.031666	0.301804	-0.910301	-0.911630	-0.007633	23.3104	-0.910055	-1.389654E+12	5.492920E-15	NaN
257	1.000000	0.313148	7.36757e+06	-51489.1	955.818	-29752.3	0.000000	0.000000	6.312851	0.039370	NaN	0.000000	0.001608	0.001625	28.079	0.047454	0.002013	23.5778	87.0946	15.6752	-0.002304	0.311772	-0.900286	-0.901662	0.039370	23.5778	-0.901539	-1.066240E+12	-3.692393E-14	NaN
257	1.000000	0.323183	7.36757e+06	-51489.1	955.818	-29752.3	0.000000	0.000000	6.322884	0.003282	NaN	0.000000	0.001659	0.001630	28.079	0.038418	0.002030	18.9262	151.445	-163.241	0.029251	0.321876	-0.890251	-0.891558	0.003282	18.9262	-0.890382	-7.534810E+11	-4.356103E-15	NaN
257	1.000000	0.333148	7.36757e+06	-51489.1	955.818	-29752.3	0.000000	0.000000	6.332852	0.064854	NaN	0.000000	0.001603	0.001697	28.079	0.073573	0.001957	37.5938	-42.6985	15.5247	0.032237	0.331801	-0.880286	-0.881633	0.064854	37.5938	-0.881580	-5.728936E+11	-1.132045E-13	NaN
257	1.000000	0.343149	7.36757e+06	-51489.1	955.817	-29752.3	0.000000	0.000000	6.342853	0.065674	NaN	0.000000	0.001596	0.001642	28.0791	0.035533	0.002025	17.5461	-50.2855	-166.415	0.050116	0.341805	-0.870285	-0.871630	0.065674	17.5461	-0.873092	-4.398205E+11	-1.493196E-13	NaN
257	1.000000	0.353192	7.36757e+06	-51489.1	955.819	-29752.3	0.000000	0.000000	6.352895	0.045883	NaN	0.000000	0.001590	0.001627	28.0791	0.099441	0.001876	53.0032	116.298	15.1728	0.066226	0.351774	-0.860243	-0.861661	0.045883	53.0032	-0.860892	-3.007399E+11	-1.525669E-13	NaN
257	1.000000	0.363174	7.36757e+06	-51489.1	955.818	-29752.3	0.000000	0.000000	6.362878	0.074000	NaN	0.000000	0.001632	0.001619	28.079	0.057275	0.001854	30.9001	176.191	-165.307	0.150643	0.361868	-0.850260	-0.851566	0.074000	30.9001	-0.852057	-2.283412E+11	-3.240781E-13	NaN
257	1.000000	0.373213	7.36757e+06	-51489.1	955.818	-29752.3	0.000000	0.000000	6.372916	0.043875	NaN	0.000000	0.001622	0.001616	28.0803	0.011521	0.002004	5.747794	-159.159	14.0368	-0.021039	0.371831	-0.840221	-0.841603	0.043875	5.747794	-0.845946	-1.887296E+11	-2.324731E-13	NaN
257	1.000000	0.383188	7.36757e+06	-51489.1	955.818	-29752.3	0.000000	0.000000	6.382892	0.049151	NaN	0.000000	0.001634	0.001613	28.0804	0.039469	0.002047	19.277	-19.7855	-164.53	0.022034	0.381859	-0.830246	-0.831575	0.049151	19.277	-0.832158	-1.227539E+11	-4.004065E-13	NaN
257	1.000000	0.393225	7.36757e+06	-51489.1	955.819	-29752.3	0.000000	0.000000	6.392928	0.043428	NaN	0.000000	0.001575	0.001658	28.0802	0.091234	0.001982	46.0376	-138.258	14.0052	0.077275	0.391785	-0.820210	-0.821649	0.043428	46.0376	-0.820917	-8.642633E+10	-5.024805E-13	NaN
257	1.000000	0.403218	7.36757e+06	-51489.1	955.818	-29752.3	0.000000	0.000000	6.402922	0.067575	NaN	0.000000	0.001585	0.001625	28.0803	0.060454	0.002002	30.2008	85.6116	-165.988	0.012796	0.401885	-0.810217	-0.811549	0.067575	30.2008	-0.811895	-6.520443E+10	-1.036350E-12	NaN
257	1.000000	0.413154	7.36757e+06	-51489.1	955.82	-29752.3	0.000000	0.000000	6.412855	-0.009178	NaN	0.000000	0.001586	0.001646	28.0804	0.031182	0.002007	15.5337	130.228	15.2055	0.016003	0.411830	-0.800281	-0.801605	-0.009178	15.5337	-0.799838	-4.473610E+10	2.051591E-13	NaN
257	1.000000	0.423200	7.36757e+06	-51489.1	955.818	-29752.3	0.000000	0.000000	6.422904	0.065388	NaN	0.000000	0.001606	0.001605	28.0806	0.089761	0.001953	45.9574	175.432	-163.047	0.021283	0.421891	-0.790234	-0.791543	0.065388	45.9574	-0.791302	-3.425784E+10	-1.908699E-12	NaN
257	1.000000	0.433198	7.36757e+06	-51489.1	955.818	-29752.3	0.000000	0.000000	6.432901	0.028949	NaN	0.000000	0.001628	0.001633	28.0806	0.048689	0.002103	23.1497	114.106	13.4291	0.015505	0.431893	-0.780236	-0.781541	0.028949	23.1497	-0.781174	-2.495663E+10	-1.159954E-12	NaN
257	1.000000	0.443192	7.36757e+06	-51489.1	955.819	-29752.3	0.000000	0.000000	6.442892	-0.018605	NaN	0.000000	0.001618	0.001630	28.0803	0.025734	0.002013	12.7853	22.832	-163.968	-0.015556	0.441922	-0.770243	-0.771512	-0.018605	12.7853	-0.769151	-1.713036E+10	1.086090E-12	NaN
257	1.000000	0.453231	7.36757e+06	-51489.1	955.817	-29752.3	0.000000	0.000000	6.452932	0.001419	NaN	0.000000	0.001615	0.001641	28.0803	0.032956	0.001982	16.6255	47.7496	12.9076	-0.053943	0.451888	-0.760203	-0.761546	0.001419	16.6255	-0.760267	-1.297004E+10	-1.093883E-13	NaN
257	1.000000	0.463188	7.36757e+06	-51489.1	955.817	-29752.3	0.000000	0.000000	6.462893	0.079618	NaN	0.000000	0.001585	0.001605	28.0804	0.105377	0.002005	52.5663	-53.6044	-163.435	-0.052430	0.461938	-0.750246	-0.751496	0.079618	52.5663	-0.751382	-9.818177E+9	-8.109211E-12	NaN
257	1.000000	0.473240	7.36757e+06	-51489.1	955.818	-29752.3	0.000000	0.000000	6.472941	-0.011357	NaN	0.000000	0.001590	0.001588	28.0802	0.033034	0.002039	16.2016	-85.1781	14.3196	0.084862	0.471865	-0.740194	-0.741569	-0.011357	16.2016	-0.739668	-6.800418E+9	1.669980E-12	NaN
257	1.000000	0.483246	7.36757e+06	-51489.1	955.819	-29752.3	0.000000	0.000000	6.482947	-0.015772	NaN	0.000000	0.001606	0.001564	28.08	0.080500	0.001908	42.1963	128.761	-165.871	0.014610	0.481903	-0.730188	-0.731531	-0.015772	42.1963	-0.729908	-5.006682E+9	3.150274E-12	NaN
257	1.000000	0.493240	7.36757e+06	-51489.1	955.819	-29752.3	0.000000	0.000000	6.492943	0.052663	NaN	0.000000	0.001606	0.001591	28.0803	0.031115	0.002137	14.5602	-84.7882	18.39	0.091203	0.491872	-0.720195	-0.721563	0.052663	14.5602	-0.722907	-4.019000E+9	-1.310359E-11	NaN
257	1.000000	0.503235	7.36757e+06	-51489.1	955.818	-29752.3	0.000000	0.000000	6.502938	0.047850	NaN	0.000000	0.001564	0.001598	28.08	0.101241	0.001958	51.7073	95.6148	-163.041	-0.048249	0.501975	-0.710199	-0.711460	0.047850	51.7073	-0.710893	-2.755735E+9	-1.736371E-11	NaN
257	1.000000	0.513264	7.36757e+06	-51489.1	955.817	-29752.3	0.000000	0.000000	6.512966	0.011992	NaN	0.000000	0.001583	0.001591	28.0791	0.097605	0.001946	50.169	114.521	16.3519	0.055550	0.511918	-0.700170	-0.701516	0.011992	50.169	-0.700350	-1.978359E+9	-6.061703E-12	NaN
257	1.000000	0.523240	7.36757e+06	-51489.1	955.818	-29752.3	0.000000	0.000000	6.522942	0.019948	NaN	0.000000	0.001610	0.001592	28.0789	0.087680	0.002122	41.3122	85.0272	-162.871	-0.037324	0.521987	-0.690194	-0.691448	0.019948	41.3122	-0.690556	-1.453851E+9	-1.372078E-11	NaN
257	1.000000	0.533277	7.36757e+06	-51489.1	955.819	-29752.3	0.000000	0.000000	6.532977	-0.011638	NaN	0.000000	0.001598	0.001607	28.0789	0.061494	0.001917	32.0853	179.72	14.3438	0.031001	0.531912	-0.680158	-0.681523	-0.011638	32.0853	-0.679886	-1.039066E+9	1.120020E-11	NaN
257	1.000000	0.543272	7.36757e+06	-51489.1	955.818	-29752.3	0.000000	0.000000	6.542977	0.075689	NaN	0.000000	0.001623	0.001605	28.0789	0.031095	0.001988	15.6379	152.521	-164.447	-0.005925	0.541947	-0.670162	-0.671488	0.075689	15.6379	-0.673792	-8.575980E+8	-8.825741E-11	NaN
257	1.000000	0.553244	7.36757e+06	-51489.1	955.819	-29752.3	0.000000	0.000000	6.552947	0.040067	NaN	0.000000	0.001589	0.001608	28.079	0.021477	0.001975	10.8766	54.9992	17.7714	0.091203	0.551895	-0.660190	-0.661539	0.040067	10.8766	-0.662953	-6.094105E+8	-6.574739E-11	NaN
257	1.000000	0.563263	7.36757e+06	-51489.1	955.818	-29752.3	0.000000	0.000000	6.562964	-0.007686	NaN	0.000000	0.001571	0.001605	28.079	0.032655	0.002071	15.7704	30.6971	-161.612	-0.060229	0.561899	-0.650171	-0.651535	-0.007686	15.7704	-0.649806	-4.025090E+8	1.909437E-11	NaN
257	1.000000	0.573265	7.36757e+06	-51489.1	955.818	-29752.3	0.000000	0.000000	6.572966	-0.002995	NaN	0.000000	0.001587	0.001613	28.0793	0.087178	0.002096	41.5869	-14.7281	18.9183	-0.048619	0.571935	-0.640169	-0.641499	-0.002995	41.5869	-0.640115	-2.963928E+8	1.010580E-11	NaN
257	1.000000	0.583266	7.36757e+06	-51489.1	955.818	-29752.3	0.000000	0.000000	6.582970	0.071740	NaN	0.000000	0.001560	0.001603	28.0791	0.031929	0.001959	16.2977	157.449	-160.52	0.046985	0.581961	-0.630169	-0.631473	0.071740	16.2977	-0.633470	-2.402525E+8	-2.986037E-10	NaN
257	1.000000	0.593298	7.36757e+06	-51489.1	955.819	-29752.3	0.000000	0.000000	6.593004	0.129534	NaN	0.000000	0.001581	0.001564	28.079	0.092815	0.002042	45.4609	-18.0773	15.8204	0.144637	0.591916	-0.620137	-0.621519	0.129534	45.4609	-0.622274	-1.686105E+8	-7.682451E-10	NaN
257	1.000000	0.603267	7.36757e+06	-51489.1	955.819	-29752.3	0.000000	0.000000	6.602972	0.084154	NaN	0.000000	0.001578	0.001538	28.0792	0.059717	0.002007	29.7615	112.669	-167.248	0.059734	0.601959	-0.610168	-0.611475	0.084154	29.7615	-0.612288	-1.229119E+8	-6.846729E-10	NaN
257	1.000000	0.613280	7.36757e+06	-51489.1	955.819	-29752.3	0.000000	0.000000	6.612983	0.045990	NaN	0.000000	0.001601	0.001589	28.0791	0.056179	0.001878	29.9074	-70.2884	18.7479	-0.000277	0.611964	-0.600155	-0.601470	0.045990	29.9074	-0.601308	-8.679056E+7	-5.298916E-10	NaN
257	1.000000	0.623271	7.36757e+06	-51489.1	955.818	-29752.3	0.000000	0.000000	6.622975	0.044436	NaN	0.000000	0.001588	0.001536	28.0791	0.050473	0.002157	23.4033	-130.303	-165.229	0.035763	0.621934	-0.590163	-0.591500	0.044436	23.4033	-0.591587	-6.375918E+7	-6.969397E-10	NaN
257	1.000000	0.633297	7.36757e+06	-51489.1	955.819	-29752.3	0.000000	0.000000	6.632994	-0.094311	NaN	0.000000	0.001580	0.001578	28.0794	0.113069	0.002027	55.7927	161.5	11.8915	-0.049104	0.631988	-0.580137	-0.581446	-0.094311	55.7927	-0.578870	-4.257187E+7	2.215345E-9	NaN
257	1.000000	0.643296	7.36757e+06	-51489.1	955.819	-29752.3	0.000000	0.000000	6.642996	-0.019710	NaN	0.000000	0.001571	0.001551	28.0805	0.144346	0.001882	76.7116	78.2004	-165.572	-0.049955	0.641921	-0.570139	-0.571513	-0.019710	76.7116	-0.569946	-3.205413E+7	6.149094E-10	NaN
257	1.000000	0.653305	7.36757e+06	-51489.1	955.818	-29752.3	0.000000	0.000000	6.653008	0.030169	NaN	0.000000	0.001570	0.001595	28.0803	0.058273	0.001990	29.2776	-20.763	16.6125	0.074589	0.651974	-0.560129	-0.561460	0.030169	29.2776	-0.560902	-2.403563E+7	-1.255174E-9	NaN
257	1.000000	0.663311	7.36757e+06	-51489.1	955.819	-29752.3	0.000000	0.000000	6.663012	0.001095	NaN	0.000000	0.001568	0.001551	28.08	0.045256	0.001992	22.7208	168.61	-166.388	0.001465	0.661926	-0.550123	-0.551508	0.001095	22.7208	-0.550160	-1.706734E+7	-6.413544E-11	NaN
257	1.000000	0.673284	7.36757e+06	-51489.1	955.818	-29752.3	0.000000	0.000000	6.672988	0.064594	NaN	0.000000	0.001588	0.001568	28.0802	0.070019	0.002067	33.8772	30.912	13.4359	0.016139	0.671930	-0.540150	-0.541505	0.064594	33.8772	-0.541580	-1.297979E+7	-4.976525E-9	NaN
257	1.000000	0.683322	7.36757e+06	-51489.1	955.818	-29752.3	0.000000	0.000000	6.683026	0.051867	NaN	0.000000	0.001599	0.001573	28.0801	0.085284	0.001979	43.1029	127.701	-164.093	-0.006059	0.682023	-0.530112	-0.531411	0.051867	43.1029	-0.531015	-9.26118e+06	-5.600423E-9	NaN
257	1.000000	0.693323	7.36757e+06	-51489.1	955.819	-29752.3	0.000000	0.000000	6.693028	0.088350	NaN	0.000000	0.001597	0.001569	28.0803	0.024394	0.001985	12.2916	172.377	15.0738	0.043560	0.691957	-0.520111	-0.521477	0.088350	12.2916	-0.525502	-7.76402e+06	-1.137942E-8	NaN
257	1.000000	0.703323	7.36757e+06	-51489.1	955.819	-29752.3	0.000000	0.000000	6.703027	0.073017	NaN	0.000000	0.001635	0.001570	28.0801	0.026304	0.002017	13.0438	48.9946	-163.504	0.012290	0.702042	-0.510111	-0.511393	0.073017	13.0438	-0.514310	-5.42529e+06	-1.345855E-8	NaN
257	1.000000	0.713354	7.36757e+06	-51489.1	955.818	-29752.3	0.000000	0.000000	6.713058	0.067218	NaN	0.000000	0.001591	0.001565	28.0803	0.091295	0.001975	46.2219	-38.8923	15.5021	-0.001552	0.711987	-0.500081	-0.501447	0.067218	46.2219	-0.501171	-3.55923e+06	-1.888563E-8	NaN
257	1.000000	0.723346	7.36757e+06	-51489.1	955.819	-29752.3	0.000000	0.000000	6.723050	0.070501	NaN	0.000000	0.001603	0.001572	28.0805	0.021889	0.002039	10.7343	-74.9611	-165.333	0.095222	0.722000	-0.490088	-0.491434	0.070501	10.7343	-0.495014	-2.92033e+06	-2.414136E-8	NaN
257	1.000000	0.733333	7.36757e+06	-51489.1	955.818	-29752.3	0.000000	0.000000	6.733037	0.067223	NaN	0.000000	0.001609	0.001571	28.0802	0.149884	0.002093	71.6203	29.8301	12.9997	0.020928	0.731971	-0.480101	-0.481463	0.067223	71.6203	-0.480805	-1.84841e+06	-3.636818E-8	NaN
257	1.000000	0.743317	7.36757e+06	-51489.1	955.818	-29752.3	0.000000	0.000000	6.743020	0.035980	NaN	0.000000	0.001606	0.001559	28.0802	0.092319	0.002056	44.9002	-39.8371	-167.995	-0.014313	0.742064	-0.470117	-0.471370	0.035980	44.9002	-0.470718	-1.33498e+06	-2.695182E-8	NaN
257	1.000000	0.753356	7.36757e+06	-51489.1	955.818	-29752.3	0.000000	0.000000	6.753061	0.077726	NaN	0.000000	0.001602	0.001568	28.0803	0.065769	0.002076	31.6829	-76.7876	12.7379	0.039132	0.751979	-0.460078	-0.461456	0.077726	31.6829	-0.461918	-1.00453e+06	-7.737514E-8	NaN
257	1.000000	0.763350	7.36757e+06	-51489.1	955.819	-29752.3	0.000000	0.000000	6.763053	0.049761	NaN	0.000000	0.001604	0.001594	28.0805	0.093449	0.002040	45.8122	-167.125	-166.607	0.064108	0.762057	-0.450085	-0.451377	0.049761	45.8122	-0.450899	-703079	-7.077641E-8	NaN
257	1.000000	0.773332	7.36757e+06	-51489.1	955.818	-29752.3	0.000000	0.000000	6.773036	0.064613	NaN	0.000000	0.001573	0.001592	28.0802	0.064202	0.001897	33.8456	76.4073	17.8411	0.013849	0.772018	-0.440102	-0.441416	0.064613	33.8456	-0.441534	-518814	-1.245400E-7	NaN
257	1.000000	0.783351	7.36757e+06	-51489.1	955.818	-29752.3	0.000000	0.000000	6.783053	0.024012	NaN	0.000000	0.001591	0.001603	28.0789	0.077219	0.001917	40.2806	15.413	-163.711	0.067853	0.782042	-0.430084	-0.431392	0.024012	40.2806	-0.430531	-362720	-6.619894E-8	NaN
257	1.000000	0.793373	7.36757e+06	-51489.1	955.82	-29752.3	0.000000	0.000000	6.793073	-0.033399	NaN	0.000000	0.001613	0.001611	28.0804	0.093329	0.001861	50.1632	-87.7144	13.8392	-0.005138	0.791915	-0.420061	-0.421520	-0.033399	50.1632	-0.419562	-253631	1.316837E-7	NaN
257	1.000000	0.803356	7.36757e+06	-51489.1	955.818	-29752.3	0.000000	0.000000	6.803057	-0.001158	NaN	0.000000	0.001584	0.001645	28.0789	0.037731	0.001918	19.6742	-57.8185	-165.781	-0.028622	0.802095	-0.410079	-0.411339	-0.001158	19.6742	-0.410035	-185735	6.232600E-9	NaN
257	1.000000	0.813385	7.36757e+06	-51489.1	955.819	-29752.3	0.000000	0.000000	6.813087	0.016942	NaN	0.000000	0.001636	0.001612	28.079	0.023029	0.002071	11.1213	-73.9183	17.5483	0.029635	0.812000	-0.400049	-0.401435	0.016942	11.1213	-0.401191	-138989	-1.218962E-7	NaN
257	1.000000	0.823395	7.36757e+06	-51489.1	955.818	-29752.3	0.000000	0.000000	6.823096	-0.005331	NaN	0.000000	0.001552	0.001586	28.0789	0.063562	0.002120	29.9818	-162.058	-164.655	0.019241	0.822031	-0.390039	-0.391403	-0.005331	29.9818	-0.389906	-95900.3	5.559237E-8	NaN
257	1.000000	0.833372	7.36757e+06	-51489.1	955.818	-29752.3	0.000000	0.000000	6.833072	-0.033365	NaN	0.000000	0.001590	0.001612	28.0797	0.047294	0.002053	23.037	-11.7041	16.7863	-0.031735	0.832016	-0.380062	-0.381418	-0.033365	23.037	-0.378976	-66864.2	4.990020E-7	NaN
257	1.000000	0.843391	7.36757e+06	-51489.1	955.818	-29752.3	0.000000	0.000000	6.843094	0.041036	NaN	0.000000	0.001563	0.001619	28.0789	0.006911	0.001997	3.461478	45.2052	-163.048	0.019279	0.842110	-0.370044	-0.371324	0.041036	3.461478	-0.378935	-66772.8	-6.145609E-7	NaN
257	1.000000	0.853388	7.36757e+06	-51489.1	955.819	-29752.3	0.000000	0.000000	6.853090	0.022190	NaN	0.000000	0.001582	0.001613	28.0793	0.019886	0.002030	9.793512	-33.6635	11.2262	0.022579	0.852096	-0.360047	-0.361338	0.022190	9.793512	-0.361746	-37764	-5.875958E-7	NaN
257	1.000000	0.863366	7.36757e+06	-51489.1	955.818	-29752.3	0.000000	0.000000	6.863069	0.024529	NaN	0.000000	0.001573	0.001626	28.079	0.056127	0.002044	27.4596	-173.961	-163.997	0.051290	0.862026	-0.350068	-0.351409	0.024529	27.4596	-0.350738	-26164.4	-9.375006E-7	NaN
257	1.000000	0.873379	7.36757e+06	-51489.1	955.819	-29752.3	0.000000	0.000000	6.873080	-0.005082	NaN	0.000000	0.001625	0.001637	28.0794	0.076961	0.002033	37.8539	-158.398	15.8108	-0.020245	0.872049	-0.340056	-0.341385	-0.005082	37.8539	-0.339955	-18234.6	2.786851E-7	NaN
257	1.000000	0.883396	7.36757e+06	-51489.1	955.818	-29752.3	0.000000	0.000000	6.883101	0.072583	NaN	0.000000	0.001678	0.001616	28.0789	0.094570	0.002113	44.7602	-137.421	-164.259	0.062601	0.882097	-0.330038	-0.331337	0.072583	44.7602	-0.331254	-13608.6	-5.333605E-6	NaN
257	1.000000	0.893383	7.36757e+06	-51489.1	955.819	-29752.3	0.000000	0.000000	6.893084	-0.018167	NaN	0.000000	0.001641	0.001599	28.0792	0.044657	0.002066	21.612	3.124025	12.9539	-0.036533	0.892006	-0.320051	-0.321428	-0.018167	21.612	-0.319421	-9122.41	1.991419E-6	NaN
257	1.000000	0.903393	7.36757e+06	-51489.1	955.818	-29752.3	0.000000	0.000000	6.903093	-0.033364	NaN	0.000000	0.001633	0.001624	28.0791	0.024562	0.002012	12.2076	34.9998	-163.699	-0.026204	0.902142	-0.310041	-0.311293	-0.033364	12.2076	-0.307991	-6184.58	5.394745E-6	NaN
257	1.000000	0.913420	7.36757e+06	-51489.1	955.819	-29752.3	0.000000	0.000000	6.913120	-0.045144	NaN	0.000000	0.001614	0.001603	28.0797	0.070095	0.002045	34.2784	143.343	15.5792	0.073924	0.912059	-0.300014	-0.301375	-0.045144	34.2784	-0.299026	-4551.29	9.919002E-6	NaN
257	1.000000	0.923437	7.36757e+06	-51489.1	955.818	-29752.3	0.000000	0.000000	6.923138	-0.015552	NaN	0.000000	0.001578	0.001611	28.0803	0.040094	0.001989	20.155	130.812	-166.381	0.032027	0.922087	-0.289997	-0.291348	-0.015552	20.155	-0.289419	-3270.31	4.755397E-6	NaN
257	1.000000	0.933423	7.36757e+06	-51489.1	955.818	-29752.3	0.000000	0.000000	6.933128	0.076533	NaN	0.000000	0.001611	0.001604	28.0806	0.065725	0.002055	31.982	114.063	13.9987	0.048461	0.932048	-0.280011	-0.281386	0.076533	31.982	-0.281806	-2513	-3.045488E-5	NaN
257	1.000000	0.943398	7.36757e+06	-51489.1	955.818	-29752.3	0.000000	0.000000	6.943100	0.021489	NaN	0.000000	0.001606	0.001632	28.0806	0.086312	0.002018	42.7707	-56.8792	-167.633	0.019772	0.942048	-0.270037	-0.271386	0.021489	42.7707	-0.270414	-1689.78	-1.271717E-5	NaN
257	1.000000	0.953419	7.36757e+06	-51489.1	955.817	-29752.3	0.000000	0.000000	6.953121	-0.005569	NaN	0.000000	0.001613	0.001648	28.0805	0.044046	0.001945	22.6499	85.4453	17.0088	0.019267	0.952061	-0.260015	-0.261373	-0.005569	22.6499	-0.259830	-1164.98	4.780261E-6	NaN
257	1.000000	0.963406	7.36757e+06	-51489.1	955.818	-29752.3	0.000000	0.000000	6.963107	-0.004953	NaN	0.000000	0.001597	0.001641	28.0804	0.042367	0.002020	20.9743	4.602643	-163.733	-0.003136	0.962138	-0.250028	-0.251297	-0.004953	20.9743	-0.249851	-817.825	6.056701E-6	NaN
257	1.000000	0.973434	7.36757e+06	-51489.1	955.818	-29752.3	0.000000	0.000000	6.973135	-0.007015	NaN	0.000000	0.001597	0.001610	28.0806	0.048191	0.001945	24.7806	30.9422	13.7862	-0.032853	0.972086	-0.240001	-0.241348	-0.007015	24.7806	-0.239788	-570.485	1.229739E-5	NaN
257	1.000000	0.983443	7.36757e+06	-51489.1	955.818	-29752.3	0.000000	0.000000	6.983147	0.066494	NaN	0.000000	0.001622	0.001631	28.0805	0.018740	0.002037	9.201803	44.3381	-167.05	0.007914	0.982129	-0.229991	-0.231306	0.066494	9.201803	-0.235411	-487.186	-0.000136	NaN
257	1.000000	0.993436	7.36757e+06	-51489.1	955.818	-29752.3	0.000000	0.000000	6.993137	0.007005	NaN	0.000000	0.001575	0.001670	28.0805	0.020372	0.001903	10.7074	-66.3092	15.1363	0.086928	0.992076	-0.219999	-0.221358	0.007005	10.7074	-0.220489	-282.811	-2.477055E-5	NaN
257	1.000000	1.003433	7.36757e+06	-51489.1	955.818	-29752.3	0.000000	0.000000	7.003135	0.017708	NaN	0.000000	0.001645	0.001702	28.0803	0.067035	0.001981	33.8338	-96.9652	-167.587	0.024769	1.002113	-0.210002	-0.211321	0.017708	33.8338	-0.210394	-194.627	-9.098263E-5	NaN
257	1.000000	1.013457	7.36757e+06	-51489.1	955.818	-29752.3	0.000000	0.000000	7.013159	0.023340	NaN	0.000000	0.001617	0.001710	28.0807	0.050772	0.002018	25.158	101.271	14.4386	0.054904	1.012141	-0.199977	-0.201293	0.023340	25.158	-0.200673	-135.13	-0.000173	NaN
257	1.000000	1.023461	7.36757e+06	-51489.1	955.819	-29752.3	0.000000	0.000000	7.023163	0.010133	NaN	0.000000	0.001576	0.001709	28.0803	0.077190	0.001920	40.2001	41.5419	-166.672	-0.072057	1.022157	-0.189974	-0.191277	0.010133	40.2001	-0.190163	-90.5197	-0.000112	NaN
257	1.000000	1.033476	7.36757e+06	-51489.1	955.819	-29752.3	0.000000	0.000000	7.033179	0.042868	NaN	0.000000	0.001563	0.001665	28.0806	0.125225	0.002215	56.5384	-59.6847	16.6659	0.030819	1.032077	-0.179958	-0.181357	0.042868	56.5384	-0.180527	-62.2907	-0.000688	NaN
257	1.000000	1.043429	7.36757e+06	-51489.1	955.819	-29752.3	0.000000	0.000000	7.043130	-0.006622	NaN	0.000000	0.001579	0.001660	28.0804	0.138502	0.001929	71.7963	-176.517	-164.482	-0.039732	1.042156	-0.170006	-0.171278	-0.006622	71.7963	-0.169937	-40.9743	0.000162	NaN
257	1.000000	1.053475	7.36757e+06	-51489.1	955.819	-29752.3	0.000000	0.000000	7.053176	0.000433	NaN	0.000000	0.001589	0.001654	28.0792	0.025720	0.001967	13.0786	-68.6386	14.4294	0.128543	1.052063	-0.159959	-0.161371	0.000433	13.0786	-0.159984	-27.3971	-1.580890E-5	NaN
257	1.000000	1.063465	7.36757e+06	-51489.1	955.818	-29752.3	0.000000	0.000000	7.063167	0.013427	NaN	0.000000	0.001565	0.001676	28.079	0.089564	0.001918	46.6858	134.937	-165.598	0.032943	1.062167	-0.149969	-0.151268	0.013427	46.6858	-0.150185	-18.2547	-0.000736	NaN
257	1.000000	1.073492	7.36757e+06	-51489.1	955.819	-29752.3	0.000000	0.000000	7.073195	0.035154	NaN	0.000000	0.001561	0.001684	28.0791	0.074474	0.001969	37.8165	70.1155	14.8993	0.031194	1.072089	-0.139942	-0.141345	0.035154	37.8165	-0.140639	-12.1609	-0.002891	NaN
257	1.000000	1.083448	7.36757e+06	-51489.1	955.82	-29752.3	0.000000	0.000000	7.083151	0.030190	NaN	0.000000	0.001554	0.001687	28.0792	0.093148	0.001890	49.2757	80.733	-167.415	-0.016882	1.082178	-0.129986	-0.131256	0.030190	49.2757	-0.130446	-7.774323	-0.003883	NaN
257	1.000000	1.093478	7.36757e+06	-51489.1	955.819	-29752.3	0.000000	0.000000	7.093181	0.055021	NaN	0.000000	0.001540	0.001672	28.0791	0.060882	0.001995	30.5191	7.520680	16.4054	0.034187	1.092154	-0.119957	-0.121280	0.055021	30.5191	-0.121309	-5.133693	-0.010718	NaN
257	1.000000	1.103463	7.36757e+06	-51489.1	955.82	-29752.3	0.000000	0.000000	7.103163	-0.039646	NaN	0.000000	0.001555	0.001657	28.079	0.009024	0.002058	4.384641	23.8826	-164.717	-0.007324	1.102173	-0.109971	-0.111261	-0.039646	4.384641	-0.103190	-2.147303	0.018463	NaN
257	1.000000	1.113521	7.36757e+06	-51489.1	955.819	-29752.3	0.000000	0.000000	7.113225	0.063489	NaN	0.000000	0.001524	0.001680	28.0792	0.052828	0.001963	26.9113	-142.343	16.6814	0.004874	1.112110	-0.099913	-0.101325	0.063489	26.9113	-0.101682	-1.990205	-0.031901	NaN
257	1.000000	1.123518	7.36757e+06	-51489.1	955.819	-29752.3	0.000000	0.000000	7.123216	-0.067244	NaN	0.000000	0.001545	0.001683	28.0793	0.101176	0.002113	47.8796	15.3834	-165.442	-0.114645	1.122190	-0.089917	-0.091244	-0.067244	47.8796	-0.088863	-1.016380	0.066160	NaN
257	1.000000	1.133492	7.36757e+06	-51489.1	955.819	-29752.3	0.000000	0.000000	7.133192	-0.028299	NaN	0.000000	0.001535	0.001634	28.0791	0.027469	0.001958	14.0256	42.8385	14.6738	-0.086700	1.132103	-0.079942	-0.081331	-0.028299	14.0256	-0.078429	-0.565182	0.050070	NaN
257	1.000000	1.143523	7.36757e+06	-51489.1	955.819	-29752.3	0.000000	0.000000	7.143227	0.055036	NaN	0.000000	0.001547	0.001663	28.0792	0.063009	0.001900	33.1674	-39.113	-164.83	-0.010135	1.142172	-0.069911	-0.071262	0.055036	33.1674	-0.071156	-0.366204	-0.150287	NaN
257	1.000000	1.153518	7.36757e+06	-51489.1	955.819	-29752.3	0.000000	0.000000	7.153224	0.101272	NaN	0.000000	0.001572	0.001643	28.0793	0.045162	0.001965	22.9856	-60.3181	17.4166	-0.028443	1.152152	-0.059916	-0.061282	0.101272	22.9856	-0.063221	-0.222288	-0.455592	NaN
257	1.000000	1.163532	7.36757e+06	-51489.1	955.819	-29752.3	0.000000	0.000000	7.163232	-0.030514	NaN	0.000000	0.001601	0.001675	28.0793	0.055654	0.001852	30.0497	155.388	-167.026	-0.014868	1.162200	-0.049902	-0.051234	-0.030514	30.0497	-0.049141	-0.085944	0.355047	NaN
257	1.000000	1.173517	7.36757e+06	-51489.1	955.819	-29752.3	0.000000	0.000000	7.173218	0.001564	NaN	0.000000	0.001563	0.001638	28.0792	0.058616	0.001929	30.3836	127.875	12.7123	0.092426	1.172149	-0.039917	-0.041285	0.001564	30.3836	-0.039956	-0.045083	-0.034699	NaN
257	1.000000	1.183494	7.36757e+06	-51489.1	955.82	-29752.3	0.000000	0.000000	7.183196	0.005508	NaN	0.000000	0.001581	0.001654	28.0794	0.022246	0.001977	11.2504	-87.9089	-166.746	-0.033416	1.182197	-0.029940	-0.031237	0.005508	11.2504	-0.030307	-0.023472	-0.234669	NaN
257	1.000000	1.193486	7.36757e+06	-51489.1	955.819	-29752.3	0.000000	0.000000	7.193189	0.044874	NaN	0.000000	0.001570	0.001640	28.0806	0.128259	0.002020	63.4855	-164.123	15.7041	0.031117	1.192149	-0.019948	-0.021285	0.044874	63.4855	-0.020478	-0.012918	-3.473880	NaN
257	1.000000	1.203506	7.36757e+06	-51489.1	955.818	-29752.3	0.000000	0.000000	7.203209	0.048588	NaN	0.000000	0.001536	0.001649	28.0809	0.045451	0.002002	22.7019	137.203	-168.251	0.025923	1.202274	-0.009929	-0.011161	0.048588	22.7019	-0.011534	-0.007262	-6.690297	NaN
257	1.000000	1.213537	7.36757e+06	-51489.1	955.82	-29752.3	0.000000	0.000000	7.213240	0.039155	NaN	0.000000	0.001569	0.001660	28.0803	0.146396	0.001919	76.3047	53.3431	13.7156	0.069137	1.212170	0.000103	-0.001264	0.039155	76.3047	-0.000282	-0.000209	-186.923	NaN
257	1.000000	1.223477	7.36757e+06	-51489.1	955.819	-29752.3	0.000000	0.000000	7.223451	6.635678	NaN	0.000000	0.001564	0.001633	28.0808	6.689658	0.001800	3715.68	9.692160	-169.967	5.073607	1.222230	0.010043	0.008796	6.635678	3715.68	0.008703	0.007776	853.376	38498
257	2.000000	1.227632	7.36757e+06	-51489.1	955.82	-29752.3	0.000000	0.000000	7.227718	9.365048	NaN	0.000000	0.001560	0.001675	28.0807	10.1727	0.001781	5711.19	6.831086	7.945818	8.696982	1.227242	0.014197	0.013808	9.365048	5711.19	0.012967	0.012670	739.17	46357.1
257	2.000000	1.230075	7.36757e+06	-51489.1	955.82	-29752.3	0.000000	0.000000	7.230237	11.2032	NaN	0.000000	0.001580	0.001655	28.0817	11.9148	0.001782	6687.19	7.127563	-172.105	11.0134	1.229761	0.016641	0.016327	11.2032	6687.19	0.015384	0.015801	709.014	48604.3
257	2.000000	1.232567	7.36757e+06	-51489.1	955.82	-29752.3	0.000000	0.000000	7.232949	16.5426	NaN	0.000000	0.001617	0.001632	28.0806	15.1199	0.001713	8826.21	7.927576	2.719071	14.8843	1.232255	0.019133	0.018820	16.5426	8826.21	0.017727	0.019096	866.281	58354.6
257	2.000000	1.235083	7.36757e+06	-51489.1	955.82	-29752.3	0.000000	0.000000	7.235558	18.7929	NaN	0.000000	0.001601	0.001644	28.0814	17.8456	0.001765	10108.1	10.3442	-179.661	19.8125	1.234780	0.021649	0.021346	18.7929	10108.1	0.020255	0.022944	819.073	60968.6
257	2.000000	1.237544	7.36757e+06	-51489.1	955.82	-29752.3	0.000000	0.000000	7.238260	24.6689	NaN	0.000000	0.001597	0.001586	28.0804	20.4857	0.001691	12115	4.641660	2.468902	23.6873	1.237197	0.024110	0.023762	24.6689	12115	0.022583	0.026765	921.7	67657.4
257	2.000000	1.240035	7.36757e+06	-51489.1	955.819	-29752.3	0.000000	0.000000	7.240901	28.3157	NaN	0.000000	0.001600	0.001633	28.0815	23.2629	0.001720	13525.6	5.330271	-178.726	27.9245	1.239749	0.026601	0.026315	28.3157	13525.6	0.025030	0.031071	911.32	70105.5
257	2.000000	1.242533	7.36757e+06	-51489.1	955.819	-29752.3	0.000000	0.000000	7.243629	33.9178	NaN	0.000000	0.001623	0.001604	28.0803	25.4012	0.001758	14452.5	5.769672	0.378809	31.2083	1.242177	0.029099	0.028743	33.9178	14452.5	0.027338	0.035408	957.924	70172.5
257	2.000000	1.245078	7.36757e+06	-51489.1	955.819	-29752.3	0.000000	0.000000	7.246341	37.9772	NaN	0.000000	0.001570	0.001641	28.0806	27.2637	0.001783	15291.4	9.218991	178.484	40.8441	1.244792	0.031644	0.031357	37.9772	15291.4	0.029781	0.040291	942.562	69600.8
257	2.000000	1.247521	7.36757e+06	-51489.1	955.819	-29752.3	0.000000	0.000000	7.249143	46.7197	NaN	0.000000	0.001558	0.001629	28.0802	29.9685	0.001803	16618.9	5.292344	-0.912950	44.5729	1.247216	0.034086	0.033781	46.7197	16618.9	0.031978	0.044943	1039.54	71621.9
257	2.000000	1.250035	7.36757e+06	-51489.1	955.819	-29752.3	0.000000	0.000000	7.251980	54.5398	NaN	0.000000	0.001578	0.001630	28.0815	33.4342	0.001793	18650.3	7.025366	177.66	54.5285	1.249675	0.036601	0.036240	54.5398	18650.3	0.034408	0.050376	1082.66	75918.6
257	2.000000	1.252541	7.36757e+06	-51489.1	955.819	-29752.3	0.000000	0.000000	7.254774	61.5634	NaN	0.000000	0.001566	0.001657	28.079	34.6369	0.001793	19314.4	4.176857	0.922465	60.3378	1.252294	0.039106	0.038859	61.5634	19314.4	0.036716	0.055817	1102.96	74691.7
257	2.000000	1.255066	7.36757e+06	-51489.1	955.82	-29752.3	0.000000	0.000000	7.257561	67.9396	NaN	0.000000	0.001561	0.001639	28.0803	36.7734	0.001692	21731.8	5.505653	177.492	70.6563	1.254747	0.041631	0.041312	67.9396	21731.8	0.039287	0.062198	1092.32	79612.5
257	2.000000	1.257513	7.36757e+06	-51489.1	955.819	-29752.3	0.000000	0.000000	7.260431	78.2256	NaN	0.000000	0.001559	0.001651	28.0793	40.3185	0.001666	24206.9	4.201986	-2.579206	76.575	1.257199	0.044079	0.043764	78.2256	24206.9	0.041655	0.068376	1144.05	84578.9
257	2.000000	1.260035	7.36757e+06	-51489.1	955.819	-29752.3	0.000000	0.000000	7.263299	86.6236	NaN	0.000000	0.001655	0.001628	28.0794	43.6502	0.001764	24739.6	6.864974	175.141	88.4395	1.259692	0.046601	0.046258	86.6236	24739.6	0.043975	0.074704	1159.56	82698
257	2.000000	1.262491	7.36757e+06	-51489.1	955.82	-29752.3	0.000000	0.000000	7.266159	96.4525	NaN	0.000000	0.001652	0.001586	28.0791	44.8849	0.001679	26729.9	0.926285	0.291434	92.5274	1.262068	0.049057	0.048634	96.4525	26729.9	0.046350	0.081467	1183.95	85561.8
257	2.000000	1.264979	7.36757e+06	-51489.1	955.819	-29752.3	0.000000	0.000000	7.269105	107.582	NaN	0.000000	0.001648	0.001624	28.0803	47.175	0.001803	26167.6	2.726578	179.077	105.089	1.264665	0.051545	0.051231	107.582	26167.6	0.048461	0.087717	1226.47	80722.7
257	2.000000	1.267524	7.36757e+06	-51489.1	955.82	-29752.3	0.000000	0.000000	7.272167	120.159	NaN	0.000000	0.001667	0.001645	28.0791	50.6373	0.001762	28741.8	5.979765	-5.006516	118.581	1.267094	0.054089	0.053659	120.159	28741.8	0.050954	0.095385	1259.73	85025.1
257	2.000000	1.269981	7.36757e+06	-51489.1	955.819	-29752.3	0.000000	0.000000	7.274785	124.077	NaN	0.000000	0.001659	0.001665	28.0799	52.9077	0.001773	29840.2	3.673375	176.69	122.22	1.269708	0.056547	0.056273	124.077	29840.2	0.053428	0.103304	1201.09	84823.7
257	2.000000	1.272438	7.36757e+06	-51489.1	955.82	-29752.3	0.000000	0.000000	7.278072	144.251	NaN	0.000000	0.001676	0.001645	28.079	54.9918	0.001751	31412.2	7.696304	-7.489973	138.245	1.272060	0.059004	0.058625	144.251	31412.2	0.055560	0.110370	1306.98	86386.7
257	2.000000	1.274931	7.36757e+06	-51489.1	955.82	-29752.3	0.000000	0.000000	7.281057	156.222	NaN	0.000000	0.001675	0.001651	28.0792	57.7012	0.001773	32544.2	6.850969	173.902	153.555	1.274656	0.061497	0.061222	156.222	32544.2	0.057896	0.118373	1319.74	86421.4
257	2.000000	1.277415	7.36757e+06	-51489.1	955.821	-29752.3	0.000000	0.000000	7.283961	166.427	NaN	0.000000	0.001657	0.001660	28.0793	61.008	0.001893	32225	6.007420	-6.211682	162.599	1.277177	0.063981	0.063743	166.427	32225	0.060108	0.126194	1318.81	82879.3
257	2.000000	1.280010	7.36757e+06	-51489.1	955.821	-29752.3	0.000000	0.000000	7.287171	181.395	NaN	0.000000	0.001656	0.001616	28.0792	62.7658	0.001709	36728.3	6.331607	172.687	183.074	1.279597	0.066575	0.066163	181.395	36728.3	0.062871	0.136305	1330.8	90890.5
257	2.000000	1.282511	7.36757e+06	-51489.1	955.82	-29752.3	0.000000	0.000000	7.290099	191.776	NaN	0.000000	0.001646	0.001647	28.0789	65.1838	0.001817	35881.9	9.368964	-9.700910	191.858	1.282122	0.069077	0.068688	191.776	35881.9	0.065069	0.144608	1326.18	86209
257	2.000000	1.284978	7.36757e+06	-51489.1	955.82	-29752.3	0.000000	0.000000	7.293256	208.547	NaN	0.000000	0.001626	0.001627	28.0799	66.4637	0.001745	38077.6	5.045425	173.814	206.512	1.284596	0.071543	0.071161	208.547	38077.6	0.067436	0.153814	1355.84	88704.4
257	2.000000	1.287429	7.36757e+06	-51489.1	955.821	-29752.3	0.000000	0.000000	7.296299	222.94	NaN	0.000000	0.001665	0.001602	28.0804	69.8834	0.001699	41136.7	5.961645	-7.273132	221.465	1.287130	0.073995	0.073696	222.94	41136.7	0.069931	0.163805	1361.01	92862.1
257	2.000000	1.289987	7.36757e+06	-51489.1	955.82	-29752.3	0.000000	0.000000	7.299249	232.48	NaN	0.000000	0.001662	0.001607	28.0803	74.5844	0.001864	40007.5	4.461770	173.083	234.036	1.289801	0.076552	0.076367	232.48	40007.5	0.072194	0.173129	1342.82	87847.8
257	2.000000	1.292460	7.36757e+06	-51489.1	955.82	-29752.3	0.000000	0.000000	7.302475	250.804	NaN	0.000000	0.001608	0.001646	28.0802	75.7351	0.001754	43176.6	5.544683	-8.201649	248.687	1.292130	0.079025	0.078696	250.804	43176.6	0.074669	0.183596	1366.06	92064
257	2.000000	1.294896	7.36757e+06	-51489.1	955.821	-29752.3	0.000000	0.000000	7.305566	266.72	NaN	0.000000	0.001572	0.001613	28.0804	77.4778	0.001722	44984.9	5.258163	171.44	262.376	1.294703	0.081461	0.081269	266.72	44984.9	0.077015	0.193787	1376.35	93363.5
257	2.000000	1.297393	7.36757e+06	-51489.1	955.82	-29752.3	0.000000	0.000000	7.308723	282.754	NaN	0.000000	0.001600	0.001655	28.0804	80.088	0.001793	44665.6	3.080508	-5.942554	278.304	1.297090	0.083959	0.083656	282.754	44665.6	0.079211	0.203563	1389.02	90447.7
257	2.000000	1.299966	7.36757e+06	-51489.1	955.82	-29752.3	0.000000	0.000000	7.312152	303.59	NaN	0.000000	0.001599	0.001618	28.0803	82.8472	0.001807	45843.4	2.861075	174.522	306.149	1.299722	0.086532	0.086288	303.59	45843.4	0.081565	0.214287	1416.74	90479.9
257	2.000000	1.302425	7.36757e+06	-51489.1	955.82	-29752.3	0.000000	0.000000	7.315630	328.358	NaN	0.000000	0.001585	0.001649	28.0802	83.7013	0.001658	50490.1	4.703245	-7.777137	323.654	1.302121	0.088991	0.088686	328.358	50490.1	0.084113	0.226190	1451.69	96993.4
257	2.000000	1.304964	7.36757e+06	-51489.1	955.82	-29752.3	0.000000	0.000000	7.318942	347.14	NaN	0.000000	0.001605	0.001646	28.0802	86.1882	0.001743	49443.6	3.281049	173.355	346.603	1.304601	0.091530	0.091167	347.14	49443.6	0.086264	0.236469	1468.01	92895.8
257	2.000000	1.307394	7.36757e+06	-51489.1	955.82	-29752.3	0.000000	0.000000	7.322208	367.498	NaN	0.000000	0.001584	0.001626	28.0804	89.1435	0.001669	53426.7	5.027655	-8.836228	363.335	1.307064	0.093960	0.093630	367.498	53426.7	0.088801	0.248865	1476.69	97847.4
257	2.000000	1.309936	7.36757e+06	-51489.1	955.82	-29752.3	0.000000	0.000000	7.325600	388.151	NaN	0.000000	0.001579	0.001659	28.0803	93.957	0.001763	53296.7	4.068660	171.923	387.761	1.309672	0.096501	0.096237	388.151	53296.7	0.091039	0.260051	1492.59	95487
257	2.000000	1.312417	7.36757e+06	-51489.1	955.82	-29752.3	0.000000	0.000000	7.328907	408.247	NaN	0.000000	0.001612	0.001627	28.0804	96.1799	0.001808	53188.5	6.533191	-10.2927	405.145	1.312137	0.098983	0.098702	408.247	53188.5	0.093226	0.271199	1505.34	93314
257	2.000000	1.314911	7.36757e+06	-51489.1	955.821	-29752.3	0.000000	0.000000	7.332288	429.813	NaN	0.000000	0.001573	0.001677	28.0806	98.6298	0.001815	54335.7	7.589910	168.319	427.186	1.314561	0.101477	0.101127	429.813	54335.7	0.095544	0.283254	1517.41	93276.2
257	2.000000	1.317506	7.36757e+06	-51489.1	955.82	-29752.3	0.000000	0.000000	7.335559	446.245	NaN	0.000000	0.001581	0.001643	28.0803	101.191	0.001914	52870.2	4.306535	-8.050977	448.632	1.317152	0.104071	0.103718	446.245	52870.2	0.097741	0.294908	1513.17	88949.1
257	2.000000	1.319992	7.36757e+06	-51489.1	955.821	-29752.3	0.000000	0.000000	7.338958	468.444	NaN	0.000000	0.001537	0.001660	28.079	104.432	0.001819	57417.9	6.697190	168.441	472.884	1.319757	0.106558	0.106322	468.444	57417.9	0.100439	0.309517	1513.47	94292.8
257	2.000000	1.322393	7.36757e+06	-51489.1	955.82	-29752.3	0.000000	0.000000	7.342571	497.91	NaN	0.000000	0.001569	0.001679	28.0792	104.772	0.001776	59004.5	5.322081	-10.2337	492.267	1.322072	0.108959	0.108638	497.91	59004.5	0.102630	0.321627	1548.1	95056.6
257	2.000000	1.323862	7.36757e+06	-51489.1	955.82	-29752.3	0.000000	0.000000	7.344752	515.239	NaN	0.000000	0.001580	0.001684	28.0794	106.33	0.001768	60151.3	3.944107	171.047	510.717	1.323585	0.110427	0.110151	515.239	60151.3	0.104003	0.329327	1564.52	95764.5