File: remote_trans/data/nanoindenter/0828-1/data/Data_2025-08-06,11h17m57s/2025-07-22_16-23-58_1_38.txt
2025-07-22, 16:23:58, 1
Index	Phase	Displacement	Time	Pos X	Pos Y	Pos Z	Rot A	Rot B	Piezo Z	Force A	Force B	Gripper	Voltage A	Voltage B	Temperature	Amplitude force	Amplitude pos	Stiffness	Phase shift	Phase excitation	Force A raw	Displacement raw	HMax	HMax raw	Real Force	Real Stiffness	Contact Depth	Area	Hardness	Reduced Mod.
[#]	[#]	[um]	[s]	[um]	[um]	[um]	[m°]	[m°]	[um]	[uN]	[uN]	[V]	[V]	[V]	[°C]	[uN]	[um]	[N/m]	[°]	[°]	[uN]	[um]	[um]	[um]	[uN]	[N/m]	[um]	[um^2]	[MPa]	[MPa]
38	1.000000	0.002181	7.36541e+06	-40539.1	955.818	-29790.3	0.000000	0.000000	6.002788	0.068034	NaN	0.000000	0.001610	0.001761	28.0861	0.022568	0.000952	23.7099	145.108	-167.532	0.063826	0.000977	-1.050124	-1.051328	0.068034	23.7099	-1.052276	-1.145535E+14	-5.939098E-16	NaN
38	1.000000	0.010164	7.36541e+06	-40539.1	955.818	-29790.3	0.000000	0.000000	6.010769	0.004748	NaN	0.000000	0.001623	0.001780	28.0852	0.094800	0.000972	97.5414	-50.804	-164.981	0.106537	0.008846	-1.042140	-1.043458	0.004748	97.5414	-1.042177	-8.379857E+13	-5.665536E-17	NaN
38	1.000000	0.018166	7.36541e+06	-40539.1	955.818	-29790.3	0.000000	0.000000	6.018774	0.062064	NaN	0.000000	0.001609	0.001805	28.0849	0.065187	0.001763	36.972	-132.156	-162.66	0.068853	0.016844	-1.034138	-1.035460	0.062064	36.972	-1.035397	-6.793113E+13	-9.136308E-16	NaN
38	1.000000	0.026178	7.36541e+06	-40539.1	955.818	-29790.3	0.000000	0.000000	6.026784	0.040624	NaN	0.000000	0.001622	0.001785	28.0856	0.016839	0.001842	9.140978	4.260869	-163.341	-0.030816	0.024836	-1.026127	-1.027468	0.040624	9.140978	-1.029460	-5.652171E+13	-7.187240E-16	NaN
38	1.000000	0.034134	7.36541e+06	-40539.1	955.819	-29790.3	0.000000	0.000000	6.034741	0.046431	NaN	0.000000	0.001624	0.001785	28.0849	0.111386	0.001908	58.3772	110.464	-165.682	0.079689	0.032861	-1.018170	-1.019443	0.046431	58.3772	-1.018767	-4.058409E+13	-1.144076E-15	NaN
38	1.000000	0.042131	7.36541e+06	-40539.1	955.819	-29790.3	0.000000	0.000000	6.042737	0.031222	NaN	0.000000	0.001622	0.001800	28.087	0.037003	0.002028	18.2482	21.3694	-164.506	0.006728	0.040827	-1.010174	-1.011478	0.031222	18.2482	-1.011457	-3.235854E+13	-9.648824E-16	NaN
38	1.000000	0.050159	7.36541e+06	-40539.1	955.819	-29790.3	0.000000	0.000000	6.050763	-0.006336	NaN	0.000000	0.001633	0.001783	28.0864	0.079382	0.001932	41.0946	-65.6892	-161.421	0.040624	0.048860	-1.002146	-1.003444	-0.006336	41.0946	-1.002030	-2.416024E+13	2.622537E-16	NaN
38	1.000000	0.058160	7.36541e+06	-40539.1	955.818	-29790.3	0.000000	0.000000	6.058766	0.036559	NaN	0.000000	0.001648	0.001764	28.0862	0.048463	0.001883	25.7438	-121.409	-166.032	-0.018840	0.056908	-0.994145	-0.995397	0.036559	25.7438	-0.995210	-1.955567E+13	-1.869506E-15	NaN
38	1.000000	0.066129	7.36541e+06	-40539.1	955.819	-29790.3	0.000000	0.000000	6.066737	0.082504	NaN	0.000000	0.001630	0.001769	28.0866	0.106648	0.002065	51.6516	129.287	-166.792	0.123011	0.064845	-0.986176	-0.987459	0.082504	51.6516	-0.987374	-1.533694E+13	-5.379432E-15	NaN
38	1.000000	0.074143	7.36541e+06	-40539.1	955.818	-29790.3	0.000000	0.000000	6.074746	-0.037145	NaN	0.000000	0.001650	0.001765	28.086	0.047657	0.001913	24.9128	-95.854	-162.793	-0.050380	0.072886	-0.978161	-0.979418	-0.037145	24.9128	-0.977043	-1.113197E+13	3.336783E-15	NaN
38	1.000000	0.082155	7.36541e+06	-40539.1	955.818	-29790.3	0.000000	0.000000	6.082761	0.041549	NaN	0.000000	0.001657	0.001782	28.0853	0.104845	0.002074	50.5546	-38.4153	-165.809	0.002237	0.080849	-0.970150	-0.971455	0.041549	50.5546	-0.970766	-9.161962E+12	-4.534978E-15	NaN
38	1.000000	0.090177	7.36541e+06	-40539.1	955.818	-29790.3	0.000000	0.000000	6.090785	0.065396	NaN	0.000000	0.001691	0.001758	28.085	0.026664	0.002083	12.8013	165.51	-164.529	0.016238	0.088882	-0.962127	-0.963422	0.065396	12.8013	-0.965958	-7.892083E+12	-8.286282E-15	NaN
38	1.000000	0.098144	7.36541e+06	-40539.1	955.818	-29790.3	0.000000	0.000000	6.098748	-0.006467	NaN	0.000000	0.001659	0.001779	28.0857	0.024352	0.001868	13.0356	-46.4589	-164.114	-0.051597	0.096872	-0.954161	-0.955433	-0.006467	13.0356	-0.953788	-5.408998E+12	1.195686E-15	NaN
38	1.000000	0.106186	7.36541e+06	-40539.1	955.818	-29790.3	0.000000	0.000000	6.106795	0.107506	NaN	0.000000	0.001656	0.001799	28.0858	0.108069	0.002024	53.395	31.5571	-161.828	0.212764	0.104821	-0.946119	-0.947483	0.107506	53.395	-0.947629	-4.467343E+12	-2.406480E-14	NaN
38	1.000000	0.114184	7.36541e+06	-40539.1	955.818	-29790.3	0.000000	0.000000	6.114788	-0.029365	NaN	0.000000	0.001658	0.001798	28.0873	0.030923	0.002047	15.1057	-8.146858	-164.357	-0.045141	0.112956	-0.938120	-0.939349	-0.029365	15.1057	-0.936662	-3.177618E+12	9.241063E-15	NaN
38	1.000000	0.122188	7.36541e+06	-40539.1	955.818	-29790.3	0.000000	0.000000	6.122796	0.066457	NaN	0.000000	0.001687	0.001784	28.0873	0.051614	0.001997	25.8499	-70.325	-163.917	-0.061222	0.120902	-0.930116	-0.931403	0.066457	25.8499	-0.932044	-2.752886E+12	-2.414071E-14	NaN
38	1.000000	0.130175	7.36541e+06	-40539.1	955.818	-29790.3	0.000000	0.000000	6.130781	0.029027	NaN	0.000000	0.001601	0.001787	28.0883	0.091013	0.001965	46.3159	86.8976	-166.89	0.020829	0.128852	-0.922129	-0.923452	0.029027	46.3159	-0.922599	-2.052583E+12	-1.414166E-14	NaN
38	1.000000	0.138200	7.36541e+06	-40539.1	955.818	-29790.3	0.000000	0.000000	6.138807	0.067522	NaN	0.000000	0.001637	0.001832	28.0885	0.026133	0.001990	13.1322	-92.5372	-161.557	0.106212	0.136861	-0.914105	-0.915444	0.067522	13.1322	-0.917961	-1.776951E+12	-3.799866E-14	NaN
38	1.000000	0.146168	7.36541e+06	-40539.1	955.819	-29790.3	0.000000	0.000000	6.146774	0.038015	NaN	0.000000	0.001634	0.001765	28.0881	0.088202	0.002032	43.4037	-40.6434	-165.188	0.058735	0.144822	-0.906137	-0.907482	0.038015	43.4037	-0.906794	-1.255606E+12	-3.027603E-14	NaN
38	1.000000	0.154136	7.36541e+06	-40539.1	955.818	-29790.3	0.000000	0.000000	6.154740	-0.030335	NaN	0.000000	0.001654	0.001750	28.0881	0.148737	0.001998	74.4341	146.845	-164.953	-0.081537	0.152878	-0.898168	-0.899426	-0.030335	74.4341	-0.897863	-9.510070E+11	3.189729E-14	NaN
38	1.000000	0.162173	7.36541e+06	-40539.1	955.818	-29790.3	0.000000	0.000000	6.162780	0.041996	NaN	0.000000	0.001625	0.001805	28.0877	0.146616	0.002126	68.9528	-104.684	-164.138	-0.026914	0.160890	-0.890131	-0.891414	0.041996	68.9528	-0.890588	-7.583380E+11	-5.537834E-14	NaN
38	1.000000	0.170188	7.36541e+06	-40539.1	955.818	-29790.3	0.000000	0.000000	6.170794	0.018840	NaN	0.000000	0.001608	0.001795	28.0882	0.104600	0.002139	48.897	129.086	-166.749	0.025047	0.168870	-0.882116	-0.883435	0.018840	48.897	-0.882405	-5.878023E+11	-3.205175E-14	NaN
38	1.000000	0.178214	7.36541e+06	-40539.1	955.818	-29790.3	0.000000	0.000000	6.178819	0.007480	NaN	0.000000	0.001616	0.001785	28.0872	0.127011	0.001997	63.5968	93.4248	-166.028	0.088441	0.176916	-0.874091	-0.875389	0.007480	63.5968	-0.874179	-4.549663E+11	-1.644056E-14	NaN
38	1.000000	0.186229	7.36541e+06	-40539.1	955.819	-29790.3	0.000000	0.000000	6.186834	-0.009207	NaN	0.000000	0.001617	0.001819	28.0876	0.044506	0.001990	22.3613	5.909049	-162.891	-0.089595	0.184928	-0.866075	-0.867377	-0.009207	22.3613	-0.865766	-3.500723E+11	2.629964E-14	NaN
38	1.000000	0.194209	7.36541e+06	-40539.1	955.818	-29790.3	0.000000	0.000000	6.194813	-0.001601	NaN	0.000000	0.001654	0.001811	28.0868	0.040778	0.002031	20.0826	38.6181	-161.498	0.086823	0.192957	-0.858096	-0.859348	-0.001601	20.0826	-0.858036	-2.751305E+11	5.817512E-15	NaN
38	1.000000	0.202202	7.36541e+06	-40539.1	955.818	-29790.3	0.000000	0.000000	6.202808	0.039889	NaN	0.000000	0.001659	0.001912	28.0875	0.072673	0.002024	35.9097	-127.966	-160.338	0.085548	0.200889	-0.850103	-0.851415	0.039889	35.9097	-0.850936	-2.205000E+11	-1.809040E-13	NaN
38	1.000000	0.210170	7.36541e+06	-40539.1	955.818	-29790.3	0.000000	0.000000	6.210772	-0.056553	NaN	0.000000	0.001626	0.001837	28.0883	0.075217	0.001991	37.7807	-46.3175	-164.426	0.017515	0.208872	-0.842135	-0.843433	-0.056553	37.7807	-0.841012	-1.618097E+11	3.495004E-13	NaN
38	1.000000	0.218221	7.36541e+06	-40539.1	955.819	-29790.3	0.000000	0.000000	6.218824	-0.021154	NaN	0.000000	0.001597	0.001768	28.087	0.067086	0.001938	34.6209	39.4591	-163.633	-0.009398	0.216952	-0.834084	-0.835352	-0.021154	34.6209	-0.833626	-1.285057E+11	1.646132E-13	NaN
38	1.000000	0.226227	7.36541e+06	-40539.1	955.818	-29790.3	0.000000	0.000000	6.226834	0.035059	NaN	0.000000	0.001618	0.001803	28.0881	0.062938	0.002072	30.3806	46.0904	-162.984	0.008331	0.224926	-0.826077	-0.827379	0.035059	30.3806	-0.826943	-1.043135E+11	-3.360953E-13	NaN
38	1.000000	0.234238	7.36541e+06	-40539.1	955.818	-29790.3	0.000000	0.000000	6.234844	0.022334	NaN	0.000000	0.001646	0.001798	28.0875	0.088983	0.002022	44.0174	50.1743	-163.269	0.072254	0.232920	-0.818067	-0.819384	0.022334	44.0174	-0.818447	-8.001136E+10	-2.791308E-13	NaN
38	1.000000	0.242237	7.36541e+06	-40539.1	955.818	-29790.3	0.000000	0.000000	6.242843	0.043330	NaN	0.000000	0.001603	0.001795	28.0885	0.015845	0.001988	7.969070	107.323	-166.385	0.085416	0.240933	-0.810068	-0.811372	0.043330	7.969070	-0.814146	-6.995364E+10	-6.194140E-13	NaN
38	1.000000	0.250252	7.36541e+06	-40539.1	955.818	-29790.3	0.000000	0.000000	6.250857	0.006007	NaN	0.000000	0.001608	0.001810	28.0873	0.041000	0.001975	20.7636	60.5064	-165.046	-0.035898	0.248962	-0.802052	-0.803343	0.006007	20.7636	-0.802269	-4.826871E+10	-1.244546E-13	NaN
38	1.000000	0.258219	7.36541e+06	-40539.1	955.819	-29790.3	0.000000	0.000000	6.258826	0.063877	NaN	0.000000	0.001647	0.001802	28.0861	0.035929	0.002038	17.6273	88.938	-161.846	0.004804	0.256919	-0.794086	-0.795386	0.063877	17.6273	-0.796804	-4.068852E+10	-1.569899E-12	NaN
38	1.000000	0.266234	7.36541e+06	-40539.1	955.818	-29790.3	0.000000	0.000000	6.266842	0.068267	NaN	0.000000	0.001636	0.001790	28.0858	0.035850	0.001898	18.8864	54.061	-165.711	0.020675	0.264982	-0.786070	-0.787322	0.068267	18.8864	-0.788781	-3.166147E+10	-2.156162E-12	NaN
38	1.000000	0.274222	7.36541e+06	-40539.1	955.819	-29790.3	0.000000	0.000000	6.274825	-0.023079	NaN	0.000000	0.001617	0.001801	28.0858	0.030735	0.002043	15.0451	-125.283	-165.96	-0.049370	0.272990	-0.778083	-0.779314	-0.023079	15.0451	-0.776932	-2.185459E+10	1.056013E-12	NaN
38	1.000000	0.282227	7.36541e+06	-40539.1	955.818	-29790.3	0.000000	0.000000	6.282835	0.071569	NaN	0.000000	0.001629	0.001747	28.0871	0.107899	0.001898	56.8473	85.3273	-163.562	0.015977	0.280939	-0.770077	-0.771366	0.071569	56.8473	-0.771022	-1.816336E+10	-3.940303E-12	NaN
38	1.000000	0.290253	7.36541e+06	-40539.1	955.818	-29790.3	0.000000	0.000000	6.290859	0.029558	NaN	0.000000	0.001618	0.001754	28.0868	0.098051	0.001921	51.0438	70.2499	-162.163	-0.018846	0.288916	-0.762051	-0.763389	0.029558	51.0438	-0.762485	-1.390306E+10	-2.125993E-12	NaN
38	1.000000	0.298245	7.36541e+06	-40539.1	955.819	-29790.3	0.000000	0.000000	6.298853	0.068708	NaN	0.000000	0.001640	0.001788	28.0872	0.125324	0.001963	63.8523	-162.803	-163.233	0.114575	0.296936	-0.754059	-0.755368	0.068708	63.8523	-0.754866	-1.095094E+10	-6.274192E-12	NaN
38	1.000000	0.306260	7.36541e+06	-40539.1	955.818	-29790.3	0.000000	0.000000	6.306864	-0.030176	NaN	0.000000	0.001631	0.001753	28.0878	0.112189	0.002142	52.365	-78.4605	-164.047	0.047785	0.304987	-0.746044	-0.747317	-0.030176	52.365	-0.745612	-8.193680E+9	3.682871E-12	NaN
38	1.000000	0.314253	7.36541e+06	-40539.1	955.819	-29790.3	0.000000	0.000000	6.314858	0.007174	NaN	0.000000	0.001625	0.001744	28.0881	0.109721	0.002119	51.7895	-115.829	-168.467	0.049843	0.312983	-0.738051	-0.739321	0.007174	51.7895	-0.738155	-6.485288E+9	-1.106254E-12	NaN
38	1.000000	0.322223	7.36541e+06	-40539.1	955.819	-29790.3	0.000000	0.000000	6.322826	-0.025985	NaN	0.000000	0.001615	0.001758	28.0868	0.034008	0.002013	16.8961	107.181	-163.291	-0.056893	0.320962	-0.730082	-0.731342	-0.025985	16.8961	-0.728928	-4.855160E+9	5.352104E-12	NaN
38	1.000000	0.330265	7.36541e+06	-40539.1	955.819	-29790.3	0.000000	0.000000	6.330872	0.055489	NaN	0.000000	0.001605	0.001759	28.0868	0.102739	0.002031	50.5801	-141.765	-165.631	0.039666	0.328956	-0.722039	-0.723348	0.055489	50.5801	-0.722862	-4.013328E+9	-1.382628E-11	NaN
38	1.000000	0.338249	7.36541e+06	-40539.1	955.818	-29790.3	0.000000	0.000000	6.338854	0.025187	NaN	0.000000	0.001616	0.001790	28.0868	0.106574	0.002035	52.3607	72.7453	-164.371	0.034676	0.336947	-0.714056	-0.715357	0.025187	52.3607	-0.714417	-3.078327E+9	-8.182126E-12	NaN
38	1.000000	0.346280	7.36541e+06	-40539.1	955.819	-29790.3	0.000000	0.000000	6.346885	0.018387	NaN	0.000000	0.001621	0.001772	28.0854	0.075043	0.001805	41.5654	-165.808	-165.88	0.049966	0.344945	-0.706025	-0.707360	0.018387	41.5654	-0.706357	-2.389575E+9	-7.694555E-12	NaN
38	1.000000	0.354277	7.36541e+06	-40539.1	955.818	-29790.3	0.000000	0.000000	6.354882	0.004837	NaN	0.000000	0.001639	0.001759	28.0856	0.073456	0.001975	37.1866	58.1811	-161.958	0.004410	0.353021	-0.698028	-0.699284	0.004837	37.1866	-0.698125	-1.844699E+9	-2.622222E-12	NaN
38	1.000000	0.362283	7.36541e+06	-40539.1	955.818	-29790.3	0.000000	0.000000	6.362890	0.058931	NaN	0.000000	0.001646	0.001771	28.0858	0.068453	0.001935	35.3684	103.073	-164.292	0.124773	0.360965	-0.690022	-0.691339	0.058931	35.3684	-0.691272	-1.486944E+9	-3.963240E-11	NaN
38	1.000000	0.370274	7.36541e+06	-40539.1	955.818	-29790.3	0.000000	0.000000	6.370881	0.066371	NaN	0.000000	0.001642	0.001768	28.0874	0.087997	0.001994	44.127	29.1281	-165.944	0.017671	0.368990	-0.682031	-0.683314	0.066371	44.127	-0.683159	-1.151868E+9	-5.761998E-11	NaN
38	1.000000	0.378266	7.36541e+06	-40539.1	955.819	-29790.3	0.000000	0.000000	6.378873	0.061228	NaN	0.000000	0.001637	0.001734	28.0875	0.121379	0.001870	64.9163	141.651	-164.121	0.090477	0.376989	-0.674038	-0.675316	0.061228	64.9163	-0.674746	-8.837552E+8	-6.928111E-11	NaN
38	1.000000	0.386297	7.36541e+06	-40539.1	955.818	-29790.3	0.000000	0.000000	6.386904	0.068668	NaN	0.000000	0.001618	0.001764	28.0874	0.070266	0.001936	36.3032	-88.2995	-166.507	0.090687	0.384950	-0.666008	-0.667354	0.068668	36.3032	-0.667426	-7.017198E+8	-9.785602E-11	NaN
38	1.000000	0.394265	7.36541e+06	-40539.1	955.818	-29790.3	0.000000	0.000000	6.394869	-0.021900	NaN	0.000000	0.001631	0.001728	28.0879	0.035823	0.002034	17.6132	-49.1763	-165.888	0.002111	0.393039	-0.658039	-0.659266	-0.021900	17.6132	-0.657106	-5.067916E+8	4.321285E-11	NaN
38	1.000000	0.402296	7.36541e+06	-40539.1	955.819	-29790.3	0.000000	0.000000	6.402900	0.002451	NaN	0.000000	0.001592	0.001770	28.089	0.062711	0.001987	31.5676	-174.205	-166.481	-0.004096	0.400990	-0.650009	-0.651315	0.002451	31.5676	-0.650067	-4.058426E+8	-6.039442E-12	NaN
38	1.000000	0.410283	7.36541e+06	-40539.1	955.818	-29790.3	0.000000	0.000000	6.410889	0.018725	NaN	0.000000	0.001599	0.001763	28.0879	0.043700	0.001993	21.932	118.669	-166.735	0.007963	0.408989	-0.642021	-0.643315	0.018725	21.932	-0.642661	-3.212183E+8	-5.829492E-11	NaN
38	1.000000	0.418316	7.36541e+06	-40539.1	955.818	-29790.4	0.000000	0.000000	6.418923	0.055247	NaN	0.000000	0.001605	0.001769	28.0866	0.066450	0.002078	31.9732	133.587	-164.897	0.092109	0.416974	-0.633989	-0.635331	0.055247	31.9732	-0.635285	-2.544369E+8	-2.171353E-10	NaN
38	1.000000	0.426268	7.36541e+06	-40539.1	955.818	-29790.4	0.000000	0.000000	6.426872	-0.024252	NaN	0.000000	0.001593	0.001751	28.0871	0.062110	0.001939	32.0345	146.365	-165.422	-0.070376	0.425054	-0.626036	-0.627251	-0.024252	32.0345	-0.625468	-1.865429E+8	1.300069E-10	NaN
38	1.000000	0.434334	7.36541e+06	-40539.1	955.818	-29790.4	0.000000	0.000000	6.434939	0.001828	NaN	0.000000	0.001601	0.001773	28.0871	0.066621	0.001846	36.0946	-179.409	-165.178	0.015670	0.433025	-0.617970	-0.619280	0.001828	36.0946	-0.618008	-1.473169E+8	-1.240552E-11	NaN
38	1.000000	0.442298	7.36541e+06	-40539.1	955.818	-29790.4	0.000000	0.000000	6.442905	0.042839	NaN	0.000000	0.001599	0.001757	28.0874	0.054501	0.002151	25.3414	-72.9749	-162.918	0.039215	0.441019	-0.610006	-0.611286	0.042839	25.3414	-0.611274	-1.190255E+8	-3.599124E-10	NaN
38	1.000000	0.450316	7.36541e+06	-40539.1	955.819	-29790.4	0.000000	0.000000	6.450922	0.035626	NaN	0.000000	0.001607	0.001782	28.088	0.061265	0.002040	30.0365	-51.4718	-162.724	-0.031620	0.449001	-0.601988	-0.603303	0.035626	30.0365	-0.602878	-9.122038E+7	-3.905496E-10	NaN
38	1.000000	0.458323	7.36541e+06	-40539.1	955.817	-29790.4	0.000000	0.000000	6.458931	0.084632	NaN	0.000000	0.001604	0.001767	28.0873	0.060023	0.002095	28.6514	-96.9087	-165.357	0.108979	0.457032	-0.593981	-0.595272	0.084632	28.6514	-0.596197	-7.380212E+7	-1.146740E-9	NaN
38	1.000000	0.466331	7.36541e+06	-40539.1	955.818	-29790.4	0.000000	0.000000	6.466934	-0.044491	NaN	0.000000	0.001647	0.001768	28.0879	0.089457	0.002034	43.9702	-125.769	-165.518	-0.040142	0.465029	-0.585974	-0.587276	-0.044491	43.9702	-0.585215	-5.208084E+7	8.542768E-10	NaN
38	1.000000	0.474335	7.36541e+06	-40539.1	955.818	-29790.4	0.000000	0.000000	6.474941	0.025996	NaN	0.000000	0.001613	0.001768	28.0877	0.059065	0.001941	30.4359	-21.746	-162.667	0.073474	0.472982	-0.577969	-0.579322	0.025996	30.4359	-0.578610	-4.222181E+7	-6.156952E-10	NaN
38	1.000000	0.482312	7.36541e+06	-40539.1	955.819	-29790.4	0.000000	0.000000	6.482921	0.104622	NaN	0.000000	0.001588	0.001783	28.0876	0.072867	0.001980	36.8074	113.146	-164.936	0.098736	0.481010	-0.569992	-0.571294	0.104622	36.8074	-0.572124	-3.435387E+7	-3.045418E-9	NaN
38	1.000000	0.490346	7.36541e+06	-40539.1	955.818	-29790.4	0.000000	0.000000	6.490954	0.080889	NaN	0.000000	0.001597	0.001789	28.0873	0.182670	0.001972	92.6507	153.84	-161.754	0.074019	0.488979	-0.561958	-0.563326	0.080889	92.6507	-0.562613	-2.538175E+7	-3.186899E-9	NaN
38	1.000000	0.498335	7.36541e+06	-40539.1	955.819	-29790.4	0.000000	0.000000	6.498940	0.009089	NaN	0.000000	0.001603	0.001783	28.0876	0.094331	0.001977	47.7249	-24.0925	-163.171	0.118163	0.497056	-0.553969	-0.555249	0.009089	47.7249	-0.554112	-1.935977E+7	-4.694710E-10	NaN
38	1.000000	0.506355	7.36541e+06	-40539.1	955.819	-29790.4	0.000000	0.000000	6.506960	0.029133	NaN	0.000000	0.001586	0.001747	28.0867	0.101055	0.002070	48.8238	58.2206	-165.479	0.039997	0.505049	-0.545950	-0.547256	0.029133	48.8238	-0.546397	-1.513719E+7	-1.924572E-9	NaN
38	1.000000	0.514338	7.36541e+06	-40539.1	955.818	-29790.4	0.000000	0.000000	6.514943	0.009792	NaN	0.000000	0.001597	0.001793	28.087	0.033608	0.001931	17.4016	-149.301	-164.685	0.056868	0.513035	-0.537966	-0.539269	0.009792	17.4016	-0.538388	-1.172206E+7	-8.353257E-10	NaN
38	1.000000	0.522363	7.36541e+06	-40539.1	955.819	-29790.4	0.000000	0.000000	6.522966	-0.055269	NaN	0.000000	0.001579	0.001800	28.0876	0.089908	0.001989	45.2126	75.2983	-163.083	-0.022863	0.520996	-0.529941	-0.531308	-0.055269	45.2126	-0.529024	-8.69012e+06	6.359935E-9	NaN
38	1.000000	0.530363	7.36541e+06	-40539.1	955.818	-29790.4	0.000000	0.000000	6.530969	0.038734	NaN	0.000000	0.001587	0.001779	28.0864	0.042260	0.002093	20.191	-112.309	-164.192	0.037766	0.529079	-0.521942	-0.523226	0.038734	20.191	-0.523380	-7.25435e+06	-5.339450E-9	NaN
38	1.000000	0.538344	7.36541e+06	-40539.1	955.818	-29790.4	0.000000	0.000000	6.538950	0.035134	NaN	0.000000	0.001600	0.001783	28.0881	0.040286	0.001865	21.6029	70.1693	-168.491	0.032496	0.537005	-0.513961	-0.515300	0.035134	21.6029	-0.515181	-5.57886e+06	-6.297750E-9	NaN
38	1.000000	0.546353	7.36541e+06	-40539.1	955.818	-29790.4	0.000000	0.000000	6.546958	0.006296	NaN	0.000000	0.001603	0.001765	28.0874	0.037094	0.002119	17.5027	-34.1302	-161.716	0.056626	0.545074	-0.505952	-0.507231	0.006296	17.5027	-0.506222	-4.18574e+06	-1.504141E-9	NaN
38	1.000000	0.554394	7.36541e+06	-40539.1	955.819	-29790.4	0.000000	0.000000	6.555000	0.030561	NaN	0.000000	0.001597	0.001742	28.0875	0.045044	0.002031	22.182	-178.085	-162.871	0.074354	0.553081	-0.497910	-0.499223	0.030561	22.182	-0.498944	-3.31343e+06	-9.223333E-9	NaN
38	1.000000	0.562357	7.36541e+06	-40539.1	955.818	-29790.4	0.000000	0.000000	6.562963	0.023355	NaN	0.000000	0.001580	0.001746	28.0864	0.089147	0.001859	47.9449	-90.9436	-164.234	0.076858	0.561063	-0.489947	-0.491241	0.023355	47.9449	-0.490313	-2.51051e+06	-9.303084E-9	NaN
38	1.000000	0.570365	7.36541e+06	-40539.1	955.818	-29790.4	0.000000	0.000000	6.570971	0.028096	NaN	0.000000	0.001623	0.001744	28.0858	0.040870	0.002072	19.7206	-167.069	-166.468	0.047184	0.569045	-0.481940	-0.483259	0.028096	19.7206	-0.483008	-1.98439e+06	-1.415844E-8	NaN
38	1.000000	0.578356	7.36541e+06	-40539.1	955.818	-29790.4	0.000000	0.000000	6.578962	0.037105	NaN	0.000000	0.001587	0.001772	28.0861	0.044416	0.002014	22.0483	-149.185	-163.76	0.052474	0.577101	-0.473948	-0.475203	0.037105	22.0483	-0.475210	-1.54329e+06	-2.404279E-8	NaN
38	1.000000	0.586385	7.36541e+06	-40539.1	955.818	-29790.4	0.000000	0.000000	6.586994	0.098476	NaN	0.000000	0.001595	0.001787	28.0865	0.053433	0.001980	26.9851	10.9537	-164.643	0.128232	0.585118	-0.465919	-0.467187	0.098476	26.9851	-0.468656	-1.24898e+06	-7.884456E-8	NaN
38	1.000000	0.594375	7.36541e+06	-40539.1	955.819	-29790.4	0.000000	0.000000	6.594980	0.019793	NaN	0.000000	0.001569	0.001772	28.0869	0.020795	0.002010	10.3477	-93.1885	-161.413	-0.039852	0.593072	-0.457930	-0.459233	0.019793	10.3477	-0.459365	-924884	-2.140086E-8	NaN
38	1.000000	0.602359	7.36541e+06	-40539.1	955.819	-29790.4	0.000000	0.000000	6.602965	0.021594	NaN	0.000000	0.001607	0.001725	28.0864	0.019417	0.002134	9.098866	-141.052	-163.011	-0.001100	0.601113	-0.449945	-0.451191	0.021594	9.098866	-0.451725	-722162	-2.990251E-8	NaN
38	1.000000	0.610371	7.36541e+06	-40539.1	955.818	-29790.4	0.000000	0.000000	6.610975	-0.024011	NaN	0.000000	0.001610	0.001745	28.0879	0.037796	0.002076	18.2073	35.1697	-164.521	-0.018220	0.609106	-0.441933	-0.443199	-0.024011	18.2073	-0.440944	-508969	4.717544E-8	NaN
38	1.000000	0.618392	7.36541e+06	-40539.1	955.818	-29790.4	0.000000	0.000000	6.618997	0.015073	NaN	0.000000	0.001588	0.001724	28.087	0.075956	0.002047	37.097	-40.4587	-162.576	-0.052042	0.617050	-0.433913	-0.435254	0.015073	37.097	-0.434217	-408972	-3.685465E-8	NaN
38	1.000000	0.626392	7.36541e+06	-40539.1	955.818	-29790.4	0.000000	0.000000	6.626999	0.052736	NaN	0.000000	0.001587	0.001753	28.088	0.117931	0.001906	61.8858	-7.842202	-165.844	0.025737	0.625076	-0.425912	-0.427228	0.052736	61.8858	-0.426551	-318603	-1.655212E-7	NaN
38	1.000000	0.634374	7.36541e+06	-40539.1	955.817	-29790.4	0.000000	0.000000	6.634982	0.069311	NaN	0.000000	0.001610	0.001759	28.0876	0.079309	0.002063	38.435	49.3825	-165.103	0.033492	0.633109	-0.417930	-0.419196	0.069311	38.435	-0.419283	-251329	-2.757765E-7	NaN
38	1.000000	0.642410	7.36541e+06	-40539.1	955.819	-29790.4	0.000000	0.000000	6.643018	0.089711	NaN	0.000000	0.001569	0.001785	28.0865	0.046545	0.001964	23.7018	-24.8217	-160.396	0.115982	0.641095	-0.409895	-0.411210	0.089711	23.7018	-0.412733	-202887	-4.421700E-7	NaN
38	1.000000	0.650426	7.36541e+06	-40539.1	955.818	-29790.4	0.000000	0.000000	6.651033	0.059984	NaN	0.000000	0.001580	0.001733	28.0862	0.049335	0.001929	25.5773	-117.489	-162.855	0.112824	0.649083	-0.401879	-0.403222	0.059984	25.5773	-0.403638	-150607	-3.982846E-7	NaN
38	1.000000	0.658390	7.36541e+06	-40539.1	955.818	-29790.4	0.000000	0.000000	6.658995	0.006358	NaN	0.000000	0.001579	0.001755	28.0872	0.059529	0.001879	31.6784	-144.194	-165.402	0.032869	0.657082	-0.393914	-0.395222	0.006358	31.6784	-0.394065	-109971	-5.781444E-8	NaN
38	1.000000	0.666419	7.36541e+06	-40539.1	955.818	-29790.4	0.000000	0.000000	6.667024	-0.009989	NaN	0.000000	0.001592	0.001736	28.0871	0.029481	0.002105	14.0042	158.616	-163.736	-0.055932	0.665095	-0.385885	-0.387209	-0.009989	14.0042	-0.385350	-82528.5	1.210362E-7	NaN
38	1.000000	0.674425	7.36541e+06	-40539.1	955.818	-29790.4	0.000000	0.000000	6.675030	0.013757	NaN	0.000000	0.001596	0.001718	28.0885	0.083440	0.002086	39.9911	-12.7806	-165.129	0.017129	0.673088	-0.377880	-0.379216	0.013757	39.9911	-0.378138	-65036.4	-2.115253E-7	NaN
38	1.000000	0.682406	7.36541e+06	-40539.1	955.818	-29790.4	0.000000	0.000000	6.683011	0.018397	NaN	0.000000	0.001562	0.001704	28.0893	0.078095	0.002107	37.066	-21.2094	-167.958	0.081840	0.681095	-0.369898	-0.371209	0.018397	37.066	-0.370271	-50121.6	-3.670496E-7	NaN
38	1.000000	0.690407	7.36541e+06	-40539.1	955.818	-29790.4	0.000000	0.000000	6.691014	0.048311	NaN	0.000000	0.001570	0.001734	28.0894	0.052400	0.001927	27.1863	-1.852553	-164.621	0.050320	0.689118	-0.361897	-0.363187	0.048311	27.1863	-0.363230	-39674.4	-1.217695E-6	NaN
38	1.000000	0.698423	7.36541e+06	-40539.1	955.818	-29790.4	0.000000	0.000000	6.699028	0.013191	NaN	0.000000	0.001601	0.001759	28.0887	0.002450	0.002056	1.191600	117.469	-165.244	-0.011916	0.697142	-0.353882	-0.355162	0.013191	1.191600	-0.362184	-38317.7	-3.442414E-7	NaN
38	1.000000	0.706403	7.36541e+06	-40539.1	955.819	-29790.4	0.000000	0.000000	6.707006	-0.041115	NaN	0.000000	0.001589	0.001734	28.0896	0.034837	0.001970	17.6819	77.9397	-166.348	0.023100	0.705091	-0.345901	-0.347214	-0.041115	17.6819	-0.344157	-20994.2	1.958389E-6	NaN
38	1.000000	0.714429	7.36541e+06	-40539.1	955.818	-29790.4	0.000000	0.000000	6.715033	0.001677	NaN	0.000000	0.001588	0.001730	28.0885	0.045255	0.001943	23.2963	64.6978	-161.507	-0.050257	0.713119	-0.337876	-0.339186	0.001677	23.2963	-0.337930	-17035.8	-9.842201E-8	NaN
38	1.000000	0.722429	7.36541e+06	-40539.1	955.818	-29790.4	0.000000	0.000000	6.723036	0.067160	NaN	0.000000	0.001639	0.001735	28.0875	0.104875	0.001963	53.4279	113.435	-163.281	0.035898	0.721084	-0.329876	-0.331221	0.067160	53.4279	-0.330819	-13410.3	-5.008129E-6	NaN
38	1.000000	0.730445	7.36541e+06	-40539.1	955.818	-29790.4	0.000000	0.000000	6.731048	-0.047711	NaN	0.000000	0.001605	0.001690	28.0879	0.055119	0.001997	27.5978	-159.349	-165.81	-0.016065	0.729132	-0.321859	-0.323173	-0.047711	27.5978	-0.320562	-9482.33	5.031552E-6	NaN
38	1.000000	0.738468	7.36541e+06	-40539.1	955.819	-29790.4	0.000000	0.000000	6.739074	0.029330	NaN	0.000000	0.001588	0.001739	28.0875	0.089782	0.002150	41.7513	71.1285	-165.526	0.134573	0.737121	-0.313836	-0.315183	0.029330	41.7513	-0.314363	-7683.32	-3.817385E-6	NaN
38	1.000000	0.746427	7.36541e+06	-40539.1	955.818	-29790.4	0.000000	0.000000	6.747032	0.008051	NaN	0.000000	0.001595	0.001735	28.0884	0.029064	0.001882	15.4449	11.843	-165.4	0.002830	0.745142	-0.305878	-0.307163	0.008051	15.4449	-0.306269	-5831.47	-1.380663E-6	NaN
38	1.000000	0.754453	7.36541e+06	-40539.1	955.818	-29790.4	0.000000	0.000000	6.755060	0.049220	NaN	0.000000	0.001588	0.001769	28.0871	0.023558	0.002174	10.8364	-134.429	-165.384	0.015479	0.753148	-0.297852	-0.299156	0.049220	10.8364	-0.301258	-4913.12	-1.001815E-5	NaN
38	1.000000	0.762417	7.36541e+06	-40539.1	955.818	-29790.4	0.000000	0.000000	6.763024	0.045469	NaN	0.000000	0.001574	0.001771	28.0887	0.050062	0.001901	26.3374	152.487	-164.614	0.092345	0.761146	-0.289887	-0.291158	0.045469	26.3374	-0.291182	-3475.37	-1.308318E-5	NaN
38	1.000000	0.770434	7.36541e+06	-40539.1	955.818	-29790.4	0.000000	0.000000	6.771041	0.057082	NaN	0.000000	0.001627	0.001700	28.0895	0.048757	0.001876	25.9924	124.148	-164.674	0.013460	0.769104	-0.281871	-0.283201	0.057082	25.9924	-0.283518	-2666.69	-2.140563E-5	NaN
38	1.000000	0.778443	7.36541e+06	-40539.1	955.819	-29790.4	0.000000	0.000000	6.779049	0.033951	NaN	0.000000	0.001599	0.001717	28.0893	0.048562	0.001938	25.0561	153.409	-164.946	-0.019265	0.777158	-0.273862	-0.275147	0.033951	25.0561	-0.274878	-1974.94	-1.719101E-5	NaN
38	1.000000	0.786455	7.36541e+06	-40539.1	955.818	-29790.4	0.000000	0.000000	6.787063	0.084493	NaN	0.000000	0.001571	0.001717	28.0892	0.028681	0.002026	14.1588	148.007	-161.481	0.033409	0.785196	-0.265850	-0.267108	0.084493	14.1588	-0.270326	-1684.58	-5.015662E-5	NaN
38	1.000000	0.794456	7.36541e+06	-40539.1	955.818	-29790.4	0.000000	0.000000	6.795062	0.040465	NaN	0.000000	0.001590	0.001725	28.0891	0.057921	0.001886	30.7141	-30.5186	-167.125	-0.060285	0.793191	-0.257849	-0.259114	0.040465	30.7141	-0.258837	-1124.82	-3.597426E-5	NaN
38	1.000000	0.802445	7.36541e+06	-40539.1	955.819	-29790.4	0.000000	0.000000	6.803051	0.036170	NaN	0.000000	0.001595	0.001733	28.0869	0.042864	0.002014	21.2847	148.937	-160.986	0.048264	0.801123	-0.249859	-0.251182	0.036170	21.2847	-0.251134	-856.033	-4.225290E-5	NaN
38	1.000000	0.810494	7.36541e+06	-40539.1	955.817	-29790.4	0.000000	0.000000	6.811100	0.046231	NaN	0.000000	0.001594	0.001731	28.087	0.051507	0.002066	24.931	143.442	-169.221	0.048425	0.809163	-0.241811	-0.243142	0.046231	24.931	-0.243201	-644.877	-7.168899E-5	NaN
38	1.000000	0.818494	7.36542e+06	-40539.1	955.818	-29790.4	0.000000	0.000000	6.819103	0.103531	NaN	0.000000	0.001593	0.001725	28.0872	0.121336	0.002041	59.4554	-10.9515	-164.316	0.163497	0.817208	-0.233811	-0.235097	0.103531	59.4554	-0.235116	-482.034	-0.000215	NaN
38	1.000000	0.826473	7.36542e+06	-40539.1	955.819	-29790.4	0.000000	0.000000	6.827077	0.000990	NaN	0.000000	0.001590	0.001702	28.0871	0.099722	0.001965	50.7512	-47.4283	-165.477	0.127923	0.825163	-0.225832	-0.227141	0.000990	50.7512	-0.225846	-344.168	-2.875062E-6	NaN
38	1.000000	0.834479	7.36542e+06	-40539.1	955.818	-29790.4	0.000000	0.000000	6.835083	-0.022243	NaN	0.000000	0.001591	0.001745	28.0869	0.062916	0.001871	33.6185	60.4997	-164.713	-0.022605	0.833198	-0.217825	-0.219107	-0.022243	33.6185	-0.217329	-251.722	8.836394E-5	NaN
38	1.000000	0.842486	7.36542e+06	-40539.1	955.819	-29790.4	0.000000	0.000000	6.843092	0.021769	NaN	0.000000	0.001594	0.001695	28.0873	0.042966	0.002065	20.8101	-133.727	-162.815	0.057055	0.841195	-0.209818	-0.211109	0.021769	20.8101	-0.210603	-196.145	-0.000111	NaN
38	1.000000	0.850499	7.36542e+06	-40539.1	955.818	-29790.4	0.000000	0.000000	6.851103	-0.010140	NaN	0.000000	0.001602	0.001712	28.0885	0.059052	0.002010	29.384	-18.5153	-164.459	2.903360E-5	0.849137	-0.201805	-0.203167	-0.010140	29.384	-0.201546	-139.664	7.260509E-5	NaN
38	1.000000	0.858495	7.36542e+06	-40539.1	955.818	-29790.4	0.000000	0.000000	6.859103	0.069061	NaN	0.000000	0.001607	0.001750	28.088	0.084052	0.002026	41.4877	62.7606	-163.326	0.013896	0.857228	-0.193809	-0.195077	0.069061	41.4877	-0.195057	-109.183	-0.000633	NaN
38	1.000000	0.866471	7.36542e+06	-40539.1	955.818	-29790.4	0.000000	0.000000	6.867072	-0.074481	NaN	0.000000	0.001602	0.001743	28.0877	0.097215	0.002025	48.0124	21.7016	-164.375	-0.083148	0.865233	-0.185834	-0.187072	-0.074481	48.0124	-0.184670	-73.2104	0.001017	NaN
38	1.000000	0.874484	7.36542e+06	-40539.1	955.818	-29790.4	0.000000	0.000000	6.875094	0.121389	NaN	0.000000	0.001582	0.001721	28.0875	0.074863	0.002100	35.65	69.481	-162.237	0.130496	0.873232	-0.177820	-0.179073	0.121389	35.65	-0.180374	-61.9201	-0.001960	NaN
38	1.000000	0.882526	7.36542e+06	-40539.1	955.818	-29790.4	0.000000	0.000000	6.883132	0.041780	NaN	0.000000	0.001595	0.001714	28.0871	0.033287	0.002102	15.8359	-66.9597	-164.178	0.049268	0.881180	-0.169779	-0.171125	0.041780	15.8359	-0.171758	-44.0634	-0.000948	NaN
38	1.000000	0.890529	7.36542e+06	-40539.1	955.818	-29790.4	0.000000	0.000000	6.891136	0.068310	NaN	0.000000	0.001582	0.001735	28.0876	0.070100	0.001989	35.2461	47.8283	-163.391	0.020611	0.889217	-0.161776	-0.163088	0.068310	35.2461	-0.163229	-31.2715	-0.002184	NaN
38	1.000000	0.898496	7.36542e+06	-40539.1	955.818	-29790.4	0.000000	0.000000	6.899101	0.025252	NaN	0.000000	0.001633	0.001718	28.087	0.061165	0.001994	30.6756	-139.371	-164.335	0.045700	0.897194	-0.153809	-0.155111	0.025252	30.6756	-0.154426	-21.7894	-0.001159	NaN
38	1.000000	0.906513	7.36542e+06	-40539.1	955.818	-29790.4	0.000000	0.000000	6.907119	0.029414	NaN	0.000000	0.001586	0.001703	28.0878	0.081070	0.001923	42.1565	47.5	-161.606	0.069942	0.905247	-0.145792	-0.147057	0.029414	42.1565	-0.146315	-15.5042	-0.001897	NaN
38	1.000000	0.914523	7.36542e+06	-40539.1	955.818	-29790.4	0.000000	0.000000	6.915131	0.078143	NaN	0.000000	0.001629	0.001725	28.0872	0.069323	0.002067	33.5305	-26.6436	-162.357	0.123524	0.913173	-0.137782	-0.139131	0.078143	33.5305	-0.139529	-11.591	-0.006742	NaN
38	1.000000	0.922495	7.36542e+06	-40539.1	955.818	-29790.4	0.000000	0.000000	6.923101	0.035019	NaN	0.000000	0.001626	0.001722	28.0884	0.144431	0.001971	73.2701	2.370863	-163.462	-0.070833	0.921184	-0.129809	-0.131120	0.035019	73.2701	-0.130168	-7.678410	-0.004561	NaN
38	1.000000	0.930487	7.36542e+06	-40539.1	955.819	-29790.4	0.000000	0.000000	6.931092	0.013616	NaN	0.000000	0.001606	0.001704	28.0886	0.077198	0.002059	37.4971	89.7282	-166.088	0.044741	0.929216	-0.121817	-0.123089	0.013616	37.4971	-0.122090	-5.322048	-0.002558	NaN
38	1.000000	0.938513	7.36542e+06	-40539.1	955.818	-29790.4	0.000000	0.000000	6.939115	-0.078963	NaN	0.000000	0.001626	0.001753	28.0902	0.070304	0.002010	34.9777	-21.0581	-167.645	-0.118210	0.937171	-0.113791	-0.115134	-0.078963	34.9777	-0.112098	-3.325786	0.023743	NaN
38	1.000000	0.946538	7.36542e+06	-40539.1	955.818	-29790.4	0.000000	0.000000	6.947144	0.025862	NaN	0.000000	0.001621	0.001763	28.0896	0.020648	0.001899	10.8727	-71.6039	-163.276	0.017577	0.945214	-0.105767	-0.107090	0.025862	10.8727	-0.107551	-2.666396	-0.009699	NaN
38	1.000000	0.954510	7.36542e+06	-40539.1	955.818	-29790.4	0.000000	0.000000	6.955113	-0.044076	NaN	0.000000	0.001631	0.001759	28.0901	0.073732	0.001964	37.5399	119.659	-161.489	-0.058726	0.953233	-0.097794	-0.099071	-0.044076	37.5399	-0.096914	-1.558791	0.028276	NaN
38	1.000000	0.962546	7.36542e+06	-40539.1	955.818	-29790.4	0.000000	0.000000	6.963152	0.022175	NaN	0.000000	0.001594	0.001774	28.0902	0.059032	0.002031	29.0635	14.0837	-164.188	0.028592	0.961229	-0.089758	-0.091075	0.022175	29.0635	-0.090331	-1.100437	-0.020151	NaN
38	1.000000	0.970553	7.36542e+06	-40539.1	955.818	-29790.4	0.000000	0.000000	6.971160	0.041785	NaN	0.000000	0.001583	0.001735	28.0886	0.093006	0.002005	46.3766	13.8886	-164.672	0.048744	0.969231	-0.081751	-0.083073	0.041785	46.3766	-0.082427	-0.711033	-0.058767	NaN
38	1.000000	0.978539	7.36542e+06	-40539.1	955.817	-29790.4	0.000000	0.000000	6.979145	0.022341	NaN	0.000000	0.001631	0.001754	28.0881	0.019018	0.001957	9.718729	-167.891	-164.566	-0.030769	0.977233	-0.073765	-0.075072	0.022341	9.718729	-0.075489	-0.475512	-0.046982	NaN
38	1.000000	0.986544	7.36542e+06	-40539.1	955.817	-29790.4	0.000000	0.000000	6.987148	-0.012747	NaN	0.000000	0.001614	0.001706	28.0896	0.090607	0.002144	42.2607	-148.014	-163.818	-0.020935	0.985215	-0.065761	-0.067090	-0.012747	42.2607	-0.065535	-0.257856	0.049433	NaN
38	1.000000	0.994539	7.36542e+06	-40539.1	955.819	-29790.4	0.000000	0.000000	6.995143	-0.008365	NaN	0.000000	0.001619	0.001752	28.0885	0.082325	0.002064	39.8823	144.409	-163.249	-0.047547	0.993235	-0.057765	-0.059070	-0.008365	39.8823	-0.057608	-0.153589	0.054465	NaN
38	1.000000	1.002531	7.36542e+06	-40539.1	955.818	-29790.4	0.000000	0.000000	7.003138	0.036371	NaN	0.000000	0.001644	0.001733	28.0899	0.019706	0.002062	9.556329	-27.4757	-162.12	0.047972	1.001263	-0.049773	-0.051041	0.036371	9.556329	-0.052628	-0.109467	-0.332258	NaN
38	1.000000	1.010517	7.36542e+06	-40539.1	955.819	-29790.4	0.000000	0.000000	7.011122	0.022570	NaN	0.000000	0.001595	0.001752	28.0899	0.030658	0.001947	15.7429	-146.867	-162.878	-0.045962	1.009209	-0.041788	-0.043096	0.022570	15.7429	-0.042863	-0.055289	-0.408214	NaN
38	1.000000	1.018570	7.36542e+06	-40539.1	955.818	-29790.4	0.000000	0.000000	7.019173	-0.025848	NaN	0.000000	0.001596	0.001700	28.0898	0.097974	0.002059	47.5847	1.632520	-165.325	-0.063711	1.017280	-0.033735	-0.035024	-0.025848	47.5847	-0.033328	-0.028616	0.903276	NaN
38	1.000000	1.026550	7.36542e+06	-40539.1	955.818	-29790.4	0.000000	0.000000	7.027156	0.027933	NaN	0.000000	0.001636	0.001765	28.091	0.117007	0.002000	58.5062	-94.608	-162.323	0.014533	1.025223	-0.025755	-0.027082	0.027933	58.5062	-0.026113	-0.018046	-1.547851	NaN
38	1.000000	1.034555	7.36542e+06	-40539.1	955.817	-29790.4	0.000000	0.000000	7.035158	-0.027086	NaN	0.000000	0.001645	0.001701	28.0901	0.022708	0.002062	11.0149	-134.557	-163.885	-0.075357	1.033235	-0.017750	-0.019070	-0.027086	11.0149	-0.015905	-0.009825	2.756870	NaN
38	1.000000	1.042573	7.36542e+06	-40539.1	955.817	-29790.4	0.000000	0.000000	7.043176	-0.020709	NaN	0.000000	0.001634	0.001744	28.0898	0.027547	0.001812	15.2007	-19.21	-164.45	0.009885	1.041248	-0.009732	-0.011056	-0.020709	15.2007	-0.008710	-0.005645	3.668317	NaN
38	1.000000	1.050552	7.36542e+06	-40539.1	955.817	-29790.4	0.000000	0.000000	7.051160	0.082331	NaN	0.000000	0.001620	0.001731	28.0893	0.091782	0.001828	50.2113	3.476927	-164.004	0.069977	1.049264	-0.001753	-0.003041	0.082331	50.2113	-0.002983	-0.002109	-39.0396	NaN
38	1.000000	1.058524	7.36542e+06	-40539.1	955.818	-29790.4	0.000000	0.000000	7.059338	5.105724	NaN	0.000000	0.001630	0.001719	28.0898	5.547995	0.001748	3174.45	12.2767	-169.733	3.669452	1.057198	0.006220	0.004894	5.105724	3174.45	0.005013	0.004145	1231.63	45045.7
38	2.000000	1.063192	7.36542e+06	-40539.1	955.818	-29790.4	0.000000	0.000000	7.064255	11.1371	NaN	0.000000	0.001613	0.001734	28.0888	10.0896	0.001699	5938.66	9.066412	-173.748	10.9161	1.062856	0.010888	0.010552	11.1371	5938.66	0.009481	0.008611	1293.37	58470.6
38	2.000000	1.065103	7.36542e+06	-40539.1	955.818	-29790.4	0.000000	0.000000	7.066252	13.231	NaN	0.000000	0.001598	0.001746	28.0887	11.6281	0.001521	7644.64	2.381405	-169.95	11.6842	1.064806	0.012799	0.012502	13.231	7644.64	0.011501	0.010898	1214.12	66905.7
38	2.000000	1.067134	7.36542e+06	-40539.1	955.818	-29790.4	0.000000	0.000000	7.068445	17.1855	NaN	0.000000	0.001615	0.001754	28.0898	14.9926	0.001848	8110.75	7.725982	-175.071	17.1681	1.066862	0.014830	0.014558	17.1855	8110.75	0.013241	0.013010	1320.91	64966.6
38	2.000000	1.069106	7.36542e+06	-40539.1	955.818	-29790.4	0.000000	0.000000	7.070594	21.5104	NaN	0.000000	0.001637	0.001722	28.0894	16.581	0.001763	9403.42	5.902055	-173.881	21.4478	1.068825	0.016801	0.016520	21.5104	9403.42	0.015086	0.015400	1396.81	69231.4
38	2.000000	1.071113	7.36542e+06	-40539.1	955.819	-29790.4	0.000000	0.000000	7.072773	25.6868	NaN	0.000000	0.001612	0.001719	28.0894	18.9732	0.001820	10426.7	6.691118	-176.816	25.512	1.070841	0.018808	0.018536	25.6868	10426.7	0.016961	0.017989	1427.88	71025.3
38	2.000000	1.073081	7.36542e+06	-40539.1	955.818	-29790.4	0.000000	0.000000	7.074985	31.6097	NaN	0.000000	0.001608	0.001725	28.0881	20.9898	0.001767	11879.1	4.347022	-174.271	31.2334	1.072761	0.020777	0.020456	31.6097	11879.1	0.018781	0.020663	1529.75	75501.8
38	2.000000	1.075097	7.36542e+06	-40539.1	955.82	-29790.4	0.000000	0.000000	7.077290	38.6549	NaN	0.000000	0.001618	0.001677	28.0883	22.1982	0.001674	13263.7	3.575037	-175.449	38.8935	1.074723	0.022792	0.022418	38.6549	13263.7	0.020607	0.023504	1644.58	79043.1
38	2.000000	1.077039	7.36542e+06	-40539.1	955.819	-29790.4	0.000000	0.000000	7.079371	42.0257	NaN	0.000000	0.001638	0.001727	28.0887	25.7718	0.001863	13835.2	0.943418	-173.618	39.7961	1.076793	0.024735	0.024488	42.0257	13835.2	0.022457	0.026551	1582.84	77574.7
38	2.000000	1.079039	7.36542e+06	-40539.1	955.819	-29790.4	0.000000	0.000000	7.081708	50.2239	NaN	0.000000	0.001606	0.001723	28.0883	27.6245	0.001874	14740.9	7.510341	-179.157	49.2541	1.078698	0.026735	0.026393	50.2239	14740.9	0.024179	0.029540	1700.22	78360.1
38	2.000000	1.081069	7.36542e+06	-40539.1	955.819	-29790.4	0.000000	0.000000	7.083974	55.9845	NaN	0.000000	0.001590	0.001729	28.0886	29.8161	0.001775	16793.4	3.063491	-177.604	55.5353	1.080759	0.028765	0.028455	55.9845	16793.4	0.026264	0.033356	1678.4	84009.2
38	2.000000	1.083036	7.36542e+06	-40539.1	955.818	-29790.4	0.000000	0.000000	7.086394	66.9904	NaN	0.000000	0.001646	0.001745	28.0885	31.5036	0.001786	17637.1	3.686971	-177.491	64.7305	1.082754	0.030732	0.030450	66.9904	17637.1	0.027883	0.036470	1836.87	84378.9
38	2.000000	1.085067	7.36542e+06	-40539.1	955.819	-29790.4	0.000000	0.000000	7.088645	72.3674	NaN	0.000000	0.001602	0.001734	28.0884	33.492	0.001824	18361.4	4.709481	-178.788	72.5482	1.084735	0.032762	0.032430	72.3674	18361.4	0.029806	0.040343	1793.79	83520.5
38	2.000000	1.087063	7.36542e+06	-40539.1	955.82	-29790.4	0.000000	0.000000	7.090923	79.2091	NaN	0.000000	0.001598	0.001756	28.0893	35.561	0.001811	19640.6	4.877963	-179.835	78.4338	1.086767	0.034759	0.034462	79.2091	19640.6	0.031734	0.044414	1783.41	85146.5
38	2.000000	1.089023	7.36542e+06	-40539.1	955.82	-29790.4	0.000000	0.000000	7.093209	87.1367	NaN	0.000000	0.001605	0.001755	28.0889	37.1121	0.001725	21513.6	7.517672	175.535	85.9586	1.088708	0.036718	0.036403	87.1367	21513.6	0.033681	0.048719	1788.57	89050.8
38	2.000000	1.091037	7.36542e+06	-40539.1	955.82	-29790.4	0.000000	0.000000	7.095646	97.4356	NaN	0.000000	0.001582	0.001744	28.0894	39.3071	0.001732	22693.9	3.276755	-179.806	95.9185	1.090670	0.038732	0.038366	97.4356	22693.9	0.035512	0.052946	1840.3	90108.9
38	2.000000	1.093120	7.36542e+06	-40539.1	955.821	-29790.4	0.000000	0.000000	7.098072	105.774	NaN	0.000000	0.001586	0.001740	28.0899	41.9306	0.001886	22230	5.140756	179.07	106.203	1.092766	0.040816	0.040461	105.774	22230	0.037247	0.057108	1852.17	84989.2
38	2.000000	1.095030	7.36542e+06	-40539.1	955.82	-29790.4	0.000000	0.000000	7.100486	118.057	NaN	0.000000	0.001576	0.001745	28.0892	43.3004	0.001757	24647.1	5.430129	176.91	118.219	1.094704	0.042725	0.042399	118.057	24647.1	0.039133	0.061806	1910.13	90578.4
38	2.000000	1.096981	7.36542e+06	-40539.1	955.82	-29790.4	0.000000	0.000000	7.102769	126.129	NaN	0.000000	0.001591	0.001729	28.0896	44.6087	0.001710	26085.8	0.841366	-179.04	122.888	1.096744	0.044677	0.044439	126.129	26085.8	0.041050	0.066771	1888.97	92232.3
38	2.000000	1.099063	7.36542e+06	-40539.1	955.82	-29790.4	0.000000	0.000000	7.105319	137.523	NaN	0.000000	0.001577	0.001719	28.0884	45.8135	0.001696	27016.3	5.346106	176.885	138.896	1.098734	0.046758	0.046429	137.523	27016.3	0.042941	0.071848	1914.08	92085.2
38	2.000000	1.101046	7.36542e+06	-40539.1	955.819	-29790.4	0.000000	0.000000	7.107825	150.249	NaN	0.000000	0.001578	0.001734	28.0904	49.0153	0.001897	25831.9	6.095831	176.893	152.234	1.100729	0.048741	0.048424	150.249	25831.9	0.044379	0.075834	1981.29	85703.3
38	2.000000	1.103058	7.36542e+06	-40539.1	955.821	-29790.4	0.000000	0.000000	7.110264	160.632	NaN	0.000000	0.001570	0.001724	28.0902	50.542	0.001707	29604.3	4.034787	177.484	160.872	1.102769	0.050753	0.050465	160.632	29604.3	0.046684	0.082440	1948.47	94201.8
38	2.000000	1.105010	7.36542e+06	-40539.1	955.82	-29790.4	0.000000	0.000000	7.112721	172.922	NaN	0.000000	0.001585	0.001698	28.0898	51.5159	0.001741	29594.6	1.921359	179.902	170.791	1.104690	0.052706	0.052386	172.922	29594.6	0.048324	0.087302	1980.74	91511.1
38	2.000000	1.107031	7.36542e+06	-40539.1	955.818	-29790.4	0.000000	0.000000	7.115057	180.569	NaN	0.000000	0.001587	0.001715	28.0909	56.1434	0.001720	32643.5	6.003590	173.744	179.474	1.106793	0.054727	0.054489	180.569	32643.5	0.050578	0.094209	1916.68	97167.9
38	2.000000	1.108994	7.36542e+06	-40539.1	955.819	-29790.4	0.000000	0.000000	7.117697	197.044	NaN	0.000000	0.001614	0.001709	28.091	56.6156	0.001694	33428.5	6.870940	173.649	196.127	1.108728	0.056690	0.056423	197.044	33428.5	0.052269	0.099555	1979.24	96796.2
38	2.000000	1.110994	7.36542e+06	-40539.1	955.82	-29790.4	0.000000	0.000000	7.119971	203.721	NaN	0.000000	0.001592	0.001731	28.0912	60.714	0.001926	31520.5	6.854816	174.541	202.29	1.110698	0.058689	0.058394	203.721	31520.5	0.053842	0.104658	1946.54	89018.5
38	2.000000	1.113004	7.36542e+06	-40539.1	955.82	-29790.4	0.000000	0.000000	7.122627	219.461	NaN	0.000000	0.001597	0.001749	28.0913	61.2965	0.001818	33714.3	3.494216	177.178	217.987	1.112716	0.060699	0.060412	219.461	33714.3	0.055817	0.111238	1972.89	92355
38	2.000000	1.114942	7.36542e+06	-40539.1	955.819	-29790.4	0.000000	0.000000	7.125153	233.775	NaN	0.000000	0.001627	0.001750	28.0905	62.1495	0.001751	35498.6	4.319505	175.23	229.74	1.114653	0.062637	0.062349	233.775	35498.6	0.057698	0.117683	1986.47	94542.5
38	2.000000	1.116983	7.36542e+06	-40539.1	955.819	-29790.4	0.000000	0.000000	7.127689	245.802	NaN	0.000000	0.001605	0.001743	28.091	65.541	0.001869	35067.9	5.178025	174.469	244.296	1.116687	0.064679	0.064383	245.802	35067.9	0.059422	0.123743	1986.39	91080
38	2.000000	1.118948	7.36542e+06	-40539.1	955.82	-29790.4	0.000000	0.000000	7.130228	259.782	NaN	0.000000	0.001615	0.001770	28.0895	64.9619	0.001765	36807.7	-1.032893	-179.483	256.291	1.118680	0.066643	0.066376	259.782	36807.7	0.061350	0.130693	1987.73	93022.1
38	2.000000	1.120972	7.36542e+06	-40539.1	955.82	-29790.4	0.000000	0.000000	7.133022	278.513	NaN	0.000000	0.001645	0.001755	28.0901	67.9133	0.001679	40450.1	4.376382	174.603	275.449	1.120619	0.068668	0.068315	278.513	40450.1	0.063504	0.138670	2008.45	99243.4
38	2.000000	1.123053	7.36542e+06	-40539.1	955.819	-29790.4	0.000000	0.000000	7.135406	285.894	NaN	0.000000	0.001642	0.001730	28.0907	70.6897	0.001797	39342.9	4.269670	175.142	287.486	1.122710	0.070748	0.070405	285.894	39342.9	0.065298	0.145490	1965.05	94237.3
38	2.000000	1.124943	7.36542e+06	-40539.1	955.819	-29790.4	0.000000	0.000000	7.137944	301.627	NaN	0.000000	0.001627	0.001735	28.0907	71.1779	0.001766	40303.6	0.923447	177.816	298.738	1.124676	0.072639	0.072371	301.627	40303.6	0.067026	0.152201	1981.77	94386.1
38	2.000000	1.126958	7.36542e+06	-40539.1	955.818	-29790.4	0.000000	0.000000	7.140490	314.562	NaN	0.000000	0.001615	0.001735	28.0918	75.4725	0.001803	41859	8.199224	169.971	311.984	1.126729	0.074653	0.074425	314.562	41859	0.069017	0.160113	1964.63	95576.1
38	2.000000	1.128974	7.36542e+06	-40539.1	955.819	-29790.4	0.000000	0.000000	7.143170	330.718	NaN	0.000000	0.001622	0.001729	28.0921	74.9888	0.001803	41581.9	3.314546	175.573	328.842	1.128622	0.076669	0.076317	330.718	41581.9	0.070704	0.166965	1980.77	92974.8
38	2.000000	1.130921	7.36542e+06	-40539.1	955.819	-29790.4	0.000000	0.000000	7.145775	346.727	NaN	0.000000	0.001599	0.001722	28.092	78.2975	0.001848	42376.9	5.659499	173.204	342.96	1.130618	0.078617	0.078314	346.727	42376.9	0.072480	0.174323	1988.99	92731
38	2.000000	1.133030	7.36542e+06	-40539.1	955.818	-29790.4	0.000000	0.000000	7.148613	364.459	NaN	0.000000	0.001600	0.001747	28.0904	79.7963	0.001868	42723.8	3.729030	175.026	363.744	1.132584	0.080726	0.080280	364.459	42723.8	0.074328	0.182138	2001	91462.3
38	2.000000	1.135075	7.36542e+06	-40539.1	955.819	-29790.4	0.000000	0.000000	7.151203	377.741	NaN	0.000000	0.001638	0.001725	28.0905	81.83	0.001774	46139.1	7.697580	170.604	380.4	1.134622	0.082770	0.082318	377.741	46139.1	0.076630	0.192098	1966.39	96179.2
38	2.000000	1.136949	7.36542e+06	-40539.1	955.819	-29790.4	0.000000	0.000000	7.153594	390.325	NaN	0.000000	0.001605	0.001738	28.089	84.1708	0.001802	46709.3	3.359122	174.223	387.356	1.136793	0.084645	0.084489	390.325	46709.3	0.078377	0.199825	1953.33	95466.6
38	2.000000	1.138998	7.36542e+06	-40539.1	955.818	-29790.4	0.000000	0.000000	7.156660	415.058	NaN	0.000000	0.001617	0.001766	28.0882	85.8451	0.001828	46956.3	5.935712	172.021	413.456	1.138605	0.086694	0.086301	415.058	46956.3	0.080064	0.207420	2001.06	94198.1
38	2.000000	1.140924	7.36542e+06	-40539.1	955.819	-29790.4	0.000000	0.000000	7.158984	424.744	NaN	0.000000	0.001670	0.001723	28.0896	87.518	0.001724	50773.3	5.349589	171.177	421.37	1.140657	0.088619	0.088353	424.744	50773.3	0.082345	0.217901	1949.26	99375.4
38	2.000000	1.143025	7.36542e+06	-40539.1	955.819	-29790.4	0.000000	0.000000	7.162075	448.831	NaN	0.000000	0.001629	0.001723	28.0897	90.1582	0.001772	50888.4	6.153379	171.639	447.459	1.142528	0.090721	0.090224	448.831	50888.4	0.084106	0.226155	1984.61	97766.2
38	2.000000	1.144956	7.36542e+06	-40539.1	955.818	-29790.4	0.000000	0.000000	7.164865	469.737	NaN	0.000000	0.001605	0.001728	28.0891	91.6251	0.001907	48055.9	4.730473	173.498	467.891	1.144525	0.092652	0.092221	469.737	48055.9	0.085321	0.231935	2025.3	91166.9
38	2.000000	1.146961	7.36542e+06	-40539.1	955.819	-29790.4	0.000000	0.000000	7.167363	481.736	NaN	0.000000	0.001595	0.001737	28.0902	92.5548	0.001736	53302.5	2.955297	173.944	479.783	1.146687	0.094656	0.094382	481.736	53302.5	0.087878	0.244321	1971.73	98523.5
38	2.000000	1.148861	7.36542e+06	-40539.1	955.819	-29790.4	0.000000	0.000000	7.170122	502.635	NaN	0.000000	0.001616	0.001711	28.0916	92.2805	0.001692	54551	1.942122	174.693	495.717	1.148594	0.096557	0.096289	502.635	54551	0.089646	0.253063	1986.21	99074.4
38	2.000000	1.150953	7.36542e+06	-40539.1	955.818	-29790.4	0.000000	0.000000	7.173060	523.232	NaN	0.000000	0.001646	0.001727	28.0912	96.6274	0.001876	51515.9	4.566370	172.8	521.446	1.150525	0.098648	0.098220	523.232	51515.9	0.091031	0.260008	2012.37	92304
38	2.000000	1.152990	7.36542e+06	-40539.1	955.819	-29790.4	0.000000	0.000000	7.175928	543.435	NaN	0.000000	0.001623	0.001760	28.0906	97.9293	0.001646	59505.3	6.121251	170.112	543.394	1.152607	0.100686	0.100302	543.435	59505.3	0.093836	0.274350	1980.81	103795
38	2.000000	1.154987	7.36542e+06	-40539.1	955.819	-29790.4	0.000000	0.000000	7.178612	560.15	NaN	0.000000	0.001630	0.001759	28.0905	98.5289	0.001627	60573.7	2.235461	173.973	561.707	1.154638	0.102683	0.102334	560.15	60573.7	0.095747	0.284324	1970.11	103789
38	2.000000	1.156946	7.36542e+06	-40539.1	955.818	-29790.4	0.000000	0.000000	7.181329	578.615	NaN	0.000000	0.001629	0.001764	28.0899	103.106	0.001707	60388.7	3.447180	172.376	575.69	1.156677	0.104641	0.104373	578.615	60388.7	0.097455	0.293379	1972.25	101863
38	2.000000	1.158883	7.36542e+06	-40539.1	955.818	-29790.4	0.000000	0.000000	7.184245	602.428	NaN	0.000000	0.001624	0.001757	28.0906	103.873	0.001679	61870.2	4.593387	171.502	598.585	1.158555	0.106579	0.106250	602.428	61870.2	0.099276	0.303180	1987.03	102661
38	2.000000	1.160424	7.36542e+06	-40539.1	955.819	-29790.4	0.000000	0.000000	7.186578	621.691	NaN	0.000000	0.001612	0.001738	28.1292	107.532	0.001837	58529.6	3.973126	-7.438764	618.156	1.160021	0.108120	0.107716	621.691	58529.6	0.100153	0.307956	2018.77	96361.7