File: remote_trans/data/nanoindenter/0828-1/data/Data_2025-08-06,11h17m57s/2025-07-22_16-23-58_1_35.txt
2025-07-22, 16:23:58, 1
Index	Phase	Displacement	Time	Pos X	Pos Y	Pos Z	Rot A	Rot B	Piezo Z	Force A	Force B	Gripper	Voltage A	Voltage B	Temperature	Amplitude force	Amplitude pos	Stiffness	Phase shift	Phase excitation	Force A raw	Displacement raw	HMax	HMax raw	Real Force	Real Stiffness	Contact Depth	Area	Hardness	Reduced Mod.
[#]	[#]	[um]	[s]	[um]	[um]	[um]	[m°]	[m°]	[um]	[uN]	[uN]	[V]	[V]	[V]	[°C]	[uN]	[um]	[N/m]	[°]	[°]	[uN]	[um]	[um]	[um]	[uN]	[N/m]	[um]	[um^2]	[MPa]	[MPa]
35	1.000000	0.002416	7.36538e+06	-40389.1	955.818	-29790.8	0.000000	0.000000	6.002807	-0.035380	NaN	0.000000	0.001621	0.001600	28.097	0.038102	0.000932	40.8854	-54.2286	-157.108	-0.014374	0.001175	-1.110594	-1.111834	-0.035380	40.8854	-1.109944	-6.816208E+14	5.190563E-17	NaN
35	1.000000	0.012451	7.36538e+06	-40389.1	955.819	-29790.8	0.000000	0.000000	6.012843	-0.019756	NaN	0.000000	0.001620	0.001616	28.1299	0.080563	0.001209	66.659	110.446	13.3737	-0.034355	0.011048	-1.100559	-1.101962	-0.019756	66.659	-1.100336	-5.065063E+14	3.900470E-17	NaN
35	1.000000	0.022338	7.36538e+06	-40389.1	955.819	-29790.8	0.000000	0.000000	6.022733	0.057383	NaN	0.000000	0.001611	0.001610	28.0952	0.133213	0.001775	75.0706	82.0636	-164.831	-0.020805	0.021044	-1.090672	-1.091965	0.057383	75.0706	-1.091245	-3.824116E+14	-1.500550E-16	NaN
35	1.000000	0.032361	7.36538e+06	-40389.1	955.819	-29790.8	0.000000	0.000000	6.032755	0.040715	NaN	0.000000	0.001602	0.001604	28.0796	0.074631	0.001880	39.6982	56.1566	14.9937	0.018844	0.030983	-1.080649	-1.082027	0.040715	39.6982	-1.081418	-2.822050E+14	-1.442736E-16	NaN
35	1.000000	0.042395	7.36538e+06	-40389.1	955.818	-29790.8	0.000000	0.000000	6.042789	0.017733	NaN	0.000000	0.001619	0.001637	28.097	0.113131	0.002083	54.324	144.348	-167.711	0.032330	0.041033	-1.070614	-1.071976	0.017733	54.324	-1.070859	-2.035771E+14	-8.710565E-17	NaN
35	1.000000	0.052364	7.36538e+06	-40389.1	955.818	-29790.8	0.000000	0.000000	6.052758	0.033895	NaN	0.000000	0.001604	0.001618	28.131	0.025001	0.001917	13.0433	169.458	15.5887	0.070656	0.051017	-1.060646	-1.061993	0.033895	13.0433	-1.062595	-1.576488E+14	-2.150023E-16	NaN
35	1.000000	0.062358	7.36538e+06	-40389.1	955.819	-29790.8	0.000000	0.000000	6.062751	0.009588	NaN	0.000000	0.001616	0.001626	28.0956	0.024390	0.001955	12.4786	53.5245	-167.032	0.076675	0.061108	-1.050652	-1.051901	0.009588	12.4786	-1.051228	-1.108970E+14	-8.645848E-17	NaN
35	1.000000	0.072402	7.36538e+06	-40389.1	955.819	-29790.8	0.000000	0.000000	6.072793	-0.043573	NaN	0.000000	0.001591	0.001627	28.079	0.039916	0.002085	19.1482	118.672	16.4009	0.007809	0.070944	-1.040608	-1.042065	-0.043573	19.1482	-1.038901	-7.571661E+13	5.754805E-16	NaN
35	1.000000	0.082386	7.36538e+06	-40389.1	955.818	-29790.8	0.000000	0.000000	6.082776	-0.054294	NaN	0.000000	0.001592	0.001584	28.0964	0.074784	0.001957	38.2205	104.097	-161.748	-0.119966	0.081046	-1.030624	-1.031963	-0.054294	38.2205	-1.029558	-5.669407E+13	9.576711E-16	NaN
35	1.000000	0.092397	7.36538e+06	-40389.1	955.818	-29790.8	0.000000	0.000000	6.092789	-0.027227	NaN	0.000000	0.001584	0.001606	28.1298	0.127763	0.002044	62.5159	-170.527	15.9131	-0.094014	0.091009	-1.020612	-1.022000	-0.027227	62.5159	-1.020285	-4.253956E+13	6.400441E-16	NaN
35	1.000000	0.102366	7.36538e+06	-40389.1	955.818	-29790.8	0.000000	0.000000	6.102761	0.043673	NaN	0.000000	0.001595	0.001655	28.0956	0.030709	0.001869	16.4301	-12.9755	-163.927	0.017284	0.101060	-1.010643	-1.011949	0.043673	16.4301	-1.012637	-3.356354E+13	-1.301194E-15	NaN
35	1.000000	0.112371	7.36538e+06	-40389.1	955.818	-29790.8	0.000000	0.000000	6.112765	0.040089	NaN	0.000000	0.001568	0.001665	28.0787	0.026864	0.002096	12.8169	-145.272	16.235	0.016592	0.111065	-1.000639	-1.001944	0.040089	12.8169	-1.002985	-2.488581E+13	-1.610917E-15	NaN
35	1.000000	0.122388	7.36538e+06	-40389.1	955.818	-29790.8	0.000000	0.000000	6.122782	0.039692	NaN	0.000000	0.001570	0.001641	28.0967	0.092645	0.001979	46.8213	66.5667	-164.429	0.098938	0.121121	-0.990622	-0.991889	0.039692	46.8213	-0.991257	-1.729995E+13	-2.294316E-15	NaN
35	1.000000	0.132388	7.36538e+06	-40389.1	955.819	-29790.8	0.000000	0.000000	6.132778	-0.087095	NaN	0.000000	0.001578	0.001617	28.1323	0.099367	0.001947	51.0298	-135.651	15.8388	-0.045499	0.131011	-0.980621	-0.981998	-0.087095	51.0298	-0.979341	-1.195451E+13	7.285542E-15	NaN
35	1.000000	0.142411	7.36538e+06	-40389.1	955.817	-29790.8	0.000000	0.000000	6.142802	-0.047555	NaN	0.000000	0.001568	0.001611	28.0985	0.053592	0.002084	25.7214	-76.5747	-165.278	0.053300	0.141134	-0.970599	-0.971875	-0.047555	25.7214	-0.969212	-8.730547E+12	5.446917E-15	NaN
35	1.000000	0.152426	7.36538e+06	-40389.1	955.818	-29790.8	0.000000	0.000000	6.152817	-0.023321	NaN	0.000000	0.001574	0.001662	28.08	0.058586	0.002017	29.0435	-177.644	19.0404	-0.091437	0.151166	-0.960584	-0.961843	-0.023321	29.0435	-0.959982	-6.555730E+12	3.557394E-15	NaN
35	1.000000	0.162403	7.36538e+06	-40389.1	955.818	-29790.8	0.000000	0.000000	6.162795	-0.006349	NaN	0.000000	0.001587	0.001632	28.097	0.090500	0.001925	47.0199	-50.6341	-164.636	0.077298	0.161071	-0.950607	-0.951938	-0.006349	47.0199	-0.950506	-4.884781E+12	1.299730E-15	NaN
35	1.000000	0.172406	7.36538e+06	-40389.1	955.818	-29790.8	0.000000	0.000000	6.172801	0.034048	NaN	0.000000	0.001600	0.001641	28.1306	0.123319	0.001953	63.1314	-114.568	15.1667	-0.012455	0.171076	-0.940603	-0.941934	0.034048	63.1314	-0.941008	-3.636888E+12	-9.361787E-15	NaN
35	1.000000	0.182439	7.36538e+06	-40389.1	955.818	-29790.8	0.000000	0.000000	6.182832	0.005734	NaN	0.000000	0.001555	0.001648	28.0969	0.028746	0.001976	14.548	-76.4893	-166.719	0.056173	0.181053	-0.930571	-0.931957	0.005734	14.548	-0.930866	-2.653932E+12	-2.160556E-15	NaN
35	1.000000	0.192421	7.36538e+06	-40389.1	955.819	-29790.8	0.000000	0.000000	6.192812	-0.039978	NaN	0.000000	0.001574	0.001646	28.0796	0.005152	0.001973	2.611588	-41.8231	11.9474	0.010574	0.191114	-0.920589	-0.921896	-0.039978	2.611588	-0.909107	-1.349296E+12	2.962909E-14	NaN
35	1.000000	0.202452	7.36538e+06	-40389.1	955.818	-29790.8	0.000000	0.000000	6.202844	-0.020869	NaN	0.000000	0.001567	0.001666	28.0977	0.093968	0.001971	47.6671	158.505	-165.776	-0.033017	0.201072	-0.910557	-0.911938	-0.020869	47.6671	-0.910229	-1.397177E+12	1.493643E-14	NaN
35	1.000000	0.212405	7.36538e+06	-40389.1	955.818	-29790.8	0.000000	0.000000	6.212799	0.043091	NaN	0.000000	0.001562	0.001638	28.1321	0.074176	0.001931	38.4082	-58.9843	14.3151	-0.000445	0.211145	-0.900605	-0.901864	0.043091	38.4082	-0.901446	-1.063181E+12	-4.053043E-14	NaN
35	1.000000	0.222456	7.36538e+06	-40389.1	955.819	-29790.8	0.000000	0.000000	6.222850	0.014203	NaN	0.000000	0.001573	0.001651	28.0984	0.026652	0.001982	13.4439	-95.1464	-164.537	0.005834	0.221094	-0.890553	-0.891915	0.014203	13.4439	-0.891346	-7.764316E+11	-1.829223E-14	NaN
35	1.000000	0.232441	7.36538e+06	-40389.1	955.818	-29790.8	0.000000	0.000000	6.232833	-0.023009	NaN	0.000000	0.001588	0.001666	28.08	0.082587	0.002064	40.0159	152.293	11.4768	0.024732	0.231091	-0.880569	-0.881919	-0.023009	40.0159	-0.880137	-5.477305E+11	4.200872E-14	NaN
35	1.000000	0.242428	7.36538e+06	-40389.1	955.818	-29790.8	0.000000	0.000000	6.242824	0.060909	NaN	0.000000	0.001569	0.001623	28.0974	0.069296	0.001991	34.7971	-42.3638	-165.281	0.043399	0.241168	-0.870581	-0.871841	0.060909	34.7971	-0.871894	-4.237075E+11	-1.437518E-13	NaN
35	1.000000	0.252475	7.36538e+06	-40389.1	955.818	-29790.8	0.000000	0.000000	6.252865	-0.078379	NaN	0.000000	0.001584	0.001592	28.1308	0.157575	0.002060	76.4921	-175.472	15.7528	-0.048269	0.251032	-0.860534	-0.861978	-0.078379	76.4921	-0.859766	-2.903706E+11	2.699273E-13	NaN
35	1.000000	0.262450	7.36538e+06	-40389.1	955.818	-29790.8	0.000000	0.000000	6.262843	0.018704	NaN	0.000000	0.001600	0.001624	28.0977	0.136018	0.002019	67.3827	-71.801	-165.442	0.045590	0.261148	-0.850560	-0.851861	0.018704	67.3827	-0.850768	-2.193500E+11	-8.527186E-14	NaN
35	1.000000	0.272436	7.36538e+06	-40389.1	955.818	-29790.8	0.000000	0.000000	6.272828	-0.016260	NaN	0.000000	0.001582	0.001598	28.0794	0.068263	0.001938	35.2282	-88.6304	18.6993	-0.005681	0.271097	-0.840573	-0.841912	-0.016260	35.2282	-0.840227	-1.578957E+11	1.029778E-13	NaN
35	1.000000	0.282436	7.36538e+06	-40389.1	955.819	-29790.8	0.000000	0.000000	6.282828	-0.025428	NaN	0.000000	0.001600	0.001625	28.0968	0.039127	0.002062	18.9707	-158.094	-166.662	0.012101	0.281175	-0.830574	-0.831834	-0.025428	18.9707	-0.829568	-1.132225E+11	2.245809E-13	NaN
35	1.000000	0.292456	7.36538e+06	-40389.1	955.818	-29790.8	0.000000	0.000000	6.292849	0.028185	NaN	0.000000	0.001577	0.001595	28.1309	0.035051	0.002091	16.7618	158.773	14.4457	0.025010	0.291115	-0.820554	-0.821895	0.028185	16.7618	-0.821815	-8.888372E+10	-3.170969E-13	NaN
35	1.000000	0.302475	7.36538e+06	-40389.1	955.818	-29790.8	0.000000	0.000000	6.302869	0.023516	NaN	0.000000	0.001561	0.001646	28.0979	0.051363	0.002034	25.2477	-77.9534	-164.165	-0.067277	0.301177	-0.810534	-0.811832	0.023516	25.2477	-0.811233	-6.386953E+10	-3.681827E-13	NaN
35	1.000000	0.312469	7.36538e+06	-40389.1	955.818	-29790.8	0.000000	0.000000	6.312859	-0.078515	NaN	0.000000	0.001573	0.001607	28.0783	0.058226	0.002015	28.8989	-59.5556	15.8506	-0.124813	0.311171	-0.800540	-0.801839	-0.078515	28.8989	-0.798503	-4.290789E+10	1.829852E-12	NaN
35	1.000000	0.322470	7.36538e+06	-40389.1	955.819	-29790.8	0.000000	0.000000	6.322862	0.000744	NaN	0.000000	0.001622	0.001592	28.0951	0.034906	0.002085	16.7405	8.372386	-165.486	0.016365	0.321162	-0.790540	-0.791848	0.000744	16.7405	-0.790573	-3.348637E+10	-2.220378E-14	NaN
35	1.000000	0.332475	7.36538e+06	-40389.1	955.819	-29790.8	0.000000	0.000000	6.332866	-0.042644	NaN	0.000000	0.001587	0.001602	28.1299	0.060327	0.002101	28.7093	-134.635	15.3938	-0.024393	0.331117	-0.780535	-0.781893	-0.042644	28.7093	-0.779421	-2.362442E+10	1.805100E-12	NaN
35	1.000000	0.342480	7.36538e+06	-40389.1	955.817	-29790.8	0.000000	0.000000	6.342870	-0.049968	NaN	0.000000	0.001618	0.001624	28.0972	0.070785	0.001887	37.5184	116.608	-165.349	0.014585	0.341143	-0.770530	-0.771866	-0.049968	37.5184	-0.769531	-1.733516E+10	2.882491E-12	NaN
35	1.000000	0.352497	7.36538e+06	-40389.1	955.818	-29790.8	0.000000	0.000000	6.352890	0.018134	NaN	0.000000	0.001611	0.001622	28.0786	0.008810	0.002039	4.320595	-1.044848	15.701	0.022845	0.351115	-0.760513	-0.761894	0.018134	4.320595	-0.763661	-1.442439E+10	-1.257197E-12	NaN
35	1.000000	0.362483	7.36538e+06	-40389.1	955.819	-29790.8	0.000000	0.000000	6.362874	-0.036125	NaN	0.000000	0.001625	0.001611	28.0965	0.062744	0.001960	32.0161	148.221	-163.557	0.045286	0.361175	-0.750526	-0.751834	-0.036125	32.0161	-0.749680	-9.308166E+9	3.881051E-12	NaN
35	1.000000	0.372533	7.36538e+06	-40389.1	955.819	-29790.8	0.000000	0.000000	6.372924	-0.043711	NaN	0.000000	0.001599	0.001617	28.131	0.071327	0.001968	36.2397	-99.5672	13.4421	0.006350	0.371089	-0.740476	-0.741920	-0.043711	36.2397	-0.739572	-6.779862E+9	6.447241E-12	NaN
35	1.000000	0.382496	7.36538e+06	-40389.1	955.819	-29790.8	0.000000	0.000000	6.382888	-0.020586	NaN	0.000000	0.001583	0.001608	28.0983	0.058247	0.001932	30.1464	80.8771	-165.729	0.047624	0.381174	-0.730513	-0.731836	-0.020586	30.1464	-0.730001	-5.021406E+9	4.099558E-12	NaN
35	1.000000	0.392525	7.36538e+06	-40389.1	955.818	-29790.8	0.000000	0.000000	6.392917	0.001029	NaN	0.000000	0.001631	0.001593	28.0792	0.038320	0.002077	18.4458	-143.291	15.1248	0.084398	0.391137	-0.720485	-0.721873	0.001029	18.4458	-0.720527	-3.729550E+9	-2.760367E-13	NaN
35	1.000000	0.402508	7.36538e+06	-40389.1	955.818	-29790.8	0.000000	0.000000	6.402902	0.034879	NaN	0.000000	0.001612	0.001618	28.0956	0.092626	0.001963	47.1915	109.282	-164.672	0.039887	0.401174	-0.710502	-0.711836	0.034879	47.1915	-0.711056	-2.769855E+9	-1.259242E-11	NaN
35	1.000000	0.412478	7.36538e+06	-40389.1	955.818	-29790.8	0.000000	0.000000	6.412873	0.063451	NaN	0.000000	0.001595	0.001604	28.131	0.012485	0.002013	6.202760	140.091	13.926	0.035135	0.411151	-0.700532	-0.701859	0.063451	6.202760	-0.708204	-2.532416E+9	-2.505541E-11	NaN
35	1.000000	0.422507	7.36538e+06	-40389.1	955.818	-29790.8	0.000000	0.000000	6.422896	-0.071281	NaN	0.000000	0.001609	0.001620	28.0983	0.058517	0.002029	28.8427	-129.018	-165.566	-0.005302	0.421199	-0.690503	-0.691810	-0.071281	28.8427	-0.688649	-1.369171E+9	5.206126E-11	NaN
35	1.000000	0.432508	7.36538e+06	-40389.1	955.818	-29790.8	0.000000	0.000000	6.432898	-0.068165	NaN	0.000000	0.001547	0.001625	28.0813	0.053135	0.001905	27.8965	170.087	13.2255	-0.009831	0.431238	-0.680501	-0.681771	-0.068165	27.8965	-0.678668	-9.999848E+8	6.816627E-11	NaN
35	1.000000	0.442527	7.36538e+06	-40389.1	955.818	-29790.8	0.000000	0.000000	6.442918	-0.042311	NaN	0.000000	0.001629	0.001571	28.0965	0.043688	0.002035	21.4693	-145.198	-165.591	0.052118	0.441228	-0.670483	-0.671782	-0.042311	21.4693	-0.669004	-7.375044E+8	5.737010E-11	NaN
35	1.000000	0.452527	7.36538e+06	-40389.1	955.819	-29790.8	0.000000	0.000000	6.452916	-0.096022	NaN	0.000000	0.001607	0.001632	28.132	0.058203	0.002098	27.7446	125.89	14.4492	-0.096247	0.451160	-0.660482	-0.661850	-0.096022	27.7446	-0.657886	-5.194158E+8	1.848662E-10	NaN
35	1.000000	0.462538	7.36538e+06	-40389.1	955.819	-29790.8	0.000000	0.000000	6.462930	-0.018704	NaN	0.000000	0.001582	0.001622	28.0994	0.050534	0.001990	25.3878	-168.08	-164.725	-0.026763	0.461260	-0.650472	-0.651750	-0.018704	25.3878	-0.649919	-4.039527E+8	4.630269E-11	NaN
35	1.000000	0.472550	7.36538e+06	-40389.1	955.818	-29790.8	0.000000	0.000000	6.472944	0.013279	NaN	0.000000	0.001601	0.001631	28.081	0.063594	0.001777	35.7852	146.075	13.4483	0.075168	0.471209	-0.640459	-0.641800	0.013279	35.7852	-0.640737	-3.022791E+8	-4.392972E-11	NaN
35	1.000000	0.482537	7.36538e+06	-40389.1	955.819	-29790.8	0.000000	0.000000	6.482927	-0.062600	NaN	0.000000	0.001633	0.001615	28.0962	0.097110	0.002172	44.7095	178.315	-163.824	-0.005101	0.481251	-0.630472	-0.631758	-0.062600	44.7095	-0.629422	-2.113907E+8	2.961329E-10	NaN
35	1.000000	0.492552	7.36538e+06	-40389.1	955.819	-29790.8	0.000000	0.000000	6.492945	-0.002810	NaN	0.000000	0.001615	0.001637	28.1309	0.080084	0.002116	37.8508	133.686	11.6505	0.001998	0.491171	-0.620457	-0.621838	-0.002810	37.8508	-0.620402	-1.589113E+8	1.768291E-11	NaN
35	1.000000	0.502578	7.36538e+06	-40389.1	955.819	-29790.8	0.000000	0.000000	6.502967	-0.103289	NaN	0.000000	0.001625	0.001633	28.099	0.114288	0.002034	56.1888	-145.598	-165.942	-0.109992	0.501264	-0.610431	-0.611745	-0.103289	56.1888	-0.609052	-1.109371E+8	9.310591E-10	NaN
35	1.000000	0.512560	7.36538e+06	-40389.1	955.819	-29790.8	0.000000	0.000000	6.512952	-0.007442	NaN	0.000000	0.001626	0.001654	28.0807	0.092839	0.001846	50.2857	143.571	14.3408	-0.007935	0.511212	-0.600449	-0.601798	-0.007442	50.2857	-0.600338	-8.416295E+7	8.842331E-11	NaN
35	1.000000	0.522564	7.36538e+06	-40389.1	955.818	-29790.8	0.000000	0.000000	6.522956	-0.021520	NaN	0.000000	0.001651	0.001672	28.096	0.074139	0.002112	35.1086	-23.6563	-164.364	-0.004674	0.521304	-0.590446	-0.591705	-0.021520	35.1086	-0.589986	-6.059977E+7	3.551234E-10	NaN
35	1.000000	0.532536	7.36538e+06	-40389.1	955.818	-29790.8	0.000000	0.000000	6.532926	-0.052661	NaN	0.000000	0.001695	0.001633	28.1319	0.068653	0.002097	32.7353	164.24	13.2816	-0.078240	0.531210	-0.580473	-0.581800	-0.052661	32.7353	-0.579267	-4.311303E+7	1.221464E-9	NaN
35	1.000000	0.542582	7.36538e+06	-40389.1	955.818	-29790.8	0.000000	0.000000	6.542974	-0.027257	NaN	0.000000	0.001693	0.001661	28.0997	0.032869	0.002132	15.414	85.7126	-164.818	-0.034489	0.541241	-0.570427	-0.571769	-0.027257	15.414	-0.569101	-3.120382E+7	8.735079E-10	NaN
35	1.000000	0.552595	7.36538e+06	-40389.1	955.818	-29790.8	0.000000	0.000000	6.552987	-0.003645	NaN	0.000000	0.001658	0.001687	28.0785	0.162963	0.002029	80.3014	114.573	14.091	0.029005	0.551221	-0.560415	-0.561789	-0.003645	80.3014	-0.560381	-2.363989E+7	1.542023E-10	NaN
35	1.000000	0.562555	7.36538e+06	-40389.1	955.818	-29790.8	0.000000	0.000000	6.562946	-0.043377	NaN	0.000000	0.001694	0.001630	28.0949	0.123294	0.001921	64.1678	-88.1852	-165.425	-0.066270	0.561248	-0.550455	-0.551761	-0.043377	64.1678	-0.549948	-1.695240E+7	2.558733E-9	NaN
35	1.000000	0.572576	7.36539e+06	-40389.1	955.819	-29790.8	0.000000	0.000000	6.572967	-0.039224	NaN	0.000000	0.001631	0.001653	28.1292	0.109446	0.001940	56.4299	-74.9987	14.4676	-0.050925	0.571191	-0.540434	-0.541818	-0.039224	56.4299	-0.539912	-1.230677E+7	3.187187E-9	NaN
35	1.000000	0.582579	7.36539e+06	-40389.1	955.819	-29790.8	0.000000	0.000000	6.582970	-0.059310	NaN	0.000000	0.001635	0.001653	28.0979	0.101760	0.002103	48.3977	-130.62	-163.436	-0.025439	0.581319	-0.530430	-0.531690	-0.059310	48.3977	-0.529511	-8.82643e+06	6.719582E-9	NaN
35	1.000000	0.592588	7.36539e+06	-40389.1	955.818	-29790.8	0.000000	0.000000	6.592979	-0.042251	NaN	0.000000	0.001663	0.001628	28.0799	0.041492	0.001756	23.6316	-178.676	15.6315	-0.010916	0.591255	-0.520422	-0.521754	-0.042251	23.6316	-0.519081	-6.32143e+06	6.683750E-9	NaN
35	1.000000	0.602598	7.36539e+06	-40389.1	955.819	-29790.8	0.000000	0.000000	6.602991	0.026678	NaN	0.000000	0.001641	0.001645	28.095	0.020777	0.002038	10.1926	-111.15	-166.418	0.012614	0.601311	-0.510412	-0.511699	0.026678	10.1926	-0.512375	-5.09904e+06	-5.231938E-9	NaN
35	1.000000	0.612606	7.36539e+06	-40389.1	955.818	-29790.8	0.000000	0.000000	6.612998	-0.009516	NaN	0.000000	0.001633	0.001654	28.1307	0.058971	0.002107	27.9918	85.3455	16.0016	0.003670	0.611194	-0.500404	-0.501815	-0.009516	27.9918	-0.500149	-3.44424e+06	2.762958E-9	NaN
35	1.000000	0.622588	7.36539e+06	-40389.1	955.819	-29790.8	0.000000	0.000000	6.622982	0.019504	NaN	0.000000	0.001605	0.001690	28.0991	0.071525	0.002069	34.5697	-117.2	-163.149	-0.014607	0.621311	-0.490421	-0.491698	0.019504	34.5697	-0.490844	-2.55381e+06	-7.637134E-9	NaN
35	1.000000	0.632598	7.36539e+06	-40389.1	955.819	-29790.8	0.000000	0.000000	6.632991	0.001461	NaN	0.000000	0.001609	0.001691	28.0787	0.078978	0.001988	39.7231	129.24	15.1717	-0.071957	0.631306	-0.480411	-0.481703	0.001461	39.7231	-0.480439	-1.8267e+06	-7.998005E-10	NaN
35	1.000000	0.642598	7.36539e+06	-40389.1	955.818	-29790.8	0.000000	0.000000	6.642993	0.052572	NaN	0.000000	0.001621	0.001659	28.0923	0.055843	0.001942	28.7485	80.7267	-163.048	0.053137	0.641329	-0.470412	-0.471681	0.052572	28.7485	-0.471783	-1.3817e+06	-3.804870E-8	NaN
35	1.000000	0.652590	7.36539e+06	-40389.1	955.818	-29790.8	0.000000	0.000000	6.652981	-0.037911	NaN	0.000000	0.001600	0.001699	28.13	0.052505	0.001964	26.7321	-90.3112	13.7923	-0.098269	0.651256	-0.460419	-0.461753	-0.037911	26.7321	-0.459356	-924619	4.100192E-8	NaN
35	1.000000	0.662613	7.36539e+06	-40389.1	955.819	-29790.8	0.000000	0.000000	6.663005	-0.018037	NaN	0.000000	0.001583	0.001677	28.0989	0.032609	0.002038	16.004	3.595112	-165.681	-0.023165	0.661338	-0.450397	-0.451671	-0.018037	16.004	-0.449552	-673019	2.680022E-8	NaN
35	1.000000	0.672607	7.36539e+06	-40389.1	955.818	-29790.8	0.000000	0.000000	6.672998	-0.037082	NaN	0.000000	0.001585	0.001664	28.0788	0.066163	0.002017	32.8091	91.553	17.7051	-0.037861	0.671254	-0.440403	-0.441755	-0.037082	32.8091	-0.439555	-486501	7.622227E-8	NaN
35	1.000000	0.682613	7.36539e+06	-40389.1	955.819	-29790.8	0.000000	0.000000	6.683006	-0.005606	NaN	0.000000	0.001568	0.001669	28.0959	0.036617	0.002088	17.5392	-14.2144	-165.026	-0.028877	0.681252	-0.430396	-0.431757	-0.005606	17.5392	-0.430157	-358326	1.564515E-8	NaN
35	1.000000	0.692643	7.36539e+06	-40389.1	955.818	-29790.8	0.000000	0.000000	6.693034	-0.035175	NaN	0.000000	0.001564	0.001689	28.1322	0.075692	0.001971	38.3975	84.3671	13.129	0.036276	0.691215	-0.420367	-0.421794	-0.035175	38.3975	-0.419679	-254606	1.381538E-7	NaN
35	1.000000	0.702632	7.36539e+06	-40389.1	955.818	-29790.8	0.000000	0.000000	6.703024	-0.028990	NaN	0.000000	0.001559	0.001630	28.101	0.083547	0.002072	40.3174	-34.5498	-165.787	-0.138258	0.701302	-0.410377	-0.411708	-0.028990	40.3174	-0.409838	-184541	1.570924E-7	NaN
35	1.000000	0.712650	7.36539e+06	-40389.1	955.819	-29790.8	0.000000	0.000000	6.713043	0.011947	NaN	0.000000	0.001597	0.001658	28.0812	0.045331	0.002159	20.9987	-80.2901	15.7702	-0.072795	0.711338	-0.400359	-0.401672	0.011947	20.9987	-0.400786	-137152	-8.710466E-8	NaN
35	1.000000	0.722659	7.36539e+06	-40389.1	955.818	-29790.8	0.000000	0.000000	6.723051	-0.015401	NaN	0.000000	0.001600	0.001616	28.0946	0.074893	0.001869	40.0685	-165.924	-166.188	0.065149	0.721359	-0.390350	-0.391650	-0.015401	40.0685	-0.390062	-96394.6	1.597662E-7	NaN
35	1.000000	0.732653	7.36539e+06	-40389.1	955.819	-29790.8	0.000000	0.000000	6.733046	0.018286	NaN	0.000000	0.001626	0.001673	28.131	0.114752	0.001937	59.2295	-41.8476	12.8026	0.034792	0.731311	-0.380357	-0.381699	0.018286	59.2295	-0.380588	-70522.6	-2.592996E-7	NaN
35	1.000000	0.742655	7.36539e+06	-40389.1	955.818	-29790.8	0.000000	0.000000	6.743049	0.021398	NaN	0.000000	0.001598	0.001662	28.0999	0.038712	0.001961	19.7437	-77.3823	-166.379	0.050909	0.741375	-0.370354	-0.371634	0.021398	19.7437	-0.371167	-51633.4	-4.144197E-7	NaN
35	1.000000	0.752640	7.36539e+06	-40389.1	955.819	-29790.8	0.000000	0.000000	6.753033	0.007802	NaN	0.000000	0.001606	0.001648	28.0807	0.054947	0.001991	27.6007	38.5064	13.3777	0.023979	0.751288	-0.360369	-0.361722	0.007802	27.6007	-0.360581	-36328.4	-2.147751E-7	NaN
35	1.000000	0.762655	7.36539e+06	-40389.1	955.818	-29790.8	0.000000	0.000000	6.763046	-0.049735	NaN	0.000000	0.001638	0.001637	28.0951	0.054022	0.001965	27.4863	110.024	-166.047	-0.035438	0.761406	-0.350354	-0.351603	-0.049735	27.4863	-0.348997	-24685.5	2.014737E-6	NaN
35	1.000000	0.772684	7.36539e+06	-40389.1	955.817	-29790.8	0.000000	0.000000	6.773075	-0.039799	NaN	0.000000	0.001617	0.001679	28.1324	0.115992	0.001956	59.2929	165.867	11.3485	0.021026	0.771328	-0.340325	-0.341682	-0.039799	59.2929	-0.339822	-18153.4	2.192379E-6	NaN
35	1.000000	0.782658	7.36539e+06	-40389.1	955.818	-29790.8	0.000000	0.000000	6.783049	-0.035161	NaN	0.000000	0.001612	0.001676	28.1017	0.116242	0.002039	57.0199	-115.003	-163.562	-0.068543	0.781366	-0.330351	-0.331644	-0.035161	57.0199	-0.329889	-12996.4	2.705444E-6	NaN
35	1.000000	0.792687	7.36539e+06	-40389.1	955.818	-29790.8	0.000000	0.000000	6.793082	0.044694	NaN	0.000000	0.001599	0.001651	28.0791	0.062913	0.002003	31.4114	73.2638	14.2071	-0.020899	0.791323	-0.320322	-0.321687	0.044694	31.4114	-0.321389	-9751.64	-4.583254E-6	NaN
35	1.000000	0.802667	7.36539e+06	-40389.1	955.819	-29790.8	0.000000	0.000000	6.803060	-0.006391	NaN	0.000000	0.001615	0.001676	28.0941	0.046145	0.002155	21.4097	-39.1078	-164.219	0.006801	0.801404	-0.310342	-0.311606	-0.006391	21.4097	-0.310118	-6649.73	9.611631E-7	NaN
35	1.000000	0.812674	7.36539e+06	-40389.1	955.819	-29790.8	0.000000	0.000000	6.813069	0.043782	NaN	0.000000	0.001600	0.001660	28.1298	0.122772	0.002028	60.5438	31.859	13.4021	0.072124	0.811285	-0.300335	-0.301725	0.043782	60.5438	-0.300877	-4849.45	-9.028154E-6	NaN
35	1.000000	0.822687	7.36539e+06	-40389.1	955.818	-29790.8	0.000000	0.000000	6.823079	-0.005313	NaN	0.000000	0.001588	0.001661	28.0995	0.036395	0.002038	17.8617	-65.1696	-160.79	-0.044837	0.821374	-0.290323	-0.291636	-0.005313	17.8617	-0.290100	-3348.06	1.586838E-6	NaN
35	1.000000	0.832668	7.36539e+06	-40389.1	955.818	-29790.8	0.000000	0.000000	6.833059	-0.025409	NaN	0.000000	0.001567	0.001610	28.0792	0.038359	0.001980	19.3736	-24.8878	14.2831	-0.023181	0.831314	-0.280342	-0.281696	-0.025409	19.3736	-0.279358	-2308.26	1.100772E-5	NaN
35	1.000000	0.842698	7.36539e+06	-40389.1	955.818	-29790.8	0.000000	0.000000	6.843093	0.037539	NaN	0.000000	0.001559	0.001587	28.0945	0.071124	0.001981	35.8978	131.317	-163.812	0.030056	0.841344	-0.270311	-0.271666	0.037539	35.8978	-0.271095	-1730.56	-2.169176E-5	NaN
35	1.000000	0.852711	7.36539e+06	-40389.1	955.817	-29790.8	0.000000	0.000000	6.853103	-0.019436	NaN	0.000000	0.001568	0.001639	28.1307	0.060899	0.001979	30.776	-75.4714	14.796	-0.015084	0.851338	-0.260298	-0.261671	-0.019436	30.776	-0.259824	-1164.73	1.668716E-5	NaN
35	1.000000	0.862706	7.36539e+06	-40389.1	955.817	-29790.8	0.000000	0.000000	6.863099	0.000124	NaN	0.000000	0.001573	0.001609	28.1012	0.165674	0.002000	82.8421	-161.692	-162.309	-0.004228	0.861389	-0.250303	-0.251621	0.000124	82.8421	-0.250304	-831.14	-1.492720E-7	NaN
35	1.000000	0.872676	7.36539e+06	-40389.1	955.818	-29790.8	0.000000	0.000000	6.873069	0.007408	NaN	0.000000	0.001607	0.001683	28.0793	0.080533	0.001915	42.0447	-139.354	16.3464	0.045487	0.871365	-0.240333	-0.241645	0.007408	42.0447	-0.240466	-584.553	-1.267289E-5	NaN
35	1.000000	0.882717	7.36539e+06	-40389.1	955.819	-29790.8	0.000000	0.000000	6.883109	-0.017945	NaN	0.000000	0.001609	0.001674	28.0916	0.072772	0.002005	36.2932	153.113	-167.868	-0.058217	0.881418	-0.230292	-0.231591	-0.017945	36.2932	-0.229922	-399.281	4.494406E-5	NaN
35	1.000000	0.892671	7.36539e+06	-40389.1	955.818	-29790.8	0.000000	0.000000	6.893063	-0.009381	NaN	0.000000	0.001616	0.001662	28.1292	0.017183	0.001962	8.757928	-78.0975	13.0857	-0.014939	0.891330	-0.220339	-0.221679	-0.009381	8.757928	-0.219535	-273.052	3.435760E-5	NaN
35	1.000000	0.902752	7.36539e+06	-40389.1	955.817	-29790.8	0.000000	0.000000	6.903144	-0.013972	NaN	0.000000	0.001625	0.001630	28.1001	0.108098	0.002080	51.9622	-164.931	-165.762	-0.048861	0.901426	-0.210258	-0.211584	-0.013972	51.9622	-0.210056	-192.187	7.269997E-5	NaN
35	1.000000	0.912726	7.36539e+06	-40389.1	955.818	-29790.8	0.000000	0.000000	6.913117	-0.047587	NaN	0.000000	0.001603	0.001619	28.0797	0.074155	0.002051	36.1472	-16.3757	19.3849	-0.046725	0.911388	-0.200283	-0.201621	-0.047587	36.1472	-0.199296	-128.267	0.000371	NaN
35	1.000000	0.922725	7.36539e+06	-40389.1	955.818	-29790.8	0.000000	0.000000	6.923118	-0.000196	NaN	0.000000	0.001599	0.001670	28.0932	0.074534	0.001938	38.4644	-57.7055	-165.549	0.015365	0.921456	-0.190284	-0.191553	-0.000196	38.4644	-0.190281	-90.9312	2.152464E-6	NaN
35	1.000000	0.932732	7.36539e+06	-40389.1	955.818	-29790.8	0.000000	0.000000	6.933126	0.025704	NaN	0.000000	0.001614	0.001683	28.1311	0.100676	0.002001	50.3225	41.0505	15.4563	0.031351	0.931357	-0.180277	-0.181652	0.025704	50.3225	-0.180660	-62.6177	-0.000410	NaN
35	1.000000	0.942749	7.36539e+06	-40389.1	955.819	-29790.8	0.000000	0.000000	6.943142	-0.002319	NaN	0.000000	0.001582	0.001639	28.1012	0.112876	0.001948	57.9544	-99.6114	-168.521	0.028376	0.941422	-0.170260	-0.171588	-0.002319	57.9544	-0.170230	-41.4581	5.592816E-5	NaN
35	1.000000	0.952731	7.36539e+06	-40389.1	955.819	-29790.8	0.000000	0.000000	6.953124	0.007626	NaN	0.000000	0.001644	0.001620	28.081	0.054657	0.001946	28.0877	25.7123	13.4558	-0.048288	0.951370	-0.160279	-0.161640	0.007626	28.0877	-0.160482	-27.9608	-0.000273	NaN
35	1.000000	0.962775	7.36539e+06	-40389.1	955.819	-29790.8	0.000000	0.000000	6.963168	0.000687	NaN	0.000000	0.001607	0.001660	28.0937	0.057995	0.002036	28.4845	-7.604857	-166.396	0.022332	0.961442	-0.150234	-0.151567	0.000687	28.4845	-0.150252	-18.3063	-3.753062E-5	NaN
35	1.000000	0.972768	7.36539e+06	-40389.1	955.818	-29790.8	0.000000	0.000000	6.973163	0.049212	NaN	0.000000	0.001635	0.001667	28.1308	0.077687	0.001958	39.68	-115.883	15.1159	0.039168	0.971379	-0.140241	-0.141630	0.049212	39.68	-0.141171	-12.4431	-0.003955	NaN
35	1.000000	0.982747	7.36539e+06	-40389.1	955.818	-29790.8	0.000000	0.000000	6.983141	0.025512	NaN	0.000000	0.001602	0.001673	28.1018	0.078339	0.002001	39.1418	-39.2589	-166.816	0.050607	0.981432	-0.130262	-0.131578	0.025512	39.1418	-0.130751	-7.881002	-0.003237	NaN
35	1.000000	0.992749	7.36539e+06	-40389.1	955.818	-29790.8	0.000000	0.000000	6.993141	-0.030128	NaN	0.000000	0.001581	0.001658	28.0815	0.089617	0.001858	48.2315	96.1407	16.3353	-0.043087	0.991414	-0.120260	-0.121596	-0.030128	48.2315	-0.119792	-4.784959	0.006296	NaN
35	1.000000	1.002759	7.36539e+06	-40389.1	955.819	-29790.8	0.000000	0.000000	7.003151	-0.004636	NaN	0.000000	0.001578	0.001624	28.0943	0.063440	0.002220	28.5762	100.692	-163.077	-0.035635	1.001428	-0.110251	-0.111582	-0.004636	28.5762	-0.110129	-3.024095	0.001533	NaN
35	1.000000	1.012756	7.36539e+06	-40389.1	955.818	-29790.8	0.000000	0.000000	7.013149	-0.007450	NaN	0.000000	0.001578	0.001642	28.1321	0.047874	0.002128	22.4924	63.1022	13.5491	-0.006636	1.011367	-0.100253	-0.101643	-0.007450	22.4924	-0.100005	-1.827595	0.004076	NaN
35	1.000000	1.022771	7.36539e+06	-40389.1	955.819	-29790.8	0.000000	0.000000	7.023163	-0.022094	NaN	0.000000	0.001552	0.001680	28.1028	0.038969	0.002002	19.4651	-25.4478	-167.966	-0.035688	1.021456	-0.090238	-0.091554	-0.022094	19.4651	-0.089387	-1.045704	0.021128	NaN
35	1.000000	1.032774	7.36539e+06	-40389.1	955.818	-29790.8	0.000000	0.000000	7.033167	0.001821	NaN	0.000000	0.001596	0.001658	28.0807	0.029446	0.002014	14.6183	-59.7074	15.8376	0.028367	1.031434	-0.080236	-0.081575	0.001821	14.6183	-0.080329	-0.630819	-0.002887	NaN
35	1.000000	1.042784	7.36539e+06	-40389.1	955.819	-29790.8	0.000000	0.000000	7.043176	-0.014371	NaN	0.000000	0.001578	0.001634	28.0927	0.150397	0.001990	75.5764	-163.547	-166.057	-0.083501	1.041506	-0.070225	-0.071504	-0.014371	75.5764	-0.070083	-0.342853	0.041917	NaN
35	1.000000	1.052767	7.36539e+06	-40389.1	955.818	-29790.8	0.000000	0.000000	7.053159	-0.001832	NaN	0.000000	0.001614	0.001642	28.1302	0.117324	0.002090	56.1465	101.067	14.3973	0.027239	1.051423	-0.060243	-0.061587	-0.001832	56.1465	-0.060218	-0.182707	0.010025	NaN
35	1.000000	1.062811	7.36539e+06	-40389.1	955.819	-29790.8	0.000000	0.000000	7.063202	-0.039673	NaN	0.000000	0.001588	0.001671	28.1021	0.053782	0.002006	26.8125	146.576	-165.934	-0.018578	1.061445	-0.050199	-0.051564	-0.039673	26.8125	-0.049089	-0.085633	0.463295	NaN
35	1.000000	1.072789	7.36539e+06	-40389.1	955.819	-29790.8	0.000000	0.000000	7.073184	0.058812	NaN	0.000000	0.001611	0.001656	28.08	0.023211	0.002013	11.528	23.8171	11.7851	0.082544	1.071432	-0.040221	-0.041577	0.058812	11.528	-0.044047	-0.060097	-0.978622	NaN
35	1.000000	1.082772	7.36539e+06	-40389.1	955.818	-29790.8	0.000000	0.000000	7.083167	0.051752	NaN	0.000000	0.001574	0.001633	28.0933	0.077612	0.001976	39.284	22.7807	-167.194	0.054585	1.081478	-0.030238	-0.031531	0.051752	39.284	-0.031226	-0.024911	-2.077450	NaN
35	1.000000	1.092793	7.36539e+06	-40389.1	955.818	-29790.8	0.000000	0.000000	7.093186	0.019623	NaN	0.000000	0.001595	0.001636	28.1302	0.077971	0.002012	38.7592	47.0426	15.0848	0.021336	1.091485	-0.020217	-0.021525	0.019623	38.7592	-0.020596	-0.013007	-1.508616	NaN
35	1.000000	1.102813	7.36539e+06	-40389.1	955.819	-29790.8	0.000000	0.000000	7.103206	0.014986	NaN	0.000000	0.001571	0.001687	28.1016	0.156938	0.001982	79.1932	3.904396	-164.388	-0.045615	1.101524	-0.010196	-0.011485	0.014986	79.1932	-0.010338	-0.006581	-2.277321	NaN
35	1.000000	1.112811	7.36539e+06	-40389.1	955.817	-29790.8	0.000000	0.000000	7.113208	0.098612	NaN	0.000000	0.001590	0.001722	28.0786	0.307646	0.001871	164.422	45.2536	15.2101	0.010745	1.111446	-0.000198	-0.001563	0.098612	164.422	-0.000648	-0.000478	-206.257	NaN
35	1.000000	1.122710	7.36539e+06	-40389.1	955.819	-29790.8	0.000000	0.000000	7.123401	7.242942	NaN	0.000000	0.001608	0.001659	28.0911	7.991079	0.001684	4745.51	11.3353	-170.88	6.298702	1.121481	0.009701	0.008471	7.242942	4745.51	0.008556	0.007621	950.432	49666
35	2.000000	1.125974	7.36539e+06	-40389.1	955.819	-29790.8	0.000000	0.000000	7.126797	10.464	NaN	0.000000	0.001591	0.001641	28.1287	11.2419	0.001650	6814.24	7.764112	6.700022	10.1093	1.125627	0.012965	0.012618	10.464	6814.24	0.011813	0.011267	928.745	58652.9
35	2.000000	1.128389	7.36539e+06	-40389.1	955.817	-29790.8	0.000000	0.000000	7.129339	13.5624	NaN	0.000000	0.001599	0.001657	28.1011	14.1099	0.001709	8254.78	5.551458	-175.074	13.0732	1.128082	0.015380	0.015072	13.5624	8254.78	0.014147	0.014165	957.453	63367.9
35	2.000000	1.130858	7.36539e+06	-40389.1	955.817	-29790.8	0.000000	0.000000	7.132003	18.3057	NaN	0.000000	0.001584	0.001663	28.0785	16.627	0.001695	9811.58	6.190710	4.308214	16.8134	1.130535	0.017848	0.017526	18.3057	9811.58	0.016449	0.017266	1060.19	68220.1
35	2.000000	1.133384	7.36539e+06	-40389.1	955.817	-29790.8	0.000000	0.000000	7.134705	22.583	NaN	0.000000	0.001620	0.001659	28.0928	20.3665	0.001928	10563.9	10.0391	-178.248	22.3648	1.133058	0.020374	0.020048	22.583	10563.9	0.018771	0.020648	1093.73	67168.1
35	2.000000	1.135879	7.36539e+06	-40389.1	955.818	-29790.8	0.000000	0.000000	7.137353	26.3173	NaN	0.000000	0.001593	0.001659	28.1296	22.6683	0.001788	12677.7	9.758710	-0.301675	25.1736	1.135496	0.022869	0.022486	26.3173	12677.7	0.021312	0.024647	1067.79	73779.6
35	2.000000	1.138344	7.36539e+06	-40389.1	955.818	-29790.8	0.000000	0.000000	7.140155	34.5012	NaN	0.000000	0.001553	0.001660	28.1028	25.0167	0.001730	14460	8.603324	179.864	33.5999	1.138026	0.025335	0.025017	34.5012	14460	0.023545	0.028423	1213.87	78362.5
35	2.000000	1.140870	7.36539e+06	-40389.1	955.819	-29790.8	0.000000	0.000000	7.142792	37.2041	NaN	0.000000	0.001620	0.001679	28.0791	27.6317	0.001658	16665.1	4.753168	2.303833	36.8258	1.140512	0.027861	0.027503	37.2041	16665.1	0.026187	0.033210	1120.28	83550.4
35	2.000000	1.143341	7.36539e+06	-40389.1	955.818	-29790.8	0.000000	0.000000	7.145537	43.8713	NaN	0.000000	0.001587	0.001667	28.0915	31.2089	0.001739	17947.8	4.134672	-178.517	43.3572	1.143075	0.030332	0.030066	43.8713	17947.8	0.028498	0.037689	1164.04	84465
35	2.000000	1.145831	7.36539e+06	-40389.1	955.817	-29790.8	0.000000	0.000000	7.148479	54.8698	NaN	0.000000	0.001574	0.001653	28.1287	33.443	0.001638	20414.4	4.294491	-0.254267	52.0937	1.145455	0.032822	0.032446	54.8698	20414.4	0.030806	0.042431	1293.15	90545.8
35	2.000000	1.148322	7.36539e+06	-40389.1	955.818	-29790.8	0.000000	0.000000	7.151418	65.77	NaN	0.000000	0.001558	0.001671	28.1033	36.1269	0.001865	19372.5	4.573112	-179.345	65.0695	1.148033	0.035313	0.035024	65.77	19372.5	0.032766	0.046673	1409.18	81927.2
35	2.000000	1.150749	7.36539e+06	-40389.1	955.818	-29790.8	0.000000	0.000000	7.154053	70.8275	NaN	0.000000	0.001525	0.001639	28.08	38.7931	0.001837	21115.7	6.780537	-2.716178	66.5909	1.150429	0.037740	0.037419	70.8275	21115.7	0.035224	0.052270	1355.04	84382.7
35	2.000000	1.153305	7.36539e+06	-40389.1	955.818	-29790.8	0.000000	0.000000	7.157018	80.7954	NaN	0.000000	0.001640	0.001657	28.0939	41.2533	0.001831	22535.7	5.802466	177.355	78.9	1.152951	0.040296	0.039941	80.7954	22535.7	0.037607	0.057990	1393.27	85500.5
35	2.000000	1.155829	7.36539e+06	-40389.1	955.818	-29790.8	0.000000	0.000000	7.159970	91.2037	NaN	0.000000	0.001604	0.001631	28.131	43.2626	0.001866	23182.8	5.242866	-1.973842	88.6956	1.155361	0.042820	0.042352	91.2037	23182.8	0.039869	0.063691	1431.98	83926.9
35	2.000000	1.158319	7.36539e+06	-40389.1	955.82	-29790.8	0.000000	0.000000	7.162545	93.2775	NaN	0.000000	0.001544	0.001618	28.1042	45.5153	0.001806	25202.1	7.498044	174.565	92.7947	1.158033	0.045310	0.045023	93.2775	25202.1	0.042534	0.070740	1318.6	86572
35	2.000000	1.160812	7.36539e+06	-40389.1	955.818	-29790.8	0.000000	0.000000	7.165370	101.354	NaN	0.000000	0.001596	0.001633	28.0798	47.6769	0.001823	26159.3	3.124391	-0.926234	99.2318	1.160493	0.047803	0.047483	101.354	26159.3	0.044897	0.077294	1311.28	85965.6
35	2.000000	1.163275	7.36539e+06	-40389.1	955.819	-29790.8	0.000000	0.000000	7.168167	109.477	NaN	0.000000	0.001558	0.001632	28.0929	50.4455	0.001758	28687.3	4.068258	176.425	107.518	1.163056	0.050266	0.050047	109.477	28687.3	0.047404	0.084557	1294.71	90133.7
35	2.000000	1.165757	7.36539e+06	-40389.1	955.818	-29790.8	0.000000	0.000000	7.171303	125.402	NaN	0.000000	0.001554	0.001647	28.13	51.2564	0.001814	28256.3	3.503890	-1.740727	121.043	1.165472	0.052747	0.052463	125.402	28256.3	0.049419	0.090625	1383.75	85756.2
35	2.000000	1.168313	7.36539e+06	-40389.1	955.818	-29790.8	0.000000	0.000000	7.174332	136.897	NaN	0.000000	0.001574	0.001626	28.1034	54.5686	0.001703	32041.1	7.777720	172.349	137.587	1.167911	0.055304	0.054901	136.897	32041.1	0.052099	0.099012	1382.63	93033.2
35	2.000000	1.170831	7.36539e+06	-40389.1	955.818	-29790.8	0.000000	0.000000	7.177496	152.642	NaN	0.000000	0.001553	0.001646	28.0808	56.9673	0.001696	33587.8	6.890112	-6.510755	152.705	1.170394	0.057821	0.057384	152.642	33587.8	0.054413	0.106540	1432.72	94015.2
35	2.000000	1.173311	7.36539e+06	-40389.1	955.818	-29790.8	0.000000	0.000000	7.180630	168.537	NaN	0.000000	0.001577	0.001649	28.0937	60.8073	0.001819	33434.3	8.256723	171.052	167.435	1.172992	0.060302	0.059983	168.537	33434.3	0.056521	0.113631	1483.2	90618.7
35	2.000000	1.175822	7.36539e+06	-40389.1	955.819	-29790.8	0.000000	0.000000	7.183742	183.18	NaN	0.000000	0.001548	0.001665	28.1309	61.9246	0.001766	35071.3	6.836858	-6.697088	181.476	1.175323	0.062812	0.062314	183.18	35071.3	0.058895	0.121876	1503	91783.8
35	2.000000	1.178238	7.36539e+06	-40389.1	955.818	-29790.8	0.000000	0.000000	7.186633	194.729	NaN	0.000000	0.001591	0.001661	28.1049	63.4596	0.001713	37040.1	-0.030935	178.816	192.261	1.177986	0.065228	0.064977	194.729	37040.1	0.061285	0.130458	1492.66	93693.5
35	2.000000	1.180867	7.36539e+06	-40389.1	955.817	-29790.8	0.000000	0.000000	7.189780	207.342	NaN	0.000000	0.001579	0.001658	28.0803	67.344	0.001778	37867.6	2.600979	-3.440939	208.662	1.180449	0.067857	0.067440	207.342	37867.6	0.063751	0.139600	1485.26	92597.1
35	2.000000	1.183350	7.36539e+06	-40389.1	955.817	-29790.8	0.000000	0.000000	7.192887	222.518	NaN	0.000000	0.001581	0.001635	28.0909	71.3081	0.001862	38293.2	7.667189	171.466	226.974	1.183058	0.070341	0.070048	222.518	38293.2	0.065983	0.148130	1502.18	90901.7
35	2.000000	1.185869	7.36539e+06	-40389.1	955.817	-29790.8	0.000000	0.000000	7.196069	238.653	NaN	0.000000	0.001580	0.001606	28.129	71.9637	0.001856	38771.5	0.357774	-1.241326	238.877	1.185547	0.072859	0.072538	238.653	38771.5	0.068243	0.157014	1519.95	89395.6
35	2.000000	1.188302	7.36539e+06	-40389.1	955.818	-29790.8	0.000000	0.000000	7.199482	262.503	NaN	0.000000	0.001569	0.001672	28.1022	73.8247	0.001752	42138.1	2.568156	175.858	262.905	1.187951	0.075292	0.074942	262.503	42138.1	0.070620	0.166620	1575.46	94315.8
35	2.000000	1.190732	7.36539e+06	-40389.1	955.818	-29790.8	0.000000	0.000000	7.202652	280.495	NaN	0.000000	0.001597	0.001671	28.0797	76.1815	0.001736	43889.1	5.291073	-7.847539	276.123	1.190399	0.077723	0.077389	280.495	43889.1	0.072930	0.176210	1591.82	95524.6
35	2.000000	1.193214	7.36539e+06	-40389.1	955.818	-29790.8	0.000000	0.000000	7.205923	299.687	NaN	0.000000	0.001579	0.001643	28.0914	79.199	0.001711	46282.7	4.080643	173.171	295.977	1.192943	0.080205	0.079934	299.687	46282.7	0.075349	0.186523	1606.7	97909.6
35	2.000000	1.195757	7.36539e+06	-40389.1	955.817	-29790.8	0.000000	0.000000	7.209403	322.519	NaN	0.000000	0.001633	0.001632	28.1299	81.2397	0.001831	44368.9	4.994322	-7.116157	317.385	1.195339	0.082747	0.082330	322.519	44368.9	0.077296	0.195025	1653.73	91792.4
35	2.000000	1.198266	7.36539e+06	-40389.1	955.819	-29790.8	0.000000	0.000000	7.212881	346.082	NaN	0.000000	0.001580	0.001640	28.1038	83.9924	0.001804	46552.5	4.409523	172.823	345.456	1.198004	0.085257	0.084995	346.082	46552.5	0.079681	0.205683	1682.6	93781.3
35	2.000000	1.200778	7.36539e+06	-40389.1	955.817	-29790.8	0.000000	0.000000	7.216169	364.978	NaN	0.000000	0.001602	0.001642	28.0793	85.5183	0.001728	49495	4.610876	-7.324170	364.32	1.200425	0.087768	0.087415	364.978	49495	0.082238	0.217402	1678.81	96984.6
35	2.000000	1.203246	7.36539e+06	-40389.1	955.817	-29790.8	0.000000	0.000000	7.219021	374.299	NaN	0.000000	0.001615	0.001610	28.0903	88.2847	0.001722	51268.8	0.458627	175.761	372.295	1.203109	0.090237	0.090100	374.299	51268.8	0.084761	0.229264	1632.61	97826.8
35	2.000000	1.205754	7.36539e+06	-40389.1	955.818	-29790.8	0.000000	0.000000	7.222825	405.84	NaN	0.000000	0.001600	0.001652	28.1291	90.1828	0.001828	49340	2.708507	-6.066569	401.886	1.205344	0.092744	0.092335	405.84	49340	0.086575	0.237973	1705.4	92407.7
35	2.000000	1.208293	7.36539e+06	-40389.1	955.817	-29790.8	0.000000	0.000000	7.225697	413.934	NaN	0.000000	0.001593	0.001609	28.1031	92.6591	0.001707	54280.2	-1.408731	176.406	416.601	1.207984	0.095284	0.094975	413.934	54280.2	0.089564	0.252655	1638.33	98662.1
35	2.000000	1.210661	7.36539e+06	-40389.1	955.818	-29790.8	0.000000	0.000000	7.229320	444.475	NaN	0.000000	0.001576	0.001615	28.0795	95.5156	0.001789	53403.4	2.524424	-6.655049	436.276	1.210348	0.097652	0.097338	444.475	53403.4	0.091410	0.261924	1696.96	95335.4
35	2.000000	1.213213	7.36539e+06	-40389.1	955.818	-29790.8	0.000000	0.000000	7.232703	464.69	NaN	0.000000	0.001610	0.001616	28.0906	98.6766	0.001791	55082.8	5.263053	170.024	463.296	1.213009	0.100204	0.099999	464.69	55082.8	0.093877	0.274558	1692.5	96044.4
35	2.000000	1.215641	7.36539e+06	-40389.1	955.816	-29790.8	0.000000	0.000000	7.236282	492.714	NaN	0.000000	0.001587	0.001625	28.1301	100.55	0.001931	52083.3	6.671024	-9.370216	483.031	1.215247	0.102632	0.102237	492.714	52083.3	0.095537	0.283217	1739.71	89415.3
35	2.000000	1.218142	7.36539e+06	-40389.1	955.817	-29790.8	0.000000	0.000000	7.239210	503.122	NaN	0.000000	0.001582	0.001653	28.1052	103.492	0.001776	58271.6	5.783620	170.627	496.389	1.217694	0.105132	0.104684	503.122	58271.6	0.098657	0.299829	1678.03	97228.4
35	2.000000	1.220757	7.36539e+06	-40389.1	955.817	-29790.8	0.000000	0.000000	7.243076	533.55	NaN	0.000000	0.001617	0.001648	28.0814	107.399	0.001821	58992.7	6.753727	-10.3318	530.358	1.220293	0.107748	0.107283	533.55	58992.7	0.100964	0.312402	1707.89	96430.5
35	2.000000	1.222375	7.36539e+06	-40389.1	955.817	-29790.8	0.000000	0.000000	7.244739	534.653	NaN	0.000000	0.001627	0.001652	28.1043	108.871	0.001824	59698.3	5.011187	170.985	539.93	1.221909	0.109365	0.108899	534.653	59698.3	0.102648	0.321729	1661.81	96159