File: remote_trans/data/nanoindenter/0828-1/data/Data_2025-08-06,11h17m57s/2025-07-22_16-23-58_1_1001.txt
2025-07-22, 16:23:58, 1
Index	Phase	Displacement	Time	Pos X	Pos Y	Pos Z	Rot A	Rot B	Piezo Z	Force A	Force B	Gripper	Voltage A	Voltage B	Temperature	Amplitude force	Amplitude pos	Stiffness	Phase shift	Phase excitation	Force A raw	Displacement raw	HMax	HMax raw	Real Force	Real Stiffness	Contact Depth	Area	Hardness	Reduced Mod.
[#]	[#]	[um]	[s]	[um]	[um]	[um]	[m°]	[m°]	[um]	[uN]	[uN]	[V]	[V]	[V]	[°C]	[uN]	[um]	[N/m]	[°]	[°]	[uN]	[um]	[um]	[um]	[uN]	[N/m]	[um]	[um^2]	[MPa]	[MPa]
1001	1.000000	0.002058	7.37484e+06	-50189.1	1055.82	-29756.4	0.000000	0.000000	6.002805	-0.072346	NaN	0.000000	0.001526	0.001724	28.085	0.090670	0.000976	92.8726	-114.035	-168.763	-0.118725	0.000816	-1.111521	-1.112763	-0.072346	92.8726	-1.110937	-7.028408E+14	1.029339E-16	NaN
1001	1.000000	0.012113	7.37484e+06	-50189.1	1055.82	-29756.4	0.000000	0.000000	6.012860	-0.043616	NaN	0.000000	0.001501	0.001748	28.085	0.047825	0.001250	38.2484	-56.7664	10.6082	-0.114614	0.010668	-1.101466	-1.102910	-0.043616	38.2484	-1.100611	-5.108201E+14	8.538483E-17	NaN
1001	1.000000	0.021986	7.37484e+06	-50189.1	1055.82	-29756.4	0.000000	0.000000	6.022736	0.009472	NaN	0.000000	0.001533	0.001698	28.084	0.041647	0.001632	25.5199	-103.543	-170.035	-0.003195	0.020663	-1.091593	-1.092916	0.009472	25.5199	-1.091871	-3.898834E+14	-2.429478E-17	NaN
1001	1.000000	0.031983	7.37484e+06	-50189.1	1055.82	-29756.4	0.000000	0.000000	6.032734	0.045986	NaN	0.000000	0.001554	0.001737	28.0838	0.013064	0.002053	6.363851	-107.271	17.5066	-0.010265	0.030606	-1.081596	-1.082973	0.045986	6.363851	-1.087016	-3.355368E+14	-1.370534E-16	NaN
1001	1.000000	0.042026	7.37484e+06	-50189.1	1055.82	-29756.4	0.000000	0.000000	6.042773	-0.058862	NaN	0.000000	0.001497	0.001709	28.0837	0.047235	0.002017	23.415	-126.443	-170.382	-0.004852	0.040663	-1.071553	-1.072916	-0.058862	23.415	-1.069667	-1.962093E+14	2.999948E-16	NaN
1001	1.000000	0.052011	7.37484e+06	-50189.1	1055.82	-29756.4	0.000000	0.000000	6.052759	-0.033231	NaN	0.000000	0.001553	0.001742	28.084	0.043228	0.002043	21.1631	0.213470	15.3612	-0.009022	0.050579	-1.061568	-1.063000	-0.033231	21.1631	-1.060390	-1.472530E+14	2.256759E-16	NaN
1001	1.000000	0.062037	7.37484e+06	-50189.1	1055.82	-29756.4	0.000000	0.000000	6.062783	-0.109453	NaN	0.000000	0.001578	0.001736	28.0837	0.095281	0.001989	47.9016	-86.6749	-164.703	-0.081898	0.060677	-1.051541	-1.052902	-0.109453	47.9016	-1.049828	-1.061932E+14	1.030701E-15	NaN
1001	1.000000	0.072009	7.37484e+06	-50189.1	1055.82	-29756.4	0.000000	0.000000	6.072758	-0.009790	NaN	0.000000	0.001562	0.001753	28.0837	0.028838	0.002117	13.6242	45.5273	13.4787	-0.077881	0.070643	-1.041570	-1.042936	-0.009790	13.6242	-1.041031	-8.087798E+13	1.210480E-16	NaN
1001	1.000000	0.081969	7.37484e+06	-50189.1	1055.82	-29756.4	0.000000	0.000000	6.082719	0.008518	NaN	0.000000	0.001564	0.001754	28.0841	0.036457	0.001958	18.6225	159.935	-166.355	-0.086538	0.080707	-1.031610	-1.032872	0.008518	18.6225	-1.031953	-6.105926E+13	-1.394960E-16	NaN
1001	1.000000	0.092028	7.37484e+06	-50189.1	1055.82	-29756.4	0.000000	0.000000	6.092775	-0.065260	NaN	0.000000	0.001572	0.001722	28.0838	0.087092	0.002033	42.8292	80.8498	14.6559	-0.047396	0.090683	-1.021551	-1.022896	-0.065260	42.8292	-1.020408	-4.270108E+13	1.528305E-15	NaN
1001	1.000000	0.101994	7.37484e+06	-50189.1	1055.82	-29756.4	0.000000	0.000000	6.102742	-0.023508	NaN	0.000000	0.001576	0.001763	28.0837	0.015839	0.002135	7.419186	104.654	-165.799	-0.108599	0.100675	-1.011585	-1.012904	-0.023508	7.419186	-1.009209	-3.018079E+13	7.789187E-16	NaN
1001	1.000000	0.112002	7.37484e+06	-50189.1	1055.82	-29756.4	0.000000	0.000000	6.112751	-0.018507	NaN	0.000000	0.001570	0.001765	28.0839	0.020897	0.002012	10.3882	24.0785	13.9023	0.008457	0.110685	-1.001576	-1.002893	-0.018507	10.3882	-1.000240	-2.285618E+13	8.097133E-16	NaN
1001	1.000000	0.122021	7.37484e+06	-50189.1	1055.82	-29756.4	0.000000	0.000000	6.122769	-0.041188	NaN	0.000000	0.001572	0.001772	28.0837	0.029767	0.002039	14.601	23.4759	-163.034	-0.107297	0.120701	-0.991558	-0.992878	-0.041188	14.601	-0.989443	-1.635323E+13	2.518659E-15	NaN
1001	1.000000	0.131994	7.37484e+06	-50189.1	1055.82	-29756.4	0.000000	0.000000	6.132744	0.012271	NaN	0.000000	0.001541	0.001738	28.0837	0.082143	0.002131	38.5418	84.1218	14.1703	-0.073390	0.130655	-0.981585	-0.982924	0.012271	38.5418	-0.981824	-1.291151E+13	-9.503973E-16	NaN
1001	1.000000	0.142054	7.37484e+06	-50189.1	1055.82	-29756.4	0.000000	0.000000	6.142800	-0.094335	NaN	0.000000	0.001560	0.001723	28.0835	0.035372	0.001950	18.1432	48.4984	-166.521	-0.012901	0.140700	-0.971524	-0.972879	-0.094335	18.1432	-0.967625	-8.310983E+12	1.135062E-14	NaN
1001	1.000000	0.152036	7.37484e+06	-50189.1	1055.82	-29756.4	0.000000	0.000000	6.152782	-0.094454	NaN	0.000000	0.001553	0.001709	28.0837	0.064876	0.001975	32.8471	-146.432	13.5121	-0.081252	0.150681	-0.961543	-0.962898	-0.094454	32.8471	-0.959386	-6.435601E+12	1.467679E-14	NaN
1001	1.000000	0.162034	7.37484e+06	-50189.1	1055.82	-29756.4	0.000000	0.000000	6.162781	-0.054817	NaN	0.000000	0.001559	0.001705	28.0846	0.105516	0.002055	51.338	-89.6024	-168.394	-0.090374	0.160700	-0.951545	-0.952878	-0.054817	51.338	-0.950744	-4.921100E+12	1.113923E-14	NaN
1001	1.000000	0.172046	7.37484e+06	-50189.1	1055.82	-29756.4	0.000000	0.000000	6.172793	-0.059122	NaN	0.000000	0.001546	0.001764	28.0849	0.088300	0.001975	44.7151	-167.836	13.9038	-0.073835	0.170710	-0.941533	-0.942868	-0.059122	44.7151	-0.940541	-3.584555E+12	1.649347E-14	NaN
1001	1.000000	0.182093	7.37484e+06	-50189.1	1055.82	-29756.4	0.000000	0.000000	6.182841	-0.043502	NaN	0.000000	0.001568	0.001709	28.085	0.055909	0.001942	28.788	25.7173	-164.137	0.002290	0.180756	-0.931486	-0.932823	-0.043502	28.788	-0.930353	-2.611897E+12	1.665542E-14	NaN
1001	1.000000	0.192061	7.37484e+06	-50189.1	1055.82	-29756.4	0.000000	0.000000	6.192812	0.021926	NaN	0.000000	0.001573	0.001717	28.0849	0.050691	0.001983	25.5616	-68.3951	10.4617	-0.023100	0.190657	-0.921517	-0.922921	0.021926	25.5616	-0.922161	-2.024787E+12	-1.082859E-14	NaN
1001	1.000000	0.202073	7.37484e+06	-50189.1	1055.82	-29756.4	0.000000	0.000000	6.202818	-0.105748	NaN	0.000000	0.001592	0.001712	28.085	0.024613	0.001910	12.8893	-20.0281	-170.725	-0.049983	0.200735	-0.911506	-0.912844	-0.105748	12.8893	-0.905352	-1.200555E+12	8.808239E-14	NaN
1001	1.000000	0.212087	7.37484e+06	-50189.1	1055.82	-29756.4	0.000000	0.000000	6.212835	-0.031540	NaN	0.000000	0.001587	0.001700	28.0851	0.079043	0.001945	40.6333	-160.656	13.3083	-0.010897	0.210748	-0.901492	-0.902831	-0.031540	40.6333	-0.900910	-1.045587E+12	3.016507E-14	NaN
1001	1.000000	0.222048	7.37484e+06	-50189.1	1055.82	-29756.4	0.000000	0.000000	6.222795	-0.056232	NaN	0.000000	0.001547	0.001693	28.085	0.088186	0.002108	41.8377	137.7	-165.152	-0.189003	0.220703	-0.891531	-0.892876	-0.056232	41.8377	-0.890523	-7.568121E+11	7.430065E-14	NaN
1001	1.000000	0.232059	7.37484e+06	-50189.1	1055.82	-29756.4	0.000000	0.000000	6.232807	-0.051234	NaN	0.000000	0.001551	0.001707	28.0851	0.021156	0.001956	10.8176	123.944	16.974	-0.087319	0.230751	-0.881519	-0.882827	-0.051234	10.8176	-0.877967	-5.119359E+11	1.000786E-13	NaN
1001	1.000000	0.242091	7.37484e+06	-50189.1	1055.82	-29756.4	0.000000	0.000000	6.242837	-0.091650	NaN	0.000000	0.001530	0.001720	28.085	0.054007	0.002094	25.7928	-104.479	-164.663	-0.127160	0.240765	-0.871488	-0.872814	-0.091650	25.7928	-0.868823	-3.850499E+11	2.380218E-13	NaN
1001	1.000000	0.252101	7.37484e+06	-50189.1	1055.82	-29756.4	0.000000	0.000000	6.252847	-0.089018	NaN	0.000000	0.001552	0.001684	28.0851	0.090629	0.002019	44.8839	-171.909	13.4663	0.011898	0.250721	-0.861478	-0.862858	-0.089018	44.8839	-0.859991	-2.924119E+11	3.044280E-13	NaN
1001	1.000000	0.262082	7.37484e+06	-50189.1	1055.82	-29756.4	0.000000	0.000000	6.262828	-0.097788	NaN	0.000000	0.001543	0.001690	28.0853	0.044794	0.002007	22.316	-70.9318	-168.633	-0.099939	0.260778	-0.851496	-0.852801	-0.097788	22.316	-0.848210	-2.025336E+11	4.828240E-13	NaN
1001	1.000000	0.272109	7.37484e+06	-50189.1	1055.82	-29756.4	0.000000	0.000000	6.272856	-0.081563	NaN	0.000000	0.001545	0.001741	28.0853	0.102459	0.001930	53.0952	-53.4242	13.2088	-0.051564	0.270750	-0.841469	-0.842829	-0.081563	53.0952	-0.840317	-1.583398E+11	5.151166E-13	NaN
1001	1.000000	0.282084	7.37484e+06	-50189.1	1055.82	-29756.4	0.000000	0.000000	6.282831	-0.060826	NaN	0.000000	0.001535	0.001736	28.0852	0.066420	0.002034	32.6616	171.839	-165.761	-0.016383	0.280818	-0.831495	-0.832761	-0.060826	32.6616	-0.830098	-1.151110E+11	5.284086E-13	NaN
1001	1.000000	0.292120	7.37484e+06	-50189.1	1055.82	-29756.4	0.000000	0.000000	6.292866	-0.104068	NaN	0.000000	0.001549	0.001701	28.0855	0.035704	0.001989	17.9541	118.825	14.2047	-0.079410	0.290736	-0.821458	-0.822842	-0.104068	17.9541	-0.817111	-7.674191E+10	1.356081E-12	NaN
1001	1.000000	0.302096	7.37484e+06	-50189.1	1055.82	-29756.4	0.000000	0.000000	6.302843	-0.068409	NaN	0.000000	0.001535	0.001691	28.084	0.040144	0.002012	19.95	-172.892	-163.189	-0.123510	0.300850	-0.811482	-0.812729	-0.068409	19.95	-0.808911	-5.940045E+10	1.151661E-12	NaN
1001	1.000000	0.312093	7.37484e+06	-50189.1	1055.82	-29756.4	0.000000	0.000000	6.312840	-0.054688	NaN	0.000000	0.001558	0.001713	28.084	0.111853	0.002012	55.5972	159.185	9.484279	-0.029098	0.310723	-0.801486	-0.802856	-0.054688	55.5972	-0.800748	-4.602768E+10	1.188147E-12	NaN
1001	1.000000	0.322131	7.37484e+06	-50189.1	1055.82	-29756.4	0.000000	0.000000	6.322876	-0.103400	NaN	0.000000	0.001554	0.001730	28.0841	0.088445	0.001870	47.295	-130.51	-164.315	-0.117913	0.320772	-0.791448	-0.792807	-0.103400	47.295	-0.789808	-3.269459E+10	3.162590E-12	NaN
1001	1.000000	0.332109	7.37484e+06	-50189.1	1055.82	-29756.4	0.000000	0.000000	6.332855	-0.086242	NaN	0.000000	0.001541	0.001718	28.0841	0.047641	0.002015	23.6413	143.505	11.4861	-0.116911	0.330708	-0.781470	-0.782871	-0.086242	23.6413	-0.778734	-2.312202E+10	3.729882E-12	NaN
1001	1.000000	0.342128	7.37484e+06	-50189.1	1055.82	-29756.4	0.000000	0.000000	6.342874	-0.083760	NaN	0.000000	0.001509	0.001727	28.0841	0.049384	0.001992	24.7939	-124.274	-169.968	-0.081605	0.340828	-0.771451	-0.772750	-0.083760	24.7939	-0.768917	-1.700510E+10	4.925600E-12	NaN
1001	1.000000	0.352123	7.37484e+06	-50189.1	1055.82	-29756.4	0.000000	0.000000	6.352869	-0.088109	NaN	0.000000	0.001540	0.001690	28.0841	0.098236	0.001824	53.8431	84.8581	12.4207	-0.139633	0.350752	-0.761456	-0.762827	-0.088109	53.8431	-0.760228	-1.295420E+10	6.801603E-12	NaN
1001	1.000000	0.362100	7.37484e+06	-50189.1	1055.82	-29756.4	0.000000	0.000000	6.362843	-0.164757	NaN	0.000000	0.001559	0.001684	28.0843	0.084769	0.002143	39.5589	42.8945	-168.601	-0.104885	0.360815	-0.751478	-0.752764	-0.164757	39.5589	-0.748355	-8.929422E+9	1.845106E-11	NaN
1001	1.000000	0.372132	7.37484e+06	-50189.1	1055.82	-29756.4	0.000000	0.000000	6.372879	-0.065350	NaN	0.000000	0.001517	0.001729	28.0839	0.100836	0.001985	50.8003	-175.215	11.7231	-0.102205	0.370781	-0.741447	-0.742798	-0.065350	50.8003	-0.740482	-6.976292E+9	9.367393E-12	NaN
1001	1.000000	0.382176	7.37484e+06	-50189.1	1055.82	-29756.4	0.000000	0.000000	6.382923	-0.055882	NaN	0.000000	0.001562	0.001683	28.0841	0.110460	0.002124	51.995	138.484	-163.653	-0.107922	0.380817	-0.731403	-0.732762	-0.055882	51.995	-0.730597	-5.116105E+9	1.092270E-11	NaN
1001	1.000000	0.392140	7.37484e+06	-50189.1	1055.82	-29756.4	0.000000	0.000000	6.392890	0.006083	NaN	0.000000	0.001550	0.001717	28.084	0.088226	0.001952	45.2023	162.815	15.8299	0.021785	0.390814	-0.721438	-0.722764	0.006083	45.2023	-0.721539	-3.850045E+9	-1.579855E-12	NaN
1001	1.000000	0.402158	7.37484e+06	-50189.1	1055.82	-29756.4	0.000000	0.000000	6.402904	-0.096915	NaN	0.000000	0.001579	0.001719	28.0844	0.081217	0.002063	39.3604	59.0988	-164.205	-0.057717	0.400878	-0.711421	-0.712700	-0.096915	39.3604	-0.709574	-2.643831E+9	3.665708E-11	NaN
1001	1.000000	0.412138	7.37484e+06	-50189.1	1055.82	-29756.4	0.000000	0.000000	6.412882	-0.120969	NaN	0.000000	0.001575	0.001714	28.084	0.052497	0.001957	26.8275	-75.9583	11.4274	-0.147160	0.410826	-0.701441	-0.702753	-0.120969	26.8275	-0.698059	-1.840887E+9	6.571242E-11	NaN
1001	1.000000	0.422186	7.37484e+06	-50189.1	1055.82	-29756.4	0.000000	0.000000	6.422933	-0.066294	NaN	0.000000	0.001577	0.001712	28.084	0.094269	0.002049	46.0093	70.7092	-167.471	-0.091999	0.420878	-0.691393	-0.692701	-0.066294	46.0093	-0.690312	-1.442739E+9	4.595045E-11	NaN
1001	1.000000	0.432157	7.37484e+06	-50189.1	1055.82	-29756.4	0.000000	0.000000	6.432906	-0.032979	NaN	0.000000	0.001597	0.001701	28.085	0.064478	0.002042	31.5728	-127.852	15.3598	-0.035044	0.430852	-0.681421	-0.682727	-0.032979	31.5728	-0.680638	-1.063972E+9	3.099619E-11	NaN
1001	1.000000	0.442152	7.37484e+06	-50189.1	1055.82	-29756.4	0.000000	0.000000	6.442901	-0.017203	NaN	0.000000	0.001569	0.001734	28.0856	0.053758	0.002073	25.9379	-123.422	-167.389	-0.040700	0.440876	-0.671427	-0.672702	-0.017203	25.9379	-0.670929	-7.836262E+8	2.195357E-11	NaN
1001	1.000000	0.452180	7.37484e+06	-50189.1	1055.82	-29756.4	0.000000	0.000000	6.452925	-0.116722	NaN	0.000000	0.001570	0.001723	28.0853	0.068916	0.001955	35.2596	56.4466	11.0293	-0.119925	0.450841	-0.661399	-0.662737	-0.116722	35.2596	-0.658916	-5.365617E+8	2.175370E-10	NaN
1001	1.000000	0.462172	7.37484e+06	-50189.1	1055.82	-29756.4	0.000000	0.000000	6.462918	-0.096471	NaN	0.000000	0.001550	0.001690	28.0853	0.027126	0.002014	13.4663	-55.4662	-166.898	0.000848	0.460856	-0.651407	-0.652723	-0.096471	13.4663	-0.646034	-3.573206E+8	2.699837E-10	NaN
1001	1.000000	0.472176	7.37484e+06	-50189.1	1055.82	-29756.4	0.000000	0.000000	6.472922	-0.089096	NaN	0.000000	0.001566	0.001694	28.0852	0.074522	0.001879	39.6574	-3.013397	11.6005	-0.054754	0.470832	-0.641403	-0.642747	-0.089096	39.6574	-0.639718	-2.926963E+8	3.043971E-10	NaN
1001	1.000000	0.482204	7.37484e+06	-50189.1	1055.82	-29756.4	0.000000	0.000000	6.482953	-0.031759	NaN	0.000000	0.001588	0.001691	28.0855	0.047311	0.001878	25.1895	69.2998	-166.667	-0.070449	0.480857	-0.631375	-0.632721	-0.031759	25.1895	-0.630429	-2.182295E+8	1.455323E-10	NaN
1001	1.000000	0.492183	7.37484e+06	-50189.1	1055.82	-29756.4	0.000000	0.000000	6.492932	-0.027103	NaN	0.000000	0.001569	0.001652	28.0851	0.135810	0.002154	63.0551	-85.1146	10.6453	0.042016	0.490842	-0.621396	-0.622737	-0.027103	63.0551	-0.621073	-1.623246E+8	1.669699E-10	NaN
1001	1.000000	0.502171	7.37484e+06	-50189.1	1055.82	-29756.4	0.000000	0.000000	6.502916	-0.127207	NaN	0.000000	0.001564	0.001734	28.0853	0.052403	0.001964	26.685	-92.083	-166.336	-0.124811	0.500868	-0.611407	-0.612711	-0.127207	26.685	-0.607832	-1.067293E+8	1.191863E-9	NaN
1001	1.000000	0.512193	7.37484e+06	-50189.1	1055.82	-29756.4	0.000000	0.000000	6.512939	-0.105484	NaN	0.000000	0.001539	0.001697	28.0851	0.060246	0.002084	28.9063	-65.0304	16.5949	-0.115995	0.510810	-0.601385	-0.602768	-0.105484	28.9063	-0.598648	-7.977116E+7	1.322328E-9	NaN
1001	1.000000	0.522228	7.37484e+06	-50189.1	1055.82	-29756.4	0.000000	0.000000	6.522973	-0.106438	NaN	0.000000	0.001537	0.001714	28.0852	0.046783	0.001990	23.5127	81.8046	-161.415	0.036641	0.520850	-0.591351	-0.592728	-0.106438	23.5127	-0.587956	-5.681711E+7	1.873349E-9	NaN
1001	1.000000	0.532211	7.37484e+06	-50189.1	1055.82	-29756.4	0.000000	0.000000	6.532960	-0.021083	NaN	0.000000	0.001606	0.001729	28.085	0.071015	0.001829	38.8221	-151.749	13.0052	0.024889	0.530858	-0.581368	-0.582721	-0.021083	38.8221	-0.580961	-4.549695E+7	4.633943E-10	NaN
1001	1.000000	0.542200	7.37484e+06	-50189.1	1055.82	-29756.4	0.000000	0.000000	6.542947	-0.071022	NaN	0.000000	0.001562	0.001703	28.0851	0.029614	0.002066	14.3347	6.481725	-166.197	-0.118843	0.540942	-0.571379	-0.572637	-0.071022	14.3347	-0.567663	-2.980828E+7	2.382633E-9	NaN
1001	1.000000	0.552204	7.37484e+06	-50189.1	1055.82	-29756.4	0.000000	0.000000	6.552951	-0.061045	NaN	0.000000	0.001568	0.001722	28.0855	0.043218	0.001837	23.523	-3.084197	12.491	-0.120051	0.550886	-0.561375	-0.562693	-0.061045	23.523	-0.559429	-2.293360E+7	2.661833E-9	NaN
1001	1.000000	0.562192	7.37484e+06	-50189.1	1055.82	-29756.4	0.000000	0.000000	6.562939	-0.084282	NaN	0.000000	0.001551	0.001720	28.0855	0.131905	0.001964	67.1557	126.253	-164.817	-0.088986	0.560852	-0.551386	-0.552726	-0.084282	67.1557	-0.550445	-1.722348E+7	4.893416E-9	NaN
1001	1.000000	0.572215	7.37484e+06	-50189.1	1055.82	-29756.4	0.000000	0.000000	6.572965	0.007123	NaN	0.000000	0.001567	0.001711	28.0843	0.078972	0.002033	38.8493	133.239	14.8545	-0.077478	0.570895	-0.541363	-0.542683	0.007123	38.8493	-0.541501	-1.294704E+7	-5.501678E-10	NaN
1001	1.000000	0.582214	7.37484e+06	-50189.1	1055.82	-29756.4	0.000000	0.000000	6.582962	-0.036523	NaN	0.000000	0.001593	0.001707	28.0842	0.125390	0.001931	64.9271	173.343	-168.346	-0.025053	0.580903	-0.531365	-0.532676	-0.036523	64.9271	-0.530943	-9.24e+06	3.952713E-9	NaN
1001	1.000000	0.592230	7.37484e+06	-50189.1	1055.82	-29756.4	0.000000	0.000000	6.592974	-0.126275	NaN	0.000000	0.001567	0.001734	28.0842	0.038478	0.001954	19.688	108.517	12.0017	-0.146285	0.590894	-0.521349	-0.522685	-0.126275	19.688	-0.516539	-5.82701e+06	2.167062E-8	NaN
1001	1.000000	0.602269	7.37484e+06	-50189.1	1055.82	-29756.4	0.000000	0.000000	6.603015	-0.085396	NaN	0.000000	0.001555	0.001770	28.0842	0.071030	0.001966	36.1373	-154.588	-168.651	-0.061640	0.600924	-0.511310	-0.512655	-0.085396	36.1373	-0.509538	-4.65561e+06	1.834257E-8	NaN
1001	1.000000	0.612240	7.37484e+06	-50189.1	1055.82	-29756.4	0.000000	0.000000	6.612985	-0.103387	NaN	0.000000	0.001604	0.001698	28.0839	0.067500	0.002037	33.1433	147.223	15.3457	-0.079053	0.610847	-0.501339	-0.502732	-0.103387	33.1433	-0.498999	-3.31936e+06	3.114656E-8	NaN
1001	1.000000	0.622246	7.37484e+06	-50189.1	1055.82	-29756.4	0.000000	0.000000	6.622995	-0.017696	NaN	0.000000	0.001579	0.001723	28.0843	0.063899	0.001998	31.9766	-140.244	-164.052	-0.083589	0.620919	-0.491333	-0.492660	-0.017696	31.9766	-0.490918	-2.55985e+06	6.912988E-9	NaN
1001	1.000000	0.632235	7.37484e+06	-50189.1	1055.82	-29756.4	0.000000	0.000000	6.632983	-0.053909	NaN	0.000000	0.001566	0.001694	28.084	0.133735	0.001960	68.2446	-141.92	15.403	-0.104522	0.630902	-0.481344	-0.482677	-0.053909	68.2446	-0.480751	-1.84519e+06	2.921619E-8	NaN
1001	1.000000	0.642267	7.37484e+06	-50189.1	1055.82	-29756.4	0.000000	0.000000	6.643013	-0.077733	NaN	0.000000	0.001554	0.001711	28.0836	0.039877	0.002028	19.6607	-136.47	-165.507	0.009583	0.640945	-0.471312	-0.472634	-0.077733	19.6607	-0.468347	-1.23656e+06	6.286207E-8	NaN
1001	1.000000	0.652256	7.37484e+06	-50189.1	1055.82	-29756.4	0.000000	0.000000	6.653003	-0.079921	NaN	0.000000	0.001571	0.001691	28.0839	0.135969	0.001978	68.7383	103.505	13.6785	-0.071829	0.650835	-0.461323	-0.462743	-0.079921	68.7383	-0.460451	-957965	8.342760E-8	NaN
1001	1.000000	0.662255	7.37484e+06	-50189.1	1055.82	-29756.4	0.000000	0.000000	6.663006	0.027426	NaN	0.000000	0.001545	0.001727	28.0838	0.079164	0.001970	40.191	173.038	-163.091	-0.033080	0.660979	-0.451323	-0.452599	0.027426	40.191	-0.451835	-724736	-3.784213E-8	NaN
1001	1.000000	0.672294	7.37484e+06	-50189.1	1055.82	-29756.4	0.000000	0.000000	6.673039	-0.118417	NaN	0.000000	0.001521	0.001702	28.0838	0.104746	0.001910	54.8523	-116.685	10.8033	-0.033736	0.670921	-0.441284	-0.442658	-0.118417	54.8523	-0.439665	-488246	2.425364E-7	NaN
1001	1.000000	0.682258	7.37484e+06	-50189.1	1055.82	-29756.4	0.000000	0.000000	6.683003	-0.109587	NaN	0.000000	0.001591	0.001738	28.0837	0.043143	0.002042	21.124	131.912	-166.189	0.000318	0.680978	-0.431321	-0.432601	-0.109587	21.124	-0.427430	-327860	3.342504E-7	NaN
1001	1.000000	0.692256	7.37484e+06	-50189.1	1055.82	-29756.4	0.000000	0.000000	6.693004	-0.047708	NaN	0.000000	0.001587	0.001714	28.0839	0.137596	0.001928	71.3496	142.133	12.9712	-0.042117	0.690915	-0.421323	-0.422664	-0.047708	71.3496	-0.420821	-264277	1.805242E-7	NaN
1001	1.000000	0.702278	7.37484e+06	-50189.1	1055.82	-29756.4	0.000000	0.000000	6.703027	-0.012404	NaN	0.000000	0.001570	0.001722	28.0837	0.089471	0.002128	42.0515	-51.1742	-165.643	-0.030522	0.700983	-0.411301	-0.412596	-0.012404	42.0515	-0.411080	-192199	6.453957E-8	NaN
1001	1.000000	0.712276	7.37484e+06	-50189.1	1055.82	-29756.4	0.000000	0.000000	6.713024	-0.027501	NaN	0.000000	0.001576	0.001722	28.0852	0.068954	0.002123	32.4725	-58.454	13.7477	-0.075201	0.710905	-0.401303	-0.402674	-0.027501	32.4725	-0.400668	-136622	2.012932E-7	NaN
1001	1.000000	0.722274	7.37484e+06	-50189.1	1055.82	-29756.4	0.000000	0.000000	6.723020	-0.084468	NaN	0.000000	0.001603	0.001704	28.085	0.136146	0.001944	70.0326	-106.781	-166.698	0.041836	0.720960	-0.391305	-0.392619	-0.084468	70.0326	-0.390400	-97475.4	8.665579E-7	NaN
1001	1.000000	0.732289	7.37484e+06	-50189.1	1055.82	-29756.4	0.000000	0.000000	6.733036	-0.056417	NaN	0.000000	0.001567	0.001671	28.0856	0.050157	0.001966	25.5085	-13.5486	13.4839	-0.085950	0.730907	-0.381290	-0.382672	-0.056417	25.5085	-0.379631	-68328	8.256727E-7	NaN
1001	1.000000	0.742301	7.37484e+06	-50189.1	1055.82	-29756.4	0.000000	0.000000	6.743047	-0.089429	NaN	0.000000	0.001557	0.001702	28.0851	0.024551	0.001959	12.5304	-133.328	-166.489	-0.088747	0.741013	-0.371278	-0.372566	-0.089429	12.5304	-0.365925	-43390.7	2.061019E-6	NaN
1001	1.000000	0.752325	7.37484e+06	-50189.1	1055.82	-29756.4	0.000000	0.000000	6.753072	-0.072744	NaN	0.000000	0.001544	0.001751	28.0853	0.098141	0.002031	48.3125	1.233169	15.3209	-0.062386	0.750902	-0.361253	-0.362677	-0.072744	48.3125	-0.360124	-35779.8	2.033091E-6	NaN
1001	1.000000	0.762297	7.37484e+06	-50189.1	1055.82	-29756.4	0.000000	0.000000	6.763046	-0.025056	NaN	0.000000	0.001575	0.001704	28.0856	0.043049	0.001990	21.6345	-51.8606	-165.596	-0.086246	0.760992	-0.351281	-0.352587	-0.025056	21.6345	-0.350413	-25881.7	9.680789E-7	NaN
1001	1.000000	0.772287	7.37484e+06	-50189.1	1055.82	-29756.4	0.000000	0.000000	6.773035	-0.030522	NaN	0.000000	0.001615	0.001699	28.0853	0.072582	0.002022	35.895	-0.990809	10.8166	-0.140969	0.770975	-0.341292	-0.342604	-0.030522	35.895	-0.340654	-18667.7	1.635015E-6	NaN
1001	1.000000	0.782290	7.37484e+06	-50189.1	1055.82	-29756.4	0.000000	0.000000	6.783037	-0.046441	NaN	0.000000	0.001578	0.001716	28.0852	0.091812	0.001947	47.1541	-78.5597	-168.388	-0.091442	0.781000	-0.331289	-0.332579	-0.046441	47.1541	-0.330550	-13289.6	3.494532E-6	NaN
1001	1.000000	0.792299	7.37485e+06	-50189.1	1055.82	-29756.4	0.000000	0.000000	6.793044	-0.125386	NaN	0.000000	0.001622	0.001724	28.0853	0.056451	0.002036	27.7245	-68.3773	12.1217	-0.114605	0.790982	-0.321280	-0.322597	-0.125386	27.7245	-0.317888	-8660.27	1.447835E-5	NaN
1001	1.000000	0.802300	7.37485e+06	-50189.1	1055.82	-29756.4	0.000000	0.000000	6.803050	-0.002551	NaN	0.000000	0.001551	0.001729	28.0855	0.043664	0.002047	21.3304	-44.1868	-165.784	0.034487	0.800973	-0.311278	-0.312606	-0.002551	21.3304	-0.311189	-6896.67	3.699160E-7	NaN
1001	1.000000	0.812325	7.37485e+06	-50189.1	1055.82	-29756.4	0.000000	0.000000	6.813070	-0.104586	NaN	0.000000	0.001565	0.001731	28.085	0.119733	0.002100	57.0105	-111.841	13.821	-0.077297	0.810980	-0.301254	-0.302599	-0.104586	57.0105	-0.299878	-4686.19	2.231794E-5	NaN
1001	1.000000	0.822321	7.37485e+06	-50189.1	1055.82	-29756.4	0.000000	0.000000	6.823066	-0.112958	NaN	0.000000	0.001566	0.001732	28.0854	0.065216	0.002039	31.9771	69.652	-167.647	-0.181918	0.821057	-0.291258	-0.292522	-0.112958	31.9771	-0.288608	-3180.12	3.552010E-5	NaN
1001	1.000000	0.832326	7.37485e+06	-50189.1	1055.82	-29756.4	0.000000	0.000000	6.833074	-0.048385	NaN	0.000000	0.001594	0.001727	28.0853	0.083441	0.002124	39.2913	-108.566	12.0227	-0.080075	0.831035	-0.281253	-0.282543	-0.048385	39.2913	-0.280329	-2387.45	2.026628E-5	NaN
1001	1.000000	0.842325	7.37485e+06	-50189.1	1055.82	-29756.4	0.000000	0.000000	6.843071	-0.093608	NaN	0.000000	0.001575	0.001757	28.0842	0.071367	0.002021	35.3056	-149.46	-168.554	-0.120693	0.841070	-0.271254	-0.272509	-0.093608	35.3056	-0.269265	-1623.2	5.766837E-5	NaN
1001	1.000000	0.852319	7.37485e+06	-50189.1	1055.82	-29756.4	0.000000	0.000000	6.853065	-0.090854	NaN	0.000000	0.001612	0.001735	28.0838	0.049698	0.001870	26.5726	21.0007	13.2643	-0.044646	0.850932	-0.261260	-0.262647	-0.090854	26.5726	-0.258696	-1119.22	8.117683E-5	NaN
1001	1.000000	0.862343	7.37485e+06	-50189.1	1055.82	-29756.4	0.000000	0.000000	6.863089	-0.082138	NaN	0.000000	0.001579	0.001749	28.0837	0.072714	0.001909	38.0819	-124.755	-164.272	-0.084895	0.861029	-0.251236	-0.252550	-0.082138	38.0819	-0.249618	-811.071	0.000101	NaN
1001	1.000000	0.872378	7.37485e+06	-50189.1	1055.82	-29756.4	0.000000	0.000000	6.873122	-0.133657	NaN	0.000000	0.001580	0.001740	28.0838	0.073376	0.001934	37.9408	80.5234	14.0412	-0.068934	0.871007	-0.241201	-0.242572	-0.133657	37.9408	-0.238559	-545.789	0.000245	NaN
1001	1.000000	0.882367	7.37485e+06	-50189.1	1055.82	-29756.4	0.000000	0.000000	6.883115	-0.039699	NaN	0.000000	0.001623	0.001718	28.0838	0.085580	0.001941	44.0876	123.283	-167.622	-0.003567	0.881013	-0.231212	-0.232566	-0.039699	44.0876	-0.230536	-408.303	9.722930E-5	NaN
1001	1.000000	0.892351	7.37485e+06	-50189.1	1055.82	-29756.4	0.000000	0.000000	6.893096	-0.122261	NaN	0.000000	0.001588	0.001753	28.0836	0.056923	0.001944	29.2865	-130.121	13.8037	-0.057137	0.890985	-0.221228	-0.222594	-0.122261	29.2865	-0.218097	-258.953	0.000472	NaN
1001	1.000000	0.902345	7.37485e+06	-50189.1	1055.82	-29756.4	0.000000	0.000000	6.903094	-0.002672	NaN	0.000000	0.001582	0.001750	28.0838	0.102375	0.002054	49.8539	-23.0603	-165.054	-0.052588	0.901051	-0.211234	-0.212528	-0.002672	49.8539	-0.211194	-200.512	1.332712E-5	NaN
1001	1.000000	0.912337	7.37485e+06	-50189.1	1055.82	-29756.4	0.000000	0.000000	6.913081	-0.144789	NaN	0.000000	0.001585	0.001707	28.0836	0.126783	0.002105	60.229	-173.043	13.2817	-0.142374	0.910992	-0.201242	-0.202587	-0.144789	60.229	-0.199439	-128.965	0.001123	NaN
1001	1.000000	0.922373	7.37485e+06	-50189.1	1055.82	-29756.4	0.000000	0.000000	6.923119	-0.092601	NaN	0.000000	0.001558	0.001733	28.0839	0.073036	0.001911	38.2131	72.2795	-163.721	-0.022648	0.921059	-0.191205	-0.192520	-0.092601	38.2131	-0.189388	-87.861	0.001054	NaN
1001	1.000000	0.932385	7.37485e+06	-50189.1	1055.82	-29756.4	0.000000	0.000000	6.933134	-0.015225	NaN	0.000000	0.001576	0.001758	28.0839	0.010502	0.001999	5.253690	161.135	15.259	-0.091661	0.931039	-0.181193	-0.182540	-0.015225	5.253690	-0.179020	-58.7187	0.000259	NaN
1001	1.000000	0.942388	7.37485e+06	-50189.1	1055.82	-29756.4	0.000000	0.000000	6.943135	-0.050036	NaN	0.000000	0.001580	0.001744	28.0839	0.031592	0.002019	15.6459	130.964	-168.74	-0.064438	0.941034	-0.171191	-0.172544	-0.050036	15.6459	-0.168792	-39.1395	0.001278	NaN
1001	1.000000	0.952381	7.37485e+06	-50189.1	1055.82	-29756.4	0.000000	0.000000	6.953128	-0.066092	NaN	0.000000	0.001554	0.001760	28.0837	0.091507	0.001956	46.7886	-11.446	14.6527	0.070538	0.951027	-0.161198	-0.162552	-0.066092	46.7886	-0.160138	-27.5706	0.002397	NaN
1001	1.000000	0.962360	7.37485e+06	-50189.1	1055.82	-29756.4	0.000000	0.000000	6.963109	-0.011195	NaN	0.000000	0.001582	0.001771	28.0836	0.085752	0.001975	43.4165	-172.868	-162.606	-0.063807	0.961092	-0.151219	-0.152487	-0.011195	43.4165	-0.151026	-18.9099	0.000592	NaN
1001	1.000000	0.972365	7.37485e+06	-50189.1	1055.82	-29756.4	0.000000	0.000000	6.973116	0.025410	NaN	0.000000	0.001592	0.001729	28.0837	0.082233	0.001960	41.9542	-83.5135	11.9029	-0.056411	0.971052	-0.141213	-0.142527	0.025410	41.9542	-0.141668	-12.7118	-0.001999	NaN
1001	1.000000	0.982383	7.37485e+06	-50189.1	1055.82	-29756.4	0.000000	0.000000	6.983129	-0.089010	NaN	0.000000	0.001580	0.001740	28.0851	0.095694	0.002004	47.7411	129.352	-166.719	-0.065653	0.981059	-0.131196	-0.132520	-0.089010	47.7411	-0.129797	-7.552206	0.011786	NaN
1001	1.000000	0.992383	7.37485e+06	-50189.1	1055.82	-29756.4	0.000000	0.000000	6.993128	-0.108423	NaN	0.000000	0.001582	0.001753	28.0849	0.052743	0.002028	26.0051	131.284	13.6405	-0.149012	0.991015	-0.121196	-0.122564	-0.108423	26.0051	-0.118069	-4.415288	0.024556	NaN
1001	1.000000	1.002420	7.37485e+06	-50189.1	1055.82	-29756.4	0.000000	0.000000	7.003169	-0.012570	NaN	0.000000	0.001554	0.001719	28.0849	0.030037	0.002043	14.7037	-137.778	-166.71	-0.020817	1.001060	-0.111159	-0.112519	-0.012570	14.7037	-0.110518	-3.081638	0.004079	NaN
1001	1.000000	1.012398	7.37485e+06	-50189.1	1055.82	-29756.4	0.000000	0.000000	7.013147	-0.037144	NaN	0.000000	0.001562	0.001725	28.0849	0.064735	0.001995	32.454	-46.3359	12.1987	-0.005330	1.011029	-0.101180	-0.102550	-0.037144	32.454	-0.100322	-1.857389	0.019998	NaN
1001	1.000000	1.022416	7.37485e+06	-50189.1	1055.82	-29756.4	0.000000	0.000000	7.023164	-0.053240	NaN	0.000000	0.001572	0.001729	28.085	0.083288	0.001926	43.2418	-39.2324	-164.33	-0.071444	1.021093	-0.091162	-0.092486	-0.053240	43.2418	-0.090239	-1.095008	0.048621	NaN
1001	1.000000	1.032415	7.37485e+06	-50189.1	1055.82	-29756.4	0.000000	0.000000	7.033162	-0.055528	NaN	0.000000	0.001506	0.001774	28.0847	0.065708	0.002074	31.6815	-136.076	17.7382	-0.040211	1.031036	-0.081164	-0.082543	-0.055528	31.6815	-0.079849	-0.613638	0.090489	NaN
1001	1.000000	1.042426	7.37485e+06	-50189.1	1055.82	-29756.4	0.000000	0.000000	7.043176	-0.001285	NaN	0.000000	0.001529	0.001758	28.0847	0.027782	0.001997	13.9154	132.292	-168.108	-0.007869	1.041119	-0.071153	-0.072459	-0.001285	13.9154	-0.071083	-0.364591	0.003523	NaN
1001	1.000000	1.052412	7.37485e+06	-50189.1	1055.82	-29756.4	0.000000	0.000000	7.053159	-0.080998	NaN	0.000000	0.001539	0.001748	28.0848	0.043137	0.002010	21.4585	4.803808	15.0968	-0.071270	1.051065	-0.061167	-0.062513	-0.080998	21.4585	-0.058336	-0.161250	0.502312	NaN
1001	1.000000	1.062406	7.37485e+06	-50189.1	1055.82	-29756.4	0.000000	0.000000	7.063153	-0.044219	NaN	0.000000	0.001570	0.001747	28.0847	0.063567	0.001894	33.5621	-74.7363	-165.6	-0.023552	1.061141	-0.051173	-0.052438	-0.044219	33.5621	-0.050185	-0.092433	0.478386	NaN
1001	1.000000	1.072415	7.37485e+06	-50189.1	1055.82	-29756.4	0.000000	0.000000	7.073162	-0.046449	NaN	0.000000	0.001553	0.001732	28.0846	0.097440	0.002030	47.9885	160.466	10.7604	-0.055606	1.071039	-0.041164	-0.042540	-0.046449	47.9885	-0.040438	-0.046630	0.996112	NaN
1001	1.000000	1.082431	7.37485e+06	-50189.1	1055.82	-29756.4	0.000000	0.000000	7.083176	-0.108816	NaN	0.000000	0.001564	0.001726	28.0846	0.051399	0.002019	25.4603	-168.809	-166.669	-0.086242	1.081139	-0.031148	-0.032440	-0.108816	25.4603	-0.027943	-0.020203	5.386212	NaN
1001	1.000000	1.092422	7.37485e+06	-50189.1	1055.82	-29756.4	0.000000	0.000000	7.093169	-0.081563	NaN	0.000000	0.001665	0.001705	28.0848	0.111655	0.001975	56.5278	-18.3509	14.735	-0.044630	1.091090	-0.021156	-0.022489	-0.081563	56.5278	-0.020074	-0.012616	6.465177	NaN
1001	1.000000	1.102427	7.37485e+06	-50189.1	1055.82	-29756.4	0.000000	0.000000	7.103177	0.001857	NaN	0.000000	0.001645	0.001697	28.0845	0.097261	0.001930	50.3821	-146.742	-166.468	-0.004139	1.101134	-0.011152	-0.012444	0.001857	50.3821	-0.011179	-0.007060	-0.263024	NaN
1001	1.000000	1.112422	7.37485e+06	-50189.1	1055.82	-29756.4	0.000000	0.000000	7.113183	0.271627	NaN	0.000000	0.001618	0.001679	28.085	0.723804	0.002028	356.968	9.003349	13.4253	0.007869	1.111066	-0.001157	-0.002513	0.271627	356.968	-0.001728	-0.001250	-217.369	NaN
1001	2.000000	1.121002	7.37485e+06	-50189.1	1055.82	-29756.4	0.000000	0.000000	7.122109	8.684652	NaN	0.000000	0.001643	0.001691	28.0836	8.963087	0.001610	5566.95	6.445880	-173.825	8.440580	1.120615	0.007423	0.007037	8.684652	5566.95	0.006253	0.005306	1636.71	69823.2
1001	2.000000	1.123540	7.37485e+06	-50189.1	1055.82	-29756.4	0.000000	0.000000	7.124841	13.4064	NaN	0.000000	0.001630	0.001741	28.0839	11.44	0.001476	7751.08	5.267806	6.151234	12.2283	1.123164	0.009961	0.009585	13.4064	7751.08	0.008664	0.007734	1733.35	80523.3
1001	2.000000	1.125948	7.37485e+06	-50189.1	1055.82	-29756.4	0.000000	0.000000	7.127433	17.8963	NaN	0.000000	0.001641	0.001699	28.0834	14.24	0.001658	8587.33	8.368115	-178.725	16.4517	1.125648	0.012369	0.012070	17.8963	8587.33	0.010806	0.010091	1773.51	78102.7
1001	2.000000	1.128484	7.37485e+06	-50189.1	1055.82	-29756.4	0.000000	0.000000	7.130155	22.4065	NaN	0.000000	0.001637	0.001747	28.0837	16.9945	0.001756	9677.57	7.504047	2.669588	21.4175	1.128077	0.014906	0.014499	22.4065	9677.57	0.013169	0.012921	1734.15	77784.9
1001	2.000000	1.130976	7.37485e+06	-50189.1	1055.82	-29756.4	0.000000	0.000000	7.132878	28.0198	NaN	0.000000	0.001634	0.001730	28.0835	19.89	0.001803	11033.4	4.770362	-176.843	27.6383	1.130591	0.017397	0.017012	28.0198	11033.4	0.015493	0.015948	1756.94	79822.8
1001	2.000000	1.133493	7.37485e+06	-50189.1	1055.82	-29756.4	0.000000	0.000000	7.135697	35.3619	NaN	0.000000	0.001601	0.001750	28.0839	21.4538	0.001666	12878.2	2.565741	4.013599	34.2102	1.133102	0.019914	0.019524	35.3619	12878.2	0.017855	0.019283	1833.82	84730.3
1001	2.000000	1.135989	7.37485e+06	-50189.1	1055.82	-29756.4	0.000000	0.000000	7.138393	40.2355	NaN	0.000000	0.001614	0.001733	28.0834	23.93	0.001660	14415.6	2.867102	-177.8	39.5809	1.135550	0.022410	0.021971	40.2355	14415.6	0.020317	0.023042	1746.17	86765
1001	2.000000	1.138424	7.37485e+06	-50189.1	1055.82	-29756.4	0.000000	0.000000	7.141018	44.8508	NaN	0.000000	0.001579	0.001750	28.0843	27.8283	0.001939	14353.9	4.586695	1.769668	43.3955	1.138119	0.024846	0.024540	44.8508	14353.9	0.022502	0.026628	1684.38	80367.1
1001	2.000000	1.140931	7.37485e+06	-50189.1	1055.82	-29756.4	0.000000	0.000000	7.143882	53.5293	NaN	0.000000	0.001617	0.001721	28.0836	29.6301	0.001774	16704.9	3.120029	-178.059	53.5045	1.140596	0.027352	0.027017	53.5293	16704.9	0.024949	0.030923	1731.05	86791.5
1001	2.000000	1.143394	7.37485e+06	-50189.1	1055.82	-29756.4	0.000000	0.000000	7.146775	63.9924	NaN	0.000000	0.001617	0.001758	28.0842	32.8867	0.001842	17858.1	8.336044	-4.481348	61.7679	1.143064	0.029815	0.029485	63.9924	17858.1	0.027128	0.035001	1828.33	87211.2
1001	2.000000	1.145893	7.37485e+06	-50189.1	1055.82	-29756.4	0.000000	0.000000	7.149684	73.9774	NaN	0.000000	0.001638	0.001827	28.0833	34.6198	0.001827	18945.1	5.208290	177.864	72.4811	1.145572	0.032314	0.031993	73.9774	18945.1	0.029385	0.039479	1873.82	87113.1
1001	2.000000	1.148383	7.37485e+06	-50189.1	1055.82	-29756.4	0.000000	0.000000	7.152562	83.3909	NaN	0.000000	0.001643	0.001830	28.0836	37.1395	0.001892	19631.5	1.804622	1.187345	79.2963	1.148005	0.034805	0.034427	83.3909	19631.5	0.031619	0.044166	1888.13	85346.1
1001	2.000000	1.150935	7.37485e+06	-50189.1	1055.82	-29756.4	0.000000	0.000000	7.155509	93.008	NaN	0.000000	0.001687	0.001757	28.0833	39.7236	0.001695	23437.8	6.432453	174.295	93.3611	1.150583	0.037356	0.037004	93.008	23437.8	0.034380	0.050311	1848.65	95467.9
1001	2.000000	1.153423	7.37485e+06	-50189.1	1055.82	-29756.4	0.000000	0.000000	7.158524	105.807	NaN	0.000000	0.001650	0.001789	28.0857	41.6744	0.001879	22180.6	6.934770	-3.383496	106.033	1.152977	0.039845	0.039398	105.807	22180.6	0.036267	0.054737	1933.01	86617.7
1001	2.000000	1.155924	7.37485e+06	-50189.1	1055.82	-29756.4	0.000000	0.000000	7.161485	117.024	NaN	0.000000	0.001637	0.001774	28.0847	44.1167	0.001782	24758.6	6.791933	173.896	117.05	1.155555	0.042345	0.041976	117.024	24758.6	0.038800	0.060963	1919.58	91614.5
1001	2.000000	1.158399	7.37485e+06	-50189.1	1055.82	-29756.4	0.000000	0.000000	7.164504	130.253	NaN	0.000000	0.001633	0.001769	28.0851	46.4449	0.001746	26597.1	2.926508	-2.532225	128.524	1.158010	0.044820	0.044432	130.253	26597.1	0.041147	0.067026	1943.33	93861.1
1001	2.000000	1.160894	7.37485e+06	-50189.1	1055.82	-29756.4	0.000000	0.000000	7.167571	144.131	NaN	0.000000	0.001665	0.001733	28.0847	50.0162	0.001831	27313.3	5.244953	175.527	144.492	1.160578	0.047316	0.046999	144.131	27313.3	0.043358	0.072994	1974.56	92364.1
1001	2.000000	1.163381	7.37485e+06	-50189.1	1055.82	-29756.4	0.000000	0.000000	7.170771	161.488	NaN	0.000000	0.001665	0.001768	28.0855	51.437	0.001738	29599	6.765659	-6.604311	158.166	1.162953	0.049802	0.049375	161.488	29599	0.045710	0.079616	2028.35	95841.1
1001	2.000000	1.165815	7.37485e+06	-50189.1	1055.82	-29756.4	0.000000	0.000000	7.173491	168.456	NaN	0.000000	0.001631	0.001744	28.0848	52.7697	0.001647	32038.7	-0.197746	178.815	164.185	1.165686	0.052236	0.052107	168.456	32038.7	0.048292	0.087208	1931.65	99121.7
1001	2.000000	1.168317	7.37485e+06	-50189.1	1055.82	-29756.4	0.000000	0.000000	7.177037	193.829	NaN	0.000000	0.001660	0.001763	28.0854	56.8694	0.001772	32100.9	3.026374	-3.997455	187.624	1.167906	0.054738	0.054327	193.829	32100.9	0.050210	0.093063	2082.77	96139.6
1001	2.000000	1.170858	7.37485e+06	-50189.1	1055.82	-29756.4	0.000000	0.000000	7.180027	204.742	NaN	0.000000	0.001643	0.001760	28.0849	59.1131	0.001763	33533.6	1.148615	177.318	202.194	1.170642	0.057279	0.057063	204.742	33533.6	0.052700	0.100941	2028.32	96431.5
1001	2.000000	1.173376	7.37485e+06	-50189.1	1055.82	-29756.4	0.000000	0.000000	7.183201	220.705	NaN	0.000000	0.001645	0.001781	28.085	62.1541	0.001714	36268.2	6.119039	-7.915982	218.317	1.173101	0.059797	0.059522	220.705	36268.2	0.055233	0.109272	2019.78	100241
1001	2.000000	1.175841	7.37485e+06	-50189.1	1055.82	-29756.4	0.000000	0.000000	7.186142	232.282	NaN	0.000000	0.001641	0.001796	28.0853	63.5372	0.001687	37656	1.928833	175.505	229.445	1.175604	0.062262	0.062026	232.282	37656	0.057636	0.117467	1977.43	100381
1001	2.000000	1.178303	7.37485e+06	-50189.1	1055.82	-29756.4	0.000000	0.000000	7.189595	256.379	NaN	0.000000	0.001646	0.001772	28.0854	66.9657	0.001892	35395.8	1.095702	-2.712785	251.54	1.178024	0.064725	0.064446	256.379	35395.8	0.059292	0.123282	2079.61	92103.1
1001	2.000000	1.180860	7.37485e+06	-50189.1	1055.82	-29756.4	0.000000	0.000000	7.192817	272.545	NaN	0.000000	0.001651	0.001757	28.0848	68.9636	0.001757	39255.9	3.776871	173.976	271.822	1.180473	0.067281	0.066894	272.545	39255.9	0.062074	0.133350	2043.83	98215.9
1001	2.000000	1.183406	7.37485e+06	-50189.1	1055.82	-29756.4	0.000000	0.000000	7.196024	288.64	NaN	0.000000	0.001631	0.001780	28.0849	71.3159	0.001881	37920.6	4.546628	-6.415037	286.813	1.182959	0.069827	0.069381	288.64	37920.6	0.064118	0.140988	2047.27	92269.4
1001	2.000000	1.185814	7.37485e+06	-50189.1	1055.82	-29756.4	0.000000	0.000000	7.199169	306.56	NaN	0.000000	0.001583	0.001744	28.085	72.1402	0.001659	43487.4	0.488716	176.286	302.571	1.185574	0.072235	0.071996	306.56	43487.4	0.066948	0.151895	2018.24	101945
1001	2.000000	1.188327	7.37485e+06	-50189.1	1055.82	-29756.4	0.000000	0.000000	7.202434	324.841	NaN	0.000000	0.001600	0.001745	28.0836	76.5595	0.001790	42761.2	3.694078	-6.742264	320.86	1.188071	0.074748	0.074493	324.841	42761.2	0.069051	0.160248	2027.12	97594.8
1001	2.000000	1.190903	7.37485e+06	-50189.1	1055.82	-29756.4	0.000000	0.000000	7.205602	339.227	NaN	0.000000	0.001610	0.001720	28.0833	80.7906	0.001939	41672.8	8.346855	169.215	341.453	1.190526	0.077324	0.076947	339.227	41672.8	0.071219	0.169082	2006.29	92592.8
1001	2.000000	1.193374	7.37485e+06	-50189.1	1055.82	-29756.4	0.000000	0.000000	7.209206	366.79	NaN	0.000000	0.001550	0.001749	28.0835	80.8876	0.001769	45712.7	5.024365	-7.814423	364.627	1.192971	0.079795	0.079392	366.79	45712.7	0.073777	0.179791	2040.09	98497.6
1001	2.000000	1.195834	7.37485e+06	-50189.1	1055.82	-29756.4	0.000000	0.000000	7.212239	380.706	NaN	0.000000	0.001604	0.001728	28.0838	82.7051	0.001815	45571.9	4.845971	172.046	377.829	1.195455	0.082256	0.081876	380.706	45571.9	0.075990	0.189305	2011.07	95694.9
1001	2.000000	1.198327	7.37485e+06	-50189.1	1055.82	-29756.4	0.000000	0.000000	7.215360	395.992	NaN	0.000000	0.001584	0.001714	28.0836	84.9827	0.001692	50235.6	4.133366	-8.741100	393.47	1.198136	0.084748	0.084557	395.992	50235.6	0.078836	0.201876	1961.56	102151
1001	2.000000	1.200865	7.37485e+06	-50189.1	1055.82	-29756.4	0.000000	0.000000	7.218980	422.31	NaN	0.000000	0.001568	0.001735	28.0837	89.3349	0.001881	47492.4	7.704476	168.373	422.602	1.200603	0.087286	0.087024	422.31	47492.4	0.080617	0.209939	2011.58	94700.3
1001	2.000000	1.203358	7.37485e+06	-50189.1	1055.82	-29756.4	0.000000	0.000000	7.222157	438.928	NaN	0.000000	0.001594	0.001777	28.0835	89.9363	0.001789	50269.2	5.335574	-9.358065	434.972	1.203016	0.089779	0.089437	438.928	50269.2	0.083231	0.222034	1976.85	97468.8
1001	2.000000	1.205795	7.37485e+06	-50189.1	1055.82	-29756.4	0.000000	0.000000	7.225591	463.186	NaN	0.000000	0.001572	0.001772	28.0837	91.8433	0.001803	50934.2	3.250319	172.454	459.061	1.205514	0.092216	0.091935	463.186	50934.2	0.085396	0.232293	1993.97	96552.9
1001	2.000000	1.208292	7.37485e+06	-50189.1	1055.82	-29756.4	0.000000	0.000000	7.228973	484.702	NaN	0.000000	0.001570	0.001776	28.0834	93.5887	0.001805	51847.1	3.120368	-6.855987	480.265	1.207976	0.094713	0.094397	484.702	51847.1	0.087702	0.243458	1990.91	96003.2
1001	2.000000	1.210849	7.37485e+06	-50189.1	1055.82	-29756.4	0.000000	0.000000	7.232375	505.236	NaN	0.000000	0.001544	0.001814	28.0835	96.9356	0.001833	52871.7	4.309462	171.317	505.319	1.210538	0.097271	0.096959	505.236	52871.7	0.090104	0.255348	1978.62	95593.9
1001	2.000000	1.213315	7.37485e+06	-50189.1	1055.82	-29756.4	0.000000	0.000000	7.235772	527.893	NaN	0.000000	0.001600	0.001771	28.0837	98.7829	0.001932	51125.9	4.830465	-8.762665	521.979	1.212918	0.099737	0.099339	527.893	51125.9	0.091993	0.264884	1992.92	90758.3
1001	2.000000	1.215796	7.37485e+06	-50189.1	1055.82	-29756.4	0.000000	0.000000	7.238951	544.88	NaN	0.000000	0.001659	0.001770	28.0837	99.8892	0.001773	56353.6	0.319976	174.978	541.065	1.215457	0.102217	0.101878	544.88	56353.6	0.094965	0.280221	1944.47	97262.3
1001	2.000000	1.218265	7.37485e+06	-50189.1	1055.82	-29756.4	0.000000	0.000000	7.242392	568.518	NaN	0.000000	0.001628	0.001800	28.0835	103.747	0.001920	54044.4	4.469534	-9.263205	563.702	1.218008	0.104686	0.104429	568.518	54044.4	0.096796	0.289871	1961.28	91711
1001	2.000000	1.218705	7.37485e+06	-50189.1	1055.82	-29756.4	0.000000	0.000000	7.243238	578.38	NaN	0.000000	0.001647	0.001784	28.0836	104.013	0.001820	57154.2	7.360530	167.526	571.926	1.218407	0.105126	0.104828	578.38	57154.2	0.097537	0.293816	1968.51	96334.9