File: remote_trans/data/nanoindenter/0828-1/data/Data_2025-08-06,11h17m57s/2025-07-22_16-23-58_1_108.txt
2025-07-22, 16:23:58, 1
Index	Phase	Displacement	Time	Pos X	Pos Y	Pos Z	Rot A	Rot B	Piezo Z	Force A	Force B	Gripper	Voltage A	Voltage B	Temperature	Amplitude force	Amplitude pos	Stiffness	Phase shift	Phase excitation	Force A raw	Displacement raw	HMax	HMax raw	Real Force	Real Stiffness	Contact Depth	Area	Hardness	Reduced Mod.
[#]	[#]	[um]	[s]	[um]	[um]	[um]	[m°]	[m°]	[um]	[uN]	[uN]	[V]	[V]	[V]	[°C]	[uN]	[um]	[N/m]	[°]	[°]	[uN]	[um]	[um]	[um]	[uN]	[N/m]	[um]	[um^2]	[MPa]	[MPa]
108	1.000000	0.002884	7.3661e+06	-44039.1	955.819	-29777.6	0.000000	0.000000	6.002808	-0.017394	NaN	0.000000	0.001562	0.001623	28.1089	0.084624	0.000897	94.3774	-94.5415	-172.614	-0.039621	0.001630	-0.995453	-0.996707	-0.017394	94.3774	-0.995314	-1.961916E+13	8.866027E-16	NaN
108	1.000000	0.010832	7.3661e+06	-44039.1	955.818	-29777.6	0.000000	0.000000	6.010755	-0.035679	NaN	0.000000	0.001569	0.001627	28.1081	0.067494	0.001083	62.3188	161.135	-168.814	-0.048053	0.009509	-0.987505	-0.988828	-0.035679	62.3188	-0.987076	-1.519589E+13	2.347946E-15	NaN
108	1.000000	0.018836	7.3661e+06	-44039.1	955.818	-29777.6	0.000000	0.000000	6.018760	0.005045	NaN	0.000000	0.001555	0.001636	28.1085	0.143904	0.001639	87.7814	-159.674	-166.994	-0.044396	0.017495	-0.979501	-0.980842	0.005045	87.7814	-0.979544	-1.203013E+13	-4.193544E-16	NaN
108	1.000000	0.026871	7.3661e+06	-44039.1	955.819	-29777.6	0.000000	0.000000	6.026795	-0.016701	NaN	0.000000	0.001530	0.001644	28.1088	0.098671	0.001802	54.7617	10.7761	-165.76	-0.012327	0.025551	-0.971465	-0.972786	-0.016701	54.7617	-0.971237	-9.296688E+12	1.796495E-15	NaN
108	1.000000	0.034843	7.3661e+06	-44039.1	955.818	-29777.6	0.000000	0.000000	6.034768	0.002672	NaN	0.000000	0.001528	0.001657	28.1094	0.171258	0.001948	87.8987	145.241	-168.317	-0.060068	0.033475	-0.963493	-0.964862	0.002672	87.8987	-0.963516	-7.315942E+12	-3.651862E-16	NaN
108	1.000000	0.042818	7.3661e+06	-44039.1	955.819	-29777.6	0.000000	0.000000	6.042741	-0.034685	NaN	0.000000	0.001515	0.001687	28.1098	0.023063	0.001980	11.6464	145.532	-166.144	-0.057442	0.041526	-0.955518	-0.956811	-0.034685	11.6464	-0.953285	-5.325058E+12	6.513552E-15	NaN
108	1.000000	0.050835	7.3661e+06	-44039.1	955.819	-29777.6	0.000000	0.000000	6.050761	0.034476	NaN	0.000000	0.001531	0.001688	28.1099	0.040221	0.002034	19.7711	4.825623	-167.285	-0.002465	0.049508	-0.947502	-0.948829	0.034476	19.7711	-0.948810	-4.634173E+12	-7.439536E-15	NaN
108	1.000000	0.058827	7.3661e+06	-44039.1	955.818	-29777.6	0.000000	0.000000	6.058749	-0.060147	NaN	0.000000	0.001558	0.001708	28.111	0.086256	0.001843	46.8142	71.8307	-161.836	-0.034381	0.057545	-0.939509	-0.940792	-0.060147	46.8142	-0.938546	-3.369121E+12	1.785233E-14	NaN
108	1.000000	0.066845	7.3661e+06	-44039.1	955.818	-29777.6	0.000000	0.000000	6.066769	-0.001548	NaN	0.000000	0.001568	0.001733	28.1103	0.030140	0.002008	15.0063	145.336	-167.856	0.051943	0.065537	-0.931492	-0.932800	-0.001548	15.0063	-0.931414	-2.699505E+12	5.735054E-16	NaN
108	1.000000	0.074833	7.3661e+06	-44039.1	955.819	-29777.6	0.000000	0.000000	6.074756	-0.034149	NaN	0.000000	0.001564	0.001714	28.1093	0.029611	0.002030	14.5853	-15.4878	-164.783	-0.031444	0.073530	-0.923504	-0.924806	-0.034149	14.5853	-0.921748	-1.998984E+12	1.708298E-14	NaN
108	1.000000	0.082834	7.3661e+06	-44039.1	955.818	-29777.6	0.000000	0.000000	6.082759	0.000828	NaN	0.000000	0.001560	0.001720	28.1079	0.113308	0.001952	58.0385	99.8905	-169.168	0.031258	0.081582	-0.915503	-0.916755	0.000828	58.0385	-0.915513	-1.646734E+12	-5.027246E-16	NaN
108	1.000000	0.090847	7.3661e+06	-44039.1	955.818	-29777.6	0.000000	0.000000	6.090772	0.003838	NaN	0.000000	0.001571	0.001660	28.1089	0.061666	0.002046	30.1427	32.0411	-167.222	-0.006816	0.089513	-0.907490	-0.908824	0.003838	30.1427	-0.907585	-1.286892E+12	-2.982414E-15	NaN
108	1.000000	0.098848	7.3661e+06	-44039.1	955.818	-29777.6	0.000000	0.000000	6.098771	-0.023833	NaN	0.000000	0.001584	0.001674	28.1091	0.049870	0.001997	24.968	63.1996	-163.365	0.003463	0.097566	-0.899489	-0.900771	-0.023833	24.968	-0.898773	-9.783306E+11	2.436088E-14	NaN
108	1.000000	0.106834	7.3661e+06	-44039.1	955.818	-29777.6	0.000000	0.000000	6.106762	0.084657	NaN	0.000000	0.001552	0.001675	28.1085	0.018109	0.002067	8.761610	100.102	-166.141	0.002283	0.105551	-0.891502	-0.892786	0.084657	8.761610	-0.898749	-9.776036E+11	-8.659603E-14	NaN
108	1.000000	0.114839	7.3661e+06	-44039.1	955.819	-29777.6	0.000000	0.000000	6.114763	-0.016123	NaN	0.000000	0.001567	0.001701	28.1101	0.098190	0.001951	50.3317	-1.734036	-164.812	0.127217	0.113551	-0.883498	-0.884786	-0.016123	50.3317	-0.883258	-6.036138E+11	2.671138E-14	NaN
108	1.000000	0.122874	7.3661e+06	-44039.1	955.818	-29777.6	0.000000	0.000000	6.122800	0.032875	NaN	0.000000	0.001584	0.001644	28.1098	0.031887	0.002073	15.3829	-105.254	-162.724	0.026631	0.121500	-0.875463	-0.876837	0.032875	15.3829	-0.877066	-4.977629E+11	-6.604545E-14	NaN
108	1.000000	0.130870	7.3661e+06	-44039.1	955.818	-29777.6	0.000000	0.000000	6.130795	0.006706	NaN	0.000000	0.001590	0.001639	28.1097	0.061548	0.001987	30.9681	129.151	-164.006	0.030036	0.129570	-0.867467	-0.868767	0.006706	30.9681	-0.867629	-3.709920E+11	-1.807593E-14	NaN
108	1.000000	0.138886	7.3661e+06	-44039.1	955.818	-29777.6	0.000000	0.000000	6.138809	-0.036482	NaN	0.000000	0.001560	0.001638	28.1105	0.072325	0.001982	36.494	148.382	-163.874	-0.103033	0.137583	-0.859451	-0.860753	-0.036482	36.494	-0.858701	-2.808916E+11	1.298779E-13	NaN
108	1.000000	0.146888	7.3661e+06	-44039.1	955.818	-29777.6	0.000000	0.000000	6.146811	-0.032673	NaN	0.000000	0.001595	0.001621	28.1102	0.055296	0.002022	27.3533	-10.1981	-166.889	0.018673	0.145548	-0.851449	-0.852789	-0.032673	27.3533	-0.850553	-2.178856E+11	1.499570E-13	NaN
108	1.000000	0.154855	7.3661e+06	-44039.1	955.819	-29777.6	0.000000	0.000000	6.154782	0.050323	NaN	0.000000	0.001560	0.001616	28.1089	0.046988	0.002050	22.9205	171.883	-163.537	0.051600	0.153593	-0.843482	-0.844743	0.050323	22.9205	-0.845128	-1.839754E+11	-2.735301E-13	NaN
108	1.000000	0.162871	7.3661e+06	-44039.1	955.818	-29777.6	0.000000	0.000000	6.162796	0.006030	NaN	0.000000	0.001549	0.001654	28.108	0.056474	0.001973	28.6303	118.802	-165.987	-0.003170	0.161514	-0.835465	-0.836822	0.006030	28.6303	-0.835623	-1.367711E+11	-4.409011E-14	NaN
108	1.000000	0.170888	7.3661e+06	-44039.1	955.818	-29777.6	0.000000	0.000000	6.170813	0.003762	NaN	0.000000	0.001581	0.001638	28.1067	0.112955	0.001907	59.2318	75.8812	-164.613	0.042241	0.169558	-0.827448	-0.828779	0.003762	59.2318	-0.827496	-1.061315E+11	-3.544436E-14	NaN
108	1.000000	0.178869	7.3661e+06	-44039.1	955.818	-29777.6	0.000000	0.000000	6.178795	0.026781	NaN	0.000000	0.001577	0.001633	28.108	0.044638	0.001964	22.7292	15.8679	-165.794	0.043896	0.177528	-0.819468	-0.820809	0.026781	22.7292	-0.820351	-8.491329E+10	-3.153871E-13	NaN
108	1.000000	0.186912	7.3661e+06	-44039.1	955.818	-29777.6	0.000000	0.000000	6.186836	0.001028	NaN	0.000000	0.001640	0.001648	28.1068	0.085290	0.001886	45.2226	-117.209	-167.27	0.037543	0.185611	-0.811425	-0.812726	0.001028	45.2226	-0.811442	-6.428942E+10	-1.599207E-14	NaN
108	1.000000	0.194888	7.3661e+06	-44039.1	955.818	-29777.6	0.000000	0.000000	6.194812	0.008770	NaN	0.000000	0.001595	0.001634	28.1075	0.091688	0.001924	47.6617	52.4862	-168.296	-0.012025	0.193566	-0.803449	-0.804770	0.008770	47.6617	-0.803587	-5.029821E+10	-1.743617E-13	NaN
108	1.000000	0.202873	7.3661e+06	-44039.1	955.819	-29777.6	0.000000	0.000000	6.202799	0.054790	NaN	0.000000	0.001606	0.001624	28.1083	0.123189	0.002115	58.2516	-158.626	-166.299	0.065304	0.201591	-0.795464	-0.796746	0.054790	58.2516	-0.796170	-3.988992E+10	-1.373540E-12	NaN
108	1.000000	0.210908	7.3661e+06	-44039.1	955.818	-29777.6	0.000000	0.000000	6.210833	0.012547	NaN	0.000000	0.001591	0.001655	28.1075	0.153556	0.002017	76.1337	-137.46	-170.874	0.006292	0.209610	-0.787429	-0.788727	0.012547	76.1337	-0.787552	-3.046773E+10	-4.118200E-13	NaN
108	1.000000	0.218908	7.3661e+06	-44039.1	955.818	-29777.6	0.000000	0.000000	6.218832	-0.010067	NaN	0.000000	0.001617	0.001664	28.1086	0.058372	0.001908	30.5945	153.388	-166.696	0.080212	0.217593	-0.779429	-0.780743	-0.010067	30.5945	-0.779182	-2.344887E+10	4.293084E-13	NaN
108	1.000000	0.226905	7.3661e+06	-44039.1	955.818	-29777.6	0.000000	0.000000	6.226829	-0.002894	NaN	0.000000	0.001626	0.001662	28.108	0.055651	0.002153	25.8422	-129.568	-167.471	-0.000807	0.225593	-0.771432	-0.772744	-0.002894	25.8422	-0.771348	-1.834968E+10	1.577351E-13	NaN
108	1.000000	0.234887	7.3661e+06	-44039.1	955.818	-29777.6	0.000000	0.000000	6.234814	0.060615	NaN	0.000000	0.001625	0.001658	28.1063	0.153217	0.002112	72.5416	70.8025	-165.798	0.050571	0.233554	-0.763450	-0.764783	0.060615	72.5416	-0.764076	-1.461343E+10	-4.147928E-12	NaN
108	1.000000	0.242932	7.3661e+06	-44039.1	955.818	-29777.6	0.000000	0.000000	6.242855	-0.025659	NaN	0.000000	0.001575	0.001660	28.1065	0.090283	0.001956	46.1557	178.989	-166.258	0.026504	0.241562	-0.755405	-0.756775	-0.025659	46.1557	-0.754988	-1.099274E+10	2.334200E-12	NaN
108	1.000000	0.250938	7.3661e+06	-44039.1	955.818	-29777.6	0.000000	0.000000	6.250860	-0.048464	NaN	0.000000	0.001572	0.001608	28.1067	0.142985	0.002000	71.4931	-62.5844	-165.851	-0.018393	0.249593	-0.747399	-0.748743	-0.048464	71.4931	-0.746890	-8.528776E+9	5.682405E-12	NaN
108	1.000000	0.258887	7.3661e+06	-44039.1	955.818	-29777.6	0.000000	0.000000	6.258812	0.006049	NaN	0.000000	0.001602	0.001644	28.1061	0.063593	0.001960	32.4454	-129.246	-162.662	-0.068397	0.257664	-0.739450	-0.740673	0.006049	32.4454	-0.739589	-6.783659E+9	-8.916356E-13	NaN
108	1.000000	0.266889	7.3661e+06	-44039.1	955.818	-29777.6	0.000000	0.000000	6.266816	0.077494	NaN	0.000000	0.001602	0.001648	28.1059	0.109429	0.002062	53.0797	143.354	-168.853	0.012689	0.265594	-0.731448	-0.732743	0.077494	53.0797	-0.732543	-5.438292E+9	-1.424976E-11	NaN
108	1.000000	0.274926	7.3661e+06	-44039.1	955.818	-29777.6	0.000000	0.000000	6.274850	-0.011908	NaN	0.000000	0.001657	0.001636	28.1075	0.083597	0.002020	41.3885	-43.4796	-160.404	-0.025168	0.273598	-0.723411	-0.724739	-0.011908	41.3885	-0.723195	-4.055502E+9	2.936173E-12	NaN
108	1.000000	0.282901	7.3661e+06	-44039.1	955.819	-29777.6	0.000000	0.000000	6.282826	-0.002653	NaN	0.000000	0.001591	0.001651	28.1075	0.060347	0.001984	30.414	-84.0522	-166.998	0.016246	0.281580	-0.715435	-0.716757	-0.002653	30.414	-0.715370	-3.171907E+9	8.364861E-13	NaN
108	1.000000	0.290926	7.3661e+06	-44039.1	955.818	-29777.6	0.000000	0.000000	6.290850	-0.003154	NaN	0.000000	0.001594	0.001671	28.1069	0.041347	0.001993	20.7414	-83.3779	-168.498	0.033222	0.289654	-0.707411	-0.708683	-0.003154	20.7414	-0.707297	-2.461228E+9	1.281600E-12	NaN
108	1.000000	0.298940	7.3661e+06	-44039.1	955.818	-29777.6	0.000000	0.000000	6.298864	-0.009591	NaN	0.000000	0.001593	0.001629	28.1081	0.053903	0.002117	25.4573	114.914	-162.536	0.007151	0.297616	-0.699397	-0.700721	-0.009591	25.4573	-0.699115	-1.903009E+9	5.039826E-12	NaN
108	1.000000	0.306923	7.3661e+06	-44039.1	955.818	-29777.6	0.000000	0.000000	6.306846	-0.028487	NaN	0.000000	0.001567	0.001638	28.1079	0.049594	0.001913	25.9296	-32.9528	-168.038	0.051580	0.305622	-0.691414	-0.692715	-0.028487	25.9296	-0.690590	-1.455410E+9	1.957308E-11	NaN
108	1.000000	0.314938	7.3661e+06	-44039.1	955.818	-29777.6	0.000000	0.000000	6.314864	0.024623	NaN	0.000000	0.001568	0.001621	28.1064	0.029091	0.002020	14.3992	-51.8746	-166.663	0.088555	0.313659	-0.683398	-0.684678	0.024623	14.3992	-0.684681	-1.208402E+9	-2.037666E-11	NaN
108	1.000000	0.322945	7.3661e+06	-44039.1	955.818	-29777.6	0.000000	0.000000	6.322869	0.001155	NaN	0.000000	0.001589	0.001605	28.1078	0.046447	0.002015	23.0525	39.6501	-164.197	-0.002722	0.321634	-0.675392	-0.676702	0.001155	23.0525	-0.675430	-9.029997E+8	-1.279558E-12	NaN
108	1.000000	0.330972	7.3661e+06	-44039.1	955.818	-29777.6	0.000000	0.000000	6.330896	-0.014910	NaN	0.000000	0.001577	0.001601	28.1067	0.053482	0.001989	26.8899	105.03	-164.183	0.006272	0.329681	-0.667365	-0.668656	-0.014910	26.8899	-0.666949	-6.912396E+8	2.156941E-11	NaN
108	1.000000	0.338981	7.3661e+06	-44039.1	955.818	-29777.6	0.000000	0.000000	6.338907	0.031475	NaN	0.000000	0.001571	0.001671	28.1066	0.036395	0.002075	17.5436	27.3104	-165.506	0.051932	0.337611	-0.659356	-0.660726	0.031475	17.5436	-0.660701	-5.676420E+8	-5.544894E-11	NaN
108	1.000000	0.346944	7.3661e+06	-44039.1	955.818	-29777.6	0.000000	0.000000	6.346867	-0.034665	NaN	0.000000	0.001547	0.001658	28.107	0.062366	0.002032	30.6857	-66.2754	-165.618	-0.036264	0.345627	-0.651392	-0.652710	-0.034665	30.6857	-0.650545	-4.120129E+8	8.413673E-11	NaN
108	1.000000	0.354974	7.3661e+06	-44039.1	955.818	-29777.6	0.000000	0.000000	6.354895	-0.082815	NaN	0.000000	0.001570	0.001702	28.1074	0.073933	0.002132	34.677	-155.584	-162.743	0.036347	0.353662	-0.643363	-0.644675	-0.082815	34.677	-0.641572	-3.103542E+8	2.668387E-10	NaN
108	1.000000	0.362952	7.3661e+06	-44039.1	955.819	-29777.6	0.000000	0.000000	6.362877	0.013073	NaN	0.000000	0.001551	0.001677	28.1077	0.124705	0.001963	63.5333	165.065	-169.574	0.059923	0.361673	-0.635385	-0.636664	0.013073	63.5333	-0.635539	-2.564885E+8	-5.096966E-11	NaN
108	1.000000	0.370969	7.3661e+06	-44039.1	955.817	-29777.6	0.000000	0.000000	6.370892	-0.014654	NaN	0.000000	0.001577	0.001645	28.1073	0.142915	0.001836	77.8598	174.796	-164.753	-0.019483	0.369635	-0.627368	-0.628702	-0.014654	77.8598	-0.627227	-1.972148E+8	7.430382E-11	NaN
108	1.000000	0.378968	7.3661e+06	-44039.1	955.818	-29777.6	0.000000	0.000000	6.378893	-0.000294	NaN	0.000000	0.001572	0.001660	28.1078	0.056706	0.001957	28.9733	-169.227	-166.138	0.027760	0.377636	-0.619368	-0.620701	-0.000294	28.9733	-0.619361	-1.537611E+8	1.915240E-12	NaN
108	1.000000	0.386976	7.3661e+06	-44039.1	955.818	-29777.6	0.000000	0.000000	6.386899	-0.034564	NaN	0.000000	0.001586	0.001654	28.1079	0.068596	0.002010	34.1344	-168.298	-164.931	-0.099405	0.385665	-0.611361	-0.612672	-0.034564	34.1344	-0.610601	-1.165163E+8	2.966443E-10	NaN
108	1.000000	0.394982	7.3661e+06	-44039.1	955.818	-29777.6	0.000000	0.000000	6.394907	0.015993	NaN	0.000000	0.001575	0.001626	28.1068	0.070807	0.002079	34.0631	173.149	-165.57	0.010286	0.393705	-0.603355	-0.604632	0.015993	34.0631	-0.603707	-9.365014E+7	-1.707709E-10	NaN
108	1.000000	0.402994	7.3661e+06	-44039.1	955.818	-29777.6	0.000000	0.000000	6.402918	-0.003543	NaN	0.000000	0.001563	0.001653	28.107	0.118302	0.002012	58.8083	60.193	-164.044	-0.027990	0.401701	-0.595343	-0.596636	-0.003543	58.8083	-0.595298	-7.172734E+7	4.939890E-11	NaN
108	1.000000	0.410990	7.3661e+06	-44039.1	955.819	-29777.6	0.000000	0.000000	6.410913	-0.033077	NaN	0.000000	0.001564	0.001660	28.1068	0.048727	0.002108	23.116	-0.218580	-164.47	-0.048837	0.409639	-0.587346	-0.588698	-0.033077	23.116	-0.586273	-5.386138E+7	6.141131E-10	NaN
108	1.000000	0.418984	7.3661e+06	-44039.1	955.818	-29777.6	0.000000	0.000000	6.418907	-0.026426	NaN	0.000000	0.001588	0.001668	28.106	0.038687	0.001920	20.1499	60.5594	-165.582	-0.079679	0.417706	-0.579353	-0.580630	-0.026426	20.1499	-0.578370	-4.190068E+7	6.306877E-10	NaN
108	1.000000	0.427016	7.3661e+06	-44039.1	955.818	-29777.6	0.000000	0.000000	6.426939	-0.019017	NaN	0.000000	0.001533	0.001654	28.1067	0.063900	0.001941	32.9295	163.66	-163.824	0.001241	0.425661	-0.571321	-0.572675	-0.019017	32.9295	-0.570888	-3.302932E+7	5.757547E-10	NaN
108	1.000000	0.434968	7.3661e+06	-44039.1	955.818	-29777.6	0.000000	0.000000	6.434894	0.021326	NaN	0.000000	0.001559	0.001647	28.1077	0.022316	0.001963	11.3673	79.6185	-168.588	0.092638	0.433698	-0.563368	-0.564639	0.021326	11.3673	-0.564775	-2.719072E+7	-7.843046E-10	NaN
108	1.000000	0.442991	7.3661e+06	-44039.1	955.818	-29777.6	0.000000	0.000000	6.442917	0.036812	NaN	0.000000	0.001594	0.001643	28.106	0.131930	0.002144	61.5285	153.714	-165.859	0.048459	0.441687	-0.555346	-0.556649	0.036812	61.5285	-0.555794	-2.042593E+7	-1.802220E-9	NaN
108	1.000000	0.451006	7.3661e+06	-44039.1	955.818	-29777.6	0.000000	0.000000	6.450927	-0.061554	NaN	0.000000	0.001570	0.001630	28.1076	0.050303	0.002116	23.774	32.3314	-167.681	-0.046749	0.449718	-0.547331	-0.548619	-0.061554	23.774	-0.545389	-1.465807E+7	4.199349E-9	NaN
108	1.000000	0.458986	7.3661e+06	-44039.1	955.818	-29777.6	0.000000	0.000000	6.458909	-0.026467	NaN	0.000000	0.001519	0.001604	28.1055	0.039007	0.002045	19.0728	159.376	-164.308	-0.049998	0.457681	-0.539351	-0.540655	-0.026467	19.0728	-0.538310	-1.169293E+7	2.263509E-9	NaN
108	1.000000	0.466989	7.3661e+06	-44039.1	955.818	-29777.6	0.000000	0.000000	6.466916	0.047132	NaN	0.000000	0.001574	0.001648	28.1066	0.068522	0.001994	34.365	142.083	-164.625	0.032981	0.465659	-0.531348	-0.532678	0.047132	34.365	-0.532376	-9.6732e+06	-4.872424E-9	NaN
108	1.000000	0.474984	7.3661e+06	-44039.1	955.818	-29777.6	0.000000	0.000000	6.474905	-0.089863	NaN	0.000000	0.001573	0.001640	28.1049	0.008685	0.001980	4.385933	-21.8244	-163.378	-0.103492	0.473709	-0.523352	-0.524628	-0.089863	4.385933	-0.507986	-4.4295e+06	2.028745E-8	NaN
108	1.000000	0.483040	7.3661e+06	-44039.1	955.818	-29777.6	0.000000	0.000000	6.482963	-0.034886	NaN	0.000000	0.001571	0.001669	28.105	0.022096	0.002019	10.9438	84.7011	-166.305	-0.042570	0.481709	-0.515297	-0.516628	-0.034886	10.9438	-0.512906	-5.18659e+06	6.726206E-9	NaN
108	1.000000	0.491008	7.3661e+06	-44039.1	955.819	-29777.6	0.000000	0.000000	6.490933	0.021911	NaN	0.000000	0.001567	0.001625	28.1051	0.132564	0.002089	63.4437	54.08	-166.408	-0.121456	0.489686	-0.507329	-0.508651	0.021911	63.4437	-0.507588	-4.37329e+06	-5.010120E-9	NaN
108	1.000000	0.498995	7.3661e+06	-44039.1	955.819	-29777.6	0.000000	0.000000	6.498919	-0.004011	NaN	0.000000	0.001556	0.001642	28.1053	0.082201	0.001974	41.6427	-143.632	-164.861	0.088086	0.497713	-0.499342	-0.500624	-0.004011	41.6427	-0.499269	-3.34831e+06	1.197921E-9	NaN
108	1.000000	0.507008	7.3661e+06	-44039.1	955.818	-29777.6	0.000000	0.000000	6.506932	-0.006993	NaN	0.000000	0.001571	0.001644	28.105	0.098267	0.001970	49.8845	62.8365	-167.152	0.005592	0.505695	-0.491329	-0.492642	-0.006993	49.8845	-0.491223	-2.58517e+06	2.704978E-9	NaN
108	1.000000	0.515026	7.3661e+06	-44039.1	955.818	-29777.6	0.000000	0.000000	6.514950	-0.004497	NaN	0.000000	0.001568	0.001622	28.1062	0.041703	0.001958	21.2963	-142.356	-165.624	-0.018649	0.513706	-0.483311	-0.484631	-0.004497	21.2963	-0.483153	-1.99365e+06	2.255625E-9	NaN
108	1.000000	0.523025	7.3661e+06	-44039.1	955.818	-29777.6	0.000000	0.000000	6.522947	-0.058365	NaN	0.000000	0.001556	0.001663	28.1055	0.043672	0.002048	21.323	129.051	-165.997	-0.078531	0.521681	-0.475312	-0.476656	-0.058365	21.323	-0.473259	-1.4491e+06	4.027685E-8	NaN
108	1.000000	0.531019	7.3661e+06	-44039.1	955.818	-29777.6	0.000000	0.000000	6.530942	-0.037355	NaN	0.000000	0.001565	0.001657	28.1053	0.112974	0.001956	57.7576	65.3322	-165.527	-0.067615	0.529737	-0.467318	-0.468600	-0.037355	57.7576	-0.466833	-1.17754e+06	3.172312E-8	NaN
108	1.000000	0.539027	7.3661e+06	-44039.1	955.818	-29777.6	0.000000	0.000000	6.538951	-0.002845	NaN	0.000000	0.001523	0.001660	28.105	0.047265	0.002070	22.834	-138.783	-165.985	0.045948	0.537737	-0.459310	-0.460600	-0.002845	22.834	-0.459217	-920466	3.090937E-9	NaN
108	1.000000	0.547049	7.3661e+06	-44039.1	955.818	-29777.6	0.000000	0.000000	6.546971	-0.064165	NaN	0.000000	0.001574	0.001630	28.1057	0.149704	0.002008	74.5631	92.2298	-164.397	0.035794	0.545714	-0.451288	-0.452623	-0.064165	74.5631	-0.450642	-697249	9.202602E-8	NaN
108	1.000000	0.555047	7.3661e+06	-44039.1	955.819	-29777.6	0.000000	0.000000	6.554970	-0.026339	NaN	0.000000	0.001556	0.001630	28.1044	0.045576	0.001916	23.7893	146.201	-163.279	0.066783	0.553704	-0.443290	-0.444632	-0.026339	23.7893	-0.442460	-534654	4.926285E-8	NaN
108	1.000000	0.563025	7.3661e+06	-44039.1	955.818	-29777.6	0.000000	0.000000	6.562951	0.022085	NaN	0.000000	0.001551	0.001634	28.1046	0.052898	0.002084	25.3782	94.7492	-165.218	0.017745	0.561712	-0.435311	-0.436625	0.022085	25.3782	-0.435964	-432887	-5.101727E-8	NaN
108	1.000000	0.571064	7.3661e+06	-44039.1	955.818	-29777.6	0.000000	0.000000	6.570986	-0.048382	NaN	0.000000	0.001555	0.001659	28.1036	0.099125	0.002017	49.1425	22.4565	-165.276	-0.079926	0.569705	-0.427273	-0.428632	-0.048382	49.1425	-0.426535	-318430	1.519396E-7	NaN
108	1.000000	0.579053	7.3661e+06	-44039.1	955.818	-29777.6	0.000000	0.000000	6.578979	0.035791	NaN	0.000000	0.001538	0.001666	28.1056	0.115413	0.001986	58.1177	39.4399	-166.482	-0.030204	0.577742	-0.419283	-0.420595	0.035791	58.1177	-0.419745	-255153	-1.402713E-7	NaN
108	1.000000	0.587081	7.3661e+06	-44039.1	955.818	-29777.6	0.000000	0.000000	6.587006	0.001766	NaN	0.000000	0.001551	0.001636	28.1054	0.036501	0.002083	17.5197	-118.399	-163.704	0.004320	0.585682	-0.411255	-0.412655	0.001766	17.5197	-0.411331	-193788	-9.114800E-9	NaN
108	1.000000	0.595059	7.3661e+06	-44039.1	955.818	-29777.6	0.000000	0.000000	6.594984	0.010512	NaN	0.000000	0.001557	0.001653	28.1061	0.019274	0.001912	10.0827	-12.1922	-165.012	-0.029356	0.593730	-0.403278	-0.404607	0.010512	10.0827	-0.404060	-152706	-6.883763E-8	NaN
108	1.000000	0.603040	7.3661e+06	-44039.1	955.818	-29777.6	0.000000	0.000000	6.602966	0.038871	NaN	0.000000	0.001569	0.001611	28.1065	0.067616	0.002026	33.3805	101.455	-168.927	0.005142	0.601778	-0.395296	-0.396559	0.038871	33.3805	-0.396170	-117852	-3.298268E-7	NaN
108	1.000000	0.611034	7.3661e+06	-44039.1	955.818	-29777.6	0.000000	0.000000	6.610955	-0.074650	NaN	0.000000	0.001569	0.001652	28.1056	0.020492	0.002090	9.802995	-59.3285	-163.604	0.029633	0.609716	-0.387303	-0.388621	-0.074650	9.802995	-0.381591	-72899.1	1.024020E-6	NaN
108	1.000000	0.619065	7.3661e+06	-44039.1	955.818	-29777.6	0.000000	0.000000	6.618987	-0.046880	NaN	0.000000	0.001595	0.001627	28.1066	0.071702	0.002072	34.5969	133.268	-168.904	-0.020699	0.617757	-0.379272	-0.380580	-0.046880	34.5969	-0.378256	-65290.7	7.180123E-7	NaN
108	1.000000	0.627071	7.3661e+06	-44039.1	955.818	-29777.6	0.000000	0.000000	6.626995	0.004748	NaN	0.000000	0.001594	0.001657	28.1063	0.006602	0.002006	3.290965	-173.292	-168.367	-0.020213	0.625756	-0.371266	-0.372581	0.004748	3.290965	-0.372348	-53694.5	-8.842674E-8	NaN
108	1.000000	0.635078	7.3661e+06	-44039.1	955.818	-29777.6	0.000000	0.000000	6.635001	-0.028587	NaN	0.000000	0.001603	0.001697	28.1054	0.077725	0.001940	40.0722	141.418	-165.653	-0.079815	0.633754	-0.363259	-0.364583	-0.028587	40.0722	-0.362724	-39012.1	7.327829E-7	NaN
108	1.000000	0.643062	7.3661e+06	-44039.1	955.818	-29777.6	0.000000	0.000000	6.642986	-0.004905	NaN	0.000000	0.001538	0.001673	28.1044	0.145371	0.001995	72.8495	-92.9227	-169.856	-0.040228	0.641768	-0.355275	-0.356569	-0.004905	72.8495	-0.355225	-30391.4	1.614098E-7	NaN
108	1.000000	0.651066	7.3661e+06	-44039.1	955.818	-29777.6	0.000000	0.000000	6.650988	-0.056448	NaN	0.000000	0.001640	0.001671	28.1044	0.092460	0.001968	46.9758	-110.202	-167.978	-0.091301	0.649838	-0.347270	-0.348499	-0.056448	46.9758	-0.346369	-22608.1	2.496822E-6	NaN
108	1.000000	0.659073	7.3661e+06	-44039.1	955.818	-29777.6	0.000000	0.000000	6.658997	-0.011569	NaN	0.000000	0.001661	0.001675	28.1043	0.076508	0.001999	38.2753	173.004	-165.868	-0.013089	0.657746	-0.339264	-0.340591	-0.011569	38.2753	-0.339037	-17681.2	6.542965E-7	NaN
108	1.000000	0.667092	7.3661e+06	-44039.1	955.819	-29777.6	0.000000	0.000000	6.667018	0.036997	NaN	0.000000	0.001665	0.001685	28.1042	0.074721	0.002181	34.2638	-50.2886	-166.469	-0.007959	0.665802	-0.331245	-0.332534	0.036997	34.2638	-0.332055	-13980.7	-2.646286E-6	NaN
108	1.000000	0.675083	7.3661e+06	-44039.1	955.818	-29777.6	0.000000	0.000000	6.675006	-0.021431	NaN	0.000000	0.001572	0.001668	28.1055	0.036358	0.002048	17.7557	-99.613	-168.446	-0.009514	0.673776	-0.323254	-0.324561	-0.021431	17.7557	-0.322349	-10073.7	2.127393E-6	NaN
108	1.000000	0.683094	7.3661e+06	-44039.1	955.819	-29777.6	0.000000	0.000000	6.683018	-0.004792	NaN	0.000000	0.001604	0.001681	28.1065	0.095354	0.001923	49.5988	171.424	-165.413	-0.020351	0.681850	-0.315243	-0.316487	-0.004792	49.5988	-0.315170	-7896.98	6.067805E-7	NaN
108	1.000000	0.691076	7.3661e+06	-44039.1	955.818	-29777.6	0.000000	0.000000	6.691001	0.022342	NaN	0.000000	0.001633	0.001665	28.1059	0.066518	0.001971	33.745	-127.355	-165.333	0.052785	0.689768	-0.307261	-0.308568	0.022342	33.745	-0.307758	-6135.55	-3.641479E-6	NaN
108	1.000000	0.699075	7.3661e+06	-44039.1	955.818	-29777.6	0.000000	0.000000	6.699000	0.007756	NaN	0.000000	0.001608	0.001679	28.1056	0.122353	0.001974	61.9805	51.8931	-170.218	-0.012543	0.697768	-0.299262	-0.300569	0.007756	61.9805	-0.299356	-4603.02	-1.684909E-6	NaN
108	1.000000	0.707110	7.3661e+06	-44039.1	955.818	-29777.6	0.000000	0.000000	6.707031	-0.073129	NaN	0.000000	0.001574	0.001650	28.1054	0.036848	0.001886	19.538	28.6674	-165.036	-0.000125	0.705738	-0.291227	-0.292599	-0.073129	19.538	-0.288420	-3159.5	2.314570E-5	NaN
108	1.000000	0.715114	7.3661e+06	-44039.1	955.818	-29777.6	0.000000	0.000000	6.715040	0.036973	NaN	0.000000	0.001558	0.001682	28.1031	0.038198	0.002009	19.0136	-106.576	-166.363	0.026987	0.713787	-0.283223	-0.284549	0.036973	19.0136	-0.284681	-2776.34	-1.331702E-5	NaN
108	1.000000	0.723091	7.3661e+06	-44039.1	955.819	-29777.6	0.000000	0.000000	6.723014	-0.052468	NaN	0.000000	0.001567	0.001708	28.1028	0.083272	0.001903	43.7534	145.522	-166.059	-0.063817	0.721782	-0.275245	-0.276555	-0.052468	43.7534	-0.274346	-1938.63	2.706470E-5	NaN
108	1.000000	0.731113	7.3661e+06	-44039.1	955.818	-29777.6	0.000000	0.000000	6.731037	-0.011799	NaN	0.000000	0.001548	0.001637	28.1036	0.061944	0.001996	31.0344	-42.5934	-166.344	-0.008782	0.729851	-0.267224	-0.268486	-0.011799	31.0344	-0.266939	-1496.08	7.886810E-6	NaN
108	1.000000	0.739155	7.3661e+06	-44039.1	955.818	-29777.6	0.000000	0.000000	6.739078	-0.025013	NaN	0.000000	0.001560	0.001627	28.1039	0.075319	0.001991	37.8244	-70.1417	-167.173	-0.023705	0.737779	-0.259182	-0.260558	-0.025013	37.8244	-0.258686	-1118.85	2.235575E-5	NaN
108	1.000000	0.747147	7.3661e+06	-44039.1	955.819	-29777.6	0.000000	0.000000	6.747069	-0.054764	NaN	0.000000	0.001593	0.001685	28.1036	0.058335	0.001936	30.1247	-135.591	-166.899	-0.026975	0.745811	-0.251190	-0.252525	-0.054764	30.1247	-0.249826	-817.112	6.702096E-5	NaN
108	1.000000	0.755159	7.3661e+06	-44039.1	955.818	-29777.6	0.000000	0.000000	6.755082	-0.038846	NaN	0.000000	0.001559	0.001634	28.1039	0.137337	0.001940	70.7744	-43.1179	-164.987	-0.024683	0.753849	-0.243178	-0.244488	-0.038846	70.7744	-0.242766	-634.885	6.118658E-5	NaN
108	1.000000	0.763113	7.3661e+06	-44039.1	955.817	-29777.6	0.000000	0.000000	6.763036	-0.036008	NaN	0.000000	0.001569	0.001630	28.1044	0.062998	0.001971	31.9669	-26.3102	-167.847	-0.042918	0.761784	-0.235224	-0.236553	-0.036008	31.9669	-0.234379	-469.343	7.671994E-5	NaN
108	1.000000	0.771118	7.3661e+06	-44039.1	955.817	-29777.6	0.000000	0.000000	6.771039	-0.060431	NaN	0.000000	0.001553	0.001627	28.1051	0.062518	0.001896	32.979	96.13	-165.618	0.134100	0.769821	-0.227219	-0.228516	-0.060431	32.979	-0.225845	-344.15	0.000176	NaN
108	1.000000	0.779177	7.3661e+06	-44039.1	955.818	-29777.6	0.000000	0.000000	6.779101	-0.015853	NaN	0.000000	0.001543	0.001640	28.1046	0.092349	0.002011	45.9265	176.591	-164.412	-0.025835	0.777761	-0.219160	-0.220575	-0.015853	45.9265	-0.218901	-266.746	5.943242E-5	NaN
108	1.000000	0.787130	7.3661e+06	-44039.1	955.817	-29777.6	0.000000	0.000000	6.787056	0.029302	NaN	0.000000	0.001528	0.001631	28.1044	0.053371	0.002140	24.9397	-71.6243	-164.556	0.022134	0.785800	-0.211207	-0.212537	0.029302	24.9397	-0.212088	-207.292	-0.000141	NaN
108	1.000000	0.795131	7.3661e+06	-44039.1	955.818	-29777.6	0.000000	0.000000	6.795054	-0.044267	NaN	0.000000	0.001523	0.001651	28.1027	0.046335	0.002026	22.8697	39.3199	-166.834	0.029685	0.793853	-0.203206	-0.204484	-0.044267	22.8697	-0.201754	-140.762	0.000314	NaN
108	1.000000	0.803124	7.3661e+06	-44039.1	955.818	-29777.6	0.000000	0.000000	6.803047	-0.030296	NaN	0.000000	0.001524	0.001644	28.1028	0.113765	0.001877	60.5977	-116.925	-168.81	-0.048828	0.801875	-0.195213	-0.196462	-0.030296	60.5977	-0.194838	-108.274	0.000280	NaN
108	1.000000	0.811170	7.3661e+06	-44039.1	955.818	-29777.6	0.000000	0.000000	6.811094	-0.026593	NaN	0.000000	0.001496	0.001657	28.1035	0.125040	0.001928	64.8436	8.358815	-163.378	-0.048250	0.809874	-0.187166	-0.188463	-0.026593	64.8436	-0.186859	-79.6909	0.000334	NaN
108	1.000000	0.819161	7.3661e+06	-44039.1	955.818	-29777.6	0.000000	0.000000	6.819088	0.041900	NaN	0.000000	0.001525	0.001647	28.1026	0.023373	0.002014	11.6079	-132.592	-165.362	0.088187	0.817829	-0.179175	-0.180508	0.041900	11.6079	-0.181883	-65.6807	-0.000638	NaN
108	1.000000	0.827128	7.3661e+06	-44039.1	955.819	-29777.6	0.000000	0.000000	6.827048	-0.095033	NaN	0.000000	0.001569	0.001668	28.1026	0.061454	0.002059	29.8401	179.537	-167.456	-0.080659	0.825872	-0.171209	-0.172465	-0.095033	29.8401	-0.168821	-39.1838	0.002425	NaN
108	1.000000	0.835167	7.3661e+06	-44039.1	955.818	-29777.6	0.000000	0.000000	6.835091	0.005764	NaN	0.000000	0.001638	0.001655	28.1037	0.029883	0.002080	14.3682	-37.5153	-166.96	-0.032680	0.833839	-0.163170	-0.164498	0.005764	14.3682	-0.163471	-31.5799	-0.000183	NaN
108	1.000000	0.843155	7.3661e+06	-44039.1	955.818	-29777.6	0.000000	0.000000	6.843077	-0.063144	NaN	0.000000	0.001633	0.001642	28.1043	0.046350	0.001994	23.2493	115.116	-166.473	-0.034569	0.841894	-0.155182	-0.156443	-0.063144	23.2493	-0.153145	-20.6595	0.003056	NaN
108	1.000000	0.851170	7.3661e+06	-44039.1	955.818	-29777.6	0.000000	0.000000	6.851092	-0.051028	NaN	0.000000	0.001627	0.001628	28.1049	0.048498	0.001995	24.312	166.357	-168.084	-0.017353	0.849894	-0.147167	-0.148443	-0.051028	24.312	-0.145593	-15.0358	0.003394	NaN
108	1.000000	0.859150	7.3661e+06	-44039.1	955.819	-29777.6	0.000000	0.000000	6.859074	-0.012248	NaN	0.000000	0.001633	0.001644	28.1048	0.048927	0.001910	25.6125	-45.2412	-166.033	-0.052982	0.857856	-0.139187	-0.140481	-0.012248	25.6125	-0.138828	-11.2439	0.001089	NaN
108	1.000000	0.867173	7.3661e+06	-44039.1	955.818	-29777.6	0.000000	0.000000	6.867098	0.003142	NaN	0.000000	0.001593	0.001640	28.1051	0.044149	0.001955	22.577	145.175	-164.844	-0.028284	0.865854	-0.131164	-0.132483	0.003142	22.577	-0.131268	-8.064739	-0.000390	NaN
108	1.000000	0.875165	7.3661e+06	-44039.1	955.818	-29777.6	0.000000	0.000000	6.875089	-0.002567	NaN	0.000000	0.001586	0.001629	28.104	0.017191	0.001929	8.913984	136.833	-165.492	0.083278	0.873898	-0.123172	-0.124439	-0.002567	8.913984	-0.122956	-5.538481	0.000463	NaN
108	1.000000	0.883139	7.3661e+06	-44039.1	955.818	-29777.6	0.000000	0.000000	6.883060	-0.064478	NaN	0.000000	0.001598	0.001624	28.104	0.029331	0.001817	16.1445	-41.1827	-167.743	-0.047251	0.881820	-0.115198	-0.116517	-0.064478	16.1445	-0.112203	-3.342590	0.019290	NaN
108	1.000000	0.891188	7.3661e+06	-44039.1	955.818	-29777.6	0.000000	0.000000	6.891114	0.047580	NaN	0.000000	0.001617	0.001577	28.1042	0.150567	0.002045	73.6425	-53.3786	-166.21	0.047476	0.889849	-0.107149	-0.108488	0.047580	73.6425	-0.107634	-2.677328	-0.017771	NaN
108	1.000000	0.899174	7.3661e+06	-44039.1	955.818	-29777.6	0.000000	0.000000	6.899096	-0.045284	NaN	0.000000	0.001607	0.001621	28.1041	0.037909	0.002140	17.7107	-112.293	-164.054	-0.060221	0.897930	-0.099163	-0.100407	-0.045284	17.7107	-0.097245	-1.585810	0.028556	NaN
108	1.000000	0.907193	7.3661e+06	-44039.1	955.818	-29777.6	0.000000	0.000000	6.907116	-0.041251	NaN	0.000000	0.001596	0.001615	28.104	0.132365	0.002023	65.4292	-130.01	-169.983	-0.047140	0.905891	-0.091144	-0.092446	-0.041251	65.4292	-0.090671	-1.120796	0.036805	NaN
108	1.000000	0.915202	7.3661e+06	-44039.1	955.818	-29777.6	0.000000	0.000000	6.915126	-0.004099	NaN	0.000000	0.001612	0.001635	28.1052	0.084134	0.002190	38.4138	29.5996	-166.932	-0.003202	0.913869	-0.083135	-0.084468	-0.004099	38.4138	-0.083055	-0.736728	0.005564	NaN
108	1.000000	0.923197	7.3661e+06	-44039.1	955.818	-29777.6	0.000000	0.000000	6.923117	-0.094877	NaN	0.000000	0.001593	0.001605	28.1045	0.028625	0.001887	15.1737	76.6276	-168.546	-0.051810	0.921852	-0.075140	-0.076485	-0.094877	15.1737	-0.070451	-0.350708	0.270531	NaN
108	1.000000	0.931203	7.3661e+06	-44039.1	955.818	-29777.6	0.000000	0.000000	6.931123	-0.116737	NaN	0.000000	0.001623	0.001600	28.1053	0.040164	0.001990	20.1868	38.7935	-167.539	-0.082255	0.929924	-0.067134	-0.068413	-0.116737	20.1868	-0.062796	-0.216264	0.539787	NaN
108	1.000000	0.939211	7.3661e+06	-44039.1	955.819	-29777.6	0.000000	0.000000	6.939135	-0.011553	NaN	0.000000	0.001579	0.001612	28.1045	0.054181	0.001878	28.8537	163.609	-166.044	-0.020258	0.937898	-0.059126	-0.060439	-0.011553	28.8537	-0.058826	-0.166602	0.069346	NaN
108	1.000000	0.947210	7.3661e+06	-44039.1	955.819	-29777.6	0.000000	0.000000	6.947134	-0.022806	NaN	0.000000	0.001565	0.001636	28.1047	0.072701	0.002006	36.2495	91.6662	-163.783	0.008159	0.945907	-0.051127	-0.052430	-0.022806	36.2495	-0.050655	-0.095502	0.238806	NaN
108	1.000000	0.955227	7.3661e+06	-44039.1	955.818	-29777.6	0.000000	0.000000	6.955151	-0.018653	NaN	0.000000	0.001524	0.001634	28.1036	0.103870	0.001820	57.0559	-45.7577	-163.218	-0.040012	0.953921	-0.043110	-0.044416	-0.018653	57.0559	-0.042864	-0.055295	0.337332	NaN
108	1.000000	0.963225	7.3661e+06	-44039.1	955.818	-29777.6	0.000000	0.000000	6.963149	-0.010238	NaN	0.000000	0.001495	0.001627	28.1033	0.041162	0.002124	19.3839	25.0548	-163.911	0.048729	0.961870	-0.035112	-0.036466	-0.010238	19.3839	-0.034716	-0.031414	0.325897	NaN
108	1.000000	0.971208	7.3661e+06	-44039.1	955.819	-29777.6	0.000000	0.000000	6.971130	-0.075125	NaN	0.000000	0.001511	0.001636	28.1034	0.063463	0.002033	31.2128	-75.814	-169.73	-0.107436	0.969917	-0.027128	-0.028420	-0.075125	31.2128	-0.025323	-0.017202	4.367140	NaN
108	1.000000	0.979244	7.3661e+06	-44039.1	955.82	-29777.6	0.000000	0.000000	6.979170	0.040082	NaN	0.000000	0.001499	0.001636	28.1031	0.010688	0.001913	5.588180	-178.986	-167.354	0.060221	0.977887	-0.019093	-0.020450	0.040082	5.588180	-0.024473	-0.016345	-2.452225	NaN
108	1.000000	0.987180	7.3661e+06	-44039.1	955.82	-29777.6	0.000000	0.000000	6.987105	0.004181	NaN	0.000000	0.001532	0.001634	28.102	0.068392	0.002142	31.9258	129.763	-166.981	-0.074677	0.985942	-0.011157	-0.012395	0.004181	31.9258	-0.011255	-0.007103	-0.588629	NaN
108	1.000000	0.995203	7.3661e+06	-44039.1	955.82	-29777.6	0.000000	0.000000	6.995127	-0.009073	NaN	0.000000	0.001546	0.001635	28.1028	0.067290	0.002007	33.5267	124.778	-166.843	-0.014766	0.993897	-0.003134	-0.004440	-0.009073	33.5267	-0.002931	-0.002074	4.373600	NaN
108	1.000000	1.003184	7.3661e+06	-44039.1	955.82	-29777.6	0.000000	0.000000	7.003244	3.287027	NaN	0.000000	0.001564	0.001640	28.103	4.107403	0.001816	2261.7	12.5267	-173.442	1.692531	1.001906	0.004847	0.003570	3.287027	2261.7	0.003757	0.003027	1085.75	37555.4
108	2.000000	1.009759	7.3661e+06	-44039.1	955.821	-29777.6	0.000000	0.000000	7.010102	10.1816	NaN	0.000000	0.001544	0.001681	28.1033	9.899646	0.001645	6019.29	7.034827	-174.096	10.1044	1.009346	0.011422	0.011009	10.1816	6019.29	0.010154	0.009353	1088.6	56865
108	2.000000	1.011775	7.3661e+06	-44039.1	955.82	-29777.6	0.000000	0.000000	7.012238	13.1202	NaN	0.000000	0.001557	0.001619	28.103	12.3662	0.001733	7134.12	6.691780	-174.634	12.9952	1.011408	0.013438	0.013072	13.1202	7134.12	0.012058	0.011560	1134.95	60622.2
108	2.000000	1.013791	7.3661e+06	-44039.1	955.819	-29777.6	0.000000	0.000000	7.014354	15.5201	NaN	0.000000	0.001533	0.001615	28.1029	14.2916	0.001789	7990.4	11.9394	-178.162	16.0265	1.013383	0.015454	0.015046	15.5201	7990.4	0.013998	0.013972	1110.8	61760.7
108	2.000000	1.015698	7.3661e+06	-44039.1	955.82	-29777.6	0.000000	0.000000	7.016430	19.6456	NaN	0.000000	0.001509	0.001641	28.1016	16.4334	0.001677	9798.31	6.614476	-178.025	18.9296	1.015376	0.017362	0.017039	19.6456	9798.31	0.015858	0.016446	1194.53	69805.7
108	2.000000	1.017718	7.3661e+06	-44039.1	955.82	-29777.6	0.000000	0.000000	7.018571	22.5964	NaN	0.000000	0.001569	0.001624	28.1015	19.0519	0.001792	10629.1	10.5614	177.038	22.4641	1.017426	0.019381	0.019089	22.5964	10629.1	0.017787	0.019183	1177.93	70115.2
108	2.000000	1.019654	7.3661e+06	-44039.1	955.819	-29777.6	0.000000	0.000000	7.020680	26.8034	NaN	0.000000	0.001558	0.001609	28.1018	20.2405	0.001740	11633.3	7.280879	-179.458	25.6408	1.019389	0.021317	0.021052	26.8034	11633.3	0.019589	0.021901	1223.86	71819.9
108	2.000000	1.021713	7.3661e+06	-44039.1	955.819	-29777.6	0.000000	0.000000	7.022904	30.8146	NaN	0.000000	0.001521	0.001601	28.1019	21.8204	0.001809	12061.8	6.901148	-177.782	31.4354	1.021347	0.023376	0.023011	30.8146	12061.8	0.021460	0.024889	1238.1	69853.2
108	2.000000	1.023690	7.3661e+06	-44039.1	955.818	-29777.6	0.000000	0.000000	7.025051	34.9449	NaN	0.000000	0.001555	0.001607	28.1017	23.7291	0.001768	13421.3	6.298956	-178.855	34.6886	1.023361	0.025353	0.025024	34.9449	13421.3	0.023400	0.028170	1240.51	73059.1
108	2.000000	1.025668	7.3661e+06	-44039.1	955.819	-29777.6	0.000000	0.000000	7.027253	40.3976	NaN	0.000000	0.001572	0.001628	28.1028	25.5288	0.001799	14191.1	8.019743	177.88	39.6867	1.025341	0.027331	0.027004	40.3976	14191.1	0.025196	0.031374	1287.63	73199.4
108	2.000000	1.027697	7.3661e+06	-44039.1	955.82	-29777.6	0.000000	0.000000	7.029404	43.3757	NaN	0.000000	0.001539	0.001646	28.1018	28.1551	0.001950	14436	3.549223	-176.936	43.7159	1.027460	0.029360	0.029123	43.3757	14436	0.027106	0.034959	1240.76	70541
108	2.000000	1.029621	7.3661e+06	-44039.1	955.819	-29777.6	0.000000	0.000000	7.031753	53.714	NaN	0.000000	0.001549	0.001627	28.1026	28.9684	0.001929	15013.8	3.179199	-177.331	51.1446	1.029334	0.031284	0.030997	53.714	15013.8	0.028601	0.037893	1417.51	70466.8
108	2.000000	1.031677	7.3661e+06	-44039.1	955.82	-29777.6	0.000000	0.000000	7.033873	55.2535	NaN	0.000000	0.001559	0.001652	28.1018	32.5068	0.001918	16952.4	8.187825	175.824	54.7467	1.031338	0.033340	0.033001	55.2535	16952.4	0.030896	0.042621	1296.39	75022.5
108	2.000000	1.033659	7.3661e+06	-44039.1	955.82	-29777.6	0.000000	0.000000	7.036243	64.7128	NaN	0.000000	0.001578	0.001640	28.1036	33.3083	0.001796	18546.9	5.709285	178.416	64.5644	1.033377	0.035322	0.035040	64.7128	18546.9	0.032705	0.046537	1390.57	78550.1
108	2.000000	1.035663	7.3661e+06	-44039.1	955.819	-29777.6	0.000000	0.000000	7.038570	72.5606	NaN	0.000000	0.001560	0.001633	28.1016	34.9395	0.001780	19629.9	7.504959	176.352	71.5319	1.035294	0.037327	0.036957	72.5606	19629.9	0.034554	0.050713	1430.81	79639.9
108	2.000000	1.037725	7.3661e+06	-44039.1	955.819	-29777.6	0.000000	0.000000	7.040794	76.5215	NaN	0.000000	0.001549	0.001641	28.1022	37.9215	0.001913	19826	6.080785	177.497	78.7524	1.037391	0.039388	0.039054	76.5215	19826	0.036493	0.055280	1384.26	77041.5
108	2.000000	1.039639	7.3661e+06	-44039.1	955.819	-29777.6	0.000000	0.000000	7.043054	84.9234	NaN	0.000000	0.001534	0.001628	28.102	39.1412	0.001802	21723.4	7.134706	175.505	84.2712	1.039306	0.041302	0.040969	84.9234	21723.4	0.038370	0.059884	1418.13	81104.7
108	2.000000	1.041706	7.3661e+06	-44039.1	955.819	-29777.6	0.000000	0.000000	7.045308	89.4529	NaN	0.000000	0.001584	0.001605	28.1022	41.2015	0.001801	22876.3	3.528958	178.262	92.7995	1.041337	0.043370	0.043000	89.4529	22876.3	0.040437	0.065162	1372.77	81876.9
108	2.000000	1.043697	7.3661e+06	-44039.1	955.821	-29777.6	0.000000	0.000000	7.047696	99.1284	NaN	0.000000	0.001545	0.001645	28.1033	43.1724	0.001864	23167.3	7.143313	175.227	100.673	1.043278	0.045361	0.044941	99.1284	23167.3	0.042151	0.069707	1422.08	80170
108	2.000000	1.045609	7.3661e+06	-44039.1	955.82	-29777.6	0.000000	0.000000	7.050009	108.902	NaN	0.000000	0.001518	0.001623	28.1034	43.8941	0.001807	24294.3	6.526512	174.918	107.235	1.045300	0.047272	0.046963	108.902	24294.3	0.043910	0.074522	1461.33	81308
108	2.000000	1.047591	7.3661e+06	-44039.1	955.819	-29777.6	0.000000	0.000000	7.052182	113.54	NaN	0.000000	0.001533	0.001644	28.1028	47.321	0.001909	24783.9	4.622569	176.188	112.277	1.047297	0.049254	0.048961	113.54	24783.9	0.045818	0.079928	1420.54	80092.9
108	2.000000	1.049637	7.3661e+06	-44039.1	955.819	-29777.6	0.000000	0.000000	7.054669	124.25	NaN	0.000000	0.001529	0.001624	28.1031	47.8189	0.001839	26007	7.763503	174.072	123.43	1.049237	0.051301	0.050900	124.25	26007	0.047717	0.085489	1453.41	81266.2
108	2.000000	1.051603	7.3661e+06	-44039.1	955.82	-29777.6	0.000000	0.000000	7.056852	129.533	NaN	0.000000	0.001534	0.001639	28.1034	49.314	0.001773	27815.9	0.781822	179.269	128.427	1.051292	0.053267	0.052955	129.533	27815.9	0.049774	0.091716	1412.33	83915.7
108	2.000000	1.053616	7.3661e+06	-44039.1	955.82	-29777.6	0.000000	0.000000	7.059311	140.4	NaN	0.000000	0.001564	0.001637	28.1033	51.9578	0.001865	27852.7	10.5011	170.473	139.524	1.053274	0.055279	0.054937	140.4	27852.7	0.051499	0.097101	1445.92	81663.7
108	2.000000	1.055607	7.3661e+06	-44039.1	955.819	-29777.6	0.000000	0.000000	7.061387	142.458	NaN	0.000000	0.001540	0.001606	28.101	53.2842	0.001801	29591.5	5.246615	174.467	142.894	1.055311	0.057271	0.056974	142.458	29591.5	0.053660	0.104061	1368.99	83810.3
108	2.000000	1.057608	7.3661e+06	-44039.1	955.819	-29777.6	0.000000	0.000000	7.063662	149.13	NaN	0.000000	0.001507	0.001655	28.1019	56.0773	0.001865	30060.5	5.581229	173.377	147.874	1.057398	0.059271	0.059061	149.13	30060.5	0.055550	0.110338	1351.58	82681.2
108	2.000000	1.059602	7.3661e+06	-44039.1	955.82	-29777.6	0.000000	0.000000	7.066322	165.327	NaN	0.000000	0.001525	0.001624	28.1025	56.4488	0.001857	30390	5.172048	174.651	163.902	1.059264	0.061265	0.060927	165.327	30390	0.057185	0.115907	1426.37	81554.7
108	2.000000	1.061601	7.3661e+06	-44039.1	955.82	-29777.6	0.000000	0.000000	7.068420	167.738	NaN	0.000000	0.001539	0.001594	28.1021	59.298	0.001890	31371.6	7.721971	170.909	165.909	1.061424	0.063264	0.063087	167.738	31371.6	0.059254	0.123147	1362.09	81676.4
108	2.000000	1.063541	7.3661e+06	-44039.1	955.819	-29777.6	0.000000	0.000000	7.070891	180.643	NaN	0.000000	0.001562	0.001645	28.103	60.2299	0.001809	33292.5	7.992880	170.223	175.67	1.063247	0.065204	0.064910	180.643	33292.5	0.061135	0.129910	1390.53	84391.5
108	2.000000	1.065652	7.3661e+06	-44039.1	955.82	-29777.6	0.000000	0.000000	7.073035	181.449	NaN	0.000000	0.001542	0.001655	28.1025	60.8463	0.001761	34553.5	5.503880	172.527	183.298	1.065428	0.067315	0.067092	181.449	34553.5	0.063377	0.138196	1312.99	84921.7
108	2.000000	1.067574	7.3661e+06	-44039.1	955.82	-29777.6	0.000000	0.000000	7.075710	199.774	NaN	0.000000	0.001567	0.001647	28.1036	63.8543	0.001788	35710.8	5.331296	172.649	197.714	1.067333	0.069237	0.068996	199.774	35710.8	0.065042	0.144505	1382.47	85828.5
108	2.000000	1.069634	7.3661e+06	-44039.1	955.821	-29777.6	0.000000	0.000000	7.078247	211.396	NaN	0.000000	0.001503	0.001661	28.1028	64.5145	0.001781	36216.8	7.822586	170.813	212.444	1.069329	0.071297	0.070992	211.396	36216.8	0.066919	0.151781	1392.77	84932.6
108	2.000000	1.071580	7.3661e+06	-44039.1	955.82	-29777.6	0.000000	0.000000	7.080518	219.285	NaN	0.000000	0.001507	0.001648	28.1016	67.1811	0.001845	36413.8	3.511919	174.318	218.329	1.071285	0.073243	0.072948	219.285	36413.8	0.068727	0.158948	1379.6	83447.2
108	2.000000	1.073611	7.3661e+06	-44039.1	955.82	-29777.6	0.000000	0.000000	7.082843	226.434	NaN	0.000000	0.001535	0.001646	28.102	69.5814	0.001830	38030.9	6.906125	171.617	224.275	1.073228	0.075274	0.074891	226.434	38030.9	0.070809	0.167394	1352.7	84925.6
108	2.000000	1.075626	7.3661e+06	-44039.1	955.82	-29777.6	0.000000	0.000000	7.085283	236.774	NaN	0.000000	0.001511	0.001633	28.0994	70.672	0.001729	40877.6	4.766648	172.627	239.385	1.075274	0.077289	0.076937	236.774	40877.6	0.072945	0.176274	1343.22	88953.9
108	2.000000	1.077612	7.3661e+06	-44039.1	955.82	-29777.6	0.000000	0.000000	7.087727	247.911	NaN	0.000000	0.001543	0.001651	28.1005	73.1237	0.001796	40711.7	3.678371	173.616	246.676	1.077282	0.079275	0.078946	247.911	40711.7	0.074708	0.183767	1349.05	86767.8
108	2.000000	1.079682	7.3661e+06	-44039.1	955.82	-29777.6	0.000000	0.000000	7.090224	258.306	NaN	0.000000	0.001551	0.001659	28.0993	75.018	0.001843	40702.2	8.487749	169.097	264.342	1.079281	0.081345	0.080944	258.306	40702.2	0.076585	0.191903	1346.02	84888.6
108	2.000000	1.081510	7.3661e+06	-44039.1	955.821	-29777.6	0.000000	0.000000	7.092704	274.164	NaN	0.000000	0.001526	0.001661	28.0995	76.769	0.001836	41814.4	5.438680	171.696	269.613	1.081238	0.083173	0.082901	274.164	41814.4	0.078256	0.199284	1375.74	85578.2
108	2.000000	1.083631	7.3661e+06	-44039.1	955.821	-29777.6	0.000000	0.000000	7.095237	284.205	NaN	0.000000	0.001556	0.001623	28.0997	78.4374	0.001809	43350.8	4.605183	172.476	285.238	1.083159	0.085294	0.084822	284.205	43350.8	0.080377	0.208843	1360.85	86668.4
108	2.000000	1.085562	7.3661e+06	-44039.1	955.821	-29777.6	0.000000	0.000000	7.097570	293.977	NaN	0.000000	0.001559	0.001624	28.1013	79.4019	0.001774	44748.8	4.178857	172.404	291.256	1.085253	0.087225	0.086917	293.977	44748.8	0.082298	0.217682	1350.49	87628.1
108	2.000000	1.087651	7.3661e+06	-44039.1	955.82	-29777.6	0.000000	0.000000	7.099691	294.756	NaN	0.000000	0.001551	0.001617	28.1018	82.2654	0.001916	42929.6	3.380105	173.012	297.083	1.087539	0.089314	0.089203	294.756	42929.6	0.084165	0.226434	1301.73	82425.1
108	2.000000	1.089544	7.3661e+06	-44039.1	955.821	-29777.6	0.000000	0.000000	7.102677	321.356	NaN	0.000000	0.001564	0.001616	28.1015	82.4739	0.001788	46135.4	3.942705	172.55	317.763	1.089238	0.091207	0.090901	321.356	46135.4	0.085983	0.235112	1366.82	86930.2
108	2.000000	1.091511	7.3661e+06	-44039.1	955.821	-29777.6	0.000000	0.000000	7.105347	338.47	NaN	0.000000	0.001534	0.001654	28.1014	85.6918	0.001757	48776.6	8.435627	167.599	335.062	1.091068	0.093174	0.092731	338.47	48776.6	0.087969	0.244770	1382.81	90075.2
108	2.000000	1.093497	7.3661e+06	-44039.1	955.82	-29777.6	0.000000	0.000000	7.107559	343.948	NaN	0.000000	0.001584	0.001599	28.1009	88.374	0.001833	48203.5	8.824046	167.256	337.043	1.093218	0.095160	0.094881	343.948	48203.5	0.089809	0.253875	1354.79	87406.1
108	2.000000	1.095510	7.3661e+06	-44039.1	955.82	-29777.6	0.000000	0.000000	7.110256	360.596	NaN	0.000000	0.001618	0.001624	28.1005	87.6886	0.001739	50411	5.895760	170.075	354.972	1.095149	0.097173	0.096812	360.596	50411	0.091808	0.263947	1366.17	89647.9
108	2.000000	1.097561	7.3661e+06	-44039.1	955.82	-29777.6	0.000000	0.000000	7.112672	369.486	NaN	0.000000	0.001611	0.001655	28.1001	91.7692	0.001795	51125	1.552755	174.082	368.023	1.097410	0.099224	0.099073	369.486	51125	0.093804	0.274180	1347.6	89204.9
108	2.000000	1.099516	7.3661e+06	-44039.1	955.82	-29777.6	0.000000	0.000000	7.115327	386.52	NaN	0.000000	0.001583	0.001648	28.0999	92.4868	0.001863	49647.7	3.159332	172.454	382.726	1.099260	0.101179	0.100923	386.52	49647.7	0.095340	0.282183	1369.75	85389.9
108	2.000000	1.101551	7.3661e+06	-44039.1	955.82	-29777.6	0.000000	0.000000	7.118279	408.805	NaN	0.000000	0.001613	0.001618	28.0993	94.063	0.001807	52057.1	1.087288	174.989	408.007	1.101180	0.103215	0.102843	408.805	52057.1	0.097325	0.292683	1396.75	87913.2
108	2.000000	1.103637	7.3661e+06	-44039.1	955.82	-29777.6	0.000000	0.000000	7.120802	419.451	NaN	0.000000	0.001607	0.001590	28.1	96.9891	0.001779	54527.6	4.955463	170.871	420.748	1.103153	0.105300	0.104816	419.451	54527.6	0.099531	0.304564	1377.22	90271.4
108	2.000000	1.105517	7.3661e+06	-44039.1	955.82	-29777.6	0.000000	0.000000	7.123403	436.976	NaN	0.000000	0.001631	0.001663	28.1022	98.7613	0.001740	56764.4	5.201463	170.335	433.124	1.105207	0.107181	0.106870	436.976	56764.4	0.101407	0.314842	1387.92	92427.8
108	2.000000	1.107453	7.3661e+06	-44039.1	955.821	-29777.6	0.000000	0.000000	7.125703	445.859	NaN	0.000000	0.001595	0.001661	28.1021	102.515	0.001756	58391.1	7.015655	167.321	439.789	1.107049	0.109116	0.108712	445.859	58391.1	0.103389	0.325873	1368.2	93453.6