File: remote_trans/data/nanoindenter/0828-1/data/Data_2025-08-06,11h17m57s/2025-07-22_16-23-58_1_1169.txt
2025-07-22, 16:23:58, 1
Index	Phase	Displacement	Time	Pos X	Pos Y	Pos Z	Rot A	Rot B	Piezo Z	Force A	Force B	Gripper	Voltage A	Voltage B	Temperature	Amplitude force	Amplitude pos	Stiffness	Phase shift	Phase excitation	Force A raw	Displacement raw	HMax	HMax raw	Real Force	Real Stiffness	Contact Depth	Area	Hardness	Reduced Mod.
[#]	[#]	[um]	[s]	[um]	[um]	[um]	[m°]	[m°]	[um]	[uN]	[uN]	[V]	[V]	[V]	[°C]	[uN]	[um]	[N/m]	[°]	[°]	[uN]	[um]	[um]	[um]	[uN]	[N/m]	[um]	[um^2]	[MPa]	[MPa]
1169	1.000000	0.002364	7.37648e+06	-57139.1	1105.82	-29737.2	0.000000	0.000000	6.002824	0.002688	NaN	0.000000	0.001676	0.001758	28.0827	0.023818	0.000924	25.786	101.032	-166.178	0.088829	0.001062	-1.087493	-1.088796	0.002688	25.786	-1.087572	-3.413521E+14	-7.875083E-18	NaN
1169	1.000000	0.012417	7.37648e+06	-57139.1	1105.82	-29737.2	0.000000	0.000000	6.012877	0.025443	NaN	0.000000	0.001685	0.001804	28.0826	0.065335	0.001223	53.4213	-8.591313	13.6822	0.027729	0.010984	-1.077441	-1.078874	0.025443	53.4213	-1.077798	-2.523178E+14	-1.008370E-16	NaN
1169	1.000000	0.022299	7.37648e+06	-57139.1	1105.82	-29737.2	0.000000	0.000000	6.022759	0.002404	NaN	0.000000	0.001647	0.001807	28.0826	0.052791	0.001760	29.9993	-119.58	-163.615	-0.002601	0.020993	-1.067558	-1.068864	0.002404	29.9993	-1.067618	-1.841584E+14	-1.305224E-17	NaN
1169	1.000000	0.032276	7.37648e+06	-57139.1	1105.82	-29737.2	0.000000	0.000000	6.032737	0.034107	NaN	0.000000	0.001656	0.001781	28.0827	0.062049	0.001969	31.5191	37.7417	14.4614	0.095719	0.030948	-1.057582	-1.058909	0.034107	31.5191	-1.058393	-1.384295E+14	-2.463845E-16	NaN
1169	1.000000	0.042292	7.37648e+06	-57139.1	1105.82	-29737.2	0.000000	0.000000	6.042756	0.089074	NaN	0.000000	0.001641	0.001767	28.0828	0.087972	0.001996	44.0704	78.3867	-167.879	0.049346	0.041024	-1.047565	-1.048834	0.089074	44.0704	-1.049081	-1.037681E+14	-8.583938E-16	NaN
1169	1.000000	0.052307	7.37648e+06	-57139.1	1105.82	-29737.2	0.000000	0.000000	6.052768	0.026219	NaN	0.000000	0.001618	0.001736	28.0826	0.049865	0.001927	25.8826	29.7232	17.3172	0.041758	0.050925	-1.037551	-1.038933	0.026219	25.8826	-1.038311	-7.434462E+13	-3.526664E-16	NaN
1169	1.000000	0.062302	7.37648e+06	-57139.1	1105.82	-29737.2	0.000000	0.000000	6.062761	-0.003269	NaN	0.000000	0.001683	0.001713	28.0826	0.028819	0.001949	14.7857	-8.099976	-164.349	-0.006483	0.060990	-1.027556	-1.028867	-0.003269	14.7857	-1.027390	-5.301215E+13	6.167100E-17	NaN
1169	1.000000	0.072316	7.37648e+06	-57139.1	1105.82	-29737.2	0.000000	0.000000	6.072778	0.077475	NaN	0.000000	0.001652	0.001756	28.0824	0.060972	0.002052	29.7096	97.9318	15.4387	0.041097	0.070968	-1.017542	-1.018890	0.077475	29.7096	-1.019498	-4.151414E+13	-1.866229E-15	NaN
1169	1.000000	0.082256	7.37648e+06	-57139.1	1105.82	-29737.2	0.000000	0.000000	6.082715	-0.009218	NaN	0.000000	0.001663	0.001717	28.0822	0.092748	0.001918	48.3486	-155.505	-167.804	-0.125277	0.080997	-1.007602	-1.008860	-0.009218	48.3486	-1.007459	-2.858753E+13	3.224404E-16	NaN
1169	1.000000	0.092288	7.37648e+06	-57139.1	1105.82	-29737.2	0.000000	0.000000	6.092750	0.058544	NaN	0.000000	0.001605	0.001743	28.0812	0.101398	0.001988	51.0088	90.7836	15.2801	0.105638	0.090950	-0.997569	-0.998908	0.058544	51.0088	-0.998430	-2.160891E+13	-2.709273E-15	NaN
1169	1.000000	0.102301	7.37648e+06	-57139.1	1105.82	-29737.2	0.000000	0.000000	6.102762	0.036469	NaN	0.000000	0.001629	0.001769	28.0813	0.025555	0.002006	12.7416	68.7053	-162.193	0.058631	0.100946	-0.987556	-0.988911	0.036469	12.7416	-0.989703	-1.648593E+13	-2.212152E-15	NaN
1169	1.000000	0.112314	7.37648e+06	-57139.1	1105.82	-29737.2	0.000000	0.000000	6.112775	0.024705	NaN	0.000000	0.001671	0.001748	28.0816	0.058201	0.001948	29.8707	127.942	13.9849	-0.022388	0.110999	-0.977543	-0.978859	0.024705	29.8707	-0.978164	-1.152575E+13	-2.143493E-15	NaN
1169	1.000000	0.122322	7.37648e+06	-57139.1	1105.82	-29737.2	0.000000	0.000000	6.122781	-0.013828	NaN	0.000000	0.001655	0.001727	28.0818	0.042051	0.001954	21.5169	-129.633	-167.401	-0.055818	0.121000	-0.967536	-0.968857	-0.013828	21.5169	-0.967054	-8.165024E+12	1.693604E-15	NaN
1169	1.000000	0.132318	7.37648e+06	-57139.1	1105.82	-29737.2	0.000000	0.000000	6.132780	0.046927	NaN	0.000000	0.001667	0.001735	28.0815	0.080595	0.002025	39.7912	22.9478	15.5216	-0.028072	0.130929	-0.957540	-0.958929	0.046927	39.7912	-0.958424	-6.246300E+12	-7.512832E-15	NaN
1169	1.000000	0.142334	7.37648e+06	-57139.1	1105.82	-29737.2	0.000000	0.000000	6.142798	0.088494	NaN	0.000000	0.001706	0.001716	28.0814	0.073160	0.002068	35.3809	-13.0197	-165.015	0.049629	0.141024	-0.947523	-0.948833	0.088494	35.3809	-0.949399	-4.719833E+12	-1.874945E-14	NaN
1169	1.000000	0.152313	7.37648e+06	-57139.1	1105.82	-29737.2	0.000000	0.000000	6.152777	0.110471	NaN	0.000000	0.001684	0.001742	28.0814	0.054258	0.002063	26.304	-165.724	16.071	0.066278	0.150988	-0.937545	-0.938870	0.110471	26.304	-0.940695	-3.601743E+12	-3.067156E-14	NaN
1169	1.000000	0.162357	7.37648e+06	-57139.1	1105.82	-29737.2	0.000000	0.000000	6.162817	0.026730	NaN	0.000000	0.001665	0.001752	28.0815	0.055142	0.001953	28.2391	46.0848	-165.055	0.010594	0.161003	-0.927501	-0.928854	0.026730	28.2391	-0.928211	-2.443715E+12	-1.093815E-14	NaN
1169	1.000000	0.172324	7.37648e+06	-57139.1	1105.82	-29737.2	0.000000	0.000000	6.172784	-0.002944	NaN	0.000000	0.001651	0.001705	28.0814	0.083954	0.001927	43.5632	-152.86	16.6416	-0.052311	0.170985	-0.917533	-0.918872	-0.002944	43.5632	-0.917483	-1.750710E+12	1.681524E-15	NaN
1169	1.000000	0.182351	7.37648e+06	-57139.1	1105.82	-29737.2	0.000000	0.000000	6.182811	-0.002191	NaN	0.000000	0.001645	0.001753	28.0815	0.109779	0.001970	55.727	-22.1021	-161.465	0.090631	0.181028	-0.907507	-0.908829	-0.002191	55.727	-0.907477	-1.282579E+12	1.707966E-15	NaN
1169	1.000000	0.192330	7.37648e+06	-57139.1	1105.82	-29737.2	0.000000	0.000000	6.192789	-0.017076	NaN	0.000000	0.001645	0.001721	28.0817	0.065145	0.002010	32.4129	-71.9337	16.0678	-0.023885	0.191000	-0.897528	-0.898857	-0.017076	32.4129	-0.897133	-9.296508E+11	1.836815E-14	NaN
1169	1.000000	0.202367	7.37648e+06	-57139.1	1105.82	-29737.2	0.000000	0.000000	6.202826	-0.005178	NaN	0.000000	0.001670	0.001737	28.0811	0.034446	0.002020	17.0513	-131.368	-165.986	0.047418	0.201024	-0.887491	-0.888834	-0.005178	17.0513	-0.887263	-6.837840E+11	7.572655E-15	NaN
1169	1.000000	0.212331	7.37648e+06	-57139.1	1105.82	-29737.2	0.000000	0.000000	6.212792	0.040340	NaN	0.000000	0.001634	0.001721	28.0816	0.159908	0.002067	77.3571	-53.4271	15.146	-0.019670	0.211013	-0.877527	-0.878844	0.040340	77.3571	-0.877918	-5.111568E+11	-7.891870E-14	NaN
1169	1.000000	0.222317	7.37648e+06	-57139.1	1105.82	-29737.2	0.000000	0.000000	6.222779	0.052034	NaN	0.000000	0.001620	0.001704	28.0825	0.014345	0.001974	7.266333	-19.9984	-167.197	0.037401	0.221069	-0.867540	-0.868789	0.052034	7.266333	-0.872911	-4.373479E+11	-1.189765E-13	NaN
1169	1.000000	0.232375	7.37648e+06	-57139.1	1105.82	-29737.2	0.000000	0.000000	6.232838	0.080404	NaN	0.000000	0.001636	0.001754	28.0831	0.045108	0.002068	21.8141	95.5127	13.3629	0.069488	0.230982	-0.857483	-0.858876	0.080404	21.8141	-0.860247	-2.947577E+11	-2.727787E-13	NaN
1169	1.000000	0.242361	7.37648e+06	-57139.1	1105.82	-29737.2	0.000000	0.000000	6.242820	-0.007990	NaN	0.000000	0.001659	0.001769	28.0824	0.119777	0.002048	58.487	93.2806	-160.744	0.072209	0.241070	-0.847497	-0.848787	-0.007990	58.487	-0.847395	-1.974484E+11	4.046515E-14	NaN
1169	1.000000	0.252378	7.37648e+06	-57139.1	1105.82	-29737.2	0.000000	0.000000	6.252838	0.016368	NaN	0.000000	0.001656	0.001725	28.0827	0.062685	0.001942	32.2822	121.242	15.8118	0.084033	0.250994	-0.837480	-0.838864	0.016368	32.2822	-0.837860	-1.466561E+11	-1.116046E-13	NaN
1169	1.000000	0.262377	7.37648e+06	-57139.1	1105.82	-29737.2	0.000000	0.000000	6.262835	-0.030319	NaN	0.000000	0.001665	0.001743	28.0827	0.025610	0.001874	13.6687	43.8087	-166.441	-0.015597	0.261040	-0.827481	-0.828817	-0.030319	13.6687	-0.825817	-1.007130E+11	3.010429E-13	NaN
1169	1.000000	0.272411	7.37648e+06	-57139.1	1105.82	-29737.2	0.000000	0.000000	6.272871	0.005762	NaN	0.000000	0.001709	0.001747	28.0828	0.079581	0.002075	38.3565	-176.02	16.7296	-0.006052	0.271015	-0.817447	-0.818843	0.005762	38.3565	-0.817560	-7.782446E+10	-7.403231E-14	NaN
1169	1.000000	0.282348	7.37648e+06	-57139.1	1105.82	-29737.2	0.000000	0.000000	6.282809	0.035309	NaN	0.000000	0.001718	0.001739	28.0825	0.068628	0.001970	34.8342	-138.731	-165.762	-0.024638	0.281050	-0.807509	-0.808808	0.035309	34.8342	-0.808270	-5.822301E+10	-6.064500E-13	NaN
1169	1.000000	0.292376	7.37648e+06	-57139.1	1105.82	-29737.2	0.000000	0.000000	6.292836	-0.004891	NaN	0.000000	0.001688	0.001733	28.0827	0.048741	0.001997	24.4094	154.059	14.0222	0.046362	0.291031	-0.797481	-0.798826	-0.004891	24.4094	-0.797331	-4.136473E+10	1.182517E-13	NaN
1169	1.000000	0.302400	7.37648e+06	-57139.1	1105.82	-29737.2	0.000000	0.000000	6.302859	-0.027306	NaN	0.000000	0.001728	0.001755	28.0828	0.062038	0.002078	29.8596	-16.8014	-162.332	-0.065779	0.301023	-0.787457	-0.788834	-0.027306	29.8596	-0.786771	-2.973242E+10	9.183764E-13	NaN
1169	1.000000	0.312372	7.37648e+06	-57139.1	1105.82	-29737.2	0.000000	0.000000	6.312830	-0.028746	NaN	0.000000	0.001683	0.001736	28.0824	0.085922	0.002022	42.4976	-49.5722	13.2839	-0.044898	0.311075	-0.777486	-0.778782	-0.028746	42.4976	-0.776979	-2.188637E+10	1.313417E-12	NaN
1169	1.000000	0.322364	7.37648e+06	-57139.1	1105.82	-29737.2	0.000000	0.000000	6.322823	-0.013721	NaN	0.000000	0.001714	0.001743	28.0824	0.048237	0.001897	25.4349	121.772	-166.874	0.008289	0.321026	-0.767494	-0.768832	-0.013721	25.4349	-0.767089	-1.605914E+10	8.543949E-13	NaN
1169	1.000000	0.332398	7.37648e+06	-57139.1	1105.82	-29737.2	0.000000	0.000000	6.332857	-0.016875	NaN	0.000000	0.001743	0.001732	28.0825	0.075639	0.002046	36.9641	178.188	15.3709	-0.001280	0.331052	-0.757459	-0.758806	-0.016875	36.9641	-0.757117	-1.175105E+10	1.436048E-12	NaN
1169	1.000000	0.342433	7.37648e+06	-57139.1	1105.82	-29737.2	0.000000	0.000000	6.342892	-0.015455	NaN	0.000000	0.001698	0.001718	28.0826	0.178983	0.002102	85.1604	-125.956	-161.28	0.039117	0.341120	-0.747425	-0.748738	-0.015455	85.1604	-0.747288	-8.635886E+9	1.789640E-12	NaN
1169	1.000000	0.352404	7.37649e+06	-57139.1	1105.82	-29737.2	0.000000	0.000000	6.352869	0.128520	NaN	0.000000	0.001750	0.001707	28.0825	0.021471	0.001816	11.8238	20.4502	14.6517	0.099518	0.351011	-0.737454	-0.738846	0.128520	11.8238	-0.745606	-8.192256E+9	-1.568799E-11	NaN
1169	1.000000	0.362440	7.37649e+06	-57139.1	1105.82	-29737.2	0.000000	0.000000	6.362901	0.023060	NaN	0.000000	0.001724	0.001723	28.0812	0.055750	0.002185	25.509	-2.728284	-162.226	-0.055043	0.361110	-0.727417	-0.728748	0.023060	25.509	-0.728095	-4.729832E+9	-4.875362E-12	NaN
1169	1.000000	0.372408	7.37649e+06	-57139.1	1105.82	-29737.2	0.000000	0.000000	6.372873	0.112890	NaN	0.000000	0.001706	0.001730	28.0812	0.095016	0.001944	48.8879	-127.167	16.9646	0.035710	0.371077	-0.717449	-0.718781	0.112890	48.8879	-0.719181	-3.575232E+9	-3.157544E-11	NaN
1169	1.000000	0.382428	7.37649e+06	-57139.1	1105.82	-29737.2	0.000000	0.000000	6.382888	0.002316	NaN	0.000000	0.001741	0.001713	28.0811	0.026812	0.002015	13.306	-161.543	-164.634	0.026721	0.381144	-0.707429	-0.708714	0.002316	13.306	-0.707560	-2.481677E+9	-9.331578E-13	NaN
1169	1.000000	0.392417	7.37649e+06	-57139.1	1105.82	-29737.2	0.000000	0.000000	6.392878	0.036060	NaN	0.000000	0.001735	0.001737	28.0812	0.025884	0.001964	13.1819	-105.663	15.5802	-0.030898	0.391064	-0.697441	-0.698793	0.036060	13.1819	-0.699492	-1.925739E+9	-1.872534E-11	NaN
1169	1.000000	0.402437	7.37649e+06	-57139.1	1105.82	-29737.2	0.000000	0.000000	6.402898	0.017823	NaN	0.000000	0.001718	0.001748	28.0813	0.068562	0.001991	34.4293	29.3276	-166.589	0.044298	0.401118	-0.687421	-0.688739	0.017823	34.4293	-0.687809	-1.333429E+9	-1.336636E-11	NaN
1169	1.000000	0.412459	7.37649e+06	-57139.1	1105.82	-29737.2	0.000000	0.000000	6.412919	0.018132	NaN	0.000000	0.001726	0.001767	28.0815	0.093601	0.001916	48.8496	-134.684	15.9902	0.070025	0.411072	-0.677399	-0.678786	0.018132	48.8496	-0.677677	-9.692489E+8	-1.870751E-11	NaN
1169	1.000000	0.422445	7.37649e+06	-57139.1	1105.82	-29737.2	0.000000	0.000000	6.422906	0.048839	NaN	0.000000	0.001713	0.001769	28.0812	0.119532	0.001924	62.121	-144.349	-162.02	0.076324	0.421074	-0.667413	-0.668783	0.048839	62.121	-0.668003	-7.145837E+8	-6.834599E-11	NaN
1169	1.000000	0.432404	7.37649e+06	-57139.1	1105.82	-29737.2	0.000000	0.000000	6.432862	-0.058998	NaN	0.000000	0.001670	0.001760	28.0813	0.105780	0.001902	55.6043	31.1775	18.8737	-0.018131	0.431125	-0.657453	-0.658733	-0.058998	55.6043	-0.656658	-4.996659E+8	1.180746E-10	NaN
1169	1.000000	0.442471	7.37649e+06	-57139.1	1105.82	-29737.2	0.000000	0.000000	6.442932	0.036713	NaN	0.000000	0.001681	0.001744	28.0816	0.067265	0.002039	32.9937	21.6638	-166.003	0.001528	0.441155	-0.647387	-0.648703	0.036713	32.9937	-0.648221	-3.828708E+8	-9.588898E-11	NaN
1169	1.000000	0.452461	7.37649e+06	-57139.1	1105.82	-29737.2	0.000000	0.000000	6.452923	0.063542	NaN	0.000000	0.001687	0.001744	28.0816	0.182500	0.002062	88.5234	126.957	12.1031	0.120597	0.451075	-0.637397	-0.638782	0.063542	88.5234	-0.637935	-2.766673E+8	-2.296696E-10	NaN
1169	1.000000	0.462451	7.37649e+06	-57139.1	1105.82	-29737.2	0.000000	0.000000	6.462911	0.004639	NaN	0.000000	0.001751	0.001734	28.0814	0.143123	0.001982	72.2001	-170.72	-164.63	0.044477	0.461185	-0.627407	-0.628673	0.004639	72.2001	-0.627455	-1.986406E+8	-2.335508E-11	NaN
1169	1.000000	0.472468	7.37649e+06	-57139.1	1105.82	-29737.2	0.000000	0.000000	6.472927	-0.017495	NaN	0.000000	0.001762	0.001718	28.0813	0.085559	0.002006	42.6525	42.394	15.8482	-0.036384	0.471110	-0.617389	-0.618748	-0.017495	42.6525	-0.617082	-1.430592E+8	1.222939E-10	NaN
1169	1.000000	0.482443	7.37649e+06	-57139.1	1105.82	-29737.2	0.000000	0.000000	6.482906	0.059997	NaN	0.000000	0.001717	0.001773	28.0817	0.032653	0.001919	17.016	85.59	-168.022	0.039318	0.481146	-0.607414	-0.608712	0.059997	17.016	-0.610059	-1.145306E+8	-5.238513E-10	NaN
1169	1.000000	0.492458	7.37649e+06	-57139.1	1105.82	-29737.2	0.000000	0.000000	6.492917	-0.025940	NaN	0.000000	0.001711	0.001769	28.0819	0.022977	0.002070	11.1007	58.0411	14.1509	-0.083668	0.491130	-0.597400	-0.598727	-0.025940	11.1007	-0.595647	-7.252668E+7	3.576644E-10	NaN
1169	1.000000	0.502455	7.37649e+06	-57139.1	1105.82	-29737.2	0.000000	0.000000	6.502915	0.012700	NaN	0.000000	0.001712	0.001737	28.0828	0.087060	0.001981	43.9543	-39.9332	-164.039	0.002350	0.501221	-0.587403	-0.588637	0.012700	43.9543	-0.587619	-5.621381E+7	-2.259281E-10	NaN
1169	1.000000	0.512475	7.37649e+06	-57139.1	1105.82	-29737.2	0.000000	0.000000	6.512933	-0.048872	NaN	0.000000	0.001731	0.001788	28.0826	0.062731	0.001987	31.5637	93.5884	13.0011	-0.013047	0.511117	-0.577383	-0.578741	-0.048872	31.5637	-0.576221	-3.913486E+7	1.248808E-9	NaN
1169	1.000000	0.522496	7.37649e+06	-57139.1	1105.82	-29737.2	0.000000	0.000000	6.522955	-0.018250	NaN	0.000000	0.001730	0.001791	28.0827	0.101399	0.001834	55.2934	104.298	-166.62	-0.015093	0.521212	-0.567362	-0.568646	-0.018250	55.2934	-0.567114	-2.929198E+7	6.230294E-10	NaN
1169	1.000000	0.532487	7.37649e+06	-57139.1	1105.82	-29737.2	0.000000	0.000000	6.532949	0.051956	NaN	0.000000	0.001717	0.001813	28.0825	0.046248	0.002039	22.6818	-167.973	15.8071	0.082755	0.531139	-0.557371	-0.558719	0.051956	22.6818	-0.559089	-2.268669E+7	-2.290135E-9	NaN
1169	1.000000	0.542453	7.37649e+06	-57139.1	1105.82	-29737.2	0.000000	0.000000	6.542914	0.034751	NaN	0.000000	0.001675	0.001800	28.0826	0.010429	0.002070	5.038863	162.844	-168.013	-0.007114	0.541156	-0.547404	-0.548701	0.034751	5.038863	-0.552577	-1.843492E+7	-1.885062E-9	NaN
1169	1.000000	0.552502	7.37649e+06	-57139.1	1105.82	-29737.2	0.000000	0.000000	6.552963	0.037646	NaN	0.000000	0.001641	0.001725	28.0827	0.106066	0.001874	56.5873	-133.846	14.7775	0.071722	0.551157	-0.537356	-0.538701	0.037646	56.5873	-0.537855	-1.152404E+7	-3.266746E-9	NaN
1169	1.000000	0.562482	7.37649e+06	-57139.1	1105.82	-29737.2	0.000000	0.000000	6.562943	0.025481	NaN	0.000000	0.001612	0.001721	28.0825	0.076491	0.002015	37.9627	-7.281656	-165.689	0.077626	0.561229	-0.527376	-0.528629	0.025481	37.9627	-0.527879	-8.37751e+06	-3.041549E-9	NaN
1169	1.000000	0.572502	7.37649e+06	-57139.1	1105.82	-29737.2	0.000000	0.000000	6.572961	-0.002319	NaN	0.000000	0.001617	0.001782	28.0823	0.081775	0.002016	40.5574	-13.3917	16.9554	0.074157	0.571186	-0.517356	-0.518672	-0.002319	40.5574	-0.517313	-5.97337e+06	3.882431E-10	NaN
1169	1.000000	0.582503	7.37649e+06	-57139.1	1105.82	-29737.2	0.000000	0.000000	6.582964	0.017945	NaN	0.000000	0.001606	0.001767	28.0826	0.121485	0.001881	64.6	-49.1819	-167.565	0.026167	0.581160	-0.507354	-0.508698	0.017945	64.6	-0.507563	-4.36977e+06	-4.106716E-9	NaN
1169	1.000000	0.592529	7.37649e+06	-57139.1	1105.82	-29737.2	0.000000	0.000000	6.592990	0.026855	NaN	0.000000	0.001641	0.001759	28.0824	0.038881	0.001975	19.6836	154.841	17.403	-0.030889	0.591112	-0.497329	-0.498746	0.026855	19.6836	-0.498352	-3.25103e+06	-8.260349E-9	NaN
1169	1.000000	0.602522	7.37649e+06	-57139.1	1105.82	-29737.2	0.000000	0.000000	6.602984	0.042521	NaN	0.000000	0.001637	0.001734	28.0827	0.070616	0.002078	33.987	-85.3804	-165.372	-0.000274	0.601178	-0.487336	-0.488680	0.042521	33.987	-0.488274	-2.35108e+06	-1.808573E-8	NaN
1169	1.000000	0.612521	7.37649e+06	-57139.1	1105.82	-29737.2	0.000000	0.000000	6.612980	-0.015750	NaN	0.000000	0.001651	0.001745	28.0825	0.090650	0.002083	43.5117	105.701	15.6008	-0.040208	0.611178	-0.477336	-0.478679	-0.015750	43.5117	-0.477065	-1.63842e+06	9.612871E-9	NaN
1169	1.000000	0.622522	7.37649e+06	-57139.1	1105.82	-29737.2	0.000000	0.000000	6.622982	0.021829	NaN	0.000000	0.001645	0.001746	28.0827	0.015257	0.002075	7.354465	-174.301	-163.029	0.073017	0.621219	-0.467336	-0.468639	0.021829	7.354465	-0.469562	-1.28608e+06	-1.697338E-8	NaN
1169	1.000000	0.632532	7.37649e+06	-57139.1	1105.82	-29737.2	0.000000	0.000000	6.632993	0.035675	NaN	0.000000	0.001627	0.001761	28.0812	0.035521	0.002038	17.4289	-117.146	15.9342	0.062090	0.631152	-0.457326	-0.458706	0.035675	17.4289	-0.458861	-909925	-3.920698E-8	NaN
1169	1.000000	0.642542	7.37649e+06	-57139.1	1105.82	-29737.2	0.000000	0.000000	6.643005	0.073131	NaN	0.000000	0.001626	0.001717	28.0813	0.039392	0.002079	18.9475	-177.065	-161.588	0.014760	0.641225	-0.447316	-0.448633	0.073131	18.9475	-0.450210	-687552	-1.063644E-7	NaN
1169	1.000000	0.652540	7.37649e+06	-57139.1	1105.82	-29737.2	0.000000	0.000000	6.653004	0.106128	NaN	0.000000	0.001619	0.001722	28.0812	0.040833	0.002065	19.7775	167.791	14.6929	0.043273	0.651158	-0.437318	-0.438700	0.106128	19.7775	-0.441342	-515595	-2.058361E-7	NaN
1169	1.000000	0.662549	7.37649e+06	-57139.1	1105.82	-29737.2	0.000000	0.000000	6.663010	0.032610	NaN	0.000000	0.001594	0.001711	28.0812	0.028246	0.001869	15.1088	55.9835	-163.942	0.004845	0.661250	-0.427309	-0.428608	0.032610	15.1088	-0.428928	-344261	-9.472318E-8	NaN
1169	1.000000	0.672549	7.37649e+06	-57139.1	1105.82	-29737.2	0.000000	0.000000	6.673010	0.026858	NaN	0.000000	0.001601	0.001741	28.081	0.067989	0.001962	34.6523	160.582	13.7767	0.040000	0.671191	-0.417308	-0.418667	0.026858	34.6523	-0.417890	-240147	-1.118386E-7	NaN
1169	1.000000	0.682553	7.37649e+06	-57139.1	1105.82	-29737.2	0.000000	0.000000	6.683014	0.025903	NaN	0.000000	0.001593	0.001739	28.0812	0.033448	0.002062	16.2195	-77.2629	-167.163	0.050352	0.681259	-0.407304	-0.408599	0.025903	16.2195	-0.408502	-176642	-1.466400E-7	NaN
1169	1.000000	0.692549	7.37649e+06	-57139.1	1105.82	-29737.2	0.000000	0.000000	6.693007	-0.023772	NaN	0.000000	0.001645	0.001744	28.0814	0.084587	0.002056	41.1316	109.92	15.1174	-0.025026	0.691188	-0.397309	-0.398670	-0.023772	41.1316	-0.396876	-120619	1.970851E-7	NaN
1169	1.000000	0.702556	7.37649e+06	-57139.1	1105.82	-29737.2	0.000000	0.000000	6.703018	0.050295	NaN	0.000000	0.001572	0.001721	28.0812	0.044059	0.001909	23.0853	41.6539	-166.699	0.028845	0.701259	-0.387302	-0.388598	0.050295	23.0853	-0.388936	-92883.5	-5.414837E-7	NaN
1169	1.000000	0.712591	7.37649e+06	-57139.1	1105.82	-29737.2	0.000000	0.000000	6.713052	0.024435	NaN	0.000000	0.001591	0.001704	28.0811	0.135819	0.002133	63.6866	175.245	14.3177	0.078808	0.711244	-0.377267	-0.378614	0.024435	63.6866	-0.377554	-63793.6	-3.830245E-7	NaN
1169	1.000000	0.722553	7.37649e+06	-57139.1	1105.82	-29737.2	0.000000	0.000000	6.723015	0.042286	NaN	0.000000	0.001615	0.001738	28.0809	0.035376	0.001932	18.3114	-31.8413	-166.011	0.057814	0.721275	-0.367304	-0.368582	0.042286	18.3114	-0.369036	-48111.1	-8.789171E-7	NaN
1169	1.000000	0.732570	7.37649e+06	-57139.1	1105.82	-29737.2	0.000000	0.000000	6.733033	0.075040	NaN	0.000000	0.001627	0.001764	28.0814	0.043708	0.002069	21.1286	34.0518	12.924	0.002832	0.731256	-0.357287	-0.358602	0.075040	21.1286	-0.359951	-35574.5	-2.109375E-6	NaN
1169	1.000000	0.742551	7.37649e+06	-57139.1	1105.82	-29737.2	0.000000	0.000000	6.743012	0.045016	NaN	0.000000	0.001604	0.001724	28.081	0.115372	0.002149	53.6906	-167.877	-164.067	0.080959	0.741298	-0.347307	-0.348560	0.045016	53.6906	-0.347936	-23824.6	-1.889490E-6	NaN
1169	1.000000	0.752615	7.37649e+06	-57139.1	1105.82	-29737.2	0.000000	0.000000	6.753077	0.047437	NaN	0.000000	0.001632	0.001713	28.0812	0.036628	0.001986	18.4416	174.078	15.7505	0.078978	0.751222	-0.337243	-0.338636	0.047437	18.4416	-0.339172	-17761.5	-2.670808E-6	NaN
1169	1.000000	0.762589	7.37649e+06	-57139.1	1105.82	-29737.2	0.000000	0.000000	6.763049	-0.013491	NaN	0.000000	0.001639	0.001709	28.0811	0.040658	0.001936	20.9973	75.8326	-164.942	-0.043260	0.761307	-0.327268	-0.328550	-0.013491	20.9973	-0.326786	-11704.4	1.152631E-6	NaN
1169	1.000000	0.772592	7.37649e+06	-57139.1	1105.82	-29737.2	0.000000	0.000000	6.773054	0.052685	NaN	0.000000	0.001668	0.001730	28.0824	0.014256	0.001966	7.252228	-178.593	17.2202	0.041113	0.771249	-0.317266	-0.318609	0.052685	7.252228	-0.322714	-10199.1	-5.165658E-6	NaN
1169	1.000000	0.782604	7.37649e+06	-57139.1	1105.82	-29737.2	0.000000	0.000000	6.783063	-0.026302	NaN	0.000000	0.001661	0.001709	28.0823	0.081532	0.001990	40.961	164.11	-163.149	0.010950	0.781327	-0.307253	-0.308530	-0.026302	40.961	-0.306772	-5932.49	4.433569E-6	NaN
1169	1.000000	0.792586	7.37649e+06	-57139.1	1105.82	-29737.2	0.000000	0.000000	6.793046	0.011349	NaN	0.000000	0.001680	0.001763	28.0825	0.054922	0.002068	26.5522	166.067	13.2758	0.074670	0.791256	-0.297271	-0.298601	0.011349	26.5522	-0.297592	-4332.72	-2.619406E-6	NaN
1169	1.000000	0.802603	7.37649e+06	-57139.1	1105.82	-29737.2	0.000000	0.000000	6.803062	-0.011532	NaN	0.000000	0.001689	0.001745	28.0826	0.075492	0.001940	38.911	-87.3495	-166.036	-0.022199	0.801324	-0.287255	-0.288534	-0.011532	38.911	-0.287032	-3011.6	3.829109E-6	NaN
1169	1.000000	0.812608	7.37649e+06	-57139.1	1105.82	-29737.2	0.000000	0.000000	6.813068	0.014171	NaN	0.000000	0.001662	0.001740	28.0824	0.063209	0.002035	31.065	-26.6509	17.2196	0.015781	0.811230	-0.277250	-0.278628	0.014171	31.065	-0.277592	-2170.73	-6.528281E-6	NaN
1169	1.000000	0.822608	7.37649e+06	-57139.1	1105.82	-29737.2	0.000000	0.000000	6.823068	0.027828	NaN	0.000000	0.001682	0.001750	28.0823	0.038021	0.002049	18.5537	-63.0517	-163.539	0.014472	0.821323	-0.267250	-0.268535	0.027828	18.5537	-0.268375	-1573.36	-1.768712E-5	NaN
1169	1.000000	0.832647	7.37649e+06	-57139.1	1105.82	-29737.2	0.000000	0.000000	6.833106	-0.025562	NaN	0.000000	0.001724	0.001724	28.0826	0.143554	0.002022	70.9999	88.679	14.7378	-0.029524	0.831288	-0.257211	-0.258570	-0.025562	70.9999	-0.256941	-1051.88	2.430097E-5	NaN
1169	1.000000	0.842598	7.37649e+06	-57139.1	1105.82	-29737.2	0.000000	0.000000	6.843057	-0.008653	NaN	0.000000	0.001676	0.001771	28.0827	0.069904	0.002056	33.9978	120.337	-162.239	-0.004408	0.841334	-0.247260	-0.248523	-0.008653	33.9978	-0.247069	-740.578	1.168441E-5	NaN
1169	1.000000	0.852662	7.37649e+06	-57139.1	1105.82	-29737.2	0.000000	0.000000	6.853125	0.078368	NaN	0.000000	0.001706	0.001743	28.0826	0.115608	0.002016	57.3497	70.4353	16.045	0.118259	0.851239	-0.237195	-0.238618	0.078368	57.3497	-0.238220	-539.172	-0.000145	NaN
1169	1.000000	0.862639	7.37649e+06	-57139.1	1105.82	-29737.2	0.000000	0.000000	6.863098	-0.013028	NaN	0.000000	0.001713	0.001750	28.0825	0.088206	0.002116	41.6839	48.3487	-163.216	0.029435	0.861381	-0.227219	-0.228477	-0.013028	41.6839	-0.226984	-358.769	3.631296E-5	NaN
1169	1.000000	0.872643	7.37649e+06	-57139.1	1105.82	-29737.2	0.000000	0.000000	6.873100	-0.070473	NaN	0.000000	0.001685	0.001721	28.0825	0.110685	0.002000	55.3302	114.913	13.0403	-0.035715	0.871209	-0.217214	-0.218649	-0.070473	55.3302	-0.216259	-241.963	0.000291	NaN
1169	1.000000	0.882650	7.37649e+06	-57139.1	1105.82	-29737.2	0.000000	0.000000	6.883110	-0.003157	NaN	0.000000	0.001721	0.001720	28.0826	0.039921	0.001896	21.056	111.755	-164.057	0.037328	0.881308	-0.207208	-0.208550	-0.003157	21.056	-0.207095	-172.06	1.834552E-5	NaN
1169	1.000000	0.892633	7.37649e+06	-57139.1	1105.82	-29737.2	0.000000	0.000000	6.893093	-0.000304	NaN	0.000000	0.001704	0.001757	28.0827	0.032618	0.001900	17.1696	74.3813	18.2702	-0.003602	0.891215	-0.197224	-0.198643	-0.000304	17.1696	-0.197211	-118.513	2.564683E-6	NaN
1169	1.000000	0.902641	7.37649e+06	-57139.1	1105.82	-29737.2	0.000000	0.000000	6.903100	-0.014895	NaN	0.000000	0.001679	0.001730	28.0817	0.079397	0.001857	42.7658	-76.4843	-161.733	0.086022	0.901320	-0.187217	-0.188537	-0.014895	42.7658	-0.186955	-79.9889	0.000186	NaN
1169	1.000000	0.912671	7.37649e+06	-57139.1	1105.82	-29737.2	0.000000	0.000000	6.913131	0.017959	NaN	0.000000	0.001684	0.001723	28.0815	0.119279	0.002055	58.0543	136.959	14.6786	0.018445	0.911286	-0.177187	-0.178572	0.017959	58.0543	-0.177419	-55.1371	-0.000326	NaN
1169	1.000000	0.922662	7.37649e+06	-57139.1	1105.82	-29737.2	0.000000	0.000000	6.923120	-0.033423	NaN	0.000000	0.001693	0.001766	28.0812	0.044246	0.001989	22.2495	-32.3356	-165.58	0.012057	0.921304	-0.167196	-0.168554	-0.033423	22.2495	-0.166069	-35.0794	0.000953	NaN
1169	1.000000	0.932670	7.37649e+06	-57139.1	1105.82	-29737.2	0.000000	0.000000	6.933132	0.042028	NaN	0.000000	0.001659	0.001772	28.0816	0.087862	0.002034	43.2063	-5.708420	15.2945	-0.023120	0.931363	-0.157187	-0.158494	0.042028	43.2063	-0.157917	-25.1693	-0.001670	NaN
1169	1.000000	0.942678	7.37649e+06	-57139.1	1105.82	-29737.2	0.000000	0.000000	6.943137	-0.018805	NaN	0.000000	0.001625	0.001771	28.0814	0.041595	0.002099	19.8144	-109.148	-161.685	-0.057662	0.941356	-0.147179	-0.148501	-0.018805	19.8144	-0.146467	-15.6048	0.001205	NaN
1169	1.000000	0.952670	7.37649e+06	-57139.1	1105.82	-29737.2	0.000000	0.000000	6.953128	-0.044335	NaN	0.000000	0.001625	0.001768	28.0816	0.079773	0.001904	41.9017	-120.183	15.6312	-0.019151	0.951325	-0.137188	-0.138533	-0.044335	41.9017	-0.136394	-10.1122	0.004384	NaN
1169	1.000000	0.962663	7.37649e+06	-57139.1	1105.82	-29737.2	0.000000	0.000000	6.963124	0.022014	NaN	0.000000	0.001660	0.001745	28.0813	0.056034	0.001958	28.6246	-122.676	-163.256	0.061027	0.961361	-0.127194	-0.128496	0.022014	28.6246	-0.127771	-6.895064	-0.003193	NaN
1169	1.000000	0.972701	7.37649e+06	-57139.1	1105.82	-29737.2	0.000000	0.000000	6.973162	0.030114	NaN	0.000000	0.001610	0.001754	28.0814	0.009689	0.002036	4.758461	-159.251	15.5848	0.064053	0.971323	-0.117157	-0.118535	0.030114	4.758461	-0.121903	-5.276551	-0.005707	NaN
1169	1.000000	0.982686	7.37649e+06	-57139.1	1105.82	-29737.2	0.000000	0.000000	6.983148	0.065231	NaN	0.000000	0.001614	0.001760	28.0814	0.061092	0.002000	30.5404	61.0786	-165.726	0.062113	0.981395	-0.107172	-0.108463	0.065231	30.5404	-0.108774	-2.830990	-0.023042	NaN
1169	1.000000	0.992684	7.37649e+06	-57139.1	1105.82	-29737.2	0.000000	0.000000	6.993146	0.054262	NaN	0.000000	0.001588	0.001737	28.0815	0.037322	0.001945	19.1929	179.244	15.5725	0.032059	0.991304	-0.097174	-0.098553	0.054262	19.1929	-0.099294	-1.762351	-0.030790	NaN
1169	1.000000	1.002700	7.37649e+06	-57139.1	1105.82	-29737.2	0.000000	0.000000	7.003159	-0.015132	NaN	0.000000	0.001613	0.001784	28.0811	0.158738	0.002044	77.6444	89.0331	-162.766	0.005506	1.001342	-0.087158	-0.088516	-0.015132	77.6444	-0.087012	-0.918459	0.016475	NaN
1169	1.000000	1.012649	7.37649e+06	-57139.1	1105.82	-29737.2	0.000000	0.000000	7.013114	0.128557	NaN	0.000000	0.001572	0.001779	28.0814	0.052612	0.001941	27.1018	144.262	14.4401	0.112980	1.011309	-0.077208	-0.078548	0.128557	27.1018	-0.080766	-0.646830	-0.198750	NaN
1169	1.000000	1.022669	7.37649e+06	-57139.1	1105.82	-29737.2	0.000000	0.000000	7.023126	-0.052199	NaN	0.000000	0.001604	0.001801	28.0816	0.007225	0.002094	3.449719	-118.881	-165.207	0.022615	1.021377	-0.067189	-0.068481	-0.052199	3.449719	-0.055840	-0.136339	0.382858	NaN
1169	1.000000	1.032674	7.37649e+06	-57139.1	1105.82	-29737.2	0.000000	0.000000	7.033138	0.090463	NaN	0.000000	0.001626	0.001761	28.0816	0.143379	0.001914	74.8912	-27.191	15.5533	0.135532	1.031326	-0.057183	-0.058531	0.090463	74.8912	-0.058089	-0.158620	-0.570315	NaN
1169	1.000000	1.042698	7.37649e+06	-57139.1	1105.82	-29737.2	0.000000	0.000000	7.043161	0.066160	NaN	0.000000	0.001592	0.001806	28.0828	0.047509	0.002200	21.5981	147.814	-162.38	0.050140	1.041362	-0.047159	-0.048495	0.066160	21.5981	-0.049457	-0.087859	-0.753022	NaN
1169	1.000000	1.052725	7.37649e+06	-57139.1	1105.82	-29737.2	0.000000	0.000000	7.053186	0.034992	NaN	0.000000	0.001633	0.001762	28.0827	0.074518	0.002074	35.9326	-138.989	16.1297	0.026987	1.051342	-0.037133	-0.038515	0.034992	35.9326	-0.037863	-0.038972	-0.897887	NaN
1169	1.000000	1.062681	7.37649e+06	-57139.1	1105.82	-29737.2	0.000000	0.000000	7.063142	0.021297	NaN	0.000000	0.001629	0.001747	28.0829	0.160976	0.001874	85.8919	11.7725	-164.818	0.005045	1.061414	-0.027176	-0.028443	0.021297	85.8919	-0.027362	-0.019486	-1.092898	NaN
1169	1.000000	1.072696	7.37649e+06	-57139.1	1105.82	-29737.2	0.000000	0.000000	7.073157	0.033956	NaN	0.000000	0.001653	0.001755	28.0826	0.027993	0.001976	14.1633	68.2647	19.6583	0.029083	1.071334	-0.017162	-0.018524	0.033956	14.1633	-0.018960	-0.011816	-2.873638	NaN
1169	1.000000	1.082731	7.37649e+06	-57139.1	1105.82	-29737.2	0.000000	0.000000	7.083191	-0.004128	NaN	0.000000	0.001640	0.001704	28.0827	0.048373	0.001996	24.2345	-91.2107	-163.855	0.020615	1.081409	-0.007126	-0.008449	-0.004128	24.2345	-0.006999	-0.004640	0.889692	NaN
1169	1.000000	1.092682	7.37649e+06	-57139.1	1105.82	-29737.2	0.000000	0.000000	7.093413	6.591874	NaN	0.000000	0.001582	0.001739	28.0826	6.969760	0.001646	4233.87	7.832913	12.5066	4.722428	1.091329	0.002824	0.001472	6.591874	4233.87	0.001657	0.001279	5153.79	108161
1169	2.000000	1.096306	7.37649e+06	-57139.1	1105.82	-29737.2	0.000000	0.000000	7.097153	9.412775	NaN	0.000000	0.001582	0.001737	28.0826	10.0817	0.001662	6067.8	7.969294	-175.362	8.611241	1.096009	0.006448	0.006151	9.412775	6067.8	0.005285	0.004395	2141.77	83624.2
1169	2.000000	1.098763	7.37649e+06	-57139.1	1105.82	-29737.2	0.000000	0.000000	7.099790	13.787	NaN	0.000000	0.001602	0.001731	28.0824	12.5573	0.001645	7633.39	6.447812	7.696203	12.5204	1.098391	0.008905	0.008533	13.787	7633.39	0.007550	0.006584	2094.01	85949.9
1169	2.000000	1.101264	7.37649e+06	-57139.1	1105.82	-29737.2	0.000000	0.000000	7.102484	18.4909	NaN	0.000000	0.001594	0.001751	28.0829	16.4526	0.001950	8435.3	9.592470	-176.249	18.3892	1.100934	0.011406	0.011077	18.4909	8435.3	0.009762	0.008918	2073.39	81608.3
1169	2.000000	1.103737	7.37649e+06	-57139.1	1105.82	-29737.2	0.000000	0.000000	7.105205	24.4913	NaN	0.000000	0.001599	0.001739	28.0823	19.0167	0.001672	11375.1	9.038187	-0.391999	22.7431	1.103352	0.013880	0.013494	24.4913	11375.1	0.012265	0.011809	2073.96	95636.3
1169	2.000000	1.106241	7.37649e+06	-57139.1	1105.82	-29737.2	0.000000	0.000000	7.107813	27.0453	NaN	0.000000	0.001596	0.001755	28.0827	21.0997	0.001884	11200.1	5.681650	-174.506	26.7681	1.105943	0.016383	0.016085	27.0453	11200.1	0.014572	0.014719	1837.47	84345.3
1169	2.000000	1.108696	7.37649e+06	-57139.1	1105.82	-29737.2	0.000000	0.000000	7.110626	35.7458	NaN	0.000000	0.001603	0.001745	28.0821	24.0281	0.001735	13851.3	8.915104	-1.189542	33.2561	1.108341	0.018838	0.018484	35.7458	13851.3	0.016903	0.017907	1996.16	94569.1
1169	2.000000	1.111181	7.37649e+06	-57139.1	1105.82	-29737.2	0.000000	0.000000	7.113343	41.3706	NaN	0.000000	0.001609	0.001752	28.0826	26.4235	0.001780	14846.4	4.209593	-177.298	38.7303	1.110856	0.021323	0.020998	41.3706	14846.4	0.019234	0.021352	1937.54	92826.9
1169	2.000000	1.113697	7.37649e+06	-57139.1	1105.82	-29737.2	0.000000	0.000000	7.116250	50.8818	NaN	0.000000	0.001581	0.001760	28.0824	28.3519	0.001700	16674.9	2.185417	4.103719	47.9354	1.113380	0.023839	0.023523	50.8818	16674.9	0.021551	0.025038	2032.22	96281.3
1169	2.000000	1.116192	7.37649e+06	-57139.1	1105.82	-29737.2	0.000000	0.000000	7.119016	57.4567	NaN	0.000000	0.001611	0.001807	28.0817	31.8975	0.001783	17889.6	8.389755	176.711	55.7478	1.115882	0.026334	0.026024	57.4567	17889.6	0.023926	0.029090	1975.13	95830.1
1169	2.000000	1.118649	7.37649e+06	-57139.1	1105.82	-29737.2	0.000000	0.000000	7.121668	62.1912	NaN	0.000000	0.001618	0.001741	28.0806	34.4284	0.001843	18676.5	7.575720	-3.551605	59.4845	1.118415	0.028792	0.028557	62.1912	18676.5	0.026294	0.033412	1861.32	93350.3
1169	2.000000	1.121262	7.37649e+06	-57139.1	1105.82	-29737.2	0.000000	0.000000	7.124573	69.3016	NaN	0.000000	0.001621	0.001733	28.0816	36.4048	0.001850	19673.3	8.203340	177.491	70.9666	1.120859	0.031404	0.031001	69.3016	19673.3	0.028762	0.038218	1813.34	91943
1169	2.000000	1.123750	7.37649e+06	-57139.1	1105.82	-29737.2	0.000000	0.000000	7.127522	80.5043	NaN	0.000000	0.001609	0.001764	28.0812	37.6151	0.001766	21293.6	1.352621	3.269314	78.9825	1.123372	0.033893	0.033514	80.5043	21293.6	0.031057	0.042963	1873.81	93858.7
1169	2.000000	1.126198	7.37649e+06	-57139.1	1105.82	-29737.2	0.000000	0.000000	7.130381	90.5019	NaN	0.000000	0.001656	0.001768	28.0819	41.3042	0.001889	21870	5.706168	178.041	90.3529	1.125797	0.036340	0.035939	90.5019	21870	0.033236	0.047719	1896.56	91469.6
1169	2.000000	1.128669	7.37649e+06	-57139.1	1105.82	-29737.2	0.000000	0.000000	7.133062	95.6051	NaN	0.000000	0.001667	0.001754	28.081	43.0378	0.001849	23279.6	2.284478	0.321733	94.511	1.128390	0.038811	0.038532	95.6051	23279.6	0.035731	0.053462	1788.29	91987.1
1169	2.000000	1.131173	7.37649e+06	-57139.1	1105.82	-29737.2	0.000000	0.000000	7.135867	102.896	NaN	0.000000	0.001676	0.001769	28.0813	45.7287	0.001739	26297.2	2.203680	179.127	103.109	1.131019	0.041316	0.041161	102.896	26297.2	0.038381	0.059912	1717.46	98158.1
1169	2.000000	1.133662	7.37649e+06	-57139.1	1105.82	-29737.2	0.000000	0.000000	7.138926	116.779	NaN	0.000000	0.001654	0.001770	28.0811	47.7378	0.001704	28016.1	4.852388	-4.133620	113.277	1.133380	0.043804	0.043522	116.779	28016.1	0.040678	0.065793	1774.95	99791.2
1169	2.000000	1.136130	7.37649e+06	-57139.1	1105.82	-29737.2	0.000000	0.000000	7.141860	128.107	NaN	0.000000	0.001609	0.001773	28.0812	49.3656	0.001718	28738.7	4.896805	175.998	124.896	1.135840	0.046272	0.045982	128.107	28738.7	0.042929	0.071816	1783.82	97978.3
1169	2.000000	1.138703	7.37649e+06	-57139.1	1105.82	-29737.2	0.000000	0.000000	7.145064	143.429	NaN	0.000000	0.001629	0.001765	28.0811	51.925	0.001726	30092.3	5.635360	-5.301011	142.675	1.138364	0.048845	0.048506	143.429	30092.3	0.045270	0.078357	1830.46	98217.5
1169	2.000000	1.141195	7.37649e+06	-57139.1	1105.82	-29737.2	0.000000	0.000000	7.147959	153.22	NaN	0.000000	0.001613	0.001756	28.082	55.081	0.001762	31252.1	8.098728	172.392	155.235	1.140834	0.051337	0.050976	153.22	31252.1	0.047660	0.085319	1795.84	97752.8
1169	2.000000	1.143680	7.37649e+06	-57139.1	1105.82	-29737.2	0.000000	0.000000	7.150853	163.151	NaN	0.000000	0.001634	0.001744	28.081	57.3426	0.001768	32427.6	8.403062	-8.204611	163.534	1.143256	0.053823	0.053398	163.151	32427.6	0.050049	0.092566	1762.55	97378.5
1169	2.000000	1.146156	7.37649e+06	-57139.1	1105.82	-29737.2	0.000000	0.000000	7.153875	176.434	NaN	0.000000	0.001645	0.001747	28.0814	59.145	0.001889	31308.1	7.549572	173.503	174.714	1.145742	0.056298	0.055884	176.434	31308.1	0.052072	0.098924	1783.54	90945.4
1169	2.000000	1.148610	7.37649e+06	-57139.1	1105.82	-29737.2	0.000000	0.000000	7.156442	179.201	NaN	0.000000	0.001644	0.001756	28.0819	62.8389	0.001882	33388.9	5.827432	-6.853966	173.572	1.148390	0.058752	0.058532	179.201	33388.9	0.054727	0.107581	1665.73	93005.1
1169	2.000000	1.151145	7.37649e+06	-57139.1	1105.82	-29737.2	0.000000	0.000000	7.159944	202.69	NaN	0.000000	0.001682	0.001762	28.0828	64.5121	0.001811	35614.7	3.094097	176.536	201.058	1.150748	0.061287	0.060890	202.69	35614.7	0.057019	0.115335	1757.4	95812.4
1169	2.000000	1.153596	7.37649e+06	-57139.1	1105.82	-29737.2	0.000000	0.000000	7.163103	219.904	NaN	0.000000	0.001670	0.001747	28.0823	66.3587	0.001782	37234.6	4.004159	-5.201231	215.324	1.153347	0.063738	0.063489	219.904	37234.6	0.059309	0.123341	1782.9	96865
1169	2.000000	1.156074	7.37649e+06	-57139.1	1105.82	-29737.2	0.000000	0.000000	7.166072	231.838	NaN	0.000000	0.001675	0.001763	28.0825	68.1713	0.001744	39087.8	4.915975	174.19	228.413	1.155708	0.066216	0.065851	231.838	39087.8	0.061768	0.132223	1753.39	98211.1
1169	2.000000	1.158621	7.37649e+06	-57139.1	1105.82	-29737.2	0.000000	0.000000	7.169293	248.226	NaN	0.000000	0.001708	0.001729	28.0822	71.7692	0.001801	39855.9	5.562725	-7.560267	245.259	1.158303	0.068763	0.068445	248.226	39855.9	0.064092	0.140889	1761.86	97012.5
1169	2.000000	1.161117	7.37649e+06	-57139.1	1105.82	-29737.2	0.000000	0.000000	7.172381	262.598	NaN	0.000000	0.001699	0.001775	28.0824	74.266	0.001823	40748.1	3.392168	174.625	259.984	1.160829	0.071260	0.070971	262.598	40748.1	0.066426	0.149855	1752.35	96171.1
1169	2.000000	1.163678	7.37649e+06	-57139.1	1105.82	-29737.2	0.000000	0.000000	7.175525	276.779	NaN	0.000000	0.001650	0.001776	28.0822	74.5771	0.001770	42136	2.455167	-3.994052	276.57	1.163357	0.073820	0.073499	276.779	42136	0.068894	0.159616	1734.03	96358.1
1169	2.000000	1.166170	7.37649e+06	-57139.1	1105.82	-29737.2	0.000000	0.000000	7.178774	295.157	NaN	0.000000	0.001645	0.001757	28.0823	78.5052	0.001831	42867	6.248611	171.42	297.071	1.165793	0.076312	0.075936	295.157	42867	0.071148	0.168791	1748.65	95328.4
1169	2.000000	1.168608	7.37649e+06	-57139.1	1105.82	-29737.2	0.000000	0.000000	7.181952	313.175	NaN	0.000000	0.001662	0.001715	28.0825	80.3469	0.001882	42684	5.211325	-7.486616	309.821	1.168190	0.078750	0.078332	313.175	42684	0.073247	0.177547	1763.9	92551
1169	2.000000	1.171118	7.37649e+06	-57139.1	1105.82	-29737.2	0.000000	0.000000	7.185061	327.716	NaN	0.000000	0.001667	0.001745	28.0823	82.4574	0.001809	45585.6	4.687501	172.638	326.232	1.170778	0.081260	0.080920	327.716	45585.6	0.075868	0.188775	1736.01	95858
1169	2.000000	1.173663	7.37649e+06	-57139.1	1105.82	-29737.2	0.000000	0.000000	7.188418	347.458	NaN	0.000000	0.001669	0.001731	28.0824	83.8768	0.001831	45810.1	2.402679	-4.609841	346.46	1.173282	0.083805	0.083424	347.458	45810.1	0.078116	0.198663	1748.98	93902.3
1169	2.000000	1.176188	7.37649e+06	-57139.1	1105.82	-29737.2	0.000000	0.000000	7.191735	366.706	NaN	0.000000	0.001687	0.001729	28.0823	86.0627	0.001736	49586.7	3.453258	173.934	368.264	1.175729	0.086330	0.085871	366.706	49586.7	0.080784	0.210701	1740.41	98697.3
1169	2.000000	1.178562	7.37649e+06	-57139.1	1105.82	-29737.2	0.000000	0.000000	7.194742	382.082	NaN	0.000000	0.001664	0.001735	28.0825	87.804	0.001706	51461.7	-0.382439	-3.141850	376.114	1.178257	0.088705	0.088400	382.082	51461.7	0.083136	0.221591	1724.27	99880.7
1169	2.000000	1.181097	7.37649e+06	-57139.1	1105.82	-29737.2	0.000000	0.000000	7.197906	397.371	NaN	0.000000	0.001682	0.001733	28.0825	91.7544	0.001817	50486.2	2.370475	174.309	395.868	1.180872	0.091239	0.091014	397.371	50486.2	0.085336	0.232006	1712.76	95762.5
1169	2.000000	1.183641	7.37649e+06	-57139.1	1105.82	-29737.2	0.000000	0.000000	7.201347	419.172	NaN	0.000000	0.001677	0.001701	28.0811	92.8447	0.001751	53030.3	0.764201	-4.204996	417.596	1.183288	0.093783	0.093431	419.172	53030.3	0.087855	0.244209	1716.45	98043
1169	2.000000	1.186037	7.37649e+06	-57139.1	1105.82	-29737.2	0.000000	0.000000	7.204629	440.703	NaN	0.000000	0.001681	0.001710	28.0811	95.4142	0.001805	52875.5	5.659222	170.755	436.523	1.185722	0.096179	0.095864	440.703	52875.5	0.089928	0.254471	1731.84	95765.5
1169	2.000000	1.188626	7.37649e+06	-57139.1	1105.82	-29737.2	0.000000	0.000000	7.207766	454.027	NaN	0.000000	0.001670	0.001720	28.0811	98.7569	0.001790	55168.1	3.663759	-7.943884	452.887	1.188294	0.098769	0.098436	454.027	55168.1	0.092596	0.267966	1694.35	97369.2
1169	2.000000	1.191111	7.37649e+06	-57139.1	1105.82	-29737.2	0.000000	0.000000	7.211128	475.352	NaN	0.000000	0.001660	0.001730	28.0811	102.561	0.001884	54442.5	6.282851	169.391	474.98	1.190763	0.101253	0.100906	475.352	54442.5	0.094705	0.278863	1704.61	94192.5
1169	2.000000	1.192545	7.37649e+06	-57139.1	1105.82	-29737.2	0.000000	0.000000	7.213352	494.557	NaN	0.000000	0.001677	0.001750	28.0813	102.965	0.001887	54563.9	4.818969	-8.502664	488.877	1.192251	0.102687	0.102393	494.557	54563.9	0.095889	0.285073	1734.84	93368.7