File: remote_trans/data/nanoindenter/0828-1/data/Data_2025-08-06,11h17m57s/2025-07-22_16-23-58_1_386.txt
2025-07-22, 16:23:58, 1
Index	Phase	Displacement	Time	Pos X	Pos Y	Pos Z	Rot A	Rot B	Piezo Z	Force A	Force B	Gripper	Voltage A	Voltage B	Temperature	Amplitude force	Amplitude pos	Stiffness	Phase shift	Phase excitation	Force A raw	Displacement raw	HMax	HMax raw	Real Force	Real Stiffness	Contact Depth	Area	Hardness	Reduced Mod.
[#]	[#]	[um]	[s]	[um]	[um]	[um]	[m°]	[m°]	[um]	[uN]	[uN]	[V]	[V]	[V]	[°C]	[uN]	[um]	[N/m]	[°]	[°]	[uN]	[um]	[um]	[um]	[uN]	[N/m]	[um]	[um^2]	[MPa]	[MPa]
386	1.000000	0.002407	7.36884e+06	-57789.1	1005.82	-29736.6	0.000000	0.000000	6.002800	-0.004917	NaN	0.000000	0.001687	0.001685	28.0796	0.073666	0.000955	77.098	-39.4068	-165.773	-0.025786	0.001127	-1.022866	-1.024146	-0.004917	77.098	-1.022818	-4.601144E+13	1.068565E-16	NaN
386	1.000000	0.010395	7.36884e+06	-57789.1	1005.82	-29736.6	0.000000	0.000000	6.010789	0.036557	NaN	0.000000	0.001659	0.001662	28.0797	0.093188	0.000931	100.143	45.5293	-170.114	0.076964	0.009030	-1.014878	-1.016243	0.036557	100.143	-1.015152	-3.628370E+13	-1.007535E-15	NaN
386	1.000000	0.018383	7.36884e+06	-57789.1	1005.82	-29736.6	0.000000	0.000000	6.018779	0.082884	NaN	0.000000	0.001625	0.001662	28.0798	0.083789	0.001668	50.231	37.6419	-166.821	0.107366	0.017083	-1.006890	-1.008190	0.082884	50.231	-1.008127	-2.918609E+13	-2.839841E-15	NaN
386	1.000000	0.026385	7.36884e+06	-57789.1	1005.82	-29736.6	0.000000	0.000000	6.026780	0.052252	NaN	0.000000	0.001600	0.001645	28.0798	0.033241	0.001947	17.0742	-30.5361	-161.806	0.127855	0.025041	-0.998888	-1.000232	0.052252	17.0742	-1.001183	-2.353412E+13	-2.220251E-15	NaN
386	1.000000	0.034367	7.36884e+06	-57789.1	1005.82	-29736.6	0.000000	0.000000	6.034763	0.088892	NaN	0.000000	0.001628	0.001657	28.08	0.058137	0.001929	30.1335	-142.744	-166.101	0.057392	0.033113	-0.990906	-0.992160	0.088892	30.1335	-0.993118	-1.832770E+13	-4.850129E-15	NaN
386	1.000000	0.042374	7.36884e+06	-57789.1	1005.82	-29736.6	0.000000	0.000000	6.042766	-0.033045	NaN	0.000000	0.001610	0.001651	28.0796	0.045674	0.002012	22.7059	-146.844	-165.287	-0.014357	0.041042	-0.982899	-0.984231	-0.033045	22.7059	-0.981807	-1.290494E+13	2.560644E-15	NaN
386	1.000000	0.050361	7.36884e+06	-57789.1	1005.82	-29736.6	0.000000	0.000000	6.050757	0.075941	NaN	0.000000	0.001595	0.001674	28.0797	0.103325	0.001952	52.9363	114.699	-164.79	0.052681	0.049064	-0.974912	-0.976209	0.075941	52.9363	-0.975988	-1.077337E+13	-7.048937E-15	NaN
386	1.000000	0.058369	7.36884e+06	-57789.1	1005.82	-29736.6	0.000000	0.000000	6.058765	0.067907	NaN	0.000000	0.001597	0.001694	28.0799	0.094709	0.001745	54.2839	-175.281	-161.832	-0.012591	0.057067	-0.966904	-0.968206	0.067907	54.2839	-0.967842	-8.367127E+12	-8.115912E-15	NaN
386	1.000000	0.066409	7.36884e+06	-57789.1	1005.82	-29736.6	0.000000	0.000000	6.066803	0.027020	NaN	0.000000	0.001575	0.001686	28.0796	0.061578	0.002032	30.3045	170.961	-167.061	0.098694	0.065074	-0.958864	-0.960199	0.027020	30.3045	-0.959532	-6.464947E+12	-4.179407E-15	NaN
386	1.000000	0.074363	7.36884e+06	-57789.1	1005.82	-29736.6	0.000000	0.000000	6.074755	0.000590	NaN	0.000000	0.001619	0.001688	28.0799	0.024089	0.002089	11.5301	-146.887	-165.439	-0.026417	0.073064	-0.950910	-0.952209	0.000590	11.5301	-0.950949	-4.952467E+12	-1.191314E-16	NaN
386	1.000000	0.082372	7.36884e+06	-57789.1	1005.82	-29736.6	0.000000	0.000000	6.082767	0.068076	NaN	0.000000	0.001619	0.001644	28.0795	0.056983	0.002038	27.9546	-63.0405	-166.513	0.075098	0.081096	-0.942901	-0.944177	0.068076	27.9546	-0.944728	-4.082408E+12	-1.667540E-14	NaN
386	1.000000	0.090344	7.36884e+06	-57789.1	1005.82	-29736.6	0.000000	0.000000	6.090738	0.029546	NaN	0.000000	0.001609	0.001708	28.0795	0.044507	0.002047	21.7391	-100.041	-166.607	0.007235	0.089047	-0.934929	-0.936226	0.029546	21.7391	-0.935949	-3.107952E+12	-9.506609E-15	NaN
386	1.000000	0.098364	7.36884e+06	-57789.1	1005.82	-29736.6	0.000000	0.000000	6.098758	0.032986	NaN	0.000000	0.001579	0.001708	28.0796	0.059262	0.001953	30.3512	144.446	-167.179	-0.010877	0.097007	-0.926909	-0.928266	0.032986	30.3512	-0.927724	-2.406995E+12	-1.370411E-14	NaN
386	1.000000	0.106383	7.36884e+06	-57789.1	1005.82	-29736.6	0.000000	0.000000	6.106776	0.015296	NaN	0.000000	0.001600	0.001728	28.0796	0.091583	0.001933	47.3732	135.357	-162.944	0.059674	0.105016	-0.918890	-0.920257	0.015296	47.3732	-0.919132	-1.842850E+12	-8.299976E-15	NaN
386	1.000000	0.114373	7.36884e+06	-57789.1	1005.82	-29736.6	0.000000	0.000000	6.114768	0.057838	NaN	0.000000	0.001576	0.001660	28.0812	0.091428	0.001921	47.5877	165.674	-165.681	0.029916	0.113070	-0.910900	-0.912203	0.057838	47.5877	-0.911811	-1.467667E+12	-3.940797E-14	NaN
386	1.000000	0.122412	7.36884e+06	-57789.1	1005.82	-29736.6	0.000000	0.000000	6.122807	0.067391	NaN	0.000000	0.001608	0.001668	28.0811	0.019994	0.002093	9.553425	-48.9181	-166.227	0.055449	0.121108	-0.902861	-0.904165	0.067391	9.553425	-0.908152	-1.309778E+12	-5.145255E-14	NaN
386	1.000000	0.130397	7.36884e+06	-57789.1	1005.82	-29736.6	0.000000	0.000000	6.130791	0.040209	NaN	0.000000	0.001597	0.001686	28.0812	0.082375	0.002064	39.9063	-75.6382	-164.204	-0.038368	0.129097	-0.894876	-0.896176	0.040209	39.9063	-0.895632	-8.872238E+11	-4.531967E-14	NaN
386	1.000000	0.138400	7.36884e+06	-57789.1	1005.82	-29736.6	0.000000	0.000000	6.138792	-0.003765	NaN	0.000000	0.001664	0.001689	28.0811	0.086315	0.001859	46.4337	-178.51	-166.255	0.023161	0.137073	-0.886873	-0.888200	-0.003765	46.4337	-0.886812	-6.742515E+11	5.583744E-15	NaN
386	1.000000	0.146390	7.36884e+06	-57789.1	1005.82	-29736.6	0.000000	0.000000	6.146783	0.005947	NaN	0.000000	0.001540	0.001645	28.0811	0.047289	0.001949	24.2619	36.7527	-161.715	-0.000157	0.145052	-0.878883	-0.880221	0.005947	24.2619	-0.879066	-5.297632E+11	-1.122645E-14	NaN
386	1.000000	0.154391	7.36884e+06	-57789.1	1005.82	-29736.6	0.000000	0.000000	6.154784	0.017422	NaN	0.000000	0.001551	0.001656	28.0812	0.049377	0.002095	23.5708	-47.596	-167.667	-0.013010	0.153078	-0.870882	-0.872195	0.017422	23.5708	-0.871437	-4.177144E+11	-4.170724E-14	NaN
386	1.000000	0.162425	7.36884e+06	-57789.1	1005.82	-29736.6	0.000000	0.000000	6.162818	0.013549	NaN	0.000000	0.001567	0.001656	28.0809	0.013474	0.002017	6.681238	-178.861	-164.442	0.093030	0.161086	-0.862848	-0.864187	0.013549	6.681238	-0.864369	-3.351572E+11	-4.042694E-14	NaN
386	1.000000	0.170382	7.36884e+06	-57789.1	1005.82	-29736.6	0.000000	0.000000	6.170777	0.034939	NaN	0.000000	0.001586	0.001643	28.0814	0.052000	0.002014	25.817	80.2311	-164.498	0.045470	0.169081	-0.854891	-0.856192	0.034939	25.817	-0.855906	-2.574523E+11	-1.357108E-13	NaN
386	1.000000	0.178434	7.36884e+06	-57789.1	1005.82	-29736.6	0.000000	0.000000	6.178828	0.049457	NaN	0.000000	0.001570	0.001635	28.0811	0.032214	0.002059	15.6475	113.045	-167.357	0.095139	0.177161	-0.846839	-0.848112	0.049457	15.6475	-0.849210	-2.089472E+11	-2.366961E-13	NaN
386	1.000000	0.186393	7.36884e+06	-57789.1	1005.82	-29736.6	0.000000	0.000000	6.186789	0.076008	NaN	0.000000	0.001574	0.001659	28.0811	0.090333	0.002008	44.9775	-82.7177	-163.878	0.078567	0.185109	-0.838880	-0.840163	0.076008	44.9775	-0.840147	-1.575031E+11	-4.825826E-13	NaN
386	1.000000	0.194420	7.36884e+06	-57789.1	1005.82	-29736.6	0.000000	0.000000	6.194816	0.071992	NaN	0.000000	0.001556	0.001678	28.081	0.027057	0.002024	13.3673	138.016	-166.231	0.004868	0.193111	-0.830853	-0.832162	0.071992	13.3673	-0.834892	-1.336845E+11	-5.385238E-13	NaN
386	1.000000	0.202417	7.36884e+06	-57789.1	1005.82	-29736.6	0.000000	0.000000	6.202812	0.043805	NaN	0.000000	0.001620	0.001678	28.081	0.044021	0.001965	22.405	62.0403	-163.408	0.072597	0.201104	-0.822856	-0.824169	0.043805	22.405	-0.824322	-9.612051E+10	-4.557325E-13	NaN
386	1.000000	0.210416	7.36884e+06	-57789.1	1005.82	-29736.6	0.000000	0.000000	6.210811	0.035356	NaN	0.000000	0.001627	0.001672	28.0812	0.026171	0.002151	12.1693	-171.661	-166.741	0.041092	0.209118	-0.814857	-0.816155	0.035356	12.1693	-0.817036	-7.656120E+10	-4.617999E-13	NaN
386	1.000000	0.218412	7.36884e+06	-57789.1	1005.82	-29736.6	0.000000	0.000000	6.218806	0.030589	NaN	0.000000	0.001657	0.001704	28.0815	0.150586	0.002018	74.6077	18.7996	-165.471	0.043571	0.217123	-0.806861	-0.808150	0.030589	74.6077	-0.807169	-5.625440E+10	-5.437599E-13	NaN
386	1.000000	0.226465	7.36884e+06	-57789.1	1005.82	-29736.6	0.000000	0.000000	6.226859	0.027077	NaN	0.000000	0.001624	0.001706	28.0812	0.025875	0.001930	13.409	134.53	-163.342	0.021171	0.225100	-0.798808	-0.800173	0.027077	13.409	-0.800322	-4.541913E+10	-5.961620E-13	NaN
386	1.000000	0.234412	7.36884e+06	-57789.1	1005.82	-29736.6	0.000000	0.000000	6.234808	0.071745	NaN	0.000000	0.001618	0.001667	28.0814	0.015309	0.001908	8.023475	95.5528	-163.71	0.111429	0.233107	-0.790860	-0.792166	0.071745	8.023475	-0.797567	-4.167091E+10	-1.721711E-12	NaN
386	1.000000	0.242442	7.36884e+06	-57789.1	1005.82	-29736.6	0.000000	0.000000	6.242840	0.112484	NaN	0.000000	0.001615	0.001674	28.0814	0.071898	0.002171	33.1249	87.4235	-161.935	0.093905	0.241163	-0.782831	-0.784110	0.112484	33.1249	-0.785378	-2.846401E+10	-3.951814E-12	NaN
386	1.000000	0.250450	7.36884e+06	-57789.1	1005.82	-29736.6	0.000000	0.000000	6.250844	0.036774	NaN	0.000000	0.001647	0.001642	28.0803	0.078884	0.002154	36.6157	-161.841	-165.067	0.030169	0.249123	-0.774823	-0.776150	0.036774	36.6157	-0.775576	-2.094644E+10	-1.755597E-12	NaN
386	1.000000	0.258428	7.36884e+06	-57789.1	1005.82	-29736.6	0.000000	0.000000	6.258823	0.059770	NaN	0.000000	0.001628	0.001659	28.08	0.089456	0.001944	46.0281	147.116	-163.892	0.011226	0.257163	-0.766845	-0.768110	0.059770	46.0281	-0.767819	-1.643040E+10	-3.637748E-12	NaN
386	1.000000	0.266438	7.36884e+06	-57789.1	1005.82	-29736.6	0.000000	0.000000	6.266832	0.019220	NaN	0.000000	0.001648	0.001668	28.0803	0.084685	0.001946	43.5253	-2.367819	-166.857	-0.002482	0.265100	-0.758835	-0.760173	0.019220	43.5253	-0.759166	-1.253012E+10	-1.533882E-12	NaN
386	1.000000	0.274461	7.36884e+06	-57789.1	1005.82	-29736.6	0.000000	0.000000	6.274854	0.014485	NaN	0.000000	0.001634	0.001664	28.0802	0.064944	0.001988	32.6654	127.098	-163.813	0.076444	0.273175	-0.750812	-0.752097	0.014485	32.6654	-0.751145	-9.745543E+9	-1.486354E-12	NaN
386	1.000000	0.282448	7.36884e+06	-57789.1	1005.82	-29736.6	0.000000	0.000000	6.282841	0.012782	NaN	0.000000	0.001631	0.001722	28.0803	0.028574	0.001947	14.6746	-67.0691	-166.81	-0.014236	0.281128	-0.742825	-0.744145	0.012782	14.6746	-0.743478	-7.663454E+9	-1.667980E-12	NaN
386	1.000000	0.290449	7.36884e+06	-57789.1	1005.82	-29736.6	0.000000	0.000000	6.290842	0.008645	NaN	0.000000	0.001626	0.001683	28.0802	0.160396	0.001921	83.5127	-102.47	-166.489	0.045907	0.289154	-0.734824	-0.736119	0.008645	83.5127	-0.734901	-5.855983E+9	-1.476226E-12	NaN
386	1.000000	0.298451	7.36884e+06	-57789.1	1005.82	-29736.6	0.000000	0.000000	6.298842	-0.049207	NaN	0.000000	0.001601	0.001671	28.0799	0.052367	0.001856	28.2179	-174.522	-166.297	-0.087382	0.297200	-0.726822	-0.728073	-0.049207	28.2179	-0.725514	-4.361747E+9	1.128147E-11	NaN
386	1.000000	0.306475	7.36884e+06	-57789.1	1005.82	-29736.6	0.000000	0.000000	6.306868	0.018340	NaN	0.000000	0.001623	0.001643	28.08	0.094663	0.001926	49.1447	-41.3307	-165.927	0.056842	0.305142	-0.718798	-0.720131	0.018340	49.1447	-0.719078	-3.563711E+9	-5.146205E-12	NaN
386	1.000000	0.314467	7.36884e+06	-57789.1	1005.82	-29736.6	0.000000	0.000000	6.314859	-0.021308	NaN	0.000000	0.001612	0.001679	28.0799	0.033773	0.001937	17.4372	-103.246	-163.6	-0.046055	0.313199	-0.710806	-0.712074	-0.021308	17.4372	-0.709889	-2.670153E+9	7.980068E-12	NaN
386	1.000000	0.322482	7.36884e+06	-57789.1	1005.82	-29736.6	0.000000	0.000000	6.322873	-0.041170	NaN	0.000000	0.001608	0.001666	28.0799	0.045907	0.002103	21.8284	-96.4611	-166.52	-0.024788	0.321222	-0.702791	-0.704051	-0.041170	21.8284	-0.701376	-2.043260E+9	2.014931E-11	NaN
386	1.000000	0.330505	7.36884e+06	-57789.1	1005.82	-29736.6	0.000000	0.000000	6.330900	0.061778	NaN	0.000000	0.001630	0.001684	28.0802	0.121331	0.001931	62.8237	97.7121	-164.788	0.126707	0.329145	-0.694768	-0.696128	0.061778	62.8237	-0.695506	-1.698814E+9	-3.636565E-11	NaN
386	1.000000	0.338470	7.36884e+06	-57789.1	1005.82	-29736.6	0.000000	0.000000	6.338865	0.047936	NaN	0.000000	0.001616	0.001677	28.0799	0.045581	0.002210	20.625	-133.083	-164.453	-0.027887	0.337126	-0.686803	-0.688147	0.047936	20.625	-0.688546	-1.364718E+9	-3.512505E-11	NaN
386	1.000000	0.346473	7.36884e+06	-57789.1	1005.82	-29736.6	0.000000	0.000000	6.346865	-0.002482	NaN	0.000000	0.001576	0.001699	28.0803	0.089857	0.002056	43.6973	119.994	-165.342	0.043308	0.345163	-0.678800	-0.680110	-0.002482	43.6973	-0.678758	-1.002796E+9	2.474750E-12	NaN
386	1.000000	0.354490	7.36884e+06	-57789.1	1005.82	-29736.6	0.000000	0.000000	6.354886	0.095735	NaN	0.000000	0.001605	0.001688	28.0801	0.099089	0.001835	54.0051	-8.352533	-166.092	0.000219	0.353163	-0.670783	-0.672110	0.095735	54.0051	-0.672113	-8.134024E+8	-1.176971E-10	NaN
386	1.000000	0.362463	7.36884e+06	-57789.1	1005.82	-29736.6	0.000000	0.000000	6.362862	0.141429	NaN	0.000000	0.001601	0.001658	28.0801	0.005051	0.001986	2.542714	-69.7014	-167.517	0.052817	0.361168	-0.662810	-0.664105	0.141429	2.542714	-0.704526	-2.255943E+9	-6.269170E-11	NaN
386	1.000000	0.370504	7.36884e+06	-57789.1	1005.82	-29736.6	0.000000	0.000000	6.370897	-0.000436	NaN	0.000000	0.001619	0.001652	28.0814	0.015725	0.002018	7.793262	-172.97	-167.084	-0.040834	0.369161	-0.654769	-0.656112	-0.000436	7.793262	-0.654727	-4.701388E+8	9.268574E-13	NaN
386	1.000000	0.378505	7.36884e+06	-57789.1	1005.82	-29736.6	0.000000	0.000000	6.378898	-0.002712	NaN	0.000000	0.001620	0.001689	28.0799	0.041397	0.002054	20.1515	-97.7713	-163.198	0.026448	0.377150	-0.646768	-0.648123	-0.002712	20.1515	-0.646667	-3.645299E+8	7.438994E-12	NaN
386	1.000000	0.386508	7.36884e+06	-57789.1	1005.82	-29736.6	0.000000	0.000000	6.386903	0.041043	NaN	0.000000	0.001618	0.001677	28.0814	0.129942	0.002013	64.5418	118.796	-168.415	0.034310	0.385213	-0.638765	-0.640060	0.041043	64.5418	-0.639242	-2.883274E+8	-1.423469E-10	NaN
386	1.000000	0.394487	7.36884e+06	-57789.1	1005.82	-29736.6	0.000000	0.000000	6.394886	0.143745	NaN	0.000000	0.001597	0.001653	28.0813	0.028173	0.001942	14.5107	-148.985	-162.349	0.144336	0.393185	-0.630786	-0.632088	0.143745	14.5107	-0.638215	-2.791271E+8	-5.149811E-10	NaN
386	1.000000	0.402491	7.36884e+06	-57789.1	1005.82	-29736.6	0.000000	0.000000	6.402885	0.016740	NaN	0.000000	0.001605	0.001643	28.0812	0.055687	0.001932	28.8221	143.082	-165.391	-0.019940	0.401252	-0.622782	-0.624021	0.016740	28.8221	-0.623218	-1.737211E+8	-9.636417E-11	NaN
386	1.000000	0.410518	7.36884e+06	-57789.1	1005.82	-29736.6	0.000000	0.000000	6.410912	0.038796	NaN	0.000000	0.001594	0.001675	28.0813	0.010236	0.002115	4.839001	67.1908	-164.088	0.072004	0.409235	-0.614755	-0.616038	0.038796	4.839001	-0.620769	-1.607669E+8	-2.413213E-10	NaN
386	1.000000	0.418499	7.36884e+06	-57789.1	1005.82	-29736.6	0.000000	0.000000	6.418891	-0.015100	NaN	0.000000	0.001574	0.001653	28.0814	0.033530	0.002096	15.997	41.5487	-165.091	-0.046857	0.417253	-0.606774	-0.608020	-0.015100	15.997	-0.606066	-1.009190E+8	1.496289E-10	NaN
386	1.000000	0.426512	7.36884e+06	-57789.1	1005.82	-29736.6	0.000000	0.000000	6.426906	0.045666	NaN	0.000000	0.001591	0.001653	28.0816	0.017019	0.002032	8.376106	-149.894	-167.181	0.018084	0.425168	-0.598761	-0.600105	0.045666	8.376106	-0.602850	-9.114051E+7	-5.010552E-10	NaN
386	1.000000	0.434492	7.36884e+06	-57789.1	1005.82	-29736.6	0.000000	0.000000	6.434886	0.024947	NaN	0.000000	0.001578	0.001675	28.0813	0.016164	0.001999	8.084191	-62.1472	-165.648	0.066754	0.433184	-0.590781	-0.592089	0.024947	8.084191	-0.593095	-6.688540E+7	-3.729869E-10	NaN
386	1.000000	0.442514	7.36884e+06	-57789.1	1005.82	-29736.6	0.000000	0.000000	6.442912	0.134752	NaN	0.000000	0.001577	0.001685	28.0811	0.170430	0.001974	86.3553	-149.835	-165.961	0.211104	0.441245	-0.582759	-0.584027	0.134752	86.3553	-0.583929	-4.999698E+7	-2.695197E-9	NaN
386	1.000000	0.450526	7.36884e+06	-57789.1	1005.82	-29736.6	0.000000	0.000000	6.450921	0.056613	NaN	0.000000	0.001609	0.001704	28.0814	0.075938	0.001948	38.9789	88.4551	-165.244	0.093828	0.449244	-0.574747	-0.576029	0.056613	38.9789	-0.575837	-3.865920E+7	-1.464422E-9	NaN
386	1.000000	0.458533	7.36884e+06	-57789.1	1005.82	-29736.6	0.000000	0.000000	6.458926	0.021083	NaN	0.000000	0.001625	0.001650	28.0811	0.096057	0.001975	48.6398	-107.015	-167.46	0.069640	0.457193	-0.566740	-0.568080	0.021083	48.6398	-0.567065	-2.924658E+7	-7.208645E-10	NaN
386	1.000000	0.466535	7.36884e+06	-57789.1	1005.82	-29736.6	0.000000	0.000000	6.466931	0.100588	NaN	0.000000	0.001625	0.001652	28.0816	0.050206	0.002019	24.8627	-91.5334	-163.47	0.096844	0.465234	-0.558738	-0.560039	0.100588	24.8627	-0.561773	-2.471144E+7	-4.070519E-9	NaN
386	1.000000	0.474536	7.36884e+06	-57789.1	1005.82	-29736.6	0.000000	0.000000	6.474930	0.036666	NaN	0.000000	0.001607	0.001654	28.0815	0.098754	0.001982	49.8326	42.7537	-166.338	-0.007920	0.473186	-0.550737	-0.552087	0.036666	49.8326	-0.551289	-1.769339E+7	-2.072297E-9	NaN
386	1.000000	0.482549	7.36884e+06	-57789.1	1005.82	-29736.6	0.000000	0.000000	6.482944	0.045088	NaN	0.000000	0.001613	0.001666	28.0814	0.129298	0.002057	62.8629	157.078	-161.92	0.059044	0.481233	-0.542724	-0.544040	0.045088	62.8629	-0.543262	-1.369565E+7	-3.292169E-9	NaN
386	1.000000	0.490541	7.36884e+06	-57789.1	1005.82	-29736.6	0.000000	0.000000	6.490937	0.073211	NaN	0.000000	0.001608	0.001669	28.0813	0.176651	0.001907	92.6499	-27.8467	-163.953	0.022063	0.489221	-0.534732	-0.536052	0.073211	92.6499	-0.535325	-1.062904E+7	-6.887799E-9	NaN
386	1.000000	0.498571	7.36884e+06	-57789.1	1005.82	-29736.6	0.000000	0.000000	6.498966	0.050815	NaN	0.000000	0.001597	0.001693	28.0814	0.072296	0.002132	33.9026	-66.5968	-167.123	-0.011762	0.497240	-0.526702	-0.528033	0.050815	33.9026	-0.527826	-8.36325e+06	-6.076003E-9	NaN
386	1.000000	0.506536	7.36884e+06	-57789.1	1005.82	-29736.6	0.000000	0.000000	6.506934	0.130019	NaN	0.000000	0.001602	0.001716	28.0816	0.044924	0.001881	23.8846	-140.908	-163.956	0.077395	0.505230	-0.518737	-0.520043	0.130019	23.8846	-0.522820	-7.1253e+06	-1.824757E-8	NaN
386	1.000000	0.514506	7.36884e+06	-57789.1	1005.82	-29736.6	0.000000	0.000000	6.514901	0.060468	NaN	0.000000	0.001591	0.001665	28.0814	0.108758	0.001913	56.8637	5.875766	-167.401	0.004300	0.513257	-0.510767	-0.512016	0.060468	56.8637	-0.511565	-4.96834e+06	-1.217076E-8	NaN
386	1.000000	0.522527	7.36884e+06	-57789.1	1005.82	-29736.6	0.000000	0.000000	6.522921	0.026456	NaN	0.000000	0.001602	0.001672	28.0804	0.092251	0.002054	44.9079	-92.6551	-167.307	0.108677	0.521252	-0.502746	-0.504021	0.026456	44.9079	-0.503188	-3.79737e+06	-6.967014E-9	NaN
386	1.000000	0.530594	7.36884e+06	-57789.1	1005.82	-29736.6	0.000000	0.000000	6.530989	0.048477	NaN	0.000000	0.001609	0.001685	28.0802	0.055487	0.001974	28.1127	14.559	-165.34	0.032008	0.529265	-0.494679	-0.496008	0.048477	28.1127	-0.495972	-3.0117e+06	-1.609630E-8	NaN
386	1.000000	0.538554	7.36884e+06	-57789.1	1005.82	-29736.6	0.000000	0.000000	6.538948	0.028343	NaN	0.000000	0.001603	0.001637	28.0802	0.036983	0.001982	18.66	56.2692	-165.807	0.010596	0.537271	-0.486719	-0.488002	0.028343	18.66	-0.487858	-2.31983e+06	-1.221763E-8	NaN
386	1.000000	0.546585	7.36884e+06	-57789.1	1005.82	-29736.6	0.000000	0.000000	6.546980	0.055392	NaN	0.000000	0.001614	0.001688	28.0801	0.083592	0.001979	42.2378	41.2211	-165.828	0.131131	0.545264	-0.478688	-0.480009	0.055392	42.2378	-0.479671	-1.78208e+06	-3.108291E-8	NaN
386	1.000000	0.554608	7.36884e+06	-57789.1	1005.82	-29736.6	0.000000	0.000000	6.555000	-0.026100	NaN	0.000000	0.001657	0.001686	28.0799	0.120174	0.001955	61.4641	-118.555	-164.73	0.018352	0.553264	-0.470664	-0.472009	-0.026100	61.4641	-0.470346	-1.31905e+06	1.978737E-8	NaN
386	1.000000	0.562579	7.36884e+06	-57789.1	1005.82	-29736.6	0.000000	0.000000	6.562971	0.001659	NaN	0.000000	0.001620	0.001685	28.0802	0.111921	0.002149	52.0759	163.414	-164.989	0.037159	0.561296	-0.462694	-0.463977	0.001659	52.0759	-0.462718	-1.03088e+06	-1.609339E-9	NaN
386	1.000000	0.570596	7.36884e+06	-57789.1	1005.82	-29736.6	0.000000	0.000000	6.570988	-0.013584	NaN	0.000000	0.001595	0.001684	28.08	0.074167	0.002041	36.3342	-160.125	-167.099	0.056715	0.569289	-0.454677	-0.455984	-0.013584	36.3342	-0.454397	-787467	1.724988E-8	NaN
386	1.000000	0.578569	7.36884e+06	-57789.1	1005.82	-29736.6	0.000000	0.000000	6.578963	0.024804	NaN	0.000000	0.001653	0.001695	28.0803	0.075686	0.001963	38.5631	107.65	-165.5	0.021649	0.577248	-0.446704	-0.448025	0.024804	38.5631	-0.447187	-623319	-3.979297E-8	NaN
386	1.000000	0.586565	7.36884e+06	-57789.1	1005.82	-29736.6	0.000000	0.000000	6.586959	0.019520	NaN	0.000000	0.001678	0.001674	28.0801	0.116224	0.002066	56.2497	29.4881	-167.764	-0.018157	0.585300	-0.438708	-0.439973	0.019520	56.2497	-0.438968	-477310	-4.089655E-8	NaN
386	1.000000	0.594594	7.36884e+06	-57789.1	1005.82	-29736.6	0.000000	0.000000	6.594987	0.018342	NaN	0.000000	0.001634	0.001706	28.08	0.086593	0.002020	42.8744	119.789	-166.825	0.022729	0.593251	-0.430679	-0.432022	0.018342	42.8744	-0.431000	-368304	-4.980111E-8	NaN
386	1.000000	0.602588	7.36884e+06	-57789.1	1005.82	-29736.6	0.000000	0.000000	6.602981	0.015543	NaN	0.000000	0.001614	0.001639	28.0801	0.071261	0.001873	38.0395	-62.5369	-164.649	0.013901	0.601252	-0.422685	-0.424021	0.015543	38.0395	-0.422992	-283682	-5.478956E-8	NaN
386	1.000000	0.610599	7.36884e+06	-57789.1	1005.82	-29736.6	0.000000	0.000000	6.610991	-0.009403	NaN	0.000000	0.001633	0.001664	28.0801	0.106001	0.001875	56.5303	-31.7587	-166.656	0.049767	0.609242	-0.414674	-0.416031	-0.009403	56.5303	-0.414550	-215307	4.367373E-8	NaN
386	1.000000	0.618581	7.36884e+06	-57789.1	1005.82	-29736.6	0.000000	0.000000	6.618974	0.004292	NaN	0.000000	0.001657	0.001640	28.0804	0.021958	0.001974	11.1227	-101.858	-163.293	-0.022115	0.617280	-0.406692	-0.407993	0.004292	11.1227	-0.406981	-168057	-2.554109E-8	NaN
386	1.000000	0.626623	7.36884e+06	-57789.1	1005.82	-29736.6	0.000000	0.000000	6.627016	0.022374	NaN	0.000000	0.001649	0.001612	28.08	0.146127	0.001881	77.6937	-160.46	-166.815	0.056244	0.625299	-0.398650	-0.399974	0.022374	77.6937	-0.398866	-128773	-1.737468E-7	NaN
386	1.000000	0.634607	7.36884e+06	-57789.1	1005.82	-29736.6	0.000000	0.000000	6.634999	-0.014063	NaN	0.000000	0.001645	0.001685	28.08	0.082814	0.002053	40.3308	21.3812	-163.769	0.014010	0.633285	-0.390666	-0.391988	-0.014063	40.3308	-0.390405	-97489.4	1.442553E-7	NaN
386	1.000000	0.642589	7.36884e+06	-57789.1	1005.82	-29736.6	0.000000	0.000000	6.642981	-0.001706	NaN	0.000000	0.001665	0.001632	28.08	0.096548	0.002088	46.2457	-62.624	-168.175	-0.024167	0.641302	-0.382684	-0.383971	-0.001706	46.2457	-0.382657	-75509	2.259600E-8	NaN
386	1.000000	0.650659	7.36884e+06	-57789.1	1005.82	-29736.6	0.000000	0.000000	6.651052	0.025001	NaN	0.000000	0.001643	0.001662	28.08	0.064034	0.002073	30.8909	132.11	-166.029	0.106859	0.649313	-0.374614	-0.375960	0.025001	30.8909	-0.375221	-59054.6	-4.233510E-7	NaN
386	1.000000	0.658614	7.36884e+06	-57789.1	1005.82	-29736.6	0.000000	0.000000	6.659008	0.043894	NaN	0.000000	0.001623	0.001665	28.0809	0.004489	0.002083	2.155181	-38.4973	-165.085	-0.015061	0.657352	-0.366659	-0.367921	0.043894	2.155181	-0.381934	-73729.3	-5.953402E-7	NaN
386	1.000000	0.666608	7.36884e+06	-57789.1	1005.82	-29736.6	0.000000	0.000000	6.667006	0.126545	NaN	0.000000	0.001605	0.001675	28.0812	0.147423	0.001942	75.9297	120.672	-160.798	0.067147	0.665318	-0.358665	-0.359955	0.126545	75.9297	-0.359915	-35531.5	-3.561497E-6	NaN
386	1.000000	0.674621	7.36884e+06	-57789.1	1005.82	-29736.6	0.000000	0.000000	6.675014	0.007043	NaN	0.000000	0.001641	0.001684	28.0813	0.099868	0.001865	53.5578	81.3118	-168.223	0.016623	0.673291	-0.350652	-0.351982	0.007043	53.5578	-0.350750	-26175.3	-2.690843E-7	NaN
386	1.000000	0.682605	7.36884e+06	-57789.1	1005.82	-29736.6	0.000000	0.000000	6.682997	-0.024279	NaN	0.000000	0.001638	0.001669	28.0811	0.102767	0.002126	48.3346	35.2719	-165.004	0.011804	0.681315	-0.342668	-0.343958	-0.024279	48.3346	-0.342291	-19721.2	1.231136E-6	NaN
386	1.000000	0.690638	7.36884e+06	-57789.1	1005.82	-29736.6	0.000000	0.000000	6.691031	0.013544	NaN	0.000000	0.001615	0.001677	28.0809	0.056364	0.002085	27.0355	-172.155	-164.614	-0.016540	0.689306	-0.334635	-0.335967	0.013544	27.0355	-0.335011	-15443.4	-8.769902E-7	NaN
386	1.000000	0.698657	7.36884e+06	-57789.1	1005.82	-29736.6	0.000000	0.000000	6.699051	0.028253	NaN	0.000000	0.001617	0.001673	28.0813	0.095414	0.002131	44.7724	-150.561	-167.06	0.068968	0.697366	-0.326616	-0.327907	0.028253	44.7724	-0.327089	-11824.7	-2.389292E-6	NaN
386	1.000000	0.706620	7.36884e+06	-57789.1	1005.82	-29736.6	0.000000	0.000000	6.707015	0.059859	NaN	0.000000	0.001618	0.001672	28.0812	0.050900	0.002000	25.4507	-175.225	-160.993	0.026357	0.705324	-0.318653	-0.319949	0.059859	25.4507	-0.320417	-9435.8	-6.343860E-6	NaN
386	1.000000	0.714653	7.36884e+06	-57789.1	1005.82	-29736.6	0.000000	0.000000	6.715047	0.012528	NaN	0.000000	0.001618	0.001709	28.0815	0.153183	0.002050	74.7315	-27.6257	-165.746	-0.015562	0.713282	-0.310620	-0.311991	0.012528	74.7315	-0.310745	-6793.35	-1.844188E-6	NaN
386	1.000000	0.722631	7.36884e+06	-57789.1	1005.82	-29736.6	0.000000	0.000000	6.723023	-0.002902	NaN	0.000000	0.001625	0.001704	28.0814	0.045620	0.001802	25.3217	162.81	-169.015	-0.008936	0.721323	-0.302642	-0.303950	-0.002902	25.3217	-0.302556	-5136.39	5.649209E-7	NaN
386	1.000000	0.730623	7.36884e+06	-57789.1	1005.82	-29736.6	0.000000	0.000000	6.731015	-0.006923	NaN	0.000000	0.001635	0.001669	28.0811	0.066055	0.002038	32.4192	-11.2644	-164.104	-0.069274	0.729361	-0.294650	-0.295912	-0.006923	32.4192	-0.294490	-3894.7	1.777454E-6	NaN
386	1.000000	0.738631	7.36884e+06	-57789.1	1005.82	-29736.6	0.000000	0.000000	6.739027	0.065984	NaN	0.000000	0.001626	0.001666	28.0812	0.069054	0.002103	32.8342	46.0933	-167.36	0.068666	0.737335	-0.286642	-0.287938	0.065984	32.8342	-0.288149	-3130.06	-2.108060E-5	NaN
386	1.000000	0.746650	7.36884e+06	-57789.1	1005.82	-29736.6	0.000000	0.000000	6.747042	-0.011486	NaN	0.000000	0.001612	0.001665	28.0812	0.199677	0.002043	97.7284	46.2885	-168.809	0.086598	0.745414	-0.278623	-0.279859	-0.011486	97.7284	-0.278535	-2243.14	5.120558E-6	NaN
386	1.000000	0.754642	7.36884e+06	-57789.1	1005.82	-29736.6	0.000000	0.000000	6.755034	-0.014542	NaN	0.000000	0.001635	0.001637	28.0814	0.054781	0.001930	28.3863	-4.230971	-168.629	-0.013672	0.753316	-0.270631	-0.271957	-0.014542	28.3863	-0.270247	-1679.97	8.656222E-6	NaN
386	1.000000	0.762634	7.36884e+06	-57789.1	1005.82	-29736.6	0.000000	0.000000	6.763028	0.033452	NaN	0.000000	0.001548	0.001664	28.0811	0.068059	0.001918	35.4868	168.832	-167.888	-0.017351	0.761334	-0.262639	-0.263939	0.033452	35.4868	-0.263346	-1318.63	-2.536909E-5	NaN
386	1.000000	0.770644	7.36884e+06	-57789.1	1005.82	-29736.6	0.000000	0.000000	6.771036	-0.021097	NaN	0.000000	0.001571	0.001632	28.0811	0.082298	0.001920	42.8619	-112.617	-163.19	0.009993	0.769406	-0.254629	-0.255867	-0.021097	42.8619	-0.254260	-956.579	2.205452E-5	NaN
386	1.000000	0.778647	7.36884e+06	-57789.1	1005.82	-29736.6	0.000000	0.000000	6.779040	-0.004162	NaN	0.000000	0.001569	0.001631	28.081	0.033372	0.002134	15.6374	138.681	-167.211	-0.026389	0.777379	-0.246626	-0.247894	-0.004162	15.6374	-0.246426	-723.764	5.750047E-6	NaN
386	1.000000	0.786677	7.36884e+06	-57789.1	1005.82	-29736.6	0.000000	0.000000	6.787070	-0.003142	NaN	0.000000	0.001572	0.001641	28.0809	0.021514	0.002004	10.7362	124.076	-163.721	0.023642	0.785353	-0.238596	-0.239920	-0.003142	10.7362	-0.238376	-542.207	5.795423E-6	NaN
386	1.000000	0.794671	7.36884e+06	-57789.1	1005.82	-29736.6	0.000000	0.000000	6.795066	0.053151	NaN	0.000000	0.001543	0.001644	28.0807	0.146427	0.001977	74.0792	94.0503	-166.359	0.024453	0.793330	-0.230602	-0.231943	0.053151	74.0792	-0.231140	-417.363	-0.000127	NaN
386	1.000000	0.802657	7.36884e+06	-57789.1	1005.82	-29736.6	0.000000	0.000000	6.803050	0.019546	NaN	0.000000	0.001579	0.001669	28.0796	0.064079	0.001961	32.6793	-80.4732	-163.89	-0.021711	0.801365	-0.222616	-0.223908	0.019546	32.6793	-0.223065	-310.857	-6.287763E-5	NaN
386	1.000000	0.810672	7.36884e+06	-57789.1	1005.82	-29736.6	0.000000	0.000000	6.811067	0.037761	NaN	0.000000	0.001602	0.001651	28.08	0.085594	0.001899	45.0686	-50.3292	-162.549	-0.009026	0.809400	-0.214600	-0.215873	0.037761	45.0686	-0.215229	-232.914	-0.000162	NaN
386	1.000000	0.818694	7.36884e+06	-57789.1	1005.82	-29736.6	0.000000	0.000000	6.819090	0.087246	NaN	0.000000	0.001594	0.001695	28.08	0.122169	0.001996	61.2115	121.948	-166.563	0.079286	0.817391	-0.206579	-0.207882	0.087246	61.2115	-0.207648	-175.658	-0.000497	NaN
386	1.000000	0.826687	7.36884e+06	-57789.1	1005.82	-29736.7	0.000000	0.000000	6.827080	-0.010746	NaN	0.000000	0.001552	0.001665	28.0797	0.068986	0.001963	35.1382	177.358	-168.098	-0.040601	0.825389	-0.198586	-0.199884	-0.010746	35.1382	-0.198356	-123.779	8.681851E-5	NaN
386	1.000000	0.834703	7.36884e+06	-57789.1	1005.82	-29736.7	0.000000	0.000000	6.835099	0.088063	NaN	0.000000	0.001575	0.001653	28.0797	0.078360	0.002029	38.6184	-72.7232	-166.381	0.131018	0.833339	-0.190570	-0.191933	0.088063	38.6184	-0.192280	-98.1852	-0.000897	NaN
386	1.000000	0.842696	7.36884e+06	-57789.1	1005.82	-29736.7	0.000000	0.000000	6.843089	0.008636	NaN	0.000000	0.001573	0.001639	28.0799	0.034480	0.002030	16.9835	48.813	-166	-0.000810	0.841396	-0.182577	-0.183877	0.008636	16.9835	-0.182958	-68.4939	-0.000126	NaN
386	1.000000	0.850711	7.36884e+06	-57789.1	1005.82	-29736.7	0.000000	0.000000	6.851103	-0.020600	NaN	0.000000	0.001549	0.001658	28.0801	0.102881	0.001927	53.3924	21.6277	-165.927	-0.015963	0.849390	-0.174562	-0.175883	-0.020600	53.3924	-0.174273	-48.6941	0.000423	NaN
386	1.000000	0.858750	7.36884e+06	-57789.1	1005.82	-29736.7	0.000000	0.000000	6.859142	-0.019424	NaN	0.000000	0.001567	0.001659	28.0798	0.090252	0.002081	43.3739	-1.738400	-166.797	0.007147	0.857388	-0.166523	-0.167885	-0.019424	43.3739	-0.166187	-35.2466	0.000551	NaN
386	1.000000	0.866706	7.36884e+06	-57789.1	1005.82	-29736.7	0.000000	0.000000	6.867101	0.055682	NaN	0.000000	0.001563	0.001642	28.0799	0.113682	0.001945	58.445	-156.793	-165.353	0.121182	0.865348	-0.158567	-0.159925	0.055682	58.445	-0.159281	-26.6199	-0.002092	NaN
386	1.000000	0.874698	7.36884e+06	-57789.1	1005.82	-29736.7	0.000000	0.000000	6.875093	0.043370	NaN	0.000000	0.001573	0.001648	28.0796	0.086408	0.002049	42.1708	-33.4963	-168.933	-0.002322	0.873419	-0.150575	-0.151854	0.043370	42.1708	-0.151346	-19.1651	-0.002263	NaN
386	1.000000	0.882692	7.36884e+06	-57789.1	1005.82	-29736.7	0.000000	0.000000	6.883086	0.037059	NaN	0.000000	0.001529	0.001604	28.0797	0.053261	0.001892	28.1442	-113.625	-166.026	-0.015243	0.881423	-0.142581	-0.143850	0.037059	28.1442	-0.143569	-13.7923	-0.002687	NaN
386	1.000000	0.890693	7.36884e+06	-57789.1	1005.82	-29736.7	0.000000	0.000000	6.891084	-0.020862	NaN	0.000000	0.001639	0.001652	28.08	0.103320	0.001983	52.1023	-133.645	-167.433	0.071745	0.889370	-0.134580	-0.135903	-0.020862	52.1023	-0.134280	-9.215737	0.002264	NaN
386	1.000000	0.898724	7.36884e+06	-57789.1	1005.82	-29736.7	0.000000	0.000000	6.899117	0.002302	NaN	0.000000	0.001574	0.001634	28.0799	0.166091	0.002137	77.7195	97.9662	-166.067	-0.015775	0.897398	-0.126549	-0.127875	0.002302	77.7195	-0.126571	-6.531231	-0.000352	NaN
386	1.000000	0.906706	7.36884e+06	-57789.1	1005.82	-29736.7	0.000000	0.000000	6.907100	0.018760	NaN	0.000000	0.001612	0.001617	28.08	0.031521	0.002038	15.4686	109.026	-170.921	-0.000848	0.905413	-0.118567	-0.119860	0.018760	15.4686	-0.119476	-4.715190	-0.003979	NaN
386	1.000000	0.914712	7.36884e+06	-57789.1	1005.82	-29736.7	0.000000	0.000000	6.915105	0.004969	NaN	0.000000	0.001654	0.001635	28.0798	0.070593	0.001988	35.5065	65.1201	-166.18	-0.003081	0.913364	-0.110561	-0.111909	0.004969	35.5065	-0.110666	-3.103737	-0.001601	NaN
386	1.000000	0.922724	7.36884e+06	-57789.1	1005.82	-29736.7	0.000000	0.000000	6.923117	0.001231	NaN	0.000000	0.001660	0.001605	28.0799	0.012104	0.002073	5.839306	40.3945	-166.56	0.086336	0.921434	-0.102549	-0.103839	0.001231	5.839306	-0.102707	-2.095777	-0.000587	NaN
386	1.000000	0.930718	7.36884e+06	-57789.1	1005.82	-29736.7	0.000000	0.000000	6.931112	0.049917	NaN	0.000000	0.001637	0.001611	28.0804	0.083549	0.002092	39.9405	131.217	-167.673	0.030426	0.929389	-0.094555	-0.095884	0.049917	39.9405	-0.095493	-1.447518	-0.034485	NaN
386	1.000000	0.938720	7.36884e+06	-57789.1	1005.82	-29736.7	0.000000	0.000000	6.939112	-0.024209	NaN	0.000000	0.001544	0.001593	28.0812	0.090926	0.002032	44.7495	-129.365	-165.658	0.004061	0.937397	-0.086553	-0.087876	-0.024209	44.7495	-0.086147	-0.875663	0.027647	NaN
386	1.000000	0.946726	7.36884e+06	-57789.1	1005.82	-29736.7	0.000000	0.000000	6.947121	0.052395	NaN	0.000000	0.001564	0.001618	28.0813	0.050000	0.002025	24.6865	-110.561	-165.441	0.030467	0.945388	-0.078546	-0.079885	0.052395	24.6865	-0.080138	-0.623939	-0.083975	NaN
386	1.000000	0.954734	7.36884e+06	-57789.1	1005.82	-29736.7	0.000000	0.000000	6.955127	0.012981	NaN	0.000000	0.001541	0.001634	28.0812	0.060206	0.002057	29.2749	28.0087	-165.331	0.023116	0.953450	-0.070539	-0.071823	0.012981	29.2749	-0.070871	-0.359887	-0.036069	NaN
386	1.000000	0.962736	7.36884e+06	-57789.1	1005.82	-29736.7	0.000000	0.000000	6.963132	0.067538	NaN	0.000000	0.001592	0.001659	28.0812	0.084522	0.001970	42.8937	-116.77	-163.658	0.049975	0.961437	-0.062537	-0.063836	0.067538	42.8937	-0.063718	-0.229532	-0.294241	NaN
386	1.000000	0.970732	7.36884e+06	-57789.1	1005.82	-29736.7	0.000000	0.000000	6.971127	0.056220	NaN	0.000000	0.001557	0.001651	28.0811	0.146955	0.002087	70.4309	122.745	-161.78	0.020020	0.969450	-0.054541	-0.055823	0.056220	70.4309	-0.055140	-0.130006	-0.432437	NaN
386	1.000000	0.978732	7.36884e+06	-57789.1	1005.82	-29736.7	0.000000	0.000000	6.979126	0.011297	NaN	0.000000	0.001595	0.001684	28.0813	0.103947	0.001974	52.6463	112.365	-168.421	-0.015295	0.977481	-0.046541	-0.047792	0.011297	52.6463	-0.046701	-0.072441	-0.155948	NaN
386	1.000000	0.986765	7.36884e+06	-57789.1	1005.82	-29736.7	0.000000	0.000000	6.987160	0.049590	NaN	0.000000	0.001603	0.001691	28.0814	0.081150	0.001994	40.6935	-64.3425	-166.683	0.043158	0.985469	-0.038508	-0.039804	0.049590	40.6935	-0.039422	-0.043432	-1.141786	NaN
386	1.000000	0.994757	7.36884e+06	-57789.1	1005.82	-29736.7	0.000000	0.000000	6.995155	0.123892	NaN	0.000000	0.001621	0.001650	28.0811	0.064874	0.002034	31.8922	145.313	-168.901	0.070920	0.993498	-0.030516	-0.031775	0.123892	31.8922	-0.033429	-0.028810	-4.300235	NaN
386	1.000000	1.002757	7.36884e+06	-57789.1	1005.82	-29736.7	0.000000	0.000000	7.003149	-0.020519	NaN	0.000000	0.001615	0.001632	28.0814	0.045868	0.001892	24.2446	-155.083	-166.7	0.058039	1.001456	-0.022516	-0.023817	-0.020519	24.2446	-0.021882	-0.014023	1.463172	NaN
386	1.000000	1.010790	7.36884e+06	-57789.1	1005.82	-29736.7	0.000000	0.000000	7.011185	0.052701	NaN	0.000000	0.001617	0.001661	28.0813	0.043315	0.002045	21.1819	81.9771	-165.138	0.047334	1.009480	-0.014483	-0.015792	0.052701	21.1819	-0.016349	-0.010100	-5.218049	NaN
386	1.000000	1.018762	7.36884e+06	-57789.1	1005.82	-29736.7	0.000000	0.000000	7.019158	0.073888	NaN	0.000000	0.001609	0.001646	28.0815	0.148365	0.001958	75.7829	66.9315	-162.265	0.053990	1.017461	-0.006511	-0.007812	0.073888	75.7829	-0.007242	-0.004784	-15.4433	NaN
386	1.000000	1.026757	7.36884e+06	-57789.1	1005.82	-29736.7	0.000000	0.000000	7.027191	1.011182	NaN	0.000000	0.001589	0.001649	28.0814	1.623780	0.001899	855.059	6.045955	-166.717	0.147848	1.025389	0.001484	0.000116	1.011182	855.059	0.000597	0.000451	2241.43	36780.4
386	2.000000	1.033421	7.36884e+06	-57789.1	1005.82	-29736.7	0.000000	0.000000	7.034175	8.799657	NaN	0.000000	0.001622	0.001685	28.0812	7.989566	0.001655	4828.6	5.354893	-169.718	9.286151	1.032949	0.008148	0.007676	8.799657	4828.6	0.006781	0.005818	1512.46	57836.8
386	2.000000	1.035402	7.36884e+06	-57789.1	1005.82	-29736.7	0.000000	0.000000	7.036242	10.8511	NaN	0.000000	0.001594	0.001622	28.0817	10.3286	0.001770	5836.15	6.444096	-171.096	11.3561	1.035118	0.010129	0.009845	10.8511	5836.15	0.008735	0.007809	1389.52	60338.6
386	2.000000	1.037368	7.36884e+06	-57789.1	1005.82	-29736.7	0.000000	0.000000	7.038274	12.466	NaN	0.000000	0.001609	0.001632	28.0813	12.0316	0.001760	6836.99	6.775357	-172.107	11.6927	1.037016	0.012095	0.011743	12.466	6836.99	0.010727	0.010001	1246.47	62461.8
386	2.000000	1.039374	7.36884e+06	-57789.1	1005.82	-29736.7	0.000000	0.000000	7.040419	15.8511	NaN	0.000000	0.001604	0.001648	28.0813	14.4642	0.001860	7775.78	6.379457	-173.497	15.672	1.039011	0.014101	0.013738	15.8511	7775.78	0.012573	0.012183	1301.07	64363.2
386	2.000000	1.041338	7.36884e+06	-57789.1	1005.82	-29736.7	0.000000	0.000000	7.042498	18.6415	NaN	0.000000	0.001586	0.001649	28.0812	16.2404	0.001735	9358.65	4.959040	-174.173	17.002	1.041068	0.016065	0.015795	18.6415	9358.65	0.014572	0.014718	1266.55	70478.7
386	2.000000	1.043311	7.36884e+06	-57789.1	1005.82	-29736.7	0.000000	0.000000	7.044675	23.615	NaN	0.000000	0.001615	0.001611	28.08	18.0499	0.001745	10341.6	8.252014	-178.356	23.0096	1.043005	0.018038	0.017732	23.615	10341.6	0.016325	0.017094	1381.52	72268.2
386	2.000000	1.045350	7.36884e+06	-57789.1	1005.82	-29736.7	0.000000	0.000000	7.046867	27.32	NaN	0.000000	0.001587	0.001594	28.0811	20.6128	0.001693	12176.8	8.863064	179.342	28.9387	1.045078	0.020077	0.019805	27.32	12176.8	0.018395	0.020082	1360.4	78505.4
386	2.000000	1.047302	7.36884e+06	-57789.1	1005.82	-29736.7	0.000000	0.000000	7.049070	33.4342	NaN	0.000000	0.001616	0.001644	28.08	21.3813	0.001657	12900.2	0.490173	-173.15	32.0601	1.046950	0.022029	0.021677	33.4342	12900.2	0.020085	0.022676	1474.42	78268
386	2.000000	1.049331	7.36884e+06	-57789.1	1005.82	-29736.7	0.000000	0.000000	7.051208	36.0788	NaN	0.000000	0.001649	0.001644	28.08	24.4818	0.001811	13517	6.411081	-179.366	37.8662	1.049032	0.024058	0.023759	36.0788	13517	0.022056	0.025877	1394.25	76770.8
386	2.000000	1.051336	7.36884e+06	-57789.1	1005.82	-29736.7	0.000000	0.000000	7.053546	44.17	NaN	0.000000	0.001684	0.001642	28.0801	27.4985	0.001743	15779.9	6.541635	178.344	42.4085	1.050958	0.026063	0.025685	44.17	15779.9	0.023963	0.029156	1514.93	84432.7
386	2.000000	1.053287	7.36884e+06	-57789.1	1005.82	-29736.7	0.000000	0.000000	7.055600	46.6775	NaN	0.000000	0.001674	0.001644	28.0801	28.2483	0.001695	16670	1.276837	-176.391	44.6096	1.052937	0.028014	0.027664	46.6775	16670	0.025914	0.032700	1427.46	84224.6
386	2.000000	1.055296	7.36884e+06	-57789.1	1005.82	-29736.7	0.000000	0.000000	7.058055	57.4885	NaN	0.000000	0.001647	0.001637	28.0817	31.6871	0.001730	18314.6	4.664460	-179.878	56.8957	1.054948	0.030024	0.029675	57.4885	18314.6	0.027669	0.036051	1594.63	88127.3
386	2.000000	1.057282	7.36884e+06	-57789.1	1005.82	-29736.7	0.000000	0.000000	7.060367	65.4453	NaN	0.000000	0.001688	0.001621	28.0801	33.3423	0.001813	18391.5	4.612682	179.116	63.4478	1.056910	0.032009	0.031637	65.4453	18391.5	0.029340	0.039387	1661.6	84667.3
386	2.000000	1.059330	7.36884e+06	-57789.1	1005.82	-29736.7	0.000000	0.000000	7.062724	72.9532	NaN	0.000000	0.001657	0.001620	28.0801	36.5887	0.001864	19631.4	5.670471	178.874	72.9649	1.059000	0.034057	0.033727	72.9532	19631.4	0.031270	0.043417	1680.3	86078.8
386	2.000000	1.061282	7.36884e+06	-57789.1	1005.82	-29736.7	0.000000	0.000000	7.065055	82.1431	NaN	0.000000	0.001676	0.001612	28.0802	38.8829	0.001806	21528.4	6.199291	176.666	79.5432	1.060891	0.036009	0.035618	82.1431	21528.4	0.033148	0.047521	1728.57	90228.3
386	2.000000	1.063262	7.36884e+06	-57789.1	1005.82	-29736.7	0.000000	0.000000	7.067340	89.5647	NaN	0.000000	0.001700	0.001657	28.0803	40.1901	0.001718	23399.4	6.891548	175.673	88.2183	1.062987	0.037989	0.037714	89.5647	23399.4	0.035119	0.052022	1721.65	93730.7
386	2.000000	1.065259	7.36884e+06	-57789.1	1005.82	-29736.7	0.000000	0.000000	7.069547	94.6667	NaN	0.000000	0.001659	0.001640	28.0819	43.4555	0.001864	23314.4	2.196668	179.605	93.2318	1.065053	0.039986	0.039780	94.6667	23314.4	0.036941	0.056361	1679.65	89724
386	2.000000	1.067221	7.36884e+06	-57789.1	1005.82	-29736.7	0.000000	0.000000	7.072173	110.796	NaN	0.000000	0.001640	0.001628	28.0802	44.0211	0.001725	25523.3	4.584049	176.938	108.616	1.066947	0.041948	0.041674	110.796	25523.3	0.038693	0.060693	1825.5	94654.3
386	2.000000	1.069197	7.36884e+06	-57789.1	1005.82	-29736.7	0.000000	0.000000	7.074573	121.113	NaN	0.000000	0.001644	0.001619	28.0801	47.0324	0.001865	25211.8	5.805511	175.196	117.231	1.069000	0.043924	0.043727	121.113	25211.8	0.040321	0.064861	1867.27	90445.1
386	2.000000	1.071273	7.36884e+06	-57789.1	1005.82	-29736.7	0.000000	0.000000	7.077198	134.461	NaN	0.000000	0.001682	0.001666	28.0801	48.9787	0.001730	28305.3	8.288944	173.407	132.311	1.070863	0.046000	0.045590	134.461	28305.3	0.042437	0.070479	1907.82	97411.8
386	2.000000	1.073224	7.36884e+06	-57789.1	1005.82	-29736.7	0.000000	0.000000	7.079639	146.369	NaN	0.000000	0.001647	0.001620	28.0801	49.5852	0.001748	28373.9	3.846543	176.82	142.781	1.072880	0.047951	0.047607	146.369	28373.9	0.044082	0.075002	1951.53	94657.6
386	2.000000	1.075240	7.36884e+06	-57789.1	1005.82	-29736.7	0.000000	0.000000	7.081964	153.874	NaN	0.000000	0.001669	0.001607	28.0812	53.1913	0.001760	30229.5	3.579888	175.857	151.898	1.074968	0.049967	0.049695	153.874	30229.5	0.046149	0.080884	1902.41	97112
386	2.000000	1.077238	7.36884e+06	-57789.1	1005.82	-29736.7	0.000000	0.000000	7.084819	174.709	NaN	0.000000	0.001602	0.001650	28.0813	54.0203	0.001720	31406.9	2.877714	177.176	172.182	1.076884	0.051965	0.051612	174.709	31406.9	0.047793	0.085713	2038.29	98010.7
386	2.000000	1.079239	7.36884e+06	-57789.1	1005.82	-29736.7	0.000000	0.000000	7.086921	177.158	NaN	0.000000	0.001612	0.001644	28.0816	56.7622	0.001675	33882.2	3.327831	175.609	175.9	1.078996	0.053966	0.053723	177.158	33882.2	0.050044	0.092549	1914.2	101755
386	2.000000	1.081327	7.36884e+06	-57789.1	1005.82	-29736.7	0.000000	0.000000	7.089825	197	NaN	0.000000	0.001619	0.001646	28.0813	59.4719	0.001753	33923.2	6.816579	173.265	197.194	1.080814	0.056054	0.055541	197	33923.2	0.051698	0.097735	2015.66	99139.1
386	2.000000	1.083250	7.36884e+06	-57789.1	1005.82	-29736.7	0.000000	0.000000	7.092198	207.93	NaN	0.000000	0.001627	0.001648	28.0812	61.2012	0.001787	34245.9	3.295352	175.596	206.233	1.082924	0.057977	0.057651	207.93	34245.9	0.053423	0.103286	2013.14	97355.5
386	2.000000	1.085189	7.36884e+06	-57789.1	1005.82	-29736.7	0.000000	0.000000	7.094970	228.172	NaN	0.000000	0.001620	0.001672	28.0815	64.1221	0.001873	34237.7	4.470994	174.366	223.321	1.084949	0.059916	0.059676	228.172	34237.7	0.054918	0.108217	2108.46	95088.8
386	2.000000	1.087188	7.36884e+06	-57789.1	1005.82	-29736.7	0.000000	0.000000	7.097950	252.01	NaN	0.000000	0.001586	0.001630	28.0813	65.656	0.001656	39644.6	9.329322	168.126	248.574	1.086854	0.061915	0.061581	252.01	39644.6	0.057147	0.115777	2176.68	106450
386	2.000000	1.089274	7.36884e+06	-57789.1	1005.82	-29736.7	0.000000	0.000000	7.100694	268.005	NaN	0.000000	0.001595	0.001634	28.0817	68.9541	0.001756	39269.5	9.500854	168.467	268.3	1.088834	0.064001	0.063561	268.005	39269.5	0.058882	0.121830	2199.82	102790
386	2.000000	1.091212	7.36884e+06	-57789.1	1005.82	-29736.7	0.000000	0.000000	7.103193	281.656	NaN	0.000000	0.001619	0.001661	28.0816	70.2127	0.001736	40439.2	6.613918	171.422	275.581	1.090871	0.065939	0.065598	281.656	40439.2	0.060715	0.128384	2193.85	103114
386	2.000000	1.093231	7.36884e+06	-57789.1	1005.82	-29736.7	0.000000	0.000000	7.105908	298.543	NaN	0.000000	0.001592	0.001565	28.0815	72.6966	0.001858	39129.3	8.702359	168.991	297.953	1.092924	0.067958	0.067651	298.543	39129.3	0.062236	0.133948	2228.79	97680.3
386	2.000000	1.095215	7.36884e+06	-57789.1	1005.82	-29736.7	0.000000	0.000000	7.108181	305.566	NaN	0.000000	0.001629	0.001646	28.0815	75.3977	0.001762	42785.5	7.357942	169.351	302.867	1.095048	0.069942	0.069775	305.566	42785.5	0.064586	0.142764	2140.35	103457
386	2.000000	1.097200	7.36884e+06	-57789.1	1005.82	-29736.7	0.000000	0.000000	7.110743	319.584	NaN	0.000000	0.001586	0.001617	28.0814	75.7786	0.001736	43646.9	4.363581	172.684	316.433	1.097016	0.071927	0.071743	319.584	43646.9	0.066436	0.149892	2132.1	103000
386	2.000000	1.099177	7.36884e+06	-57789.1	1005.82	-29736.7	0.000000	0.000000	7.113943	349.319	NaN	0.000000	0.001626	0.001655	28.0816	77.7666	0.001704	45650.4	0.734299	175.837	345.419	1.098868	0.073904	0.073595	349.319	45650.4	0.068165	0.156704	2229.17	105361
386	2.000000	1.101201	7.36884e+06	-57789.1	1005.82	-29736.7	0.000000	0.000000	7.116766	368.736	NaN	0.000000	0.001611	0.001631	28.0816	81.4078	0.001866	43623.1	6.720807	170.815	365.767	1.100872	0.075928	0.075599	368.736	43623.1	0.069588	0.162417	2270.3	98894.7
386	2.000000	1.103299	7.36884e+06	-57789.1	1005.82	-29736.7	0.000000	0.000000	7.119303	379.425	NaN	0.000000	0.001606	0.001644	28.0816	82.2673	0.001742	47236.5	3.733454	172.789	381.332	1.102914	0.078026	0.077642	379.425	47236.5	0.072001	0.172325	2201.8	103963
386	2.000000	1.105183	7.36884e+06	-57789.1	1005.82	-29736.7	0.000000	0.000000	7.122069	400.845	NaN	0.000000	0.001608	0.001589	28.0815	84.5765	0.001635	51733.4	2.057569	173.598	396.681	1.104910	0.079910	0.079638	400.845	51733.4	0.074099	0.181162	2212.64	111048
386	2.000000	1.107109	7.36884e+06	-57789.1	1005.82	-29736.7	0.000000	0.000000	7.125069	426.941	NaN	0.000000	0.001623	0.001635	28.0814	85.9519	0.001741	49361.3	5.779372	170.65	419.019	1.106760	0.081836	0.081487	426.941	49361.3	0.075349	0.186526	2288.91	104422
386	2.000000	1.109132	7.36884e+06	-57789.1	1005.82	-29736.7	0.000000	0.000000	7.127980	448.533	NaN	0.000000	0.001669	0.001656	28.0823	89.2026	0.001777	50207.8	5.976521	170.023	442.243	1.108755	0.083859	0.083482	448.533	50207.8	0.077159	0.194422	2307.01	104033
386	2.000000	1.111139	7.36884e+06	-57789.1	1005.82	-29736.7	0.000000	0.000000	7.130152	452.542	NaN	0.000000	0.001674	0.001642	28.0801	90.0769	0.001756	51297.1	2.400322	173.18	446.232	1.110985	0.085866	0.085712	452.542	51297.1	0.079250	0.203737	2221.21	103832
386	2.000000	1.113254	7.36884e+06	-57789.1	1005.82	-29736.7	0.000000	0.000000	7.133576	484.357	NaN	0.000000	0.001694	0.001659	28.0804	91.4226	0.001824	50122.5	4.202233	172.607	484.6	1.112779	0.087981	0.087506	484.357	50122.5	0.080733	0.210470	2301.31	99818.6
386	2.000000	1.115159	7.36884e+06	-57789.1	1005.82	-29736.7	0.000000	0.000000	7.136145	500.501	NaN	0.000000	0.001667	0.001648	28.0802	95.271	0.001781	53497.7	8.209286	166.817	495.653	1.114911	0.089886	0.089638	500.501	53497.7	0.082869	0.220342	2271.47	104126
386	2.000000	1.117094	7.36884e+06	-57789.1	1005.82	-29736.7	0.000000	0.000000	7.139030	523.588	NaN	0.000000	0.001713	0.001638	28.0801	94.7359	0.001721	55059.6	4.253148	171.008	516.768	1.116931	0.091821	0.091658	523.588	55059.6	0.084689	0.228921	2287.2	105139
386	2.000000	1.119131	7.36884e+06	-57789.1	1005.82	-29736.7	0.000000	0.000000	7.141659	537.964	NaN	0.000000	0.001751	0.001628	28.0801	97.3901	0.001783	54611.9	2.270311	173.25	532.861	1.118845	0.093858	0.093572	537.964	54611.9	0.086470	0.237464	2265.46	102391
386	2.000000	1.121203	7.36884e+06	-57789.1	1005.82	-29736.7	0.000000	0.000000	7.144859	565.386	NaN	0.000000	0.001701	0.001632	28.08	101.42	0.001795	56516.9	9.851866	165.285	560.982	1.120756	0.095930	0.095483	565.386	56516.9	0.088427	0.247021	2288.82	103893
386	2.000000	1.123194	7.36884e+06	-57789.1	1005.82	-29736.7	0.000000	0.000000	7.147407	578.934	NaN	0.000000	0.001691	0.001654	28.0802	100.741	0.001651	61023.4	2.622517	172.249	576.295	1.122917	0.097921	0.097644	578.934	61023.4	0.090805	0.258872	2236.37	109579
386	2.000000	1.125184	7.36884e+06	-57789.1	1005.82	-29736.7	0.000000	0.000000	7.150533	606.543	NaN	0.000000	0.001655	0.001675	28.0801	103.853	0.001752	59292.3	1.335516	173.828	605.063	1.124920	0.099911	0.099647	606.543	59292.3	0.092239	0.266138	2279.05	105007
386	2.000000	1.127125	7.36884e+06	-57789.1	1005.82	-29736.7	0.000000	0.000000	7.153515	631.818	NaN	0.000000	0.001646	0.001653	28.0804	104.791	0.001707	61393.7	3.097405	171.727	625.421	1.126804	0.101852	0.101531	631.818	61393.7	0.094134	0.275891	2290.09	106789
386	2.000000	1.129146	7.36885e+06	-57789.1	1005.82	-29736.7	0.000000	0.000000	7.156240	648.94	NaN	0.000000	0.001660	0.001644	28.0803	107.141	0.001767	60631.1	3.969037	171.032	644.624	1.128831	0.103873	0.103558	648.94	60631.1	0.095846	0.284843	2278.24	103793
386	2.000000	1.131133	7.36885e+06	-57789.1	1005.82	-29736.7	0.000000	0.000000	7.159358	676.417	NaN	0.000000	0.001680	0.001639	28.0801	110.306	0.001784	61839	10.4948	164.326	669	1.130735	0.105860	0.105462	676.417	61839	0.097656	0.294456	2297.18	104118
386	2.000000	1.131890	7.36885e+06	-57789.1	1005.82	-29736.7	0.000000	0.000000	7.159825	669.38	NaN	0.000000	0.001666	0.001597	28.0802	112.795	0.001814	62196.6	11.8068	-16.3989	678.98	1.131343	0.106617	0.106070	669.38	62196.6	0.098546	0.299230	2237.01	103881