File: remote_trans/data/nanoindenter/0828-1/data/Data_2025-08-06,11h17m57s/2025-07-22_16-23-58_1_52.txt
2025-07-22, 16:23:58, 1
Index	Phase	Displacement	Time	Pos X	Pos Y	Pos Z	Rot A	Rot B	Piezo Z	Force A	Force B	Gripper	Voltage A	Voltage B	Temperature	Amplitude force	Amplitude pos	Stiffness	Phase shift	Phase excitation	Force A raw	Displacement raw	HMax	HMax raw	Real Force	Real Stiffness	Contact Depth	Area	Hardness	Reduced Mod.
[#]	[#]	[um]	[s]	[um]	[um]	[um]	[m°]	[m°]	[um]	[uN]	[uN]	[V]	[V]	[V]	[°C]	[uN]	[um]	[N/m]	[°]	[°]	[uN]	[um]	[um]	[um]	[uN]	[N/m]	[um]	[um^2]	[MPa]	[MPa]
52	1.000000	0.002741	7.36555e+06	-41239.1	955.819	-29787.6	0.000000	0.000000	6.002822	0.019630	NaN	0.000000	0.001614	0.001656	28.131	0.137404	0.001050	130.864	-163.062	-161.416	0.005395	0.001460	-1.006073	-1.007353	0.019630	130.864	-1.006186	-2.748148E+13	-7.143082E-16	NaN
52	1.000000	0.010676	7.36555e+06	-41239.1	955.819	-29787.6	0.000000	0.000000	6.010757	-0.001399	NaN	0.000000	0.001604	0.001721	28.13	0.039835	0.001057	37.7028	17.0696	-164.877	-0.003565	0.009354	-0.998137	-0.999459	-0.001399	37.7028	-0.998110	-2.139521E+13	6.540796E-17	NaN
52	1.000000	0.018701	7.36555e+06	-41239.1	955.818	-29787.6	0.000000	0.000000	6.018783	0.048863	NaN	0.000000	0.001601	0.001735	28.1303	0.104151	0.001794	58.0427	128.452	-162.995	0.035326	0.017371	-0.990113	-0.991443	0.048863	58.0427	-0.990744	-1.702687E+13	-2.869779E-15	NaN
52	1.000000	0.026699	7.36555e+06	-41239.1	955.819	-29787.6	0.000000	0.000000	6.026778	-0.034804	NaN	0.000000	0.001637	0.001701	28.1303	0.071776	0.001927	37.247	118.776	-162.753	0.006627	0.025385	-0.982115	-0.983428	-0.034804	37.247	-0.981414	-1.274856E+13	2.730061E-15	NaN
52	1.000000	0.034703	7.36555e+06	-41239.1	955.819	-29787.6	0.000000	0.000000	6.034784	0.017136	NaN	0.000000	0.001630	0.001742	28.1302	0.105105	0.001927	54.54	-132.594	-168.39	0.104921	0.033409	-0.974111	-0.975404	0.017136	54.54	-0.974346	-1.023841E+13	-1.673732E-15	NaN
52	1.000000	0.042672	7.36555e+06	-41239.1	955.818	-29787.6	0.000000	0.000000	6.042751	-0.028697	NaN	0.000000	0.001635	0.001711	28.1292	0.020809	0.001988	10.4686	10.515	-164.699	-0.012389	0.041380	-0.966142	-0.967433	-0.028697	10.4686	-0.964086	-7.446472E+12	3.853792E-15	NaN
52	1.000000	0.050656	7.36555e+06	-41239.1	955.818	-29787.6	0.000000	0.000000	6.050735	-0.032134	NaN	0.000000	0.001602	0.001713	28.1291	0.146415	0.001996	73.3641	21.8874	-165.382	-0.040450	0.049350	-0.958158	-0.959464	-0.032134	73.3641	-0.957829	-6.131984E+12	5.240381E-15	NaN
52	1.000000	0.058679	7.36555e+06	-41239.1	955.818	-29787.6	0.000000	0.000000	6.058764	0.094582	NaN	0.000000	0.001600	0.001703	28.1291	0.038276	0.002096	18.2592	16.0617	-161.333	0.067610	0.057359	-0.950134	-0.951455	0.094582	18.2592	-0.954019	-5.447904E+12	-1.736122E-14	NaN
52	1.000000	0.066648	7.36555e+06	-41239.1	955.818	-29787.6	0.000000	0.000000	6.066729	-0.001923	NaN	0.000000	0.001610	0.001692	28.1294	0.126577	0.001870	67.6819	-153.708	-161.97	-0.020118	0.065339	-0.942165	-0.943474	-0.001923	67.6819	-0.942144	-3.767587E+12	5.103193E-16	NaN
52	1.000000	0.074667	7.36555e+06	-41239.1	955.818	-29787.6	0.000000	0.000000	6.074750	0.061788	NaN	0.000000	0.001600	0.001669	28.1303	0.082651	0.001950	42.3948	87.6549	-163.187	0.144516	0.073322	-0.934146	-0.935492	0.061788	42.3948	-0.935239	-3.040211E+12	-2.032363E-14	NaN
52	1.000000	0.082716	7.36555e+06	-41239.1	955.819	-29787.6	0.000000	0.000000	6.082797	-0.004293	NaN	0.000000	0.001600	0.001647	28.1314	0.068719	0.001913	35.9294	-45.3424	-164.884	-0.018728	0.081337	-0.926097	-0.927476	-0.004293	35.9294	-0.926008	-2.281981E+12	1.881461E-15	NaN
52	1.000000	0.090705	7.36555e+06	-41239.1	955.817	-29787.6	0.000000	0.000000	6.090786	0.021957	NaN	0.000000	0.001644	0.001670	28.1313	0.065845	0.001963	33.5463	7.975269	-165.502	0.016603	0.089363	-0.918109	-0.919450	0.021957	33.5463	-0.918600	-1.812605E+12	-1.211326E-14	NaN
52	1.000000	0.098698	7.36555e+06	-41239.1	955.819	-29787.6	0.000000	0.000000	6.098780	0.036703	NaN	0.000000	0.001602	0.001704	28.1312	0.046739	0.002093	22.326	-99.1313	-164.723	-0.013850	0.097359	-0.910116	-0.911455	0.036703	22.326	-0.911349	-1.446702E+12	-2.537029E-14	NaN
52	1.000000	0.106661	7.36555e+06	-41239.1	955.818	-29787.6	0.000000	0.000000	6.106742	0.014883	NaN	0.000000	0.001615	0.001720	28.1313	0.077368	0.001964	39.3849	-160.399	-165.813	0.003002	0.105404	-0.902153	-0.903410	0.014883	39.3849	-0.902436	-1.096432E+12	-1.357430E-14	NaN
52	1.000000	0.114720	7.36555e+06	-41239.1	955.817	-29787.6	0.000000	0.000000	6.114800	-0.011255	NaN	0.000000	0.001587	0.001694	28.1311	0.048849	0.001807	27.0395	73.4388	-165.238	-0.008642	0.113356	-0.894094	-0.895458	-0.011255	27.0395	-0.893782	-8.375901E+11	1.343779E-14	NaN
52	1.000000	0.122706	7.36555e+06	-41239.1	955.818	-29787.6	0.000000	0.000000	6.122787	-0.000414	NaN	0.000000	0.001629	0.001699	28.1303	0.105542	0.001966	53.6704	72.1324	-165.086	0.056333	0.121449	-0.886107	-0.887364	-0.000414	53.6704	-0.886102	-6.594958E+11	6.278854E-16	NaN
52	1.000000	0.130730	7.36555e+06	-41239.1	955.819	-29787.6	0.000000	0.000000	6.130812	0.039335	NaN	0.000000	0.001608	0.001711	28.1299	0.055705	0.002044	27.2567	-73.6061	-164.111	0.002171	0.129366	-0.878084	-0.879448	0.039335	27.2567	-0.879166	-5.314138E+11	-7.402039E-14	NaN
52	1.000000	0.138713	7.36555e+06	-41239.1	955.817	-29787.6	0.000000	0.000000	6.138794	0.005252	NaN	0.000000	0.001620	0.001693	28.1299	0.062098	0.001974	31.4531	-55.0463	-165.621	-0.083715	0.137419	-0.870101	-0.871394	0.005252	31.4531	-0.870226	-4.022529E+11	-1.305605E-14	NaN
52	1.000000	0.146704	7.36555e+06	-41239.1	955.818	-29787.6	0.000000	0.000000	6.146783	-0.026823	NaN	0.000000	0.001629	0.001673	28.1299	0.024573	0.002126	11.5589	101.882	-165	-0.089210	0.145460	-0.862110	-0.863354	-0.026823	11.5589	-0.860369	-2.958835E+11	9.065286E-14	NaN
52	1.000000	0.154700	7.36555e+06	-41239.1	955.818	-29787.6	0.000000	0.000000	6.154779	-0.041516	NaN	0.000000	0.001657	0.001708	28.1298	0.081329	0.001942	41.8854	-75.0114	-164.899	0.036228	0.153431	-0.854113	-0.855382	-0.041516	41.8854	-0.853370	-2.378859E+11	1.745197E-13	NaN
52	1.000000	0.162699	7.36555e+06	-41239.1	955.818	-29787.6	0.000000	0.000000	6.162779	-0.020995	NaN	0.000000	0.001678	0.001706	28.1316	0.058070	0.002057	28.2344	-148.846	-162.74	0.019924	0.161460	-0.846115	-0.847354	-0.020995	28.2344	-0.845557	-1.864510E+11	1.126035E-13	NaN
52	1.000000	0.170713	7.36555e+06	-41239.1	955.818	-29787.6	0.000000	0.000000	6.170794	0.020125	NaN	0.000000	0.001652	0.001689	28.1311	0.040644	0.001950	20.8427	76.1493	-167.248	-0.005407	0.169414	-0.838101	-0.839399	0.020125	20.8427	-0.838825	-1.511369E+11	-1.331597E-13	NaN
52	1.000000	0.178725	7.36555e+06	-41239.1	955.819	-29787.6	0.000000	0.000000	6.178805	-0.010057	NaN	0.000000	0.001679	0.001662	28.131	0.116724	0.001974	59.1277	134.756	-162.321	-0.003855	0.177435	-0.830089	-0.831379	-0.010057	59.1277	-0.829961	-1.146197E+11	8.774387E-14	NaN
52	1.000000	0.186742	7.36555e+06	-41239.1	955.818	-29787.6	0.000000	0.000000	6.186820	-0.063702	NaN	0.000000	0.001651	0.001691	28.1311	0.036648	0.002135	17.1643	145.527	-167.295	-0.108531	0.185393	-0.822071	-0.823420	-0.063702	17.1643	-0.819288	-8.214009E+10	7.755337E-13	NaN
52	1.000000	0.194725	7.36555e+06	-41239.1	955.818	-29787.6	0.000000	0.000000	6.194809	0.095701	NaN	0.000000	0.001662	0.001665	28.1311	0.055613	0.002036	27.3146	-34.4521	-166.318	0.018921	0.193451	-0.814089	-0.815363	0.095701	27.3146	-0.816717	-7.580228E+10	-1.262511E-12	NaN
52	1.000000	0.202743	7.36555e+06	-41239.1	955.82	-29787.6	0.000000	0.000000	6.202824	0.014467	NaN	0.000000	0.001585	0.001668	28.1302	0.075412	0.002093	36.0252	44.7535	-162.814	0.017836	0.201421	-0.806070	-0.807392	0.014467	36.0252	-0.806372	-5.487054E+10	-2.636657E-13	NaN
52	1.000000	0.210720	7.36555e+06	-41239.1	955.818	-29787.6	0.000000	0.000000	6.210799	-0.038020	NaN	0.000000	0.001640	0.001668	28.1284	0.028998	0.002002	14.4833	-107.802	-163.493	-0.001422	0.209442	-0.798094	-0.799371	-0.038020	14.4833	-0.796125	-3.983413E+10	9.544588E-13	NaN
52	1.000000	0.218712	7.36555e+06	-41239.1	955.818	-29787.6	0.000000	0.000000	6.218791	-0.040420	NaN	0.000000	0.001619	0.001665	28.1286	0.093729	0.001943	48.2419	67.6642	-167.641	-0.127916	0.217413	-0.790102	-0.791401	-0.040420	48.2419	-0.789473	-3.235421E+10	1.249293E-12	NaN
52	1.000000	0.226735	7.36555e+06	-41239.1	955.818	-29787.6	0.000000	0.000000	6.226815	-0.025009	NaN	0.000000	0.001605	0.001660	28.129	0.099051	0.002161	45.8399	-86.7218	-161.074	0.006792	0.225447	-0.782078	-0.783366	-0.025009	45.8399	-0.781669	-2.534629E+10	9.866894E-13	NaN
52	1.000000	0.234726	7.36555e+06	-41239.1	955.819	-29787.6	0.000000	0.000000	6.234806	-0.005534	NaN	0.000000	0.001599	0.001666	28.1286	0.119200	0.002047	58.2423	-59.7591	-164.975	-0.054298	0.233460	-0.774088	-0.775354	-0.005534	58.2423	-0.774017	-1.994849E+10	2.773898E-13	NaN
52	1.000000	0.242760	7.36555e+06	-41239.1	955.819	-29787.6	0.000000	0.000000	6.242837	-0.087485	NaN	0.000000	0.001667	0.001664	28.13	0.133597	0.001991	67.1119	-150.027	-161.907	-0.049986	0.241425	-0.766053	-0.767388	-0.087485	67.1119	-0.765076	-1.507791E+10	5.802189E-12	NaN
52	1.000000	0.250756	7.36555e+06	-41239.1	955.818	-29787.6	0.000000	0.000000	6.250838	0.014333	NaN	0.000000	0.001672	0.001657	28.1294	0.062145	0.002204	28.1926	10.386	-164.098	0.055747	0.249412	-0.758057	-0.759401	0.014333	28.1926	-0.758438	-1.224779E+10	-1.170273E-12	NaN
52	1.000000	0.258755	7.36555e+06	-41239.1	955.819	-29787.6	0.000000	0.000000	6.258838	0.045983	NaN	0.000000	0.001694	0.001665	28.1294	0.109242	0.002055	53.1518	-78.9281	-166.571	-0.060550	0.257472	-0.750058	-0.751341	0.045983	53.1518	-0.750707	-9.612702E+9	-4.783585E-12	NaN
52	1.000000	0.266764	7.36555e+06	-41239.1	955.819	-29787.6	0.000000	0.000000	6.266844	-0.003097	NaN	0.000000	0.001699	0.001659	28.1302	0.074292	0.001979	37.5405	143.993	-163.175	-0.038776	0.265491	-0.742050	-0.743323	-0.003097	37.5405	-0.741988	-7.313655E+9	4.235084E-13	NaN
52	1.000000	0.274782	7.36555e+06	-41239.1	955.818	-29787.6	0.000000	0.000000	6.274861	-0.038019	NaN	0.000000	0.001692	0.001654	28.1299	0.058901	0.001993	29.5484	-19.3985	-164.297	-0.067237	0.273397	-0.734032	-0.735417	-0.038019	29.5484	-0.733067	-5.528471E+9	6.876912E-12	NaN
52	1.000000	0.282769	7.36555e+06	-41239.1	955.818	-29787.6	0.000000	0.000000	6.282849	-0.022087	NaN	0.000000	0.001676	0.001668	28.1286	0.031636	0.001990	15.9004	-106.03	-164.805	0.045156	0.281459	-0.726045	-0.727354	-0.022087	15.9004	-0.725003	-4.292286E+9	5.145654E-12	NaN
52	1.000000	0.290776	7.36555e+06	-41239.1	955.818	-29787.6	0.000000	0.000000	6.290854	-0.050231	NaN	0.000000	0.001707	0.001712	28.1285	0.121829	0.002016	60.424	-101.904	-166.961	0.002944	0.289408	-0.718038	-0.719406	-0.050231	60.424	-0.717415	-3.382282E+9	1.485134E-11	NaN
52	1.000000	0.298753	7.36555e+06	-41239.1	955.818	-29787.6	0.000000	0.000000	6.298834	0.030581	NaN	0.000000	0.001680	0.001644	28.1284	0.063957	0.001938	33.008	-145.709	-161.341	0.105381	0.297475	-0.710061	-0.711339	0.030581	33.008	-0.710756	-2.743875E+9	-1.114510E-11	NaN
52	1.000000	0.306759	7.36555e+06	-41239.1	955.818	-29787.6	0.000000	0.000000	6.306842	0.063060	NaN	0.000000	0.001665	0.001661	28.1288	0.101725	0.001930	52.7075	171.984	-165.244	0.066871	0.305468	-0.702055	-0.703346	0.063060	52.7075	-0.702952	-2.147054E+9	-2.937070E-11	NaN
52	1.000000	0.314796	7.36555e+06	-41239.1	955.818	-29787.6	0.000000	0.000000	6.314879	0.059086	NaN	0.000000	0.001658	0.001662	28.1285	0.014289	0.001974	7.238027	33.9383	-167.849	0.071558	0.313491	-0.694018	-0.695323	0.059086	7.238027	-0.700140	-1.965379E+9	-3.006360E-11	NaN
52	1.000000	0.322764	7.36555e+06	-41239.1	955.82	-29787.6	0.000000	0.000000	6.322843	-0.051464	NaN	0.000000	0.001690	0.001668	28.1299	0.068993	0.002002	34.4543	85.687	-164.972	-0.055053	0.321489	-0.686049	-0.687325	-0.051464	34.4543	-0.684929	-1.217882E+9	4.225689E-11	NaN
52	1.000000	0.330771	7.36555e+06	-41239.1	955.818	-29787.6	0.000000	0.000000	6.330851	-0.018933	NaN	0.000000	0.001654	0.001642	28.1297	0.068699	0.001943	35.3571	-124.985	-165.68	-0.022706	0.329549	-0.678043	-0.679264	-0.018933	35.3571	-0.677641	-9.681442E+8	1.955560E-11	NaN
52	1.000000	0.338812	7.36555e+06	-41239.1	955.818	-29787.6	0.000000	0.000000	6.338894	0.036376	NaN	0.000000	0.001659	0.001659	28.1294	0.080816	0.002086	38.7441	-97.9836	-165.758	0.007005	0.337436	-0.670002	-0.671377	0.036376	38.7441	-0.670706	-7.781385E+8	-4.674781E-11	NaN
52	1.000000	0.346795	7.36555e+06	-41239.1	955.818	-29787.6	0.000000	0.000000	6.346877	0.038107	NaN	0.000000	0.001650	0.001648	28.1308	0.065811	0.001967	33.4508	-45.774	-163.374	-0.046952	0.345507	-0.662019	-0.663306	0.038107	33.4508	-0.662873	-6.078793E+8	-6.268804E-11	NaN
52	1.000000	0.354786	7.36555e+06	-41239.1	955.818	-29787.6	0.000000	0.000000	6.354863	-0.086233	NaN	0.000000	0.001631	0.001707	28.1306	0.091281	0.002018	45.236	127.148	-162.857	-0.056083	0.353498	-0.654028	-0.655316	-0.086233	45.236	-0.652598	-4.395893E+8	1.961669E-10	NaN
52	1.000000	0.362781	7.36555e+06	-41239.1	955.818	-29787.6	0.000000	0.000000	6.362859	-0.055403	NaN	0.000000	0.001619	0.001647	28.1298	0.055203	0.002001	27.5882	-19.0491	-164.334	-0.032146	0.361494	-0.646032	-0.647320	-0.055403	27.5882	-0.644526	-3.407070E+8	1.626117E-10	NaN
52	1.000000	0.370804	7.36556e+06	-41239.1	955.818	-29787.6	0.000000	0.000000	6.370884	-0.023890	NaN	0.000000	0.001640	0.001688	28.1302	0.072891	0.001892	38.5323	148.109	-162.521	0.019755	0.369513	-0.638009	-0.639301	-0.023890	38.5323	-0.637544	-2.732721E+8	8.742155E-11	NaN
52	1.000000	0.378782	7.36556e+06	-41239.1	955.819	-29787.6	0.000000	0.000000	6.378865	0.061209	NaN	0.000000	0.001615	0.001668	28.1301	0.121788	0.002042	59.6295	53.2087	-162.329	-0.037890	0.377526	-0.630032	-0.631288	0.061209	59.6295	-0.630802	-2.208161E+8	-2.771927E-10	NaN
52	1.000000	0.386821	7.36556e+06	-41239.1	955.818	-29787.6	0.000000	0.000000	6.386902	-0.000547	NaN	0.000000	0.001607	0.001701	28.1299	0.123952	0.001976	62.7253	-55.9338	-165.895	0.000654	0.385475	-0.621992	-0.623339	-0.000547	62.7253	-0.621986	-1.670805E+8	3.271198E-12	NaN
52	1.000000	0.394831	7.36556e+06	-41239.1	955.818	-29787.6	0.000000	0.000000	6.394911	-0.022146	NaN	0.000000	0.001632	0.001717	28.1296	0.025280	0.001906	13.263	-122.961	-160.829	-0.019815	0.393479	-0.613983	-0.615335	-0.022146	13.263	-0.612730	-1.246450E+8	1.776711E-10	NaN
52	1.000000	0.402827	7.36556e+06	-41239.1	955.818	-29787.6	0.000000	0.000000	6.402904	-0.067333	NaN	0.000000	0.001613	0.001722	28.1308	0.042456	0.001864	22.7709	-116.989	-165.63	-0.020939	0.401468	-0.605987	-0.607346	-0.067333	22.7709	-0.603769	-9.383477E+7	7.175696E-10	NaN
52	1.000000	0.410837	7.36556e+06	-41239.1	955.819	-29787.6	0.000000	0.000000	6.410917	-0.016917	NaN	0.000000	0.001636	0.001691	28.131	0.018644	0.002167	8.602366	177.978	-165.955	-0.003634	0.409556	-0.597976	-0.599258	-0.016917	8.602366	-0.596502	-7.451945E+7	2.270183E-10	NaN
52	1.000000	0.418805	7.36556e+06	-41239.1	955.817	-29787.6	0.000000	0.000000	6.418886	0.025819	NaN	0.000000	0.001636	0.001705	28.1309	0.016759	0.002016	8.315134	-118.652	-165.118	-0.062564	0.417521	-0.590009	-0.591293	0.025819	8.315134	-0.592338	-6.529646E+7	-3.954153E-10	NaN
52	1.000000	0.426817	7.36556e+06	-41239.1	955.818	-29787.6	0.000000	0.000000	6.426896	-0.045793	NaN	0.000000	0.001624	0.001716	28.1309	0.061023	0.001942	31.4148	-110.155	-164.928	-0.043572	0.425498	-0.581996	-0.583316	-0.045793	31.4148	-0.580903	-4.541377E+7	1.008356E-9	NaN
52	1.000000	0.434845	7.36556e+06	-41239.1	955.817	-29787.6	0.000000	0.000000	6.434925	0.008102	NaN	0.000000	0.001609	0.001729	28.131	0.098844	0.002034	48.606	109.048	-165.973	0.017377	0.433513	-0.573969	-0.575300	0.008102	48.606	-0.574094	-3.657525E+7	-2.215217E-10	NaN
52	1.000000	0.442853	7.36556e+06	-41239.1	955.818	-29787.6	0.000000	0.000000	6.442933	-0.005936	NaN	0.000000	0.001606	0.001696	28.1299	0.043048	0.001956	22.0097	59.7676	-166.057	-0.057760	0.441555	-0.565961	-0.567259	-0.005936	22.0097	-0.565758	-2.805496E+7	2.115892E-10	NaN
52	1.000000	0.450803	7.36556e+06	-41239.1	955.818	-29787.6	0.000000	0.000000	6.450884	0.004262	NaN	0.000000	0.001620	0.001720	28.1303	0.025002	0.001957	12.775	-34.9716	-170.207	-0.051829	0.449540	-0.558011	-0.559273	0.004262	12.775	-0.558261	-2.209607E+7	-1.928651E-10	NaN
52	1.000000	0.458840	7.36556e+06	-41239.1	955.818	-29787.6	0.000000	0.000000	6.458921	-0.000565	NaN	0.000000	0.001595	0.001706	28.1297	0.038485	0.001966	19.5797	120.018	-163.043	0.014670	0.457498	-0.549973	-0.551315	-0.000565	19.5797	-0.549952	-1.695453E+7	3.330474E-11	NaN
52	1.000000	0.466867	7.36556e+06	-41239.1	955.818	-29787.6	0.000000	0.000000	6.466951	0.084230	NaN	0.000000	0.001588	0.001705	28.1296	0.091145	0.001922	47.4187	109.354	-168.236	0.061413	0.465543	-0.541947	-0.543271	0.084230	47.4187	-0.543279	-1.370331E+7	-6.146691E-9	NaN
52	1.000000	0.474852	7.36556e+06	-41239.1	955.818	-29787.6	0.000000	0.000000	6.474932	-0.019774	NaN	0.000000	0.001599	0.001698	28.1301	0.015053	0.002096	7.180620	-74.7537	-166.426	-0.071322	0.473530	-0.533962	-0.535284	-0.019774	7.180620	-0.531896	-9.5259e+06	2.075772E-9	NaN
52	1.000000	0.482832	7.36556e+06	-41239.1	955.819	-29787.6	0.000000	0.000000	6.482915	0.050420	NaN	0.000000	0.001592	0.001718	28.1295	0.044682	0.002187	20.4331	-71.8369	-164.415	0.069409	0.481530	-0.525982	-0.527284	0.050420	20.4331	-0.527832	-8.36501e+06	-6.027518E-9	NaN
52	1.000000	0.490859	7.36556e+06	-41239.1	955.818	-29787.6	0.000000	0.000000	6.490939	-0.001873	NaN	0.000000	0.001589	0.001699	28.1302	0.082233	0.002018	40.7547	0.284592	-168.195	-0.017221	0.489538	-0.517955	-0.519276	-0.001873	40.7547	-0.517920	-6.09072e+06	3.074410E-10	NaN
52	1.000000	0.498848	7.36556e+06	-41239.1	955.818	-29787.6	0.000000	0.000000	6.498929	-0.005121	NaN	0.000000	0.001608	0.001688	28.1298	0.170547	0.001962	86.9466	0.935912	-163.312	0.015511	0.497552	-0.509965	-0.511262	-0.005121	86.9466	-0.509921	-4.71323e+06	1.086444E-9	NaN
52	1.000000	0.506856	7.36556e+06	-41239.1	955.818	-29787.6	0.000000	0.000000	6.506939	0.047524	NaN	0.000000	0.001601	0.001714	28.1298	0.069595	0.002087	33.3519	128.29	-168.177	0.017123	0.505583	-0.501957	-0.503230	0.047524	33.3519	-0.503026	-3.77768e+06	-1.258023E-8	NaN
52	1.000000	0.514886	7.36556e+06	-41239.1	955.819	-29787.6	0.000000	0.000000	6.514967	0.014403	NaN	0.000000	0.001606	0.001683	28.1296	0.091693	0.002163	42.3947	-95.6244	-166.419	-0.035183	0.513565	-0.493928	-0.495249	0.014403	42.3947	-0.494182	-2.84327e+06	-5.065483E-9	NaN
52	1.000000	0.522848	7.36556e+06	-41239.1	955.819	-29787.6	0.000000	0.000000	6.522929	0.026122	NaN	0.000000	0.001558	0.001699	28.1286	0.033675	0.001928	17.4661	164.378	-169.743	0.039828	0.521538	-0.485966	-0.487275	0.026122	17.4661	-0.487088	-2.26301e+06	-1.154303E-8	NaN
52	1.000000	0.530881	7.36556e+06	-41239.1	955.819	-29787.6	0.000000	0.000000	6.530964	0.067515	NaN	0.000000	0.001604	0.001720	28.1287	0.030890	0.002040	15.1402	-85.5831	-167.21	0.054702	0.529527	-0.477933	-0.479286	0.067515	15.1402	-0.481277	-1.87674e+06	-3.597489E-8	NaN
52	1.000000	0.538913	7.36556e+06	-41239.1	955.818	-29787.6	0.000000	0.000000	6.538994	0.012740	NaN	0.000000	0.001572	0.001706	28.129	0.117259	0.002056	57.0432	-128.55	-160.411	0.020502	0.537546	-0.469901	-0.471268	0.012740	57.0432	-0.470068	-1.30726e+06	-9.745895E-9	NaN
52	1.000000	0.546885	7.36556e+06	-41239.1	955.819	-29787.6	0.000000	0.000000	6.546970	0.091177	NaN	0.000000	0.001577	0.001706	28.129	0.082088	0.002048	40.0899	38.7852	-162.614	0.029949	0.545542	-0.461928	-0.463272	0.091177	40.0899	-0.463634	-1.06186e+06	-8.586515E-8	NaN
52	1.000000	0.554891	7.36556e+06	-41239.1	955.818	-29787.6	0.000000	0.000000	6.554971	-0.013214	NaN	0.000000	0.001581	0.001711	28.1283	0.087091	0.002043	42.6269	175.826	-162.721	-0.034966	0.553567	-0.453923	-0.455247	-0.013214	42.6269	-0.453690	-769643	1.716948E-8	NaN
52	1.000000	0.562893	7.36556e+06	-41239.1	955.818	-29787.6	0.000000	0.000000	6.562971	-0.079569	NaN	0.000000	0.001605	0.001685	28.1293	0.061098	0.001928	31.6862	-131.697	-165.278	-0.042833	0.561611	-0.445920	-0.447202	-0.079569	31.6862	-0.444037	-562748	1.413937E-7	NaN
52	1.000000	0.570885	7.36556e+06	-41239.1	955.818	-29787.6	0.000000	0.000000	6.570961	-0.109499	NaN	0.000000	0.001573	0.001684	28.1294	0.016980	0.001943	8.739520	108.331	-165.938	-0.050568	0.569607	-0.437928	-0.439206	-0.109499	8.739520	-0.428532	-339847	3.222016E-7	NaN
52	1.000000	0.578893	7.36556e+06	-41239.1	955.819	-29787.6	0.000000	0.000000	6.578970	-0.091686	NaN	0.000000	0.001541	0.001665	28.1296	0.053126	0.001908	27.8464	177.269	-163.81	-0.118799	0.577581	-0.429920	-0.431233	-0.091686	27.8464	-0.427451	-328087	2.794573E-7	NaN
52	1.000000	0.586885	7.36556e+06	-41239.1	955.818	-29787.6	0.000000	0.000000	6.586967	0.044451	NaN	0.000000	0.001548	0.001691	28.1296	0.120032	0.001995	60.1706	-120.083	-164.782	0.026610	0.585628	-0.421929	-0.423186	0.044451	60.1706	-0.422483	-279010	-1.593174E-7	NaN
52	1.000000	0.594920	7.36556e+06	-41239.1	955.818	-29787.6	0.000000	0.000000	6.595001	0.018809	NaN	0.000000	0.001545	0.001662	28.1297	0.080951	0.001968	41.1401	-127.315	-163.4	-0.002408	0.593582	-0.413894	-0.415232	0.018809	41.1401	-0.414237	-213115	-8.825769E-8	NaN
52	1.000000	0.602916	7.36556e+06	-41239.1	955.819	-29787.6	0.000000	0.000000	6.602997	0.022129	NaN	0.000000	0.001542	0.001653	28.1286	0.050426	0.002028	24.8598	170.051	-165.741	-0.064442	0.601577	-0.405898	-0.407236	0.022129	24.8598	-0.406566	-165782	-1.334847E-7	NaN
52	1.000000	0.610884	7.36556e+06	-41239.1	955.819	-29787.6	0.000000	0.000000	6.610966	0.031792	NaN	0.000000	0.001532	0.001623	28.1284	0.010957	0.002077	5.274872	-136.942	-165.424	-0.000387	0.609554	-0.397930	-0.399259	0.031792	5.274872	-0.402450	-144852	-2.194801E-7	NaN
52	1.000000	0.618910	7.36556e+06	-41239.1	955.818	-29787.6	0.000000	0.000000	6.618992	0.029347	NaN	0.000000	0.001553	0.001625	28.1297	0.068034	0.002014	33.7844	-3.224389	-163.429	-0.010777	0.617550	-0.389903	-0.391264	0.029347	33.7844	-0.390555	-97972.4	-2.995436E-7	NaN
52	1.000000	0.626914	7.36556e+06	-41239.1	955.818	-29787.6	0.000000	0.000000	6.626995	0.032047	NaN	0.000000	0.001559	0.001630	28.1296	0.072320	0.002059	35.124	116.782	-165.874	-0.018572	0.625617	-0.381900	-0.383197	0.032047	35.124	-0.382584	-75329.1	-4.254310E-7	NaN
52	1.000000	0.634901	7.36556e+06	-41239.1	955.818	-29787.6	0.000000	0.000000	6.634981	-0.006838	NaN	0.000000	0.001543	0.001649	28.1296	0.089059	0.001973	45.1406	-70.5594	-163.299	0.056342	0.633581	-0.373913	-0.375233	-0.006838	45.1406	-0.373799	-56338.6	1.213651E-7	NaN
52	1.000000	0.642924	7.36556e+06	-41239.1	955.818	-29787.6	0.000000	0.000000	6.643005	0.019580	NaN	0.000000	0.001524	0.001638	28.1308	0.061690	0.002074	29.7479	162.96	-163.658	0.037149	0.641625	-0.365890	-0.367188	0.019580	29.7479	-0.366384	-44056.8	-4.444227E-7	NaN
52	1.000000	0.650925	7.36556e+06	-41239.1	955.818	-29787.6	0.000000	0.000000	6.651004	-0.047649	NaN	0.000000	0.001544	0.001637	28.1308	0.022103	0.002112	10.4649	-105.119	-164.908	0.059365	0.649588	-0.357889	-0.359226	-0.047649	10.4649	-0.354474	-29639.7	1.607604E-6	NaN
52	1.000000	0.658948	7.36556e+06	-41239.1	955.818	-29787.6	0.000000	0.000000	6.659033	0.096299	NaN	0.000000	0.001549	0.001632	28.1307	0.061710	0.001917	32.1951	-85.2671	-163.41	0.049426	0.657635	-0.349865	-0.351179	0.096299	32.1951	-0.352109	-27390.1	-3.515823E-6	NaN
52	1.000000	0.666939	7.36556e+06	-41239.1	955.818	-29787.6	0.000000	0.000000	6.667021	0.026251	NaN	0.000000	0.001554	0.001653	28.1307	0.065554	0.002124	30.8705	103.329	-166.648	-0.023132	0.665626	-0.341874	-0.343188	0.026251	30.8705	-0.342512	-19867.8	-1.321261E-6	NaN
52	1.000000	0.674942	7.36556e+06	-41239.1	955.818	-29787.6	0.000000	0.000000	6.675024	0.046386	NaN	0.000000	0.001540	0.001653	28.131	0.096667	0.002047	47.2266	-41.2211	-165.558	0.025431	0.673627	-0.333872	-0.335187	0.046386	47.2266	-0.334609	-15235.9	-3.044515E-6	NaN
52	1.000000	0.682951	7.36556e+06	-41239.1	955.818	-29787.6	0.000000	0.000000	6.683032	-0.003741	NaN	0.000000	0.001532	0.001682	28.1297	0.099727	0.002141	46.5748	-174.328	-165.179	0.004220	0.681640	-0.325862	-0.327174	-0.003741	46.5748	-0.325802	-11321.6	3.304629E-7	NaN
52	1.000000	0.690942	7.36556e+06	-41239.1	955.818	-29787.6	0.000000	0.000000	6.691022	-0.002482	NaN	0.000000	0.001557	0.001669	28.1297	0.018837	0.002027	9.293366	160.619	-161.869	0.038411	0.689638	-0.317872	-0.319176	-0.002482	9.293366	-0.317672	-8596.97	2.887644E-7	NaN
52	1.000000	0.698950	7.36556e+06	-41239.1	955.818	-29787.6	0.000000	0.000000	6.699031	-0.004085	NaN	0.000000	0.001567	0.001663	28.1299	0.011487	0.001915	5.999686	-31.0032	-165.35	0.020982	0.697587	-0.309863	-0.311227	-0.004085	5.999686	-0.309353	-6478.5	6.305882E-7	NaN
52	1.000000	0.706943	7.36556e+06	-41239.1	955.818	-29787.6	0.000000	0.000000	6.707024	-0.007385	NaN	0.000000	0.001550	0.001676	28.1299	0.060330	0.001949	30.953	-65.8117	-165.383	0.034931	0.705649	-0.301870	-0.303164	-0.007385	30.953	-0.301691	-4986.54	1.481015E-6	NaN
52	1.000000	0.714964	7.36556e+06	-41239.1	955.818	-29787.6	0.000000	0.000000	6.715041	-0.086754	NaN	0.000000	0.001575	0.001667	28.1298	0.093382	0.001933	48.2999	-69.487	-164.867	-0.003194	0.713652	-0.293849	-0.295161	-0.086754	48.2999	-0.292502	-3637.14	2.385237E-5	NaN
52	1.000000	0.722958	7.36556e+06	-41239.1	955.818	-29787.6	0.000000	0.000000	6.723035	-0.073831	NaN	0.000000	0.001578	0.001706	28.1309	0.046557	0.001933	24.08	-173.917	-167.651	-0.042516	0.721673	-0.285856	-0.287141	-0.073831	24.08	-0.283556	-2670.26	2.764950E-5	NaN
52	1.000000	0.730976	7.36556e+06	-41239.1	955.819	-29787.6	0.000000	0.000000	6.731055	-0.044205	NaN	0.000000	0.001576	0.001679	28.1308	0.025055	0.002041	12.2764	-56.9239	-162.776	-0.062533	0.729651	-0.277838	-0.279162	-0.044205	12.2764	-0.275137	-1992.86	2.218193E-5	NaN
52	1.000000	0.738954	7.36556e+06	-41239.1	955.818	-29787.6	0.000000	0.000000	6.739032	-0.038993	NaN	0.000000	0.001616	0.001647	28.1308	0.042724	0.001933	22.1071	160.954	-166.022	-0.097267	0.737679	-0.269860	-0.271134	-0.038993	22.1071	-0.268537	-1582.33	2.464287E-5	NaN
52	1.000000	0.746994	7.36556e+06	-41239.1	955.819	-29787.6	0.000000	0.000000	6.747075	0.024267	NaN	0.000000	0.001573	0.001676	28.1306	0.032380	0.001997	16.2168	16.7894	-164.019	0.013740	0.745632	-0.261820	-0.263181	0.024267	16.2168	-0.262942	-1300.04	-1.866655E-5	NaN
52	1.000000	0.754967	7.36556e+06	-41239.1	955.819	-29787.6	0.000000	0.000000	6.755047	-0.012662	NaN	0.000000	0.001623	0.001641	28.1297	0.092634	0.002046	45.279	-136.276	-160.596	0.061597	0.753639	-0.253847	-0.255175	-0.012662	45.279	-0.253637	-935.665	1.353280E-5	NaN
52	1.000000	0.762962	7.36556e+06	-41239.1	955.817	-29787.6	0.000000	0.000000	6.763043	0.016541	NaN	0.000000	0.001593	0.001660	28.1286	0.079162	0.002118	37.3744	111.124	-167.9	0.021542	0.761622	-0.245852	-0.247192	0.016541	37.3744	-0.246184	-717.527	-2.305214E-5	NaN
52	1.000000	0.770977	7.36556e+06	-41239.1	955.819	-29787.6	0.000000	0.000000	6.771055	-0.055260	NaN	0.000000	0.001588	0.001679	28.1285	0.071699	0.002001	35.8352	162.104	-162.927	-0.040287	0.769655	-0.237836	-0.239158	-0.055260	35.8352	-0.236680	-510.039	0.000108	NaN
52	1.000000	0.778986	7.36556e+06	-41239.1	955.818	-29787.6	0.000000	0.000000	6.779068	0.030913	NaN	0.000000	0.001584	0.001659	28.1284	0.061329	0.001962	31.2602	-70.6581	-164.692	-0.010040	0.777700	-0.229828	-0.231114	0.030913	31.2602	-0.230569	-408.796	-7.561846E-5	NaN
52	1.000000	0.786956	7.36556e+06	-41239.1	955.817	-29787.6	0.000000	0.000000	6.787032	-0.103937	NaN	0.000000	0.001605	0.001687	28.1283	0.111066	0.002026	54.8177	61.9875	-168.994	-0.006580	0.785601	-0.221857	-0.223213	-0.103937	54.8177	-0.220435	-282.25	0.000368	NaN
52	1.000000	0.794986	7.36556e+06	-41239.1	955.818	-29787.6	0.000000	0.000000	6.795068	0.030775	NaN	0.000000	0.001628	0.001665	28.1285	0.133908	0.002072	64.6394	143.904	-165.158	0.050383	0.793662	-0.213828	-0.215151	0.030775	64.6394	-0.214185	-224.077	-0.000137	NaN
52	1.000000	0.802991	7.36556e+06	-41239.1	955.818	-29787.6	0.000000	0.000000	6.803070	-0.028500	NaN	0.000000	0.001575	0.001677	28.1294	0.077090	0.002038	37.8274	113.465	-161.053	-0.028986	0.801680	-0.205823	-0.207134	-0.028500	37.8274	-0.205258	-160.608	0.000177	NaN
52	1.000000	0.811001	7.36556e+06	-41239.1	955.819	-29787.6	0.000000	0.000000	6.811083	0.026924	NaN	0.000000	0.001569	0.001663	28.1298	0.093783	0.001977	47.4274	-154.828	-165.569	0.041341	0.809657	-0.197812	-0.199157	0.026924	47.4274	-0.198238	-123.226	-0.000218	NaN
52	1.000000	0.818972	7.36556e+06	-41239.1	955.818	-29787.6	0.000000	0.000000	6.819053	0.021027	NaN	0.000000	0.001623	0.001664	28.1299	0.031543	0.001937	16.2858	35.2196	-169.834	0.012726	0.817734	-0.189842	-0.191080	0.021027	16.2858	-0.190810	-92.8002	-0.000227	NaN
52	1.000000	0.826973	7.36556e+06	-41239.1	955.818	-29787.6	0.000000	0.000000	6.827054	-0.002717	NaN	0.000000	0.001596	0.001688	28.1298	0.056330	0.001938	29.0675	-23.2566	-166.176	0.033297	0.825706	-0.181840	-0.183107	-0.002717	29.0675	-0.181770	-65.3929	4.154835E-5	NaN
52	1.000000	0.834996	7.36556e+06	-41239.1	955.819	-29787.6	0.000000	0.000000	6.835074	-0.049887	NaN	0.000000	0.001545	0.001693	28.1295	0.063937	0.002068	30.9216	155.678	-167.275	-0.059277	0.833704	-0.173818	-0.175109	-0.049887	30.9216	-0.172608	-45.5794	0.001094	NaN
52	1.000000	0.842992	7.36556e+06	-41239.1	955.818	-29787.6	0.000000	0.000000	6.843072	-0.013039	NaN	0.000000	0.001580	0.001657	28.1283	0.041759	0.002165	19.2849	156.826	-167.478	0.012847	0.841707	-0.165822	-0.167107	-0.013039	19.2849	-0.165314	-34.0272	0.000383	NaN
52	1.000000	0.851007	7.36556e+06	-41239.1	955.818	-29787.6	0.000000	0.000000	6.851089	0.043359	NaN	0.000000	0.001567	0.001671	28.1288	0.099634	0.002014	49.4809	-174.309	-165.12	0.045356	0.849724	-0.157807	-0.159089	0.043359	49.4809	-0.158464	-25.7418	-0.001684	NaN
52	1.000000	0.859000	7.36556e+06	-41239.1	955.818	-29787.6	0.000000	0.000000	6.859082	0.032617	NaN	0.000000	0.001596	0.001663	28.1292	0.052565	0.002011	26.1412	54.5093	-167.27	0.009271	0.857727	-0.149813	-0.151087	0.032617	26.1412	-0.150749	-18.6918	-0.001745	NaN
52	1.000000	0.867013	7.36556e+06	-41239.1	955.818	-29787.6	0.000000	0.000000	6.867091	-0.051350	NaN	0.000000	0.001581	0.001655	28.1283	0.043758	0.001948	22.4582	157.743	-165.93	-0.091119	0.865677	-0.141801	-0.143137	-0.051350	22.4582	-0.140086	-11.8736	0.004325	NaN
52	1.000000	0.874979	7.36556e+06	-41239.1	955.818	-29787.6	0.000000	0.000000	6.875058	-0.028074	NaN	0.000000	0.001582	0.001649	28.1287	0.047263	0.002072	22.8064	-135.88	-162.068	-0.077163	0.873742	-0.133835	-0.135071	-0.028074	22.8064	-0.132911	-8.675094	0.003236	NaN
52	1.000000	0.882995	7.36556e+06	-41239.1	955.818	-29787.6	0.000000	0.000000	6.883074	-0.047146	NaN	0.000000	0.001558	0.001674	28.1294	0.088481	0.001970	44.9066	-49.1665	-166.668	-0.035231	0.881722	-0.125818	-0.127091	-0.047146	44.9066	-0.125031	-6.089859	0.007742	NaN
52	1.000000	0.891019	7.36556e+06	-41239.1	955.817	-29787.6	0.000000	0.000000	6.891098	-0.032020	NaN	0.000000	0.001553	0.001688	28.1307	0.093953	0.002039	46.0726	77.5592	-164.253	-0.103915	0.889699	-0.117795	-0.119114	-0.032020	46.0726	-0.117274	-4.253464	0.007528	NaN
52	1.000000	0.899037	7.36556e+06	-41239.1	955.818	-29787.6	0.000000	0.000000	6.899118	0.011930	NaN	0.000000	0.001562	0.001670	28.1307	0.090849	0.001968	46.1682	40.5515	-164.648	0.014745	0.897695	-0.109776	-0.111119	0.011930	46.1682	-0.109970	-3.000856	-0.003975	NaN
52	1.000000	0.907031	7.36556e+06	-41239.1	955.818	-29787.6	0.000000	0.000000	6.907112	0.004152	NaN	0.000000	0.001559	0.001705	28.1311	0.056114	0.002059	27.2536	140.665	-167.588	0.037834	0.905713	-0.101782	-0.103101	0.004152	27.2536	-0.101896	-2.011875	-0.002064	NaN
52	1.000000	0.915040	7.36556e+06	-41239.1	955.818	-29787.6	0.000000	0.000000	6.915116	-0.094549	NaN	0.000000	0.001512	0.001702	28.131	0.050278	0.001879	26.7527	86.2623	-163.659	-0.003991	0.913764	-0.093774	-0.095049	-0.094549	26.7527	-0.091123	-1.148370	0.082333	NaN
52	1.000000	0.923063	7.36556e+06	-41239.1	955.818	-29787.6	0.000000	0.000000	6.923142	-0.042010	NaN	0.000000	0.001581	0.001650	28.13	0.015019	0.002049	7.329167	-14.0873	-161.932	0.058116	0.921769	-0.085750	-0.087044	-0.042010	7.329167	-0.081452	-0.672679	0.062452	NaN
52	1.000000	0.931059	7.36556e+06	-41239.1	955.819	-29787.6	0.000000	0.000000	6.931138	-0.024460	NaN	0.000000	0.001565	0.001660	28.1298	0.048922	0.001955	25.0182	133.822	-163.903	-0.017285	0.929712	-0.077755	-0.079101	-0.024460	25.0182	-0.077022	-0.520548	0.046989	NaN
52	1.000000	0.939027	7.36556e+06	-41239.1	955.818	-29787.6	0.000000	0.000000	6.939107	-0.026684	NaN	0.000000	0.001575	0.001683	28.1297	0.028030	0.002116	13.2463	-146.098	-161.021	-0.108492	0.937742	-0.069786	-0.071072	-0.026684	13.2463	-0.068275	-0.306486	0.087066	NaN
52	1.000000	0.947057	7.36556e+06	-41239.1	955.818	-29787.6	0.000000	0.000000	6.947137	-0.017296	NaN	0.000000	0.001614	0.001668	28.1298	0.080204	0.001898	42.2569	163.651	-164.349	0.012902	0.945760	-0.061757	-0.063054	-0.017296	42.2569	-0.061450	-0.198101	0.087309	NaN
52	1.000000	0.955043	7.36556e+06	-41239.1	955.819	-29787.6	0.000000	0.000000	6.955123	0.006394	NaN	0.000000	0.001574	0.001658	28.1297	0.031599	0.001955	16.1603	-169.949	-164.814	-0.021357	0.953698	-0.053771	-0.055115	0.006394	16.1603	-0.054068	-0.120841	-0.052913	NaN
52	1.000000	0.963066	7.36556e+06	-41239.1	955.819	-29787.6	0.000000	0.000000	6.963147	0.009193	NaN	0.000000	0.001677	0.001674	28.1307	0.076853	0.001894	40.5724	-88.6869	-167.641	-0.017711	0.961737	-0.045748	-0.047077	0.009193	40.5724	-0.045918	-0.068556	-0.134091	NaN
52	1.000000	0.971064	7.36556e+06	-41239.1	955.818	-29787.6	0.000000	0.000000	6.971142	-0.043437	NaN	0.000000	0.001678	0.001672	28.1304	0.131221	0.001954	67.1589	-141.044	-165.117	-0.027245	0.969705	-0.037750	-0.039108	-0.043437	67.1589	-0.037265	-0.037393	1.161636	NaN
52	1.000000	0.979063	7.36556e+06	-41239.1	955.819	-29787.6	0.000000	0.000000	6.979144	0.003216	NaN	0.000000	0.001674	0.001674	28.1306	0.068007	0.001932	35.1959	25.4214	-159.564	-0.019299	0.977730	-0.029751	-0.031083	0.003216	35.1959	-0.029819	-0.022748	-0.141397	NaN
52	1.000000	0.987076	7.36556e+06	-41239.1	955.819	-29787.6	0.000000	0.000000	6.987157	0.020213	NaN	0.000000	0.001674	0.001670	28.1304	0.030039	0.002019	14.8759	17.6358	-164.227	-0.072895	0.985757	-0.021738	-0.023057	0.020213	14.8759	-0.022757	-0.014764	-1.369132	NaN
52	1.000000	0.995061	7.36556e+06	-41239.1	955.819	-29787.6	0.000000	0.000000	6.995144	0.042788	NaN	0.000000	0.001683	0.001668	28.1305	0.018262	0.001891	9.656250	43.7059	-165.039	-0.009810	0.993795	-0.013752	-0.015018	0.042788	9.656250	-0.017076	-0.010559	-4.052297	NaN
52	1.000000	1.003080	7.36556e+06	-41239.1	955.818	-29787.6	0.000000	0.000000	7.003159	-0.020317	NaN	0.000000	0.001649	0.001668	28.1292	0.064882	0.002034	31.9041	-175.257	-166.862	0.040612	1.001810	-0.005734	-0.007004	-0.020317	31.9041	-0.005256	-0.003577	5.679903	NaN
52	1.000000	1.011070	7.36556e+06	-41239.1	955.818	-29787.6	0.000000	0.000000	7.011235	2.052379	NaN	0.000000	0.001699	0.001684	28.1296	2.744519	0.001979	1386.94	10.9311	-170.766	0.936417	1.009785	0.002256	0.000972	2.052379	1386.94	0.001146	0.000876	2342.32	42808
52	2.000000	1.017713	7.36556e+06	-41239.1	955.819	-29787.6	0.000000	0.000000	7.018147	8.593350	NaN	0.000000	0.001683	0.001674	28.1299	8.739678	0.001581	5527.96	5.395670	-169.379	8.605554	1.017324	0.008900	0.008510	8.593350	5527.96	0.007734	0.006770	1269.36	61383.2
52	2.000000	1.019749	7.36556e+06	-41239.1	955.819	-29787.6	0.000000	0.000000	7.020323	12.027	NaN	0.000000	0.001675	0.001703	28.128	11.0675	0.001669	6631.87	4.261347	-168.322	11.9433	1.019429	0.010935	0.010615	12.027	6631.87	0.009575	0.008713	1380.37	64912.6
52	2.000000	1.021700	7.36556e+06	-41239.1	955.82	-29787.6	0.000000	0.000000	7.022363	14.1807	NaN	0.000000	0.001650	0.001681	28.1288	13.1146	0.001805	7266.15	4.387452	-170.044	13.8468	1.021373	0.012886	0.012559	14.1807	7266.15	0.011423	0.010806	1312.32	63863
52	2.000000	1.023655	7.36556e+06	-41239.1	955.819	-29787.6	0.000000	0.000000	7.024448	17.3338	NaN	0.000000	0.001609	0.001691	28.1292	15.6535	0.001842	8496.87	9.363756	-176.698	16.9513	1.023338	0.014842	0.014524	17.3338	8496.87	0.013312	0.013099	1323.25	67827.4
52	2.000000	1.025634	7.36556e+06	-41239.1	955.819	-29787.6	0.000000	0.000000	7.026604	21.6456	NaN	0.000000	0.001619	0.001715	28.1292	16.6843	0.001684	9907.69	9.413959	-178.16	21.6197	1.025355	0.016820	0.016541	21.6456	9907.69	0.015182	0.015529	1393.92	72640.7
52	2.000000	1.027629	7.36556e+06	-41239.1	955.819	-29787.6	0.000000	0.000000	7.028735	24.9648	NaN	0.000000	0.001619	0.001684	28.1288	19.0417	0.001834	10380.7	7.824639	-176.775	23.9451	1.027310	0.018815	0.018497	24.9648	10380.7	0.017011	0.018062	1382.2	70570.5
52	2.000000	1.029680	7.36556e+06	-41239.1	955.818	-29787.6	0.000000	0.000000	7.030976	29.5732	NaN	0.000000	0.001617	0.001695	28.1289	20.4335	0.001786	11442.6	4.691166	-174.574	29.3393	1.029400	0.020866	0.020586	29.5732	11442.6	0.018928	0.020885	1415.99	72340.3
52	2.000000	1.031628	7.36556e+06	-41239.1	955.819	-29787.6	0.000000	0.000000	7.033035	32.2746	NaN	0.000000	0.001615	0.001682	28.1301	22.1194	0.001755	12604.1	7.962158	-178.894	32.7705	1.031334	0.022814	0.022520	32.2746	12604.1	0.020894	0.023966	1346.67	74384.8
52	2.000000	1.033583	7.36556e+06	-41239.1	955.819	-29787.6	0.000000	0.000000	7.035162	36.4754	NaN	0.000000	0.001569	0.001675	28.1285	24.5835	0.001847	13307	4.051996	-175.407	34.3239	1.033316	0.024769	0.024503	36.4754	13307	0.022713	0.026986	1351.63	74008.9
52	2.000000	1.035636	7.36556e+06	-41239.1	955.819	-29787.6	0.000000	0.000000	7.037452	42.225	NaN	0.000000	0.001575	0.001657	28.1284	26.7342	0.001909	14002.1	6.623298	-178.011	42.8036	1.035370	0.026822	0.026557	42.225	14002.1	0.024561	0.030221	1397.2	73588.8
52	2.000000	1.037609	7.36556e+06	-41239.1	955.819	-29787.6	0.000000	0.000000	7.039684	48.5309	NaN	0.000000	0.001604	0.001723	28.128	28.1123	0.001875	14989.7	5.277867	-177.632	47.7234	1.037276	0.028796	0.028462	48.5309	14989.7	0.026367	0.033550	1446.52	74768.4
52	2.000000	1.039597	7.36556e+06	-41239.1	955.818	-29787.6	0.000000	0.000000	7.041876	53.494	NaN	0.000000	0.001604	0.001654	28.1277	29.8278	0.001727	17272.2	3.644487	-177.787	52.0402	1.039340	0.030783	0.030527	53.494	17272.2	0.028460	0.037613	1422.21	81367.6
52	2.000000	1.041613	7.36556e+06	-41239.1	955.818	-29787.6	0.000000	0.000000	7.044152	59.8302	NaN	0.000000	0.001640	0.001695	28.129	31.7225	0.001823	17398.1	6.022256	-179.056	59.6287	1.041320	0.032799	0.032507	59.8302	17398.1	0.030220	0.041201	1452.14	78310.2
52	2.000000	1.043565	7.36556e+06	-41239.1	955.819	-29787.6	0.000000	0.000000	7.046403	67.1196	NaN	0.000000	0.001635	0.001703	28.1288	33.1921	0.001807	18371.9	2.101231	-175.744	65.0795	1.043299	0.034751	0.034485	67.1196	18371.9	0.032011	0.045015	1491.05	79113.4
52	2.000000	1.045569	7.36556e+06	-41239.1	955.819	-29787.6	0.000000	0.000000	7.048686	73.8894	NaN	0.000000	0.001633	0.001702	28.1289	34.0374	0.001709	19912.9	4.034796	-179.142	72.2777	1.045268	0.036755	0.036454	73.8894	19912.9	0.033972	0.049380	1496.34	81871.4
52	2.000000	1.047589	7.36556e+06	-41239.1	955.819	-29787.6	0.000000	0.000000	7.050883	78.189	NaN	0.000000	0.001665	0.001672	28.1287	36.8871	0.001834	20110.3	6.488891	179.588	77.5962	1.047251	0.038775	0.038437	78.189	20110.3	0.035859	0.053766	1454.24	79238.7
52	2.000000	1.049557	7.36556e+06	-41239.1	955.819	-29787.6	0.000000	0.000000	7.053355	90.4722	NaN	0.000000	0.001614	0.001693	28.1287	38.2209	0.001711	22336.6	2.543697	-178.821	87.1082	1.049240	0.040743	0.040426	90.4722	22336.6	0.037705	0.058232	1553.64	84568.3
52	2.000000	1.051582	7.36556e+06	-41239.1	955.819	-29787.6	0.000000	0.000000	7.055567	95.027	NaN	0.000000	0.001610	0.001694	28.1301	39.7836	0.001765	22542.6	-1.215528	-175.588	92.7973	1.051235	0.042768	0.042421	95.027	22542.6	0.039606	0.063015	1508	82045.5
52	2.000000	1.053580	7.36556e+06	-41239.1	955.818	-29787.6	0.000000	0.000000	7.057906	103.288	NaN	0.000000	0.001636	0.001690	28.1286	42.8532	0.001766	24270.8	7.593596	175.649	103.084	1.053231	0.044767	0.044417	103.288	24270.8	0.041575	0.068162	1515.34	84935
52	2.000000	1.055486	7.36556e+06	-41239.1	955.818	-29787.6	0.000000	0.000000	7.060072	109.62	NaN	0.000000	0.001610	0.001695	28.1288	43.4334	0.001645	26410.6	3.677831	177.914	104.139	1.055224	0.046673	0.046410	109.62	26410.6	0.043560	0.073551	1490.4	88972.8
52	2.000000	1.057600	7.36556e+06	-41239.1	955.818	-29787.6	0.000000	0.000000	7.062494	117.121	NaN	0.000000	0.001642	0.001719	28.1287	46.2583	0.001783	25941.6	3.170973	179.613	118.396	1.057235	0.048786	0.048421	117.121	25941.6	0.045400	0.078727	1487.69	84471.2
52	2.000000	1.059598	7.36556e+06	-41239.1	955.818	-29787.6	0.000000	0.000000	7.064876	126.451	NaN	0.000000	0.001616	0.001695	28.1288	48.6768	0.001911	25474.7	7.942138	175.982	125.891	1.059233	0.050785	0.050419	126.451	25474.7	0.047062	0.083548	1513.51	80521.8
52	2.000000	1.061571	7.36556e+06	-41239.1	955.818	-29787.6	0.000000	0.000000	7.067315	137.815	NaN	0.000000	0.001615	0.001708	28.1297	50.0266	0.001827	27381.7	6.381591	175.66	137.04	1.061240	0.052757	0.052426	137.815	27381.7	0.048983	0.089294	1543.37	83718.6
52	2.000000	1.063537	7.36556e+06	-41239.1	955.819	-29787.6	0.000000	0.000000	7.069665	147.163	NaN	0.000000	0.001595	0.001684	28.1302	52.0507	0.001768	29443	3.324538	177.765	143.939	1.063266	0.054723	0.054452	147.163	29443	0.050974	0.095449	1541.8	87070.4
52	2.000000	1.065497	7.36556e+06	-41239.1	955.819	-29787.6	0.000000	0.000000	7.072048	157.449	NaN	0.000000	0.001620	0.001701	28.1297	53.0603	0.001660	31955.1	6.925813	173.222	154.337	1.065231	0.056684	0.056417	157.449	31955.1	0.052988	0.101873	1545.55	91471.2
52	2.000000	1.067613	7.36556e+06	-41239.1	955.818	-29787.6	0.000000	0.000000	7.074730	171.214	NaN	0.000000	0.001604	0.001720	28.1298	56.1172	0.001808	31035	4.282787	177.074	171.72	1.067211	0.058799	0.058397	171.214	31035	0.054661	0.107364	1594.7	86535.8
52	2.000000	1.069597	7.36556e+06	-41239.1	955.818	-29787.6	0.000000	0.000000	7.077133	181.398	NaN	0.000000	0.001615	0.001690	28.1301	58.6016	0.001787	32795.8	7.933293	173.21	181.229	1.069202	0.060784	0.060389	181.398	32795.8	0.056635	0.114021	1590.92	88736
52	2.000000	1.071561	7.36556e+06	-41239.1	955.818	-29787.6	0.000000	0.000000	7.079321	186.869	NaN	0.000000	0.001607	0.001668	28.1298	59.9939	0.001846	32502.2	3.975822	176.241	185.852	1.071235	0.062748	0.062422	186.869	32502.2	0.058435	0.120258	1553.9	85630.5
52	2.000000	1.073588	7.36556e+06	-41239.1	955.819	-29787.6	0.000000	0.000000	7.081894	200.166	NaN	0.000000	0.001608	0.001667	28.1288	63.3428	0.001807	35059.6	7.326088	172.196	199.802	1.073273	0.064774	0.064460	200.166	35059.6	0.060492	0.127579	1568.96	89679
52	2.000000	1.075524	7.36556e+06	-41239.1	955.819	-29787.6	0.000000	0.000000	7.084395	213.882	NaN	0.000000	0.001610	0.001664	28.1289	63.6832	0.001781	35766.4	7.111519	172.566	211.73	1.075264	0.066711	0.066450	213.882	35766.4	0.062226	0.133911	1597.2	89297.7
52	2.000000	1.077649	7.36556e+06	-41239.1	955.818	-29787.6	0.000000	0.000000	7.086988	225.283	NaN	0.000000	0.001587	0.001694	28.1287	67.0009	0.001807	37088.3	7.777076	172.1	228.662	1.077260	0.068835	0.068446	225.283	37088.3	0.064279	0.141599	1590.99	90049.1
52	2.000000	1.079649	7.36556e+06	-41239.1	955.819	-29787.6	0.000000	0.000000	7.089372	234.621	NaN	0.000000	0.001605	0.001694	28.1289	68.9468	0.001836	37559.7	7.855463	172.25	236.136	1.079192	0.070836	0.070378	234.621	37559.7	0.066151	0.148782	1576.94	88965.1
52	2.000000	1.081526	7.36556e+06	-41239.1	955.818	-29787.6	0.000000	0.000000	7.091793	247.872	NaN	0.000000	0.001647	0.001649	28.1286	69.6095	0.001792	38837.6	6.625217	172.386	246.036	1.081262	0.072712	0.072448	247.872	38837.6	0.067926	0.155752	1591.46	89910.3
52	2.000000	1.083590	7.36556e+06	-41239.1	955.819	-29787.6	0.000000	0.000000	7.094179	255.701	NaN	0.000000	0.001655	0.001609	28.1295	71.2636	0.001749	40753.7	0.042661	178.244	255.209	1.083335	0.074777	0.074521	255.701	40753.7	0.070071	0.164376	1555.58	91837.7
52	2.000000	1.085496	7.36556e+06	-41239.1	955.819	-29787.6	0.000000	0.000000	7.096687	270.341	NaN	0.000000	0.001696	0.001614	28.1298	72.3803	0.001771	40875.6	4.032354	174.664	268.125	1.085206	0.076683	0.076392	270.341	40875.6	0.071722	0.171165	1579.42	90267.3
52	2.000000	1.087546	7.36556e+06	-41239.1	955.819	-29787.6	0.000000	0.000000	7.099007	276.911	NaN	0.000000	0.001698	0.001626	28.1289	75.0956	0.001785	42077.2	7.265531	171.22	276.003	1.087249	0.078733	0.078435	276.911	42077.2	0.073797	0.179875	1539.46	90642.9
52	2.000000	1.089519	7.36556e+06	-41239.1	955.819	-29787.6	0.000000	0.000000	7.101640	292.982	NaN	0.000000	0.001706	0.001652	28.1289	76.5849	0.001834	41751.8	4.866406	174.298	291.825	1.089211	0.080706	0.080397	292.982	41751.8	0.075443	0.186930	1567.33	88228.4
52	2.000000	1.091518	7.36556e+06	-41239.1	955.819	-29787.6	0.000000	0.000000	7.104283	308.631	NaN	0.000000	0.001681	0.001655	28.1286	78.1139	0.001828	42723.2	5.528097	173.017	309.046	1.091124	0.082705	0.082310	308.631	42723.2	0.077287	0.194986	1582.84	88396.6
52	2.000000	1.093538	7.36556e+06	-41239.1	955.819	-29787.6	0.000000	0.000000	7.106806	320.896	NaN	0.000000	0.001705	0.001645	28.1274	80.0363	0.001750	45743.7	4.065417	174.042	320.259	1.093218	0.084724	0.084404	320.896	45743.7	0.079463	0.204697	1567.66	92373.7
52	2.000000	1.095476	7.36556e+06	-41239.1	955.819	-29787.6	0.000000	0.000000	7.109383	336.455	NaN	0.000000	0.001606	0.001665	28.1273	80.8559	0.001733	46652.1	5.161912	172.972	331.438	1.095142	0.086662	0.086328	336.455	46652.1	0.081253	0.212851	1580.7	92386
52	2.000000	1.097603	7.36556e+06	-41239.1	955.819	-29787.6	0.000000	0.000000	7.111999	348.327	NaN	0.000000	0.001647	0.001640	28.1274	83.8175	0.001785	46965.4	4.910903	173.16	353.271	1.097177	0.088790	0.088364	348.327	46965.4	0.083227	0.222017	1568.92	91066.5
52	2.000000	1.099579	7.36556e+06	-41239.1	955.819	-29787.6	0.000000	0.000000	7.114560	362.584	NaN	0.000000	0.001576	0.001650	28.1277	84.5032	0.001691	49965.2	2.519031	174.71	361.181	1.099344	0.090765	0.090530	362.584	49965.2	0.085322	0.231942	1563.25	94787.4
52	2.000000	1.101488	7.36556e+06	-41239.1	955.819	-29787.6	0.000000	0.000000	7.117287	382.466	NaN	0.000000	0.001602	0.001697	28.1273	85.7659	0.001766	48574.7	2.246765	175.36	379.413	1.101266	0.092674	0.092452	382.466	48574.7	0.086769	0.238913	1600.86	90795.2
52	2.000000	1.103456	7.36556e+06	-41239.1	955.819	-29787.6	0.000000	0.000000	7.119739	394.262	NaN	0.000000	0.001578	0.001661	28.1287	89.0628	0.001785	49904.5	3.258225	173.829	390.895	1.103156	0.094642	0.094343	394.262	49904.5	0.088717	0.248452	1586.87	91472.7
52	2.000000	1.105512	7.36556e+06	-41239.1	955.819	-29787.6	0.000000	0.000000	7.122491	411.188	NaN	0.000000	0.001595	0.001718	28.1287	90.391	0.001818	49716.4	6.621272	171.509	410.368	1.105099	0.096698	0.096286	411.188	49716.4	0.090495	0.257311	1598.02	89545.6
52	2.000000	1.107522	7.36556e+06	-41239.1	955.819	-29787.6	0.000000	0.000000	7.124969	422.576	NaN	0.000000	0.001606	0.001667	28.1283	91.4599	0.001800	50808.4	4.476596	173.072	421.361	1.107104	0.098708	0.098291	422.576	50808.4	0.092470	0.267321	1580.78	89782.6
52	2.000000	1.109553	7.36556e+06	-41239.1	955.82	-29787.6	0.000000	0.000000	7.127289	429.606	NaN	0.000000	0.001587	0.001700	28.1288	94.0105	0.001821	51626.5	2.194613	175.206	429.43	1.109346	0.100739	0.100533	429.606	51626.5	0.094498	0.277786	1546.54	89493.4
52	2.000000	1.111502	7.36556e+06	-41239.1	955.82	-29787.6	0.000000	0.000000	7.130026	448.773	NaN	0.000000	0.001627	0.001692	28.1281	96.0047	0.001872	51280.6	4.322795	173.064	449.308	1.111140	0.102688	0.102327	448.773	51280.6	0.096125	0.286314	1567.42	87559.9
52	2.000000	1.113504	7.36556e+06	-41239.1	955.819	-29787.6	0.000000	0.000000	7.132652	463.969	NaN	0.000000	0.001603	0.001682	28.1271	99.3188	0.001897	52366.9	7.235611	170.306	462.776	1.113172	0.104690	0.104359	463.969	52366.9	0.098045	0.296540	1564.61	87859.5
52	2.000000	1.115475	7.36556e+06	-41239.1	955.819	-29787.6	0.000000	0.000000	7.135235	478.838	NaN	0.000000	0.001604	0.001662	28.1271	98.5534	0.001774	55540.7	3.610015	173.23	475.678	1.115167	0.106662	0.106353	478.838	55540.7	0.100196	0.308188	1553.72	91406.4