File: remote_trans/data/nanoindenter/0828-1/data/Data_2025-08-06,11h17m57s/2025-07-22_16-23-58_1_51.txt
2025-07-22, 16:23:58, 1
Index	Phase	Displacement	Time	Pos X	Pos Y	Pos Z	Rot A	Rot B	Piezo Z	Force A	Force B	Gripper	Voltage A	Voltage B	Temperature	Amplitude force	Amplitude pos	Stiffness	Phase shift	Phase excitation	Force A raw	Displacement raw	HMax	HMax raw	Real Force	Real Stiffness	Contact Depth	Area	Hardness	Reduced Mod.
[#]	[#]	[um]	[s]	[um]	[um]	[um]	[m°]	[m°]	[um]	[uN]	[uN]	[V]	[V]	[V]	[°C]	[uN]	[um]	[N/m]	[°]	[°]	[uN]	[um]	[um]	[um]	[uN]	[N/m]	[um]	[um^2]	[MPa]	[MPa]
51	1.000000	0.002273	7.36554e+06	-41189.1	955.818	-29787.7	0.000000	0.000000	6.002776	-0.023102	NaN	0.000000	0.001729	0.001663	28.1095	0.005389	0.000892	6.039878	-153.702	-168.109	0.022252	0.001075	-1.167475	-1.168673	-0.023102	6.039878	-1.164606	-3.686442E+15	6.266749E-18	NaN
51	1.000000	0.012354	7.36554e+06	-41189.1	955.819	-29787.7	0.000000	0.000000	6.012861	0.073583	NaN	0.000000	0.001654	0.001672	28.1303	0.099891	0.001242	80.4454	-110.034	17.6939	0.036382	0.010883	-1.157394	-1.158864	0.073583	80.4454	-1.158080	-3.013921E+15	-2.441422E-17	NaN
51	1.000000	0.022268	7.36554e+06	-41189.1	955.819	-29787.7	0.000000	0.000000	6.022774	0.025474	NaN	0.000000	0.001687	0.001661	28.0883	0.004972	0.001643	3.026184	178.991	-165.273	0.030624	0.020941	-1.147479	-1.148807	0.025474	3.026184	-1.153793	-2.640362E+15	-9.647783E-18	NaN
51	1.000000	0.032232	7.36554e+06	-41189.1	955.818	-29787.7	0.000000	0.000000	6.032734	-0.052486	NaN	0.000000	0.001692	0.001691	28.0806	0.001821	0.001912	0.952631	109.408	14.5598	-0.075259	0.030928	-1.137516	-1.138819	-0.052486	0.952631	-1.096195	-4.456369E+14	1.177764E-16	NaN
51	1.000000	0.042248	7.36554e+06	-41189.1	955.819	-29787.7	0.000000	0.000000	6.042754	0.037173	NaN	0.000000	0.001688	0.001690	28.1069	0.031397	0.002034	15.4329	-114.209	-166.868	0.054710	0.040908	-1.127500	-1.128840	0.037173	15.4329	-1.129306	-1.239698E+15	-2.998529E-17	NaN
51	1.000000	0.052231	7.36554e+06	-41189.1	955.818	-29787.7	0.000000	0.000000	6.052736	0.013591	NaN	0.000000	0.001678	0.001674	28.1278	0.088679	0.001972	44.9676	-90.5952	16.8379	-0.058808	0.050897	-1.117516	-1.118851	0.013591	44.9676	-1.117743	-8.673435E+14	-1.566931E-17	NaN
51	1.000000	0.062249	7.36554e+06	-41189.1	955.818	-29787.7	0.000000	0.000000	6.062753	-0.006110	NaN	0.000000	0.001702	0.001666	28.0884	0.071633	0.001913	37.4391	-168.531	-169.097	0.016939	0.060935	-1.107499	-1.108813	-0.006110	37.4391	-1.107377	-6.296214E+14	9.703653E-18	NaN
51	1.000000	0.072257	7.36554e+06	-41189.1	955.818	-29787.7	0.000000	0.000000	6.072762	0.009226	NaN	0.000000	0.001725	0.001676	28.0808	0.104848	0.002040	51.3926	-106.956	13.1803	-0.055153	0.070907	-1.097491	-1.098841	0.009226	51.3926	-1.097625	-4.657914E+14	-1.980821E-17	NaN
51	1.000000	0.082220	7.36554e+06	-41189.1	955.819	-29787.7	0.000000	0.000000	6.082724	-0.011338	NaN	0.000000	0.001682	0.001693	28.1074	0.102777	0.001998	51.4346	134.992	-165.006	0.038457	0.080948	-1.087528	-1.088800	-0.011338	51.4346	-1.087363	-3.391549E+14	3.342871E-17	NaN
51	1.000000	0.092268	7.36554e+06	-41189.1	955.818	-29787.7	0.000000	0.000000	6.092772	0.013393	NaN	0.000000	0.001696	0.001702	28.1291	0.065901	0.002079	31.7049	169.356	13.6441	-0.038070	0.090867	-1.077480	-1.078881	0.013393	31.7049	-1.077797	-2.523066E+14	-5.308344E-17	NaN
51	1.000000	0.102272	7.36554e+06	-41189.1	955.817	-29787.7	0.000000	0.000000	6.102776	-0.006587	NaN	0.000000	0.001687	0.001716	28.0896	0.053351	0.002055	25.9642	17.1157	-163.209	0.027267	0.100928	-1.067476	-1.068820	-0.006587	25.9642	-1.067286	-1.822720E+14	3.613647E-17	NaN
51	1.000000	0.112251	7.36554e+06	-41189.1	955.819	-29787.7	0.000000	0.000000	6.112756	0.005172	NaN	0.000000	0.001633	0.001686	28.0791	0.031205	0.002083	14.9797	166.43	15.2224	0.006040	0.110908	-1.057496	-1.058840	0.005172	14.9797	-1.057755	-1.357235E+14	-3.810658E-17	NaN
51	1.000000	0.122288	7.36554e+06	-41189.1	955.818	-29787.7	0.000000	0.000000	6.122793	0.013500	NaN	0.000000	0.001623	0.001733	28.106	0.135975	0.002058	66.0816	51.7472	-163.786	-0.013874	0.120977	-1.047459	-1.048771	0.013500	66.0816	-1.047613	-9.915607E+13	-1.361534E-16	NaN
51	1.000000	0.132250	7.36554e+06	-41189.1	955.818	-29787.7	0.000000	0.000000	6.132754	-0.006979	NaN	0.000000	0.001614	0.001721	28.128	0.159997	0.002041	78.3833	-62.4208	12.015	-0.019886	0.130924	-1.037498	-1.038824	-0.006979	78.3833	-1.037431	-7.234680E+13	9.646705E-17	NaN
51	1.000000	0.142275	7.36554e+06	-41189.1	955.819	-29787.7	0.000000	0.000000	6.142777	-0.065279	NaN	0.000000	0.001647	0.001751	28.0883	0.067582	0.001927	35.0666	-18.2669	-166.081	-0.072132	0.140993	-1.027472	-1.028755	-0.065279	35.0666	-1.026076	-5.089792E+13	1.282556E-15	NaN
51	1.000000	0.152305	7.36554e+06	-41189.1	955.818	-29787.7	0.000000	0.000000	6.152812	0.047889	NaN	0.000000	0.001631	0.001752	28.0812	0.075774	0.001962	38.6158	175.785	13.1057	0.039416	0.150996	-1.017442	-1.018751	0.047889	38.6158	-1.018372	-4.009149E+13	-1.194492E-15	NaN
51	1.000000	0.162304	7.36554e+06	-41189.1	955.818	-29787.7	0.000000	0.000000	6.162807	-0.034171	NaN	0.000000	0.001594	0.001713	28.1089	0.053838	0.002019	26.6604	69.7383	-161.039	-0.075855	0.160986	-1.007444	-1.008762	-0.034171	26.6604	-1.006482	-2.773534E+13	1.232024E-15	NaN
51	1.000000	0.172288	7.36554e+06	-41189.1	955.818	-29787.7	0.000000	0.000000	6.172793	0.023750	NaN	0.000000	0.001652	0.001720	28.1305	0.071359	0.002144	33.2861	74.0569	16.2924	0.017420	0.170913	-0.997460	-0.998835	0.023750	33.2861	-0.997995	-2.131928E+13	-1.114028E-15	NaN
51	1.000000	0.182283	7.36554e+06	-41189.1	955.818	-29787.7	0.000000	0.000000	6.182789	0.052688	NaN	0.000000	0.001643	0.001689	28.0913	0.144235	0.002010	71.7755	-142.117	-163.067	0.042267	0.180953	-0.987465	-0.988795	0.052688	71.7755	-0.988015	-1.564520E+13	-3.367673E-15	NaN
51	1.000000	0.192294	7.36554e+06	-41189.1	955.818	-29787.7	0.000000	0.000000	6.192798	0.011497	NaN	0.000000	0.001675	0.001712	28.0818	0.055644	0.001932	28.7968	73.7274	15.171	-0.030667	0.190915	-0.977454	-0.978832	0.011497	28.7968	-0.977753	-1.138003E+13	-1.010268E-15	NaN
51	1.000000	0.202335	7.36554e+06	-41189.1	955.818	-29787.7	0.000000	0.000000	6.202840	0.005566	NaN	0.000000	0.001654	0.001700	28.1077	0.059863	0.001877	31.8963	-164.451	-165.244	-0.018555	0.201014	-0.967412	-0.968734	0.005566	31.8963	-0.967543	-8.289933E+12	-6.713565E-16	NaN
51	1.000000	0.212337	7.36554e+06	-41189.1	955.819	-29787.7	0.000000	0.000000	6.212839	-0.075570	NaN	0.000000	0.001621	0.001698	28.1294	0.051253	0.002070	24.7582	126.654	16.3098	-0.049841	0.210981	-0.957410	-0.958766	-0.075570	24.7582	-0.955121	-5.637500E+12	1.340485E-14	NaN
51	1.000000	0.222315	7.36554e+06	-41189.1	955.818	-29787.7	0.000000	0.000000	6.222814	-0.114314	NaN	0.000000	0.001659	0.001687	28.0903	0.026728	0.002055	13.0041	-143.639	-166.361	-0.082971	0.221053	-0.947433	-0.948694	-0.114314	13.0041	-0.940840	-3.618011E+12	3.159588E-14	NaN
51	1.000000	0.232309	7.36554e+06	-41189.1	955.819	-29787.7	0.000000	0.000000	6.232815	0.045898	NaN	0.000000	0.001644	0.001685	28.0805	0.077625	0.002007	38.6723	74.5918	12.9985	-0.041715	0.230955	-0.937438	-0.938793	0.045898	38.6723	-0.938329	-3.346471E+12	-1.371535E-14	NaN
51	1.000000	0.242315	7.36554e+06	-41189.1	955.818	-29787.7	0.000000	0.000000	6.242819	0.016424	NaN	0.000000	0.001657	0.001722	28.1081	0.079893	0.001945	41.083	114.274	-165.235	-0.009663	0.240989	-0.927433	-0.928759	0.016424	41.083	-0.927733	-2.407684E+12	-6.821433E-15	NaN
51	1.000000	0.252358	7.36554e+06	-41189.1	955.818	-29787.7	0.000000	0.000000	6.252861	-0.030943	NaN	0.000000	0.001635	0.001674	28.1306	0.071635	0.001956	36.617	-95.2968	13.5328	-0.070708	0.251035	-0.917390	-0.918713	-0.030943	36.617	-0.916756	-1.711596E+12	1.807837E-14	NaN
51	1.000000	0.262348	7.36554e+06	-41189.1	955.818	-29787.7	0.000000	0.000000	6.262851	-0.033650	NaN	0.000000	0.001645	0.001696	28.0905	0.114399	0.002079	55.0168	7.005488	-163.318	0.042329	0.261029	-0.907400	-0.908719	-0.033650	55.0168	-0.906941	-1.261376E+12	2.667750E-14	NaN
51	1.000000	0.272336	7.36554e+06	-41189.1	955.818	-29787.7	0.000000	0.000000	6.272839	-0.034531	NaN	0.000000	0.001662	0.001679	28.0808	0.122829	0.002061	59.5829	70.513	13.6437	0.044612	0.270986	-0.897412	-0.898761	-0.034531	59.5829	-0.896977	-9.251597E+11	3.732474E-14	NaN
51	1.000000	0.282317	7.36554e+06	-41189.1	955.818	-29787.7	0.000000	0.000000	6.282820	-0.028351	NaN	0.000000	0.001640	0.001678	28.1061	0.164534	0.002010	81.872	-52.3979	-167.551	0.061789	0.281065	-0.887431	-0.888683	-0.028351	81.872	-0.887171	-6.818258E+11	4.158106E-14	NaN
51	1.000000	0.292348	7.36554e+06	-41189.1	955.818	-29787.7	0.000000	0.000000	6.292850	-0.054093	NaN	0.000000	0.001639	0.001687	28.1283	0.087631	0.001852	47.3285	-23.7583	13.992	-0.022587	0.290956	-0.877400	-0.878792	-0.054093	47.3285	-0.876542	-4.897171E+11	1.104572E-13	NaN
51	1.000000	0.302369	7.36554e+06	-41189.1	955.819	-29787.7	0.000000	0.000000	6.302873	-0.017919	NaN	0.000000	0.001661	0.001706	28.0893	0.047322	0.002040	23.1939	-71.0537	-167.431	-0.005816	0.301050	-0.867378	-0.868698	-0.017919	23.1939	-0.866799	-3.615215E+11	4.956522E-14	NaN
51	1.000000	0.312367	7.36554e+06	-41189.1	955.819	-29787.7	0.000000	0.000000	6.312869	-0.037223	NaN	0.000000	0.001674	0.001711	28.0801	0.034417	0.001825	18.8607	15.4231	13.0344	-0.037262	0.311004	-0.857381	-0.858744	-0.037223	18.8607	-0.855901	-2.574151E+11	1.446012E-13	NaN
51	1.000000	0.322364	7.36554e+06	-41189.1	955.818	-29787.7	0.000000	0.000000	6.322864	-0.102466	NaN	0.000000	0.001612	0.001712	28.1062	0.106082	0.002113	50.2009	-84.7877	-165.227	-0.019503	0.321040	-0.847384	-0.848708	-0.102466	50.2009	-0.845853	-1.881809E+11	5.445078E-13	NaN
51	1.000000	0.332362	7.36554e+06	-41189.1	955.819	-29787.7	0.000000	0.000000	6.332865	-0.009293	NaN	0.000000	0.001633	0.001708	28.1295	0.044403	0.002060	21.5588	-13.3755	18.3939	-0.001085	0.331009	-0.837386	-0.838738	-0.009293	21.5588	-0.837063	-1.430538E+11	6.496491E-14	NaN
51	1.000000	0.342359	7.36554e+06	-41189.1	955.819	-29787.7	0.000000	0.000000	6.342862	-0.033934	NaN	0.000000	0.001614	0.001720	28.0908	0.107172	0.001994	53.7516	-99.9761	-162.314	-0.007803	0.341041	-0.827389	-0.828707	-0.033934	53.7516	-0.826915	-1.042246E+11	3.255835E-13	NaN
51	1.000000	0.352408	7.36554e+06	-41189.1	955.818	-29787.7	0.000000	0.000000	6.352912	-0.004533	NaN	0.000000	0.001598	0.001700	28.0799	0.044847	0.002091	21.4445	24.3919	12.7128	0.010614	0.351022	-0.817340	-0.818726	-0.004533	21.4445	-0.817181	-7.691080E+10	5.893248E-14	NaN
51	1.000000	0.362375	7.36554e+06	-41189.1	955.819	-29787.7	0.000000	0.000000	6.362877	-0.045103	NaN	0.000000	0.001581	0.001678	28.1053	0.058845	0.002018	29.1543	-91.7275	-168.213	-0.075636	0.361046	-0.807373	-0.808702	-0.045103	29.1543	-0.806212	-5.459822E+10	8.260856E-13	NaN
51	1.000000	0.372392	7.36555e+06	-41189.1	955.82	-29787.7	0.000000	0.000000	6.372896	-0.007102	NaN	0.000000	0.001629	0.001707	28.1289	0.063995	0.002099	30.4938	112.12	17.703	-0.023099	0.371042	-0.797356	-0.798706	-0.007102	30.4938	-0.797181	-4.117128E+10	1.725065E-13	NaN
51	1.000000	0.382392	7.36555e+06	-41189.1	955.818	-29787.7	0.000000	0.000000	6.382897	0.018058	NaN	0.000000	0.001624	0.001697	28.0891	0.049231	0.002085	23.6109	105.646	-165.461	0.043601	0.381101	-0.787356	-0.788647	0.018058	23.6109	-0.787929	-3.082888E+10	-5.857476E-13	NaN
51	1.000000	0.392379	7.36555e+06	-41189.1	955.819	-29787.7	0.000000	0.000000	6.392882	-0.042504	NaN	0.000000	0.001674	0.001691	28.0804	0.171200	0.001978	86.5708	-29.7333	14.6394	-0.058175	0.391028	-0.777368	-0.778720	-0.042504	86.5708	-0.777000	-2.190105E+10	1.940707E-12	NaN
51	1.000000	0.402393	7.36555e+06	-41189.1	955.818	-29787.7	0.000000	0.000000	6.402897	0.000817	NaN	0.000000	0.001668	0.001719	28.1057	0.081952	0.002063	39.7336	-0.192730	-169.28	0.006393	0.401110	-0.767355	-0.768637	0.000817	39.7336	-0.767371	-1.620136E+10	-5.044382E-14	NaN
51	1.000000	0.412398	7.36555e+06	-41189.1	955.818	-29787.7	0.000000	0.000000	6.412903	0.011645	NaN	0.000000	0.001653	0.001714	28.1296	0.057288	0.002038	28.1125	78.9534	15.0884	0.026439	0.411040	-0.757349	-0.758707	0.011645	28.1125	-0.757660	-1.195277E+10	-9.742852E-13	NaN
51	1.000000	0.422395	7.36555e+06	-41189.1	955.819	-29787.7	0.000000	0.000000	6.422897	-0.053765	NaN	0.000000	0.001661	0.001678	28.0919	0.136817	0.002004	68.2776	-160.867	-165.123	-0.113152	0.421116	-0.747353	-0.748632	-0.053765	68.2776	-0.746762	-8.494551E+9	6.329391E-12	NaN
51	1.000000	0.432386	7.36555e+06	-41189.1	955.819	-29787.7	0.000000	0.000000	6.432892	0.033914	NaN	0.000000	0.001628	0.001722	28.082	0.059354	0.002030	29.2345	67.5319	16.8889	-0.008395	0.431070	-0.737361	-0.738678	0.033914	29.2345	-0.738231	-6.500762E+9	-5.216984E-12	NaN
51	1.000000	0.442407	7.36555e+06	-41189.1	955.818	-29787.7	0.000000	0.000000	6.442911	0.011563	NaN	0.000000	0.001691	0.001678	28.1062	0.136342	0.002007	67.9259	-175.285	-167.481	-0.040575	0.441068	-0.727341	-0.728680	0.011563	67.9259	-0.727469	-4.637730E+9	-2.493216E-12	NaN
51	1.000000	0.452420	7.36555e+06	-41189.1	955.818	-29787.7	0.000000	0.000000	6.452922	-0.053864	NaN	0.000000	0.001659	0.001658	28.13	0.079253	0.002108	37.5968	-16.3798	15.2254	-0.074703	0.451088	-0.717328	-0.718660	-0.053864	37.5968	-0.716254	-3.261162E+9	1.651667E-11	NaN
51	1.000000	0.462403	7.36555e+06	-41189.1	955.818	-29787.7	0.000000	0.000000	6.462908	0.016435	NaN	0.000000	0.001663	0.001678	28.0913	0.110364	0.001981	55.7233	-121.794	-164.929	0.021429	0.461158	-0.707344	-0.708590	0.016435	55.7233	-0.707566	-2.482124E+9	-6.621363E-12	NaN
51	1.000000	0.472438	7.36555e+06	-41189.1	955.818	-29787.7	0.000000	0.000000	6.472942	-0.017884	NaN	0.000000	0.001651	0.001693	28.081	0.046281	0.001982	23.3549	-38.0474	19.1854	-0.019585	0.471087	-0.697309	-0.698661	-0.017884	23.3549	-0.696735	-1.765794E+9	1.012789E-11	NaN
51	1.000000	0.482429	7.36555e+06	-41189.1	955.818	-29787.7	0.000000	0.000000	6.482935	0.032538	NaN	0.000000	0.001661	0.001746	28.1067	0.047899	0.001966	24.361	144.801	-158.794	-0.037392	0.481159	-0.687319	-0.688589	0.032538	24.361	-0.688320	-1.355069E+9	-2.401180E-11	NaN
51	1.000000	0.492427	7.36555e+06	-41189.1	955.819	-29787.7	0.000000	0.000000	6.492931	-0.007653	NaN	0.000000	0.001630	0.001740	28.1313	0.088117	0.001961	44.9367	43.7014	14.8582	-0.107606	0.491033	-0.677321	-0.678714	-0.007653	44.9367	-0.677193	-9.545833E+8	8.017295E-12	NaN
51	1.000000	0.502433	7.36555e+06	-41189.1	955.818	-29787.7	0.000000	0.000000	6.502938	0.019494	NaN	0.000000	0.001654	0.001725	28.0933	0.061908	0.001906	32.4769	136.004	-164.005	0.074038	0.501125	-0.667315	-0.668622	0.019494	32.4769	-0.667765	-7.092524E+8	-2.748507E-11	NaN
51	1.000000	0.512472	7.36555e+06	-41189.1	955.819	-29787.7	0.000000	0.000000	6.512979	0.064143	NaN	0.000000	0.001645	0.001738	28.0815	0.040334	0.001946	20.7218	-77.3764	10.3302	0.085211	0.511130	-0.657276	-0.658617	0.064143	20.7218	-0.659597	-5.482198E+8	-1.170026E-10	NaN
51	1.000000	0.522439	7.36555e+06	-41189.1	955.819	-29787.7	0.000000	0.000000	6.522941	-0.062927	NaN	0.000000	0.001653	0.001738	28.1057	0.032503	0.001983	16.3934	160.02	-164.61	0.046732	0.521140	-0.647308	-0.648608	-0.062927	16.3934	-0.644429	-3.396658E+8	1.852626E-10	NaN
51	1.000000	0.532479	7.36555e+06	-41189.1	955.819	-29787.7	0.000000	0.000000	6.532983	-0.028304	NaN	0.000000	0.001607	0.001737	28.1302	0.097695	0.002031	48.0957	-99.578	15.0367	-0.049245	0.531088	-0.637268	-0.638660	-0.028304	48.0957	-0.636827	-2.671449E+8	1.059503E-10	NaN
51	1.000000	0.542443	7.36555e+06	-41189.1	955.819	-29787.7	0.000000	0.000000	6.542949	0.035136	NaN	0.000000	0.001634	0.001723	28.0911	0.067309	0.001954	34.4529	2.466038	-162.589	-0.117918	0.541197	-0.627304	-0.628551	0.035136	34.4529	-0.628069	-2.025386E+8	-1.734786E-10	NaN
51	1.000000	0.552461	7.36555e+06	-41189.1	955.819	-29787.7	0.000000	0.000000	6.552967	0.025846	NaN	0.000000	0.001616	0.001717	28.0821	0.034210	0.001923	17.7895	-151.978	16.5808	0.109384	0.551086	-0.617286	-0.618662	0.025846	17.7895	-0.618376	-1.490423E+8	-1.734133E-10	NaN
51	1.000000	0.562469	7.36555e+06	-41189.1	955.819	-29787.7	0.000000	0.000000	6.562974	0.015838	NaN	0.000000	0.001625	0.001720	28.1058	0.059454	0.002061	28.8451	-119.881	-163.703	0.111423	0.561197	-0.607279	-0.608551	0.015838	28.8451	-0.607691	-1.062517E+8	-1.490582E-10	NaN
51	1.000000	0.572449	7.36555e+06	-41189.1	955.818	-29787.7	0.000000	0.000000	6.572952	-0.029216	NaN	0.000000	0.001620	0.001736	28.13	0.013666	0.002047	6.676884	156.963	13.3694	-0.062117	0.571061	-0.597299	-0.598687	-0.029216	6.676884	-0.594017	-6.887161E+7	4.242038E-10	NaN
51	1.000000	0.582474	7.36555e+06	-41189.1	955.819	-29787.7	0.000000	0.000000	6.582978	-0.024435	NaN	0.000000	0.001631	0.001683	28.0916	0.067836	0.001997	33.9609	142.478	-165.153	0.063410	0.581169	-0.587273	-0.588579	-0.024435	33.9609	-0.586734	-5.465460E+7	4.470832E-10	NaN
51	1.000000	0.592456	7.36555e+06	-41189.1	955.818	-29787.7	0.000000	0.000000	6.592960	-0.012854	NaN	0.000000	0.001636	0.001680	28.0811	0.121422	0.001921	63.2043	125.3	14.0271	0.045948	0.591093	-0.577291	-0.578655	-0.012854	63.2043	-0.577139	-4.029320E+7	3.190230E-10	NaN
51	1.000000	0.602484	7.36555e+06	-41189.1	955.819	-29787.7	0.000000	0.000000	6.602984	-0.106094	NaN	0.000000	0.001630	0.001704	28.1046	0.065426	0.002104	31.0908	-43.2997	-164.372	-0.128674	0.601212	-0.567264	-0.568535	-0.106094	31.0908	-0.564704	-2.712926E+7	3.910682E-9	NaN
51	1.000000	0.612478	7.36555e+06	-41189.1	955.819	-29787.7	0.000000	0.000000	6.612982	-0.003935	NaN	0.000000	0.001642	0.001718	28.1289	0.032579	0.001982	16.437	-175.057	13.6855	0.001541	0.611123	-0.557270	-0.558625	-0.003935	16.437	-0.557090	-2.128719E+7	1.848639E-10	NaN
51	1.000000	0.622481	7.36555e+06	-41189.1	955.818	-29787.7	0.000000	0.000000	6.622983	-0.041722	NaN	0.000000	0.001671	0.001693	28.0905	0.134912	0.001955	69.0169	-146.708	-163.951	-0.001835	0.621190	-0.547267	-0.548558	-0.041722	69.0169	-0.546813	-1.533949E+7	2.719938E-9	NaN
51	1.000000	0.632536	7.36555e+06	-41189.1	955.818	-29787.7	0.000000	0.000000	6.633040	-0.000876	NaN	0.000000	0.001644	0.001688	28.0807	0.060464	0.002056	29.4067	164.366	15.5533	-0.061302	0.631134	-0.537212	-0.538614	-0.000876	29.4067	-0.537190	-1.128170E+7	7.762715E-11	NaN
51	1.000000	0.642515	7.36555e+06	-41189.1	955.818	-29787.7	0.000000	0.000000	6.643016	-0.082145	NaN	0.000000	0.001646	0.001691	28.1054	0.107318	0.001987	53.9972	32.6147	-163.818	-0.073498	0.641179	-0.527233	-0.528569	-0.082145	53.9972	-0.526092	-7.91189e+06	1.038248E-8	NaN
51	1.000000	0.652494	7.36555e+06	-41189.1	955.818	-29787.7	0.000000	0.000000	6.652998	-0.009584	NaN	0.000000	0.001597	0.001676	28.1304	0.031807	0.002082	15.2806	60.1227	15.0676	-0.038134	0.651130	-0.517254	-0.518617	-0.009584	15.2806	-0.516783	-5.87287e+06	1.631924E-9	NaN
51	1.000000	0.662511	7.36555e+06	-41189.1	955.819	-29787.7	0.000000	0.000000	6.663014	-0.042587	NaN	0.000000	0.001647	0.001694	28.0916	0.007887	0.001954	4.035799	-126.353	-165.395	-0.097808	0.661190	-0.507237	-0.508558	-0.042587	4.035799	-0.499322	-3.35401e+06	1.269748E-8	NaN
51	1.000000	0.672499	7.36555e+06	-41189.1	955.818	-29787.7	0.000000	0.000000	6.673001	-0.071983	NaN	0.000000	0.001644	0.001704	28.0803	0.085000	0.001868	45.4947	98.1316	18.1655	-0.063935	0.671206	-0.497248	-0.498541	-0.071983	45.4947	-0.496062	-3.02035e+06	2.383254E-8	NaN
51	1.000000	0.682512	7.36555e+06	-41189.1	955.819	-29787.7	0.000000	0.000000	6.683016	0.000740	NaN	0.000000	0.001605	0.001720	28.1035	0.067632	0.002044	33.0939	-8.907746	-163.157	-0.049896	0.681219	-0.487236	-0.488528	0.000740	33.0939	-0.487253	-2.27504e+06	-3.250877E-10	NaN
51	1.000000	0.692499	7.36555e+06	-41189.1	955.818	-29787.7	0.000000	0.000000	6.693003	-0.017380	NaN	0.000000	0.001636	0.001715	28.1291	0.083995	0.002002	41.9483	155.849	17.0765	-0.058548	0.691167	-0.477248	-0.478580	-0.017380	41.9483	-0.476938	-1.63172e+06	1.065108E-8	NaN
51	1.000000	0.702558	7.36555e+06	-41189.1	955.818	-29787.7	0.000000	0.000000	6.703061	-0.020212	NaN	0.000000	0.001630	0.001727	28.0923	0.091904	0.002074	44.306	16.8686	-164.403	-0.024789	0.701171	-0.467190	-0.468577	-0.020212	44.306	-0.466848	-1.17811e+06	1.715649E-8	NaN
51	1.000000	0.712526	7.36555e+06	-41189.1	955.818	-29787.7	0.000000	0.000000	6.713029	-0.026568	NaN	0.000000	0.001626	0.001699	28.0809	0.054071	0.001950	27.7227	-124.513	14.1827	0.021018	0.711215	-0.457222	-0.458533	-0.026568	27.7227	-0.456503	-843070	3.151338E-8	NaN
51	1.000000	0.722512	7.36555e+06	-41189.1	955.818	-29787.7	0.000000	0.000000	6.723016	0.003342	NaN	0.000000	0.001674	0.001672	28.1058	0.056032	0.001959	28.5998	-163.324	-163.383	0.006351	0.721205	-0.447236	-0.448542	0.003342	28.5998	-0.447323	-626090	-5.337424E-9	NaN
51	1.000000	0.732567	7.36555e+06	-41189.1	955.819	-29787.7	0.000000	0.000000	6.733068	-0.084364	NaN	0.000000	0.001634	0.001708	28.1318	0.038610	0.001996	19.3404	-140.765	12.7657	0.023003	0.731212	-0.437181	-0.438536	-0.084364	19.3404	-0.433909	-404890	2.083623E-7	NaN
51	1.000000	0.742542	7.36555e+06	-41189.1	955.818	-29787.7	0.000000	0.000000	6.743046	0.005426	NaN	0.000000	0.001666	0.001690	28.0935	0.101901	0.002010	50.6949	-2.900594	-168.252	0.053588	0.741218	-0.427206	-0.428530	0.005426	50.6949	-0.427286	-326329	-1.662856E-8	NaN
51	1.000000	0.752565	7.36555e+06	-41189.1	955.818	-29787.7	0.000000	0.000000	6.753072	0.071684	NaN	0.000000	0.001624	0.001691	28.0815	0.062768	0.001984	31.6375	99.6455	17.4811	0.040321	0.751164	-0.417183	-0.418584	0.071684	31.6375	-0.418882	-248061	-2.889760E-7	NaN
51	1.000000	0.762543	7.36555e+06	-41189.1	955.818	-29787.7	0.000000	0.000000	6.763045	-0.059182	NaN	0.000000	0.001666	0.001674	28.1047	0.100790	0.001959	51.4581	-11.8975	-165.872	-0.049568	0.761221	-0.407204	-0.408527	-0.059182	51.4581	-0.406342	-164571	3.596137E-7	NaN
51	1.000000	0.772564	7.36555e+06	-41189.1	955.818	-29787.7	0.000000	0.000000	6.773066	-0.062987	NaN	0.000000	0.001645	0.001693	28.1302	0.074416	0.001939	38.3827	-136.357	13.0117	-0.077087	0.771157	-0.397184	-0.398591	-0.062987	38.3827	-0.395953	-117015	5.382795E-7	NaN
51	1.000000	0.782584	7.36555e+06	-41189.1	955.819	-29787.7	0.000000	0.000000	6.783086	-0.037144	NaN	0.000000	0.001664	0.001708	28.093	0.068988	0.001903	36.249	-77.0451	-165.619	-0.068219	0.781225	-0.387164	-0.388522	-0.037144	36.249	-0.386396	-85423.6	4.348202E-7	NaN
51	1.000000	0.792559	7.36555e+06	-41189.1	955.817	-29787.7	0.000000	0.000000	6.793064	0.013593	NaN	0.000000	0.001663	0.001731	28.0819	0.047131	0.001940	24.2984	86.5516	13.03	-0.004229	0.791177	-0.377188	-0.378571	0.013593	24.2984	-0.377608	-63906.7	-2.127072E-7	NaN
51	1.000000	0.802550	7.36555e+06	-41189.1	955.818	-29787.7	0.000000	0.000000	6.803050	-0.090694	NaN	0.000000	0.001659	0.001705	28.1046	0.038957	0.002013	19.353	48.5045	-167.604	-0.069171	0.801265	-0.367198	-0.368483	-0.090694	19.353	-0.363683	-40276.7	2.251785E-6	NaN
51	1.000000	0.812579	7.36555e+06	-41189.1	955.819	-29787.7	0.000000	0.000000	6.813083	-0.016205	NaN	0.000000	0.001668	0.001684	28.1316	0.102753	0.002067	49.7168	-121.7	13.9653	0.092771	0.811140	-0.357169	-0.358608	-0.016205	49.7168	-0.356924	-32163.1	5.038336E-7	NaN
51	1.000000	0.822577	7.36555e+06	-41189.1	955.818	-29787.7	0.000000	0.000000	6.823084	0.053965	NaN	0.000000	0.001668	0.001738	28.0933	0.167009	0.001999	83.5493	107.411	-164.046	0.044928	0.821328	-0.347171	-0.348420	0.053965	83.5493	-0.347655	-23602.1	-2.286435E-6	NaN
51	1.000000	0.832566	7.36555e+06	-41189.1	955.819	-29787.7	0.000000	0.000000	6.833071	0.007529	NaN	0.000000	0.001667	0.001708	28.0814	0.103736	0.001972	52.5948	55.6811	13.1274	0.014455	0.831155	-0.337182	-0.338593	0.007529	52.5948	-0.337289	-16672.9	-4.515958E-7	NaN
51	1.000000	0.842555	7.36555e+06	-41189.1	955.818	-29787.7	0.000000	0.000000	6.843058	-0.042438	NaN	0.000000	0.001652	0.001727	28.1021	0.022989	0.002163	10.6264	75.0314	-163.926	-0.035431	0.841258	-0.327192	-0.328490	-0.042438	10.6264	-0.324197	-10723.8	3.957329E-6	NaN
51	1.000000	0.852563	7.36555e+06	-41189.1	955.818	-29787.7	0.000000	0.000000	6.853068	0.006102	NaN	0.000000	0.001644	0.001707	28.1291	0.091036	0.002071	43.9536	-73.6371	16.5531	0.016914	0.851211	-0.317185	-0.318536	0.006102	43.9536	-0.317289	-8486.03	-7.190059E-7	NaN
51	1.000000	0.862592	7.36555e+06	-41189.1	955.818	-29787.7	0.000000	0.000000	6.863096	-0.020333	NaN	0.000000	0.001656	0.001696	28.0911	0.071445	0.001974	36.1951	-9.543087	-164.508	0.022762	0.861310	-0.307155	-0.308438	-0.020333	36.1951	-0.306734	-5924.88	3.431877E-6	NaN
51	1.000000	0.872576	7.36555e+06	-41189.1	955.818	-29787.7	0.000000	0.000000	6.873081	0.016859	NaN	0.000000	0.001655	0.001725	28.0792	0.038030	0.002066	18.4112	53.9499	12.27	-0.031780	0.871269	-0.297172	-0.298478	0.016859	18.4112	-0.297859	-4372.57	-3.855643E-6	NaN
51	1.000000	0.882570	7.36555e+06	-41189.1	955.819	-29787.7	0.000000	0.000000	6.883076	0.034799	NaN	0.000000	0.001684	0.001715	28.1034	0.085924	0.001982	43.3565	-34.6342	-164.007	-0.003722	0.881296	-0.287178	-0.288451	0.034799	43.3565	-0.287780	-3090.39	-1.126051E-5	NaN
51	1.000000	0.892596	7.36555e+06	-41189.1	955.817	-29787.7	0.000000	0.000000	6.893098	-0.037495	NaN	0.000000	0.001638	0.001696	28.1306	0.044265	0.001997	22.1702	-40.7787	12.8347	-0.026021	0.891229	-0.277152	-0.278518	-0.037495	22.1702	-0.275884	-2045.39	1.833157E-5	NaN
51	1.000000	0.902604	7.36555e+06	-41189.1	955.818	-29787.7	0.000000	0.000000	6.903107	-0.037214	NaN	0.000000	0.001620	0.001715	28.0931	0.037974	0.001984	19.1355	134.785	-164.836	-0.035872	0.901295	-0.267144	-0.268453	-0.037214	19.1355	-0.265685	-1431.68	2.599300E-5	NaN
51	1.000000	0.912620	7.36555e+06	-41189.1	955.818	-29787.7	0.000000	0.000000	6.913122	-0.055156	NaN	0.000000	0.001614	0.001676	28.0798	0.054323	0.002055	26.4338	0.269215	14.3918	-0.048128	0.911266	-0.257128	-0.258482	-0.055156	26.4338	-0.255563	-1001.79	5.505811E-5	NaN
51	1.000000	0.922614	7.36555e+06	-41189.1	955.818	-29787.7	0.000000	0.000000	6.923119	0.024018	NaN	0.000000	0.001698	0.001711	28.1019	0.088478	0.001891	46.7945	-89.3081	-164.783	0.035484	0.921311	-0.247134	-0.248437	0.024018	46.7945	-0.247519	-752.565	-3.191515E-5	NaN
51	1.000000	0.932588	7.36555e+06	-41189.1	955.819	-29787.7	0.000000	0.000000	6.933092	-0.009045	NaN	0.000000	0.001674	0.001730	28.1288	0.028970	0.002040	14.2039	158.368	11.3566	-0.020681	0.931287	-0.237160	-0.238461	-0.009045	14.2039	-0.236682	-510.084	1.773317E-5	NaN
51	1.000000	0.942648	7.36555e+06	-41189.1	955.817	-29787.7	0.000000	0.000000	6.943152	-0.017590	NaN	0.000000	0.001679	0.001718	28.0912	0.071216	0.002006	35.5002	74.813	-162.845	-0.019088	0.941329	-0.227100	-0.228419	-0.017590	35.5002	-0.226728	-355.431	4.948801E-5	NaN
51	1.000000	0.952631	7.36555e+06	-41189.1	955.818	-29787.7	0.000000	0.000000	6.953134	-0.013354	NaN	0.000000	0.001689	0.001716	28.0788	0.075148	0.002072	36.2647	-78.2446	14.1404	-0.073443	0.951234	-0.217117	-0.218514	-0.013354	36.2647	-0.216841	-247.222	5.401804E-5	NaN
51	1.000000	0.962634	7.36555e+06	-41189.1	955.818	-29787.7	0.000000	0.000000	6.963137	-0.026979	NaN	0.000000	0.001639	0.001758	28.1032	0.088360	0.001928	45.8286	-12.6181	-158.96	-0.006045	0.961314	-0.207114	-0.208434	-0.026979	45.8286	-0.206672	-169.356	0.000159	NaN
51	1.000000	0.972625	7.36555e+06	-41189.1	955.818	-29787.7	0.000000	0.000000	6.973127	-0.058598	NaN	0.000000	0.001664	0.001702	28.1314	0.050879	0.001970	25.8258	1.745178	12.7001	-0.026843	0.971265	-0.197123	-0.198482	-0.058598	25.8258	-0.195421	-110.706	0.000529	NaN
51	1.000000	0.982672	7.36555e+06	-41189.1	955.818	-29787.7	0.000000	0.000000	6.983176	-0.012476	NaN	0.000000	0.001661	0.001693	28.0941	0.161021	0.001962	82.0579	36.1124	-165.167	-0.012888	0.981315	-0.187075	-0.188433	-0.012476	82.0579	-0.186961	-80.008	0.000156	NaN
51	1.000000	0.992661	7.36555e+06	-41189.1	955.818	-29787.7	0.000000	0.000000	6.993165	-0.014776	NaN	0.000000	0.001654	0.001732	28.0815	0.053992	0.002000	26.993	-28.4934	16.5374	-0.005271	0.991297	-0.177086	-0.178451	-0.014776	26.993	-0.176676	-53.5462	0.000276	NaN
51	1.000000	1.002639	7.36555e+06	-41189.1	955.818	-29787.7	0.000000	0.000000	7.003141	-0.067868	NaN	0.000000	0.001632	0.001699	28.103	0.046637	0.002009	23.2106	28.7099	-166.191	-0.039087	1.001364	-0.167108	-0.168384	-0.067868	23.2106	-0.164915	-33.4827	0.002027	NaN
51	1.000000	1.012668	7.36555e+06	-41189.1	955.818	-29787.7	0.000000	0.000000	7.013170	-0.065228	NaN	0.000000	0.001622	0.001729	28.1305	0.017955	0.002047	8.771343	-34.5569	16.9281	-0.059884	1.011312	-0.157079	-0.158435	-0.065228	8.771343	-0.151502	-19.2904	0.003381	NaN
51	1.000000	1.022643	7.36555e+06	-41189.1	955.819	-29787.7	0.000000	0.000000	7.023147	0.011377	NaN	0.000000	0.001649	0.001679	28.0935	0.094276	0.001990	47.3698	80.3852	-162.049	0.069180	1.021369	-0.147105	-0.148379	0.011377	47.3698	-0.147285	-16.155	-0.000704	NaN
51	1.000000	1.032657	7.36555e+06	-41189.1	955.818	-29787.7	0.000000	0.000000	7.033159	-0.052725	NaN	0.000000	0.001653	0.001720	28.0811	0.013017	0.001802	7.224206	170.635	18.7982	-0.032568	1.031310	-0.137091	-0.138437	-0.052725	7.224206	-0.131617	-8.190831	0.006437	NaN
51	1.000000	1.042680	7.36555e+06	-41189.1	955.818	-29787.7	0.000000	0.000000	7.043185	0.018056	NaN	0.000000	0.001651	0.001681	28.1035	0.087406	0.002016	43.3484	88.3332	-165.881	-0.023013	1.041397	-0.127067	-0.128350	0.018056	43.3484	-0.127380	-6.774388	-0.002665	NaN
51	1.000000	1.052645	7.36555e+06	-41189.1	955.818	-29787.7	0.000000	0.000000	7.053147	-0.060222	NaN	0.000000	0.001660	0.001705	28.1318	0.104613	0.001995	52.4406	-177.492	14.2862	-0.069701	1.051361	-0.117102	-0.118387	-0.060222	52.4406	-0.116241	-4.051538	0.014864	NaN
51	1.000000	1.062668	7.36555e+06	-41189.1	955.819	-29787.7	0.000000	0.000000	7.063171	-0.030601	NaN	0.000000	0.001612	0.001694	28.0939	0.026432	0.002012	13.138	-64.2921	-165.617	-0.049973	1.061312	-0.107080	-0.108436	-0.030601	13.138	-0.105333	-2.389835	0.012805	NaN
51	1.000000	1.072669	7.36555e+06	-41189.1	955.818	-29787.7	0.000000	0.000000	7.073172	-0.026121	NaN	0.000000	0.001622	0.001689	28.0819	0.048479	0.002039	23.7802	75.5039	18.6432	-0.074695	1.071328	-0.097078	-0.098420	-0.026121	23.7802	-0.096255	-1.506266	0.017342	NaN
51	1.000000	1.082648	7.36555e+06	-41189.1	955.817	-29787.7	0.000000	0.000000	7.083152	-0.015156	NaN	0.000000	0.001638	0.001727	28.1027	0.123218	0.001871	65.8557	-76.9271	-164.835	0.013093	1.081435	-0.087100	-0.088312	-0.015156	65.8557	-0.086927	-0.914198	0.016578	NaN
51	1.000000	1.092663	7.36555e+06	-41189.1	955.819	-29787.7	0.000000	0.000000	7.093166	-0.028361	NaN	0.000000	0.001640	0.001754	28.1307	0.200792	0.001914	104.909	40.6078	14.1632	0.029896	1.091317	-0.077085	-0.078431	-0.028361	104.909	-0.076882	-0.516299	0.054932	NaN
51	1.000000	1.102692	7.36555e+06	-41189.1	955.819	-29787.7	0.000000	0.000000	7.103197	0.007306	NaN	0.000000	0.001607	0.001735	28.0935	0.074261	0.002137	34.7581	98.731	-161.867	-0.039292	1.101390	-0.067055	-0.068357	0.007306	34.7581	-0.067213	-0.286744	-0.025478	NaN
51	1.000000	1.112697	7.36555e+06	-41189.1	955.818	-29787.7	0.000000	0.000000	7.113203	0.034759	NaN	0.000000	0.001624	0.001691	28.0795	0.038782	0.002104	18.4317	-154.032	13.8558	-0.024999	1.111340	-0.057051	-0.058407	0.034759	18.4317	-0.058465	-0.162651	-0.213704	NaN
51	1.000000	1.122707	7.36555e+06	-41189.1	955.818	-29787.7	0.000000	0.000000	7.123209	-0.052073	NaN	0.000000	0.001629	0.001717	28.1017	0.076053	0.001947	39.0618	-80.4508	-166.256	-0.040434	1.121376	-0.047041	-0.048371	-0.052073	39.0618	-0.046041	-0.069153	0.753010	NaN
51	1.000000	1.132667	7.36555e+06	-41189.1	955.818	-29787.7	0.000000	0.000000	7.133171	-0.003490	NaN	0.000000	0.001675	0.001705	28.1306	0.097611	0.001851	52.7296	32.1893	14.9148	0.017360	1.131331	-0.037081	-0.038417	-0.003490	52.7296	-0.037032	-0.036796	0.094836	NaN
51	1.000000	1.142676	7.36555e+06	-41189.1	955.819	-29787.7	0.000000	0.000000	7.143183	0.045213	NaN	0.000000	0.001628	0.001703	28.0936	0.072463	0.002099	34.5245	109.296	-162.567	0.012109	1.141428	-0.027071	-0.028319	0.045213	34.5245	-0.028053	-0.020343	-2.222544	NaN
51	1.000000	1.152678	7.36555e+06	-41189.1	955.819	-29787.7	0.000000	0.000000	7.153180	-0.067063	NaN	0.000000	0.001633	0.001716	28.0795	0.077704	0.001985	39.1356	-126.132	13.5659	-0.106704	1.151324	-0.017069	-0.018424	-0.067063	39.1356	-0.015784	-0.009750	6.877911	NaN
51	1.000000	1.162706	7.36555e+06	-41189.1	955.818	-29787.7	0.000000	0.000000	7.163209	-0.026659	NaN	0.000000	0.001635	0.001703	28.1005	0.069972	0.001992	35.1182	65.6911	-165.856	0.029311	1.161401	-0.007042	-0.008347	-0.026659	35.1182	-0.006473	-0.004324	6.165917	NaN
51	1.000000	1.172664	7.36555e+06	-41189.1	955.818	-29787.7	0.000000	0.000000	7.173213	1.079954	NaN	0.000000	0.001607	0.001677	28.1297	1.800421	0.001944	926.265	5.908489	12.4118	0.183057	1.171325	0.002917	0.001578	1.079954	926.265	0.002042	0.001589	679.66	21230.1
51	2.000000	1.180314	7.36555e+06	-41189.1	955.818	-29787.7	0.000000	0.000000	7.181163	8.405623	NaN	0.000000	0.001596	0.001693	28.0929	8.735229	0.001723	5070.38	7.030395	-171.064	8.111164	1.179990	0.010566	0.010242	8.405623	5070.38	0.009323	0.008438	996.129	50429.8
51	2.000000	1.182769	7.36555e+06	-41189.1	955.818	-29787.7	0.000000	0.000000	7.183749	11.5788	NaN	0.000000	0.001582	0.001683	28.0798	11.4213	0.001782	6410.82	8.924043	5.836936	10.3878	1.182456	0.013021	0.012709	11.5788	6410.82	0.011667	0.011093	1043.75	55610
51	2.000000	1.185205	7.36555e+06	-41189.1	955.818	-29787.7	0.000000	0.000000	7.186354	15.701	NaN	0.000000	0.001623	0.001674	28.1014	14.4168	0.001814	7947.93	6.534344	-173.682	14.4675	1.184971	0.015457	0.015223	15.701	7947.93	0.013975	0.013943	1126.08	61496.3
51	2.000000	1.187778	7.36555e+06	-41189.1	955.818	-29787.7	0.000000	0.000000	7.189082	19.4529	NaN	0.000000	0.001613	0.001695	28.1308	16.3438	0.001862	8776.31	7.622087	6.115257	18.1812	1.187358	0.018030	0.017610	19.4529	8776.31	0.016368	0.017153	1134.08	61223.1
51	2.000000	1.190197	7.36555e+06	-41189.1	955.819	-29787.7	0.000000	0.000000	7.191875	28.5629	NaN	0.000000	0.001609	0.001638	28.0934	18.66	0.001740	10726.5	4.239635	-175.08	26.8669	1.189895	0.020449	0.020147	28.5629	10726.5	0.018452	0.020168	1416.26	69008.5
51	2.000000	1.192720	7.36555e+06	-41189.1	955.818	-29787.7	0.000000	0.000000	7.194443	29.6387	NaN	0.000000	0.001600	0.001687	28.0802	20.9748	0.001720	12192.2	5.129723	3.604645	28.248	1.192337	0.022973	0.022590	29.6387	12192.2	0.021149	0.024381	1215.67	71339.8
51	2.000000	1.195213	7.36555e+06	-41189.1	955.818	-29787.7	0.000000	0.000000	7.197197	35.9985	NaN	0.000000	0.001610	0.001700	28.1006	23.9179	0.001765	13551.6	7.458704	-178.778	35.168	1.194879	0.025466	0.025132	35.9985	13551.6	0.023473	0.028297	1272.17	73603
51	2.000000	1.197737	7.36555e+06	-41189.1	955.818	-29787.7	0.000000	0.000000	7.199942	41.3863	NaN	0.000000	0.001547	0.001690	28.1312	26.5699	0.001859	14292.9	8.567480	0.414829	41.1156	1.197339	0.027989	0.027592	41.3863	14292.9	0.025818	0.032520	1272.65	72413.6
51	2.000000	1.200248	7.36555e+06	-41189.1	955.818	-29787.7	0.000000	0.000000	7.202692	47.2032	NaN	0.000000	0.001578	0.001729	28.0955	28.6422	0.001752	16345.7	6.381340	-179.232	49.5265	1.199934	0.030500	0.030186	47.2032	16345.7	0.028334	0.037362	1263.4	77261.2
51	2.000000	1.202722	7.36555e+06	-41189.1	955.818	-29787.7	0.000000	0.000000	7.205290	50.2014	NaN	0.000000	0.001581	0.001702	28.082	31.8404	0.001856	17159.3	11.6264	-4.095566	52.6781	1.202330	0.032975	0.032583	50.2014	17159.3	0.030780	0.042377	1184.64	76156.8
51	2.000000	1.205199	7.36555e+06	-41189.1	955.818	-29787.7	0.000000	0.000000	7.208176	60.1585	NaN	0.000000	0.001562	0.001740	28.1022	34.6673	0.001863	18605	11.0571	173.886	59.8887	1.204901	0.035452	0.035153	60.1585	18605	0.033026	0.047250	1273.18	78198.6
51	2.000000	1.207708	7.36555e+06	-41189.1	955.818	-29787.7	0.000000	0.000000	7.210973	67.181	NaN	0.000000	0.001586	0.001731	28.1322	34.6129	0.001832	18893.1	4.371743	1.426218	66.4924	1.207346	0.037960	0.037598	67.181	18893.1	0.035293	0.052431	1281.33	75384.9
51	2.000000	1.210176	7.36555e+06	-41189.1	955.818	-29787.7	0.000000	0.000000	7.213865	77.4959	NaN	0.000000	0.001601	0.001705	28.0956	37.0561	0.001907	19436.5	1.298544	-176.194	75.9262	1.209922	0.040428	0.040174	77.4959	19436.5	0.037438	0.057575	1345.99	74007.2
51	2.000000	1.212691	7.36555e+06	-41189.1	955.819	-29787.7	0.000000	0.000000	7.216707	85.4683	NaN	0.000000	0.001577	0.001734	28.0811	39.5753	0.001716	23058.2	4.504295	-1.774799	83.0072	1.212332	0.042943	0.042584	85.4683	23058.2	0.040163	0.064450	1326.12	82982.5
51	2.000000	1.215151	7.36555e+06	-41189.1	955.817	-29787.7	0.000000	0.000000	7.219528	94.2433	NaN	0.000000	0.001619	0.001720	28.1017	43.0464	0.001877	22927.9	5.609790	177.635	93.2872	1.214978	0.045403	0.045230	94.2433	22927.9	0.042320	0.070162	1343.22	79083.5
51	2.000000	1.217679	7.36555e+06	-41189.1	955.818	-29787.7	0.000000	0.000000	7.222718	110.321	NaN	0.000000	0.001620	0.001740	28.131	44.3582	0.001783	24878.2	5.971684	-2.808684	108.382	1.217239	0.047932	0.047491	110.321	24878.2	0.044606	0.076473	1442.63	82193.8
51	2.000000	1.220148	7.36555e+06	-41189.1	955.818	-29787.7	0.000000	0.000000	7.225522	118.488	NaN	0.000000	0.001650	0.001717	28.0955	46.0815	0.001699	27119.3	2.249188	-179.442	117.033	1.219766	0.050400	0.050018	118.488	27119.3	0.047123	0.083729	1415.13	85627.5
51	2.000000	1.222644	7.36555e+06	-41189.1	955.819	-29787.7	0.000000	0.000000	7.228404	127.88	NaN	0.000000	0.001638	0.001715	28.0817	49.3657	0.001769	27902.5	5.048308	-3.877107	125.038	1.222340	0.052896	0.052593	127.88	27902.5	0.049459	0.090748	1409.17	84624.8
51	2.000000	1.225236	7.36555e+06	-41189.1	955.818	-29787.7	0.000000	0.000000	7.231146	131.533	NaN	0.000000	0.001616	0.001692	28.102	51.678	0.001812	28512.1	3.885831	177.426	131.77	1.224956	0.055489	0.055208	131.533	28512.1	0.052029	0.098787	1331.49	82880.7
51	2.000000	1.227632	7.36555e+06	-41189.1	955.818	-29787.7	0.000000	0.000000	7.234311	150.269	NaN	0.000000	0.001619	0.001697	28.1325	53.3343	0.001780	29956.1	0.953737	0.846020	146.328	1.227250	0.057884	0.057502	150.269	29956.1	0.054122	0.105577	1423.3	84231.2
51	2.000000	1.230097	7.36555e+06	-41189.1	955.817	-29787.7	0.000000	0.000000	7.237389	165.168	NaN	0.000000	0.001636	0.001706	28.0948	57.1539	0.001890	30233.4	5.479095	175.363	161.956	1.229825	0.060349	0.060077	165.168	30233.4	0.056252	0.112713	1465.39	82276
51	2.000000	1.232595	7.36555e+06	-41189.1	955.818	-29787.7	0.000000	0.000000	7.240431	178.406	NaN	0.000000	0.001658	0.001735	28.0786	59.1713	0.001768	33464.2	5.204451	-5.369936	174.891	1.232281	0.062847	0.062533	178.406	33464.2	0.058849	0.121712	1465.8	87636.7
51	2.000000	1.235147	7.36555e+06	-41189.1	955.817	-29787.7	0.000000	0.000000	7.243550	192.193	NaN	0.000000	0.001672	0.001753	28.0992	62.0422	0.001817	34147.6	4.707014	174.768	190.919	1.235003	0.065399	0.065256	192.193	34147.6	0.061178	0.130066	1477.65	86507
51	2.000000	1.237661	7.36555e+06	-41189.1	955.818	-29787.7	0.000000	0.000000	7.246654	206.552	NaN	0.000000	0.001634	0.001736	28.1298	63.2535	0.001813	34886	3.088191	-3.085453	204.7	1.237353	0.067913	0.067605	206.552	34886	0.063472	0.138554	1490.77	85627.9
51	2.000000	1.240238	7.36555e+06	-41189.1	955.82	-29787.7	0.000000	0.000000	7.249689	217.713	NaN	0.000000	0.001616	0.001723	28.094	65.2508	0.001638	39824.1	3.726260	174.891	220.611	1.239907	0.070490	0.070159	217.713	39824.1	0.066390	0.149712	1454.21	94035.3
51	2.000000	1.242600	7.36555e+06	-41189.1	955.818	-29787.7	0.000000	0.000000	7.252988	240.511	NaN	0.000000	0.001621	0.001717	28.0802	68.7058	0.001842	37297.7	4.771076	-5.542915	235.995	1.242240	0.072852	0.072492	240.511	37297.7	0.068016	0.156110	1540.65	86246.3
51	2.000000	1.245134	7.36555e+06	-41189.1	955.818	-29787.7	0.000000	0.000000	7.256192	256.804	NaN	0.000000	0.001614	0.001703	28.1005	71.525	0.001806	39607.6	7.579521	171.441	254.951	1.244791	0.075386	0.075044	256.804	39607.6	0.070523	0.166223	1544.94	88757.7
51	2.000000	1.247560	7.36555e+06	-41189.1	955.817	-29787.7	0.000000	0.000000	7.259295	273.275	NaN	0.000000	0.001632	0.001707	28.1317	72.7411	0.001757	41392.9	6.750045	-8.242732	266.559	1.247266	0.077813	0.077519	273.275	41392.9	0.072861	0.175921	1553.39	90165.4
51	2.000000	1.250153	7.36555e+06	-41189.1	955.818	-29787.7	0.000000	0.000000	7.262537	289.077	NaN	0.000000	0.001655	0.001676	28.096	74.5617	0.001729	43120.2	1.910810	176.59	289.853	1.249760	0.080405	0.080012	289.077	43120.2	0.075377	0.186647	1548.78	91189.1
51	2.000000	1.252616	7.36555e+06	-41189.1	955.818	-29787.7	0.000000	0.000000	7.265813	308.838	NaN	0.000000	0.001652	0.001690	28.0803	77.8037	0.001833	42451.5	2.201819	-3.415115	305.513	1.252234	0.082869	0.082486	308.838	42451.5	0.077412	0.195541	1579.41	87709.7
51	2.000000	1.255056	7.36555e+06	-41189.1	955.819	-29787.7	0.000000	0.000000	7.268886	324.242	NaN	0.000000	0.001620	0.001685	28.0986	80.0978	0.001769	45280.3	1.301594	176.543	319.658	1.254820	0.085308	0.085072	324.242	45280.3	0.079938	0.206846	1567.55	90961.8
51	2.000000	1.257690	7.36555e+06	-41189.1	955.818	-29787.7	0.000000	0.000000	7.272111	338.639	NaN	0.000000	0.001634	0.001657	28.1299	82.424	0.001859	44326.5	2.718055	-4.424418	338.205	1.257277	0.087942	0.087530	338.639	44326.5	0.082213	0.217285	1558.51	86880.4
51	2.000000	1.260171	7.36555e+06	-41189.1	955.818	-29787.7	0.000000	0.000000	7.275507	360.915	NaN	0.000000	0.001618	0.001651	28.0943	83.7616	0.001719	48725.5	3.565673	174.091	362.284	1.259790	0.090423	0.090042	360.915	48725.5	0.084867	0.229770	1570.77	92871.6
51	2.000000	1.262625	7.36555e+06	-41189.1	955.819	-29787.7	0.000000	0.000000	7.278688	378.573	NaN	0.000000	0.001623	0.001701	28.0808	87.1281	0.001732	50300.7	4.360714	-7.094001	377.506	1.262231	0.092878	0.092483	378.573	50300.7	0.087233	0.241169	1569.74	93580.7
51	2.000000	1.265121	7.36555e+06	-41189.1	955.818	-29787.7	0.000000	0.000000	7.281883	395.609	NaN	0.000000	0.001621	0.001704	28.1008	90.658	0.001765	51369.1	5.866775	170.982	395.245	1.264855	0.095373	0.095108	395.609	51369.1	0.089597	0.252817	1564.8	93340.8
51	2.000000	1.267549	7.36555e+06	-41189.1	955.819	-29787.7	0.000000	0.000000	7.285354	420.959	NaN	0.000000	0.001636	0.001742	28.1325	92.1071	0.001800	51174.3	5.235657	-8.189987	411.929	1.267143	0.097801	0.097396	420.959	51174.3	0.091632	0.263051	1600.29	91160.1
51	2.000000	1.270079	7.36555e+06	-41189.1	955.819	-29787.7	0.000000	0.000000	7.288512	436.245	NaN	0.000000	0.001617	0.001711	28.0963	94.522	0.001836	51485.7	5.753769	171.278	434.573	1.269803	0.100331	0.100055	436.245	51485.7	0.093977	0.275076	1585.91	89687.8
51	2.000000	1.272612	7.36555e+06	-41189.1	955.818	-29787.7	0.000000	0.000000	7.291953	458.346	NaN	0.000000	0.001623	0.001690	28.0809	96.9936	0.001839	52748.1	2.563079	-5.776588	455.551	1.272314	0.102864	0.102566	458.346	52748.1	0.096347	0.287490	1594.3	89881.2
51	2.000000	1.275074	7.36555e+06	-41189.1	955.818	-29787.7	0.000000	0.000000	7.295105	475.142	NaN	0.000000	0.001626	0.001674	28.0996	100.005	0.001822	54873.5	3.386136	172.813	472.845	1.274889	0.105326	0.105141	475.142	54873.5	0.098832	0.300775	1579.73	91414.5
51	2.000000	1.277608	7.36555e+06	-41189.1	955.819	-29787.7	0.000000	0.000000	7.299045	509.337	NaN	0.000000	0.001605	0.001683	28.1314	101.113	0.001785	56644.9	5.607559	-8.426602	504.776	1.277174	0.107861	0.107426	509.337	56644.9	0.101117	0.313242	1626.02	92468.5
51	2.000000	1.278255	7.36555e+06	-41189.1	955.818	-29787.7	0.000000	0.000000	7.299412	502.527	NaN	0.000000	0.001604	0.001696	28.0964	103.573	0.001773	58415.6	6.415142	169.819	511.18	1.277915	0.108508	0.108168	502.527	58415.6	0.102056	0.318433	1578.13	94578.7