File: remote_trans/data/nanoindenter/0828-1/data/Data_2025-08-06,11h17m57s/2025-07-22_16-23-58_1_665.txt
2025-07-22, 16:23:58, 1
Index	Phase	Displacement	Time	Pos X	Pos Y	Pos Z	Rot A	Rot B	Piezo Z	Force A	Force B	Gripper	Voltage A	Voltage B	Temperature	Amplitude force	Amplitude pos	Stiffness	Phase shift	Phase excitation	Force A raw	Displacement raw	HMax	HMax raw	Real Force	Real Stiffness	Contact Depth	Area	Hardness	Reduced Mod.
[#]	[#]	[um]	[s]	[um]	[um]	[um]	[m°]	[m°]	[um]	[uN]	[uN]	[V]	[V]	[V]	[°C]	[uN]	[um]	[N/m]	[°]	[°]	[uN]	[um]	[um]	[um]	[uN]	[N/m]	[um]	[um^2]	[MPa]	[MPa]
665	1.000000	0.003039	7.37156e+06	-43839.1	1005.82	-29777.7	0.000000	0.000000	6.002795	-0.026897	NaN	0.000000	0.001651	0.001794	28.0827	0.111133	0.001100	101.069	-36.2449	-164.468	-0.018652	0.001755	-1.084959	-1.086243	-0.026897	101.069	-1.084759	-3.129200E+14	8.595475E-17	NaN
665	1.000000	0.010993	7.37156e+06	-43839.1	1005.82	-29777.7	0.000000	0.000000	6.010751	0.031013	NaN	0.000000	0.001680	0.001730	28.0821	0.069045	0.001127	61.2778	-97.3263	-167.55	0.020351	0.009697	-1.077005	-1.078300	0.031013	61.2778	-1.077385	-2.491096E+14	-1.244964E-16	NaN
665	1.000000	0.018992	7.37156e+06	-43839.1	1005.82	-29777.7	0.000000	0.000000	6.018747	-0.048868	NaN	0.000000	0.001690	0.001726	28.0821	0.094675	0.001643	57.6106	-118.463	-165.461	-0.042259	0.017625	-1.069005	-1.070372	-0.048868	57.6106	-1.068369	-1.884867E+14	2.592643E-16	NaN
665	1.000000	0.027019	7.37156e+06	-43839.1	1005.82	-29777.7	0.000000	0.000000	6.026776	-0.002581	NaN	0.000000	0.001660	0.001718	28.0824	0.085621	0.001847	46.3674	-3.617429	-165.021	0.005569	0.025685	-1.060979	-1.062313	-0.002581	46.3674	-1.060937	-1.497654E+14	1.723431E-17	NaN
665	1.000000	0.034989	7.37156e+06	-43839.1	1005.82	-29777.7	0.000000	0.000000	6.034745	-0.040309	NaN	0.000000	0.001629	0.001733	28.0829	0.073447	0.002010	36.5409	-104.858	-167.468	-0.059437	0.033671	-1.053008	-1.054327	-0.040309	36.5409	-1.052181	-1.142177E+14	3.529138E-16	NaN
665	1.000000	0.042987	7.37156e+06	-43839.1	1005.82	-29777.7	0.000000	0.000000	6.042743	-0.015380	NaN	0.000000	0.001702	0.001711	28.0827	0.036308	0.002017	18.0052	-28.5023	-167.475	0.009870	0.041677	-1.045011	-1.046321	-0.015380	18.0052	-1.044370	-8.968653E+13	1.714859E-16	NaN
665	1.000000	0.051003	7.37156e+06	-43839.1	1005.82	-29777.7	0.000000	0.000000	6.050761	0.019756	NaN	0.000000	0.001700	0.001762	28.0823	0.067165	0.001854	36.2233	21.1627	-162.209	0.023772	0.049698	-1.036995	-1.038300	0.019756	36.2233	-1.037404	-7.228684E+13	-2.732935E-16	NaN
665	1.000000	0.058962	7.37156e+06	-43839.1	1005.82	-29777.7	0.000000	0.000000	6.058720	0.014146	NaN	0.000000	0.001690	0.001741	28.0825	0.118517	0.001994	59.4272	-18.5534	-165.599	0.022089	0.057680	-1.029035	-1.030318	0.014146	59.4272	-1.029214	-5.609290E+13	-2.521928E-16	NaN
665	1.000000	0.066998	7.37156e+06	-43839.1	1005.82	-29777.7	0.000000	0.000000	6.066756	0.019898	NaN	0.000000	0.001640	0.001729	28.0835	0.074629	0.001965	37.9789	-105.184	-165.941	-0.060674	0.065675	-1.020999	-1.022322	0.019898	37.9789	-1.021392	-4.402366E+13	-4.519812E-16	NaN
665	1.000000	0.074968	7.37156e+06	-43839.1	1005.82	-29777.7	0.000000	0.000000	6.074723	-0.061666	NaN	0.000000	0.001628	0.001726	28.0836	0.041110	0.001944	21.1474	-53.0234	-167.141	0.040979	0.073637	-1.013029	-1.014360	-0.061666	21.1474	-1.010842	-3.174812E+13	1.942348E-15	NaN
665	1.000000	0.083006	7.37156e+06	-43839.1	1005.82	-29777.7	0.000000	0.000000	6.082761	-0.054235	NaN	0.000000	0.001632	0.001670	28.0833	0.117250	0.001956	59.9573	121.622	-164.188	-0.047580	0.081729	-1.004991	-1.006269	-0.054235	59.9573	-1.004313	-2.593162E+13	2.091446E-15	NaN
665	1.000000	0.090987	7.37156e+06	-43839.1	1005.82	-29777.7	0.000000	0.000000	6.090744	0.002022	NaN	0.000000	0.001684	0.001703	28.0833	0.106878	0.002063	51.7968	-178.156	-162.728	0.041190	0.089675	-0.997010	-0.998322	0.002022	51.7968	-0.997040	-2.069715E+13	-9.771435E-17	NaN
665	1.000000	0.099000	7.37156e+06	-43839.1	1005.82	-29777.7	0.000000	0.000000	6.098756	-0.022857	NaN	0.000000	0.001679	0.001703	28.0832	0.043457	0.001977	21.9862	157.072	-164.452	-0.075094	0.097662	-0.988997	-0.990335	-0.022857	21.9862	-0.988218	-1.574370E+13	1.451795E-15	NaN
665	1.000000	0.107016	7.37156e+06	-43839.1	1005.82	-29777.7	0.000000	0.000000	6.106775	0.053811	NaN	0.000000	0.001664	0.001701	28.0834	0.104623	0.002017	51.8674	-52.2071	-162.835	0.001135	0.105674	-0.980982	-0.982324	0.053811	51.8674	-0.981760	-1.288612E+13	-4.175859E-15	NaN
665	1.000000	0.115021	7.37156e+06	-43839.1	1005.82	-29777.7	0.000000	0.000000	6.114779	0.032374	NaN	0.000000	0.001643	0.001696	28.0836	0.053304	0.002082	25.5969	79.3952	-168.718	0.024799	0.113694	-0.972977	-0.974304	0.032374	25.5969	-0.973926	-1.010564E+13	-3.203553E-15	NaN
665	1.000000	0.123032	7.37156e+06	-43839.1	1005.82	-29777.7	0.000000	0.000000	6.122790	0.021201	NaN	0.000000	0.001673	0.001680	28.0842	0.073341	0.002163	33.9034	143.792	-166.202	-0.021725	0.121705	-0.964966	-0.966293	0.021201	33.9034	-0.965435	-7.764826E+12	-2.730347E-15	NaN
665	1.000000	0.130988	7.37156e+06	-43839.1	1005.82	-29777.7	0.000000	0.000000	6.130747	0.061894	NaN	0.000000	0.001669	0.001691	28.0838	0.077911	0.002043	38.1402	-98.1971	-165.133	0.036345	0.129748	-0.957010	-0.958250	0.061894	38.1402	-0.958227	-6.208207E+12	-9.969722E-15	NaN
665	1.000000	0.138986	7.37156e+06	-43839.1	1005.82	-29777.7	0.000000	0.000000	6.138743	-0.012007	NaN	0.000000	0.001659	0.001711	28.0835	0.042010	0.001938	21.6735	-5.016620	-164.816	-0.006598	0.137712	-0.949011	-0.950285	-0.012007	21.6735	-0.948596	-4.603522E+12	2.608153E-15	NaN
665	1.000000	0.147013	7.37156e+06	-43839.1	1005.82	-29777.7	0.000000	0.000000	6.146773	0.054948	NaN	0.000000	0.001655	0.001702	28.0838	0.045497	0.002068	21.9981	153.158	-163.75	0.017849	0.145741	-0.940984	-0.942257	0.054948	21.9981	-0.942858	-3.852032E+12	-1.426478E-14	NaN
665	1.000000	0.155025	7.37156e+06	-43839.1	1005.82	-29777.7	0.000000	0.000000	6.154783	0.016740	NaN	0.000000	0.001665	0.001695	28.0841	0.070049	0.002008	34.8764	-13.9367	-165.176	-0.043509	0.153694	-0.932972	-0.934304	0.016740	34.8764	-0.933332	-2.865293E+12	-5.842433E-15	NaN
665	1.000000	0.163057	7.37156e+06	-43839.1	1005.82	-29777.7	0.000000	0.000000	6.162813	-0.007876	NaN	0.000000	0.001686	0.001705	28.0836	0.089638	0.002039	43.9521	20.5319	-166.61	0.030940	0.161690	-0.924941	-0.926307	-0.007876	43.9521	-0.924807	-2.198355E+12	3.582536E-15	NaN
665	1.000000	0.171020	7.37156e+06	-43839.1	1005.82	-29777.7	0.000000	0.000000	6.170777	-0.003136	NaN	0.000000	0.001656	0.001707	28.0839	0.106422	0.001932	55.0962	-163.294	-162.267	-0.041201	0.169751	-0.916978	-0.918246	-0.003136	55.0962	-0.916935	-1.721169E+12	1.821798E-15	NaN
665	1.000000	0.179033	7.37156e+06	-43839.1	1005.82	-29777.7	0.000000	0.000000	6.178790	-0.009762	NaN	0.000000	0.001670	0.001664	28.0835	0.143080	0.001929	74.1639	102.209	-166.718	-0.054692	0.177755	-0.908965	-0.910242	-0.009762	74.1639	-0.908866	-1.339204E+12	7.289072E-15	NaN
665	1.000000	0.187019	7.37156e+06	-43839.1	1005.82	-29777.7	0.000000	0.000000	6.186777	0.008868	NaN	0.000000	0.001678	0.001690	28.0838	0.039293	0.002037	19.287	-48.1814	-164.077	0.002871	0.185775	-0.900979	-0.902223	0.008868	19.287	-0.901323	-1.059125E+12	-8.372626E-15	NaN
665	1.000000	0.195042	7.37156e+06	-43839.1	1005.82	-29777.7	0.000000	0.000000	6.194798	-0.014728	NaN	0.000000	0.001677	0.001707	28.0839	0.050806	0.001887	26.9273	119.17	-167.619	-0.006559	0.193772	-0.892956	-0.894226	-0.014728	26.9273	-0.892546	-8.059839E+11	1.827363E-14	NaN
665	1.000000	0.203054	7.37156e+06	-43839.1	1005.82	-29777.7	0.000000	0.000000	6.202811	-0.008567	NaN	0.000000	0.001658	0.001669	28.0822	0.083253	0.002078	40.0597	-53.4437	-162.011	-0.034781	0.201737	-0.884943	-0.886261	-0.008567	40.0597	-0.884783	-6.329679E+11	1.353477E-14	NaN
665	1.000000	0.211069	7.37156e+06	-43839.1	1005.82	-29777.7	0.000000	0.000000	6.210826	-0.007121	NaN	0.000000	0.001671	0.001717	28.0834	0.090166	0.001943	46.4095	-162.074	-165.742	0.074313	0.209728	-0.876929	-0.878269	-0.007121	46.4095	-0.876814	-4.938738E+11	1.441866E-14	NaN
665	1.000000	0.219049	7.37156e+06	-43839.1	1005.82	-29777.7	0.000000	0.000000	6.218808	0.036893	NaN	0.000000	0.001656	0.001721	28.0824	0.084702	0.001920	44.1112	176.053	-162.613	0.033460	0.217736	-0.868949	-0.870261	0.036893	44.1112	-0.869576	-3.941907E+11	-9.359261E-14	NaN
665	1.000000	0.227091	7.37156e+06	-43839.1	1005.82	-29777.7	0.000000	0.000000	6.226849	0.019618	NaN	0.000000	0.001621	0.001692	28.0824	0.057114	0.002099	27.2053	-174.798	-163.056	0.018757	0.225711	-0.860906	-0.862287	0.019618	27.2053	-0.861447	-3.059914E+11	-6.411447E-14	NaN
665	1.000000	0.235045	7.37156e+06	-43839.1	1005.82	-29777.7	0.000000	0.000000	6.234806	0.080984	NaN	0.000000	0.001627	0.001708	28.0824	0.022860	0.002111	10.8316	164.476	-162.334	0.039281	0.233775	-0.852952	-0.854223	0.080984	10.8316	-0.858560	-2.796562E+11	-2.895829E-13	NaN
665	1.000000	0.243085	7.37156e+06	-43839.1	1005.82	-29777.7	0.000000	0.000000	6.242843	0.028729	NaN	0.000000	0.001655	0.001721	28.0823	0.106712	0.001957	54.5423	168.518	-165.624	0.036404	0.241753	-0.844913	-0.846245	0.028729	54.5423	-0.845308	-1.850080E+11	-1.552870E-13	NaN
665	1.000000	0.251074	7.37156e+06	-43839.1	1005.82	-29777.7	0.000000	0.000000	6.250832	0.016192	NaN	0.000000	0.001676	0.001718	28.0828	0.060147	0.001839	32.7015	-122.62	-163.689	-0.014022	0.249746	-0.836924	-0.838252	0.016192	32.7015	-0.837295	-1.440942E+11	-1.123680E-13	NaN
665	1.000000	0.259107	7.37156e+06	-43839.1	1005.82	-29777.7	0.000000	0.000000	6.258868	0.093909	NaN	0.000000	0.001623	0.001703	28.0823	0.085508	0.001966	43.4982	139.888	-165.868	0.098664	0.257786	-0.828891	-0.830212	0.093909	43.4982	-0.830510	-1.166002E+11	-8.053923E-13	NaN
665	1.000000	0.267048	7.37156e+06	-43839.1	1005.82	-29777.7	0.000000	0.000000	6.266808	0.085937	NaN	0.000000	0.001654	0.001680	28.0823	0.080821	0.001988	40.6466	114.18	-162.935	0.051569	0.265757	-0.820950	-0.822241	0.085937	40.6466	-0.822536	-9.090640E+10	-9.453352E-13	NaN
665	1.000000	0.275057	7.37156e+06	-43839.1	1005.82	-29777.7	0.000000	0.000000	6.274815	0.010022	NaN	0.000000	0.001650	0.001692	28.082	0.047359	0.002058	23.0163	-104.042	-163.458	0.030413	0.273791	-0.812940	-0.814206	0.010022	23.0163	-0.813267	-6.805997E+10	-1.472483E-13	NaN
665	1.000000	0.283097	7.37156e+06	-43839.1	1005.82	-29777.7	0.000000	0.000000	6.282855	0.021695	NaN	0.000000	0.001642	0.001729	28.0819	0.009473	0.001983	4.778397	-30.9647	-163.957	0.048180	0.281823	-0.804901	-0.806175	0.021695	4.778397	-0.808306	-5.828905E+10	-3.721903E-13	NaN
665	1.000000	0.291061	7.37156e+06	-43839.1	1005.82	-29777.7	0.000000	0.000000	6.290818	-0.008956	NaN	0.000000	0.001661	0.001688	28.082	0.037975	0.001980	19.1812	16.0392	-165.274	-0.010370	0.289746	-0.796936	-0.798252	-0.008956	19.1812	-0.796586	-4.041268E+10	2.216146E-13	NaN
665	1.000000	0.299099	7.37156e+06	-43839.1	1005.82	-29777.7	0.000000	0.000000	6.298857	0.033909	NaN	0.000000	0.001639	0.001701	28.0819	0.129824	0.002033	63.8483	-103.907	-163.998	0.010707	0.297777	-0.788899	-0.790220	0.033909	63.8483	-0.789297	-3.217619E+10	-1.053854E-12	NaN
665	1.000000	0.307094	7.37156e+06	-43839.1	1005.82	-29777.7	0.000000	0.000000	6.306851	-0.008517	NaN	0.000000	0.001659	0.001723	28.0822	0.053996	0.001960	27.5435	9.056969	-166.492	0.004185	0.305757	-0.780903	-0.782241	-0.008517	27.5435	-0.780671	-2.456721E+10	3.466654E-13	NaN
665	1.000000	0.315132	7.37156e+06	-43839.1	1005.82	-29777.7	0.000000	0.000000	6.314889	-0.008571	NaN	0.000000	0.001637	0.001727	28.0823	0.013521	0.001970	6.864795	-128.73	-166.146	-0.028587	0.313811	-0.772866	-0.774187	-0.008571	6.864795	-0.771929	-1.868672E+10	4.586813E-13	NaN
665	1.000000	0.323112	7.37156e+06	-43839.1	1005.82	-29777.7	0.000000	0.000000	6.322872	0.051297	NaN	0.000000	0.001641	0.001690	28.0822	0.040170	0.002076	19.3545	51.2245	-161.617	0.026917	0.321844	-0.764885	-0.766154	0.051297	19.3545	-0.766873	-1.595095E+10	-3.215910E-12	NaN
665	1.000000	0.331113	7.37156e+06	-43839.1	1005.82	-29777.7	0.000000	0.000000	6.330871	0.009700	NaN	0.000000	0.001613	0.001709	28.0821	0.013553	0.001958	6.921024	35.7355	-164.322	-0.006140	0.329796	-0.756885	-0.758201	0.009700	6.921024	-0.757936	-1.205637E+10	-8.045287E-13	NaN
665	1.000000	0.339101	7.37156e+06	-43839.1	1005.82	-29777.7	0.000000	0.000000	6.338860	0.045016	NaN	0.000000	0.001614	0.001699	28.0831	0.089023	0.001912	46.5566	-153.196	-164.771	0.127540	0.337795	-0.748897	-0.750203	0.045016	46.5566	-0.749622	-9.291298E+9	-4.844952E-12	NaN
665	1.000000	0.347132	7.37156e+06	-43839.1	1005.82	-29777.7	0.000000	0.000000	6.346889	-0.004384	NaN	0.000000	0.001640	0.001700	28.0833	0.039405	0.001950	20.211	30.5218	-164.131	-0.036708	0.345867	-0.740865	-0.742131	-0.004384	20.211	-0.740703	-7.024664E+9	6.241275E-13	NaN
665	1.000000	0.355076	7.37156e+06	-43839.1	1005.82	-29777.7	0.000000	0.000000	6.354835	0.046448	NaN	0.000000	0.001639	0.001715	28.0834	0.095189	0.002072	45.9477	122.398	-166.551	0.014010	0.353858	-0.732921	-0.734140	0.046448	45.9477	-0.733679	-5.635723E+9	-8.241624E-12	NaN
665	1.000000	0.363122	7.37156e+06	-43839.1	1005.82	-29777.7	0.000000	0.000000	6.362880	0.018056	NaN	0.000000	0.001663	0.001707	28.084	0.096537	0.001828	52.8145	-26.0321	-160.652	-0.029875	0.361784	-0.724875	-0.726214	0.018056	52.8145	-0.725132	-4.309710E+9	-4.189563E-12	NaN
665	1.000000	0.371134	7.37156e+06	-43839.1	1005.82	-29777.7	0.000000	0.000000	6.370892	0.004879	NaN	0.000000	0.001636	0.001652	28.0839	0.056082	0.001992	28.1604	76.9898	-168.11	-0.059586	0.369859	-0.716863	-0.718139	0.004879	28.1604	-0.716993	-3.337832E+9	-1.461588E-12	NaN
665	1.000000	0.379117	7.37156e+06	-43839.1	1005.82	-29777.7	0.000000	0.000000	6.378875	0.010725	NaN	0.000000	0.001625	0.001701	28.0836	0.076456	0.001899	40.2516	-142.092	-165.667	-0.026621	0.377839	-0.708881	-0.710159	0.010725	40.2516	-0.709080	-2.603149E+9	-4.120113E-12	NaN
665	1.000000	0.387140	7.37156e+06	-43839.1	1005.82	-29777.7	0.000000	0.000000	6.386898	0.025636	NaN	0.000000	0.001657	0.001708	28.0834	0.030901	0.002020	15.3009	105.268	-167.616	0.003376	0.385866	-0.700858	-0.702132	0.025636	15.3009	-0.702115	-2.091261E+9	-1.225877E-11	NaN
665	1.000000	0.395110	7.37156e+06	-43839.1	1005.82	-29777.7	0.000000	0.000000	6.394870	0.058132	NaN	0.000000	0.001646	0.001709	28.0835	0.087561	0.002073	42.2305	168.626	-162.079	-0.013218	0.393826	-0.692887	-0.694172	0.058132	42.2305	-0.693920	-1.616142E+9	-3.596985E-11	NaN
665	1.000000	0.403148	7.37156e+06	-43839.1	1005.82	-29777.7	0.000000	0.000000	6.402905	0.015841	NaN	0.000000	0.001626	0.001705	28.0838	0.060044	0.002057	29.1914	154.208	-165.442	0.029833	0.401851	-0.684850	-0.686147	0.015841	29.1914	-0.685257	-1.230519E+9	-1.287333E-11	NaN
665	1.000000	0.411115	7.37156e+06	-43839.1	1005.82	-29777.7	0.000000	0.000000	6.410872	-0.005089	NaN	0.000000	0.001624	0.001673	28.0836	0.010967	0.002018	5.433453	-130.964	-163.742	-0.034495	0.409859	-0.676882	-0.678139	-0.005089	5.433453	-0.676180	-9.245975E+8	5.503484E-12	NaN
665	1.000000	0.419147	7.37156e+06	-43839.1	1005.82	-29777.7	0.000000	0.000000	6.418903	-0.029955	NaN	0.000000	0.001669	0.001686	28.0839	0.030436	0.002034	14.9651	41.7433	-165.505	0.000926	0.417877	-0.668850	-0.670120	-0.029955	14.9651	-0.667349	-7.000059E+8	4.279290E-11	NaN
665	1.000000	0.427129	7.37156e+06	-43839.1	1005.82	-29777.7	0.000000	0.000000	6.426886	-0.007786	NaN	0.000000	0.001625	0.001695	28.0836	0.085067	0.001979	42.9929	-90.0756	-164.399	0.032653	0.425827	-0.660869	-0.662171	-0.007786	42.9929	-0.660733	-5.682111E+8	1.370284E-11	NaN
665	1.000000	0.435150	7.37156e+06	-43839.1	1005.82	-29777.7	0.000000	0.000000	6.434907	0.000921	NaN	0.000000	0.001633	0.001691	28.0839	0.058261	0.001864	31.2569	16.1786	-164.247	0.031770	0.433828	-0.652848	-0.654170	0.000921	31.2569	-0.652870	-4.433767E+8	-2.076835E-12	NaN
665	1.000000	0.443161	7.37156e+06	-43839.1	1005.82	-29777.7	0.000000	0.000000	6.442919	0.014686	NaN	0.000000	0.001663	0.001667	28.0838	0.049656	0.002013	24.6679	-145.396	-165.308	0.043382	0.441850	-0.644836	-0.646148	0.014686	24.6679	-0.645283	-3.489431E+8	-4.208573E-11	NaN
665	1.000000	0.451182	7.37156e+06	-43839.1	1005.82	-29777.7	0.000000	0.000000	6.450942	0.064280	NaN	0.000000	0.001668	0.001680	28.0836	0.035510	0.001907	18.6204	-164.537	-165.441	-0.009351	0.449834	-0.636816	-0.638164	0.064280	18.6204	-0.639405	-2.898168E+8	-2.217948E-10	NaN
665	1.000000	0.459182	7.37156e+06	-43839.1	1005.82	-29777.7	0.000000	0.000000	6.458938	-0.021007	NaN	0.000000	0.001671	0.001697	28.0842	0.018418	0.002052	8.977315	68.4091	-167.33	0.069319	0.457840	-0.628816	-0.630158	-0.021007	8.977315	-0.627061	-1.961815E+8	1.070806E-10	NaN
665	1.000000	0.467178	7.37156e+06	-43839.1	1005.82	-29777.7	0.000000	0.000000	6.466932	-0.060258	NaN	0.000000	0.001703	0.001656	28.0835	0.148945	0.001921	77.5244	-67.5933	-160.737	-0.075860	0.465855	-0.620820	-0.622142	-0.060258	77.5244	-0.620237	-1.580850E+8	3.811770E-10	NaN
665	1.000000	0.475165	7.37156e+06	-43839.1	1005.82	-29777.7	0.000000	0.000000	6.474923	0.022584	NaN	0.000000	0.001704	0.001643	28.0825	0.154555	0.001936	79.8505	-11.0784	-166.54	-0.004435	0.473919	-0.612832	-0.614078	0.022584	79.8505	-0.613044	-1.258910E+8	-1.793934E-10	NaN
665	1.000000	0.483154	7.37156e+06	-43839.1	1005.82	-29777.7	0.000000	0.000000	6.482916	0.115289	NaN	0.000000	0.001690	0.001711	28.0822	0.084037	0.001913	43.9201	-15.468	-165.923	0.133165	0.481812	-0.604843	-0.606186	0.115289	43.9201	-0.606812	-1.033352E+8	-1.115676E-9	NaN
665	1.000000	0.491170	7.37156e+06	-43839.1	1005.82	-29777.7	0.000000	0.000000	6.490925	-0.041049	NaN	0.000000	0.001651	0.001711	28.0822	0.062870	0.002029	30.9842	85.9139	-166.475	-0.051828	0.489864	-0.596828	-0.598133	-0.041049	30.9842	-0.595834	-7.295891E+7	5.626292E-10	NaN
665	1.000000	0.499177	7.37156e+06	-43839.1	1005.82	-29777.7	0.000000	0.000000	6.498931	-0.059819	NaN	0.000000	0.001638	0.001699	28.0825	0.095218	0.002061	46.1966	-78.2578	-162.514	-0.052133	0.497864	-0.588821	-0.590134	-0.059819	46.1966	-0.587850	-5.662642E+7	1.056380E-9	NaN
665	1.000000	0.507158	7.37156e+06	-43839.1	1005.82	-29777.7	0.000000	0.000000	6.506912	-0.076091	NaN	0.000000	0.001627	0.001702	28.0824	0.057450	0.001986	28.9341	140.516	-164.049	-0.091225	0.505886	-0.580840	-0.582112	-0.076091	28.9341	-0.578868	-4.256936E+7	1.787464E-9	NaN
665	1.000000	0.515209	7.37156e+06	-43839.1	1005.82	-29777.7	0.000000	0.000000	6.514969	0.073587	NaN	0.000000	0.001641	0.001693	28.0824	0.125436	0.001899	66.0397	22.4911	-164.705	0.076145	0.513882	-0.572789	-0.574116	0.073587	66.0397	-0.573625	-3.603335E+7	-2.042183E-9	NaN
665	1.000000	0.523190	7.37156e+06	-43839.1	1005.82	-29777.7	0.000000	0.000000	6.522949	0.049854	NaN	0.000000	0.001656	0.001683	28.0823	0.011766	0.002034	5.785093	-19.2397	-164.361	-0.002286	0.521878	-0.564807	-0.566119	0.049854	5.785093	-0.571271	-3.343382E+7	-1.491127E-9	NaN
665	1.000000	0.531205	7.37156e+06	-43839.1	1005.82	-29777.7	0.000000	0.000000	6.530962	0.002064	NaN	0.000000	0.001677	0.001696	28.0823	0.076686	0.002178	35.2061	146.995	-165.66	-0.064029	0.529865	-0.556793	-0.558132	0.002064	35.2061	-0.556837	-2.111614E+7	-9.773932E-11	NaN
665	1.000000	0.539214	7.37156e+06	-43839.1	1005.82	-29777.7	0.000000	0.000000	6.538970	-0.026674	NaN	0.000000	0.001640	0.001675	28.0823	0.065841	0.001962	33.5509	104.489	-163.367	3.347482E-5	0.537860	-0.548783	-0.550138	-0.026674	33.5509	-0.548187	-1.602665E+7	1.664373E-9	NaN
665	1.000000	0.547186	7.37156e+06	-43839.1	1005.82	-29777.7	0.000000	0.000000	6.546942	-0.028677	NaN	0.000000	0.001682	0.001682	28.0824	0.056692	0.002112	26.8436	-99.9568	-165.406	0.009742	0.545914	-0.540811	-0.542083	-0.028677	26.8436	-0.540010	-1.234513E+7	2.322937E-9	NaN
665	1.000000	0.555189	7.37156e+06	-43839.1	1005.82	-29777.7	0.000000	0.000000	6.554945	-0.009993	NaN	0.000000	0.001679	0.001699	28.0827	0.118440	0.002008	58.9771	175.162	-163.178	-0.018407	0.553886	-0.532809	-0.534111	-0.009993	58.9771	-0.532682	-9.76821e+06	1.023010E-9	NaN
665	1.000000	0.563189	7.37156e+06	-43839.1	1005.82	-29777.7	0.000000	0.000000	6.562949	0.073100	NaN	0.000000	0.001631	0.001673	28.0824	0.061921	0.001882	32.9038	81.6125	-166.473	0.015871	0.561877	-0.524809	-0.526120	0.073100	32.9038	-0.526475	-8.00956e+06	-9.126625E-9	NaN
665	1.000000	0.571207	7.37156e+06	-43839.1	1005.82	-29777.7	0.000000	0.000000	6.570964	-0.012596	NaN	0.000000	0.001674	0.001677	28.0826	0.075976	0.002142	35.4755	5.631280	-164.285	-0.041981	0.569928	-0.516791	-0.518069	-0.012596	35.4755	-0.516524	-5.82434e+06	2.162581E-9	NaN
665	1.000000	0.579195	7.37156e+06	-43839.1	1005.82	-29777.7	0.000000	0.000000	6.578950	-0.045325	NaN	0.000000	0.001642	0.001697	28.0826	0.036721	0.001960	18.736	110.714	-162.857	-0.094936	0.577900	-0.508803	-0.510098	-0.045325	18.736	-0.506988	-4.28999e+06	1.056529E-8	NaN
665	1.000000	0.587203	7.37156e+06	-43839.1	1005.82	-29777.7	0.000000	0.000000	6.586960	-0.012472	NaN	0.000000	0.001610	0.001707	28.0825	0.055829	0.001934	28.8694	-65.744	-164.554	0.022449	0.585909	-0.500795	-0.502089	-0.012472	28.8694	-0.500471	-3.48004e+06	3.583932E-9	NaN
665	1.000000	0.595222	7.37156e+06	-43839.1	1005.82	-29777.7	0.000000	0.000000	6.594979	0.002209	NaN	0.000000	0.001624	0.001695	28.0826	0.042903	0.001907	22.4952	-166.889	-165.531	-0.005762	0.593907	-0.492776	-0.494090	0.002209	22.4952	-0.492850	-2.72399e+06	-8.110954E-10	NaN
665	1.000000	0.603252	7.37156e+06	-43839.1	1005.82	-29777.7	0.000000	0.000000	6.603011	0.026760	NaN	0.000000	0.001663	0.001717	28.0825	0.113714	0.001935	58.7573	-73.6057	-168.269	0.022448	0.601919	-0.484745	-0.486079	0.026760	58.7573	-0.485087	-2.1218e+06	-1.261191E-8	NaN
665	1.000000	0.611243	7.37156e+06	-43839.1	1005.82	-29777.7	0.000000	0.000000	6.611001	0.029002	NaN	0.000000	0.001655	0.001674	28.0838	0.061510	0.001982	31.0408	-139.123	-165.037	-0.023172	0.609950	-0.476755	-0.478048	0.029002	31.0408	-0.477455	-1.65919e+06	-1.747956E-8	NaN
665	1.000000	0.619235	7.37156e+06	-43839.1	1005.82	-29777.7	0.000000	0.000000	6.618992	-0.007159	NaN	0.000000	0.001650	0.001660	28.0836	0.047672	0.002106	22.6385	-138.967	-167.274	0.010358	0.617903	-0.468763	-0.470094	-0.007159	22.6385	-0.468526	-1.24373e+06	5.755704E-9	NaN
665	1.000000	0.627226	7.37156e+06	-43839.1	1005.82	-29777.7	0.000000	0.000000	6.626983	0.005334	NaN	0.000000	0.001656	0.001699	28.0838	0.049410	0.002078	23.7768	135.588	-164.442	0.031810	0.625965	-0.460772	-0.462032	0.005334	23.7768	-0.460940	-973259	-5.480880E-9	NaN
665	1.000000	0.635226	7.37156e+06	-43839.1	1005.82	-29777.7	0.000000	0.000000	6.634984	0.007008	NaN	0.000000	0.001676	0.001671	28.0837	0.128415	0.001968	65.2475	119.678	-161.852	0.051100	0.633927	-0.452771	-0.454071	0.007008	65.2475	-0.452852	-749019	-9.355987E-9	NaN
665	1.000000	0.643229	7.37156e+06	-43839.1	1005.82	-29777.7	0.000000	0.000000	6.642988	0.049072	NaN	0.000000	0.001678	0.001672	28.0836	0.059710	0.001906	31.3232	-172.03	-166.451	0.036900	0.641925	-0.444769	-0.446073	0.049072	31.3232	-0.445944	-598683	-8.196716E-8	NaN
665	1.000000	0.651260	7.37156e+06	-43839.1	1005.82	-29777.7	0.000000	0.000000	6.651016	-0.039560	NaN	0.000000	0.001641	0.001746	28.0837	0.103649	0.002068	50.1294	137.48	-165.859	0.007015	0.649949	-0.436737	-0.438048	-0.039560	50.1294	-0.436145	-435448	9.084804E-8	NaN
665	1.000000	0.659272	7.37156e+06	-43839.1	1005.82	-29777.7	0.000000	0.000000	6.659029	0.001141	NaN	0.000000	0.001666	0.001663	28.0838	0.064859	0.001978	32.7834	139.767	-162.074	-0.056009	0.657869	-0.428726	-0.430129	0.001141	32.7834	-0.428752	-342293	-3.333354E-9	NaN
665	1.000000	0.667267	7.37156e+06	-43839.1	1005.82	-29777.7	0.000000	0.000000	6.667025	0.020171	NaN	0.000000	0.001668	0.001706	28.0838	0.064443	0.002027	31.7937	-37.3585	-161.284	0.025860	0.665924	-0.420731	-0.422074	0.020171	31.7937	-0.421206	-267622	-7.537276E-8	NaN
665	1.000000	0.675215	7.37156e+06	-43839.1	1005.82	-29777.7	0.000000	0.000000	6.674971	-0.023499	NaN	0.000000	0.001651	0.001697	28.0833	0.094544	0.002048	46.1544	-8.191073	-165.826	-0.032346	0.673906	-0.412782	-0.414092	-0.023499	46.1544	-0.412400	-200690	1.170904E-7	NaN
665	1.000000	0.683289	7.37156e+06	-43839.1	1005.82	-29777.7	0.000000	0.000000	6.683046	-0.018617	NaN	0.000000	0.001677	0.001681	28.0835	0.062412	0.002004	31.138	-37.9858	-161.929	0.005668	0.681972	-0.404708	-0.406025	-0.018617	31.138	-0.404260	-153713	1.211178E-7	NaN
665	1.000000	0.691265	7.37156e+06	-43839.1	1005.82	-29777.7	0.000000	0.000000	6.691023	0.036912	NaN	0.000000	0.001721	0.001719	28.0835	0.070818	0.002117	33.4518	111.595	-166.499	-0.008494	0.689960	-0.396733	-0.398038	0.036912	33.4518	-0.397561	-123365	-2.992097E-7	NaN
665	1.000000	0.699290	7.37156e+06	-43839.1	1005.82	-29777.7	0.000000	0.000000	6.699046	-0.009640	NaN	0.000000	0.001738	0.001680	28.0834	0.012688	0.001978	6.414127	120.862	-165.639	-0.082370	0.697974	-0.388708	-0.390024	-0.009640	6.414127	-0.387581	-88827.1	1.085254E-7	NaN
665	1.000000	0.707279	7.37156e+06	-43839.1	1005.82	-29777.7	0.000000	0.000000	6.707037	0.035421	NaN	0.000000	0.001665	0.001736	28.0834	0.100643	0.001871	53.7795	-177.493	-165.882	-0.017920	0.705968	-0.380719	-0.382029	0.035421	53.7795	-0.381213	-71993.4	-4.920048E-7	NaN
665	1.000000	0.715256	7.37156e+06	-43839.1	1005.82	-29777.7	0.000000	0.000000	6.715014	0.008097	NaN	0.000000	0.001738	0.001733	28.0833	0.072843	0.001953	37.3061	67.5919	-165.799	-0.003648	0.713944	-0.372741	-0.374054	0.008097	37.3061	-0.372904	-54692.5	-1.480495E-7	NaN
665	1.000000	0.723272	7.37156e+06	-43839.1	1005.82	-29777.7	0.000000	0.000000	6.723032	0.073310	NaN	0.000000	0.001728	0.001727	28.0838	0.042905	0.002027	21.1672	-83.866	-164.754	-0.011555	0.721955	-0.364726	-0.366043	0.073310	21.1672	-0.367324	-45453.2	-1.612872E-6	NaN
665	1.000000	0.731270	7.37156e+06	-43839.1	1005.82	-29777.7	0.000000	0.000000	6.731027	-0.005982	NaN	0.000000	0.001713	0.001691	28.0835	0.017965	0.002028	8.857113	151.697	-162.869	0.008890	0.730000	-0.356727	-0.357997	-0.005982	8.857113	-0.356221	-31417.6	1.903989E-7	NaN
665	1.000000	0.739278	7.37156e+06	-43839.1	1005.82	-29777.7	0.000000	0.000000	6.739036	0.035487	NaN	0.000000	0.001723	0.001713	28.0832	0.026697	0.002009	13.2853	-164.906	-163.99	0.033296	0.737932	-0.348720	-0.350065	0.035487	13.2853	-0.350723	-26151.8	-1.356947E-6	NaN
665	1.000000	0.747279	7.37156e+06	-43839.1	1005.82	-29777.7	0.000000	0.000000	6.747038	0.034126	NaN	0.000000	0.001743	0.001691	28.0821	0.040677	0.001982	20.5212	-7.000037	-163.938	-0.051398	0.745924	-0.340718	-0.342073	0.034126	20.5212	-0.341966	-19507.2	-1.749410E-6	NaN
665	1.000000	0.755280	7.37156e+06	-43839.1	1005.82	-29777.7	0.000000	0.000000	6.755037	-0.003585	NaN	0.000000	0.001750	0.001705	28.0821	0.032980	0.001817	18.1535	-148.847	-165.82	0.002466	0.754003	-0.332717	-0.333995	-0.003585	18.1535	-0.332569	-14225	2.520127E-7	NaN
665	1.000000	0.763273	7.37156e+06	-43839.1	1005.82	-29777.7	0.000000	0.000000	6.763030	-0.024092	NaN	0.000000	0.001761	0.001721	28.082	0.055953	0.002048	27.3222	-85.5689	-162.891	0.066997	0.761959	-0.324724	-0.326039	-0.024092	27.3222	-0.324063	-10675.2	2.256780E-6	NaN
665	1.000000	0.771254	7.37156e+06	-43839.1	1005.82	-29777.7	0.000000	0.000000	6.771011	-0.002380	NaN	0.000000	0.001754	0.001698	28.0822	0.096027	0.002095	45.8333	71.7301	-169.377	0.084069	0.769991	-0.316743	-0.318007	-0.002380	45.8333	-0.316704	-8319.34	2.861174E-7	NaN
665	1.000000	0.779332	7.37156e+06	-43839.1	1005.82	-29777.7	0.000000	0.000000	6.779092	0.088799	NaN	0.000000	0.001765	0.001688	28.0823	0.035417	0.002075	17.0699	107.542	-164.625	0.002928	0.777942	-0.308666	-0.310056	0.088799	17.0699	-0.312568	-7228.12	-1.228521E-5	NaN
665	1.000000	0.787293	7.37156e+06	-43839.1	1005.82	-29777.7	0.000000	0.000000	6.787050	0.004196	NaN	0.000000	0.001724	0.001682	28.0823	0.058692	0.001857	31.6135	71.0483	-165.383	-0.117902	0.785979	-0.300705	-0.302019	0.004196	31.6135	-0.300804	-4837.36	-8.674014E-7	NaN
665	1.000000	0.795306	7.37156e+06	-43839.1	1005.82	-29777.7	0.000000	0.000000	6.795064	0.027584	NaN	0.000000	0.001756	0.001679	28.0822	0.011458	0.001937	5.916597	110.767	-166.155	-0.046599	0.793997	-0.292692	-0.294000	0.027584	5.916597	-0.296188	-4128.84	-6.680837E-6	NaN
665	1.000000	0.803343	7.37156e+06	-43839.1	1005.82	-29777.7	0.000000	0.000000	6.803100	0.000732	NaN	0.000000	0.001757	0.001742	28.0821	0.070739	0.001938	36.5019	-94.963	-164.222	0.013566	0.801989	-0.284654	-0.286009	0.000732	36.5019	-0.284669	-2775.22	-2.638574E-7	NaN
665	1.000000	0.811334	7.37156e+06	-43839.1	1005.82	-29777.7	0.000000	0.000000	6.811091	-0.017020	NaN	0.000000	0.001722	0.001743	28.0822	0.160343	0.002005	79.9857	56.1857	-166.055	-0.038390	0.810038	-0.276663	-0.277959	-0.017020	79.9857	-0.276504	-2090.06	8.143432E-6	NaN
665	1.000000	0.819332	7.37156e+06	-43839.1	1005.82	-29777.7	0.000000	0.000000	6.819090	0.025800	NaN	0.000000	0.001742	0.001691	28.082	0.138502	0.001939	71.4368	-108.287	-163.128	0.040038	0.818009	-0.268666	-0.269988	0.025800	71.4368	-0.268937	-1604.64	-1.607864E-5	NaN
665	1.000000	0.827321	7.37156e+06	-43839.1	1005.82	-29777.7	0.000000	0.000000	6.827079	0.038134	NaN	0.000000	0.001751	0.001669	28.0831	0.082048	0.001983	41.385	173.776	-165.859	0.001417	0.826007	-0.260677	-0.261991	0.038134	41.385	-0.261368	-1229.91	-3.100540E-5	NaN
665	1.000000	0.835325	7.37156e+06	-43839.1	1005.82	-29777.7	0.000000	0.000000	6.835079	-0.057846	NaN	0.000000	0.001733	0.001699	28.0824	0.072447	0.001988	36.4424	175.45	-164.518	0.026601	0.833976	-0.252673	-0.254022	-0.057846	36.4424	-0.251482	-866.716	6.674124E-5	NaN
665	1.000000	0.843296	7.37156e+06	-43839.1	1005.82	-29777.7	0.000000	0.000000	6.843050	-0.073054	NaN	0.000000	0.001766	0.001670	28.0819	0.028943	0.002132	13.5753	-76.6942	-162.598	-0.055247	0.842015	-0.244702	-0.245983	-0.073054	13.5753	-0.240666	-588.77	0.000124	NaN
665	1.000000	0.851347	7.37156e+06	-43839.1	1005.82	-29777.7	0.000000	0.000000	6.851104	0.005258	NaN	0.000000	0.001772	0.001691	28.0821	0.052795	0.002108	25.044	51.0293	-167.774	-0.070151	0.850061	-0.236651	-0.237937	0.005258	25.044	-0.236808	-512.404	-1.026135E-5	NaN
665	1.000000	0.859348	7.37156e+06	-43839.1	1005.82	-29777.7	0.000000	0.000000	6.859104	-0.011944	NaN	0.000000	0.001731	0.001718	28.082	0.080208	0.002041	39.2971	61.6829	-164.914	-0.001764	0.858050	-0.228650	-0.229948	-0.011944	39.2971	-0.228422	-378.073	3.159132E-5	NaN
665	1.000000	0.867304	7.37156e+06	-43839.1	1005.82	-29777.7	0.000000	0.000000	6.867061	0.008180	NaN	0.000000	0.001757	0.001687	28.0823	0.098145	0.001910	51.3738	-6.350849	-162.266	0.060447	0.866025	-0.220694	-0.221973	0.008180	51.3738	-0.220813	-286.196	-2.858116E-5	NaN
665	1.000000	0.875329	7.37156e+06	-43839.1	1005.82	-29777.7	0.000000	0.000000	6.875089	0.068948	NaN	0.000000	0.001745	0.001670	28.0825	0.025403	0.001942	13.0794	25.3209	-165.599	0.104702	0.873958	-0.212669	-0.214040	0.068948	13.0794	-0.216623	-245.236	-0.000281	NaN
665	1.000000	0.883349	7.37156e+06	-43839.1	1005.82	-29777.7	0.000000	0.000000	6.883110	0.080089	NaN	0.000000	0.001711	0.001682	28.0829	0.058643	0.001839	31.8844	96.7743	-166.274	0.119681	0.882031	-0.204648	-0.205967	0.080089	31.8844	-0.206532	-168.469	-0.000475	NaN
665	1.000000	0.891358	7.37156e+06	-43839.1	1005.82	-29777.7	0.000000	0.000000	6.891115	0.007197	NaN	0.000000	0.001715	0.001701	28.083	0.051190	0.001939	26.4064	81.0229	-162.892	0.001357	0.890030	-0.196640	-0.197968	0.007197	26.4064	-0.196844	-116.871	-6.157951E-5	NaN
665	1.000000	0.899342	7.37156e+06	-43839.1	1005.82	-29777.7	0.000000	0.000000	6.899099	0.012751	NaN	0.000000	0.001716	0.001716	28.083	0.123717	0.002126	58.1904	-97.7347	-163.43	0.004707	0.898079	-0.188656	-0.189919	0.012751	58.1904	-0.188820	-85.9607	-0.000148	NaN
665	1.000000	0.907339	7.37156e+06	-43839.1	1005.82	-29777.7	0.000000	0.000000	6.907098	0.031883	NaN	0.000000	0.001716	0.001701	28.083	0.131739	0.001868	70.5155	-177.537	-164.694	-0.008892	0.906014	-0.180658	-0.181983	0.031883	70.5155	-0.180998	-63.4487	-0.000502	NaN
665	1.000000	0.915366	7.37156e+06	-43839.1	1005.82	-29777.7	0.000000	0.000000	6.915119	-0.096238	NaN	0.000000	0.001726	0.001702	28.083	0.095824	0.001984	48.292	95.38	-164.511	-0.022784	0.914024	-0.172631	-0.173974	-0.096238	48.292	-0.171137	-42.9861	0.002239	NaN
665	1.000000	0.923343	7.37156e+06	-43839.1	1005.82	-29777.7	0.000000	0.000000	6.923098	-0.049064	NaN	0.000000	0.001690	0.001685	28.0844	0.059838	0.001972	30.3414	119.653	-168.287	0.020557	0.922060	-0.164655	-0.165938	-0.049064	30.3414	-0.163442	-31.5423	0.001555	NaN
665	1.000000	0.931359	7.37156e+06	-43839.1	1005.82	-29777.7	0.000000	0.000000	6.931115	-0.045077	NaN	0.000000	0.001694	0.001751	28.0835	0.098006	0.001945	50.3918	156.966	-164.116	-0.107553	0.930018	-0.156638	-0.157980	-0.045077	50.3918	-0.155967	-23.2255	0.001941	NaN
665	1.000000	0.939349	7.37156e+06	-43839.1	1005.82	-29777.7	0.000000	0.000000	6.939106	-0.012448	NaN	0.000000	0.001709	0.001707	28.0832	0.028419	0.001995	14.2429	-65.2425	-163.124	-0.017454	0.938076	-0.148648	-0.149922	-0.012448	14.2429	-0.147993	-16.6455	0.000748	NaN
665	1.000000	0.947353	7.37156e+06	-43839.1	1005.82	-29777.7	0.000000	0.000000	6.947108	-0.057593	NaN	0.000000	0.001677	0.001692	28.0831	0.071503	0.002105	33.9673	-56.3874	-167.228	0.029082	0.946074	-0.140644	-0.141924	-0.057593	33.9673	-0.139373	-11.5125	0.005003	NaN
665	1.000000	0.955389	7.37156e+06	-43839.1	1005.82	-29777.7	0.000000	0.000000	6.955145	-0.013263	NaN	0.000000	0.001761	0.001709	28.0834	0.010107	0.001935	5.223145	75.2783	-163.12	-0.016173	0.954053	-0.132609	-0.133944	-0.013263	5.223145	-0.130705	-7.864677	0.001686	NaN
665	1.000000	0.963388	7.37156e+06	-43839.1	1005.82	-29777.7	0.000000	0.000000	6.963144	-0.040111	NaN	0.000000	0.001717	0.001724	28.0835	0.065486	0.001968	33.2792	-6.981924	-165.967	-0.050095	0.962079	-0.124610	-0.125919	-0.040111	33.2792	-0.123706	-5.732138	0.006998	NaN
665	1.000000	0.971368	7.37156e+06	-43839.1	1005.82	-29777.7	0.000000	0.000000	6.971129	0.075203	NaN	0.000000	0.001722	0.001708	28.0836	0.040210	0.001991	20.1959	-54.2043	-164.364	0.083227	0.970047	-0.116629	-0.117951	0.075203	20.1959	-0.119422	-4.703304	-0.015989	NaN
665	1.000000	0.979391	7.37156e+06	-43839.1	1005.82	-29777.7	0.000000	0.000000	6.979149	0.020065	NaN	0.000000	0.001677	0.001727	28.0831	0.052404	0.002101	24.9396	-175.657	-163.768	-0.095694	0.978122	-0.108607	-0.109875	0.020065	24.9396	-0.109210	-2.891957	-0.006938	NaN
665	1.000000	0.987387	7.37156e+06	-43839.1	1005.82	-29777.7	0.000000	0.000000	6.987143	-0.034286	NaN	0.000000	0.001706	0.001742	28.0831	0.005809	0.002007	2.893982	-6.001338	-164.725	-0.118450	0.986061	-0.100610	-0.101937	-0.034286	2.893982	-0.091725	-1.185975	0.028909	NaN
665	1.000000	0.995385	7.37156e+06	-43839.1	1005.82	-29777.7	0.000000	0.000000	6.995142	-0.011391	NaN	0.000000	0.001715	0.001706	28.0831	0.040106	0.001963	20.4315	53.4513	-162.443	-0.008744	0.994057	-0.092612	-0.093941	-0.011391	20.4315	-0.092194	-1.216083	0.009367	NaN
665	1.000000	1.003391	7.37156e+06	-43839.1	1005.82	-29777.7	0.000000	0.000000	7.003149	0.025616	NaN	0.000000	0.001687	0.001717	28.0831	0.015991	0.001975	8.094996	140.478	-165.538	-0.039847	1.002115	-0.084607	-0.085883	0.025616	8.094996	-0.086980	-0.916873	-0.027939	NaN
665	1.000000	1.011398	7.37156e+06	-43839.1	1005.82	-29777.7	0.000000	0.000000	7.011156	0.036417	NaN	0.000000	0.001722	0.001722	28.0831	0.068117	0.002022	33.69	92.5616	-165.128	0.057675	1.010082	-0.076600	-0.077915	0.036417	33.69	-0.077411	-0.532567	-0.068381	NaN
665	1.000000	1.019404	7.37156e+06	-43839.1	1005.82	-29777.7	0.000000	0.000000	7.019162	0.006456	NaN	0.000000	0.001678	0.001702	28.0819	0.086082	0.001970	43.7043	69.9313	-163.854	-0.016604	1.018065	-0.068593	-0.069933	0.006456	43.7043	-0.068704	-0.314789	-0.020509	NaN
665	1.000000	1.027359	7.37156e+06	-43839.1	1005.82	-29777.7	0.000000	0.000000	7.027118	0.048045	NaN	0.000000	0.001669	0.001725	28.0818	0.074055	0.001963	37.7196	27.6645	-166.879	0.066972	1.026051	-0.060639	-0.061946	0.048045	37.7196	-0.061594	-0.199981	-0.240247	NaN
665	1.000000	1.035385	7.37156e+06	-43839.1	1005.82	-29777.7	0.000000	0.000000	7.035137	-0.131659	NaN	0.000000	0.001681	0.001697	28.0816	0.105785	0.001919	55.1214	-8.583152	-160.758	-0.088232	1.034141	-0.052612	-0.053857	-0.131659	55.1214	-0.050821	-0.096612	1.362763	NaN
665	1.000000	1.043370	7.37156e+06	-43839.1	1005.82	-29777.7	0.000000	0.000000	7.043125	-0.050998	NaN	0.000000	0.001659	0.001691	28.0818	0.068914	0.002040	33.7805	39.9255	-165.335	0.031820	1.042104	-0.044627	-0.045894	-0.050998	33.7805	-0.043495	-0.057804	0.882251	NaN
665	1.000000	1.051368	7.37156e+06	-43839.1	1005.82	-29777.7	0.000000	0.000000	7.051123	-0.044199	NaN	0.000000	0.001665	0.001721	28.0816	0.079107	0.001983	39.8859	141.671	-164.162	0.000556	1.050135	-0.036630	-0.037862	-0.044199	39.8859	-0.035799	-0.033813	1.307151	NaN
665	1.000000	1.059432	7.37156e+06	-43839.1	1005.82	-29777.7	0.000000	0.000000	7.059190	0.022376	NaN	0.000000	0.001678	0.001748	28.0816	0.061019	0.001949	31.3084	-79.5165	-166.534	0.057262	1.058076	-0.028566	-0.029921	0.022376	31.3084	-0.029102	-0.021731	-1.029670	NaN
665	1.000000	1.067431	7.37156e+06	-43839.1	1005.82	-29777.7	0.000000	0.000000	7.067187	-0.026222	NaN	0.000000	0.001638	0.001697	28.0816	0.045118	0.001880	24.0037	102.865	-162.734	-0.041439	1.066100	-0.020567	-0.021897	-0.026222	24.0037	-0.019747	-0.012376	2.118774	NaN
665	1.000000	1.075391	7.37156e+06	-43839.1	1005.82	-29777.7	0.000000	0.000000	7.075148	0.015372	NaN	0.000000	0.001692	0.001696	28.0816	0.058819	0.002014	29.2119	-70.1371	-163.603	0.100572	1.074095	-0.012607	-0.013903	0.015372	29.2119	-0.013002	-0.008103	-1.896989	NaN
665	1.000000	1.083428	7.37156e+06	-43839.1	1005.82	-29777.7	0.000000	0.000000	7.083188	0.089119	NaN	0.000000	0.001692	0.001731	28.0818	0.277215	0.001900	145.903	13.1209	-167.273	-0.022950	1.082149	-0.004570	-0.005849	0.089119	145.903	-0.005028	-0.003434	-25.9492	NaN
665	1.000000	1.091415	7.37156e+06	-43839.1	1005.82	-29777.7	0.000000	0.000000	7.091465	7.122339	NaN	0.000000	0.001681	0.001707	28.0815	7.102719	0.001619	4386.44	11.5036	-172.191	5.691836	1.090022	0.003418	0.002025	7.122339	4386.44	0.002200	0.001717	4147.96	96714.4
665	2.000000	1.094925	7.37156e+06	-43839.1	1005.82	-29777.7	0.000000	0.000000	7.095071	9.467974	NaN	0.000000	0.001691	0.001684	28.0824	10.0328	0.001771	5665.92	10.0107	-172.594	9.072442	1.094760	0.006927	0.006762	9.467974	5665.92	0.005674	0.004757	1990.36	75055.2
665	2.000000	1.096975	7.37156e+06	-43839.1	1005.82	-29777.7	0.000000	0.000000	7.097325	14.431	NaN	0.000000	0.001675	0.001706	28.0817	12.6851	0.001643	7720.95	8.771799	-175.397	14.6142	1.096585	0.008977	0.008588	14.431	7720.95	0.007575	0.006609	2183.52	86771
665	2.000000	1.098929	7.37156e+06	-43839.1	1005.82	-29777.7	0.000000	0.000000	7.099413	17.6703	NaN	0.000000	0.001683	0.001660	28.0818	14.3726	0.001596	9003.53	5.102414	-174.724	17.1005	1.098627	0.010932	0.010629	17.6703	9003.53	0.009460	0.008587	2057.75	88768.8
665	2.000000	1.100884	7.37156e+06	-43839.1	1005.82	-29777.7	0.000000	0.000000	7.101534	21.7277	NaN	0.000000	0.001699	0.001689	28.0818	17.4134	0.001796	9694.29	6.245174	-175.496	20.2191	1.100579	0.012886	0.012581	21.7277	9694.29	0.011205	0.010552	2059.07	86222
665	2.000000	1.102885	7.37156e+06	-43839.1	1005.82	-29777.7	0.000000	0.000000	7.103664	24.8795	NaN	0.000000	0.001716	0.001734	28.0817	18.9439	0.001806	10489.6	9.297449	-177.608	24.832	1.102615	0.014887	0.014617	24.8795	10489.6	0.013108	0.012844	1936.98	84561.3
665	2.000000	1.104874	7.37156e+06	-43839.1	1005.82	-29777.7	0.000000	0.000000	7.105747	27.1575	NaN	0.000000	0.001689	0.001701	28.0822	21.5428	0.001807	11919.5	8.394217	-179.735	26.1194	1.104545	0.016876	0.016548	27.1575	11919.5	0.015168	0.015510	1751.02	87444.7
665	2.000000	1.106993	7.37156e+06	-43839.1	1005.82	-29777.7	0.000000	0.000000	7.108067	32.0321	NaN	0.000000	0.001679	0.001731	28.0816	23.6465	0.001714	13798.5	6.426791	-178.284	33.955	1.106558	0.018995	0.018560	32.0321	13798.5	0.017254	0.018410	1739.91	92913.2
665	2.000000	1.108873	7.37156e+06	-43839.1	1005.82	-29777.7	0.000000	0.000000	7.110182	37.7753	NaN	0.000000	0.001703	0.001736	28.083	25.1337	0.001732	14515.1	7.323986	-179.602	37.6323	1.108624	0.020875	0.020627	37.7753	14515.1	0.018923	0.020878	1809.31	91779.7
665	2.000000	1.110867	7.37156e+06	-43839.1	1005.82	-29777.7	0.000000	0.000000	7.112445	44.2977	NaN	0.000000	0.001686	0.001731	28.083	27.4289	0.001632	16809.2	3.069151	-177.412	43.4845	1.110517	0.022869	0.022519	44.2977	16809.2	0.020893	0.023964	1848.48	99206.1
665	2.000000	1.112822	7.37156e+06	-43839.1	1005.82	-29777.7	0.000000	0.000000	7.114756	52.983	NaN	0.000000	0.001728	0.001747	28.083	28.6984	0.001704	16841.2	4.202903	-177.929	51.1227	1.112552	0.024824	0.024554	52.983	16841.2	0.022464	0.026564	1994.57	94406.6
665	2.000000	1.114875	7.37156e+06	-43839.1	1005.82	-29777.7	0.000000	0.000000	7.117039	58.5771	NaN	0.000000	0.001707	0.001730	28.0833	31.3531	0.001844	17006.9	2.110433	-176.319	56.3888	1.114533	0.026877	0.026536	58.5771	17006.9	0.024294	0.029743	1969.42	90095.5
665	2.000000	1.116861	7.37156e+06	-43839.1	1005.82	-29777.7	0.000000	0.000000	7.119157	61.7863	NaN	0.000000	0.001689	0.001717	28.0831	32.9833	0.001791	18418.2	1.861171	-175.474	61.3705	1.116559	0.028863	0.028562	61.7863	18418.2	0.026347	0.033512	1843.72	91922.7
665	2.000000	1.118830	7.37156e+06	-43839.1	1005.82	-29777.7	0.000000	0.000000	7.121516	71.2452	NaN	0.000000	0.001658	0.001732	28.0831	35.1954	0.001678	20972.8	4.186015	178.831	69.1753	1.118539	0.030833	0.030541	71.2452	20972.8	0.028285	0.037264	1911.91	99262.9
665	2.000000	1.120858	7.37156e+06	-43839.1	1005.82	-29777.7	0.000000	0.000000	7.123754	76.3754	NaN	0.000000	0.001656	0.001750	28.0831	38.2765	0.001863	20548.2	2.553606	-177.431	77.2846	1.120575	0.032860	0.032577	76.3754	20548.2	0.030073	0.040894	1867.63	92835.9
665	2.000000	1.122807	7.37156e+06	-43839.1	1005.82	-29777.7	0.000000	0.000000	7.126110	86.2588	NaN	0.000000	0.001696	0.001717	28.083	39.0843	0.001630	23982.7	5.305511	178.541	84.7756	1.122507	0.034809	0.034509	86.2588	23982.7	0.032112	0.045235	1906.92	103023
665	2.000000	1.124828	7.37156e+06	-43839.1	1005.82	-29777.7	0.000000	0.000000	7.128345	91.4938	NaN	0.000000	0.001637	0.001730	28.0836	42.2957	0.001840	22990.7	8.245831	176.079	90.4061	1.124481	0.036830	0.036483	91.4938	22990.7	0.033845	0.049091	1863.75	94803.2
665	2.000000	1.126816	7.37156e+06	-43839.1	1005.82	-29777.7	0.000000	0.000000	7.130764	101.967	NaN	0.000000	0.001680	0.001728	28.0829	44.1082	0.001821	24223.6	7.370270	176.173	100.432	1.126470	0.038818	0.038473	101.967	24223.6	0.035661	0.053297	1913.2	95865.3
665	2.000000	1.128831	7.37156e+06	-43839.1	1005.82	-29777.7	0.000000	0.000000	7.132978	106.803	NaN	0.000000	0.001689	0.001734	28.0832	44.8943	0.001785	25147.5	4.429347	177.798	104.89	1.128539	0.040833	0.040541	106.803	25147.5	0.037648	0.058091	1838.54	95326.4
665	2.000000	1.130825	7.37156e+06	-43839.1	1005.82	-29777.7	0.000000	0.000000	7.135397	117.163	NaN	0.000000	0.001676	0.001722	28.0829	48.1777	0.001892	25469.4	5.041676	177.143	116.086	1.130552	0.042827	0.042554	117.163	25469.4	0.039377	0.062428	1876.78	93133
665	2.000000	1.132859	7.37156e+06	-43839.1	1005.82	-29777.7	0.000000	0.000000	7.137677	123.14	NaN	0.000000	0.001680	0.001713	28.0828	48.5422	0.001849	26252.2	4.691513	177.733	123.446	1.132522	0.044861	0.044524	123.14	26252.2	0.041343	0.067546	1823.05	92286.7
665	2.000000	1.134831	7.37156e+06	-43839.1	1005.82	-29777.7	0.000000	0.000000	7.140196	136.429	NaN	0.000000	0.001620	0.001710	28.0836	49.9495	0.001763	28333.8	2.800640	179.192	135.905	1.134499	0.046833	0.046502	136.429	28333.8	0.043222	0.072620	1878.68	96061.6
665	2.000000	1.136781	7.37156e+06	-43839.1	1005.82	-29777.7	0.000000	0.000000	7.142576	146.902	NaN	0.000000	0.001606	0.001689	28.083	51.4433	0.001657	31052.2	4.194473	176.525	142.093	1.136465	0.048783	0.048467	146.902	31052.2	0.045235	0.078256	1877.21	101416
665	2.000000	1.138836	7.37156e+06	-43839.1	1005.82	-29777.7	0.000000	0.000000	7.144947	154.607	NaN	0.000000	0.001653	0.001717	28.0832	53.3929	0.001821	29327.1	4.375883	177.301	154.908	1.138482	0.050838	0.050484	154.607	29327.1	0.046884	0.083026	1862.16	92989.8
665	2.000000	1.140850	7.37156e+06	-43839.1	1005.82	-29777.7	0.000000	0.000000	7.147355	164.171	NaN	0.000000	0.001654	0.001708	28.0828	56.5275	0.001766	32012	6.822866	174.379	164.976	1.140502	0.052853	0.052505	164.171	32012	0.049006	0.089366	1837.06	97836
665	2.000000	1.142810	7.37156e+06	-43839.1	1005.82	-29777.7	0.000000	0.000000	7.149972	180.167	NaN	0.000000	0.001658	0.001705	28.082	56.9141	0.001679	33901.2	7.716195	173.073	180.099	1.142398	0.054812	0.054400	180.167	33901.2	0.050826	0.094985	1896.8	100499
665	2.000000	1.144881	7.37156e+06	-43839.1	1005.82	-29777.7	0.000000	0.000000	7.152060	180.565	NaN	0.000000	0.001653	0.001685	28.0819	59.3275	0.001888	31430.3	5.161664	176.071	183.215	1.144457	0.056883	0.056459	180.565	31430.3	0.052575	0.100537	1796.01	90564.9
665	2.000000	1.146861	7.37156e+06	-43839.1	1005.82	-29777.7	0.000000	0.000000	7.154814	199.402	NaN	0.000000	0.001695	0.001699	28.0817	60.6543	0.001684	36026.5	3.225382	177.357	199.917	1.146520	0.058864	0.058522	199.402	36026.5	0.054712	0.107533	1854.33	100375
665	2.000000	1.148819	7.37156e+06	-43839.1	1005.82	-29777.7	0.000000	0.000000	7.157216	210.201	NaN	0.000000	0.001651	0.001677	28.082	61.406	0.001690	36334.5	3.312127	176.791	210.681	1.148447	0.060822	0.060449	210.201	36334.5	0.056483	0.113499	1852.01	98536.4
665	2.000000	1.150791	7.37156e+06	-43839.1	1005.82	-29777.7	0.000000	0.000000	7.159606	220.388	NaN	0.000000	0.001653	0.001683	28.0816	65.2641	0.001847	35327	2.378518	177.843	217.771	1.150503	0.062793	0.062505	220.388	35327	0.058114	0.119132	1849.95	93511.7
665	2.000000	1.152762	7.37156e+06	-43839.1	1005.82	-29777.7	0.000000	0.000000	7.162036	231.531	NaN	0.000000	0.001660	0.001658	28.0817	67.3022	0.001762	38191.9	8.432639	170.8	228.909	1.152481	0.064765	0.064483	231.531	38191.9	0.060218	0.126591	1828.97	98071.7
665	2.000000	1.154736	7.37156e+06	-43839.1	1005.82	-29777.7	0.000000	0.000000	7.164461	242.517	NaN	0.000000	0.001659	0.001693	28.0818	68.6928	0.001824	37652.2	3.970146	175.297	238.691	1.154507	0.066738	0.066509	242.517	37652.2	0.061907	0.132736	1827.06	94420.9
665	2.000000	1.156787	7.37156e+06	-43839.1	1005.82	-29777.7	0.000000	0.000000	7.167260	260.709	NaN	0.000000	0.001664	0.001700	28.0818	70.2509	0.001775	39580.5	5.130843	174.992	258.092	1.156409	0.068789	0.068412	260.709	39580.5	0.063849	0.139972	1862.58	96657.1
665	2.000000	1.158797	7.37156e+06	-43839.1	1005.82	-29777.7	0.000000	0.000000	7.169805	273.727	NaN	0.000000	0.001688	0.001711	28.0822	72.0669	0.001739	41451.8	6.111680	172.806	273.232	1.158419	0.070799	0.070422	273.727	41451.8	0.065846	0.147603	1854.48	98575.5
665	2.000000	1.160788	7.37156e+06	-43839.1	1005.82	-29777.7	0.000000	0.000000	7.172176	282.967	NaN	0.000000	0.001662	0.001696	28.0818	75.0463	0.001948	38532.3	5.451886	174.316	282.25	1.160467	0.072790	0.072470	282.967	38532.3	0.067282	0.153209	1846.94	89940.8
665	2.000000	1.162814	7.37156e+06	-43839.1	1005.82	-29777.7	0.000000	0.000000	7.174728	295.778	NaN	0.000000	0.001662	0.001656	28.0817	76.1574	0.001856	41040.1	9.389615	170.439	296.392	1.162415	0.074816	0.074417	295.778	41040.1	0.069411	0.161700	1829.17	93245.2
665	2.000000	1.164818	7.37156e+06	-43839.1	1005.82	-29777.7	0.000000	0.000000	7.177139	305.678	NaN	0.000000	0.001660	0.001694	28.0815	78.0032	0.001725	45217.6	5.620477	172.475	306.651	1.164515	0.076820	0.076517	305.678	45217.6	0.071750	0.171281	1784.66	99822
665	2.000000	1.166729	7.37156e+06	-43839.1	1005.82	-29777.7	0.000000	0.000000	7.179436	315.062	NaN	0.000000	0.001674	0.001675	28.0815	79.5697	0.001776	44808.3	2.293597	176.47	309.055	1.166451	0.078731	0.078453	315.062	44808.3	0.073458	0.178437	1765.68	96914.5
665	2.000000	1.168824	7.37156e+06	-43839.1	1005.82	-29777.7	0.000000	0.000000	7.182077	328.346	NaN	0.000000	0.001653	0.001720	28.0817	81.0512	0.001718	47174.3	1.067911	176.687	329.037	1.168545	0.080826	0.080547	328.346	47174.3	0.075606	0.187636	1749.91	99499.4
665	2.000000	1.170760	7.37156e+06	-43839.1	1005.82	-29777.7	0.000000	0.000000	7.184769	346.734	NaN	0.000000	0.001677	0.001714	28.0815	84.2058	0.001880	44784.8	4.478926	174.187	344.201	1.170464	0.082763	0.082466	346.734	44784.8	0.076956	0.193530	1791.63	93009.9
665	2.000000	1.172749	7.37156e+06	-43839.1	1005.82	-29777.7	0.000000	0.000000	7.187369	361.599	NaN	0.000000	0.001692	0.001715	28.0818	84.7758	0.001759	48205.4	5.284588	173.042	359.815	1.172355	0.084752	0.084357	361.599	48205.4	0.079126	0.203178	1779.71	97708.2
665	2.000000	1.174724	7.37156e+06	-43839.1	1005.82	-29777.7	0.000000	0.000000	7.189851	373.936	NaN	0.000000	0.001670	0.001709	28.0816	87.8923	0.001861	47216.7	5.344301	172.781	371.864	1.174441	0.086727	0.086443	373.936	47216.7	0.080787	0.210715	1774.61	93977.1
665	2.000000	1.176705	7.37156e+06	-43839.1	1005.82	-29777.7	0.000000	0.000000	7.192492	389.982	NaN	0.000000	0.001681	0.001698	28.0826	89.9015	0.001900	47323.3	6.234649	171.566	383.921	1.176515	0.088707	0.088517	389.982	47323.3	0.082527	0.218745	1782.82	92444.2
665	2.000000	1.178723	7.37156e+06	-43839.1	1005.82	-29777.7	0.000000	0.000000	7.195123	404.912	NaN	0.000000	0.001696	0.001718	28.0831	92.015	0.001861	49448.5	9.443994	168.181	401.952	1.178487	0.090725	0.090489	404.912	49448.5	0.084584	0.228420	1772.67	94527.8
665	2.000000	1.180760	7.37156e+06	-43839.1	1005.82	-29777.7	0.000000	0.000000	7.197214	406.221	NaN	0.000000	0.001686	0.001690	28.0832	92.7896	0.001818	51037.3	3.380783	173.537	405.449	1.180679	0.092762	0.092681	406.221	51037.3	0.086793	0.239027	1699.47	95375.6
665	2.000000	1.182725	7.37156e+06	-43839.1	1005.82	-29777.7	0.000000	0.000000	7.200283	433.086	NaN	0.000000	0.001646	0.001691	28.0836	93.1521	0.001824	51079.8	4.712254	172.742	429.124	1.182391	0.094727	0.094394	433.086	51079.8	0.088368	0.246730	1755.3	93953.2
665	2.000000	1.184731	7.37156e+06	-43839.1	1005.82	-29777.7	0.000000	0.000000	7.202956	449.309	NaN	0.000000	0.001705	0.001736	28.083	95.8012	0.001822	52574.5	3.672161	173.967	446.536	1.184347	0.096733	0.096349	449.309	52574.5	0.090324	0.256451	1752.03	94852
665	2.000000	1.186792	7.37156e+06	-43839.1	1005.82	-29777.7	0.000000	0.000000	7.205477	460.483	NaN	0.000000	0.001721	0.001725	28.0833	97.402	0.001947	50031.7	2.415830	175.384	457.989	1.186545	0.098795	0.098548	460.483	50031.7	0.091892	0.264371	1741.81	88901.9
665	2.000000	1.188672	7.37156e+06	-43839.1	1005.82	-29777.7	0.000000	0.000000	7.208440	486.841	NaN	0.000000	0.001696	0.001702	28.0831	99.0462	0.001860	53244	5.264388	172.219	483.684	1.188335	0.100675	0.100337	486.841	53244	0.093817	0.274250	1775.17	92890.2
665	2.000000	1.190755	7.37156e+06	-43839.1	1005.82	-29777.7	0.000000	0.000000	7.210946	497.143	NaN	0.000000	0.001703	0.001708	28.0831	100.886	0.001740	57996.2	2.536294	173.863	494.577	1.190385	0.102757	0.102388	497.143	57996.2	0.096328	0.287390	1729.86	98841
665	2.000000	1.191739	7.37156e+06	-43839.1	1005.82	-29777.7	0.000000	0.000000	7.212587	513.129	NaN	0.000000	0.001705	0.001728	28.083	101.896	0.001751	58208.4	7.952247	169.089	512.62	1.191327	0.103741	0.103329	513.129	58208.4	0.097130	0.291645	1759.43	98476.3