File: remote_trans/data/nanoindenter/0828-1/data/Data_2025-08-06,11h17m57s/2025-07-22_16-23-58_1_17.txt
2025-07-22, 16:23:58, 1
Index	Phase	Displacement	Time	Pos X	Pos Y	Pos Z	Rot A	Rot B	Piezo Z	Force A	Force B	Gripper	Voltage A	Voltage B	Temperature	Amplitude force	Amplitude pos	Stiffness	Phase shift	Phase excitation	Force A raw	Displacement raw	HMax	HMax raw	Real Force	Real Stiffness	Contact Depth	Area	Hardness	Reduced Mod.
[#]	[#]	[um]	[s]	[um]	[um]	[um]	[m°]	[m°]	[um]	[uN]	[uN]	[V]	[V]	[V]	[°C]	[uN]	[um]	[N/m]	[°]	[°]	[uN]	[um]	[um]	[um]	[uN]	[N/m]	[um]	[um^2]	[MPa]	[MPa]
17	1.000000	0.002952	7.36521e+06	-39489.1	955.82	-29794.3	0.000000	0.000000	6.002831	-0.026592	NaN	0.000000	0.001552	0.001634	28.1062	0.027799	0.000886	31.3623	99.6774	-166.791	0.017131	0.001656	-1.097403	-1.098700	-0.026592	31.3623	-1.096767	-4.535995E+14	5.862468E-17	NaN
17	1.000000	0.012970	7.36521e+06	-39489.1	955.818	-29794.3	0.000000	0.000000	6.012852	0.059716	NaN	0.000000	0.001525	0.001696	28.1311	0.096569	0.001385	69.7089	-15.8163	18.192	-0.014090	0.011558	-1.087386	-1.088797	0.059716	69.7089	-1.088028	-3.462057E+14	-1.724879E-16	NaN
17	1.000000	0.022902	7.36521e+06	-39489.1	955.819	-29794.3	0.000000	0.000000	6.022780	-0.055481	NaN	0.000000	0.001539	0.001662	28.0912	0.073425	0.001789	41.0446	107.514	-165.748	-0.061658	0.021576	-1.077453	-1.078780	-0.055481	41.0446	-1.076440	-2.419341E+14	2.293234E-16	NaN
17	1.000000	0.032847	7.36521e+06	-39489.1	955.819	-29794.3	0.000000	0.000000	6.032726	-0.029085	NaN	0.000000	0.001552	0.001689	28.0809	0.027990	0.002030	13.7891	98.3818	15.0966	-0.030750	0.031563	-1.067508	-1.068793	-0.029085	13.7891	-1.065927	-1.747669E+14	1.664219E-16	NaN
17	1.000000	0.042870	7.36521e+06	-39489.1	955.818	-29794.3	0.000000	0.000000	6.042754	0.082090	NaN	0.000000	0.001512	0.001651	28.1043	0.016667	0.001990	8.373368	-71.4953	-166.827	0.115618	0.041569	-1.057485	-1.058787	0.082090	8.373368	-1.064838	-1.689793E+14	-4.858005E-16	NaN
17	1.000000	0.052875	7.36521e+06	-39489.1	955.819	-29794.3	0.000000	0.000000	6.052753	-0.059022	NaN	0.000000	0.001561	0.001639	28.1313	0.050583	0.002073	24.3975	-4.690054	15.2983	-0.027560	0.051551	-1.047480	-1.048805	-0.059022	24.3975	-1.045666	-9.335714E+13	6.322212E-16	NaN
17	1.000000	0.062888	7.36521e+06	-39489.1	955.819	-29794.3	0.000000	0.000000	6.062767	-0.027564	NaN	0.000000	0.001545	0.001642	28.0945	0.046491	0.002000	23.2487	163.496	-166.012	-0.040260	0.061586	-1.037468	-1.038770	-0.027564	23.2487	-1.036578	-7.046207E+13	3.911826E-16	NaN
17	1.000000	0.072909	7.36521e+06	-39489.1	955.818	-29794.3	0.000000	0.000000	6.072787	-0.036277	NaN	0.000000	0.001582	0.001625	28.0825	0.059434	0.002109	28.1813	-11.4597	13.2297	-0.110990	0.071536	-1.027447	-1.028819	-0.036277	28.1813	-1.026481	-5.154039E+13	7.038517E-16	NaN
17	1.000000	0.082885	7.36521e+06	-39489.1	955.819	-29794.3	0.000000	0.000000	6.082765	-0.000114	NaN	0.000000	0.001552	0.001672	28.1082	0.066935	0.001919	34.8832	24.3991	-166.79	0.016884	0.081536	-1.017471	-1.018820	-0.000114	34.8832	-1.017468	-3.898421E+13	2.930142E-18	NaN
17	1.000000	0.092909	7.36521e+06	-39489.1	955.819	-29794.3	0.000000	0.000000	6.092786	-0.065851	NaN	0.000000	0.001565	0.001670	28.1336	0.091150	0.001843	49.4449	165.229	15.0258	-0.067825	0.091562	-1.007446	-1.008794	-0.065851	49.4449	-1.006447	-2.770542E+13	2.376844E-15	NaN
17	1.000000	0.102901	7.36521e+06	-39489.1	955.818	-29794.3	0.000000	0.000000	6.102781	-0.015337	NaN	0.000000	0.001554	0.001659	28.0926	0.043298	0.001933	22.3996	-137.069	-165.172	-0.051725	0.101628	-0.997454	-0.998727	-0.015337	22.3996	-0.996941	-2.063378E+13	7.432751E-16	NaN
17	1.000000	0.112939	7.36521e+06	-39489.1	955.819	-29794.3	0.000000	0.000000	6.112817	-0.030852	NaN	0.000000	0.001554	0.001625	28.082	0.152260	0.001975	77.0946	81.0764	13.9931	-0.090071	0.111514	-0.987417	-0.988841	-0.030852	77.0946	-0.987117	-1.521520E+13	2.027739E-15	NaN
17	1.000000	0.122916	7.36521e+06	-39489.1	955.818	-29794.3	0.000000	0.000000	6.122796	0.005683	NaN	0.000000	0.001570	0.001663	28.1059	0.057033	0.001929	29.5699	-101.177	-167.61	-0.000576	0.121574	-0.977439	-0.978781	0.005683	29.5699	-0.977583	-1.132017E+13	-5.020520E-16	NaN
17	1.000000	0.132894	7.36521e+06	-39489.1	955.819	-29794.3	0.000000	0.000000	6.132772	-0.041855	NaN	0.000000	0.001567	0.001654	28.1321	0.062116	0.001975	31.4485	83.8395	13.6034	-0.063955	0.131563	-0.967462	-0.968793	-0.041855	31.4485	-0.966464	-8.016869E+12	5.220838E-15	NaN
17	1.000000	0.142915	7.36521e+06	-39489.1	955.819	-29794.3	0.000000	0.000000	6.142794	-0.022788	NaN	0.000000	0.001574	0.001646	28.0944	0.058068	0.002062	28.1671	-167.52	-165.621	-0.057956	0.141607	-0.957440	-0.958749	-0.022788	28.1671	-0.956834	-5.945372E+12	3.832837E-15	NaN
17	1.000000	0.152940	7.36521e+06	-39489.1	955.818	-29794.3	0.000000	0.000000	6.152819	-0.014905	NaN	0.000000	0.001560	0.001677	28.0826	0.019919	0.002006	9.931866	122.005	13.1479	0.005157	0.151579	-0.947416	-0.948777	-0.014905	9.931866	-0.946290	-4.285433E+12	3.478174E-15	NaN
17	1.000000	0.162936	7.36521e+06	-39489.1	955.817	-29794.3	0.000000	0.000000	6.162816	0.000649	NaN	0.000000	0.001559	0.001701	28.1064	0.086276	0.002086	41.367	-158.609	-165.639	0.044502	0.161583	-0.937419	-0.938773	0.000649	41.367	-0.937431	-3.254446E+12	-1.992836E-16	NaN
17	1.000000	0.172919	7.36521e+06	-39489.1	955.818	-29794.3	0.000000	0.000000	6.172800	0.033364	NaN	0.000000	0.001553	0.001684	28.1324	0.072679	0.002139	33.9852	-151.696	12.991	0.007496	0.171535	-0.927437	-0.928821	0.033364	33.9852	-0.928173	-2.440845E+12	-1.366905E-14	NaN
17	1.000000	0.182950	7.36521e+06	-39489.1	955.818	-29794.3	0.000000	0.000000	6.182830	-0.005982	NaN	0.000000	0.001547	0.001704	28.0932	0.097863	0.002088	46.8725	52.8099	-166.281	0.005794	0.181612	-0.917405	-0.918743	-0.005982	46.8725	-0.917310	-1.741323E+12	3.435520E-15	NaN
17	1.000000	0.192936	7.36521e+06	-39489.1	955.817	-29794.3	0.000000	0.000000	6.192818	0.069860	NaN	0.000000	0.001532	0.001654	28.0802	0.081227	0.001865	43.5537	80.5048	14.4457	0.061814	0.191589	-0.907420	-0.908767	0.069860	43.5537	-0.908623	-1.329110E+12	-5.256170E-14	NaN
17	1.000000	0.202941	7.36521e+06	-39489.1	955.818	-29794.3	0.000000	0.000000	6.202821	0.002074	NaN	0.000000	0.001519	0.001651	28.1037	0.072427	0.002050	35.3281	-169.246	-166.582	0.067278	0.201612	-0.897415	-0.898743	0.002074	35.3281	-0.897459	-9.391287E+11	-2.207932E-15	NaN
17	1.000000	0.212920	7.36521e+06	-39489.1	955.819	-29794.3	0.000000	0.000000	6.212799	-0.019981	NaN	0.000000	0.001518	0.001677	28.1311	0.029915	0.002003	14.9361	152.837	15.9522	-0.026488	0.211586	-0.887435	-0.888770	-0.019981	14.9361	-0.886432	-6.663139E+11	2.998717E-14	NaN
17	1.000000	0.222957	7.36521e+06	-39489.1	955.818	-29794.3	0.000000	0.000000	6.222834	-0.064226	NaN	0.000000	0.001491	0.001642	28.0925	0.030518	0.001924	15.862	-112.71	-164.38	0.003047	0.221642	-0.877399	-0.878714	-0.064226	15.862	-0.874362	-4.575667E+11	1.403645E-13	NaN
17	1.000000	0.232952	7.36521e+06	-39489.1	955.818	-29794.3	0.000000	0.000000	6.232833	0.035402	NaN	0.000000	0.001510	0.001670	28.0818	0.104867	0.002038	51.4631	-28.3361	16.6741	0.001342	0.231644	-0.867404	-0.868712	0.035402	51.4631	-0.867920	-3.743663E+11	-9.456551E-14	NaN
17	1.000000	0.242953	7.36521e+06	-39489.1	955.819	-29794.3	0.000000	0.000000	6.242833	0.002039	NaN	0.000000	0.001506	0.001646	28.1052	0.074782	0.002072	36.0857	80.2464	-167.895	-0.011875	0.241662	-0.857402	-0.858693	0.002039	36.0857	-0.857445	-2.701045E+11	-7.547692E-15	NaN
17	1.000000	0.252931	7.36521e+06	-39489.1	955.818	-29794.3	0.000000	0.000000	6.252812	0.028373	NaN	0.000000	0.001559	0.001648	28.1318	0.083796	0.001937	43.2682	122.355	13.3493	0.037098	0.251642	-0.847425	-0.848714	0.028373	43.2682	-0.847917	-2.006892E+11	-1.413781E-13	NaN
17	1.000000	0.262981	7.36521e+06	-39489.1	955.82	-29794.3	0.000000	0.000000	6.262859	-0.037590	NaN	0.000000	0.001591	0.001642	28.0916	0.035880	0.002008	17.8644	142.163	-169.768	-0.011539	0.261706	-0.837375	-0.838650	-0.037590	17.8644	-0.835797	-1.375132E+11	2.733557E-13	NaN
17	1.000000	0.272982	7.36521e+06	-39489.1	955.818	-29794.3	0.000000	0.000000	6.272861	-0.018329	NaN	0.000000	0.001614	0.001650	28.0806	0.043035	0.001974	21.7969	177.642	14.1903	-0.026935	0.271591	-0.827373	-0.828765	-0.018329	21.7969	-0.826743	-1.036643E+11	1.768127E-13	NaN
17	1.000000	0.282968	7.36521e+06	-39489.1	955.818	-29794.3	0.000000	0.000000	6.282845	-0.079392	NaN	0.000000	0.001603	0.001685	28.1041	0.121772	0.001944	62.6316	100.18	-166.103	-0.138687	0.281656	-0.817387	-0.818699	-0.079392	62.6316	-0.816437	-7.514219E+10	1.056560E-12	NaN
17	1.000000	0.292977	7.36521e+06	-39489.1	955.818	-29794.3	0.000000	0.000000	6.292856	-0.019418	NaN	0.000000	0.001563	0.001675	28.1306	0.136910	0.002093	65.4018	139.283	11.2417	0.066199	0.291618	-0.807379	-0.808738	-0.019418	65.4018	-0.807156	-5.623178E+10	3.453250E-13	NaN
17	1.000000	0.302992	7.36521e+06	-39489.1	955.817	-29794.3	0.000000	0.000000	6.302871	-0.013007	NaN	0.000000	0.001587	0.001623	28.0928	0.061548	0.001996	30.8362	6.054555	-163.966	-0.001595	0.301647	-0.797364	-0.798708	-0.013007	30.8362	-0.797048	-4.100011E+10	3.172353E-13	NaN
17	1.000000	0.312992	7.36521e+06	-39489.1	955.818	-29794.3	0.000000	0.000000	6.312870	-0.042134	NaN	0.000000	0.001574	0.001636	28.081	0.046956	0.001973	23.8048	-65.2079	13.7224	-0.008807	0.311616	-0.787364	-0.788740	-0.042134	23.8048	-0.786036	-2.905667E+10	1.450070E-12	NaN
17	1.000000	0.322994	7.36521e+06	-39489.1	955.818	-29794.3	0.000000	0.000000	6.322869	-0.105202	NaN	0.000000	0.001612	0.001653	28.1062	0.113097	0.002001	56.5287	84.5632	-167.032	0.034795	0.321707	-0.777362	-0.778649	-0.105202	56.5287	-0.775966	-2.120361E+10	4.961507E-12	NaN
17	1.000000	0.333015	7.36521e+06	-39489.1	955.818	-29794.3	0.000000	0.000000	6.332893	-0.036822	NaN	0.000000	0.001620	0.001669	28.1329	0.077767	0.002045	38.0346	-173.7	14.8169	-0.059524	0.331656	-0.767341	-0.768700	-0.036822	38.0346	-0.766615	-1.582251E+10	2.327195E-12	NaN
17	1.000000	0.343023	7.36521e+06	-39489.1	955.819	-29794.3	0.000000	0.000000	6.342906	0.079666	NaN	0.000000	0.001513	0.001683	28.0934	0.032921	0.002080	15.8281	-144.032	-165.09	0.050851	0.341697	-0.757333	-0.758659	0.079666	15.8281	-0.761107	-1.331580E+10	-5.982797E-12	NaN
17	1.000000	0.353036	7.36521e+06	-39489.1	955.818	-29794.3	0.000000	0.000000	6.352913	-0.057160	NaN	0.000000	0.001531	0.001671	28.0812	0.134281	0.002022	66.4075	-106.892	12.8622	-0.059534	0.351678	-0.747320	-0.748678	-0.057160	66.4075	-0.746674	-8.471181E+9	6.747618E-12	NaN
17	1.000000	0.363006	7.36521e+06	-39489.1	955.819	-29794.3	0.000000	0.000000	6.362888	0.052586	NaN	0.000000	0.001545	0.001652	28.1044	0.055143	0.001986	27.7664	-154.87	-164.753	-0.036430	0.361672	-0.737349	-0.738684	0.052586	27.7664	-0.738770	-6.611486E+9	-7.953793E-12	NaN
17	1.000000	0.372996	7.36521e+06	-39489.1	955.818	-29794.3	0.000000	0.000000	6.372875	-0.012738	NaN	0.000000	0.001523	0.001695	28.1321	0.077607	0.002003	38.7524	-64.4476	14.0602	0.047108	0.371660	-0.727360	-0.728696	-0.012738	38.7524	-0.727114	-4.586327E+9	2.777491E-12	NaN
17	1.000000	0.382987	7.36521e+06	-39489.1	955.819	-29794.3	0.000000	0.000000	6.382867	0.009351	NaN	0.000000	0.001540	0.001592	28.0951	0.050131	0.001892	26.5022	-5.234680	-164.967	-0.021008	0.381698	-0.717369	-0.718658	0.009351	26.5022	-0.717633	-3.405610E+9	-2.745821E-12	NaN
17	1.000000	0.393003	7.36521e+06	-39489.1	955.818	-29794.3	0.000000	0.000000	6.392881	-0.034733	NaN	0.000000	0.001514	0.001630	28.0837	0.106228	0.001970	53.9099	166.834	13.5696	-0.034296	0.391719	-0.707353	-0.708636	-0.034733	53.9099	-0.706870	-2.428435E+9	1.430244E-11	NaN
17	1.000000	0.403029	7.36521e+06	-39489.1	955.819	-29794.3	0.000000	0.000000	6.402910	0.034370	NaN	0.000000	0.001564	0.001662	28.105	0.037509	0.001961	19.125	24.9939	-167.174	0.084651	0.401734	-0.697327	-0.698621	0.034370	19.125	-0.698675	-1.876856E+9	-1.831262E-11	NaN
17	1.000000	0.413012	7.36521e+06	-39489.1	955.818	-29794.3	0.000000	0.000000	6.412890	-0.031736	NaN	0.000000	0.001543	0.001616	28.133	0.037337	0.002056	18.1581	-168.186	9.054104	-0.064653	0.411671	-0.687344	-0.688685	-0.031736	18.1581	-0.686033	-1.260953E+9	2.516821E-11	NaN
17	1.000000	0.423064	7.36521e+06	-39489.1	955.818	-29794.3	0.000000	0.000000	6.422946	0.048504	NaN	0.000000	0.001588	0.001620	28.0934	0.026476	0.001980	13.375	58.4151	-167.169	0.012098	0.421686	-0.677291	-0.678670	0.048504	13.375	-0.680011	-1.043182E+9	-4.649657E-11	NaN
17	1.000000	0.433029	7.36521e+06	-39489.1	955.817	-29794.3	0.000000	0.000000	6.432909	-0.004967	NaN	0.000000	0.001610	0.001633	28.0817	0.046707	0.001985	23.5303	122.996	14.2227	-0.020999	0.431702	-0.667326	-0.668654	-0.004967	23.5303	-0.667168	-6.960235E+8	7.135717E-12	NaN
17	1.000000	0.443036	7.36521e+06	-39489.1	955.817	-29794.3	0.000000	0.000000	6.442918	0.056593	NaN	0.000000	0.001599	0.001623	28.1039	0.028350	0.002103	13.4786	63.4234	-164.616	-0.045101	0.441700	-0.657319	-0.658656	0.056593	13.4786	-0.660468	-5.634889E+8	-1.004325E-10	NaN
17	1.000000	0.453045	7.36521e+06	-39489.1	955.818	-29794.3	0.000000	0.000000	6.452925	-4.292686E-5	NaN	0.000000	0.001615	0.001630	28.1317	0.023599	0.002104	11.2155	-52.9521	14.9517	0.015779	0.451675	-0.647310	-0.648681	-4.292686E-5	11.2155	-0.647307	-3.719804E+8	1.154009E-13	NaN
17	1.000000	0.463061	7.36521e+06	-39489.1	955.819	-29794.3	0.000000	0.000000	6.462939	-0.056336	NaN	0.000000	0.001592	0.001632	28.0932	0.060468	0.001964	30.7953	65.6886	-166.127	0.064708	0.461710	-0.637294	-0.638646	-0.056336	30.7953	-0.635922	-2.596160E+8	2.169979E-10	NaN
17	1.000000	0.473035	7.36521e+06	-39489.1	955.818	-29794.3	0.000000	0.000000	6.472917	0.036392	NaN	0.000000	0.001618	0.001635	28.0816	0.167711	0.001922	87.2699	15.8634	11.6386	-0.037359	0.471633	-0.627320	-0.628722	0.036392	87.2699	-0.627633	-1.997631E+8	-1.821736E-10	NaN
17	1.000000	0.483052	7.36521e+06	-39489.1	955.818	-29794.3	0.000000	0.000000	6.482933	0.010525	NaN	0.000000	0.001615	0.001631	28.1041	0.037961	0.002034	18.665	-95.5283	-165.702	-0.020797	0.481817	-0.617303	-0.618539	0.010525	18.665	-0.617726	-1.460074E+8	-7.208341E-11	NaN
17	1.000000	0.493058	7.36521e+06	-39489.1	955.818	-29794.3	0.000000	0.000000	6.492937	-0.012105	NaN	0.000000	0.001579	0.001665	28.132	0.108626	0.002100	51.7144	146.174	12.1623	-0.026601	0.491725	-0.607298	-0.608631	-0.012105	51.7144	-0.607123	-1.043566E+8	1.159923E-10	NaN
17	1.000000	0.503068	7.36521e+06	-39489.1	955.819	-29794.3	0.000000	0.000000	6.502946	-0.047498	NaN	0.000000	0.001587	0.001643	28.0937	0.076605	0.001996	38.3702	-133.294	-169.436	-0.083451	0.501768	-0.597287	-0.598587	-0.047498	38.3702	-0.596359	-7.418342E+7	6.402789E-10	NaN
17	1.000000	0.513097	7.36521e+06	-39489.1	955.819	-29794.3	0.000000	0.000000	6.512973	-0.102110	NaN	0.000000	0.001573	0.001560	28.0812	0.033529	0.002085	16.0844	140.404	15.2089	-0.013961	0.511777	-0.587258	-0.588578	-0.102110	16.0844	-0.582497	-4.777306E+7	2.137394E-9	NaN
17	1.000000	0.523058	7.36521e+06	-39489.1	955.817	-29794.3	0.000000	0.000000	6.522939	0.045968	NaN	0.000000	0.001598	0.001558	28.1023	0.083923	0.001914	43.8469	47.6909	-166.269	-0.007587	0.521745	-0.577298	-0.578610	0.045968	43.8469	-0.578084	-4.152247E+7	-1.107062E-9	NaN
17	1.000000	0.533087	7.36521e+06	-39489.1	955.818	-29794.3	0.000000	0.000000	6.532966	-0.000406	NaN	0.000000	0.001555	0.001574	28.1319	0.042645	0.002027	21.0419	-124.232	10.8101	-0.075340	0.531691	-0.567269	-0.568664	-0.000406	21.0419	-0.567255	-2.942328E+7	1.378780E-11	NaN
17	1.000000	0.543056	7.36521e+06	-39489.1	955.819	-29794.3	0.000000	0.000000	6.542939	0.065177	NaN	0.000000	0.001554	0.001613	28.094	0.053330	0.002075	25.7009	176.034	-169.056	0.050066	0.541782	-0.557299	-0.558574	0.065177	25.7009	-0.559201	-2.276829E+7	-2.862630E-9	NaN
17	1.000000	0.553086	7.36521e+06	-39489.1	955.818	-29794.3	0.000000	0.000000	6.552965	-0.019434	NaN	0.000000	0.001562	0.001581	28.08	0.027841	0.002025	13.7477	42.0367	10.9784	-0.003370	0.551755	-0.547270	-0.548600	-0.019434	13.7477	-0.546210	-1.504676E+7	1.291572E-9	NaN
17	1.000000	0.563099	7.36521e+06	-39489.1	955.819	-29794.3	0.000000	0.000000	6.562978	0.003641	NaN	0.000000	0.001557	0.001597	28.1038	0.093725	0.001961	47.8059	61.3775	-162.468	-0.073576	0.561764	-0.537257	-0.538592	0.003641	47.8059	-0.537314	-1.132667E+7	-3.214852E-10	NaN
17	1.000000	0.573105	7.36521e+06	-39489.1	955.818	-29794.3	0.000000	0.000000	6.572982	-0.047595	NaN	0.000000	0.001566	0.001657	28.1315	0.068632	0.002053	33.4373	-76.7138	12.6679	-0.019745	0.571705	-0.527251	-0.528650	-0.047595	33.4373	-0.526184	-7.9352e+06	5.997921E-9	NaN
17	1.000000	0.583120	7.36521e+06	-39489.1	955.818	-29794.3	0.000000	0.000000	6.582999	-0.003869	NaN	0.000000	0.001545	0.001616	28.0926	0.056269	0.002041	27.5649	-16.992	-165.803	0.049365	0.581790	-0.517236	-0.518565	-0.003869	27.5649	-0.517131	-5.93856e+06	6.514422E-10	NaN
17	1.000000	0.593113	7.36521e+06	-39489.1	955.818	-29794.3	0.000000	0.000000	6.592990	-0.071597	NaN	0.000000	0.001521	0.001593	28.0791	0.038842	0.001968	19.7329	-120.396	11.6137	-0.085854	0.591791	-0.507243	-0.508564	-0.071597	19.7329	-0.504522	-3.96348e+06	1.806420E-8	NaN
17	1.000000	0.603123	7.36521e+06	-39489.1	955.818	-29794.3	0.000000	0.000000	6.603000	-0.069225	NaN	0.000000	0.001535	0.001643	28.1031	0.021993	0.002021	10.8809	-129.776	-166.07	-0.089451	0.601774	-0.497232	-0.498582	-0.069225	10.8809	-0.492461	-2.69013e+06	2.573302E-8	NaN
17	1.000000	0.613099	7.36521e+06	-39489.1	955.818	-29794.3	0.000000	0.000000	6.612977	-0.036883	NaN	0.000000	0.001540	0.001616	28.1321	0.068304	0.002030	33.6433	-110.252	14.4585	0.026348	0.611745	-0.487257	-0.488611	-0.036883	33.6433	-0.486435	-2.21593e+06	1.664470E-8	NaN
17	1.000000	0.623116	7.36521e+06	-39489.1	955.818	-29794.3	0.000000	0.000000	6.622993	-0.056140	NaN	0.000000	0.001534	0.001588	28.0943	0.106292	0.001767	60.1598	21.7967	-166.188	-0.060190	0.621877	-0.477240	-0.478479	-0.056140	60.1598	-0.476540	-1.61092e+06	3.484940E-8	NaN
17	1.000000	0.633111	7.36521e+06	-39489.1	955.819	-29794.3	0.000000	0.000000	6.632988	-0.053782	NaN	0.000000	0.001483	0.001567	28.0815	0.032918	0.001971	16.7027	86.9088	11.383	-0.052950	0.631769	-0.467245	-0.468587	-0.053782	16.7027	-0.464830	-1.10373e+06	4.872790E-8	NaN
17	1.000000	0.643126	7.36521e+06	-39489.1	955.819	-29794.3	0.000000	0.000000	6.643009	0.059793	NaN	0.000000	0.001492	0.001608	28.1038	0.094216	0.002153	43.7567	-46.406	-162.127	0.083468	0.641757	-0.457229	-0.458599	0.059793	43.7567	-0.458254	-892235	-6.701480E-8	NaN
17	1.000000	0.653141	7.36521e+06	-39489.1	955.818	-29794.3	0.000000	0.000000	6.653019	-0.037459	NaN	0.000000	0.001527	0.001599	28.1327	0.086802	0.002109	41.1529	-165.753	16.1559	0.016479	0.651801	-0.447215	-0.448555	-0.037459	41.1529	-0.446532	-610228	6.138545E-8	NaN
17	1.000000	0.663132	7.36521e+06	-39489.1	955.818	-29794.3	0.000000	0.000000	6.663013	0.020617	NaN	0.000000	0.001549	0.001594	28.0929	0.058802	0.001940	30.312	-114.842	-165.69	-0.070398	0.661841	-0.437224	-0.438514	0.020617	30.312	-0.437734	-458533	-4.496262E-8	NaN
17	1.000000	0.673149	7.36521e+06	-39489.1	955.819	-29794.3	0.000000	0.000000	6.673027	-0.055572	NaN	0.000000	0.001573	0.001622	28.0805	0.103039	0.001900	54.2398	-125.593	15.1951	-0.048303	0.671754	-0.427207	-0.428602	-0.055572	54.2398	-0.426438	-317431	1.750685E-7	NaN
17	1.000000	0.683115	7.36521e+06	-39489.1	955.818	-29794.3	0.000000	0.000000	6.682995	-0.011329	NaN	0.000000	0.001539	0.001667	28.1022	0.038244	0.002150	17.7887	44.0136	-164.109	-0.041263	0.681863	-0.417240	-0.418493	-0.011329	17.7887	-0.416763	-231464	4.894432E-8	NaN
17	1.000000	0.693147	7.36521e+06	-39489.1	955.818	-29794.3	0.000000	0.000000	6.693024	-0.055730	NaN	0.000000	0.001528	0.001644	28.132	0.115813	0.002099	55.1764	162.241	14.6785	0.009412	0.691747	-0.407209	-0.408609	-0.055730	55.1764	-0.406452	-165164	3.374237E-7	NaN
17	1.000000	0.703152	7.36521e+06	-39489.1	955.819	-29794.3	0.000000	0.000000	6.703032	0.019680	NaN	0.000000	0.001560	0.001623	28.0948	0.082721	0.001994	41.4803	100.79	-170.061	-0.044739	0.701843	-0.397204	-0.398513	0.019680	41.4803	-0.397560	-123362	-1.595305E-7	NaN
17	1.000000	0.713148	7.36521e+06	-39489.1	955.819	-29794.3	0.000000	0.000000	6.713027	-0.009952	NaN	0.000000	0.001570	0.001659	28.0829	0.091499	0.002030	45.0801	111.59	14.4807	-0.116371	0.711801	-0.387208	-0.388555	-0.009952	45.0801	-0.387042	-87263.8	1.140418E-7	NaN
17	1.000000	0.723169	7.36521e+06	-39489.1	955.819	-29794.3	0.000000	0.000000	6.723046	-0.069553	NaN	0.000000	0.001539	0.001655	28.1037	0.080610	0.001904	42.3299	-9.318493	-163.373	-0.021498	0.721821	-0.377187	-0.378534	-0.069553	42.3299	-0.375955	-60505	1.149548E-6	NaN
17	1.000000	0.733194	7.36521e+06	-39489.1	955.818	-29794.3	0.000000	0.000000	6.733074	0.002095	NaN	0.000000	0.001552	0.001642	28.1321	0.016515	0.001928	8.564049	97.1687	15.5022	-0.009772	0.731806	-0.367162	-0.368550	0.002095	8.564049	-0.367345	-45485.5	-4.606764E-8	NaN
17	1.000000	0.743147	7.36521e+06	-39489.1	955.817	-29794.3	0.000000	0.000000	6.743024	-0.062758	NaN	0.000000	0.001498	0.001641	28.0929	0.016187	0.002095	7.725744	37.9066	-163.815	-0.016120	0.741864	-0.357209	-0.358492	-0.062758	7.725744	-0.351116	-26497.3	2.368446E-6	NaN
17	1.000000	0.753197	7.36521e+06	-39489.1	955.819	-29794.3	0.000000	0.000000	6.753075	-0.046183	NaN	0.000000	0.001531	0.001648	28.0805	0.073328	0.001864	39.3368	-36.0527	12.3628	-0.028937	0.751794	-0.347159	-0.348562	-0.046183	39.3368	-0.346278	-22539.4	2.049007E-6	NaN
17	1.000000	0.763181	7.36521e+06	-39489.1	955.817	-29794.3	0.000000	0.000000	6.763059	-0.045775	NaN	0.000000	0.001533	0.001664	28.1011	0.073324	0.002086	35.1455	61.8396	-168.204	-0.064629	0.761914	-0.337175	-0.338441	-0.045775	35.1455	-0.336198	-16072.6	2.848021E-6	NaN
17	1.000000	0.773174	7.36521e+06	-39489.1	955.818	-29794.3	0.000000	0.000000	6.773052	-0.038439	NaN	0.000000	0.001514	0.001651	28.1305	0.047646	0.002123	22.4413	46.0223	15.8553	0.010240	0.771826	-0.327182	-0.328529	-0.038439	22.4413	-0.325897	-11358	3.384328E-6	NaN
17	1.000000	0.783205	7.36521e+06	-39489.1	955.819	-29794.3	0.000000	0.000000	6.783084	-0.019552	NaN	0.000000	0.001497	0.001627	28.0946	0.065911	0.001935	34.0557	-122.55	-166.966	-0.047045	0.781855	-0.317150	-0.318501	-0.019552	34.0557	-0.316720	-8323.7	2.348932E-6	NaN
17	1.000000	0.793211	7.36521e+06	-39489.1	955.818	-29794.3	0.000000	0.000000	6.793093	0.044199	NaN	0.000000	0.001520	0.001636	28.081	0.142719	0.002138	66.7597	-175.895	13.4793	-0.016178	0.791798	-0.307145	-0.308558	0.044199	66.7597	-0.307641	-6111.16	-7.232471E-6	NaN
17	1.000000	0.803207	7.36521e+06	-39489.1	955.817	-29794.3	0.000000	0.000000	6.803085	-0.045350	NaN	0.000000	0.001523	0.001662	28.1017	0.041129	0.001997	20.5948	111.859	-169.572	-0.012930	0.801949	-0.297148	-0.298406	-0.045350	20.5948	-0.295497	-4031.88	1.124789E-5	NaN
17	1.000000	0.813204	7.36521e+06	-39489.1	955.818	-29794.3	0.000000	0.000000	6.813084	-0.013019	NaN	0.000000	0.001531	0.001671	28.1318	0.066654	0.001972	33.7985	61.983	14.1702	-0.024131	0.811849	-0.287151	-0.288506	-0.013019	33.7985	-0.286862	-2993.96	4.348338E-6	NaN
17	1.000000	0.823224	7.36521e+06	-39489.1	955.819	-29794.3	0.000000	0.000000	6.823104	0.021887	NaN	0.000000	0.001502	0.001663	28.0935	0.098918	0.001925	51.3959	111.53	-166.654	0.012794	0.821863	-0.277132	-0.278493	0.021887	51.3959	-0.277451	-2160.16	-1.013206E-5	NaN
17	1.000000	0.833222	7.36521e+06	-39489.1	955.817	-29794.3	0.000000	0.000000	6.833102	0.006522	NaN	0.000000	0.001519	0.001673	28.0799	0.068579	0.001956	35.0593	-68.4179	13.1972	-0.002306	0.831855	-0.267133	-0.268500	0.006522	35.0593	-0.267273	-1513.72	-4.308487E-6	NaN
17	1.000000	0.843221	7.36521e+06	-39489.1	955.818	-29794.3	0.000000	0.000000	6.843099	-0.041797	NaN	0.000000	0.001460	0.001656	28.1006	0.031060	0.001968	15.7797	96.5771	-165.91	0.026428	0.841923	-0.257134	-0.258432	-0.041797	15.7797	-0.255148	-987.168	4.234008E-5	NaN
17	1.000000	0.853237	7.36521e+06	-39489.1	955.818	-29794.3	0.000000	0.000000	6.853112	-0.116107	NaN	0.000000	0.001511	0.001653	28.1306	0.034049	0.002075	16.4055	165.809	14.3587	-0.087596	0.851872	-0.247119	-0.248484	-0.116107	16.4055	-0.241811	-613.499	0.000189	NaN
17	1.000000	0.863204	7.36521e+06	-39489.1	955.818	-29794.3	0.000000	0.000000	6.863083	-0.018129	NaN	0.000000	0.001527	0.001661	28.0946	0.046802	0.002131	21.963	17.203	-168.253	-0.026675	0.861906	-0.237152	-0.238450	-0.018129	21.963	-0.236533	-507.339	3.573405E-5	NaN
17	1.000000	0.873218	7.36521e+06	-39489.1	955.819	-29794.3	0.000000	0.000000	6.873095	-0.071723	NaN	0.000000	0.001515	0.001647	28.0813	0.037016	0.002082	17.7783	36.4874	9.467787	-0.004286	0.871852	-0.227138	-0.228504	-0.071723	17.7783	-0.224112	-323.013	0.000222	NaN
17	1.000000	0.883217	7.36521e+06	-39489.1	955.818	-29794.3	0.000000	0.000000	6.883095	-0.038741	NaN	0.000000	0.001523	0.001662	28.1022	0.073283	0.002013	36.4113	-127.751	-166.688	-0.125082	0.881929	-0.217139	-0.218426	-0.038741	36.4113	-0.216341	-242.693	0.000160	NaN
17	1.000000	0.893209	7.36521e+06	-39489.1	955.818	-29794.3	0.000000	0.000000	6.893089	0.002720	NaN	0.000000	0.001534	0.001652	28.133	0.004178	0.001877	2.226377	-0.898739	8.894703	-0.051752	0.891844	-0.207146	-0.208512	0.002720	2.226377	-0.208063	-178.404	-1.524770E-5	NaN
17	1.000000	0.903246	7.36521e+06	-39489.1	955.818	-29794.3	0.000000	0.000000	6.903124	-0.023452	NaN	0.000000	0.001553	0.001670	28.0949	0.080003	0.001842	43.4245	-140.578	-167.333	-0.023031	0.901878	-0.197110	-0.198477	-0.023452	43.4245	-0.196705	-116.254	0.000202	NaN
17	1.000000	0.913223	7.36521e+06	-39489.1	955.819	-29794.3	0.000000	0.000000	6.913099	-0.100905	NaN	0.000000	0.001557	0.001679	28.0812	0.094198	0.002056	45.8119	-104.995	12.6884	-0.121971	0.911909	-0.187133	-0.188446	-0.100905	45.8119	-0.185481	-75.549	0.001336	NaN
17	1.000000	0.923254	7.36521e+06	-39489.1	955.817	-29794.3	0.000000	0.000000	6.923131	-0.047387	NaN	0.000000	0.001529	0.001663	28.1001	0.052948	0.001991	26.5949	-165.661	-166.342	-0.026972	0.921955	-0.177102	-0.178401	-0.047387	26.5949	-0.175766	-51.6567	0.000917	NaN
17	1.000000	0.933244	7.36521e+06	-39489.1	955.818	-29794.3	0.000000	0.000000	6.933123	-0.031515	NaN	0.000000	0.001528	0.001678	28.1319	0.035890	0.001993	18.0075	14.1102	12.4648	0.030496	0.931889	-0.167112	-0.168466	-0.031515	18.0075	-0.165799	-34.6995	0.000908	NaN
17	1.000000	0.943261	7.36521e+06	-39489.1	955.818	-29794.3	0.000000	0.000000	6.943140	-0.012652	NaN	0.000000	0.001519	0.001640	28.0968	0.042609	0.002102	20.2735	71.6252	-164.631	-0.108984	0.941998	-0.157095	-0.158358	-0.012652	20.2735	-0.156627	-23.8669	0.000530	NaN
17	1.000000	0.953269	7.36521e+06	-39489.1	955.818	-29794.3	0.000000	0.000000	6.953148	-0.010066	NaN	0.000000	0.001508	0.001669	28.0821	0.050757	0.002129	23.8385	161.066	12.7212	0.009198	0.951908	-0.147087	-0.148448	-0.010066	23.8385	-0.146770	-15.8064	0.000637	NaN
17	1.000000	0.963282	7.36521e+06	-39489.1	955.818	-29794.3	0.000000	0.000000	6.963164	0.032932	NaN	0.000000	0.001465	0.001639	28.1018	0.015931	0.001981	8.040149	-94.3992	-165.915	0.081667	0.961942	-0.137073	-0.138413	0.032932	8.040149	-0.140145	-11.904	-0.002766	NaN
17	1.000000	0.973281	7.36521e+06	-39489.1	955.818	-29794.3	0.000000	0.000000	6.973158	-0.059326	NaN	0.000000	0.001485	0.001625	28.1333	0.044047	0.001956	22.5209	-43.4768	10.819	-0.017352	0.971890	-0.127075	-0.128466	-0.059326	22.5209	-0.125099	-6.108836	0.009711	NaN
17	1.000000	0.983256	7.36521e+06	-39489.1	955.818	-29794.3	0.000000	0.000000	6.983135	-0.013494	NaN	0.000000	0.001528	0.001650	28.0945	0.116002	0.002144	54.0938	80.7867	-165.578	-0.036357	0.981930	-0.117100	-0.118426	-0.013494	54.0938	-0.116913	-4.181855	0.003227	NaN
17	1.000000	0.993280	7.36521e+06	-39489.1	955.818	-29794.3	0.000000	0.000000	6.993157	-0.070345	NaN	0.000000	0.001538	0.001642	28.0821	0.086286	0.002030	42.5058	-113.585	16.1415	-0.026193	0.991926	-0.107075	-0.108430	-0.070345	42.5058	-0.105834	-2.449928	0.028713	NaN
17	1.000000	1.003251	7.36521e+06	-39489.1	955.817	-29794.3	0.000000	0.000000	7.003131	-0.011026	NaN	0.000000	0.001526	0.001615	28.1	0.016049	0.001973	8.135892	66.1747	-164.893	-0.010564	1.002026	-0.097104	-0.098330	-0.011026	8.135892	-0.096088	-1.493241	0.007384	NaN
17	1.000000	1.013270	7.36521e+06	-39489.1	955.816	-29794.3	0.000000	0.000000	7.013148	-0.043756	NaN	0.000000	0.001572	0.001635	28.1313	0.021299	0.001954	10.8991	-78.5272	17.5698	-0.027951	1.011896	-0.087085	-0.088460	-0.043756	10.8991	-0.084074	-0.780201	0.056083	NaN
17	1.000000	1.023299	7.36521e+06	-39489.1	955.818	-29794.3	0.000000	0.000000	7.023179	0.009551	NaN	0.000000	0.001551	0.001662	28.0948	0.123255	0.002006	61.4313	116.888	-165.993	-0.079428	1.021983	-0.077057	-0.078372	0.009551	61.4313	-0.077173	-0.525204	-0.018185	NaN
17	1.000000	1.033298	7.36521e+06	-39489.1	955.818	-29794.3	0.000000	0.000000	7.033180	0.047586	NaN	0.000000	0.001539	0.001708	28.0818	0.087492	0.002047	42.7399	-101.509	13.5145	-0.034898	1.031933	-0.067058	-0.068423	0.047586	42.7399	-0.067893	-0.299239	-0.159025	NaN
17	1.000000	1.043279	7.36521e+06	-39489.1	955.817	-29794.3	0.000000	0.000000	7.043156	-0.070710	NaN	0.000000	0.001509	0.001686	28.1006	0.079183	0.001995	39.682	60.5209	-165.843	-0.044385	1.041936	-0.057076	-0.058420	-0.070710	39.682	-0.055740	-0.135416	0.522168	NaN
17	1.000000	1.053295	7.36521e+06	-39489.1	955.817	-29794.3	0.000000	0.000000	7.053173	-0.030465	NaN	0.000000	0.001515	0.001601	28.1323	0.068456	0.002006	34.1174	-24.6833	12.5582	-0.063703	1.051926	-0.047061	-0.048430	-0.030465	34.1174	-0.046391	-0.070879	0.429811	NaN
17	1.000000	1.063306	7.36521e+06	-39489.1	955.817	-29794.3	0.000000	0.000000	7.063186	0.015090	NaN	0.000000	0.001550	0.001682	28.0939	0.156213	0.002073	75.3524	-36.9327	-165.326	0.035919	1.061983	-0.037050	-0.038372	0.015090	75.3524	-0.037200	-0.037227	-0.405367	NaN
17	1.000000	1.073316	7.36521e+06	-39489.1	955.818	-29794.3	0.000000	0.000000	7.073196	0.015973	NaN	0.000000	0.001497	0.001680	28.0788	0.039359	0.001949	20.1926	34.0365	13.3333	0.030991	1.071926	-0.027040	-0.028430	0.015973	20.1926	-0.027633	-0.019817	-0.806049	NaN
17	1.000000	1.083306	7.36521e+06	-39489.1	955.818	-29794.3	0.000000	0.000000	7.083181	-0.106577	NaN	0.000000	0.001548	0.001636	28.0993	0.083963	0.002022	41.5191	108.677	-168.54	0.016693	1.082023	-0.017050	-0.018333	-0.106577	41.5191	-0.015125	-0.009350	11.3983	NaN
17	1.000000	1.093300	7.36521e+06	-39489.1	955.818	-29794.3	0.000000	0.000000	7.093177	-0.060959	NaN	0.000000	0.001523	0.001647	28.1311	0.065839	0.002040	32.271	65.3535	15.9437	-0.047012	1.091913	-0.007056	-0.008442	-0.060959	32.271	-0.005639	-0.003815	15.9798	NaN
17	1.000000	1.103286	7.36521e+06	-39489.1	955.818	-29794.3	0.000000	0.000000	7.103271	2.567688	NaN	0.000000	0.001512	0.001666	28.0947	3.318111	0.001909	1738.14	9.560413	-173.036	1.004902	1.102000	0.002930	0.001644	2.567688	1738.14	0.001822	0.001412	1819.01	42267.2
17	2.000000	1.110372	7.36521e+06	-39489.1	955.817	-29794.3	0.000000	0.000000	7.110645	9.566338	NaN	0.000000	0.001510	0.001683	28.0811	9.938339	0.001577	6301.17	10.0666	3.332813	9.170191	1.110054	0.010016	0.009698	9.566338	6301.17	0.008878	0.007961	1201.68	64523.1
17	2.000000	1.112805	7.36521e+06	-39489.1	955.818	-29794.3	0.000000	0.000000	7.113298	14.9255	NaN	0.000000	0.001498	0.001652	28.0994	13.1956	0.001701	7758.94	6.785879	-175.478	13.613	1.112516	0.012449	0.012160	14.9255	7758.94	0.011006	0.010321	1446.07	69775.8
17	2.000000	1.115318	7.36521e+06	-39489.1	955.817	-29794.3	0.000000	0.000000	7.116027	20.162	NaN	0.000000	0.001534	0.001650	28.1322	15.3044	0.001692	9046.23	8.010170	3.519086	18.2801	1.114922	0.014963	0.014567	20.162	9046.23	0.013291	0.013074	1542.18	72283.9
17	2.000000	1.117819	7.36521e+06	-39489.1	955.817	-29794.3	0.000000	0.000000	7.118787	26.4702	NaN	0.000000	0.001539	0.001635	28.0959	18.3325	0.001660	11043.8	13.6668	178.058	28.5111	1.117497	0.017464	0.017141	26.4702	11043.8	0.015666	0.016184	1635.62	79314.9
17	2.000000	1.120324	7.36521e+06	-39489.1	955.818	-29794.3	0.000000	0.000000	7.121251	25.474	NaN	0.000000	0.001529	0.001636	28.082	19.7643	0.001920	10294.5	4.560014	6.068390	25.3555	1.119969	0.019969	0.019613	25.474	10294.5	0.018113	0.019663	1295.52	67073.9
17	2.000000	1.122769	7.36521e+06	-39489.1	955.817	-29794.3	0.000000	0.000000	7.124052	34.1445	NaN	0.000000	0.001531	0.001713	28.0997	21.885	0.001750	12505.3	3.983436	-175.816	33.6948	1.122467	0.022414	0.022111	34.1445	12505.3	0.020366	0.023120	1476.81	75139.6
17	2.000000	1.125326	7.36521e+06	-39489.1	955.818	-29794.3	0.000000	0.000000	7.126711	36.6155	NaN	0.000000	0.001519	0.001687	28.1335	24.5584	0.001731	14188.3	7.547586	-0.862965	36.1636	1.124869	0.024970	0.024514	36.6155	14188.3	0.023035	0.027537	1329.66	78116.3
17	2.000000	1.127755	7.36521e+06	-39489.1	955.818	-29794.3	0.000000	0.000000	7.129565	46.9865	NaN	0.000000	0.001550	0.001720	28.0972	27.3463	0.001888	14481.4	5.278673	-179.359	45.9442	1.127404	0.027399	0.027049	46.9865	14481.4	0.024966	0.030953	1517.97	75201.8
17	2.000000	1.130308	7.36521e+06	-39489.1	955.818	-29794.3	0.000000	0.000000	7.131963	43.2213	NaN	0.000000	0.001542	0.001745	28.0801	29.2569	0.001906	15346.4	7.597260	-1.729916	43.986	1.129935	0.029952	0.029579	43.2213	15346.4	0.027840	0.036385	1187.89	73505.2
17	2.000000	1.132782	7.36521e+06	-39489.1	955.818	-29794.3	0.000000	0.000000	7.134855	53.3686	NaN	0.000000	0.001547	0.001707	28.1015	31.623	0.001919	16482.9	4.778952	-179.362	54.2964	1.132420	0.032427	0.032064	53.3686	16482.9	0.029998	0.040740	1309.97	74609.7
17	2.000000	1.135267	7.36521e+06	-39489.1	955.818	-29794.3	0.000000	0.000000	7.137430	55.5516	NaN	0.000000	0.001535	0.001687	28.1336	33.5845	0.001884	17830.1	6.491304	-2.512925	53.9679	1.134932	0.034911	0.034577	55.5516	17830.1	0.032575	0.046249	1201.14	75748.7
17	2.000000	1.137755	7.36521e+06	-39489.1	955.818	-29794.3	0.000000	0.000000	7.140178	61.8804	NaN	0.000000	0.001547	0.001737	28.0966	35.0828	0.001880	18659	3.778574	179.816	61.1944	1.137428	0.037399	0.037072	61.8804	18659	0.034912	0.051542	1200.59	75090.2
17	2.000000	1.140285	7.36521e+06	-39489.1	955.818	-29794.3	0.000000	0.000000	7.142903	66.6253	NaN	0.000000	0.001539	0.001736	28.0808	36.8186	0.001693	21745.3	6.501251	-4.371900	68.0835	1.139945	0.039929	0.039589	66.6253	21745.3	0.037631	0.058050	1147.71	82458.5
17	2.000000	1.142709	7.36521e+06	-39489.1	955.818	-29794.3	0.000000	0.000000	7.145912	80.8742	NaN	0.000000	0.001520	0.001739	28.0994	40.4548	0.001895	21350.6	5.263374	176.764	78.4981	1.142417	0.042353	0.042062	80.8742	21350.6	0.039512	0.062773	1288.36	77856.8
17	2.000000	1.145194	7.36521e+06	-39489.1	955.819	-29794.3	0.000000	0.000000	7.148761	89.7387	NaN	0.000000	0.001510	0.001720	28.1325	41.0261	0.001743	23541.4	6.534576	-4.825845	87.1606	1.144831	0.044838	0.044476	89.7387	23541.4	0.041979	0.069243	1296	81736.9
17	2.000000	1.147717	7.36521e+06	-39489.1	955.818	-29794.3	0.000000	0.000000	7.151704	99.932	NaN	0.000000	0.001503	0.001730	28.0977	42.8209	0.001707	25088.6	3.667804	177.112	98.2643	1.147322	0.047362	0.046966	99.932	25088.6	0.044374	0.075821	1317.99	83244.3
17	2.000000	1.150167	7.36521e+06	-39489.1	955.818	-29794.3	0.000000	0.000000	7.154504	108.478	NaN	0.000000	0.001485	0.001688	28.0817	46.557	0.001827	25483.2	5.998064	-5.546206	105.021	1.149832	0.049811	0.049477	108.478	25483.2	0.046619	0.082249	1318.9	81182.3
17	2.000000	1.152672	7.36521e+06	-39489.1	955.817	-29794.3	0.000000	0.000000	7.157470	119.677	NaN	0.000000	0.001526	0.001752	28.0993	48.1751	0.001789	26927.9	3.907707	176.936	118.076	1.152395	0.052316	0.052039	119.677	26927.9	0.048983	0.089296	1340.23	82330.5
17	2.000000	1.155250	7.36521e+06	-39489.1	955.816	-29794.3	0.000000	0.000000	7.160275	125.208	NaN	0.000000	0.001503	0.001778	28.1323	50.7509	0.001859	27298.3	7.456412	-6.031282	125.639	1.154807	0.054894	0.054452	125.208	27298.3	0.051454	0.096960	1291.34	80096.2
17	2.000000	1.157716	7.36521e+06	-39489.1	955.818	-29794.3	0.000000	0.000000	7.163288	138.501	NaN	0.000000	0.001520	0.001692	28.097	52.114	0.001822	28596.9	4.758119	175.126	137.965	1.157360	0.057361	0.057005	138.501	28596.9	0.053728	0.104284	1328.11	80906.3
17	2.000000	1.160207	7.36521e+06	-39489.1	955.818	-29794.3	0.000000	0.000000	7.166343	152.256	NaN	0.000000	0.001541	0.001688	28.0788	55.119	0.001732	31821.5	6.634970	-7.261529	149.433	1.159828	0.059851	0.059472	152.256	31821.5	0.056262	0.112748	1350.41	86584.4
17	2.000000	1.162681	7.36521e+06	-39489.1	955.818	-29794.3	0.000000	0.000000	7.169106	159.262	NaN	0.000000	0.001496	0.001731	28.0986	57.4284	0.001836	31282.8	5.974088	174.097	157.785	1.162489	0.062326	0.062133	159.262	31282.8	0.058507	0.120511	1321.56	82331.5
17	2.000000	1.165201	7.36521e+06	-39489.1	955.818	-29794.3	0.000000	0.000000	7.172287	175.368	NaN	0.000000	0.001459	0.001738	28.131	59.085	0.001878	31461	5.245153	-5.145762	173.256	1.164775	0.064845	0.064419	175.368	31461	0.060664	0.128201	1367.91	80278.5
17	2.000000	1.167663	7.36521e+06	-39489.1	955.819	-29794.3	0.000000	0.000000	7.175035	182.327	NaN	0.000000	0.001581	0.001730	28.0969	61.0387	0.001823	33480.7	6.407405	172.401	180.511	1.167372	0.067307	0.067016	182.327	33480.7	0.063223	0.137619	1324.87	82457.2
17	2.000000	1.170122	7.36521e+06	-39489.1	955.818	-29794.3	0.000000	0.000000	7.178058	196.04	NaN	0.000000	0.001557	0.001704	28.0805	63.6856	0.001752	36359	8.028919	-9.442982	191.166	1.169696	0.069767	0.069341	196.04	36359	0.065723	0.147125	1332.47	86604.6
17	2.000000	1.172685	7.36521e+06	-39489.1	955.818	-29794.3	0.000000	0.000000	7.181421	215.516	NaN	0.000000	0.001596	0.001735	28.0981	67.14	0.001760	38138.8	7.299617	170.243	213.074	1.172418	0.072329	0.072063	215.516	38138.8	0.068091	0.156409	1377.9	88106.8
17	2.000000	1.175165	7.36521e+06	-39489.1	955.819	-29794.3	0.000000	0.000000	7.184178	222.272	NaN	0.000000	0.001582	0.001757	28.1322	68.1849	0.001730	39419.5	2.982664	-4.989610	218.35	1.174916	0.074809	0.074561	222.272	39419.5	0.070580	0.166455	1335.32	88274.4
17	2.000000	1.177625	7.36521e+06	-39489.1	955.818	-29794.3	0.000000	0.000000	7.187293	238.189	NaN	0.000000	0.001613	0.001708	28.0962	70.2986	0.001891	37168.5	2.473770	175.946	234.787	1.177303	0.077269	0.076948	238.189	37168.5	0.072463	0.174251	1366.93	81350.4
17	2.000000	1.180173	7.36521e+06	-39489.1	955.818	-29794.3	0.000000	0.000000	7.190474	253.595	NaN	0.000000	0.001562	0.001746	28.0791	73.4472	0.001789	41056.6	4.095421	-6.324435	251.976	1.179742	0.079818	0.079387	253.595	41056.6	0.075185	0.185818	1364.75	87018.6
17	2.000000	1.182669	7.36521e+06	-39489.1	955.819	-29794.3	0.000000	0.000000	7.193511	266.772	NaN	0.000000	0.001507	0.001720	28.0972	77.0978	0.001869	41242.5	4.629363	172.853	266.579	1.182355	0.082313	0.082000	266.772	41242.5	0.077462	0.195759	1362.75	85164.2
17	2.000000	1.185184	7.36521e+06	-39489.1	955.818	-29794.3	0.000000	0.000000	7.196672	282.48	NaN	0.000000	0.001500	0.001744	28.1318	77.9575	0.001831	42583.3	4.820120	-7.324080	280.635	1.184911	0.084829	0.084555	282.48	42583.3	0.079853	0.206464	1368.18	85622.9
17	2.000000	1.187641	7.36521e+06	-39489.1	955.818	-29794.3	0.000000	0.000000	7.199910	301.495	NaN	0.000000	0.001517	0.001719	28.0985	79.0753	0.001754	45086.9	3.107852	173.457	298.236	1.187334	0.087286	0.086978	301.495	45086.9	0.082270	0.217552	1385.85	88316.4
17	2.000000	1.190158	7.36521e+06	-39489.1	955.818	-29794.3	0.000000	0.000000	7.203244	321.367	NaN	0.000000	0.001508	0.001721	28.0811	81.2888	0.001787	45477.7	1.619831	-4.540337	317.071	1.189780	0.089803	0.089424	321.367	45477.7	0.084503	0.228036	1409.28	87010.1
17	2.000000	1.192682	7.36521e+06	-39489.1	955.818	-29794.3	0.000000	0.000000	7.206455	338.087	NaN	0.000000	0.001483	0.001711	28.1003	84.755	0.001770	47896.6	4.862136	171.265	337.958	1.192412	0.092327	0.092056	338.087	47896.6	0.087033	0.240194	1407.56	89288.8
17	2.000000	1.195180	7.36521e+06	-39489.1	955.818	-29794.3	0.000000	0.000000	7.209697	356.205	NaN	0.000000	0.001505	0.001712	28.1333	86.1223	0.001717	50172.7	3.876865	-7.448935	353.913	1.194734	0.094824	0.094379	356.205	50172.7	0.089499	0.252331	1411.65	91254.6
17	2.000000	1.197692	7.36521e+06	-39489.1	955.818	-29794.3	0.000000	0.000000	7.213030	376.18	NaN	0.000000	0.001518	0.001730	28.0974	88.5086	0.001602	55257.2	7.797853	167.82	376.756	1.197241	0.097336	0.096886	376.18	55257.2	0.092230	0.266095	1413.7	97868.5
17	2.000000	1.200148	7.36521e+06	-39489.1	955.817	-29794.3	0.000000	0.000000	7.216011	388.94	NaN	0.000000	0.001515	0.001710	28.0795	92.139	0.001785	51610.3	4.504458	-9.015888	385.334	1.199789	0.099792	0.099433	388.94	51610.3	0.094140	0.275926	1409.58	89766.3
17	2.000000	1.202642	7.36521e+06	-39489.1	955.818	-29794.3	0.000000	0.000000	7.219155	404.76	NaN	0.000000	0.001526	0.001756	28.0987	94.8825	0.001717	55252.7	4.578962	170.673	404.69	1.202367	0.102287	0.102011	404.76	55252.7	0.096792	0.289850	1396.45	93764.8
17	2.000000	1.205240	7.36521e+06	-39489.1	955.819	-29794.3	0.000000	0.000000	7.222760	429.25	NaN	0.000000	0.001557	0.001761	28.1322	97.301	0.001805	53898.5	9.475882	-13.4989	430.042	1.204566	0.104885	0.104210	429.25	53898.5	0.098912	0.301207	1425.1	89725.8
17	2.000000	1.207558	7.36521e+06	-39489.1	955.82	-29794.3	0.000000	0.000000	7.225821	447.361	NaN	0.000000	0.001541	0.001709	28.0993	97.5006	0.001693	57583.8	4.627571	170.174	442.164	1.207396	0.107202	0.107040	447.361	57583.8	0.101375	0.314666	1421.7	93788.2