File: remote_trans/data/nanoindenter/0828-1/data/Data_2025-08-06,11h17m57s/2025-07-22_16-23-58_1_528.txt
2025-07-22, 16:23:58, 1
Index	Phase	Displacement	Time	Pos X	Pos Y	Pos Z	Rot A	Rot B	Piezo Z	Force A	Force B	Gripper	Voltage A	Voltage B	Temperature	Amplitude force	Amplitude pos	Stiffness	Phase shift	Phase excitation	Force A raw	Displacement raw	HMax	HMax raw	Real Force	Real Stiffness	Contact Depth	Area	Hardness	Reduced Mod.
[#]	[#]	[um]	[s]	[um]	[um]	[um]	[m°]	[m°]	[um]	[uN]	[uN]	[V]	[V]	[V]	[°C]	[uN]	[um]	[N/m]	[°]	[°]	[uN]	[um]	[um]	[um]	[uN]	[N/m]	[um]	[um^2]	[MPa]	[MPa]
528	1.000000	0.002657	7.37021e+06	-50689.1	1005.82	-29754.8	0.000000	0.000000	6.002780	-0.041474	NaN	0.000000	0.001673	0.001780	28.0809	0.073056	0.000913	79.9956	-134.493	-162.217	-0.018014	0.001403	-1.119762	-1.121016	-0.041474	79.9956	-1.119373	-9.121497E+14	4.546886E-17	NaN
528	1.000000	0.012768	7.37021e+06	-50689.1	1005.82	-29754.8	0.000000	0.000000	6.012893	-0.004131	NaN	0.000000	0.001639	0.001767	28.0816	0.100860	0.001377	73.2536	78.2204	18.4973	0.083255	0.011261	-1.109651	-1.111158	-0.004131	73.2536	-1.109609	-6.745914E+14	6.123573E-18	NaN
528	1.000000	0.022620	7.37021e+06	-50689.1	1005.82	-29754.8	0.000000	0.000000	6.022746	0.017122	NaN	0.000000	0.001668	0.001767	28.0818	0.096087	0.001653	58.1425	-13.6787	-164.154	0.014614	0.021347	-1.099799	-1.101072	0.017122	58.1425	-1.100020	-5.015768E+14	-3.413577E-17	NaN
528	1.000000	0.032620	7.37021e+06	-50689.1	1005.82	-29754.8	0.000000	0.000000	6.032746	0.032040	NaN	0.000000	0.001680	0.001789	28.082	0.088543	0.001845	47.9784	-72.5539	13.8239	0.008755	0.031217	-1.089799	-1.091202	0.032040	47.9784	-1.090300	-3.714007E+14	-8.626791E-17	NaN
528	1.000000	0.042644	7.37021e+06	-50689.1	1005.82	-29754.8	0.000000	0.000000	6.042773	0.089255	NaN	0.000000	0.001645	0.001761	28.0819	0.045907	0.001839	24.9674	-107.019	-164.227	0.116421	0.041276	-1.079775	-1.081143	0.089255	24.9674	-1.082456	-2.914106E+14	-3.062852E-16	NaN
528	1.000000	0.052646	7.37021e+06	-50689.1	1005.82	-29754.8	0.000000	0.000000	6.052774	0.064283	NaN	0.000000	0.001607	0.001786	28.0819	0.143214	0.001958	73.1367	32.8184	14.1699	0.071343	0.051284	-1.069773	-1.071135	0.064283	73.1367	-1.070432	-2.009075E+14	-3.199650E-16	NaN
528	1.000000	0.062620	7.37021e+06	-50689.1	1005.82	-29754.8	0.000000	0.000000	6.062745	0.009328	NaN	0.000000	0.001640	0.001779	28.0816	0.087088	0.002032	42.8565	106.442	-169.317	0.035777	0.061336	-1.059799	-1.061083	0.009328	42.8565	-1.059963	-1.453177E+14	-6.419348E-17	NaN
528	1.000000	0.072628	7.37021e+06	-50689.1	1005.82	-29754.8	0.000000	0.000000	6.072754	0.019992	NaN	0.000000	0.001646	0.001787	28.0818	0.064956	0.001897	34.2456	-132.661	14.7742	0.050028	0.071241	-1.049792	-1.051179	0.019992	34.2456	-1.050230	-1.075225E+14	-1.859289E-16	NaN
528	1.000000	0.082604	7.37021e+06	-50689.1	1005.82	-29754.8	0.000000	0.000000	6.082728	-0.016594	NaN	0.000000	0.001620	0.001773	28.0819	0.073663	0.001924	38.2875	-47.023	-170.18	0.111363	0.081316	-1.039815	-1.041103	-0.016594	38.2875	-1.039490	-7.711065E+13	2.152030E-16	NaN
528	1.000000	0.092643	7.37021e+06	-50689.1	1005.82	-29754.8	0.000000	0.000000	6.092768	-0.004558	NaN	0.000000	0.001659	0.001749	28.0821	0.058850	0.001927	30.5362	81.1856	11.9331	0.011428	0.091299	-1.029776	-1.031121	-0.004558	30.5362	-1.029665	-5.688116E+13	8.013375E-17	NaN
528	1.000000	0.102627	7.37021e+06	-50689.1	1005.82	-29754.8	0.000000	0.000000	6.102754	0.030517	NaN	0.000000	0.001693	0.001725	28.0819	0.034897	0.001880	18.5628	14.6816	-164.304	0.068595	0.101255	-1.019792	-1.021164	0.030517	18.5628	-1.021025	-4.352525E+13	-7.011299E-16	NaN
528	1.000000	0.112645	7.37021e+06	-50689.1	1005.82	-29754.8	0.000000	0.000000	6.112771	0.016293	NaN	0.000000	0.001590	0.001759	28.082	0.153909	0.001980	77.7417	34.5975	12.736	0.035198	0.111262	-1.009774	-1.011157	0.016293	77.7417	-1.009931	-3.086424E+13	-5.278780E-16	NaN
528	1.000000	0.122648	7.37021e+06	-50689.1	1005.82	-29754.8	0.000000	0.000000	6.122775	0.039932	NaN	0.000000	0.001594	0.001759	28.0832	0.050832	0.001920	26.4801	-46.958	-164.816	0.041438	0.121372	-0.999771	-1.001048	0.039932	26.4801	-1.000902	-2.333009E+13	-1.711629E-15	NaN
528	1.000000	0.132662	7.37021e+06	-50689.1	1005.82	-29754.8	0.000000	0.000000	6.132788	0.004432	NaN	0.000000	0.001593	0.001772	28.0818	0.077873	0.001961	39.7157	-171.011	14.0067	0.089158	0.131289	-0.989757	-0.991130	0.004432	39.7157	-0.989841	-1.655640E+13	-2.677113E-16	NaN
528	1.000000	0.142661	7.37021e+06	-50689.1	1005.82	-29754.8	0.000000	0.000000	6.142789	0.071113	NaN	0.000000	0.001540	0.001672	28.082	0.121406	0.002049	59.2589	77.2531	-165.783	0.126628	0.141355	-0.979758	-0.981064	0.071113	59.2589	-0.980658	-1.245303E+13	-5.710498E-15	NaN
528	1.000000	0.152644	7.37021e+06	-50689.1	1005.82	-29754.8	0.000000	0.000000	6.152767	-0.066293	NaN	0.000000	0.001570	0.001686	28.0806	0.060968	0.002012	30.2999	-166.508	12.2467	-0.010931	0.151269	-0.969775	-0.971150	-0.066293	30.2999	-0.968134	-8.443374E+12	7.851513E-15	NaN
528	1.000000	0.162689	7.37021e+06	-50689.1	1005.82	-29754.8	0.000000	0.000000	6.162817	0.083355	NaN	0.000000	0.001541	0.001663	28.0805	0.101366	0.002071	48.9477	-151.72	-165.272	0.052750	0.161401	-0.959731	-0.961018	0.083355	48.9477	-0.961008	-6.767917E+12	-1.231614E-14	NaN
528	1.000000	0.172689	7.37021e+06	-50689.1	1005.82	-29754.8	0.000000	0.000000	6.172814	-0.002495	NaN	0.000000	0.001592	0.001685	28.0806	0.078160	0.002041	38.3008	-74.337	15.1177	0.088371	0.171282	-0.949730	-0.951137	-0.002495	38.3008	-0.949681	-4.761335E+12	5.240230E-16	NaN
528	1.000000	0.182686	7.37021e+06	-50689.1	1005.82	-29754.8	0.000000	0.000000	6.182811	0.010841	NaN	0.000000	0.001596	0.001710	28.0803	0.052070	0.002165	24.0519	-81.3586	-165.342	0.151419	0.181367	-0.939734	-0.941052	0.010841	24.0519	-0.940072	-3.532668E+12	-3.068650E-15	NaN
528	1.000000	0.192671	7.37021e+06	-50689.1	1005.82	-29754.8	0.000000	0.000000	6.192796	0.001672	NaN	0.000000	0.001538	0.001682	28.081	0.042477	0.001970	21.5586	-123.564	10.89	0.087621	0.191278	-0.929749	-0.931141	0.001672	21.5586	-0.929807	-2.567972E+12	-6.510391E-16	NaN
528	1.000000	0.202666	7.37021e+06	-50689.1	1005.82	-29754.8	0.000000	0.000000	6.202794	0.048913	NaN	0.000000	0.001558	0.001695	28.0808	0.033685	0.002067	16.2988	35.6656	-164.358	0.118314	0.201355	-0.919753	-0.921065	0.048913	16.2988	-0.922004	-2.014914E+12	-2.427531E-14	NaN
528	1.000000	0.212697	7.37021e+06	-50689.1	1005.82	-29754.8	0.000000	0.000000	6.212820	-0.036080	NaN	0.000000	0.001600	0.001722	28.0807	0.061963	0.001987	31.1782	-97.0587	10.9332	-0.051157	0.211315	-0.909722	-0.911104	-0.036080	31.1782	-0.908855	-1.338722E+12	2.695138E-14	NaN
528	1.000000	0.222696	7.37021e+06	-50689.1	1005.82	-29754.8	0.000000	0.000000	6.222821	0.003287	NaN	0.000000	0.001573	0.001716	28.0805	0.134790	0.001893	71.2032	79.8387	-164.238	-0.006634	0.221364	-0.899724	-0.901055	0.003287	71.2032	-0.899758	-1.008785E+12	-3.258414E-15	NaN
528	1.000000	0.232716	7.37021e+06	-50689.1	1005.82	-29754.8	0.000000	0.000000	6.232842	0.024202	NaN	0.000000	0.001586	0.001716	28.081	0.132153	0.002048	64.5176	-22.8501	13.9062	-0.019808	0.231316	-0.889704	-0.891103	0.024202	64.5176	-0.889985	-7.442424E+11	-3.251945E-14	NaN
528	1.000000	0.242684	7.37021e+06	-50689.1	1005.82	-29754.9	0.000000	0.000000	6.242809	-0.001170	NaN	0.000000	0.001581	0.001737	28.0807	0.079117	0.002023	39.109	-122.244	-165.527	0.053662	0.241408	-0.879736	-0.881011	-0.001170	39.109	-0.879713	-5.405425E+11	2.164222E-15	NaN
528	1.000000	0.252712	7.37021e+06	-50689.1	1005.82	-29754.9	0.000000	0.000000	6.252837	-0.014542	NaN	0.000000	0.001594	0.001686	28.0805	0.093748	0.002010	46.6298	47.8586	14.0275	0.101159	0.251371	-0.869707	-0.871048	-0.014542	46.6298	-0.869473	-3.929293E+11	3.700955E-14	NaN
528	1.000000	0.262697	7.37021e+06	-50689.1	1005.82	-29754.9	0.000000	0.000000	6.262826	0.092357	NaN	0.000000	0.001597	0.001731	28.0804	0.160949	0.001996	80.6266	136.123	-169.912	0.074334	0.261388	-0.859722	-0.861032	0.092357	80.6266	-0.860581	-2.978411E+11	-3.100880E-13	NaN
528	1.000000	0.272722	7.37021e+06	-50689.1	1005.82	-29754.9	0.000000	0.000000	6.272851	0.096086	NaN	0.000000	0.001583	0.001694	28.0806	0.054243	0.002011	26.9777	-179.986	13.0063	0.017754	0.271346	-0.849697	-0.851073	0.096086	26.9777	-0.852368	-2.305726E+11	-4.167259E-13	NaN
528	1.000000	0.282717	7.37021e+06	-50689.1	1005.82	-29754.9	0.000000	0.000000	6.282843	0.018115	NaN	0.000000	0.001587	0.001703	28.0806	0.101969	0.001956	52.1395	-32.0073	-162.425	0.090406	0.281437	-0.839702	-0.840982	0.018115	52.1395	-0.839963	-1.565978E+11	-1.156785E-13	NaN
528	1.000000	0.292738	7.37021e+06	-50689.1	1005.82	-29754.9	0.000000	0.000000	6.292861	-0.045993	NaN	0.000000	0.001556	0.001706	28.0817	0.071460	0.002047	34.9034	-102.184	12.9792	-0.003256	0.291346	-0.829682	-0.831073	-0.045993	34.9034	-0.828693	-1.101724E+11	4.174682E-13	NaN
528	1.000000	0.302742	7.37021e+06	-50689.1	1005.82	-29754.9	0.000000	0.000000	6.302866	-0.012286	NaN	0.000000	0.001605	0.001723	28.0819	0.118995	0.002080	57.213	29.1937	-165.449	-0.034246	0.301425	-0.819677	-0.820995	-0.012286	57.213	-0.819516	-8.272805E+10	1.485089E-13	NaN
528	1.000000	0.312712	7.37021e+06	-50689.1	1005.82	-29754.9	0.000000	0.000000	6.312837	-0.011514	NaN	0.000000	0.001567	0.001716	28.0816	0.057004	0.002078	27.4272	2.347126	11.9087	-0.042435	0.311338	-0.809707	-0.811081	-0.011514	27.4272	-0.809392	-6.030120E+10	1.909448E-13	NaN
528	1.000000	0.322726	7.37021e+06	-50689.1	1005.82	-29754.9	0.000000	0.000000	6.322849	-0.037426	NaN	0.000000	0.001580	0.001667	28.0819	0.098460	0.001968	50.0356	-175.481	-166.672	-0.052007	0.321414	-0.799693	-0.801005	-0.037426	50.0356	-0.799132	-4.376090E+10	8.552350E-13	NaN
528	1.000000	0.332710	7.37021e+06	-50689.1	1005.82	-29754.9	0.000000	0.000000	6.332837	0.051443	NaN	0.000000	0.001580	0.001716	28.0818	0.101795	0.001989	51.1904	155.91	12.8049	0.101031	0.331377	-0.789709	-0.791043	0.051443	51.1904	-0.790463	-3.337116E+10	-1.541552E-12	NaN
528	1.000000	0.342769	7.37022e+06	-50689.1	1005.82	-29754.9	0.000000	0.000000	6.342892	-0.053455	NaN	0.000000	0.001578	0.001729	28.0822	0.114890	0.002062	55.7112	55.7654	-166.31	0.009009	0.341446	-0.779650	-0.780973	-0.053455	55.7112	-0.778931	-2.326493E+10	2.297656E-12	NaN
528	1.000000	0.352757	7.37022e+06	-50689.1	1005.82	-29754.9	0.000000	0.000000	6.352883	0.004881	NaN	0.000000	0.001592	0.001720	28.0818	0.037751	0.001999	18.8809	156.627	12.5651	-0.029540	0.351369	-0.769662	-0.771050	0.004881	18.8809	-0.769856	-1.751247E+10	-2.786982E-13	NaN
528	1.000000	0.362788	7.37022e+06	-50689.1	1005.82	-29754.9	0.000000	0.000000	6.362915	0.029742	NaN	0.000000	0.001584	0.001694	28.082	0.090585	0.002062	43.9255	-145.753	-167.04	0.063410	0.361408	-0.759631	-0.761011	0.029742	43.9255	-0.760139	-1.291786E+10	-2.302424E-12	NaN
528	1.000000	0.372755	7.37022e+06	-50689.1	1005.82	-29754.9	0.000000	0.000000	6.372880	-0.010303	NaN	0.000000	0.001569	0.001723	28.0819	0.018776	0.001911	9.823777	129.363	12.6834	0.066732	0.371414	-0.749664	-0.751005	-0.010303	9.823777	-0.748877	-9.076916E+9	1.135035E-12	NaN
528	1.000000	0.382743	7.37022e+06	-50689.1	1005.82	-29754.9	0.000000	0.000000	6.382869	0.022843	NaN	0.000000	0.001550	0.001714	28.0823	0.070839	0.002113	33.5266	132.062	-163.168	0.003110	0.381494	-0.739677	-0.740925	0.022843	33.5266	-0.740188	-6.912124E+9	-3.304794E-12	NaN
528	1.000000	0.392750	7.37022e+06	-50689.1	1005.82	-29754.9	0.000000	0.000000	6.392875	0.011692	NaN	0.000000	0.001584	0.001704	28.0822	0.043022	0.001952	22.0435	69.7074	12.5728	-0.049056	0.391437	-0.729669	-0.730982	0.011692	22.0435	-0.730067	-5.031808E+9	-2.323606E-12	NaN
528	1.000000	0.402755	7.37022e+06	-50689.1	1005.82	-29754.9	0.000000	0.000000	6.402882	0.063349	NaN	0.000000	0.001560	0.001712	28.0821	0.050495	0.001876	26.9129	-86.5167	-164.115	0.035143	0.401485	-0.719665	-0.720934	0.063349	26.9129	-0.721430	-3.836849E+9	-1.651069E-11	NaN
528	1.000000	0.412784	7.37022e+06	-50689.1	1005.82	-29754.9	0.000000	0.000000	6.412907	-0.050419	NaN	0.000000	0.001590	0.001712	28.0825	0.052449	0.002072	25.3091	141.863	12.4302	-0.003795	0.411405	-0.709635	-0.711014	-0.050419	25.3091	-0.708141	-2.527437E+9	1.994876E-11	NaN
528	1.000000	0.422757	7.37022e+06	-50689.1	1005.82	-29754.9	0.000000	0.000000	6.422880	-0.054693	NaN	0.000000	0.001588	0.001674	28.0812	0.146507	0.002137	68.5687	154.263	-164.008	-0.083503	0.421485	-0.699663	-0.700934	-0.054693	68.5687	-0.699064	-1.899998E+9	2.878582E-11	NaN
528	1.000000	0.432789	7.37022e+06	-50689.1	1005.82	-29754.9	0.000000	0.000000	6.432914	0.015140	NaN	0.000000	0.001660	0.001726	28.0809	0.124059	0.002055	60.3718	-172.172	14.0156	0.008652	0.431406	-0.689631	-0.691013	0.015140	60.3718	-0.689819	-1.420501E+9	-1.065844E-11	NaN
528	1.000000	0.442818	7.37022e+06	-50689.1	1005.82	-29754.9	0.000000	0.000000	6.442940	-0.085239	NaN	0.000000	0.001647	0.001729	28.081	0.079008	0.001913	41.2911	161.344	-164.901	-0.031824	0.441487	-0.679601	-0.680932	-0.085239	41.2911	-0.678053	-9.807921E+8	8.690856E-11	NaN
528	1.000000	0.452770	7.37022e+06	-50689.1	1005.82	-29754.9	0.000000	0.000000	6.452894	-0.029700	NaN	0.000000	0.001630	0.001734	28.081	0.077586	0.002068	37.5262	173.386	12.9629	0.019979	0.451467	-0.669649	-0.670953	-0.029700	37.5262	-0.669055	-7.386848E+8	4.020676E-11	NaN
528	1.000000	0.462769	7.37022e+06	-50689.1	1005.82	-29754.9	0.000000	0.000000	6.462895	0.024784	NaN	0.000000	0.001583	0.001753	28.0808	0.037711	0.001882	20.0349	47.851	-165.287	-0.018821	0.461460	-0.659651	-0.660960	0.024784	20.0349	-0.660578	-5.654454E+8	-4.383024E-11	NaN
528	1.000000	0.472807	7.37022e+06	-50689.1	1005.82	-29754.9	0.000000	0.000000	6.472934	0.049673	NaN	0.000000	0.001585	0.001734	28.0809	0.061972	0.002046	30.2962	140.055	15.0155	0.022060	0.471419	-0.649612	-0.651000	0.049673	30.2962	-0.650842	-4.158895E+8	-1.194370E-10	NaN
528	1.000000	0.482794	7.37022e+06	-50689.1	1005.82	-29754.9	0.000000	0.000000	6.482919	0.009160	NaN	0.000000	0.001584	0.001715	28.081	0.022075	0.002024	10.909	127.699	-164.265	0.061599	0.481529	-0.639626	-0.640890	0.009160	10.909	-0.640256	-2.977114E+8	-3.076657E-11	NaN
528	1.000000	0.492801	7.37022e+06	-50689.1	1005.82	-29754.9	0.000000	0.000000	6.492926	-0.003941	NaN	0.000000	0.001594	0.001773	28.0809	0.045744	0.001995	22.9271	49.3503	17.8745	-0.065104	0.491467	-0.629618	-0.630952	-0.003941	22.9271	-0.629489	-2.118412E+8	1.860492E-11	NaN
528	1.000000	0.502836	7.37022e+06	-50689.1	1005.82	-29754.9	0.000000	0.000000	6.502964	0.060232	NaN	0.000000	0.001558	0.001741	28.0808	0.038641	0.002105	18.3613	118.272	-165.455	0.011491	0.501497	-0.619583	-0.620923	0.060232	18.3613	-0.622043	-1.673840E+8	-3.598439E-10	NaN
528	1.000000	0.512807	7.37022e+06	-50689.1	1005.82	-29754.9	0.000000	0.000000	6.512931	-0.024459	NaN	0.000000	0.001621	0.001715	28.0806	0.074230	0.001945	38.1651	148.659	15.9116	0.056397	0.511479	-0.609613	-0.610940	-0.024459	38.1651	-0.609132	-1.112165E+8	2.199261E-10	NaN
528	1.000000	0.522840	7.37022e+06	-50689.1	1005.82	-29754.9	0.000000	0.000000	6.522965	0.004681	NaN	0.000000	0.001580	0.001772	28.0808	0.066124	0.001952	33.8701	95.9918	-167.794	0.002221	0.521518	-0.599580	-0.600901	0.004681	33.8701	-0.599683	-8.243244E+7	-5.678910E-11	NaN
528	1.000000	0.532850	7.37022e+06	-50689.1	1005.82	-29754.9	0.000000	0.000000	6.532975	-0.001931	NaN	0.000000	0.001603	0.001709	28.0806	0.054377	0.002082	26.1129	-61.1088	14.2566	0.027913	0.531494	-0.589569	-0.590925	-0.001931	26.1129	-0.589514	-5.969820E+7	3.234997E-11	NaN
528	1.000000	0.542799	7.37022e+06	-50689.1	1005.82	-29754.9	0.000000	0.000000	6.542924	-0.014337	NaN	0.000000	0.001558	0.001742	28.0804	0.027026	0.001988	13.5958	14.6565	-164.842	0.078342	0.541510	-0.579620	-0.580909	-0.014337	13.5958	-0.578829	-4.251700E+7	3.372090E-10	NaN
528	1.000000	0.552844	7.37022e+06	-50689.1	1005.82	-29754.9	0.000000	0.000000	6.552967	-0.060394	NaN	0.000000	0.001618	0.001757	28.0808	0.141170	0.001958	72.0902	-167.442	13.8121	0.019607	0.551483	-0.569575	-0.570937	-0.060394	72.0902	-0.568947	-3.105147E+7	1.944950E-9	NaN
528	1.000000	0.562875	7.37022e+06	-50689.1	1005.82	-29754.9	0.000000	0.000000	6.563004	0.088733	NaN	0.000000	0.001566	0.001743	28.0819	0.035073	0.002103	16.6803	146.059	-166.091	0.099541	0.561541	-0.559544	-0.560878	0.088733	16.6803	-0.563534	-2.613662E+7	-3.394965E-9	NaN
528	1.000000	0.572821	7.37022e+06	-50689.1	1005.82	-29754.9	0.000000	0.000000	6.572945	-0.019864	NaN	0.000000	0.001604	0.001740	28.082	0.146725	0.001980	74.0969	-93.0612	17.5289	-0.016445	0.571529	-0.549599	-0.550891	-0.019864	74.0969	-0.549398	-1.665763E+7	1.192473E-9	NaN
528	1.000000	0.582861	7.37022e+06	-50689.1	1005.82	-29754.9	0.000000	0.000000	6.582985	-0.030845	NaN	0.000000	0.001604	0.001758	28.0819	0.061807	0.002022	30.5684	-112.751	-165.473	-0.010986	0.581517	-0.539558	-0.540902	-0.030845	30.5684	-0.538801	-1.187761E+7	2.596930E-9	NaN
528	1.000000	0.592821	7.37022e+06	-50689.1	1005.82	-29754.9	0.000000	0.000000	6.592947	0.031956	NaN	0.000000	0.001589	0.001771	28.0823	0.081436	0.002073	39.2805	-106.369	15.0623	0.023514	0.591534	-0.529599	-0.530885	0.031956	39.2805	-0.530209	-9.02554e+06	-3.540564E-9	NaN
528	1.000000	0.602870	7.37022e+06	-50689.1	1005.82	-29754.9	0.000000	0.000000	6.602996	0.024666	NaN	0.000000	0.001610	0.001774	28.0818	0.066586	0.001942	34.2956	-141.24	-166.137	0.056858	0.601580	-0.519550	-0.520839	0.024666	34.2956	-0.520089	-6.52886e+06	-3.778032E-9	NaN
528	1.000000	0.612887	7.37022e+06	-50689.1	1005.82	-29754.9	0.000000	0.000000	6.613013	0.005953	NaN	0.000000	0.001586	0.001763	28.0821	0.093848	0.002070	45.3264	-103.741	11.3032	-0.038798	0.611551	-0.509532	-0.510868	0.005953	45.3264	-0.509631	-4.6695e+06	-1.274940E-9	NaN
528	1.000000	0.622863	7.37022e+06	-50689.1	1005.82	-29754.9	0.000000	0.000000	6.622988	0.003405	NaN	0.000000	0.001579	0.001750	28.0819	0.043400	0.002098	20.6876	156.033	-162.503	0.011046	0.621503	-0.499557	-0.500916	0.003405	20.6876	-0.499680	-3.39279e+06	-1.003736E-9	NaN
528	1.000000	0.632879	7.37022e+06	-50689.1	1005.82	-29754.9	0.000000	0.000000	6.633003	-0.036139	NaN	0.000000	0.001593	0.001770	28.0822	0.082061	0.002018	40.6664	108.7	11.3005	-0.048963	0.631489	-0.489540	-0.490930	-0.036139	40.6664	-0.488873	-2.39689e+06	1.507752E-8	NaN
528	1.000000	0.642883	7.37022e+06	-50689.1	1005.82	-29754.9	0.000000	0.000000	6.643009	0.007225	NaN	0.000000	0.001613	0.001730	28.082	0.086077	0.002013	42.7613	-111.909	-165.429	-0.024379	0.641575	-0.479536	-0.480844	0.007225	42.7613	-0.479663	-1.78159e+06	-4.055200E-9	NaN
528	1.000000	0.652878	7.37022e+06	-50689.1	1005.82	-29754.9	0.000000	0.000000	6.653006	0.048985	NaN	0.000000	0.001650	0.001706	28.0821	0.107371	0.001836	58.4657	-35.1813	11.9125	0.023021	0.651472	-0.469541	-0.470947	0.048985	58.4657	-0.470169	-1.31154e+06	-3.734926E-8	NaN
528	1.000000	0.662906	7.37022e+06	-50689.1	1005.82	-29754.9	0.000000	0.000000	6.663033	0.044090	NaN	0.000000	0.001651	0.001742	28.0822	0.068729	0.002015	34.1165	-148.471	-164.329	0.073674	0.661550	-0.459513	-0.460870	0.044090	34.1165	-0.460482	-958951	-4.597732E-8	NaN
528	1.000000	0.672903	7.37022e+06	-50689.1	1005.82	-29754.9	0.000000	0.000000	6.673028	-0.020658	NaN	0.000000	0.001679	0.001698	28.0825	0.082452	0.002010	41.0249	153.676	11.6083	-0.082286	0.671527	-0.449516	-0.450893	-0.020658	41.0249	-0.449138	-664059	3.110940E-8	NaN
528	1.000000	0.682884	7.37022e+06	-50689.1	1005.82	-29754.9	0.000000	0.000000	6.683010	0.016469	NaN	0.000000	0.001635	0.001727	28.082	0.100179	0.002028	49.3994	147.168	-165.596	0.030444	0.681566	-0.439535	-0.440853	0.016469	49.3994	-0.439785	-490157	-3.359890E-8	NaN
528	1.000000	0.692896	7.37022e+06	-50689.1	1005.82	-29754.9	0.000000	0.000000	6.693020	-0.026383	NaN	0.000000	0.001641	0.001688	28.0822	0.075689	0.001992	37.9954	-100.572	14.1422	-0.043322	0.691496	-0.429523	-0.430924	-0.026383	37.9954	-0.429002	-345100	7.645075E-8	NaN
528	1.000000	0.702903	7.37022e+06	-50689.1	1005.82	-29754.9	0.000000	0.000000	6.703029	0.023488	NaN	0.000000	0.001626	0.001671	28.0812	0.065368	0.001954	33.4524	52.1395	-165.896	-0.006245	0.701566	-0.419516	-0.420853	0.023488	33.4524	-0.420043	-257645	-9.116388E-8	NaN
528	1.000000	0.712885	7.37022e+06	-50689.1	1005.82	-29754.9	0.000000	0.000000	6.713008	-0.037760	NaN	0.000000	0.001682	0.001712	28.081	0.126942	0.001899	66.8543	-121.971	16.1441	-0.029516	0.711546	-0.409535	-0.410873	-0.037760	66.8543	-0.409111	-180201	2.095436E-7	NaN
528	1.000000	0.722888	7.37022e+06	-50689.1	1005.82	-29754.9	0.000000	0.000000	6.723015	0.035629	NaN	0.000000	0.001673	0.001704	28.081	0.071154	0.002076	34.2668	155.159	-168.916	0.014744	0.721577	-0.399531	-0.400842	0.035629	34.2668	-0.400311	-135029	-2.638604E-7	NaN
528	1.000000	0.732885	7.37022e+06	-50689.1	1005.82	-29754.9	0.000000	0.000000	6.733011	0.018988	NaN	0.000000	0.001708	0.001689	28.0812	0.072767	0.002214	32.8615	-35.2794	12.391	-0.001341	0.731501	-0.389535	-0.390918	0.018988	32.8615	-0.389968	-96096.6	-1.975888E-7	NaN
528	1.000000	0.742886	7.37022e+06	-50689.1	1005.82	-29754.9	0.000000	0.000000	6.743012	0.004898	NaN	0.000000	0.001663	0.001706	28.0813	0.062214	0.002086	29.8296	55.8748	-167.108	-0.003203	0.741645	-0.379533	-0.380774	0.004898	29.8296	-0.379656	-68384.1	-7.162751E-8	NaN
528	1.000000	0.752948	7.37022e+06	-50689.1	1005.82	-29754.9	0.000000	0.000000	6.753075	0.061873	NaN	0.000000	0.001621	0.001701	28.0811	0.090893	0.002035	44.6548	143.843	17.3653	-0.009393	0.751542	-0.369472	-0.370878	0.061873	44.6548	-0.370511	-50522.6	-1.224668E-6	NaN
528	1.000000	0.762885	7.37022e+06	-50689.1	1005.82	-29754.9	0.000000	0.000000	6.763010	-0.016008	NaN	0.000000	0.001623	0.001690	28.0811	0.071853	0.001993	36.0565	-122.486	-168.503	-0.093637	0.761603	-0.359534	-0.360816	-0.016008	36.0565	-0.359201	-34697.2	4.613538E-7	NaN
528	1.000000	0.772920	7.37022e+06	-50689.1	1005.82	-29754.9	0.000000	0.000000	6.773047	0.038096	NaN	0.000000	0.001599	0.001711	28.0812	0.063084	0.002028	31.1105	143.464	15.4141	-0.016374	0.771543	-0.349499	-0.350877	0.038096	31.1105	-0.350417	-25885.7	-1.471691E-6	NaN
528	1.000000	0.782955	7.37022e+06	-50689.1	1005.82	-29754.9	0.000000	0.000000	6.783083	0.056118	NaN	0.000000	0.001570	0.001744	28.0811	0.061314	0.001905	32.1855	-54.0841	-168.467	0.009833	0.781588	-0.339464	-0.340832	0.056118	32.1855	-0.340772	-18741.3	-2.994358E-6	NaN
528	1.000000	0.792928	7.37022e+06	-50689.1	1005.82	-29754.9	0.000000	0.000000	6.793054	0.015843	NaN	0.000000	0.001600	0.001718	28.0813	0.095588	0.001964	48.6691	108.036	16.4658	-0.070101	0.791622	-0.329491	-0.330797	0.015843	48.6691	-0.329735	-12929.3	-1.225374E-6	NaN
528	1.000000	0.802965	7.37022e+06	-50689.1	1005.82	-29754.9	0.000000	0.000000	6.803090	0.015415	NaN	0.000000	0.001606	0.001724	28.0814	0.117205	0.002107	55.6225	158.508	-165.986	-0.025262	0.801592	-0.319455	-0.320827	0.015415	55.6225	-0.319663	-9197.52	-1.675997E-6	NaN
528	1.000000	0.812962	7.37022e+06	-50689.1	1005.82	-29754.9	0.000000	0.000000	6.813086	-0.032028	NaN	0.000000	0.001571	0.001722	28.0814	0.046531	0.001955	23.8015	-163.385	11.8208	0.031901	0.811620	-0.309457	-0.310800	-0.032028	23.8015	-0.308448	-6281.7	5.098655E-6	NaN
528	1.000000	0.822918	7.37022e+06	-50689.1	1005.82	-29754.9	0.000000	0.000000	6.823044	0.000267	NaN	0.000000	0.001594	0.001754	28.0813	0.077635	0.001835	42.3057	89.1035	-168.902	-0.016838	0.821618	-0.299501	-0.300801	0.000267	42.3057	-0.299506	-4626.74	-5.765790E-8	NaN
528	1.000000	0.832958	7.37022e+06	-50689.1	1005.82	-29754.9	0.000000	0.000000	6.833081	-0.060268	NaN	0.000000	0.001590	0.001688	28.0821	0.091767	0.001950	47.0679	-0.696392	16.5047	-0.028715	0.831617	-0.289461	-0.290802	-0.060268	47.0679	-0.288501	-3168.31	1.902213E-5	NaN
528	1.000000	0.842967	7.37022e+06	-50689.1	1005.82	-29754.9	0.000000	0.000000	6.843094	0.052484	NaN	0.000000	0.001610	0.001719	28.0824	0.118787	0.002027	58.6096	116.684	-165.54	0.072863	0.841633	-0.279452	-0.280786	0.052484	58.6096	-0.280124	-2370.48	-2.214046E-5	NaN
528	1.000000	0.852972	7.37022e+06	-50689.1	1005.82	-29754.9	0.000000	0.000000	6.853095	-0.049842	NaN	0.000000	0.001607	0.001713	28.0825	0.202308	0.001934	104.588	-170.827	13.6017	0.016743	0.851561	-0.269447	-0.270858	-0.049842	104.588	-0.269090	-1613.25	3.089542E-5	NaN
528	1.000000	0.862956	7.37022e+06	-50689.1	1005.82	-29754.9	0.000000	0.000000	6.863082	0.037050	NaN	0.000000	0.001629	0.001690	28.0823	0.045765	0.002022	22.6345	-22.147	-164.343	-0.005135	0.861632	-0.259464	-0.260788	0.037050	22.6345	-0.260691	-1200.91	-3.085169E-5	NaN
528	1.000000	0.872920	7.37022e+06	-50689.1	1005.82	-29754.9	0.000000	0.000000	6.873048	0.081787	NaN	0.000000	0.001596	0.001680	28.0823	0.151062	0.002013	75.045	-93.4507	13.7718	-0.013790	0.871585	-0.249500	-0.250834	0.081787	75.045	-0.250317	-831.509	-9.836014E-5	NaN
528	1.000000	0.882971	7.37022e+06	-50689.1	1005.82	-29754.9	0.000000	0.000000	6.883097	0.031623	NaN	0.000000	0.001626	0.001698	28.0824	0.082124	0.001920	42.7694	-150.987	-165.121	0.030797	0.881646	-0.239448	-0.240773	0.031623	42.7694	-0.240003	-574.907	-5.500461E-5	NaN
528	1.000000	0.892987	7.37022e+06	-50689.1	1005.82	-29754.9	0.000000	0.000000	6.893113	0.006569	NaN	0.000000	0.001599	0.001661	28.0823	0.091582	0.002046	44.7588	-107.4	12.9977	0.032966	0.891568	-0.229432	-0.230851	0.006569	44.7588	-0.229542	-393.809	-1.668148E-5	NaN
528	1.000000	0.902983	7.37022e+06	-50689.1	1005.82	-29754.9	0.000000	0.000000	6.903107	-0.020548	NaN	0.000000	0.001569	0.001718	28.0821	0.058106	0.001945	29.869	78.1644	-165.921	-0.005888	0.901671	-0.219437	-0.220748	-0.020548	29.869	-0.218921	-266.941	7.697670E-5	NaN
528	1.000000	0.912984	7.37022e+06	-50689.1	1005.82	-29754.9	0.000000	0.000000	6.913108	-0.015117	NaN	0.000000	0.001609	0.001697	28.082	0.077810	0.001983	39.2475	8.726003	18.1478	-0.071528	0.911634	-0.209436	-0.210785	-0.015117	39.2475	-0.209147	-185.777	8.137149E-5	NaN
528	1.000000	0.922991	7.37022e+06	-50689.1	1005.82	-29754.9	0.000000	0.000000	6.923116	-0.001918	NaN	0.000000	0.001624	0.001696	28.0831	0.066142	0.002087	31.6941	92.3907	-167.414	0.010146	0.921690	-0.199428	-0.200729	-0.001918	31.6941	-0.199383	-128.692	1.490032E-5	NaN
528	1.000000	0.932962	7.37022e+06	-50689.1	1005.82	-29754.9	0.000000	0.000000	6.933086	-0.023382	NaN	0.000000	0.001611	0.001670	28.0821	0.081261	0.002113	38.465	-157.008	12.2496	-0.040542	0.931649	-0.189458	-0.190771	-0.023382	38.465	-0.189002	-86.5644	0.000270	NaN
528	1.000000	0.943024	7.37022e+06	-50689.1	1005.82	-29754.9	0.000000	0.000000	6.943145	-0.080725	NaN	0.000000	0.001616	0.001691	28.0822	0.155159	0.001932	80.322	-164.322	-166.773	0.000173	0.941664	-0.179396	-0.180756	-0.080725	80.322	-0.178642	-57.8538	0.001395	NaN
528	1.000000	0.952980	7.37022e+06	-50689.1	1005.82	-29754.9	0.000000	0.000000	6.953107	0.030695	NaN	0.000000	0.001624	0.001741	28.0823	0.066047	0.002054	32.1536	-85.7215	14.63	0.007725	0.951701	-0.169439	-0.170718	0.030695	32.1536	-0.170155	-41.3335	-0.000743	NaN
528	1.000000	0.963011	7.37022e+06	-50689.1	1005.82	-29754.9	0.000000	0.000000	6.963137	0.040752	NaN	0.000000	0.001593	0.001691	28.0823	0.042416	0.002105	20.1471	135.131	-165.376	0.046790	0.961689	-0.159409	-0.160731	0.040752	20.1471	-0.160926	-28.4719	-0.001431	NaN
528	1.000000	0.973034	7.37022e+06	-50689.1	1005.82	-29754.9	0.000000	0.000000	6.973159	-0.002006	NaN	0.000000	0.001596	0.001702	28.0809	0.150299	0.002024	74.263	-137.072	14.561	0.056674	0.971642	-0.149385	-0.150777	-0.002006	74.263	-0.149365	-17.6364	0.000114	NaN
528	1.000000	0.983006	7.37022e+06	-50689.1	1005.82	-29754.9	0.000000	0.000000	6.983129	-0.048782	NaN	0.000000	0.001599	0.001702	28.0809	0.055243	0.001872	29.5077	14.4351	-166.932	-0.003832	0.981702	-0.139413	-0.140717	-0.048782	29.5077	-0.138174	-10.9285	0.004464	NaN
528	1.000000	0.993007	7.37022e+06	-50689.1	1005.82	-29754.9	0.000000	0.000000	6.993133	0.038684	NaN	0.000000	0.001532	0.001679	28.0811	0.145888	0.001918	76.076	61.1099	17.0196	-0.021317	0.991653	-0.129413	-0.130766	0.038684	76.076	-0.129794	-7.551045	-0.005123	NaN
528	1.000000	1.003037	7.37022e+06	-50689.1	1005.82	-29754.9	0.000000	0.000000	7.003163	0.011104	NaN	0.000000	0.001552	0.001636	28.0808	0.073449	0.001960	37.4799	-125.662	-163.551	0.009918	1.001734	-0.119382	-0.120685	0.011104	37.4799	-0.119604	-4.743440	-0.002341	NaN
528	1.000000	1.012994	7.37022e+06	-50689.1	1005.82	-29754.9	0.000000	0.000000	7.013119	-0.015095	NaN	0.000000	0.001596	0.001670	28.081	0.044633	0.002007	22.2425	173.8	13.2908	0.039831	1.011642	-0.109425	-0.110777	-0.015095	22.2425	-0.108916	-2.850719	0.005295	NaN
528	1.000000	1.023046	7.37022e+06	-50689.1	1005.82	-29754.9	0.000000	0.000000	7.023170	-0.031229	NaN	0.000000	0.001623	0.001668	28.081	0.100397	0.001957	51.307	127.738	-159.866	-0.047509	1.021745	-0.099373	-0.100675	-0.031229	51.307	-0.098916	-1.728561	0.018067	NaN
528	1.000000	1.033015	7.37022e+06	-50689.1	1005.82	-29754.9	0.000000	0.000000	7.033141	0.010034	NaN	0.000000	0.001631	0.001662	28.0811	0.061846	0.001942	31.8439	-85.3672	13.712	0.005010	1.031702	-0.089404	-0.090718	0.010034	31.8439	-0.089640	-1.060149	-0.009465	NaN
528	1.000000	1.043077	7.37022e+06	-50689.1	1005.82	-29754.9	0.000000	0.000000	7.043200	-0.052296	NaN	0.000000	0.001601	0.001655	28.081	0.052004	0.002022	25.7215	125.561	-167.159	-0.100289	1.041769	-0.079342	-0.080650	-0.052296	25.7215	-0.077817	-0.545381	0.095889	NaN
528	1.000000	1.053027	7.37022e+06	-50689.1	1005.82	-29754.9	0.000000	0.000000	7.053153	0.027122	NaN	0.000000	0.001609	0.001668	28.0812	0.087786	0.002009	43.7036	23.5537	14.8352	-0.009321	1.051698	-0.069392	-0.070721	0.027122	43.7036	-0.069857	-0.338121	-0.080215	NaN
528	1.000000	1.063036	7.37022e+06	-50689.1	1005.82	-29754.9	0.000000	0.000000	7.063163	0.040914	NaN	0.000000	0.001652	0.001696	28.0811	0.086601	0.002080	41.6273	1.635727	-167.174	0.078539	1.061765	-0.059383	-0.060654	0.040914	41.6273	-0.060120	-0.181529	-0.225386	NaN
528	1.000000	1.073067	7.37022e+06	-50689.1	1005.82	-29754.9	0.000000	0.000000	7.073191	-0.031088	NaN	0.000000	0.001621	0.001676	28.0811	0.082291	0.001983	41.4904	73.3865	12.9308	-0.017116	1.071684	-0.049352	-0.050735	-0.031088	41.4904	-0.048790	-0.083864	0.370693	NaN
528	1.000000	1.083040	7.37022e+06	-50689.1	1005.82	-29754.9	0.000000	0.000000	7.083162	-0.080310	NaN	0.000000	0.001628	0.001686	28.081	0.092807	0.001922	48.2873	83.5918	-167.766	-0.013764	1.081760	-0.039379	-0.040659	-0.080310	48.2873	-0.038132	-0.039703	2.022757	NaN
528	1.000000	1.093088	7.37022e+06	-50689.1	1005.82	-29754.9	0.000000	0.000000	7.093213	0.006617	NaN	0.000000	0.001621	0.001710	28.0814	0.087502	0.001984	44.1048	-144.246	13.9403	-0.014306	1.091682	-0.029331	-0.030738	0.006617	44.1048	-0.029444	-0.022209	-0.297924	NaN
528	1.000000	1.103053	7.37022e+06	-50689.1	1005.82	-29754.9	0.000000	0.000000	7.103180	0.053940	NaN	0.000000	0.001567	0.001690	28.0814	0.074837	0.001983	37.7426	-36.2914	-163	0.022768	1.101716	-0.019366	-0.020704	0.053940	37.7426	-0.020438	-0.012887	-4.185504	NaN
528	1.000000	1.113086	7.37022e+06	-50689.1	1005.82	-29754.9	0.000000	0.000000	7.113213	0.043149	NaN	0.000000	0.001601	0.001668	28.0823	0.091319	0.001883	48.5015	15.6514	15.3158	-0.040760	1.111710	-0.009333	-0.010709	0.043149	48.5015	-0.010000	-0.006388	-6.755094	NaN
528	1.000000	1.123042	7.37022e+06	-50689.1	1005.82	-29754.9	0.000000	0.000000	7.123325	3.831788	NaN	0.000000	0.001594	0.001675	28.0821	3.157346	0.001831	1724.73	15.3088	-170.925	3.030177	1.121690	0.000623	-0.000729	3.831788	1724.73	-0.001044	-0.000765	-5011.83	NaN
528	2.000000	1.130196	7.37022e+06	-50689.1	1005.82	-29754.9	0.000000	0.000000	7.130698	9.164933	NaN	0.000000	0.001584	0.001635	28.083	8.330993	0.001594	5226.88	6.920838	8.803711	8.525012	1.129818	0.007777	0.007399	9.164933	5226.88	0.006461	0.005507	1664.22	64351.2
528	2.000000	1.132660	7.37022e+06	-50689.1	1005.82	-29754.9	0.000000	0.000000	7.133302	12.5748	NaN	0.000000	0.001569	0.001669	28.0823	10.8873	0.001790	6083.3	10.7513	-177.115	11.8284	1.132324	0.010240	0.009905	12.5748	6083.3	0.008690	0.007762	1620.15	63086.8
528	2.000000	1.135139	7.37022e+06	-50689.1	1005.82	-29754.9	0.000000	0.000000	7.135914	15.8057	NaN	0.000000	0.001567	0.001711	28.0823	13.3496	0.001796	7431.42	6.447782	6.163444	15.5406	1.134770	0.012720	0.012351	15.8057	7431.42	0.011125	0.010458	1511.31	66391.9
528	2.000000	1.137626	7.37022e+06	-50689.1	1005.82	-29754.9	0.000000	0.000000	7.138567	19.8476	NaN	0.000000	0.001572	0.001685	28.0822	16.1426	0.001911	8446.69	7.944307	-176.217	19.7414	1.137287	0.015207	0.014868	19.8476	8446.69	0.013444	0.013266	1496.09	67001.5
528	2.000000	1.140084	7.37022e+06	-50689.1	1005.82	-29754.9	0.000000	0.000000	7.141275	25.9235	NaN	0.000000	0.001640	0.001692	28.0832	17.8766	0.001838	9725.02	6.803373	5.098678	25.2227	1.139681	0.017665	0.017262	25.9235	9725.02	0.015665	0.016183	1601.9	69844.8
528	2.000000	1.142565	7.37022e+06	-50689.1	1005.82	-29754.9	0.000000	0.000000	7.143938	30.3422	NaN	0.000000	0.001641	0.001692	28.0822	20.504	0.001734	11821.9	5.660897	-177.344	29.3228	1.142234	0.020146	0.019815	30.3422	11821.9	0.018221	0.019823	1530.65	76713.8
528	2.000000	1.145040	7.37022e+06	-50689.1	1005.82	-29754.9	0.000000	0.000000	7.146733	38.1133	NaN	0.000000	0.001620	0.001693	28.0825	22.9341	0.001810	12670.4	3.551659	5.019338	36.3582	1.144703	0.022621	0.022284	38.1133	12670.4	0.020365	0.023119	1648.58	76134.4
528	2.000000	1.147538	7.37022e+06	-50689.1	1005.82	-29754.9	0.000000	0.000000	7.149551	45.8987	NaN	0.000000	0.001623	0.001698	28.0821	26.227	0.001815	14451.2	6.000547	-179.748	44.3838	1.147207	0.025119	0.024787	45.8987	14451.2	0.022737	0.027027	1698.26	80312
528	2.000000	1.150068	7.37022e+06	-50689.1	1005.82	-29754.9	0.000000	0.000000	7.152352	52.5001	NaN	0.000000	0.001583	0.001696	28.0834	27.4072	0.001692	16194.2	1.102334	4.956398	50.6565	1.149679	0.027648	0.027259	52.5001	16194.2	0.025217	0.031411	1671.38	83481.4
528	2.000000	1.152552	7.37022e+06	-50689.1	1005.82	-29754.9	0.000000	0.000000	7.155153	60.199	NaN	0.000000	0.001624	0.001696	28.0821	29.8409	0.001854	16091.8	4.415260	-176.999	59.7099	1.152205	0.030133	0.029786	60.199	16091.8	0.027327	0.035386	1701.2	78155.9
528	2.000000	1.155018	7.37022e+06	-50689.1	1005.82	-29754.9	0.000000	0.000000	7.157956	68.4006	NaN	0.000000	0.001632	0.001679	28.0827	31.7227	0.001738	18253.2	3.695361	0.752420	67.0294	1.154732	0.032599	0.032312	68.4006	18253.2	0.029789	0.040307	1697	83065.9
528	2.000000	1.157558	7.37022e+06	-50689.1	1005.82	-29754.9	0.000000	0.000000	7.160661	72.4199	NaN	0.000000	0.001617	0.001692	28.0811	35.4829	0.001798	19733.5	7.299956	176.898	74.0717	1.157218	0.035138	0.034799	72.4199	19733.5	0.032386	0.045834	1580.05	84214
528	2.000000	1.160087	7.37022e+06	-50689.1	1005.82	-29754.9	0.000000	0.000000	7.163630	83.1195	NaN	0.000000	0.001588	0.001717	28.0812	37.6001	0.001805	20826.2	6.059755	-1.412053	82.1186	1.159672	0.037668	0.037253	83.1195	20826.2	0.034674	0.050990	1630.11	84263.8
528	2.000000	1.162505	7.37022e+06	-50689.1	1005.82	-29754.9	0.000000	0.000000	7.166307	89.4158	NaN	0.000000	0.001643	0.001734	28.0811	40.595	0.001932	21015.3	4.890077	178.669	87.4167	1.162227	0.040085	0.039808	89.4158	21015.3	0.036894	0.056248	1589.66	80956.7
528	2.000000	1.165049	7.37022e+06	-50689.1	1005.82	-29754.9	0.000000	0.000000	7.169357	101.727	NaN	0.000000	0.001620	0.001707	28.0812	42.7752	0.001804	23709.1	6.154860	-3.163770	101.369	1.164637	0.042629	0.042218	101.727	23709.1	0.039411	0.062516	1627.22	86634.7
528	2.000000	1.167538	7.37022e+06	-50689.1	1005.82	-29754.9	0.000000	0.000000	7.172228	110.996	NaN	0.000000	0.001638	0.001736	28.0812	45.5574	0.001854	24574.1	5.263491	177.287	110.963	1.167173	0.045119	0.044754	110.996	24574.1	0.041732	0.068580	1618.49	85734
528	2.000000	1.170041	7.37022e+06	-50689.1	1005.82	-29754.9	0.000000	0.000000	7.175146	121.12	NaN	0.000000	0.001637	0.001725	28.0811	46.7888	0.001825	25635.2	2.269272	0.031353	118.475	1.169612	0.047621	0.047193	121.12	25635.2	0.044078	0.074990	1615.13	85527.7
528	2.000000	1.172498	7.37022e+06	-50689.1	1005.82	-29754.9	0.000000	0.000000	7.178033	131.552	NaN	0.000000	0.001623	0.001709	28.0809	49.2857	0.001718	28683	5.959766	174.318	129.911	1.172184	0.050079	0.049765	131.552	28683	0.046639	0.082309	1598.27	91342.8
528	2.000000	1.174976	7.37022e+06	-50689.1	1005.82	-29754.9	0.000000	0.000000	7.180938	141.952	NaN	0.000000	0.001610	0.001720	28.0815	50.7635	0.001716	29576	6.049066	-6.079950	139.101	1.174711	0.052556	0.052292	141.952	29576	0.048957	0.089216	1591.11	90467.3
528	2.000000	1.177635	7.37022e+06	-50689.1	1005.82	-29754.9	0.000000	0.000000	7.183985	151.357	NaN	0.000000	0.001654	0.001732	28.0812	54.3176	0.001774	30624.4	6.363946	173.914	156.966	1.177232	0.055216	0.054813	151.357	30624.4	0.051509	0.097136	1558.21	89774.3
528	2.000000	1.180058	7.37022e+06	-50689.1	1005.82	-29754.9	0.000000	0.000000	7.187144	169.28	NaN	0.000000	0.001602	0.001755	28.0811	56.5412	0.001783	31702.8	8.519377	-7.998386	169.731	1.179627	0.057638	0.057208	169.28	31702.8	0.053634	0.103974	1628.09	89827.1
528	2.000000	1.182481	7.37022e+06	-50689.1	1005.82	-29754.9	0.000000	0.000000	7.190138	183.145	NaN	0.000000	0.001605	0.001758	28.081	58.4281	0.001882	31038.6	5.092184	174.964	181.196	1.182186	0.060062	0.059766	183.145	31038.6	0.055636	0.110628	1655.51	85259.7
528	2.000000	1.184977	7.37022e+06	-50689.1	1005.82	-29754.9	0.000000	0.000000	7.193197	196.854	NaN	0.000000	0.001609	0.001757	28.0813	61.1474	0.001809	33798.9	4.860873	-5.279501	192.496	1.184657	0.062558	0.062238	196.854	33798.9	0.058189	0.119396	1648.75	89367.7
528	2.000000	1.187516	7.37022e+06	-50689.1	1005.82	-29754.9	0.000000	0.000000	7.196269	209.824	NaN	0.000000	0.001608	0.001725	28.0809	63.612	0.001832	34714.2	2.736140	176.64	210.652	1.187218	0.065096	0.064798	209.824	34714.2	0.060563	0.127835	1641.36	88706.5
528	2.000000	1.190003	7.37022e+06	-50689.1	1005.82	-29754.9	0.000000	0.000000	7.199503	227.976	NaN	0.000000	0.001627	0.001715	28.0811	65.6725	0.001881	34907.1	4.381691	-4.897404	224.693	1.189587	0.067584	0.067168	227.976	34907.1	0.062686	0.135614	1681.06	86603.2
528	2.000000	1.192422	7.37022e+06	-50689.1	1005.82	-29754.9	0.000000	0.000000	7.202637	245.365	NaN	0.000000	0.001593	0.001679	28.0823	66.6554	0.001728	38562.7	0.792640	178.452	241.105	1.192062	0.070003	0.069643	245.365	38562.7	0.065231	0.145231	1689.48	92451
528	2.000000	1.194967	7.37022e+06	-50689.1	1005.82	-29754.9	0.000000	0.000000	7.205699	257.935	NaN	0.000000	0.001628	0.001708	28.0825	70.7697	0.001801	39286.1	4.755442	-5.938300	254.527	1.194533	0.072548	0.072114	257.935	39286.1	0.067624	0.154557	1668.87	91299.5
528	2.000000	1.197531	7.37022e+06	-50689.1	1005.82	-29754.9	0.000000	0.000000	7.208860	272.455	NaN	0.000000	0.001639	0.001713	28.0819	72.8181	0.001838	39624.2	3.665728	174.618	272.862	1.197198	0.075112	0.074778	272.455	39624.2	0.069955	0.163904	1662.28	89420.9
528	2.000000	1.199943	7.37022e+06	-50689.1	1005.82	-29754.9	0.000000	0.000000	7.211958	289.135	NaN	0.000000	0.001627	0.001725	28.0819	74.5444	0.001782	41832	6.061790	-7.199486	282.981	1.199604	0.077524	0.077185	289.135	41832	0.072340	0.173737	1664.21	91693.1
528	2.000000	1.202451	7.37022e+06	-50689.1	1005.82	-29754.9	0.000000	0.000000	7.215102	304.606	NaN	0.000000	0.001581	0.001734	28.0818	77.4855	0.001795	43174	5.437576	172.05	302.788	1.202263	0.080031	0.079843	304.606	43174	0.074740	0.183902	1656.35	91981.9
528	2.000000	1.204967	7.37022e+06	-50689.1	1005.82	-29754.9	0.000000	0.000000	7.218396	323.522	NaN	0.000000	0.001582	0.001731	28.0821	80.1746	0.001870	42879.6	4.443528	-6.432416	321.121	1.204486	0.082548	0.082067	323.522	42879.6	0.076889	0.193235	1674.25	89121.3
528	2.000000	1.207568	7.37022e+06	-50689.1	1005.82	-29754.9	0.000000	0.000000	7.221703	340.679	NaN	0.000000	0.001566	0.001775	28.082	82.5559	0.001848	44682.5	3.940477	173.766	344.57	1.207133	0.085149	0.084714	340.679	44682.5	0.079430	0.204550	1665.5	90263.1
528	2.000000	1.209986	7.37022e+06	-50689.1	1005.82	-29754.9	0.000000	0.000000	7.225198	366.871	NaN	0.000000	0.001622	0.001764	28.082	83.5005	0.001810	46131.1	4.630505	-6.546394	363.349	1.209539	0.087567	0.087120	366.871	46131.1	0.081602	0.214459	1710.68	91011.3
528	2.000000	1.212357	7.37022e+06	-50689.1	1005.82	-29754.9	0.000000	0.000000	7.228010	377.601	NaN	0.000000	0.001585	0.001762	28.0816	85.0559	0.001798	47313.3	3.205297	173.951	371.552	1.212246	0.089937	0.089827	377.601	47313.3	0.083952	0.225427	1675.05	91044.6
528	2.000000	1.214856	7.37022e+06	-50689.1	1005.82	-29754.9	0.000000	0.000000	7.231617	404.551	NaN	0.000000	0.001630	0.001795	28.082	87.4634	0.001709	51173.2	1.800864	-4.806883	396.05	1.214608	0.092437	0.092189	404.551	51173.2	0.086507	0.237645	1702.33	95907.3
528	2.000000	1.217434	7.37022e+06	-50689.1	1005.82	-29754.9	0.000000	0.000000	7.235029	424.846	NaN	0.000000	0.001563	0.001754	28.0817	91.7139	0.001785	51369.8	6.258695	170.284	422.228	1.217169	0.095014	0.094750	424.846	51369.8	0.088812	0.248920	1706.76	94069.9
528	2.000000	1.219894	7.37022e+06	-50689.1	1005.82	-29754.9	0.000000	0.000000	7.238427	447.625	NaN	0.000000	0.001555	0.001776	28.0819	93.1827	0.001858	50144.6	5.960946	-8.475825	440.748	1.219443	0.097475	0.097024	447.625	50144.6	0.090780	0.258744	1729.99	90066.3
528	2.000000	1.222461	7.37022e+06	-50689.1	1005.82	-29754.9	0.000000	0.000000	7.241492	459.742	NaN	0.000000	0.001579	0.001773	28.0818	94.6774	0.001818	52081.1	5.096289	171.73	459.653	1.222079	0.100042	0.099659	459.742	52081.1	0.093422	0.272207	1688.94	91201.9
528	2.000000	1.224904	7.37022e+06	-50689.1	1005.82	-29754.9	0.000000	0.000000	7.245171	489.808	NaN	0.000000	0.001593	0.001771	28.082	96.9554	0.001776	54603.7	3.760596	-7.505382	483.222	1.224566	0.102484	0.102147	489.808	54603.7	0.095757	0.284374	1722.41	93551.4
528	2.000000	1.227368	7.37022e+06	-50689.1	1005.82	-29754.9	0.000000	0.000000	7.248565	512.43	NaN	0.000000	0.001565	0.001769	28.0806	100.413	0.001830	54865.4	4.033994	172.123	506.042	1.227042	0.104948	0.104622	512.43	54865.4	0.097944	0.295994	1731.22	92136.1