File: remote_trans/data/nanoindenter/0828-1/data/Data_2025-08-06,11h17m57s/2025-07-22_16-23-58_1_1087.txt
2025-07-22, 16:23:58, 1
Index	Phase	Displacement	Time	Pos X	Pos Y	Pos Z	Rot A	Rot B	Piezo Z	Force A	Force B	Gripper	Voltage A	Voltage B	Temperature	Amplitude force	Amplitude pos	Stiffness	Phase shift	Phase excitation	Force A raw	Displacement raw	HMax	HMax raw	Real Force	Real Stiffness	Contact Depth	Area	Hardness	Reduced Mod.
[#]	[#]	[um]	[s]	[um]	[um]	[um]	[m°]	[m°]	[um]	[uN]	[uN]	[V]	[V]	[V]	[°C]	[uN]	[um]	[N/m]	[°]	[°]	[uN]	[um]	[um]	[um]	[uN]	[N/m]	[um]	[um^2]	[MPa]	[MPa]
1087	1.000000	0.002448	7.37568e+06	-54489.1	1055.82	-29743.2	0.000000	0.000000	6.002810	0.062078	NaN	0.000000	0.001645	0.001733	28.0843	0.057994	0.001004	57.7904	-53.2459	-168.594	0.112212	0.001162	-1.213748	-1.215035	0.062078	57.7904	-1.214554	-1.720311E+16	-3.608508E-18	NaN
1087	1.000000	0.012492	7.37568e+06	-54489.1	1055.82	-29743.2	0.000000	0.000000	6.012850	-0.016253	NaN	0.000000	0.001638	0.001675	28.0835	0.100950	0.001351	74.7391	171.26	14.189	0.026030	0.011115	-1.203705	-1.205082	-0.016253	74.7391	-1.203542	-1.225112E+16	1.326637E-18	NaN
1087	1.000000	0.022375	7.37568e+06	-54489.1	1055.82	-29743.2	0.000000	0.000000	6.022734	-0.020266	NaN	0.000000	0.001613	0.001712	28.0839	0.029744	0.001767	16.8285	127.131	-163.895	-0.031820	0.021071	-1.193821	-1.195126	-0.020266	16.8285	-1.192918	-8.828984E+15	2.295352E-18	NaN
1087	1.000000	0.032388	7.37568e+06	-54489.1	1055.82	-29743.2	0.000000	0.000000	6.032749	0.034103	NaN	0.000000	0.001635	0.001718	28.084	0.026420	0.001936	13.6484	119.439	17.5689	0.005457	0.030985	-1.183809	-1.185212	0.034103	13.6484	-1.185683	-7.063215E+15	-4.828224E-18	NaN
1087	1.000000	0.042400	7.37568e+06	-54489.1	1055.82	-29743.2	0.000000	0.000000	6.042758	-0.021206	NaN	0.000000	0.001602	0.001719	28.0828	0.076115	0.001953	38.9718	103.472	-168.107	0.011152	0.041068	-1.173797	-1.175129	-0.021206	38.9718	-1.173389	-4.833926E+15	4.386812E-18	NaN
1087	1.000000	0.052393	7.37569e+06	-54489.1	1055.82	-29743.2	0.000000	0.000000	6.052754	0.035122	NaN	0.000000	0.001611	0.001690	28.0826	0.040819	0.001871	21.8196	101.45	9.034603	-0.013335	0.051020	-1.163804	-1.165177	0.035122	21.8196	-1.165011	-3.732752E+15	-9.409019E-18	NaN
1087	1.000000	0.062382	7.37569e+06	-54489.1	1055.82	-29743.2	0.000000	0.000000	6.062741	-0.001105	NaN	0.000000	0.001576	0.001702	28.0824	0.095273	0.002009	47.418	0.847708	-166.388	0.014674	0.061118	-1.153815	-1.155079	-0.001105	47.418	-1.153798	-2.640775E+15	4.183401E-19	NaN
1087	1.000000	0.072396	7.37569e+06	-54489.1	1055.82	-29743.2	0.000000	0.000000	6.072756	-0.003257	NaN	0.000000	0.001572	0.001685	28.0827	0.081598	0.002047	39.8637	-90.8462	12.3741	0.015268	0.071036	-1.143800	-1.145161	-0.003257	39.8637	-1.143739	-1.935876E+15	1.682648E-18	NaN
1087	1.000000	0.082408	7.37569e+06	-54489.1	1055.82	-29743.2	0.000000	0.000000	6.082767	0.006698	NaN	0.000000	0.001572	0.001696	28.0828	0.050070	0.001983	25.255	158.731	-169.997	-0.062602	0.081087	-1.133789	-1.135109	0.006698	25.255	-1.133988	-1.432566E+15	-4.675782E-18	NaN
1087	1.000000	0.092399	7.37569e+06	-54489.1	1055.82	-29743.2	0.000000	0.000000	6.092756	-0.038848	NaN	0.000000	0.001567	0.001632	28.0826	0.098474	0.001965	50.1017	110.973	15.0382	-0.016937	0.091020	-1.123798	-1.125177	-0.038848	50.1017	-1.123217	-1.027138E+15	3.782127E-17	NaN
1087	1.000000	0.102401	7.37569e+06	-54489.1	1055.82	-29743.2	0.000000	0.000000	6.102762	0.037359	NaN	0.000000	0.001607	0.001704	28.0826	0.054336	0.001854	29.3009	-2.950417	-165.722	-0.039623	0.101098	-1.113796	-1.115099	0.037359	29.3009	-1.114753	-7.907941E+14	-4.724274E-17	NaN
1087	1.000000	0.112426	7.37569e+06	-54489.1	1055.82	-29743.2	0.000000	0.000000	6.112788	0.064576	NaN	0.000000	0.001585	0.001734	28.0828	0.061899	0.002062	30.0128	125.566	10.5909	0.094500	0.111053	-1.103771	-1.105144	0.064576	30.0128	-1.105384	-5.920236E+14	-1.090760E-16	NaN
1087	1.000000	0.122415	7.37569e+06	-54489.1	1055.82	-29743.2	0.000000	0.000000	6.122770	-0.111691	NaN	0.000000	0.001586	0.001670	28.0828	0.055705	0.001930	28.8695	49.8794	-166.979	-0.088531	0.121115	-1.093782	-1.095082	-0.111691	28.8695	-1.090880	-3.781220E+14	2.953827E-16	NaN
1087	1.000000	0.132428	7.37569e+06	-54489.1	1055.82	-29743.2	0.000000	0.000000	6.132789	0.043662	NaN	0.000000	0.001602	0.001670	28.0828	0.094369	0.002004	47.0898	-1.302891	16.1001	0.046924	0.131074	-1.083769	-1.085123	0.043662	47.0898	-1.084464	-3.100800E+14	-1.408082E-16	NaN
1087	1.000000	0.142437	7.37569e+06	-54489.1	1055.82	-29743.2	0.000000	0.000000	6.142796	-0.002300	NaN	0.000000	0.001592	0.001681	28.0829	0.048581	0.001959	24.8021	-122.991	-167.538	0.045087	0.141109	-1.073760	-1.075088	-0.002300	24.8021	-1.073690	-2.222123E+14	1.035243E-17	NaN
1087	1.000000	0.152419	7.37569e+06	-54489.1	1055.82	-29743.2	0.000000	0.000000	6.152778	0.012712	NaN	0.000000	0.001569	0.001712	28.083	0.114525	0.001952	58.6735	-112.365	12.2118	0.023425	0.151051	-1.063778	-1.065146	0.012712	58.6735	-1.063941	-1.643529E+14	-7.734590E-17	NaN
1087	1.000000	0.162423	7.37569e+06	-54489.1	1055.82	-29743.2	0.000000	0.000000	6.162781	-0.026012	NaN	0.000000	0.001551	0.001675	28.0829	0.014984	0.002011	7.451365	149.23	-162.462	0.026936	0.161147	-1.053774	-1.055050	-0.026012	7.451365	-1.051156	-1.106507E+14	2.350832E-16	NaN
1087	1.000000	0.172442	7.37569e+06	-54489.1	1055.82	-29743.2	0.000000	0.000000	6.172801	-0.011544	NaN	0.000000	0.001559	0.001683	28.0826	0.028892	0.002008	14.3915	-98.1411	13.8745	0.031362	0.171082	-1.043755	-1.045115	-0.011544	14.3915	-1.043153	-8.636985E+13	1.336631E-16	NaN
1087	1.000000	0.182451	7.37569e+06	-54489.1	1055.82	-29743.2	0.000000	0.000000	6.182811	-0.000521	NaN	0.000000	0.001574	0.001679	28.0842	0.079665	0.002177	36.6007	-86.781	-165.334	-0.034529	0.181113	-1.033746	-1.035084	-0.000521	36.6007	-1.033735	-6.452306E+13	8.081728E-18	NaN
1087	1.000000	0.192432	7.37569e+06	-54489.1	1055.82	-29743.2	0.000000	0.000000	6.192792	0.018198	NaN	0.000000	0.001559	0.001689	28.0842	0.035091	0.002021	17.3599	-24.0817	15.1399	0.057114	0.191101	-1.023765	-1.025095	0.018198	17.3599	-1.024551	-4.854881E+13	-3.748444E-16	NaN
1087	1.000000	0.202455	7.37569e+06	-54489.1	1055.82	-29743.2	0.000000	0.000000	6.202816	0.037035	NaN	0.000000	0.001600	0.001620	28.084	0.070630	0.002048	34.4836	-119.114	-163.1	0.089646	0.201165	-1.013742	-1.015032	0.037035	34.4836	-1.014547	-3.561084E+13	-1.039983E-15	NaN
1087	1.000000	0.212455	7.37569e+06	-54489.1	1055.82	-29743.2	0.000000	0.000000	6.212817	0.059330	NaN	0.000000	0.001562	0.001642	28.084	0.104257	0.002082	50.0641	89.0836	15.973	0.072000	0.211090	-1.003742	-1.005107	0.059330	50.0641	-1.004631	-2.618853E+13	-2.265491E-15	NaN
1087	1.000000	0.222471	7.37569e+06	-54489.1	1055.82	-29743.2	0.000000	0.000000	6.222831	0.013855	NaN	0.000000	0.001564	0.001673	28.0844	0.049172	0.001995	24.6484	73.714	-166.684	-0.022399	0.221159	-0.993726	-0.995038	0.013855	24.6484	-0.994148	-1.892204E+13	-7.322280E-16	NaN
1087	1.000000	0.232458	7.37569e+06	-54489.1	1055.82	-29743.2	0.000000	0.000000	6.232815	-0.038572	NaN	0.000000	0.001560	0.001667	28.0838	0.058705	0.002113	27.7886	-29.0849	15.7225	-0.040348	0.231097	-0.983739	-0.985099	-0.038572	27.7886	-0.982698	-1.326666E+13	2.907420E-15	NaN
1087	1.000000	0.242451	7.37569e+06	-54489.1	1055.82	-29743.2	0.000000	0.000000	6.242809	-0.030498	NaN	0.000000	0.001559	0.001668	28.0839	0.103754	0.001938	53.5466	137.159	-166.012	0.043403	0.241123	-0.973745	-0.975074	-0.030498	53.5466	-0.973318	-9.917036E+12	3.075272E-15	NaN
1087	1.000000	0.252488	7.37569e+06	-54489.1	1055.82	-29743.2	0.000000	0.000000	6.252850	0.070183	NaN	0.000000	0.001559	0.001636	28.0841	0.085057	0.001832	46.4224	73.1549	12.7583	0.048627	0.251107	-0.963709	-0.965090	0.070183	46.4224	-0.964843	-7.623525E+12	-9.206113E-15	NaN
1087	1.000000	0.262491	7.37569e+06	-54489.1	1055.82	-29743.2	0.000000	0.000000	6.262853	0.056603	NaN	0.000000	0.001582	0.001672	28.0843	0.011720	0.001908	6.141548	-112.042	-164.215	-0.008242	0.261235	-0.953706	-0.954962	0.056603	6.141548	-0.960618	-6.686515E+12	-8.465254E-15	NaN
1087	1.000000	0.272487	7.37569e+06	-54489.1	1055.82	-29743.2	0.000000	0.000000	6.272848	0.062141	NaN	0.000000	0.001618	0.001660	28.084	0.038915	0.001966	19.7974	153.009	12.6216	0.048554	0.271104	-0.943710	-0.945093	0.062141	19.7974	-0.946065	-4.255471E+12	-1.460273E-14	NaN
1087	1.000000	0.282500	7.37569e+06	-54489.1	1055.82	-29743.2	0.000000	0.000000	6.282858	-0.031642	NaN	0.000000	0.001588	0.001644	28.0843	0.131438	0.001981	66.3417	-63.521	-167.104	0.035891	0.281132	-0.933697	-0.935065	-0.031642	66.3417	-0.933339	-2.865908E+12	1.104087E-14	NaN
1087	1.000000	0.292491	7.37569e+06	-54489.1	1055.82	-29743.2	0.000000	0.000000	6.292852	0.037863	NaN	0.000000	0.001582	0.001642	28.0843	0.019684	0.002099	9.377738	76.293	13.9725	0.034659	0.291095	-0.923706	-0.925102	0.037863	9.377738	-0.926734	-2.334091E+12	-1.622185E-14	NaN
1087	1.000000	0.302525	7.37569e+06	-54489.1	1055.82	-29743.2	0.000000	0.000000	6.302887	0.046877	NaN	0.000000	0.001597	0.001645	28.0844	0.078904	0.001989	39.6739	127.089	-168.877	0.035759	0.301146	-0.913672	-0.915051	0.046877	39.6739	-0.914558	-1.598524E+12	-2.932497E-14	NaN
1087	1.000000	0.312496	7.37569e+06	-54489.1	1055.82	-29743.2	0.000000	0.000000	6.312854	-0.027522	NaN	0.000000	0.001569	0.001642	28.0833	0.026100	0.001961	13.3063	4.598956	14.9455	-0.028814	0.311143	-0.903701	-0.905054	-0.027522	13.3063	-0.902150	-1.086701E+12	2.532619E-14	NaN
1087	1.000000	0.322498	7.37569e+06	-54489.1	1055.82	-29743.2	0.000000	0.000000	6.322859	0.024653	NaN	0.000000	0.001601	0.001656	28.083	0.072327	0.001978	36.5643	-42.8289	-164.601	-0.025316	0.321208	-0.893698	-0.894989	0.024653	36.5643	-0.894204	-8.486752E+11	-2.904846E-14	NaN
1087	1.000000	0.332506	7.37569e+06	-54489.1	1055.82	-29743.2	0.000000	0.000000	6.332868	0.068566	NaN	0.000000	0.001573	0.001645	28.0833	0.035008	0.002005	17.464	35.9261	14.8694	0.003200	0.331137	-0.883691	-0.885060	0.068566	17.464	-0.886635	-6.705479E+11	-1.022542E-13	NaN
1087	1.000000	0.342502	7.37569e+06	-54489.1	1055.82	-29743.2	0.000000	0.000000	6.342862	0.030909	NaN	0.000000	0.001591	0.001644	28.0835	0.085449	0.001909	44.7653	-1.202940	-164.799	0.044703	0.341204	-0.873695	-0.874993	0.030909	44.7653	-0.874213	-4.554505E+11	-6.786558E-14	NaN
1087	1.000000	0.352523	7.37569e+06	-54489.1	1055.82	-29743.2	0.000000	0.000000	6.352883	0.029089	NaN	0.000000	0.001586	0.001690	28.0832	0.055971	0.001939	28.8634	-101.555	12.5279	0.019847	0.351147	-0.863674	-0.865050	0.029089	28.8634	-0.864430	-3.357968E+11	-8.662735E-14	NaN
1087	1.000000	0.362514	7.37569e+06	-54489.1	1055.82	-29743.2	0.000000	0.000000	6.362875	0.029026	NaN	0.000000	0.001583	0.001668	28.0833	0.029681	0.002043	14.5298	159.256	-165.485	-0.007856	0.361239	-0.853683	-0.854957	0.029026	14.5298	-0.855181	-2.517034E+11	-1.153201E-13	NaN
1087	1.000000	0.372519	7.37569e+06	-54489.1	1055.82	-29743.2	0.000000	0.000000	6.372879	0.023241	NaN	0.000000	0.001606	0.001642	28.0832	0.045806	0.002061	22.2216	43.957	16.7749	0.066278	0.371159	-0.843678	-0.845037	0.023241	22.2216	-0.844463	-1.801967E+11	-1.289738E-13	NaN
1087	1.000000	0.382551	7.37569e+06	-54489.1	1055.82	-29743.2	0.000000	0.000000	6.382911	0.014842	NaN	0.000000	0.001613	0.001681	28.0833	0.086292	0.001966	43.903	152.217	-168.447	-0.049001	0.381193	-0.833646	-0.835004	0.014842	43.903	-0.833899	-1.296084E+11	-1.145104E-13	NaN
1087	1.000000	0.392540	7.37569e+06	-54489.1	1055.82	-29743.2	0.000000	0.000000	6.392899	-0.005099	NaN	0.000000	0.001624	0.001642	28.083	0.044566	0.001944	22.9211	-23.108	13.531	-0.013946	0.391181	-0.823657	-0.825016	-0.005099	22.9211	-0.823490	-9.365632E+10	5.444318E-14	NaN
1087	1.000000	0.402526	7.37569e+06	-54489.1	1055.82	-29743.2	0.000000	0.000000	6.402886	0.011330	NaN	0.000000	0.001587	0.001659	28.0832	0.054133	0.001933	27.9982	83.9961	-163.275	0.075190	0.401209	-0.813671	-0.814988	0.011330	27.9982	-0.813974	-6.958041E+10	-1.628303E-13	NaN
1087	1.000000	0.412544	7.37569e+06	-54489.1	1055.82	-29743.2	0.000000	0.000000	6.412905	0.052446	NaN	0.000000	0.001564	0.001658	28.083	0.028808	0.002006	14.3603	173.899	15.7154	0.128036	0.411174	-0.803653	-0.805023	0.052446	14.3603	-0.806392	-5.490586E+10	-9.551929E-13	NaN
1087	1.000000	0.422577	7.37569e+06	-54489.1	1055.82	-29743.2	0.000000	0.000000	6.422939	0.072162	NaN	0.000000	0.001544	0.001637	28.0833	0.087970	0.002048	42.9487	-17.0557	-164.604	0.110678	0.421239	-0.793620	-0.794957	0.072162	42.9487	-0.794880	-3.831366E+10	-1.883448E-12	NaN
1087	1.000000	0.432523	7.37569e+06	-54489.1	1055.82	-29743.2	0.000000	0.000000	6.432883	0.019891	NaN	0.000000	0.001583	0.001683	28.0828	0.072139	0.001972	36.5791	21.8548	16.6018	0.020741	0.431177	-0.783674	-0.785020	0.019891	36.5791	-0.784082	-2.733337E+10	-7.277030E-13	NaN
1087	1.000000	0.442557	7.37569e+06	-54489.1	1055.82	-29743.2	0.000000	0.000000	6.442916	0.009046	NaN	0.000000	0.001586	0.001630	28.0829	0.073655	0.001973	37.3302	98.3811	-161.524	0.086816	0.441261	-0.773640	-0.774936	0.009046	37.3302	-0.773822	-1.982741E+10	-4.562611E-13	NaN
1087	1.000000	0.452544	7.37569e+06	-54489.1	1055.82	-29743.2	0.000000	0.000000	6.452901	-0.034910	NaN	0.000000	0.001578	0.001678	28.0843	0.114245	0.002109	54.1599	165.367	13.8512	-0.044970	0.451233	-0.763653	-0.764964	-0.034910	54.1599	-0.763170	-1.420436E+10	2.457715E-12	NaN
1087	1.000000	0.462574	7.37569e+06	-54489.1	1055.82	-29743.2	0.000000	0.000000	6.462935	0.043919	NaN	0.000000	0.001594	0.001701	28.084	0.082619	0.001915	43.133	-133.79	-169.775	0.045461	0.461276	-0.753623	-0.754921	0.043919	43.133	-0.754387	-1.078765E+10	-4.071257E-12	NaN
1087	1.000000	0.472554	7.37569e+06	-54489.1	1055.82	-29743.2	0.000000	0.000000	6.472916	0.073576	NaN	0.000000	0.001543	0.001664	28.0841	0.134971	0.001951	69.1973	-135.103	11.5674	0.050348	0.471214	-0.743643	-0.744983	0.073576	69.1973	-0.744441	-7.898242E+9	-9.315428E-12	NaN
1087	1.000000	0.482578	7.37569e+06	-54489.1	1055.82	-29743.2	0.000000	0.000000	6.482936	-0.020446	NaN	0.000000	0.001603	0.001688	28.0837	0.114625	0.002124	53.9782	-110.295	-167.563	0.002439	0.481307	-0.733619	-0.734890	-0.020446	53.9782	-0.733335	-5.575111E+9	3.667338E-12	NaN
1087	1.000000	0.492550	7.37569e+06	-54489.1	1055.82	-29743.2	0.000000	0.000000	6.492911	0.042167	NaN	0.000000	0.001584	0.001750	28.0843	0.071815	0.001976	36.3501	29.523	15.3226	0.067631	0.491174	-0.723647	-0.725023	0.042167	36.3501	-0.724517	-4.227386E+9	-9.974706E-12	NaN
1087	1.000000	0.502553	7.37569e+06	-54489.1	1055.82	-29743.2	0.000000	0.000000	6.502914	0.036124	NaN	0.000000	0.001578	0.001748	28.0851	0.064150	0.001863	34.4282	-156.962	-165.058	0.060750	0.501266	-0.713644	-0.714931	0.036124	34.4282	-0.714431	-3.079662E+9	-1.172995E-11	NaN
1087	1.000000	0.512590	7.37569e+06	-54489.1	1055.82	-29743.2	0.000000	0.000000	6.512948	-0.035758	NaN	0.000000	0.001575	0.001754	28.084	0.030992	0.001994	15.5446	6.354016	13.2179	-0.010179	0.511232	-0.703607	-0.704965	-0.035758	15.5446	-0.701882	-2.075997E+9	1.722472E-11	NaN
1087	1.000000	0.522606	7.37569e+06	-54489.1	1055.82	-29743.2	0.000000	0.000000	6.522964	-0.039764	NaN	0.000000	0.001546	0.001743	28.0843	0.073840	0.001988	37.1426	92.3066	-164.055	0.004332	0.521299	-0.693590	-0.694898	-0.039764	37.1426	-0.692788	-1.559586E+9	2.549645E-11	NaN
1087	1.000000	0.532601	7.37569e+06	-54489.1	1055.82	-29743.2	0.000000	0.000000	6.532960	-0.002229	NaN	0.000000	0.001565	0.001761	28.0843	0.120272	0.001969	61.0687	167.699	12.5029	0.020179	0.531200	-0.683596	-0.684997	-0.002229	61.0687	-0.683569	-1.166834E+9	1.910197E-12	NaN
1087	1.000000	0.542588	7.37569e+06	-54489.1	1055.82	-29743.2	0.000000	0.000000	6.542946	-0.014154	NaN	0.000000	0.001575	0.001718	28.0845	0.091673	0.002024	45.3034	29.3761	-164.519	0.007984	0.541322	-0.673609	-0.674875	-0.014154	45.3034	-0.673375	-8.463992E+8	1.672302E-11	NaN
1087	1.000000	0.552607	7.37569e+06	-54489.1	1055.82	-29743.2	0.000000	0.000000	6.552966	-0.022432	NaN	0.000000	0.001613	0.001746	28.0843	0.040093	0.001961	20.4449	99.8099	15.4477	0.048645	0.551296	-0.663589	-0.664901	-0.022432	20.4449	-0.662767	-6.058422E+8	3.702560E-11	NaN
1087	1.000000	0.562602	7.37569e+06	-54489.1	1055.82	-29743.2	0.000000	0.000000	6.562962	0.004695	NaN	0.000000	0.001616	0.001747	28.0845	0.108576	0.001849	58.7186	-35.5409	-165.004	0.079233	0.561345	-0.653595	-0.654852	0.004695	58.7186	-0.653655	-4.544970E+8	-1.033024E-11	NaN
1087	1.000000	0.572603	7.37569e+06	-54489.1	1055.82	-29743.2	0.000000	0.000000	6.572962	-0.000701	NaN	0.000000	0.001582	0.001744	28.0845	0.030893	0.001934	15.9736	-133.508	12.1105	0.041512	0.571318	-0.643594	-0.644879	-0.000701	15.9736	-0.643561	-3.304757E+8	2.120058E-12	NaN
1087	1.000000	0.582602	7.37569e+06	-54489.1	1055.82	-29743.2	0.000000	0.000000	6.582959	-0.051806	NaN	0.000000	0.001597	0.001765	28.0845	0.070091	0.002058	34.0616	160.478	-163.806	0.015219	0.581319	-0.633595	-0.634878	-0.051806	34.0616	-0.632454	-2.326597E+8	2.226679E-10	NaN
1087	1.000000	0.592608	7.37569e+06	-54489.1	1055.82	-29743.2	0.000000	0.000000	6.592967	0.009335	NaN	0.000000	0.001595	0.001750	28.083	0.038765	0.001983	19.5512	-139.691	15.586	0.035884	0.591290	-0.623589	-0.624907	0.009335	19.5512	-0.623947	-1.777790E+8	-5.250711E-11	NaN
1087	1.000000	0.602617	7.37569e+06	-54489.1	1055.82	-29743.2	0.000000	0.000000	6.602976	0.003210	NaN	0.000000	0.001557	0.001741	28.0833	0.054221	0.002075	26.1297	-77.9509	-166.199	-0.010817	0.601299	-0.613580	-0.614898	0.003210	26.1297	-0.613673	-1.284203E+8	-2.499632E-11	NaN
1087	1.000000	0.612614	7.37569e+06	-54489.1	1055.82	-29743.2	0.000000	0.000000	6.612976	0.077032	NaN	0.000000	0.001574	0.001719	28.0834	0.089465	0.002067	43.283	42.27	15.0414	0.063186	0.611320	-0.603583	-0.604877	0.077032	43.283	-0.604918	-9.731435E+7	-7.915795E-10	NaN
1087	1.000000	0.622623	7.37569e+06	-54489.1	1055.82	-29743.2	0.000000	0.000000	6.622984	0.030094	NaN	0.000000	0.001538	0.001741	28.0835	0.036056	0.002067	17.443	29.3003	-164.988	0.073355	0.621362	-0.593574	-0.594835	0.030094	17.443	-0.594868	-7.075510E+7	-4.253245E-10	NaN
1087	1.000000	0.632637	7.37569e+06	-54489.1	1055.82	-29743.2	0.000000	0.000000	6.632995	-0.032036	NaN	0.000000	0.001569	0.001681	28.083	0.095476	0.001955	48.8321	-68.6223	13.9483	-0.017159	0.631344	-0.583560	-0.584853	-0.032036	48.8321	-0.583068	-4.864799E+7	6.585217E-10	NaN
1087	1.000000	0.642647	7.37569e+06	-54489.1	1055.82	-29743.2	0.000000	0.000000	6.643009	0.059865	NaN	0.000000	0.001555	0.001752	28.0833	0.026581	0.001950	13.6302	-113.983	-166.912	0.170701	0.641316	-0.573550	-0.574881	0.059865	13.6302	-0.576844	-3.991691E+7	-1.499736E-9	NaN
1087	1.000000	0.652656	7.37569e+06	-54489.1	1055.82	-29743.2	0.000000	0.000000	6.653012	-0.061989	NaN	0.000000	0.001590	0.001720	28.0831	0.036496	0.001996	18.2805	9.402454	13.7448	-0.071986	0.651194	-0.563541	-0.565003	-0.061989	18.2805	-0.560998	-2.410919E+7	2.571158E-9	NaN
1087	1.000000	0.662658	7.37569e+06	-54489.1	1055.82	-29743.2	0.000000	0.000000	6.663017	-0.014210	NaN	0.000000	0.001565	0.001745	28.0829	0.059821	0.002014	29.7003	-178.717	-162.815	-0.027029	0.661314	-0.553539	-0.554883	-0.014210	29.7003	-0.553180	-1.879303E+7	7.561396E-10	NaN
1087	1.000000	0.672615	7.37569e+06	-54489.1	1055.82	-29743.2	0.000000	0.000000	6.672974	-0.011331	NaN	0.000000	0.001555	0.001786	28.0828	0.093965	0.002118	44.3717	-11.7753	13.5098	-0.051094	0.671306	-0.543582	-0.544891	-0.011331	44.3717	-0.543390	-1.375207E+7	8.239404E-10	NaN
1087	1.000000	0.682658	7.37569e+06	-54489.1	1055.82	-29743.2	0.000000	0.000000	6.683021	0.090785	NaN	0.000000	0.001531	0.001772	28.0832	0.068780	0.001982	34.7091	-124.798	-166.504	0.028351	0.681410	-0.533539	-0.534787	0.090785	34.7091	-0.535501	-1.068906E+7	-8.493275E-9	NaN
1087	1.000000	0.692664	7.37569e+06	-54489.1	1055.82	-29743.2	0.000000	0.000000	6.693023	-0.023965	NaN	0.000000	0.001573	0.001704	28.0827	0.065905	0.001984	33.2198	17.4658	12.7321	-0.054113	0.691267	-0.523533	-0.524930	-0.023965	33.2198	-0.522992	-7.16465e+06	3.344869E-9	NaN
1087	1.000000	0.702681	7.37569e+06	-54489.1	1055.82	-29743.2	0.000000	0.000000	6.703040	-0.005060	NaN	0.000000	0.001600	0.001723	28.0829	0.042904	0.002072	20.7051	-108.031	-165.322	-0.004703	0.701378	-0.513516	-0.514819	-0.005060	20.7051	-0.513332	-5.25799e+06	9.623019E-10	NaN
1087	1.000000	0.712673	7.37569e+06	-54489.1	1055.82	-29743.2	0.000000	0.000000	6.713032	-0.021162	NaN	0.000000	0.001607	0.001714	28.0828	0.009422	0.002066	4.559972	-12.1714	15.8057	-0.022155	0.711273	-0.503524	-0.504924	-0.021162	4.559972	-0.500043	-3.43254e+06	6.165254E-9	NaN
1087	1.000000	0.722683	7.37569e+06	-54489.1	1055.82	-29743.2	0.000000	0.000000	6.723042	-0.002858	NaN	0.000000	0.001679	0.001752	28.0842	0.012079	0.002009	6.013555	151.025	-162.924	0.017572	0.721367	-0.493514	-0.494830	-0.002858	6.013555	-0.493158	-2.7511e+06	1.038822E-9	NaN
1087	1.000000	0.732685	7.37569e+06	-54489.1	1055.82	-29743.2	0.000000	0.000000	6.733048	0.090287	NaN	0.000000	0.001649	0.001713	28.084	0.097501	0.001853	52.6231	79.0739	10.2962	0.002341	0.731321	-0.483512	-0.484876	0.090287	52.6231	-0.484798	-2.10219e+06	-4.294924E-8	NaN
1087	1.000000	0.742660	7.37569e+06	-54489.1	1055.82	-29743.2	0.000000	0.000000	6.743020	0.020872	NaN	0.000000	0.001601	0.001738	28.084	0.066778	0.001838	36.3409	-41.3139	-164.682	2.215866E-6	0.741402	-0.473537	-0.474795	0.020872	36.3409	-0.473968	-1.48263e+06	-1.407786E-8	NaN
1087	1.000000	0.752677	7.37569e+06	-54489.1	1055.82	-29743.2	0.000000	0.000000	6.753034	-0.048036	NaN	0.000000	0.001626	0.001732	28.0839	0.034330	0.001921	17.8667	-133.096	16.1774	0.025393	0.751350	-0.463520	-0.464846	-0.048036	17.8667	-0.461503	-991159	4.846442E-8	NaN
1087	1.000000	0.762698	7.37569e+06	-54489.1	1055.82	-29743.2	0.000000	0.000000	6.763057	0.003059	NaN	0.000000	0.001640	0.001716	28.084	0.078640	0.002068	38.0319	-37.5339	-165.333	0.024733	0.761368	-0.453499	-0.454829	0.003059	38.0319	-0.453560	-766394	-3.990987E-9	NaN
1087	1.000000	0.772705	7.37569e+06	-54489.1	1055.82	-29743.2	0.000000	0.000000	6.773066	0.061125	NaN	0.000000	0.001685	0.001720	28.0842	0.070993	0.001941	36.5834	49.4592	15.88	-0.014075	0.771399	-0.443492	-0.444797	0.061125	36.5834	-0.444745	-575842	-1.061481E-7	NaN
1087	1.000000	0.782711	7.37569e+06	-54489.1	1055.82	-29743.2	0.000000	0.000000	6.783070	0.013756	NaN	0.000000	0.001612	0.001728	28.0842	0.050404	0.001882	26.7797	-79.8971	-165.773	0.027390	0.781371	-0.433486	-0.434826	0.013756	26.7797	-0.433872	-404396	-3.401676E-8	NaN
1087	1.000000	0.792668	7.37569e+06	-54489.1	1055.82	-29743.2	0.000000	0.000000	6.793028	-0.000941	NaN	0.000000	0.001622	0.001731	28.0844	0.070320	0.001908	36.8476	-102.3	12.4522	-0.052728	0.791328	-0.423529	-0.424869	-0.000941	36.8476	-0.423509	-288512	3.262521E-9	NaN
1087	1.000000	0.802703	7.37569e+06	-54489.1	1055.82	-29743.2	0.000000	0.000000	6.803061	-0.019534	NaN	0.000000	0.001617	0.001757	28.0842	0.082841	0.001963	42.2061	96.3253	-165.546	-0.000171	0.801427	-0.413494	-0.414770	-0.019534	42.2061	-0.413147	-205651	9.498849E-8	NaN
1087	1.000000	0.812772	7.37569e+06	-54489.1	1055.82	-29743.2	0.000000	0.000000	6.813132	0.020042	NaN	0.000000	0.001613	0.001767	28.0843	0.078543	0.002029	38.713	-120.175	15.8981	-0.087338	0.811320	-0.403425	-0.404877	0.020042	38.713	-0.403813	-151476	-1.323139E-7	NaN
1087	1.000000	0.822714	7.37569e+06	-54489.1	1055.82	-29743.2	0.000000	0.000000	6.823072	-0.037457	NaN	0.000000	0.001677	0.001674	28.0843	0.035824	0.001940	18.4698	-38.8688	-166.468	-0.043480	0.821405	-0.393483	-0.394792	-0.037457	18.4698	-0.391962	-102616	3.650236E-7	NaN
1087	1.000000	0.832697	7.37569e+06	-54489.1	1055.82	-29743.2	0.000000	0.000000	6.833059	0.071739	NaN	0.000000	0.001614	0.001704	28.0843	0.155244	0.001916	81.0308	170.521	14.8458	0.081152	0.831353	-0.383500	-0.384844	0.071739	81.0308	-0.384164	-79360.6	-9.039638E-7	NaN
1087	1.000000	0.842744	7.37569e+06	-54489.1	1055.82	-29743.2	0.000000	0.000000	6.843104	0.026481	NaN	0.000000	0.001651	0.001723	28.0841	0.047007	0.002077	22.6318	140.176	-161.27	0.028698	0.841399	-0.373453	-0.374798	0.026481	22.6318	-0.374331	-57338.4	-4.618399E-7	NaN
1087	1.000000	0.852721	7.37569e+06	-54489.1	1055.82	-29743.2	0.000000	0.000000	6.853080	-0.011410	NaN	0.000000	0.001611	0.001734	28.0843	0.049689	0.001943	25.5737	-41.7633	16.3942	-0.082931	0.851333	-0.363476	-0.364864	-0.011410	25.5737	-0.363141	-39557.2	2.884438E-7	NaN
1087	1.000000	0.862741	7.37569e+06	-54489.1	1055.82	-29743.2	0.000000	0.000000	6.863103	0.063586	NaN	0.000000	0.001608	0.001731	28.083	0.112622	0.001931	58.3082	-91.5574	-165.061	-0.015044	0.861406	-0.353456	-0.354791	0.063586	58.3082	-0.354274	-29442.6	-2.159672E-6	NaN
1087	1.000000	0.872721	7.37569e+06	-54489.1	1055.82	-29743.2	0.000000	0.000000	6.873079	-0.019699	NaN	0.000000	0.001628	0.001729	28.083	0.072888	0.002200	33.132	73.7351	14.5402	-0.003322	0.871340	-0.343476	-0.344857	-0.019699	33.132	-0.343030	-20216.2	9.744046E-7	NaN
1087	1.000000	0.882721	7.37569e+06	-54489.1	1055.82	-29743.2	0.000000	0.000000	6.883079	-0.032641	NaN	0.000000	0.001656	0.001730	28.083	0.085562	0.001916	44.6673	-47.5282	-170.183	-0.031046	0.881404	-0.333476	-0.334793	-0.032641	44.6673	-0.332928	-14398	2.267068E-6	NaN
1087	1.000000	0.892731	7.37569e+06	-54489.1	1055.82	-29743.2	0.000000	0.000000	6.893091	0.029106	NaN	0.000000	0.001628	0.001760	28.0832	0.010846	0.001928	5.625040	-21.1108	13.8381	-0.012164	0.891429	-0.323466	-0.324768	0.029106	5.625040	-0.327347	-11928.1	-2.440095E-6	NaN
1087	1.000000	0.902732	7.37569e+06	-54489.1	1055.82	-29743.2	0.000000	0.000000	6.903092	-0.003578	NaN	0.000000	0.001634	0.001741	28.083	0.049935	0.001943	25.6943	157.788	-162.922	0.002969	0.901402	-0.313464	-0.314795	-0.003578	25.6943	-0.313360	-7425.65	4.818191E-7	NaN
1087	1.000000	0.912742	7.37569e+06	-54489.1	1055.82	-29743.2	0.000000	0.000000	6.913103	0.040852	NaN	0.000000	0.001631	0.001717	28.083	0.131071	0.001992	65.8146	111.133	16.9606	0.113279	0.911386	-0.303455	-0.304811	0.040852	65.8146	-0.303920	-5381.73	-7.590886E-6	NaN
1087	1.000000	0.922762	7.37569e+06	-54489.1	1055.82	-29743.2	0.000000	0.000000	6.923122	0.009013	NaN	0.000000	0.001606	0.001762	28.0829	0.060961	0.001948	31.296	-102.282	-165.409	0.068535	0.921449	-0.293435	-0.294748	0.009013	31.296	-0.293651	-3783.83	-2.382036E-6	NaN
1087	1.000000	0.932772	7.37569e+06	-54489.1	1055.82	-29743.2	0.000000	0.000000	6.933132	0.003927	NaN	0.000000	0.001603	0.001733	28.083	0.077002	0.002077	37.0764	75.4451	19.0368	0.025534	0.931398	-0.283424	-0.284799	0.003927	37.0764	-0.283504	-2665.42	-1.473439E-6	NaN
1087	1.000000	0.942769	7.37569e+06	-54489.1	1055.82	-29743.2	0.000000	0.000000	6.943126	-0.067119	NaN	0.000000	0.001582	0.001745	28.083	0.091453	0.002057	44.4636	44.7245	-166.41	-0.007121	0.941437	-0.273428	-0.274760	-0.067119	44.4636	-0.272296	-1804.72	3.719085E-5	NaN
1087	1.000000	0.952750	7.37569e+06	-54489.1	1055.82	-29743.2	0.000000	0.000000	6.953108	-0.033674	NaN	0.000000	0.001588	0.001710	28.0829	0.099441	0.001964	50.6334	-80.4115	12.779	0.012850	0.951401	-0.263446	-0.264796	-0.033674	50.6334	-0.262948	-1300.28	2.589763E-5	NaN
1087	1.000000	0.962770	7.37569e+06	-54489.1	1055.82	-29743.2	0.000000	0.000000	6.963127	-0.041249	NaN	0.000000	0.001540	0.001745	28.0828	0.124935	0.001941	64.3743	124.615	-164.94	-0.097001	0.961429	-0.253427	-0.254767	-0.041249	64.3743	-0.252947	-913.015	4.517934E-5	NaN
1087	1.000000	0.972749	7.37569e+06	-54489.1	1055.82	-29743.2	0.000000	0.000000	6.973110	0.041290	NaN	0.000000	0.001566	0.001758	28.0829	0.062662	0.001900	32.973	-70.3843	17.3213	0.028339	0.971439	-0.243448	-0.244758	0.041290	32.973	-0.244387	-672.863	-6.136437E-5	NaN
1087	1.000000	0.982766	7.37569e+06	-54489.1	1055.82	-29743.2	0.000000	0.000000	6.983122	-0.078760	NaN	0.000000	0.001581	0.001734	28.0829	0.028916	0.001933	14.961	-55.9349	-166.39	-0.084248	0.981477	-0.233431	-0.234720	-0.078760	14.961	-0.229483	-392.964	0.000200	NaN
1087	1.000000	0.992731	7.37569e+06	-54489.1	1055.82	-29743.2	0.000000	0.000000	6.993092	0.042860	NaN	0.000000	0.001566	0.001721	28.0829	0.090403	0.001981	45.6294	54.7666	16.1972	-0.007628	0.991462	-0.223466	-0.224735	0.042860	45.6294	-0.224171	-323.711	-0.000132	NaN
1087	1.000000	1.002770	7.37569e+06	-54489.1	1055.82	-29743.2	0.000000	0.000000	7.003127	-0.041184	NaN	0.000000	0.001574	0.001714	28.0841	0.013045	0.001968	6.628695	-137.936	-164.113	-0.020899	1.001529	-0.213427	-0.214668	-0.041184	6.628695	-0.208768	-183.165	0.000225	NaN
1087	1.000000	1.012779	7.37569e+06	-54489.1	1055.82	-29743.2	0.000000	0.000000	7.013139	0.014728	NaN	0.000000	0.001590	0.001763	28.0838	0.083119	0.002036	40.8235	99.2551	15.2712	-0.000167	1.011391	-0.203418	-0.204806	0.014728	40.8235	-0.203688	-151.407	-9.727284E-5	NaN
1087	1.000000	1.022808	7.37569e+06	-54489.1	1055.82	-29743.2	0.000000	0.000000	7.023169	0.054147	NaN	0.000000	0.001601	0.001738	28.0842	0.103385	0.001999	51.7299	172.239	-166.895	0.057004	1.021535	-0.193389	-0.194662	0.054147	51.7299	-0.194174	-105.564	-0.000513	NaN
1087	1.000000	1.032808	7.37569e+06	-54489.1	1055.82	-29743.2	0.000000	0.000000	7.033166	-0.021637	NaN	0.000000	0.001554	0.001704	28.0838	0.130552	0.002048	63.7368	-179.16	15.0895	-0.021118	1.031411	-0.183389	-0.184786	-0.021637	63.7368	-0.183135	-68.967	0.000314	NaN
1087	1.000000	1.042828	7.37569e+06	-54489.1	1055.82	-29743.2	0.000000	0.000000	7.043188	0.029182	NaN	0.000000	0.001596	0.001699	28.0841	0.053135	0.001992	26.6705	129.127	-170.23	0.032511	1.041509	-0.173369	-0.174688	0.029182	26.6705	-0.174190	-48.5343	-0.000601	NaN
1087	1.000000	1.052807	7.37569e+06	-54489.1	1055.82	-29743.2	0.000000	0.000000	7.053166	-0.014524	NaN	0.000000	0.001594	0.001706	28.0843	0.114536	0.002109	54.3166	81.4024	15.7864	-0.011482	1.051469	-0.163390	-0.164728	-0.014524	54.3166	-0.163189	-31.2206	0.000465	NaN
1087	1.000000	1.062790	7.37569e+06	-54489.1	1055.82	-29743.2	0.000000	0.000000	7.063152	0.066155	NaN	0.000000	0.001627	0.001725	28.0843	0.060509	0.001968	30.7471	-39.9638	-165.415	0.068427	1.061478	-0.153407	-0.154719	0.066155	30.7471	-0.155021	-22.3337	-0.002962	NaN
1087	1.000000	1.072799	7.37569e+06	-54489.1	1055.82	-29743.2	0.000000	0.000000	7.073157	-0.043953	NaN	0.000000	0.001608	0.001727	28.084	0.077788	0.002044	38.0516	78.4306	13.7784	-0.034177	1.071472	-0.143398	-0.144725	-0.043953	38.0516	-0.142531	-13.1926	0.003332	NaN
1087	1.000000	1.082814	7.37569e+06	-54489.1	1055.82	-29743.2	0.000000	0.000000	7.083176	0.067985	NaN	0.000000	0.001626	0.001742	28.084	0.065573	0.001995	32.8641	137.679	-161.661	0.029793	1.081564	-0.133383	-0.134633	0.067985	32.8641	-0.134934	-9.485026	-0.007168	NaN
1087	1.000000	1.092862	7.37569e+06	-54489.1	1055.82	-29743.2	0.000000	0.000000	7.093222	0.007512	NaN	0.000000	0.001617	0.001728	28.0839	0.040274	0.002025	19.8836	-156.189	13.741	-0.066718	1.091441	-0.123334	-0.124756	0.007512	19.8836	-0.123618	-5.709151	-0.001316	NaN
1087	1.000000	1.102822	7.37569e+06	-54489.1	1055.82	-29743.3	0.000000	0.000000	7.103183	0.053495	NaN	0.000000	0.001664	0.001723	28.0837	0.101191	0.002047	49.4311	-57.9278	-164.93	0.080482	1.101509	-0.113375	-0.114688	0.053495	49.4311	-0.114187	-3.675488	-0.014554	NaN
1087	1.000000	1.112814	7.37569e+06	-54489.1	1055.82	-29743.3	0.000000	0.000000	7.113170	-0.071851	NaN	0.000000	0.001632	0.001752	28.0837	0.043333	0.001883	23.0178	-131.886	15.1319	0.020390	1.111450	-0.103383	-0.104747	-0.071851	23.0178	-0.101042	-1.926656	0.037293	NaN
1087	1.000000	1.122854	7.37569e+06	-54489.1	1055.82	-29743.3	0.000000	0.000000	7.123216	0.063749	NaN	0.000000	0.001630	0.001711	28.084	0.112216	0.002099	53.4567	160.525	-164.32	0.045863	1.121531	-0.093343	-0.094666	0.063749	53.4567	-0.094238	-1.355201	-0.047040	NaN
1087	1.000000	1.132819	7.37569e+06	-54489.1	1055.82	-29743.3	0.000000	0.000000	7.133180	0.042082	NaN	0.000000	0.001615	0.001735	28.0827	0.062930	0.001960	32.1045	-119.656	18.7618	0.032512	1.131442	-0.083378	-0.084755	0.042082	32.1045	-0.084361	-0.792847	-0.053077	NaN
1087	1.000000	1.142840	7.37569e+06	-54489.1	1055.82	-29743.3	0.000000	0.000000	7.143200	0.026172	NaN	0.000000	0.001603	0.001765	28.0827	0.049639	0.001936	25.6402	144.12	-163.218	-0.009117	1.141559	-0.073357	-0.074638	0.026172	25.6402	-0.074123	-0.438286	-0.059715	NaN
1087	1.000000	1.152847	7.37569e+06	-54489.1	1055.82	-29743.3	0.000000	0.000000	7.153207	0.013140	NaN	0.000000	0.001574	0.001760	28.0826	0.107189	0.002141	50.056	-128.039	12.258	0.080591	1.151440	-0.063350	-0.064757	0.013140	50.056	-0.063547	-0.227024	-0.057879	NaN
1087	1.000000	1.162829	7.37569e+06	-54489.1	1055.82	-29743.3	0.000000	0.000000	7.163188	-0.012468	NaN	0.000000	0.001587	0.001787	28.0829	0.096981	0.001922	50.4616	159.028	-165.907	0.006733	1.161590	-0.053368	-0.054607	-0.012468	50.4616	-0.053182	-0.113726	0.109636	NaN
1087	1.000000	1.172861	7.37569e+06	-54489.1	1055.82	-29743.3	0.000000	0.000000	7.173220	0.008390	NaN	0.000000	0.001571	0.001734	28.0826	0.124312	0.001944	63.9598	7.825498	12.3769	-0.004328	1.171487	-0.043336	-0.044710	0.008390	63.9598	-0.043435	-0.057560	-0.145759	NaN
1087	1.000000	1.182850	7.37569e+06	-54489.1	1055.82	-29743.3	0.000000	0.000000	7.183210	0.009967	NaN	0.000000	0.001561	0.001771	28.0828	0.043691	0.002044	21.3719	-154.742	-165.09	0.034524	1.181532	-0.033347	-0.034665	0.009967	21.3719	-0.033696	-0.029331	-0.339826	NaN
1087	1.000000	1.192869	7.37569e+06	-54489.1	1055.82	-29743.3	0.000000	0.000000	7.193228	-0.002054	NaN	0.000000	0.001557	0.001756	28.0828	0.074986	0.002133	35.1555	-55.0431	14.9618	-0.057112	1.191493	-0.023328	-0.024704	-0.002054	35.1555	-0.023284	-0.015230	0.134893	NaN
1087	1.000000	1.202881	7.37569e+06	-54489.1	1055.82	-29743.3	0.000000	0.000000	7.203242	0.043596	NaN	0.000000	0.001585	0.001761	28.0831	0.082311	0.001923	42.8068	86.6385	-165.924	0.074363	1.201526	-0.013316	-0.014671	0.043596	42.8068	-0.014080	-0.008730	-4.993846	NaN
1087	1.000000	1.212868	7.37569e+06	-54489.1	1055.82	-29743.3	0.000000	0.000000	7.213227	-0.009374	NaN	0.000000	0.001566	0.001800	28.0827	0.109077	0.001882	57.9468	45.9352	15.2393	0.013682	1.211504	-0.003329	-0.004693	-0.009374	57.9468	-0.003208	-0.002259	4.149146	NaN
1087	1.000000	1.222866	7.37569e+06	-54489.1	1055.82	-29743.3	0.000000	0.000000	7.223256	0.738266	NaN	0.000000	0.001590	0.001761	28.0832	1.154798	0.001891	610.704	18.2307	-164.227	0.459319	1.221565	0.006669	0.005368	0.738266	610.704	0.005763	0.004840	152.53	8020.03
1087	2.000000	1.232578	7.37569e+06	-54489.1	1055.82	-29743.3	0.000000	0.000000	7.233325	9.407007	NaN	0.000000	0.001579	0.001773	28.0829	6.877166	0.001937	3550.74	13.31	10.0878	8.009955	1.231496	0.016382	0.015299	9.407007	3550.74	0.014395	0.014487	649.362	26953.2
1087	2.000000	1.235400	7.37569e+06	-54489.1	1055.82	-29743.3	0.000000	0.000000	7.236259	12.1685	NaN	0.000000	0.001634	0.001729	28.0828	8.630558	0.001703	5069.31	9.051263	-172.058	12.0789	1.235115	0.019203	0.018918	12.1685	5069.31	0.017402	0.018624	653.391	33938.3
1087	2.000000	1.237916	7.37569e+06	-54489.1	1055.82	-29743.3	0.000000	0.000000	7.238996	17.5124	NaN	0.000000	0.001580	0.001742	28.0827	10.6952	0.001651	6479.05	7.195316	7.520911	16.7859	1.237543	0.021719	0.021346	17.5124	6479.05	0.019692	0.022060	793.836	39854.4
1087	2.000000	1.240377	7.37569e+06	-54489.1	1055.82	-29743.3	0.000000	0.000000	7.241679	22.9143	NaN	0.000000	0.001582	0.001771	28.0828	12.9488	0.001864	6946.68	9.246490	-175.439	22.5044	1.240031	0.024180	0.023834	22.9143	6946.68	0.021706	0.025295	905.899	39905.8
1087	2.000000	1.242824	7.37569e+06	-54489.1	1055.82	-29743.3	0.000000	0.000000	7.244396	29.4758	NaN	0.000000	0.001591	0.001758	28.0843	14.6539	0.001764	8307.58	4.981660	8.308806	28.024	1.242416	0.026627	0.026219	29.4758	8307.58	0.023966	0.029161	1010.79	44447.3
1087	2.000000	1.245327	7.37569e+06	-54489.1	1055.82	-29743.3	0.000000	0.000000	7.247205	36.9241	NaN	0.000000	0.001598	0.001760	28.0843	17.138	0.001800	9519.78	8.384963	-177.202	36.0353	1.244985	0.029130	0.028788	36.9241	9519.78	0.026221	0.033275	1109.66	47680.4
1087	2.000000	1.247867	7.37569e+06	-54489.1	1055.82	-29743.3	0.000000	0.000000	7.250057	44.5152	NaN	0.000000	0.001603	0.001770	28.0841	18.732	0.001827	10250.8	7.109567	3.622270	43.5293	1.247432	0.031670	0.031235	44.5152	10250.8	0.028413	0.037519	1186.48	48351.1
1087	2.000000	1.250310	7.37569e+06	-54489.1	1055.82	-29743.3	0.000000	0.000000	7.252874	53.6125	NaN	0.000000	0.001604	0.001741	28.0842	20.3819	0.001768	11525.8	3.823232	-174.616	52.5366	1.249988	0.034113	0.033791	53.6125	11525.8	0.030624	0.042047	1275.06	51354.2
1087	2.000000	1.252807	7.37569e+06	-54489.1	1055.82	-29743.3	0.000000	0.000000	7.255739	62.5363	NaN	0.000000	0.001596	0.001760	28.0843	22.5945	0.001721	13128.5	3.123456	4.583626	61.3127	1.252503	0.036610	0.036306	62.5363	13128.5	0.033038	0.047276	1322.79	55165.6
1087	2.000000	1.255290	7.37569e+06	-54489.1	1055.82	-29743.3	0.000000	0.000000	7.258605	71.8504	NaN	0.000000	0.001582	0.001748	28.0841	25.5828	0.001975	12950.9	5.404429	-177.211	70.6655	1.255044	0.039093	0.038847	71.8504	12950.9	0.034932	0.051589	1392.75	52094.8
1087	2.000000	1.257824	7.37569e+06	-54489.1	1055.82	-29743.3	0.000000	0.000000	7.261599	83.0316	NaN	0.000000	0.001591	0.001751	28.084	27.7448	0.001873	14813.2	6.831416	0.028717	81.0467	1.257444	0.041627	0.041247	83.0316	14813.2	0.037423	0.057538	1443.07	56421.4
1087	2.000000	1.260295	7.37569e+06	-54489.1	1055.82	-29743.3	0.000000	0.000000	7.264500	93.4873	NaN	0.000000	0.001591	0.001752	28.084	29.2601	0.001831	15977.8	4.309354	-178.211	92.8391	1.260006	0.044098	0.043809	93.4873	15977.8	0.039710	0.063280	1477.36	58030.5
1087	2.000000	1.262807	7.37569e+06	-54489.1	1055.82	-29743.3	0.000000	0.000000	7.267595	107.647	NaN	0.000000	0.001570	0.001738	28.0841	31.8533	0.001772	17978.6	4.573955	-0.461632	106.156	1.262415	0.046610	0.046218	107.647	17978.6	0.042120	0.069622	1546.17	62252.7
1087	2.000000	1.265306	7.37569e+06	-54489.1	1055.82	-29743.3	0.000000	0.000000	7.270749	123.599	NaN	0.000000	0.001569	0.001762	28.0841	34.3612	0.001822	18863.5	3.750688	-179.682	122.853	1.264973	0.049109	0.048776	123.599	18863.5	0.044195	0.075317	1641.05	62798.2
1087	2.000000	1.267804	7.37569e+06	-54489.1	1055.82	-29743.3	0.000000	0.000000	7.274021	142.408	NaN	0.000000	0.001584	0.001730	28.0838	35.7285	0.001892	18888.9	1.192966	3.751348	139.708	1.267375	0.051607	0.051178	142.408	18888.9	0.045952	0.080314	1773.14	60895.4
1087	2.000000	1.270231	7.37569e+06	-54489.1	1055.82	-29743.3	0.000000	0.000000	7.277186	160.353	NaN	0.000000	0.001647	0.001754	28.0842	37.8846	0.001854	20429.7	3.388897	-179.693	158	1.269925	0.054034	0.053729	160.353	20429.7	0.048147	0.086773	1847.96	63364.1
1087	2.000000	1.272762	7.37569e+06	-54489.1	1055.82	-29743.3	0.000000	0.000000	7.280434	177.781	NaN	0.000000	0.001653	0.001735	28.0839	40.3092	0.001864	21626.4	3.395688	0.092494	174.828	1.272388	0.056565	0.056191	177.781	21626.4	0.050400	0.093653	1898.29	64564.8
1087	2.000000	1.275228	7.37569e+06	-54489.1	1055.82	-29743.3	0.000000	0.000000	7.283122	183.185	NaN	0.000000	0.001651	0.001716	28.084	41.8839	0.001873	22365.4	3.025344	179.886	179.172	1.274979	0.059031	0.058783	183.185	22365.4	0.052888	0.101547	1803.94	64123.4
1087	2.000000	1.277769	7.37569e+06	-54489.1	1055.82	-29743.3	0.000000	0.000000	7.286350	199.876	NaN	0.000000	0.001648	0.001778	28.0828	43.7381	0.001778	24593.2	4.506108	-2.306652	197.272	1.277369	0.061572	0.061172	199.876	24593.2	0.055477	0.110090	1815.57	67719.8
1087	2.000000	1.280276	7.37569e+06	-54489.1	1055.82	-29743.3	0.000000	0.000000	7.289580	217.455	NaN	0.000000	0.001594	0.001749	28.0832	46.3455	0.001895	24457.5	6.555633	176.122	216.71	1.279939	0.064079	0.063742	217.455	24457.5	0.057410	0.116686	1863.59	65414.8
1087	2.000000	1.282796	7.37569e+06	-54489.1	1055.82	-29743.3	0.000000	0.000000	7.292384	224.348	NaN	0.000000	0.001652	0.001735	28.0829	46.7803	0.001776	26341.1	1.320045	0.249517	224.179	1.282544	0.066599	0.066347	224.348	26341.1	0.060212	0.126568	1772.55	67646.5
1087	2.000000	1.285288	7.37569e+06	-54489.1	1055.82	-29743.3	0.000000	0.000000	7.295478	238.979	NaN	0.000000	0.001624	0.001789	28.0827	49.8565	0.001860	26809.9	4.616698	176.707	237.771	1.284907	0.069091	0.068710	238.979	26809.9	0.062406	0.134577	1775.78	66770.5
1087	2.000000	1.287802	7.37569e+06	-54489.1	1055.82	-29743.3	0.000000	0.000000	7.298642	254.803	NaN	0.000000	0.001644	0.001748	28.0828	51.7738	0.001955	26478.1	6.620758	-4.214724	254.457	1.287375	0.071605	0.071178	254.803	26478.1	0.064387	0.142009	1794.28	64195.2
1087	2.000000	1.290253	7.37569e+06	-54489.1	1055.82	-29743.3	0.000000	0.000000	7.301678	269.012	NaN	0.000000	0.001641	0.001775	28.0828	52.4095	0.001810	28960.2	3.372829	177.883	267.212	1.289897	0.074057	0.073700	269.012	28960.2	0.067090	0.152451	1764.58	67765.6
1087	2.000000	1.292738	7.37569e+06	-54489.1	1055.82	-29743.3	0.000000	0.000000	7.304929	287.651	NaN	0.000000	0.001635	0.001708	28.083	54.6432	0.001951	28013.4	1.423606	0.013560	284.161	1.292325	0.076541	0.076128	287.651	28013.4	0.068840	0.159399	1804.59	64105.6
1087	2.000000	1.295286	7.37569e+06	-54489.1	1055.82	-29743.3	0.000000	0.000000	7.307819	295.96	NaN	0.000000	0.001649	0.001776	28.0827	56.4389	0.001876	30088.8	3.830378	177.317	296.952	1.294913	0.079089	0.078716	295.96	30088.8	0.071711	0.171120	1729.55	66455.1
1087	2.000000	1.297705	7.37569e+06	-54489.1	1055.82	-29743.3	0.000000	0.000000	7.310857	310.98	NaN	0.000000	0.001600	0.001725	28.083	57.6624	0.001830	31518	2.106566	-2.008614	305.179	1.297491	0.081508	0.081294	310.98	31518	0.074108	0.181201	1716.22	67647.5
1087	2.000000	1.300277	7.37569e+06	-54489.1	1055.82	-29743.3	0.000000	0.000000	7.314161	328.793	NaN	0.000000	0.001576	0.001801	28.0831	60.1574	0.001822	33010.7	5.428054	174.23	329.619	1.300031	0.084080	0.083834	328.793	33010.7	0.076610	0.192011	1712.37	68827.9
1087	2.000000	1.302767	7.37569e+06	-54489.1	1055.82	-29743.3	0.000000	0.000000	7.317445	348.089	NaN	0.000000	0.001608	0.001765	28.083	61.9887	0.001860	33335.9	0.286648	-0.370726	347.976	1.302493	0.086571	0.086296	348.089	33335.9	0.078739	0.201443	1727.98	67859.2
1087	2.000000	1.305281	7.37569e+06	-54489.1	1055.82	-29743.3	0.000000	0.000000	7.320976	372.821	NaN	0.000000	0.001576	0.001789	28.0826	63.5888	0.001742	36512	2.401775	177.343	372.919	1.304930	0.089084	0.088733	372.821	36512	0.081426	0.213646	1745.04	72170.8
1087	2.000000	1.307718	7.37569e+06	-54489.1	1055.82	-29743.3	0.000000	0.000000	7.323791	382.018	NaN	0.000000	0.001586	0.001776	28.0831	66.326	0.001812	36597.8	7.622499	-7.668452	377.865	1.307382	0.091521	0.091185	382.018	36597.8	0.083692	0.224203	1703.89	70616.7
1087	2.000000	1.310218	7.37569e+06	-54489.1	1055.82	-29743.3	0.000000	0.000000	7.327066	400.836	NaN	0.000000	0.001538	0.001749	28.0842	67.5836	0.001779	37985	5.403162	173.689	398.827	1.309895	0.094021	0.093698	400.836	37985	0.086107	0.235711	1700.54	71481.8
1087	2.000000	1.312922	7.37569e+06	-54489.1	1055.82	-29743.3	0.000000	0.000000	7.330151	410.106	NaN	0.000000	0.001576	0.001707	28.0848	71.2169	0.001731	41131.6	4.833942	-5.443980	418.249	1.312406	0.096725	0.096209	410.106	41131.6	0.089247	0.251077	1633.39	74997.3
1087	2.000000	1.315225	7.37569e+06	-54489.1	1055.82	-29743.3	0.000000	0.000000	7.332985	423.037	NaN	0.000000	0.001577	0.001753	28.084	73.849	0.001915	38563	3.100543	175.667	421.895	1.315060	0.099028	0.098863	423.037	38563	0.090800	0.258846	1634.32	69250.5
1087	2.000000	1.317615	7.37569e+06	-54489.1	1055.82	-29743.3	0.000000	0.000000	7.336199	443.047	NaN	0.000000	0.001574	0.001790	28.0845	75.4711	0.001926	39187.6	5.314387	-6.650250	434.92	1.317328	0.101418	0.101131	443.047	39187.6	0.092939	0.269724	1642.6	68938.6
1087	2.000000	1.320586	7.37569e+06	-54489.1	1055.82	-29743.3	0.000000	0.000000	7.339453	449.936	NaN	0.000000	0.001601	0.001741	28.0841	79.6356	0.001816	43862.8	16.1776	165.123	466.856	1.319865	0.104389	0.103668	449.936	43862.8	0.096696	0.289337	1555.06	74501.9
1087	2.000000	1.322586	7.37569e+06	-54489.1	1055.82	-29743.3	0.000000	0.000000	7.342228	468.757	NaN	0.000000	0.001593	0.001759	28.0841	79.6506	0.001772	44949.4	4.048710	-6.456822	459.255	1.322204	0.106389	0.106007	468.757	44949.4	0.098568	0.299351	1565.91	75059.6
1087	2.000000	1.325003	7.37569e+06	-54489.1	1055.82	-29743.3	0.000000	0.000000	7.344737	471.014	NaN	0.000000	0.001589	0.001769	28.084	81.693	0.001809	45153.9	2.362454	174.934	460.621	1.324801	0.108806	0.108604	471.014	45153.9	0.100983	0.312504	1507.22	73797.4
1087	2.000000	1.327774	7.37569e+06	-54489.1	1055.82	-29743.3	0.000000	0.000000	7.348391	492.466	NaN	0.000000	0.001568	0.001777	28.0846	84.0402	0.001752	47961.6	6.367276	-9.161593	490.552	1.327545	0.111577	0.111348	492.466	47961.6	0.103876	0.328612	1498.63	76440.9
1087	2.000000	1.330216	7.37569e+06	-54489.1	1055.82	-29743.3	0.000000	0.000000	7.351973	520.198	NaN	0.000000	0.001604	0.001763	28.0843	85.0879	0.001708	49806.2	2.947105	174.471	519.196	1.329909	0.114019	0.113712	520.198	49806.2	0.106186	0.341743	1522.19	77840.8
1087	2.000000	1.331277	7.37569e+06	-54489.1	1055.82	-29743.3	0.000000	0.000000	7.353146	522.911	NaN	0.000000	0.001610	0.001717	28.0843	87.3462	0.001900	45974.2	4.993363	173.815	524.258	1.330908	0.115081	0.114711	522.911	45974.2	0.106550	0.343835	1520.82	71632.8