File: remote_trans/data/nanoindenter/0828-1/data/Data_2025-08-06,11h17m57s/2025-07-22_16-23-58_1_721.txt
2025-07-22, 16:23:58, 1
Index	Phase	Displacement	Time	Pos X	Pos Y	Pos Z	Rot A	Rot B	Piezo Z	Force A	Force B	Gripper	Voltage A	Voltage B	Temperature	Amplitude force	Amplitude pos	Stiffness	Phase shift	Phase excitation	Force A raw	Displacement raw	HMax	HMax raw	Real Force	Real Stiffness	Contact Depth	Area	Hardness	Reduced Mod.
[#]	[#]	[um]	[s]	[um]	[um]	[um]	[m°]	[m°]	[um]	[uN]	[uN]	[V]	[V]	[V]	[°C]	[uN]	[um]	[N/m]	[°]	[°]	[uN]	[um]	[um]	[um]	[uN]	[N/m]	[um]	[um^2]	[MPa]	[MPa]
721	1.000000	0.002085	7.37211e+06	-41039.1	1005.82	-29787.6	0.000000	0.000000	6.002778	-0.010827	NaN	0.000000	0.001588	0.001711	28.082	0.121088	0.000896	135.205	79.0871	-158.513	-0.030320	0.000840	-1.120264	-1.121509	-0.010827	135.205	-1.120203	-9.358406E+14	1.156980E-17	NaN
721	1.000000	0.012181	7.37211e+06	-41039.1	1005.82	-29787.6	0.000000	0.000000	6.012876	0.024947	NaN	0.000000	0.001588	0.001697	28.0819	0.033139	0.001262	26.2678	-139.942	20.3722	0.060886	0.010701	-1.110167	-1.111647	0.024947	26.2678	-1.110880	-7.016049E+14	-3.555684E-17	NaN
721	1.000000	0.022053	7.37211e+06	-41039.1	1005.82	-29787.6	0.000000	0.000000	6.022744	-0.065347	NaN	0.000000	0.001597	0.001698	28.0818	0.046751	0.001839	25.4177	-155.053	-164.857	-0.030720	0.020700	-1.100296	-1.101649	-0.065347	25.4177	-1.098368	-4.766032E+14	1.371107E-16	NaN
721	1.000000	0.032042	7.37211e+06	-41039.1	1005.82	-29787.6	0.000000	0.000000	6.032736	-0.004038	NaN	0.000000	0.001566	0.001687	28.0821	0.045302	0.001997	22.6812	9.755487	13.0809	-0.068135	0.030643	-1.090306	-1.091706	-0.004038	22.6812	-1.090173	-3.699383E+14	1.091658E-17	NaN
721	1.000000	0.042069	7.37211e+06	-41039.1	1005.82	-29787.6	0.000000	0.000000	6.042761	-0.035452	NaN	0.000000	0.001550	0.001688	28.0821	0.090437	0.001934	46.7708	-136.185	-166.57	-0.112077	0.040707	-1.080280	-1.081641	-0.035452	46.7708	-1.079711	-2.676953E+14	1.324342E-16	NaN
721	1.000000	0.052056	7.37211e+06	-41039.1	1005.82	-29787.6	0.000000	0.000000	6.052747	-0.077815	NaN	0.000000	0.001561	0.001711	28.0822	0.139361	0.002007	69.4206	-48.1349	14.4465	-0.112259	0.050713	-1.070292	-1.071635	-0.077815	69.4206	-1.069451	-1.949034E+14	3.992493E-16	NaN
721	1.000000	0.062015	7.37211e+06	-41039.1	1005.82	-29787.6	0.000000	0.000000	6.062709	-0.004615	NaN	0.000000	0.001597	0.001714	28.0819	0.032588	0.001935	16.8419	61.2841	-162.841	0.007683	0.060746	-1.060333	-1.061602	-0.004615	16.8419	-1.060128	-1.460616E+14	3.159603E-17	NaN
721	1.000000	0.072056	7.37211e+06	-41039.1	1005.82	-29787.6	0.000000	0.000000	6.072747	-0.074860	NaN	0.000000	0.001574	0.001660	28.0825	0.029488	0.001929	15.2852	129.707	14.1414	-0.062156	0.070725	-1.050293	-1.051624	-0.074860	15.2852	-1.046620	-9.615471E+13	7.785372E-16	NaN
721	1.000000	0.082089	7.37211e+06	-41039.1	1005.82	-29787.6	0.000000	0.000000	6.082783	0.007422	NaN	0.000000	0.001577	0.001687	28.0822	0.153843	0.002109	72.9455	-173.452	-162.851	0.002831	0.080746	-1.040260	-1.041603	0.007422	72.9455	-1.040336	-7.915672E+13	-9.375938E-17	NaN
721	1.000000	0.092097	7.37211e+06	-41039.1	1005.82	-29787.6	0.000000	0.000000	6.092794	0.061051	NaN	0.000000	0.001572	0.001696	28.0836	0.089937	0.001984	45.3333	164.289	13.2952	-0.004206	0.090737	-1.030251	-1.031612	0.061051	45.3333	-1.031261	-5.976465E+13	-1.021529E-15	NaN
721	1.000000	0.102056	7.37211e+06	-41039.1	1005.82	-29787.6	0.000000	0.000000	6.102750	0.003960	NaN	0.000000	0.001585	0.001679	28.0833	0.040051	0.002075	19.3034	-42.6353	-162.017	-0.022458	0.100788	-1.020293	-1.021560	0.003960	19.3034	-1.020447	-4.275238E+13	-9.261857E-17	NaN
721	1.000000	0.112097	7.37211e+06	-41039.1	1005.82	-29787.6	0.000000	0.000000	6.112791	-0.011476	NaN	0.000000	0.001560	0.001687	28.0836	0.056497	0.001957	28.8641	-81.0824	16.7899	-0.003819	0.110693	-1.010251	-1.011655	-0.011476	28.8641	-1.009953	-3.088534E+13	3.715744E-16	NaN
721	1.000000	0.122094	7.37211e+06	-41039.1	1005.82	-29787.6	0.000000	0.000000	6.122787	-0.021946	NaN	0.000000	0.001582	0.001697	28.0834	0.106492	0.002105	50.5952	19.734	-164.304	-0.041112	0.120782	-1.000255	-1.001566	-0.021946	50.5952	-0.999929	-2.263694E+13	9.694939E-16	NaN
721	1.000000	0.132094	7.37211e+06	-41039.1	1005.82	-29787.6	0.000000	0.000000	6.132787	-0.023486	NaN	0.000000	0.001591	0.001675	28.0839	0.124506	0.002032	61.2649	-24.7445	15.5909	-0.020389	0.130728	-0.990254	-0.991620	-0.023486	61.2649	-0.989967	-1.662132E+13	1.412995E-15	NaN
721	1.000000	0.142103	7.37211e+06	-41039.1	1005.82	-29787.6	0.000000	0.000000	6.142795	-0.057527	NaN	0.000000	0.001608	0.001695	28.0835	0.081970	0.001989	41.2039	-164.375	-165.926	-0.085715	0.140795	-0.980245	-0.981554	-0.057527	41.2039	-0.979198	-1.190160E+13	4.833592E-15	NaN
721	1.000000	0.152092	7.37211e+06	-41039.1	1005.82	-29787.6	0.000000	0.000000	6.152783	-0.063135	NaN	0.000000	0.001573	0.001666	28.0837	0.161029	0.002052	78.4586	-12.8503	17.0027	-0.011731	0.150741	-0.970257	-0.971608	-0.063135	78.4586	-0.969653	-8.850941E+12	7.133157E-15	NaN
721	1.000000	0.162109	7.37211e+06	-41039.1	1005.82	-29787.6	0.000000	0.000000	6.162804	0.022767	NaN	0.000000	0.001616	0.001702	28.0834	0.021378	0.001866	11.4574	-65.0503	-162.297	0.016658	0.160820	-0.960239	-0.961528	0.022767	11.4574	-0.961730	-6.921305E+12	-3.289391E-15	NaN
721	1.000000	0.172132	7.37211e+06	-41039.1	1005.82	-29787.6	0.000000	0.000000	6.172823	-0.056078	NaN	0.000000	0.001591	0.001696	28.0836	0.016662	0.002078	8.020364	-63.4957	15.7584	-0.058796	0.170762	-0.950217	-0.951586	-0.056078	8.020364	-0.944973	-4.113579E+12	1.363240E-14	NaN
721	1.000000	0.182089	7.37211e+06	-41039.1	1005.82	-29787.6	0.000000	0.000000	6.182783	0.003782	NaN	0.000000	0.001609	0.001696	28.0833	0.080008	0.002033	39.351	143.008	-165.148	0.031892	0.180806	-0.940260	-0.941543	0.003782	39.351	-0.940332	-3.561347E+12	-1.061869E-15	NaN
721	1.000000	0.192136	7.37211e+06	-41039.1	1005.82	-29787.6	0.000000	0.000000	6.192830	-0.010221	NaN	0.000000	0.001620	0.001647	28.0836	0.014013	0.002021	6.933652	83.8699	14.4128	-0.092521	0.190700	-0.930212	-0.931649	-0.010221	6.933652	-0.929107	-2.512700E+12	4.067737E-15	NaN
721	1.000000	0.202135	7.37211e+06	-41039.1	1005.82	-29787.6	0.000000	0.000000	6.202827	-0.027336	NaN	0.000000	0.001606	0.001661	28.0834	0.053191	0.001935	27.4911	-5.274004	-163.165	-0.053334	0.200831	-0.920214	-0.921518	-0.027336	27.4911	-0.919468	-1.862190E+12	1.467973E-14	NaN
721	1.000000	0.212108	7.37211e+06	-41039.1	1005.82	-29787.6	0.000000	0.000000	6.212801	-0.036172	NaN	0.000000	0.001553	0.001713	28.0834	0.023556	0.001978	11.908	-166.297	15.7825	-0.113302	0.210785	-0.910240	-0.911563	-0.036172	11.908	-0.907962	-1.302073E+12	2.778051E-14	NaN
721	1.000000	0.222089	7.37211e+06	-41039.1	1005.82	-29787.6	0.000000	0.000000	6.222782	-0.030919	NaN	0.000000	0.001604	0.001663	28.0826	0.032831	0.002042	16.0799	-100.099	-168.159	-0.022189	0.220844	-0.900259	-0.901504	-0.030919	16.0799	-0.898817	-9.796779E+11	3.156062E-14	NaN
721	1.000000	0.232132	7.37211e+06	-41039.1	1005.82	-29787.6	0.000000	0.000000	6.232824	-0.039347	NaN	0.000000	0.001609	0.001768	28.0819	0.093723	0.002163	43.3397	-28.4053	14.0346	0.013043	0.230714	-0.890217	-0.891635	-0.039347	43.3397	-0.889536	-7.339098E+11	5.361315E-14	NaN
721	1.000000	0.242140	7.37211e+06	-41039.1	1005.82	-29787.6	0.000000	0.000000	6.242830	-0.097999	NaN	0.000000	0.001615	0.001733	28.0819	0.023707	0.002086	11.3668	-45.6025	-163.521	-0.113533	0.240848	-0.880209	-0.881501	-0.097999	11.3668	-0.873742	-4.488195E+11	2.183484E-13	NaN
721	1.000000	0.252164	7.37211e+06	-41039.1	1005.82	-29787.6	0.000000	0.000000	6.252857	-0.022048	NaN	0.000000	0.001631	0.001756	28.0821	0.066441	0.001990	33.3896	36.6505	14.1394	0.009694	0.250757	-0.870185	-0.871591	-0.022048	33.3896	-0.869689	-3.955859E+11	5.573418E-14	NaN
721	1.000000	0.262177	7.37211e+06	-41039.1	1005.82	-29787.6	0.000000	0.000000	6.262869	-0.049934	NaN	0.000000	0.001612	0.001751	28.082	0.038071	0.001967	19.356	65.7274	-164.27	-0.098454	0.260835	-0.860172	-0.861514	-0.049934	19.356	-0.858237	-2.768579E+11	1.803613E-13	NaN
721	1.000000	0.272146	7.37211e+06	-41039.1	1005.82	-29787.6	0.000000	0.000000	6.272840	-0.012288	NaN	0.000000	0.001641	0.001749	28.0818	0.074253	0.001998	37.1618	16.2629	18.5791	-0.073980	0.270782	-0.850202	-0.851567	-0.012288	37.1618	-0.849954	-2.138532E+11	5.746172E-14	NaN
721	1.000000	0.282143	7.37211e+06	-41039.1	1005.82	-29787.6	0.000000	0.000000	6.282835	-0.023434	NaN	0.000000	0.001606	0.001739	28.0821	0.020033	0.002018	9.926913	-62.7127	-165.82	-0.069270	0.280891	-0.840206	-0.841458	-0.023434	9.926913	-0.838436	-1.493128E+11	1.569478E-13	NaN
721	1.000000	0.292150	7.37211e+06	-41039.1	1005.82	-29787.6	0.000000	0.000000	6.292841	-0.075074	NaN	0.000000	0.001619	0.001720	28.0825	0.056254	0.001989	28.2807	173.937	16.5773	-0.068540	0.290794	-0.830198	-0.831555	-0.075074	28.2807	-0.828207	-1.085138E+11	6.918389E-13	NaN
721	1.000000	0.302173	7.37211e+06	-41039.1	1005.82	-29787.6	0.000000	0.000000	6.302865	-0.046365	NaN	0.000000	0.001593	0.001723	28.0821	0.089091	0.001973	45.1636	65.0402	-167.345	0.036014	0.300850	-0.820176	-0.821499	-0.046365	45.1636	-0.819406	-8.244332E+10	5.623921E-13	NaN
721	1.000000	0.312164	7.37211e+06	-41039.1	1005.82	-29787.6	0.000000	0.000000	6.312854	-0.082815	NaN	0.000000	0.001609	0.001734	28.0822	0.039014	0.001888	20.6624	53.2863	13.1227	-0.072503	0.310770	-0.810185	-0.811579	-0.082815	20.6624	-0.807179	-5.627157E+10	1.471699E-12	NaN
721	1.000000	0.322204	7.37211e+06	-41039.1	1005.82	-29787.6	0.000000	0.000000	6.322894	-0.082308	NaN	0.000000	0.001640	0.001714	28.0822	0.123139	0.002084	59.0957	-44.6803	-164.537	-0.029309	0.320838	-0.800145	-0.801511	-0.082308	59.0957	-0.799100	-4.371684E+10	1.882761E-12	NaN
721	1.000000	0.332181	7.37211e+06	-41039.1	1005.82	-29787.6	0.000000	0.000000	6.332875	-0.005990	NaN	0.000000	0.001603	0.001730	28.0824	0.062621	0.001953	32.072	144.569	17.0013	0.041076	0.330809	-0.790168	-0.791540	-0.005990	32.072	-0.790028	-3.291981E+10	1.819472E-13	NaN
721	1.000000	0.342172	7.37211e+06	-41039.1	1005.82	-29787.6	0.000000	0.000000	6.342862	-0.083202	NaN	0.000000	0.001626	0.001741	28.0821	0.017489	0.001826	9.578394	31.5244	-165.544	-0.017164	0.340870	-0.780177	-0.781479	-0.083202	9.578394	-0.773662	-1.972836E+10	4.217398E-12	NaN
721	1.000000	0.352166	7.37211e+06	-41039.1	1005.82	-29787.6	0.000000	0.000000	6.352857	-0.053032	NaN	0.000000	0.001603	0.001712	28.082	0.089900	0.001886	47.6646	56.2214	13.7531	0.005183	0.350770	-0.770183	-0.771578	-0.053032	47.6646	-0.769348	-1.723638E+10	3.076731E-12	NaN
721	1.000000	0.362180	7.37211e+06	-41039.1	1005.82	-29787.6	0.000000	0.000000	6.362871	-0.058191	NaN	0.000000	0.001628	0.001701	28.0836	0.029638	0.002048	14.4723	-97.5853	-164.642	0.028613	0.360851	-0.760169	-0.761498	-0.058191	14.4723	-0.757153	-1.176447E+10	4.946299E-12	NaN
721	1.000000	0.372209	7.37211e+06	-41039.1	1005.82	-29787.6	0.000000	0.000000	6.372904	0.012334	NaN	0.000000	0.001599	0.001721	28.0832	0.094060	0.001939	48.5182	-114.578	14.0939	0.001711	0.370828	-0.750139	-0.751520	0.012334	48.5182	-0.750330	-9.499712E+9	-1.298380E-12	NaN
721	1.000000	0.382169	7.37211e+06	-41039.1	1005.82	-29787.6	0.000000	0.000000	6.382862	-0.015647	NaN	0.000000	0.001651	0.001719	28.0832	0.022239	0.002008	11.075	36.8748	-163.429	0.035034	0.380826	-0.740180	-0.741522	-0.015647	11.075	-0.739120	-6.684496E+9	2.340818E-12	NaN
721	1.000000	0.392214	7.37211e+06	-41039.1	1005.82	-29787.6	0.000000	0.000000	6.392906	-0.051940	NaN	0.000000	0.001617	0.001731	28.0832	0.074932	0.002095	35.7704	125.637	12.0858	0.047688	0.390856	-0.730135	-0.731493	-0.051940	35.7704	-0.729046	-4.873033E+9	1.065870E-11	NaN
721	1.000000	0.402220	7.37211e+06	-41039.1	1005.82	-29787.6	0.000000	0.000000	6.402909	-0.134081	NaN	0.000000	0.001613	0.001708	28.0839	0.080610	0.001940	41.5497	111.04	-163.368	-0.095568	0.400857	-0.720128	-0.721491	-0.134081	41.5497	-0.717708	-3.413599E+9	3.927834E-11	NaN
721	1.000000	0.412208	7.37211e+06	-41039.1	1005.82	-29787.6	0.000000	0.000000	6.412904	0.050852	NaN	0.000000	0.001641	0.001697	28.0831	0.021665	0.002015	10.7523	89.5512	16.6506	0.039691	0.410897	-0.710141	-0.711452	0.050852	10.7523	-0.713688	-3.008630E+9	-1.690191E-11	NaN
721	1.000000	0.422214	7.37211e+06	-41039.1	1005.82	-29787.6	0.000000	0.000000	6.422907	-0.023049	NaN	0.000000	0.001678	0.001673	28.0832	0.160121	0.001963	81.549	-41.9223	-166.001	0.032634	0.420952	-0.700135	-0.701396	-0.023049	81.549	-0.699923	-1.951991E+9	1.180776E-11	NaN
721	1.000000	0.432221	7.37211e+06	-41039.1	1005.82	-29787.6	0.000000	0.000000	6.432912	-0.063280	NaN	0.000000	0.001665	0.001675	28.0831	0.076145	0.002034	37.4448	-117.676	15.0655	-0.094401	0.430924	-0.690128	-0.691425	-0.063280	37.4448	-0.688860	-1.378291E+9	4.591184E-11	NaN
721	1.000000	0.442223	7.37211e+06	-41039.1	1005.82	-29787.6	0.000000	0.000000	6.442912	-0.117847	NaN	0.000000	0.001639	0.001713	28.0839	0.042387	0.002060	20.5798	23.4108	-162.862	-0.024281	0.440816	-0.680125	-0.681532	-0.117847	20.5798	-0.675830	-9.144770E+8	1.288684E-10	NaN
721	1.000000	0.452236	7.37211e+06	-41039.1	1005.82	-29787.6	0.000000	0.000000	6.452930	0.017377	NaN	0.000000	0.001615	0.001741	28.0832	0.055877	0.002076	26.9095	-107.154	17.3363	-0.034999	0.450868	-0.670113	-0.671480	0.017377	26.9095	-0.670597	-7.754672E+8	-2.240879E-11	NaN
721	1.000000	0.462205	7.37211e+06	-41039.1	1005.82	-29787.6	0.000000	0.000000	6.462897	-0.060637	NaN	0.000000	0.001660	0.001740	28.0834	0.092945	0.001983	46.875	42.478	-164.753	0.000365	0.460909	-0.660143	-0.661439	-0.060637	46.875	-0.659173	-5.409325E+8	1.120979E-10	NaN
721	1.000000	0.472214	7.37211e+06	-41039.1	1005.82	-29787.6	0.000000	0.000000	6.472906	-0.043172	NaN	0.000000	0.001663	0.001746	28.0829	0.069134	0.001951	35.4348	63.9195	15.2924	-0.111927	0.470834	-0.650135	-0.651514	-0.043172	35.4348	-0.649221	-3.951441E+8	1.092551E-10	NaN
721	1.000000	0.482219	7.37211e+06	-41039.1	1005.82	-29787.6	0.000000	0.000000	6.482911	-0.067056	NaN	0.000000	0.001631	0.001721	28.0835	0.065147	0.002036	31.9977	66.6847	-164.607	-0.045776	0.480929	-0.640129	-0.641420	-0.067056	31.9977	-0.638557	-2.821598E+8	2.376541E-10	NaN
721	1.000000	0.492231	7.37211e+06	-41039.1	1005.82	-29787.6	0.000000	0.000000	6.492923	-0.057317	NaN	0.000000	0.001634	0.001707	28.083	0.014805	0.001987	7.450300	-33.4556	15.4828	-0.095056	0.490856	-0.630118	-0.631493	-0.057317	7.450300	-0.624348	-1.800451E+8	3.183460E-10	NaN
721	1.000000	0.502255	7.37211e+06	-41039.1	1005.82	-29787.6	0.000000	0.000000	6.502946	-0.055765	NaN	0.000000	0.001655	0.001694	28.0819	0.074538	0.001937	38.4759	12.5036	-162.828	-0.067485	0.500937	-0.620094	-0.621411	-0.055765	38.4759	-0.619007	-1.520487E+8	3.667564E-10	NaN
721	1.000000	0.512234	7.37211e+06	-41039.1	1005.82	-29787.6	0.000000	0.000000	6.512926	-0.065424	NaN	0.000000	0.001721	0.001694	28.0818	0.124960	0.002079	60.0957	-15.8461	13.9923	-0.078535	0.510837	-0.610114	-0.611512	-0.065424	60.0957	-0.609298	-1.118024E+8	5.851791E-10	NaN
721	1.000000	0.522255	7.37211e+06	-41039.1	1005.82	-29787.6	0.000000	0.000000	6.522947	-0.048126	NaN	0.000000	0.001734	0.001722	28.0819	0.067075	0.002134	31.4241	177.968	-163.913	-0.028399	0.520924	-0.600093	-0.601425	-0.048126	31.4241	-0.598945	-8.052454E+7	5.976531E-10	NaN
721	1.000000	0.532261	7.37211e+06	-41039.1	1005.82	-29787.6	0.000000	0.000000	6.532955	0.009981	NaN	0.000000	0.001632	0.001726	28.0818	0.062051	0.001988	31.2092	75.6765	15.3075	0.082474	0.530932	-0.590088	-0.591416	0.009981	31.2092	-0.590328	-6.126095E+7	-1.629213E-10	NaN
721	1.000000	0.542273	7.37211e+06	-41039.1	1005.82	-29787.6	0.000000	0.000000	6.542964	-0.055368	NaN	0.000000	0.001616	0.001742	28.082	0.072200	0.002078	34.7414	7.854463	-167.411	-0.106908	0.540980	-0.580076	-0.581369	-0.055368	34.7414	-0.578881	-4.258675E+7	1.300121E-9	NaN
721	1.000000	0.552252	7.37211e+06	-41039.1	1005.82	-29787.6	0.000000	0.000000	6.552941	-0.117455	NaN	0.000000	0.001605	0.001730	28.0822	0.080807	0.001864	43.355	-170.769	17.1485	-0.125796	0.550914	-0.570096	-0.571434	-0.117455	43.355	-0.568064	-3.019138E+7	3.890361E-9	NaN
721	1.000000	0.562274	7.37211e+06	-41039.1	1005.82	-29787.6	0.000000	0.000000	6.562968	-0.002152	NaN	0.000000	0.001653	0.001749	28.0819	0.053520	0.001967	27.2102	24.4951	-168.596	0.003073	0.560959	-0.560074	-0.561389	-0.002152	27.2102	-0.560015	-2.336595E+7	9.209593E-11	NaN
721	1.000000	0.572274	7.37211e+06	-41039.1	1005.82	-29787.6	0.000000	0.000000	6.572971	0.053721	NaN	0.000000	0.001620	0.001766	28.082	0.036408	0.002075	17.5499	113.415	13.3388	0.048468	0.570897	-0.550074	-0.551451	0.053721	17.5499	-0.552370	-1.831370E+7	-2.933403E-9	NaN
721	1.000000	0.582266	7.37211e+06	-41039.1	1005.82	-29787.6	0.000000	0.000000	6.582958	-0.047798	NaN	0.000000	0.001630	0.001717	28.0818	0.100913	0.001999	50.489	122.164	-162.572	-0.061063	0.580982	-0.540082	-0.541366	-0.047798	50.489	-0.539372	-1.209630E+7	3.951461E-9	NaN
721	1.000000	0.592241	7.37211e+06	-41039.1	1005.82	-29787.6	0.000000	0.000000	6.592934	-0.002683	NaN	0.000000	0.001610	0.001802	28.0821	0.027532	0.001897	14.5146	14.8735	12.6729	-0.074620	0.590932	-0.530108	-0.531417	-0.002683	14.5146	-0.529969	-8.95673e+06	2.995734E-10	NaN
721	1.000000	0.602316	7.37211e+06	-41039.1	1005.82	-29787.6	0.000000	0.000000	6.603009	-0.023489	NaN	0.000000	0.001617	0.001755	28.0818	0.050341	0.002029	24.8085	-58.6037	-165.409	-0.057983	0.601001	-0.520033	-0.521348	-0.023489	24.8085	-0.519322	-6.3705e+06	3.687161E-9	NaN
721	1.000000	0.612267	7.37211e+06	-41039.1	1005.82	-29787.6	0.000000	0.000000	6.612960	-0.013833	NaN	0.000000	0.001615	0.001740	28.0821	0.012769	0.002136	5.977448	171.498	17.8521	-0.077721	0.610908	-0.510082	-0.511440	-0.013833	5.977448	-0.508346	-4.48098e+06	3.086968E-9	NaN
721	1.000000	0.622319	7.37211e+06	-41039.1	1005.82	-29787.6	0.000000	0.000000	6.623014	0.017631	NaN	0.000000	0.001626	0.001698	28.083	0.067791	0.002034	33.3267	81.423	-164.339	0.024354	0.620911	-0.500029	-0.501438	0.017631	33.3267	-0.500426	-3.47505e+06	-5.073547E-9	NaN
721	1.000000	0.632284	7.37211e+06	-41039.1	1005.82	-29787.6	0.000000	0.000000	6.632975	-0.085535	NaN	0.000000	0.001610	0.001698	28.0832	0.115722	0.002070	55.9006	174.825	18.2877	-0.034925	0.630973	-0.490064	-0.491376	-0.085535	55.9006	-0.488917	-2.40023e+06	3.563601E-8	NaN
721	1.000000	0.642317	7.37211e+06	-41039.1	1005.82	-29787.6	0.000000	0.000000	6.643011	-0.001165	NaN	0.000000	0.001594	0.001693	28.0833	0.015099	0.001984	7.609061	-176.513	-165.263	0.036043	0.641041	-0.480032	-0.481307	-0.001165	7.609061	-0.479917	-1.79623e+06	6.483358E-10	NaN
721	1.000000	0.652316	7.37211e+06	-41039.1	1005.82	-29787.6	0.000000	0.000000	6.653010	0.014790	NaN	0.000000	0.001606	0.001718	28.0835	0.059691	0.002038	29.2937	81.0805	15.3191	-0.024576	0.650932	-0.470033	-0.471417	0.014790	29.2937	-0.470412	-1.32184e+06	-1.118924E-8	NaN
721	1.000000	0.662315	7.37211e+06	-41039.1	1005.82	-29787.6	0.000000	0.000000	6.663007	-0.029762	NaN	0.000000	0.001590	0.001697	28.0836	0.057870	0.002043	28.3211	-32.4318	-166.266	0.005113	0.660964	-0.460034	-0.461385	-0.029762	28.3211	-0.459246	-921333	3.230345E-8	NaN
721	1.000000	0.672299	7.37211e+06	-41039.1	1005.82	-29787.6	0.000000	0.000000	6.672993	0.004550	NaN	0.000000	0.001594	0.001715	28.0834	0.036268	0.002073	17.4969	-102.621	12.7076	0.024343	0.670930	-0.450050	-0.451419	0.004550	17.4969	-0.450245	-688315	-6.609878E-9	NaN
721	1.000000	0.682310	7.37211e+06	-41039.1	1005.82	-29787.6	0.000000	0.000000	6.682999	-0.127390	NaN	0.000000	0.001594	0.001695	28.0835	0.124676	0.001925	64.7785	-158.48	-164.797	-0.037103	0.680949	-0.440038	-0.441400	-0.127390	64.7785	-0.438563	-471066	2.704282E-7	NaN
721	1.000000	0.692355	7.37211e+06	-41039.1	1005.82	-29787.6	0.000000	0.000000	6.693048	-0.029584	NaN	0.000000	0.001602	0.001721	28.084	0.089559	0.002007	44.6257	-178.578	12.6624	-0.085002	0.690940	-0.429994	-0.431408	-0.029584	44.6257	-0.429496	-350701	8.435532E-8	NaN
721	1.000000	0.702334	7.37211e+06	-41039.1	1005.82	-29787.6	0.000000	0.000000	6.703026	-0.037142	NaN	0.000000	0.001604	0.001726	28.0835	0.068123	0.001914	35.5886	118.28	-165.801	-0.053720	0.701001	-0.420015	-0.421347	-0.037142	35.5886	-0.419232	-250914	1.480270E-7	NaN
721	1.000000	0.712360	7.37211e+06	-41039.1	1005.82	-29787.6	0.000000	0.000000	6.713056	0.035659	NaN	0.000000	0.001604	0.001757	28.0837	0.048435	0.001951	24.8248	-19.5202	11.8828	-0.025423	0.710952	-0.409988	-0.411397	0.035659	24.8248	-0.411066	-192111	-1.856149E-7	NaN
721	1.000000	0.722344	7.37211e+06	-41039.1	1005.82	-29787.6	0.000000	0.000000	6.723037	-0.026889	NaN	0.000000	0.001578	0.001716	28.0835	0.076553	0.002135	35.8598	-1.440254	-165.221	0.003071	0.721033	-0.400004	-0.401316	-0.026889	35.8598	-0.399442	-131230	2.048972E-7	NaN
721	1.000000	0.732341	7.37211e+06	-41039.1	1005.82	-29787.6	0.000000	0.000000	6.733035	-0.002102	NaN	0.000000	0.001611	0.001719	28.0839	0.065681	0.002054	31.9841	126.593	14.1289	-0.054260	0.731027	-0.390007	-0.391321	-0.002102	31.9841	-0.389958	-96065.8	2.187806E-8	NaN
721	1.000000	0.742345	7.37211e+06	-41039.1	1005.82	-29787.6	0.000000	0.000000	6.743037	-0.043191	NaN	0.000000	0.001618	0.001687	28.0834	0.112948	0.001906	59.2497	-125.622	-165.796	-0.025198	0.741006	-0.380004	-0.381343	-0.043191	59.2497	-0.379457	-67935.6	6.357574E-7	NaN
721	1.000000	0.752365	7.37211e+06	-41039.1	1005.82	-29787.6	0.000000	0.000000	6.753059	0.003096	NaN	0.000000	0.001612	0.001729	28.0836	0.069610	0.002053	33.9061	-55.6101	16.2263	0.003801	0.751019	-0.369983	-0.371330	0.003096	33.9061	-0.370052	-49758.9	-6.222865E-8	NaN
721	1.000000	0.762369	7.37211e+06	-41039.1	1005.82	-29787.6	0.000000	0.000000	6.763060	-0.077733	NaN	0.000000	0.001599	0.001719	28.0834	0.142735	0.002070	68.9506	97.4109	-164.521	0.025909	0.761034	-0.359979	-0.361315	-0.077733	68.9506	-0.359134	-34619.5	2.245365E-6	NaN
721	1.000000	0.772336	7.37211e+06	-41039.1	1005.82	-29787.6	0.000000	0.000000	6.773026	-0.095719	NaN	0.000000	0.001566	0.001717	28.0823	0.130678	0.002086	62.6422	-49.1965	14.4336	-0.129229	0.770986	-0.350013	-0.351363	-0.095719	62.6422	-0.348867	-24578	3.894475E-6	NaN
721	1.000000	0.782353	7.37211e+06	-41039.1	1005.82	-29787.6	0.000000	0.000000	6.783045	-0.036710	NaN	0.000000	0.001585	0.001715	28.0822	0.056779	0.002003	28.3502	106.498	-166.736	-0.051333	0.781074	-0.339996	-0.341274	-0.036710	28.3502	-0.339025	-17674	2.077076E-6	NaN
721	1.000000	0.792390	7.37211e+06	-41039.1	1005.82	-29787.6	0.000000	0.000000	6.793080	-0.084408	NaN	0.000000	0.001585	0.001754	28.0822	0.023343	0.001874	12.4573	76.0242	17.352	-0.053392	0.791032	-0.329959	-0.331317	-0.084408	12.4573	-0.324877	-10973.2	7.692147E-6	NaN
721	1.000000	0.802347	7.37211e+06	-41039.1	1005.82	-29787.6	0.000000	0.000000	6.803039	-0.050290	NaN	0.000000	0.001559	0.001727	28.0824	0.009779	0.002027	4.823910	-21.848	-165.051	-0.048657	0.801106	-0.320002	-0.321242	-0.050290	4.823910	-0.312183	-7134.09	7.049205E-6	NaN
721	1.000000	0.812375	7.37211e+06	-41039.1	1005.82	-29787.6	0.000000	0.000000	6.813069	0.008620	NaN	0.000000	0.001575	0.001727	28.0821	0.110168	0.002038	54.0631	-48.6588	15.0857	-0.020837	0.811002	-0.309974	-0.311347	0.008620	54.0631	-0.310093	-6644.12	-1.297414E-6	NaN
721	1.000000	0.822371	7.37211e+06	-41039.1	1005.82	-29787.6	0.000000	0.000000	6.823062	-0.064680	NaN	0.000000	0.001570	0.001720	28.0823	0.065625	0.002028	32.3674	-28.9613	-170.259	0.053282	0.821062	-0.299978	-0.301286	-0.064680	32.3674	-0.298479	-4466.71	1.448036E-5	NaN
721	1.000000	0.832395	7.37211e+06	-41039.1	1005.82	-29787.6	0.000000	0.000000	6.833088	-0.019527	NaN	0.000000	0.001600	0.001734	28.0821	0.126371	0.001903	66.4023	-61.2512	16.373	-0.058961	0.831058	-0.289953	-0.291290	-0.019527	66.4023	-0.289733	-3305.98	5.906687E-6	NaN
721	1.000000	0.842423	7.37211e+06	-41039.1	1005.82	-29787.6	0.000000	0.000000	6.843118	0.008103	NaN	0.000000	0.001589	0.001743	28.0825	0.186109	0.002079	89.5132	-79.9485	-163.348	-0.022324	0.841075	-0.279925	-0.281274	0.008103	89.5132	-0.279993	-2359.75	-3.433788E-6	NaN
721	1.000000	0.852353	7.37211e+06	-41039.1	1005.82	-29787.6	0.000000	0.000000	6.853046	-0.000744	NaN	0.000000	0.001552	0.001721	28.0821	0.016430	0.001891	8.689499	10.6663	15.5731	-0.024497	0.851053	-0.269996	-0.271296	-0.000744	8.689499	-0.269932	-1661.53	4.479662E-7	NaN
721	1.000000	0.862398	7.37211e+06	-41039.1	1005.82	-29787.6	0.000000	0.000000	6.863089	-0.065319	NaN	0.000000	0.001602	0.001691	28.0822	0.037721	0.001901	19.8477	27.2349	-164.945	0.007129	0.861092	-0.259950	-0.261256	-0.065319	19.8477	-0.257482	-1072.22	6.091901E-5	NaN
721	1.000000	0.872383	7.37211e+06	-41039.1	1005.82	-29787.6	0.000000	0.000000	6.873078	0.019706	NaN	0.000000	0.001612	0.001707	28.0823	0.037622	0.001885	19.9632	-141.408	15.6425	-0.022004	0.871048	-0.249965	-0.251301	0.019706	19.9632	-0.250706	-843.094	-2.337327E-5	NaN
721	1.000000	0.882385	7.37211e+06	-41039.1	1005.82	-29787.6	0.000000	0.000000	6.883077	-0.046886	NaN	0.000000	0.001600	0.001733	28.0821	0.021630	0.002065	10.4735	-13.2319	-164.823	-0.050768	0.881060	-0.239963	-0.241288	-0.046886	10.4735	-0.236606	-508.68	9.217187E-5	NaN
721	1.000000	0.892396	7.37211e+06	-41039.1	1005.82	-29787.6	0.000000	0.000000	6.893087	-0.062320	NaN	0.000000	0.001586	0.001742	28.0823	0.047787	0.001912	24.9882	84.9572	13.1946	-0.035304	0.891029	-0.229953	-0.231320	-0.062320	24.9882	-0.228083	-373.427	0.000167	NaN
721	1.000000	0.902400	7.37211e+06	-41039.1	1005.82	-29787.6	0.000000	0.000000	6.903093	-0.021371	NaN	0.000000	0.001568	0.001739	28.082	0.102649	0.001983	51.775	-169.283	-165.412	-0.029622	0.901101	-0.219948	-0.221248	-0.021371	51.775	-0.219639	-274.096	7.796878E-5	NaN
721	1.000000	0.912421	7.37211e+06	-41039.1	1005.82	-29787.6	0.000000	0.000000	6.913110	-0.096596	NaN	0.000000	0.001585	0.001764	28.0835	0.102756	0.002161	47.5414	132.918	16.0048	-0.132830	0.911048	-0.209928	-0.211301	-0.096596	47.5414	-0.208404	-180.695	0.000535	NaN
721	1.000000	0.922409	7.37211e+06	-41039.1	1005.82	-29787.6	0.000000	0.000000	6.923101	-0.044850	NaN	0.000000	0.001571	0.001734	28.0837	0.051448	0.001977	26.0229	-132.899	-166.419	-0.000763	0.921095	-0.199940	-0.201254	-0.044850	26.0229	-0.198647	-125.154	0.000358	NaN
721	1.000000	0.932408	7.37211e+06	-41039.1	1005.82	-29787.6	0.000000	0.000000	6.933104	0.042760	NaN	0.000000	0.001545	0.001720	28.0836	0.115186	0.002039	56.4881	-39.1942	16.6324	0.066653	0.931104	-0.189940	-0.191244	0.042760	56.4881	-0.190508	-91.7302	-0.000466	NaN
721	1.000000	0.942446	7.37211e+06	-41039.1	1005.82	-29787.6	0.000000	0.000000	6.943138	-0.045675	NaN	0.000000	0.001600	0.001695	28.0836	0.179782	0.002016	89.1771	-67.3432	-163.565	0.069102	0.941125	-0.179903	-0.181224	-0.045675	89.1771	-0.179518	-59.8785	0.000763	NaN
721	1.000000	0.952424	7.37211e+06	-41039.1	1005.82	-29787.6	0.000000	0.000000	6.953116	-0.046521	NaN	0.000000	0.001580	0.001717	28.0836	0.070341	0.002054	34.2405	-14.821	17.7195	-0.032308	0.951096	-0.169924	-0.171253	-0.046521	34.2405	-0.168905	-39.317	0.001183	NaN
721	1.000000	0.962419	7.37211e+06	-41039.1	1005.82	-29787.6	0.000000	0.000000	6.963111	-0.055322	NaN	0.000000	0.001574	0.001717	28.0833	0.109543	0.002040	53.6907	46.4762	-164.536	-0.111884	0.961162	-0.159929	-0.161187	-0.055322	53.6907	-0.159156	-26.4839	0.002089	NaN
721	1.000000	0.972412	7.37211e+06	-41039.1	1005.82	-29787.6	0.000000	0.000000	6.973104	-0.038849	NaN	0.000000	0.001550	0.001721	28.0835	0.161884	0.001910	84.7599	165.582	17.327	-0.041782	0.971017	-0.149937	-0.151331	-0.038849	84.7599	-0.149593	-17.8067	0.002182	NaN
721	1.000000	0.982463	7.37211e+06	-41039.1	1005.82	-29787.6	0.000000	0.000000	6.983155	-0.052799	NaN	0.000000	0.001579	0.001707	28.0836	0.038418	0.002052	18.7191	-126.895	-165.794	-0.095418	0.981124	-0.139885	-0.141225	-0.052799	18.7191	-0.137770	-10.7381	0.004917	NaN
721	1.000000	0.992433	7.37211e+06	-41039.1	1005.82	-29787.6	0.000000	0.000000	6.993125	-0.044224	NaN	0.000000	0.001574	0.001716	28.0834	0.090626	0.001989	45.5541	34.3634	15.1266	-0.032155	0.991116	-0.129916	-0.131232	-0.044224	45.5541	-0.129188	-7.348702	0.006018	NaN
721	1.000000	1.002463	7.37211e+06	-41039.1	1005.82	-29787.6	0.000000	0.000000	7.003157	-0.005503	NaN	0.000000	0.001558	0.001715	28.0834	0.110968	0.002069	53.6352	-130.165	-162.153	-0.009386	1.001176	-0.119886	-0.121173	-0.005503	53.6352	-0.119809	-4.788730	0.001149	NaN
721	1.000000	1.012445	7.37211e+06	-41039.1	1005.82	-29787.6	0.000000	0.000000	7.013139	-0.016168	NaN	0.000000	0.001536	0.001719	28.0833	0.111709	0.001989	56.1549	142.788	15.9482	-0.053727	1.011094	-0.109903	-0.111254	-0.016168	56.1549	-0.109687	-2.959861	0.005462	NaN
721	1.000000	1.022453	7.37211e+06	-41039.1	1005.82	-29787.6	0.000000	0.000000	7.023148	0.029162	NaN	0.000000	0.001561	0.001730	28.0834	0.023971	0.002086	11.4929	56.9468	-165.48	-0.013965	1.021204	-0.099896	-0.101144	0.029162	11.4929	-0.101799	-2.001948	-0.014567	NaN
721	1.000000	1.032444	7.37211e+06	-41039.1	1005.82	-29787.6	0.000000	0.000000	7.033135	-0.077212	NaN	0.000000	0.001546	0.001685	28.0831	0.004787	0.001945	2.461140	148.255	10.7661	-0.050397	1.031119	-0.089904	-0.091230	-0.077212	2.461140	-0.066375	-0.271981	0.283886	NaN
721	1.000000	1.042461	7.37211e+06	-41039.1	1005.82	-29787.6	0.000000	0.000000	7.043155	0.008718	NaN	0.000000	0.001593	0.001682	28.082	0.141374	0.002095	67.491	54.8197	-164.947	-0.035604	1.041129	-0.079887	-0.081220	0.008718	67.491	-0.079984	-0.618430	-0.014097	NaN
721	1.000000	1.052469	7.37211e+06	-41039.1	1005.82	-29787.6	0.000000	0.000000	7.053161	-0.022482	NaN	0.000000	0.001614	0.001692	28.0822	0.140069	0.001946	71.9639	-86.0636	15.6564	-0.071062	1.051134	-0.069880	-0.071214	-0.022482	71.9639	-0.069646	-0.333725	0.067366	NaN
721	1.000000	1.062493	7.37211e+06	-41039.1	1005.82	-29787.6	0.000000	0.000000	7.063185	-0.047011	NaN	0.000000	0.001610	0.001706	28.0821	0.072013	0.001923	37.4413	132.595	-164.266	-0.049611	1.061195	-0.059856	-0.061154	-0.047011	37.4413	-0.058914	-0.167585	0.280517	NaN
721	1.000000	1.072485	7.37211e+06	-41039.1	1005.82	-29787.6	0.000000	0.000000	7.073176	-0.060495	NaN	0.000000	0.001624	0.001695	28.082	0.099434	0.002123	46.8463	143.962	16.9867	-0.053943	1.071105	-0.049864	-0.051243	-0.060495	46.8463	-0.048895	-0.084482	0.716067	NaN
721	1.000000	1.082492	7.37211e+06	-41039.1	1005.82	-29787.6	0.000000	0.000000	7.083183	-0.063469	NaN	0.000000	0.001614	0.001719	28.082	0.110311	0.001942	56.8123	-154.737	-162.833	-0.115817	1.081141	-0.039857	-0.041208	-0.063469	56.8123	-0.039019	-0.042228	1.502984	NaN
721	1.000000	1.092472	7.37211e+06	-41039.1	1005.82	-29787.6	0.000000	0.000000	7.093168	0.040487	NaN	0.000000	0.001601	0.001699	28.0824	0.220766	0.001954	112.982	12.7129	14.1187	-0.038807	1.091081	-0.029876	-0.031268	0.040487	112.982	-0.030145	-0.023228	-1.743039	NaN
721	1.000000	1.102489	7.37211e+06	-41039.1	1005.82	-29787.6	0.000000	0.000000	7.103252	1.685454	NaN	0.000000	0.001595	0.001702	28.0821	1.075527	0.001936	555.465	17.0721	-165.618	1.471155	1.101202	-0.019860	-0.021147	1.685454	555.465	-0.022135	-0.014234	-118.413	NaN
721	1.000000	1.112479	7.37211e+06	-41039.1	1005.82	-29787.6	0.000000	0.000000	7.113282	2.645003	NaN	0.000000	0.001577	0.001710	28.0821	1.888161	0.002038	926.542	17.8337	12.6212	2.623397	1.111136	-0.009870	-0.011212	2.645003	926.542	-0.012011	-0.007535	-351.049	NaN
721	1.000000	1.122385	7.37211e+06	-41039.1	1005.82	-29787.6	0.000000	0.000000	7.123398	7.784249	NaN	0.000000	0.001629	0.001685	28.082	6.733894	0.001778	3788.19	17.0399	-174.196	6.978161	1.121101	3.596142E-5	-0.001247	7.784249	3788.19	-0.001505	-0.001093	-7120.83	NaN
721	2.000000	1.125617	7.37211e+06	-41039.1	1005.82	-29787.6	0.000000	0.000000	7.126719	9.926098	NaN	0.000000	0.001609	0.001707	28.0829	9.019861	0.001699	5309.82	5.914162	12.5554	9.745110	1.125230	0.003268	0.002882	9.926098	5309.82	0.001866	0.001447	6860.04	127534
721	2.000000	1.128032	7.37211e+06	-41039.1	1005.82	-29787.6	0.000000	0.000000	7.129172	10.8604	NaN	0.000000	0.001555	0.001690	28.0821	10.9051	0.001840	5925.81	11.2244	-173.566	10.625	1.127761	0.005683	0.005412	10.8604	5925.81	0.004309	0.003511	3093.2	91369.8
721	2.000000	1.130532	7.37211e+06	-41039.1	1005.82	-29787.6	0.000000	0.000000	7.131834	14.7816	NaN	0.000000	0.001589	0.001721	28.0821	13.4321	0.001647	8154.77	3.796417	8.512124	13.906	1.130151	0.008184	0.007803	14.7816	8154.77	0.006824	0.005861	2522.18	97322.2
721	2.000000	1.132991	7.37211e+06	-41039.1	1005.82	-29787.6	0.000000	0.000000	7.134421	17.9232	NaN	0.000000	0.001563	0.001723	28.082	16.9409	0.001787	9481.89	7.479504	-176.16	17.2169	1.132746	0.010642	0.010397	17.9232	9481.89	0.009225	0.008332	2151.03	94903.6
721	2.000000	1.135568	7.37211e+06	-41039.1	1005.82	-29787.6	0.000000	0.000000	7.137257	24.2099	NaN	0.000000	0.001555	0.001736	28.0826	19.5866	0.001825	10732	9.016147	3.985424	25.2389	1.135090	0.013220	0.012741	24.2099	10732	0.011528	0.010929	2215.17	93791.2
721	2.000000	1.138006	7.37211e+06	-41039.1	1005.82	-29787.6	0.000000	0.000000	7.139856	28.1349	NaN	0.000000	0.001586	0.001700	28.0832	22.5834	0.001928	11714	9.037679	-179.887	27.6401	1.137660	0.015658	0.015312	28.1349	11714	0.013856	0.013790	2040.2	91136.1
721	2.000000	1.140532	7.37211e+06	-41039.1	1005.82	-29787.6	0.000000	0.000000	7.142661	34.912	NaN	0.000000	0.001564	0.001700	28.0835	24.4949	0.001756	13948.4	5.720325	2.233267	34.1135	1.140131	0.018184	0.017783	34.912	13948.4	0.016306	0.017067	2045.58	97548.2
721	2.000000	1.142994	7.37211e+06	-41039.1	1005.82	-29787.6	0.000000	0.000000	7.145314	39.5518	NaN	0.000000	0.001581	0.001721	28.0834	27.2747	0.001754	15552.8	6.064903	-179.091	39.0924	1.142668	0.020646	0.020320	39.5518	15552.8	0.018739	0.020599	1920.11	99006.2
721	2.000000	1.145492	7.37211e+06	-41039.1	1005.82	-29787.6	0.000000	0.000000	7.148240	49.985	NaN	0.000000	0.001621	0.001687	28.0834	28.6207	0.001764	16225.3	4.769456	2.741931	47.4636	1.145079	0.023143	0.022731	49.985	16225.3	0.020833	0.023868	2094.23	95952.7
721	2.000000	1.147996	7.37211e+06	-41039.1	1005.82	-29787.6	0.000000	0.000000	7.151001	56.2275	NaN	0.000000	0.001601	0.001696	28.0834	32.1815	0.001824	17638.7	5.597584	-179.754	56.2463	1.147657	0.025648	0.025309	56.2275	17638.7	0.023257	0.027921	2013.8	96443.7
721	2.000000	1.150467	7.37211e+06	-41039.1	1005.82	-29787.6	0.000000	0.000000	7.153678	61.2585	NaN	0.000000	0.001582	0.001734	28.0839	34.5483	0.001791	19295	4.079703	0.212237	59.8254	1.150115	0.028118	0.027766	61.2585	19295	0.025737	0.032370	1892.43	97981.6
721	2.000000	1.152989	7.37211e+06	-41039.1	1005.82	-29787.6	0.000000	0.000000	7.156508	68.7404	NaN	0.000000	0.001617	0.001696	28.0837	37.8611	0.001760	21509.6	3.394850	-179.86	68.3756	1.152621	0.030641	0.030272	68.7404	21509.6	0.028244	0.037183	1848.73	101914
721	2.000000	1.155514	7.37211e+06	-41039.1	1005.82	-29787.6	0.000000	0.000000	7.159453	78.9601	NaN	0.000000	0.001619	0.001698	28.0834	39.8371	0.001903	20938.3	4.928200	1.233529	77.7923	1.155035	0.033165	0.032686	78.9601	20938.3	0.030337	0.041445	1905.16	93967.4
721	2.000000	1.157963	7.37211e+06	-41039.1	1005.82	-29787.6	0.000000	0.000000	7.162302	88.6821	NaN	0.000000	0.001596	0.001738	28.0835	42.2468	0.001826	23142.1	6.983835	176.055	87.5081	1.157677	0.035615	0.035329	88.6821	23142.1	0.032741	0.046616	1902.38	97928
721	2.000000	1.160402	7.37211e+06	-41039.1	1005.82	-29787.6	0.000000	0.000000	7.165147	98.5747	NaN	0.000000	0.001626	0.001711	28.0839	44.6976	0.001868	23933.6	4.254562	-1.455554	95.1712	1.160114	0.038054	0.037765	98.5747	23933.6	0.034965	0.051664	1908	96202.9
721	2.000000	1.162980	7.37211e+06	-41039.1	1005.82	-29787.6	0.000000	0.000000	7.168058	106.675	NaN	0.000000	0.001625	0.001718	28.0835	46.8089	0.001850	25300.3	5.426267	177.485	107.117	1.162656	0.040631	0.040308	106.675	25300.3	0.037469	0.057651	1850.35	96270.9
721	2.000000	1.165431	7.37211e+06	-41039.1	1005.82	-29787.6	0.000000	0.000000	7.171020	119.12	NaN	0.000000	0.001574	0.001706	28.0836	48.1453	0.001762	27327.4	7.441003	-5.083554	115.598	1.165075	0.043083	0.042727	119.12	27327.4	0.039813	0.063547	1874.52	99043
721	2.000000	1.167928	7.37211e+06	-41039.1	1005.82	-29787.6	0.000000	0.000000	7.173965	130.016	NaN	0.000000	0.001672	0.001720	28.0834	50.8159	0.001677	30300.4	7.793424	173.642	128.273	1.167537	0.045579	0.045188	130.016	30300.4	0.042361	0.070273	1850.16	104430
721	2.000000	1.170386	7.37211e+06	-41039.1	1005.82	-29787.6	0.000000	0.000000	7.177022	144.589	NaN	0.000000	0.001691	0.001739	28.084	53.0262	0.001742	30443.5	3.876563	-2.719024	140.044	1.170169	0.048038	0.047820	144.589	30443.5	0.044476	0.076106	1899.85	100823
721	2.000000	1.172969	7.37211e+06	-41039.1	1005.82	-29787.6	0.000000	0.000000	7.180065	155.784	NaN	0.000000	0.001680	0.001742	28.0822	56.62	0.001695	33404.3	2.454179	177.114	154.809	1.172669	0.050621	0.050320	155.784	33404.3	0.047123	0.083728	1860.58	105472
721	2.000000	1.175414	7.37211e+06	-41039.1	1005.82	-29787.6	0.000000	0.000000	7.183097	170.068	NaN	0.000000	0.001652	0.001729	28.0822	58.8285	0.001792	32831.7	2.229722	-1.358708	164.971	1.175095	0.053065	0.052746	170.068	32831.7	0.049180	0.089897	1891.81	100045
721	2.000000	1.178005	7.37211e+06	-41039.1	1005.82	-29787.6	0.000000	0.000000	7.186154	181.414	NaN	0.000000	0.001671	0.001732	28.0823	60.5461	0.001886	32107.6	3.214047	178.043	183.152	1.177588	0.055656	0.055239	181.414	32107.6	0.051418	0.096848	1873.19	94261.9
721	2.000000	1.180403	7.37211e+06	-41039.1	1005.82	-29787.6	0.000000	0.000000	7.189311	199.88	NaN	0.000000	0.001626	0.001758	28.0829	64.0566	0.001910	33539.5	6.246861	-5.401795	196.011	1.179957	0.058054	0.057608	199.88	33539.5	0.053584	0.103814	1925.38	95104.9
721	2.000000	1.182883	7.37211e+06	-41039.1	1005.82	-29787.6	0.000000	0.000000	7.192204	209.936	NaN	0.000000	0.001599	0.001717	28.082	65.6425	0.001774	37006.2	2.506625	176.865	207.74	1.182633	0.060534	0.060284	209.936	37006.2	0.056280	0.112806	1861.03	100666
721	2.000000	1.185480	7.37211e+06	-41039.1	1005.82	-29787.6	0.000000	0.000000	7.195412	224.799	NaN	0.000000	0.001619	0.001744	28.0825	67.8271	0.001786	37982.1	9.108711	-9.426538	227.007	1.185080	0.063131	0.062731	224.799	37982.1	0.058692	0.121161	1855.37	99694.3
721	2.000000	1.187931	7.37211e+06	-41039.1	1005.82	-29787.6	0.000000	0.000000	7.198317	235.846	NaN	0.000000	0.001609	0.001760	28.0822	69.882	0.001772	39440.1	5.780005	172.905	236.289	1.187705	0.065582	0.065356	235.846	39440.1	0.061097	0.129773	1817.37	100028
721	2.000000	1.190346	7.37211e+06	-41039.1	1005.82	-29787.6	0.000000	0.000000	7.201348	250.81	NaN	0.000000	0.001638	0.001722	28.0823	73.216	0.001923	38081.2	4.879314	-5.318752	244.087	1.189916	0.067998	0.067567	250.81	38081.2	0.063058	0.137002	1830.71	93998.4
721	2.000000	1.192977	7.37211e+06	-41039.1	1005.82	-29787.6	0.000000	0.000000	7.204368	260.301	NaN	0.000000	0.001678	0.001738	28.0821	74.2752	0.001744	42600.9	4.341866	173.492	261.78	1.192757	0.070628	0.070408	260.301	42600.9	0.066046	0.148376	1754.34	101044
721	2.000000	1.195294	7.37211e+06	-41039.1	1005.82	-29787.6	0.000000	0.000000	7.207892	289.664	NaN	0.000000	0.001652	0.001744	28.0825	76.5429	0.001947	39316.9	4.334358	-4.405310	280.134	1.194941	0.072945	0.072592	289.664	39316.9	0.067420	0.153751	1883.99	91610.2
721	2.000000	1.197831	7.37211e+06	-41039.1	1005.82	-29787.6	0.000000	0.000000	7.211291	310.634	NaN	0.000000	0.001660	0.001716	28.0822	78.6982	0.001685	46706	5.612819	172.123	306.733	1.197596	0.075482	0.075248	310.634	46706	0.070494	0.166104	1870.11	104702
721	2.000000	1.200339	7.37211e+06	-41039.1	1005.82	-29787.6	0.000000	0.000000	7.214421	325.768	NaN	0.000000	0.001658	0.001740	28.0825	82.6839	0.001774	46615	4.453528	-6.863487	319.619	1.200097	0.077991	0.077748	325.768	46615	0.072749	0.175451	1856.74	101676
721	2.000000	1.202895	7.37211e+06	-41039.1	1005.82	-29787.6	0.000000	0.000000	7.217705	343.487	NaN	0.000000	0.001665	0.001762	28.0823	86.5112	0.001882	45959.4	6.816925	170.917	341.486	1.202648	0.080547	0.080299	343.487	45959.4	0.074942	0.184769	1859.01	97686.2
721	2.000000	1.205393	7.37211e+06	-41039.1	1005.82	-29787.6	0.000000	0.000000	7.221137	366.206	NaN	0.000000	0.001672	0.001761	28.0835	86.3165	0.001833	47096.8	2.508346	-4.288450	360.34	1.205098	0.083044	0.082749	366.206	47096.8	0.077213	0.194660	1881.26	97527.3
721	2.000000	1.207851	7.37211e+06	-41039.1	1005.82	-29787.6	0.000000	0.000000	7.224606	390.816	NaN	0.000000	0.001677	0.001756	28.0837	88.8746	0.001694	52468.5	3.234550	173.787	387.155	1.207460	0.085502	0.085111	390.816	52468.5	0.079916	0.206748	1890.3	105427
721	2.000000	1.210326	7.37211e+06	-41039.1	1005.82	-29787.6	0.000000	0.000000	7.227616	403.819	NaN	0.000000	0.001660	0.001755	28.0836	92.4181	0.001828	50564.1	4.229771	-7.269146	397.389	1.210038	0.087978	0.087689	403.819	50564.1	0.081988	0.216243	1867.44	99344.7
721	2.000000	1.212742	7.37211e+06	-41039.1	1005.82	-29787.6	0.000000	0.000000	7.230973	426.724	NaN	0.000000	0.001650	0.001752	28.0837	95.4605	0.001887	50581.5	7.179426	169.609	419.085	1.212499	0.090393	0.090150	426.724	50581.5	0.084066	0.225967	1888.44	97217.2
721	2.000000	1.215359	7.37211e+06	-41039.1	1005.82	-29787.6	0.000000	0.000000	7.234546	449.997	NaN	0.000000	0.001669	0.001752	28.0837	95.705	0.001773	53974.9	2.292473	-4.916954	444.775	1.215041	0.093010	0.092693	449.997	53974.9	0.086757	0.238857	1883.96	100901
721	2.000000	1.217732	7.37211e+06	-41039.1	1005.82	-29787.6	0.000000	0.000000	7.237653	467.85	NaN	0.000000	0.001639	0.001775	28.0833	96.6613	0.001715	56369.9	2.082595	174.391	460.277	1.217511	0.095384	0.095162	467.85	56369.9	0.089159	0.250641	1866.61	102871
721	2.000000	1.220264	7.37211e+06	-41039.1	1005.82	-29787.6	0.000000	0.000000	7.241123	490.686	NaN	0.000000	0.001630	0.001756	28.0834	100.653	0.001718	58570.4	8.619412	-12.4811	480.622	1.219824	0.097915	0.097475	490.686	58570.4	0.091632	0.263050	1865.37	104335
721	2.000000	1.221981	7.37211e+06	-41039.1	1005.82	-29787.6	0.000000	0.000000	7.243315	502.235	NaN	0.000000	0.001626	0.001746	28.0835	101.645	0.001705	59619	5.820768	170.782	504.509	1.221515	0.099633	0.099166	502.235	59619	0.093315	0.271656	1848.79	104508