File: remote_trans/data/nanoindenter/0828-1/data/Data_2025-08-06,11h17m57s/2025-07-22_16-23-58_1_333.txt
2025-07-22, 16:23:58, 1
Index	Phase	Displacement	Time	Pos X	Pos Y	Pos Z	Rot A	Rot B	Piezo Z	Force A	Force B	Gripper	Voltage A	Voltage B	Temperature	Amplitude force	Amplitude pos	Stiffness	Phase shift	Phase excitation	Force A raw	Displacement raw	HMax	HMax raw	Real Force	Real Stiffness	Contact Depth	Area	Hardness	Reduced Mod.
[#]	[#]	[um]	[s]	[um]	[um]	[um]	[m°]	[m°]	[um]	[uN]	[uN]	[V]	[V]	[V]	[°C]	[uN]	[um]	[N/m]	[°]	[°]	[uN]	[um]	[um]	[um]	[uN]	[N/m]	[um]	[um^2]	[MPa]	[MPa]
333	1.000000	0.002736	7.36832e+06	-55289.1	955.819	-29742.1	0.000000	0.000000	6.002855	0.107913	NaN	0.000000	0.001698	0.001728	28.0789	0.037197	0.000977	38.057	88.2737	-167.563	-0.042316	0.001458	-1.094171	-1.095449	0.107913	38.057	-1.096297	-4.470554E+14	-2.413860E-16	NaN
333	1.000000	0.012759	7.36832e+06	-55289.1	955.819	-29742.1	0.000000	0.000000	6.012874	0.010608	NaN	0.000000	0.001660	0.001726	28.0787	0.068402	0.001192	57.3661	-7.673783	20.4906	-0.036954	0.011361	-1.084148	-1.085546	0.010608	57.3661	-1.084286	-3.083797E+14	-3.439924E-17	NaN
333	1.000000	0.022684	7.36832e+06	-55289.1	955.819	-29742.1	0.000000	0.000000	6.022798	0.006016	NaN	0.000000	0.001681	0.001699	28.0789	0.026513	0.001732	15.3108	176.579	-164.576	0.025952	0.021315	-1.074223	-1.075592	0.006016	15.3108	-1.074518	-2.279717E+14	-2.638727E-17	NaN
333	1.000000	0.032621	7.36832e+06	-55289.1	955.818	-29742.1	0.000000	0.000000	6.032734	-0.027417	NaN	0.000000	0.001624	0.001712	28.0786	0.047263	0.001828	25.8534	-75.5874	16.1847	-0.006928	0.031253	-1.064286	-1.065654	-0.027417	25.8534	-1.063491	-1.620797E+14	1.691567E-16	NaN
333	1.000000	0.042646	7.36832e+06	-55289.1	955.818	-29742.1	0.000000	0.000000	6.042761	0.030058	NaN	0.000000	0.001644	0.001706	28.079	0.038559	0.001940	19.8731	-117.558	-163.715	0.037052	0.041350	-1.054261	-1.055557	0.030058	19.8731	-1.055395	-1.261643E+14	-2.382423E-16	NaN
333	1.000000	0.052654	7.36832e+06	-55289.1	955.818	-29742.1	0.000000	0.000000	6.052767	-0.008784	NaN	0.000000	0.001647	0.001713	28.0786	0.006171	0.001910	3.231266	154.753	12.0549	-0.042244	0.051272	-1.044253	-1.045635	-0.008784	3.231266	-1.042214	-8.389621E+13	1.047012E-16	NaN
333	1.000000	0.062639	7.36832e+06	-55289.1	955.817	-29742.1	0.000000	0.000000	6.062754	0.015045	NaN	0.000000	0.001675	0.001724	28.0787	0.087959	0.001878	46.8265	177.924	-166.544	0.028502	0.061348	-1.034268	-1.035559	0.015045	46.8265	-1.034509	-6.608800E+13	-2.276522E-16	NaN
333	1.000000	0.072657	7.36832e+06	-55289.1	955.819	-29742.1	0.000000	0.000000	6.072772	0.023420	NaN	0.000000	0.001652	0.001680	28.0787	0.109600	0.002066	53.0558	-87.0019	11.7293	0.101633	0.071304	-1.024250	-1.025603	0.023420	53.0558	-1.024581	-4.859479E+13	-4.819489E-16	NaN
333	1.000000	0.082641	7.36832e+06	-55289.1	955.818	-29742.1	0.000000	0.000000	6.082757	0.032142	NaN	0.000000	0.001647	0.001705	28.078	0.030482	0.001883	16.1895	-152.767	-162.248	0.005485	0.081290	-1.014266	-1.015617	0.032142	16.1895	-1.015755	-3.696825E+13	-8.694382E-16	NaN
333	1.000000	0.092644	7.36832e+06	-55289.1	955.819	-29742.1	0.000000	0.000000	6.092757	-0.032587	NaN	0.000000	0.001668	0.001662	28.0776	0.160270	0.002014	79.5802	-83.7117	14.8331	-0.002845	0.091340	-1.004263	-1.005567	-0.032587	79.5802	-1.003956	-2.564624E+13	1.270627E-15	NaN
333	1.000000	0.102646	7.36832e+06	-55289.1	955.818	-29742.1	0.000000	0.000000	6.102762	0.043230	NaN	0.000000	0.001651	0.001684	28.0777	0.049566	0.001998	24.8028	32.2129	-162.773	0.073214	0.101316	-0.994261	-0.995591	0.043230	24.8028	-0.995568	-1.977415E+13	-2.186165E-15	NaN
333	1.000000	0.112678	7.36832e+06	-55289.1	955.818	-29742.1	0.000000	0.000000	6.112792	0.011679	NaN	0.000000	0.001617	0.001693	28.0775	0.012324	0.001998	6.166497	-36.3562	16.2098	0.056528	0.111327	-0.984229	-0.985580	0.011679	6.166497	-0.985650	-1.453841E+13	-8.033035E-16	NaN
333	1.000000	0.122675	7.36832e+06	-55289.1	955.819	-29742.1	0.000000	0.000000	6.122790	0.040461	NaN	0.000000	0.001609	0.001667	28.0775	0.057478	0.002105	27.2999	-136.038	-165.62	0.098420	0.121357	-0.974232	-0.975550	0.040461	27.2999	-0.975344	-1.056029E+13	-3.831444E-15	NaN
333	1.000000	0.132682	7.36832e+06	-55289.1	955.818	-29742.1	0.000000	0.000000	6.132795	-0.015211	NaN	0.000000	0.001631	0.001656	28.0774	0.030334	0.001992	15.2289	-78.9385	13.963	0.062231	0.131292	-0.964225	-0.965615	-0.015211	15.2289	-0.963476	-7.306877E+12	2.081675E-15	NaN
333	1.000000	0.142677	7.36832e+06	-55289.1	955.818	-29742.1	0.000000	0.000000	6.142793	0.033110	NaN	0.000000	0.001652	0.001724	28.0775	0.089251	0.001877	47.5469	4.951427	-167.976	0.009528	0.141341	-0.954230	-0.955566	0.033110	47.5469	-0.954752	-5.573292E+12	-5.940884E-15	NaN
333	1.000000	0.152666	7.36832e+06	-55289.1	955.819	-29742.1	0.000000	0.000000	6.152782	0.048027	NaN	0.000000	0.001646	0.001709	28.0774	0.062490	0.001951	32.0376	94.3489	14.3069	0.055475	0.151340	-0.944241	-0.945567	0.048027	32.0376	-0.945365	-4.164069E+12	-1.153378E-14	NaN
333	1.000000	0.162676	7.36832e+06	-55289.1	955.818	-29742.1	0.000000	0.000000	6.162789	-0.009991	NaN	0.000000	0.001686	0.001725	28.0777	0.041548	0.002038	20.3897	23.0517	-166.298	-0.042170	0.161324	-0.934231	-0.935583	-0.009991	20.3897	-0.933864	-2.913007E+12	3.429791E-15	NaN
333	1.000000	0.172686	7.36832e+06	-55289.1	955.818	-29742.1	0.000000	0.000000	6.172800	-0.005201	NaN	0.000000	0.001692	0.001732	28.0774	0.046066	0.002068	22.2743	-132.457	13.0637	0.060743	0.171330	-0.924221	-0.925577	-0.005201	22.2743	-0.924046	-2.146962E+12	2.422445E-15	NaN
333	1.000000	0.182699	7.36832e+06	-55289.1	955.819	-29742.1	0.000000	0.000000	6.182811	-0.030969	NaN	0.000000	0.001667	0.001694	28.0774	0.012210	0.002075	5.884930	-34.7254	-165.395	0.004019	0.181370	-0.914208	-0.915537	-0.030969	5.884930	-0.910262	-1.398606E+12	2.214274E-14	NaN
333	1.000000	0.192691	7.36832e+06	-55289.1	955.819	-29742.1	0.000000	0.000000	6.192803	-0.048957	NaN	0.000000	0.001683	0.001716	28.077	0.013373	0.002010	6.653092	-122.729	10.2562	-0.086102	0.191351	-0.904216	-0.905557	-0.048957	6.653092	-0.898697	-9.760193E+11	5.015968E-14	NaN
333	1.000000	0.202695	7.36832e+06	-55289.1	955.818	-29742.1	0.000000	0.000000	6.202807	-0.055012	NaN	0.000000	0.001686	0.001695	28.0775	0.047705	0.001982	24.0689	13.3229	-162.902	-0.033694	0.201381	-0.894212	-0.895526	-0.055012	24.0689	-0.892498	-8.047864E+11	6.835619E-14	NaN
333	1.000000	0.212658	7.36832e+06	-55289.1	955.819	-29742.1	0.000000	0.000000	6.212772	0.003606	NaN	0.000000	0.001711	0.001711	28.0773	0.016502	0.002017	8.182672	74.8037	11.3947	-0.028686	0.211364	-0.884249	-0.885543	0.003606	8.182672	-0.884579	-6.289738E+11	-5.733839E-15	NaN
333	1.000000	0.222712	7.36832e+06	-55289.1	955.818	-29742.1	0.000000	0.000000	6.222829	0.066507	NaN	0.000000	0.001694	0.001624	28.0787	0.071151	0.002005	35.4938	-72.9497	-165.412	0.024463	0.221406	-0.874195	-0.875502	0.066507	35.4938	-0.875600	-4.755544E+11	-1.398510E-13	NaN
333	1.000000	0.232713	7.36832e+06	-55289.1	955.819	-29742.1	0.000000	0.000000	6.232827	-0.002747	NaN	0.000000	0.001712	0.001642	28.0786	0.077453	0.001960	39.5095	179.727	16.8618	0.052064	0.231333	-0.864194	-0.865574	-0.002747	39.5095	-0.864141	-3.327906E+11	8.253860E-15	NaN
333	1.000000	0.242751	7.36832e+06	-55289.1	955.818	-29742.1	0.000000	0.000000	6.242864	-0.025184	NaN	0.000000	0.001675	0.001628	28.0789	0.097467	0.002012	48.4468	136.309	-165.338	-0.017289	0.241413	-0.854156	-0.855494	-0.025184	48.4468	-0.853766	-2.408407E+11	1.045687E-13	NaN
333	1.000000	0.252738	7.36832e+06	-55289.1	955.819	-29742.1	0.000000	0.000000	6.252853	0.021614	NaN	0.000000	0.001737	0.001644	28.0787	0.065231	0.001963	33.2361	78.162	15.6366	0.005758	0.251404	-0.844169	-0.845503	0.021614	33.2361	-0.844657	-1.812907E+11	-1.192220E-13	NaN
333	1.000000	0.262689	7.36832e+06	-55289.1	955.819	-29742.1	0.000000	0.000000	6.262804	0.011798	NaN	0.000000	0.001654	0.001654	28.0786	0.014424	0.001988	7.255767	-120.472	-169.333	0.002940	0.261461	-0.834218	-0.835446	0.011798	7.255767	-0.835437	-1.359795E+11	-8.676216E-14	NaN
333	1.000000	0.272735	7.36832e+06	-55289.1	955.819	-29742.1	0.000000	0.000000	6.272847	-0.030509	NaN	0.000000	0.001690	0.001666	28.0789	0.074303	0.001988	37.3768	-57.1201	16.3756	-0.004794	0.271342	-0.824172	-0.825565	-0.030509	37.3768	-0.823560	-9.386142E+10	3.250401E-13	NaN
333	1.000000	0.282758	7.36832e+06	-55289.1	955.819	-29742.1	0.000000	0.000000	6.282870	-0.028195	NaN	0.000000	0.001709	0.001658	28.0782	0.043310	0.001964	22.048	154.649	-165.3	-0.085425	0.281459	-0.814149	-0.815448	-0.028195	22.048	-0.813190	-6.789743E+10	4.152518E-13	NaN
333	1.000000	0.292726	7.36832e+06	-55289.1	955.818	-29742.1	0.000000	0.000000	6.292840	0.006815	NaN	0.000000	0.001707	0.001657	28.0789	0.041899	0.001947	21.5145	6.299485	11.8651	-0.107935	0.291384	-0.804181	-0.805523	0.006815	21.5145	-0.804419	-5.162251E+10	-1.320201E-13	NaN
333	1.000000	0.302705	7.36832e+06	-55289.1	955.818	-29742.1	0.000000	0.000000	6.302819	0.001270	NaN	0.000000	0.001691	0.001652	28.0788	0.012542	0.001962	6.391082	164.285	-164.377	0.093265	0.301458	-0.794202	-0.795450	0.001270	6.391082	-0.794351	-3.768528E+10	-3.369744E-14	NaN
333	1.000000	0.312761	7.36832e+06	-55289.1	955.818	-29742.1	0.000000	0.000000	6.312876	0.017507	NaN	0.000000	0.001678	0.001642	28.0792	0.054763	0.002167	25.2735	-119.606	17.6984	0.041841	0.311394	-0.784146	-0.785513	0.017507	25.2735	-0.784665	-2.783690E+10	-6.289011E-13	NaN
333	1.000000	0.322766	7.36832e+06	-55289.1	955.819	-29742.1	0.000000	0.000000	6.322880	0.011037	NaN	0.000000	0.001722	0.001638	28.0787	0.110364	0.001976	55.8494	-83.7553	-165.336	0.026470	0.321447	-0.774141	-0.775460	0.011037	55.8494	-0.774289	-2.011961E+10	-5.485613E-13	NaN
333	1.000000	0.332769	7.36832e+06	-55289.1	955.817	-29742.1	0.000000	0.000000	6.332882	-0.041039	NaN	0.000000	0.001688	0.001610	28.079	0.059096	0.002074	28.4878	-105.827	11.1715	-0.023799	0.331418	-0.764138	-0.765489	-0.041039	28.4878	-0.763057	-1.415432E+10	2.899429E-12	NaN
333	1.000000	0.342756	7.36832e+06	-55289.1	955.818	-29742.1	0.000000	0.000000	6.342871	0.048771	NaN	0.000000	0.001637	0.001650	28.0785	0.048954	0.001913	25.5868	128.272	-162.776	0.100242	0.341422	-0.754152	-0.755485	0.048771	25.5868	-0.755581	-1.119899E+10	-4.354916E-12	NaN
333	1.000000	0.352777	7.36832e+06	-55289.1	955.818	-29742.1	0.000000	0.000000	6.352893	0.041341	NaN	0.000000	0.001599	0.001629	28.079	0.063805	0.002007	31.7847	-128.714	15.1563	0.025381	0.351429	-0.744130	-0.745478	0.041341	31.7847	-0.745105	-8.064534E+9	-5.126298E-12	NaN
333	1.000000	0.362772	7.36832e+06	-55289.1	955.819	-29742.1	0.000000	0.000000	6.362886	0.003137	NaN	0.000000	0.001631	0.001664	28.0774	0.041868	0.001931	21.6831	114.126	-164.952	0.059030	0.361470	-0.734135	-0.735437	0.003137	21.6831	-0.734244	-5.736433E+9	-5.468930E-13	NaN
333	1.000000	0.372783	7.36832e+06	-55289.1	955.818	-29742.1	0.000000	0.000000	6.372898	0.006264	NaN	0.000000	0.001603	0.001635	28.0776	0.093356	0.002044	45.6696	7.241126	12.9138	-0.011140	0.371413	-0.724124	-0.725494	0.006264	45.6696	-0.724227	-4.188959E+9	-1.495465E-12	NaN
333	1.000000	0.382784	7.36832e+06	-55289.1	955.817	-29742.1	0.000000	0.000000	6.382897	-0.012581	NaN	0.000000	0.001588	0.001661	28.0779	0.130864	0.002088	62.6694	-112.032	-166.35	-0.071231	0.381429	-0.714123	-0.715478	-0.012581	62.6694	-0.713973	-3.035693E+9	4.144392E-12	NaN
333	1.000000	0.392756	7.36832e+06	-55289.1	955.818	-29742.1	0.000000	0.000000	6.392866	-0.085048	NaN	0.000000	0.001601	0.001614	28.0776	0.049644	0.001931	25.7112	149.377	16.8866	-0.086146	0.391479	-0.704151	-0.705428	-0.085048	25.7112	-0.701670	-2.062255E+9	4.124039E-11	NaN
333	1.000000	0.402788	7.36832e+06	-55289.1	955.818	-29742.1	0.000000	0.000000	6.402903	0.013240	NaN	0.000000	0.001588	0.001621	28.0774	0.106824	0.001838	58.1117	26.118	-164.142	0.035727	0.401495	-0.694119	-0.695412	0.013240	58.1117	-0.694290	-1.635062E+9	-8.097369E-12	NaN
333	1.000000	0.412783	7.36832e+06	-55289.1	955.819	-29742.1	0.000000	0.000000	6.412897	-0.009069	NaN	0.000000	0.001607	0.001646	28.0775	0.096032	0.001938	49.5477	171.988	16.4763	-0.022733	0.411440	-0.684124	-0.685467	-0.009069	49.5477	-0.683987	-1.182280E+9	7.671147E-12	NaN
333	1.000000	0.422803	7.36832e+06	-55289.1	955.817	-29742.1	0.000000	0.000000	6.422917	0.004076	NaN	0.000000	0.001639	0.001669	28.0777	0.008657	0.002005	4.316858	-44.9045	-163.851	0.032893	0.421528	-0.674104	-0.675380	0.004076	4.316858	-0.674812	-8.856077E+8	-4.602227E-12	NaN
333	1.000000	0.432818	7.36832e+06	-55289.1	955.819	-29742.1	0.000000	0.000000	6.432932	0.008423	NaN	0.000000	0.001610	0.001664	28.0773	0.159725	0.002047	78.0282	-130.347	13.7904	-0.054971	0.431451	-0.664089	-0.665456	0.008423	78.0282	-0.664170	-6.332542E+8	-1.330174E-11	NaN
333	1.000000	0.442793	7.36832e+06	-55289.1	955.818	-29742.1	0.000000	0.000000	6.442911	0.106892	NaN	0.000000	0.001609	0.001650	28.0775	0.131426	0.001933	67.9736	-118.231	-162.515	0.138961	0.441473	-0.654114	-0.655434	0.106892	67.9736	-0.655294	-4.786198E+8	-2.233330E-10	NaN
333	1.000000	0.452816	7.36832e+06	-55289.1	955.818	-29742.1	0.000000	0.000000	6.452928	-0.062537	NaN	0.000000	0.001629	0.001694	28.0773	0.075449	0.001927	39.1558	-68.554	16.205	-0.080571	0.451474	-0.644091	-0.645433	-0.062537	39.1558	-0.642893	-3.235752E+8	1.932691E-10	NaN
333	1.000000	0.462820	7.36832e+06	-55289.1	955.818	-29742.1	0.000000	0.000000	6.462934	-0.005057	NaN	0.000000	0.001616	0.001656	28.0777	0.100228	0.001924	52.0902	-95.8391	-163.6	-0.085577	0.461504	-0.634087	-0.635403	-0.005057	52.0902	-0.634014	-2.444233E+8	2.068882E-11	NaN
333	1.000000	0.472808	7.36832e+06	-55289.1	955.818	-29742.1	0.000000	0.000000	6.472919	-0.077173	NaN	0.000000	0.001627	0.001685	28.0775	0.022110	0.001970	11.2212	-99.2534	14.3493	-0.095234	0.471465	-0.624099	-0.625442	-0.077173	11.2212	-0.618940	-1.517293E+8	5.086248E-10	NaN
333	1.000000	0.482815	7.36832e+06	-55289.1	955.819	-29742.1	0.000000	0.000000	6.482930	0.015147	NaN	0.000000	0.001607	0.001695	28.0776	0.009283	0.001939	4.787476	-57.9284	-165.814	0.007799	0.481484	-0.614092	-0.615423	0.015147	4.787476	-0.616465	-1.402914E+8	-1.079675E-10	NaN
333	1.000000	0.492834	7.36832e+06	-55289.1	955.819	-29742.1	0.000000	0.000000	6.492946	-0.034747	NaN	0.000000	0.001630	0.001692	28.0784	0.054924	0.002103	26.117	82.4529	15.7457	-0.000628	0.491452	-0.604073	-0.605455	-0.034747	26.117	-0.603075	-9.179273E+7	3.785379E-10	NaN
333	1.000000	0.502841	7.36832e+06	-55289.1	955.818	-29742.1	0.000000	0.000000	6.502957	0.064332	NaN	0.000000	0.001633	0.001722	28.079	0.028411	0.002008	14.1512	-116.305	-164.824	-0.030457	0.501490	-0.594066	-0.595417	0.064332	14.1512	-0.597476	-7.685901E+7	-8.370113E-10	NaN
333	1.000000	0.512843	7.36832e+06	-55289.1	955.819	-29742.1	0.000000	0.000000	6.512955	-0.030342	NaN	0.000000	0.001600	0.001684	28.0786	0.072328	0.002011	35.9603	-67.6053	15.8056	-0.028206	0.511449	-0.584064	-0.585458	-0.030342	35.9603	-0.583431	-4.921265E+7	6.165389E-10	NaN
333	1.000000	0.522838	7.36832e+06	-55289.1	955.818	-29742.1	0.000000	0.000000	6.522953	0.021612	NaN	0.000000	0.001600	0.001628	28.0789	0.078257	0.001849	42.3196	17.7881	-166.708	-0.027514	0.521564	-0.574069	-0.575343	0.021612	42.3196	-0.574452	-3.699420E+7	-5.842095E-10	NaN
333	1.000000	0.532825	7.36832e+06	-55289.1	955.818	-29742.1	0.000000	0.000000	6.532939	0.010950	NaN	0.000000	0.001636	0.001691	28.0787	0.089996	0.001927	46.7073	-131.908	13.5457	-0.017082	0.531425	-0.564083	-0.565482	0.010950	46.7073	-0.564258	-2.674680E+7	-4.094037E-10	NaN
333	1.000000	0.542840	7.36832e+06	-55289.1	955.818	-29742.1	0.000000	0.000000	6.542956	0.053587	NaN	0.000000	0.001584	0.001672	28.0791	0.063079	0.001867	33.7854	-21.0184	-165.606	0.041841	0.541553	-0.554067	-0.555354	0.053587	33.7854	-0.555256	-2.007871E+7	-2.668824E-9	NaN
333	1.000000	0.552885	7.36832e+06	-55289.1	955.817	-29742.1	0.000000	0.000000	6.553000	0.017294	NaN	0.000000	0.001571	0.001678	28.0786	0.050814	0.002028	25.0577	-167.999	15.5071	0.063180	0.551478	-0.544022	-0.545429	0.017294	25.0577	-0.544539	-1.426580E+7	-1.212264E-9	NaN
333	1.000000	0.562877	7.36832e+06	-55289.1	955.819	-29742.1	0.000000	0.000000	6.562992	0.019171	NaN	0.000000	0.001591	0.001649	28.0788	0.046313	0.002038	22.723	-146.786	-163.959	0.005958	0.561530	-0.534030	-0.535377	0.019171	22.723	-0.534663	-1.040665E+7	-1.842225E-9	NaN
333	1.000000	0.572849	7.36832e+06	-55289.1	955.819	-29742.1	0.000000	0.000000	6.572961	-0.039547	NaN	0.000000	0.001575	0.001621	28.0783	0.051080	0.002048	24.9425	158.942	15.1088	-0.016084	0.571479	-0.524058	-0.525428	-0.039547	24.9425	-0.522869	-7.13666e+06	5.541457E-9	NaN
333	1.000000	0.582853	7.36832e+06	-55289.1	955.818	-29742.1	0.000000	0.000000	6.582970	0.073237	NaN	0.000000	0.001603	0.001664	28.0788	0.069227	0.002088	33.1581	-135.599	-166.98	0.046530	0.581573	-0.514054	-0.515334	0.073237	33.1581	-0.515711	-5.67448e+06	-1.290647E-8	NaN
333	1.000000	0.592873	7.36832e+06	-55289.1	955.819	-29742.1	0.000000	0.000000	6.592985	-0.041821	NaN	0.000000	0.001635	0.001643	28.0784	0.062995	0.001974	31.9184	-127.199	18.2862	-0.034823	0.591463	-0.504034	-0.505444	-0.041821	31.9184	-0.503052	-3.78077e+06	1.106157E-8	NaN
333	1.000000	0.602874	7.36832e+06	-55289.1	955.819	-29742.1	0.000000	0.000000	6.602990	0.036021	NaN	0.000000	0.001627	0.001660	28.0787	0.039261	0.002012	19.512	-41.6663	-166.058	-0.061993	0.601528	-0.494033	-0.495379	0.036021	19.512	-0.495417	-2.95841e+06	-1.217562E-8	NaN
333	1.000000	0.612856	7.36832e+06	-55289.1	955.818	-29742.1	0.000000	0.000000	6.612970	-0.000897	NaN	0.000000	0.001584	0.001659	28.0787	0.050327	0.001932	26.0439	-78.4139	13.0721	0.032491	0.611558	-0.484051	-0.485350	-0.000897	26.0439	-0.484025	-2.05049e+06	4.373022E-10	NaN
333	1.000000	0.622844	7.36832e+06	-55289.1	955.819	-29742.1	0.000000	0.000000	6.622958	0.006192	NaN	0.000000	0.001625	0.001676	28.0789	0.068885	0.001934	35.615	67.857	-166.695	-0.028386	0.621552	-0.474063	-0.475355	0.006192	35.615	-0.474193	-1.49346e+06	-4.146057E-9	NaN
333	1.000000	0.632860	7.36832e+06	-55289.1	955.818	-29742.1	0.000000	0.000000	6.632974	0.003540	NaN	0.000000	0.001625	0.001717	28.0772	0.041718	0.001918	21.7472	5.871135	15.0257	0.039766	0.631548	-0.464047	-0.465359	0.003540	21.7472	-0.464169	-1.08038e+06	-3.276877E-9	NaN
333	1.000000	0.642906	7.36832e+06	-55289.1	955.818	-29742.1	0.000000	0.000000	6.643018	-0.041059	NaN	0.000000	0.001620	0.001680	28.0775	0.111424	0.002111	52.7868	-89.6432	-165.192	0.049609	0.641557	-0.454001	-0.455350	-0.041059	52.7868	-0.453418	-762873	5.382097E-8	NaN
333	1.000000	0.652874	7.36832e+06	-55289.1	955.819	-29742.1	0.000000	0.000000	6.652991	0.080645	NaN	0.000000	0.001624	0.001672	28.0773	0.011051	0.002128	5.193797	122.08	14.7677	-0.000585	0.651550	-0.444033	-0.445357	0.080645	5.193797	-0.455679	-820852	-9.824585E-8	NaN
333	1.000000	0.662904	7.36832e+06	-55289.1	955.818	-29742.1	0.000000	0.000000	6.663018	0.004180	NaN	0.000000	0.001625	0.001668	28.0776	0.080577	0.001982	40.6497	165.472	-166.34	-0.063347	0.661583	-0.434003	-0.435324	0.004180	40.6497	-0.434080	-407155	-1.026714E-8	NaN
333	1.000000	0.672921	7.36832e+06	-55289.1	955.819	-29742.1	0.000000	0.000000	6.673037	0.053791	NaN	0.000000	0.001593	0.001660	28.0772	0.051595	0.001994	25.8804	-48.8412	14.4323	0.070601	0.671539	-0.423986	-0.425368	0.053791	25.8804	-0.425545	-308317	-1.744675E-7	NaN
333	1.000000	0.682904	7.36832e+06	-55289.1	955.817	-29742.1	0.000000	0.000000	6.683016	-0.040011	NaN	0.000000	0.001579	0.001626	28.0775	0.068038	0.002041	33.3324	57.8652	-167.261	-0.083975	0.681581	-0.414003	-0.415326	-0.040011	33.3324	-0.413103	-205354	1.948390E-7	NaN
333	1.000000	0.692907	7.36832e+06	-55289.1	955.819	-29742.1	0.000000	0.000000	6.693019	-0.064409	NaN	0.000000	0.001602	0.001684	28.0772	0.043504	0.001966	22.1242	-129.077	13.4877	-0.011369	0.691527	-0.404000	-0.405380	-0.064409	22.1242	-0.401816	-141870	4.540006E-7	NaN
333	1.000000	0.702931	7.36832e+06	-55289.1	955.818	-29742.1	0.000000	0.000000	6.703042	-0.077044	NaN	0.000000	0.001598	0.001687	28.0774	0.050602	0.001947	25.9898	-86.6162	-166.213	-0.024945	0.701582	-0.393976	-0.395325	-0.077044	25.9898	-0.391753	-101914	7.559751E-7	NaN
333	1.000000	0.712924	7.36832e+06	-55289.1	955.817	-29742.1	0.000000	0.000000	6.713040	0.034660	NaN	0.000000	0.001613	0.001685	28.0768	0.109783	0.002024	54.2344	-153.349	11.4882	-0.034542	0.711540	-0.383983	-0.385367	0.034660	54.2344	-0.384462	-80145.1	-4.324638E-7	NaN
333	1.000000	0.722910	7.36832e+06	-55289.1	955.818	-29742.1	0.000000	0.000000	6.723024	0.009412	NaN	0.000000	0.001640	0.001635	28.0775	0.031993	0.001990	16.0789	40.6043	-166.652	-0.004559	0.721561	-0.373997	-0.375346	0.009412	16.0789	-0.374436	-57539.9	-1.635720E-7	NaN
333	1.000000	0.732929	7.36832e+06	-55289.1	955.818	-29742.1	0.000000	0.000000	6.733042	-0.014282	NaN	0.000000	0.001640	0.001655	28.0773	0.064532	0.001955	33.0156	90.9798	14.6151	0.018819	0.731546	-0.363978	-0.365361	-0.014282	33.0156	-0.363654	-40236.9	3.549503E-7	NaN
333	1.000000	0.742940	7.36833e+06	-55289.1	955.819	-29742.1	0.000000	0.000000	6.743057	0.075917	NaN	0.000000	0.001673	0.001638	28.0773	0.075478	0.002015	37.4496	-54.5696	-168.55	0.135358	0.741626	-0.353967	-0.355281	0.075917	37.4496	-0.355487	-30658.7	-2.476212E-6	NaN
333	1.000000	0.752943	7.36833e+06	-55289.1	955.819	-29742.1	0.000000	0.000000	6.753056	-0.039544	NaN	0.000000	0.001694	0.001663	28.0774	0.029830	0.002069	14.417	-161.277	13.9964	-0.023119	0.751570	-0.343964	-0.345337	-0.039544	14.417	-0.341907	-19468.6	2.031144E-6	NaN
333	1.000000	0.762993	7.36833e+06	-55289.1	955.818	-29742.1	0.000000	0.000000	6.763106	-0.004945	NaN	0.000000	0.001667	0.001656	28.0769	0.021639	0.001971	10.978	139.954	-163.543	0.002616	0.761651	-0.333914	-0.335256	-0.004945	10.978	-0.333577	-14715.8	3.360276E-7	NaN
333	1.000000	0.772961	7.36833e+06	-55289.1	955.818	-29742.1	0.000000	0.000000	6.773076	0.013516	NaN	0.000000	0.001655	0.001619	28.0787	0.109412	0.002034	53.7985	125.435	10.8191	0.101619	0.771591	-0.323946	-0.325317	0.013516	53.7985	-0.324134	-10701	-1.263073E-6	NaN
333	1.000000	0.782961	7.36833e+06	-55289.1	955.818	-29742.1	0.000000	0.000000	6.783076	0.013095	NaN	0.000000	0.001656	0.001655	28.0784	0.046718	0.001974	23.6698	-2.154038	-164.921	0.080416	0.781607	-0.313946	-0.315300	0.013095	23.6698	-0.314361	-7682.65	-1.704472E-6	NaN
333	1.000000	0.792946	7.36833e+06	-55289.1	955.817	-29742.1	0.000000	0.000000	6.793064	0.077610	NaN	0.000000	0.001656	0.001676	28.0787	0.129015	0.001969	65.5115	-175.703	16.2355	0.048354	0.791566	-0.303961	-0.305341	0.077610	65.5115	-0.304849	-5555.39	-1.397018E-5	NaN
333	1.000000	0.802961	7.36833e+06	-55289.1	955.819	-29742.1	0.000000	0.000000	6.803076	0.010067	NaN	0.000000	0.001639	0.001636	28.0785	0.045037	0.002078	21.6759	-148.633	-165.971	-0.083961	0.801600	-0.293946	-0.295307	0.010067	21.6759	-0.294294	-3868.5	-2.602309E-6	NaN
333	1.000000	0.812930	7.36833e+06	-55289.1	955.819	-29742.1	0.000000	0.000000	6.813044	-0.004048	NaN	0.000000	0.001685	0.001616	28.0788	0.116333	0.002051	56.733	83.594	14.9176	0.057102	0.811653	-0.283977	-0.285254	-0.004048	56.733	-0.283924	-2704.46	1.496845E-6	NaN
333	1.000000	0.822976	7.36833e+06	-55289.1	955.818	-29742.1	0.000000	0.000000	6.823094	0.088358	NaN	0.000000	0.001696	0.001630	28.0782	0.046539	0.001995	23.3226	160.764	-167.634	0.098201	0.821638	-0.273931	-0.275269	0.088358	23.3226	-0.276772	-2109.68	-4.188235E-5	NaN
333	1.000000	0.832961	7.36833e+06	-55289.1	955.817	-29742.1	0.000000	0.000000	6.833077	0.051485	NaN	0.000000	0.001664	0.001606	28.0787	0.040325	0.001970	20.4694	83.9999	16.7591	0.048426	0.831567	-0.263946	-0.265340	0.051485	20.4694	-0.265832	-1439.09	-3.577625E-5	NaN
333	1.000000	0.842997	7.36833e+06	-55289.1	955.818	-29742.1	0.000000	0.000000	6.843114	0.072292	NaN	0.000000	0.001635	0.001655	28.0786	0.080031	0.002014	39.7276	166.066	-164.397	0.120888	0.841628	-0.253910	-0.255279	0.072292	39.7276	-0.255274	-991.609	-7.290344E-5	NaN
333	1.000000	0.852989	7.36833e+06	-55289.1	955.818	-29742.1	0.000000	0.000000	6.853105	0.054787	NaN	0.000000	0.001680	0.001676	28.0787	0.077780	0.002042	38.0938	0.557669	15.438	0.042768	0.851658	-0.243918	-0.245249	0.054787	38.0938	-0.244997	-687.704	-7.966672E-5	NaN
333	1.000000	0.862974	7.36833e+06	-55289.1	955.818	-29742.1	0.000000	0.000000	6.863086	-0.060447	NaN	0.000000	0.001647	0.001649	28.0785	0.043673	0.002106	20.7421	83.8742	-164.052	-0.010181	0.861638	-0.233933	-0.235269	-0.060447	20.7421	-0.231747	-426.659	0.000142	NaN
333	1.000000	0.872972	7.36833e+06	-55289.1	955.818	-29742.1	0.000000	0.000000	6.873086	-0.013575	NaN	0.000000	0.001693	0.001640	28.0785	0.036284	0.002061	17.6051	-108.261	13.761	-0.056999	0.871655	-0.223935	-0.225252	-0.013575	17.6051	-0.223357	-314.2	4.320541E-5	NaN
333	1.000000	0.882983	7.36833e+06	-55289.1	955.818	-29742.1	0.000000	0.000000	6.883098	0.027613	NaN	0.000000	0.001602	0.001593	28.0786	0.057340	0.001919	29.8759	135.166	-164.189	0.073748	0.881718	-0.213924	-0.215189	0.027613	29.8759	-0.214617	-227.693	-0.000121	NaN
333	1.000000	0.893008	7.36833e+06	-55289.1	955.818	-29742.1	0.000000	0.000000	6.893123	0.010892	NaN	0.000000	0.001597	0.001646	28.0786	0.050039	0.002037	24.5708	154.459	15.2964	-0.017769	0.891652	-0.203899	-0.205255	0.010892	24.5708	-0.204231	-154.53	-7.048326E-5	NaN
333	1.000000	0.903004	7.36833e+06	-55289.1	955.819	-29742.1	0.000000	0.000000	6.903119	0.007508	NaN	0.000000	0.001638	0.001622	28.0776	0.128064	0.001989	64.3833	164.965	-169.475	0.043040	0.901704	-0.193903	-0.195203	0.007508	64.3833	-0.193990	-104.823	-7.162618E-5	NaN
333	1.000000	0.912991	7.36833e+06	-55289.1	955.819	-29742.1	0.000000	0.000000	6.913105	0.005925	NaN	0.000000	0.001580	0.001635	28.0772	0.085465	0.001915	44.6175	-18.4491	13.2466	0.074149	0.911660	-0.183916	-0.185247	0.005925	44.6175	-0.184016	-71.3731	-8.302065E-5	NaN
333	1.000000	0.923019	7.36833e+06	-55289.1	955.818	-29742.1	0.000000	0.000000	6.923135	0.050233	NaN	0.000000	0.001628	0.001641	28.0773	0.027542	0.002035	13.5361	70.4453	-168.183	0.080166	0.921700	-0.173888	-0.175207	0.050233	13.5361	-0.176671	-53.5358	-0.000938	NaN
333	1.000000	0.932979	7.36833e+06	-55289.1	955.819	-29742.1	0.000000	0.000000	6.933091	-0.041681	NaN	0.000000	0.001625	0.001673	28.0772	0.062179	0.002045	30.4041	82.3471	13.2176	0.064735	0.931664	-0.163928	-0.165243	-0.041681	30.4041	-0.162900	-30.8559	0.001351	NaN
333	1.000000	0.942985	7.36833e+06	-55289.1	955.819	-29742.1	0.000000	0.000000	6.943100	0.028856	NaN	0.000000	0.001656	0.001668	28.0772	0.063501	0.001928	32.9411	-19.3247	-161.675	-0.012566	0.941733	-0.153922	-0.155174	0.028856	32.9411	-0.154579	-21.9282	-0.001316	NaN
333	1.000000	0.953053	7.36833e+06	-55289.1	955.82	-29742.1	0.000000	0.000000	6.953168	0.019790	NaN	0.000000	0.001625	0.001666	28.0772	0.078059	0.002061	37.8687	85.7222	16.6214	0.055363	0.951677	-0.143854	-0.145230	0.019790	37.8687	-0.144246	-14.1972	-0.001394	NaN
333	1.000000	0.963033	7.36833e+06	-55289.1	955.818	-29742.1	0.000000	0.000000	6.963149	0.037133	NaN	0.000000	0.001603	0.001705	28.0774	0.050538	0.002045	24.7133	-125.199	-164.804	0.028304	0.961676	-0.133874	-0.135231	0.037133	24.7133	-0.135001	-9.512702	-0.003904	NaN
333	1.000000	0.973050	7.36833e+06	-55289.1	955.818	-29742.1	0.000000	0.000000	6.973162	-0.056870	NaN	0.000000	0.001626	0.001707	28.0774	0.038907	0.001914	20.3306	-81.9919	13.9177	-0.022348	0.971603	-0.123857	-0.125304	-0.056870	20.3306	-0.121759	-5.241546	0.010850	NaN
333	1.000000	0.982993	7.36833e+06	-55289.1	955.817	-29742.1	0.000000	0.000000	6.983108	0.013467	NaN	0.000000	0.001609	0.001668	28.0772	0.103745	0.002013	51.5435	130.121	-167.838	-0.027521	0.981732	-0.113914	-0.115175	0.013467	51.5435	-0.114110	-3.661970	-0.003678	NaN
333	1.000000	0.993044	7.36833e+06	-55289.1	955.818	-29742.1	0.000000	0.000000	6.993161	0.077135	NaN	0.000000	0.001623	0.001648	28.0775	0.030835	0.001986	15.5242	129.131	15.6004	0.125771	0.991669	-0.103863	-0.105238	0.077135	15.5242	-0.107589	-2.671470	-0.028873	NaN
333	1.000000	1.003058	7.36833e+06	-55289.1	955.818	-29742.1	0.000000	0.000000	7.003172	0.008934	NaN	0.000000	0.001639	0.001651	28.0771	0.095849	0.001911	50.1464	-154.928	-164.463	-0.012162	1.001766	-0.093849	-0.095141	0.008934	50.1464	-0.093983	-1.337113	-0.006681	NaN
333	1.000000	1.013017	7.36833e+06	-55289.1	955.818	-29742.1	0.000000	0.000000	7.013132	0.016190	NaN	0.000000	0.001610	0.001648	28.0773	0.049967	0.002123	23.5371	142.146	13.4076	-0.015208	1.011651	-0.083890	-0.085256	0.016190	23.5371	-0.084406	-0.794829	-0.020369	NaN
333	1.000000	1.023040	7.36833e+06	-55289.1	955.818	-29742.1	0.000000	0.000000	7.023154	0.021822	NaN	0.000000	0.001651	0.001677	28.0772	0.080796	0.002050	39.4196	-6.078213	-165.621	-0.019764	1.021728	-0.073867	-0.075179	0.021822	39.4196	-0.074283	-0.442502	-0.049315	NaN
333	1.000000	1.033022	7.36833e+06	-55289.1	955.819	-29742.1	0.000000	0.000000	7.033138	0.045788	NaN	0.000000	0.001635	0.001664	28.0776	0.073800	0.002117	34.8579	27.6414	12.8165	0.042813	1.031653	-0.063885	-0.065254	0.045788	34.8579	-0.064870	-0.247153	-0.185262	NaN
333	1.000000	1.043051	7.36833e+06	-55289.1	955.819	-29742.1	0.000000	0.000000	7.043166	0.010151	NaN	0.000000	0.001610	0.001652	28.0785	0.068658	0.001950	35.2129	74.0931	-165.805	0.009328	1.041774	-0.053856	-0.055133	0.010151	35.2129	-0.054072	-0.120877	-0.083980	NaN
333	1.000000	1.053059	7.36833e+06	-55289.1	955.818	-29742.1	0.000000	0.000000	7.053172	-0.015551	NaN	0.000000	0.001632	0.001631	28.0787	0.091740	0.002021	45.3918	106.893	12.1569	-0.008840	1.051728	-0.043849	-0.045179	-0.015551	45.3918	-0.043592	-0.058199	0.267204	NaN
333	1.000000	1.063049	7.36833e+06	-55289.1	955.818	-29742.1	0.000000	0.000000	7.063163	0.006967	NaN	0.000000	0.001639	0.001650	28.0786	0.037590	0.002100	17.9024	40.8393	-164.247	-0.049251	1.061726	-0.033858	-0.035181	0.006967	17.9024	-0.034150	-0.030238	-0.230391	NaN
333	1.000000	1.073067	7.36833e+06	-55289.1	955.818	-29742.1	0.000000	0.000000	7.073181	0.000114	NaN	0.000000	0.001563	0.001665	28.079	0.080360	0.001936	41.5007	80.9221	16.4015	0.000238	1.071734	-0.023840	-0.025173	0.000114	41.5007	-0.023842	-0.015742	-0.007217	NaN
333	1.000000	1.083079	7.36833e+06	-55289.1	955.819	-29742.1	0.000000	0.000000	7.083194	0.008513	NaN	0.000000	0.001545	0.001643	28.0787	0.076395	0.001989	38.4129	-177.137	-166.185	0.033117	1.081774	-0.013828	-0.015133	0.008513	38.4129	-0.013994	-0.008680	-0.980817	NaN
333	1.000000	1.093097	7.36833e+06	-55289.1	955.819	-29742.1	0.000000	0.000000	7.093210	-0.027468	NaN	0.000000	0.001517	0.001624	28.0785	0.055953	0.001871	29.9133	114.009	15.6261	0.090712	1.091705	-0.003810	-0.005202	-0.027468	29.9133	-0.003121	-0.002201	12.478	NaN
333	1.000000	1.103055	7.36833e+06	-55289.1	955.819	-29742.1	0.000000	0.000000	7.103255	2.086811	NaN	0.000000	0.001523	0.001651	28.0786	2.800922	0.001922	1457.55	8.102364	-165.711	0.998889	1.101750	0.006148	0.004843	2.086811	1457.55	0.005074	0.004201	496.742	20545.7
333	2.000000	1.111169	7.36833e+06	-55289.1	955.819	-29742.1	0.000000	0.000000	7.111622	8.250588	NaN	0.000000	0.001546	0.001644	28.0789	9.207003	0.001743	5281.79	11.8637	6.594882	8.386542	1.110821	0.014262	0.013914	8.250588	5281.79	0.013090	0.012822	643.464	42616.2
333	2.000000	1.113629	7.36833e+06	-55289.1	955.819	-29742.1	0.000000	0.000000	7.114266	12.7053	NaN	0.000000	0.001547	0.001631	28.079	12.5208	0.001701	7361.45	6.577710	-173.466	12.8417	1.113331	0.016722	0.016424	12.7053	7361.45	0.015428	0.015860	801.097	53405.6
333	2.000000	1.116125	7.36833e+06	-55289.1	955.819	-29742.1	0.000000	0.000000	7.116970	17.7774	NaN	0.000000	0.001547	0.001668	28.0785	14.8258	0.001857	7983.35	8.310040	5.693871	16.5043	1.115776	0.019218	0.018869	17.7774	7983.35	0.017548	0.018834	943.897	53147.9
333	2.000000	1.118620	7.36833e+06	-55289.1	955.819	-29742.1	0.000000	0.000000	7.119645	22.1411	NaN	0.000000	0.001501	0.001657	28.0789	17.2428	0.001689	10206.5	7.798445	-177.73	21.9825	1.118259	0.021713	0.021352	22.1411	10206.5	0.020086	0.022678	976.312	61921.7
333	2.000000	1.121093	7.36833e+06	-55289.1	955.819	-29742.1	0.000000	0.000000	7.122264	25.7089	NaN	0.000000	0.001474	0.001662	28.0783	19.8606	0.001775	11189.1	1.376854	8.408135	24.4518	1.120790	0.024186	0.023883	25.7089	11189.1	0.022463	0.026561	967.928	62726
333	2.000000	1.123620	7.36833e+06	-55289.1	955.82	-29742.1	0.000000	0.000000	7.125061	32.2667	NaN	0.000000	0.001505	0.001673	28.0789	22.4903	0.001807	12449.3	0.717718	-171.587	32.8206	1.123282	0.026713	0.026375	32.2667	12449.3	0.024769	0.030596	1054.59	65025.7
333	2.000000	1.126096	7.36833e+06	-55289.1	955.819	-29742.1	0.000000	0.000000	7.127803	38.7133	NaN	0.000000	0.001532	0.001681	28.0786	25.2506	0.001747	14452.9	5.303143	2.222833	37.5878	1.125646	0.029189	0.028739	38.7133	14452.9	0.027180	0.035101	1102.9	70480
333	2.000000	1.128587	7.36833e+06	-55289.1	955.819	-29742.1	0.000000	0.000000	7.130618	46.6034	NaN	0.000000	0.001543	0.001663	28.0777	27.6365	0.001684	16410	5.217384	-179.69	45.661	1.128281	0.031680	0.031374	46.6034	16410	0.029550	0.039816	1170.45	75136.6
333	2.000000	1.131036	7.36833e+06	-55289.1	955.82	-29742.1	0.000000	0.000000	7.133477	56.5657	NaN	0.000000	0.001498	0.001691	28.0773	30.6716	0.001795	17089.1	6.055730	-0.288300	54.8336	1.130728	0.034129	0.033821	56.5657	17089.1	0.031647	0.044226	1279.01	74242.5
333	2.000000	1.133543	7.36833e+06	-55289.1	955.82	-29742.1	0.000000	0.000000	7.136328	64.9263	NaN	0.000000	0.001537	0.001644	28.0774	33.2317	0.001772	18751.9	6.847774	178.048	63.8748	1.133217	0.036636	0.036310	64.9263	18751.9	0.034039	0.049532	1310.8	76979.4
333	2.000000	1.136122	7.36833e+06	-55289.1	955.821	-29742.1	0.000000	0.000000	7.139195	71.934	NaN	0.000000	0.001509	0.001681	28.0771	35.0757	0.001721	20379.2	7.821493	-2.398625	74.0202	1.135688	0.039215	0.038781	71.934	20379.2	0.036568	0.055459	1297.06	79062.8
333	2.000000	1.138532	7.36833e+06	-55289.1	955.819	-29742.1	0.000000	0.000000	7.141915	79.4772	NaN	0.000000	0.001604	0.001673	28.0776	37.2252	0.001748	21300.1	5.553654	178.893	77.3995	1.138226	0.041625	0.041319	79.4772	21300.1	0.038826	0.061030	1302.27	78774.1
333	2.000000	1.140962	7.36833e+06	-55289.1	955.819	-29742.1	0.000000	0.000000	7.144615	86.032	NaN	0.000000	0.001604	0.001692	28.0773	38.856	0.001739	22343	-0.069867	3.649893	81.1129	1.140664	0.044055	0.043757	86.032	22343	0.041167	0.067079	1282.55	78817.4
333	2.000000	1.143517	7.36833e+06	-55289.1	955.819	-29742.1	0.000000	0.000000	7.147530	94.7894	NaN	0.000000	0.001599	0.001650	28.0777	42.8007	0.001861	22998.4	4.122208	-179.977	92.6501	1.143241	0.046610	0.046334	94.7894	22998.4	0.043518	0.073437	1290.76	77537.8
333	2.000000	1.146004	7.36833e+06	-55289.1	955.82	-29742.1	0.000000	0.000000	7.150554	107.819	NaN	0.000000	0.001625	0.001671	28.0772	44.2445	0.001849	23928.7	5.194242	-1.007251	103.624	1.145617	0.049097	0.048710	107.819	23928.7	0.045718	0.079639	1353.85	77469.2
333	2.000000	1.148472	7.36833e+06	-55289.1	955.82	-29742.1	0.000000	0.000000	7.153506	119.61	NaN	0.000000	0.001601	0.001671	28.0776	46.5415	0.001771	26274.6	5.140304	176.839	116.403	1.148278	0.051564	0.051371	119.61	26274.6	0.048150	0.086782	1378.29	81488.5
333	2.000000	1.151099	7.36833e+06	-55289.1	955.819	-29742.1	0.000000	0.000000	7.156228	121.923	NaN	0.000000	0.001613	0.001662	28.0772	48.5539	0.001706	28468.5	2.659147	-1.606822	123.461	1.150829	0.054192	0.053922	121.923	28468.5	0.050980	0.095465	1277.14	84181
333	2.000000	1.153529	7.36833e+06	-55289.1	955.821	-29742.1	0.000000	0.000000	7.159276	136.924	NaN	0.000000	0.001602	0.001675	28.0774	51.9001	0.001813	28624.8	2.950365	178.424	136.142	1.153187	0.056622	0.056280	136.924	28624.8	0.053035	0.102023	1342.08	81877.8
333	2.000000	1.156009	7.36833e+06	-55289.1	955.821	-29742.1	0.000000	0.000000	7.162339	151.103	NaN	0.000000	0.001614	0.001686	28.0772	54.2163	0.001801	30101.5	6.786323	-5.304479	147.671	1.155570	0.059102	0.058663	151.103	30101.5	0.055337	0.109621	1378.41	83064.1
333	2.000000	1.158502	7.36833e+06	-55289.1	955.82	-29742.1	0.000000	0.000000	7.165286	162.141	NaN	0.000000	0.001569	0.001704	28.0777	56.7746	0.001815	31286	10.409	170.07	161.562	1.158144	0.061595	0.061237	162.141	31286	0.057708	0.117719	1377.35	83310.3
333	2.000000	1.161011	7.36833e+06	-55289.1	955.821	-29742.1	0.000000	0.000000	7.168350	175.619	NaN	0.000000	0.001522	0.001745	28.0785	59.0025	0.001775	33245	4.345814	-4.059386	173.707	1.160601	0.064104	0.063694	175.619	33245	0.060142	0.126320	1390.28	85460.2
333	2.000000	1.163493	7.36833e+06	-55289.1	955.821	-29742.1	0.000000	0.000000	7.171228	185.265	NaN	0.000000	0.001540	0.001706	28.0787	62.1693	0.001825	34062.2	3.590353	176.548	183.773	1.163239	0.066585	0.066331	185.265	34062.2	0.062506	0.134948	1372.86	84715.3
333	2.000000	1.166047	7.36833e+06	-55289.1	955.82	-29742.1	0.000000	0.000000	7.174388	199.976	NaN	0.000000	0.001569	0.001689	28.0786	64.2366	0.001807	35539.6	8.721629	-8.824392	197.128	1.165642	0.069140	0.068735	199.976	35539.6	0.064920	0.144040	1388.33	85554.7
333	2.000000	1.168562	7.36833e+06	-55289.1	955.821	-29742.1	0.000000	0.000000	7.177371	211.369	NaN	0.000000	0.001554	0.001676	28.0788	65.3889	0.001782	36700.6	3.720218	175.622	212.417	1.168171	0.071655	0.071264	211.369	36700.6	0.067336	0.153419	1377.73	85606.6
333	2.000000	1.170945	7.36833e+06	-55289.1	955.82	-29742.1	0.000000	0.000000	7.180480	229.028	NaN	0.000000	0.001512	0.001721	28.0784	68.7295	0.001751	39253.1	5.877308	-6.311732	224.367	1.170516	0.074038	0.073609	229.028	39253.1	0.069662	0.162715	1407.54	88906.6
333	2.000000	1.173432	7.36833e+06	-55289.1	955.82	-29742.1	0.000000	0.000000	7.183355	238.455	NaN	0.000000	0.001532	0.001679	28.0787	70.5577	0.001795	39314.1	1.704030	177.222	234.181	1.173234	0.076524	0.076327	238.455	39314.1	0.071975	0.172217	1384.62	86553.3
333	2.000000	1.175967	7.36833e+06	-55289.1	955.821	-29742.1	0.000000	0.000000	7.186457	252.232	NaN	0.000000	0.001579	0.001692	28.0785	72.61	0.001759	41273.6	3.872208	-5.434747	248.624	1.175692	0.079060	0.078785	252.232	41273.6	0.074477	0.182774	1380.02	88203.9
333	2.000000	1.178446	7.36833e+06	-55289.1	955.82	-29742.1	0.000000	0.000000	7.189710	271.06	NaN	0.000000	0.001611	0.001677	28.079	74.4382	0.001750	42546.6	5.768396	173.391	268.164	1.178146	0.081539	0.081239	271.06	42546.6	0.076761	0.192671	1406.85	88558.4
333	2.000000	1.180964	7.36833e+06	-55289.1	955.821	-29742.1	0.000000	0.000000	7.192790	284.719	NaN	0.000000	0.001598	0.001663	28.0788	75.81	0.001871	40515.6	3.071173	-4.485493	280.969	1.180664	0.084057	0.083757	284.719	40515.6	0.078786	0.201654	1411.91	82431.1
333	2.000000	1.183497	7.36833e+06	-55289.1	955.822	-29742.1	0.000000	0.000000	7.195897	298.656	NaN	0.000000	0.001592	0.001652	28.0788	78.7737	0.001818	43320.4	7.121606	170.924	297.768	1.183140	0.086590	0.086233	298.656	43320.4	0.081420	0.213619	1398.08	85633.9
333	2.000000	1.186012	7.36833e+06	-55289.1	955.821	-29742.1	0.000000	0.000000	7.198792	307.89	NaN	0.000000	0.001585	0.001654	28.0786	80.493	0.001783	45144.2	6.878803	-9.290797	305.205	1.185666	0.089105	0.088758	307.89	45144.2	0.083990	0.225608	1364.71	86835.7
333	2.000000	1.188444	7.36833e+06	-55289.1	955.82	-29742.1	0.000000	0.000000	7.202067	328.382	NaN	0.000000	0.001580	0.001664	28.0786	82.6252	0.001905	43375.5	4.377072	173.667	326.414	1.188121	0.091537	0.091214	328.382	43375.5	0.085859	0.234516	1400.25	81833.5
333	2.000000	1.190901	7.36833e+06	-55289.1	955.82	-29742.1	0.000000	0.000000	7.205214	345.159	NaN	0.000000	0.001556	0.001686	28.0785	85.1846	0.001821	46787.2	4.005571	-6.651359	337.716	1.190537	0.093994	0.093630	345.159	46787.2	0.088461	0.247187	1396.35	85977.9
333	2.000000	1.193460	7.36833e+06	-55289.1	955.821	-29742.1	0.000000	0.000000	7.208341	358.982	NaN	0.000000	0.001569	0.001681	28.0785	88.4027	0.001830	48316.2	6.353194	170.864	357.651	1.193201	0.096553	0.096294	358.982	48316.2	0.090980	0.259753	1382.01	86613.5
333	2.000000	1.195931	7.36833e+06	-55289.1	955.82	-29742.1	0.000000	0.000000	7.211564	377.262	NaN	0.000000	0.001581	0.001653	28.0777	87.6391	0.001700	51553.6	-0.488741	-2.258483	371.925	1.195581	0.099023	0.098674	377.262	51553.6	0.093535	0.272793	1382.96	90181.1
333	2.000000	1.198485	7.36833e+06	-55289.1	955.82	-29742.1	0.000000	0.000000	7.214757	392.775	NaN	0.000000	0.001581	0.001639	28.0775	91.0322	0.001850	49217.9	7.452239	170.809	391.527	1.197979	0.101578	0.101072	392.775	49217.9	0.095593	0.283511	1385.39	84452.2
333	2.000000	1.200873	7.36833e+06	-55289.1	955.821	-29742.1	0.000000	0.000000	7.218216	418.808	NaN	0.000000	0.001578	0.001686	28.0775	92.8761	0.001795	51748.4	4.737488	-7.407060	410.42	1.200565	0.103966	0.103658	418.808	51748.4	0.097896	0.295740	1416.14	86939.1
333	2.000000	1.203461	7.36833e+06	-55289.1	955.821	-29742.1	0.000000	0.000000	7.221243	429.476	NaN	0.000000	0.001518	0.001691	28.0774	95.8192	0.001861	51477.7	2.829880	174.298	428.449	1.203194	0.106554	0.106287	429.476	51477.7	0.100297	0.308742	1391.05	84643.6
333	2.000000	1.205980	7.36833e+06	-55289.1	955.821	-29742.1	0.000000	0.000000	7.224685	451.938	NaN	0.000000	0.001525	0.001684	28.0775	98.6126	0.001782	55339.4	8.800359	-11.4966	450.397	1.205413	0.109073	0.108506	451.938	55339.4	0.102948	0.323401	1397.45	88907.3
333	2.000000	1.208426	7.36833e+06	-55289.1	955.82	-29742.1	0.000000	0.000000	7.227835	469.05	NaN	0.000000	0.001540	0.001698	28.0775	99.9671	0.001820	54912.7	6.196613	170.515	466.621	1.208094	0.111519	0.111187	469.05	54912.7	0.105113	0.335612	1397.59	86601.9
333	2.000000	1.208936	7.36833e+06	-55289.1	955.821	-29742.1	0.000000	0.000000	7.228478	472.27	NaN	0.000000	0.001508	0.001663	28.0773	100.224	0.001823	54990.2	5.103921	-8.217693	469.174	1.208616	0.112029	0.111709	472.27	54990.2	0.105588	0.338318	1395.94	86376.5