File: remote_trans/data/nanoindenter/0828-1/data/Data_2025-08-06,11h17m57s/2025-07-22_16-23-58_1_149.txt
2025-07-22, 16:23:58, 1
Index	Phase	Displacement	Time	Pos X	Pos Y	Pos Z	Rot A	Rot B	Piezo Z	Force A	Force B	Gripper	Voltage A	Voltage B	Temperature	Amplitude force	Amplitude pos	Stiffness	Phase shift	Phase excitation	Force A raw	Displacement raw	HMax	HMax raw	Real Force	Real Stiffness	Contact Depth	Area	Hardness	Reduced Mod.
[#]	[#]	[um]	[s]	[um]	[um]	[um]	[m°]	[m°]	[um]	[uN]	[uN]	[V]	[V]	[V]	[°C]	[uN]	[um]	[N/m]	[°]	[°]	[uN]	[um]	[um]	[um]	[uN]	[N/m]	[um]	[um^2]	[MPa]	[MPa]
149	1.000000	0.002620	7.3665e+06	-46089.1	955.819	-29770.7	0.000000	0.000000	6.002777	-0.017115	NaN	0.000000	0.001635	0.001738	28.1288	0.060149	0.000838	71.7976	-19.2548	-165.588	-0.046821	0.001380	-1.079519	-1.080759	-0.017115	71.7976	-1.079341	-2.646437E+14	6.467202E-17	NaN
149	1.000000	0.010633	7.3665e+06	-46089.1	955.818	-29770.7	0.000000	0.000000	6.010791	-0.014331	NaN	0.000000	0.001615	0.001758	28.1289	0.159602	0.000977	163.329	-128.129	-164.86	-8.028589E-6	0.009264	-1.071506	-1.072875	-0.014331	163.329	-1.071440	-2.072716E+14	6.913934E-17	NaN
149	1.000000	0.018585	7.3665e+06	-46089.1	955.818	-29770.7	0.000000	0.000000	6.018743	-0.018751	NaN	0.000000	0.001634	0.001757	28.129	0.064978	0.001771	36.6818	-38.4087	-162.528	0.001549	0.017305	-1.063554	-1.064834	-0.018751	36.6818	-1.063170	-1.604818E+14	1.168436E-16	NaN
149	1.000000	0.026647	7.3665e+06	-46089.1	955.818	-29770.7	0.000000	0.000000	6.026807	0.040046	NaN	0.000000	0.001650	0.001756	28.1289	0.205699	0.001862	110.458	-15.5755	-165.346	0.042708	0.025302	-1.055492	-1.056837	0.040046	110.458	-1.055764	-1.276101E+14	-3.138160E-16	NaN
149	1.000000	0.034605	7.3665e+06	-46089.1	955.818	-29770.7	0.000000	0.000000	6.034764	0.032944	NaN	0.000000	0.001655	0.001737	28.1292	0.036022	0.002149	16.7623	101.76	-163.895	0.052881	0.033292	-1.047534	-1.048847	0.032944	16.7623	-1.049008	-1.035340E+14	-3.181960E-16	NaN
149	1.000000	0.042602	7.3665e+06	-46089.1	955.818	-29770.7	0.000000	0.000000	6.042760	-0.005795	NaN	0.000000	0.001574	0.001748	28.1294	0.050631	0.002001	25.3003	42.521	-166.216	-0.051726	0.041241	-1.039537	-1.040898	-0.005795	25.3003	-1.039365	-7.681192E+13	7.544850E-17	NaN
149	1.000000	0.050598	7.3665e+06	-46089.1	955.818	-29770.7	0.000000	0.000000	6.050756	0.000711	NaN	0.000000	0.001627	0.001730	28.1295	0.055807	0.002043	27.3129	-63.5053	-168.02	0.048400	0.049297	-1.031541	-1.032842	0.000711	27.3129	-1.031561	-6.032135E+13	-1.178219E-17	NaN
149	1.000000	0.058587	7.3665e+06	-46089.1	955.818	-29770.7	0.000000	0.000000	6.058743	-0.046587	NaN	0.000000	0.001627	0.001768	28.1294	0.084929	0.001934	43.9158	36.4736	-166.946	0.033140	0.057270	-1.023552	-1.024869	-0.046587	43.9158	-1.022756	-4.592378E+13	1.014438E-15	NaN
149	1.000000	0.066602	7.3665e+06	-46089.1	955.818	-29770.7	0.000000	0.000000	6.066758	-0.060735	NaN	0.000000	0.001631	0.001711	28.1295	0.081236	0.001985	40.9323	34.5017	-165.589	0.084211	0.065268	-1.015537	-1.016871	-0.060735	40.9323	-1.014424	-3.547479E+13	1.712058E-15	NaN
149	1.000000	0.074587	7.3665e+06	-46089.1	955.818	-29770.7	0.000000	0.000000	6.074749	0.076751	NaN	0.000000	0.001671	0.001736	28.1284	0.093815	0.001994	47.0514	-157.835	-165.311	0.039954	0.073236	-1.007552	-1.008903	0.076751	47.0514	-1.008775	-2.977824E+13	-2.577432E-15	NaN
149	1.000000	0.082600	7.3665e+06	-46089.1	955.817	-29770.7	0.000000	0.000000	6.082759	0.020978	NaN	0.000000	0.001681	0.001771	28.1286	0.052096	0.001994	26.1278	60.4219	-165.171	0.034183	0.081291	-0.999539	-1.000847	0.020978	26.1278	-1.000141	-2.278616E+13	-9.206315E-16	NaN
149	1.000000	0.090600	7.3665e+06	-46089.1	955.819	-29770.7	0.000000	0.000000	6.090755	-0.085740	NaN	0.000000	0.001645	0.001759	28.1282	0.014538	0.001939	7.498623	57.8843	-165.091	-0.114505	0.089304	-0.991539	-0.992835	-0.085740	7.498623	-0.982963	-1.337609E+13	6.409967E-15	NaN
149	1.000000	0.098611	7.3665e+06	-46089.1	955.818	-29770.7	0.000000	0.000000	6.098769	-0.016687	NaN	0.000000	0.001668	0.001756	28.1282	0.086660	0.002024	42.8088	-25.3667	-168.185	-0.003333	0.097340	-0.983528	-0.984799	-0.016687	42.8088	-0.983236	-1.348958E+13	1.237056E-15	NaN
149	1.000000	0.106581	7.3665e+06	-46089.1	955.818	-29770.7	0.000000	0.000000	6.106739	-0.011534	NaN	0.000000	0.001675	0.001757	28.1284	0.056172	0.001886	29.7816	-19.0147	-165.532	0.013165	0.105347	-0.975558	-0.976792	-0.011534	29.7816	-0.975268	-1.053539E+13	1.094748E-15	NaN
149	1.000000	0.114626	7.3665e+06	-46089.1	955.817	-29770.7	0.000000	0.000000	6.114785	0.002797	NaN	0.000000	0.001593	0.001738	28.1308	0.074938	0.001970	38.034	-15.0764	-165.202	-0.017395	0.113282	-0.967513	-0.968857	0.002797	38.034	-0.967568	-8.296233E+12	-3.371053E-16	NaN
149	1.000000	0.122606	7.3665e+06	-46089.1	955.818	-29770.7	0.000000	0.000000	6.122764	-0.022356	NaN	0.000000	0.001599	0.001748	28.1307	0.083398	0.001969	42.351	-53.933	-167.605	-0.073002	0.121283	-0.959533	-0.960856	-0.022356	42.351	-0.959137	-6.386022E+12	3.500717E-15	NaN
149	1.000000	0.130625	7.3665e+06	-46089.1	955.819	-29770.7	0.000000	0.000000	6.130782	-0.033214	NaN	0.000000	0.001584	0.001788	28.1309	0.091738	0.001950	47.0392	2.425686	-162.117	-0.045453	0.129332	-0.951514	-0.952807	-0.033214	47.0392	-0.950984	-4.957921E+12	6.699157E-15	NaN
149	1.000000	0.138630	7.3665e+06	-46089.1	955.819	-29770.7	0.000000	0.000000	6.138787	-0.033236	NaN	0.000000	0.001594	0.001772	28.1309	0.056671	0.001905	29.7411	19.2858	-162.752	-0.111903	0.137293	-0.943509	-0.944845	-0.033236	29.7411	-0.942671	-3.829775E+12	8.678350E-15	NaN
149	1.000000	0.146664	7.3665e+06	-46089.1	955.818	-29770.7	0.000000	0.000000	6.146824	0.025072	NaN	0.000000	0.001607	0.001778	28.1304	0.087073	0.002054	42.3939	-79.906	-165.766	-0.021893	0.145371	-0.935475	-0.936768	0.025072	42.3939	-0.935918	-3.105020E+12	-8.074540E-15	NaN
149	1.000000	0.154614	7.3665e+06	-46089.1	955.818	-29770.7	0.000000	0.000000	6.154773	0.001642	NaN	0.000000	0.001623	0.001787	28.1297	0.014171	0.002007	7.060439	79.3558	-167.224	-0.008017	0.153301	-0.927525	-0.928838	0.001642	7.060439	-0.927699	-2.405133E+12	-6.826149E-16	NaN
149	1.000000	0.162631	7.3665e+06	-46089.1	955.818	-29770.7	0.000000	0.000000	6.162790	0.008829	NaN	0.000000	0.001577	0.001815	28.1303	0.067960	0.002110	32.2133	-47.8162	-165.021	0.076217	0.161341	-0.919508	-0.920798	0.008829	32.2133	-0.919713	-1.876439E+12	-4.704930E-15	NaN
149	1.000000	0.170652	7.3665e+06	-46089.1	955.819	-29770.7	0.000000	0.000000	6.170811	-0.001172	NaN	0.000000	0.001597	0.001756	28.1294	0.039873	0.002027	19.6687	-48.0485	-162.559	0.001015	0.169290	-0.911486	-0.912849	-0.001172	19.6687	-0.911442	-1.450897E+12	8.076216E-16	NaN
149	1.000000	0.178666	7.3665e+06	-46089.1	955.818	-29770.7	0.000000	0.000000	6.178823	-0.033061	NaN	0.000000	0.001585	0.001780	28.1295	0.024803	0.001986	12.4907	-13.5155	-164.658	-0.038736	0.177352	-0.903473	-0.904787	-0.033061	12.4907	-0.901488	-1.064549E+12	3.105618E-14	NaN
149	1.000000	0.186658	7.3665e+06	-46089.1	955.819	-29770.7	0.000000	0.000000	6.186817	0.011429	NaN	0.000000	0.001616	0.001772	28.1298	0.077865	0.001922	40.5082	177.66	-168.428	0.017791	0.185331	-0.895481	-0.896808	0.011429	40.5082	-0.895693	-8.889125E+11	-1.285738E-14	NaN
149	1.000000	0.194649	7.3665e+06	-46089.1	955.818	-29770.7	0.000000	0.000000	6.194804	-0.080301	NaN	0.000000	0.001597	0.001731	28.1307	0.148718	0.002077	71.6186	88.1824	-166.851	-0.094386	0.193371	-0.887490	-0.888768	-0.080301	71.6186	-0.886649	-6.708340E+11	1.197028E-13	NaN
149	1.000000	0.202653	7.3665e+06	-46089.1	955.818	-29770.7	0.000000	0.000000	6.202816	0.106921	NaN	0.000000	0.001592	0.001759	28.1305	0.093756	0.002031	46.1668	-73.8452	-167.836	0.023663	0.201361	-0.879486	-0.880778	0.106921	46.1668	-0.881223	-5.665656E+11	-1.887169E-13	NaN
149	1.000000	0.210672	7.3665e+06	-46089.1	955.818	-29770.7	0.000000	0.000000	6.210829	-0.043177	NaN	0.000000	0.001598	0.001762	28.1303	0.179587	0.001993	90.1121	1.211914	-166.143	-0.051314	0.209356	-0.871467	-0.872783	-0.043177	90.1121	-0.871107	-4.134532E+11	1.044303E-13	NaN
149	1.000000	0.218665	7.3665e+06	-46089.1	955.818	-29770.7	0.000000	0.000000	6.218824	-0.006787	NaN	0.000000	0.001578	0.001793	28.1306	0.065955	0.002069	31.8744	-127.984	-161.376	0.000923	0.217365	-0.863473	-0.864774	-0.006787	31.8744	-0.863314	-3.243171E+11	2.092594E-14	NaN
149	1.000000	0.226674	7.3665e+06	-46089.1	955.817	-29770.7	0.000000	0.000000	6.226832	-0.012016	NaN	0.000000	0.001581	0.001781	28.1305	0.049765	0.002024	24.582	59.9189	-164.9	-0.035091	0.225362	-0.855465	-0.856777	-0.012016	24.582	-0.855098	-2.510531E+11	4.786153E-14	NaN
149	1.000000	0.234685	7.3665e+06	-46089.1	955.819	-29770.7	0.000000	0.000000	6.234844	0.010354	NaN	0.000000	0.001579	0.001761	28.1299	0.039858	0.001936	20.5823	131.891	-164.846	0.012981	0.233365	-0.847453	-0.848774	0.010354	20.5823	-0.847831	-2.001526E+11	-5.172990E-14	NaN
149	1.000000	0.242669	7.3665e+06	-46089.1	955.819	-29770.7	0.000000	0.000000	6.242830	0.067823	NaN	0.000000	0.001582	0.001771	28.1289	0.049209	0.001864	26.4061	20.6944	-165.388	0.092709	0.241306	-0.839470	-0.840833	0.067823	26.4061	-0.841397	-1.637620E+11	-4.141552E-13	NaN
149	1.000000	0.250676	7.3665e+06	-46089.1	955.818	-29770.7	0.000000	0.000000	6.250834	0.003765	NaN	0.000000	0.001588	0.001763	28.128	0.032728	0.001913	17.104	-14.0656	-165.131	0.003882	0.249394	-0.831463	-0.832745	0.003765	17.104	-0.831628	-1.207408E+11	-3.118398E-14	NaN
149	1.000000	0.258663	7.3665e+06	-46089.1	955.819	-29770.7	0.000000	0.000000	6.258821	-0.015161	NaN	0.000000	0.001547	0.001763	28.128	0.072107	0.002159	33.3941	156.878	-166.518	-0.040157	0.257406	-0.823476	-0.824733	-0.015161	33.3941	-0.823135	-9.262341E+10	1.636835E-13	NaN
149	1.000000	0.266655	7.3665e+06	-46089.1	955.819	-29770.7	0.000000	0.000000	6.266816	0.048367	NaN	0.000000	0.001557	0.001756	28.1279	0.030221	0.002032	14.8718	105.626	-163.955	-0.060110	0.265391	-0.815484	-0.816748	0.048367	14.8718	-0.817923	-7.871241E+10	-6.144756E-13	NaN
149	1.000000	0.274700	7.3665e+06	-46089.1	955.818	-29770.7	0.000000	0.000000	6.274857	-0.019988	NaN	0.000000	0.001614	0.001746	28.129	0.151132	0.001944	77.736	-13.9711	-167.336	0.004621	0.273432	-0.807439	-0.808706	-0.019988	77.736	-0.807246	-5.639091E+10	3.544573E-13	NaN
149	1.000000	0.282706	7.3665e+06	-46089.1	955.819	-29770.7	0.000000	0.000000	6.282863	-0.026302	NaN	0.000000	0.001605	0.001756	28.1292	0.094687	0.002013	47.0358	-86.4894	-164.411	-0.031802	0.281385	-0.799433	-0.800754	-0.026302	47.0358	-0.799014	-4.359865E+10	6.032645E-13	NaN
149	1.000000	0.290690	7.3665e+06	-46089.1	955.818	-29770.7	0.000000	0.000000	6.290848	-0.020398	NaN	0.000000	0.001601	0.001755	28.129	0.066079	0.002023	32.6631	64.2197	-163.789	-0.013955	0.289393	-0.791448	-0.792745	-0.020398	32.6631	-0.790980	-3.391512E+10	6.014383E-13	NaN
149	1.000000	0.298699	7.3665e+06	-46089.1	955.819	-29770.7	0.000000	0.000000	6.298856	-0.030943	NaN	0.000000	0.001554	0.001776	28.1294	0.047593	0.002077	22.9113	4.145246	-166.357	-0.075209	0.297376	-0.783440	-0.784763	-0.030943	22.9113	-0.782427	-2.595418E+10	1.192222E-12	NaN
149	1.000000	0.306718	7.3665e+06	-46089.1	955.818	-29770.7	0.000000	0.000000	6.306874	-0.063210	NaN	0.000000	0.001573	0.001763	28.1292	0.050303	0.001877	26.8023	167.871	-163.382	-0.083898	0.305388	-0.775421	-0.776751	-0.063210	26.8023	-0.773652	-1.972231E+10	3.205017E-12	NaN
149	1.000000	0.314685	7.3665e+06	-46089.1	955.818	-29770.7	0.000000	0.000000	6.314841	-0.063064	NaN	0.000000	0.001575	0.001746	28.1278	0.102053	0.001975	51.6708	20.4379	-165.453	-0.042818	0.313416	-0.767454	-0.768723	-0.063064	51.6708	-0.766539	-1.578480E+10	3.995232E-12	NaN
149	1.000000	0.322691	7.3665e+06	-46089.1	955.818	-29770.7	0.000000	0.000000	6.322848	-0.021830	NaN	0.000000	0.001575	0.001774	28.1277	0.074933	0.001948	38.4757	29.5548	-167.071	-0.085116	0.321407	-0.759448	-0.760732	-0.021830	38.4757	-0.759022	-1.247394E+10	1.750059E-12	NaN
149	1.000000	0.330704	7.3665e+06	-46089.1	955.818	-29770.7	0.000000	0.000000	6.330862	-0.023761	NaN	0.000000	0.001589	0.001756	28.1278	0.137814	0.001964	70.1598	-9.546192	-166.39	0.006679	0.329395	-0.751435	-0.752744	-0.023761	70.1598	-0.751181	-9.756485E+9	2.435379E-12	NaN
149	1.000000	0.338692	7.3665e+06	-46089.1	955.818	-29770.7	0.000000	0.000000	6.338849	-0.024111	NaN	0.000000	0.001553	0.001754	28.1282	0.026736	0.001957	13.6622	-46.8451	-165.324	0.045193	0.337364	-0.743447	-0.744775	-0.024111	13.6622	-0.742124	-7.344801E+9	3.282754E-12	NaN
149	1.000000	0.346706	7.3665e+06	-46089.1	955.818	-29770.7	0.000000	0.000000	6.346862	-0.069460	NaN	0.000000	0.001552	0.001746	28.128	0.019028	0.001959	9.713066	43.7163	-166.968	-0.096062	0.345410	-0.735433	-0.736729	-0.069460	9.713066	-0.730069	-5.032137E+9	1.380334E-11	NaN
149	1.000000	0.354735	7.3665e+06	-46089.1	955.819	-29770.7	0.000000	0.000000	6.354892	-0.029878	NaN	0.000000	0.001549	0.001731	28.1286	0.089884	0.002003	44.8849	83.042	-167.174	0.049730	0.353442	-0.727404	-0.728697	-0.029878	44.8849	-0.726904	-4.556318E+9	6.557473E-12	NaN
149	1.000000	0.362693	7.3665e+06	-46089.1	955.818	-29770.7	0.000000	0.000000	6.362851	-0.015537	NaN	0.000000	0.001565	0.001767	28.1287	0.052364	0.001972	26.5539	122.689	-166.761	0.020559	0.361410	-0.719445	-0.720728	-0.015537	26.5539	-0.719007	-3.555703E+9	4.369691E-12	NaN
149	1.000000	0.370741	7.3665e+06	-46089.1	955.818	-29770.7	0.000000	0.000000	6.370898	-0.033243	NaN	0.000000	0.001551	0.001736	28.1294	0.042287	0.002124	19.9076	124.809	-162.255	-0.005743	0.369416	-0.711398	-0.712722	-0.033243	19.9076	-0.710146	-2.691761E+9	1.234993E-11	NaN
149	1.000000	0.378738	7.3665e+06	-46089.1	955.819	-29770.7	0.000000	0.000000	6.378893	-0.071329	NaN	0.000000	0.001540	0.001757	28.1287	0.132335	0.002019	65.5459	-56.7077	-167.989	-0.026270	0.377443	-0.703401	-0.704696	-0.071329	65.5459	-0.702585	-2.122415E+9	3.360758E-11	NaN
149	1.000000	0.386763	7.3665e+06	-46089.1	955.818	-29770.7	0.000000	0.000000	6.386925	0.070987	NaN	0.000000	0.001543	0.001773	28.1301	0.048246	0.002068	23.3307	-74.6913	-162.906	0.102913	0.385427	-0.695375	-0.696712	0.070987	23.3307	-0.697657	-1.817759E+9	-3.905205E-11	NaN
149	1.000000	0.394728	7.3665e+06	-46089.1	955.817	-29770.7	0.000000	0.000000	6.394885	-0.048948	NaN	0.000000	0.001570	0.001772	28.1291	0.106188	0.002030	52.3148	106.492	-163.81	-0.006030	0.393456	-0.687411	-0.688683	-0.048948	52.3148	-0.686709	-1.288067E+9	3.800147E-11	NaN
149	1.000000	0.402743	7.3665e+06	-46089.1	955.819	-29770.7	0.000000	0.000000	6.402902	0.001769	NaN	0.000000	0.001581	0.001751	28.129	0.059755	0.002002	29.8518	-164.008	-165.719	0.002911	0.401477	-0.679396	-0.680662	0.001769	29.8518	-0.679440	-1.024584E+9	-1.726823E-12	NaN
149	1.000000	0.410751	7.3665e+06	-46089.1	955.819	-29770.7	0.000000	0.000000	6.410908	-0.055298	NaN	0.000000	0.001578	0.001765	28.1292	0.129781	0.002065	62.8546	67.8517	-167.496	-0.097347	0.409420	-0.671387	-0.672719	-0.055298	62.8546	-0.670728	-7.786616E+8	7.101679E-11	NaN
149	1.000000	0.418771	7.3665e+06	-46089.1	955.819	-29770.7	0.000000	0.000000	6.418927	-0.068222	NaN	0.000000	0.001592	0.001750	28.1292	0.097009	0.002024	47.9318	-129.872	-168.144	0.014791	0.417433	-0.663367	-0.664705	-0.068222	47.9318	-0.662300	-5.969923E+8	1.142761E-10	NaN
149	1.000000	0.426723	7.3665e+06	-46089.1	955.818	-29770.7	0.000000	0.000000	6.426882	0.003465	NaN	0.000000	0.001588	0.001742	28.1289	0.067750	0.002106	32.1754	170.252	-166.601	-0.141125	0.425447	-0.655416	-0.656692	0.003465	32.1754	-0.655497	-4.816952E+8	-7.193976E-12	NaN
149	1.000000	0.434733	7.3665e+06	-46089.1	955.817	-29770.7	0.000000	0.000000	6.434887	-0.102763	NaN	0.000000	0.001586	0.001703	28.1301	0.046839	0.001894	24.7348	126.091	-163.782	-0.047293	0.433427	-0.647406	-0.648711	-0.102763	24.7348	-0.644290	-3.381755E+8	3.038748E-10	NaN
149	1.000000	0.442738	7.3665e+06	-46089.1	955.818	-29770.7	0.000000	0.000000	6.442896	-0.013674	NaN	0.000000	0.001556	0.001750	28.1304	0.047415	0.002075	22.8491	-86.5244	-164.78	0.062861	0.441435	-0.639401	-0.640704	-0.013674	22.8491	-0.638952	-2.856986E+8	4.786000E-11	NaN
149	1.000000	0.450767	7.3665e+06	-46089.1	955.818	-29770.7	0.000000	0.000000	6.450925	-0.018521	NaN	0.000000	0.001602	0.001729	28.1303	0.073515	0.002088	35.2025	22.0437	-164.827	0.013610	0.449446	-0.631372	-0.632693	-0.018521	35.2025	-0.630977	-2.220450E+8	8.340910E-11	NaN
149	1.000000	0.458757	7.3665e+06	-46089.1	955.818	-29770.7	0.000000	0.000000	6.458916	0.024488	NaN	0.000000	0.001582	0.001723	28.13	0.033123	0.002031	16.3107	73.595	-165.449	0.001582	0.457430	-0.623382	-0.624708	0.024488	16.3107	-0.624508	-1.809626E+8	-1.353199E-10	NaN
149	1.000000	0.466778	7.3665e+06	-46089.1	955.819	-29770.7	0.000000	0.000000	6.466934	-0.057147	NaN	0.000000	0.001590	0.001750	28.1296	0.072627	0.002056	35.3256	157.25	-163.795	-0.019731	0.465507	-0.615361	-0.616632	-0.057147	35.3256	-0.614147	-1.303666E+8	4.383593E-10	NaN
149	1.000000	0.474732	7.3665e+06	-46089.1	955.818	-29770.7	0.000000	0.000000	6.474889	-0.052035	NaN	0.000000	0.001604	0.001708	28.1289	0.037762	0.001993	18.9448	1.466493	-165.382	-0.088564	0.473463	-0.607406	-0.608676	-0.052035	18.9448	-0.605346	-9.864454E+7	5.274987E-10	NaN
149	1.000000	0.482790	7.3665e+06	-46089.1	955.818	-29770.7	0.000000	0.000000	6.482947	-0.042110	NaN	0.000000	0.001606	0.001771	28.1293	0.039563	0.002009	19.6943	-125.997	-166.604	-0.092299	0.481478	-0.599348	-0.600661	-0.042110	19.6943	-0.597745	-7.751727E+7	5.432337E-10	NaN
149	1.000000	0.490766	7.3665e+06	-46089.1	955.818	-29770.7	0.000000	0.000000	6.490921	-0.076451	NaN	0.000000	0.001634	0.001741	28.1288	0.148020	0.001948	75.9678	58.3088	-167.337	-0.087679	0.489491	-0.591373	-0.592648	-0.076451	75.9678	-0.590618	-6.182900E+7	1.236497E-9	NaN
149	1.000000	0.498812	7.3665e+06	-46089.1	955.818	-29770.7	0.000000	0.000000	6.498971	0.013566	NaN	0.000000	0.001625	0.001804	28.1288	0.069560	0.002077	33.4954	-76.6107	-165.027	-0.024540	0.497475	-0.583327	-0.584664	0.013566	33.4954	-0.583631	-4.952516E+7	-2.739243E-10	NaN
149	1.000000	0.506758	7.3665e+06	-46089.1	955.819	-29770.7	0.000000	0.000000	6.506918	0.017973	NaN	0.000000	0.001619	0.001802	28.1285	0.108770	0.002056	52.8923	149.357	-164.095	-0.014698	0.505500	-0.575381	-0.576639	0.017973	52.8923	-0.575635	-3.841248E+7	-4.679063E-10	NaN
149	1.000000	0.514763	7.3665e+06	-46089.1	955.818	-29770.7	0.000000	0.000000	6.514922	0.014723	NaN	0.000000	0.001619	0.001800	28.1295	0.073523	0.001963	37.4548	-139.547	-164.333	0.022478	0.513425	-0.567376	-0.568714	0.014723	37.4548	-0.567671	-2.981592E+7	-4.938130E-10	NaN
149	1.000000	0.522778	7.3665e+06	-46089.1	955.818	-29770.7	0.000000	0.000000	6.522940	0.076231	NaN	0.000000	0.001605	0.001801	28.1288	0.087633	0.002020	43.3729	95.593	-165.638	0.073176	0.521517	-0.559361	-0.560622	0.076231	43.3729	-0.560679	-2.386535E+7	-3.194219E-9	NaN
149	1.000000	0.530763	7.3665e+06	-46089.1	955.818	-29770.7	0.000000	0.000000	6.530922	0.001846	NaN	0.000000	0.001647	0.001792	28.1282	0.055825	0.002121	26.3249	-172.298	-164.347	-0.055488	0.529457	-0.551376	-0.552681	0.001846	26.3249	-0.551428	-1.777212E+7	-1.038751E-10	NaN
149	1.000000	0.538803	7.3665e+06	-46089.1	955.818	-29770.7	0.000000	0.000000	6.538963	0.025221	NaN	0.000000	0.001650	0.001775	28.1283	0.054211	0.001903	28.4842	-129.627	-165.264	0.054786	0.537491	-0.543336	-0.544648	0.025221	28.4842	-0.544000	-1.402228E+7	-1.798609E-9	NaN
149	1.000000	0.546832	7.3665e+06	-46089.1	955.818	-29770.7	0.000000	0.000000	6.546990	-0.034043	NaN	0.000000	0.001618	0.001817	28.128	0.116304	0.001890	61.5247	-105.178	-164.813	-0.013463	0.545465	-0.535306	-0.536674	-0.034043	61.5247	-0.534891	-1.048296E+7	3.247482E-9	NaN
149	1.000000	0.554849	7.3665e+06	-46089.1	955.819	-29770.7	0.000000	0.000000	6.555004	-0.102976	NaN	0.000000	0.001624	0.001748	28.1274	0.027615	0.001953	14.1389	-59.1015	-165.506	-0.182628	0.553528	-0.527289	-0.528611	-0.102976	14.1389	-0.521827	-6.90248e+06	1.491868E-8	NaN
149	1.000000	0.562803	7.3665e+06	-46089.1	955.819	-29770.7	0.000000	0.000000	6.562963	0.030444	NaN	0.000000	0.001607	0.001739	28.1275	0.011049	0.001902	5.810034	-45.6081	-165.421	0.002618	0.561491	-0.519335	-0.520648	0.030444	5.810034	-0.523265	-7.22772e+06	-4.212143E-9	NaN
149	1.000000	0.570812	7.3665e+06	-46089.1	955.819	-29770.7	0.000000	0.000000	6.570967	-0.099776	NaN	0.000000	0.001629	0.001746	28.127	0.019423	0.001861	10.4386	-112.526	-162.2	0.050572	0.569494	-0.511327	-0.512645	-0.099776	10.4386	-0.504158	-3.91747e+06	2.546964E-8	NaN
149	1.000000	0.578816	7.3665e+06	-46089.1	955.818	-29770.7	0.000000	0.000000	6.578975	0.021383	NaN	0.000000	0.001631	0.001763	28.1269	0.069621	0.002051	33.9464	-37.3775	-166.56	0.052308	0.577488	-0.503323	-0.504651	0.021383	33.9464	-0.503795	-3.87212e+06	-5.522380E-9	NaN
149	1.000000	0.586833	7.3665e+06	-46089.1	955.818	-29770.7	0.000000	0.000000	6.586991	-0.011393	NaN	0.000000	0.001646	0.001776	28.1281	0.041445	0.002005	20.6698	132.226	-163.822	-0.004140	0.585510	-0.495306	-0.496629	-0.011393	20.6698	-0.494893	-2.90893e+06	3.916572E-9	NaN
149	1.000000	0.594798	7.3665e+06	-46089.1	955.819	-29770.7	0.000000	0.000000	6.594956	-0.021796	NaN	0.000000	0.001637	0.001743	28.1287	0.019308	0.002021	9.553861	-154.751	-163.297	-0.069140	0.593519	-0.487341	-0.488620	-0.021796	9.553861	-0.485630	-2.15924e+06	1.009441E-8	NaN
149	1.000000	0.602811	7.3665e+06	-46089.1	955.818	-29770.7	0.000000	0.000000	6.602966	-0.073582	NaN	0.000000	0.001609	0.001761	28.1282	0.041008	0.002005	20.4505	-114.925	-165.975	-0.044117	0.601510	-0.479328	-0.480629	-0.073582	20.4505	-0.476630	-1.61558e+06	4.554504E-8	NaN
149	1.000000	0.610825	7.3665e+06	-46089.1	955.818	-29770.7	0.000000	0.000000	6.610982	-0.051251	NaN	0.000000	0.001615	0.001775	28.1283	0.128722	0.002058	62.5338	126.577	-166.203	-0.056201	0.609564	-0.471314	-0.472575	-0.051251	62.5338	-0.470699	-1.33416e+06	3.841471E-8	NaN
149	1.000000	0.618839	7.3665e+06	-46089.1	955.818	-29770.7	0.000000	0.000000	6.618997	-0.010883	NaN	0.000000	0.001603	0.001779	28.1284	0.022304	0.001881	11.8556	-130.738	-168.983	-0.010601	0.617559	-0.463299	-0.464580	-0.010883	11.8556	-0.462611	-1.02731e+06	1.059351E-8	NaN
149	1.000000	0.626827	7.3665e+06	-46089.1	955.818	-29770.7	0.000000	0.000000	6.626984	-0.035186	NaN	0.000000	0.001584	0.001744	28.1286	0.033637	0.001955	17.2043	-135.092	-165.767	0.006658	0.625535	-0.455312	-0.456604	-0.035186	17.2043	-0.453778	-771835	4.558754E-8	NaN
149	1.000000	0.634831	7.3665e+06	-46089.1	955.819	-29770.7	0.000000	0.000000	6.634988	-0.041217	NaN	0.000000	0.001563	0.001738	28.1275	0.081253	0.002014	40.343	79.6506	-168.85	-0.012601	0.633555	-0.447307	-0.448584	-0.041217	40.343	-0.446541	-610400	6.752467E-8	NaN
149	1.000000	0.642846	7.3665e+06	-46089.1	955.819	-29770.7	0.000000	0.000000	6.643004	-0.003657	NaN	0.000000	0.001556	0.001766	28.1268	0.099903	0.002047	48.813	-46.2332	-164.981	0.020221	0.641545	-0.439293	-0.440594	-0.003657	48.813	-0.439237	-481500	7.594694E-9	NaN
149	1.000000	0.650810	7.3665e+06	-46089.1	955.819	-29770.7	0.000000	0.000000	6.650967	-0.019174	NaN	0.000000	0.001599	0.001740	28.1275	0.078489	0.002090	37.5633	48.3481	-164.918	-0.084896	0.649511	-0.431329	-0.432628	-0.019174	37.5633	-0.430946	-367661	5.215000E-8	NaN
149	1.000000	0.658873	7.3665e+06	-46089.1	955.818	-29770.7	0.000000	0.000000	6.659033	0.046668	NaN	0.000000	0.001612	0.001731	28.128	0.106797	0.002072	51.5435	-50.4069	-165.353	-0.068028	0.657538	-0.423266	-0.424601	0.046668	51.5435	-0.423945	-292642	-1.594699E-7	NaN
149	1.000000	0.666842	7.3665e+06	-46089.1	955.819	-29770.7	0.000000	0.000000	6.667000	-0.009812	NaN	0.000000	0.001646	0.001762	28.1287	0.129565	0.001980	65.4253	0.267706	-165.973	-0.030044	0.665582	-0.415297	-0.416557	-0.009812	65.4253	-0.415184	-219821	4.463796E-8	NaN
149	1.000000	0.674816	7.3665e+06	-46089.1	955.818	-29770.7	0.000000	0.000000	6.674971	-0.066000	NaN	0.000000	0.001644	0.001769	28.1293	0.063381	0.001940	32.6674	-0.977714	-162.81	-0.087004	0.673582	-0.407323	-0.408557	-0.066000	32.6674	-0.405808	-161716	4.081213E-7	NaN
149	1.000000	0.682856	7.3665e+06	-46089.1	955.817	-29770.7	0.000000	0.000000	6.683016	0.035634	NaN	0.000000	0.001651	0.001758	28.1295	0.044222	0.002020	21.8944	49.835	-164.395	0.026694	0.681528	-0.399283	-0.400611	0.035634	21.8944	-0.400503	-135885	-2.622378E-7	NaN
149	1.000000	0.690880	7.3665e+06	-46089.1	955.819	-29770.7	0.000000	0.000000	6.691037	-0.029842	NaN	0.000000	0.001605	0.001775	28.1293	0.069122	0.002088	33.1048	-174.452	-164.758	-0.044283	0.689531	-0.391259	-0.392608	-0.029842	33.1048	-0.390583	-98062.6	3.043125E-7	NaN
149	1.000000	0.698882	7.3665e+06	-46089.1	955.818	-29770.7	0.000000	0.000000	6.699037	-0.074361	NaN	0.000000	0.001563	0.001782	28.1291	0.109065	0.002050	53.2136	-10.7855	-162.263	-0.149451	0.697605	-0.383257	-0.384534	-0.074361	53.2136	-0.382209	-74401	9.994613E-7	NaN
149	1.000000	0.706869	7.3665e+06	-46089.1	955.819	-29770.7	0.000000	0.000000	6.707025	-0.081138	NaN	0.000000	0.001579	0.001688	28.1287	0.066558	0.001931	34.466	173.526	-166.593	-0.079636	0.705544	-0.375269	-0.376595	-0.081138	34.466	-0.373504	-55789.9	1.454344E-6	NaN
149	1.000000	0.714872	7.3665e+06	-46089.1	955.817	-29770.7	0.000000	0.000000	6.715031	0.005099	NaN	0.000000	0.001577	0.001701	28.1278	0.077865	0.001944	40.0571	40.8148	-167.829	-0.079749	0.713602	-0.367267	-0.368537	0.005099	40.0571	-0.367362	-45511.8	-1.120350E-7	NaN
149	1.000000	0.722871	7.3665e+06	-46089.1	955.818	-29770.7	0.000000	0.000000	6.723029	-0.034152	NaN	0.000000	0.001570	0.001706	28.1281	0.020159	0.002109	9.558034	164.755	-165.755	-0.042365	0.721572	-0.359267	-0.360567	-0.034152	9.558034	-0.356588	-31804.1	1.073839E-6	NaN
149	1.000000	0.730879	7.3665e+06	-46089.1	955.818	-29770.7	0.000000	0.000000	6.731035	-0.045719	NaN	0.000000	0.001584	0.001741	28.1284	0.042572	0.001924	22.129	-58.0309	-168.557	0.009251	0.729538	-0.351260	-0.352601	-0.045719	22.129	-0.349711	-25281.4	1.808393E-6	NaN
149	1.000000	0.738886	7.3665e+06	-46089.1	955.818	-29770.7	0.000000	0.000000	6.739041	-0.084819	NaN	0.000000	0.001587	0.001746	28.1277	0.052916	0.001839	28.7791	-94.9432	-165.429	-0.027382	0.737631	-0.343253	-0.344508	-0.084819	28.7791	-0.341042	-18912.2	4.484879E-6	NaN
149	1.000000	0.746902	7.3665e+06	-46089.1	955.817	-29770.7	0.000000	0.000000	6.747061	0.014620	NaN	0.000000	0.001604	0.001711	28.1277	0.043157	0.001921	22.4601	-28.227	-162.533	-0.035406	0.745585	-0.335237	-0.336554	0.014620	22.4601	-0.335725	-15819	-9.242211E-7	NaN
149	1.000000	0.754909	7.3665e+06	-46089.1	955.818	-29770.7	0.000000	0.000000	6.755069	0.021334	NaN	0.000000	0.001620	0.001680	28.129	0.055093	0.001963	28.0668	-29.153	-167.649	-0.000356	0.753601	-0.327230	-0.328538	0.021334	28.0668	-0.327800	-12111.9	-1.761404E-6	NaN
149	1.000000	0.762873	7.3665e+06	-46089.1	955.819	-29770.7	0.000000	0.000000	6.763030	-0.039653	NaN	0.000000	0.001592	0.001712	28.1287	0.085629	0.001902	45.0243	-15.6272	-164.657	0.010658	0.761565	-0.319266	-0.320574	-0.039653	45.0243	-0.318606	-8873.73	4.468605E-6	NaN
149	1.000000	0.770898	7.3665e+06	-46089.1	955.819	-29770.7	0.000000	0.000000	6.771058	0.047888	NaN	0.000000	0.001578	0.001738	28.1286	0.107519	0.001999	53.7873	-21.1624	-167.096	0.150374	0.769588	-0.311241	-0.312551	0.047888	53.7873	-0.311909	-7067.87	-6.775503E-6	NaN
149	1.000000	0.778892	7.3665e+06	-46089.1	955.819	-29770.7	0.000000	0.000000	6.779050	-0.013231	NaN	0.000000	0.001599	0.001737	28.1293	0.058834	0.002129	27.633	32.8163	-164.56	-0.051760	0.777597	-0.303247	-0.304542	-0.013231	27.633	-0.302888	-5195	2.546811E-6	NaN
149	1.000000	0.786883	7.3665e+06	-46089.1	955.818	-29770.7	0.000000	0.000000	6.787042	0.006722	NaN	0.000000	0.001595	0.001720	28.1288	0.050739	0.001949	26.0314	-157.243	-167.041	-0.006871	0.785583	-0.295256	-0.296555	0.006722	26.0314	-0.295450	-4025.32	-1.669936E-6	NaN
149	1.000000	0.794879	7.3665e+06	-46089.1	955.817	-29770.7	0.000000	0.000000	6.795037	-0.022894	NaN	0.000000	0.001585	0.001712	28.1276	0.050967	0.001947	26.1825	-150.42	-162.615	0.017016	0.793597	-0.287260	-0.288542	-0.022894	26.1825	-0.286604	-2967.3	7.715408E-6	NaN
149	1.000000	0.802905	7.3665e+06	-46089.1	955.818	-29770.7	0.000000	0.000000	6.803059	-0.108541	NaN	0.000000	0.001600	0.001677	28.1266	0.061962	0.001856	33.3863	-58.8103	-167.43	-0.089130	0.801611	-0.279234	-0.280528	-0.108541	33.3863	-0.276795	-2111.38	5.140770E-5	NaN
149	1.000000	0.810929	7.3665e+06	-46089.1	955.819	-29770.7	0.000000	0.000000	6.811090	0.037055	NaN	0.000000	0.001629	0.001719	28.1265	0.074121	0.001900	39.015	79.9808	-167.495	0.080755	0.809574	-0.271209	-0.272564	0.037055	39.015	-0.271922	-1781.28	-2.080253E-5	NaN
149	1.000000	0.818953	7.3665e+06	-46089.1	955.818	-29770.7	0.000000	0.000000	6.819110	-0.032138	NaN	0.000000	0.001594	0.001714	28.1266	0.070344	0.001889	37.232	108.403	-162.132	-0.028281	0.817596	-0.263186	-0.264542	-0.032138	37.232	-0.262538	-1281.68	2.507511E-5	NaN
149	1.000000	0.826927	7.3665e+06	-46089.1	955.818	-29770.7	0.000000	0.000000	6.827086	0.016703	NaN	0.000000	0.001595	0.001714	28.1268	0.009369	0.002026	4.623276	-2.200438	-165.813	-0.021812	0.825601	-0.255212	-0.256538	0.016703	4.623276	-0.257922	-1089.02	-1.533788E-5	NaN
149	1.000000	0.834924	7.3665e+06	-46089.1	955.819	-29770.7	0.000000	0.000000	6.835082	-0.025343	NaN	0.000000	0.001579	0.001725	28.1282	0.084316	0.001980	42.5733	-105.715	-166.398	-0.000963	0.833644	-0.247215	-0.248494	-0.025343	42.5733	-0.246768	-732.664	3.459039E-5	NaN
149	1.000000	0.842899	7.3665e+06	-46089.1	955.819	-29770.7	0.000000	0.000000	6.843054	-0.087500	NaN	0.000000	0.001564	0.001719	28.1272	0.053085	0.001984	26.7629	-166.318	-165.919	-0.024280	0.841603	-0.239240	-0.240536	-0.087500	26.7629	-0.236788	-512.03	0.000171	NaN
149	1.000000	0.850943	7.3665e+06	-46089.1	955.818	-29770.7	0.000000	0.000000	6.851102	0.009636	NaN	0.000000	0.001580	0.001756	28.1274	0.093136	0.002196	42.4163	-12.8711	-165.607	0.039681	0.849622	-0.231196	-0.232517	0.009636	42.4163	-0.231366	-420.802	-2.289930E-5	NaN
149	1.000000	0.858934	7.3665e+06	-46089.1	955.818	-29770.7	0.000000	0.000000	6.859091	-0.030694	NaN	0.000000	0.001572	0.001742	28.1276	0.131898	0.002019	65.3227	-170.153	-162.574	-0.085819	0.857659	-0.223205	-0.224480	-0.030694	65.3227	-0.222852	-308.447	9.951111E-5	NaN
149	1.000000	0.866947	7.3665e+06	-46089.1	955.819	-29770.7	0.000000	0.000000	6.867105	-0.021168	NaN	0.000000	0.001634	0.001746	28.1273	0.134289	0.002076	64.7016	45.0905	-163.419	-0.035282	0.865689	-0.215192	-0.216450	-0.021168	64.7016	-0.214947	-230.492	9.183647E-5	NaN
149	1.000000	0.874917	7.3665e+06	-46089.1	955.817	-29770.7	0.000000	0.000000	6.875075	-0.014268	NaN	0.000000	0.001616	0.001736	28.1262	0.092032	0.001951	47.1788	-131.853	-166.739	0.010690	0.873634	-0.207222	-0.208505	-0.014268	47.1788	-0.206995	-171.417	8.323636E-5	NaN
149	1.000000	0.882938	7.3665e+06	-46089.1	955.818	-29770.7	0.000000	0.000000	6.883095	-0.018196	NaN	0.000000	0.001595	0.001748	28.1267	0.062423	0.002150	29.0394	109.064	-163.129	-0.019695	0.881642	-0.199201	-0.200497	-0.018196	29.0394	-0.198731	-125.553	0.000145	NaN
149	1.000000	0.890917	7.3665e+06	-46089.1	955.819	-29770.7	0.000000	0.000000	6.891074	-0.053656	NaN	0.000000	0.001578	0.001758	28.1263	0.047514	0.002173	21.8674	-71.0513	-167.667	-0.113603	0.889637	-0.191222	-0.192502	-0.053656	21.8674	-0.189381	-87.8392	0.000611	NaN
149	1.000000	0.898946	7.3665e+06	-46089.1	955.819	-29770.7	0.000000	0.000000	6.899105	0.030749	NaN	0.000000	0.001585	0.001771	28.1267	0.054980	0.002048	26.8429	127.265	-165.627	0.064151	0.897624	-0.183193	-0.184515	0.030749	26.8429	-0.184052	-71.474	-0.000430	NaN
149	1.000000	0.906934	7.3665e+06	-46089.1	955.818	-29770.7	0.000000	0.000000	6.907093	0.006814	NaN	0.000000	0.001602	0.001779	28.126	0.060740	0.002006	30.2744	-33.5821	-164.27	0.000772	0.905592	-0.175205	-0.176547	0.006814	30.2744	-0.175374	-50.8627	-0.000134	NaN
149	1.000000	0.914965	7.3665e+06	-46089.1	955.818	-29770.7	0.000000	0.000000	6.915122	-0.030001	NaN	0.000000	0.001565	0.001759	28.1273	0.162073	0.001933	83.8489	23.5672	-164.045	-0.061300	0.913634	-0.167174	-0.168505	-0.030001	83.8489	-0.166906	-36.2823	0.000827	NaN
149	1.000000	0.922947	7.3665e+06	-46089.1	955.819	-29770.7	0.000000	0.000000	6.923103	-0.042400	NaN	0.000000	0.001569	0.001777	28.1277	0.033456	0.002048	16.3327	36.8749	-164.98	-0.090681	0.921631	-0.159192	-0.160508	-0.042400	16.3327	-0.157245	-24.4831	0.001732	NaN
149	1.000000	0.930989	7.3665e+06	-46089.1	955.817	-29770.7	0.000000	0.000000	6.931146	-0.037662	NaN	0.000000	0.001593	0.001720	28.128	0.068037	0.001981	34.3506	-67.433	-165.524	-0.075365	0.929688	-0.151150	-0.152451	-0.037662	34.3506	-0.150328	-18.3646	0.002051	NaN
149	1.000000	0.938959	7.3665e+06	-46089.1	955.818	-29770.7	0.000000	0.000000	6.939118	0.006894	NaN	0.000000	0.001549	0.001741	28.1286	0.188018	0.002204	85.2909	176.621	-166.115	-0.009662	0.937723	-0.143179	-0.144416	0.006894	85.2909	-0.143240	-13.5995	-0.000507	NaN
149	1.000000	0.946955	7.3665e+06	-46089.1	955.818	-29770.7	0.000000	0.000000	6.947114	0.013511	NaN	0.000000	0.001585	0.001727	28.129	0.062027	0.001894	32.7404	-54.6326	-163.448	0.074479	0.945608	-0.135184	-0.136531	0.013511	32.7404	-0.135493	-9.720805	-0.001390	NaN
149	1.000000	0.954990	7.3665e+06	-46089.1	955.818	-29770.7	0.000000	0.000000	6.955146	-0.053886	NaN	0.000000	0.001586	0.001742	28.1278	0.047069	0.001881	25.0255	-108.064	-165.774	-0.082524	0.953670	-0.127149	-0.128469	-0.053886	25.0255	-0.125534	-6.230850	0.008648	NaN
149	1.000000	0.962990	7.3665e+06	-46089.1	955.819	-29770.7	0.000000	0.000000	6.963151	0.040075	NaN	0.000000	0.001568	0.001750	28.1275	0.030522	0.002083	14.6528	-56.5157	-164.358	0.099474	0.961683	-0.119148	-0.120456	0.040075	14.6528	-0.121200	-5.107831	-0.007846	NaN
149	1.000000	0.970964	7.3665e+06	-46089.1	955.819	-29770.7	0.000000	0.000000	6.971122	-0.008317	NaN	0.000000	0.001581	0.001775	28.1273	0.122641	0.001972	62.1994	-160.07	-161.791	-0.001768	0.969663	-0.111175	-0.112476	-0.008317	62.1994	-0.111074	-3.165699	0.002627	NaN
149	1.000000	0.979004	7.3665e+06	-46089.1	955.818	-29770.7	0.000000	0.000000	6.979161	-0.038067	NaN	0.000000	0.001555	0.001805	28.1276	0.047017	0.001847	25.4514	-31.6989	-167.843	-0.071955	0.977707	-0.103135	-0.104432	-0.038067	25.4514	-0.102013	-2.023734	0.018811	NaN
149	1.000000	0.987005	7.3665e+06	-46089.1	955.82	-29770.7	0.000000	0.000000	6.987164	0.005074	NaN	0.000000	0.001579	0.001749	28.1272	0.119747	0.002086	57.3951	43.2349	-166.574	-0.046849	0.985747	-0.095134	-0.096392	0.005074	57.3951	-0.095200	-1.425525	-0.003560	NaN
149	1.000000	0.995012	7.3665e+06	-46089.1	955.817	-29770.7	0.000000	0.000000	6.995169	-0.045955	NaN	0.000000	0.001566	0.001731	28.1288	0.026877	0.002053	13.089	133.372	-164.351	0.001044	0.993652	-0.087127	-0.088487	-0.045955	13.089	-0.084493	-0.798726	0.057536	NaN
149	1.000000	1.003004	7.3665e+06	-46089.1	955.818	-29770.7	0.000000	0.000000	7.003161	-0.039407	NaN	0.000000	0.001579	0.001733	28.129	0.083180	0.002039	40.8017	-119.38	-160.666	-0.109205	1.001688	-0.079135	-0.080451	-0.039407	40.8017	-0.078411	-0.564586	0.069797	NaN
149	1.000000	1.010993	7.3665e+06	-46089.1	955.818	-29770.7	0.000000	0.000000	7.011152	0.007166	NaN	0.000000	0.001618	0.001712	28.1281	0.062839	0.002071	30.3402	25.3515	-165.019	0.010177	1.009686	-0.071146	-0.072453	0.007166	30.3402	-0.071323	-0.369975	-0.019369	NaN
149	1.000000	1.018998	7.3665e+06	-46089.1	955.819	-29770.7	0.000000	0.000000	7.019157	0.009821	NaN	0.000000	0.001615	0.001752	28.1288	0.127264	0.002020	63.0069	-161.213	-165.408	0.030449	1.017647	-0.063141	-0.064492	0.009821	63.0069	-0.063258	-0.222819	-0.044075	NaN
149	1.000000	1.026986	7.3665e+06	-46089.1	955.817	-29770.7	0.000000	0.000000	7.027142	-0.042131	NaN	0.000000	0.001614	0.001729	28.128	0.142604	0.001999	71.3411	132.239	-164.116	0.045590	1.025665	-0.055153	-0.056474	-0.042131	71.3411	-0.054710	-0.126263	0.333677	NaN
149	1.000000	1.035012	7.3665e+06	-46089.1	955.819	-29770.7	0.000000	0.000000	7.035168	-0.046709	NaN	0.000000	0.001610	0.001744	28.127	0.134898	0.002025	66.6008	-178.066	-164.315	-0.012046	1.033689	-0.047127	-0.048449	-0.046709	66.6008	-0.046601	-0.071931	0.649354	NaN
149	1.000000	1.043023	7.3665e+06	-46089.1	955.818	-29770.7	0.000000	0.000000	7.043182	0.007039	NaN	0.000000	0.001624	0.001752	28.1281	0.042108	0.002075	20.2977	-14.4055	-164.497	0.027137	1.041720	-0.039116	-0.040419	0.007039	20.2977	-0.039376	-0.043293	-0.162589	NaN
149	1.000000	1.050999	7.3665e+06	-46089.1	955.818	-29770.7	0.000000	0.000000	7.051162	0.101380	NaN	0.000000	0.001633	0.001746	28.1272	0.022700	0.001935	11.734	81.2129	-164.035	0.125301	1.049696	-0.031140	-0.032443	0.101380	11.734	-0.037620	-0.038320	-2.645586	NaN
149	1.000000	1.059025	7.3665e+06	-46089.1	955.818	-29770.7	0.000000	0.000000	7.059183	-0.012140	NaN	0.000000	0.001574	0.001763	28.1276	0.074168	0.001993	37.2069	66.5775	-162.933	-0.101469	1.057694	-0.023114	-0.024445	-0.012140	37.2069	-0.022869	-0.014862	0.816881	NaN
149	1.000000	1.067018	7.3665e+06	-46089.1	955.818	-29770.7	0.000000	0.000000	7.067175	-0.027908	NaN	0.000000	0.001566	0.001753	28.1271	0.052153	0.001814	28.745	-98.9564	-165.156	-0.080268	1.065679	-0.015121	-0.016460	-0.027908	28.745	-0.014393	-0.008914	3.130595	NaN
149	1.000000	1.075007	7.3665e+06	-46089.1	955.818	-29770.7	0.000000	0.000000	7.075166	0.021939	NaN	0.000000	0.001597	0.001776	28.1268	0.113068	0.001949	58	127.113	-161.944	-0.057580	1.073709	-0.007132	-0.008430	0.021939	58	-0.007416	-0.004888	-4.488667	NaN
149	1.000000	1.083011	7.3665e+06	-46089.1	955.819	-29770.7	0.000000	0.000000	7.083188	0.455896	NaN	0.000000	0.001599	0.001752	28.1272	0.866668	0.001949	444.565	-1.509754	-164.964	0.063224	1.081736	0.000872	-0.000403	0.455896	444.565	0.000103	7.719059E-5	5906.11	46230.2
149	2.000000	1.090409	7.3665e+06	-46089.1	955.818	-29770.7	0.000000	0.000000	7.090959	9.516021	NaN	0.000000	0.001597	0.001714	28.1272	8.457061	0.001672	5058.39	5.506347	-168.919	8.656156	1.089670	0.008270	0.007531	9.516021	5058.39	0.006859	0.005895	1614.27	60193
149	2.000000	1.092545	7.3665e+06	-46089.1	955.817	-29770.7	0.000000	0.000000	7.093178	11.5568	NaN	0.000000	0.001619	0.001743	28.1271	11.2412	0.001598	7033.81	7.067851	-174.685	11.2464	1.092239	0.010406	0.010100	11.5568	7033.81	0.009174	0.008278	1396.17	70634
149	2.000000	1.094558	7.3665e+06	-46089.1	955.819	-29770.7	0.000000	0.000000	7.095353	15.485	NaN	0.000000	0.001627	0.001747	28.1274	13.4837	0.001811	7443.66	7.572876	-171.523	15.1239	1.094225	0.012419	0.012086	15.485	7443.66	0.010859	0.010152	1525.32	67497
149	2.000000	1.096521	7.3665e+06	-46089.1	955.818	-29770.7	0.000000	0.000000	7.097516	20.3422	NaN	0.000000	0.001661	0.001714	28.1257	15.6893	0.001727	9083.53	5.641604	-175.369	19.7512	1.096194	0.014382	0.014055	20.3422	9083.53	0.012703	0.012343	1648.13	74700.8
149	2.000000	1.098473	7.3665e+06	-46089.1	955.818	-29770.7	0.000000	0.000000	7.099590	23.3218	NaN	0.000000	0.001661	0.001733	28.1258	18.0662	0.001725	10475.8	4.403406	-174.263	22.6933	1.098222	0.016334	0.016083	23.3218	10475.8	0.014664	0.014840	1571.52	78567
149	2.000000	1.100500	7.3665e+06	-46089.1	955.819	-29770.7	0.000000	0.000000	7.101795	27.6266	NaN	0.000000	0.001673	0.001726	28.1263	19.952	0.001583	12607.3	4.669211	-176.11	27.4059	1.100128	0.018362	0.017989	27.6266	12607.3	0.016718	0.017645	1565.69	86713.2
149	2.000000	1.102470	7.3665e+06	-46089.1	955.818	-29770.7	0.000000	0.000000	7.103960	32.3839	NaN	0.000000	0.001682	0.001721	28.1254	22.6427	0.001836	12331.7	6.134199	-176.743	31.2801	1.102131	0.020332	0.019992	32.3839	12331.7	0.018362	0.020033	1616.49	79601.2
149	2.000000	1.104489	7.3665e+06	-46089.1	955.819	-29770.7	0.000000	0.000000	7.105997	32.8392	NaN	0.000000	0.001695	0.001716	28.1258	24.4119	0.001813	13461.2	3.253897	-175.487	31.5249	1.104218	0.022350	0.022079	32.8392	13461.2	0.020520	0.023366	1405.42	80457.2
149	2.000000	1.106467	7.3665e+06	-46089.1	955.818	-29770.7	0.000000	0.000000	7.108243	39.3448	NaN	0.000000	0.001676	0.001725	28.1266	25.7511	0.001809	14238.3	2.391875	-173.856	38.4612	1.106154	0.024328	0.024015	39.3448	14238.3	0.022255	0.026211	1501.08	80350.6
149	2.000000	1.108473	7.3665e+06	-46089.1	955.819	-29770.7	0.000000	0.000000	7.110630	48.6257	NaN	0.000000	0.001660	0.001729	28.1267	28.1201	0.001756	16013	3.726675	-177.473	47.8094	1.108140	0.026334	0.026001	48.6257	16013	0.024056	0.029321	1658.37	85438.3
149	2.000000	1.110433	7.3665e+06	-46089.1	955.818	-29770.7	0.000000	0.000000	7.112818	54.1678	NaN	0.000000	0.001694	0.001701	28.127	29.8059	0.001700	17528.4	5.425935	-179.408	53.0865	1.110143	0.028294	0.028004	54.1678	17528.4	0.025976	0.032815	1650.69	88405.1
149	2.000000	1.112403	7.3665e+06	-46089.1	955.818	-29770.7	0.000000	0.000000	7.114934	57.7129	NaN	0.000000	0.001617	0.001737	28.1261	32.8962	0.001817	18102.4	4.787691	-179.95	55.4456	1.112149	0.030265	0.030010	57.7129	18102.4	0.027873	0.036451	1583.29	86627
149	2.000000	1.114473	7.3665e+06	-46089.1	955.819	-29770.7	0.000000	0.000000	7.117311	65.184	NaN	0.000000	0.001627	0.001722	28.1268	34.4874	0.001771	19471.1	3.728019	-178.617	63.8261	1.114197	0.032334	0.032058	65.184	19471.1	0.029824	0.040379	1614.31	88529.1
149	2.000000	1.116511	7.3665e+06	-46089.1	955.819	-29770.7	0.000000	0.000000	7.119745	74.7997	NaN	0.000000	0.001593	0.001737	28.1254	35.7008	0.001803	19803.6	7.571324	179.242	76.9631	1.116073	0.034372	0.033934	74.7997	19803.6	0.031540	0.043995	1700.17	86260.8
149	2.000000	1.118464	7.3665e+06	-46089.1	955.819	-29770.7	0.000000	0.000000	7.121860	78.7537	NaN	0.000000	0.001543	0.001753	28.1255	39.1834	0.001884	20802	4.931811	179.793	78.1122	1.118106	0.036325	0.035967	78.7537	20802	0.033485	0.048278	1631.26	86497.8
149	2.000000	1.120415	7.3665e+06	-46089.1	955.819	-29770.7	0.000000	0.000000	7.124116	86.1555	NaN	0.000000	0.001566	0.001745	28.128	39.9696	0.001750	22839.5	4.413380	178.455	83.904	1.120149	0.038276	0.038010	86.1555	22839.5	0.035447	0.052793	1631.96	90818.3
149	2.000000	1.122390	7.3665e+06	-46089.1	955.819	-29770.7	0.000000	0.000000	7.126473	95.4463	NaN	0.000000	0.001574	0.001723	28.1266	42.3005	0.001905	22210.5	3.814781	-179.537	93.4938	1.122112	0.040251	0.039973	95.4463	22210.5	0.037028	0.056574	1687.09	85314
149	2.000000	1.124429	7.3665e+06	-46089.1	955.819	-29770.7	0.000000	0.000000	7.128943	105.945	NaN	0.000000	0.001559	0.001704	28.1269	43.6416	0.001825	23914.8	2.966575	-178.993	104.511	1.124137	0.042290	0.041998	105.945	23914.8	0.038968	0.061388	1725.83	88185.6
149	2.000000	1.126405	7.3665e+06	-46089.1	955.818	-29770.7	0.000000	0.000000	7.131298	115.168	NaN	0.000000	0.001595	0.001688	28.1275	46.2101	0.001710	27025.6	7.618476	174.354	112.866	1.126026	0.044266	0.043887	115.168	27025.6	0.041070	0.066822	1723.51	95518.8
149	2.000000	1.128393	7.3665e+06	-46089.1	955.818	-29770.7	0.000000	0.000000	7.133494	120.227	NaN	0.000000	0.001567	0.001706	28.1277	49.0421	0.001870	26227.2	5.538548	176.002	117.334	1.128175	0.046254	0.046036	120.227	26227.2	0.042816	0.071510	1681.27	89607.3
149	2.000000	1.130446	7.3665e+06	-46089.1	955.818	-29770.7	0.000000	0.000000	7.135977	130.673	NaN	0.000000	0.001548	0.001742	28.1286	49.1833	0.001730	28428.1	4.893348	177.518	131.199	1.130158	0.048307	0.048019	130.673	28428.1	0.044860	0.077190	1692.87	93484.6
149	2.000000	1.132482	7.3665e+06	-46089.1	955.818	-29770.7	0.000000	0.000000	7.138288	137.385	NaN	0.000000	0.001589	0.001729	28.1276	52.0725	0.001760	29584.9	8.629029	173.617	139.579	1.132055	0.050343	0.049916	137.385	29584.9	0.046860	0.082955	1656.13	93847.3
149	2.000000	1.134427	7.3665e+06	-46089.1	955.818	-29770.7	0.000000	0.000000	7.140670	148.009	NaN	0.000000	0.001574	0.001790	28.1277	53.716	0.001740	30868.9	2.241349	179.181	145.57	1.134041	0.052288	0.051902	148.009	30868.9	0.048692	0.088414	1674.05	94849.5
149	2.000000	1.136423	7.3665e+06	-46089.1	955.819	-29770.7	0.000000	0.000000	7.142843	152.319	NaN	0.000000	0.001558	0.001741	28.1264	56.2176	0.001902	29552.3	7.047063	174.638	151.185	1.136066	0.054284	0.053927	152.319	29552.3	0.050418	0.093710	1625.43	88200.5
149	2.000000	1.138369	7.3665e+06	-46089.1	955.82	-29770.7	0.000000	0.000000	7.145258	163.73	NaN	0.000000	0.001536	0.001734	28.127	58.2928	0.001942	30014.5	5.329911	176.113	160.176	1.138177	0.056230	0.056038	163.73	30014.5	0.052138	0.099137	1651.55	87093.4
149	2.000000	1.140377	7.3665e+06	-46089.1	955.818	-29770.7	0.000000	0.000000	7.147824	177.283	NaN	0.000000	0.001575	0.001766	28.1271	58.6696	0.001777	33020	2.647842	177.369	175.857	1.140063	0.058238	0.057924	177.283	33020	0.054212	0.105874	1674.47	92716.3
149	2.000000	1.142427	7.3665e+06	-46089.1	955.819	-29770.7	0.000000	0.000000	7.150323	188.224	NaN	0.000000	0.001573	0.001739	28.126	61.5902	0.001773	34734.7	5.926531	174.871	188.308	1.142080	0.060288	0.059941	188.224	34734.7	0.056224	0.112616	1671.38	94566.5
149	2.000000	1.144410	7.3665e+06	-46089.1	955.818	-29770.7	0.000000	0.000000	7.152895	202.526	NaN	0.000000	0.001557	0.001745	28.1269	62.8508	0.001761	35685.7	6.324648	174.178	201.952	1.144024	0.062271	0.061886	202.526	35685.7	0.058015	0.118787	1704.96	94598.3
149	2.000000	1.146329	7.3665e+06	-46089.1	955.817	-29770.7	0.000000	0.000000	7.155179	211.421	NaN	0.000000	0.001532	0.001726	28.1275	64.7097	0.001844	35095.1	4.401549	176.068	207.772	1.146046	0.064191	0.063907	211.421	35095.1	0.059672	0.124636	1696.31	90823.3
149	2.000000	1.148336	7.3665e+06	-46089.1	955.817	-29770.7	0.000000	0.000000	7.157626	222.124	NaN	0.000000	0.001551	0.001722	28.1274	66.6695	0.001887	35326	1.311435	179.81	218.226	1.148067	0.066198	0.065928	222.124	35326	0.061482	0.131175	1693.34	89113.2
149	2.000000	1.150435	7.3665e+06	-46089.1	955.818	-29770.7	0.000000	0.000000	7.160204	233.772	NaN	0.000000	0.001558	0.001734	28.1276	68.361	0.001821	37550.6	4.993975	175.718	234.443	1.150085	0.068296	0.067946	233.772	37550.6	0.063627	0.139135	1680.19	91975.6
149	2.000000	1.152309	7.3665e+06	-46089.1	955.817	-29770.7	0.000000	0.000000	7.162651	247.735	NaN	0.000000	0.001577	0.001740	28.1273	69.0188	0.001613	42798.2	0.782941	177.423	242.55	1.152043	0.070170	0.069904	247.735	42798.2	0.065828	0.147534	1679.18	101801
149	2.000000	1.154482	7.3665e+06	-46089.1	955.817	-29770.7	0.000000	0.000000	7.165362	260.819	NaN	0.000000	0.001579	0.001743	28.1269	74.128	0.001800	41174.6	8.618087	171.06	263.444	1.154063	0.072343	0.071924	260.819	41174.6	0.067592	0.154430	1688.91	95727.5
149	2.000000	1.156384	7.3665e+06	-46089.1	955.819	-29770.7	0.000000	0.000000	7.168027	279.353	NaN	0.000000	0.001562	0.001762	28.125	75.2893	0.001893	39775.8	5.831760	173.626	279.194	1.156095	0.074246	0.073956	279.353	39775.8	0.068978	0.159956	1746.44	90863.9
149	2.000000	1.158403	7.3665e+06	-46089.1	955.818	-29770.7	0.000000	0.000000	7.170615	293.214	NaN	0.000000	0.001568	0.001786	28.1252	77.6192	0.001844	42101.5	7.054568	172.438	290.564	1.158045	0.076264	0.075906	293.214	42101.5	0.071041	0.168348	1741.71	93749
149	2.000000	1.160416	7.3665e+06	-46089.1	955.817	-29770.7	0.000000	0.000000	7.173188	306.825	NaN	0.000000	0.001582	0.001725	28.1258	76.8599	0.001683	45669.3	4.746461	173.599	307.437	1.160025	0.078277	0.077886	306.825	45669.3	0.073238	0.177510	1728.49	99034.4
149	2.000000	1.162316	7.3665e+06	-46089.1	955.818	-29770.7	0.000000	0.000000	7.175530	317.578	NaN	0.000000	0.001577	0.001770	28.1251	80.5987	0.001806	44639.8	4.082042	174.139	313.992	1.162102	0.080177	0.079963	317.578	44639.8	0.074842	0.184339	1722.8	94992
149	2.000000	1.164381	7.3665e+06	-46089.1	955.818	-29770.7	0.000000	0.000000	7.178319	335.2	NaN	0.000000	0.001573	0.001770	28.1249	82.9483	0.001844	44988.2	6.421854	172.324	332.114	1.163979	0.082242	0.081840	335.2	44988.2	0.076654	0.192205	1743.98	93754.1
149	2.000000	1.166323	7.3665e+06	-46089.1	955.819	-29770.7	0.000000	0.000000	7.180830	349.033	NaN	0.000000	0.001554	0.001764	28.126	84.1866	0.001741	48367.6	4.517940	172.921	344.998	1.166007	0.084184	0.083868	349.033	48367.6	0.078772	0.201590	1731.4	98422.4
149	2.000000	1.168326	7.3665e+06	-46089.1	955.818	-29770.7	0.000000	0.000000	7.183210	358.203	NaN	0.000000	0.001595	0.001743	28.1257	86.3689	0.001706	50618.6	4.999243	172.286	354.254	1.168051	0.086187	0.085912	358.203	50618.6	0.080880	0.211139	1696.53	100647
149	2.000000	1.170376	7.3665e+06	-46089.1	955.817	-29770.7	0.000000	0.000000	7.186003	376.275	NaN	0.000000	0.001574	0.001730	28.1257	86.5539	0.001738	49802.7	3.344247	174.649	376.246	1.170085	0.088237	0.087946	376.275	49802.7	0.082571	0.218949	1718.55	97242.1
149	2.000000	1.172395	7.3665e+06	-46089.1	955.817	-29770.7	0.000000	0.000000	7.188477	387.347	NaN	0.000000	0.001552	0.001765	28.1258	90.0612	0.001785	50463.8	6.832721	170.755	387.737	1.172049	0.090256	0.089910	387.347	50463.8	0.084500	0.228020	1698.74	96553
149	2.000000	1.174367	7.3665e+06	-46089.1	955.818	-29770.7	0.000000	0.000000	7.191240	406.579	NaN	0.000000	0.001644	0.001771	28.1262	92.2699	0.001863	49540.1	6.759349	171.748	405.738	1.173964	0.092228	0.091825	406.579	49540.1	0.086073	0.235547	1726.11	93259.2
149	2.000000	1.176259	7.3665e+06	-46089.1	955.818	-29770.7	0.000000	0.000000	7.193829	423.535	NaN	0.000000	0.001622	0.001713	28.125	92.553	0.001793	51609.3	5.141231	171.899	417.132	1.176014	0.094121	0.093875	423.535	51609.3	0.087966	0.244752	1730.47	95310
149	2.000000	1.178357	7.3665e+06	-46089.1	955.818	-29770.7	0.000000	0.000000	7.196473	436.834	NaN	0.000000	0.001645	0.001740	28.1246	95.2921	0.001715	55579.7	5.357692	171.442	435.899	1.177998	0.096218	0.095859	436.834	55579.7	0.090323	0.256448	1703.4	100274
149	2.000000	1.180338	7.3665e+06	-46089.1	955.817	-29770.7	0.000000	0.000000	7.199236	455.838	NaN	0.000000	0.001613	0.001712	28.1248	95.7745	0.001727	55468.6	5.886888	171.402	453.74	1.179972	0.098199	0.097833	455.838	55468.6	0.092036	0.265104	1719.47	98426.5
149	2.000000	1.182366	7.3665e+06	-46089.1	955.819	-29770.7	0.000000	0.000000	7.201337	457.613	NaN	0.000000	0.001560	0.001713	28.1247	98.4017	0.001827	53855.3	3.834874	173.658	456.521	1.182052	0.100227	0.099913	457.613	53855.3	0.093854	0.274444	1667.42	93923.7
149	2.000000	1.184325	7.3665e+06	-46089.1	955.818	-29770.7	0.000000	0.000000	7.204114	477.524	NaN	0.000000	0.001576	0.001733	28.1242	99.7878	0.001795	55579.1	5.559576	171.675	473.797	1.183946	0.102187	0.101807	477.524	55579.1	0.095743	0.284300	1679.65	95235
149	2.000000	1.186288	7.3665e+06	-46089.1	955.818	-29770.7	0.000000	0.000000	7.206174	479.877	NaN	0.000000	0.001582	0.001708	28.126	100.434	0.001749	57422.5	1.830303	174.07	473.45	1.186170	0.104150	0.104031	479.877	57422.5	0.097882	0.295663	1623.05	96484.3
149	2.000000	1.188330	7.3665e+06	-46089.1	955.817	-29770.7	0.000000	0.000000	7.209086	501.032	NaN	0.000000	0.001578	0.001727	28.1276	104.187	0.001825	57091.9	2.731380	173.642	496.762	1.187967	0.106192	0.105828	501.032	57091.9	0.099610	0.304992	1642.77	94450.2
149	2.000000	1.188743	7.3665e+06	-46089.1	955.818	-29770.7	0.000000	0.000000	7.209892	510.596	NaN	0.000000	0.001585	0.001697	28.1117	104.185	0.001784	58385.8	3.961515	-7.503347	501.839	1.188479	0.106605	0.106340	510.596	58385.8	0.100046	0.307368	1661.18	96216.9