File: remote_trans/data/nanoindenter/0828-1/data/Data_2025-08-06,11h17m57s/2025-07-22_16-23-58_1_676.txt
2025-07-22, 16:23:58, 1
Index	Phase	Displacement	Time	Pos X	Pos Y	Pos Z	Rot A	Rot B	Piezo Z	Force A	Force B	Gripper	Voltage A	Voltage B	Temperature	Amplitude force	Amplitude pos	Stiffness	Phase shift	Phase excitation	Force A raw	Displacement raw	HMax	HMax raw	Real Force	Real Stiffness	Contact Depth	Area	Hardness	Reduced Mod.
[#]	[#]	[um]	[s]	[um]	[um]	[um]	[m°]	[m°]	[um]	[uN]	[uN]	[V]	[V]	[V]	[°C]	[uN]	[um]	[N/m]	[°]	[°]	[uN]	[um]	[um]	[um]	[uN]	[N/m]	[um]	[um^2]	[MPa]	[MPa]
676	1.000000	0.002244	7.37166e+06	-43289.1	1005.82	-29779.6	0.000000	0.000000	6.002792	-0.018921	NaN	0.000000	0.001659	0.001683	28.0823	0.079968	0.000992	80.5735	-25.1365	-166.459	0.053087	0.000987	-1.080288	-1.081545	-0.018921	80.5735	-1.080112	-2.710337E+14	6.981101E-17	NaN
676	1.000000	0.010207	7.37166e+06	-43289.1	1005.82	-29779.6	0.000000	0.000000	6.010753	-0.059221	NaN	0.000000	0.001636	0.001686	28.0821	0.071305	0.000838	85.0841	-83.9289	-166.949	-0.068960	0.008924	-1.072325	-1.073608	-0.059221	85.0841	-1.071803	-2.096119E+14	2.825260E-16	NaN
676	1.000000	0.018226	7.37166e+06	-43289.1	1005.82	-29779.6	0.000000	0.000000	6.018775	0.001760	NaN	0.000000	0.001595	0.001672	28.082	0.071564	0.001650	43.3803	37.8928	-163.418	-0.071116	0.016915	-1.064306	-1.065617	0.001760	43.3803	-1.064336	-1.663762E+14	-1.058058E-17	NaN
676	1.000000	0.026238	7.37166e+06	-43289.1	1005.82	-29779.6	0.000000	0.000000	6.026787	-0.006619	NaN	0.000000	0.001623	0.001621	28.0822	0.047349	0.001923	24.6188	161.06	-169.291	0.009028	0.024916	-1.056294	-1.057616	-0.006619	24.6188	-1.056092	-1.289154E+14	5.134413E-17	NaN
676	1.000000	0.034191	7.37166e+06	-43289.1	1005.82	-29779.6	0.000000	0.000000	6.034741	0.032990	NaN	0.000000	0.001591	0.001633	28.0822	0.083470	0.001885	44.2749	25.2902	-165.662	-0.013374	0.032865	-1.048341	-1.049667	0.032990	44.2749	-1.048900	-1.031868E+14	-3.197078E-16	NaN
676	1.000000	0.042201	7.37166e+06	-43289.1	1005.82	-29779.6	0.000000	0.000000	6.042749	-0.037661	NaN	0.000000	0.001597	0.001682	28.0822	0.066050	0.001947	33.9292	125.634	-162.93	-0.024922	0.040875	-1.040331	-1.041657	-0.037661	33.9292	-1.039498	-7.712919E+13	4.882892E-16	NaN
676	1.000000	0.050195	7.37166e+06	-43289.1	1005.82	-29779.6	0.000000	0.000000	6.050745	0.030803	NaN	0.000000	0.001606	0.001698	28.082	0.087029	0.001979	43.9761	-45.3071	-170.395	0.001834	0.048885	-1.032337	-1.033647	0.030803	43.9761	-1.032862	-6.280252E+13	-4.904758E-16	NaN
676	1.000000	0.058201	7.37166e+06	-43289.1	1005.82	-29779.6	0.000000	0.000000	6.058750	0.009880	NaN	0.000000	0.001589	0.001719	28.0821	0.105917	0.002084	50.8291	-151.158	-169.55	0.011261	0.056896	-1.024331	-1.025636	0.009880	50.8291	-1.024477	-4.843727E+13	-2.039702E-16	NaN
676	1.000000	0.066197	7.37166e+06	-43289.1	1005.82	-29779.6	0.000000	0.000000	6.066745	-0.020338	NaN	0.000000	0.001635	0.001745	28.0831	0.035823	0.001992	17.9852	-62.1783	-166.097	0.012147	0.064881	-1.016335	-1.017651	-0.020338	17.9852	-1.015486	-3.666222E+13	5.547474E-16	NaN
676	1.000000	0.074224	7.37166e+06	-43289.1	1005.82	-29779.6	0.000000	0.000000	6.074772	-0.012261	NaN	0.000000	0.001620	0.001750	28.0835	0.071193	0.001889	37.691	-99.9261	-163.783	-0.086227	0.072902	-1.008308	-1.009630	-0.012261	37.691	-1.008064	-2.912915E+13	4.209027E-16	NaN
676	1.000000	0.082214	7.37166e+06	-43289.1	1005.82	-29779.6	0.000000	0.000000	6.082764	0.032076	NaN	0.000000	0.001617	0.001724	28.0834	0.025790	0.002112	12.2114	-175.05	-166.287	-0.007417	0.080875	-1.000318	-1.001657	0.032076	12.2114	-1.002288	-2.435420E+13	-1.317072E-15	NaN
676	1.000000	0.090201	7.37166e+06	-43289.1	1005.82	-29779.6	0.000000	0.000000	6.090752	0.051270	NaN	0.000000	0.001614	0.001732	28.0832	0.073773	0.002036	36.2315	-149.221	-164.488	0.052840	0.088969	-0.992331	-0.993563	0.051270	36.2315	-0.993392	-1.848385E+13	-2.773774E-15	NaN
676	1.000000	0.098238	7.37166e+06	-43289.1	1005.82	-29779.6	0.000000	0.000000	6.098786	-0.007734	NaN	0.000000	0.001626	0.001717	28.0832	0.089575	0.001913	46.8123	-129.513	-165.709	-0.087586	0.096931	-0.984294	-0.985601	-0.007734	46.8123	-0.984170	-1.388635E+13	5.569590E-16	NaN
676	1.000000	0.106229	7.37166e+06	-43289.1	1005.82	-29779.6	0.000000	0.000000	6.106775	-0.065391	NaN	0.000000	0.001618	0.001743	28.083	0.073986	0.002134	34.6736	157.693	-168.328	-0.089506	0.104878	-0.976303	-0.977654	-0.065391	34.6736	-0.974888	-1.041213E+13	6.280277E-15	NaN
676	1.000000	0.114216	7.37166e+06	-43289.1	1005.82	-29779.6	0.000000	0.000000	6.114768	0.076425	NaN	0.000000	0.001631	0.001710	28.0832	0.064680	0.002081	31.0788	122.007	-167.154	-0.015468	0.112902	-0.968316	-0.969630	0.076425	31.0788	-0.970160	-8.991205E+12	-8.499941E-15	NaN
676	1.000000	0.122204	7.37166e+06	-43289.1	1005.82	-29779.6	0.000000	0.000000	6.122755	0.044403	NaN	0.000000	0.001631	0.001742	28.0833	0.086061	0.001948	44.182	-1.284142	-165.967	0.016702	0.120941	-0.960327	-0.961591	0.044403	44.182	-0.961081	-6.783372E+12	-6.545871E-15	NaN
676	1.000000	0.130234	7.37166e+06	-43289.1	1005.82	-29779.6	0.000000	0.000000	6.130784	0.048424	NaN	0.000000	0.001642	0.001719	28.0833	0.095806	0.001976	48.496	179.236	-168.637	-0.000546	0.128918	-0.952298	-0.953614	0.048424	48.496	-0.953047	-5.285947E+12	-9.160804E-15	NaN
676	1.000000	0.138231	7.37166e+06	-43289.1	1005.82	-29779.6	0.000000	0.000000	6.138779	-0.031040	NaN	0.000000	0.001656	0.001701	28.0834	0.036273	0.002038	17.8016	-134.595	-165.631	-0.020913	0.136953	-0.944301	-0.945579	-0.031040	17.8016	-0.942993	-3.868259E+12	8.024352E-15	NaN
676	1.000000	0.146253	7.37166e+06	-43289.1	1005.82	-29779.6	0.000000	0.000000	6.146803	0.031811	NaN	0.000000	0.001651	0.001717	28.0831	0.066991	0.001976	33.9109	-65.5634	-166.539	0.015746	0.144891	-0.936279	-0.937641	0.031811	33.9109	-0.936982	-3.209384E+12	-9.912021E-15	NaN
676	1.000000	0.154233	7.37166e+06	-43289.1	1005.82	-29779.6	0.000000	0.000000	6.154784	0.035567	NaN	0.000000	0.001666	0.001740	28.0834	0.045770	0.001973	23.1981	87.4422	-164.59	0.133103	0.152930	-0.928298	-0.929602	0.035567	23.1981	-0.929448	-2.539523E+12	-1.400549E-14	NaN
676	1.000000	0.162228	7.37166e+06	-43289.1	1005.82	-29779.6	0.000000	0.000000	6.162777	-0.007183	NaN	0.000000	0.001640	0.001702	28.0832	0.027109	0.001924	14.0879	-19.7545	-167.4	0.068487	0.160920	-0.920304	-0.921612	-0.007183	14.0879	-0.919921	-1.888613E+12	3.803562E-15	NaN
676	1.000000	0.170251	7.37166e+06	-43289.1	1005.82	-29779.6	0.000000	0.000000	6.170800	0.005055	NaN	0.000000	0.001640	0.001736	28.0836	0.040256	0.002049	19.6449	162.178	-167.125	-0.004825	0.168971	-0.912281	-0.913560	0.005055	19.6449	-0.912474	-1.498237E+12	-3.373726E-15	NaN
676	1.000000	0.178241	7.37166e+06	-43289.1	1005.82	-29779.6	0.000000	0.000000	6.178793	0.083344	NaN	0.000000	0.001618	0.001686	28.0835	0.039531	0.001993	19.8389	82.306	-167.519	0.079412	0.176965	-0.904291	-0.905567	0.083344	19.8389	-0.907442	-1.281177E+12	-6.505258E-14	NaN
676	1.000000	0.186247	7.37166e+06	-43289.1	1005.82	-29779.6	0.000000	0.000000	6.186797	0.013139	NaN	0.000000	0.001627	0.001718	28.0832	0.077927	0.002012	38.7342	-74.1882	-164.953	0.052848	0.184936	-0.896285	-0.897596	0.013139	38.7342	-0.896539	-9.126384E+11	-1.439665E-14	NaN
676	1.000000	0.194245	7.37166e+06	-43289.1	1005.82	-29779.6	0.000000	0.000000	6.194796	0.046783	NaN	0.000000	0.001645	0.001715	28.0835	0.110245	0.001929	57.1595	134.604	-168.802	-0.006781	0.192994	-0.888287	-0.889538	0.046783	57.1595	-0.888900	-7.195347E+11	-6.501772E-14	NaN
676	1.000000	0.202254	7.37166e+06	-43289.1	1005.82	-29779.6	0.000000	0.000000	6.202805	0.050597	NaN	0.000000	0.001642	0.001730	28.0826	0.047181	0.001860	25.3637	-143.214	-165.576	0.088112	0.200956	-0.880278	-0.881576	0.050597	25.3637	-0.881774	-5.763701E+11	-8.778511E-14	NaN
676	1.000000	0.210264	7.37166e+06	-43289.1	1005.82	-29779.6	0.000000	0.000000	6.210811	-0.061093	NaN	0.000000	0.001620	0.001703	28.0824	0.055351	0.001997	27.7106	54.9476	-169.607	-0.011687	0.208965	-0.872268	-0.873567	-0.061093	27.7106	-0.870614	-4.071471E+11	1.500523E-13	NaN
676	1.000000	0.218257	7.37166e+06	-43289.1	1005.82	-29779.6	0.000000	0.000000	6.218803	-0.063786	NaN	0.000000	0.001653	0.001728	28.0825	0.057784	0.002033	28.4233	-144.125	-164.965	-0.015824	0.216972	-0.864275	-0.865560	-0.063786	28.4233	-0.862592	-3.171006E+11	2.011554E-13	NaN
676	1.000000	0.226292	7.37166e+06	-43289.1	1005.82	-29779.6	0.000000	0.000000	6.226843	0.035811	NaN	0.000000	0.001633	0.001693	28.0822	0.047668	0.001933	24.6599	-101.927	-166.264	0.015924	0.224903	-0.856240	-0.857629	0.035811	24.6599	-0.857329	-2.691315E+11	-1.330618E-13	NaN
676	1.000000	0.234256	7.37166e+06	-43289.1	1005.82	-29779.6	0.000000	0.000000	6.234804	-0.018943	NaN	0.000000	0.001637	0.001689	28.0824	0.098463	0.002009	49.0216	-11.0244	-169.212	-0.010072	0.232982	-0.848276	-0.849550	-0.018943	49.0216	-0.847986	-2.011241E+11	9.418721E-14	NaN
676	1.000000	0.242265	7.37166e+06	-43289.1	1005.82	-29779.6	0.000000	0.000000	6.242813	-0.040461	NaN	0.000000	0.001662	0.001664	28.0818	0.082115	0.002080	39.4771	-168.705	-166.053	-0.003239	0.240994	-0.840266	-0.841538	-0.040461	39.4771	-0.839498	-1.543437E+11	2.621490E-13	NaN
676	1.000000	0.250277	7.37166e+06	-43289.1	1005.82	-29779.6	0.000000	0.000000	6.250826	0.019520	NaN	0.000000	0.001663	0.001685	28.0819	0.048166	0.002036	23.6544	-86.2611	-166.54	0.013704	0.248989	-0.832255	-0.833543	0.019520	23.6544	-0.832874	-1.255272E+11	-1.555057E-13	NaN
676	1.000000	0.258298	7.37166e+06	-43289.1	1005.82	-29779.6	0.000000	0.000000	6.258849	0.051925	NaN	0.000000	0.001642	0.001722	28.0819	0.146562	0.001935	75.7568	-176.611	-167.418	0.037235	0.256983	-0.824234	-0.825549	0.051925	75.7568	-0.824748	-9.740670E+10	-5.330764E-13	NaN
676	1.000000	0.266297	7.37166e+06	-43289.1	1005.82	-29779.6	0.000000	0.000000	6.266848	0.036028	NaN	0.000000	0.001694	0.001715	28.082	0.107707	0.002157	49.9449	-95.4109	-166.336	0.057762	0.265036	-0.816234	-0.817496	0.036028	49.9449	-0.816776	-7.594196E+10	-4.744179E-13	NaN
676	1.000000	0.274303	7.37166e+06	-43289.1	1005.82	-29779.6	0.000000	0.000000	6.274851	-0.013957	NaN	0.000000	0.001677	0.001720	28.0822	0.098472	0.002060	47.7951	-137.37	-164.494	-0.040730	0.272957	-0.808229	-0.809575	-0.013957	47.7951	-0.808010	-5.775296E+10	2.416598E-13	NaN
676	1.000000	0.282309	7.37166e+06	-43289.1	1005.82	-29779.6	0.000000	0.000000	6.282858	0.004634	NaN	0.000000	0.001708	0.001680	28.082	0.135317	0.002223	60.8712	51.579	-168.074	0.060545	0.280998	-0.800223	-0.801534	0.004634	60.8712	-0.800280	-4.535935E+10	-1.021698E-13	NaN
676	1.000000	0.290287	7.37166e+06	-43289.1	1005.82	-29779.6	0.000000	0.000000	6.290836	0.006159	NaN	0.000000	0.001711	0.001678	28.0823	0.082830	0.002044	40.517	-5.106036	-168.553	-0.028473	0.288960	-0.792245	-0.793572	0.006159	40.517	-0.792359	-3.540985E+10	-1.739265E-13	NaN
676	1.000000	0.298287	7.37166e+06	-43289.1	1005.82	-29779.6	0.000000	0.000000	6.298836	-0.012061	NaN	0.000000	0.001640	0.001702	28.082	0.018409	0.001831	10.0525	80.7553	-165.927	0.015173	0.296934	-0.784245	-0.785598	-0.012061	10.0525	-0.783345	-2.671042E+10	4.515517E-13	NaN
676	1.000000	0.306315	7.37166e+06	-43289.1	1005.82	-29779.6	0.000000	0.000000	6.306866	0.034890	NaN	0.000000	0.001653	0.001661	28.082	0.093582	0.002082	44.9574	-148.931	-167.719	0.031382	0.304954	-0.776217	-0.777578	0.034890	44.9574	-0.776799	-2.176331E+10	-1.603164E-12	NaN
676	1.000000	0.314300	7.37166e+06	-43289.1	1005.82	-29779.6	0.000000	0.000000	6.314847	-0.047543	NaN	0.000000	0.001653	0.001679	28.0818	0.028641	0.002019	14.1875	135.792	-163.677	-0.025895	0.312983	-0.768232	-0.769549	-0.047543	14.1875	-0.765719	-1.538464E+10	3.090261E-12	NaN
676	1.000000	0.322315	7.37166e+06	-43289.1	1005.82	-29779.6	0.000000	0.000000	6.322863	-0.013998	NaN	0.000000	0.001668	0.001664	28.0819	0.121600	0.001928	63.0758	101.745	-168.537	-0.015022	0.320965	-0.760217	-0.761567	-0.013998	63.0758	-0.760050	-1.288215E+10	1.086622E-12	NaN
676	1.000000	0.330312	7.37166e+06	-43289.1	1005.82	-29779.6	0.000000	0.000000	6.330861	0.008156	NaN	0.000000	0.001663	0.001635	28.0821	0.079737	0.002172	36.7095	104.498	-166.585	-0.073086	0.328987	-0.752220	-0.753545	0.008156	36.7095	-0.752387	-1.013225E+10	-8.049074E-13	NaN
676	1.000000	0.338330	7.37166e+06	-43289.1	1005.82	-29779.6	0.000000	0.000000	6.338879	-0.003571	NaN	0.000000	0.001685	0.001645	28.0824	0.086333	0.002018	42.7795	167.061	-166.076	0.019696	0.336996	-0.744202	-0.745536	-0.003571	42.7795	-0.744139	-7.823921E+9	4.563711E-13	NaN
676	1.000000	0.346302	7.37166e+06	-43289.1	1005.82	-29779.6	0.000000	0.000000	6.346852	0.040061	NaN	0.000000	0.001628	0.001636	28.0834	0.117863	0.001931	61.0526	142.384	-170.066	0.074809	0.344998	-0.736230	-0.737534	0.040061	61.0526	-0.736722	-6.200236E+9	-6.461234E-12	NaN
676	1.000000	0.354298	7.37166e+06	-43289.1	1005.82	-29779.6	0.000000	0.000000	6.354847	-0.002127	NaN	0.000000	0.001612	0.001665	28.0832	0.013392	0.002031	6.594271	98.7055	-162.336	0.010945	0.353025	-0.728234	-0.729507	-0.002127	6.594271	-0.727992	-4.714549E+9	4.512089E-13	NaN
676	1.000000	0.362330	7.37166e+06	-43289.1	1005.82	-29779.6	0.000000	0.000000	6.362876	-0.068735	NaN	0.000000	0.001618	0.001621	28.0834	0.123994	0.001920	64.579	23.6106	-164.443	-0.041361	0.361052	-0.720202	-0.721480	-0.068735	64.579	-0.719404	-3.600324E+9	1.909125E-11	NaN
676	1.000000	0.370344	7.37166e+06	-43289.1	1005.82	-29779.6	0.000000	0.000000	6.370891	-0.052561	NaN	0.000000	0.001624	0.001669	28.0833	0.058077	0.002010	28.8916	-165.147	-164.155	-0.082658	0.369038	-0.712188	-0.713493	-0.052561	28.8916	-0.710823	-2.749684E+9	1.911520E-11	NaN
676	1.000000	0.378322	7.37166e+06	-43289.1	1005.82	-29779.6	0.000000	0.000000	6.378870	-0.027697	NaN	0.000000	0.001660	0.001660	28.0833	0.034871	0.001998	17.45	19.6905	-165.074	-0.022722	0.377021	-0.704210	-0.705511	-0.027697	17.45	-0.703020	-2.151613E+9	1.287275E-11	NaN
676	1.000000	0.386340	7.37166e+06	-43289.1	1005.82	-29779.6	0.000000	0.000000	6.386890	0.042261	NaN	0.000000	0.001645	0.001628	28.0833	0.075592	0.002072	36.4766	-165.848	-162.785	0.049676	0.385011	-0.696192	-0.697520	0.042261	36.4766	-0.697061	-1.783987E+9	-2.368931E-11	NaN
676	1.000000	0.394347	7.37166e+06	-43289.1	1005.82	-29779.6	0.000000	0.000000	6.394897	0.020789	NaN	0.000000	0.001638	0.001652	28.0831	0.056053	0.002049	27.3504	-179.664	-166.963	-0.004819	0.393036	-0.688185	-0.689496	0.020789	27.3504	-0.688755	-1.373740E+9	-1.513336E-11	NaN
676	1.000000	0.402313	7.37166e+06	-43289.1	1005.82	-29779.6	0.000000	0.000000	6.402861	-0.026696	NaN	0.000000	0.001631	0.001683	28.0837	0.017336	0.002032	8.531642	41.6343	-167.244	-0.036948	0.401038	-0.680219	-0.681494	-0.026696	8.531642	-0.677872	-9.752215E+8	2.737390E-11	NaN
676	1.000000	0.410362	7.37166e+06	-43289.1	1005.82	-29779.6	0.000000	0.000000	6.410909	-0.039131	NaN	0.000000	0.001602	0.001690	28.0831	0.076807	0.002016	38.0992	-176.104	-168.205	0.022878	0.409047	-0.672170	-0.673485	-0.039131	38.0992	-0.671400	-7.953350E+8	4.920038E-11	NaN
676	1.000000	0.418337	7.37166e+06	-43289.1	1005.82	-29779.6	0.000000	0.000000	6.418884	-0.058039	NaN	0.000000	0.001631	0.001705	28.0834	0.132546	0.002007	66.0276	-133.615	-166.794	-0.060216	0.417043	-0.664194	-0.665489	-0.058039	66.0276	-0.663535	-6.207061E+8	9.350508E-11	NaN
676	1.000000	0.426372	7.37166e+06	-43289.1	1005.82	-29779.6	0.000000	0.000000	6.426921	-0.002754	NaN	0.000000	0.001642	0.001697	28.0834	0.054963	0.002013	27.3091	37.5544	-169.528	-0.033141	0.424996	-0.656160	-0.657536	-0.002754	27.3091	-0.656084	-4.907040E+8	5.611602E-12	NaN
676	1.000000	0.434337	7.37166e+06	-43289.1	1005.82	-29779.6	0.000000	0.000000	6.434886	0.003276	NaN	0.000000	0.001595	0.001697	28.0834	0.046554	0.002042	22.7946	92.1692	-167.645	-0.011474	0.433059	-0.648195	-0.649473	0.003276	22.7946	-0.648303	-3.838563E+8	-8.534871E-12	NaN
676	1.000000	0.442348	7.37166e+06	-43289.1	1005.82	-29779.6	0.000000	0.000000	6.442897	-0.016411	NaN	0.000000	0.001654	0.001696	28.0837	0.031598	0.001961	16.1134	177.241	-166.369	0.085750	0.441060	-0.640184	-0.641472	-0.016411	16.1134	-0.639420	-2.899530E+8	5.659979E-11	NaN
676	1.000000	0.450330	7.37166e+06	-43289.1	1005.82	-29779.6	0.000000	0.000000	6.450878	-0.027451	NaN	0.000000	0.001710	0.001718	28.0833	0.156391	0.002041	76.6307	-132.716	-167.498	-0.068243	0.449068	-0.632202	-0.633464	-0.027451	76.6307	-0.631933	-2.288587E+8	1.199493E-10	NaN
676	1.000000	0.458374	7.37166e+06	-43289.1	1005.82	-29779.6	0.000000	0.000000	6.458923	-0.009714	NaN	0.000000	0.001665	0.001672	28.0837	0.053480	0.001932	27.6863	151.924	-164.822	0.001641	0.457086	-0.624158	-0.625446	-0.009714	27.6863	-0.623894	-1.774815E+8	5.473514E-11	NaN
676	1.000000	0.466385	7.37166e+06	-43289.1	1005.82	-29779.6	0.000000	0.000000	6.466936	0.038738	NaN	0.000000	0.001669	0.001671	28.0833	0.045432	0.002009	22.6169	-45.2647	-167.343	0.075180	0.465068	-0.616147	-0.617464	0.038738	22.6169	-0.617431	-1.446505E+8	-2.678058E-10	NaN
676	1.000000	0.474403	7.37166e+06	-43289.1	1005.82	-29779.6	0.000000	0.000000	6.474952	0.003403	NaN	0.000000	0.001647	0.001691	28.0831	0.009100	0.001934	4.704740	-171.779	-165.82	0.078348	0.473067	-0.608129	-0.609465	0.003403	4.704740	-0.608671	-1.096055E+8	-3.104728E-11	NaN
676	1.000000	0.482400	7.37166e+06	-43289.1	1005.82	-29779.6	0.000000	0.000000	6.482952	0.073722	NaN	0.000000	0.001716	0.001734	28.0823	0.121478	0.002040	59.5343	99.5253	-172.348	0.053509	0.481116	-0.600132	-0.601416	0.073722	59.5343	-0.601061	-8.611284E+7	-8.561069E-10	NaN
676	1.000000	0.490375	7.37166e+06	-43289.1	1005.82	-29779.6	0.000000	0.000000	6.490923	-0.011087	NaN	0.000000	0.001681	0.001706	28.0821	0.094809	0.001998	47.4619	68.7644	-167.583	-0.064588	0.489069	-0.592157	-0.593463	-0.011087	47.4619	-0.591982	-6.456400E+7	1.717228E-10	NaN
676	1.000000	0.498363	7.37166e+06	-43289.1	1005.82	-29779.6	0.000000	0.000000	6.498912	-0.008564	NaN	0.000000	0.001706	0.001673	28.0826	0.048936	0.002135	22.9207	-82.0922	-166.237	-0.020761	0.497045	-0.584169	-0.585486	-0.008564	22.9207	-0.583888	-4.993219E+7	1.715147E-10	NaN
676	1.000000	0.506364	7.37166e+06	-43289.1	1005.82	-29779.6	0.000000	0.000000	6.506911	-0.030905	NaN	0.000000	0.001685	0.001701	28.0825	0.037984	0.001959	19.3894	8.265094	-165.015	-0.035071	0.505002	-0.576168	-0.577530	-0.030905	19.3894	-0.574973	-3.761174E+7	8.216844E-10	NaN
676	1.000000	0.514378	7.37166e+06	-43289.1	1005.82	-29779.6	0.000000	0.000000	6.514925	-0.029970	NaN	0.000000	0.001684	0.001704	28.0823	0.092488	0.001863	49.6531	170.903	-167.207	-0.076060	0.513054	-0.568154	-0.569478	-0.029970	49.6531	-0.567702	-2.984494E+7	1.004200E-9	NaN
676	1.000000	0.522392	7.37166e+06	-43289.1	1005.82	-29779.6	0.000000	0.000000	6.522938	-0.056134	NaN	0.000000	0.001673	0.001670	28.0823	0.075228	0.001960	38.3737	154.534	-163.986	0.013210	0.521031	-0.560140	-0.561501	-0.056134	38.3737	-0.559043	-2.265361E+7	2.477942E-9	NaN
676	1.000000	0.530430	7.37166e+06	-43289.1	1005.82	-29779.6	0.000000	0.000000	6.530978	-0.002080	NaN	0.000000	0.001665	0.001691	28.0821	0.115583	0.002028	56.9951	107.006	-165.963	-0.026447	0.529120	-0.552102	-0.553412	-0.002080	56.9951	-0.552075	-1.814227E+7	1.146318E-10	NaN
676	1.000000	0.538419	7.37166e+06	-43289.1	1005.82	-29779.6	0.000000	0.000000	6.538968	-0.004489	NaN	0.000000	0.001670	0.001666	28.0822	0.031535	0.001967	16.0339	-15.3751	-167.918	0.031965	0.537126	-0.544113	-0.545406	-0.004489	16.0339	-0.543903	-1.397880E+7	3.211395E-10	NaN
676	1.000000	0.546420	7.37166e+06	-43289.1	1005.82	-29779.6	0.000000	0.000000	6.546968	-0.014365	NaN	0.000000	0.001702	0.001704	28.0834	0.152441	0.002073	73.5426	139.95	-170.062	-0.001919	0.545143	-0.536112	-0.537389	-0.014365	73.5426	-0.535965	-1.084895E+7	1.324096E-9	NaN
676	1.000000	0.554438	7.37166e+06	-43289.1	1005.82	-29779.6	0.000000	0.000000	6.554987	-0.015216	NaN	0.000000	0.001698	0.001698	28.0825	0.068690	0.001913	35.9147	-36.85	-169.264	0.039517	0.553130	-0.528093	-0.529402	-0.015216	35.9147	-0.527776	-8.34987e+06	1.822364E-9	NaN
676	1.000000	0.562412	7.37166e+06	-43289.1	1005.82	-29779.6	0.000000	0.000000	6.562959	-0.027808	NaN	0.000000	0.001705	0.001664	28.0821	0.047360	0.002045	23.1605	8.717143	-166.848	-0.110425	0.561152	-0.520120	-0.521380	-0.027808	23.1605	-0.519220	-6.34958e+06	4.379478E-9	NaN
676	1.000000	0.570412	7.37166e+06	-43289.1	1005.82	-29779.6	0.000000	0.000000	6.570964	0.062183	NaN	0.000000	0.001676	0.001669	28.082	0.060957	0.001960	31.0968	18.4817	-167.338	4.907344E-5	0.569095	-0.512120	-0.513437	0.062183	31.0968	-0.513619	-5.30658e+06	-1.171818E-8	NaN
676	1.000000	0.578420	7.37166e+06	-43289.1	1005.82	-29779.6	0.000000	0.000000	6.578967	-0.064342	NaN	0.000000	0.001677	0.001686	28.0821	0.048171	0.001983	24.296	57.5161	-166.426	-0.088308	0.577112	-0.504112	-0.505420	-0.064342	24.296	-0.502125	-3.66998e+06	1.753186E-8	NaN
676	1.000000	0.586452	7.37166e+06	-43289.1	1005.82	-29779.6	0.000000	0.000000	6.587000	-0.032734	NaN	0.000000	0.001658	0.001700	28.0822	0.081498	0.002043	39.8995	79.7978	-164.985	-0.011016	0.585118	-0.496080	-0.497414	-0.032734	39.8995	-0.495465	-2.96292e+06	1.104782E-8	NaN
676	1.000000	0.594452	7.37166e+06	-43289.1	1005.82	-29779.6	0.000000	0.000000	6.595002	0.014135	NaN	0.000000	0.001653	0.001696	28.0825	0.027059	0.001967	13.7538	6.908441	-168.641	0.085725	0.593090	-0.488080	-0.489442	0.014135	13.7538	-0.488850	-2.39511e+06	-5.901639E-9	NaN
676	1.000000	0.602452	7.37166e+06	-43289.1	1005.82	-29779.6	0.000000	0.000000	6.603001	0.001299	NaN	0.000000	0.001689	0.001716	28.0822	0.040012	0.001938	20.644	-64.0525	-163.745	0.088279	0.601119	-0.480080	-0.481413	0.001299	20.644	-0.480128	-1.80848e+06	-7.180345E-10	NaN
676	1.000000	0.610436	7.37166e+06	-43289.1	1005.82	-29779.6	0.000000	0.000000	6.610983	-0.027704	NaN	0.000000	0.001712	0.001692	28.0822	0.041527	0.002014	20.6165	-40.4197	-165.563	0.017145	0.609192	-0.472096	-0.473340	-0.027704	20.6165	-0.471089	-1.35106e+06	2.050551E-8	NaN
676	1.000000	0.618416	7.37166e+06	-43289.1	1005.82	-29779.6	0.000000	0.000000	6.618967	0.050080	NaN	0.000000	0.001758	0.001693	28.0833	0.096640	0.002130	45.3655	98.8359	-166.44	0.035387	0.617140	-0.464116	-0.465392	0.050080	45.3655	-0.464944	-1.1078e+06	-4.520626E-8	NaN
676	1.000000	0.626401	7.37166e+06	-43289.1	1005.82	-29779.6	0.000000	0.000000	6.626950	0.013328	NaN	0.000000	0.001664	0.001682	28.0836	0.120937	0.002054	58.8756	-177.352	-167.277	-0.022751	0.625104	-0.456131	-0.457428	0.013328	58.8756	-0.456301	-837557	-1.591273E-8	NaN
676	1.000000	0.634461	7.37166e+06	-43289.1	1005.82	-29779.6	0.000000	0.000000	6.635008	-0.046960	NaN	0.000000	0.001701	0.001725	28.0835	0.047497	0.002164	21.9478	143.938	-167.448	-0.075813	0.633110	-0.448071	-0.449422	-0.046960	21.9478	-0.446467	-608927	7.711921E-8	NaN
676	1.000000	0.642433	7.37166e+06	-43289.1	1005.82	-29779.6	0.000000	0.000000	6.642980	-0.047129	NaN	0.000000	0.001713	0.001715	28.0834	0.051909	0.001965	26.4161	1.029046	-168.419	-0.041479	0.641070	-0.440099	-0.441461	-0.047129	26.4161	-0.438761	-474097	9.940803E-8	NaN
676	1.000000	0.650439	7.37166e+06	-43289.1	1005.82	-29779.6	0.000000	0.000000	6.650989	0.021907	NaN	0.000000	0.001718	0.001690	28.0837	0.062036	0.001903	32.6007	-42.8676	-167.569	0.024370	0.649111	-0.432093	-0.433421	0.021907	32.6007	-0.432597	-387960	-5.646780E-8	NaN
676	1.000000	0.658478	7.37166e+06	-43289.1	1005.82	-29779.6	0.000000	0.000000	6.659027	-0.005229	NaN	0.000000	0.001729	0.001691	28.0835	0.111551	0.002023	55.1407	-159.347	-165.595	0.080908	0.657175	-0.424054	-0.425357	-0.005229	55.1407	-0.423983	-293004	1.784522E-8	NaN
676	1.000000	0.666452	7.37166e+06	-43289.1	1005.82	-29779.6	0.000000	0.000000	6.667002	0.009119	NaN	0.000000	0.001676	0.001674	28.0837	0.128808	0.001992	64.6703	-91.7371	-167.375	0.056089	0.665137	-0.416080	-0.417395	0.009119	64.6703	-0.416185	-227135	-4.014647E-8	NaN
676	1.000000	0.674486	7.37167e+06	-43289.1	1005.82	-29779.6	0.000000	0.000000	6.675033	-0.048457	NaN	0.000000	0.001690	0.001667	28.0834	0.032834	0.001909	17.2014	-128.18	-169.815	-0.000489	0.673124	-0.408046	-0.409408	-0.048457	17.2014	-0.405933	-162381	2.984163E-7	NaN
676	1.000000	0.682424	7.37167e+06	-43289.1	1005.82	-29779.6	0.000000	0.000000	6.682974	0.021212	NaN	0.000000	0.001617	0.001659	28.0835	0.039514	0.001992	19.8394	55.1056	-165.962	0.086224	0.681136	-0.400108	-0.401396	0.021212	19.8394	-0.400910	-137712	-1.540308E-7	NaN
676	1.000000	0.690477	7.37167e+06	-43289.1	1005.82	-29779.6	0.000000	0.000000	6.691027	0.038506	NaN	0.000000	0.001600	0.001702	28.0841	0.061408	0.001964	31.26	158.899	-166.73	0.086086	0.689136	-0.392055	-0.393396	0.038506	31.26	-0.392979	-106111	-3.628840E-7	NaN
676	1.000000	0.698449	7.37167e+06	-43289.1	1005.82	-29779.6	0.000000	0.000000	6.698999	0.040292	NaN	0.000000	0.001666	0.001678	28.0834	0.067742	0.001963	34.5051	38.7073	-167.573	-0.002356	0.697167	-0.384083	-0.385365	0.040292	34.5051	-0.384959	-81470.5	-4.945611E-7	NaN
676	1.000000	0.706482	7.37167e+06	-43289.1	1005.82	-29779.6	0.000000	0.000000	6.707032	0.023047	NaN	0.000000	0.001644	0.001706	28.0837	0.089684	0.002038	43.9984	-98.832	-168.545	-0.015926	0.705100	-0.376050	-0.377432	0.023047	43.9984	-0.376443	-61490.4	-3.748088E-7	NaN
676	1.000000	0.714483	7.37167e+06	-43289.1	1005.82	-29779.6	0.000000	0.000000	6.715030	-0.041805	NaN	0.000000	0.001628	0.001690	28.0835	0.081914	0.002089	39.2212	-42.6712	-167.872	-0.034899	0.713157	-0.368049	-0.369375	-0.041805	39.2212	-0.367250	-45341.7	9.219945E-7	NaN
676	1.000000	0.722478	7.37167e+06	-43289.1	1005.82	-29779.6	0.000000	0.000000	6.723031	0.077949	NaN	0.000000	0.001632	0.001728	28.0836	0.072660	0.001855	39.1633	-174.189	-167.893	0.117629	0.721170	-0.360053	-0.361362	0.077949	39.1633	-0.361546	-37513.8	-2.077866E-6	NaN
676	1.000000	0.730507	7.37167e+06	-43289.1	1005.82	-29779.6	0.000000	0.000000	6.731057	0.019393	NaN	0.000000	0.001583	0.001727	28.0836	0.024888	0.001886	13.196	174.433	-172.519	0.039831	0.729199	-0.352025	-0.353333	0.019393	13.196	-0.353127	-28337.3	-6.843696E-7	NaN
676	1.000000	0.738506	7.37167e+06	-43289.1	1005.82	-29779.6	0.000000	0.000000	6.739054	-0.013154	NaN	0.000000	0.001608	0.001740	28.0836	0.119388	0.002092	57.0682	62.8161	-165.663	-0.003580	0.737163	-0.344026	-0.345369	-0.013154	57.0682	-0.343853	-20781.2	6.329936E-7	NaN
676	1.000000	0.746486	7.37167e+06	-43289.1	1005.82	-29779.6	0.000000	0.000000	6.747037	0.057430	NaN	0.000000	0.001616	0.001720	28.0841	0.093459	0.001993	46.8965	112.201	-171.349	0.010641	0.745193	-0.336046	-0.337339	0.057430	46.8965	-0.336965	-16492.3	-3.482228E-6	NaN
676	1.000000	0.754480	7.37167e+06	-43289.1	1005.82	-29779.6	0.000000	0.000000	6.755028	-0.037889	NaN	0.000000	0.001635	0.001731	28.0823	0.100909	0.002020	49.9515	-126.143	-168.049	0.052797	0.753191	-0.328052	-0.329341	-0.037889	49.9515	-0.327483	-11982.9	3.161899E-6	NaN
676	1.000000	0.762531	7.37167e+06	-43289.1	1005.82	-29779.6	0.000000	0.000000	6.763080	-0.004481	NaN	0.000000	0.001635	0.001700	28.0823	0.050706	0.002018	25.1232	-150.512	-167.339	-0.082898	0.761194	-0.320001	-0.321338	-0.004481	25.1232	-0.319867	-9261.44	4.838032E-7	NaN
676	1.000000	0.770497	7.37167e+06	-43289.1	1005.82	-29779.6	0.000000	0.000000	6.771045	-1.518285E-5	NaN	0.000000	0.001616	0.001718	28.0825	0.143065	0.002119	67.5126	159.961	-165.119	-0.001946	0.769186	-0.312035	-0.313346	-1.518285E-5	67.5126	-0.312035	-7098.36	2.138925E-9	NaN
676	1.000000	0.778500	7.37167e+06	-43289.1	1005.82	-29779.6	0.000000	0.000000	6.779048	-0.024000	NaN	0.000000	0.001590	0.001722	28.0822	0.123825	0.002063	60.0326	178.042	-167.792	-0.035286	0.777222	-0.304032	-0.305310	-0.024000	60.0326	-0.303732	-5347.26	4.488324E-6	NaN
676	1.000000	0.786509	7.37167e+06	-43289.1	1005.82	-29779.6	0.000000	0.000000	6.787059	0.027975	NaN	0.000000	0.001624	0.001756	28.0824	0.108461	0.002070	52.3901	-34.2132	-167.301	0.053427	0.785184	-0.296023	-0.297348	0.027975	52.3901	-0.296424	-4162.38	-6.720932E-6	NaN
676	1.000000	0.794511	7.37167e+06	-43289.1	1005.82	-29779.6	0.000000	0.000000	6.795061	0.036121	NaN	0.000000	0.001610	0.001739	28.0822	0.046897	0.001955	23.9923	42.1834	-165.159	-0.029414	0.793154	-0.288021	-0.289378	0.036121	23.9923	-0.289150	-3240.14	-1.114786E-5	NaN
676	1.000000	0.802499	7.37167e+06	-43289.1	1005.82	-29779.6	0.000000	0.000000	6.803048	0.009368	NaN	0.000000	0.001627	0.001707	28.0825	0.035307	0.001835	19.2411	-48.5113	-164.368	0.065354	0.801204	-0.280033	-0.281328	0.009368	19.2411	-0.280398	-2393.18	-3.914581E-6	NaN
676	1.000000	0.810489	7.37167e+06	-43289.1	1005.82	-29779.6	0.000000	0.000000	6.811037	-0.017333	NaN	0.000000	0.001626	0.001724	28.0823	0.074297	0.002027	36.6503	56.7394	-165.904	0.038949	0.809211	-0.272043	-0.273321	-0.017333	36.6503	-0.271688	-1766.79	9.810657E-6	NaN
676	1.000000	0.818504	7.37167e+06	-43289.1	1005.82	-29779.6	0.000000	0.000000	6.819053	-0.000174	NaN	0.000000	0.001630	0.001714	28.0821	0.061450	0.002124	28.9322	-121.871	-165.818	-0.002879	0.817229	-0.264028	-0.265303	-0.000174	28.9322	-0.264024	-1350.46	1.287598E-7	NaN
676	1.000000	0.826514	7.37167e+06	-43289.1	1005.82	-29779.6	0.000000	0.000000	6.827062	-0.015572	NaN	0.000000	0.001632	0.001754	28.082	0.041689	0.002167	19.2376	129.486	-167.482	-0.068531	0.825220	-0.256018	-0.257312	-0.015572	19.2376	-0.255411	-996.425	1.562785E-5	NaN
676	1.000000	0.834531	7.37167e+06	-43289.1	1005.82	-29779.6	0.000000	0.000000	6.835078	-0.027651	NaN	0.000000	0.001589	0.001726	28.0822	0.119189	0.002057	57.945	124.103	-165.244	-0.020358	0.833223	-0.248001	-0.249309	-0.027651	57.945	-0.247643	-755.928	3.657892E-5	NaN
676	1.000000	0.842535	7.37167e+06	-43289.1	1005.82	-29779.6	0.000000	0.000000	6.843084	-0.017742	NaN	0.000000	0.001594	0.001711	28.0823	0.091994	0.002072	44.3989	174.092	-163.749	-0.010281	0.841262	-0.239997	-0.241270	-0.017742	44.3989	-0.239697	-568.614	3.120137E-5	NaN
676	1.000000	0.850549	7.37167e+06	-43289.1	1005.82	-29779.6	0.000000	0.000000	6.851100	0.059934	NaN	0.000000	0.001639	0.001726	28.0822	0.063395	0.002007	31.5872	116.615	-165.955	0.148543	0.849232	-0.231983	-0.233300	0.059934	31.5872	-0.233406	-453.103	-0.000132	NaN
676	1.000000	0.858518	7.37167e+06	-43289.1	1005.82	-29779.6	0.000000	0.000000	6.859069	0.040804	NaN	0.000000	0.001614	0.001734	28.0823	0.012253	0.001903	6.438452	108.93	-168.361	0.003378	0.857203	-0.224014	-0.225329	0.040804	6.438452	-0.228767	-382.85	-0.000107	NaN
676	1.000000	0.866509	7.37167e+06	-43289.1	1005.82	-29779.6	0.000000	0.000000	6.867059	0.013782	NaN	0.000000	0.001667	0.001709	28.0819	0.091616	0.002059	44.4966	107.238	-169.627	0.073648	0.865206	-0.216023	-0.217326	0.013782	44.4966	-0.216255	-241.928	-5.696778E-5	NaN
676	1.000000	0.874546	7.37167e+06	-43289.1	1005.82	-29779.6	0.000000	0.000000	6.875095	0.013182	NaN	0.000000	0.001672	0.001694	28.0822	0.113707	0.001918	59.2963	153.678	-164.463	0.002765	0.873217	-0.207986	-0.209315	0.013182	59.2963	-0.208153	-179.006	-7.364018E-5	NaN
676	1.000000	0.882553	7.37167e+06	-43289.1	1005.82	-29779.6	0.000000	0.000000	6.883099	-0.062381	NaN	0.000000	0.001625	0.001698	28.0822	0.111130	0.002009	55.3084	-136.812	-166.152	-0.074788	0.881241	-0.199979	-0.201291	-0.062381	55.3084	-0.199133	-127.481	0.000489	NaN
676	1.000000	0.890540	7.37167e+06	-43289.1	1005.82	-29779.6	0.000000	0.000000	6.891089	-0.002519	NaN	0.000000	0.001588	0.001712	28.0833	0.035573	0.002083	17.0817	1.181484	-164.308	-0.033177	0.889260	-0.191992	-0.193272	-0.002519	17.0817	-0.191881	-96.694	2.605439E-5	NaN
676	1.000000	0.898549	7.37167e+06	-43289.1	1005.82	-29779.6	0.000000	0.000000	6.899097	-0.006886	NaN	0.000000	0.001653	0.001689	28.0835	0.061844	0.002055	30.0916	-106.299	-168.117	-0.064268	0.897229	-0.183983	-0.185303	-0.006886	30.0916	-0.183812	-70.8082	9.724506E-5	NaN
676	1.000000	0.906538	7.37167e+06	-43289.1	1005.82	-29779.6	0.000000	0.000000	6.907085	-0.033010	NaN	0.000000	0.001611	0.001739	28.0834	0.039301	0.001963	20.0211	171.003	-165.192	-0.030191	0.905212	-0.175994	-0.177320	-0.033010	20.0211	-0.174758	-49.6381	0.000665	NaN
676	1.000000	0.914568	7.37167e+06	-43289.1	1005.82	-29779.6	0.000000	0.000000	6.915118	0.014658	NaN	0.000000	0.001620	0.001756	28.0837	0.076147	0.002012	37.8438	-75.034	-167.334	0.015636	0.913257	-0.167964	-0.169275	0.014658	37.8438	-0.168254	-38.3039	-0.000383	NaN
676	1.000000	0.922563	7.37167e+06	-43289.1	1005.82	-29779.6	0.000000	0.000000	6.923112	0.001830	NaN	0.000000	0.001602	0.001726	28.0833	0.102687	0.001990	51.6122	0.574994	-167.536	0.027467	0.921216	-0.159969	-0.161316	0.001830	51.6122	-0.159996	-27.4099	-6.677684E-5	NaN
676	1.000000	0.930564	7.37167e+06	-43289.1	1005.82	-29779.6	0.000000	0.000000	6.931117	0.091068	NaN	0.000000	0.001600	0.001705	28.0835	0.087980	0.001987	44.2788	125.653	-165.949	0.065909	0.929225	-0.151968	-0.153307	0.091068	44.2788	-0.153510	-20.9757	-0.004342	NaN
676	1.000000	0.938574	7.37167e+06	-43289.1	1005.82	-29779.6	0.000000	0.000000	6.939122	-0.018905	NaN	0.000000	0.001628	0.001718	28.0836	0.098752	0.002065	47.8281	31.9192	-162.652	0.006454	0.937193	-0.143958	-0.145339	-0.018905	47.8281	-0.143662	-13.8473	0.001365	NaN
676	1.000000	0.946584	7.37167e+06	-43289.1	1005.82	-29779.6	0.000000	0.000000	6.947134	0.048763	NaN	0.000000	0.001652	0.001724	28.0834	0.070775	0.002132	33.1955	-139.434	-168.253	-0.016820	0.945293	-0.135948	-0.137239	0.048763	33.1955	-0.137050	-10.4063	-0.004686	NaN
676	1.000000	0.954555	7.37167e+06	-43289.1	1005.82	-29779.6	0.000000	0.000000	6.955105	0.024079	NaN	0.000000	0.001618	0.001713	28.0833	0.174305	0.002094	83.2212	-133.715	-169.865	0.031510	0.953306	-0.127977	-0.129226	0.024079	83.2212	-0.128194	-7.027632	-0.003426	NaN
676	1.000000	0.962583	7.37167e+06	-43289.1	1005.82	-29779.6	0.000000	0.000000	6.963132	0.012480	NaN	0.000000	0.001627	0.001750	28.0834	0.076664	0.001936	39.5926	105.57	-166.001	-0.049686	0.961239	-0.119949	-0.121293	0.012480	39.5926	-0.120185	-4.873313	-0.002561	NaN
676	1.000000	0.970578	7.37167e+06	-43289.1	1005.82	-29779.6	0.000000	0.000000	6.971125	-0.050035	NaN	0.000000	0.001620	0.001734	28.0838	0.056990	0.001981	28.7721	83.5199	-168.295	-0.068461	0.969308	-0.111954	-0.113224	-0.050035	28.7721	-0.110649	-3.101313	0.016134	NaN
676	1.000000	0.978585	7.37167e+06	-43289.1	1005.82	-29779.6	0.000000	0.000000	6.979135	0.035780	NaN	0.000000	0.001590	0.001733	28.084	0.061098	0.001909	32.0086	72.4302	-165.077	0.024473	0.977263	-0.103947	-0.105269	0.035780	32.0086	-0.104786	-2.325615	-0.015385	NaN
676	1.000000	0.986577	7.37167e+06	-43289.1	1005.82	-29779.6	0.000000	0.000000	6.987126	0.018659	NaN	0.000000	0.001639	0.001721	28.0836	0.061552	0.002087	29.4922	144.291	-170.35	-0.047777	0.985256	-0.095955	-0.097276	0.018659	29.4922	-0.096430	-1.520069	-0.012275	NaN
676	1.000000	0.994574	7.37167e+06	-43289.1	1005.82	-29779.6	0.000000	0.000000	6.995123	0.005247	NaN	0.000000	0.001599	0.001728	28.0833	0.076384	0.002212	34.5342	-29.5094	-166.457	0.073103	0.993294	-0.087958	-0.089238	0.005247	34.5342	-0.088072	-0.973443	-0.005390	NaN
676	1.000000	1.002595	7.37167e+06	-43289.1	1005.82	-29779.6	0.000000	0.000000	7.003143	-0.021542	NaN	0.000000	0.001623	0.001703	28.0835	0.050229	0.001957	25.6655	78.6497	-169.167	-0.040098	1.001304	-0.079937	-0.081228	-0.021542	25.6655	-0.079307	-0.594741	0.036221	NaN
676	1.000000	1.010582	7.37167e+06	-43289.1	1005.82	-29779.6	0.000000	0.000000	7.011129	-0.047650	NaN	0.000000	0.001594	0.001709	28.0837	0.051687	0.001920	26.919	-57.1662	-163.073	-0.080674	1.009259	-0.071950	-0.073273	-0.047650	26.919	-0.070622	-0.354423	0.134445	NaN
676	1.000000	1.018589	7.37167e+06	-43289.1	1005.82	-29779.6	0.000000	0.000000	7.019136	-0.034498	NaN	0.000000	0.001590	0.001737	28.0837	0.037399	0.001963	19.0516	157.286	-163.945	-0.069698	1.017320	-0.063943	-0.065212	-0.034498	19.0516	-0.062585	-0.213319	0.161720	NaN
676	1.000000	1.026582	7.37167e+06	-43289.1	1005.82	-29779.6	0.000000	0.000000	7.027132	0.028268	NaN	0.000000	0.001565	0.001732	28.0822	0.041068	0.001998	20.5562	87.6508	-164.239	0.013908	1.025294	-0.055950	-0.057238	0.028268	20.5562	-0.056982	-0.147262	-0.191959	NaN
676	1.000000	1.034595	7.37167e+06	-43289.1	1005.82	-29779.6	0.000000	0.000000	7.035145	0.030813	NaN	0.000000	0.001602	0.001714	28.0821	0.066325	0.001980	33.5026	42.7339	-163.766	-0.063133	1.033260	-0.047937	-0.049272	0.030813	33.5026	-0.048627	-0.082911	-0.371647	NaN
676	1.000000	1.042604	7.37167e+06	-43289.1	1005.82	-29779.6	0.000000	0.000000	7.043153	0.000710	NaN	0.000000	0.001603	0.001727	28.0821	0.086673	0.001995	43.4475	53.5458	-165.595	0.048210	1.041300	-0.039927	-0.041232	0.000710	43.4475	-0.039940	-0.045032	-0.015773	NaN
676	1.000000	1.050613	7.37167e+06	-43289.1	1005.82	-29779.6	0.000000	0.000000	7.051159	-0.076785	NaN	0.000000	0.001630	0.001755	28.082	0.036429	0.002039	17.8673	-93.2749	-167.78	-0.049648	1.049325	-0.031919	-0.033207	-0.076785	17.8673	-0.028695	-0.021180	3.625342	NaN
676	1.000000	1.058632	7.37167e+06	-43289.1	1005.82	-29779.6	0.000000	0.000000	7.059181	-0.017886	NaN	0.000000	0.001587	0.001743	28.0821	0.051581	0.002052	25.132	-125.445	-164.794	-0.000119	1.057259	-0.023900	-0.025273	-0.017886	25.132	-0.023366	-0.015304	1.168762	NaN
676	1.000000	1.066616	7.37167e+06	-43289.1	1005.82	-29779.6	0.000000	0.000000	7.067165	0.012959	NaN	0.000000	0.001620	0.001710	28.0822	0.131513	0.001997	65.8645	28.6196	-164.15	0.011667	1.065374	-0.015916	-0.017158	0.012959	65.8645	-0.016064	-0.009922	-1.306058	NaN
676	1.000000	1.074654	7.37167e+06	-43289.1	1005.82	-29779.6	0.000000	0.000000	7.075203	0.009196	NaN	0.000000	0.001601	0.001751	28.0821	0.059477	0.002079	28.6129	-106.347	-163.872	-0.053789	1.073336	-0.007878	-0.009196	0.009196	28.6129	-0.008119	-0.005302	-1.734562	NaN
676	1.000000	1.082586	7.37167e+06	-43289.1	1005.82	-29779.6	0.000000	0.000000	7.083204	1.675987	NaN	0.000000	0.001631	0.001723	28.0821	2.343153	0.001709	1370.69	11.3502	-169.294	0.615707	1.081348	5.415160E-5	-0.001184	1.675987	1370.69	-0.000863	-0.000634	-2642.32	NaN
676	2.000000	1.089214	7.37167e+06	-43289.1	1005.82	-29779.6	0.000000	0.000000	7.090140	9.185802	NaN	0.000000	0.001655	0.001716	28.082	8.588769	0.001426	6022.27	6.062562	-171.917	9.603830	1.088873	0.006682	0.006341	9.185802	6022.27	0.005538	0.004630	1984.08	80863.9
676	2.000000	1.091189	7.37167e+06	-43289.1	1005.82	-29779.6	0.000000	0.000000	7.092226	11.8755	NaN	0.000000	0.001634	0.001744	28.0817	11.3464	0.001741	6516.5	7.211615	-173.306	11.519	1.090888	0.008657	0.008356	11.8755	6516.5	0.007290	0.006323	1878.28	74876
676	2.000000	1.093202	7.37167e+06	-43289.1	1005.82	-29779.6	0.000000	0.000000	7.094473	17.5614	NaN	0.000000	0.001686	0.001717	28.0818	13.8493	0.001741	7955.45	5.998303	-174.097	16.4024	1.092855	0.010670	0.010323	17.5614	7955.45	0.009014	0.008106	2166.34	80727.5
676	2.000000	1.095176	7.37167e+06	-43289.1	1005.82	-29779.6	0.000000	0.000000	7.096422	16.9498	NaN	0.000000	0.001708	0.001708	28.0818	15.1791	0.001742	8714.92	7.582381	-177.643	16.8292	1.094866	0.012644	0.012334	16.9498	8714.92	0.011185	0.010529	1609.85	77597.5
676	2.000000	1.097146	7.37167e+06	-43289.1	1005.82	-29779.6	0.000000	0.000000	7.098624	22.6008	NaN	0.000000	0.001660	0.001750	28.0822	17.3048	0.001773	9761.55	3.040085	-173.08	21.547	1.096831	0.014614	0.014299	22.6008	9761.55	0.012878	0.012559	1799.62	79583.1
676	2.000000	1.099170	7.37167e+06	-43289.1	1005.82	-29779.6	0.000000	0.000000	7.100831	27.0577	NaN	0.000000	0.001725	0.001706	28.0818	18.777	0.001733	10837.5	5.962576	-176.876	26.4419	1.098784	0.016638	0.016252	27.0577	10837.5	0.014765	0.014973	1807.04	80917.2
676	2.000000	1.101087	7.37167e+06	-43289.1	1005.82	-29779.6	0.000000	0.000000	7.102937	31.6731	NaN	0.000000	0.001706	0.001755	28.082	22.2999	0.001982	11250.3	7.110893	-178.105	30.7845	1.100853	0.018555	0.018321	31.6731	11250.3	0.016443	0.017258	1835.24	78241.9
676	2.000000	1.103132	7.37167e+06	-43289.1	1005.82	-29779.6	0.000000	0.000000	7.105257	38.3532	NaN	0.000000	0.001703	0.001728	28.0816	23.3586	0.001723	13556.6	5.511627	-178.495	38.4291	1.102764	0.020600	0.020233	38.3532	13556.6	0.018478	0.020207	1897.99	87130.7
676	2.000000	1.105108	7.37167e+06	-43289.1	1005.82	-29779.6	0.000000	0.000000	7.107393	42.2384	NaN	0.000000	0.001710	0.001724	28.0819	24.3477	0.001707	14261.1	4.085864	-178.267	40.7188	1.104827	0.022576	0.022296	42.2384	14261.1	0.020355	0.023102	1828.31	85722.8
676	2.000000	1.107119	7.37167e+06	-43289.1	1005.82	-29779.6	0.000000	0.000000	7.109734	50.2639	NaN	0.000000	0.001690	0.001725	28.0831	26.7422	0.001822	14680.7	5.408801	-179.239	49.4026	1.106805	0.024587	0.024273	50.2639	14680.7	0.022019	0.025815	1947.1	83480.5
676	2.000000	1.109116	7.37167e+06	-43289.1	1005.82	-29779.6	0.000000	0.000000	7.111822	52.4907	NaN	0.000000	0.001677	0.001750	28.083	28.1601	0.001819	15482.3	6.136430	-179.605	51.8909	1.108804	0.026584	0.026273	52.4907	15482.3	0.024041	0.029294	1791.87	82645.8
676	2.000000	1.111086	7.37167e+06	-43289.1	1005.82	-29779.6	0.000000	0.000000	7.113977	56.9878	NaN	0.000000	0.001695	0.001765	28.0833	30.6518	0.001743	17587.2	6.712480	177.991	54.8414	1.110751	0.028554	0.028219	56.9878	17587.2	0.026124	0.033092	1722.08	88329.3
676	2.000000	1.113081	7.37167e+06	-43289.1	1005.82	-29779.6	0.000000	0.000000	7.116336	65.8395	NaN	0.000000	0.001696	0.001772	28.0832	32.7647	0.001706	19202.9	5.188312	178.576	62.4205	1.112772	0.030550	0.030240	65.8395	19202.9	0.027978	0.036657	1796.09	91634.9
676	2.000000	1.115126	7.37167e+06	-43289.1	1005.82	-29779.6	0.000000	0.000000	7.118503	68.8064	NaN	0.000000	0.001692	0.001755	28.0834	34.6848	0.001848	18772.9	5.006399	178.183	68.8267	1.114887	0.032594	0.032355	68.8064	18772.9	0.029845	0.040424	1702.12	85306.9
676	2.000000	1.117085	7.37167e+06	-43289.1	1005.82	-29779.6	0.000000	0.000000	7.120975	81.2937	NaN	0.000000	0.001688	0.001729	28.0832	36.8272	0.001822	20214.8	5.426147	178.69	81.1968	1.116752	0.034553	0.034220	81.2937	20214.8	0.031537	0.043989	1848.06	88058.5
676	2.000000	1.119093	7.37167e+06	-43289.1	1005.82	-29779.6	0.000000	0.000000	7.123323	89.5566	NaN	0.000000	0.001705	0.001734	28.0833	38.1127	0.001745	21839.9	8.794744	174.875	89.516	1.118747	0.036561	0.036215	89.5566	21839.9	0.033486	0.048279	1854.99	90812.6
676	2.000000	1.121040	7.37167e+06	-43289.1	1005.82	-29779.6	0.000000	0.000000	7.125520	95.621	NaN	0.000000	0.001713	0.001748	28.0832	40.0775	0.001757	22808	1.446936	-178.154	92.8946	1.120764	0.038508	0.038232	95.621	22808	0.035364	0.052597	1817.98	90861.3
676	2.000000	1.123074	7.37167e+06	-43289.1	1005.82	-29779.6	0.000000	0.000000	7.127796	101.516	NaN	0.000000	0.001704	0.001775	28.0832	42.2882	0.001966	21512.7	3.847524	179.886	97.6666	1.122772	0.040542	0.040240	101.516	21512.7	0.037003	0.056513	1796.34	82678.7
676	2.000000	1.125086	7.37167e+06	-43289.1	1005.82	-29779.6	0.000000	0.000000	7.130226	111.686	NaN	0.000000	0.001701	0.001730	28.0839	44.0152	0.001781	24711.7	5.462985	176.586	110.216	1.124698	0.042554	0.042166	111.686	24711.7	0.039165	0.061887	1804.67	90756
676	2.000000	1.127075	7.37167e+06	-43289.1	1005.82	-29779.6	0.000000	0.000000	7.132461	117.676	NaN	0.000000	0.001693	0.001741	28.083	45.8461	0.001772	25872.6	3.898104	177.89	117.147	1.126819	0.044543	0.044287	117.676	25872.6	0.041132	0.066987	1756.7	91330.9
676	2.000000	1.129062	7.37167e+06	-43289.1	1005.82	-29779.6	0.000000	0.000000	7.134925	129.292	NaN	0.000000	0.001694	0.001703	28.0835	47.9266	0.001854	25845.4	8.290230	173.857	128.387	1.128735	0.046530	0.046203	129.292	25845.4	0.042778	0.071404	1810.7	88367.7
676	2.000000	1.131063	7.37167e+06	-43289.1	1005.82	-29779.6	0.000000	0.000000	7.137331	139.123	NaN	0.000000	0.001725	0.001727	28.0829	49.6099	0.001707	29061	7.228098	173.24	138.414	1.130741	0.048532	0.048209	139.123	29061	0.044941	0.077420	1796.98	95423.7
676	2.000000	1.133058	7.37167e+06	-43289.1	1005.82	-29779.6	0.000000	0.000000	7.139723	148.791	NaN	0.000000	0.001711	0.001743	28.0831	51.2796	0.001782	28768.5	5.731380	175.681	145.214	1.132690	0.050526	0.050158	148.791	28768.5	0.046647	0.082333	1807.18	91601.9
676	2.000000	1.135048	7.37167e+06	-43289.1	1005.82	-29779.6	0.000000	0.000000	7.141979	155.271	NaN	0.000000	0.001685	0.001707	28.0833	53.878	0.001858	28994.7	6.411564	174.715	154.553	1.134766	0.052516	0.052234	155.271	28994.7	0.048500	0.087832	1767.82	89385.1
676	2.000000	1.136944	7.37167e+06	-43289.1	1005.82	-29779.6	0.000000	0.000000	7.144249	164.374	NaN	0.000000	0.001700	0.001742	28.083	55.6351	0.001786	31154.8	5.269391	174.635	158.128	1.136745	0.054412	0.054213	164.374	31154.8	0.050455	0.093826	1751.91	92925.9
676	2.000000	1.139114	7.37167e+06	-43289.1	1005.82	-29779.6	0.000000	0.000000	7.146902	176.136	NaN	0.000000	0.001699	0.001706	28.0838	55.8538	0.001766	31634.7	1.711391	179.12	177.258	1.138670	0.056582	0.056138	176.136	31634.7	0.052406	0.099995	1761.45	91400.5
676	2.000000	1.141039	7.37167e+06	-43289.1	1005.82	-29779.6	0.000000	0.000000	7.149353	188.929	NaN	0.000000	0.001733	0.001708	28.0818	58.0748	0.001723	33700.3	1.520443	177.875	185.734	1.140702	0.058507	0.058170	188.929	33700.3	0.054302	0.106173	1779.45	94493
676	2.000000	1.143139	7.37167e+06	-43289.1	1005.82	-29779.6	0.000000	0.000000	7.151940	200.783	NaN	0.000000	0.001695	0.001702	28.0819	60.4847	0.001778	34018.6	4.047148	176.845	200.51	1.142751	0.060607	0.060219	200.783	34018.6	0.056180	0.112468	1785.25	92677.7
676	2.000000	1.145019	7.37167e+06	-43289.1	1005.82	-29779.6	0.000000	0.000000	7.154528	217.989	NaN	0.000000	0.001708	0.001719	28.0821	62.8708	0.001788	35172.1	8.059177	171.079	215.667	1.144620	0.062487	0.062088	217.989	35172.1	0.057839	0.118173	1844.65	93478.6
676	2.000000	1.147006	7.37167e+06	-43289.1	1005.82	-29779.6	0.000000	0.000000	7.156952	228.619	NaN	0.000000	0.001699	0.001737	28.082	64.7881	0.001792	36150.7	2.110146	177.101	225.641	1.146730	0.064474	0.064198	228.619	36150.7	0.059731	0.124846	1831.2	93476.5
676	2.000000	1.149051	7.37167e+06	-43289.1	1005.82	-29779.6	0.000000	0.000000	7.159610	243.557	NaN	0.000000	0.001713	0.001740	28.0826	66.4204	0.001688	39357.4	5.530011	173.829	242.033	1.148589	0.066519	0.066057	243.557	39357.4	0.061878	0.132627	1836.4	98737.7
676	2.000000	1.151068	7.37167e+06	-43289.1	1005.82	-29779.6	0.000000	0.000000	7.161996	252.528	NaN	0.000000	0.001709	0.001748	28.0822	69.0507	0.001807	38222.3	3.180944	176.532	251.26	1.150642	0.068536	0.068110	252.528	38222.3	0.063581	0.138960	1817.27	93679.5
676	2.000000	1.153009	7.37167e+06	-43289.1	1005.82	-29779.6	0.000000	0.000000	7.164441	264.788	NaN	0.000000	0.001696	0.001760	28.0823	70.9291	0.001901	37305.1	-0.119449	179.429	258.943	1.152774	0.070477	0.070242	264.788	37305.1	0.065153	0.144934	1826.96	89527.6
676	2.000000	1.155046	7.37167e+06	-43289.1	1005.82	-29779.6	0.000000	0.000000	7.167104	280.025	NaN	0.000000	0.001705	0.001727	28.0823	73.9221	0.001868	39570.1	6.508806	173.237	279.949	1.154690	0.072514	0.072158	280.025	39570.1	0.067206	0.152909	1831.31	92453.5
676	2.000000	1.157030	7.37167e+06	-43289.1	1005.82	-29779.6	0.000000	0.000000	7.169265	284.333	NaN	0.000000	0.001652	0.001755	28.0821	75.1801	0.001741	43173.3	2.001382	175.674	281.272	1.156820	0.074498	0.074288	284.333	43173.3	0.069558	0.162296	1751.94	97911.6
676	2.000000	1.159011	7.37167e+06	-43289.1	1005.82	-29779.6	0.000000	0.000000	7.171774	297.167	NaN	0.000000	0.001675	0.001727	28.0824	75.9943	0.001726	44020.7	3.895707	173.514	293.727	1.158753	0.076480	0.076221	297.167	44020.7	0.071417	0.169898	1749.09	97574.5
676	2.000000	1.161159	7.37167e+06	-43289.1	1005.82	-29779.6	0.000000	0.000000	7.174528	311.903	NaN	0.000000	0.001720	0.001717	28.0822	79.9207	0.001804	44302.1	4.365442	173.411	318.481	1.160733	0.078627	0.078201	311.903	44302.1	0.073347	0.177969	1752.58	95945.9
676	2.000000	1.163100	7.37167e+06	-43289.1	1005.82	-29779.6	0.000000	0.000000	7.177262	331.209	NaN	0.000000	0.001684	0.001746	28.0823	82.1503	0.001891	43444.4	9.440680	169.659	329.652	1.162713	0.080568	0.080181	331.209	43444.4	0.074850	0.184375	1796.39	92439.2
676	2.000000	1.164984	7.37167e+06	-43289.1	1005.82	-29779.6	0.000000	0.000000	7.179655	343.571	NaN	0.000000	0.001718	0.001718	28.0824	82.8409	0.001884	43974.7	4.810575	173.512	340.332	1.164680	0.082452	0.082148	343.571	43974.7	0.076593	0.191935	1790.04	91706.3
676	2.000000	1.167005	7.37167e+06	-43289.1	1005.82	-29779.6	0.000000	0.000000	7.182218	356.792	NaN	0.000000	0.001692	0.001781	28.0823	84.5124	0.001852	45627.1	2.772208	174.572	352.672	1.166736	0.084473	0.084204	356.792	45627.1	0.078608	0.200856	1776.36	93015.1
676	2.000000	1.169062	7.37167e+06	-43289.1	1005.82	-29779.6	0.000000	0.000000	7.184824	370.124	NaN	0.000000	0.001723	0.001745	28.0825	85.4386	0.001822	46880.1	4.463828	172.737	370.408	1.168803	0.086530	0.086271	370.124	46880.1	0.080609	0.209902	1763.32	93487.6
676	2.000000	1.171076	7.37167e+06	-43289.1	1005.82	-29779.6	0.000000	0.000000	7.187490	385.997	NaN	0.000000	0.001698	0.001711	28.0823	87.7938	0.001810	48491.8	2.329609	174.846	386.034	1.170731	0.088544	0.088199	385.997	48491.8	0.082574	0.218963	1762.84	94679.6
676	2.000000	1.172964	7.37167e+06	-43289.1	1005.82	-29779.6	0.000000	0.000000	7.190344	409.489	NaN	0.000000	0.001699	0.001726	28.0823	89.0833	0.001861	47869.1	5.586674	172.403	405.533	1.172690	0.090432	0.090158	409.489	47869.1	0.084016	0.225732	1814.05	92051.8
676	2.000000	1.174947	7.37167e+06	-43289.1	1005.82	-29779.6	0.000000	0.000000	7.193002	425.943	NaN	0.000000	0.001694	0.001721	28.0837	90.0352	0.001768	50923.5	5.274799	172.38	422.718	1.174666	0.092415	0.092134	425.943	50923.5	0.086141	0.235876	1805.79	95796.4
676	2.000000	1.176925	7.37167e+06	-43289.1	1005.82	-29779.6	0.000000	0.000000	7.195607	441.181	NaN	0.000000	0.001711	0.001731	28.0836	92.936	0.001915	48536.7	5.198085	172.298	434.275	1.176613	0.094393	0.094081	441.181	48536.7	0.087576	0.242843	1816.73	89987.2
676	2.000000	1.178960	7.37167e+06	-43289.1	1005.82	-29779.6	0.000000	0.000000	7.198292	456.987	NaN	0.000000	0.001710	0.001717	28.0835	93.0657	0.001755	53014.6	3.144588	173.864	453.276	1.178625	0.096428	0.096093	456.987	53014.6	0.089963	0.254645	1794.6	95984.5
676	2.000000	1.180917	7.37167e+06	-43289.1	1005.82	-29779.6	0.000000	0.000000	7.200740	468.949	NaN	0.000000	0.001698	0.001768	28.0833	94.9377	0.001723	55098.6	2.965006	173.332	463.599	1.180689	0.098385	0.098157	468.949	55098.6	0.092002	0.264930	1770.08	97802.1
676	2.000000	1.182965	7.37167e+06	-43289.1	1005.82	-29779.6	0.000000	0.000000	7.203581	488.23	NaN	0.000000	0.001759	0.001744	28.0835	98.0719	0.001888	51941.9	4.851087	172.371	484.642	1.182793	0.100433	0.100261	488.23	51941.9	0.093383	0.272010	1794.9	90991.1
676	2.000000	1.184943	7.37167e+06	-43289.1	1005.82	-29779.6	0.000000	0.000000	7.206116	501.768	NaN	0.000000	0.001711	0.001748	28.0835	98.5832	0.001768	55753	2.764049	174.147	496.018	1.184628	0.102411	0.102096	501.768	55753	0.095661	0.283872	1767.59	95605
676	2.000000	1.186986	7.37167e+06	-43289.1	1005.82	-29779.6	0.000000	0.000000	7.208926	520.432	NaN	0.000000	0.001712	0.001744	28.0836	101.575	0.001732	58656.2	3.629065	172.685	518.519	1.186747	0.104455	0.104215	520.432	58656.2	0.097800	0.295225	1762.84	98630.5