File: remote_trans/data/nanoindenter/0828-1/data/Data_2025-08-06,11h17m57s/2025-07-22_16-23-58_1_351.txt
2025-07-22, 16:23:58, 1
Index	Phase	Displacement	Time	Pos X	Pos Y	Pos Z	Rot A	Rot B	Piezo Z	Force A	Force B	Gripper	Voltage A	Voltage B	Temperature	Amplitude force	Amplitude pos	Stiffness	Phase shift	Phase excitation	Force A raw	Displacement raw	HMax	HMax raw	Real Force	Real Stiffness	Contact Depth	Area	Hardness	Reduced Mod.
[#]	[#]	[um]	[s]	[um]	[um]	[um]	[m°]	[m°]	[um]	[uN]	[uN]	[V]	[V]	[V]	[°C]	[uN]	[um]	[N/m]	[°]	[°]	[uN]	[um]	[um]	[um]	[uN]	[N/m]	[um]	[um^2]	[MPa]	[MPa]
351	1.000000	0.002159	7.36849e+06	-56189.1	955.818	-29739.9	0.000000	0.000000	6.002818	-0.024981	NaN	0.000000	0.001611	0.001806	28.0811	0.061715	0.001046	59.0143	79.9093	-168.987	-0.088962	0.000854	-1.148687	-1.149992	-0.024981	59.0143	-1.148369	-2.233348E+15	1.118525E-17	NaN
351	1.000000	0.012190	7.36849e+06	-56189.1	955.82	-29739.9	0.000000	0.000000	6.012848	-0.056022	NaN	0.000000	0.001625	0.001773	28.0811	0.055050	0.001205	45.6816	9.708951	19.2106	-0.087724	0.010760	-1.138656	-1.140085	-0.056022	45.6816	-1.137736	-1.608329E+15	3.483259E-17	NaN
351	1.000000	0.022096	7.36849e+06	-56189.1	955.819	-29739.9	0.000000	0.000000	6.022759	0.070159	NaN	0.000000	0.001629	0.001791	28.0811	0.072587	0.001617	44.8886	-8.760642	-165.594	0.020995	0.020724	-1.128750	-1.130121	0.070159	44.8886	-1.129922	-1.263508E+15	-5.552706E-17	NaN
351	1.000000	0.032102	7.36849e+06	-56189.1	955.819	-29739.9	0.000000	0.000000	6.032760	-0.050585	NaN	0.000000	0.001594	0.001772	28.081	0.022035	0.001911	11.5294	-67.8186	18.311	0.015024	0.030746	-1.118744	-1.120099	-0.050585	11.5294	-1.115454	-8.081089E+14	6.259688E-17	NaN
351	1.000000	0.042102	7.36849e+06	-56189.1	955.818	-29739.9	0.000000	0.000000	6.042761	-0.029753	NaN	0.000000	0.001548	0.001792	28.0817	0.074440	0.001953	38.1203	54.8901	-163.545	-0.070999	0.040766	-1.108744	-1.110079	-0.029753	38.1203	-1.108158	-6.450162E+14	4.612777E-17	NaN
351	1.000000	0.052125	7.36849e+06	-56189.1	955.82	-29739.9	0.000000	0.000000	6.052787	0.040722	NaN	0.000000	0.001570	0.001782	28.0809	0.070201	0.001884	37.2595	-140.101	14.0853	0.025342	0.050728	-1.098720	-1.100118	0.040722	37.2595	-1.099540	-4.941907E+14	-8.240167E-17	NaN
351	1.000000	0.062095	7.36849e+06	-56189.1	955.82	-29739.9	0.000000	0.000000	6.062757	0.034740	NaN	0.000000	0.001573	0.001793	28.0814	0.069373	0.002073	33.459	108.918	-167.476	-0.006852	0.060773	-1.088750	-1.090073	0.034740	33.459	-1.089529	-3.626502E+14	-9.579415E-17	NaN
351	1.000000	0.072091	7.36849e+06	-56189.1	955.819	-29739.9	0.000000	0.000000	6.072755	0.095480	NaN	0.000000	0.001578	0.001790	28.081	0.120764	0.001970	61.3079	-96.1646	15.6094	-0.026975	0.070729	-1.078755	-1.080116	0.095480	61.3079	-1.079923	-2.694542E+14	-3.543470E-16	NaN
351	1.000000	0.082092	7.36849e+06	-56189.1	955.818	-29739.9	0.000000	0.000000	6.082752	-0.010285	NaN	0.000000	0.001588	0.001793	28.0815	0.021111	0.002014	10.4811	-62.532	-165.355	0.066262	0.080756	-1.068754	-1.070089	-0.010285	10.4811	-1.068018	-1.864477E+14	5.516123E-17	NaN
351	1.000000	0.092103	7.36849e+06	-56189.1	955.819	-29739.9	0.000000	0.000000	6.092762	-0.034327	NaN	0.000000	0.001562	0.001750	28.0811	0.066368	0.002076	31.9728	-68.5823	13.3721	-0.013769	0.090702	-1.058743	-1.060143	-0.034327	31.9728	-1.057937	-1.364900E+14	2.514995E-16	NaN
351	1.000000	0.102105	7.36849e+06	-56189.1	955.819	-29739.9	0.000000	0.000000	6.102764	-0.029921	NaN	0.000000	0.001549	0.001739	28.081	0.073439	0.002013	36.4837	-149.731	-169.438	-0.031559	0.100817	-1.048741	-1.050029	-0.029921	36.4837	-1.048125	-1.007428E+14	2.969995E-16	NaN
351	1.000000	0.112131	7.36849e+06	-56189.1	955.818	-29739.9	0.000000	0.000000	6.112791	-0.006933	NaN	0.000000	0.001523	0.001787	28.081	0.036947	0.002012	18.3646	-23.9325	16.3849	0.004019	0.110717	-1.038714	-1.040129	-0.006933	18.3646	-1.038431	-7.462289E+13	9.290182E-17	NaN
351	1.000000	0.122128	7.36849e+06	-56189.1	955.819	-29739.9	0.000000	0.000000	6.122790	0.031509	NaN	0.000000	0.001553	0.001760	28.0812	0.163667	0.002036	80.3819	169.338	-163.668	0.034741	0.120799	-1.028718	-1.030047	0.031509	80.3819	-1.029012	-5.574283E+13	-5.652562E-16	NaN
351	1.000000	0.132110	7.36849e+06	-56189.1	955.819	-29739.9	0.000000	0.000000	6.132771	0.000478	NaN	0.000000	0.001509	0.001782	28.0804	0.039111	0.001874	20.8674	-161.053	13.9265	-0.007217	0.130756	-1.018736	-1.020089	0.000478	20.8674	-1.018753	-4.056680E+13	-1.178266E-17	NaN
351	1.000000	0.142148	7.36849e+06	-56189.1	955.819	-29739.9	0.000000	0.000000	6.142809	0.012885	NaN	0.000000	0.001556	0.001776	28.08	0.034781	0.001994	17.4463	57.4275	-165.12	0.089572	0.140872	-1.008698	-1.009974	0.012885	17.4463	-1.009252	-3.022141E+13	-4.263633E-16	NaN
351	1.000000	0.152142	7.36849e+06	-56189.1	955.818	-29739.9	0.000000	0.000000	6.152802	-0.006424	NaN	0.000000	0.001542	0.001764	28.0799	0.046968	0.002009	23.3732	-172.797	13.4806	-0.056486	0.150779	-0.998704	-1.000067	-0.006424	23.3732	-0.998498	-2.165442E+13	2.966702E-16	NaN
351	1.000000	0.162122	7.36849e+06	-56189.1	955.819	-29739.9	0.000000	0.000000	6.162782	-0.009939	NaN	0.000000	0.001559	0.001778	28.0799	0.063819	0.001968	32.4312	-146.368	-165.775	0.011371	0.160850	-0.988724	-0.989996	-0.009939	32.4312	-0.988494	-1.587922E+13	6.259288E-16	NaN
351	1.000000	0.172156	7.36849e+06	-56189.1	955.818	-29739.9	0.000000	0.000000	6.172815	-0.031872	NaN	0.000000	0.001541	0.001807	28.0797	0.072998	0.001903	38.3609	117.367	13.1722	-0.040893	0.170779	-0.978690	-0.980067	-0.031872	38.3609	-0.978067	-1.149109E+13	2.773586E-15	NaN
351	1.000000	0.182122	7.36849e+06	-56189.1	955.818	-29739.9	0.000000	0.000000	6.182781	-0.028153	NaN	0.000000	0.001566	0.001791	28.0797	0.080080	0.001973	40.5811	103.604	-163.955	-0.037416	0.180838	-0.968724	-0.970007	-0.028153	40.5811	-0.968204	-8.461569E+12	3.327190E-15	NaN
351	1.000000	0.192123	7.36849e+06	-56189.1	955.818	-29739.9	0.000000	0.000000	6.192784	0.018470	NaN	0.000000	0.001561	0.001791	28.08	0.068261	0.001934	35.301	-125.853	13.6826	0.015209	0.190757	-0.958723	-0.960088	0.018470	35.301	-0.959115	-6.381709E+12	-2.894184E-15	NaN
351	1.000000	0.202148	7.36849e+06	-56189.1	955.818	-29739.9	0.000000	0.000000	6.202811	0.057332	NaN	0.000000	0.001543	0.001814	28.0796	0.052885	0.002129	24.8366	30.7793	-165.14	0.061113	0.200823	-0.948698	-0.950023	0.057332	24.8366	-0.950429	-4.873162E+12	-1.176488E-14	NaN
351	1.000000	0.212096	7.36849e+06	-56189.1	955.819	-29739.9	0.000000	0.000000	6.212754	-0.069179	NaN	0.000000	0.001547	0.001827	28.0797	0.046509	0.002029	22.9236	27.7591	14.1372	-0.006582	0.210741	-0.938750	-0.940105	-0.069179	22.9236	-0.936486	-3.160298E+12	2.188990E-14	NaN
351	1.000000	0.222142	7.36849e+06	-56189.1	955.818	-29739.9	0.000000	0.000000	6.222804	0.049232	NaN	0.000000	0.001543	0.001813	28.0798	0.085190	0.002013	42.3228	66.5143	-166.779	0.007917	0.220876	-0.928704	-0.929970	0.049232	42.3228	-0.929576	-2.549649E+12	-1.930934E-14	NaN
351	1.000000	0.232158	7.36849e+06	-56189.1	955.819	-29739.9	0.000000	0.000000	6.232818	-0.016629	NaN	0.000000	0.001575	0.001836	28.0798	0.033943	0.001931	17.5737	-166.391	14.4425	0.025304	0.230780	-0.918688	-0.920066	-0.016629	17.5737	-0.917978	-1.777884E+12	9.352975E-15	NaN
351	1.000000	0.242159	7.36849e+06	-56189.1	955.82	-29739.9	0.000000	0.000000	6.242819	-0.002227	NaN	0.000000	0.001528	0.001837	28.0792	0.053670	0.002034	26.3813	-54.4043	-165.713	0.018130	0.240894	-0.908687	-0.909952	-0.002227	26.3813	-0.908624	-1.329145E+12	1.675184E-15	NaN
351	1.000000	0.252182	7.36849e+06	-56189.1	955.819	-29739.9	0.000000	0.000000	6.252841	-0.031597	NaN	0.000000	0.001544	0.001839	28.0795	0.119436	0.001954	61.1223	-123.616	14.4915	-0.055729	0.250842	-0.898664	-0.900004	-0.031597	61.1223	-0.898276	-9.633187E+11	3.280050E-14	NaN
351	1.000000	0.262169	7.36849e+06	-56189.1	955.82	-29739.9	0.000000	0.000000	6.262828	-0.025980	NaN	0.000000	0.001554	0.001803	28.0796	0.071670	0.002121	33.797	151.782	-167.517	-0.014395	0.260833	-0.888677	-0.890013	-0.025980	33.797	-0.888100	-7.018273E+11	3.701730E-14	NaN
351	1.000000	0.272189	7.36849e+06	-56189.1	955.817	-29739.9	0.000000	0.000000	6.272851	0.020926	NaN	0.000000	0.001589	0.001784	28.0809	0.122625	0.002058	59.58	-66.496	13.4317	0.082761	0.270815	-0.878656	-0.880031	0.020926	59.58	-0.878920	-5.273518E+11	-3.968059E-14	NaN
351	1.000000	0.282197	7.36849e+06	-56189.1	955.818	-29739.9	0.000000	0.000000	6.282861	0.082366	NaN	0.000000	0.001554	0.001830	28.0804	0.115934	0.001933	59.9801	107.853	-164.018	0.067624	0.280858	-0.868648	-0.869988	0.082366	59.9801	-0.869678	-3.954488E+11	-2.082861E-13	NaN
351	1.000000	0.292202	7.36849e+06	-56189.1	955.819	-29739.9	0.000000	0.000000	6.292862	-0.026527	NaN	0.000000	0.001537	0.001781	28.0809	0.044979	0.001947	23.1056	24.9734	13.5456	0.047622	0.290813	-0.858643	-0.860033	-0.026527	23.1056	-0.857782	-2.729620E+11	9.718283E-14	NaN
351	1.000000	0.302176	7.36849e+06	-56189.1	955.82	-29739.9	0.000000	0.000000	6.302836	-0.021919	NaN	0.000000	0.001514	0.001727	28.0808	0.036929	0.002070	17.8365	135.5	-166.794	-0.020544	0.300847	-0.848670	-0.849999	-0.021919	17.8365	-0.847748	-1.996370E+11	1.097930E-13	NaN
351	1.000000	0.312187	7.36849e+06	-56189.1	955.818	-29739.9	0.000000	0.000000	6.312845	-0.051073	NaN	0.000000	0.001502	0.001767	28.0807	0.056343	0.002022	27.8651	15.9727	14.862	0.013852	0.310804	-0.838659	-0.840042	-0.051073	27.8651	-0.837284	-1.440455E+11	3.545617E-13	NaN
351	1.000000	0.322180	7.36849e+06	-56189.1	955.819	-29739.9	0.000000	0.000000	6.322843	0.064605	NaN	0.000000	0.001524	0.001740	28.0807	0.011668	0.002040	5.720890	51.6304	-163.854	0.024211	0.320950	-0.828666	-0.829895	0.064605	5.720890	-0.837136	-1.433786E+11	-4.505934E-13	NaN
351	1.000000	0.332206	7.36849e+06	-56189.1	955.819	-29739.9	0.000000	0.000000	6.332865	-0.050106	NaN	0.000000	0.001545	0.001707	28.081	0.131049	0.001957	66.969	-99.2618	13.2148	-0.091561	0.330802	-0.818639	-0.820043	-0.050106	66.969	-0.818078	-7.909477E+10	6.334954E-13	NaN
351	1.000000	0.342230	7.36849e+06	-56189.1	955.818	-29739.9	0.000000	0.000000	6.342889	-0.025028	NaN	0.000000	0.001520	0.001762	28.0807	0.084632	0.001938	43.6625	179.063	-166.123	-0.006806	0.340860	-0.808616	-0.809985	-0.025028	43.6625	-0.808186	-5.807062E+10	4.309841E-13	NaN
351	1.000000	0.352246	7.36849e+06	-56189.1	955.819	-29739.9	0.000000	0.000000	6.352909	0.057267	NaN	0.000000	0.001644	0.001730	28.0809	0.056713	0.002038	27.8334	-52.6622	13.3699	0.021979	0.350855	-0.798599	-0.799991	0.057267	27.8334	-0.800143	-4.516458E+10	-1.267968E-12	NaN
351	1.000000	0.362219	7.36849e+06	-56189.1	955.818	-29739.9	0.000000	0.000000	6.362883	0.088059	NaN	0.000000	0.001628	0.001721	28.0806	0.053941	0.002064	26.1333	55.2491	-165.319	0.109933	0.360862	-0.788627	-0.789984	0.088059	26.1333	-0.791154	-3.410044E+10	-2.582350E-12	NaN
351	1.000000	0.372235	7.36849e+06	-56189.1	955.818	-29739.9	0.000000	0.000000	6.372895	-0.005187	NaN	0.000000	0.001608	0.001723	28.081	0.075963	0.001930	39.3584	87.7967	15.4555	0.108048	0.370849	-0.778611	-0.779997	-0.005187	39.3584	-0.778512	-2.296182E+10	2.258831E-13	NaN
351	1.000000	0.382220	7.36849e+06	-56189.1	955.818	-29739.8	0.000000	0.000000	6.382881	0.008948	NaN	0.000000	0.001614	0.001752	28.0808	0.101998	0.002095	48.6955	-61.8342	-165.533	0.088184	0.380942	-0.768626	-0.769904	0.008948	48.6955	-0.768764	-1.692372E+10	-5.287026E-13	NaN
351	1.000000	0.392220	7.3685e+06	-56189.1	955.818	-29739.9	0.000000	0.000000	6.392879	-0.033787	NaN	0.000000	0.001624	0.001702	28.081	0.039903	0.001937	20.5986	-134.529	12.8404	-0.035412	0.390891	-0.758625	-0.759955	-0.033787	20.5986	-0.757395	-1.185391E+10	2.850305E-12	NaN
351	1.000000	0.402231	7.3685e+06	-56189.1	955.819	-29739.8	0.000000	0.000000	6.402891	-0.013587	NaN	0.000000	0.001605	0.001734	28.0806	0.164038	0.001979	82.8776	75.3314	-166.464	0.056776	0.400893	-0.748614	-0.749953	-0.013587	82.8776	-0.748491	-8.967734E+9	1.515106E-12	NaN
351	1.000000	0.412251	7.3685e+06	-56189.1	955.819	-29739.8	0.000000	0.000000	6.412913	0.017689	NaN	0.000000	0.001608	0.001756	28.0799	0.096284	0.002047	47.0305	-59.8674	15.6003	0.081925	0.410892	-0.738594	-0.739954	0.017689	47.0305	-0.738876	-6.633629E+9	-2.666578E-12	NaN
351	1.000000	0.422228	7.3685e+06	-56189.1	955.818	-29739.8	0.000000	0.000000	6.422888	-0.002902	NaN	0.000000	0.001621	0.001757	28.0796	0.047776	0.002089	22.868	-121.124	-163.814	-0.006274	0.420941	-0.728618	-0.729905	-0.002902	22.868	-0.728523	-4.793708E+9	6.053858E-13	NaN
351	1.000000	0.432233	7.3685e+06	-56189.1	955.818	-29739.8	0.000000	0.000000	6.432895	0.034323	NaN	0.000000	0.001588	0.001730	28.0799	0.062683	0.002173	28.8404	116.64	12.3889	0.018492	0.430957	-0.718613	-0.719889	0.034323	28.8404	-0.719505	-3.611832E+9	-9.502797E-12	NaN
351	1.000000	0.442261	7.3685e+06	-56189.1	955.818	-29739.8	0.000000	0.000000	6.442921	-0.016719	NaN	0.000000	0.001611	0.001723	28.0797	0.041039	0.001844	22.2527	-136.309	-167.812	-0.054417	0.440961	-0.708585	-0.709885	-0.016719	22.2527	-0.708021	-2.517932E+9	6.639815E-12	NaN
351	1.000000	0.452267	7.3685e+06	-56189.1	955.818	-29739.8	0.000000	0.000000	6.452928	0.018335	NaN	0.000000	0.001570	0.001743	28.0799	0.093505	0.001769	52.8462	143.782	13.1935	-0.036629	0.450888	-0.698579	-0.699957	0.018335	52.8462	-0.698839	-1.886574E+9	-9.718869E-12	NaN
351	1.000000	0.462262	7.3685e+06	-56189.1	955.818	-29739.8	0.000000	0.000000	6.462925	0.056633	NaN	0.000000	0.001575	0.001716	28.0794	0.018552	0.001980	9.369976	5.249701	-162.44	-0.000618	0.460904	-0.688583	-0.689942	0.056633	9.369976	-0.693116	-1.575801E+9	-3.593926E-11	NaN
351	1.000000	0.472271	7.3685e+06	-56189.1	955.818	-29739.8	0.000000	0.000000	6.472931	0.008316	NaN	0.000000	0.001596	0.001727	28.0795	0.008364	0.001967	4.251926	-118.574	15.8068	-0.037441	0.470931	-0.678575	-0.679915	0.008316	4.251926	-0.680042	-1.044187E+9	-7.963689E-12	NaN
351	1.000000	0.482286	7.3685e+06	-56189.1	955.819	-29739.8	0.000000	0.000000	6.482950	0.091929	NaN	0.000000	0.001602	0.001732	28.0796	0.105717	0.002005	52.7202	-97.8341	-163.289	0.041979	0.480968	-0.668559	-0.669878	0.091929	52.7202	-0.669867	-7.578333E+8	-1.213052E-10	NaN
351	1.000000	0.492262	7.3685e+06	-56189.1	955.818	-29739.8	0.000000	0.000000	6.492923	0.015588	NaN	0.000000	0.001586	0.001735	28.0795	0.031180	0.001889	16.5069	33.1114	12.7229	0.001757	0.490974	-0.658583	-0.659871	0.015588	16.5069	-0.659292	-5.429588E+8	-2.870880E-11	NaN
351	1.000000	0.502318	7.3685e+06	-56189.1	955.818	-29739.8	0.000000	0.000000	6.502979	0.010523	NaN	0.000000	0.001564	0.001727	28.0797	0.083859	0.001975	42.4539	100.105	-165.202	0.014935	0.500942	-0.648528	-0.649903	0.010523	42.4539	-0.648714	-3.888688E+8	-2.705933E-11	NaN
351	1.000000	0.512284	7.3685e+06	-56189.1	955.818	-29739.8	0.000000	0.000000	6.512944	-0.004592	NaN	0.000000	0.001628	0.001735	28.0793	0.085718	0.002034	42.1372	69.6428	14.0437	-0.022183	0.510874	-0.638562	-0.639971	-0.004592	42.1372	-0.638480	-2.814732E+8	1.631411E-11	NaN
351	1.000000	0.522308	7.3685e+06	-56189.1	955.819	-29739.8	0.000000	0.000000	6.522969	0.003102	NaN	0.000000	0.001605	0.001760	28.0798	0.006165	0.002000	3.083085	28.8278	-164.727	0.018872	0.520942	-0.628537	-0.629903	0.003102	3.083085	-0.629292	-2.105233E+8	-1.473662E-11	NaN
351	1.000000	0.532282	7.3685e+06	-56189.1	955.818	-29739.8	0.000000	0.000000	6.532944	0.035456	NaN	0.000000	0.001580	0.001734	28.0793	0.050202	0.002019	24.8674	105.456	11.7722	-0.024177	0.530932	-0.618564	-0.619913	0.035456	24.8674	-0.619633	-1.550930E+8	-2.286086E-10	NaN
351	1.000000	0.542303	7.3685e+06	-56189.1	955.818	-29739.8	0.000000	0.000000	6.542964	0.006131	NaN	0.000000	0.001546	0.001714	28.0803	0.042065	0.001962	21.4439	-109.68	-170.146	-0.017313	0.540967	-0.608543	-0.609878	0.006131	21.4439	-0.608757	-1.099036E+8	-5.578194E-11	NaN
351	1.000000	0.552302	7.3685e+06	-56189.1	955.819	-29739.8	0.000000	0.000000	6.552963	0.014656	NaN	0.000000	0.001536	0.001788	28.0806	0.026017	0.002036	12.7782	130.256	13.7847	0.036862	0.550948	-0.598544	-0.599898	0.014656	12.7782	-0.599404	-8.170572E+7	-1.793796E-10	NaN
351	1.000000	0.562297	7.3685e+06	-56189.1	955.818	-29739.8	0.000000	0.000000	6.562957	0.002871	NaN	0.000000	0.001563	0.001811	28.0805	0.057690	0.001955	29.5034	-50.7815	-166.256	0.078055	0.560971	-0.588549	-0.589875	0.002871	29.5034	-0.588622	-5.803165E+7	-4.947123E-11	NaN
351	1.000000	0.572317	7.3685e+06	-56189.1	955.819	-29739.8	0.000000	0.000000	6.572979	0.052657	NaN	0.000000	0.001561	0.001767	28.0804	0.050632	0.001865	27.1457	-66.4531	14.2337	0.067042	0.570944	-0.578529	-0.579901	0.052657	27.1457	-0.579984	-4.410669E+7	-1.193863E-9	NaN
351	1.000000	0.582280	7.3685e+06	-56189.1	955.818	-29739.8	0.000000	0.000000	6.582941	-0.003523	NaN	0.000000	0.001568	0.001718	28.0806	0.044105	0.001977	22.3043	-65.9417	-165.28	-0.060070	0.580974	-0.568565	-0.569872	-0.003523	22.3043	-0.568447	-3.056111E+7	1.152792E-10	NaN
351	1.000000	0.592343	7.3685e+06	-56189.1	955.818	-29739.8	0.000000	0.000000	6.593002	-0.012821	NaN	0.000000	0.001546	0.001686	28.0808	0.075597	0.001985	38.0903	48.9294	14.0442	-0.036865	0.591004	-0.558503	-0.559841	-0.012821	38.0903	-0.558251	-2.208899E+7	5.804405E-10	NaN
351	1.000000	0.602346	7.3685e+06	-56189.1	955.819	-29739.8	0.000000	0.000000	6.603004	-0.058600	NaN	0.000000	0.001575	0.001705	28.0807	0.059241	0.002005	29.5499	-56.7045	-164.778	-0.083469	0.601010	-0.548500	-0.549836	-0.058600	29.5499	-0.547012	-1.543705E+7	3.796085E-9	NaN
351	1.000000	0.612342	7.3685e+06	-56189.1	955.817	-29739.8	0.000000	0.000000	6.613002	-0.024236	NaN	0.000000	0.001549	0.001741	28.0807	0.050000	0.001968	25.4006	167.508	13.8887	0.013983	0.610940	-0.538503	-0.539906	-0.024236	25.4006	-0.537788	-1.149928E+7	2.107590E-9	NaN
351	1.000000	0.622330	7.3685e+06	-56189.1	955.818	-29739.8	0.000000	0.000000	6.622993	0.063480	NaN	0.000000	0.001547	0.001727	28.0808	0.004280	0.001878	2.278704	157.633	-166.592	0.089369	0.621046	-0.528516	-0.529799	0.063480	2.278704	-0.549409	-1.666377E+7	-3.809482E-9	NaN
351	1.000000	0.632367	7.3685e+06	-56189.1	955.82	-29739.8	0.000000	0.000000	6.633029	0.026846	NaN	0.000000	0.001538	0.001729	28.0809	0.032683	0.002048	15.96	55.3378	15.7811	-0.022527	0.630994	-0.518479	-0.519852	0.026846	15.96	-0.519740	-6.45632e+06	-4.158151E-9	NaN
351	1.000000	0.642345	7.3685e+06	-56189.1	955.817	-29739.8	0.000000	0.000000	6.643005	-0.006828	NaN	0.000000	0.001552	0.001728	28.0808	0.003973	0.002029	1.958356	-29.753	-166.01	0.010781	0.640998	-0.508500	-0.509848	-0.006828	1.958356	-0.505886	-4.14084e+06	1.648864E-9	NaN
351	1.000000	0.652315	7.3685e+06	-56189.1	955.818	-29739.8	0.000000	0.000000	6.652978	0.061513	NaN	0.000000	0.001554	0.001725	28.0806	0.057086	0.001885	30.2916	167.778	12.1315	-0.075933	0.651000	-0.498531	-0.499846	0.061513	30.2916	-0.500054	-3.43375e+06	-1.791425E-8	NaN
351	1.000000	0.662346	7.3685e+06	-56189.1	955.818	-29739.8	0.000000	0.000000	6.663005	-0.044622	NaN	0.000000	0.001574	0.001756	28.0807	0.046796	0.001969	23.7722	-72.5684	-165.067	-0.027814	0.660985	-0.488500	-0.489861	-0.044622	23.7722	-0.487092	-2.2633e+06	1.971528E-8	NaN
351	1.000000	0.672354	7.3685e+06	-56189.1	955.819	-29739.8	0.000000	0.000000	6.673013	-0.037416	NaN	0.000000	0.001549	0.001721	28.0806	0.095743	0.001960	48.8502	-148.972	15.9243	0.013595	0.670961	-0.478492	-0.479885	-0.037416	48.8502	-0.477918	-1.6841e+06	2.221691E-8	NaN
351	1.000000	0.682358	7.3685e+06	-56189.1	955.818	-29739.8	0.000000	0.000000	6.683021	0.050462	NaN	0.000000	0.001561	0.001745	28.0794	0.108521	0.001929	56.2651	121.959	-167.226	0.008263	0.681034	-0.468487	-0.469812	0.050462	56.2651	-0.469160	-1.26948e+06	-3.974981E-8	NaN
351	1.000000	0.692367	7.3685e+06	-56189.1	955.819	-29739.8	0.000000	0.000000	6.693027	-0.006321	NaN	0.000000	0.001563	0.001746	28.0793	0.027917	0.001950	14.3184	-13.366	13.6759	-0.030953	0.691044	-0.458479	-0.459801	-0.006321	14.3184	-0.458148	-889173	7.108518E-9	NaN
351	1.000000	0.702369	7.3685e+06	-56189.1	955.818	-29739.8	0.000000	0.000000	6.703030	0.015201	NaN	0.000000	0.001502	0.001718	28.0797	0.128736	0.001844	69.8011	-105.84	-168.021	0.068612	0.701006	-0.448477	-0.449840	0.015201	69.8011	-0.448640	-653420	-2.326350E-8	NaN
351	1.000000	0.712378	7.3685e+06	-56189.1	955.818	-29739.8	0.000000	0.000000	6.713040	0.040960	NaN	0.000000	0.001529	0.001753	28.0795	0.075926	0.002043	37.1708	-11.1946	13.9332	0.019270	0.710994	-0.438467	-0.439852	0.040960	37.1708	-0.439294	-482387	-8.491194E-8	NaN
351	1.000000	0.722376	7.3685e+06	-56189.1	955.819	-29739.8	0.000000	0.000000	6.723035	-0.016506	NaN	0.000000	0.001528	0.001746	28.0796	0.033239	0.001913	17.3739	110.861	-167.247	-0.077661	0.721079	-0.428470	-0.429767	-0.016506	17.3739	-0.427757	-331381	4.981081E-8	NaN
351	1.000000	0.732363	7.3685e+06	-56189.1	955.819	-29739.8	0.000000	0.000000	6.733024	0.029477	NaN	0.000000	0.001522	0.001723	28.0795	0.115255	0.001847	62.4179	66.3308	12.0658	0.101328	0.730957	-0.418483	-0.419889	0.029477	62.4179	-0.418837	-247698	-1.190044E-7	NaN
351	1.000000	0.742387	7.3685e+06	-56189.1	955.819	-29739.8	0.000000	0.000000	6.743046	-0.018682	NaN	0.000000	0.001570	0.001721	28.0799	0.107728	0.002082	51.7305	-10.897	-167.189	-0.064060	0.741046	-0.408459	-0.409799	-0.018682	51.7305	-0.408188	-174835	1.068538E-7	NaN
351	1.000000	0.752387	7.3685e+06	-56189.1	955.819	-29739.8	0.000000	0.000000	6.753048	0.020442	NaN	0.000000	0.001600	0.001724	28.0795	0.132503	0.002001	66.2201	148.82	14.6054	0.007666	0.751021	-0.398459	-0.399825	0.020442	66.2201	-0.398691	-128031	-1.596617E-7	NaN
351	1.000000	0.762387	7.3685e+06	-56189.1	955.819	-29739.8	0.000000	0.000000	6.763049	0.036931	NaN	0.000000	0.001573	0.001741	28.0796	0.013393	0.002024	6.615221	-15.1551	-166.066	-0.020378	0.761049	-0.388459	-0.389797	0.036931	6.615221	-0.392646	-104955	-3.518782E-7	NaN
351	1.000000	0.772395	7.3685e+06	-56189.1	955.82	-29739.8	0.000000	0.000000	6.773055	-0.019087	NaN	0.000000	0.001574	0.001679	28.0797	0.097824	0.001981	49.3742	-52.9529	13.5776	0.017066	0.771037	-0.378451	-0.379809	-0.019087	49.3742	-0.378161	-65085.5	2.932549E-7	NaN
351	1.000000	0.782402	7.3685e+06	-56189.1	955.819	-29739.8	0.000000	0.000000	6.783061	-0.016609	NaN	0.000000	0.001594	0.001704	28.0796	0.073323	0.002014	36.4113	49.6896	-165.634	-0.035441	0.781093	-0.368444	-0.369753	-0.016609	36.4113	-0.368102	-46642.8	3.560959E-7	NaN
351	1.000000	0.792388	7.3685e+06	-56189.1	955.819	-29739.8	0.000000	0.000000	6.793048	-0.008483	NaN	0.000000	0.001589	0.001708	28.0795	0.100286	0.001938	51.7416	84.1712	10.7879	-0.039082	0.790991	-0.358457	-0.359855	-0.008483	51.7416	-0.358334	-33710.2	2.516504E-7	NaN
351	1.000000	0.802402	7.3685e+06	-56189.1	955.818	-29739.8	0.000000	0.000000	6.803062	-0.005368	NaN	0.000000	0.001532	0.001702	28.0795	0.020451	0.001949	10.494	-101.47	-165.474	0.029065	0.801074	-0.348444	-0.349771	-0.005368	10.494	-0.348060	-23924	2.243820E-7	NaN
351	1.000000	0.812406	7.3685e+06	-56189.1	955.819	-29739.8	0.000000	0.000000	6.813065	-0.020707	NaN	0.000000	0.001546	0.001736	28.0795	0.057101	0.002012	28.3829	14.7162	14.6439	-0.020199	0.811047	-0.338440	-0.339799	-0.020707	28.3829	-0.337893	-17014.6	1.217019E-6	NaN
351	1.000000	0.822417	7.3685e+06	-56189.1	955.819	-29739.8	0.000000	0.000000	6.823077	-0.008295	NaN	0.000000	0.001554	0.001759	28.0805	0.123933	0.002020	61.362	-129.841	-165.623	-0.005598	0.821064	-0.328429	-0.329782	-0.008295	61.362	-0.328328	-12329.7	6.728030E-7	NaN
351	1.000000	0.832420	7.3685e+06	-56189.1	955.818	-29739.8	0.000000	0.000000	6.833082	0.038375	NaN	0.000000	0.001571	0.001721	28.0805	0.060642	0.002112	28.7126	-60.4332	15.6967	0.021400	0.831065	-0.318426	-0.319781	0.038375	28.7126	-0.319428	-9124.67	-4.205617E-6	NaN
351	1.000000	0.842413	7.3685e+06	-56189.1	955.818	-29739.8	0.000000	0.000000	6.843073	-0.004738	NaN	0.000000	0.001574	0.001705	28.0805	0.055647	0.002001	27.8074	32.081	-163.197	0.005131	0.841129	-0.308433	-0.309717	-0.004738	27.8074	-0.308305	-6251.08	7.579538E-7	NaN
351	1.000000	0.852430	7.3685e+06	-56189.1	955.818	-29739.8	0.000000	0.000000	6.853090	-0.005015	NaN	0.000000	0.001530	0.001718	28.0808	0.063739	0.001947	32.734	-168.108	13.8992	-0.023232	0.851080	-0.298416	-0.299765	-0.005015	32.734	-0.298301	-4439.45	1.129735E-6	NaN
351	1.000000	0.862437	7.3685e+06	-56189.1	955.818	-29739.8	0.000000	0.000000	6.863097	-0.020046	NaN	0.000000	0.001523	0.001736	28.0805	0.031101	0.002046	15.1981	-126.566	-163.989	-0.049465	0.861116	-0.288409	-0.289730	-0.020046	15.1981	-0.287419	-3052.15	6.567854E-6	NaN
351	1.000000	0.872437	7.3685e+06	-56189.1	955.818	-29739.8	0.000000	0.000000	6.873096	-0.045237	NaN	0.000000	0.001594	0.001732	28.0807	0.067148	0.001975	33.9965	18.9081	13.9759	0.016458	0.871099	-0.278408	-0.279747	-0.045237	33.9965	-0.277410	-2157.07	2.097159E-5	NaN
351	1.000000	0.882426	7.3685e+06	-56189.1	955.818	-29739.8	0.000000	0.000000	6.883087	0.005812	NaN	0.000000	0.001648	0.001727	28.0806	0.050001	0.002025	24.6926	74.0449	-165.641	-0.058621	0.881140	-0.268419	-0.269706	0.005812	24.6926	-0.268596	-1585.58	-3.665273E-6	NaN
351	1.000000	0.892450	7.3685e+06	-56189.1	955.819	-29739.8	0.000000	0.000000	6.893108	-0.069705	NaN	0.000000	0.001622	0.001716	28.0808	0.026647	0.001927	13.8246	147.952	12.5614	-0.072286	0.891085	-0.258396	-0.259761	-0.069705	13.8246	-0.254614	-968.663	7.195996E-5	NaN
351	1.000000	0.902445	7.3685e+06	-56189.1	955.819	-29739.8	0.000000	0.000000	6.903106	0.007575	NaN	0.000000	0.001637	0.001701	28.0805	0.029416	0.002054	14.3229	-126.898	-163.108	-0.052727	0.901090	-0.248400	-0.249755	0.007575	14.3229	-0.248797	-787.683	-9.617030E-6	NaN
351	1.000000	0.912470	7.3685e+06	-56189.1	955.819	-29739.8	0.000000	0.000000	6.913132	0.026370	NaN	0.000000	0.001623	0.001738	28.0806	0.141032	0.002035	69.2935	-118.996	13.9499	0.080204	0.911070	-0.238376	-0.239775	0.026370	69.2935	-0.238661	-547.801	-4.813706E-5	NaN
351	1.000000	0.922431	7.3685e+06	-56189.1	955.819	-29739.8	0.000000	0.000000	6.923092	0.018969	NaN	0.000000	0.001594	0.001703	28.0808	0.095433	0.002100	45.449	-120.759	-168.35	0.025366	0.921161	-0.228415	-0.229685	0.018969	45.449	-0.228728	-382.309	-4.961597E-5	NaN
351	1.000000	0.932461	7.3685e+06	-56189.1	955.819	-29739.8	0.000000	0.000000	6.933122	0.009636	NaN	0.000000	0.001602	0.001711	28.0816	0.083864	0.002007	41.7925	-32.4456	16.4791	-0.045045	0.931104	-0.218385	-0.219742	0.009636	41.7925	-0.218558	-263.396	-3.658315E-5	NaN
351	1.000000	0.942479	7.3685e+06	-56189.1	955.819	-29739.8	0.000000	0.000000	6.943141	0.051129	NaN	0.000000	0.001632	0.001691	28.0806	0.044861	0.001909	23.4961	-133.441	-162.556	0.073655	0.941152	-0.208367	-0.209694	0.051129	23.4961	-0.209999	-191.778	-0.000267	NaN
351	1.000000	0.952460	7.3685e+06	-56189.1	955.819	-29739.8	0.000000	0.000000	6.953118	-0.066329	NaN	0.000000	0.001609	0.001709	28.0799	0.040530	0.002014	20.1213	5.360015	10.5148	-0.133796	0.951128	-0.198386	-0.199717	-0.066329	20.1213	-0.195913	-112.804	0.000588	NaN
351	1.000000	0.962482	7.3685e+06	-56189.1	955.819	-29739.8	0.000000	0.000000	6.963142	-0.004918	NaN	0.000000	0.001649	0.001697	28.0794	0.066680	0.002000	33.3366	174.665	-164.366	0.039051	0.961186	-0.188364	-0.189660	-0.004918	33.3366	-0.188253	-84.101	5.847514E-5	NaN
351	1.000000	0.972478	7.3685e+06	-56189.1	955.819	-29739.8	0.000000	0.000000	6.973139	0.025192	NaN	0.000000	0.001610	0.001747	28.0793	0.052509	0.002141	24.5306	-101.182	15.1736	0.046646	0.971106	-0.178368	-0.179740	0.025192	24.5306	-0.179138	-58.9919	-0.000427	NaN
351	1.000000	0.982473	7.3685e+06	-56189.1	955.819	-29739.8	0.000000	0.000000	6.983135	0.044038	NaN	0.000000	0.001640	0.001708	28.0793	0.116835	0.002082	56.1199	54.7931	-165.351	-0.044777	0.981157	-0.168373	-0.169689	0.044038	56.1199	-0.168962	-39.4058	-0.001118	NaN
351	1.000000	0.992489	7.3685e+06	-56189.1	955.819	-29739.8	0.000000	0.000000	6.993152	0.066552	NaN	0.000000	0.001582	0.001665	28.0795	0.096937	0.001967	49.2727	49.7808	14.8693	0.029629	0.991125	-0.158357	-0.159721	0.066552	49.2727	-0.159370	-26.7166	-0.002491	NaN
351	1.000000	1.002501	7.3685e+06	-56189.1	955.82	-29739.8	0.000000	0.000000	7.003161	-0.010663	NaN	0.000000	0.001573	0.001681	28.0796	0.053133	0.001898	27.9999	-142.96	-164.763	-0.011059	1.001198	-0.148345	-0.149648	-0.010663	27.9999	-0.148059	-16.6922	0.000639	NaN
351	1.000000	1.012487	7.3685e+06	-56189.1	955.819	-29739.8	0.000000	0.000000	7.013147	0.001566	NaN	0.000000	0.001528	0.001686	28.0794	0.015925	0.002079	7.659579	-50.5201	11.3744	0.100097	1.011145	-0.138359	-0.139701	0.001566	7.659579	-0.138512	-11.0905	-0.000141	NaN
351	1.000000	1.022514	7.3685e+06	-56189.1	955.82	-29739.8	0.000000	0.000000	7.023176	0.033005	NaN	0.000000	0.001530	0.001736	28.0793	0.028478	0.002184	13.0408	162.403	-162.864	-0.006431	1.021188	-0.128332	-0.129658	0.033005	13.0408	-0.130230	-7.699786	-0.004287	NaN
351	1.000000	1.032466	7.3685e+06	-56189.1	955.821	-29739.8	0.000000	0.000000	7.033126	-0.015617	NaN	0.000000	0.001543	0.001739	28.0796	0.100083	0.001827	54.7791	-65.8595	15.0153	-0.030543	1.031131	-0.118379	-0.119714	-0.015617	54.7791	-0.118166	-4.435266	0.003521	NaN
351	1.000000	1.042524	7.3685e+06	-56189.1	955.82	-29739.8	0.000000	0.000000	7.043184	-0.030386	NaN	0.000000	0.001520	0.001737	28.0795	0.051660	0.002074	24.9133	69.5095	-170.796	0.012505	1.041168	-0.108321	-0.109678	-0.030386	24.9133	-0.107407	-2.647590	0.011477	NaN
351	1.000000	1.052493	7.3685e+06	-56189.1	955.821	-29739.8	0.000000	0.000000	7.053153	-0.028156	NaN	0.000000	0.001523	0.001728	28.0796	0.090184	0.002115	42.637	-156.392	11.3012	-0.037928	1.051139	-0.098352	-0.099706	-0.028156	42.637	-0.097857	-1.636802	0.017202	NaN
351	1.000000	1.062485	7.3685e+06	-56189.1	955.82	-29739.8	0.000000	0.000000	7.063143	-0.043766	NaN	0.000000	0.001521	0.001737	28.0794	0.096049	0.001934	49.6551	-0.794053	-162.847	0.048906	1.061218	-0.088361	-0.089627	-0.043766	49.6551	-0.087700	-0.953838	0.045884	NaN
351	1.000000	1.072507	7.3685e+06	-56189.1	955.821	-29739.8	0.000000	0.000000	7.073168	0.023596	NaN	0.000000	0.001534	0.001720	28.0796	0.108012	0.001917	56.3588	-124.463	18.0582	0.043992	1.071148	-0.078339	-0.079698	0.023596	56.3588	-0.078653	-0.572605	-0.041209	NaN
351	1.000000	1.082533	7.3685e+06	-56189.1	955.821	-29739.8	0.000000	0.000000	7.083193	0.007750	NaN	0.000000	0.001496	0.001775	28.0794	0.019255	0.001919	10.0321	25.6152	-167.658	0.060138	1.081243	-0.068313	-0.069603	0.007750	10.0321	-0.068892	-0.318494	-0.024332	NaN
351	1.000000	1.092502	7.3685e+06	-56189.1	955.821	-29739.8	0.000000	0.000000	7.093163	0.012452	NaN	0.000000	0.001518	0.001751	28.0807	0.068776	0.002006	34.2827	95.1075	13.1548	-0.004688	1.091145	-0.058344	-0.059701	0.012452	34.2827	-0.058616	-0.164296	-0.075787	NaN
351	1.000000	1.102505	7.3685e+06	-56189.1	955.82	-29739.8	0.000000	0.000000	7.103168	0.067769	NaN	0.000000	0.001472	0.001730	28.0807	0.091164	0.002000	45.5896	-56.1049	-165.545	0.024021	1.101217	-0.048341	-0.049628	0.067769	45.5896	-0.049456	-0.087853	-0.771398	NaN
351	1.000000	1.112520	7.3685e+06	-56189.1	955.821	-29739.8	0.000000	0.000000	7.113179	-0.031035	NaN	0.000000	0.001528	0.001745	28.081	0.117786	0.001991	59.1719	108.758	15.7693	0.025224	1.111142	-0.038325	-0.039704	-0.031035	59.1719	-0.037932	-0.039158	0.792562	NaN
351	1.000000	1.122529	7.3685e+06	-56189.1	955.821	-29739.8	0.000000	0.000000	7.123190	0.031941	NaN	0.000000	0.001506	0.001708	28.0809	0.139465	0.001971	70.7619	68.1356	-167.732	0.042368	1.121231	-0.028317	-0.029615	0.031941	70.7619	-0.028655	-0.021127	-1.511888	NaN
351	1.000000	1.132563	7.3685e+06	-56189.1	955.82	-29739.8	0.000000	0.000000	7.133223	-0.012550	NaN	0.000000	0.001541	0.001733	28.0807	0.075195	0.002195	34.2573	161.741	13.0552	-0.011229	1.131190	-0.018283	-0.019656	-0.012550	34.2573	-0.018008	-0.011168	1.123730	NaN
351	1.000000	1.142554	7.3685e+06	-56189.1	955.821	-29739.8	0.000000	0.000000	7.143215	0.012495	NaN	0.000000	0.001523	0.001727	28.081	0.027636	0.002035	13.5819	124.979	-167.97	-0.006470	1.141195	-0.008291	-0.009651	0.012495	13.5819	-0.008981	-0.005802	-2.153468	NaN
351	1.000000	1.152553	7.3685e+06	-56189.1	955.822	-29739.8	0.000000	0.000000	7.153256	1.037580	NaN	0.000000	0.001514	0.001770	28.081	1.601297	0.001970	812.791	7.480055	15.6501	0.282210	1.151150	0.001708	0.000304	1.037580	812.791	0.000750	0.000569	1823.76	31133.3
351	2.000000	1.160185	7.3685e+06	-56189.1	955.82	-29739.8	0.000000	0.000000	7.161202	8.649724	NaN	0.000000	0.001515	0.001773	28.0808	9.315533	0.001712	5440.86	10.3138	-175.574	8.175085	1.159879	0.009340	0.009033	8.649724	5440.86	0.008147	0.007194	1202.31	58606.9
351	2.000000	1.162726	7.3685e+06	-56189.1	955.821	-29739.8	0.000000	0.000000	7.163867	11.6826	NaN	0.000000	0.001524	0.001750	28.0807	11.3816	0.001599	7116.06	11.9279	2.680772	13.0209	1.162354	0.011880	0.011509	11.6826	7116.06	0.010649	0.009911	1178.72	65305.4
351	2.000000	1.165169	7.3685e+06	-56189.1	955.821	-29739.8	0.000000	0.000000	7.166415	14.2351	NaN	0.000000	0.001548	0.001752	28.0809	13.838	0.001752	7896.37	8.698734	-175.161	15.4971	1.164849	0.014323	0.014003	14.2351	7896.37	0.012971	0.012675	1123.12	64081.8
351	2.000000	1.167639	7.3685e+06	-56189.1	955.821	-29739.8	0.000000	0.000000	7.169024	17.6209	NaN	0.000000	0.001514	0.001742	28.0808	16.1625	0.001821	8878	3.877278	6.891211	16.7953	1.167337	0.016793	0.016491	17.6209	8878	0.015304	0.015693	1122.83	64748.6
351	2.000000	1.170093	7.3685e+06	-56189.1	955.821	-29739.8	0.000000	0.000000	7.171668	22.2195	NaN	0.000000	0.001555	0.001784	28.0809	18.9947	0.001763	10775.9	7.172064	-176.892	21.8431	1.169803	0.019248	0.018957	22.2195	10775.9	0.017701	0.019058	1165.9	71316.4
351	2.000000	1.172609	7.3685e+06	-56189.1	955.821	-29739.8	0.000000	0.000000	7.174346	26.1746	NaN	0.000000	0.001517	0.001758	28.0809	20.7545	0.001706	12165.7	4.455043	3.498974	24.72	1.172350	0.021764	0.021504	26.1746	12165.7	0.020150	0.022778	1149.09	73646
351	2.000000	1.175119	7.3685e+06	-56189.1	955.821	-29739.8	0.000000	0.000000	7.177123	32.6655	NaN	0.000000	0.001495	0.001741	28.0809	23.944	0.001844	12987.5	6.630033	-178.935	33.2253	1.174724	0.024273	0.023878	32.6655	12987.5	0.022386	0.026432	1235.83	72984.8
351	2.000000	1.177575	7.3685e+06	-56189.1	955.821	-29739.8	0.000000	0.000000	7.179829	38.719	NaN	0.000000	0.001518	0.001712	28.0795	27.0013	0.001847	14621	3.192792	2.738230	37.1792	1.177241	0.026730	0.026396	38.719	14621	0.024744	0.030551	1267.37	76425.7
351	2.000000	1.180042	7.3685e+06	-56189.1	955.822	-29739.8	0.000000	0.000000	7.182523	44.2609	NaN	0.000000	0.001483	0.001752	28.0796	29.2557	0.001805	16206.3	2.054568	-177.066	42.0331	1.179755	0.029196	0.028909	44.2609	16206.3	0.027148	0.035039	1263.19	79101.1
351	2.000000	1.182660	7.3685e+06	-56189.1	955.82	-29739.8	0.000000	0.000000	7.185277	47.5504	NaN	0.000000	0.001508	0.001732	28.0797	31.5624	0.001898	16631.7	7.308281	-1.733276	48.0694	1.182245	0.031814	0.031399	47.5504	16631.7	0.029670	0.040063	1186.89	75917.1
351	2.000000	1.185102	7.3685e+06	-56189.1	955.822	-29739.8	0.000000	0.000000	7.188028	55.0631	NaN	0.000000	0.001492	0.001711	28.0797	32.9433	0.001751	18818.7	3.623400	179.062	54.4986	1.184724	0.034256	0.033878	55.0631	18818.7	0.032062	0.045126	1220.21	80937.8
351	2.000000	1.187603	7.3685e+06	-56189.1	955.822	-29739.8	0.000000	0.000000	7.190829	62.3559	NaN	0.000000	0.001486	0.001694	28.0796	36.6874	0.001753	20932.6	8.774841	-5.394973	64.3736	1.187213	0.036757	0.036367	62.3559	20932.6	0.034523	0.050641	1231.33	84985.5
351	2.000000	1.190042	7.3685e+06	-56189.1	955.821	-29739.8	0.000000	0.000000	7.193740	73.849	NaN	0.000000	0.001499	0.001713	28.0795	39.4849	0.001842	21435	4.777889	178.361	71.9885	1.189683	0.039196	0.038837	73.849	21435	0.036612	0.055566	1329.03	83079.1
351	2.000000	1.192569	7.3685e+06	-56189.1	955.822	-29739.8	0.000000	0.000000	7.196626	82.5699	NaN	0.000000	0.001525	0.001703	28.0798	41.891	0.001842	22738.3	5.698826	-2.878834	81.6399	1.192172	0.041723	0.041327	82.5699	22738.3	0.039000	0.061469	1343.28	83792.1
351	2.000000	1.195101	7.3685e+06	-56189.1	955.821	-29739.8	0.000000	0.000000	7.199675	95.1323	NaN	0.000000	0.001470	0.001689	28.0795	43.9067	0.001743	25192	9.225927	172.961	95.1885	1.194691	0.044255	0.043845	95.1323	25192	0.041423	0.067758	1404	88420.9
351	2.000000	1.197480	7.3685e+06	-56189.1	955.821	-29739.8	0.000000	0.000000	7.202434	104.359	NaN	0.000000	0.001496	0.001727	28.0794	46.609	0.001755	26564	4.944035	-3.949860	100.641	1.197135	0.046634	0.046289	104.359	26564	0.043688	0.073906	1412.05	89274.6
351	2.000000	1.200149	7.3685e+06	-56189.1	955.821	-29739.8	0.000000	0.000000	7.205208	106.911	NaN	0.000000	0.001527	0.001730	28.0797	50.091	0.001880	26647.1	4.220553	177.037	113.136	1.199795	0.049303	0.048950	106.911	26647.1	0.046294	0.081303	1314.96	85382.4
351	2.000000	1.202546	7.3685e+06	-56189.1	955.821	-29739.8	0.000000	0.000000	7.208371	125.56	NaN	0.000000	0.001534	0.001725	28.0798	51.142	0.001835	27873.9	-0.111884	1.076252	122.364	1.202233	0.051700	0.051387	125.56	27873.9	0.048321	0.087295	1438.33	86193.7
351	2.000000	1.205028	7.3685e+06	-56189.1	955.821	-29739.8	0.000000	0.000000	7.211385	138.479	NaN	0.000000	0.001556	0.001727	28.0796	54.2647	0.001792	30279.4	3.378926	175.869	135.443	1.204746	0.054182	0.053900	138.479	30279.4	0.050752	0.094751	1461.5	89872.7
351	2.000000	1.207535	7.3685e+06	-56189.1	955.821	-29739.8	0.000000	0.000000	7.214259	147.391	NaN	0.000000	0.001557	0.001704	28.0794	56.8969	0.001917	29678.3	2.095830	-1.640251	146.755	1.207209	0.056690	0.056363	147.391	29678.3	0.052965	0.101797	1447.89	84985.6
351	2.000000	1.210038	7.3685e+06	-56189.1	955.821	-29739.8	0.000000	0.000000	7.217275	159.872	NaN	0.000000	0.001558	0.001718	28.0807	59.1653	0.001787	33115	4.320045	173.992	158.708	1.209753	0.059192	0.058907	159.872	33115	0.055571	0.110408	1448.01	91053.7
351	2.000000	1.212562	7.3685e+06	-56189.1	955.822	-29739.8	0.000000	0.000000	7.220261	171.075	NaN	0.000000	0.001542	0.001723	28.0811	61.3241	0.001701	36049.8	7.462290	-8.580514	170.776	1.212089	0.061717	0.061243	171.075	36049.8	0.058158	0.119284	1434.17	95364
351	2.000000	1.214910	7.3685e+06	-56189.1	955.82	-29739.8	0.000000	0.000000	7.223450	191.531	NaN	0.000000	0.001546	0.001740	28.0809	62.0816	0.001733	35813.3	2.126749	175.848	185.937	1.214752	0.064064	0.063906	191.531	35813.3	0.060053	0.125998	1520.11	92179.7
351	2.000000	1.217523	7.3685e+06	-56189.1	955.821	-29739.8	0.000000	0.000000	7.226455	201.052	NaN	0.000000	0.001563	0.001765	28.0807	66.0248	0.001790	36887.4	5.616141	-7.252668	199.407	1.217187	0.066677	0.066341	201.052	36887.4	0.062590	0.135258	1486.43	91636.7
351	2.000000	1.220027	7.3685e+06	-56189.1	955.821	-29739.8	0.000000	0.000000	7.228900	199.63	NaN	0.000000	0.001564	0.001727	28.0808	68.8478	0.001832	37572	2.549426	174.976	198.385	1.219971	0.069181	0.069125	199.63	37572	0.065196	0.145097	1375.84	90117.3
351	2.000000	1.222494	7.3685e+06	-56189.1	955.821	-29739.8	0.000000	0.000000	7.232506	227.306	NaN	0.000000	0.001575	0.001771	28.0809	70.0846	0.001843	38021.8	2.442535	-4.004832	222.202	1.222197	0.071649	0.071351	227.306	38021.8	0.067165	0.152747	1488.12	88883.3
351	2.000000	1.225012	7.3685e+06	-56189.1	955.822	-29739.8	0.000000	0.000000	7.235574	240.687	NaN	0.000000	0.001546	0.001750	28.0809	72.5092	0.001818	39890	3.220451	174.754	238.503	1.224618	0.074166	0.073772	240.687	39890	0.069641	0.162631	1479.96	90372.3
351	2.000000	1.227557	7.3685e+06	-56189.1	955.821	-29739.8	0.000000	0.000000	7.238408	247.691	NaN	0.000000	0.001542	0.001723	28.0808	74.9398	0.001724	43473.7	1.867257	-5.466007	248.944	1.227419	0.076712	0.076573	247.691	43473.7	0.072438	0.174148	1422.3	95178.7
351	2.000000	1.230049	7.3685e+06	-56189.1	955.821	-29739.8	0.000000	0.000000	7.241762	268.647	NaN	0.000000	0.001531	0.001730	28.081	77.9341	0.001852	42075.9	1.763610	175.633	269.123	1.229741	0.079204	0.078896	268.647	42075.9	0.074415	0.182510	1471.96	89983.7
351	2.000000	1.232469	7.3685e+06	-56189.1	955.821	-29739.8	0.000000	0.000000	7.244899	286.095	NaN	0.000000	0.001601	0.001759	28.0807	79.9633	0.001755	45553	3.540426	-6.804136	280.019	1.232152	0.081623	0.081306	286.095	45553	0.076913	0.193339	1479.76	94652.1
351	2.000000	1.234952	7.3685e+06	-56189.1	955.822	-29739.8	0.000000	0.000000	7.247849	297.437	NaN	0.000000	0.001609	0.001741	28.081	82.3153	0.001785	46113.7	3.075538	173.187	293.975	1.234861	0.084106	0.084016	297.437	46113.7	0.079269	0.203822	1459.3	93320.8
351	2.000000	1.237422	7.3685e+06	-56189.1	955.822	-29739.8	0.000000	0.000000	7.251217	319.252	NaN	0.000000	0.001546	0.001726	28.0807	84.6202	0.001787	47349	2.915827	-6.660556	313.05	1.237011	0.086576	0.086165	319.252	47349	0.081519	0.214078	1491.29	93496.9
351	2.000000	1.239988	7.3685e+06	-56189.1	955.821	-29739.8	0.000000	0.000000	7.254583	338.72	NaN	0.000000	0.001547	0.001721	28.0811	88.3414	0.001734	50941.5	7.222250	168.905	339.708	1.239721	0.089142	0.088875	338.72	50941.5	0.084155	0.226389	1496.19	97817.8
351	2.000000	1.242556	7.3685e+06	-56189.1	955.821	-29739.8	0.000000	0.000000	7.257951	358.144	NaN	0.000000	0.001543	0.001784	28.0808	90.6011	0.001835	49380.2	11.8518	-15.1252	357.207	1.242078	0.091710	0.091232	358.144	49380.2	0.086271	0.236501	1514.35	92770.4
351	2.000000	1.244964	7.3685e+06	-56189.1	955.822	-29739.8	0.000000	0.000000	7.261132	376.951	NaN	0.000000	0.001529	0.001773	28.0797	91.5611	0.001792	51082.9	2.539895	172.998	373.833	1.244796	0.094118	0.093950	376.951	51082.9	0.088584	0.247795	1521.22	93756.8
351	2.000000	1.247564	7.3685e+06	-56189.1	955.821	-29739.8	0.000000	0.000000	7.264400	393.19	NaN	0.000000	0.001531	0.001728	28.0795	96.6609	0.001929	50109.5	5.812777	-8.897612	395.376	1.246970	0.096718	0.096124	393.19	50109.5	0.090833	0.259013	1518.03	89956.4
351	2.000000	1.250023	7.3685e+06	-56189.1	955.822	-29739.8	0.000000	0.000000	7.267510	409.02	NaN	0.000000	0.001532	0.001755	28.0795	97.2671	0.001856	52417.1	5.054989	170.932	409.406	1.249634	0.099177	0.098788	409.02	52417.1	0.093325	0.271707	1505.37	91874.7
351	2.000000	1.252409	7.3685e+06	-56189.1	955.821	-29739.8	0.000000	0.000000	7.270735	429.387	NaN	0.000000	0.001507	0.001756	28.0793	97.7153	0.001824	53565.6	-0.643386	-3.665319	419.838	1.252096	0.101563	0.101250	429.387	53565.6	0.095551	0.283294	1515.69	91947.7
351	2.000000	1.255039	7.3685e+06	-56189.1	955.822	-29739.8	0.000000	0.000000	7.274255	451.028	NaN	0.000000	0.001543	0.001739	28.0795	100.4	0.001742	57636.9	2.370136	172.876	452.408	1.254703	0.104194	0.103857	451.028	57636.9	0.098325	0.298041	1513.31	96457.4
351	2.000000	1.257572	7.3685e+06	-56189.1	955.822	-29739.8	0.000000	0.000000	7.277374	465.291	NaN	0.000000	0.001556	0.001718	28.0797	103.971	0.001833	56736.5	6.098565	-10.2199	468.202	1.256974	0.106726	0.106129	465.291	56736.5	0.100575	0.310265	1499.65	93061.3
351	2.000000	1.257983	7.3685e+06	-56189.1	955.822	-29739.8	0.000000	0.000000	7.277736	464.065	NaN	0.000000	0.001548	0.001713	28.0797	103.712	0.001797	57715.8	4.637503	170.066	462.856	1.257813	0.107138	0.106968	464.065	57715.8	0.101107	0.313189	1481.74	94224.6