File: remote_trans/data/nanoindenter/0828-1/data/Data_2025-08-06,11h17m57s/2025-07-22_16-23-58_1_371.txt
2025-07-22, 16:23:58, 1
Index	Phase	Displacement	Time	Pos X	Pos Y	Pos Z	Rot A	Rot B	Piezo Z	Force A	Force B	Gripper	Voltage A	Voltage B	Temperature	Amplitude force	Amplitude pos	Stiffness	Phase shift	Phase excitation	Force A raw	Displacement raw	HMax	HMax raw	Real Force	Real Stiffness	Contact Depth	Area	Hardness	Reduced Mod.
[#]	[#]	[um]	[s]	[um]	[um]	[um]	[m°]	[m°]	[um]	[uN]	[uN]	[V]	[V]	[V]	[°C]	[uN]	[um]	[N/m]	[°]	[°]	[uN]	[um]	[um]	[um]	[uN]	[N/m]	[um]	[um^2]	[MPa]	[MPa]
371	1.000000	0.002365	7.36869e+06	-57189.1	955.819	-29737.6	0.000000	0.000000	6.002791	-1.823295E-5	NaN	0.000000	0.001589	0.001644	28.0815	0.091202	0.000990	92.1327	-91.8041	-165.534	-0.040059	0.001133	-1.077505	-1.078737	-1.823295E-5	92.1327	-1.077505	-2.500369E+14	7.292106E-20	NaN
371	1.000000	0.010328	7.36869e+06	-57189.1	955.818	-29737.6	0.000000	0.000000	6.010756	0.033133	NaN	0.000000	0.001639	0.001679	28.0811	0.132305	0.000949	139.478	41.167	-169.952	0.003805	0.009002	-1.069541	-1.070867	0.033133	139.478	-1.069719	-1.965253E+14	-1.685928E-16	NaN
371	1.000000	0.018339	7.36869e+06	-57189.1	955.819	-29737.6	0.000000	0.000000	6.018767	0.055548	NaN	0.000000	0.001675	0.001653	28.0813	0.047761	0.001665	28.6906	-34.6126	-162.229	0.014107	0.016997	-1.061530	-1.062873	0.055548	28.6906	-1.062983	-1.595514E+14	-3.481484E-16	NaN
371	1.000000	0.026364	7.36869e+06	-57189.1	955.819	-29737.6	0.000000	0.000000	6.026785	-0.131856	NaN	0.000000	0.001660	0.001664	28.0813	0.057652	0.001840	31.3357	176.955	-165.119	-0.054119	0.025019	-1.053505	-1.054851	-0.131856	31.3357	-1.050350	-1.079227E+14	1.221763E-15	NaN
371	1.000000	0.034316	7.36869e+06	-57189.1	955.819	-29737.6	0.000000	0.000000	6.034741	-0.017923	NaN	0.000000	0.001661	0.001678	28.0814	0.089554	0.001941	46.1417	75.6061	-163.351	0.017463	0.033025	-1.045554	-1.046845	-0.017923	46.1417	-1.045263	-9.219889E+13	1.943983E-16	NaN
371	1.000000	0.042309	7.36869e+06	-57189.1	955.818	-29737.6	0.000000	0.000000	6.042737	0.058596	NaN	0.000000	0.001643	0.001656	28.0809	0.053845	0.001939	27.7687	122.652	-166.116	0.031430	0.041014	-1.037561	-1.038855	0.058596	27.7687	-1.039143	-7.628634E+13	-7.681093E-16	NaN
371	1.000000	0.050342	7.36869e+06	-57189.1	955.818	-29737.6	0.000000	0.000000	6.050769	0.017300	NaN	0.000000	0.001682	0.001687	28.0811	0.076857	0.002045	37.5884	103.201	-164.304	0.028218	0.049047	-1.029527	-1.030822	0.017300	37.5884	-1.029872	-5.724841E+13	-3.021899E-16	NaN
371	1.000000	0.058348	7.36869e+06	-57189.1	955.818	-29737.6	0.000000	0.000000	6.058774	-0.027468	NaN	0.000000	0.001682	0.001680	28.0802	0.135909	0.002134	63.688	154.771	-165.645	-0.011370	0.057002	-1.021521	-1.022867	-0.027468	63.688	-1.021198	-4.375874E+13	6.277183E-16	NaN
371	1.000000	0.066340	7.36869e+06	-57189.1	955.819	-29737.6	0.000000	0.000000	6.066768	0.050448	NaN	0.000000	0.001660	0.001625	28.0798	0.005741	0.001994	2.879512	-106.495	-164.175	0.048466	0.065059	-1.013530	-1.014811	0.050448	2.879512	-1.026669	-5.184145E+13	-9.731216E-16	NaN
371	1.000000	0.074346	7.36869e+06	-57189.1	955.819	-29737.6	0.000000	0.000000	6.074771	-0.025768	NaN	0.000000	0.001675	0.001677	28.0798	0.010627	0.001890	5.623288	-23.3367	-168.535	0.004758	0.072998	-1.005524	-1.006871	-0.025768	5.623288	-1.002087	-2.420290E+13	1.064653E-15	NaN
371	1.000000	0.082340	7.36869e+06	-57189.1	955.818	-29737.6	0.000000	0.000000	6.082764	-0.056298	NaN	0.000000	0.001649	0.001620	28.0798	0.099704	0.001941	51.3801	-86.3287	-165.656	-0.070387	0.081033	-0.997529	-0.998837	-0.056298	51.3801	-0.996708	-2.048514E+13	2.748230E-15	NaN
371	1.000000	0.090334	7.36869e+06	-57189.1	955.819	-29737.6	0.000000	0.000000	6.090758	-0.053510	NaN	0.000000	0.001634	0.001687	28.0798	0.100368	0.001896	52.9366	16.9284	-162.76	0.082414	0.089052	-0.989536	-0.990818	-0.053510	52.9366	-0.988778	-1.601958E+13	3.340272E-15	NaN
371	1.000000	0.098335	7.36869e+06	-57189.1	955.817	-29737.6	0.000000	0.000000	6.098759	-0.037692	NaN	0.000000	0.001636	0.001658	28.0801	0.075141	0.002121	35.4288	-45.0247	-164.964	-0.077239	0.097046	-0.981535	-0.982824	-0.037692	35.4288	-0.980737	-1.248354E+13	3.019299E-15	NaN
371	1.000000	0.106357	7.36869e+06	-57189.1	955.817	-29737.6	0.000000	0.000000	6.106785	0.039592	NaN	0.000000	0.001638	0.001662	28.0799	0.084336	0.002107	40.0291	-96.8445	-163.403	0.065871	0.105061	-0.973513	-0.974808	0.039592	40.0291	-0.974254	-1.020932E+13	-3.878031E-15	NaN
371	1.000000	0.114358	7.36869e+06	-57189.1	955.819	-29737.6	0.000000	0.000000	6.114784	-0.014036	NaN	0.000000	0.001640	0.001676	28.0799	0.061026	0.001962	31.0999	-71.2052	-166.829	-0.041862	0.113057	-0.965511	-0.966813	-0.014036	31.0999	-0.965173	-7.701920E+12	1.822366E-15	NaN
371	1.000000	0.122354	7.36869e+06	-57189.1	955.819	-29737.6	0.000000	0.000000	6.122782	0.033979	NaN	0.000000	0.001651	0.001656	28.0801	0.047256	0.002048	23.0734	65.1617	-166.666	0.083355	0.121054	-0.957515	-0.958816	0.033979	23.0734	-0.958620	-6.284382E+12	-5.406823E-15	NaN
371	1.000000	0.130357	7.36869e+06	-57189.1	955.819	-29737.6	0.000000	0.000000	6.130783	0.006370	NaN	0.000000	0.001651	0.001695	28.0799	0.035183	0.002001	17.584	83.8686	-164.122	-0.001377	0.129082	-0.949513	-0.950788	0.006370	17.584	-0.949784	-4.776591E+12	-1.333534E-15	NaN
371	1.000000	0.138367	7.36869e+06	-57189.1	955.818	-29737.6	0.000000	0.000000	6.138793	-0.013473	NaN	0.000000	0.001633	0.001669	28.0801	0.071786	0.002065	34.7613	161.557	-162.665	0.036426	0.137079	-0.941502	-0.942790	-0.013473	34.7613	-0.941211	-3.659989E+12	3.681230E-15	NaN
371	1.000000	0.146349	7.36869e+06	-57189.1	955.818	-29737.6	0.000000	0.000000	6.146777	0.054064	NaN	0.000000	0.001658	0.001705	28.0798	0.035667	0.002016	17.6954	-32.6774	-162.031	0.039448	0.145024	-0.933520	-0.934846	0.054064	17.6954	-0.935812	-3.094768E+12	-1.746943E-14	NaN
371	1.000000	0.154362	7.36869e+06	-57189.1	955.818	-29737.6	0.000000	0.000000	6.154789	0.029985	NaN	0.000000	0.001659	0.001658	28.0802	0.120533	0.002068	58.2933	-39.2373	-163.827	0.031185	0.152989	-0.925508	-0.926880	0.029985	58.2933	-0.925893	-2.273885E+12	-1.318683E-14	NaN
371	1.000000	0.162392	7.36869e+06	-57189.1	955.819	-29737.6	0.000000	0.000000	6.162820	0.037891	NaN	0.000000	0.001652	0.001639	28.0798	0.030867	0.001992	15.4993	-22.1032	-164.345	0.044408	0.161066	-0.917477	-0.918803	0.037891	15.4993	-0.919310	-1.853089E+12	-2.044762E-14	NaN
371	1.000000	0.170365	7.36869e+06	-57189.1	955.818	-29737.6	0.000000	0.000000	6.170792	0.019020	NaN	0.000000	0.001619	0.001634	28.0797	0.051358	0.002025	25.3614	-77.1137	-164.912	-0.011994	0.169006	-0.909505	-0.910864	0.019020	25.3614	-0.910067	-1.390172E+12	-1.368142E-14	NaN
371	1.000000	0.178373	7.36869e+06	-57189.1	955.819	-29737.6	0.000000	0.000000	6.178799	-0.007358	NaN	0.000000	0.001651	0.001658	28.0799	0.097148	0.002093	46.4056	-101.546	-164.25	-0.004661	0.177028	-0.901496	-0.902842	-0.007358	46.4056	-0.901377	-1.060904E+12	6.935493E-15	NaN
371	1.000000	0.186343	7.36869e+06	-57189.1	955.818	-29737.6	0.000000	0.000000	6.186769	-0.011486	NaN	0.000000	0.001636	0.001663	28.0795	0.054515	0.002012	27.0896	-35.9282	-163.362	-0.017552	0.185015	-0.893526	-0.894855	-0.011486	27.0896	-0.893208	-8.227717E+11	1.395955E-14	NaN
371	1.000000	0.194345	7.36869e+06	-57189.1	955.819	-29737.6	0.000000	0.000000	6.194771	0.006853	NaN	0.000000	0.001627	0.001668	28.0817	0.027373	0.001829	14.97	72.3403	-163.491	-0.014859	0.193077	-0.885525	-0.886793	0.006853	14.97	-0.885868	-6.547162E+11	-1.046739E-14	NaN
371	1.000000	0.202376	7.36869e+06	-57189.1	955.818	-29737.6	0.000000	0.000000	6.202802	-0.006606	NaN	0.000000	0.001647	0.001689	28.0813	0.023680	0.002236	10.592	-148.128	-163.542	-0.088141	0.201106	-0.877494	-0.878764	-0.006606	10.592	-0.877026	-4.971469E+11	1.328790E-14	NaN
371	1.000000	0.210393	7.36869e+06	-57189.1	955.819	-29737.6	0.000000	0.000000	6.210819	-0.011217	NaN	0.000000	0.001657	0.001678	28.0815	0.108038	0.001971	54.8024	-86.5768	-163.697	0.056956	0.209105	-0.869476	-0.870765	-0.011217	54.8024	-0.869322	-3.910904E+11	2.868201E-14	NaN
371	1.000000	0.218409	7.36869e+06	-57189.1	955.819	-29737.6	0.000000	0.000000	6.218836	0.003563	NaN	0.000000	0.001612	0.001697	28.0813	0.102248	0.002045	50.0084	0.973541	-164.764	0.038335	0.217085	-0.861460	-0.862785	0.003563	50.0084	-0.861513	-3.066228E+11	-1.161966E-14	NaN
371	1.000000	0.226419	7.36869e+06	-57189.1	955.818	-29737.6	0.000000	0.000000	6.226844	-0.032102	NaN	0.000000	0.001654	0.001675	28.0812	0.064019	0.002120	30.2013	28.409	-165.196	-0.102593	0.225170	-0.853450	-0.854699	-0.032102	30.2013	-0.852653	-2.326266E+11	1.379979E-13	NaN
371	1.000000	0.234380	7.36869e+06	-57189.1	955.819	-29737.6	0.000000	0.000000	6.234806	-0.004388	NaN	0.000000	0.001634	0.001668	28.0819	0.039925	0.002230	17.9014	116.246	-166.655	0.004974	0.233105	-0.845489	-0.846765	-0.004388	17.9014	-0.845305	-1.849950E+11	2.371781E-14	NaN
371	1.000000	0.242407	7.36869e+06	-57189.1	955.819	-29737.6	0.000000	0.000000	6.242833	-0.006055	NaN	0.000000	0.001641	0.001678	28.0812	0.071380	0.001911	37.3455	-24.679	-166.099	0.038827	0.241100	-0.837462	-0.838769	-0.006055	37.3455	-0.837340	-1.442980E+11	4.196177E-14	NaN
371	1.000000	0.250413	7.36869e+06	-57189.1	955.818	-29737.6	0.000000	0.000000	6.250838	-0.020318	NaN	0.000000	0.001668	0.001651	28.0816	0.016000	0.002128	7.520078	174.002	-161.827	-0.065945	0.249081	-0.829457	-0.830789	-0.020318	7.520078	-0.827430	-1.059142E+11	1.918387E-13	NaN
371	1.000000	0.258425	7.36869e+06	-57189.1	955.819	-29737.6	0.000000	0.000000	6.258853	0.023450	NaN	0.000000	0.001694	0.001651	28.0816	0.090218	0.002069	43.6089	-26.5223	-163.209	-0.020831	0.257126	-0.821444	-0.822743	0.023450	43.6089	-0.821847	-8.897383E+10	-2.635639E-13	NaN
371	1.000000	0.266398	7.36869e+06	-57189.1	955.818	-29737.6	0.000000	0.000000	6.266823	-0.037057	NaN	0.000000	0.001678	0.001636	28.0814	0.018891	0.002016	9.370704	-173.294	-162.429	-0.001302	0.265112	-0.813471	-0.814757	-0.037057	9.370704	-0.810505	-6.243517E+10	5.935331E-13	NaN
371	1.000000	0.274415	7.36869e+06	-57189.1	955.818	-29737.6	0.000000	0.000000	6.274840	-0.020190	NaN	0.000000	0.001662	0.001653	28.0813	0.040246	0.001940	20.7489	-136.422	-162.755	0.020939	0.273127	-0.805455	-0.806742	-0.020190	20.7489	-0.804725	-5.211867E+10	3.873872E-13	NaN
371	1.000000	0.282426	7.36869e+06	-57189.1	955.819	-29737.6	0.000000	0.000000	6.282851	-0.027370	NaN	0.000000	0.001648	0.001693	28.0812	0.059715	0.001964	30.3984	37.6294	-163.553	-0.043818	0.281136	-0.797443	-0.798734	-0.027370	30.3984	-0.796768	-4.064298E+10	6.734369E-13	NaN
371	1.000000	0.290392	7.36869e+06	-57189.1	955.819	-29737.6	0.000000	0.000000	6.290818	0.012658	NaN	0.000000	0.001661	0.001691	28.0816	0.038829	0.001966	19.7516	-150.144	-162.687	0.000139	0.289115	-0.789478	-0.790754	0.012658	19.7516	-0.789959	-3.284887E+10	-3.853364E-13	NaN
371	1.000000	0.298418	7.36869e+06	-57189.1	955.818	-29737.6	0.000000	0.000000	6.298844	-0.005007	NaN	0.000000	0.001651	0.001674	28.0814	0.073932	0.001989	37.162	36.3016	-163.58	0.053045	0.297105	-0.781452	-0.782765	-0.005007	37.162	-0.781351	-2.509497E+10	1.995181E-13	NaN
371	1.000000	0.306450	7.36869e+06	-57189.1	955.819	-29737.6	0.000000	0.000000	6.306875	-0.042762	NaN	0.000000	0.001654	0.001681	28.0814	0.057726	0.002043	28.2612	-179.027	-163.907	0.007991	0.305113	-0.773419	-0.774757	-0.042762	28.2612	-0.772284	-1.889555E+10	2.263080E-12	NaN
371	1.000000	0.314411	7.36869e+06	-57189.1	955.818	-29737.6	0.000000	0.000000	6.314835	-0.051684	NaN	0.000000	0.001716	0.001656	28.0813	0.075999	0.001943	39.1217	-53.826	-165.963	-0.040518	0.313179	-0.765458	-0.766691	-0.051684	39.1217	-0.764468	-1.479357E+10	3.493673E-12	NaN
371	1.000000	0.322443	7.36869e+06	-57189.1	955.818	-29737.6	0.000000	0.000000	6.322871	0.040454	NaN	0.000000	0.001750	0.001695	28.0812	0.075097	0.002162	34.7424	160.243	-164.959	0.047846	0.321124	-0.757426	-0.758746	0.040454	34.7424	-0.758299	-1.219449E+10	-3.317423E-12	NaN
371	1.000000	0.330462	7.36869e+06	-57189.1	955.818	-29737.6	0.000000	0.000000	6.330886	-0.066348	NaN	0.000000	0.001718	0.001655	28.0802	0.119983	0.002000	60.0024	56.0889	-165.759	-0.005268	0.329145	-0.749407	-0.750725	-0.066348	60.0024	-0.748578	-8.992134E+9	7.378424E-12	NaN
371	1.000000	0.338436	7.36869e+06	-57189.1	955.818	-29737.6	0.000000	0.000000	6.338863	0.018351	NaN	0.000000	0.001703	0.001673	28.0802	0.047789	0.001913	24.975	-178.005	-165.621	0.090016	0.337112	-0.741433	-0.742758	0.018351	24.975	-0.741984	-7.312709E+9	-2.509413E-12	NaN
371	1.000000	0.346430	7.36869e+06	-57189.1	955.818	-29737.6	0.000000	0.000000	6.346857	0.037538	NaN	0.000000	0.001715	0.001655	28.0808	0.021643	0.001974	10.9653	70.2148	-164.031	-0.060937	0.345164	-0.733440	-0.734705	0.037538	10.9653	-0.736007	-6.062723E+9	-6.191632E-12	NaN
371	1.000000	0.354485	7.36869e+06	-57189.1	955.819	-29737.6	0.000000	0.000000	6.354909	-0.060238	NaN	0.000000	0.001697	0.001655	28.0803	0.045656	0.002094	21.7991	-158.269	-163.654	0.052186	0.353145	-0.725384	-0.726724	-0.060238	21.7991	-0.723312	-4.070371E+9	1.479918E-11	NaN
371	1.000000	0.362437	7.36869e+06	-57189.1	955.819	-29737.6	0.000000	0.000000	6.362860	-0.079639	NaN	0.000000	0.001686	0.001669	28.0802	0.070469	0.001937	36.3723	150.252	-165.761	-0.120139	0.361125	-0.717433	-0.718744	-0.079639	36.3723	-0.715790	-3.214068E+9	2.477823E-11	NaN
371	1.000000	0.370462	7.36869e+06	-57189.1	955.818	-29737.6	0.000000	0.000000	6.370891	0.080549	NaN	0.000000	0.001694	0.001630	28.0802	0.089319	0.001917	46.5864	6.264040	-162.941	0.045446	0.369141	-0.709408	-0.710729	0.080549	46.5864	-0.710705	-2.739459E+9	-2.940333E-11	NaN
371	1.000000	0.378457	7.36869e+06	-57189.1	955.819	-29737.6	0.000000	0.000000	6.378884	0.017976	NaN	0.000000	0.001704	0.001665	28.0803	0.056983	0.001900	29.9945	-60.2962	-166.563	-0.049218	0.377127	-0.701413	-0.702743	0.017976	29.9945	-0.701862	-2.074723E+9	-8.664444E-12	NaN
371	1.000000	0.386488	7.36869e+06	-57189.1	955.819	-29737.6	0.000000	0.000000	6.386916	0.041963	NaN	0.000000	0.001692	0.001678	28.0806	0.153165	0.002042	74.9995	-23.5159	-166.74	-0.004924	0.385155	-0.693381	-0.694714	0.041963	74.9995	-0.693801	-1.610113E+9	-2.606241E-11	NaN
371	1.000000	0.394461	7.36869e+06	-57189.1	955.819	-29737.6	0.000000	0.000000	6.394884	-0.060989	NaN	0.000000	0.001695	0.001676	28.0803	0.081867	0.001988	41.1885	179.797	-165.227	0.017865	0.393163	-0.685409	-0.686707	-0.060989	41.1885	-0.684298	-1.193933E+9	5.108247E-11	NaN
371	1.000000	0.402454	7.36869e+06	-57189.1	955.818	-29737.6	0.000000	0.000000	6.402880	-0.013643	NaN	0.000000	0.001664	0.001681	28.0805	0.142729	0.001991	71.7007	-101.075	-162.758	-0.025152	0.401191	-0.677415	-0.678679	-0.013643	71.7007	-0.677273	-9.569758E+8	1.425625E-11	NaN
371	1.000000	0.410472	7.36869e+06	-57189.1	955.817	-29737.6	0.000000	0.000000	6.410897	-0.013227	NaN	0.000000	0.001706	0.001664	28.0802	0.123602	0.001929	64.0909	43.8281	-161.88	0.079621	0.409128	-0.669398	-0.670742	-0.013227	64.0909	-0.669243	-7.430688E+8	1.779995E-11	NaN
371	1.000000	0.418476	7.36869e+06	-57189.1	955.818	-29737.6	0.000000	0.000000	6.418903	0.036068	NaN	0.000000	0.001727	0.001682	28.0805	0.111761	0.002049	54.5545	-175.487	-164.304	0.030407	0.417216	-0.661394	-0.662653	0.036068	54.5545	-0.661890	-5.893165E+8	-6.120299E-11	NaN
371	1.000000	0.426486	7.36869e+06	-57189.1	955.818	-29737.6	0.000000	0.000000	6.426912	-0.008084	NaN	0.000000	0.001636	0.001631	28.0802	0.093818	0.001913	49.0336	20.2723	-166.038	-0.005828	0.425183	-0.653383	-0.654687	-0.008084	49.0336	-0.653260	-4.488653E+8	1.801022E-11	NaN
371	1.000000	0.434457	7.36869e+06	-57189.1	955.82	-29737.6	0.000000	0.000000	6.434884	0.014766	NaN	0.000000	0.001640	0.001636	28.0805	0.049135	0.001928	25.4885	-100.145	-163.515	0.039988	0.433180	-0.645412	-0.646689	0.014766	25.4885	-0.645847	-3.552133E+8	-4.156963E-11	NaN
371	1.000000	0.442514	7.3687e+06	-57189.1	955.819	-29737.6	0.000000	0.000000	6.442943	0.056767	NaN	0.000000	0.001648	0.001666	28.0806	0.087053	0.002087	41.7029	-60.3356	-164.793	0.058875	0.441205	-0.637355	-0.638665	0.056767	41.7029	-0.638376	-2.805466E+8	-2.023433E-10	NaN
371	1.000000	0.450513	7.3687e+06	-57189.1	955.819	-29737.6	0.000000	0.000000	6.450938	-0.038394	NaN	0.000000	0.001643	0.001677	28.0803	0.087169	0.002079	41.933	138.978	-160.525	-0.067974	0.449196	-0.629356	-0.630674	-0.038394	41.933	-0.628669	-2.064192E+8	1.859979E-10	NaN
371	1.000000	0.458490	7.3687e+06	-57189.1	955.818	-29737.6	0.000000	0.000000	6.458917	0.024581	NaN	0.000000	0.001650	0.001649	28.081	0.037786	0.001983	19.0548	-60.9605	-164.781	-0.008111	0.457174	-0.621379	-0.622696	0.024581	19.0548	-0.622347	-1.690004E+8	-1.454477E-10	NaN
371	1.000000	0.466485	7.3687e+06	-57189.1	955.818	-29737.6	0.000000	0.000000	6.466912	0.022870	NaN	0.000000	0.001643	0.001641	28.0817	0.013788	0.002021	6.821143	-79.1292	-162.234	-0.077775	0.465228	-0.613385	-0.614642	0.022870	6.821143	-0.615899	-1.378025E+8	-1.659618E-10	NaN
371	1.000000	0.474497	7.3687e+06	-57189.1	955.818	-29737.6	0.000000	0.000000	6.474921	-0.063488	NaN	0.000000	0.001656	0.001667	28.0816	0.052711	0.002055	25.6467	-144.192	-163.283	-0.085155	0.473185	-0.605372	-0.606684	-0.063488	25.6467	-0.603516	-9.308303E+7	6.820537E-10	NaN
371	1.000000	0.482471	7.3687e+06	-57189.1	955.818	-29737.6	0.000000	0.000000	6.482896	-0.030543	NaN	0.000000	0.001637	0.001694	28.0816	0.112463	0.001955	57.5188	-121.761	-166.599	-0.022221	0.481192	-0.597398	-0.598677	-0.030543	57.5188	-0.597000	-7.570667E+7	4.034370E-10	NaN
371	1.000000	0.490510	7.3687e+06	-57189.1	955.819	-29737.6	0.000000	0.000000	6.490938	0.052275	NaN	0.000000	0.001672	0.001664	28.0815	0.093620	0.001853	50.5204	-130.42	-165.953	0.095018	0.489172	-0.589360	-0.590698	0.052275	50.5204	-0.590136	-6.088866E+7	-8.585367E-10	NaN
371	1.000000	0.498499	7.3687e+06	-57189.1	955.818	-29737.6	0.000000	0.000000	6.498928	0.067200	NaN	0.000000	0.001629	0.001655	28.0815	0.007871	0.001914	4.111638	-22.0314	-165.938	0.033542	0.497243	-0.581370	-0.582626	0.067200	4.111638	-0.593628	-6.802624E+7	-9.878532E-10	NaN
371	1.000000	0.506523	7.3687e+06	-57189.1	955.819	-29737.6	0.000000	0.000000	6.506949	-0.025788	NaN	0.000000	0.001620	0.001637	28.0813	0.087788	0.002167	40.5052	84.2778	-163.475	0.033866	0.505147	-0.573346	-0.574723	-0.025788	40.5052	-0.572869	-3.517714E+7	7.330775E-10	NaN
371	1.000000	0.514538	7.3687e+06	-57189.1	955.82	-29737.6	0.000000	0.000000	6.514966	0.047363	NaN	0.000000	0.001651	0.001633	28.0814	0.065317	0.002028	32.2102	-105.504	-163.596	0.063125	0.513217	-0.565331	-0.566653	0.047363	32.2102	-0.566434	-2.866507E+7	-1.652300E-9	NaN
371	1.000000	0.522538	7.3687e+06	-57189.1	955.818	-29737.6	0.000000	0.000000	6.522964	-0.009550	NaN	0.000000	0.001675	0.001686	28.0817	0.079787	0.002124	37.569	0.119814	-162.52	-0.058084	0.521243	-0.557331	-0.558627	-0.009550	37.569	-0.557141	-2.132139E+7	4.479173E-10	NaN
371	1.000000	0.530542	7.3687e+06	-57189.1	955.819	-29737.6	0.000000	0.000000	6.530970	0.053247	NaN	0.000000	0.001718	0.001630	28.0813	0.115926	0.001962	59.0725	-45.782	-163.783	-0.066298	0.529229	-0.549328	-0.550641	0.053247	59.0725	-0.550004	-1.698279E+7	-3.135353E-9	NaN
371	1.000000	0.538540	7.3687e+06	-57189.1	955.818	-29737.6	0.000000	0.000000	6.538964	-0.073016	NaN	0.000000	0.001693	0.001652	28.0815	0.073931	0.002015	36.6812	-58.3122	-168.651	0.027968	0.537218	-0.541329	-0.542652	-0.073016	36.6812	-0.539836	-1.227678E+7	5.947499E-9	NaN
371	1.000000	0.546550	7.3687e+06	-57189.1	955.818	-29737.6	0.000000	0.000000	6.546977	0.010456	NaN	0.000000	0.001696	0.001588	28.0815	0.153288	0.001927	79.5315	-92.1677	-165.569	-0.048202	0.545242	-0.533319	-0.534628	0.010456	79.5315	-0.533418	-1.000074E+7	-1.045523E-9	NaN
371	1.000000	0.554511	7.3687e+06	-57189.1	955.817	-29737.6	0.000000	0.000000	6.554938	0.026294	NaN	0.000000	0.001710	0.001640	28.0816	0.023644	0.001960	12.0655	128.614	-163.344	0.029925	0.553274	-0.525359	-0.526595	0.026294	12.0655	-0.526993	-8.1434e+06	-3.228933E-9	NaN
371	1.000000	0.562553	7.3687e+06	-57189.1	955.817	-29737.6	0.000000	0.000000	6.562978	-0.031233	NaN	0.000000	0.001691	0.001655	28.0816	0.108810	0.002051	53.059	28.8153	-163.251	-0.032922	0.561204	-0.517316	-0.518665	-0.031233	53.059	-0.516875	-5.89007e+06	5.302667E-9	NaN
371	1.000000	0.570547	7.3687e+06	-57189.1	955.819	-29737.6	0.000000	0.000000	6.570970	-0.087996	NaN	0.000000	0.001734	0.001635	28.0813	0.101190	0.001975	51.2275	-31.9532	-164.846	-0.009558	0.569226	-0.509322	-0.510643	-0.087996	51.2275	-0.508034	-4.43635e+06	1.983513E-8	NaN
371	1.000000	0.578550	7.3687e+06	-57189.1	955.819	-29737.6	0.000000	0.000000	6.578976	0.000284	NaN	0.000000	0.001721	0.001702	28.0818	0.127274	0.002087	60.9965	115.467	-164.891	0.009551	0.577214	-0.501319	-0.502655	0.000284	60.9965	-0.501323	-3.5766e+06	-7.931988E-11	NaN
371	1.000000	0.586540	7.3687e+06	-57189.1	955.818	-29737.6	0.000000	0.000000	6.586966	-0.004545	NaN	0.000000	0.001710	0.001679	28.0814	0.072982	0.002042	35.7451	-56.568	-168.34	-0.017913	0.585176	-0.493329	-0.494694	-0.004545	35.7451	-0.493234	-2.75787e+06	1.647982E-9	NaN
371	1.000000	0.594572	7.3687e+06	-57189.1	955.82	-29737.6	0.000000	0.000000	6.595001	0.065435	NaN	0.000000	0.001723	0.001649	28.0814	0.047076	0.001978	23.7944	89.113	-160.858	0.006772	0.593202	-0.485297	-0.486667	0.065435	23.7944	-0.487359	-2.28289e+06	-2.866338E-8	NaN
371	1.000000	0.602530	7.3687e+06	-57189.1	955.818	-29737.6	0.000000	0.000000	6.602956	-2.763618E-5	NaN	0.000000	0.001680	0.001677	28.0801	0.141313	0.001975	71.5494	-157.892	-161.404	-0.031924	0.601259	-0.477340	-0.478611	-2.763618E-5	71.5494	-0.477340	-1.65301e+06	1.671870E-11	NaN
371	1.000000	0.610586	7.3687e+06	-57189.1	955.818	-29737.6	0.000000	0.000000	6.611013	0.006462	NaN	0.000000	0.001678	0.001631	28.08	0.085590	0.002088	41	19.5166	-165.869	0.011851	0.609250	-0.469283	-0.470619	0.006462	41	-0.469401	-1.27942e+06	-5.051005E-9	NaN
371	1.000000	0.618553	7.3687e+06	-57189.1	955.818	-29737.6	0.000000	0.000000	6.618984	0.116784	NaN	0.000000	0.001700	0.001650	28.08	0.076918	0.001942	39.6111	168.291	-164.163	-0.061105	0.617212	-0.461316	-0.462657	0.116784	39.6111	-0.463528	-1.05822e+06	-1.103597E-7	NaN
371	1.000000	0.626555	7.3687e+06	-57189.1	955.819	-29737.6	0.000000	0.000000	6.626980	-0.036879	NaN	0.000000	0.001719	0.001667	28.0801	0.106303	0.001950	54.5259	105.832	-163.782	0.015754	0.625265	-0.453315	-0.454604	-0.036879	54.5259	-0.452807	-747937	4.930731E-8	NaN
371	1.000000	0.634566	7.3687e+06	-57189.1	955.819	-29737.6	0.000000	0.000000	6.634995	0.067978	NaN	0.000000	0.001694	0.001675	28.0805	0.114887	0.002022	56.8138	-148.493	-163.263	0.098799	0.633235	-0.445303	-0.446634	0.067978	56.8138	-0.446201	-603692	-1.126045E-7	NaN
371	1.000000	0.642575	7.3687e+06	-57189.1	955.818	-29737.6	0.000000	0.000000	6.643002	0.022279	NaN	0.000000	0.001686	0.001666	28.08	0.100078	0.002132	46.939	-171.48	-165.921	0.021217	0.641268	-0.437294	-0.438601	0.022279	46.939	-0.437650	-457291	-4.871966E-8	NaN
371	1.000000	0.650596	7.3687e+06	-57189.1	955.819	-29737.6	0.000000	0.000000	6.651022	-0.005399	NaN	0.000000	0.001671	0.001660	28.0802	0.088137	0.001923	45.8384	97.7941	-160.911	-0.022936	0.649292	-0.429273	-0.430578	-0.005399	45.8384	-0.429185	-347161	1.555148E-8	NaN
371	1.000000	0.658611	7.3687e+06	-57189.1	955.819	-29737.6	0.000000	0.000000	6.659038	0.023225	NaN	0.000000	0.001655	0.001645	28.08	0.023697	0.002003	11.8332	100.313	-166.438	0.027863	0.657261	-0.421259	-0.422608	0.023225	11.8332	-0.422731	-281274	-8.256932E-8	NaN
371	1.000000	0.666589	7.3687e+06	-57189.1	955.819	-29737.6	0.000000	0.000000	6.667016	0.022868	NaN	0.000000	0.001634	0.001689	28.0801	0.029646	0.002032	14.586	-13.0845	-163.607	0.000961	0.665277	-0.413280	-0.414592	0.022868	14.586	-0.414456	-214650	-1.065366E-7	NaN
371	1.000000	0.674599	7.3687e+06	-57189.1	955.818	-29737.6	0.000000	0.000000	6.675024	-0.025211	NaN	0.000000	0.001672	0.001640	28.0804	0.132718	0.002029	65.4009	-140.533	-162.867	0.051194	0.673342	-0.405270	-0.406527	-0.025211	65.4009	-0.404981	-157392	1.601827E-7	NaN
371	1.000000	0.682576	7.3687e+06	-57189.1	955.817	-29737.6	0.000000	0.000000	6.683001	-0.022873	NaN	0.000000	0.001636	0.001637	28.0799	0.062015	0.002152	28.8111	-174.252	-164.831	-0.035631	0.681238	-0.397294	-0.398631	-0.022873	28.8111	-0.396698	-119919	1.907358E-7	NaN
371	1.000000	0.690592	7.3687e+06	-57189.1	955.818	-29737.6	0.000000	0.000000	6.691018	0.005805	NaN	0.000000	0.001627	0.001641	28.0803	0.044206	0.002072	21.3312	160.599	-165.824	-0.011750	0.689318	-0.389277	-0.390552	0.005805	21.3312	-0.389482	-94569.2	-6.138167E-8	NaN
371	1.000000	0.698595	7.3687e+06	-57189.1	955.818	-29737.6	0.000000	0.000000	6.699020	-0.033456	NaN	0.000000	0.001578	0.001637	28.0798	0.090498	0.002045	44.2586	-152.355	-166.54	0.055778	0.697325	-0.381274	-0.382545	-0.033456	44.2586	-0.380707	-70801.2	4.725304E-7	NaN
371	1.000000	0.706597	7.3687e+06	-57189.1	955.818	-29737.6	0.000000	0.000000	6.707023	-0.021170	NaN	0.000000	0.001597	0.001639	28.0799	0.089591	0.001950	45.9483	-85.6618	-164.758	0.013414	0.705320	-0.373272	-0.374550	-0.021170	45.9483	-0.372926	-54733.3	3.867872E-7	NaN
371	1.000000	0.714618	7.3687e+06	-57189.1	955.818	-29737.6	0.000000	0.000000	6.715045	0.019273	NaN	0.000000	0.001617	0.001604	28.0799	0.071020	0.001921	36.9775	35.2872	-164.45	0.005352	0.713281	-0.365251	-0.366588	0.019273	36.9775	-0.365642	-42985.2	-4.483624E-7	NaN
371	1.000000	0.722650	7.3687e+06	-57189.1	955.818	-29737.6	0.000000	0.000000	6.723077	0.011418	NaN	0.000000	0.001632	0.001628	28.0797	0.049720	0.001971	25.2226	40.1006	-163.744	0.036301	0.721316	-0.357219	-0.358553	0.011418	25.2226	-0.357559	-32850.3	-3.475736E-7	NaN
371	1.000000	0.730608	7.3687e+06	-57189.1	955.817	-29737.6	0.000000	0.000000	6.731037	0.063294	NaN	0.000000	0.001641	0.001651	28.0802	0.027833	0.001977	14.0754	-18.3751	-168.987	0.057495	0.729346	-0.349261	-0.350523	0.063294	14.0754	-0.352634	-27874.6	-2.270672E-6	NaN
371	1.000000	0.738613	7.3687e+06	-57189.1	955.817	-29737.6	0.000000	0.000000	6.739040	0.004637	NaN	0.000000	0.001625	0.001633	28.081	0.066387	0.001955	33.9633	-147.214	-164.586	-0.063215	0.737265	-0.341256	-0.342605	0.004637	33.9633	-0.341358	-19113.8	-2.426125E-7	NaN
371	1.000000	0.746626	7.3687e+06	-57189.1	955.818	-29737.6	0.000000	0.000000	6.747052	-0.016465	NaN	0.000000	0.001635	0.001643	28.0812	0.055151	0.001985	27.7852	82.9975	-162.881	0.037379	0.745244	-0.333243	-0.334626	-0.016465	27.7852	-0.332799	-14335.5	1.148557E-6	NaN
371	1.000000	0.754627	7.3687e+06	-57189.1	955.818	-29737.6	0.000000	0.000000	6.755054	0.020485	NaN	0.000000	0.001722	0.001621	28.0811	0.031683	0.002079	15.2407	66.8167	-163.639	0.022050	0.753347	-0.325242	-0.326522	0.020485	15.2407	-0.326250	-11494.3	-1.782186E-6	NaN
371	1.000000	0.762640	7.3687e+06	-57189.1	955.819	-29737.6	0.000000	0.000000	6.763065	-0.023222	NaN	0.000000	0.001690	0.001596	28.0811	0.098527	0.002062	47.7875	154.331	-167.516	-0.046126	0.761354	-0.317229	-0.318516	-0.023222	47.7875	-0.316865	-8364.84	2.776155E-6	NaN
371	1.000000	0.770616	7.3687e+06	-57189.1	955.818	-29737.6	0.000000	0.000000	6.771045	0.080155	NaN	0.000000	0.001701	0.001632	28.0815	0.145203	0.001909	76.0798	159.59	-164.836	0.042564	0.769292	-0.309254	-0.310578	0.080155	76.0798	-0.310044	-6632.97	-1.208427E-5	NaN
371	1.000000	0.778614	7.3687e+06	-57189.1	955.818	-29737.6	0.000000	0.000000	6.779039	-0.021806	NaN	0.000000	0.001729	0.001646	28.0812	0.054049	0.001976	27.3575	-65.8087	-162.686	-0.026987	0.777333	-0.301256	-0.302536	-0.021806	27.3575	-0.300658	-4813.14	4.530423E-6	NaN
371	1.000000	0.786629	7.3687e+06	-57189.1	955.818	-29737.6	0.000000	0.000000	6.787057	0.026250	NaN	0.000000	0.001713	0.001644	28.0812	0.087709	0.002005	43.752	158.574	-166.101	0.017933	0.785301	-0.293240	-0.294568	0.026250	43.752	-0.293690	-3788.94	-6.927997E-6	NaN
371	1.000000	0.794635	7.3687e+06	-57189.1	955.818	-29737.6	0.000000	0.000000	6.795061	-0.004261	NaN	0.000000	0.001726	0.001637	28.0813	0.056236	0.001972	28.5121	-3.247465	-161.919	-0.020700	0.793374	-0.285234	-0.286496	-0.004261	28.5121	-0.285122	-2819.07	1.511423E-6	NaN
371	1.000000	0.802661	7.3687e+06	-57189.1	955.818	-29737.6	0.000000	0.000000	6.803087	-0.013249	NaN	0.000000	0.001709	0.001643	28.0812	0.081530	0.002003	40.7084	-8.376260	-166.486	-0.058989	0.801336	-0.277208	-0.278533	-0.013249	40.7084	-0.276964	-2123.84	6.238115E-6	NaN
371	1.000000	0.810629	7.3687e+06	-57189.1	955.818	-29737.6	0.000000	0.000000	6.811055	-0.014019	NaN	0.000000	0.001721	0.001650	28.0816	0.050013	0.002068	24.1886	-153.878	-166.917	0.058283	0.809293	-0.269240	-0.270576	-0.014019	24.1886	-0.268806	-1597.28	8.777055E-6	NaN
371	1.000000	0.818652	7.3687e+06	-57189.1	955.818	-29737.6	0.000000	0.000000	6.819076	-0.040607	NaN	0.000000	0.001709	0.001668	28.0814	0.089751	0.001854	48.4178	-153.894	-165.138	-0.040505	0.817325	-0.261218	-0.262544	-0.040607	48.4178	-0.260589	-1196.57	3.393639E-5	NaN
371	1.000000	0.826683	7.3687e+06	-57189.1	955.818	-29737.6	0.000000	0.000000	6.827109	-0.007394	NaN	0.000000	0.001639	0.001643	28.0816	0.120798	0.001863	64.8441	-76.9687	-161.573	-0.036580	0.825325	-0.253187	-0.254545	-0.007394	64.8441	-0.253101	-918.038	8.053734E-6	NaN
371	1.000000	0.834666	7.3687e+06	-57189.1	955.818	-29737.6	0.000000	0.000000	6.835095	0.061513	NaN	0.000000	0.001575	0.001663	28.0816	0.115071	0.002058	55.9236	89.0533	-165.92	0.018315	0.833404	-0.245204	-0.246465	0.061513	55.9236	-0.246029	-713.558	-8.620637E-5	NaN
371	1.000000	0.842654	7.3687e+06	-57189.1	955.818	-29737.6	0.000000	0.000000	6.843078	-0.059689	NaN	0.000000	0.001619	0.001689	28.0813	0.042225	0.001990	21.2169	-151.321	-165.676	-0.010773	0.841337	-0.237215	-0.238533	-0.059689	21.2169	-0.235105	-481.837	0.000124	NaN
371	1.000000	0.850624	7.3687e+06	-57189.1	955.818	-29737.6	0.000000	0.000000	6.851050	-0.004430	NaN	0.000000	0.001602	0.001677	28.0815	0.053578	0.002037	26.3018	-18.136	-163.982	0.001442	0.849281	-0.229246	-0.230588	-0.004430	26.3018	-0.229119	-387.795	1.142317E-5	NaN
371	1.000000	0.858653	7.3687e+06	-57189.1	955.819	-29737.6	0.000000	0.000000	6.859081	0.039070	NaN	0.000000	0.001598	0.001661	28.0812	0.129084	0.001902	67.8684	-136.533	-165.553	0.010666	0.857364	-0.221216	-0.222505	0.039070	67.8684	-0.221648	-295.109	-0.000132	NaN
371	1.000000	0.866657	7.3687e+06	-57189.1	955.817	-29737.6	0.000000	0.000000	6.867083	-0.008743	NaN	0.000000	0.001582	0.001680	28.0816	0.131155	0.001949	67.3003	22.4532	-162.07	0.022592	0.865326	-0.213212	-0.214543	-0.008743	67.3003	-0.213115	-215.354	4.059859E-5	NaN
371	1.000000	0.874663	7.3687e+06	-57189.1	955.819	-29737.6	0.000000	0.000000	6.875091	0.040704	NaN	0.000000	0.001627	0.001678	28.0803	0.096396	0.002029	47.5084	-57.257	-166.776	-0.008631	0.873375	-0.205207	-0.206494	0.040704	47.5084	-0.205849	-164.21	-0.000248	NaN
371	1.000000	0.882691	7.3687e+06	-57189.1	955.818	-29737.6	0.000000	0.000000	6.883119	0.033737	NaN	0.000000	0.001615	0.001667	28.08	0.059778	0.001848	32.3489	168.167	-166.018	-0.035851	0.881295	-0.197178	-0.198574	0.033737	32.3489	-0.197960	-121.934	-0.000277	NaN
371	1.000000	0.890700	7.3687e+06	-57189.1	955.819	-29737.6	0.000000	0.000000	6.891129	0.058856	NaN	0.000000	0.001609	0.001633	28.0801	0.007224	0.001988	3.633718	77.8354	-166.834	0.051926	0.889395	-0.189169	-0.190475	0.058856	3.633718	-0.201317	-138.46	-0.000425	NaN
371	1.000000	0.898669	7.3687e+06	-57189.1	955.819	-29737.6	0.000000	0.000000	6.899096	0.020071	NaN	0.000000	0.001622	0.001667	28.08	0.062221	0.002086	29.8264	42.7643	-165.511	0.088490	0.897377	-0.181200	-0.182492	0.020071	29.8264	-0.181705	-65.227	-0.000308	NaN
371	1.000000	0.906636	7.3687e+06	-57189.1	955.818	-29737.6	0.000000	0.000000	6.907063	0.011681	NaN	0.000000	0.001618	0.001700	28.0802	0.016187	0.002152	7.521786	177.62	-167.048	0.058251	0.905358	-0.173233	-0.174512	0.011681	7.521786	-0.174398	-48.9361	-0.000239	NaN
371	1.000000	0.914687	7.3687e+06	-57189.1	955.819	-29737.6	0.000000	0.000000	6.915111	-0.073779	NaN	0.000000	0.001617	0.001655	28.0802	0.125218	0.002092	59.85	-12.0184	-164.903	-0.026462	0.913377	-0.165182	-0.166492	-0.073779	59.85	-0.164258	-32.6029	0.002263	NaN
371	1.000000	0.922673	7.3687e+06	-57189.1	955.818	-29737.6	0.000000	0.000000	6.923098	-0.006588	NaN	0.000000	0.001656	0.001676	28.0804	0.045909	0.001882	24.3952	-0.150263	-164.588	0.075144	0.921374	-0.157197	-0.158496	-0.006588	24.3952	-0.156994	-24.2313	0.000272	NaN
371	1.000000	0.930706	7.3687e+06	-57189.1	955.818	-29737.6	0.000000	0.000000	6.931132	0.003306	NaN	0.000000	0.001646	0.001686	28.0801	0.078784	0.001875	42.0116	88.8068	-163.084	0.022202	0.929394	-0.149163	-0.150476	0.003306	42.0116	-0.149222	-17.531	-0.000189	NaN
371	1.000000	0.938648	7.3687e+06	-57189.1	955.818	-29737.6	0.000000	0.000000	6.939075	0.020674	NaN	0.000000	0.001656	0.001696	28.0803	0.035508	0.002000	17.7537	-2.382569	-162.014	0.105897	0.937402	-0.141221	-0.142467	0.020674	17.7537	-0.142094	-12.9473	-0.001597	NaN
371	1.000000	0.946689	7.3687e+06	-57189.1	955.819	-29737.6	0.000000	0.000000	6.947119	0.071847	NaN	0.000000	0.001649	0.001712	28.0804	0.002220	0.002078	1.068338	143.782	-162.344	0.040205	0.945375	-0.133180	-0.134495	0.071847	1.068338	-0.183618	-70.2775	-0.001022	NaN
371	1.000000	0.954676	7.3687e+06	-57189.1	955.818	-29737.6	0.000000	0.000000	6.955103	0.029817	NaN	0.000000	0.001612	0.001682	28.0803	0.023658	0.002078	11.385	-7.164679	-163.089	-0.001520	0.953348	-0.125194	-0.126522	0.029817	11.385	-0.127158	-6.706848	-0.004446	NaN
371	1.000000	0.962701	7.3687e+06	-57189.1	955.819	-29737.6	0.000000	0.000000	6.963128	0.007606	NaN	0.000000	0.001668	0.001658	28.0807	0.056585	0.002068	27.3651	144.03	-164.136	0.031160	0.961349	-0.117168	-0.118520	0.007606	27.3651	-0.117376	-4.274094	-0.001780	NaN
371	1.000000	0.970689	7.3687e+06	-57189.1	955.819	-29737.6	0.000000	0.000000	6.971115	-0.023603	NaN	0.000000	0.001683	0.001657	28.0804	0.187999	0.002051	91.679	-164.212	-165.053	-0.019877	0.969384	-0.109180	-0.110485	-0.023603	91.679	-0.108987	-2.860642	0.008251	NaN
371	1.000000	0.978714	7.3687e+06	-57189.1	955.819	-29737.6	0.000000	0.000000	6.979139	-0.009267	NaN	0.000000	0.001691	0.001622	28.0805	0.042629	0.001944	21.9249	-39.7291	-166.444	-0.042038	0.977435	-0.101156	-0.102434	-0.009267	21.9249	-0.100839	-1.906890	0.004860	NaN
371	1.000000	0.986705	7.3687e+06	-57189.1	955.819	-29737.6	0.000000	0.000000	6.987131	0.003833	NaN	0.000000	0.001732	0.001660	28.0805	0.022400	0.002002	11.1868	91.6099	-164.131	0.065567	0.985488	-0.093165	-0.094381	0.003833	11.1868	-0.093422	-1.298030	-0.002953	NaN
371	1.000000	0.994716	7.3687e+06	-57189.1	955.819	-29737.6	0.000000	0.000000	6.995143	0.002458	NaN	0.000000	0.001691	0.001619	28.0805	0.079853	0.001931	41.3477	122.742	-166.857	-0.022792	0.993333	-0.085153	-0.086537	0.002458	41.3477	-0.085198	-0.830731	-0.002958	NaN
371	1.000000	1.002722	7.3687e+06	-57189.1	955.819	-29737.6	0.000000	0.000000	7.003148	0.003614	NaN	0.000000	0.001729	0.001629	28.0804	0.064142	0.001913	33.5231	9.170544	-166.442	-0.060944	1.001382	-0.077148	-0.078488	0.003614	33.5231	-0.077229	-0.526907	-0.006859	NaN
371	1.000000	1.010747	7.3687e+06	-57189.1	955.819	-29737.6	0.000000	0.000000	7.011172	-0.021358	NaN	0.000000	0.001694	0.001662	28.0809	0.019787	0.001845	10.7251	137.274	-164.806	-0.083544	1.009407	-0.069123	-0.070463	-0.021358	10.7251	-0.067629	-0.294339	0.072562	NaN
371	1.000000	1.018703	7.3687e+06	-57189.1	955.819	-29737.6	0.000000	0.000000	7.019128	-0.017477	NaN	0.000000	0.001697	0.001620	28.0818	0.017450	0.002124	8.214175	116.988	-166.294	0.031722	1.017422	-0.061166	-0.062448	-0.017477	8.214175	-0.059571	-0.175052	0.099837	NaN
371	1.000000	1.026711	7.3687e+06	-57189.1	955.818	-29737.6	0.000000	0.000000	7.027139	0.022506	NaN	0.000000	0.001666	0.001647	28.0815	0.062039	0.002067	30.0148	128.602	-160.967	0.057240	1.025441	-0.053158	-0.054428	0.022506	30.0148	-0.053720	-0.118002	-0.190727	NaN
371	1.000000	1.034741	7.3687e+06	-57189.1	955.817	-29737.6	0.000000	0.000000	7.035169	0.022756	NaN	0.000000	0.001708	0.001648	28.082	0.036402	0.001770	20.5652	-139.717	-165.411	0.005786	1.033401	-0.045128	-0.046468	0.022756	20.5652	-0.045958	-0.068751	-0.330996	NaN
371	1.000000	1.042741	7.3687e+06	-57189.1	955.819	-29737.6	0.000000	0.000000	7.043166	-0.030098	NaN	0.000000	0.001708	0.001633	28.0817	0.085711	0.002020	42.4213	-71.6904	-164.101	-0.027892	1.041372	-0.037128	-0.038497	-0.030098	42.4213	-0.036596	-0.035710	0.842838	NaN
371	1.000000	1.050746	7.3687e+06	-57189.1	955.818	-29737.6	0.000000	0.000000	7.051174	0.064230	NaN	0.000000	0.001646	0.001643	28.0815	0.016728	0.001981	8.442701	-80.6084	-167.391	-0.062204	1.049437	-0.029124	-0.030433	0.064230	8.442701	-0.034830	-0.031657	-2.028943	NaN
371	1.000000	1.058735	7.3687e+06	-57189.1	955.818	-29737.6	0.000000	0.000000	7.059161	-0.008834	NaN	0.000000	0.001667	0.001731	28.0819	0.081720	0.001993	41.0086	-37.6087	-167.134	-0.035851	1.057410	-0.021135	-0.022459	-0.008834	41.0086	-0.020973	-0.013297	0.664322	NaN
371	1.000000	1.066732	7.3687e+06	-57189.1	955.818	-29737.6	0.000000	0.000000	7.067159	0.032353	NaN	0.000000	0.001699	0.001718	28.0814	0.047239	0.001932	24.4532	90.3861	-165.568	0.061886	1.065385	-0.013138	-0.014484	0.032353	24.4532	-0.014130	-0.008760	-3.693482	NaN
371	1.000000	1.074755	7.3687e+06	-57189.1	955.819	-29737.6	0.000000	0.000000	7.075182	0.010508	NaN	0.000000	0.001731	0.001740	28.0814	0.132140	0.002000	66.0753	-31.0935	-164.463	-0.031663	1.073452	-0.005114	-0.006417	0.010508	66.0753	-0.005233	-0.003563	-2.949364	NaN
371	1.000000	1.082707	7.3687e+06	-57189.1	955.818	-29737.6	0.000000	0.000000	7.083239	2.553472	NaN	0.000000	0.001695	0.001730	28.0815	3.189019	0.001749	1823.03	1.007578	-163.478	1.042129	1.081426	0.002838	0.001557	2.553472	1823.03	0.001788	0.001384	1845.37	44775.8
371	2.000000	1.089228	7.3687e+06	-57189.1	955.82	-29737.6	0.000000	0.000000	7.090098	10.7791	NaN	0.000000	0.001671	0.001694	28.0814	9.366816	0.001521	6157.15	4.759711	-171.088	10.3446	1.088849	0.009359	0.008980	10.7791	6157.15	0.008046	0.007090	1520.4	66809.7
371	2.000000	1.091229	7.3687e+06	-57189.1	955.819	-29737.6	0.000000	0.000000	7.092238	14.1549	NaN	0.000000	0.001682	0.001708	28.0827	12.0852	0.001674	7219.66	5.317541	-173.737	13.4225	1.090879	0.011359	0.011010	14.1549	7219.66	0.009889	0.009058	1562.62	69304.9
371	2.000000	1.093288	7.3687e+06	-57189.1	955.819	-29737.6	0.000000	0.000000	7.094429	17.3709	NaN	0.000000	0.001678	0.001676	28.0814	14.1181	0.001781	7927.74	2.707537	-170.279	17.7408	1.092919	0.013419	0.013049	17.3709	7927.74	0.011775	0.011222	1547.9	68372.8
371	2.000000	1.095165	7.3687e+06	-57189.1	955.818	-29737.6	0.000000	0.000000	7.096496	22.0106	NaN	0.000000	0.001707	0.001668	28.0812	16.0036	0.001740	9196.98	5.100752	-174.139	21.3237	1.094880	0.015295	0.015010	22.0106	9196.98	0.013500	0.013337	1650.31	72758.9
371	2.000000	1.097168	7.3687e+06	-57189.1	955.819	-29737.6	0.000000	0.000000	7.098634	25.2678	NaN	0.000000	0.001682	0.001676	28.0812	18.5613	0.001823	10182.5	4.654852	-174.986	23.9176	1.096904	0.017298	0.017035	25.2678	10182.5	0.015437	0.015873	1591.9	73841.9
371	2.000000	1.099140	7.3687e+06	-57189.1	955.818	-29737.6	0.000000	0.000000	7.100785	29.622	NaN	0.000000	0.001675	0.001662	28.0813	19.9015	0.001773	11223.3	6.268201	-176.737	27.7591	1.098848	0.019271	0.018978	29.622	11223.3	0.017291	0.018464	1604.36	75463.8
371	2.000000	1.101182	7.3687e+06	-57189.1	955.818	-29737.6	0.000000	0.000000	7.102939	32.3519	NaN	0.000000	0.001585	0.001725	28.0819	22.479	0.001749	12855	7.238766	-178.922	32.1108	1.100835	0.021312	0.020965	32.3519	12855	0.019425	0.021646	1494.56	79827.6
371	2.000000	1.103179	7.3687e+06	-57189.1	955.818	-29737.6	0.000000	0.000000	7.105241	39.7647	NaN	0.000000	0.001577	0.001704	28.0809	24.5675	0.001831	13420	4.256721	-176.236	38.8516	1.102836	0.023309	0.022967	39.7647	13420	0.021087	0.024280	1637.79	78687.7
371	2.000000	1.105089	7.3687e+06	-57189.1	955.818	-29737.6	0.000000	0.000000	7.107325	43.9833	NaN	0.000000	0.001584	0.001732	28.0804	25.9051	0.001743	14859	6.013529	-178.915	40.8919	1.104814	0.025219	0.024945	43.9833	14859	0.022999	0.027476	1600.79	81900.4
371	2.000000	1.107157	7.3687e+06	-57189.1	955.817	-29737.6	0.000000	0.000000	7.109616	49.4104	NaN	0.000000	0.001583	0.001719	28.0802	29.0079	0.001973	14703.1	7.912175	-179.839	49.3336	1.106887	0.027288	0.027017	49.4104	14703.1	0.024767	0.030594	1615.04	76800.8
371	2.000000	1.109169	7.3687e+06	-57189.1	955.818	-29737.6	0.000000	0.000000	7.111887	55.6825	NaN	0.000000	0.001605	0.001727	28.0802	30.2127	0.001836	16456.6	6.701915	179.93	56.0052	1.108812	0.029300	0.028942	55.6825	16456.6	0.026762	0.034300	1623.41	81183.4
371	2.000000	1.111135	7.3687e+06	-57189.1	955.817	-29737.6	0.000000	0.000000	7.114057	60.6739	NaN	0.000000	0.001615	0.001769	28.0807	31.4634	0.001782	17655.4	8.664461	176.753	59.603	1.110832	0.031265	0.030963	60.6739	17655.4	0.028688	0.038068	1593.85	82674.6
371	2.000000	1.113148	7.3687e+06	-57189.1	955.818	-29737.6	0.000000	0.000000	7.116286	65.915	NaN	0.000000	0.001604	0.001733	28.0802	33.1325	0.001758	18841.7	4.540806	-178.959	66.4972	1.112834	0.033278	0.032964	65.915	18841.7	0.030655	0.042112	1565.24	83886.4
371	2.000000	1.115099	7.3687e+06	-57189.1	955.817	-29737.6	0.000000	0.000000	7.118470	71.5803	NaN	0.000000	0.001596	0.001754	28.0805	35.4785	0.001820	19490.7	6.867107	177.942	68.4061	1.114796	0.035229	0.034927	71.5803	19490.7	0.032475	0.046030	1555.09	83000.7
371	2.000000	1.117201	7.3687e+06	-57189.1	955.818	-29737.6	0.000000	0.000000	7.120716	75.0677	NaN	0.000000	0.001635	0.001747	28.0802	37.0744	0.001773	20905.2	4.688831	-179.965	77.2243	1.116873	0.037332	0.037003	75.0677	20905.2	0.034638	0.050908	1474.59	84651.7
371	2.000000	1.119086	7.3687e+06	-57189.1	955.818	-29737.6	0.000000	0.000000	7.123027	85.4374	NaN	0.000000	0.001638	0.001744	28.0802	37.6859	0.001732	21757.9	1.550656	-178.123	82.8014	1.118771	0.039217	0.038902	85.4374	21757.9	0.036271	0.054748	1560.56	84958.5
371	2.000000	1.121112	7.3687e+06	-57189.1	955.818	-29737.6	0.000000	0.000000	7.125355	92.7638	NaN	0.000000	0.001624	0.001707	28.0807	39.9027	0.001779	22430.5	7.269440	176.326	91.3258	1.120743	0.041242	0.040874	92.7638	22430.5	0.038141	0.059312	1564.01	84147.8
371	2.000000	1.123176	7.3687e+06	-57189.1	955.818	-29737.6	0.000000	0.000000	7.127700	99.5834	NaN	0.000000	0.001645	0.001732	28.0804	42.3016	0.001818	23273.4	5.286479	178.32	101.061	1.122767	0.043307	0.042898	99.5834	23273.4	0.040098	0.064281	1549.18	83867
371	2.000000	1.125063	7.3687e+06	-57189.1	955.819	-29737.6	0.000000	0.000000	7.130070	111.339	NaN	0.000000	0.001601	0.001719	28.0807	43.1183	0.001638	26324.2	4.499091	178.031	107.4	1.124671	0.045193	0.044801	111.339	26324.2	0.042021	0.069356	1605.33	91324.3
371	2.000000	1.127092	7.3687e+06	-57189.1	955.818	-29737.6	0.000000	0.000000	7.132259	115.226	NaN	0.000000	0.001612	0.001722	28.0804	47.102	0.001803	26128.5	6.506009	175.342	113.584	1.126809	0.047222	0.046940	115.226	26128.5	0.043915	0.074536	1545.91	87438.6
371	2.000000	1.129064	7.3687e+06	-57189.1	955.817	-29737.6	0.000000	0.000000	7.134682	126.198	NaN	0.000000	0.001610	0.001718	28.0803	46.9483	0.001664	28220.8	3.984820	177.574	123.443	1.128756	0.049194	0.048887	126.198	28220.8	0.045840	0.079991	1577.65	91163.8
371	2.000000	1.131078	7.3687e+06	-57189.1	955.818	-29737.6	0.000000	0.000000	7.137024	134.156	NaN	0.000000	0.001611	0.001747	28.0807	50.2045	0.001781	28184.9	5.893024	175.253	132.296	1.130821	0.051209	0.050952	134.156	28184.9	0.047639	0.085256	1573.57	88191.6
371	2.000000	1.133130	7.3687e+06	-57189.1	955.818	-29737.6	0.000000	0.000000	7.139338	140.512	NaN	0.000000	0.001633	0.001734	28.0802	52.2011	0.001859	28079.7	6.524774	176.378	139.601	1.132751	0.053261	0.052882	140.512	28079.7	0.049508	0.090898	1545.81	85091.6
371	2.000000	1.135109	7.3687e+06	-57189.1	955.817	-29737.6	0.000000	0.000000	7.141668	149.069	NaN	0.000000	0.001610	0.001735	28.0806	53.208	0.001699	31313.5	4.809771	175.612	149.144	1.134743	0.055239	0.054873	149.069	31313.5	0.051669	0.097641	1526.71	91556.4
371	2.000000	1.137062	7.3687e+06	-57189.1	955.817	-29737.6	0.000000	0.000000	7.143894	155.693	NaN	0.000000	0.001602	0.001723	28.0804	55.9685	0.001773	31574.4	1.913179	178.608	153.145	1.136840	0.057192	0.056970	155.693	31574.4	0.053494	0.103519	1504.01	89660.2
371	2.000000	1.139097	7.3687e+06	-57189.1	955.817	-29737.6	0.000000	0.000000	7.146477	169.013	NaN	0.000000	0.001578	0.001761	28.0814	57.1401	0.001803	31689.6	3.893947	176.878	168.053	1.138789	0.059228	0.058920	169.013	31689.6	0.055228	0.109254	1546.97	87593.3
371	2.000000	1.141109	7.3687e+06	-57189.1	955.817	-29737.6	0.000000	0.000000	7.148873	178.336	NaN	0.000000	0.001603	0.001746	28.0814	59.6731	0.001711	34878	6.088554	173.766	177.721	1.140743	0.061240	0.060873	178.336	34878	0.057405	0.116668	1528.58	93292.8
371	2.000000	1.143094	7.3687e+06	-57189.1	955.818	-29737.6	0.000000	0.000000	7.151286	188.758	NaN	0.000000	0.001651	0.001768	28.0813	61.2411	0.001816	33719.6	2.286437	178.347	188.423	1.142857	0.063224	0.062988	188.758	33719.6	0.059026	0.122338	1542.93	88079.5
371	2.000000	1.145094	7.3687e+06	-57189.1	955.818	-29737.6	0.000000	0.000000	7.153632	197.142	NaN	0.000000	0.001615	0.001769	28.0816	64.0248	0.001915	33432	8.266194	171.74	195.29	1.144658	0.065225	0.064789	197.142	33432	0.060802	0.128701	1531.78	85142.1
371	2.000000	1.147095	7.3687e+06	-57189.1	955.817	-29737.6	0.000000	0.000000	7.156308	213.543	NaN	0.000000	0.001652	0.001765	28.0814	65.4631	0.001870	35002.1	4.972773	174.791	211.582	1.146723	0.067226	0.066854	213.543	35002.1	0.062650	0.135484	1576.16	86880.9
371	2.000000	1.149101	7.3687e+06	-57189.1	955.817	-29737.6	0.000000	0.000000	7.158938	228.726	NaN	0.000000	0.001589	0.001735	28.0814	65.6445	0.001782	36836	3.099614	176.53	228.877	1.148720	0.069232	0.068850	228.726	36836	0.064575	0.142722	1602.6	89084
371	2.000000	1.151103	7.3687e+06	-57189.1	955.817	-29737.6	0.000000	0.000000	7.161056	231.538	NaN	0.000000	0.001585	0.001746	28.0813	68.6529	0.001726	39781.4	7.264270	171.582	232.259	1.150717	0.071234	0.070848	231.538	39781.4	0.066869	0.151583	1527.46	93352.8
371	2.000000	1.153115	7.3687e+06	-57189.1	955.817	-29737.6	0.000000	0.000000	7.163748	248.061	NaN	0.000000	0.001618	0.001749	28.0816	71.021	0.001778	39934	7.787494	171.876	247.952	1.152717	0.073246	0.072848	248.061	39934	0.068587	0.158388	1566.16	91676.1
371	2.000000	1.154996	7.3687e+06	-57189.1	955.817	-29737.6	0.000000	0.000000	7.165756	251.153	NaN	0.000000	0.001606	0.001735	28.0817	71.3648	0.001718	41537.6	-0.353082	178.628	246.696	1.154930	0.075127	0.075061	251.153	41537.6	0.070592	0.166503	1508.4	93004.2
371	2.000000	1.157091	7.3687e+06	-57189.1	955.818	-29737.6	0.000000	0.000000	7.168586	269.02	NaN	0.000000	0.001615	0.001726	28.0814	74.0028	0.001766	41895.2	3.107372	174.804	268.244	1.156852	0.077221	0.076983	269.02	41895.2	0.072405	0.174011	1546	91759.2
371	2.000000	1.159092	7.3687e+06	-57189.1	955.817	-29737.6	0.000000	0.000000	7.171240	284.889	NaN	0.000000	0.001594	0.001802	28.0815	74.8199	0.001765	42402.1	4.337452	173.598	284.862	1.158697	0.079223	0.078827	284.889	42402.1	0.074184	0.181523	1569.44	90927.5
371	2.000000	1.161090	7.3687e+06	-57189.1	955.817	-29737.6	0.000000	0.000000	7.173827	299.206	NaN	0.000000	0.001592	0.001729	28.0811	77.9264	0.001704	45722.7	4.981685	173.237	300.564	1.160751	0.081221	0.080882	299.206	45722.7	0.076313	0.190712	1568.89	95657
371	2.000000	1.163168	7.3687e+06	-57189.1	955.817	-29737.6	0.000000	0.000000	7.176413	311.553	NaN	0.000000	0.001571	0.001728	28.0813	80.7739	0.001826	44244	7.097894	172.051	313.858	1.162683	0.083299	0.082814	311.553	44244	0.078017	0.198222	1571.73	90792.9
371	2.000000	1.165008	7.3687e+06	-57189.1	955.818	-29737.6	0.000000	0.000000	7.178721	322.944	NaN	0.000000	0.001643	0.001705	28.0812	82.236	0.001890	43510.3	4.753540	173.108	318.894	1.164751	0.085138	0.084881	322.944	43510.3	0.079572	0.205188	1573.89	87758.4
371	2.000000	1.167044	7.3687e+06	-57189.1	955.817	-29737.6	0.000000	0.000000	7.181276	335.561	NaN	0.000000	0.001600	0.001741	28.0812	83.2492	0.001743	47749.9	2.951050	174.152	333.475	1.166692	0.087174	0.086823	335.561	47749.9	0.081904	0.215852	1554.58	93900.5
371	2.000000	1.169098	7.3687e+06	-57189.1	955.817	-29737.6	0.000000	0.000000	7.183993	351.673	NaN	0.000000	0.001576	0.001759	28.0809	85.3432	0.001821	46873	5.879006	171.786	354.249	1.168745	0.089228	0.088876	351.673	46873	0.083601	0.223775	1571.55	90529.5
371	2.000000	1.171019	7.3687e+06	-57189.1	955.817	-29737.6	0.000000	0.000000	7.186691	370.549	NaN	0.000000	0.001570	0.001708	28.0802	86.8121	0.001717	50555.8	7.401927	169.743	367.832	1.170668	0.091150	0.090799	370.549	50555.8	0.085653	0.233526	1586.76	95582.1
371	2.000000	1.173152	7.3687e+06	-57189.1	955.817	-29737.6	0.000000	0.000000	7.189385	384.2	NaN	0.000000	0.001592	0.001779	28.0794	89.9127	0.001821	49383.1	8.564412	169.566	386.715	1.172691	0.093282	0.092821	384.2	49383.1	0.087447	0.242215	1586.19	91675
371	2.000000	1.175089	7.3687e+06	-57189.1	955.817	-29737.6	0.000000	0.000000	7.191878	397.698	NaN	0.000000	0.001624	0.001750	28.0797	91.1214	0.001887	48277.1	10.1792	167.786	399.391	1.174629	0.095220	0.094759	397.698	48277.1	0.089041	0.250057	1590.43	88205.4
371	2.000000	1.177002	7.3687e+06	-57189.1	955.816	-29737.6	0.000000	0.000000	7.194555	416.267	NaN	0.000000	0.001663	0.001754	28.0795	92.2488	0.001710	53945	3.965276	172.295	413.807	1.176649	0.097132	0.096780	416.267	53945	0.091345	0.261597	1591.25	96362.4
371	2.000000	1.178968	7.3687e+06	-57189.1	955.816	-29737.6	0.000000	0.000000	7.196900	425.479	NaN	0.000000	0.001637	0.001774	28.08	92.2903	0.001649	55974.8	2.385974	173.558	421.552	1.178872	0.099099	0.099003	425.479	55974.8	0.093398	0.272085	1563.77	98042.2
371	2.000000	1.181064	7.3687e+06	-57189.1	955.816	-29737.6	0.000000	0.000000	7.199886	447.121	NaN	0.000000	0.001617	0.001751	28.0795	97.8674	0.001835	53337.9	4.991408	171.937	447.472	1.180657	0.101194	0.100788	447.121	53337.9	0.094907	0.279919	1597.32	92107
371	2.000000	1.183047	7.3687e+06	-57189.1	955.817	-29737.6	0.000000	0.000000	7.202748	468.485	NaN	0.000000	0.001691	0.001778	28.0794	99.9038	0.001884	53030.5	4.700298	172.721	466.399	1.182688	0.103178	0.102818	468.485	53030.5	0.096552	0.288573	1623.45	90192.6
371	2.000000	1.184926	7.3687e+06	-57189.1	955.816	-29737.6	0.000000	0.000000	7.205292	484.626	NaN	0.000000	0.001663	0.001754	28.0794	100.929	0.001828	55201.9	4.400148	172.1	477.02	1.184647	0.105057	0.104777	484.626	55201.9	0.098472	0.298835	1621.72	92259.6
371	2.000000	1.187127	7.3687e+06	-57189.1	955.817	-29737.6	0.000000	0.000000	7.207764	491.217	NaN	0.000000	0.001672	0.001728	28.0794	103.497	0.001807	57263.8	2.801242	173.814	494.886	1.186856	0.107257	0.106987	491.217	57263.8	0.100824	0.311629	1576.29	93720.4