File: remote_trans/data/nanoindenter/0828-1/data/Data_2025-08-06,11h17m57s/2025-07-22_16-23-58_1_279.txt
2025-07-22, 16:23:58, 1
Index	Phase	Displacement	Time	Pos X	Pos Y	Pos Z	Rot A	Rot B	Piezo Z	Force A	Force B	Gripper	Voltage A	Voltage B	Temperature	Amplitude force	Amplitude pos	Stiffness	Phase shift	Phase excitation	Force A raw	Displacement raw	HMax	HMax raw	Real Force	Real Stiffness	Contact Depth	Area	Hardness	Reduced Mod.
[#]	[#]	[um]	[s]	[um]	[um]	[um]	[m°]	[m°]	[um]	[uN]	[uN]	[V]	[V]	[V]	[°C]	[uN]	[um]	[N/m]	[°]	[°]	[uN]	[um]	[um]	[um]	[uN]	[N/m]	[um]	[um^2]	[MPa]	[MPa]
279	1.000000	0.002911	7.36778e+06	-52589.1	955.818	-29749.1	0.000000	0.000000	6.002827	0.065718	NaN	0.000000	0.001605	0.001738	28.0804	0.041741	0.000962	43.3804	121.802	-170.122	0.022995	0.001634	-1.091491	-1.092767	0.065718	43.3804	-1.092627	-3.991023E+14	-1.646652E-16	NaN
279	1.000000	0.012942	7.36778e+06	-52589.1	955.817	-29749.1	0.000000	0.000000	6.012857	0.036789	NaN	0.000000	0.001585	0.001695	28.0817	0.048399	0.001224	39.5551	-61.3443	23.5942	0.038174	0.011552	-1.081459	-1.082849	0.036789	39.5551	-1.082157	-2.887273E+14	-1.274188E-16	NaN
279	1.000000	0.022847	7.36778e+06	-52589.1	955.819	-29749.1	0.000000	0.000000	6.022759	-0.025660	NaN	0.000000	0.001621	0.001755	28.0815	0.098982	0.001660	59.6106	-69.4991	-165.439	-0.069961	0.021535	-1.071554	-1.072867	-0.025660	59.6106	-1.071232	-2.059373E+14	1.246034E-16	NaN
279	1.000000	0.032855	7.36778e+06	-52589.1	955.818	-29749.1	0.000000	0.000000	6.032768	0.012035	NaN	0.000000	0.001603	0.001726	28.0816	0.052465	0.001957	26.8084	-94.9621	15.1208	-0.022171	0.031483	-1.061547	-1.062918	0.012035	26.8084	-1.061883	-1.542169E+14	-7.803875E-17	NaN
279	1.000000	0.042845	7.36778e+06	-52589.1	955.819	-29749.1	0.000000	0.000000	6.042757	-0.026252	NaN	0.000000	0.001575	0.001686	28.0819	0.065118	0.001928	33.7706	82.7928	-168.001	-0.004031	0.041510	-1.051557	-1.052892	-0.026252	33.7706	-1.050973	-1.100272E+14	2.385981E-16	NaN
279	1.000000	0.052848	7.36778e+06	-52589.1	955.818	-29749.1	0.000000	0.000000	6.052761	-0.016048	NaN	0.000000	0.001599	0.001666	28.0816	0.216583	0.001911	113.315	178.978	11.1027	0.030461	0.051478	-1.041553	-1.042923	-0.016048	113.315	-1.041447	-8.192695E+13	1.958854E-16	NaN
279	1.000000	0.062843	7.36778e+06	-52589.1	955.819	-29749.1	0.000000	0.000000	6.062753	-0.057029	NaN	0.000000	0.001567	0.001692	28.0815	0.123699	0.001833	67.4682	-112.498	-166.859	-0.093186	0.061512	-1.031559	-1.032889	-0.057029	67.4682	-1.030925	-5.914531E+13	9.642223E-16	NaN
279	1.000000	0.072828	7.36778e+06	-52589.1	955.819	-29749.1	0.000000	0.000000	6.072741	-0.012556	NaN	0.000000	0.001575	0.001688	28.0818	0.060685	0.001949	31.1407	103.551	15.27	-0.002016	0.071498	-1.021574	-1.022903	-0.012556	31.1407	-1.021271	-4.385862E+13	2.862757E-16	NaN
279	1.000000	0.082867	7.36778e+06	-52589.1	955.818	-29749.1	0.000000	0.000000	6.082777	-0.078362	NaN	0.000000	0.001573	0.001713	28.0819	0.062871	0.001950	32.2365	-13.6463	-168.284	-0.039998	0.081557	-1.011535	-1.012845	-0.078362	32.2365	-1.009712	-3.065486E+13	2.556253E-15	NaN
279	1.000000	0.092842	7.36778e+06	-52589.1	955.817	-29749.1	0.000000	0.000000	6.092755	-0.002164	NaN	0.000000	0.001592	0.001677	28.0818	0.089606	0.001941	46.166	-67.8523	11.9974	0.012689	0.091504	-1.001559	-1.002898	-0.002164	46.166	-1.001524	-2.378419E+13	9.100519E-17	NaN
279	1.000000	0.102841	7.36778e+06	-52589.1	955.818	-29749.1	0.000000	0.000000	6.102756	0.030978	NaN	0.000000	0.001612	0.001713	28.0819	0.126805	0.001911	66.3537	-17.2844	-167.39	0.019994	0.101531	-0.991560	-0.992870	0.030978	66.3537	-0.991910	-1.765385E+13	-1.754729E-15	NaN
279	1.000000	0.112876	7.36778e+06	-52589.1	955.819	-29749.1	0.000000	0.000000	6.112786	-0.059507	NaN	0.000000	0.001595	0.001707	28.0816	0.109720	0.002077	52.8147	-145.091	15.3291	-0.013598	0.111483	-0.981526	-0.982918	-0.059507	52.8147	-0.980681	-1.246184E+13	4.775152E-15	NaN
279	1.000000	0.122852	7.36778e+06	-52589.1	955.818	-29749.1	0.000000	0.000000	6.122761	-0.109741	NaN	0.000000	0.001628	0.001718	28.0816	0.070851	0.002077	34.1097	62.8385	-164.932	-0.029423	0.121558	-0.971549	-0.972843	-0.109741	34.1097	-0.969136	-8.710142E+12	1.259919E-14	NaN
279	1.000000	0.132878	7.36778e+06	-52589.1	955.819	-29749.1	0.000000	0.000000	6.132790	-0.025197	NaN	0.000000	0.001623	0.001689	28.0818	0.048741	0.001940	25.1208	-147.527	14.7672	0.016443	0.131587	-0.961523	-0.962815	-0.025197	25.1208	-0.960771	-6.718356E+12	3.750532E-15	NaN
279	1.000000	0.142861	7.36778e+06	-52589.1	955.818	-29749.1	0.000000	0.000000	6.142774	-0.006609	NaN	0.000000	0.001638	0.001705	28.0807	0.066797	0.002110	31.6578	118.222	-167.465	0.027468	0.141552	-0.951541	-0.952849	-0.006609	31.6578	-0.951384	-5.019870E+12	1.316663E-15	NaN
279	1.000000	0.152872	7.36778e+06	-52589.1	955.82	-29749.1	0.000000	0.000000	6.152783	-0.054842	NaN	0.000000	0.001608	0.001653	28.0803	0.042136	0.001945	21.6661	31.6781	14.8706	-0.060902	0.151526	-0.941529	-0.942875	-0.054842	21.6661	-0.939631	-3.484610E+12	1.573825E-14	NaN
279	1.000000	0.162894	7.36778e+06	-52589.1	955.819	-29749.1	0.000000	0.000000	6.162805	-0.056070	NaN	0.000000	0.001601	0.001683	28.08	0.071265	0.001901	37.4846	19.6783	-169.705	-0.087367	0.161569	-0.931507	-0.932833	-0.056070	37.4846	-0.930385	-2.614559E+12	2.144528E-14	NaN
279	1.000000	0.172877	7.36778e+06	-52589.1	955.818	-29749.1	0.000000	0.000000	6.172789	-0.030256	NaN	0.000000	0.001605	0.001679	28.0801	0.050063	0.001906	26.2705	-106.576	14.6489	-0.020852	0.171555	-0.921525	-0.922846	-0.030256	26.2705	-0.920661	-1.932541E+12	1.565609E-14	NaN
279	1.000000	0.182894	7.36778e+06	-52589.1	955.818	-29749.1	0.000000	0.000000	6.182808	0.015714	NaN	0.000000	0.001584	0.001664	28.0802	0.065079	0.001947	33.4311	-26.7593	-164.027	0.034498	0.181566	-0.911508	-0.912835	0.015714	33.4311	-0.911860	-1.469892E+12	-1.069032E-14	NaN
279	1.000000	0.192904	7.36778e+06	-52589.1	955.818	-29749.1	0.000000	0.000000	6.192818	0.004575	NaN	0.000000	0.001606	0.001700	28.0803	0.045379	0.001966	23.0777	73.6752	14.03	0.005945	0.191541	-0.901497	-0.902860	0.004575	23.0777	-0.901646	-1.069803E+12	-4.276660E-15	NaN
279	1.000000	0.202917	7.36778e+06	-52589.1	955.818	-29749.1	0.000000	0.000000	6.202829	-0.023476	NaN	0.000000	0.001565	0.001679	28.0801	0.049404	0.002146	23.0213	-95.7145	-164.208	0.007677	0.201574	-0.891484	-0.892828	-0.023476	23.0213	-0.890720	-7.614505E+11	3.083031E-14	NaN
279	1.000000	0.212896	7.36778e+06	-52589.1	955.819	-29749.1	0.000000	0.000000	6.212808	-0.034597	NaN	0.000000	0.001600	0.001699	28.0801	0.037726	0.002140	17.6315	44.9271	14.2438	0.026853	0.211506	-0.881505	-0.882895	-0.034597	17.6315	-0.880034	-5.459630E+11	6.336820E-14	NaN
279	1.000000	0.222881	7.36778e+06	-52589.1	955.818	-29749.1	0.000000	0.000000	6.222791	-0.074679	NaN	0.000000	0.001593	0.001665	28.08	0.054527	0.002010	27.1276	128.531	-168.932	-0.109653	0.221603	-0.871521	-0.872798	-0.074679	27.1276	-0.869456	-3.927219E+11	1.901575E-13	NaN
279	1.000000	0.232888	7.36778e+06	-52589.1	955.817	-29749.1	0.000000	0.000000	6.232801	-0.006459	NaN	0.000000	0.001557	0.001676	28.0805	0.068511	0.002010	34.0814	62.2985	14.6562	0.012820	0.231505	-0.861514	-0.862896	-0.006459	34.0814	-0.861371	-3.052698E+11	2.115722E-14	NaN
279	1.000000	0.242920	7.36778e+06	-52589.1	955.818	-29749.1	0.000000	0.000000	6.242831	-0.055807	NaN	0.000000	0.001600	0.001660	28.0803	0.055198	0.001994	27.681	-25.5227	-168.182	-0.007627	0.241602	-0.851481	-0.852799	-0.055807	27.681	-0.849969	-2.139551E+11	2.608371E-13	NaN
279	1.000000	0.252925	7.36778e+06	-52589.1	955.818	-29749.1	0.000000	0.000000	6.252839	0.017297	NaN	0.000000	0.001611	0.001725	28.0802	0.100444	0.002097	47.9057	-111.906	12.0467	0.017457	0.251532	-0.841476	-0.842869	0.017297	47.9057	-0.841747	-1.655615E+11	-1.044753E-13	NaN
279	1.000000	0.262958	7.36778e+06	-52589.1	955.818	-29749.1	0.000000	0.000000	6.262869	-0.059234	NaN	0.000000	0.001591	0.001703	28.0801	0.060249	0.001965	30.6584	-129.825	-165.804	-0.093108	0.261597	-0.831443	-0.832804	-0.059234	30.6584	-0.829994	-1.147384E+11	5.162508E-13	NaN
279	1.000000	0.272937	7.36778e+06	-52589.1	955.819	-29749.1	0.000000	0.000000	6.272849	-0.028699	NaN	0.000000	0.001601	0.001673	28.0803	0.043662	0.002135	20.4524	0.629861	14.7978	-0.019136	0.271583	-0.821464	-0.822819	-0.028699	20.4524	-0.820412	-8.507345E+10	3.373475E-13	NaN
279	1.000000	0.282946	7.36778e+06	-52589.1	955.819	-29749.1	0.000000	0.000000	6.282860	0.024197	NaN	0.000000	0.001623	0.001669	28.0813	0.025393	0.001850	13.7258	52.9579	-165.547	0.035380	0.281616	-0.811456	-0.812786	0.024197	13.7258	-0.812778	-6.702813E+10	-3.609903E-13	NaN
279	1.000000	0.292974	7.36778e+06	-52589.1	955.818	-29749.1	0.000000	0.000000	6.292887	0.004104	NaN	0.000000	0.001666	0.001691	28.0813	0.019143	0.001881	10.1771	133.964	9.928280	0.002464	0.291580	-0.801428	-0.802822	0.004104	10.1771	-0.801730	-4.746224E+10	-8.647382E-14	NaN
279	1.000000	0.302936	7.36778e+06	-52589.1	955.819	-29749.1	0.000000	0.000000	6.302852	0.061138	NaN	0.000000	0.001659	0.001685	28.0814	0.036047	0.001970	18.2948	65.137	-168.714	0.080578	0.301643	-0.791465	-0.792758	0.061138	18.2948	-0.793971	-3.724040E+10	-1.641715E-12	NaN
279	1.000000	0.312932	7.36778e+06	-52589.1	955.818	-29749.1	0.000000	0.000000	6.312845	-0.025918	NaN	0.000000	0.001663	0.001658	28.0814	0.150208	0.002095	71.6931	148.756	13.2152	-0.011585	0.311637	-0.781469	-0.782764	-0.025918	71.6931	-0.781198	-2.497515E+10	1.037752E-12	NaN
279	1.000000	0.322937	7.36778e+06	-52589.1	955.818	-29749.1	0.000000	0.000000	6.322848	-0.041537	NaN	0.000000	0.001685	0.001657	28.0814	0.039146	0.001964	19.9309	165.573	-169.047	-0.055877	0.321667	-0.771465	-0.772734	-0.041537	19.9309	-0.769902	-1.753758E+10	2.368441E-12	NaN
279	1.000000	0.332949	7.36778e+06	-52589.1	955.818	-29749.1	0.000000	0.000000	6.332860	-0.042715	NaN	0.000000	0.001597	0.001656	28.0816	0.075504	0.001932	39.0724	121.294	12.6488	-0.055223	0.331606	-0.761453	-0.762796	-0.042715	39.0724	-0.760633	-1.311929E+10	3.255929E-12	NaN
279	1.000000	0.342988	7.36778e+06	-52589.1	955.818	-29749.1	0.000000	0.000000	6.342900	-0.021651	NaN	0.000000	0.001606	0.001674	28.0814	0.181113	0.001885	96.0608	58.563	-165.116	-0.070295	0.341622	-0.751413	-0.752779	-0.021651	96.0608	-0.751244	-9.775917E+9	2.214709E-12	NaN
279	1.000000	0.352959	7.36778e+06	-52589.1	955.819	-29749.1	0.000000	0.000000	6.352872	0.007925	NaN	0.000000	0.001588	0.001676	28.0813	0.093008	0.001973	47.146	-147.162	16.5145	-0.047880	0.351621	-0.741443	-0.742780	0.007925	47.146	-0.741569	-7.218076E+9	-1.097919E-12	NaN
279	1.000000	0.362950	7.36778e+06	-52589.1	955.818	-29749.1	0.000000	0.000000	6.362864	0.001803	NaN	0.000000	0.001574	0.001681	28.0815	0.090233	0.002085	43.2865	-118.577	-164.329	-0.025369	0.361723	-0.731451	-0.732679	0.001803	43.2865	-0.731482	-5.260270E+9	-3.427020E-13	NaN
279	1.000000	0.372956	7.36778e+06	-52589.1	955.819	-29749.1	0.000000	0.000000	6.372868	-0.037800	NaN	0.000000	0.001584	0.001696	28.0813	0.071210	0.001997	35.6518	8.552429	15.6262	-0.015503	0.371602	-0.721445	-0.722799	-0.037800	35.6518	-0.720650	-3.744018E+9	1.009606E-11	NaN
279	1.000000	0.382970	7.36778e+06	-52589.1	955.818	-29749.1	0.000000	0.000000	6.382883	-0.006820	NaN	0.000000	0.001545	0.001680	28.0817	0.058518	0.002082	28.1036	-133.561	-168.371	0.069556	0.381676	-0.711431	-0.712725	-0.006820	28.1036	-0.711249	-2.786726E+9	2.447484E-12	NaN
279	1.000000	0.392996	7.36779e+06	-52589.1	955.818	-29749.1	0.000000	0.000000	6.392908	-0.008912	NaN	0.000000	0.001560	0.001684	28.0814	0.057263	0.002095	27.3375	-175.132	12.2677	-0.024968	0.391630	-0.701406	-0.702772	-0.008912	27.3375	-0.701161	-2.029506E+9	4.391054E-12	NaN
279	1.000000	0.402998	7.36779e+06	-52589.1	955.817	-29749.1	0.000000	0.000000	6.402910	-0.030013	NaN	0.000000	0.001570	0.001695	28.0816	0.023814	0.001996	11.9326	64.8537	-167.584	0.023758	0.401674	-0.691403	-0.692727	-0.030013	11.9326	-0.689517	-1.407060E+9	2.133011E-11	NaN
279	1.000000	0.412981	7.36779e+06	-52589.1	955.818	-29749.1	0.000000	0.000000	6.412894	-0.008919	NaN	0.000000	0.001602	0.001686	28.0817	0.049785	0.001863	26.7244	93.9513	16.8574	0.062660	0.411581	-0.681421	-0.682820	-0.008919	26.7244	-0.681170	-1.081959E+9	8.243725E-12	NaN
279	1.000000	0.423018	7.36779e+06	-52589.1	955.818	-29749.1	0.000000	0.000000	6.422932	0.025394	NaN	0.000000	0.001589	0.001690	28.0802	0.154278	0.001942	79.4492	-149.708	-166.211	-0.029351	0.421649	-0.671383	-0.672752	0.025394	79.4492	-0.671623	-8.009454E+8	-3.170489E-11	NaN
279	1.000000	0.433003	7.36779e+06	-52589.1	955.819	-29749.1	0.000000	0.000000	6.432913	-0.080346	NaN	0.000000	0.001617	0.001689	28.0801	0.132616	0.001922	68.9829	-172.347	16.4391	-0.011041	0.431631	-0.661399	-0.662771	-0.080346	68.9829	-0.660525	-5.644956E+8	1.423320E-10	NaN
279	1.000000	0.443044	7.36779e+06	-52589.1	955.818	-29749.1	0.000000	0.000000	6.442956	-0.026162	NaN	0.000000	0.001613	0.001678	28.0797	0.034354	0.001846	18.606	162.286	-166.15	-0.071341	0.441684	-0.651358	-0.652718	-0.026162	18.606	-0.650303	-4.088768E+8	6.398404E-11	NaN
279	1.000000	0.453018	7.36779e+06	-52589.1	955.818	-29749.1	0.000000	0.000000	6.452929	-0.041682	NaN	0.000000	0.001609	0.001683	28.0801	0.071185	0.001893	37.6023	118.402	12.0364	0.005453	0.451658	-0.641384	-0.642744	-0.041682	37.6023	-0.640552	-3.005148E+8	1.387006E-10	NaN
279	1.000000	0.463016	7.36779e+06	-52589.1	955.819	-29749.1	0.000000	0.000000	6.462930	0.003904	NaN	0.000000	0.001624	0.001676	28.0803	0.074323	0.002060	36.0726	-41.5462	-167.394	-0.006531	0.461693	-0.631385	-0.632709	0.003904	36.0726	-0.631466	-2.255061E+8	-1.731244E-11	NaN
279	1.000000	0.473025	7.36779e+06	-52589.1	955.819	-29749.1	0.000000	0.000000	6.472934	-0.111476	NaN	0.000000	0.001606	0.001681	28.0803	0.019431	0.001934	10.0473	-113.688	11.7793	-0.051873	0.471638	-0.621376	-0.622763	-0.111476	10.0473	-0.613055	-1.259330E+8	8.852008E-10	NaN
279	1.000000	0.483011	7.36779e+06	-52589.1	955.819	-29749.1	0.000000	0.000000	6.482927	0.051460	NaN	0.000000	0.001636	0.001709	28.0802	0.063343	0.001979	32.0129	-114.341	-163.408	0.076287	0.481705	-0.611390	-0.612696	0.051460	32.0129	-0.612596	-1.241143E+8	-4.146184E-10	NaN
279	1.000000	0.493038	7.36779e+06	-52589.1	955.819	-29749.1	0.000000	0.000000	6.492947	-0.111135	NaN	0.000000	0.001638	0.001668	28.0803	0.088607	0.001959	45.2334	-170.965	15.2059	-0.179757	0.491618	-0.601363	-0.602783	-0.111135	45.2334	-0.599521	-8.200851E+7	1.355163E-9	NaN
279	1.000000	0.503051	7.36779e+06	-52589.1	955.818	-29749.1	0.000000	0.000000	6.502961	-0.070571	NaN	0.000000	0.001593	0.001668	28.0802	0.058450	0.002031	28.7756	177.342	-166.5	-0.041210	0.501741	-0.591350	-0.592661	-0.070571	28.7756	-0.589511	-5.969294E+7	1.182236E-9	NaN
279	1.000000	0.513053	7.36779e+06	-52589.1	955.819	-29749.1	0.000000	0.000000	6.512965	-0.030924	NaN	0.000000	0.001619	0.001680	28.0802	0.202997	0.002031	99.9498	55.0432	11.7073	0.027957	0.511617	-0.581348	-0.582785	-0.030924	99.9498	-0.581116	-4.572268E+7	6.763280E-10	NaN
279	1.000000	0.523067	7.36779e+06	-52589.1	955.818	-29749.1	0.000000	0.000000	6.522980	-0.020801	NaN	0.000000	0.001629	0.001679	28.0802	0.039001	0.001924	20.2728	166.712	-166.687	0.001795	0.521717	-0.571334	-0.572684	-0.020801	20.2728	-0.570564	-3.269124E+7	6.362942E-10	NaN
279	1.000000	0.533038	7.36779e+06	-52589.1	955.819	-29749.1	0.000000	0.000000	6.532952	0.029197	NaN	0.000000	0.001611	0.001688	28.0806	0.076440	0.002049	37.312	-91.2267	15.4372	-0.018441	0.531671	-0.561364	-0.562730	0.029197	37.312	-0.561951	-2.485182E+7	-1.174849E-9	NaN
279	1.000000	0.543043	7.36779e+06	-52589.1	955.818	-29749.1	0.000000	0.000000	6.542958	0.025501	NaN	0.000000	0.001588	0.001631	28.0804	0.094861	0.002021	46.9402	29.0449	-167.707	0.060245	0.541805	-0.551358	-0.552597	0.025501	46.9402	-0.551766	-1.796418E+7	-1.419544E-9	NaN
279	1.000000	0.553097	7.36779e+06	-52589.1	955.819	-29749.1	0.000000	0.000000	6.553005	-0.123041	NaN	0.000000	0.001587	0.001685	28.0813	0.063493	0.001945	32.6407	157.738	14.4269	-0.087484	0.551720	-0.541305	-0.542681	-0.123041	32.6407	-0.538477	-1.175546E+7	1.046667E-8	NaN
279	1.000000	0.563077	7.36779e+06	-52589.1	955.818	-29749.1	0.000000	0.000000	6.562988	-0.040580	NaN	0.000000	0.001610	0.001711	28.0813	0.003379	0.002041	1.655369	-0.538046	-164.751	-0.027599	0.561714	-0.531325	-0.532687	-0.040580	1.655369	-0.512939	-5.1921e+06	7.815744E-9	NaN
279	1.000000	0.573046	7.36779e+06	-52589.1	955.819	-29749.1	0.000000	0.000000	6.572958	-0.024839	NaN	0.000000	0.001602	0.001682	28.0816	0.044201	0.002010	21.9916	101.673	14.0761	0.022482	0.571723	-0.521356	-0.522679	-0.024839	21.9916	-0.520509	-6.61719e+06	3.753659E-9	NaN
279	1.000000	0.583059	7.36779e+06	-52589.1	955.818	-29749.1	0.000000	0.000000	6.582970	-0.044308	NaN	0.000000	0.001580	0.001679	28.0814	0.028999	0.002007	14.452	-120.708	-167.292	-0.056287	0.581772	-0.511342	-0.512630	-0.044308	14.452	-0.509043	-4.58232e+06	9.669330E-9	NaN
279	1.000000	0.593073	7.36779e+06	-52589.1	955.819	-29749.1	0.000000	0.000000	6.592987	0.011014	NaN	0.000000	0.001598	0.001710	28.0817	0.005366	0.001963	2.734023	-118.33	12.4355	-0.054014	0.591676	-0.501328	-0.502725	0.011014	2.734023	-0.504349	-3.9416e+06	-2.794186E-9	NaN
279	1.000000	0.603044	7.36779e+06	-52589.1	955.819	-29749.1	0.000000	0.000000	6.602956	-0.028419	NaN	0.000000	0.001596	0.001699	28.0815	0.072871	0.002033	35.8469	-22.0304	-161.692	-0.053989	0.601670	-0.491357	-0.492732	-0.028419	35.8469	-0.490763	-2.54714e+06	1.115718E-8	NaN
279	1.000000	0.613070	7.36779e+06	-52589.1	955.819	-29749.1	0.000000	0.000000	6.612984	0.016247	NaN	0.000000	0.001607	0.001733	28.0819	0.028369	0.002065	13.7409	-164.524	14.3672	0.007109	0.611756	-0.481332	-0.482646	0.016247	13.7409	-0.482218	-1.93453e+06	-8.398188E-9	NaN
279	1.000000	0.623076	7.36779e+06	-52589.1	955.819	-29749.1	0.000000	0.000000	6.622989	-0.003238	NaN	0.000000	0.001591	0.001714	28.0816	0.048572	0.001923	25.2584	-175.432	-166.1	0.032209	0.621803	-0.471326	-0.472598	-0.003238	25.2584	-0.471230	-1.35722e+06	2.385908E-9	NaN
279	1.000000	0.633099	7.36779e+06	-52589.1	955.818	-29749.1	0.000000	0.000000	6.633011	-0.024871	NaN	0.000000	0.001623	0.001718	28.0816	0.072301	0.001951	37.0508	-163.573	11.9447	0.005784	0.631711	-0.461303	-0.462690	-0.024871	37.0508	-0.460799	-968839	2.567129E-8	NaN
279	1.000000	0.643083	7.36779e+06	-52589.1	955.818	-29749.1	0.000000	0.000000	6.642997	0.020277	NaN	0.000000	0.001630	0.001698	28.0815	0.106737	0.002021	52.8196	67.7289	-166.117	0.101576	0.641745	-0.451318	-0.452656	0.020277	52.8196	-0.451606	-719376	-2.818750E-8	NaN
279	1.000000	0.653095	7.36779e+06	-52589.1	955.818	-29749.1	0.000000	0.000000	6.653009	0.009865	NaN	0.000000	0.001638	0.001707	28.0818	0.039721	0.001996	19.9051	54.8401	16.4861	-0.044290	0.651708	-0.441307	-0.442693	0.009865	19.9051	-0.441678	-521249	-1.892529E-8	NaN
279	1.000000	0.663094	7.36779e+06	-52589.1	955.818	-29749.1	0.000000	0.000000	6.663007	0.006727	NaN	0.000000	0.001603	0.001679	28.0816	0.079490	0.001944	40.8954	-111.387	-169.719	-0.012992	0.661740	-0.431308	-0.432662	0.006727	40.8954	-0.431431	-373513	-1.800911E-8	NaN
279	1.000000	0.673087	7.36779e+06	-52589.1	955.818	-29749.1	0.000000	0.000000	6.673000	-0.010685	NaN	0.000000	0.001599	0.001698	28.0816	0.073919	0.002034	36.3496	0.242878	14.0176	-0.095790	0.671755	-0.421315	-0.422647	-0.010685	36.3496	-0.421094	-266643	4.007209E-8	NaN
279	1.000000	0.683116	7.36779e+06	-52589.1	955.818	-29749.1	0.000000	0.000000	6.683029	-0.025889	NaN	0.000000	0.001588	0.001729	28.0816	0.033768	0.001918	17.6016	-94.2602	-166.993	-0.027026	0.681797	-0.411285	-0.412605	-0.025889	17.6016	-0.410182	-186632	1.387171E-7	NaN
279	1.000000	0.693122	7.36779e+06	-52589.1	955.818	-29749.1	0.000000	0.000000	6.693035	-0.005961	NaN	0.000000	0.001590	0.001698	28.0805	0.078775	0.001994	39.5122	119.16	13.243	-0.049599	0.691717	-0.401280	-0.402684	-0.005961	39.5122	-0.401166	-138876	4.292331E-8	NaN
279	1.000000	0.703109	7.36779e+06	-52589.1	955.818	-29749.1	0.000000	0.000000	6.703021	-0.049474	NaN	0.000000	0.001571	0.001741	28.08	0.144077	0.002004	71.9048	-172.777	-162.712	-0.069176	0.701778	-0.391292	-0.392623	-0.049474	71.9048	-0.390776	-98688.3	5.013150E-7	NaN
279	1.000000	0.713111	7.36779e+06	-52589.1	955.818	-29749.1	0.000000	0.000000	6.713026	0.026916	NaN	0.000000	0.001648	0.001697	28.0802	0.008217	0.001904	4.314905	-33.1455	16.0049	0.062406	0.711816	-0.381290	-0.382585	0.026916	4.314905	-0.385969	-84229.1	-3.195580E-7	NaN
279	1.000000	0.723114	7.36779e+06	-52589.1	955.819	-29749.1	0.000000	0.000000	6.723025	-0.063132	NaN	0.000000	0.001614	0.001702	28.0803	0.036985	0.001981	18.671	-141.731	-163.985	-0.051207	0.721788	-0.371287	-0.372613	-0.063132	18.671	-0.368752	-47658.8	1.324667E-6	NaN
279	1.000000	0.733121	7.36779e+06	-52589.1	955.818	-29749.1	0.000000	0.000000	6.733033	-0.032496	NaN	0.000000	0.001645	0.001727	28.0804	0.086281	0.001908	45.2261	18.9089	13.226	0.030697	0.731831	-0.361280	-0.362570	-0.032496	45.2261	-0.360742	-36522.8	8.897484E-7	NaN
279	1.000000	0.743103	7.36779e+06	-52589.1	955.818	-29749.1	0.000000	0.000000	6.743012	-0.105002	NaN	0.000000	0.001585	0.001708	28.08	0.070831	0.001931	36.6734	32.8822	-165.76	-0.037705	0.741786	-0.351298	-0.352616	-0.105002	36.6734	-0.349151	-24812.6	4.231791E-6	NaN
279	1.000000	0.753168	7.36779e+06	-52589.1	955.818	-29749.1	0.000000	0.000000	6.753080	-0.036980	NaN	0.000000	0.001617	0.001686	28.0802	0.120429	0.002047	58.8207	176.69	14.1475	-0.005231	0.751765	-0.341234	-0.342637	-0.036980	58.8207	-0.340762	-18735.3	1.973799E-6	NaN
279	1.000000	0.763113	7.36779e+06	-52589.1	955.819	-29749.1	0.000000	0.000000	6.763024	-0.053663	NaN	0.000000	0.001594	0.001740	28.0803	0.046017	0.001968	23.3813	30.3445	-165.92	-0.099910	0.761802	-0.331288	-0.332599	-0.053663	23.3813	-0.329567	-12856.1	4.174134E-6	NaN
279	1.000000	0.773099	7.36779e+06	-52589.1	955.818	-29749.1	0.000000	0.000000	6.773010	-0.052569	NaN	0.000000	0.001631	0.001736	28.0802	0.036379	0.002094	17.3747	32.6754	15.0829	-0.087139	0.771733	-0.321303	-0.322669	-0.052569	17.3747	-0.319033	-9003.45	5.838780E-6	NaN
279	1.000000	0.783161	7.36779e+06	-52589.1	955.819	-29749.1	0.000000	0.000000	6.783073	-0.023158	NaN	0.000000	0.001608	0.001744	28.0802	0.067368	0.002097	32.1321	-95.4616	-162.371	-0.011128	0.781849	-0.311241	-0.312552	-0.023158	32.1321	-0.310700	-6782.89	3.414236E-6	NaN
279	1.000000	0.793131	7.36779e+06	-52589.1	955.818	-29749.1	0.000000	0.000000	6.793046	0.040411	NaN	0.000000	0.001609	0.001711	28.0803	0.070739	0.001896	37.3106	-83.1208	13.6119	-0.017833	0.791782	-0.301271	-0.302619	0.040411	37.3106	-0.302083	-5053.87	-7.996037E-6	NaN
279	1.000000	0.803139	7.36779e+06	-52589.1	955.818	-29749.1	0.000000	0.000000	6.803052	-0.009854	NaN	0.000000	0.001581	0.001738	28.0805	0.120605	0.002106	57.2555	79.8992	-166.631	-0.020161	0.801842	-0.291262	-0.292559	-0.009854	57.2555	-0.291133	-3469.55	2.840270E-6	NaN
279	1.000000	0.813159	7.36779e+06	-52589.1	955.818	-29749.1	0.000000	0.000000	6.813072	-0.008848	NaN	0.000000	0.001596	0.001703	28.0804	0.037233	0.001991	18.7039	-65.1269	16.6036	-0.019304	0.811805	-0.281242	-0.282596	-0.008848	18.7039	-0.280887	-2434.19	3.634714E-6	NaN
279	1.000000	0.823129	7.36779e+06	-52589.1	955.82	-29749.1	0.000000	0.000000	6.823040	-0.044297	NaN	0.000000	0.001597	0.001704	28.0802	0.102886	0.002161	47.6205	146.51	-164.786	-0.059802	0.821803	-0.271272	-0.272598	-0.044297	47.6205	-0.270575	-1699.33	2.606717E-5	NaN
279	1.000000	0.833168	7.36779e+06	-52589.1	955.818	-29749.1	0.000000	0.000000	6.833079	-0.045220	NaN	0.000000	0.001627	0.001681	28.0816	0.065101	0.001908	34.1119	25.7095	18.4468	0.014167	0.831790	-0.261233	-0.262611	-0.045220	34.1119	-0.260239	-1181.91	3.825992E-5	NaN
279	1.000000	0.843159	7.36779e+06	-52589.1	955.819	-29749.1	0.000000	0.000000	6.843073	0.020934	NaN	0.000000	0.001626	0.001674	28.0816	0.022661	0.002029	11.1687	-33.4604	-166.673	0.070393	0.841875	-0.251242	-0.252527	0.020934	11.1687	-0.252648	-903.375	-2.317267E-5	NaN
279	1.000000	0.853176	7.36779e+06	-52589.1	955.819	-29749.1	0.000000	0.000000	6.853088	-0.015150	NaN	0.000000	0.001570	0.001707	28.0814	0.004891	0.002085	2.345848	63.3737	10.5007	0.037739	0.851792	-0.241226	-0.242609	-0.015150	2.345848	-0.236382	-504.587	3.002469E-5	NaN
279	1.000000	0.863187	7.36779e+06	-52589.1	955.819	-29749.1	0.000000	0.000000	6.863098	-0.037502	NaN	0.000000	0.001596	0.001652	28.0814	0.023133	0.002006	11.5331	24.762	-163.829	-0.073029	0.861908	-0.231215	-0.232493	-0.037502	11.5331	-0.228776	-382.979	9.792218E-5	NaN
279	1.000000	0.873217	7.36779e+06	-52589.1	955.819	-29749.1	0.000000	0.000000	6.873127	-0.095571	NaN	0.000000	0.001604	0.001715	28.0816	0.038244	0.002002	19.1067	-144.296	10.6035	-0.056686	0.871867	-0.221184	-0.222534	-0.095571	19.1067	-0.217432	-252.684	0.000378	NaN
279	1.000000	0.883210	7.36779e+06	-52589.1	955.818	-29749.1	0.000000	0.000000	6.883122	-0.028063	NaN	0.000000	0.001599	0.001736	28.0815	0.068158	0.002003	34.0331	-118.034	-165.831	-0.010935	0.881910	-0.211191	-0.212492	-0.028063	34.0331	-0.210573	-195.926	0.000143	NaN
279	1.000000	0.893204	7.36779e+06	-52589.1	955.818	-29749.1	0.000000	0.000000	6.893112	-0.104892	NaN	0.000000	0.001592	0.001661	28.0816	0.091673	0.002047	44.7771	-156.497	16.3594	-0.150905	0.891806	-0.201198	-0.202596	-0.104892	44.7771	-0.199441	-128.975	0.000813	NaN
279	1.000000	0.903196	7.36779e+06	-52589.1	955.818	-29749.1	0.000000	0.000000	6.903108	-0.037513	NaN	0.000000	0.001630	0.001690	28.0816	0.153165	0.002004	76.4148	-47.732	-167.668	-0.106886	0.901814	-0.191205	-0.192587	-0.037513	76.4148	-0.190837	-92.8965	0.000404	NaN
279	1.000000	0.913213	7.36779e+06	-52589.1	955.818	-29749.1	0.000000	0.000000	6.913127	0.005820	NaN	0.000000	0.001616	0.001711	28.0815	0.030854	0.001939	15.9137	175.374	18.1183	0.068421	0.911826	-0.181188	-0.182575	0.005820	15.9137	-0.181462	-64.6115	-9.007362E-5	NaN
279	1.000000	0.923190	7.36779e+06	-52589.1	955.818	-29749.1	0.000000	0.000000	6.923102	-0.035256	NaN	0.000000	0.001631	0.001704	28.0815	0.062663	0.001974	31.7399	-54.2942	-165.381	-0.094491	0.921897	-0.171211	-0.172505	-0.035256	31.7399	-0.170378	-41.7045	0.000845	NaN
279	1.000000	0.933216	7.36779e+06	-52589.1	955.818	-29749.1	0.000000	0.000000	6.933130	0.013541	NaN	0.000000	0.001622	0.001669	28.0818	0.076876	0.001958	39.2566	-116.199	15.0587	-0.035089	0.931886	-0.161186	-0.162515	0.013541	39.2566	-0.161444	-29.0807	-0.000466	NaN
279	1.000000	0.943198	7.36779e+06	-52589.1	955.82	-29749.1	0.000000	0.000000	6.943110	-0.012385	NaN	0.000000	0.001627	0.001667	28.0813	0.117616	0.002044	57.54	112.306	-169.514	-0.051977	0.941865	-0.151204	-0.152536	-0.012385	57.54	-0.151042	-18.9229	0.000655	NaN
279	1.000000	0.953210	7.36779e+06	-52589.1	955.818	-29749.1	0.000000	0.000000	6.953121	-0.038173	NaN	0.000000	0.001591	0.001686	28.0815	0.095614	0.001950	49.04	-93.1838	13.8256	-0.021410	0.951798	-0.141192	-0.142603	-0.038173	49.04	-0.140608	-12.1443	0.003143	NaN
279	1.000000	0.963198	7.36779e+06	-52589.1	955.819	-29749.1	0.000000	0.000000	6.963112	0.013323	NaN	0.000000	0.001665	0.001696	28.0804	0.034265	0.002022	16.9466	-10.5349	-166.132	-0.032963	0.961911	-0.131203	-0.132491	0.013323	16.9466	-0.131793	-8.255095	-0.001614	NaN
279	1.000000	0.973229	7.36779e+06	-52589.1	955.819	-29749.1	0.000000	0.000000	6.973142	0.008296	NaN	0.000000	0.001577	0.001691	28.0802	0.142955	0.002023	70.667	-7.891269	14.942	-0.084903	0.971872	-0.121173	-0.122529	0.008296	70.667	-0.121261	-5.122231	-0.001620	NaN
279	1.000000	0.983222	7.36779e+06	-52589.1	955.82	-29749.1	0.000000	0.000000	6.983135	0.003061	NaN	0.000000	0.001638	0.001669	28.0801	0.080317	0.002034	39.4884	147.12	-168.382	-0.031338	0.981933	-0.111179	-0.112469	0.003061	39.4884	-0.111237	-3.190735	-0.000959	NaN
279	1.000000	0.993238	7.36779e+06	-52589.1	955.819	-29749.1	0.000000	0.000000	6.993151	-0.001301	NaN	0.000000	0.001684	0.001726	28.0802	0.041947	0.001848	22.7044	7.793656	13.8107	-0.031989	0.991867	-0.101163	-0.102534	-0.001301	22.7044	-0.101120	-1.934352	0.000673	NaN
279	1.000000	1.003243	7.36779e+06	-52589.1	955.82	-29749.1	0.000000	0.000000	7.003155	-0.017194	NaN	0.000000	0.001631	0.001712	28.0799	0.064586	0.001969	32.8036	161.306	-169.143	-0.077514	1.001969	-0.091159	-0.092433	-0.017194	32.8036	-0.090766	-1.126520	0.015263	NaN
279	1.000000	1.013242	7.36779e+06	-52589.1	955.819	-29749.1	0.000000	0.000000	7.013153	-0.059627	NaN	0.000000	0.001640	0.001722	28.0802	0.020936	0.001985	10.5493	-107.451	16.1281	-0.124003	1.011918	-0.081159	-0.082484	-0.059627	10.5493	-0.076920	-0.517447	0.115233	NaN
279	1.000000	1.023250	7.36779e+06	-52589.1	955.82	-29749.1	0.000000	0.000000	7.023161	-0.045670	NaN	0.000000	0.001642	0.001699	28.0799	0.009094	0.002006	4.533144	167.064	-164.663	-0.116706	1.021907	-0.071152	-0.072495	-0.045670	4.533144	-0.063596	-0.227734	0.200539	NaN
279	1.000000	1.033253	7.36779e+06	-52589.1	955.82	-29749.1	0.000000	0.000000	7.033169	0.047022	NaN	0.000000	0.001616	0.001684	28.0804	0.065281	0.001983	32.9141	-50.3669	16.9177	0.069843	1.031862	-0.061148	-0.062539	0.047022	32.9141	-0.062219	-0.208307	-0.225733	NaN
279	1.000000	1.043252	7.36779e+06	-52589.1	955.82	-29749.1	0.000000	0.000000	7.043163	-0.056750	NaN	0.000000	0.001587	0.001763	28.0799	0.089447	0.002001	44.7075	101.498	-168.724	-0.124918	1.041914	-0.051149	-0.052487	-0.056750	44.7075	-0.050197	-0.092511	0.613437	NaN
279	1.000000	1.053259	7.36779e+06	-52589.1	955.82	-29749.1	0.000000	0.000000	7.053172	0.004091	NaN	0.000000	0.001579	0.001703	28.0803	0.157331	0.002035	77.3193	155.821	14.5135	-0.011242	1.051936	-0.041143	-0.042466	0.004091	77.3193	-0.041182	-0.049128	-0.083271	NaN
279	1.000000	1.063221	7.36779e+06	-52589.1	955.821	-29749.1	0.000000	0.000000	7.063132	-0.056456	NaN	0.000000	0.001577	0.001707	28.08	0.082751	0.002036	40.6425	133.496	-166.58	-0.017740	1.061921	-0.031180	-0.032481	-0.056456	40.6425	-0.030139	-0.023218	2.431497	NaN
279	1.000000	1.073248	7.36779e+06	-52589.1	955.82	-29749.1	0.000000	0.000000	7.073161	0.001769	NaN	0.000000	0.001586	0.001683	28.0801	0.095671	0.002022	47.3081	-109.335	11.8135	-0.000180	1.071845	-0.021154	-0.022556	0.001769	47.3081	-0.021182	-0.013460	-0.131411	NaN
279	1.000000	1.083286	7.36779e+06	-52589.1	955.82	-29749.1	0.000000	0.000000	7.083198	-0.030386	NaN	0.000000	0.001600	0.001692	28.08	0.039442	0.002160	18.2621	104.833	-166.923	-0.012441	1.081926	-0.011115	-0.012475	-0.030386	18.2621	-0.009867	-0.006312	4.814303	NaN
279	1.000000	1.093275	7.36779e+06	-52589.1	955.821	-29749.1	0.000000	0.000000	7.093191	0.050504	NaN	0.000000	0.001564	0.001699	28.0802	0.111362	0.001872	59.4768	23.6349	13.2282	0.024025	1.091922	-0.001126	-0.002479	0.050504	59.4768	-0.001763	-0.001274	-39.6337	NaN
279	1.000000	1.103181	7.36779e+06	-52589.1	955.82	-29749.1	0.000000	0.000000	7.103399	7.396411	NaN	0.000000	0.001602	0.001710	28.0816	7.601771	0.001723	4412.98	15.8556	-177.386	7.062490	1.101934	0.008780	0.007532	7.396411	4412.98	0.007523	0.006556	1128.16	49794.3
279	2.000000	1.106405	7.36779e+06	-52589.1	955.821	-29749.1	0.000000	0.000000	7.106667	8.495890	NaN	0.000000	0.001627	0.001717	28.0813	10.204	0.001902	5365.58	12.7629	6.598740	8.771453	1.106017	0.012003	0.011615	8.495890	5365.58	0.010816	0.010102	841.007	48773.6
279	2.000000	1.108844	7.36779e+06	-52589.1	955.82	-29749.1	0.000000	0.000000	7.109325	13.7961	NaN	0.000000	0.001604	0.001705	28.0814	12.8174	0.001611	7956.57	1.825817	-170.191	13.3093	1.108544	0.014443	0.014143	13.7961	7956.57	0.013142	0.012887	1070.51	64034.8
279	2.000000	1.111361	7.36779e+06	-52589.1	955.82	-29749.1	0.000000	0.000000	7.111975	17.0457	NaN	0.000000	0.001581	0.001684	28.0817	15.0008	0.001652	9078.71	5.280159	6.879944	17.1112	1.110964	0.016959	0.016563	17.0457	9078.71	0.015551	0.016027	1063.53	65518.6
279	2.000000	1.113775	7.36779e+06	-52589.1	955.821	-29749.1	0.000000	0.000000	7.114593	22	NaN	0.000000	0.001558	0.001685	28.0815	18.6294	0.001738	10717.5	9.352964	-179.749	21.398	1.113529	0.019373	0.019128	22	10717.5	0.017834	0.019252	1142.76	70572.4
279	2.000000	1.116289	7.36779e+06	-52589.1	955.821	-29749.1	0.000000	0.000000	7.117150	23.0484	NaN	0.000000	0.001598	0.001716	28.0817	20.2961	0.001831	11081.8	7.509994	3.406242	21.8939	1.115914	0.021887	0.021513	23.0484	11081.8	0.020327	0.023060	999.521	66674.3
279	2.000000	1.118829	7.36779e+06	-52589.1	955.821	-29749.1	0.000000	0.000000	7.119954	29.4515	NaN	0.000000	0.001587	0.001703	28.0813	23.0574	0.001839	12535.5	8.340709	-178.727	31.2874	1.118522	0.024428	0.024121	29.4515	12535.5	0.022666	0.026906	1094.62	69821.7
279	2.000000	1.121364	7.36779e+06	-52589.1	955.821	-29749.1	0.000000	0.000000	7.122672	33.8938	NaN	0.000000	0.001590	0.001694	28.0816	24.8101	0.001761	14089.4	7.598870	0.812180	34.4772	1.120954	0.026963	0.026552	33.8938	14089.4	0.025159	0.031305	1082.69	72754
279	2.000000	1.123782	7.36779e+06	-52589.1	955.821	-29749.1	0.000000	0.000000	7.125468	43.1102	NaN	0.000000	0.001587	0.001762	28.0811	27.473	0.001699	16166.8	6.509136	179.942	43.939	1.123492	0.029380	0.029090	43.1102	16166.8	0.027381	0.035489	1214.74	78406.3
279	2.000000	1.126240	7.36779e+06	-52589.1	955.82	-29749.1	0.000000	0.000000	7.128259	51.2061	NaN	0.000000	0.001587	0.001719	28.0817	31.4021	0.001842	17051.6	8.969207	-3.664678	49.4671	1.125951	0.031838	0.031549	51.2061	17051.6	0.029586	0.039890	1283.69	78002.5
279	2.000000	1.128777	7.36779e+06	-52589.1	955.82	-29749.1	0.000000	0.000000	7.131061	57.6522	NaN	0.000000	0.001614	0.001727	28.0812	33.5242	0.001752	19135.3	4.894383	179.986	58.7476	1.128478	0.034376	0.034076	57.6522	19135.3	0.032116	0.045244	1274.26	82191.8
279	2.000000	1.131249	7.36779e+06	-52589.1	955.82	-29749.1	0.000000	0.000000	7.134119	71.9006	NaN	0.000000	0.001586	0.001699	28.0823	36.9329	0.001664	22193.5	10.3793	-7.572317	69.9171	1.130942	0.036848	0.036540	71.9006	22193.5	0.034418	0.050399	1426.62	90320.6
279	2.000000	1.133690	7.36779e+06	-52589.1	955.821	-29749.1	0.000000	0.000000	7.136925	80.7588	NaN	0.000000	0.001669	0.001724	28.0811	38.7972	0.001765	21980.3	5.901969	177.826	78.0505	1.133462	0.039288	0.039061	80.7588	21980.3	0.036533	0.055375	1458.39	85339.1
279	2.000000	1.136239	7.36779e+06	-52589.1	955.821	-29749.1	0.000000	0.000000	7.140088	95.7025	NaN	0.000000	0.001613	0.001705	28.0812	41.5343	0.001788	23233.2	6.986138	-3.212329	94.4812	1.135741	0.041838	0.041339	95.7025	23233.2	0.038748	0.060834	1573.18	86061.9
279	2.000000	1.138738	7.36779e+06	-52589.1	955.821	-29749.1	0.000000	0.000000	7.142902	103.355	NaN	0.000000	0.001610	0.001691	28.0798	44.9739	0.001862	24158.2	4.124820	177.894	101.143	1.138427	0.044337	0.044026	103.355	24158.2	0.041128	0.066977	1543.15	85285.7
279	2.000000	1.141297	7.36779e+06	-52589.1	955.821	-29749.1	0.000000	0.000000	7.145912	114.307	NaN	0.000000	0.001635	0.001723	28.0811	46.9813	0.001810	25961.9	8.039719	-4.784402	113.456	1.140846	0.046896	0.046444	114.307	25961.9	0.043594	0.073646	1552.13	87404.9
279	2.000000	1.143709	7.36779e+06	-52589.1	955.822	-29749.1	0.000000	0.000000	7.148861	127.379	NaN	0.000000	0.001608	0.001711	28.0798	49.0498	0.001854	26452.5	2.103195	-179.957	124.575	1.143320	0.049307	0.048918	127.379	26452.5	0.045696	0.079575	1600.74	85674.3
279	2.000000	1.146239	7.36779e+06	-52589.1	955.821	-29749.1	0.000000	0.000000	7.151917	140.157	NaN	0.000000	0.001586	0.001698	28.0806	52.2642	0.001776	29435.2	3.964815	-3.163041	138.989	1.145762	0.051838	0.051361	140.157	29435.2	0.048266	0.087130	1608.6	91107.7
279	2.000000	1.148791	7.36779e+06	-52589.1	955.821	-29749.1	0.000000	0.000000	7.154924	151.219	NaN	0.000000	0.001594	0.001733	28.0799	54.9979	0.001788	30756.6	3.718407	176.476	153.573	1.148417	0.054390	0.054016	151.219	30756.6	0.050702	0.094596	1598.57	91363.8
279	2.000000	1.151187	7.36779e+06	-52589.1	955.821	-29749.1	0.000000	0.000000	7.158030	168.473	NaN	0.000000	0.001600	0.001641	28.0804	56.7991	0.001818	31234.7	4.805752	-4.176120	164.671	1.150836	0.056786	0.056434	168.473	31234.7	0.052741	0.101072	1666.87	89762.5
279	2.000000	1.153672	7.36779e+06	-52589.1	955.821	-29749.1	0.000000	0.000000	7.161174	184.532	NaN	0.000000	0.001555	0.001645	28.0796	59.5261	0.001683	35371.2	5.231821	173.409	181.864	1.153393	0.059270	0.058991	184.532	35371.2	0.055357	0.109689	1682.32	97575.5
279	2.000000	1.156252	7.36779e+06	-52589.1	955.822	-29749.1	0.000000	0.000000	7.163956	189.432	NaN	0.000000	0.001649	0.001661	28.0801	63.5105	0.001858	34191.1	5.345234	-5.973161	190.678	1.155998	0.061850	0.061596	189.432	34191.1	0.057695	0.117674	1609.81	91064.1
279	2.000000	1.158767	7.36779e+06	-52589.1	955.821	-29749.1	0.000000	0.000000	7.167336	210.468	NaN	0.000000	0.001607	0.001655	28.0799	66.0853	0.001726	38278.9	6.520477	171.756	211.582	1.158505	0.064365	0.064103	210.468	38278.9	0.060242	0.126677	1661.46	98261.8
279	2.000000	1.161214	7.36779e+06	-52589.1	955.822	-29749.1	0.000000	0.000000	7.170416	225.863	NaN	0.000000	0.001610	0.001673	28.0808	67.7464	0.001808	37461.5	5.268998	-6.545072	222.036	1.160879	0.066812	0.066478	225.863	37461.5	0.062290	0.134149	1683.68	93447
279	2.000000	1.163644	7.36779e+06	-52589.1	955.821	-29749.1	0.000000	0.000000	7.173700	246.601	NaN	0.000000	0.001616	0.001707	28.0799	70.1289	0.001916	36610.2	5.931327	173.337	242.591	1.163304	0.069243	0.068902	246.601	36610.2	0.064191	0.141263	1745.69	88993.9
279	2.000000	1.166132	7.36779e+06	-52589.1	955.822	-29749.1	0.000000	0.000000	7.176584	256.26	NaN	0.000000	0.001599	0.001680	28.0801	72.3953	0.001845	39236.1	6.304231	-8.154241	249.766	1.165755	0.071730	0.071353	256.26	39236.1	0.066832	0.151440	1692.16	92116.9
279	2.000000	1.168670	7.36779e+06	-52589.1	955.823	-29749.1	0.000000	0.000000	7.179670	269.56	NaN	0.000000	0.001652	0.001673	28.0799	73.7646	0.001797	41040	0.187124	177.904	267.408	1.168465	0.074269	0.074064	269.56	41040	0.069343	0.161424	1669.89	93324.5
279	2.000000	1.171213	7.36779e+06	-52589.1	955.821	-29749.1	0.000000	0.000000	7.183520	301.343	NaN	0.000000	0.001659	0.001631	28.0817	75.6582	0.001791	42250.6	5.430551	-7.256583	298.296	1.170872	0.076812	0.076471	301.343	42250.6	0.071463	0.170088	1771.69	93598.5
279	2.000000	1.173636	7.36779e+06	-52589.1	955.821	-29749.1	0.000000	0.000000	7.186489	314.609	NaN	0.000000	0.001663	0.001675	28.0814	79.6827	0.001911	41706.3	8.179437	169.609	311.391	1.173375	0.079235	0.078973	314.609	41706.3	0.073577	0.178944	1758.15	90077.6
279	2.000000	1.176164	7.36779e+06	-52589.1	955.822	-29749.1	0.000000	0.000000	7.189634	329.639	NaN	0.000000	0.001651	0.001643	28.0814	80.7257	0.001767	45697.1	2.239387	-4.251454	326.626	1.175704	0.081762	0.081303	329.639	45697.1	0.076352	0.190882	1726.92	95560.6
279	2.000000	1.178575	7.36779e+06	-52589.1	955.82	-29749.1	0.000000	0.000000	7.192435	339.106	NaN	0.000000	0.001601	0.001677	28.0814	84.0911	0.001816	46296.8	2.609868	174.368	333.31	1.178299	0.084173	0.083898	339.106	46296.8	0.078680	0.201177	1685.61	94305.1
279	2.000000	1.181144	7.36779e+06	-52589.1	955.82	-29749.1	0.000000	0.000000	7.196005	363.459	NaN	0.000000	0.001563	0.001666	28.0817	86.023	0.001735	49585.3	8.194071	-11.7596	357.312	1.180777	0.086742	0.086376	363.459	49585.3	0.081245	0.212814	1707.87	98203.2
279	2.000000	1.183657	7.36779e+06	-52589.1	955.821	-29749.1	0.000000	0.000000	7.198883	372.314	NaN	0.000000	0.001573	0.001667	28.0812	88.3882	0.001828	48362.4	4.539276	172.15	369.284	1.183367	0.089256	0.088966	372.314	48362.4	0.083482	0.223214	1667.96	93523.3
279	2.000000	1.186145	7.36779e+06	-52589.1	955.822	-29749.1	0.000000	0.000000	7.202484	399.395	NaN	0.000000	0.001569	0.001636	28.0814	89.4333	0.001783	50151.5	0.688461	-4.026374	395.493	1.185868	0.091743	0.091466	399.395	50151.5	0.085770	0.234090	1706.16	94703.3
279	2.000000	1.188601	7.36779e+06	-52589.1	955.821	-29749.1	0.000000	0.000000	7.205928	423.39	NaN	0.000000	0.001596	0.001649	28.0817	93.3315	0.001677	55645.9	5.369546	170.26	419.356	1.188327	0.094200	0.093925	423.39	55645.9	0.088493	0.247347	1711.73	102224
279	2.000000	1.191092	7.36779e+06	-52589.1	955.821	-29749.1	0.000000	0.000000	7.209233	443.187	NaN	0.000000	0.001557	0.001634	28.0816	95.85	0.001831	52349.8	7.261524	-10.8231	434.852	1.190743	0.096691	0.096342	443.187	52349.8	0.090341	0.256539	1727.56	94430.3
279	2.000000	1.193639	7.36779e+06	-52589.1	955.821	-29749.1	0.000000	0.000000	7.213183	477.293	NaN	0.000000	0.001609	0.001634	28.0815	96.756	0.001722	56185.2	0.752563	175.637	474.69	1.193231	0.099238	0.098829	477.293	56185.2	0.092867	0.269352	1772	98908.7
279	2.000000	1.196067	7.36779e+06	-52589.1	955.821	-29749.1	0.000000	0.000000	7.216386	496.167	NaN	0.000000	0.001605	0.001637	28.0826	100.58	0.001773	56720.2	4.467287	-8.357333	488.208	1.195619	0.101665	0.101217	496.167	56720.2	0.095104	0.280950	1766.03	97767.8
279	2.000000	1.198731	7.36779e+06	-52589.1	955.822	-29749.1	0.000000	0.000000	7.219270	501.514	NaN	0.000000	0.001640	0.001641	28.0815	103.1	0.001793	57501.2	2.322963	173.374	503.488	1.198598	0.104329	0.104197	501.514	57501.2	0.097788	0.295160	1699.12	96698.9
279	2.000000	1.201136	7.36779e+06	-52589.1	955.822	-29749.1	0.000000	0.000000	7.223040	534.681	NaN	0.000000	0.001656	0.001617	28.0813	106.218	0.001813	58586.9	10.1044	-13.8725	528.061	1.200662	0.106735	0.106261	534.681	58586.9	0.099890	0.306520	1744.36	96681.8
279	2.000000	1.202554	7.36779e+06	-52589.1	955.822	-29749.1	0.000000	0.000000	7.224647	539.286	NaN	0.000000	0.001632	0.001614	28.0812	107.589	0.001716	62700.5	5.969424	168.9	533.408	1.202370	0.108153	0.107969	539.286	62700.5	0.101702	0.316472	1704.05	101830