File: remote_trans/data/nanoindenter/0828-1/data/Data_2025-08-06,11h17m57s/2025-07-22_16-23-58_1_358.txt
2025-07-22, 16:23:58, 1
Index	Phase	Displacement	Time	Pos X	Pos Y	Pos Z	Rot A	Rot B	Piezo Z	Force A	Force B	Gripper	Voltage A	Voltage B	Temperature	Amplitude force	Amplitude pos	Stiffness	Phase shift	Phase excitation	Force A raw	Displacement raw	HMax	HMax raw	Real Force	Real Stiffness	Contact Depth	Area	Hardness	Reduced Mod.
[#]	[#]	[um]	[s]	[um]	[um]	[um]	[m°]	[m°]	[um]	[uN]	[uN]	[V]	[V]	[V]	[°C]	[uN]	[um]	[N/m]	[°]	[°]	[uN]	[um]	[um]	[um]	[uN]	[N/m]	[um]	[um^2]	[MPa]	[MPa]
358	1.000000	0.002295	7.36856e+06	-56539.1	955.818	-29739	0.000000	0.000000	6.002823	0.025128	NaN	0.000000	0.001551	0.001747	28.082	0.088707	0.001008	87.9963	-132.906	-164.839	-0.034245	0.001137	-1.034420	-1.035577	0.025128	87.9963	-1.034634	-6.634446E+13	-3.787519E-16	NaN
358	1.000000	0.010299	7.36856e+06	-56539.1	955.818	-29739	0.000000	0.000000	6.010824	-0.038168	NaN	0.000000	0.001520	0.001737	28.0817	0.104117	0.001038	100.335	-54.2702	-171.104	0.000835	0.008921	-1.026416	-1.027793	-0.038168	100.335	-1.026130	-5.098329E+13	7.486315E-16	NaN
358	1.000000	0.018240	7.36856e+06	-56539.1	955.819	-29739	0.000000	0.000000	6.018765	-0.021386	NaN	0.000000	0.001560	0.001701	28.0819	0.067457	0.001657	40.7071	-112.474	-166.133	0.018861	0.016924	-1.018475	-1.019791	-0.021386	40.7071	-1.018081	-3.973105E+13	5.382715E-16	NaN
358	1.000000	0.026292	7.36856e+06	-56539.1	955.818	-29739	0.000000	0.000000	6.026819	-0.000930	NaN	0.000000	0.001541	0.001730	28.0821	0.034289	0.001756	19.5238	-77.5902	-164.908	0.037050	0.024917	-1.010422	-1.011797	-0.000930	19.5238	-1.010387	-3.130314E+13	2.969474E-17	NaN
358	1.000000	0.034233	7.36856e+06	-56539.1	955.819	-29739	0.000000	0.000000	6.034758	-0.026265	NaN	0.000000	0.001531	0.001735	28.0818	0.054938	0.001967	27.9263	8.059700	-165.058	-0.034235	0.032940	-1.002482	-1.003775	-0.026265	27.9263	-1.001776	-2.397082E+13	1.095716E-15	NaN
358	1.000000	0.042217	7.36856e+06	-56539.1	955.82	-29739	0.000000	0.000000	6.042745	0.012625	NaN	0.000000	0.001538	0.001746	28.0821	0.011306	0.001769	6.391087	65.6975	-165.274	0.002834	0.040951	-0.994497	-0.995764	0.012625	6.391087	-0.995979	-2.002743E+13	-6.303948E-16	NaN
358	1.000000	0.050236	7.36856e+06	-56539.1	955.819	-29739	0.000000	0.000000	6.050759	-0.079223	NaN	0.000000	0.001541	0.001733	28.0818	0.034393	0.001894	18.1604	-54.2834	-161.3	-0.040978	0.048913	-0.986479	-0.987802	-0.079223	18.1604	-0.983207	-1.347763E+13	5.878139E-15	NaN
358	1.000000	0.058228	7.36856e+06	-56539.1	955.818	-29739	0.000000	0.000000	6.058754	0.003068	NaN	0.000000	0.001551	0.001723	28.0823	0.102438	0.002031	50.4464	106.484	-163.35	-0.017117	0.056915	-0.978487	-0.979799	0.003068	50.4464	-0.978532	-1.165839E+13	-2.631304E-16	NaN
358	1.000000	0.066236	7.36856e+06	-56539.1	955.818	-29739	0.000000	0.000000	6.066764	0.021919	NaN	0.000000	0.001546	0.001742	28.0821	0.127203	0.002054	61.9363	115.904	-164.616	0.074304	0.064889	-0.970478	-0.971826	0.021919	61.9363	-0.970744	-9.155571E+12	-2.394058E-15	NaN
358	1.000000	0.074228	7.36856e+06	-56539.1	955.819	-29739	0.000000	0.000000	6.074751	-0.080454	NaN	0.000000	0.001566	0.001716	28.0821	0.025485	0.001992	12.7907	9.752355	-159.954	-0.070008	0.072918	-0.962487	-0.963796	-0.080454	12.7907	-0.957769	-6.120602E+12	1.314478E-14	NaN
358	1.000000	0.082229	7.36856e+06	-56539.1	955.819	-29739	0.000000	0.000000	6.082753	-0.080470	NaN	0.000000	0.001572	0.001763	28.0823	0.113288	0.002001	56.6116	-79.5184	-162.262	-0.015106	0.080897	-0.954485	-0.955817	-0.080470	56.6116	-0.953419	-5.347345E+12	1.504856E-14	NaN
358	1.000000	0.090251	7.36856e+06	-56539.1	955.818	-29739	0.000000	0.000000	6.090778	0.017845	NaN	0.000000	0.001579	0.001715	28.082	0.071146	0.002017	35.273	-10.8039	-163.341	-0.006832	0.088873	-0.946464	-0.947841	0.017845	35.273	-0.946843	-4.359640E+12	-4.093278E-15	NaN
358	1.000000	0.098257	7.36856e+06	-56539.1	955.818	-29739	0.000000	0.000000	6.098780	-0.087086	NaN	0.000000	0.001551	0.001760	28.0812	0.036752	0.001955	18.8016	-30.0781	-160.794	-0.054193	0.096905	-0.938457	-0.939809	-0.087086	18.8016	-0.934983	-3.016120E+12	2.887368E-14	NaN
358	1.000000	0.106246	7.36856e+06	-56539.1	955.819	-29739	0.000000	0.000000	6.106771	-0.042326	NaN	0.000000	0.001570	0.001768	28.0812	0.063750	0.002103	30.3101	115.322	-163.722	-0.113138	0.104901	-0.930469	-0.931813	-0.042326	30.3101	-0.929422	-2.537405E+12	1.668099E-14	NaN
358	1.000000	0.114269	7.36856e+06	-56539.1	955.819	-29739	0.000000	0.000000	6.114794	-0.034264	NaN	0.000000	0.001626	0.001779	28.081	0.089085	0.002097	42.4771	-140.574	-161.702	-0.125941	0.112953	-0.922446	-0.923762	-0.034264	42.4771	-0.921841	-2.004752E+12	1.709141E-14	NaN
358	1.000000	0.122264	7.36856e+06	-56539.1	955.818	-29739	0.000000	0.000000	6.122790	-0.027779	NaN	0.000000	0.001618	0.001747	28.0808	0.058098	0.002031	28.6119	-26.457	-165.08	0.025754	0.120935	-0.914450	-0.915779	-0.027779	28.6119	-0.913722	-1.557512E+12	1.783577E-14	NaN
358	1.000000	0.130224	7.36856e+06	-56539.1	955.818	-29739	0.000000	0.000000	6.130750	7.621128E-6	NaN	0.000000	0.001602	0.001729	28.0808	0.083683	0.001947	42.9891	178.665	-162.125	-0.046359	0.128936	-0.906491	-0.907779	7.621128E-6	42.9891	-0.906491	-1.243835E+12	-6.127123E-18	NaN
358	1.000000	0.138261	7.36856e+06	-56539.1	955.819	-29739	0.000000	0.000000	6.138786	-0.043071	NaN	0.000000	0.001588	0.001707	28.0811	0.123195	0.001961	62.8242	77.7833	-163.23	-0.004117	0.136994	-0.898454	-0.899720	-0.043071	62.8242	-0.897940	-9.532901E+11	4.518167E-14	NaN
358	1.000000	0.146259	7.36856e+06	-56539.1	955.819	-29739	0.000000	0.000000	6.146787	0.038304	NaN	0.000000	0.001657	0.001752	28.0813	0.015992	0.002045	7.820479	-109.394	-164.936	0.064731	0.144981	-0.890456	-0.891734	0.038304	7.820479	-0.894129	-8.467036E+11	-4.523943E-14	NaN
358	1.000000	0.154280	7.36856e+06	-56539.1	955.819	-29739	0.000000	0.000000	6.154803	-0.080519	NaN	0.000000	0.001632	0.001768	28.0812	0.058174	0.001999	29.1025	-177.359	-162.878	-0.019942	0.153002	-0.882434	-0.883712	-0.080519	29.1025	-0.880359	-5.515293E+11	1.459928E-13	NaN
358	1.000000	0.162292	7.36856e+06	-56539.1	955.818	-29739	0.000000	0.000000	6.162815	-0.086444	NaN	0.000000	0.001616	0.001718	28.0809	0.086097	0.002038	42.2358	174.77	-164.59	-0.094509	0.160922	-0.874423	-0.875792	-0.086444	42.2358	-0.872888	-4.370294E+11	1.977988E-13	NaN
358	1.000000	0.170277	7.36856e+06	-56539.1	955.82	-29739	0.000000	0.000000	6.170800	-0.083384	NaN	0.000000	0.001580	0.001722	28.0807	0.081770	0.002087	39.1841	-34.3644	-163.369	-0.015460	0.168975	-0.866437	-0.867740	-0.083384	39.1841	-0.864841	-3.401286E+11	2.451555E-13	NaN
358	1.000000	0.178297	7.36856e+06	-56539.1	955.818	-29739	0.000000	0.000000	6.178821	-0.052672	NaN	0.000000	0.001640	0.001744	28.0809	0.110907	0.002051	54.0825	144.227	-164.945	-0.041738	0.176940	-0.858418	-0.859775	-0.052672	54.0825	-0.857687	-2.721553E+11	1.935352E-13	NaN
358	1.000000	0.186260	7.36856e+06	-56539.1	955.819	-29739	0.000000	0.000000	6.186785	-0.027807	NaN	0.000000	0.001611	0.001751	28.0807	0.062471	0.001924	32.472	10.691	-163.284	-0.000495	0.185008	-0.850455	-0.851707	-0.027807	32.472	-0.849813	-2.129122E+11	1.306029E-13	NaN
358	1.000000	0.194284	7.36856e+06	-56539.1	955.819	-29739	0.000000	0.000000	6.194812	0.023528	NaN	0.000000	0.001608	0.001804	28.081	0.047154	0.001962	24.0394	120.249	-167.04	-0.008801	0.192983	-0.842430	-0.843732	0.023528	24.0394	-0.843164	-1.730447E+11	-1.359645E-13	NaN
358	1.000000	0.202284	7.36856e+06	-56539.1	955.819	-29739	0.000000	0.000000	6.202809	-0.031574	NaN	0.000000	0.001624	0.001787	28.0807	0.075647	0.002009	37.6566	-159.78	-163.421	-0.117583	0.200945	-0.834431	-0.835770	-0.031574	37.6566	-0.833802	-1.292148E+11	2.443511E-13	NaN
358	1.000000	0.210252	7.36856e+06	-56539.1	955.818	-29739	0.000000	0.000000	6.210781	0.052688	NaN	0.000000	0.001616	0.001731	28.0808	0.086431	0.001974	43.78	142.429	-164.285	0.054133	0.208929	-0.826462	-0.827785	0.052688	43.78	-0.827365	-1.056982E+11	-4.984785E-13	NaN
358	1.000000	0.218290	7.36856e+06	-56539.1	955.819	-29739	0.000000	0.000000	6.218816	-0.005448	NaN	0.000000	0.001636	0.001716	28.081	0.068923	0.001945	35.4304	55.7809	-163.632	0.014548	0.217001	-0.818425	-0.819713	-0.005448	35.4304	-0.818310	-7.966862E+10	6.838491E-14	NaN
358	1.000000	0.226297	7.36856e+06	-56539.1	955.819	-29739	0.000000	0.000000	6.226822	-0.030324	NaN	0.000000	0.001624	0.001739	28.0809	0.058239	0.001932	30.1496	66.8697	-164.977	-0.050868	0.225005	-0.810418	-0.811709	-0.030324	30.1496	-0.809664	-6.081443E+10	4.986389E-13	NaN
358	1.000000	0.234307	7.36856e+06	-56539.1	955.819	-29739	0.000000	0.000000	6.234834	0.015012	NaN	0.000000	0.001601	0.001702	28.0823	0.065865	0.001972	33.4008	-45.3317	-163.946	0.003588	0.233046	-0.802407	-0.803669	0.015012	33.4008	-0.802744	-4.899080E+10	-3.064260E-13	NaN
358	1.000000	0.242288	7.36856e+06	-56539.1	955.818	-29739	0.000000	0.000000	6.242814	-0.015070	NaN	0.000000	0.001555	0.001755	28.082	0.092213	0.002007	45.9361	4.260788	-161.706	-0.003004	0.240972	-0.794427	-0.795743	-0.015070	45.9361	-0.794181	-3.748502E+10	4.020296E-13	NaN
358	1.000000	0.250312	7.36856e+06	-56539.1	955.818	-29739	0.000000	0.000000	6.250835	-0.100134	NaN	0.000000	0.001527	0.001717	28.0824	0.030471	0.002020	15.0849	-131.198	-164.869	-0.082216	0.249002	-0.786402	-0.787712	-0.100134	15.0849	-0.781424	-2.515224E+10	3.981104E-12	NaN
358	1.000000	0.258311	7.36856e+06	-56539.1	955.819	-29739	0.000000	0.000000	6.258836	-0.045487	NaN	0.000000	0.001580	0.001716	28.0818	0.030285	0.001981	15.2901	106.405	-162.692	-0.094563	0.257039	-0.778403	-0.779676	-0.045487	15.2901	-0.776172	-2.134081E+10	2.131469E-12	NaN
358	1.000000	0.266311	7.36856e+06	-56539.1	955.819	-29739	0.000000	0.000000	6.266837	-0.012113	NaN	0.000000	0.001559	0.001699	28.0818	0.079117	0.002051	38.5752	-78.2628	-163.283	-0.028487	0.265045	-0.770404	-0.771669	-0.012113	38.5752	-0.770168	-1.768445E+10	6.849763E-13	NaN
358	1.000000	0.274342	7.36856e+06	-56539.1	955.819	-29739	0.000000	0.000000	6.274871	0.057789	NaN	0.000000	0.001542	0.001707	28.082	0.089772	0.002096	42.824	-105.588	-164.712	-0.001614	0.273038	-0.762372	-0.763676	0.057789	42.824	-0.763385	-1.430020E+10	-4.041159E-12	NaN
358	1.000000	0.282312	7.36856e+06	-56539.1	955.818	-29739	0.000000	0.000000	6.282834	-0.107437	NaN	0.000000	0.001543	0.001723	28.0817	0.083323	0.002051	40.619	-119.91	-168.232	-0.042012	0.281036	-0.754402	-0.755679	-0.107437	40.619	-0.752419	-1.014242E+10	1.059284E-11	NaN
358	1.000000	0.290325	7.36856e+06	-56539.1	955.818	-29739	0.000000	0.000000	6.290851	-0.021724	NaN	0.000000	0.001557	0.001760	28.0822	0.055987	0.001927	29.047	27.0848	-163.194	-0.017115	0.289065	-0.746389	-0.747650	-0.021724	29.047	-0.745828	-8.249444E+9	2.633417E-12	NaN
358	1.000000	0.298355	7.36856e+06	-56539.1	955.819	-29739	0.000000	0.000000	6.298880	-0.042977	NaN	0.000000	0.001583	0.001702	28.0818	0.075690	0.002065	36.6607	60.1526	-163.955	-0.007453	0.297043	-0.738359	-0.739672	-0.042977	36.6607	-0.737480	-6.349406E+9	6.768636E-12	NaN
358	1.000000	0.306335	7.36856e+06	-56539.1	955.82	-29739	0.000000	0.000000	6.306865	0.065328	NaN	0.000000	0.001565	0.001727	28.0817	0.033539	0.002106	15.9285	68.9629	-167.287	0.073112	0.305049	-0.730379	-0.731666	0.065328	15.9285	-0.733455	-5.596193E+9	-1.167366E-11	NaN
358	1.000000	0.314355	7.36856e+06	-56539.1	955.819	-29739	0.000000	0.000000	6.314881	-0.018520	NaN	0.000000	0.001558	0.001721	28.0819	0.051455	0.001903	27.0319	-83.2735	-164.904	-0.055264	0.313067	-0.722360	-0.723648	-0.018520	27.0319	-0.721846	-3.887283E+9	4.764330E-12	NaN
358	1.000000	0.322349	7.36856e+06	-56539.1	955.819	-29739	0.000000	0.000000	6.322875	-0.005618	NaN	0.000000	0.001580	0.001751	28.0818	0.146557	0.002080	70.4597	43.0856	-165.144	-0.035380	0.321003	-0.714366	-0.715711	-0.005618	70.4597	-0.714306	-3.067659E+9	1.831443E-12	NaN
358	1.000000	0.330357	7.36856e+06	-56539.1	955.819	-29739	0.000000	0.000000	6.330882	-0.016924	NaN	0.000000	0.001521	0.001776	28.0819	0.038699	0.002070	18.6922	-59.5638	-162.134	-0.071070	0.329008	-0.706358	-0.707707	-0.016924	18.6922	-0.705679	-2.339220E+9	7.234765E-12	NaN
358	1.000000	0.338343	7.36856e+06	-56539.1	955.819	-29739	0.000000	0.000000	6.338867	-0.060195	NaN	0.000000	0.001557	0.001795	28.0815	0.178763	0.002049	87.2547	-163.913	-164.807	-0.137345	0.337071	-0.698372	-0.699644	-0.060195	87.2547	-0.697855	-1.829070E+9	3.290989E-11	NaN
358	1.000000	0.346350	7.36856e+06	-56539.1	955.818	-29739	0.000000	0.000000	6.346873	-0.096982	NaN	0.000000	0.001535	0.001729	28.0816	0.183420	0.001994	91.9684	-95.0587	-161.782	-0.010923	0.345036	-0.690364	-0.691678	-0.096982	91.9684	-0.689573	-1.409576E+9	6.880251E-11	NaN
358	1.000000	0.354342	7.36856e+06	-56539.1	955.818	-29739	0.000000	0.000000	6.354865	-0.068122	NaN	0.000000	0.001551	0.001759	28.0816	0.035701	0.002050	17.4171	25.6132	-165.368	-0.002128	0.353030	-0.682373	-0.683684	-0.068122	17.4171	-0.679440	-1.024567E+9	6.648886E-11	NaN
358	1.000000	0.362330	7.36856e+06	-56539.1	955.818	-29739	0.000000	0.000000	6.362855	-0.027615	NaN	0.000000	0.001532	0.001780	28.0817	0.075314	0.002000	37.6608	-93.9324	-163.872	-0.053768	0.361049	-0.674385	-0.675666	-0.027615	37.6608	-0.673835	-8.587561E+8	3.215704E-11	NaN
358	1.000000	0.370342	7.36856e+06	-56539.1	955.819	-29739	0.000000	0.000000	6.370870	0.020487	NaN	0.000000	0.001514	0.001748	28.0806	0.072621	0.001973	36.8092	4.413143	-164.847	0.056429	0.369035	-0.666372	-0.667679	0.020487	36.8092	-0.666790	-6.877784E+8	-2.978672E-11	NaN
358	1.000000	0.378364	7.36856e+06	-56539.1	955.819	-29739	0.000000	0.000000	6.378893	0.042029	NaN	0.000000	0.001534	0.001741	28.0803	0.036788	0.001991	18.4758	-41.2494	-164.967	-0.022823	0.377085	-0.658350	-0.659630	0.042029	18.4758	-0.660056	-5.562106E+8	-7.556231E-11	NaN
358	1.000000	0.386355	7.36856e+06	-56539.1	955.818	-29739	0.000000	0.000000	6.386884	0.052768	NaN	0.000000	0.001524	0.001727	28.0806	0.075434	0.002000	37.7117	78.8292	-164.573	-0.008088	0.385042	-0.650359	-0.651673	0.052768	37.7117	-0.651409	-4.233972E+8	-1.246299E-10	NaN
358	1.000000	0.394374	7.36856e+06	-56539.1	955.819	-29739	0.000000	0.000000	6.394900	-0.015000	NaN	0.000000	0.001529	0.001760	28.0807	0.046023	0.001978	23.2704	-22.8993	-163.227	-0.030402	0.393047	-0.642341	-0.643668	-0.015000	23.2704	-0.641858	-3.131655E+8	4.789667E-11	NaN
358	1.000000	0.402370	7.36856e+06	-56539.1	955.818	-29739	0.000000	0.000000	6.402894	-0.057196	NaN	0.000000	0.001503	0.001735	28.0804	0.013504	0.001962	6.881126	-116.009	-166.064	0.017071	0.401072	-0.634344	-0.635643	-0.057196	6.881126	-0.628110	-2.028023E+8	2.820276E-10	NaN
358	1.000000	0.410351	7.36856e+06	-56539.1	955.819	-29739	0.000000	0.000000	6.410878	0.013581	NaN	0.000000	0.001483	0.001731	28.0805	0.061128	0.002019	30.2822	6.818746	-165.294	0.036019	0.409030	-0.626364	-0.627684	0.013581	30.2822	-0.626700	-1.939563E+8	-7.002128E-11	NaN
358	1.000000	0.418373	7.36856e+06	-56539.1	955.818	-29739	0.000000	0.000000	6.418899	-0.021816	NaN	0.000000	0.001505	0.001748	28.0804	0.017292	0.001945	8.888748	7.251812	-162.435	-0.052985	0.417082	-0.618341	-0.619633	-0.021816	8.888748	-0.616500	-1.404500E+8	1.553316E-10	NaN
358	1.000000	0.426357	7.36856e+06	-56539.1	955.819	-29739	0.000000	0.000000	6.426885	0.014930	NaN	0.000000	0.001506	0.001720	28.0806	0.043531	0.002034	21.4065	-80.7203	-166.204	0.004013	0.425067	-0.610357	-0.611647	0.014930	21.4065	-0.610880	-1.175503E+8	-1.270097E-10	NaN
358	1.000000	0.434399	7.36856e+06	-56539.1	955.819	-29739	0.000000	0.000000	6.434926	0.024924	NaN	0.000000	0.001488	0.001751	28.0802	0.042033	0.001928	21.7987	-123.774	-166.542	0.077870	0.433070	-0.602316	-0.603644	0.024924	21.7987	-0.603173	-9.207799E+7	-2.706806E-10	NaN
358	1.000000	0.442378	7.36856e+06	-56539.1	955.819	-29739	0.000000	0.000000	6.442902	-0.050395	NaN	0.000000	0.001512	0.001710	28.0805	0.073496	0.001994	36.8498	59.2616	-164.723	-0.040059	0.441088	-0.594337	-0.595626	-0.050395	36.8498	-0.593311	-6.734569E+7	7.482986E-10	NaN
358	1.000000	0.450378	7.36856e+06	-56539.1	955.819	-29739.1	0.000000	0.000000	6.450903	-0.046915	NaN	0.000000	0.001552	0.001735	28.0803	0.049919	0.002089	23.9005	-170.703	-161.531	-0.089296	0.449067	-0.586336	-0.587647	-0.046915	23.9005	-0.584864	-5.150405E+7	9.109050E-10	NaN
358	1.000000	0.458380	7.36856e+06	-56539.1	955.819	-29739.1	0.000000	0.000000	6.458905	-0.038022	NaN	0.000000	0.001523	0.001729	28.0806	0.079377	0.002064	38.453	-153.161	-164.681	-0.058236	0.457032	-0.578334	-0.579683	-0.038022	38.453	-0.577593	-4.087850E+7	9.301240E-10	NaN
358	1.000000	0.466379	7.36856e+06	-56539.1	955.818	-29739.1	0.000000	0.000000	6.466906	-0.002897	NaN	0.000000	0.001561	0.001727	28.0807	0.012670	0.002040	6.211018	-162.687	-166.619	-0.048977	0.465130	-0.570335	-0.571585	-0.002897	6.211018	-0.569986	-3.209472E+7	9.026767E-11	NaN
358	1.000000	0.474412	7.36856e+06	-56539.1	955.818	-29739.1	0.000000	0.000000	6.474935	-0.084153	NaN	0.000000	0.001533	0.001731	28.0805	0.108221	0.002065	52.3959	-161.364	-165.189	-0.018080	0.473095	-0.562303	-0.563619	-0.084153	52.3959	-0.561098	-2.418616E+7	3.479374E-9	NaN
358	1.000000	0.482409	7.36856e+06	-56539.1	955.819	-29739.1	0.000000	0.000000	6.482936	0.023046	NaN	0.000000	0.001525	0.001707	28.0808	0.123801	0.002078	59.5777	-84.3367	-167.255	0.092765	0.481122	-0.554306	-0.555592	0.023046	59.5777	-0.554596	-1.966052E+7	-1.172204E-9	NaN
358	1.000000	0.490425	7.36856e+06	-56539.1	955.819	-29739.1	0.000000	0.000000	6.490949	-0.069591	NaN	0.000000	0.001532	0.001728	28.0806	0.034291	0.002094	16.3767	82.1935	-165.064	-0.064318	0.489128	-0.546289	-0.547586	-0.069591	16.3767	-0.543102	-1.362611E+7	5.107199E-9	NaN
358	1.000000	0.498428	7.36856e+06	-56539.1	955.819	-29739.1	0.000000	0.000000	6.498953	-0.055666	NaN	0.000000	0.001515	0.001720	28.0808	0.032043	0.002080	15.4059	34.4951	-164.31	-0.081851	0.497153	-0.538286	-0.539561	-0.055666	15.4059	-0.535576	-1.071486E+7	5.195211E-9	NaN
358	1.000000	0.506432	7.36856e+06	-56539.1	955.818	-29739.1	0.000000	0.000000	6.506958	-0.008190	NaN	0.000000	0.001508	0.001745	28.0818	0.080467	0.001920	41.9133	-111.067	-163.323	-0.009601	0.505095	-0.530283	-0.531619	-0.008190	41.9133	-0.530136	-9.00466e+06	9.095839E-10	NaN
358	1.000000	0.514399	7.36856e+06	-56539.1	955.82	-29739.1	0.000000	0.000000	6.514923	-0.045987	NaN	0.000000	0.001535	0.001740	28.0821	0.032304	0.001893	17.0629	-149.684	-167.523	-0.005653	0.513126	-0.522316	-0.523589	-0.045987	17.0629	-0.520294	-6.57192e+06	6.997468E-9	NaN
358	1.000000	0.522413	7.36856e+06	-56539.1	955.818	-29739.1	0.000000	0.000000	6.522941	0.016267	NaN	0.000000	0.001573	0.001746	28.0821	0.091894	0.001988	46.219	147.171	-166.032	-0.022244	0.521137	-0.514301	-0.515578	0.016267	46.219	-0.514565	-5.4699e+06	-2.973935E-9	NaN
358	1.000000	0.530439	7.36856e+06	-56539.1	955.819	-29739.1	0.000000	0.000000	6.530962	-0.076544	NaN	0.000000	0.001535	0.001710	28.0819	0.015150	0.002071	7.314326	-39.0346	-163.994	0.029913	0.529064	-0.506276	-0.507650	-0.076544	7.314326	-0.498427	-3.25888e+06	2.348785E-8	NaN
358	1.000000	0.538403	7.36856e+06	-56539.1	955.818	-29739.1	0.000000	0.000000	6.538929	-0.019139	NaN	0.000000	0.001508	0.001708	28.0821	0.049536	0.002036	24.3329	-135.266	-162.779	-0.092729	0.537106	-0.498311	-0.499608	-0.019139	24.3329	-0.497721	-3.18584e+06	6.007533E-9	NaN
358	1.000000	0.546433	7.36856e+06	-56539.1	955.819	-29739.1	0.000000	0.000000	6.546960	0.021739	NaN	0.000000	0.001540	0.001796	28.0818	0.098351	0.002051	47.947	-92.5866	-165.04	0.093387	0.545173	-0.490282	-0.491542	0.021739	47.947	-0.490622	-2.53562e+06	-8.573539E-9	NaN
358	1.000000	0.554433	7.36856e+06	-56539.1	955.818	-29739.1	0.000000	0.000000	6.554957	-0.046912	NaN	0.000000	0.001517	0.001746	28.0818	0.038677	0.002076	18.633	175.028	-163.868	-0.059714	0.553095	-0.482282	-0.483620	-0.046912	18.633	-0.480393	-1.82405e+06	2.571877E-8	NaN
358	1.000000	0.562453	7.36856e+06	-56539.1	955.818	-29739.1	0.000000	0.000000	6.562980	-0.006009	NaN	0.000000	0.001548	0.001730	28.082	0.072701	0.001876	38.7502	-176.299	-165.793	0.028039	0.561132	-0.474261	-0.475582	-0.006009	38.7502	-0.474145	-1.49113e+06	4.029681E-9	NaN
358	1.000000	0.570445	7.36856e+06	-56539.1	955.818	-29739.1	0.000000	0.000000	6.570971	-0.016213	NaN	0.000000	0.001521	0.001748	28.0817	0.041868	0.002031	20.6187	-174.968	-163.824	-0.084007	0.569111	-0.466270	-0.467603	-0.016213	20.6187	-0.465680	-1.13447e+06	1.429122E-8	NaN
358	1.000000	0.578452	7.36856e+06	-56539.1	955.819	-29739.1	0.000000	0.000000	6.578979	0.002267	NaN	0.000000	0.001534	0.001735	28.0818	0.124822	0.002112	59.0954	115.785	-164.844	-0.015622	0.577156	-0.458262	-0.459558	0.002267	59.0954	-0.458291	-893299	-2.538167E-9	NaN
358	1.000000	0.586428	7.36856e+06	-56539.1	955.818	-29739.1	0.000000	0.000000	6.586955	0.020584	NaN	0.000000	0.001503	0.001747	28.0816	0.059760	0.001961	30.4702	-44.9915	-166.56	0.022076	0.585150	-0.450287	-0.451564	0.020584	30.4702	-0.450793	-700671	-2.937760E-8	NaN
358	1.000000	0.594440	7.36856e+06	-56539.1	955.819	-29739.1	0.000000	0.000000	6.594965	-0.035229	NaN	0.000000	0.001493	0.001747	28.0815	0.058655	0.001914	30.6409	53.1445	-164.08	-0.057643	0.593141	-0.442274	-0.443574	-0.035229	30.6409	-0.441412	-516763	6.817214E-8	NaN
358	1.000000	0.602445	7.36856e+06	-56539.1	955.819	-29739.1	0.000000	0.000000	6.602970	-0.016422	NaN	0.000000	0.001517	0.001743	28.0817	0.037550	0.002052	18.295	130.08	-166.438	-0.123711	0.601149	-0.434270	-0.435565	-0.016422	18.295	-0.433597	-400796	4.097462E-8	NaN
358	1.000000	0.610453	7.36856e+06	-56539.1	955.818	-29739.1	0.000000	0.000000	6.610979	-0.012717	NaN	0.000000	0.001519	0.001770	28.0816	0.098313	0.001920	51.2012	112.498	-166.022	0.006002	0.609157	-0.426262	-0.427558	-0.012717	51.2012	-0.426076	-313701	4.053913E-8	NaN
358	1.000000	0.618467	7.36856e+06	-56539.1	955.818	-29739.1	0.000000	0.000000	6.618993	-0.018337	NaN	0.000000	0.001539	0.001720	28.0817	0.027786	0.001963	14.1521	134.385	-162.195	-0.029930	0.617205	-0.418247	-0.419510	-0.018337	14.1521	-0.417275	-235375	7.790461E-8	NaN
358	1.000000	0.626447	7.36856e+06	-56539.1	955.819	-29739.1	0.000000	0.000000	6.626974	0.007610	NaN	0.000000	0.001506	0.001694	28.0815	0.041417	0.001995	20.7581	-64.9812	-162.741	0.016292	0.625143	-0.410267	-0.411572	0.007610	20.7581	-0.410542	-188847	-4.029578E-8	NaN
358	1.000000	0.634490	7.36856e+06	-56539.1	955.819	-29739.1	0.000000	0.000000	6.635014	-0.040343	NaN	0.000000	0.001478	0.001752	28.0817	0.058187	0.001953	29.7956	-28.7652	-165.917	0.097944	0.633207	-0.402225	-0.403508	-0.040343	29.7956	-0.401210	-139072	2.900871E-7	NaN
358	1.000000	0.642484	7.36856e+06	-56539.1	955.818	-29739.1	0.000000	0.000000	6.643011	-0.002157	NaN	0.000000	0.001472	0.001751	28.0809	0.084918	0.002082	40.7958	110.976	-164.184	-0.036257	0.641166	-0.394230	-0.395548	-0.002157	40.7958	-0.394191	-110426	1.953279E-8	NaN
358	1.000000	0.650472	7.36856e+06	-56539.1	955.819	-29739.1	0.000000	0.000000	6.650998	-0.020200	NaN	0.000000	0.001481	0.001771	28.0804	0.145210	0.002049	70.8773	32.0707	-164.556	-0.108336	0.649160	-0.386242	-0.387554	-0.020200	70.8773	-0.386029	-84396.2	2.393420E-7	NaN
358	1.000000	0.658472	7.36856e+06	-56539.1	955.819	-29739.1	0.000000	0.000000	6.658998	-0.015769	NaN	0.000000	0.001558	0.001784	28.0804	0.018858	0.002039	9.249953	-71.3025	-163.168	-0.011683	0.657193	-0.378243	-0.379522	-0.015769	9.249953	-0.376964	-62559.7	2.520667E-7	NaN
358	1.000000	0.666509	7.36856e+06	-56539.1	955.818	-29739.1	0.000000	0.000000	6.667037	0.022971	NaN	0.000000	0.001598	0.001714	28.0803	0.039822	0.001996	19.9499	-76.9368	-164.143	0.034409	0.665178	-0.370205	-0.371536	0.022971	19.9499	-0.371069	-51465.5	-4.463317E-7	NaN
358	1.000000	0.674499	7.36856e+06	-56539.1	955.819	-29739.1	0.000000	0.000000	6.675026	0.006763	NaN	0.000000	0.001610	0.001755	28.0806	0.035511	0.001980	17.9375	161.889	-159.638	-0.018481	0.673168	-0.362216	-0.363547	0.006763	17.9375	-0.362499	-38720.9	-1.746497E-7	NaN
358	1.000000	0.682508	7.36856e+06	-56539.1	955.819	-29739.1	0.000000	0.000000	6.683033	-0.040192	NaN	0.000000	0.001632	0.001738	28.0801	0.064331	0.002085	30.8538	-113.787	-164.729	-0.008206	0.681129	-0.354207	-0.355586	-0.040192	30.8538	-0.353230	-28434.4	1.413508E-6	NaN
358	1.000000	0.690477	7.36856e+06	-56539.1	955.82	-29739.1	0.000000	0.000000	6.691003	-0.012348	NaN	0.000000	0.001634	0.001751	28.0801	0.096315	0.001863	51.7094	83.6976	-165.368	-0.021764	0.689107	-0.346238	-0.347608	-0.012348	51.7094	-0.346059	-22374.4	5.518990E-7	NaN
358	1.000000	0.698525	7.36857e+06	-56539.1	955.819	-29739.1	0.000000	0.000000	6.699052	0.025750	NaN	0.000000	0.001614	0.001752	28.0802	0.091113	0.001919	47.4695	-59.6333	-164.377	0.049286	0.697212	-0.338190	-0.339502	0.025750	47.4695	-0.338597	-17421.7	-1.478035E-6	NaN
358	1.000000	0.706504	7.36857e+06	-56539.1	955.819	-29739.1	0.000000	0.000000	6.707029	-0.039305	NaN	0.000000	0.001572	0.001733	28.0801	0.051404	0.002061	24.9426	-93.2616	-161.52	-0.036244	0.705219	-0.330210	-0.331496	-0.039305	24.9426	-0.329028	-12624.6	3.113362E-6	NaN
358	1.000000	0.714499	7.36857e+06	-56539.1	955.819	-29739.1	0.000000	0.000000	6.715022	-0.077393	NaN	0.000000	0.001512	0.001748	28.0803	0.034076	0.002116	16.1031	-90.8257	-166.174	-0.031926	0.713204	-0.322216	-0.323510	-0.077393	16.1031	-0.318611	-8875.46	8.719892E-6	NaN
358	1.000000	0.722505	7.36857e+06	-56539.1	955.818	-29739.1	0.000000	0.000000	6.723029	-0.057584	NaN	0.000000	0.001554	0.001716	28.08	0.040551	0.001909	21.238	121.564	-164.183	0.008891	0.721235	-0.314210	-0.315479	-0.057584	21.238	-0.312176	-7132.52	8.073477E-6	NaN
358	1.000000	0.730509	7.36857e+06	-56539.1	955.819	-29739.1	0.000000	0.000000	6.731034	-0.036477	NaN	0.000000	0.001542	0.001714	28.0805	0.080635	0.001995	40.4207	-74.3346	-164.857	-0.071145	0.729209	-0.306205	-0.307505	-0.036477	40.4207	-0.305528	-5685.85	6.415344E-6	NaN
358	1.000000	0.738496	7.36857e+06	-56539.1	955.819	-29739.1	0.000000	0.000000	6.739021	-0.046018	NaN	0.000000	0.001549	0.001721	28.0803	0.011346	0.001871	6.065879	-17.3956	-167.219	0.027699	0.737200	-0.298218	-0.299515	-0.046018	6.065879	-0.292528	-3640.42	1.264074E-5	NaN
358	1.000000	0.746536	7.36857e+06	-56539.1	955.819	-29739.1	0.000000	0.000000	6.747062	0.000969	NaN	0.000000	0.001500	0.001695	28.0803	0.129000	0.002020	63.8548	50.9728	-164.815	0.034207	0.745267	-0.290179	-0.291447	0.000969	63.8548	-0.290190	-3358.57	-2.886373E-7	NaN
358	1.000000	0.754531	7.36857e+06	-56539.1	955.818	-29739.1	0.000000	0.000000	6.755057	0.006364	NaN	0.000000	0.001564	0.001706	28.0805	0.027375	0.002080	13.1617	137.741	-165.488	-0.019897	0.753261	-0.282184	-0.283454	0.006364	13.1617	-0.282547	-2578.42	-2.468230E-6	NaN
358	1.000000	0.762537	7.36857e+06	-56539.1	955.819	-29739.1	0.000000	0.000000	6.763062	-0.032049	NaN	0.000000	0.001524	0.001723	28.0803	0.081068	0.002081	38.9637	-175.154	-165.422	-0.080592	0.761214	-0.274178	-0.275500	-0.032049	38.9637	-0.273561	-1886.25	1.699110E-5	NaN
358	1.000000	0.770507	7.36857e+06	-56539.1	955.819	-29739.1	0.000000	0.000000	6.771030	-0.087366	NaN	0.000000	0.001501	0.001710	28.0807	0.119428	0.002082	57.3637	102.833	-164.782	-0.134531	0.769206	-0.266207	-0.267509	-0.087366	57.3637	-0.265065	-1400.81	6.236808E-5	NaN
358	1.000000	0.778540	7.36857e+06	-56539.1	955.818	-29739.1	0.000000	0.000000	6.779064	-0.058173	NaN	0.000000	0.001494	0.001736	28.0809	0.034449	0.002047	16.8251	160.908	-163.555	-0.116957	0.777214	-0.258175	-0.259500	-0.058173	16.8251	-0.255582	-1002.47	5.802931E-5	NaN
358	1.000000	0.786515	7.36857e+06	-56539.1	955.819	-29739.1	0.000000	0.000000	6.787043	0.046828	NaN	0.000000	0.001535	0.001743	28.0814	0.053121	0.001940	27.3854	7.264043	-165.028	0.040669	0.785186	-0.250200	-0.251528	0.046828	27.3854	-0.251482	-866.713	-5.402915E-5	NaN
358	1.000000	0.794554	7.36857e+06	-56539.1	955.819	-29739.1	0.000000	0.000000	6.795079	-0.036154	NaN	0.000000	0.001500	0.001728	28.0817	0.073528	0.001964	37.4455	120.772	-164.532	-0.032982	0.793188	-0.242160	-0.243526	-0.036154	37.4455	-0.241436	-605.298	5.972919E-5	NaN
358	1.000000	0.802537	7.36857e+06	-56539.1	955.819	-29739.1	0.000000	0.000000	6.803060	-0.082544	NaN	0.000000	0.001502	0.001753	28.0815	0.063066	0.001872	33.6808	48.6488	-165.418	-0.033701	0.801282	-0.234178	-0.235432	-0.082544	33.6808	-0.232340	-435.925	0.000189	NaN
358	1.000000	0.810543	7.36857e+06	-56539.1	955.819	-29739.1	0.000000	0.000000	6.811067	-0.064887	NaN	0.000000	0.001546	0.001771	28.0819	0.142793	0.002056	69.458	29.9492	-164.6	-0.036596	0.809223	-0.226172	-0.227491	-0.064887	69.458	-0.225471	-339.478	0.000191	NaN
358	1.000000	0.818561	7.36857e+06	-56539.1	955.818	-29739.1	0.000000	0.000000	6.819086	-0.031615	NaN	0.000000	0.001516	0.001786	28.0817	0.089430	0.001981	45.1394	-65.4849	-163.356	-0.031041	0.817225	-0.218154	-0.219490	-0.031615	45.1394	-0.217628	-254.519	0.000124	NaN
358	1.000000	0.826515	7.36857e+06	-56539.1	955.818	-29739.1	0.000000	0.000000	6.827039	-0.054453	NaN	0.000000	0.001538	0.001748	28.0815	0.035782	0.002062	17.3543	-67.4644	-160.363	-0.160868	0.825264	-0.210200	-0.211450	-0.054453	17.3543	-0.207847	-176.967	0.000308	NaN
358	1.000000	0.834549	7.36857e+06	-56539.1	955.819	-29739.1	0.000000	0.000000	6.835076	0.000118	NaN	0.000000	0.001538	0.001791	28.0815	0.137837	0.001925	71.5975	-83.8777	-164.889	-0.050810	0.833228	-0.202166	-0.203487	0.000118	71.5975	-0.202167	-142.972	-8.240361E-7	NaN
358	1.000000	0.842552	7.36857e+06	-56539.1	955.819	-29739.1	0.000000	0.000000	6.843079	0.032707	NaN	0.000000	0.001525	0.001770	28.0814	0.041017	0.002029	20.2169	-20.9967	-165.152	0.024502	0.841258	-0.194163	-0.195457	0.032707	20.2169	-0.195376	-110.519	-0.000296	NaN
358	1.000000	0.850536	7.36857e+06	-56539.1	955.818	-29739.1	0.000000	0.000000	6.851064	0.033250	NaN	0.000000	0.001544	0.001769	28.0815	0.028421	0.002092	13.583	-154.222	-165.86	0.000951	0.849286	-0.186178	-0.187429	0.033250	13.583	-0.188014	-83.3296	-0.000399	NaN
358	1.000000	0.858558	7.36857e+06	-56539.1	955.819	-29739.1	0.000000	0.000000	6.859085	0.001350	NaN	0.000000	0.001537	0.001765	28.0816	0.022838	0.001999	11.4252	62.7967	-166.52	-0.011280	0.857236	-0.178156	-0.179479	0.001350	11.4252	-0.178245	-56.958	-2.370399E-5	NaN
358	1.000000	0.866553	7.36857e+06	-56539.1	955.818	-29739.1	0.000000	0.000000	6.867079	-0.002213	NaN	0.000000	0.001556	0.001786	28.082	0.054339	0.001900	28.5974	168.479	-166.43	-0.010818	0.865281	-0.170162	-0.171433	-0.002213	28.5974	-0.170104	-41.2493	5.363851E-5	NaN
358	1.000000	0.874579	7.36857e+06	-56539.1	955.818	-29739.1	0.000000	0.000000	6.875102	-0.089009	NaN	0.000000	0.001541	0.001731	28.0815	0.039954	0.001891	21.1268	23.3933	-160.978	-0.144708	0.873289	-0.162135	-0.163426	-0.089009	21.1268	-0.158976	-26.2881	0.003386	NaN
358	1.000000	0.882566	7.36857e+06	-56539.1	955.819	-29739.1	0.000000	0.000000	6.883090	-0.055336	NaN	0.000000	0.001536	0.001742	28.0816	0.018790	0.002042	9.203050	-105.172	-163.281	0.012094	0.881235	-0.154148	-0.155480	-0.055336	9.203050	-0.149639	-17.8408	0.003102	NaN
358	1.000000	0.890597	7.36857e+06	-56539.1	955.819	-29739.1	0.000000	0.000000	6.891121	-0.063167	NaN	0.000000	0.001477	0.001757	28.0816	0.067373	0.001934	34.844	52.93	-167.26	-0.071241	0.889265	-0.146117	-0.147450	-0.063167	34.844	-0.144758	-14.5105	0.004353	NaN
358	1.000000	0.898570	7.36857e+06	-56539.1	955.818	-29739.1	0.000000	0.000000	6.899095	-0.026801	NaN	0.000000	0.001513	0.001769	28.0816	0.104230	0.002065	50.4756	62.2318	-165.827	-0.021142	0.897333	-0.138145	-0.139382	-0.026801	50.4756	-0.137747	-10.7273	0.002498	NaN
358	1.000000	0.906534	7.36857e+06	-56539.1	955.819	-29739.1	0.000000	0.000000	6.907058	-0.081551	NaN	0.000000	0.001473	0.001723	28.0818	0.135070	0.001960	68.92	161.803	-164.178	-0.093501	0.905283	-0.130180	-0.131432	-0.081551	68.92	-0.129293	-7.383419	0.011045	NaN
358	1.000000	0.914571	7.36857e+06	-56539.1	955.818	-29739.1	0.000000	0.000000	6.915097	-0.016851	NaN	0.000000	0.001484	0.001779	28.0813	0.077044	0.001983	38.8538	23.9652	-166.397	0.004776	0.913248	-0.122144	-0.123466	-0.016851	38.8538	-0.121818	-5.255924	0.003206	NaN
358	1.000000	0.922566	7.36857e+06	-56539.1	955.819	-29739.1	0.000000	0.000000	6.923092	-0.037822	NaN	0.000000	0.001465	0.001744	28.0804	0.081808	0.001948	41.9917	-147.257	-163.646	-0.058371	0.921312	-0.114148	-0.115402	-0.037822	41.9917	-0.113473	-3.552322	0.010647	NaN
358	1.000000	0.930574	7.36857e+06	-56539.1	955.819	-29739.1	0.000000	0.000000	6.931099	-0.041751	NaN	0.000000	0.001474	0.001747	28.0803	0.012247	0.002033	6.023956	103.629	-163.852	-0.062804	0.929273	-0.106141	-0.107441	-0.041751	6.023956	-0.100943	-1.916991	0.021779	NaN
358	1.000000	0.938586	7.36857e+06	-56539.1	955.819	-29739.1	0.000000	0.000000	6.939112	-0.025590	NaN	0.000000	0.001469	0.001746	28.0804	0.073473	0.001991	36.9116	103.858	-167.342	-0.020512	0.937317	-0.098128	-0.099397	-0.025590	36.9116	-0.097608	-1.615887	0.015837	NaN
358	1.000000	0.946581	7.36857e+06	-56539.1	955.819	-29739.1	0.000000	0.000000	6.947106	-0.029193	NaN	0.000000	0.001572	0.001753	28.0806	0.049647	0.002075	23.9238	-71.2379	-166.188	-0.033967	0.945280	-0.090134	-0.091434	-0.029193	23.9238	-0.089219	-1.036194	0.028173	NaN
358	1.000000	0.954576	7.36857e+06	-56539.1	955.818	-29739.1	0.000000	0.000000	6.955104	0.033095	NaN	0.000000	0.001578	0.001707	28.0805	0.047950	0.001922	24.9435	-103.822	-162.987	0.063259	0.953245	-0.082139	-0.083469	0.033095	24.9435	-0.083134	-0.740015	-0.044721	NaN
358	1.000000	0.962622	7.36857e+06	-56539.1	955.818	-29739.1	0.000000	0.000000	6.963149	0.014118	NaN	0.000000	0.001567	0.001716	28.0822	0.059041	0.001916	30.81	-130.084	-164.666	0.039226	0.961316	-0.074093	-0.075398	0.014118	30.81	-0.074436	-0.446590	-0.031612	NaN
358	1.000000	0.970589	7.36857e+06	-56539.1	955.818	-29739.1	0.000000	0.000000	6.971113	-0.049182	NaN	0.000000	0.001598	0.001685	28.0803	0.067650	0.002016	33.5501	-149.6	-164.913	0.001188	0.969296	-0.066126	-0.067419	-0.049182	33.5501	-0.065026	-0.249637	0.197013	NaN
358	1.000000	0.978612	7.36857e+06	-56539.1	955.818	-29739.1	0.000000	0.000000	6.979137	-0.052971	NaN	0.000000	0.001555	0.001714	28.0805	0.047628	0.001941	24.5323	-163.68	-168.224	-0.061305	0.977283	-0.058102	-0.059431	-0.052971	24.5323	-0.056483	-0.142393	0.372002	NaN
358	1.000000	0.986629	7.36857e+06	-56539.1	955.818	-29739.1	0.000000	0.000000	6.987151	-0.098967	NaN	0.000000	0.001539	0.001717	28.0805	0.038269	0.002088	18.3259	170.797	-166.431	-0.051700	0.985288	-0.050086	-0.051426	-0.098967	18.3259	-0.046036	-0.069128	1.431652	NaN
358	1.000000	0.994637	7.36857e+06	-56539.1	955.82	-29739.1	0.000000	0.000000	6.995164	-0.007386	NaN	0.000000	0.001547	0.001748	28.0804	0.074010	0.001990	37.1914	-107.665	-163.894	-0.088205	0.993363	-0.042077	-0.043351	-0.007386	37.1914	-0.041928	-0.051770	0.142673	NaN
358	1.000000	1.002612	7.36857e+06	-56539.1	955.817	-29739.1	0.000000	0.000000	7.003139	-0.005914	NaN	0.000000	0.001598	0.001766	28.0808	0.045626	0.002004	22.7673	104.925	-169.779	0.011901	1.001336	-0.034102	-0.035379	-0.005914	22.7673	-0.033907	-0.029748	0.198790	NaN
358	1.000000	1.010637	7.36857e+06	-56539.1	955.818	-29739.1	0.000000	0.000000	7.011162	-0.038498	NaN	0.000000	0.001577	0.001728	28.0803	0.129273	0.002029	63.7276	-67.3314	-164.972	0.016427	1.009320	-0.026077	-0.027395	-0.038498	63.7276	-0.025624	-0.017518	2.197621	NaN
358	1.000000	1.018607	7.36857e+06	-56539.1	955.819	-29739.1	0.000000	0.000000	7.019133	0.000983	NaN	0.000000	0.001573	0.001773	28.0807	0.128498	0.002087	61.5599	-86.5423	-164.431	-0.005906	1.017374	-0.018108	-0.019340	0.000983	61.5599	-0.018120	-0.011243	-0.087434	NaN
358	1.000000	1.026616	7.36857e+06	-56539.1	955.819	-29739.1	0.000000	0.000000	7.027141	-0.036404	NaN	0.000000	0.001579	0.001776	28.0804	0.038547	0.001999	19.2856	-65.8939	-167.379	-0.089717	1.025340	-0.010099	-0.011374	-0.036404	19.2856	-0.008683	-0.005629	6.466747	NaN
358	1.000000	1.034621	7.36857e+06	-56539.1	955.819	-29739.1	0.000000	0.000000	7.035147	-0.024332	NaN	0.000000	0.001604	0.001818	28.0803	0.049503	0.002117	23.3819	153.712	-161.649	-0.018869	1.033318	-0.002093	-0.003396	-0.024332	23.3819	-0.001313	-0.000957	25.4308	NaN
358	1.000000	1.042611	7.36857e+06	-56539.1	955.818	-29739.1	0.000000	0.000000	7.043263	3.058786	NaN	0.000000	0.001604	0.001812	28.0805	3.700376	0.001795	2062.01	11.6281	-167.104	2.053460	1.041265	0.005896	0.004551	3.058786	2062.01	0.004784	0.003937	776.949	30025.2
358	2.000000	1.049162	7.36857e+06	-56539.1	955.819	-29739.1	0.000000	0.000000	7.050062	9.082443	NaN	0.000000	0.001571	0.001823	28.0804	9.062269	0.001589	5703.7	11.8706	-175.743	9.230543	1.048835	0.012447	0.012120	9.082443	5703.7	0.011253	0.010608	856.215	50596.4
358	2.000000	1.051138	7.36857e+06	-56539.1	955.82	-29739.1	0.000000	0.000000	7.052127	11.2424	NaN	0.000000	0.001532	0.001781	28.082	11.6393	0.001619	7188.42	9.768960	-176.794	11.1589	1.050846	0.014423	0.014132	11.2424	7188.42	0.013250	0.013022	863.306	57551.9
358	2.000000	1.053181	7.36857e+06	-56539.1	955.82	-29739.1	0.000000	0.000000	7.054310	14.6541	NaN	0.000000	0.001526	0.001746	28.0815	13.9098	0.001663	8366.51	9.025137	-176.929	14.2416	1.052827	0.016466	0.016112	14.6541	8366.51	0.015152	0.015489	946.087	61419.2
358	2.000000	1.055120	7.36857e+06	-56539.1	955.82	-29739.1	0.000000	0.000000	7.056350	17.1011	NaN	0.000000	0.001512	0.001733	28.0813	15.4308	0.001642	9394.96	1.159267	-170.378	16.2197	1.054804	0.018405	0.018090	17.1011	9394.96	0.017040	0.018103	944.663	63796.1
358	2.000000	1.057106	7.36857e+06	-56539.1	955.82	-29739.1	0.000000	0.000000	7.058545	22.1717	NaN	0.000000	0.001539	0.001766	28.0813	18.6786	0.001863	10025.3	11.0547	-178.313	22.7401	1.056771	0.020391	0.020056	22.1717	10025.3	0.018733	0.020590	1076.83	63832.9
358	2.000000	1.059106	7.36857e+06	-56539.1	955.82	-29739.1	0.000000	0.000000	7.060625	24.1334	NaN	0.000000	0.001531	0.001731	28.0813	19.9083	0.001724	11547.8	4.616116	-176.374	24.0212	1.058818	0.022391	0.022103	24.1334	11547.8	0.020824	0.023853	1011.74	68311.9
358	2.000000	1.061108	7.36857e+06	-56539.1	955.82	-29739.1	0.000000	0.000000	7.062866	29.9449	NaN	0.000000	0.001543	0.001739	28.0825	21.8674	0.001766	12379.8	9.897058	178.645	30.1718	1.060750	0.024393	0.024035	29.9449	12379.8	0.022579	0.026758	1119.11	69145.6
358	2.000000	1.063157	7.36857e+06	-56539.1	955.82	-29739.1	0.000000	0.000000	7.065160	35.8859	NaN	0.000000	0.001523	0.001732	28.0816	23.6904	0.001786	13264.3	5.495443	-176.08	35.9331	1.062738	0.026443	0.026023	35.8859	13264.3	0.024414	0.029957	1197.9	70017.2
358	2.000000	1.065043	7.36857e+06	-56539.1	955.82	-29739.1	0.000000	0.000000	7.067219	40.0849	NaN	0.000000	0.001550	0.001760	28.0813	25.2935	0.001682	15035.5	7.812197	-179.731	37.9883	1.064693	0.028329	0.027979	40.0849	15035.5	0.026329	0.033478	1197.35	75077.8
358	2.000000	1.067107	7.36857e+06	-56539.1	955.821	-29739.1	0.000000	0.000000	7.069329	41.2108	NaN	0.000000	0.001521	0.001762	28.0812	28.1171	0.001695	16592.4	6.230276	179.136	40.6073	1.066786	0.030392	0.030071	41.2108	16592.4	0.028529	0.037750	1091.67	78022.7
358	2.000000	1.069093	7.36857e+06	-56539.1	955.82	-29739.1	0.000000	0.000000	7.071586	47.8042	NaN	0.000000	0.001567	0.001743	28.081	28.7921	0.001771	16258.7	4.338486	-177.168	48.1899	1.068834	0.032378	0.032120	47.8042	16258.7	0.030173	0.041104	1163.02	73268.8
358	2.000000	1.071108	7.36857e+06	-56539.1	955.82	-29739.1	0.000000	0.000000	7.073731	50.9645	NaN	0.000000	0.001554	0.001766	28.0814	31.3995	0.001723	18222.2	3.729018	-178.48	53.4844	1.070711	0.034393	0.033997	50.9645	18222.2	0.032296	0.045636	1116.75	77932.3
358	2.000000	1.073043	7.36857e+06	-56539.1	955.819	-29739.1	0.000000	0.000000	7.076027	59.7209	NaN	0.000000	0.001541	0.001784	28.0813	33.7807	0.001741	19406.2	8.049815	176.892	58.0297	1.072763	0.036329	0.036048	59.7209	19406.2	0.034021	0.049491	1206.71	79698.8
358	2.000000	1.075073	7.36857e+06	-56539.1	955.82	-29739.1	0.000000	0.000000	7.078268	64.8614	NaN	0.000000	0.001558	0.001782	28.0814	35.558	0.001785	19916	5.275810	-179.712	65.5495	1.074729	0.038358	0.038014	64.8614	19916	0.035916	0.053900	1203.37	78375.9
358	2.000000	1.077023	7.36857e+06	-56539.1	955.82	-29739.1	0.000000	0.000000	7.080505	71.8245	NaN	0.000000	0.001555	0.001809	28.0815	38.6112	0.001856	20804.1	3.991157	-179.66	70.3635	1.076839	0.040309	0.040125	71.8245	20804.1	0.037719	0.058267	1232.67	78742.4
358	2.000000	1.079030	7.36857e+06	-56539.1	955.82	-29739.1	0.000000	0.000000	7.082818	79.2663	NaN	0.000000	0.001621	0.001764	28.0815	40.0665	0.001821	22001.9	5.417938	178.413	76.8099	1.078691	0.042315	0.041977	79.2663	22001.9	0.039613	0.063033	1257.54	80066.3
358	2.000000	1.081099	7.36857e+06	-56539.1	955.819	-29739.1	0.000000	0.000000	7.085004	82.1196	NaN	0.000000	0.001630	0.001799	28.0817	43.8344	0.001897	23111.5	10.5839	172.74	82.0177	1.080701	0.044385	0.043986	82.1196	23111.5	0.041720	0.068548	1197.99	80649.8
358	2.000000	1.083068	7.36857e+06	-56539.1	955.82	-29739.1	0.000000	0.000000	7.087430	93.2325	NaN	0.000000	0.001637	0.001790	28.0814	44.4727	0.001812	24546.1	4.357278	178.261	91.1725	1.082627	0.046353	0.045913	93.2325	24546.1	0.043505	0.073399	1270.22	82777.2
358	2.000000	1.085006	7.36857e+06	-56539.1	955.819	-29739.1	0.000000	0.000000	7.089736	102.185	NaN	0.000000	0.001614	0.001828	28.0804	45.9064	0.001861	24670.3	8.723768	175.436	100.572	1.084707	0.048291	0.047992	102.185	24670.3	0.045185	0.078113	1308.18	80646.8
358	2.000000	1.087013	7.36857e+06	-56539.1	955.82	-29739.1	0.000000	0.000000	7.092150	112.07	NaN	0.000000	0.001623	0.001785	28.0803	47.381	0.001774	26704.4	5.199390	176.916	110.195	1.086711	0.050298	0.049996	112.07	26704.4	0.047151	0.083811	1337.18	84276.6
358	2.000000	1.088985	7.36857e+06	-56539.1	955.82	-29739.1	0.000000	0.000000	7.094294	116.242	NaN	0.000000	0.001594	0.001766	28.0804	48.267	0.001787	27016.8	6.090244	175.852	112.641	1.088701	0.052270	0.051986	116.242	27016.8	0.049043	0.089478	1299.11	82517.8
358	2.000000	1.091035	7.36857e+06	-56539.1	955.82	-29739.1	0.000000	0.000000	7.096774	126.709	NaN	0.000000	0.001596	0.001765	28.081	51.203	0.001770	28928.7	5.671451	175.376	125.035	1.090683	0.054320	0.053968	126.709	28928.7	0.051035	0.095639	1324.86	85464.3
358	2.000000	1.093064	7.36857e+06	-56539.1	955.82	-29739.1	0.000000	0.000000	7.099178	135.817	NaN	0.000000	0.001604	0.001768	28.0803	52.8144	0.001670	31634.3	6.495135	175.669	134.76	1.092642	0.056349	0.055927	135.817	31634.3	0.053129	0.102330	1327.24	90350.3
358	2.000000	1.095048	7.36857e+06	-56539.1	955.819	-29739.1	0.000000	0.000000	7.101491	143.809	NaN	0.000000	0.001594	0.001749	28.0804	54.3162	0.001855	29281.9	3.101877	178.415	142.376	1.094706	0.058334	0.057991	143.809	29281.9	0.054650	0.107327	1339.92	81661.7
358	2.000000	1.097038	7.36857e+06	-56539.1	955.82	-29739.1	0.000000	0.000000	7.103681	148.663	NaN	0.000000	0.001559	0.001767	28.0804	58.491	0.001875	31193.2	9.101295	171.803	149.203	1.096826	0.060324	0.060112	148.663	31193.2	0.056749	0.114410	1299.39	84256.2
358	2.000000	1.099079	7.36857e+06	-56539.1	955.82	-29739.1	0.000000	0.000000	7.106082	157.409	NaN	0.000000	0.001547	0.001759	28.0805	57.9721	0.001748	33160.8	5.937305	174.796	159.632	1.098716	0.062364	0.062002	157.409	33160.8	0.058804	0.121556	1294.95	86898.3
358	2.000000	1.101063	7.36857e+06	-56539.1	955.82	-29739.1	0.000000	0.000000	7.108440	166.509	NaN	0.000000	0.001522	0.001750	28.0804	60.5263	0.001783	33954	3.986564	176.469	165.79	1.100642	0.064349	0.063928	166.509	33954	0.060671	0.128225	1298.57	86631.8
358	2.000000	1.103061	7.36857e+06	-56539.1	955.821	-29739.1	0.000000	0.000000	7.110905	177.844	NaN	0.000000	0.001564	0.001748	28.0807	63.4649	0.001887	33626.3	7.778384	173.261	178.76	1.102667	0.066347	0.065953	177.844	33626.3	0.062380	0.134481	1322.44	83776.4
358	2.000000	1.104996	7.36857e+06	-56539.1	955.82	-29739.1	0.000000	0.000000	7.113339	189.993	NaN	0.000000	0.001552	0.001764	28.0804	64.3804	0.001766	36447.5	4.315583	174.753	187.734	1.104742	0.068281	0.068027	189.993	36447.5	0.064371	0.141949	1338.46	88384.3
358	2.000000	1.107009	7.36857e+06	-56539.1	955.82	-29739.1	0.000000	0.000000	7.115580	195.527	NaN	0.000000	0.001557	0.001766	28.0803	67.2737	0.001788	37628.7	5.061395	173.816	193.574	1.106689	0.070294	0.069974	195.527	37628.7	0.066397	0.149741	1305.77	88842.9
358	2.000000	1.109020	7.36857e+06	-56539.1	955.82	-29739.1	0.000000	0.000000	7.118257	211.717	NaN	0.000000	0.001584	0.001755	28.0804	68.2007	0.001757	38808.2	6.174753	172.735	210.316	1.108623	0.072305	0.071909	211.717	38808.2	0.068214	0.156897	1349.4	89513.6
358	2.000000	1.110985	7.36857e+06	-56539.1	955.82	-29739.1	0.000000	0.000000	7.120659	222.339	NaN	0.000000	0.001558	0.001808	28.0804	70.7272	0.001839	38461	5.338698	173.699	221.115	1.110721	0.074270	0.074006	222.339	38461	0.069935	0.163823	1357.19	86817.4
358	2.000000	1.113056	7.36857e+06	-56539.1	955.819	-29739.1	0.000000	0.000000	7.123148	232.498	NaN	0.000000	0.001545	0.001791	28.0806	72.2907	0.001681	43007.8	4.595924	173.342	235.068	1.112753	0.076342	0.076038	232.498	43007.8	0.072287	0.173517	1339.91	94329.9
358	2.000000	1.114948	7.36857e+06	-56539.1	955.82	-29739.1	0.000000	0.000000	7.125583	245.689	NaN	0.000000	0.001545	0.001756	28.0805	72.7633	0.001641	44331.4	4.899770	172.814	240.837	1.114671	0.078234	0.077956	245.689	44331.4	0.074077	0.181068	1356.89	95183.8
358	2.000000	1.117047	7.36857e+06	-56539.1	955.82	-29739.1	0.000000	0.000000	7.128003	253.485	NaN	0.000000	0.001570	0.001798	28.0803	78.4928	0.001823	43058	8.085592	169.46	256.089	1.116795	0.080333	0.080081	253.485	43058	0.075917	0.188989	1341.27	90491.7
358	2.000000	1.118983	7.36857e+06	-56539.1	955.82	-29739.1	0.000000	0.000000	7.130542	268.154	NaN	0.000000	0.001537	0.001793	28.0815	77.9243	0.001792	43482.5	2.955187	174.628	264.791	1.118747	0.082269	0.082033	268.154	43482.5	0.077643	0.196563	1364.22	89605.9
358	2.000000	1.120979	7.36857e+06	-56539.1	955.82	-29739.1	0.000000	0.000000	7.133247	285.398	NaN	0.000000	0.001533	0.001762	28.0817	81.3085	0.001804	45060.7	7.627764	169.866	283.518	1.120614	0.084264	0.083900	285.398	45060.7	0.079514	0.204928	1392.68	90943.3
358	2.000000	1.123003	7.36857e+06	-56539.1	955.818	-29739.1	0.000000	0.000000	7.135802	298.294	NaN	0.000000	0.001531	0.001761	28.0818	83.393	0.001886	44221.5	7.650434	170.455	295.772	1.122610	0.086288	0.085895	298.294	44221.5	0.081229	0.212743	1402.14	87595
358	2.000000	1.124985	7.36857e+06	-56539.1	955.819	-29739.1	0.000000	0.000000	7.138166	307.589	NaN	0.000000	0.001555	0.001770	28.0821	85.6206	0.001807	47376.8	10.0097	167.52	306.416	1.124714	0.088270	0.087999	307.589	47376.8	0.083401	0.222832	1380.37	91696
358	2.000000	1.127020	7.36857e+06	-56539.1	955.82	-29739.1	0.000000	0.000000	7.140958	325.986	NaN	0.000000	0.001563	0.001773	28.0819	88.0372	0.001829	48121	5.565037	172.597	327.667	1.126649	0.090306	0.089934	325.986	48121	0.085225	0.231476	1408.29	91380.8
358	2.000000	1.129042	7.36857e+06	-56539.1	955.821	-29739.1	0.000000	0.000000	7.143380	335.703	NaN	0.000000	0.001577	0.001766	28.0818	88.7112	0.001733	51197.9	6.339335	170.857	337.512	1.128625	0.092328	0.091911	335.703	51197.9	0.087410	0.242031	1387.02	95080
358	2.000000	1.131044	7.36857e+06	-56539.1	955.82	-29739.1	0.000000	0.000000	7.145989	350.458	NaN	0.000000	0.001639	0.001767	28.0818	92.1656	0.001795	51359.2	10.375	165.99	353.715	1.130624	0.094329	0.093909	350.458	51359.2	0.089212	0.250901	1396.8	93678.5
358	2.000000	1.132965	7.36857e+06	-56539.1	955.82	-29739.1	0.000000	0.000000	7.148833	372.887	NaN	0.000000	0.001625	0.001764	28.0817	93.2279	0.001862	50060	4.489236	173.281	369.53	1.132661	0.096250	0.095946	372.887	50060	0.090664	0.258159	1444.41	90016.3
358	2.000000	1.134883	7.36857e+06	-56539.1	955.819	-29739.1	0.000000	0.000000	7.151287	385.939	NaN	0.000000	0.001641	0.001737	28.082	93.2832	0.001672	55775	2.297178	174.09	379.51	1.134609	0.098168	0.097894	385.939	55775	0.092978	0.269926	1429.8	98082.3
358	2.000000	1.137026	7.36857e+06	-56539.1	955.82	-29739.1	0.000000	0.000000	7.153576	389.448	NaN	0.000000	0.001644	0.001766	28.0816	97.893	0.001726	56723.8	2.200762	173.841	387.698	1.136802	0.100312	0.100088	389.448	56723.8	0.095163	0.281255	1384.68	97721.2
358	2.000000	1.138929	7.36857e+06	-56539.1	955.821	-29739.1	0.000000	0.000000	7.156423	412.42	NaN	0.000000	0.001647	0.001731	28.0815	98.9374	0.001860	53204.7	3.233346	173.868	408.368	1.138636	0.102214	0.101922	412.42	53204.7	0.096401	0.287773	1433.15	90614.7
358	2.000000	1.140946	7.36857e+06	-56539.1	955.82	-29739.1	0.000000	0.000000	7.159084	428.091	NaN	0.000000	0.001617	0.001742	28.0815	101.585	0.001759	57764.8	4.449366	171.582	426.514	1.140653	0.104231	0.103938	428.091	57764.8	0.098673	0.299917	1427.37	96368.7
358	2.000000	1.142917	7.36857e+06	-56539.1	955.821	-29739.1	0.000000	0.000000	7.161750	444.954	NaN	0.000000	0.001622	0.001747	28.0815	102.821	0.001790	57434.3	3.506628	173.086	438.78	1.142642	0.106203	0.105927	444.954	57434.3	0.100392	0.309263	1438.76	94358.3
358	2.000000	1.145038	7.36857e+06	-56539.1	955.82	-29739.1	0.000000	0.000000	7.164662	464.186	NaN	0.000000	0.001641	0.001732	28.0814	105.115	0.001755	59880.5	8.688273	168.099	466.553	1.144513	0.108324	0.107798	464.186	59880.5	0.102510	0.320959	1446.25	96568.2
358	2.000000	1.147144	7.36857e+06	-56539.1	955.819	-29739.1	0.000000	0.000000	7.167048	471.003	NaN	0.000000	0.001622	0.001815	28.0815	108.667	0.001891	57456.7	7.297488	169.259	480.958	1.146767	0.110429	0.110053	471.003	57456.7	0.104281	0.330897	1423.41	91257.3