File: remote_trans/data/nanoindenter/0828-1/data/Data_2025-08-06,11h17m57s/2025-07-22_16-23-58_1_488.txt
2025-07-22, 16:23:58, 1
Index	Phase	Displacement	Time	Pos X	Pos Y	Pos Z	Rot A	Rot B	Piezo Z	Force A	Force B	Gripper	Voltage A	Voltage B	Temperature	Amplitude force	Amplitude pos	Stiffness	Phase shift	Phase excitation	Force A raw	Displacement raw	HMax	HMax raw	Real Force	Real Stiffness	Contact Depth	Area	Hardness	Reduced Mod.
[#]	[#]	[um]	[s]	[um]	[um]	[um]	[m°]	[m°]	[um]	[uN]	[uN]	[V]	[V]	[V]	[°C]	[uN]	[um]	[N/m]	[°]	[°]	[uN]	[um]	[um]	[um]	[uN]	[N/m]	[um]	[um^2]	[MPa]	[MPa]
488	1.000000	0.002417	7.36983e+06	-52689.1	1005.82	-29748.5	0.000000	0.000000	6.002798	0.003209	NaN	0.000000	0.001498	0.001747	28.0834	0.075593	0.001097	68.8969	116.254	-167.521	0.005216	0.001098	-1.083862	-1.085181	0.003209	68.8969	-1.083897	-3.046884E+14	-1.053073E-17	NaN
488	1.000000	0.010378	7.36983e+06	-52689.1	1005.82	-29748.5	0.000000	0.000000	6.010760	0.009320	NaN	0.000000	0.001515	0.001742	28.0831	0.028166	0.000919	30.6337	86.6163	-170.972	0.020967	0.009054	-1.075900	-1.077225	0.009320	30.6337	-1.076128	-2.396158E+14	-3.889726E-17	NaN
488	1.000000	0.018368	7.36983e+06	-52689.1	1005.82	-29748.5	0.000000	0.000000	6.018750	0.022998	NaN	0.000000	0.001544	0.001770	28.0831	0.044927	0.001666	26.9672	94.8201	-164.072	-0.028660	0.017114	-1.067911	-1.069164	0.022998	26.9672	-1.068551	-1.895466E+14	-1.213333E-16	NaN
488	1.000000	0.026398	7.36983e+06	-52689.1	1005.82	-29748.5	0.000000	0.000000	6.026781	0.018607	NaN	0.000000	0.001483	0.001724	28.0831	0.058309	0.001919	30.3837	79.5696	-166.222	0.030630	0.025075	-1.059880	-1.061204	0.018607	30.3837	-1.060340	-1.470230E+14	-1.265613E-16	NaN
488	1.000000	0.034348	7.36983e+06	-52689.1	1005.82	-29748.5	0.000000	0.000000	6.034729	-0.018773	NaN	0.000000	0.001475	0.001687	28.083	0.076961	0.002017	38.1471	-8.813009	-160.973	-0.002012	0.033068	-1.051930	-1.053210	-0.018773	38.1471	-1.051561	-1.120464E+14	1.675429E-16	NaN
488	1.000000	0.042363	7.36983e+06	-52689.1	1005.82	-29748.5	0.000000	0.000000	6.042744	-0.021032	NaN	0.000000	0.001457	0.001691	28.0831	0.008522	0.001936	4.402199	76.9661	-168.572	-0.044903	0.041076	-1.043915	-1.045202	-0.021032	4.402199	-1.040332	-7.914645E+13	2.657406E-16	NaN
488	1.000000	0.050379	7.36983e+06	-52689.1	1005.82	-29748.5	0.000000	0.000000	6.050760	-0.016591	NaN	0.000000	0.001511	0.001717	28.083	0.083371	0.001962	42.4885	155.283	-168.58	-0.063445	0.049011	-1.035900	-1.037267	-0.016591	42.4885	-1.035607	-6.837391E+13	2.426547E-16	NaN
488	1.000000	0.058376	7.36983e+06	-52689.1	1005.82	-29748.5	0.000000	0.000000	6.058758	0.005524	NaN	0.000000	0.001510	0.001699	28.083	0.046512	0.001945	23.915	110.987	-162.372	0.011808	0.057046	-1.027902	-1.029233	0.005524	23.915	-1.028076	-5.414962E+13	-1.020129E-16	NaN
488	1.000000	0.066373	7.36983e+06	-52689.1	1005.82	-29748.5	0.000000	0.000000	6.066754	-0.022790	NaN	0.000000	0.001474	0.001689	28.0836	0.093289	0.001946	47.9402	-168.676	-165.677	0.093917	0.065087	-1.019906	-1.021192	-0.022790	47.9402	-1.019549	-4.158005E+13	5.481077E-16	NaN
488	1.000000	0.074392	7.36983e+06	-52689.1	1005.82	-29748.5	0.000000	0.000000	6.074771	-0.066078	NaN	0.000000	0.001466	0.001696	28.0818	0.125141	0.002045	61.1914	113.231	-167.044	-0.046090	0.073077	-1.011886	-1.013202	-0.066078	61.1914	-1.011077	-3.197948E+13	2.066258E-15	NaN
488	1.000000	0.082357	7.36983e+06	-52689.1	1005.82	-29748.5	0.000000	0.000000	6.082741	0.061639	NaN	0.000000	0.001467	0.001683	28.0817	0.038617	0.002147	17.9901	-163.985	-165.312	0.007817	0.081029	-1.003922	-1.005249	0.061639	17.9901	-1.006492	-2.774338E+13	-2.221751E-15	NaN
488	1.000000	0.090398	7.36983e+06	-52689.1	1005.82	-29748.5	0.000000	0.000000	6.090780	0.010806	NaN	0.000000	0.001471	0.001697	28.0817	0.047871	0.001963	24.3921	-167.531	-167.826	-0.051059	0.089124	-0.995880	-0.997155	0.010806	24.3921	-0.996213	-2.017319E+13	-5.356671E-16	NaN
488	1.000000	0.098399	7.36983e+06	-52689.1	1005.82	-29748.5	0.000000	0.000000	6.098781	0.002061	NaN	0.000000	0.001500	0.001672	28.0819	0.069685	0.002000	34.8417	90.6197	-168.659	0.019310	0.097099	-0.987880	-0.989179	0.002061	34.8417	-0.987924	-1.560101E+13	-1.320913E-16	NaN
488	1.000000	0.106391	7.36983e+06	-52689.1	1005.82	-29748.5	0.000000	0.000000	6.106770	-0.063310	NaN	0.000000	0.001465	0.001662	28.082	0.036025	0.002105	17.1136	-121.436	-169.209	0.047553	0.105029	-0.979888	-0.981249	-0.063310	17.1136	-0.977113	-1.115630E+13	5.674810E-15	NaN
488	1.000000	0.114387	7.36983e+06	-52689.1	1005.82	-29748.5	0.000000	0.000000	6.114768	-0.009840	NaN	0.000000	0.001496	0.001636	28.0819	0.066552	0.001943	34.2441	98.0567	-169.131	0.029242	0.113094	-0.971892	-0.973184	-0.009840	34.2441	-0.971676	-9.424430E+12	1.044074E-15	NaN
488	1.000000	0.122416	7.36983e+06	-52689.1	1005.82	-29748.5	0.000000	0.000000	6.122798	0.012937	NaN	0.000000	0.001483	0.001644	28.0816	0.050664	0.001997	25.3724	-154.72	-160.632	0.037181	0.121128	-0.963862	-0.965151	0.012937	25.3724	-0.964245	-7.483249E+12	-1.728806E-15	NaN
488	1.000000	0.130424	7.36983e+06	-52689.1	1005.82	-29748.6	0.000000	0.000000	6.130805	-0.009163	NaN	0.000000	0.001509	0.001602	28.0815	0.089383	0.001985	45.0304	97.5303	-164.608	-0.015750	0.129087	-0.955855	-0.957192	-0.009163	45.0304	-0.955702	-5.740156E+12	1.596227E-15	NaN
488	1.000000	0.138402	7.36983e+06	-52689.1	1005.82	-29748.6	0.000000	0.000000	6.138783	-0.017186	NaN	0.000000	0.001498	0.001584	28.0816	0.050978	0.001997	25.5233	77.5564	-165.875	-0.077368	0.137092	-0.947877	-0.949186	-0.017186	25.5233	-0.947371	-4.431761E+12	3.877992E-15	NaN
488	1.000000	0.146420	7.36983e+06	-52689.1	1005.82	-29748.6	0.000000	0.000000	6.146802	0.014610	NaN	0.000000	0.001548	0.001615	28.0817	0.064928	0.001978	32.8218	-43.472	-163.632	0.102372	0.145121	-0.939858	-0.941158	0.014610	32.8218	-0.940192	-3.545921E+12	-4.120250E-15	NaN
488	1.000000	0.154396	7.36983e+06	-52689.1	1005.82	-29748.6	0.000000	0.000000	6.154779	0.033336	NaN	0.000000	0.001565	0.001614	28.0819	0.029834	0.002076	14.3731	36.5326	-164.059	0.033455	0.153099	-0.931882	-0.933179	0.033336	14.3731	-0.933622	-2.891196E+12	-1.153020E-14	NaN
488	1.000000	0.162427	7.36983e+06	-52689.1	1005.82	-29748.6	0.000000	0.000000	6.162811	0.043969	NaN	0.000000	0.001511	0.001593	28.0817	0.067570	0.001927	35.068	-177.459	-170.282	0.033303	0.161059	-0.923851	-0.925219	0.043969	35.068	-0.924792	-2.197321E+12	-2.001013E-14	NaN
488	1.000000	0.170419	7.36983e+06	-52689.1	1005.82	-29748.6	0.000000	0.000000	6.170800	-0.019057	NaN	0.000000	0.001523	0.001617	28.0818	0.093622	0.002086	44.8735	-139.923	-166.237	-0.042313	0.169061	-0.915859	-0.917218	-0.019057	44.8735	-0.915541	-1.648139E+12	1.156277E-14	NaN
488	1.000000	0.178435	7.36983e+06	-52689.1	1005.82	-29748.6	0.000000	0.000000	6.178817	0.004315	NaN	0.000000	0.001520	0.001628	28.0818	0.053587	0.001978	27.0875	-47.1554	-168.133	0.090565	0.177086	-0.907843	-0.909193	0.004315	27.0875	-0.907963	-1.302102E+12	-3.313925E-15	NaN
488	1.000000	0.186416	7.36983e+06	-52689.1	1005.82	-29748.6	0.000000	0.000000	6.186798	0.011497	NaN	0.000000	0.001546	0.001583	28.0819	0.048290	0.002026	23.8353	14.6734	-168.67	-0.028694	0.185113	-0.899862	-0.901166	0.011497	23.8353	-0.900224	-1.023511E+12	-1.123310E-14	NaN
488	1.000000	0.194432	7.36983e+06	-52689.1	1005.82	-29748.6	0.000000	0.000000	6.194812	-0.054313	NaN	0.000000	0.001551	0.001594	28.082	0.066265	0.002016	32.8657	94.4522	-162.962	-0.052898	0.193117	-0.891846	-0.893162	-0.054313	32.8657	-0.890607	-7.587828E+11	7.157859E-14	NaN
488	1.000000	0.202408	7.36983e+06	-52689.1	1005.82	-29748.6	0.000000	0.000000	6.202790	0.013584	NaN	0.000000	0.001547	0.001583	28.082	0.118639	0.001979	59.9468	-153.124	-164.338	-0.027055	0.201104	-0.883871	-0.885175	0.013584	59.9468	-0.884041	-6.185149E+11	-2.196289E-14	NaN
488	1.000000	0.210422	7.36983e+06	-52689.1	1005.82	-29748.6	0.000000	0.000000	6.210804	0.002386	NaN	0.000000	0.001554	0.001620	28.0835	0.050786	0.002021	25.1239	-150.697	-169.205	-0.023999	0.209133	-0.875856	-0.877145	0.002386	25.1239	-0.875928	-4.804288E+11	-4.966208E-15	NaN
488	1.000000	0.218468	7.36983e+06	-52689.1	1005.82	-29748.6	0.000000	0.000000	6.218852	0.079654	NaN	0.000000	0.001564	0.001644	28.0833	0.083655	0.001994	41.9499	140.05	-162.882	0.013726	0.217045	-0.867811	-0.869234	0.079654	41.9499	-0.869235	-3.900271E+11	-2.042277E-13	NaN
488	1.000000	0.226448	7.36983e+06	-52689.1	1005.82	-29748.6	0.000000	0.000000	6.226833	0.071984	NaN	0.000000	0.001517	0.001625	28.0834	0.079659	0.002060	38.6709	99.8666	-165.903	0.001408	0.225192	-0.859830	-0.861087	0.071984	38.6709	-0.861226	-3.038935E+11	-2.368732E-13	NaN
488	1.000000	0.234464	7.36983e+06	-52689.1	1005.82	-29748.6	0.000000	0.000000	6.234843	-0.042077	NaN	0.000000	0.001557	0.001597	28.0833	0.151010	0.002036	74.1702	-88.5463	-166.639	-0.068608	0.233089	-0.851815	-0.853189	-0.042077	74.1702	-0.851390	-2.236418E+11	1.881461E-13	NaN
488	1.000000	0.242434	7.36983e+06	-52689.1	1005.82	-29748.6	0.000000	0.000000	6.242814	-0.048519	NaN	0.000000	0.001550	0.001657	28.0833	0.040549	0.001976	20.5168	-148.732	-167.226	-0.077654	0.241173	-0.843844	-0.845105	-0.048519	20.5168	-0.842071	-1.672408E+11	2.901138E-13	NaN
488	1.000000	0.250444	7.36983e+06	-52689.1	1005.82	-29748.6	0.000000	0.000000	6.250825	-0.014570	NaN	0.000000	0.001528	0.001649	28.0833	0.079578	0.002054	38.7491	130.836	-169.781	-0.025568	0.249172	-0.835835	-0.837107	-0.014570	38.7491	-0.835553	-1.364700E+11	1.067651E-13	NaN
488	1.000000	0.258428	7.36983e+06	-52689.1	1005.82	-29748.6	0.000000	0.000000	6.258810	-3.538052E-5	NaN	0.000000	0.001526	0.001637	28.0835	0.085054	0.001973	43.1093	-81.2986	-168.654	-0.056552	0.257111	-0.827850	-0.829168	-3.538052E-5	43.1093	-0.827850	-1.073088E+11	3.297077E-16	NaN
488	1.000000	0.266470	7.36983e+06	-52689.1	1005.82	-29748.6	0.000000	0.000000	6.266852	0.014853	NaN	0.000000	0.001547	0.001656	28.0834	0.095012	0.001987	47.8084	-124.666	-169.747	0.066191	0.265178	-0.819808	-0.821100	0.014853	47.8084	-0.820041	-8.409563E+10	-1.766231E-13	NaN
488	1.000000	0.274466	7.36983e+06	-52689.1	1005.82	-29748.6	0.000000	0.000000	6.274850	0.049909	NaN	0.000000	0.001571	0.001680	28.0833	0.067176	0.002028	33.1286	-68.6803	-164.93	-0.036671	0.273181	-0.811813	-0.813098	0.049909	33.1286	-0.812942	-6.737350E+10	-7.407856E-13	NaN
488	1.000000	0.282487	7.36983e+06	-52689.1	1005.82	-29748.6	0.000000	0.000000	6.282869	0.018677	NaN	0.000000	0.001552	0.001651	28.0833	0.064178	0.002092	30.6816	-123.47	-163.268	-0.001375	0.281058	-0.803792	-0.805221	0.018677	30.6816	-0.804248	-5.134792E+10	-3.637430E-13	NaN
488	1.000000	0.290480	7.36983e+06	-52689.1	1005.82	-29748.6	0.000000	0.000000	6.290862	0.010499	NaN	0.000000	0.001562	0.001621	28.0832	0.051346	0.002022	25.3932	84.1361	-166.817	-0.036096	0.289195	-0.795799	-0.797083	0.010499	25.3932	-0.796109	-3.981417E+10	-2.637076E-13	NaN
488	1.000000	0.298489	7.36983e+06	-52689.1	1005.82	-29748.6	0.000000	0.000000	6.298873	0.065159	NaN	0.000000	0.001574	0.001661	28.0836	0.116375	0.002014	57.7712	80.0358	-166.527	0.042554	0.297199	-0.787790	-0.789080	0.065159	57.7712	-0.788636	-3.151748E+10	-2.067382E-12	NaN
488	1.000000	0.306444	7.36983e+06	-52689.1	1005.82	-29748.6	0.000000	0.000000	6.306825	-0.023065	NaN	0.000000	0.001595	0.001645	28.0833	0.061703	0.002018	30.5811	-75.5584	-165.556	-0.041067	0.305200	-0.779834	-0.781078	-0.023065	30.5811	-0.779268	-2.351204E+10	9.809934E-13	NaN
488	1.000000	0.314490	7.36983e+06	-52689.1	1005.82	-29748.6	0.000000	0.000000	6.314870	-0.044031	NaN	0.000000	0.001590	0.001623	28.0833	0.063082	0.002041	30.9074	-169.021	-165.825	0.039547	0.313159	-0.771789	-0.773120	-0.044031	30.9074	-0.770720	-1.799281E+10	2.447171E-12	NaN
488	1.000000	0.322506	7.36983e+06	-52689.1	1005.82	-29748.6	0.000000	0.000000	6.322886	-0.039890	NaN	0.000000	0.001569	0.001666	28.0835	0.014446	0.001914	7.547399	-107.877	-167.376	-0.035198	0.321148	-0.763773	-0.765130	-0.039890	7.547399	-0.759809	-1.278498E+10	3.120088E-12	NaN
488	1.000000	0.330497	7.36983e+06	-52689.1	1005.82	-29748.6	0.000000	0.000000	6.330883	0.116277	NaN	0.000000	0.001578	0.001633	28.0831	0.105341	0.002118	49.7451	-145.605	-163.1	0.006294	0.329145	-0.755782	-0.757134	0.116277	49.7451	-0.757535	-1.190600E+10	-9.766258E-12	NaN
488	1.000000	0.338496	7.36983e+06	-52689.1	1005.82	-29748.6	0.000000	0.000000	6.338875	-0.065593	NaN	0.000000	0.001576	0.001603	28.0835	0.049630	0.001988	24.9636	56.338	-163.964	-0.038119	0.337195	-0.747782	-0.749084	-0.065593	24.9636	-0.745812	-8.245199E+9	7.955332E-12	NaN
488	1.000000	0.346484	7.36983e+06	-52689.1	1005.82	-29748.6	0.000000	0.000000	6.346867	0.026284	NaN	0.000000	0.001578	0.001645	28.0817	0.040485	0.001956	20.6957	-32.7269	-164.223	-0.045361	0.345242	-0.739795	-0.741037	0.026284	20.6957	-0.740747	-7.034463E+9	-3.736522E-12	NaN
488	1.000000	0.354506	7.36983e+06	-52689.1	1005.82	-29748.6	0.000000	0.000000	6.354889	0.036770	NaN	0.000000	0.001544	0.001673	28.0819	0.075795	0.001969	38.492	-57.8471	-165.642	0.026869	0.353189	-0.731773	-0.733089	0.036770	38.492	-0.732489	-5.429104E+9	-6.772830E-12	NaN
488	1.000000	0.362516	7.36983e+06	-52689.1	1005.82	-29748.6	0.000000	0.000000	6.362896	-0.046525	NaN	0.000000	0.001560	0.001635	28.0819	0.023709	0.001876	12.6371	-59.98	-165.443	-0.144829	0.361170	-0.723762	-0.725108	-0.046525	12.6371	-0.721001	-3.785504E+9	1.229035E-11	NaN
488	1.000000	0.370514	7.36983e+06	-52689.1	1005.82	-29748.6	0.000000	0.000000	6.370895	-0.019953	NaN	0.000000	0.001569	0.001675	28.0817	0.087800	0.002099	41.8386	-101.036	-166.991	0.022073	0.369163	-0.715764	-0.717115	-0.019953	41.8386	-0.715407	-3.175553E+9	6.283422E-12	NaN
488	1.000000	0.378495	7.36983e+06	-52689.1	1005.82	-29748.6	0.000000	0.000000	6.378875	-0.046636	NaN	0.000000	0.001542	0.001689	28.0821	0.048182	0.002009	23.9866	150.057	-168.581	-0.062129	0.377196	-0.707783	-0.709082	-0.046636	23.9866	-0.706325	-2.387216E+9	1.953582E-11	NaN
488	1.000000	0.386467	7.36983e+06	-52689.1	1005.82	-29748.6	0.000000	0.000000	6.386848	0.002061	NaN	0.000000	0.001552	0.001666	28.0819	0.135621	0.001933	70.1535	-139.529	-167.268	0.006445	0.385152	-0.699812	-0.701127	0.002061	70.1535	-0.699834	-1.946544E+9	-1.058851E-12	NaN
488	1.000000	0.394499	7.36983e+06	-52689.1	1005.82	-29748.6	0.000000	0.000000	6.394882	0.014421	NaN	0.000000	0.001528	0.001640	28.0819	0.077705	0.002078	37.3891	-170.706	-165.264	-0.078822	0.393220	-0.691779	-0.693059	0.014421	37.3891	-0.692068	-1.524698E+9	-9.458180E-12	NaN
488	1.000000	0.402520	7.36983e+06	-52689.1	1005.82	-29748.6	0.000000	0.000000	6.402901	-0.027064	NaN	0.000000	0.001526	0.001679	28.0818	0.206341	0.001908	108.128	-113.686	-168.482	0.009024	0.401267	-0.683758	-0.685012	-0.027064	108.128	-0.683570	-1.166888E+9	2.319350E-11	NaN
488	1.000000	0.410530	7.36983e+06	-52689.1	1005.82	-29748.6	0.000000	0.000000	6.410911	-0.007452	NaN	0.000000	0.001512	0.001634	28.0818	0.171039	0.001990	85.9622	-68.6845	-166.842	-0.029261	0.409178	-0.675749	-0.677100	-0.007452	85.9622	-0.675684	-9.102632E+8	8.186757E-12	NaN
488	1.000000	0.418534	7.36983e+06	-52689.1	1005.82	-29748.6	0.000000	0.000000	6.418916	0.022681	NaN	0.000000	0.001515	0.001645	28.082	0.078373	0.002011	38.9792	-173.729	-167.213	0.027338	0.417263	-0.667745	-0.669015	0.022681	38.9792	-0.668181	-7.186171E+8	-3.156242E-11	NaN
488	1.000000	0.426555	7.36983e+06	-52689.1	1005.82	-29748.6	0.000000	0.000000	6.426938	0.023409	NaN	0.000000	0.001520	0.001631	28.0817	0.047936	0.001906	25.1475	-122.022	-165.113	0.083817	0.425184	-0.659724	-0.661095	0.023409	25.1475	-0.660422	-5.626582E+8	-4.160508E-11	NaN
488	1.000000	0.434547	7.36983e+06	-52689.1	1005.82	-29748.6	0.000000	0.000000	6.434924	-0.114404	NaN	0.000000	0.001510	0.001636	28.0818	0.115892	0.002000	57.9548	110.179	-168.012	-0.080200	0.433184	-0.651731	-0.653095	-0.114404	57.9548	-0.650251	-4.081987E+8	2.802645E-10	NaN
488	1.000000	0.442547	7.36983e+06	-52689.1	1005.82	-29748.6	0.000000	0.000000	6.442928	-0.020771	NaN	0.000000	0.001553	0.001647	28.0817	0.038248	0.001857	20.5925	29.1131	-162.782	-0.025548	0.441270	-0.643732	-0.645009	-0.020771	20.5925	-0.642975	-3.244167E+8	6.402631E-11	NaN
488	1.000000	0.450535	7.36983e+06	-52689.1	1005.82	-29748.6	0.000000	0.000000	6.450912	-0.113627	NaN	0.000000	0.001516	0.001619	28.0821	0.031210	0.001929	16.1811	-47.9789	-166.913	-0.097708	0.449173	-0.635744	-0.637105	-0.113627	16.1811	-0.630477	-2.185619E+8	5.198860E-10	NaN
488	1.000000	0.458526	7.36983e+06	-52689.1	1005.82	-29748.6	0.000000	0.000000	6.458904	-0.076452	NaN	0.000000	0.001527	0.001628	28.0819	0.138009	0.002097	65.8052	-11.1093	-165.731	-0.012049	0.457234	-0.627753	-0.629044	-0.076452	65.8052	-0.626882	-1.950711E+8	3.919175E-10	NaN
488	1.000000	0.466538	7.36983e+06	-52689.1	1005.82	-29748.6	0.000000	0.000000	6.466919	-0.030297	NaN	0.000000	0.001515	0.001648	28.0817	0.088110	0.002171	40.5881	-153.571	-164.734	-0.006035	0.465246	-0.619740	-0.621033	-0.030297	40.5881	-0.619180	-1.528855E+8	1.981667E-10	NaN
488	1.000000	0.474555	7.36983e+06	-52689.1	1005.82	-29748.6	0.000000	0.000000	6.474937	0.009099	NaN	0.000000	0.001544	0.001658	28.0819	0.073072	0.001984	36.8257	138.308	-166.342	-0.008835	0.473195	-0.611724	-0.613084	0.009099	36.8257	-0.611909	-1.214436E+8	-7.492728E-11	NaN
488	1.000000	0.482566	7.36983e+06	-52689.1	1005.82	-29748.6	0.000000	0.000000	6.482948	0.006028	NaN	0.000000	0.001543	0.001630	28.0829	0.043652	0.002157	20.2363	-30.9722	-165.28	-0.027614	0.481262	-0.603712	-0.605017	0.006028	20.2363	-0.603936	-9.433044E+7	-6.390569E-11	NaN
488	1.000000	0.490553	7.36983e+06	-52689.1	1005.82	-29748.6	0.000000	0.000000	6.490934	0.000496	NaN	0.000000	0.001557	0.001626	28.0832	0.113880	0.002054	55.436	-132.026	-168.068	-0.025273	0.489260	-0.595726	-0.597019	0.000496	55.436	-0.595733	-7.272398E+7	-6.825582E-12	NaN
488	1.000000	0.498561	7.36983e+06	-52689.1	1005.82	-29748.6	0.000000	0.000000	6.498942	-0.019334	NaN	0.000000	0.001591	0.001628	28.0829	0.055807	0.001963	28.4352	-167.714	-167.191	-0.014917	0.497238	-0.587717	-0.589041	-0.019334	28.4352	-0.587207	-5.548268E+7	3.484638E-10	NaN
488	1.000000	0.506540	7.36983e+06	-52689.1	1005.82	-29748.6	0.000000	0.000000	6.506922	0.011524	NaN	0.000000	0.001579	0.001652	28.0828	0.048848	0.002069	23.6116	80.4176	-164.853	0.004236	0.505228	-0.579738	-0.581051	0.011524	23.6116	-0.580104	-4.427587E+7	-2.602690E-10	NaN
488	1.000000	0.514579	7.36983e+06	-52689.1	1005.82	-29748.6	0.000000	0.000000	6.514962	0.026290	NaN	0.000000	0.001610	0.001655	28.0829	0.037901	0.002055	18.4436	-99.9063	-165.109	-0.029116	0.513258	-0.571700	-0.573020	0.026290	18.4436	-0.572769	-3.506577E+7	-7.497482E-10	NaN
488	1.000000	0.522557	7.36983e+06	-52689.1	1005.82	-29748.6	0.000000	0.000000	6.522937	-0.038989	NaN	0.000000	0.001604	0.001636	28.0829	0.069046	0.001922	35.9258	140.529	-168.007	-0.020996	0.521299	-0.563722	-0.564979	-0.038989	35.9258	-0.562908	-2.562123E+7	1.521732E-9	NaN
488	1.000000	0.530574	7.36983e+06	-52689.1	1005.82	-29748.6	0.000000	0.000000	6.530954	-0.043098	NaN	0.000000	0.001629	0.001643	28.0831	0.077956	0.001996	39.0492	-58.9456	-166.435	-0.030720	0.529203	-0.555705	-0.557075	-0.043098	39.0492	-0.554877	-1.983734E+7	2.172592E-9	NaN
488	1.000000	0.538558	7.36983e+06	-52689.1	1005.82	-29748.6	0.000000	0.000000	6.538939	-0.005568	NaN	0.000000	0.001609	0.001633	28.083	0.071905	0.002169	33.1559	60.3993	-168.926	-0.031635	0.537269	-0.547721	-0.549009	-0.005568	33.1559	-0.547595	-1.572681E+7	3.540310E-10	NaN
488	1.000000	0.546544	7.36983e+06	-52689.1	1005.82	-29748.6	0.000000	0.000000	6.546924	-0.051360	NaN	0.000000	0.001634	0.001651	28.083	0.082164	0.001955	42.0314	36.5704	-165.136	-0.038873	0.545274	-0.539734	-0.541005	-0.051360	42.0314	-0.538818	-1.188401E+7	4.321774E-9	NaN
488	1.000000	0.554592	7.36983e+06	-52689.1	1005.82	-29748.6	0.000000	0.000000	6.554973	-0.000409	NaN	0.000000	0.001640	0.001648	28.0829	0.051822	0.001883	27.5189	142.454	-163.415	-0.082211	0.553295	-0.531687	-0.532984	-0.000409	27.5189	-0.531676	-9.45901e+06	4.319925E-11	NaN
488	1.000000	0.562587	7.36983e+06	-52689.1	1005.82	-29748.6	0.000000	0.000000	6.562970	0.046016	NaN	0.000000	0.001665	0.001638	28.0831	0.045679	0.002017	22.6437	-98.9946	-164.414	0.052404	0.561301	-0.523692	-0.524978	0.046016	22.6437	-0.525216	-7.69331e+06	-5.981245E-9	NaN
488	1.000000	0.570587	7.36983e+06	-52689.1	1005.82	-29748.6	0.000000	0.000000	6.570969	0.024477	NaN	0.000000	0.001643	0.001651	28.0829	0.031428	0.001938	16.2164	13.3812	-166.689	0.041021	0.569266	-0.515692	-0.517013	0.024477	16.2164	-0.516824	-5.88051e+06	-4.162468E-9	NaN
488	1.000000	0.578562	7.36983e+06	-52689.1	1005.82	-29748.6	0.000000	0.000000	6.578942	-0.033056	NaN	0.000000	0.001647	0.001628	28.0831	0.011948	0.001992	5.998278	6.340056	-162.419	-0.047313	0.577329	-0.507716	-0.508949	-0.033056	5.998278	-0.503583	-3.84586e+06	8.595221E-9	NaN
488	1.000000	0.586595	7.36983e+06	-52689.1	1005.82	-29748.6	0.000000	0.000000	6.586974	-0.056707	NaN	0.000000	0.001650	0.001620	28.0835	0.059070	0.002123	27.825	43.5457	-163.531	0.003451	0.585248	-0.499683	-0.501030	-0.056707	27.825	-0.498155	-3.23053e+06	1.755357E-8	NaN
488	1.000000	0.594568	7.36983e+06	-52689.1	1005.82	-29748.6	0.000000	0.000000	6.594950	0.008701	NaN	0.000000	0.001629	0.001686	28.0831	0.120828	0.002086	57.9235	-141.336	-163.129	-0.010676	0.593300	-0.491710	-0.492979	0.008701	57.9235	-0.491823	-2.6355e+06	-3.301510E-9	NaN
488	1.000000	0.602592	7.36983e+06	-52689.1	1005.82	-29748.6	0.000000	0.000000	6.602973	-0.008814	NaN	0.000000	0.001611	0.001639	28.0832	0.083633	0.001938	43.1521	142.19	-166.636	-0.065629	0.601324	-0.483687	-0.484954	-0.008814	43.1521	-0.483534	-2.01828e+06	4.367254E-9	NaN
488	1.000000	0.610596	7.36983e+06	-52689.1	1005.82	-29748.6	0.000000	0.000000	6.610978	0.017022	NaN	0.000000	0.001649	0.001599	28.0831	0.143071	0.001894	75.5258	-88.0654	-165.383	0.034721	0.609319	-0.475683	-0.476960	0.017022	75.5258	-0.475852	-1.57556e+06	-1.080400E-8	NaN
488	1.000000	0.618627	7.36983e+06	-52689.1	1005.82	-29748.6	0.000000	0.000000	6.619007	-0.039673	NaN	0.000000	0.001628	0.001599	28.0817	0.050904	0.001954	26.0555	145.988	-166.262	-0.042321	0.617302	-0.467652	-0.468976	-0.039673	26.0555	-0.466510	-1.1653e+06	3.404516E-8	NaN
488	1.000000	0.626623	7.36983e+06	-52689.1	1005.82	-29748.6	0.000000	0.000000	6.627005	-0.005173	NaN	0.000000	0.001656	0.001623	28.0821	0.139995	0.002006	69.7756	-165.558	-167.266	-0.063970	0.625268	-0.459655	-0.461011	-0.005173	69.7756	-0.459600	-931949	5.550843E-9	NaN
488	1.000000	0.634630	7.36983e+06	-52689.1	1005.82	-29748.6	0.000000	0.000000	6.635011	-0.014710	NaN	0.000000	0.001617	0.001587	28.0819	0.039255	0.001944	20.1914	-92.3572	-166.06	0.012433	0.633310	-0.451649	-0.452968	-0.014710	20.1914	-0.451102	-707725	2.078510E-8	NaN
488	1.000000	0.642589	7.36983e+06	-52689.1	1005.82	-29748.6	0.000000	0.000000	6.642969	-0.045730	NaN	0.000000	0.001635	0.001587	28.082	0.042834	0.001990	21.5211	-120.092	-167.913	0.028663	0.641350	-0.443689	-0.444929	-0.045730	21.5211	-0.442096	-528367	8.655043E-8	NaN
488	1.000000	0.650613	7.36983e+06	-52689.1	1005.82	-29748.6	0.000000	0.000000	6.650992	-0.068437	NaN	0.000000	0.001614	0.001612	28.0817	0.060421	0.002049	29.4909	121.115	-167.668	-0.126827	0.649331	-0.435665	-0.436947	-0.068437	29.4909	-0.433925	-405098	1.689386E-7	NaN
488	1.000000	0.658617	7.36983e+06	-52689.1	1005.82	-29748.6	0.000000	0.000000	6.658997	-0.019258	NaN	0.000000	0.001654	0.001630	28.0819	0.058945	0.001916	30.767	-117.782	-166.93	-0.016489	0.657314	-0.427662	-0.428964	-0.019258	30.767	-0.427193	-325335	5.919453E-8	NaN
488	1.000000	0.666656	7.36983e+06	-52689.1	1005.82	-29748.6	0.000000	0.000000	6.667037	-0.006624	NaN	0.000000	0.001578	0.001599	28.0821	0.093842	0.002017	46.5202	-23.9809	-168.688	-0.014028	0.665291	-0.419623	-0.420988	-0.006624	46.5202	-0.419516	-253250	2.615563E-8	NaN
488	1.000000	0.674624	7.36983e+06	-52689.1	1005.82	-29748.6	0.000000	0.000000	6.675006	0.016625	NaN	0.000000	0.001574	0.001626	28.0819	0.018641	0.002008	9.281318	163.01	-165.378	0.019704	0.673327	-0.411655	-0.412951	0.016625	9.281318	-0.412998	-204652	-8.123721E-8	NaN
488	1.000000	0.682636	7.36983e+06	-52689.1	1005.82	-29748.6	0.000000	0.000000	6.683015	-0.047222	NaN	0.000000	0.001590	0.001581	28.0823	0.064376	0.001951	32.9889	-153.391	-167.648	0.029648	0.681260	-0.403643	-0.405019	-0.047222	32.9889	-0.402569	-145420	3.247273E-7	NaN
488	1.000000	0.690642	7.36983e+06	-52689.1	1005.82	-29748.6	0.000000	0.000000	6.691024	0.004661	NaN	0.000000	0.001596	0.001594	28.082	0.095178	0.002085	45.6574	-56.5106	-165.544	-0.079365	0.689280	-0.395636	-0.396999	0.004661	45.6574	-0.395713	-116096	-4.014951E-8	NaN
488	1.000000	0.698643	7.36983e+06	-52689.1	1005.82	-29748.6	0.000000	0.000000	6.699023	-0.041292	NaN	0.000000	0.001585	0.001644	28.0824	0.090583	0.001995	45.4066	-168.728	-167.515	0.058839	0.697318	-0.387635	-0.388960	-0.041292	45.4066	-0.386953	-87009.1	4.745727E-7	NaN
488	1.000000	0.706639	7.36983e+06	-52689.1	1005.82	-29748.6	0.000000	0.000000	6.707021	0.003761	NaN	0.000000	0.001583	0.001642	28.0822	0.149834	0.002007	74.6407	70.3807	-167.964	-0.011573	0.705312	-0.379640	-0.380966	0.003761	74.6407	-0.379678	-68432.3	-5.495911E-8	NaN
488	1.000000	0.714641	7.36983e+06	-52689.1	1005.82	-29748.6	0.000000	0.000000	6.715022	-0.015854	NaN	0.000000	0.001623	0.001634	28.082	0.050499	0.001928	26.1974	-157.859	-168.369	-0.006843	0.713305	-0.371638	-0.372973	-0.015854	26.1974	-0.371184	-51662.5	3.068753E-7	NaN
488	1.000000	0.722630	7.36983e+06	-52689.1	1005.82	-29748.6	0.000000	0.000000	6.723010	-0.034102	NaN	0.000000	0.001579	0.001615	28.0822	0.191028	0.002003	95.3937	172.716	-167.007	0.028868	0.721409	-0.363648	-0.364870	-0.034102	95.3937	-0.363380	-39872.7	8.552675E-7	NaN
488	1.000000	0.730649	7.36983e+06	-52689.1	1005.82	-29748.6	0.000000	0.000000	6.731033	0.067818	NaN	0.000000	0.001562	0.001588	28.0823	0.051496	0.001995	25.8085	23.4439	-167.034	0.023624	0.729324	-0.355629	-0.356954	0.067818	25.8085	-0.357600	-32895.7	-2.061603E-6	NaN
488	1.000000	0.738641	7.36983e+06	-52689.1	1005.82	-29748.6	0.000000	0.000000	6.739026	0.088500	NaN	0.000000	0.001572	0.001621	28.0825	0.113147	0.002031	55.7016	-59.9868	-165.944	0.092086	0.737336	-0.347638	-0.348942	0.088500	55.7016	-0.348829	-24547.5	-3.605247E-6	NaN
488	1.000000	0.746645	7.36983e+06	-52689.1	1005.82	-29748.6	0.000000	0.000000	6.747024	-0.065006	NaN	0.000000	0.001636	0.001636	28.0821	0.105057	0.002014	52.1599	-21.1684	-166.345	0.019637	0.745364	-0.339634	-0.340915	-0.065006	52.1599	-0.338699	-17481.7	3.718521E-6	NaN
488	1.000000	0.754643	7.36983e+06	-52689.1	1005.82	-29748.6	0.000000	0.000000	6.755026	0.053196	NaN	0.000000	0.001639	0.001626	28.0834	0.023930	0.001974	12.1199	137.659	-166.913	-0.051018	0.753381	-0.331636	-0.332898	0.053196	12.1199	-0.334928	-15400.5	-3.454198E-6	NaN
488	1.000000	0.762642	7.36983e+06	-52689.1	1005.82	-29748.6	0.000000	0.000000	6.763024	0.010369	NaN	0.000000	0.001610	0.001628	28.0834	0.092273	0.002014	45.8109	-139.789	-165.63	0.028064	0.761354	-0.323636	-0.324924	0.010369	45.8109	-0.323806	-10582.9	-9.797899E-7	NaN
488	1.000000	0.770700	7.36983e+06	-52689.1	1005.82	-29748.6	0.000000	0.000000	6.771083	0.025770	NaN	0.000000	0.001654	0.001625	28.0832	0.113118	0.001981	57.1068	-17.9306	-164.403	0.001564	0.769369	-0.315579	-0.316910	0.025770	57.1068	-0.315917	-8099.84	-3.181545E-6	NaN
488	1.000000	0.778680	7.36983e+06	-52689.1	1005.82	-29748.6	0.000000	0.000000	6.779064	0.054359	NaN	0.000000	0.001598	0.001651	28.0834	0.055918	0.001979	28.2614	14.6633	-166.103	0.043588	0.777382	-0.307599	-0.308896	0.054359	28.2614	-0.309041	-6410.07	-8.480180E-6	NaN
488	1.000000	0.786668	7.36983e+06	-52689.1	1005.82	-29748.6	0.000000	0.000000	6.787050	0.009785	NaN	0.000000	0.001638	0.001620	28.0832	0.023139	0.001963	11.7858	-7.021236	-164.199	-0.025448	0.785348	-0.299611	-0.300930	0.009785	11.7858	-0.300233	-4743.62	-2.062774E-6	NaN
488	1.000000	0.794705	7.36983e+06	-52689.1	1005.82	-29748.6	0.000000	0.000000	6.795086	-0.001913	NaN	0.000000	0.001638	0.001605	28.0832	0.025509	0.002096	12.1724	142.021	-166.044	-0.038732	0.793371	-0.291574	-0.292908	-0.001913	12.1724	-0.291456	-3508.36	5.453329E-7	NaN
488	1.000000	0.802668	7.36983e+06	-52689.1	1005.82	-29748.6	0.000000	0.000000	6.803049	-0.000546	NaN	0.000000	0.001617	0.001629	28.0832	0.096196	0.001981	48.5576	-165.078	-169.7	0.027592	0.801386	-0.283611	-0.284893	-0.000546	48.5576	-0.283602	-2674.52	2.041765E-7	NaN
488	1.000000	0.810675	7.36983e+06	-52689.1	1005.82	-29748.6	0.000000	0.000000	6.811055	-0.042345	NaN	0.000000	0.001629	0.001604	28.0833	0.082355	0.002127	38.7263	-30.1282	-165.256	0.020771	0.809350	-0.275604	-0.276928	-0.042345	38.7263	-0.274784	-1968.46	2.151194E-5	NaN
488	1.000000	0.818680	7.36983e+06	-52689.1	1005.82	-29748.6	0.000000	0.000000	6.819057	-0.115580	NaN	0.000000	0.001616	0.001650	28.0836	0.167954	0.001929	87.0856	-82.0955	-167.375	-0.098114	0.817372	-0.267598	-0.268906	-0.115580	87.0856	-0.266603	-1478.56	7.817073E-5	NaN
488	1.000000	0.826687	7.36983e+06	-52689.1	1005.82	-29748.6	0.000000	0.000000	6.827069	0.003760	NaN	0.000000	0.001651	0.001622	28.0834	0.060837	0.001924	31.6228	104.754	-166.261	-0.087095	0.825358	-0.259592	-0.260920	0.003760	31.6228	-0.259681	-1158.84	-3.244511E-6	NaN
488	1.000000	0.834682	7.36983e+06	-52689.1	1005.82	-29748.6	0.000000	0.000000	6.835063	-0.020120	NaN	0.000000	0.001625	0.001623	28.0836	0.117640	0.002058	57.157	-26.9443	-167.204	-0.034456	0.833413	-0.251597	-0.252866	-0.020120	57.157	-0.251332	-862.108	2.333846E-5	NaN
488	1.000000	0.842711	7.36983e+06	-52689.1	1005.82	-29748.6	0.000000	0.000000	6.843089	-0.071707	NaN	0.000000	0.001651	0.001612	28.0833	0.065201	0.002002	32.5694	43.2569	-164.449	-0.099679	0.841414	-0.243568	-0.244865	-0.071707	32.5694	-0.241917	-615.828	0.000116	NaN
488	1.000000	0.850704	7.36983e+06	-52689.1	1005.82	-29748.6	0.000000	0.000000	6.851082	-0.068848	NaN	0.000000	0.001558	0.001605	28.0834	0.072328	0.001972	36.6725	128.019	-164.658	-0.019569	0.849401	-0.235575	-0.236878	-0.068848	36.6725	-0.234167	-465.76	0.000148	NaN
488	1.000000	0.858718	7.36983e+06	-52689.1	1005.82	-29748.6	0.000000	0.000000	6.859098	-0.044773	NaN	0.000000	0.001577	0.001619	28.0833	0.063401	0.002095	30.2645	-102.38	-161.991	0.001665	0.857394	-0.227561	-0.228884	-0.044773	30.2645	-0.226451	-351.855	0.000127	NaN
488	1.000000	0.866697	7.36983e+06	-52689.1	1005.82	-29748.6	0.000000	0.000000	6.867077	-0.024584	NaN	0.000000	0.001529	0.001638	28.0833	0.011760	0.002030	5.792914	-11.2734	-163.388	0.018418	0.865420	-0.219582	-0.220859	-0.024584	5.792914	-0.216399	-243.217	0.000101	NaN
488	1.000000	0.874729	7.36983e+06	-52689.1	1005.82	-29748.6	0.000000	0.000000	6.875112	0.034359	NaN	0.000000	0.001563	0.001648	28.0835	0.073478	0.002023	36.3293	145.343	-167.92	-0.001512	0.873359	-0.211550	-0.212920	0.034359	36.3293	-0.212259	-208.615	-0.000165	NaN
488	1.000000	0.882718	7.36983e+06	-52689.1	1005.82	-29748.6	0.000000	0.000000	6.883099	-0.021431	NaN	0.000000	0.001528	0.001650	28.0831	0.038698	0.002024	19.121	-69.2659	-166.116	-0.008471	0.881433	-0.203560	-0.204846	-0.021431	19.121	-0.202720	-145.983	0.000147	NaN
488	1.000000	0.890703	7.36983e+06	-52689.1	1005.82	-29748.6	0.000000	0.000000	6.891086	0.043568	NaN	0.000000	0.001544	0.001661	28.0822	0.195021	0.002010	97.0317	4.586384	-162.82	0.027383	0.889414	-0.195576	-0.196865	0.043568	97.0317	-0.195913	-112.801	-0.000386	NaN
488	1.000000	0.898676	7.36983e+06	-52689.1	1005.82	-29748.6	0.000000	0.000000	6.899059	0.026239	NaN	0.000000	0.001567	0.001667	28.0819	0.034432	0.002097	16.4226	165.501	-165.692	-0.038446	0.897429	-0.187602	-0.188849	0.026239	16.4226	-0.188801	-85.8961	-0.000305	NaN
488	1.000000	0.906730	7.36983e+06	-52689.1	1005.82	-29748.6	0.000000	0.000000	6.907109	-0.069578	NaN	0.000000	0.001517	0.001685	28.0818	0.071003	0.001935	36.7011	84.2604	-166.767	-0.015999	0.905419	-0.179548	-0.180860	-0.069578	36.7011	-0.178126	-56.6936	0.001227	NaN
488	1.000000	0.914709	7.36983e+06	-52689.1	1005.82	-29748.6	0.000000	0.000000	6.915090	-0.017125	NaN	0.000000	0.001548	0.001670	28.0817	0.057112	0.002056	27.7783	48.5746	-164.932	0.036273	0.913431	-0.171569	-0.172848	-0.017125	27.7783	-0.171107	-42.9348	0.000399	NaN
488	1.000000	0.922745	7.36983e+06	-52689.1	1005.82	-29748.6	0.000000	0.000000	6.923124	-0.050173	NaN	0.000000	0.001585	0.001640	28.0816	0.009861	0.001826	5.400265	4.010970	-166.261	-0.011001	0.921411	-0.163534	-0.164868	-0.050173	5.400265	-0.156566	-23.8066	0.002108	NaN
488	1.000000	0.930724	7.36983e+06	-52689.1	1005.82	-29748.6	0.000000	0.000000	6.931106	0.008212	NaN	0.000000	0.001577	0.001698	28.082	0.076033	0.001969	38.6216	145.941	-165.849	-0.003869	0.929395	-0.155555	-0.156883	0.008212	38.6216	-0.155714	-22.9839	-0.000357	NaN
488	1.000000	0.938722	7.36983e+06	-52689.1	1005.82	-29748.6	0.000000	0.000000	6.939103	-0.026684	NaN	0.000000	0.001521	0.001681	28.0816	0.019937	0.002018	9.879686	-141.351	-169.376	-0.002061	0.937391	-0.147556	-0.148888	-0.026684	9.879686	-0.145531	-14.9962	0.001779	NaN
488	1.000000	0.946745	7.36983e+06	-52689.1	1005.82	-29748.6	0.000000	0.000000	6.947125	-0.044271	NaN	0.000000	0.001545	0.001666	28.0819	0.053427	0.002049	26.08	76.9086	-166.862	-0.050518	0.945424	-0.139533	-0.140855	-0.044271	26.08	-0.138260	-10.9698	0.004036	NaN
488	1.000000	0.954763	7.36983e+06	-52689.1	1005.82	-29748.6	0.000000	0.000000	6.955145	0.021261	NaN	0.000000	0.001571	0.001650	28.0817	0.013054	0.002199	5.936596	37.3534	-166.464	-0.041003	0.953375	-0.131516	-0.132904	0.021261	5.936596	-0.134202	-9.183922	-0.002315	NaN
488	1.000000	0.962721	7.36983e+06	-52689.1	1005.82	-29748.6	0.000000	0.000000	6.963100	-0.056053	NaN	0.000000	0.001553	0.001644	28.0817	0.091226	0.001931	47.2525	69.871	-168.52	0.037441	0.961447	-0.123558	-0.124831	-0.056053	47.2525	-0.122668	-5.465654	0.010256	NaN
488	1.000000	0.970738	7.36983e+06	-52689.1	1005.82	-29748.6	0.000000	0.000000	6.971120	0.014880	NaN	0.000000	0.001570	0.001673	28.0818	0.156026	0.001802	86.6031	-76.9519	-168.057	0.055716	0.969454	-0.115541	-0.116825	0.014880	86.6031	-0.115670	-3.943574	-0.003773	NaN
488	1.000000	0.978740	7.36983e+06	-52689.1	1005.82	-29748.6	0.000000	0.000000	6.979121	-0.020534	NaN	0.000000	0.001598	0.001686	28.0816	0.046906	0.002039	23.0085	-133.656	-167.508	-0.012648	0.977425	-0.107539	-0.108854	-0.020534	23.0085	-0.106869	-2.578514	0.007963	NaN
488	1.000000	0.986761	7.36983e+06	-52689.1	1005.82	-29748.6	0.000000	0.000000	6.987144	0.021605	NaN	0.000000	0.001579	0.001676	28.0818	0.028999	0.002091	13.8665	-176.021	-163.622	0.018369	0.985442	-0.099517	-0.100836	0.021605	13.8665	-0.100686	-1.892101	-0.011418	NaN
488	1.000000	0.994766	7.36983e+06	-52689.1	1005.82	-29748.6	0.000000	0.000000	6.995148	0.024755	NaN	0.000000	0.001554	0.001682	28.0817	0.151152	0.001975	76.5344	25.7641	-165.018	0.052770	0.993401	-0.091513	-0.092877	0.024755	76.5344	-0.091755	-1.187919	-0.020839	NaN
488	1.000000	1.002758	7.36983e+06	-52689.1	1005.82	-29748.6	0.000000	0.000000	7.003138	-0.034404	NaN	0.000000	0.001588	0.001663	28.0817	0.027224	0.002030	13.4087	85.2121	-169.324	0.005163	1.001416	-0.083521	-0.084863	-0.034404	13.4087	-0.081596	-0.678257	0.050724	NaN
488	1.000000	1.010786	7.36983e+06	-52689.1	1005.82	-29748.6	0.000000	0.000000	7.011168	-0.008458	NaN	0.000000	0.001595	0.001675	28.0816	0.052357	0.002030	25.7856	-77.9811	-165.853	-0.004942	1.009464	-0.075492	-0.076814	-0.008458	25.7856	-0.075246	-0.468691	0.018045	NaN
488	1.000000	1.018797	7.36983e+06	-52689.1	1005.82	-29748.6	0.000000	0.000000	7.019177	-0.035412	NaN	0.000000	0.001589	0.001675	28.0815	0.045958	0.002010	22.8601	-1.939762	-162.18	-0.053575	1.017440	-0.067482	-0.068839	-0.035412	22.8601	-0.066320	-0.271036	0.130656	NaN
488	1.000000	1.026777	7.36983e+06	-52689.1	1005.82	-29748.6	0.000000	0.000000	7.027155	-0.068743	NaN	0.000000	0.001578	0.001692	28.0832	0.038247	0.002012	19.0134	46.699	-167.153	-0.055328	1.025477	-0.059502	-0.060802	-0.068743	19.0134	-0.056790	-0.145376	0.472862	NaN
488	1.000000	1.034747	7.36983e+06	-52689.1	1005.82	-29748.6	0.000000	0.000000	7.035129	0.018207	NaN	0.000000	0.001590	0.001686	28.0831	0.094098	0.002014	46.7309	-153.987	-166.828	0.027493	1.033473	-0.051532	-0.052806	0.018207	46.7309	-0.051824	-0.103561	-0.175810	NaN
488	1.000000	1.042792	7.36983e+06	-52689.1	1005.82	-29748.6	0.000000	0.000000	7.043174	-0.005970	NaN	0.000000	0.001603	0.001665	28.083	0.069435	0.002065	33.6211	-70.6542	-167.14	-0.008291	1.041453	-0.043486	-0.044826	-0.005970	33.6211	-0.043353	-0.057229	0.104313	NaN
488	1.000000	1.050778	7.36983e+06	-52689.1	1005.82	-29748.6	0.000000	0.000000	7.051162	0.045687	NaN	0.000000	0.001601	0.001665	28.0829	0.118002	0.002022	58.3687	-134.228	-165.57	0.002557	1.049440	-0.035500	-0.036839	0.045687	58.3687	-0.036087	-0.034486	-1.324776	NaN
488	1.000000	1.058775	7.36983e+06	-52689.1	1005.82	-29748.6	0.000000	0.000000	7.059152	-0.098180	NaN	0.000000	0.001557	0.001631	28.0829	0.025558	0.002012	12.7024	-9.082853	-165.993	-0.141502	1.057483	-0.027504	-0.028796	-0.098180	12.7024	-0.021707	-0.013880	7.073233	NaN
488	1.000000	1.066785	7.36983e+06	-52689.1	1005.82	-29748.6	0.000000	0.000000	7.067164	-0.081053	NaN	0.000000	0.001565	0.001608	28.083	0.044291	0.001995	22.201	76.8412	-168.671	-0.009508	1.065467	-0.019493	-0.020812	-0.081053	22.201	-0.016755	-0.010355	7.827674	NaN
488	1.000000	1.074790	7.36983e+06	-52689.1	1005.82	-29748.6	0.000000	0.000000	7.075170	-0.057850	NaN	0.000000	0.001575	0.001625	28.0829	0.042323	0.002025	20.8995	97.9301	-165.509	-0.008562	1.073464	-0.011488	-0.012815	-0.057850	20.8995	-0.009412	-0.006050	9.561482	NaN
488	1.000000	1.082784	7.36983e+06	-52689.1	1005.82	-29748.6	0.000000	0.000000	7.083167	0.036388	NaN	0.000000	0.001611	0.001696	28.0831	0.032071	0.001933	16.5918	77.1304	-168	-0.018233	1.081461	-0.003495	-0.004818	0.036388	16.5918	-0.005140	-0.003504	-10.3839	NaN
488	1.000000	1.090800	7.36983e+06	-52689.1	1005.82	-29748.6	0.000000	0.000000	7.091433	6.127679	NaN	0.000000	0.001543	0.001676	28.0829	6.473936	0.001828	3540.8	8.895971	-166.002	4.866772	1.089466	0.004521	0.003187	6.127679	3540.8	0.003223	0.002569	2385.59	63829.9
488	2.000000	1.094479	7.36983e+06	-52689.1	1005.82	-29748.6	0.000000	0.000000	7.095268	9.920309	NaN	0.000000	0.001543	0.001691	28.083	10.4756	0.001674	6257.61	9.858659	-175.118	10.3731	1.094105	0.008200	0.007827	9.920309	6257.61	0.007011	0.006045	1641.1	73533.6
488	2.000000	1.096471	7.36983e+06	-52689.1	1005.82	-29748.6	0.000000	0.000000	7.097443	14.3567	NaN	0.000000	0.001584	0.001640	28.0829	12.8483	0.001758	7307.39	7.549724	-172.898	14.2616	1.096075	0.010192	0.009796	14.3567	7307.39	0.008719	0.007792	1842.5	75633.1
488	2.000000	1.098387	7.36983e+06	-52689.1	1005.82	-29748.6	0.000000	0.000000	7.099477	17.2157	NaN	0.000000	0.001638	0.001622	28.0832	14.9791	0.001779	8420.88	4.537944	-173.464	16.4565	1.098069	0.012109	0.011791	17.2157	8420.88	0.010575	0.009828	1751.73	77607.2
488	2.000000	1.100410	7.36983e+06	-52689.1	1005.82	-29748.6	0.000000	0.000000	7.101601	19.6759	NaN	0.000000	0.001641	0.001653	28.0831	17.4461	0.001818	9596.54	6.471386	-175.991	20.1171	1.100149	0.014131	0.013871	19.6759	9596.54	0.012594	0.012209	1611.61	79350.6
488	2.000000	1.102365	7.36983e+06	-52689.1	1005.82	-29748.6	0.000000	0.000000	7.103763	24.7161	NaN	0.000000	0.001588	0.001677	28.0829	18.7828	0.001576	11921.6	4.661006	-176.413	24.2065	1.102050	0.016086	0.015772	24.7161	11921.6	0.014531	0.014666	1685.32	89941.1
488	2.000000	1.104376	7.36983e+06	-52689.1	1005.82	-29748.6	0.000000	0.000000	7.105923	28.352	NaN	0.000000	0.001561	0.001659	28.0832	21.9186	0.001747	12546.6	7.947305	179.143	27.6161	1.104073	0.018097	0.017795	28.352	12546.6	0.016402	0.017201	1648.28	87402.5
488	2.000000	1.106418	7.36983e+06	-52689.1	1005.82	-29748.6	0.000000	0.000000	7.108166	33.224	NaN	0.000000	0.001560	0.001657	28.0833	23.5537	0.001824	12912.3	6.908764	-177.274	34.4473	1.106094	0.020140	0.019815	33.224	12912.3	0.018210	0.019807	1677.39	83824.2
488	2.000000	1.108351	7.36983e+06	-52689.1	1005.82	-29748.6	0.000000	0.000000	7.110357	39.5042	NaN	0.000000	0.001555	0.001666	28.0831	25.5119	0.001706	14955.1	6.186036	179.838	39.0192	1.107980	0.022072	0.021701	39.5042	14955.1	0.020091	0.022686	1741.38	90716.9
488	2.000000	1.110351	7.36983e+06	-52689.1	1005.82	-29748.6	0.000000	0.000000	7.112658	46.8301	NaN	0.000000	0.001577	0.001655	28.0816	28.4065	0.001838	15456	3.362178	-177.647	45.7011	1.110004	0.024072	0.023725	46.8301	15456	0.021800	0.025450	1840.11	88517.4
488	2.000000	1.112390	7.36983e+06	-52689.1	1005.82	-29748.6	0.000000	0.000000	7.114871	51.0532	NaN	0.000000	0.001581	0.001628	28.0818	30.0631	0.001854	16214.4	8.313356	178.133	52.0732	1.112011	0.026111	0.025732	51.0532	16214.4	0.023749	0.028780	1773.92	87323
488	2.000000	1.114355	7.36983e+06	-52689.1	1005.82	-29748.6	0.000000	0.000000	7.117087	57.1476	NaN	0.000000	0.001571	0.001642	28.0819	33.2289	0.001897	17514.1	8.973886	176.156	56.7751	1.113999	0.028077	0.027721	57.1476	17514.1	0.025630	0.032171	1776.37	89213.2
488	2.000000	1.116355	7.36983e+06	-52689.1	1005.82	-29748.6	0.000000	0.000000	7.119402	64.807	NaN	0.000000	0.001570	0.001674	28.0827	34.7964	0.001945	17894.8	10.0005	175.54	65.2134	1.115954	0.030077	0.029676	64.807	17894.8	0.027360	0.035450	1828.11	86834
488	2.000000	1.118311	7.36983e+06	-52689.1	1005.82	-29748.6	0.000000	0.000000	7.121538	69.1832	NaN	0.000000	0.001578	0.001688	28.0818	35.0953	0.001766	19868.2	3.216422	-179.173	67.2514	1.118007	0.032032	0.031729	69.1832	19868.2	0.029420	0.039551	1749.21	91274.9
488	2.000000	1.120341	7.36983e+06	-52689.1	1005.82	-29748.6	0.000000	0.000000	7.123891	77.034	NaN	0.000000	0.001595	0.001688	28.0818	38.3253	0.001879	20392.8	6.219759	177.634	76.9823	1.120043	0.034062	0.033764	77.034	20392.8	0.031229	0.043330	1777.85	89506.9
488	2.000000	1.122308	7.36983e+06	-52689.1	1005.82	-29748.6	0.000000	0.000000	7.126111	83.1961	NaN	0.000000	0.001602	0.001658	28.0817	38.8398	0.001714	22658.3	6.078560	175.613	82.3342	1.122066	0.036029	0.035788	83.1961	22658.3	0.033275	0.047806	1740.29	94680.4
488	2.000000	1.124310	7.36983e+06	-52689.1	1005.82	-29748.6	0.000000	0.000000	7.128499	92.5742	NaN	0.000000	0.001642	0.001639	28.0818	40.9678	0.001677	24428.2	1.750261	179.631	90.7737	1.123982	0.038032	0.037704	92.5742	24428.2	0.035190	0.052188	1773.85	97696
488	2.000000	1.126363	7.36983e+06	-52689.1	1005.82	-29748.6	0.000000	0.000000	7.130931	101.794	NaN	0.000000	0.001630	0.001642	28.0823	44.7249	0.001879	23805.1	5.880213	176.686	102.324	1.126016	0.040085	0.039737	101.794	23805.1	0.036877	0.056208	1811.03	91737.1
488	2.000000	1.128290	7.36983e+06	-52689.1	1005.82	-29748.6	0.000000	0.000000	7.133152	108.948	NaN	0.000000	0.001629	0.001664	28.082	45.7284	0.001822	25103.2	3.418426	178.241	106.331	1.127907	0.042011	0.041628	108.948	25103.2	0.038756	0.060853	1790.34	92973.9
488	2.000000	1.130296	7.36983e+06	-52689.1	1005.82	-29748.6	0.000000	0.000000	7.135644	120.748	NaN	0.000000	0.001594	0.001653	28.082	47.8149	0.001878	25462	4.538390	177.945	119.824	1.129960	0.044018	0.043681	120.748	25462	0.040461	0.065225	1851.24	91087.2
488	2.000000	1.132295	7.36983e+06	-52689.1	1005.82	-29748.6	0.000000	0.000000	7.138062	130.955	NaN	0.000000	0.001531	0.001651	28.0824	49.1612	0.001713	28703.9	6.043391	174.283	129.186	1.131962	0.046016	0.045684	130.955	28703.9	0.042594	0.070905	1846.92	98486.5
488	2.000000	1.134257	7.36983e+06	-52689.1	1005.82	-29748.6	0.000000	0.000000	7.140332	138.432	NaN	0.000000	0.001537	0.001643	28.0819	51.6415	0.001759	29352.7	3.401238	176.304	136.07	1.134045	0.047979	0.047767	138.432	29352.7	0.044441	0.076010	1821.25	97271.9
488	2.000000	1.136345	7.36983e+06	-52689.1	1005.82	-29748.6	0.000000	0.000000	7.142798	147.631	NaN	0.000000	0.001564	0.001659	28.0818	54.0264	0.001907	28337.5	4.547349	176.508	147.783	1.135985	0.050066	0.049706	147.631	28337.5	0.046159	0.080911	1824.6	91018.7
488	2.000000	1.138245	7.36983e+06	-52689.1	1005.82	-29748.6	0.000000	0.000000	7.144973	154.31	NaN	0.000000	0.001583	0.001636	28.0819	55.8778	0.001787	31271.7	3.145546	175.889	151.377	1.137992	0.051966	0.051713	154.31	31271.7	0.048265	0.087127	1771.09	96794
488	2.000000	1.140297	7.36983e+06	-52689.1	1005.82	-29748.6	0.000000	0.000000	7.147545	166.959	NaN	0.000000	0.001543	0.001699	28.082	58.6235	0.001811	32363.3	7.471568	171.981	166.005	1.139957	0.054018	0.053679	166.959	32363.3	0.050149	0.092874	1797.68	97023.7
488	2.000000	1.142246	7.36983e+06	-52689.1	1005.82	-29748.6	0.000000	0.000000	7.150042	180.292	NaN	0.000000	0.001532	0.001686	28.0818	59.0614	0.001810	32636.6	6.552741	172.844	176.998	1.141930	0.055967	0.055652	180.292	32636.6	0.051824	0.098134	1837.2	95185
488	2.000000	1.144213	7.36983e+06	-52689.1	1005.82	-29748.6	0.000000	0.000000	7.152388	189.483	NaN	0.000000	0.001546	0.001668	28.0832	61.794	0.001856	33297.8	0.535859	178.848	184.523	1.143902	0.057935	0.057623	189.483	33297.8	0.053667	0.104083	1820.49	94297.1
488	2.000000	1.146294	7.36983e+06	-52689.1	1005.82	-29748.6	0.000000	0.000000	7.154803	197.607	NaN	0.000000	0.001540	0.001701	28.0832	64.0432	0.001757	36456.3	4.164861	174.915	198.362	1.145959	0.060015	0.059680	197.607	36456.3	0.055950	0.111687	1769.29	99665.4
488	2.000000	1.148224	7.36983e+06	-52689.1	1005.82	-29748.6	0.000000	0.000000	7.157448	215.013	NaN	0.000000	0.001556	0.001624	28.083	65.0864	0.001716	37923.6	6.940410	170.607	212.622	1.147959	0.061945	0.061681	215.013	37923.6	0.057693	0.117665	1827.33	101009
488	2.000000	1.150229	7.36983e+06	-52689.1	1005.82	-29748.6	0.000000	0.000000	7.159782	222.994	NaN	0.000000	0.001535	0.001707	28.0832	69.0454	0.001846	37393.7	5.465203	172.825	219.733	1.149921	0.063950	0.063642	222.994	37393.7	0.059478	0.123941	1799.19	97042.9
488	2.000000	1.152239	7.36983e+06	-52689.1	1005.82	-29748.6	0.000000	0.000000	7.162449	238.966	NaN	0.000000	0.001541	0.001685	28.0832	69.292	0.001811	38251.5	4.755566	173.541	238.245	1.151870	0.065961	0.065592	238.966	38251.5	0.061276	0.130422	1832.25	96771.3
488	2.000000	1.154291	7.36983e+06	-52689.1	1005.82	-29748.6	0.000000	0.000000	7.164877	248.118	NaN	0.000000	0.001541	0.001655	28.0831	71.896	0.001865	38540.5	6.977050	170.987	247.628	1.153929	0.068012	0.067650	248.118	38540.5	0.063184	0.137472	1804.86	94969.3
488	2.000000	1.156303	7.36983e+06	-52689.1	1005.82	-29748.6	0.000000	0.000000	7.167341	259.082	NaN	0.000000	0.001574	0.001651	28.0833	72.0266	0.001719	41893.6	1.190664	176.479	257.936	1.155961	0.070025	0.069682	259.082	41893.6	0.065387	0.145830	1776.61	100230
488	2.000000	1.158241	7.36983e+06	-52689.1	1005.82	-29748.6	0.000000	0.000000	7.169965	275.778	NaN	0.000000	0.001546	0.001678	28.0829	74.4872	0.001782	41795.6	4.971081	172.476	273.156	1.157944	0.071963	0.071666	275.778	41795.6	0.067014	0.152154	1812.49	97895.2
488	2.000000	1.160244	7.36983e+06	-52689.1	1005.82	-29748.6	0.000000	0.000000	7.172315	284.198	NaN	0.000000	0.001588	0.001682	28.0833	77.5799	0.001848	41990.1	4.645635	172.599	281.709	1.159916	0.073966	0.073638	284.198	41990.1	0.068890	0.159600	1780.69	96029.3
488	2.000000	1.162195	7.36983e+06	-52689.1	1005.82	-29748.6	0.000000	0.000000	7.174761	296.261	NaN	0.000000	0.001608	0.001728	28.083	78.551	0.001798	43682.2	7.765412	169.97	292.754	1.161909	0.075916	0.075630	296.261	43682.2	0.070829	0.167478	1768.96	97521.2
488	2.000000	1.164179	7.36983e+06	-52689.1	1005.82	-29748.6	0.000000	0.000000	7.177316	310.129	NaN	0.000000	0.001600	0.001715	28.083	80.9208	0.001840	43968.7	2.908868	174.534	306.953	1.163875	0.077901	0.077596	310.129	43968.7	0.072611	0.174870	1773.48	96063.6
488	2.000000	1.166207	7.36983e+06	-52689.1	1005.82	-29748.6	0.000000	0.000000	7.180044	327.15	NaN	0.000000	0.001588	0.001730	28.0833	82.771	0.001841	44970.6	3.206089	174.343	321.533	1.165866	0.079928	0.079588	327.15	44970.6	0.074472	0.182755	1790.1	96109.6
488	2.000000	1.168217	7.36983e+06	-52689.1	1005.82	-29748.6	0.000000	0.000000	7.182464	337.118	NaN	0.000000	0.001559	0.001742	28.083	85.0673	0.001730	49181.2	10.4415	165.156	334.26	1.167879	0.081939	0.081601	337.118	49181.2	0.076798	0.192835	1748.22	102325
488	2.000000	1.170216	7.36983e+06	-52689.1	1005.82	-29748.6	0.000000	0.000000	7.184849	346.514	NaN	0.000000	0.001653	0.001729	28.0831	86.5727	0.001795	48226.6	2.080096	173.985	342.838	1.169925	0.083937	0.083646	346.514	48226.6	0.078548	0.200589	1727.48	98379.9
488	2.000000	1.172298	7.36983e+06	-52689.1	1005.82	-29748.6	0.000000	0.000000	7.187605	362.896	NaN	0.000000	0.001600	0.001766	28.083	88.0292	0.001911	46059.8	5.871652	170.774	363.662	1.171897	0.086020	0.085619	362.896	46059.8	0.080110	0.207630	1747.8	92352.7
488	2.000000	1.174269	7.36983e+06	-52689.1	1005.82	-29748.6	0.000000	0.000000	7.190505	385.476	NaN	0.000000	0.001602	0.001745	28.0831	89.8793	0.001861	48308.7	5.779529	170.867	384.027	1.173925	0.087991	0.087646	385.476	48308.7	0.082006	0.216327	1781.91	94895
488	2.000000	1.176278	7.36983e+06	-52689.1	1005.82	-29748.6	0.000000	0.000000	7.193094	399.575	NaN	0.000000	0.001589	0.001737	28.0832	91.2875	0.001923	47478.3	5.081622	172.894	398.356	1.175816	0.090000	0.089537	399.575	47478.3	0.083688	0.224181	1782.37	91615.4
488	2.000000	1.178185	7.36983e+06	-52689.1	1005.82	-29748.6	0.000000	0.000000	7.195409	409.502	NaN	0.000000	0.001635	0.001735	28.0819	91.7791	0.001777	51660.3	4.061860	172.072	404.475	1.177854	0.091907	0.091576	409.502	51660.3	0.085961	0.235010	1742.49	97361.5
488	2.000000	1.180176	7.36983e+06	-52689.1	1005.82	-29748.6	0.000000	0.000000	7.198191	428.738	NaN	0.000000	0.001644	0.001732	28.0821	94.8397	0.001730	54835.4	5.736888	170.073	424.017	1.179875	0.093898	0.093596	428.738	54835.4	0.088034	0.245086	1749.33	101199
488	2.000000	1.182290	7.36983e+06	-52689.1	1005.82	-29748.6	0.000000	0.000000	7.200651	437.14	NaN	0.000000	0.001553	0.001727	28.0819	95.3584	0.001821	52370.2	2.770014	173.735	438.616	1.181900	0.096012	0.095621	437.14	52370.2	0.089751	0.253588	1723.82	95015.2
488	2.000000	1.184203	7.36983e+06	-52689.1	1005.82	-29748.6	0.000000	0.000000	7.203351	456.291	NaN	0.000000	0.001532	0.001738	28.0823	97.8396	0.001694	57752.7	2.380204	173.07	454.299	1.183921	0.097924	0.097642	456.291	57752.7	0.091999	0.264916	1722.4	102516
488	2.000000	1.186304	7.36983e+06	-52689.1	1005.82	-29748.6	0.000000	0.000000	7.206036	470.485	NaN	0.000000	0.001602	0.001749	28.082	101.01	0.001820	55506.9	5.856216	170.549	470.281	1.185883	0.100026	0.099605	470.485	55506.9	0.093668	0.273481	1720.35	96974.2
488	2.000000	1.188271	7.36983e+06	-52689.1	1005.82	-29748.6	0.000000	0.000000	7.208847	491.029	NaN	0.000000	0.001534	0.001763	28.0821	101.878	0.001734	58746.5	3.135417	172.427	489.856	1.187825	0.101992	0.101546	491.029	58746.5	0.095723	0.284198	1727.77	100680
488	2.000000	1.190165	7.36983e+06	-52689.1	1005.82	-29748.6	0.000000	0.000000	7.211338	505.511	NaN	0.000000	0.001563	0.001751	28.0822	106.81	0.001904	56087.9	8.475451	167.192	501.037	1.189881	0.103887	0.103602	505.511	56087.9	0.097127	0.291631	1733.39	94891.1
488	2.000000	1.191198	7.36983e+06	-52689.1	1005.82	-29748.6	0.000000	0.000000	7.212753	514.81	NaN	0.000000	0.001522	0.001758	28.0818	106.009	0.001681	63070.1	6.930882	167.514	510.756	1.190878	0.104920	0.104599	514.81	63070.1	0.098798	0.300591	1712.66	105101