File: remote_trans/data/nanoindenter/0828-1/data/Data_2025-08-06,11h17m57s/2025-07-22_16-23-58_1_688.txt
2025-07-22, 16:23:58, 1
Index	Phase	Displacement	Time	Pos X	Pos Y	Pos Z	Rot A	Rot B	Piezo Z	Force A	Force B	Gripper	Voltage A	Voltage B	Temperature	Amplitude force	Amplitude pos	Stiffness	Phase shift	Phase excitation	Force A raw	Displacement raw	HMax	HMax raw	Real Force	Real Stiffness	Contact Depth	Area	Hardness	Reduced Mod.
[#]	[#]	[um]	[s]	[um]	[um]	[um]	[m°]	[m°]	[um]	[uN]	[uN]	[V]	[V]	[V]	[°C]	[uN]	[um]	[N/m]	[°]	[°]	[uN]	[um]	[um]	[um]	[uN]	[N/m]	[um]	[um^2]	[MPa]	[MPa]
688	1.000000	0.003116	7.37178e+06	-42689.1	1005.82	-29781.8	0.000000	0.000000	6.002807	0.000226	NaN	0.000000	0.001658	0.001732	28.0833	0.066861	0.000951	70.2726	-176.57	-162.993	-0.053343	0.001811	-1.119624	-1.120930	0.000226	70.2726	-1.119627	-9.193131E+14	-2.457012E-19	NaN
688	1.000000	0.013168	7.37178e+06	-42689.1	1005.82	-29781.8	0.000000	0.000000	6.012860	0.034376	NaN	0.000000	0.001644	0.001711	28.0832	0.114272	0.001165	98.082	138.638	19.2512	0.062409	0.011744	-1.109573	-1.110997	0.034376	98.082	-1.109836	-6.793296E+14	-5.060330E-17	NaN
688	1.000000	0.023057	7.37178e+06	-42689.1	1005.82	-29781.8	0.000000	0.000000	6.022749	0.041616	NaN	0.000000	0.001652	0.001714	28.0821	0.034600	0.001704	20.2998	-132.183	-167.244	0.015260	0.021731	-1.099683	-1.101009	0.041616	20.2998	-1.101221	-5.205422E+14	-7.994750E-17	NaN
688	1.000000	0.033058	7.37178e+06	-42689.1	1005.82	-29781.8	0.000000	0.000000	6.032748	0.010309	NaN	0.000000	0.001657	0.001715	28.082	0.045026	0.001843	24.4328	149.16	14.1829	0.121412	0.031681	-1.089683	-1.091060	0.010309	24.4328	-1.089999	-3.679623E+14	-2.801711E-17	NaN
688	1.000000	0.043087	7.37178e+06	-42689.1	1005.82	-29781.8	0.000000	0.000000	6.042774	-0.060140	NaN	0.000000	0.001669	0.001732	28.0822	0.080062	0.002101	38.1043	-135.555	-165.537	-0.097031	0.041725	-1.079654	-1.081015	-0.060140	38.1043	-1.078470	-2.576161E+14	2.334464E-16	NaN
688	1.000000	0.053066	7.37178e+06	-42689.1	1005.82	-29781.8	0.000000	0.000000	6.052753	-0.060131	NaN	0.000000	0.001641	0.001758	28.082	0.094693	0.002176	43.5134	-157.137	15.4472	-0.086561	0.051685	-1.069675	-1.071056	-0.060131	43.5134	-1.068639	-1.900635E+14	3.163745E-16	NaN
688	1.000000	0.063068	7.37178e+06	-42689.1	1005.82	-29781.8	0.000000	0.000000	6.062758	-0.012946	NaN	0.000000	0.001661	0.001696	28.0817	0.062634	0.002049	30.5711	125.427	-163.69	-0.050037	0.061725	-1.059673	-1.061016	-0.012946	30.5711	-1.059355	-1.426117E+14	9.077909E-17	NaN
688	1.000000	0.073070	7.37178e+06	-42689.1	1005.82	-29781.8	0.000000	0.000000	6.072763	0.057361	NaN	0.000000	0.001649	0.001720	28.0818	0.080314	0.001908	42.0892	12.0396	18.2647	-0.027022	0.071669	-1.049670	-1.051072	0.057361	42.0892	-1.050692	-1.090741E+14	-5.258944E-16	NaN
688	1.000000	0.083081	7.37178e+06	-42689.1	1005.82	-29781.8	0.000000	0.000000	6.082771	-0.015817	NaN	0.000000	0.001675	0.001693	28.0819	0.069007	0.001881	36.6773	140.815	-164.919	0.026449	0.081716	-1.039660	-1.041025	-0.015817	36.6773	-1.039336	-7.674348E+13	2.061050E-16	NaN
688	1.000000	0.093052	7.37178e+06	-42689.1	1005.82	-29781.8	0.000000	0.000000	6.092742	0.017380	NaN	0.000000	0.001705	0.001716	28.0816	0.099384	0.001967	50.537	-162.982	16.072	-0.022243	0.091743	-1.029689	-1.030997	0.017380	50.537	-1.029947	-5.738112E+13	-3.028921E-16	NaN
688	1.000000	0.103047	7.37178e+06	-42689.1	1005.82	-29781.8	0.000000	0.000000	6.102739	0.038647	NaN	0.000000	0.001682	0.001699	28.0815	0.057334	0.001955	29.3269	127.827	-166.642	-0.076449	0.101801	-1.019693	-1.020940	0.038647	29.3269	-1.020682	-4.306502E+13	-8.974002E-16	NaN
688	1.000000	0.113058	7.37178e+06	-42689.1	1005.82	-29781.8	0.000000	0.000000	6.112751	0.082038	NaN	0.000000	0.001703	0.001695	28.0821	0.016082	0.002025	7.942319	157.593	13.1311	0.002055	0.111686	-1.009683	-1.011055	0.082038	7.942319	-1.017430	-3.893787E+13	-2.106905E-15	NaN
688	1.000000	0.123087	7.37178e+06	-42689.1	1005.82	-29781.8	0.000000	0.000000	6.122778	0.035970	NaN	0.000000	0.001724	0.001715	28.0816	0.127579	0.001986	64.2482	54.6286	-164.673	0.016610	0.121819	-0.999654	-1.000922	0.035970	64.2482	-1.000074	-2.273875E+13	-1.581865E-15	NaN
688	1.000000	0.133089	7.37178e+06	-42689.1	1005.82	-29781.8	0.000000	0.000000	6.132778	-0.041266	NaN	0.000000	0.001726	0.001730	28.0819	0.034044	0.002049	16.6184	158.904	12.3788	-0.015403	0.131698	-0.989652	-0.991043	-0.041266	16.6184	-0.987789	-1.553588E+13	2.656197E-15	NaN
688	1.000000	0.143114	7.37178e+06	-42689.1	1005.82	-29781.8	0.000000	0.000000	6.142805	0.019405	NaN	0.000000	0.001749	0.001716	28.0817	0.056211	0.001899	29.5996	25.5064	-163.53	-0.041232	0.141794	-0.979627	-0.980946	0.019405	29.5996	-0.980118	-1.224624E+13	-1.584575E-15	NaN
688	1.000000	0.153107	7.37178e+06	-42689.1	1005.82	-29781.8	0.000000	0.000000	6.152799	0.027526	NaN	0.000000	0.001741	0.001752	28.0821	0.120585	0.001992	60.5484	23.48	14.3003	0.049882	0.151696	-0.969634	-0.971045	0.027526	60.5484	-0.969975	-8.939630E+12	-3.079084E-15	NaN
688	1.000000	0.163082	7.37178e+06	-42689.1	1005.82	-29781.8	0.000000	0.000000	6.162775	0.067463	NaN	0.000000	0.001753	0.001717	28.0829	0.130500	0.002046	63.7814	17.3972	-166.558	0.054771	0.161817	-0.959659	-0.960924	0.067463	63.7814	-0.960452	-6.652139E+12	-1.014160E-14	NaN
688	1.000000	0.173109	7.37178e+06	-42689.1	1005.82	-29781.8	0.000000	0.000000	6.172797	-0.061925	NaN	0.000000	0.001746	0.001682	28.083	0.078423	0.001935	40.5374	102.167	15.7552	-0.036745	0.171773	-0.949631	-0.950968	-0.061925	40.5374	-0.948486	-4.587801E+12	1.349766E-14	NaN
688	1.000000	0.183099	7.37178e+06	-42689.1	1005.82	-29781.8	0.000000	0.000000	6.182790	0.028444	NaN	0.000000	0.001726	0.001703	28.0832	0.029921	0.002007	14.9117	37.5785	-164.711	0.026462	0.181789	-0.939642	-0.940952	0.028444	14.9117	-0.941073	-3.644253E+12	-7.805176E-15	NaN
688	1.000000	0.193116	7.37178e+06	-42689.1	1005.82	-29781.8	0.000000	0.000000	6.192809	0.068595	NaN	0.000000	0.001758	0.001704	28.0831	0.098930	0.002006	49.3173	-0.950920	14.423	0.055480	0.191713	-0.929625	-0.931028	0.068595	49.3173	-0.930668	-2.637630E+12	-2.600630E-14	NaN
688	1.000000	0.203142	7.37178e+06	-42689.1	1005.82	-29781.8	0.000000	0.000000	6.202831	-0.020576	NaN	0.000000	0.001636	0.001748	28.0831	0.065257	0.001989	32.8035	115.842	-165.528	-0.064101	0.201818	-0.919599	-0.920922	-0.020576	32.8035	-0.919129	-1.842648E+12	1.116672E-14	NaN
688	1.000000	0.213146	7.37178e+06	-42689.1	1005.82	-29781.8	0.000000	0.000000	6.212836	0.001905	NaN	0.000000	0.001667	0.001764	28.083	0.128729	0.001965	65.5245	-113.088	12.2154	0.011016	0.211711	-0.909595	-0.911030	0.001905	65.5245	-0.909616	-1.370827E+12	-1.389881E-15	NaN
688	1.000000	0.223096	7.37178e+06	-42689.1	1005.82	-29781.8	0.000000	0.000000	6.222786	-0.017043	NaN	0.000000	0.001652	0.001717	28.0835	0.027602	0.002018	13.6791	-101.38	-167.413	0.007718	0.221769	-0.899644	-0.900972	-0.017043	13.6791	-0.898710	-9.764131E+11	1.745521E-14	NaN
688	1.000000	0.233129	7.37178e+06	-42689.1	1005.82	-29781.8	0.000000	0.000000	6.232818	-0.017048	NaN	0.000000	0.001731	0.001710	28.0831	0.133056	0.002098	63.4231	108.925	13.8517	-0.004404	0.231725	-0.889612	-0.891015	-0.017048	63.4231	-0.889410	-7.310465E+11	2.332022E-14	NaN
688	1.000000	0.243134	7.37178e+06	-42689.1	1005.82	-29781.8	0.000000	0.000000	6.242824	-0.012177	NaN	0.000000	0.001722	0.001743	28.0833	0.053794	0.001941	27.7207	-141.5	-166.019	0.008395	0.241808	-0.879606	-0.880933	-0.012177	27.7207	-0.879277	-5.332476E+11	2.283487E-14	NaN
688	1.000000	0.253136	7.37178e+06	-42689.1	1005.82	-29781.8	0.000000	0.000000	6.252828	0.050746	NaN	0.000000	0.001623	0.001714	28.0831	0.038437	0.002036	18.8786	-110.669	14.9974	0.060512	0.251762	-0.869605	-0.870979	0.050746	18.8786	-0.871621	-4.201210E+11	-1.207885E-13	NaN
688	1.000000	0.263108	7.37178e+06	-42689.1	1005.82	-29781.8	0.000000	0.000000	6.262800	0.050236	NaN	0.000000	0.001644	0.001721	28.0832	0.061680	0.002056	30.0065	-98.3051	-165.814	0.020775	0.261808	-0.859633	-0.860932	0.050236	30.0065	-0.860888	-3.007058E+11	-1.670587E-13	NaN
688	1.000000	0.273171	7.37178e+06	-42689.1	1005.82	-29781.8	0.000000	0.000000	6.272863	0.049746	NaN	0.000000	0.001655	0.001750	28.0831	0.023178	0.001911	12.1275	-89.7034	11.6795	0.041974	0.271792	-0.849570	-0.850949	0.049746	12.1275	-0.852646	-2.325801E+11	-2.138891E-13	NaN
688	1.000000	0.283157	7.37178e+06	-42689.1	1005.82	-29781.8	0.000000	0.000000	6.282846	-0.031403	NaN	0.000000	0.001676	0.001715	28.083	0.063980	0.001984	32.2419	-157.946	-164.327	-0.049156	0.281831	-0.839583	-0.840909	-0.031403	32.2419	-0.838853	-1.512699E+11	2.075982E-13	NaN
688	1.000000	0.293192	7.37178e+06	-42689.1	1005.82	-29781.8	0.000000	0.000000	6.292883	0.020354	NaN	0.000000	0.001678	0.001740	28.0821	0.039969	0.001947	20.5269	71.5309	13.6579	-0.038231	0.291861	-0.829549	-0.830880	0.020354	20.5269	-0.830293	-1.158112E+11	-1.757519E-13	NaN
688	1.000000	0.303136	7.37178e+06	-42689.1	1005.82	-29781.8	0.000000	0.000000	6.302827	0.018104	NaN	0.000000	0.001702	0.001709	28.082	0.092960	0.001979	46.9803	133.005	-165.876	0.002950	0.301858	-0.819604	-0.820883	0.018104	46.9803	-0.819893	-8.370742E+10	-2.162733E-13	NaN
688	1.000000	0.313149	7.37178e+06	-42689.1	1005.82	-29781.8	0.000000	0.000000	6.312837	-0.064156	NaN	0.000000	0.001693	0.001712	28.0819	0.093560	0.001952	47.9248	-92.6933	11.5635	-0.051110	0.311773	-0.809592	-0.810968	-0.064156	47.9248	-0.808588	-5.880411E+10	1.091004E-12	NaN
688	1.000000	0.323160	7.37178e+06	-42689.1	1005.82	-29781.8	0.000000	0.000000	6.322849	-0.044546	NaN	0.000000	0.001655	0.001694	28.0819	0.077693	0.001998	38.8882	35.7005	-165.512	-0.055469	0.321874	-0.799580	-0.800866	-0.044546	38.8882	-0.798721	-4.320190E+10	1.031111E-12	NaN
688	1.000000	0.333170	7.37178e+06	-42689.1	1005.82	-29781.8	0.000000	0.000000	6.332859	-0.014265	NaN	0.000000	0.001645	0.001705	28.0822	0.051404	0.001993	25.7895	-160.988	13.8985	-0.027380	0.331850	-0.789571	-0.790891	-0.014265	25.7895	-0.789156	-3.203486E+10	4.452827E-13	NaN
688	1.000000	0.343179	7.37178e+06	-42689.1	1005.82	-29781.8	0.000000	0.000000	6.342869	-0.006971	NaN	0.000000	0.001653	0.001725	28.0819	0.088129	0.001993	44.2153	80.5424	-168.103	-0.012193	0.341846	-0.779562	-0.780894	-0.006971	44.2153	-0.779443	-2.364110E+10	2.948547E-13	NaN
688	1.000000	0.353189	7.37178e+06	-42689.1	1005.82	-29781.8	0.000000	0.000000	6.352880	0.019643	NaN	0.000000	0.001639	0.001734	28.082	0.024166	0.002001	12.0772	-63.3851	13.4003	-0.004938	0.351803	-0.769551	-0.770938	0.019643	12.0772	-0.770771	-1.802145E+10	-1.089974E-12	NaN
688	1.000000	0.363199	7.37178e+06	-42689.1	1005.82	-29781.8	0.000000	0.000000	6.362888	-0.021384	NaN	0.000000	0.001642	0.001711	28.0819	0.083199	0.002013	41.3318	94.7396	-165.665	0.054239	0.361873	-0.759542	-0.760868	-0.021384	41.3318	-0.759154	-1.252543E+10	1.707272E-12	NaN
688	1.000000	0.373166	7.37178e+06	-42689.1	1005.82	-29781.8	0.000000	0.000000	6.372859	0.060695	NaN	0.000000	0.001684	0.001742	28.0819	0.058087	0.002009	28.912	23.7194	12.9267	0.023418	0.371837	-0.749574	-0.750903	0.060695	28.912	-0.751149	-9.746691E+9	-6.227204E-12	NaN
688	1.000000	0.383190	7.37178e+06	-42689.1	1005.82	-29781.8	0.000000	0.000000	6.382880	-0.023107	NaN	0.000000	0.001660	0.001705	28.0817	0.047305	0.001916	24.6898	-130.911	-168.754	-0.060857	0.381838	-0.739550	-0.740903	-0.023107	24.6898	-0.738848	-6.627803E+9	3.486359E-12	NaN
688	1.000000	0.393202	7.37178e+06	-42689.1	1005.82	-29781.8	0.000000	0.000000	6.392894	0.029265	NaN	0.000000	0.001641	0.001724	28.0819	0.088592	0.002105	42.081	-53.5125	15.3484	-0.017707	0.391817	-0.729538	-0.730923	0.029265	42.081	-0.730060	-5.030666E+9	-5.817289E-12	NaN
688	1.000000	0.403170	7.37178e+06	-42689.1	1005.82	-29781.8	0.000000	0.000000	6.402859	-0.023950	NaN	0.000000	0.001658	0.001745	28.0819	0.095310	0.001988	47.9437	-128.764	-167.353	-0.055929	0.401905	-0.719571	-0.720836	-0.023950	47.9437	-0.719196	-3.576930E+9	6.695676E-12	NaN
688	1.000000	0.413228	7.37178e+06	-42689.1	1005.82	-29781.8	0.000000	0.000000	6.412918	-0.004805	NaN	0.000000	0.001680	0.001698	28.0819	0.041310	0.002029	20.3581	11.0336	10.9688	0.042442	0.411879	-0.709512	-0.710862	-0.004805	20.3581	-0.709335	-2.624086E+9	1.831301E-12	NaN
688	1.000000	0.423236	7.37178e+06	-42689.1	1005.82	-29781.8	0.000000	0.000000	6.422925	-0.011379	NaN	0.000000	0.001642	0.001714	28.0817	0.048935	0.002126	23.0141	-167.445	-168.391	0.052037	0.421896	-0.699505	-0.700845	-0.011379	23.0141	-0.699134	-1.904180E+9	5.975698E-12	NaN
688	1.000000	0.433217	7.37178e+06	-42689.1	1005.82	-29781.8	0.000000	0.000000	6.432908	0.032794	NaN	0.000000	0.001622	0.001711	28.083	0.054673	0.001963	27.848	-12.9318	16.0163	0.020044	0.431846	-0.689524	-0.690895	0.032794	27.848	-0.690407	-1.447044E+9	-2.266285E-11	NaN
688	1.000000	0.443244	7.37178e+06	-42689.1	1005.82	-29781.8	0.000000	0.000000	6.442935	0.022428	NaN	0.000000	0.001647	0.001712	28.0832	0.092945	0.002034	45.6922	105.964	-169.136	-0.063108	0.441893	-0.679497	-0.680848	0.022428	45.6922	-0.679865	-1.038398E+9	-2.159847E-11	NaN
688	1.000000	0.453266	7.37178e+06	-42689.1	1005.82	-29781.8	0.000000	0.000000	6.452955	-0.011657	NaN	0.000000	0.001628	0.001690	28.0832	0.124183	0.001914	64.8797	112.317	14.2698	-0.029751	0.451889	-0.669475	-0.670852	-0.011657	64.8797	-0.669340	-7.453553E+8	1.563916E-11	NaN
688	1.000000	0.463241	7.37178e+06	-42689.1	1005.82	-29781.8	0.000000	0.000000	6.462932	0.029245	NaN	0.000000	0.001652	0.001714	28.0829	0.025659	0.002003	12.8074	-78.8132	-169.008	0.000605	0.461909	-0.659500	-0.660831	0.029245	12.8074	-0.661212	-5.768659E+8	-5.069672E-11	NaN
688	1.000000	0.473233	7.37178e+06	-42689.1	1005.82	-29781.8	0.000000	0.000000	6.472927	0.078915	NaN	0.000000	0.001635	0.001724	28.083	0.025376	0.001930	13.1478	100.014	13.7643	0.042607	0.471866	-0.649508	-0.650875	0.078915	13.1478	-0.654009	-4.596086E+8	-1.717001E-10	NaN
688	1.000000	0.483231	7.37178e+06	-42689.1	1005.82	-29781.8	0.000000	0.000000	6.482923	0.046431	NaN	0.000000	0.001624	0.001716	28.083	0.093878	0.001864	50.3536	35.7441	-164.561	0.022016	0.481908	-0.639510	-0.640833	0.046431	50.3536	-0.640202	-2.972051E+8	-1.562243E-10	NaN
688	1.000000	0.493238	7.37178e+06	-42689.1	1005.82	-29781.8	0.000000	0.000000	6.492926	-0.034087	NaN	0.000000	0.001651	0.001700	28.083	0.076985	0.001998	38.5344	123.135	10.3008	-0.044961	0.491903	-0.629503	-0.630838	-0.034087	38.5344	-0.628840	-2.075345E+8	1.642471E-10	NaN
688	1.000000	0.503262	7.37178e+06	-42689.1	1005.82	-29781.8	0.000000	0.000000	6.502951	-0.035381	NaN	0.000000	0.001652	0.001727	28.0829	0.086535	0.002048	42.2601	59.3766	-167.55	0.005323	0.501915	-0.619478	-0.620826	-0.035381	42.2601	-0.618851	-1.512979E+8	2.338504E-10	NaN
688	1.000000	0.513262	7.37178e+06	-42689.1	1005.82	-29781.8	0.000000	0.000000	6.512950	-0.050129	NaN	0.000000	0.001696	0.001713	28.0831	0.078669	0.002008	39.1811	81.9861	15.281	0.107110	0.511900	-0.609479	-0.610841	-0.050129	39.1811	-0.608519	-1.090793E+8	4.595619E-10	NaN
688	1.000000	0.523279	7.37178e+06	-42689.1	1005.82	-29781.8	0.000000	0.000000	6.522969	0.002666	NaN	0.000000	0.001690	0.001703	28.0832	0.051199	0.002018	25.3657	11.6734	-166.936	0.042083	0.521957	-0.599462	-0.600784	0.002666	25.3657	-0.599541	-8.206095E+7	-3.249374E-11	NaN
688	1.000000	0.533256	7.37178e+06	-42689.1	1005.82	-29781.8	0.000000	0.000000	6.532948	0.044963	NaN	0.000000	0.001657	0.001692	28.0835	0.154265	0.002013	76.641	46.945	17.2659	0.036417	0.531909	-0.589485	-0.590832	0.044963	76.641	-0.589925	-6.048257E+7	-7.434112E-10	NaN
688	1.000000	0.543250	7.37178e+06	-42689.1	1005.82	-29781.8	0.000000	0.000000	6.542939	-0.029983	NaN	0.000000	0.001680	0.001747	28.0832	0.086207	0.002044	42.1832	12.0112	-167.313	0.000518	0.541926	-0.579491	-0.580815	-0.029983	42.1832	-0.578958	-4.269136E+7	7.023284E-10	NaN
688	1.000000	0.553273	7.37178e+06	-42689.1	1005.82	-29781.8	0.000000	0.000000	6.552960	-0.055012	NaN	0.000000	0.001695	0.001723	28.083	0.049969	0.001924	25.9718	26.5248	15.7322	-0.043751	0.551902	-0.569468	-0.570838	-0.055012	25.9718	-0.567880	-3.001442E+7	1.832842E-9	NaN
688	1.000000	0.563276	7.37178e+06	-42689.1	1005.82	-29781.8	0.000000	0.000000	6.562966	-0.016892	NaN	0.000000	0.001718	0.001721	28.0826	0.026306	0.001989	13.2238	-132.909	-167.269	0.034382	0.561969	-0.559464	-0.560772	-0.016892	13.2238	-0.558506	-2.226971E+7	7.585124E-10	NaN
688	1.000000	0.573257	7.37178e+06	-42689.1	1005.82	-29781.8	0.000000	0.000000	6.572951	0.091079	NaN	0.000000	0.001712	0.001698	28.0817	0.062480	0.001939	32.2155	106.777	15.9977	0.048099	0.571898	-0.549484	-0.550843	0.091079	32.2155	-0.551604	-1.787186E+7	-5.096201E-9	NaN
688	1.000000	0.583278	7.37178e+06	-42689.1	1005.82	-29781.8	0.000000	0.000000	6.582968	-0.003189	NaN	0.000000	0.001678	0.001745	28.0819	0.028889	0.001946	14.8471	106.306	-170.568	-0.011948	0.581981	-0.539463	-0.540759	-0.003189	14.8471	-0.539302	-1.206909E+7	2.642636E-10	NaN
688	1.000000	0.593258	7.37178e+06	-42689.1	1005.82	-29781.8	0.000000	0.000000	6.592948	-0.013703	NaN	0.000000	0.001661	0.001714	28.0817	0.087982	0.002026	43.4282	172.479	9.920989	0.028519	0.591891	-0.529482	-0.530850	-0.013703	43.4282	-0.529246	-8.75184e+06	1.565671E-9	NaN
688	1.000000	0.603250	7.37178e+06	-42689.1	1005.82	-29781.8	0.000000	0.000000	6.602941	0.017677	NaN	0.000000	0.001641	0.001719	28.0817	0.074192	0.002073	35.7874	-140.392	-167.573	0.097074	0.602015	-0.519491	-0.520726	0.017677	35.7874	-0.519861	-6.4814e+06	-2.727322E-9	NaN
688	1.000000	0.613298	7.37178e+06	-42689.1	1005.82	-29781.8	0.000000	0.000000	6.612987	-0.022947	NaN	0.000000	0.001674	0.001674	28.0818	0.060256	0.002080	28.9649	10.5231	16.0216	-0.007493	0.611935	-0.509443	-0.510806	-0.022947	28.9649	-0.508849	-4.55385e+06	5.039123E-9	NaN
688	1.000000	0.623274	7.37178e+06	-42689.1	1005.82	-29781.8	0.000000	0.000000	6.622964	-0.021418	NaN	0.000000	0.001681	0.001689	28.0819	0.037148	0.002032	18.2832	21.7752	-166.531	-0.054920	0.621996	-0.499466	-0.500745	-0.021418	18.2832	-0.498588	-3.27578e+06	6.538328E-9	NaN
688	1.000000	0.633288	7.37178e+06	-42689.1	1005.82	-29781.8	0.000000	0.000000	6.632978	-0.002421	NaN	0.000000	0.001687	0.001722	28.0816	0.092897	0.001980	46.9095	-50.1356	15.5242	0.087259	0.631950	-0.489453	-0.490790	-0.002421	46.9095	-0.489414	-2.43896e+06	9.924429E-10	NaN
688	1.000000	0.643308	7.37178e+06	-42689.1	1005.82	-29781.8	0.000000	0.000000	6.642996	-0.058192	NaN	0.000000	0.001655	0.001704	28.0818	0.046777	0.002061	22.7015	67.0062	-165.079	-0.095367	0.642054	-0.479432	-0.480687	-0.058192	22.7015	-0.477510	-1.66211e+06	3.501056E-8	NaN
688	1.000000	0.653295	7.37178e+06	-42689.1	1005.82	-29781.8	0.000000	0.000000	6.652982	-0.068590	NaN	0.000000	0.001679	0.001686	28.0818	0.033862	0.001969	17.1974	82.8832	12.5502	0.026930	0.651951	-0.469446	-0.470790	-0.068590	17.1974	-0.466454	-1.16322e+06	5.896568E-8	NaN
688	1.000000	0.663309	7.37178e+06	-42689.1	1005.82	-29781.8	0.000000	0.000000	6.662997	-0.036638	NaN	0.000000	0.001719	0.001691	28.0819	0.023193	0.001949	11.9021	-81.8359	-168.27	-0.001796	0.662027	-0.459432	-0.460714	-0.036638	11.9021	-0.457123	-860167	4.259362E-8	NaN
688	1.000000	0.673306	7.37178e+06	-42689.1	1005.82	-29781.8	0.000000	0.000000	6.672996	0.000142	NaN	0.000000	0.001683	0.001693	28.0818	0.103942	0.002011	51.686	-164.159	11.8944	-0.052993	0.671965	-0.449435	-0.450776	0.000142	51.686	-0.449437	-670524	-2.117272E-10	NaN
688	1.000000	0.683308	7.37178e+06	-42689.1	1005.82	-29781.8	0.000000	0.000000	6.682998	-0.010877	NaN	0.000000	0.001680	0.001690	28.0821	0.034957	0.001982	17.6403	32.9981	-165.787	-0.078527	0.682038	-0.439433	-0.440703	-0.010877	17.6403	-0.438970	-477338	2.278638E-8	NaN
688	1.000000	0.693306	7.37178e+06	-42689.1	1005.82	-29781.8	0.000000	0.000000	6.692997	0.029332	NaN	0.000000	0.001712	0.001694	28.0817	0.067684	0.001942	34.8563	138.88	15.3169	-0.040822	0.691946	-0.429435	-0.430795	0.029332	34.8563	-0.430066	-357273	-8.210085E-8	NaN
688	1.000000	0.703317	7.37178e+06	-42689.1	1005.82	-29781.8	0.000000	0.000000	6.703007	0.002166	NaN	0.000000	0.001694	0.001708	28.0831	0.187574	0.001851	101.358	-53.7576	-169.03	0.018370	0.701984	-0.419424	-0.420757	0.002166	101.358	-0.419440	-252622	-8.572533E-9	NaN
688	1.000000	0.713338	7.37178e+06	-42689.1	1005.82	-29781.8	0.000000	0.000000	6.713031	0.065731	NaN	0.000000	0.001677	0.001685	28.0829	0.020051	0.002031	9.873376	43.1581	15.9265	0.041240	0.711970	-0.409402	-0.410771	0.065731	9.873376	-0.414395	-214224	-3.068338E-7	NaN
688	1.000000	0.723340	7.37178e+06	-42689.1	1005.82	-29781.8	0.000000	0.000000	6.723030	-0.011177	NaN	0.000000	0.001686	0.001684	28.0836	0.127455	0.002074	61.4452	-80.4172	-169.01	-0.036725	0.722052	-0.399401	-0.400688	-0.011177	61.4452	-0.399264	-130467	8.566518E-8	NaN
688	1.000000	0.733339	7.37178e+06	-42689.1	1005.82	-29781.8	0.000000	0.000000	6.733028	-0.029142	NaN	0.000000	0.001701	0.001688	28.0832	0.051438	0.002122	24.2372	110.201	14.0845	-0.090654	0.732048	-0.389401	-0.390693	-0.029142	24.2372	-0.388500	-91558.6	3.182926E-7	NaN
688	1.000000	0.743375	7.37178e+06	-42689.1	1005.82	-29781.8	0.000000	0.000000	6.743066	0.040962	NaN	0.000000	0.001704	0.001686	28.0832	0.090427	0.002080	43.4769	55.9393	-164.026	0.016770	0.742043	-0.379366	-0.380698	0.040962	43.4769	-0.380073	-69331.9	-5.908162E-7	NaN
688	1.000000	0.753354	7.37178e+06	-42689.1	1005.82	-29781.8	0.000000	0.000000	6.753044	-0.008177	NaN	0.000000	0.001640	0.001688	28.083	0.054887	0.001916	28.6458	164.106	10.0657	-0.028247	0.751973	-0.369386	-0.370768	-0.008177	28.6458	-0.369172	-48328.8	1.691863E-7	NaN
688	1.000000	0.763350	7.37178e+06	-42689.1	1005.82	-29781.8	0.000000	0.000000	6.763041	0.032082	NaN	0.000000	0.001704	0.001698	28.0835	0.075951	0.001988	38.2041	112.236	-164.298	0.049102	0.762014	-0.359391	-0.360727	0.032082	38.2041	-0.360021	-35657.2	-8.997375E-7	NaN
688	1.000000	0.773354	7.37178e+06	-42689.1	1005.82	-29781.8	0.000000	0.000000	6.773044	-0.008713	NaN	0.000000	0.001673	0.001696	28.0829	0.126717	0.002056	61.6385	-161.966	16.0245	-0.029625	0.772015	-0.349387	-0.350726	-0.008713	61.6385	-0.349281	-24920.6	3.496144E-7	NaN
688	1.000000	0.783408	7.37178e+06	-42689.1	1005.82	-29781.8	0.000000	0.000000	6.783099	0.014321	NaN	0.000000	0.001692	0.001664	28.083	0.026253	0.001928	13.6161	70.2926	-164.179	-0.027159	0.782030	-0.339333	-0.340711	0.014321	13.6161	-0.340121	-18336.8	-7.809754E-7	NaN
688	1.000000	0.793369	7.37178e+06	-42689.1	1005.82	-29781.8	0.000000	0.000000	6.793059	-0.000787	NaN	0.000000	0.001686	0.001695	28.083	0.092505	0.002000	46.2574	68.8817	12.0821	-0.044627	0.792000	-0.329372	-0.330741	-0.000787	46.2574	-0.329359	-12766.1	6.168149E-8	NaN
688	1.000000	0.803396	7.37178e+06	-42689.1	1005.82	-29781.8	0.000000	0.000000	6.803084	-0.064576	NaN	0.000000	0.001699	0.001704	28.0829	0.050007	0.001968	25.4127	64.3426	-168.247	-0.025668	0.801975	-0.319345	-0.320766	-0.064576	25.4127	-0.317439	-8529.36	7.571031E-6	NaN
688	1.000000	0.813385	7.37178e+06	-42689.1	1005.82	-29781.8	0.000000	0.000000	6.813076	0.020649	NaN	0.000000	0.001694	0.001700	28.0831	0.047155	0.001898	24.8508	115.089	13.6847	0.045423	0.811991	-0.309356	-0.310750	0.020649	24.8508	-0.309979	-6618.22	-3.119996E-6	NaN
688	1.000000	0.823367	7.37178e+06	-42689.1	1005.82	-29781.8	0.000000	0.000000	6.823060	0.046871	NaN	0.000000	0.001676	0.001719	28.083	0.050979	0.002002	25.4596	129.875	-164.688	0.067194	0.821997	-0.299373	-0.300744	0.046871	25.4596	-0.300754	-4829.01	-9.706104E-6	NaN
688	1.000000	0.833390	7.37178e+06	-42689.1	1005.82	-29781.8	0.000000	0.000000	6.833079	-0.028939	NaN	0.000000	0.001706	0.001685	28.0832	0.051270	0.001968	26.0476	-64.202	12.8093	0.041941	0.832064	-0.289351	-0.290677	-0.028939	26.0476	-0.288518	-3170.18	9.128620E-6	NaN
688	1.000000	0.843411	7.37178e+06	-42689.1	1005.82	-29781.8	0.000000	0.000000	6.843103	0.038539	NaN	0.000000	0.001672	0.001695	28.0817	0.105993	0.002048	51.7566	-85.3579	-166.507	-0.021938	0.842105	-0.279330	-0.280636	0.038539	51.7566	-0.279888	-2351.17	-1.639148E-5	NaN
688	1.000000	0.853365	7.37178e+06	-42689.1	1005.82	-29781.8	0.000000	0.000000	6.853052	-0.070365	NaN	0.000000	0.001680	0.001718	28.0819	0.074481	0.002033	36.6315	86.7182	11.7049	-0.022863	0.852045	-0.269376	-0.270696	-0.070365	36.6315	-0.267935	-1549.29	4.541719E-5	NaN
688	1.000000	0.863406	7.37178e+06	-42689.1	1005.82	-29781.8	0.000000	0.000000	6.863094	-0.041295	NaN	0.000000	0.001666	0.001705	28.0819	0.046494	0.001911	24.3246	164.754	-165.202	-0.027716	0.862110	-0.259335	-0.260631	-0.041295	24.3246	-0.258062	-1094.43	3.773234E-5	NaN
688	1.000000	0.873414	7.37178e+06	-42689.1	1005.82	-29781.8	0.000000	0.000000	6.873104	-7.530216E-7	NaN	0.000000	0.001687	0.001699	28.082	0.050646	0.002060	24.5813	88.9893	12.7195	0.000531	0.872075	-0.249327	-0.250666	-7.530216E-7	24.5813	-0.249327	-802.7	9.381104E-10	NaN
688	1.000000	0.883397	7.37178e+06	-42689.1	1005.82	-29781.8	0.000000	0.000000	6.883088	0.015241	NaN	0.000000	0.001699	0.001695	28.0819	0.093478	0.002004	46.6516	-116.457	-165.016	0.078337	0.882048	-0.239344	-0.240692	0.015241	46.6516	-0.239589	-566.407	-2.690873E-5	NaN
688	1.000000	0.893401	7.37178e+06	-42689.1	1005.82	-29781.8	0.000000	0.000000	6.893091	-0.011493	NaN	0.000000	0.001742	0.001673	28.0821	0.040487	0.001945	20.8145	42.8693	13.7323	-0.003430	0.892009	-0.229339	-0.230732	-0.011493	20.8145	-0.228925	-385.065	2.984565E-5	NaN
688	1.000000	0.903437	7.37178e+06	-42689.1	1005.82	-29781.8	0.000000	0.000000	6.903125	-0.046919	NaN	0.000000	0.001714	0.001713	28.0822	0.066368	0.002010	33.0202	-106.816	-167.763	0.046677	0.902082	-0.219304	-0.220659	-0.046919	33.0202	-0.218238	-260.311	0.000180	NaN
688	1.000000	0.913426	7.37178e+06	-42689.1	1005.82	-29781.8	0.000000	0.000000	6.913114	-0.049697	NaN	0.000000	0.001710	0.001726	28.0819	0.056533	0.001955	28.9153	73.9868	13.607	-0.019611	0.912028	-0.209315	-0.210713	-0.049697	28.9153	-0.208026	-178.159	0.000279	NaN
688	1.000000	0.923402	7.37178e+06	-42689.1	1005.82	-29781.8	0.000000	0.000000	6.923092	0.002917	NaN	0.000000	0.001736	0.001722	28.082	0.076643	0.002004	38.2444	126.352	-166.866	0.126161	0.922156	-0.199339	-0.200585	0.002917	38.2444	-0.199396	-128.758	-2.265215E-5	NaN
688	1.000000	0.933404	7.37178e+06	-42689.1	1005.82	-29781.8	0.000000	0.000000	6.933095	0.019977	NaN	0.000000	0.001708	0.001673	28.0823	0.047952	0.001989	24.1097	53.6496	17.4813	-0.001272	0.932106	-0.189337	-0.190634	0.019977	24.1097	-0.189959	-89.8123	-0.000222	NaN
688	1.000000	0.943427	7.37178e+06	-42689.1	1005.82	-29781.8	0.000000	0.000000	6.943117	-0.011818	NaN	0.000000	0.001707	0.001660	28.082	0.038804	0.002007	19.3336	100.729	-168.409	0.028617	0.942117	-0.179314	-0.180623	-0.011818	19.3336	-0.178855	-58.3403	0.000203	NaN
688	1.000000	0.953449	7.37178e+06	-42689.1	1005.82	-29781.8	0.000000	0.000000	6.953139	-0.002651	NaN	0.000000	0.001749	0.001684	28.0819	0.160605	0.001967	81.6623	84.9918	12.7036	0.038283	0.952120	-0.169291	-0.170621	-0.002651	81.6623	-0.169267	-39.8912	6.646754E-5	NaN
688	1.000000	0.963424	7.37178e+06	-42689.1	1005.82	-29781.8	0.000000	0.000000	6.963115	0.031783	NaN	0.000000	0.001686	0.001736	28.0819	0.082293	0.002021	40.7264	89.5421	-164.649	0.029898	0.962107	-0.159317	-0.160634	0.031783	40.7264	-0.159902	-27.3054	-0.001164	NaN
688	1.000000	0.973448	7.37178e+06	-42689.1	1005.82	-29781.8	0.000000	0.000000	6.973136	-0.044063	NaN	0.000000	0.001729	0.001744	28.0823	0.099451	0.002030	48.9911	-95.3148	11.5729	-0.026477	0.972089	-0.149293	-0.150652	-0.044063	48.9911	-0.148618	-17.0907	0.002578	NaN
688	1.000000	0.983440	7.37178e+06	-42689.1	1005.82	-29781.8	0.000000	0.000000	6.983130	-0.008685	NaN	0.000000	0.001664	0.001732	28.083	0.087497	0.002033	43.0396	-168.054	-166.593	0.009230	0.982127	-0.139301	-0.140614	-0.008685	43.0396	-0.139149	-11.4015	0.000762	NaN
688	1.000000	0.993446	7.37178e+06	-42689.1	1005.82	-29781.8	0.000000	0.000000	6.993135	-0.027788	NaN	0.000000	0.001705	0.001719	28.0831	0.026300	0.002061	12.7591	61.9163	15.0452	0.045381	0.992102	-0.129295	-0.130639	-0.027788	12.7591	-0.127661	-6.861085	0.004050	NaN
688	1.000000	1.003452	7.37178e+06	-42689.1	1005.82	-29781.8	0.000000	0.000000	7.003141	-0.029985	NaN	0.000000	0.001665	0.001723	28.083	0.039015	0.001939	20.1259	-59.2032	-170.074	0.033750	1.002171	-0.119288	-0.120569	-0.029985	20.1259	-0.118171	-4.436361	0.006759	NaN
688	1.000000	1.013469	7.37178e+06	-42689.1	1005.82	-29781.8	0.000000	0.000000	7.013159	0.005308	NaN	0.000000	0.001748	0.001736	28.0835	0.029574	0.001969	15.0172	-89.4588	14.2934	-0.011509	1.012130	-0.109272	-0.110611	0.005308	15.0172	-0.109537	-2.938299	-0.001806	NaN
688	1.000000	1.023420	7.37178e+06	-42689.1	1005.82	-29781.8	0.000000	0.000000	7.023109	-0.039769	NaN	0.000000	0.001737	0.001758	28.083	0.088308	0.002083	42.3992	-92.7026	-164.198	-0.023004	1.022198	-0.099320	-0.100543	-0.039769	42.3992	-0.098617	-1.702170	0.023364	NaN
688	1.000000	1.033473	7.37178e+06	-42689.1	1005.82	-29781.8	0.000000	0.000000	7.033163	-0.002160	NaN	0.000000	0.001733	0.001720	28.0832	0.105998	0.001925	55.058	-165.776	9.206795	-0.008710	1.032084	-0.089268	-0.090657	-0.002160	55.058	-0.089238	-1.037296	0.002082	NaN
688	1.000000	1.043479	7.37178e+06	-42689.1	1005.82	-29781.8	0.000000	0.000000	7.043174	0.102720	NaN	0.000000	0.001758	0.001715	28.083	0.128389	0.002174	59.0689	-135.967	-166.694	0.008573	1.042222	-0.079262	-0.080518	0.102720	59.0689	-0.080566	-0.639450	-0.160638	NaN
688	1.000000	1.053497	7.37178e+06	-42689.1	1005.82	-29781.8	0.000000	0.000000	7.053188	0.028128	NaN	0.000000	0.001694	0.001733	28.0833	0.052931	0.002035	26.0083	3.104621	11.9155	0.012386	1.052119	-0.069244	-0.070622	0.028128	26.0083	-0.070055	-0.342266	-0.082181	NaN
688	1.000000	1.063472	7.37178e+06	-42689.1	1005.82	-29781.8	0.000000	0.000000	7.063162	0.002368	NaN	0.000000	0.001747	0.001701	28.0831	0.113540	0.002050	55.3903	-153.301	-166.491	-0.095908	1.062192	-0.059269	-0.060549	0.002368	55.3903	-0.059301	-0.171950	-0.013774	NaN
688	1.000000	1.073491	7.37178e+06	-42689.1	1005.82	-29781.8	0.000000	0.000000	7.073181	0.012503	NaN	0.000000	0.001755	0.001710	28.083	0.083286	0.001933	43.0796	-132.375	15.1202	0.097434	1.072153	-0.049250	-0.050587	0.012503	43.0796	-0.049468	-0.087928	-0.142194	NaN
688	1.000000	1.083504	7.37178e+06	-42689.1	1005.82	-29781.8	0.000000	0.000000	7.083194	-0.014035	NaN	0.000000	0.001713	0.001699	28.0834	0.059018	0.001904	31.0041	173.283	-167.28	-0.030231	1.082163	-0.039237	-0.040578	-0.014035	31.0041	-0.038897	-0.041872	0.335194	NaN
688	1.000000	1.093503	7.37178e+06	-42689.1	1005.82	-29781.8	0.000000	0.000000	7.093194	0.017301	NaN	0.000000	0.001720	0.001702	28.0832	0.030781	0.001948	15.7994	55.2302	11.8247	0.006817	1.092113	-0.029238	-0.030628	0.017301	15.7994	-0.030059	-0.023101	-0.748942	NaN
688	1.000000	1.103454	7.37178e+06	-42689.1	1005.82	-29781.8	0.000000	0.000000	7.103145	0.000341	NaN	0.000000	0.001713	0.001726	28.0832	0.196350	0.002085	94.1819	52.9222	-167.939	-0.022638	1.102166	-0.019286	-0.020574	0.000341	94.1819	-0.019289	-0.012048	-0.028277	NaN
688	1.000000	1.113482	7.37178e+06	-42689.1	1005.82	-29781.8	0.000000	0.000000	7.113186	0.354242	NaN	0.000000	0.001700	0.001692	28.0819	0.682651	0.001920	355.592	23.9154	11.7796	0.187716	1.112134	-0.009259	-0.010607	0.354242	355.592	-0.010006	-0.006391	-55.4285	NaN
688	1.000000	1.123455	7.37178e+06	-42689.1	1005.82	-29781.8	0.000000	0.000000	7.123346	4.888035	NaN	0.000000	0.001710	0.001694	28.082	5.752360	0.001873	3071.69	16.083	-170.394	3.614856	1.122146	0.000714	-0.000594	4.888035	3071.69	-0.000479	-0.000355	-13771.3	NaN
688	2.000000	1.128616	7.37178e+06	-42689.1	1005.82	-29781.8	0.000000	0.000000	7.128766	11.2048	NaN	0.000000	0.001711	0.001697	28.0819	10.4765	0.001620	6468.06	6.937356	6.929938	10.4714	1.128280	0.005875	0.005539	11.2048	6468.06	0.004576	0.003750	2988.28	96506.5
688	2.000000	1.131067	7.37178e+06	-42689.1	1005.82	-29781.8	0.000000	0.000000	7.131547	19.2177	NaN	0.000000	0.001715	0.001704	28.0818	13.0927	0.001740	7522.62	6.498479	-174.014	18.9156	1.130733	0.008326	0.007993	19.2177	7522.62	0.006410	0.005457	3521.6	93038.3
688	2.000000	1.133534	7.37178e+06	-42689.1	1005.82	-29781.8	0.000000	0.000000	7.134428	29.3016	NaN	0.000000	0.001733	0.001708	28.0819	16.6523	0.001807	9215.34	5.621081	4.145105	28.3467	1.133127	0.010793	0.010386	29.3016	9215.34	0.008408	0.007465	3924.97	97444.5
688	2.000000	1.135998	7.37178e+06	-42689.1	1005.82	-29781.8	0.000000	0.000000	7.137354	40.5329	NaN	0.000000	0.001703	0.001681	28.0819	19.6214	0.001630	12040.2	6.668166	179.933	39.3389	1.135702	0.013257	0.012961	40.5329	12040.2	0.010732	0.010007	4050.56	109966
688	2.000000	1.138548	7.37178e+06	-42689.1	1005.82	-29781.8	0.000000	0.000000	7.140427	53.2456	NaN	0.000000	0.001715	0.001713	28.0818	21.8811	0.001659	13191.5	5.760563	1.094339	52.3769	1.138167	0.015808	0.015427	53.2456	13191.5	0.012780	0.012438	4280.79	108065
688	2.000000	1.140960	7.37178e+06	-42689.1	1005.82	-29781.8	0.000000	0.000000	7.143269	63.7156	NaN	0.000000	0.001739	0.001716	28.0818	25.0186	0.001694	14772.2	9.414276	175.627	61.5088	1.140703	0.018219	0.017962	63.7156	14772.2	0.014984	0.015264	4174.25	109241
688	2.000000	1.143493	7.37178e+06	-42689.1	1005.82	-29781.8	0.000000	0.000000	7.146279	75.3294	NaN	0.000000	0.001736	0.001666	28.082	27.6174	0.001655	16682.9	5.280382	-0.994817	74.4357	1.143152	0.020752	0.020411	75.3294	16682.9	0.017366	0.018571	4056.36	111849
688	2.000000	1.146019	7.37178e+06	-42689.1	1005.82	-29781.8	0.000000	0.000000	7.149326	88.0068	NaN	0.000000	0.001740	0.001707	28.0817	31.1457	0.001741	17892.4	4.183016	178.888	86.9375	1.145671	0.023278	0.022930	88.0068	17892.4	0.019589	0.021901	4018.41	110461
688	2.000000	1.148544	7.37178e+06	-42689.1	1005.82	-29781.8	0.000000	0.000000	7.152416	101.749	NaN	0.000000	0.001710	0.001718	28.0815	34.178	0.001862	18353.6	5.719538	-1.372644	100.077	1.148050	0.025803	0.025309	101.749	18353.6	0.021645	0.025194	4038.61	105644
688	2.000000	1.150935	7.37178e+06	-42689.1	1005.82	-29781.8	0.000000	0.000000	7.155414	116.516	NaN	0.000000	0.001733	0.001721	28.0815	36.5948	0.001693	21614.3	4.370382	177.978	114.997	1.150687	0.028195	0.027947	116.516	21614.3	0.024152	0.029490	3951	114994
688	2.000000	1.153452	7.37178e+06	-42689.1	1005.82	-29781.8	0.000000	0.000000	7.158586	132.451	NaN	0.000000	0.001749	0.001724	28.0819	39.1869	0.001749	22406	4.568796	-2.977419	130.6	1.153092	0.030711	0.030352	132.451	22406	0.026278	0.033381	3967.84	112044
688	2.000000	1.155882	7.37178e+06	-42689.1	1005.82	-29781.8	0.000000	0.000000	7.161585	146.292	NaN	0.000000	0.001755	0.001707	28.0815	41.9687	0.001779	23592.2	2.740917	178.35	143.07	1.155731	0.033141	0.032991	146.292	23592.2	0.028490	0.037673	3883.19	111052
688	2.000000	1.158470	7.37178e+06	-42689.1	1005.82	-29781.8	0.000000	0.000000	7.165054	167.736	NaN	0.000000	0.001745	0.001707	28.0829	43.9714	0.001725	25494.7	4.293896	-3.561653	165.765	1.158054	0.035729	0.035313	167.736	25494.7	0.030795	0.042407	3955.41	113111
688	2.000000	1.160942	7.37178e+06	-42689.1	1005.82	-29781.8	0.000000	0.000000	7.168369	188.243	NaN	0.000000	0.001706	0.001691	28.083	45.6207	0.001757	25965	1.636261	178.471	186.166	1.160565	0.038201	0.037825	188.243	25965	0.032764	0.046667	4033.79	109814
688	2.000000	1.163478	7.37179e+06	-42689.1	1005.82	-29781.8	0.000000	0.000000	7.171573	204.493	NaN	0.000000	0.001740	0.001735	28.0829	48.6341	0.001763	27582.7	1.908649	-1.632746	203.219	1.163079	0.040737	0.040338	204.493	27582.7	0.035177	0.052159	3920.57	110343
688	2.000000	1.166019	7.37179e+06	-42689.1	1005.82	-29781.8	0.000000	0.000000	7.174753	220.05	NaN	0.000000	0.001721	0.001740	28.0826	52.0947	0.001933	26957	5.398887	174.894	220.189	1.165625	0.043278	0.042885	220.05	26957	0.037156	0.056885	3868.31	103263
688	2.000000	1.168483	7.37179e+06	-42689.1	1005.82	-29781.8	0.000000	0.000000	7.178128	242.19	NaN	0.000000	0.001715	0.001700	28.0827	53.6451	0.001790	29969.3	7.200299	-8.133324	241.244	1.168020	0.045743	0.045279	242.19	29969.3	0.039682	0.063208	3831.61	108909
688	2.000000	1.170990	7.37179e+06	-42689.1	1005.82	-29781.8	0.000000	0.000000	7.181298	258.35	NaN	0.000000	0.001700	0.001697	28.0831	54.5227	0.001862	29277.9	3.228849	176.828	260.714	1.170699	0.048249	0.047958	258.35	29277.9	0.041631	0.068312	3781.93	102345
688	2.000000	1.173485	7.37179e+06	-42689.1	1005.82	-29781.8	0.000000	0.000000	7.184767	282.043	NaN	0.000000	0.001710	0.001719	28.0828	56.1252	0.001697	33079.4	5.152433	-6.075110	281.332	1.172999	0.050744	0.050259	282.043	33079.4	0.044349	0.075751	3723.3	109809
688	2.000000	1.175986	7.37179e+06	-42689.1	1005.82	-29781.8	0.000000	0.000000	7.187899	297.384	NaN	0.000000	0.001697	0.001723	28.0829	59.6655	0.001859	32104.1	4.165071	174.278	296.767	1.175709	0.053246	0.052969	297.384	32104.1	0.046298	0.081316	3657.15	102860
688	2.000000	1.178478	7.37179e+06	-42689.1	1005.82	-29781.8	0.000000	0.000000	7.191311	319.775	NaN	0.000000	0.001726	0.001685	28.0827	60.6831	0.001929	31462.2	2.040986	-2.442096	319.185	1.178095	0.055737	0.055354	319.775	31462.2	0.048115	0.086675	3689.36	97637.4
688	2.000000	1.180945	7.37179e+06	-42689.1	1005.82	-29781.8	0.000000	0.000000	7.194329	333.187	NaN	0.000000	0.001683	0.001684	28.0829	62.1486	0.001886	32946.3	1.176622	177.478	334.337	1.180698	0.058204	0.057957	333.187	32946.3	0.050619	0.094336	3531.92	98003.4
688	2.000000	1.183426	7.37179e+06	-42689.1	1005.82	-29781.8	0.000000	0.000000	7.197899	359.678	NaN	0.000000	0.001731	0.001695	28.0827	64.2872	0.001852	34712.1	1.497526	-3.536740	357.281	1.183101	0.060685	0.060360	359.678	34712.1	0.052914	0.101632	3539.02	99480.6
688	2.000000	1.185902	7.37179e+06	-42689.1	1005.82	-29781.8	0.000000	0.000000	7.200931	373.219	NaN	0.000000	0.001727	0.001700	28.0828	66.3358	0.001832	36211.2	2.813924	174.746	371.247	1.185696	0.063161	0.062955	373.219	36211.2	0.055431	0.109935	3394.89	99780.7
688	2.000000	1.188376	7.37179e+06	-42689.1	1005.82	-29781.8	0.000000	0.000000	7.204353	396.278	NaN	0.000000	0.001735	0.001699	28.0829	67.6993	0.001792	37788	4.835021	-6.898207	391.267	1.188070	0.065635	0.065329	396.278	37788	0.057770	0.117933	3360.19	100533
688	2.000000	1.190901	7.37179e+06	-42689.1	1005.82	-29781.8	0.000000	0.000000	7.207467	410.605	NaN	0.000000	0.001731	0.001725	28.0824	70.7884	0.001888	37486.7	4.964977	172.173	407.93	1.190684	0.068160	0.067943	410.605	37486.7	0.059945	0.125612	3268.82	96635
688	2.000000	1.193315	7.37179e+06	-42689.1	1005.82	-29781.8	0.000000	0.000000	7.210950	436.617	NaN	0.000000	0.001713	0.001674	28.0817	72.0937	0.001840	39187.4	6.446498	-9.510601	428.449	1.192943	0.070574	0.070202	436.617	39187.4	0.062218	0.133880	3261.25	97850.1
688	2.000000	1.195824	7.37179e+06	-42689.1	1005.82	-29781.8	0.000000	0.000000	7.214250	455.84	NaN	0.000000	0.001683	0.001699	28.0817	74.4508	0.001829	40709.5	4.526487	172.418	450.111	1.195605	0.073083	0.072864	455.84	40709.5	0.064685	0.143143	3184.5	98306.7
688	2.000000	1.198420	7.37179e+06	-42689.1	1005.82	-29781.8	0.000000	0.000000	7.217959	482.921	NaN	0.000000	0.001719	0.001716	28.082	76.1006	0.001800	42278.7	5.070364	-7.415114	480.19	1.197970	0.075680	0.075229	482.921	42278.7	0.067113	0.152542	3165.82	98900.6
688	2.000000	1.200843	7.37179e+06	-42689.1	1005.82	-29781.8	0.000000	0.000000	7.221158	501.805	NaN	0.000000	0.001723	0.001720	28.0819	77.9888	0.001807	43164.1	3.899046	173.156	495.468	1.200507	0.078102	0.077767	501.805	43164.1	0.069383	0.161588	3105.46	98105.1
688	2.000000	1.203469	7.37179e+06	-42689.1	1005.82	-29781.8	0.000000	0.000000	7.224417	517.219	NaN	0.000000	0.001711	0.001679	28.0818	80.9599	0.001781	45455.3	3.210098	-6.683710	517.644	1.203131	0.080728	0.080390	517.219	45455.3	0.072194	0.173129	2987.49	99809.8
688	2.000000	1.205961	7.37179e+06	-42689.1	1005.82	-29781.8	0.000000	0.000000	7.227836	539.763	NaN	0.000000	0.001699	0.001766	28.082	82.8828	0.001807	45875	1.419273	175.302	540.213	1.205610	0.083220	0.082870	539.763	45875	0.074396	0.182429	2958.76	98130.1
688	2.000000	1.208455	7.37179e+06	-42689.1	1005.82	-29781.8	0.000000	0.000000	7.231462	567.32	NaN	0.000000	0.001699	0.001684	28.0819	84.8857	0.001812	46858.5	4.764113	-8.311450	564.599	1.208025	0.085714	0.085285	567.32	46858.5	0.076634	0.192117	2953	97674
688	2.000000	1.210921	7.37179e+06	-42689.1	1005.82	-29781.8	0.000000	0.000000	7.234589	583.386	NaN	0.000000	0.001723	0.001720	28.0822	86.9161	0.001812	47971.9	2.016671	173.862	582.846	1.210640	0.088180	0.087899	583.386	47971.9	0.079060	0.202882	2875.5	97305.8
688	2.000000	1.213332	7.37179e+06	-42689.1	1005.82	-29781.8	0.000000	0.000000	7.238093	610.009	NaN	0.000000	0.001737	0.001702	28.0816	89.4699	0.001905	46962.9	5.157293	-9.015954	602.757	1.212979	0.090591	0.090239	610.009	46962.9	0.080849	0.210998	2891.06	93409.1
688	2.000000	1.215842	7.37179e+06	-42689.1	1005.82	-29781.8	0.000000	0.000000	7.241463	630.907	NaN	0.000000	0.001741	0.001716	28.0816	90.752	0.001681	53975.2	3.524507	171.292	626.898	1.215555	0.093102	0.092814	630.907	53975.2	0.084335	0.227240	2776.39	103449
688	2.000000	1.218379	7.37179e+06	-42689.1	1005.82	-29781.8	0.000000	0.000000	7.245026	655.877	NaN	0.000000	0.001723	0.001721	28.0817	93.3479	0.001899	49157.8	6.075237	-9.927947	651.806	1.217963	0.095638	0.095222	655.877	49157.8	0.085631	0.233422	2809.83	92959.8
688	2.000000	1.220801	7.37179e+06	-42689.1	1005.82	-29781.8	0.000000	0.000000	7.248405	679.161	NaN	0.000000	0.001726	0.001711	28.0827	94.865	0.001906	49768.7	4.360430	171.919	673.216	1.220494	0.098060	0.097753	679.161	49768.7	0.087825	0.244064	2782.72	92040.2
688	2.000000	1.223320	7.37179e+06	-42689.1	1005.82	-29781.8	0.000000	0.000000	7.251577	695.047	NaN	0.000000	0.001691	0.001730	28.0817	96.9386	0.001740	55709.7	6.448857	-11.5827	688.918	1.222976	0.100579	0.100235	695.047	55709.7	0.091222	0.260974	2663.28	99633.5
688	2.000000	1.225493	7.37179e+06	-42689.1	1005.82	-29781.8	0.000000	0.000000	7.254361	709.916	NaN	0.000000	0.001709	0.001693	28.0834	99.2217	0.001875	52919.9	4.228753	-8.261085	711.772	1.225191	0.102753	0.102450	709.916	52919.9	0.092691	0.268453	2644.47	93316.3