File: remote_trans/data/nanoindenter/0828-1/data/Data_2025-08-06,11h17m57s/2025-07-22_16-23-58_1_403.txt
2025-07-22, 16:23:58, 1
Index	Phase	Displacement	Time	Pos X	Pos Y	Pos Z	Rot A	Rot B	Piezo Z	Force A	Force B	Gripper	Voltage A	Voltage B	Temperature	Amplitude force	Amplitude pos	Stiffness	Phase shift	Phase excitation	Force A raw	Displacement raw	HMax	HMax raw	Real Force	Real Stiffness	Contact Depth	Area	Hardness	Reduced Mod.
[#]	[#]	[um]	[s]	[um]	[um]	[um]	[m°]	[m°]	[um]	[uN]	[uN]	[V]	[V]	[V]	[°C]	[uN]	[um]	[N/m]	[°]	[°]	[uN]	[um]	[um]	[um]	[uN]	[N/m]	[um]	[um^2]	[MPa]	[MPa]
403	1.000000	0.002263	7.369e+06	-56939.1	1005.82	-29737.9	0.000000	0.000000	6.002823	-0.010806	NaN	0.000000	0.001568	0.001644	28.0805	0.072057	0.000989	72.8602	-108.484	-166.946	-0.004388	0.000974	-1.047861	-1.049150	-0.010806	72.8602	-1.047750	-9.957747E+13	1.085166E-16	NaN
403	1.000000	0.010196	7.369e+06	-56939.1	1005.82	-29737.9	0.000000	0.000000	6.010755	-0.030746	NaN	0.000000	0.001696	0.001645	28.0804	0.014636	0.000944	15.5086	69.9258	-168.747	-0.011917	0.008906	-1.039928	-1.041217	-0.030746	15.5086	-1.038441	-7.464492E+13	4.118974E-16	NaN
403	1.000000	0.018181	7.369e+06	-56939.1	1005.82	-29737.9	0.000000	0.000000	6.018741	0.010489	NaN	0.000000	0.001683	0.001661	28.0823	0.066690	0.001855	35.9509	-79.7568	-166.995	0.012844	0.016897	-1.031943	-1.033227	0.010489	35.9509	-1.032162	-6.145534E+13	-1.706807E-16	NaN
403	1.000000	0.026185	7.369e+06	-56939.1	1005.82	-29737.9	0.000000	0.000000	6.026747	0.040703	NaN	0.000000	0.001699	0.001663	28.0842	0.032466	0.001846	17.5879	-139.289	-166.545	-0.039552	0.024864	-1.023938	-1.025260	0.040703	17.5879	-1.025674	-5.026764E+13	-8.097292E-16	NaN
403	1.000000	0.034213	7.369e+06	-56939.1	1005.82	-29737.9	0.000000	0.000000	6.034773	0.003552	NaN	0.000000	0.001732	0.001625	28.0823	0.113389	0.001752	64.7192	123.877	-163.687	0.049718	0.032916	-1.015911	-1.017208	0.003552	64.7192	-1.015952	-3.719517E+13	-9.548474E-17	NaN
403	1.000000	0.042175	7.369e+06	-56939.1	1005.82	-29737.9	0.000000	0.000000	6.042736	0.032034	NaN	0.000000	0.001658	0.001645	28.082	0.077598	0.001990	38.9929	6.314312	-166.104	0.035521	0.040900	-1.007949	-1.009224	0.032034	38.9929	-1.008565	-2.958493E+13	-1.082770E-15	NaN
403	1.000000	0.050191	7.369e+06	-56939.1	1005.82	-29737.9	0.000000	0.000000	6.050751	0.013190	NaN	0.000000	0.001615	0.001617	28.0818	0.105394	0.001978	53.2803	88.946	-165.786	0.027534	0.048900	-0.999933	-1.001223	0.013190	53.2803	-1.000119	-2.277019E+13	-5.792796E-16	NaN
403	1.000000	0.058172	7.369e+06	-56939.1	1005.82	-29737.9	0.000000	0.000000	6.058732	-0.015784	NaN	0.000000	0.001624	0.001697	28.0822	0.013341	0.002190	6.092854	36.1298	-167.367	0.016466	0.056889	-0.991951	-0.993235	-0.015784	6.092854	-0.990008	-1.664272E+13	9.484319E-16	NaN
403	1.000000	0.066221	7.369e+06	-56939.1	1005.82	-29737.9	0.000000	0.000000	6.066784	0.075635	NaN	0.000000	0.001640	0.001687	28.0817	0.092565	0.002117	43.7185	7.564081	-162.204	0.015843	0.064875	-0.983903	-0.985248	0.075635	43.7185	-0.985200	-1.433722E+13	-5.275455E-15	NaN
403	1.000000	0.074209	7.369e+06	-56939.1	1005.82	-29737.9	0.000000	0.000000	6.074770	0.014041	NaN	0.000000	0.001622	0.001663	28.0812	0.085195	0.002031	41.939	38.2355	-166.018	-0.016642	0.072853	-0.975914	-0.977271	0.014041	41.939	-0.976166	-1.083297E+13	-1.296135E-15	NaN
403	1.000000	0.082185	7.369e+06	-56939.1	1005.82	-29737.9	0.000000	0.000000	6.082743	-0.038844	NaN	0.000000	0.001611	0.001701	28.0816	0.047028	0.001970	23.8676	55.3642	-163.204	-0.061329	0.080903	-0.967939	-0.969220	-0.038844	23.8676	-0.966718	-8.080404E+12	4.807181E-15	NaN
403	1.000000	0.090218	7.369e+06	-56939.1	1005.82	-29737.9	0.000000	0.000000	6.090777	-0.022699	NaN	0.000000	0.001568	0.001685	28.0815	0.117700	0.001946	60.4871	-139.46	-162.654	-0.005316	0.088898	-0.959906	-0.961226	-0.022699	60.4871	-0.959625	-6.483493E+12	3.501065E-15	NaN
403	1.000000	0.098211	7.369e+06	-56939.1	1005.82	-29737.9	0.000000	0.000000	6.098771	0.011112	NaN	0.000000	0.001562	0.001737	28.0818	0.077943	0.002000	38.9692	-9.570817	-166.785	0.019468	0.096891	-0.951913	-0.953232	0.011112	38.9692	-0.952127	-5.136973E+12	-2.163104E-15	NaN
403	1.000000	0.106182	7.369e+06	-56939.1	1005.82	-29737.9	0.000000	0.000000	6.106743	0.035411	NaN	0.000000	0.001564	0.001700	28.0814	0.048222	0.002040	23.6431	90.2176	-166.407	-0.063461	0.104874	-0.943942	-0.945249	0.035411	23.6431	-0.945065	-4.125445E+12	-8.583500E-15	NaN
403	1.000000	0.114192	7.369e+06	-56939.1	1005.82	-29737.9	0.000000	0.000000	6.114756	0.082684	NaN	0.000000	0.001548	0.001713	28.0815	0.055124	0.001944	28.3493	81.568	-165.55	0.017021	0.112892	-0.935932	-0.937231	0.082684	28.3493	-0.938119	-3.324746E+12	-2.486919E-14	NaN
403	1.000000	0.122212	7.369e+06	-56939.1	1005.82	-29737.9	0.000000	0.000000	6.122772	0.002136	NaN	0.000000	0.001588	0.001735	28.0816	0.102359	0.002048	49.985	-124.061	-163.367	-0.066124	0.120906	-0.927912	-0.929217	0.002136	49.985	-0.927944	-2.423489E+12	-8.812833E-16	NaN
403	1.000000	0.130222	7.369e+06	-56939.1	1005.82	-29737.9	0.000000	0.000000	6.130783	0.022759	NaN	0.000000	0.001591	0.001675	28.0814	0.045474	0.002028	22.4212	-152.395	-164.675	-0.025393	0.128907	-0.919902	-0.921217	0.022759	22.4212	-0.920663	-1.932685E+12	-1.177559E-14	NaN
403	1.000000	0.138212	7.369e+06	-56939.1	1005.82	-29737.9	0.000000	0.000000	6.138772	0.005233	NaN	0.000000	0.001544	0.001690	28.0818	0.109428	0.001977	55.3515	89.4123	-168.224	-0.031976	0.136894	-0.911912	-0.913229	0.005233	55.3515	-0.911983	-1.475515E+12	-3.546396E-15	NaN
403	1.000000	0.146201	7.369e+06	-56939.1	1005.82	-29737.9	0.000000	0.000000	6.146762	0.020099	NaN	0.000000	0.001602	0.001670	28.0813	0.042169	0.002016	20.9211	-58.9448	-164.543	0.033360	0.144938	-0.903923	-0.905185	0.020099	20.9211	-0.904643	-1.174357E+12	-1.711472E-14	NaN
403	1.000000	0.154238	7.369e+06	-56939.1	1005.82	-29737.9	0.000000	0.000000	6.154796	-0.034217	NaN	0.000000	0.001617	0.001680	28.0812	0.049956	0.002003	24.9438	-53.6063	-165.375	0.024696	0.152903	-0.895886	-0.897220	-0.034217	24.9438	-0.894857	-8.661020E+11	3.950688E-14	NaN
403	1.000000	0.162234	7.369e+06	-56939.1	1005.82	-29737.9	0.000000	0.000000	6.162793	-0.017062	NaN	0.000000	0.001621	0.001694	28.0813	0.014856	0.001882	7.895138	-153.232	-166.077	0.005304	0.160883	-0.887890	-0.889241	-0.017062	7.895138	-0.886269	-6.629479E+11	2.573630E-14	NaN
403	1.000000	0.170248	7.369e+06	-56939.1	1005.82	-29737.9	0.000000	0.000000	6.170808	0.004244	NaN	0.000000	0.001605	0.001720	28.0803	0.011530	0.002018	5.713673	39.6991	-164.978	-0.078451	0.168892	-0.879876	-0.881232	0.004244	5.713673	-0.880433	-5.527911E+11	-7.677864E-15	NaN
403	1.000000	0.178235	7.369e+06	-56939.1	1005.82	-29737.9	0.000000	0.000000	6.178795	-0.015103	NaN	0.000000	0.001655	0.001698	28.0811	0.075696	0.002062	36.71	-20.3982	-164.079	-0.013707	0.176904	-0.871888	-0.873220	-0.015103	36.71	-0.871580	-4.195816E+11	3.599630E-14	NaN
403	1.000000	0.186254	7.369e+06	-56939.1	1005.82	-29737.9	0.000000	0.000000	6.186812	-0.057012	NaN	0.000000	0.001629	0.001700	28.0803	0.148249	0.001891	78.3998	-135.189	-165.962	-0.025728	0.184896	-0.863869	-0.865227	-0.057012	78.3998	-0.863324	-3.244211E+11	1.757356E-13	NaN
403	1.000000	0.194256	7.369e+06	-56939.1	1005.82	-29737.9	0.000000	0.000000	6.194817	0.019254	NaN	0.000000	0.001609	0.001679	28.0804	0.024425	0.002041	11.9658	81.4932	-163.246	-0.009440	0.192906	-0.855868	-0.857218	0.019254	11.9658	-0.857075	-2.670073E+11	-7.211196E-14	NaN
403	1.000000	0.202259	7.369e+06	-56939.1	1005.82	-29737.9	0.000000	0.000000	6.202820	0.016149	NaN	0.000000	0.001606	0.001717	28.0802	0.065860	0.002003	32.8812	-70.4012	-167.128	0.028244	0.200909	-0.847865	-0.849214	0.016149	32.8812	-0.848233	-2.026808E+11	-7.967917E-14	NaN
403	1.000000	0.210263	7.369e+06	-56939.1	1005.82	-29737.9	0.000000	0.000000	6.210822	-0.020484	NaN	0.000000	0.001605	0.001733	28.0803	0.047849	0.002016	23.7371	-28.4603	-167.222	-0.039057	0.208960	-0.839861	-0.841163	-0.020484	23.7371	-0.839214	-1.529819E+11	1.338974E-13	NaN
403	1.000000	0.218278	7.369e+06	-56939.1	1005.82	-29737.9	0.000000	0.000000	6.218838	0.000614	NaN	0.000000	0.001635	0.001691	28.0803	0.070371	0.001992	35.328	50.0486	-162.62	-0.053771	0.217005	-0.831846	-0.833119	0.000614	35.328	-0.831859	-1.216139E+11	-5.049246E-15	NaN
403	1.000000	0.226262	7.369e+06	-56939.1	1005.82	-29737.9	0.000000	0.000000	6.226821	-0.019413	NaN	0.000000	0.001603	0.001698	28.0802	0.063356	0.002085	30.381	77.5894	-164.183	0.005573	0.224997	-0.823862	-0.825127	-0.019413	30.381	-0.823383	-9.334219E+10	2.079787E-13	NaN
403	1.000000	0.234268	7.369e+06	-56939.1	1005.82	-29737.9	0.000000	0.000000	6.234826	-0.050751	NaN	0.000000	0.001608	0.001710	28.0807	0.034159	0.001933	17.6724	34.2022	-164.684	0.003985	0.232982	-0.815856	-0.817141	-0.050751	17.6724	-0.813702	-6.899114E+10	7.356102E-13	NaN
403	1.000000	0.242294	7.369e+06	-56939.1	1005.82	-29737.9	0.000000	0.000000	6.242854	-0.000634	NaN	0.000000	0.001607	0.001727	28.0804	0.052705	0.001934	27.2573	47.296	-166.015	0.012647	0.240983	-0.807830	-0.809141	-0.000634	27.2573	-0.807812	-5.739666E+10	1.105194E-14	NaN
403	1.000000	0.250274	7.369e+06	-56939.1	1005.82	-29737.9	0.000000	0.000000	6.250836	0.036540	NaN	0.000000	0.001626	0.001705	28.0802	0.002625	0.001987	1.321191	-14.312	-166.534	0.011288	0.248983	-0.799850	-0.801141	0.036540	1.321191	-0.820592	-8.555368E+10	-4.270950E-13	NaN
403	1.000000	0.258266	7.369e+06	-56939.1	1005.82	-29737.9	0.000000	0.000000	6.258825	-0.026525	NaN	0.000000	0.001624	0.001724	28.0803	0.063093	0.001981	31.8543	49.2674	-165.036	0.002669	0.256961	-0.791858	-0.793163	-0.026525	31.8543	-0.791233	-3.418489E+10	7.759251E-13	NaN
403	1.000000	0.266294	7.369e+06	-56939.1	1005.82	-29737.9	0.000000	0.000000	6.266853	-0.026407	NaN	0.000000	0.001617	0.001701	28.0802	0.003927	0.001934	2.030037	120.003	-164.375	-0.005730	0.265008	-0.783830	-0.785116	-0.026407	2.030037	-0.774074	-1.998427E+10	1.321369E-12	NaN
403	1.000000	0.274318	7.369e+06	-56939.1	1005.82	-29737.9	0.000000	0.000000	6.274877	-0.025489	NaN	0.000000	0.001593	0.001726	28.0806	0.029896	0.002096	14.2659	-172.856	-164.536	-0.041929	0.272978	-0.775805	-0.777146	-0.025489	14.2659	-0.774465	-2.023068E+10	1.259904E-12	NaN
403	1.000000	0.282298	7.369e+06	-56939.1	1005.82	-29737.9	0.000000	0.000000	6.282857	-0.033076	NaN	0.000000	0.001623	0.001714	28.0804	0.018186	0.001900	9.573060	-139.633	-163.437	-0.022897	0.280999	-0.767826	-0.769125	-0.033076	9.573060	-0.765234	-1.515310E+10	2.182797E-12	NaN
403	1.000000	0.290296	7.369e+06	-56939.1	1005.82	-29737.9	0.000000	0.000000	6.290854	-0.063471	NaN	0.000000	0.001590	0.001685	28.0803	0.062409	0.001994	31.2938	100.527	-167.128	0.002407	0.289048	-0.759828	-0.761075	-0.063471	31.2938	-0.758306	-1.219723E+10	5.203682E-12	NaN
403	1.000000	0.298287	7.369e+06	-56939.1	1005.82	-29737.9	0.000000	0.000000	6.298847	0.012239	NaN	0.000000	0.001588	0.001648	28.0802	0.107562	0.002044	52.621	166.874	-165.553	0.001437	0.296931	-0.751837	-0.753192	0.012239	52.621	-0.752012	-1.001386E+10	-1.222211E-12	NaN
403	1.000000	0.306290	7.369e+06	-56939.1	1005.82	-29737.9	0.000000	0.000000	6.306848	-0.038890	NaN	0.000000	0.001619	0.001700	28.0814	0.099153	0.001959	50.6048	-25.4017	-161.912	-0.052631	0.305040	-0.743834	-0.745084	-0.038890	50.6048	-0.743258	-7.610708E+9	5.109869E-12	NaN
403	1.000000	0.314301	7.369e+06	-56939.1	1005.82	-29737.9	0.000000	0.000000	6.314858	-0.061983	NaN	0.000000	0.001608	0.001668	28.0815	0.148994	0.001951	76.3838	-127.56	-161.627	0.019735	0.312977	-0.735823	-0.737147	-0.061983	76.3838	-0.735215	-5.913783E+9	1.048106E-11	NaN
403	1.000000	0.322292	7.369e+06	-56939.1	1005.82	-29737.9	0.000000	0.000000	6.322854	0.061533	NaN	0.000000	0.001590	0.001671	28.0816	0.071344	0.002069	34.4877	-121.1	-165.482	0.039574	0.320968	-0.727832	-0.729155	0.061533	34.4877	-0.729170	-4.892126E+9	-1.257795E-11	NaN
403	1.000000	0.330297	7.369e+06	-56939.1	1005.82	-29737.9	0.000000	0.000000	6.330859	0.050700	NaN	0.000000	0.001583	0.001690	28.0818	0.040698	0.001972	20.6391	39.0377	-166.119	0.104515	0.329045	-0.719827	-0.721079	0.050700	20.6391	-0.721669	-3.865749E+9	-1.311530E-11	NaN
403	1.000000	0.338326	7.369e+06	-56939.1	1005.82	-29737.9	0.000000	0.000000	6.338885	-0.036406	NaN	0.000000	0.001588	0.001661	28.0816	0.046564	0.001836	25.3606	-56.9568	-163.836	-0.003767	0.336982	-0.711797	-0.713142	-0.036406	25.3606	-0.710721	-2.740850E+9	1.328292E-11	NaN
403	1.000000	0.346319	7.369e+06	-56939.1	1005.82	-29737.9	0.000000	0.000000	6.346876	-0.083460	NaN	0.000000	0.001614	0.001639	28.0814	0.070693	0.001933	36.5697	151.246	-161.956	-0.000514	0.344959	-0.703804	-0.705165	-0.083460	36.5697	-0.702093	-2.089816E+9	3.993667E-11	NaN
403	1.000000	0.354332	7.369e+06	-56939.1	1005.82	-29737.9	0.000000	0.000000	6.354890	-0.055004	NaN	0.000000	0.001580	0.001675	28.0814	0.081333	0.001990	40.8764	33.7548	-163.076	-0.028478	0.352990	-0.695792	-0.697134	-0.055004	40.8764	-0.694782	-1.660601E+9	3.312277E-11	NaN
403	1.000000	0.362320	7.369e+06	-56939.1	1005.82	-29737.9	0.000000	0.000000	6.362880	-0.006023	NaN	0.000000	0.001616	0.001714	28.0813	0.044626	0.002103	21.2242	-126.81	-162.733	-0.113616	0.360965	-0.687803	-0.689159	-0.006023	21.2242	-0.687591	-1.324303E+9	4.548347E-12	NaN
403	1.000000	0.370316	7.369e+06	-56939.1	1005.82	-29737.9	0.000000	0.000000	6.370873	-0.056451	NaN	0.000000	0.001584	0.001661	28.0818	0.105185	0.001905	55.2114	-46.7991	-165.252	0.011450	0.369040	-0.679808	-0.681083	-0.056451	55.2114	-0.679041	-1.011797E+9	5.579316E-11	NaN
403	1.000000	0.378319	7.369e+06	-56939.1	1005.82	-29737.9	0.000000	0.000000	6.378881	0.046381	NaN	0.000000	0.001599	0.001656	28.0817	0.070053	0.001992	35.1647	3.048985	-164.699	0.090499	0.377039	-0.671805	-0.673085	0.046381	35.1647	-0.672794	-8.310596E+8	-5.580970E-11	NaN
403	1.000000	0.386355	7.369e+06	-56939.1	1005.82	-29737.9	0.000000	0.000000	6.386914	-0.008439	NaN	0.000000	0.001566	0.001675	28.0815	0.031423	0.002137	14.7062	-92.2666	-161.067	0.044867	0.385023	-0.663769	-0.665101	-0.008439	14.7062	-0.663339	-6.168720E+8	1.367961E-11	NaN
403	1.000000	0.394363	7.369e+06	-56939.1	1005.82	-29737.9	0.000000	0.000000	6.394921	-0.038114	NaN	0.000000	0.001588	0.001655	28.0814	0.138084	0.001901	72.6202	139.477	-162.637	-0.042865	0.393013	-0.655761	-0.657111	-0.038114	72.6202	-0.655367	-4.797336E+8	7.944818E-11	NaN
403	1.000000	0.402335	7.369e+06	-56939.1	1005.82	-29737.9	0.000000	0.000000	6.402892	-0.064639	NaN	0.000000	0.001551	0.001685	28.0814	0.052357	0.002023	25.8817	-50.5094	-163.274	-0.062847	0.401060	-0.647789	-0.649063	-0.064639	25.8817	-0.645916	-3.559911E+8	1.815747E-10	NaN
403	1.000000	0.410333	7.369e+06	-56939.1	1005.82	-29737.9	0.000000	0.000000	6.410894	0.024837	NaN	0.000000	0.001606	0.001622	28.0815	0.016974	0.002139	7.934317	-40.4285	-165.171	0.024098	0.408998	-0.639790	-0.641126	0.024837	7.934317	-0.642138	-3.159535E+8	-7.861055E-11	NaN
403	1.000000	0.418350	7.369e+06	-56939.1	1005.82	-29737.9	0.000000	0.000000	6.418908	-0.051856	NaN	0.000000	0.001564	0.001648	28.0814	0.101602	0.002033	49.985	141.337	-163.375	-0.001333	0.417062	-0.631773	-0.633062	-0.051856	49.985	-0.630995	-2.221726E+8	2.334051E-10	NaN
403	1.000000	0.426329	7.369e+06	-56939.1	1005.82	-29737.9	0.000000	0.000000	6.426890	0.026873	NaN	0.000000	0.001564	0.001709	28.0817	0.052164	0.002047	25.4859	85.2378	-162.537	0.069587	0.425051	-0.623794	-0.625073	0.026873	25.4859	-0.624585	-1.814036E+8	-1.481383E-10	NaN
403	1.000000	0.434353	7.369e+06	-56939.1	1005.82	-29737.9	0.000000	0.000000	6.434912	-0.030716	NaN	0.000000	0.001582	0.001686	28.0813	0.050969	0.002040	24.991	-138.004	-162.486	-0.031953	0.433024	-0.615770	-0.617100	-0.030716	24.991	-0.614849	-1.332936E+8	2.304371E-10	NaN
403	1.000000	0.442344	7.369e+06	-56939.1	1005.82	-29737.9	0.000000	0.000000	6.442905	0.013136	NaN	0.000000	0.001626	0.001674	28.0804	0.031227	0.002071	15.0815	-99.9961	-163.737	-0.035033	0.441064	-0.607779	-0.609060	0.013136	15.0815	-0.608433	-1.087800E+8	-1.207569E-10	NaN
403	1.000000	0.450341	7.369e+06	-56939.1	1005.82	-29737.9	0.000000	0.000000	6.450903	0.040980	NaN	0.000000	0.001654	0.001676	28.0802	0.083634	0.002133	39.2088	-177.064	-161.779	0.048686	0.449065	-0.599782	-0.601059	0.040980	39.2088	-0.600566	-8.477297E+7	-4.834068E-10	NaN
403	1.000000	0.458360	7.369e+06	-56939.1	1005.82	-29737.9	0.000000	0.000000	6.458916	-0.077365	NaN	0.000000	0.001601	0.001679	28.0802	0.092844	0.002052	45.2487	2.578664	-164.666	-0.095067	0.457075	-0.591764	-0.593049	-0.077365	45.2487	-0.590482	-6.156145E+7	1.256706E-9	NaN
403	1.000000	0.466391	7.369e+06	-56939.1	1005.82	-29737.9	0.000000	0.000000	6.466953	0.037601	NaN	0.000000	0.001608	0.001679	28.0807	0.178564	0.002048	87.1899	158.16	-164.961	0.039949	0.465063	-0.583732	-0.585060	0.037601	87.1899	-0.584056	-5.019826E+7	-7.490593E-10	NaN
403	1.000000	0.474367	7.369e+06	-56939.1	1005.82	-29737.9	0.000000	0.000000	6.474929	0.040329	NaN	0.000000	0.001613	0.001650	28.0801	0.087192	0.001991	43.7873	48.8233	-165.483	0.102210	0.473054	-0.575756	-0.577069	0.040329	43.7873	-0.576447	-3.941656E+7	-1.023136E-9	NaN
403	1.000000	0.482375	7.369e+06	-56939.1	1005.82	-29737.9	0.000000	0.000000	6.482935	0.011198	NaN	0.000000	0.001631	0.001649	28.0803	0.047927	0.002113	22.6835	-166.844	-164.082	0.017313	0.481082	-0.567749	-0.569042	0.011198	22.6835	-0.568119	-3.024410E+7	-3.702627E-10	NaN
403	1.000000	0.490354	7.369e+06	-56939.1	1005.82	-29737.9	0.000000	0.000000	6.490916	0.037572	NaN	0.000000	0.001592	0.001694	28.0803	0.118501	0.002018	58.7108	-2.285858	-167.567	-0.042934	0.489101	-0.559770	-0.561023	0.037572	58.7108	-0.560250	-2.354130E+7	-1.596016E-9	NaN
403	1.000000	0.498371	7.369e+06	-56939.1	1005.82	-29737.9	0.000000	0.000000	6.498929	-0.040339	NaN	0.000000	0.001616	0.001674	28.081	0.035729	0.002064	17.3139	175.123	-165.747	-0.058096	0.497038	-0.551753	-0.553086	-0.040339	17.3139	-0.550006	-1.698378E+7	2.375131E-9	NaN
403	1.000000	0.506368	7.369e+06	-56939.1	1005.82	-29737.9	0.000000	0.000000	6.506926	-0.045917	NaN	0.000000	0.001613	0.001678	28.0803	0.059568	0.002097	28.4066	120.146	-162.355	-0.067982	0.505081	-0.543756	-0.545042	-0.045917	28.4066	-0.542544	-1.338530E+7	3.430427E-9	NaN
403	1.000000	0.514358	7.369e+06	-56939.1	1005.82	-29737.9	0.000000	0.000000	6.514917	-0.037630	NaN	0.000000	0.001627	0.001680	28.0801	0.119394	0.001981	60.2811	98.7011	-165.638	-0.008725	0.513048	-0.535766	-0.537076	-0.037630	60.2811	-0.535298	-1.061986E+7	3.543408E-9	NaN
403	1.000000	0.522413	7.369e+06	-56939.1	1005.82	-29737.9	0.000000	0.000000	6.522974	0.030272	NaN	0.000000	0.001612	0.001701	28.0806	0.021630	0.002162	10.0036	-147.11	-163.325	-0.019623	0.521067	-0.527711	-0.529057	0.030272	10.0036	-0.529981	-8.96001e+06	-3.378603E-9	NaN
403	1.000000	0.530397	7.369e+06	-56939.1	1005.82	-29737.9	0.000000	0.000000	6.530958	0.020707	NaN	0.000000	0.001608	0.001715	28.0802	0.060473	0.002032	29.7549	30.2666	-166.547	-0.000124	0.529103	-0.519726	-0.521021	0.020707	29.7549	-0.520248	-6.56222e+06	-3.155428E-9	NaN
403	1.000000	0.538439	7.369e+06	-56939.1	1005.82	-29737.9	0.000000	0.000000	6.538999	-0.001758	NaN	0.000000	0.001612	0.001697	28.0802	0.110026	0.002026	54.3061	-175.129	-168.691	-0.070036	0.537098	-0.511685	-0.513026	-0.001758	54.3061	-0.511661	-4.98361e+06	3.527755E-10	NaN
403	1.000000	0.546410	7.369e+06	-56939.1	1005.82	-29737.9	0.000000	0.000000	6.546971	0.023263	NaN	0.000000	0.001606	0.001699	28.0802	0.046584	0.001983	23.4896	-18.3825	-167.279	0.012729	0.545071	-0.503714	-0.505053	0.023263	23.4896	-0.504457	-3.95525e+06	-5.881653E-9	NaN
403	1.000000	0.554386	7.369e+06	-56939.1	1005.82	-29737.9	0.000000	0.000000	6.554943	-0.065278	NaN	0.000000	0.001614	0.001700	28.08	0.092113	0.001966	46.8508	85.0209	-162.466	-0.029735	0.553124	-0.495738	-0.497000	-0.065278	46.8508	-0.494693	-2.89033e+06	2.258481E-8	NaN
403	1.000000	0.562396	7.369e+06	-56939.1	1005.82	-29737.9	0.000000	0.000000	6.562952	-0.081168	NaN	0.000000	0.001639	0.001708	28.0806	0.032482	0.001989	16.3333	151.101	-165.511	-0.072111	0.561081	-0.487728	-0.489043	-0.081168	16.3333	-0.484001	-2.04889e+06	3.961536E-8	NaN
403	1.000000	0.570411	7.36901e+06	-56939.1	1005.82	-29737.9	0.000000	0.000000	6.570970	-0.026687	NaN	0.000000	0.001609	0.001700	28.0801	0.101482	0.001950	52.0434	119.221	-167.191	-0.010919	0.569103	-0.479713	-0.481021	-0.026687	52.0434	-0.479328	-1.76247e+06	1.514158E-8	NaN
403	1.000000	0.578420	7.36901e+06	-56939.1	1005.82	-29737.9	0.000000	0.000000	6.578979	-0.022105	NaN	0.000000	0.001607	0.001714	28.0813	0.072955	0.001877	38.875	24.0464	-166.631	-0.041571	0.577082	-0.471704	-0.473041	-0.022105	38.875	-0.471277	-1.35931e+06	1.626219E-8	NaN
403	1.000000	0.586416	7.36901e+06	-56939.1	1005.82	-29737.9	0.000000	0.000000	6.586973	-0.070739	NaN	0.000000	0.001648	0.001715	28.0814	0.066500	0.001994	33.3568	-153.47	-163.336	-0.111325	0.585123	-0.463708	-0.465000	-0.070739	33.3568	-0.462117	-1.01103e+06	6.996675E-8	NaN
403	1.000000	0.594418	7.36901e+06	-56939.1	1005.82	-29737.9	0.000000	0.000000	6.594976	-0.041773	NaN	0.000000	0.001621	0.001714	28.0814	0.076234	0.002047	37.243	93.8358	-163.928	-0.088016	0.593118	-0.455706	-0.457006	-0.041773	37.243	-0.454865	-799497	5.224924E-8	NaN
403	1.000000	0.602415	7.36901e+06	-56939.1	1005.82	-29737.9	0.000000	0.000000	6.602970	-0.115565	NaN	0.000000	0.001630	0.001720	28.0817	0.089655	0.001971	45.4759	93.5905	-166.498	-0.043322	0.601144	-0.447709	-0.448979	-0.115565	45.4759	-0.445803	-595954	1.939165E-7	NaN
403	1.000000	0.610422	7.36901e+06	-56939.1	1005.82	-29737.9	0.000000	0.000000	6.610983	0.026602	NaN	0.000000	0.001632	0.001712	28.0813	0.065039	0.001938	33.5565	117.16	-164.956	0.008563	0.609155	-0.439702	-0.440969	0.026602	33.5565	-0.440296	-498364	-5.337924E-8	NaN
403	1.000000	0.618407	7.36901e+06	-56939.1	1005.82	-29737.9	0.000000	0.000000	6.618967	-0.000840	NaN	0.000000	0.001608	0.001682	28.0816	0.048835	0.001969	24.8054	17.2772	-168.781	0.046625	0.617062	-0.431717	-0.433062	-0.000840	24.8054	-0.431691	-376691	2.231038E-9	NaN
403	1.000000	0.626444	7.36901e+06	-56939.1	1005.82	-29737.9	0.000000	0.000000	6.627004	-0.010609	NaN	0.000000	0.001628	0.001680	28.0814	0.009485	0.001914	4.956527	157.519	-162.912	0.036829	0.625095	-0.423680	-0.425028	-0.010609	4.956527	-0.422074	-275313	3.853619E-8	NaN
403	1.000000	0.634446	7.36901e+06	-56939.1	1005.82	-29737.9	0.000000	0.000000	6.635006	0.006740	NaN	0.000000	0.001628	0.001714	28.0814	0.009267	0.002003	4.625244	-63.3197	-167.118	-0.006719	0.633155	-0.415678	-0.416968	0.006740	4.625244	-0.416771	-231526	-2.911206E-8	NaN
403	1.000000	0.642430	7.36901e+06	-56939.1	1005.82	-29737.9	0.000000	0.000000	6.642991	0.012079	NaN	0.000000	0.001648	0.001708	28.0814	0.056741	0.002041	27.7999	-66.1582	-167.799	0.000991	0.641139	-0.407693	-0.408985	0.012079	27.7999	-0.408019	-173871	-6.947200E-8	NaN
403	1.000000	0.650414	7.36901e+06	-56939.1	1005.82	-29737.9	0.000000	0.000000	6.650972	-0.057375	NaN	0.000000	0.001606	0.001683	28.0813	0.049086	0.002151	22.8174	-143.218	-164.29	-0.100198	0.649118	-0.399710	-0.401006	-0.057375	22.8174	-0.397824	-124437	4.610773E-7	NaN
403	1.000000	0.658417	7.36901e+06	-56939.1	1005.82	-29737.9	0.000000	0.000000	6.658975	-0.054099	NaN	0.000000	0.001616	0.001737	28.0814	0.085772	0.001925	44.5647	154.954	-167.253	0.039840	0.657122	-0.391706	-0.393001	-0.054099	44.5647	-0.390796	-98753.1	5.478211E-7	NaN
403	1.000000	0.666454	7.36901e+06	-56939.1	1005.82	-29737.9	0.000000	0.000000	6.667015	0.008594	NaN	0.000000	0.001635	0.001689	28.0812	0.091715	0.002072	44.2696	3.832517	-166.39	0.046816	0.665153	-0.383669	-0.384971	0.008594	44.2696	-0.383815	-78452	-1.095463E-7	NaN
403	1.000000	0.674440	7.36901e+06	-56939.1	1005.82	-29737.9	0.000000	0.000000	6.674997	-0.063641	NaN	0.000000	0.001631	0.001703	28.0813	0.013380	0.002118	6.317586	91.0297	-162.575	0.007280	0.673169	-0.375684	-0.376955	-0.063641	6.317586	-0.368128	-46683.7	1.363231E-6	NaN
403	1.000000	0.682488	7.36901e+06	-56939.1	1005.82	-29737.9	0.000000	0.000000	6.683049	0.017509	NaN	0.000000	0.001646	0.001704	28.0813	0.043479	0.001985	21.9073	-0.097786	-162.476	-0.010870	0.681095	-0.367635	-0.369028	0.017509	21.9073	-0.368235	-46848.7	-3.737287E-7	NaN
403	1.000000	0.690486	7.36901e+06	-56939.1	1005.82	-29737.9	0.000000	0.000000	6.691049	0.059658	NaN	0.000000	0.001656	0.001697	28.0811	0.057504	0.001926	29.8521	156.351	-167.429	0.010282	0.689158	-0.359638	-0.360965	0.059658	29.8521	-0.361136	-37005.7	-1.612137E-6	NaN
403	1.000000	0.698492	7.36901e+06	-56939.1	1005.82	-29737.9	0.000000	0.000000	6.699050	-0.050217	NaN	0.000000	0.001641	0.001648	28.0814	0.080006	0.002054	38.95	-115.767	-165.285	-0.072310	0.697206	-0.351631	-0.352918	-0.050217	38.95	-0.350665	-26100.3	1.923993E-6	NaN
403	1.000000	0.706458	7.36901e+06	-56939.1	1005.82	-29737.9	0.000000	0.000000	6.707019	0.044509	NaN	0.000000	0.001611	0.001649	28.0812	0.011079	0.001952	5.675996	3.523953	-164.839	0.049076	0.705124	-0.343666	-0.344999	0.044509	5.675996	-0.349547	-25143.8	-1.770168E-6	NaN
403	1.000000	0.714467	7.36901e+06	-56939.1	1005.82	-29737.9	0.000000	0.000000	6.715025	-0.044338	NaN	0.000000	0.001619	0.001718	28.0808	0.084599	0.001949	43.4075	-83.5305	-166.344	0.003804	0.713172	-0.335657	-0.336952	-0.044338	43.4075	-0.334891	-15381.3	2.882606E-6	NaN
403	1.000000	0.722459	7.36901e+06	-56939.1	1005.82	-29737.9	0.000000	0.000000	6.723019	0.007077	NaN	0.000000	0.001597	0.001711	28.08	0.094208	0.001980	47.5829	138.225	-161.802	0.024722	0.721159	-0.327665	-0.328965	0.007077	47.5829	-0.327776	-12102.2	-5.847837E-7	NaN
403	1.000000	0.730473	7.36901e+06	-56939.1	1005.82	-29737.9	0.000000	0.000000	6.731033	-0.006107	NaN	0.000000	0.001615	0.001694	28.0799	0.057612	0.001939	29.7102	-161.899	-161.575	-0.070730	0.729106	-0.319651	-0.321018	-0.006107	29.7102	-0.319497	-9145.94	6.677573E-7	NaN
403	1.000000	0.738466	7.36901e+06	-56939.1	1005.82	-29737.9	0.000000	0.000000	6.739027	0.012331	NaN	0.000000	0.001629	0.001674	28.0802	0.033016	0.002074	15.9162	126.049	-164.077	0.008014	0.737161	-0.311657	-0.312963	0.012331	15.9162	-0.312238	-7147.62	-1.725163E-6	NaN
403	1.000000	0.746460	7.36901e+06	-56939.1	1005.82	-29737.9	0.000000	0.000000	6.747019	-0.023450	NaN	0.000000	0.001655	0.001668	28.0801	0.139848	0.002009	69.6018	153.813	-168.283	0.051044	0.745179	-0.303664	-0.304945	-0.023450	69.6018	-0.303411	-5288.87	4.433852E-6	NaN
403	1.000000	0.754479	7.36901e+06	-56939.1	1005.82	-29737.9	0.000000	0.000000	6.755039	0.011561	NaN	0.000000	0.001625	0.001706	28.0803	0.058113	0.001990	29.199	-46.3365	-166.139	-0.039391	0.753190	-0.295645	-0.296933	0.011561	29.199	-0.295942	-4094	-2.823974E-6	NaN
403	1.000000	0.762495	7.36901e+06	-56939.1	1005.82	-29737.9	0.000000	0.000000	6.763054	-0.007748	NaN	0.000000	0.001640	0.001668	28.08	0.025655	0.001862	13.7767	-136.369	-167.238	-0.119850	0.761169	-0.287629	-0.288955	-0.007748	13.7767	-0.287207	-3029.86	2.557144E-6	NaN
403	1.000000	0.770460	7.36901e+06	-56939.1	1005.82	-29737.9	0.000000	0.000000	6.771021	0.031966	NaN	0.000000	0.001631	0.001676	28.0801	0.072623	0.001987	36.556	-55.5606	-169.506	-0.022814	0.769207	-0.279664	-0.280917	0.031966	36.556	-0.280320	-2386.67	-1.339369E-5	NaN
403	1.000000	0.778498	7.36901e+06	-56939.1	1005.82	-29737.9	0.000000	0.000000	6.779055	-0.068310	NaN	0.000000	0.001654	0.001717	28.0805	0.068646	0.002023	33.9369	126.741	-161.838	-0.081403	0.777176	-0.271626	-0.272948	-0.068310	33.9369	-0.270116	-1672.28	4.084826E-5	NaN
403	1.000000	0.786489	7.36901e+06	-56939.1	1005.82	-29737.9	0.000000	0.000000	6.787050	0.025440	NaN	0.000000	0.001643	0.001692	28.08	0.004668	0.002227	2.096413	10.7808	-164.474	0.087561	0.785237	-0.263635	-0.264887	0.025440	2.096413	-0.272736	-1832.7	-1.388128E-5	NaN
403	1.000000	0.794484	7.36901e+06	-56939.1	1005.82	-29737.9	0.000000	0.000000	6.795046	0.029617	NaN	0.000000	0.001672	0.001666	28.0801	0.096127	0.001910	50.3288	-57.5257	-165.469	-0.013563	0.793221	-0.255639	-0.256903	0.029617	50.3288	-0.256081	-1020.34	-2.902702E-5	NaN
403	1.000000	0.802495	7.36901e+06	-56939.1	1005.82	-29737.9	0.000000	0.000000	6.803056	0.019780	NaN	0.000000	0.001676	0.001712	28.0799	0.094159	0.001978	47.6049	45.9811	-166.615	0.001340	0.801226	-0.247629	-0.248898	0.019780	47.6049	-0.247941	-763.988	-2.588994E-5	NaN
403	1.000000	0.810489	7.36901e+06	-56939.1	1005.82	-29737.9	0.000000	0.000000	6.811050	0.020848	NaN	0.000000	0.001659	0.001715	28.0801	0.014542	0.001999	7.272923	43.7875	-168.32	-0.006616	0.809232	-0.239635	-0.240892	0.020848	7.272923	-0.241785	-612.916	-3.401416E-5	NaN
403	1.000000	0.818549	7.36901e+06	-56939.1	1005.82	-29737.9	0.000000	0.000000	6.819110	0.032375	NaN	0.000000	0.001688	0.001679	28.0801	0.089255	0.001860	47.9954	-167.184	-165.831	0.074712	0.817242	-0.231575	-0.232881	0.032375	47.9954	-0.232081	-431.855	-7.496824E-5	NaN
403	1.000000	0.826521	7.36901e+06	-56939.1	1005.82	-29737.9	0.000000	0.000000	6.827082	0.020432	NaN	0.000000	0.001693	0.001702	28.08	0.073490	0.001930	38.087	-113.882	-163.238	0.007305	0.825189	-0.223602	-0.224934	0.020432	38.087	-0.224005	-321.75	-6.350243E-5	NaN
403	1.000000	0.834512	7.36901e+06	-56939.1	1005.82	-29737.9	0.000000	0.000000	6.835072	-0.004847	NaN	0.000000	0.001706	0.001686	28.0804	0.060421	0.002084	28.9977	170.282	-161.145	-0.067752	0.833216	-0.215612	-0.216908	-0.004847	28.9977	-0.215486	-235.144	2.061417E-5	NaN
403	1.000000	0.842525	7.36901e+06	-56939.1	1005.82	-29737.9	0.000000	0.000000	6.843084	-0.014233	NaN	0.000000	0.001649	0.001687	28.0801	0.090773	0.001988	45.6619	13.5639	-168.568	-0.004253	0.841209	-0.207599	-0.208914	-0.014233	45.6619	-0.207365	-173.809	8.189024E-5	NaN
403	1.000000	0.850561	7.36901e+06	-56939.1	1005.82	-29737.9	0.000000	0.000000	6.851122	0.024795	NaN	0.000000	0.001629	0.001719	28.0806	0.124746	0.001840	67.7854	145.517	-165.857	-0.004115	0.849168	-0.199563	-0.200955	0.024795	67.7854	-0.199837	-130.924	-0.000189	NaN
403	1.000000	0.858547	7.36901e+06	-56939.1	1005.82	-29737.9	0.000000	0.000000	6.859107	-0.010507	NaN	0.000000	0.001636	0.001718	28.0814	0.056779	0.002090	27.1664	-128.782	-165.523	0.051373	0.857208	-0.191577	-0.192916	-0.010507	27.1664	-0.191287	-94.5144	0.000111	NaN
403	1.000000	0.866534	7.36901e+06	-56939.1	1005.82	-29737.9	0.000000	0.000000	6.867093	-0.022638	NaN	0.000000	0.001603	0.001715	28.0816	0.032019	0.002224	14.3948	77.2859	-164.247	-0.068115	0.865210	-0.183590	-0.184914	-0.022638	14.3948	-0.182410	-67.0466	0.000338	NaN
403	1.000000	0.874530	7.36901e+06	-56939.1	1005.82	-29737.9	0.000000	0.000000	6.875091	0.013703	NaN	0.000000	0.001570	0.001723	28.0817	0.133829	0.001973	67.8307	96.8064	-166.734	0.013048	0.873273	-0.175593	-0.176850	0.013703	67.8307	-0.175745	-51.6143	-0.000265	NaN
403	1.000000	0.882512	7.36901e+06	-56939.1	1005.82	-29737.9	0.000000	0.000000	6.883073	0.019679	NaN	0.000000	0.001576	0.001715	28.0813	0.148095	0.001836	80.6464	86.3036	-163.311	-0.009758	0.881176	-0.167612	-0.168948	0.019679	80.6464	-0.167795	-37.603	-0.000523	NaN
403	1.000000	0.890540	7.36901e+06	-56939.1	1005.82	-29737.9	0.000000	0.000000	6.891103	0.074433	NaN	0.000000	0.001596	0.001710	28.0814	0.060609	0.001933	31.3623	156.068	-165.17	0.061338	0.889183	-0.159584	-0.160940	0.074433	31.3623	-0.161364	-28.9858	-0.002568	NaN
403	1.000000	0.898585	7.36901e+06	-56939.1	1005.82	-29737.9	0.000000	0.000000	6.899142	-0.062384	NaN	0.000000	0.001565	0.001715	28.0815	0.107051	0.001912	55.9899	32.7133	-165.093	-0.036112	0.897208	-0.151539	-0.152916	-0.062384	55.9899	-0.150704	-18.6562	0.003344	NaN
403	1.000000	0.906525	7.36901e+06	-56939.1	1005.82	-29737.9	0.000000	0.000000	6.907085	0.009503	NaN	0.000000	0.001578	0.001708	28.0816	0.108777	0.002066	52.6543	-13.1016	-164.867	0.032583	0.905253	-0.143599	-0.144871	0.009503	52.6543	-0.143734	-13.8901	-0.000684	NaN
403	1.000000	0.914553	7.36901e+06	-56939.1	1005.82	-29737.9	0.000000	0.000000	6.915111	-0.061233	NaN	0.000000	0.001576	0.001715	28.0818	0.049447	0.001997	24.7653	109.373	-164.367	-0.025674	0.913237	-0.135571	-0.136886	-0.061233	24.7653	-0.133716	-8.989384	0.006812	NaN
403	1.000000	0.922573	7.36901e+06	-56939.1	1005.82	-29737.9	0.000000	0.000000	6.923132	-0.027035	NaN	0.000000	0.001565	0.001745	28.0815	0.080551	0.002013	40.0221	-132.812	-161.572	-0.088730	0.921272	-0.127550	-0.128852	-0.027035	40.0221	-0.127044	-6.672343	0.004052	NaN
403	1.000000	0.930557	7.36901e+06	-56939.1	1005.82	-29737.9	0.000000	0.000000	6.931119	0.050153	NaN	0.000000	0.001550	0.001660	28.0815	0.061771	0.002005	30.8156	-33.0603	-164.184	0.104425	0.929267	-0.119567	-0.120857	0.050153	30.8156	-0.120787	-5.011243	-0.010008	NaN
403	1.000000	0.938551	7.36901e+06	-56939.1	1005.82	-29737.9	0.000000	0.000000	6.939112	0.031458	NaN	0.000000	0.001594	0.001702	28.0814	0.085190	0.001961	43.4494	135.215	-163.086	-0.024057	0.937283	-0.111573	-0.112840	0.031458	43.4494	-0.112116	-3.328653	-0.009451	NaN
403	1.000000	0.946586	7.36901e+06	-56939.1	1005.82	-29737.9	0.000000	0.000000	6.947145	-0.021350	NaN	0.000000	0.001597	0.001717	28.0814	0.037196	0.002025	18.3697	-161.071	-166.305	0.096349	0.945224	-0.103538	-0.104900	-0.021350	18.3697	-0.102666	-2.091482	0.010208	NaN
403	1.000000	0.954579	7.36901e+06	-56939.1	1005.82	-29737.9	0.000000	0.000000	6.955138	-0.041501	NaN	0.000000	0.001593	0.001723	28.0815	0.077334	0.002093	36.9529	160.581	-164.512	-0.058169	0.953185	-0.095545	-0.096939	-0.041501	36.9529	-0.094702	-1.388750	0.029884	NaN
403	1.000000	0.962562	7.36901e+06	-56939.1	1005.82	-29737.9	0.000000	0.000000	6.963124	0.043266	NaN	0.000000	0.001597	0.001706	28.0814	0.142771	0.001962	72.7823	-128.956	-167.101	-0.001689	0.961273	-0.087561	-0.088851	0.043266	72.7823	-0.088007	-0.970009	-0.044604	NaN
403	1.000000	0.970558	7.36901e+06	-56939.1	1005.82	-29737.9	0.000000	0.000000	6.971119	0.009971	NaN	0.000000	0.001575	0.001682	28.0816	0.058529	0.001881	31.1126	104.29	-163.841	-0.059490	0.969244	-0.079566	-0.080880	0.009971	31.1126	-0.079806	-0.612109	-0.016290	NaN
403	1.000000	0.978586	7.36901e+06	-56939.1	1005.82	-29737.9	0.000000	0.000000	6.979151	0.132584	NaN	0.000000	0.001573	0.001667	28.0817	0.211557	0.001949	108.55	18.0602	-165.379	0.147679	0.977284	-0.071538	-0.072840	0.132584	108.55	-0.072454	-0.396338	-0.334524	NaN
403	1.000000	0.986561	7.36901e+06	-56939.1	1005.82	-29737.9	0.000000	0.000000	6.987135	0.357159	NaN	0.000000	0.001612	0.001666	28.0815	0.638135	0.001934	330.015	25.9023	-165.934	0.301951	0.985300	-0.063563	-0.064824	0.357159	330.015	-0.064375	-0.239441	-1.491638	NaN
403	1.000000	0.994517	7.36901e+06	-56939.1	1005.82	-29737.9	0.000000	0.000000	6.995233	3.779476	NaN	0.000000	0.001608	0.001711	28.0803	2.203211	0.002041	1079.63	11.8278	-170.149	2.833225	0.993258	-0.055606	-0.056866	3.779476	1079.63	-0.058232	-0.160137	-23.6016	NaN
403	1.000000	1.002437	7.36901e+06	-56939.1	1005.82	-29737.9	0.000000	0.000000	7.003400	9.806620	NaN	0.000000	0.001585	0.001704	28.0805	2.917177	0.001980	1473.33	12.6273	-171.962	8.860355	1.001253	-0.047687	-0.048870	9.806620	1473.33	-0.052679	-0.109856	-89.2682	NaN
403	2.000000	1.005097	7.36901e+06	-56939.1	1005.82	-29737.9	0.000000	0.000000	7.006120	11.2511	NaN	0.000000	0.001595	0.001680	28.0805	3.224205	0.001928	1672.24	6.650579	-169.66	11.1315	1.004797	-0.045026	-0.045326	11.2511	1672.24	-0.050072	-0.091711	-122.679	NaN
403	2.000000	1.007061	7.36901e+06	-56939.1	1005.82	-29737.9	0.000000	0.000000	7.008154	12.9412	NaN	0.000000	0.001614	0.001691	28.0803	3.418163	0.001930	1771.03	8.566069	-169.642	12.7417	1.006767	-0.043062	-0.043357	12.9412	1771.03	-0.048543	-0.082425	-157.006	NaN
403	2.000000	1.009072	7.36901e+06	-56939.1	1005.82	-29737.9	0.000000	0.000000	7.010219	14.2676	NaN	0.000000	0.001613	0.001673	28.0805	3.691832	0.001939	1903.55	7.580962	-168.927	14.1887	1.008735	-0.041052	-0.041388	14.2676	1903.55	-0.046673	-0.072297	-197.347	NaN
403	2.000000	1.011009	7.36901e+06	-56939.1	1005.82	-29737.9	0.000000	0.000000	7.012211	15.6136	NaN	0.000000	0.001598	0.001709	28.0802	3.832266	0.001938	1977.75	7.587255	-168.277	15.3203	1.010694	-0.039115	-0.039430	15.6136	1977.75	-0.045036	-0.064431	-242.333	NaN
403	2.000000	1.012996	7.36901e+06	-56939.1	1005.82	-29737.9	0.000000	0.000000	7.014249	16.8288	NaN	0.000000	0.001602	0.001693	28.0809	4.060083	0.002061	1970.41	4.554108	-166.234	16.767	1.012723	-0.037127	-0.037401	16.8288	1970.41	-0.043533	-0.057960	-290.354	NaN
403	2.000000	1.015028	7.36901e+06	-56939.1	1005.82	-29737.9	0.000000	0.000000	7.016337	18.1874	NaN	0.000000	0.001639	0.001659	28.0805	4.275134	0.002010	2127.01	6.788374	-168.148	18.1447	1.014667	-0.035095	-0.035457	18.1874	2127.01	-0.041508	-0.050265	-361.829	NaN
403	2.000000	1.017002	7.36901e+06	-56939.1	1005.82	-29737.9	0.000000	0.000000	7.018360	19.3999	NaN	0.000000	0.001619	0.001639	28.0804	4.230176	0.001922	2201.43	3.749952	-166.795	19.1852	1.016672	-0.033122	-0.033452	19.3999	2201.43	-0.039731	-0.044380	-437.131	NaN
403	2.000000	1.018997	7.36901e+06	-56939.1	1005.82	-29737.9	0.000000	0.000000	7.020403	20.5584	NaN	0.000000	0.001627	0.001686	28.0805	4.607250	0.001987	2318.57	7.011132	-168.459	20.5026	1.018677	-0.031126	-0.031447	20.5584	2318.57	-0.037776	-0.038739	-530.695	NaN
403	2.000000	1.021028	7.36901e+06	-56939.1	1005.82	-29737.9	0.000000	0.000000	7.022330	18.0449	NaN	0.000000	0.001593	0.001690	28.0802	4.397708	0.002048	2147.75	7.454667	-164.058	19.6455	1.020699	-0.029096	-0.029425	18.0449	2147.75	-0.035397	-0.032901	-548.469	NaN
403	2.000000	1.023109	7.36901e+06	-56939.1	1005.82	-29737.9	0.000000	0.000000	7.024091	10.2653	NaN	0.000000	0.001627	0.001724	28.0807	5.418472	0.002041	2654.59	40.1369	-172.84	16.6746	1.022650	-0.027015	-0.027473	10.2653	2654.59	-0.029915	-0.022888	-448.502	NaN
403	2.000000	1.025000	7.36901e+06	-56939.1	1005.82	-29737.9	0.000000	0.000000	7.025578	0.424406	NaN	0.000000	0.001588	0.001664	28.0804	0.729538	0.002132	342.163	23.0698	-161.152	0.483165	1.024683	-0.025124	-0.025441	0.424406	342.163	-0.026054	-0.017981	-23.6025	NaN
403	2.000000	1.026948	7.36901e+06	-56939.1	1005.82	-29737.9	0.000000	0.000000	7.027526	0.427972	NaN	0.000000	0.001639	0.001690	28.0803	0.724144	0.002022	358.168	27.3899	-164.599	0.451689	1.026686	-0.023175	-0.023437	0.427972	358.168	-0.024072	-0.015958	-26.8178	NaN
403	2.000000	1.028951	7.36901e+06	-56939.1	1005.82	-29737.9	0.000000	0.000000	7.029529	0.430827	NaN	0.000000	0.001650	0.001667	28.0805	0.722635	0.001984	364.144	30.7283	-166.347	0.438921	1.028662	-0.021173	-0.021461	0.430827	364.144	-0.022060	-0.014171	-30.4021	NaN
403	2.000000	1.030959	7.36901e+06	-56939.1	1005.82	-29737.9	0.000000	0.000000	7.031532	0.330817	NaN	0.000000	0.001611	0.001723	28.0802	0.666959	0.002018	330.543	32.2243	-165.655	0.402232	1.030739	-0.019165	-0.019384	0.330817	330.543	-0.019916	-0.012499	-26.4675	NaN
403	2.000000	1.032968	7.36901e+06	-56939.1	1005.82	-29737.9	0.000000	0.000000	7.033543	0.358852	NaN	0.000000	0.001600	0.001701	28.0804	0.597439	0.001899	314.674	26.2337	-165.822	0.296086	1.032706	-0.017155	-0.017418	0.358852	314.674	-0.018011	-0.011170	-32.1272	NaN
403	2.000000	1.034972	7.36901e+06	-56939.1	1005.82	-29737.9	0.000000	0.000000	7.035547	0.367076	NaN	0.000000	0.001618	0.001728	28.0816	0.696280	0.001995	349.095	33.7529	-167.708	0.342635	1.034643	-0.015151	-0.015481	0.367076	349.095	-0.015940	-0.009846	-37.2814	NaN
403	2.000000	1.036961	7.36901e+06	-56939.1	1005.82	-29737.9	0.000000	0.000000	7.037542	0.520193	NaN	0.000000	0.001584	0.001709	28.0818	0.976601	0.002071	471.584	27.673	-170.012	0.547580	1.036655	-0.013163	-0.013469	0.520193	471.584	-0.013990	-0.008678	-59.9466	NaN
403	2.000000	1.038964	7.36901e+06	-56939.1	1005.82	-29737.9	0.000000	0.000000	7.039552	0.680458	NaN	0.000000	0.001539	0.001694	28.0819	1.063132	0.001953	544.415	30.6463	-167.609	0.702015	1.038632	-0.011160	-0.011492	0.680458	544.415	-0.012097	-0.007584	-89.7197	NaN
403	2.000000	1.040945	7.36901e+06	-56939.1	1005.82	-29737.9	0.000000	0.000000	7.041540	0.841039	NaN	0.000000	0.001578	0.001674	28.0818	1.193427	0.001975	604.278	22.0837	-164.056	0.782560	1.040625	-0.009179	-0.009498	0.841039	604.278	-0.010223	-0.006515	-129.101	NaN
403	2.000000	1.042958	7.36901e+06	-56939.1	1005.82	-29737.9	0.000000	0.000000	7.043555	0.911968	NaN	0.000000	0.001571	0.001657	28.0817	1.339915	0.002033	658.923	30.4854	-168.112	0.943140	1.042664	-0.007166	-0.007460	0.911968	658.923	-0.008204	-0.005351	-170.428	NaN
403	2.000000	1.044929	7.36901e+06	-56939.1	1005.82	-29737.9	0.000000	0.000000	7.045530	0.992657	NaN	0.000000	0.001571	0.001662	28.0816	1.541528	0.001869	824.872	20.4164	-166.97	1.066470	1.044662	-0.005195	-0.005462	0.992657	824.872	-0.006097	-0.004096	-242.367	NaN
403	2.000000	1.046950	7.36901e+06	-56939.1	1005.82	-29737.9	0.000000	0.000000	7.047563	1.284210	NaN	0.000000	0.001547	0.001660	28.0821	1.825406	0.001995	915.02	19.4592	-165.752	1.187585	1.046661	-0.003174	-0.003463	1.284210	915.02	-0.004226	-0.002925	-439.042	NaN
403	2.000000	1.048945	7.36901e+06	-56939.1	1005.82	-29737.9	0.000000	0.000000	7.049561	1.354864	NaN	0.000000	0.001525	0.001671	28.0818	1.961689	0.001855	1057.56	16.7389	-163.434	1.415085	1.048661	-0.001178	-0.001463	1.354864	1057.56	-0.002139	-0.001536	-882.289	NaN
403	2.000000	1.050947	7.36901e+06	-56939.1	1005.82	-29737.9	0.000000	0.000000	7.051566	1.436245	NaN	0.000000	0.001548	0.001666	28.0817	2.091353	0.001972	1060.58	25.4015	-168.514	1.446948	1.050642	0.000823	0.000518	1.436245	1060.58	-0.000193	-0.000143	-10015.3	NaN
403	2.000000	1.052939	7.36901e+06	-56939.1	1005.82	-29737.9	0.000000	0.000000	7.053561	1.516861	NaN	0.000000	0.001576	0.001685	28.082	2.159141	0.002122	1017.49	22.6431	-164.977	1.541171	1.052623	0.002815	0.002499	1.516861	1017.49	0.001697	0.001311	1156.87	25672.7
403	2.000000	1.054938	7.36901e+06	-56939.1	1005.82	-29737.9	0.000000	0.000000	7.055559	1.487316	NaN	0.000000	0.001528	0.001692	28.0815	2.329452	0.002003	1163.02	26.7435	-171.403	1.539018	1.054628	0.004815	0.004504	1.487316	1163.02	0.003855	0.003113	477.84	19045.8
403	2.000000	1.056975	7.36901e+06	-56939.1	1005.82	-29737.9	0.000000	0.000000	7.057603	1.638886	NaN	0.000000	0.001530	0.001661	28.0816	2.467412	0.002033	1213.79	20.9901	-168.089	1.689644	1.056691	0.006852	0.006567	1.638886	1213.79	0.005839	0.004912	333.64	15822.7
403	2.000000	1.058950	7.36901e+06	-56939.1	1005.82	-29737.9	0.000000	0.000000	7.059587	1.884552	NaN	0.000000	0.001566	0.001673	28.0816	2.651047	0.002061	1286.31	21.1185	-167.574	1.859633	1.058608	0.008826	0.008484	1.884552	1286.31	0.007727	0.006763	278.648	14290.3
403	2.000000	1.060932	7.36901e+06	-56939.1	1005.82	-29737.9	0.000000	0.000000	7.061569	1.884128	NaN	0.000000	0.001617	0.001668	28.0814	2.646164	0.001869	1416.16	19.4386	-165.521	2.075777	1.060644	0.010808	0.010521	1.884128	1416.16	0.009810	0.008971	210.02	13660.3
403	2.000000	1.062934	7.36901e+06	-56939.1	1005.82	-29737.9	0.000000	0.000000	7.063578	2.038536	NaN	0.000000	0.001613	0.001672	28.082	3.010736	0.001874	1606.71	17.1906	-165.234	2.043284	1.062647	0.012810	0.012523	2.038536	1606.71	0.011859	0.011321	180.064	13796.4
403	2.000000	1.064928	7.36901e+06	-56939.1	1005.82	-29737.9	0.000000	0.000000	7.065592	2.533422	NaN	0.000000	0.001587	0.001667	28.0816	3.374379	0.001852	1822.41	22.874	-175.083	2.678539	1.064581	0.014804	0.014457	2.533422	1822.41	0.013762	0.013669	185.338	14241.3
403	2.000000	1.066968	7.36901e+06	-56939.1	1005.82	-29737.9	0.000000	0.000000	7.067632	2.519124	NaN	0.000000	0.001564	0.001676	28.0816	3.475552	0.001935	1796.59	21.6449	-170.576	2.656378	1.066643	0.016844	0.016519	2.519124	1796.59	0.015793	0.016357	154.007	12834.2
403	2.000000	1.068923	7.36901e+06	-56939.1	1005.82	-29737.9	0.000000	0.000000	7.069606	2.997942	NaN	0.000000	0.001569	0.001715	28.0803	3.909393	0.001944	2011.48	15.0484	-164.115	2.934136	1.068619	0.018799	0.018495	2.997942	2011.48	0.017681	0.019029	157.55	13322.5
403	2.000000	1.070919	7.36901e+06	-56939.1	1005.82	-29737.9	0.000000	0.000000	7.071622	3.478708	NaN	0.000000	0.001604	0.001692	28.0805	4.451334	0.001882	2365.35	19.2618	-169.151	3.424921	1.070575	0.020795	0.020451	3.478708	2365.35	0.019692	0.022061	157.689	14549.9
403	2.000000	1.072909	7.36901e+06	-56939.1	1005.82	-29737.9	0.000000	0.000000	7.073615	3.555657	NaN	0.000000	0.001561	0.001675	28.0806	4.703820	0.001899	2477.11	19.7853	-170.366	3.594371	1.072611	0.022785	0.022488	3.555657	2477.11	0.021709	0.025299	140.547	14228.9
403	2.000000	1.074926	7.36901e+06	-56939.1	1005.82	-29737.9	0.000000	0.000000	7.075645	3.870240	NaN	0.000000	0.001568	0.001698	28.0804	5.205224	0.001804	2885.1	18.6151	-170.639	3.865131	1.074626	0.024802	0.024503	3.870240	2885.1	0.023796	0.028862	134.093	15515.6
403	2.000000	1.076931	7.36901e+06	-56939.1	1005.82	-29737.9	0.000000	0.000000	7.077656	4.031217	NaN	0.000000	0.001598	0.001668	28.0805	5.721212	0.002013	2842.33	19.6168	-170.513	4.050610	1.076631	0.026807	0.026507	4.031217	2842.33	0.025743	0.032381	124.492	14431.1
403	2.000000	1.078923	7.36901e+06	-56939.1	1005.82	-29737.9	0.000000	0.000000	7.079666	4.464862	NaN	0.000000	0.001595	0.001647	28.0811	6.332620	0.002100	3016.18	23.6017	-173.755	4.406318	1.078591	0.028799	0.028468	4.464862	3016.18	0.027689	0.036089	123.718	14505.8
403	2.000000	1.080937	7.36901e+06	-56939.1	1005.82	-29737.9	0.000000	0.000000	7.081728	5.618232	NaN	0.000000	0.001596	0.001692	28.0807	7.390488	0.001963	3764.12	16.4577	-167.899	5.504551	1.080575	0.030813	0.030451	5.618232	3764.12	0.029694	0.040111	140.065	17171.3
403	2.000000	1.082907	7.36901e+06	-56939.1	1005.82	-29737.9	0.000000	0.000000	7.083743	6.707942	NaN	0.000000	0.001619	0.001675	28.0806	8.828069	0.001969	4483.57	17.6467	-173.235	6.742753	1.082577	0.032783	0.032454	6.707942	4483.57	0.031661	0.044257	151.567	19471.8
403	2.000000	1.084896	7.36901e+06	-56939.1	1005.82	-29737.9	0.000000	0.000000	7.085820	8.850566	NaN	0.000000	0.001621	0.001670	28.0804	10.6647	0.001825	5843.3	15.383	-174.141	8.384558	1.084664	0.034772	0.034540	8.850566	5843.3	0.033636	0.048618	182.041	24212
403	2.000000	1.086881	7.36901e+06	-56939.1	1005.82	-29737.9	0.000000	0.000000	7.087961	12.6405	NaN	0.000000	0.001619	0.001659	28.0804	13.0082	0.001747	7445.95	7.485342	-170.186	11.5981	1.086576	0.036757	0.036452	12.6405	7445.95	0.035484	0.052878	239.048	29583.8
403	2.000000	1.088922	7.36901e+06	-56939.1	1005.82	-29737.9	0.000000	0.000000	7.090221	17.9805	NaN	0.000000	0.001589	0.001655	28.0806	15.8542	0.001772	8946.65	9.884561	-175.273	17.4504	1.088551	0.038798	0.038428	17.9805	8946.65	0.037291	0.057214	314.267	34172.9
403	2.000000	1.090878	7.36901e+06	-56939.1	1005.82	-29737.9	0.000000	0.000000	7.092462	24.8864	NaN	0.000000	0.001617	0.001638	28.0804	17.8804	0.001746	10241.4	8.010406	-175.912	23.2462	1.090568	0.040754	0.040444	24.8864	10241.4	0.038932	0.061296	406.001	37793.3
403	2.000000	1.092914	7.36901e+06	-56939.1	1005.82	-29737.9	0.000000	0.000000	7.094857	33.6123	NaN	0.000000	0.001587	0.001628	28.0804	20.9504	0.001786	11729.9	10.3345	-179.534	32.9536	1.092536	0.042790	0.042412	33.6123	11729.9	0.040641	0.065695	511.641	41812
403	2.000000	1.094901	7.36901e+06	-56939.1	1005.82	-29737.9	0.000000	0.000000	7.097197	42.1968	NaN	0.000000	0.001610	0.001699	28.0805	21.7795	0.001709	12744.2	6.332431	-177.706	42.0702	1.094573	0.044777	0.044449	42.1968	12744.2	0.042294	0.070090	602.037	43980.4
403	2.000000	1.096885	7.36901e+06	-56939.1	1005.82	-29737.9	0.000000	0.000000	7.099593	52.221	NaN	0.000000	0.001620	0.001665	28.0807	24.2047	0.001749	13839.3	7.202553	-178.909	50.3323	1.096568	0.046761	0.046444	52.221	13839.3	0.043931	0.074582	700.185	46299
403	2.000000	1.098904	7.36901e+06	-56939.1	1005.82	-29737.9	0.000000	0.000000	7.102035	62.4843	NaN	0.000000	0.001619	0.001649	28.0805	26.1278	0.001722	15174.9	5.490171	-177.873	61.72	1.098585	0.048781	0.048461	62.4843	15174.9	0.045692	0.079565	785.32	49151.7
403	2.000000	1.100875	7.36901e+06	-56939.1	1005.82	-29737.9	0.000000	0.000000	7.104485	74.1398	NaN	0.000000	0.001623	0.001634	28.0803	28.4709	0.001862	15293.4	9.222975	177.594	72.2473	1.100569	0.050751	0.050445	74.1398	15293.4	0.047115	0.083705	885.725	48294.9
403	2.000000	1.101331	7.36901e+06	-56939.1	1005.82	-29737.9	0.000000	0.000000	7.105136	78.8765	NaN	0.000000	0.001611	0.001638	28.0806	27.9769	0.001805	15498.2	4.342708	2.813622	74.9036	1.101028	0.051207	0.050904	78.8765	15498.2	0.047390	0.084516	933.271	48706.2