File: remote_trans/data/nanoindenter/0828-1/data/Data_2025-08-06,11h17m57s/2025-07-22_16-23-58_1_546.txt
2025-07-22, 16:23:58, 1
Index	Phase	Displacement	Time	Pos X	Pos Y	Pos Z	Rot A	Rot B	Piezo Z	Force A	Force B	Gripper	Voltage A	Voltage B	Temperature	Amplitude force	Amplitude pos	Stiffness	Phase shift	Phase excitation	Force A raw	Displacement raw	HMax	HMax raw	Real Force	Real Stiffness	Contact Depth	Area	Hardness	Reduced Mod.
[#]	[#]	[um]	[s]	[um]	[um]	[um]	[m°]	[m°]	[um]	[uN]	[uN]	[V]	[V]	[V]	[°C]	[uN]	[um]	[N/m]	[°]	[°]	[uN]	[um]	[um]	[um]	[uN]	[N/m]	[um]	[um^2]	[MPa]	[MPa]
546	1.000000	0.002441	7.37039e+06	-49789.1	1005.82	-29757.8	0.000000	0.000000	6.002801	0.024016	NaN	0.000000	0.001612	0.001707	28.0808	0.091910	0.001016	90.4197	-42.1914	-164.522	0.017672	0.001169	-1.056772	-1.058044	0.024016	90.4197	-1.056971	-1.324690E+14	-1.812970E-16	NaN
546	1.000000	0.010404	7.37039e+06	-49789.1	1005.82	-29757.8	0.000000	0.000000	6.010760	-0.070930	NaN	0.000000	0.001618	0.001722	28.0808	0.120971	0.000922	131.224	-52.0104	-166.194	-0.026282	0.009035	-1.048809	-1.050177	-0.070930	131.224	-1.048403	-1.016132E+14	6.980394E-16	NaN
546	1.000000	0.018369	7.37039e+06	-49789.1	1005.82	-29757.8	0.000000	0.000000	6.018732	0.090017	NaN	0.000000	0.001592	0.001740	28.0805	0.135057	0.001665	81.0965	139.763	-161.775	0.098757	0.017083	-1.040844	-1.042130	0.090017	81.0965	-1.041676	-8.251006E+13	-1.090982E-15	NaN
546	1.000000	0.026416	7.37039e+06	-49789.1	1005.82	-29757.8	0.000000	0.000000	6.026775	-0.024104	NaN	0.000000	0.001618	0.001754	28.081	0.102181	0.001899	53.8151	-111.193	-161.467	0.004075	0.025076	-1.032796	-1.034136	-0.024104	53.8151	-1.032460	-6.202606E+13	3.886083E-16	NaN
546	1.000000	0.034367	7.37039e+06	-49789.1	1005.82	-29757.8	0.000000	0.000000	6.034723	-0.091868	NaN	0.000000	0.001633	0.001742	28.0806	0.087154	0.001932	45.1218	-49.9397	-167.779	-0.044844	0.033042	-1.024846	-1.026171	-0.091868	45.1218	-1.023319	-4.673070E+13	1.965903E-15	NaN
546	1.000000	0.042419	7.37039e+06	-49789.1	1005.82	-29757.8	0.000000	0.000000	6.042779	0.006670	NaN	0.000000	0.001626	0.001755	28.0809	0.073760	0.001881	39.2062	111.094	-168.069	0.024649	0.041081	-1.016793	-1.018132	0.006670	39.2062	-1.016921	-3.832844E+13	-1.740139E-16	NaN
546	1.000000	0.050377	7.37039e+06	-49789.1	1005.82	-29757.8	0.000000	0.000000	6.050737	0.012557	NaN	0.000000	0.001609	0.001757	28.0807	0.109713	0.001944	56.4455	-160.051	-164.222	-0.017759	0.049059	-1.008836	-1.010154	0.012557	56.4455	-1.009003	-2.998870E+13	-4.187293E-16	NaN
546	1.000000	0.058409	7.37039e+06	-49789.1	1005.82	-29757.8	0.000000	0.000000	6.058768	-0.003648	NaN	0.000000	0.001651	0.001738	28.0811	0.108749	0.001947	55.8545	156.379	-164.743	0.002158	0.057059	-1.000804	-1.002154	-0.003648	55.8545	-1.000755	-2.322376E+13	1.570842E-16	NaN
546	1.000000	0.066390	7.37039e+06	-49789.1	1005.82	-29757.8	0.000000	0.000000	6.066752	0.070147	NaN	0.000000	0.001635	0.001771	28.0802	0.092221	0.002094	44.0452	167.472	-165.557	0.067155	0.065078	-0.992823	-0.994135	0.070147	44.0452	-0.994017	-1.884575E+13	-3.722168E-15	NaN
546	1.000000	0.074381	7.37039e+06	-49789.1	1005.82	-29757.8	0.000000	0.000000	6.074741	0.020074	NaN	0.000000	0.001608	0.001714	28.0805	0.095791	0.002044	46.8675	-155.941	-165.81	-0.037885	0.073141	-0.984832	-0.986071	0.020074	46.8675	-0.985153	-1.431622E+13	-1.402184E-15	NaN
546	1.000000	0.082414	7.37039e+06	-49789.1	1005.82	-29757.8	0.000000	0.000000	6.082771	-0.037824	NaN	0.000000	0.001609	0.001695	28.0806	0.088549	0.001890	46.8541	127.644	-165.304	-0.106818	0.081060	-0.976799	-0.978153	-0.037824	46.8541	-0.976194	-1.084238E+13	3.488577E-15	NaN
546	1.000000	0.090430	7.37039e+06	-49789.1	1005.82	-29757.8	0.000000	0.000000	6.090787	-0.049416	NaN	0.000000	0.001603	0.001774	28.0806	0.187075	0.002046	91.4221	-142.221	-162.669	-0.014461	0.089061	-0.968783	-0.970152	-0.049416	91.4221	-0.968378	-8.507395E+12	5.808646E-15	NaN
546	1.000000	0.098388	7.37039e+06	-49789.1	1005.82	-29757.8	0.000000	0.000000	6.098747	-0.007962	NaN	0.000000	0.001581	0.001770	28.0807	0.036497	0.001920	19.0059	84.304	-167.799	-0.017434	0.097104	-0.960824	-0.962109	-0.007962	19.0059	-0.960510	-6.664190E+12	1.194698E-15	NaN
546	1.000000	0.106414	7.37039e+06	-49789.1	1005.82	-29757.8	0.000000	0.000000	6.106772	-0.031059	NaN	0.000000	0.001643	0.001750	28.0816	0.100405	0.002030	49.4541	117.686	-164.686	-0.061425	0.105132	-0.952798	-0.954080	-0.031059	49.4541	-0.952327	-5.169094E+12	6.008651E-15	NaN
546	1.000000	0.114422	7.37039e+06	-49789.1	1005.82	-29757.8	0.000000	0.000000	6.114782	0.008338	NaN	0.000000	0.001652	0.001747	28.0816	0.016954	0.001998	8.485262	123.771	-160.432	-0.061976	0.113120	-0.944790	-0.946093	0.008338	8.485262	-0.945527	-4.185042E+12	-1.992253E-15	NaN
546	1.000000	0.122421	7.37039e+06	-49789.1	1005.82	-29757.8	0.000000	0.000000	6.122777	-0.076844	NaN	0.000000	0.001643	0.001735	28.0817	0.027571	0.002066	13.3427	117.793	-164.758	-0.104398	0.121123	-0.936792	-0.938089	-0.076844	13.3427	-0.932473	-2.789759E+12	2.754516E-14	NaN
546	1.000000	0.130419	7.37039e+06	-49789.1	1005.82	-29757.8	0.000000	0.000000	6.130777	-0.027848	NaN	0.000000	0.001629	0.001704	28.0817	0.019890	0.001947	10.2178	140.959	-164.098	-0.006273	0.129109	-0.928794	-0.930104	-0.027848	10.2178	-0.926750	-2.335228E+12	1.192522E-14	NaN
546	1.000000	0.138425	7.37039e+06	-49789.1	1005.82	-29757.8	0.000000	0.000000	6.138786	0.039998	NaN	0.000000	0.001597	0.001728	28.082	0.068227	0.001879	36.3117	-2.864504	-165.275	0.022656	0.137069	-0.920787	-0.922144	0.039998	36.3117	-0.921614	-1.990629E+12	-2.009319E-14	NaN
546	1.000000	0.146438	7.37039e+06	-49789.1	1005.82	-29757.8	0.000000	0.000000	6.146799	0.045475	NaN	0.000000	0.001644	0.001718	28.0818	0.065772	0.001984	33.1447	57.3952	-167.058	0.024742	0.145156	-0.912775	-0.914057	0.045475	33.1447	-0.913804	-1.561494E+12	-2.912277E-14	NaN
546	1.000000	0.154435	7.37039e+06	-49789.1	1005.82	-29757.8	0.000000	0.000000	6.154794	-0.016111	NaN	0.000000	0.001627	0.001743	28.0821	0.083543	0.001948	42.8761	80.6087	-161.901	-0.040429	0.153083	-0.904777	-0.906130	-0.016111	42.8761	-0.904495	-1.168972E+12	1.378237E-14	NaN
546	1.000000	0.162444	7.37039e+06	-49789.1	1005.82	-29757.8	0.000000	0.000000	6.162802	-0.051600	NaN	0.000000	0.001636	0.001733	28.0818	0.094747	0.002206	42.9564	-90.8848	-163.468	0.008089	0.161140	-0.896768	-0.898073	-0.051600	42.9564	-0.895867	-8.937605E+11	5.773354E-14	NaN
546	1.000000	0.170425	7.37039e+06	-49789.1	1005.82	-29757.8	0.000000	0.000000	6.170783	-0.037103	NaN	0.000000	0.001622	0.001720	28.0817	0.064765	0.002046	31.662	23.1301	-165.513	0.034112	0.169114	-0.888788	-0.890098	-0.037103	31.662	-0.887909	-6.976627E+11	5.318237E-14	NaN
546	1.000000	0.178432	7.37039e+06	-49789.1	1005.82	-29757.8	0.000000	0.000000	6.178792	0.019639	NaN	0.000000	0.001605	0.001725	28.0818	0.088388	0.001908	46.3183	-5.192517	-164.408	0.087545	0.177136	-0.880780	-0.882077	0.019639	46.3183	-0.881098	-5.643664E+11	-3.479770E-14	NaN
546	1.000000	0.186457	7.37039e+06	-49789.1	1005.82	-29757.8	0.000000	0.000000	6.186818	0.028894	NaN	0.000000	0.001647	0.001763	28.0817	0.009579	0.001928	4.968384	149.515	-162.939	0.098547	0.185141	-0.872755	-0.874072	0.028894	4.968384	-0.877117	-4.985600E+11	-5.795461E-14	NaN
546	1.000000	0.194448	7.37039e+06	-49789.1	1005.82	-29757.8	0.000000	0.000000	6.194803	-0.117384	NaN	0.000000	0.001630	0.001756	28.0824	0.038732	0.002081	18.611	-175.753	-161.645	-0.123488	0.193161	-0.864764	-0.866052	-0.117384	18.611	-0.860034	-2.928069E+11	4.008909E-13	NaN
546	1.000000	0.202444	7.37039e+06	-49789.1	1005.82	-29757.8	0.000000	0.000000	6.202808	0.095576	NaN	0.000000	0.001627	0.001726	28.0816	0.054838	0.001972	27.8076	-168.053	-162.96	0.008102	0.201146	-0.856768	-0.858067	0.095576	27.8076	-0.859346	-2.865963E+11	-3.334880E-13	NaN
546	1.000000	0.210456	7.37039e+06	-49789.1	1005.82	-29757.8	0.000000	0.000000	6.210816	0.005915	NaN	0.000000	0.001635	0.001749	28.0817	0.049458	0.001998	24.7586	-110.643	-165.407	-0.052325	0.209119	-0.848757	-0.850094	0.005915	24.7586	-0.848936	-2.071699E+11	-2.854923E-14	NaN
546	1.000000	0.218454	7.37039e+06	-49789.1	1005.82	-29757.8	0.000000	0.000000	6.218813	-0.004314	NaN	0.000000	0.001662	0.001724	28.0818	0.046117	0.002034	22.6771	-52.052	-166.774	-0.068561	0.217150	-0.840758	-0.842063	-0.004314	22.6771	-0.840616	-1.598210E+11	2.699223E-14	NaN
546	1.000000	0.226439	7.37039e+06	-49789.1	1005.82	-29757.8	0.000000	0.000000	6.226798	-0.013699	NaN	0.000000	0.001669	0.001749	28.0818	0.090848	0.002048	44.3673	55.1826	-166.18	-0.028292	0.225154	-0.832774	-0.834059	-0.013699	44.3673	-0.832542	-1.242331E+11	1.102696E-13	NaN
546	1.000000	0.234448	7.37039e+06	-49789.1	1005.82	-29757.8	0.000000	0.000000	6.234807	0.007488	NaN	0.000000	0.001657	0.001774	28.0822	0.061602	0.002051	30.0301	-80.8055	-165.541	-0.014945	0.233117	-0.824765	-0.826096	0.007488	30.0301	-0.824952	-9.802932E+10	-7.638941E-14	NaN
546	1.000000	0.242464	7.37039e+06	-49789.1	1005.82	-29757.8	0.000000	0.000000	6.242821	-0.050038	NaN	0.000000	0.001622	0.001758	28.0803	0.076857	0.001978	38.8462	-43.1552	-166.601	-0.017222	0.241169	-0.816748	-0.818044	-0.050038	38.8462	-0.815782	-7.362263E+10	6.796523E-13	NaN
546	1.000000	0.250491	7.37039e+06	-49789.1	1005.82	-29757.8	0.000000	0.000000	6.250851	0.022539	NaN	0.000000	0.001650	0.001744	28.0804	0.168526	0.002046	82.3613	-176.031	-162.344	-0.026833	0.249148	-0.808722	-0.810065	0.022539	82.3613	-0.808927	-5.943079E+10	-3.792451E-13	NaN
546	1.000000	0.258478	7.37039e+06	-49789.1	1005.82	-29757.8	0.000000	0.000000	6.258837	-0.008070	NaN	0.000000	0.001728	0.001749	28.0806	0.089768	0.001902	47.1958	-136.732	-166.176	-0.006751	0.257118	-0.800735	-0.802095	-0.008070	47.1958	-0.800607	-4.582448E+10	1.761119E-13	NaN
546	1.000000	0.266466	7.37039e+06	-49789.1	1005.82	-29757.8	0.000000	0.000000	6.266824	-0.027729	NaN	0.000000	0.001705	0.001716	28.0803	0.054770	0.002094	26.1541	164.367	-167.237	-0.004430	0.265181	-0.792747	-0.794031	-0.027729	26.1541	-0.791951	-3.496105E+10	7.931306E-13	NaN
546	1.000000	0.274462	7.37039e+06	-49789.1	1005.82	-29757.8	0.000000	0.000000	6.274820	-0.024299	NaN	0.000000	0.001709	0.001741	28.0809	0.069039	0.002047	33.7246	79.9369	-166.031	0.001743	0.273192	-0.784751	-0.786021	-0.024299	33.7246	-0.784210	-2.744347E+10	8.854155E-13	NaN
546	1.000000	0.282504	7.37039e+06	-49789.1	1005.82	-29757.8	0.000000	0.000000	6.282859	-0.100870	NaN	0.000000	0.001714	0.001717	28.0807	0.056778	0.002111	26.8914	-88.5564	-165.082	-0.038925	0.281197	-0.776709	-0.778016	-0.100870	26.8914	-0.773896	-1.987317E+10	5.075712E-12	NaN
546	1.000000	0.290487	7.37039e+06	-49789.1	1005.82	-29757.8	0.000000	0.000000	6.290848	0.048842	NaN	0.000000	0.001699	0.001735	28.0808	0.069255	0.001974	35.0913	-35.483	-166.079	0.048747	0.289206	-0.768726	-0.770007	0.048842	35.0913	-0.769770	-1.746542E+10	-2.796473E-12	NaN
546	1.000000	0.298451	7.37039e+06	-49789.1	1005.82	-29757.8	0.000000	0.000000	6.298812	0.051250	NaN	0.000000	0.001710	0.001729	28.0807	0.069007	0.002126	32.4563	-106.292	-161.882	0.047277	0.297208	-0.760762	-0.762004	0.051250	32.4563	-0.761946	-1.367021E+10	-3.749010E-12	NaN
546	1.000000	0.306492	7.37039e+06	-49789.1	1005.82	-29757.8	0.000000	0.000000	6.306851	-0.004638	NaN	0.000000	0.001744	0.001744	28.0804	0.068992	0.001887	36.5713	-47.4585	-164.358	0.058283	0.305218	-0.752721	-0.753994	-0.004638	36.5713	-0.752626	-1.020848E+10	4.543547E-13	NaN
546	1.000000	0.314501	7.37039e+06	-49789.1	1005.82	-29757.8	0.000000	0.000000	6.314862	0.052697	NaN	0.000000	0.001724	0.001739	28.0806	0.072762	0.001983	36.6865	133.103	-162.57	0.043824	0.313168	-0.744712	-0.746044	0.052697	36.6865	-0.745789	-8.239432E+9	-6.395684E-12	NaN
546	1.000000	0.322517	7.37039e+06	-49789.1	1005.82	-29757.8	0.000000	0.000000	6.322875	-0.016259	NaN	0.000000	0.001733	0.001741	28.0806	0.096655	0.001984	48.7104	128.676	-165.873	0.056055	0.321197	-0.736696	-0.738016	-0.016259	48.7104	-0.736446	-6.146629E+9	2.645226E-12	NaN
546	1.000000	0.330487	7.37039e+06	-49789.1	1005.82	-29757.8	0.000000	0.000000	6.330845	-0.035530	NaN	0.000000	0.001721	0.001726	28.0808	0.072634	0.001908	38.0588	131.31	-162.035	-0.003398	0.329226	-0.728725	-0.729987	-0.035530	38.0588	-0.728025	-4.719444E+9	7.528479E-12	NaN
546	1.000000	0.338503	7.37039e+06	-49789.1	1005.82	-29757.8	0.000000	0.000000	6.338865	0.056667	NaN	0.000000	0.001738	0.001742	28.0805	0.048746	0.002000	24.3789	-134.801	-166.39	0.046605	0.337184	-0.720710	-0.722029	0.056667	24.3789	-0.722453	-3.962100E+9	-1.430219E-11	NaN
546	1.000000	0.346540	7.37039e+06	-49789.1	1005.82	-29757.8	0.000000	0.000000	6.346898	-0.026577	NaN	0.000000	0.001701	0.001699	28.0806	0.136443	0.002218	61.5285	-140.509	-165.653	0.001680	0.345184	-0.712673	-0.714029	-0.026577	61.5285	-0.712349	-2.884674E+9	9.213178E-12	NaN
546	1.000000	0.354523	7.37039e+06	-49789.1	1005.82	-29757.8	0.000000	0.000000	6.354883	0.027770	NaN	0.000000	0.001720	0.001791	28.0807	0.011021	0.001889	5.836041	3.414669	-163.569	-0.012927	0.353151	-0.704690	-0.706062	0.027770	5.836041	-0.708259	-2.536799E+9	-1.094705E-11	NaN
546	1.000000	0.362498	7.37039e+06	-49789.1	1005.82	-29757.8	0.000000	0.000000	6.362858	0.009452	NaN	0.000000	0.001726	0.001780	28.0805	0.094571	0.001935	48.8841	13.3646	-163.724	0.004704	0.361223	-0.696715	-0.697990	0.009452	48.8841	-0.696860	-1.772733E+9	-5.331605E-12	NaN
546	1.000000	0.370521	7.37039e+06	-49789.1	1005.82	-29757.8	0.000000	0.000000	6.370881	0.005297	NaN	0.000000	0.001629	0.001777	28.0806	0.054424	0.001945	27.9827	53.4912	-168.088	-0.043005	0.369174	-0.688691	-0.690039	0.005297	27.9827	-0.688833	-1.377124E+9	-3.846349E-12	NaN
546	1.000000	0.378531	7.37039e+06	-49789.1	1005.82	-29757.8	0.000000	0.000000	6.378889	-0.028436	NaN	0.000000	0.001603	0.001746	28.082	0.107655	0.002046	52.6152	70.1477	-165.78	-0.030885	0.377272	-0.680681	-0.681941	-0.028436	52.6152	-0.680276	-1.051917E+9	2.703223E-11	NaN
546	1.000000	0.386537	7.37039e+06	-49789.1	1005.82	-29757.8	0.000000	0.000000	6.386896	-0.010476	NaN	0.000000	0.001625	0.001708	28.0827	0.042384	0.001954	21.6854	29.5019	-164.625	0.012948	0.385225	-0.672675	-0.673988	-0.010476	21.6854	-0.672313	-8.185482E+8	1.279831E-11	NaN
546	1.000000	0.394507	7.37039e+06	-49789.1	1005.82	-29757.8	0.000000	0.000000	6.394867	-0.000737	NaN	0.000000	0.001664	0.001785	28.0817	0.031272	0.002032	15.3922	-36.0861	-165.057	-0.011256	0.393226	-0.664705	-0.665986	-0.000737	15.3922	-0.664669	-6.433028E+8	1.145347E-12	NaN
546	1.000000	0.402537	7.37039e+06	-49789.1	1005.82	-29757.8	0.000000	0.000000	6.402897	0.007196	NaN	0.000000	0.001667	0.001727	28.0819	0.037908	0.002027	18.7018	99.422	-160.781	0.007363	0.401235	-0.656675	-0.657978	0.007196	18.7018	-0.656964	-5.045180E+8	-1.426352E-11	NaN
546	1.000000	0.410542	7.37039e+06	-49789.1	1005.82	-29757.8	0.000000	0.000000	6.410904	0.057825	NaN	0.000000	0.001635	0.001757	28.0818	0.095389	0.002008	47.5082	5.621122	-165.359	0.023715	0.409198	-0.648671	-0.650015	0.057825	47.5082	-0.649584	-3.996949E+8	-1.446738E-10	NaN
546	1.000000	0.418546	7.37039e+06	-49789.1	1005.82	-29757.8	0.000000	0.000000	6.418903	-0.059702	NaN	0.000000	0.001660	0.001765	28.0819	0.108607	0.001942	55.9393	-79.9195	-165.313	-0.039391	0.417242	-0.640666	-0.641970	-0.059702	55.9393	-0.639866	-2.940698E+8	2.030201E-10	NaN
546	1.000000	0.426558	7.37039e+06	-49789.1	1005.82	-29757.8	0.000000	0.000000	6.426916	-0.025175	NaN	0.000000	0.001652	0.001796	28.0823	0.039113	0.002090	18.7104	52.0119	-162.941	0.003429	0.425237	-0.632655	-0.633975	-0.025175	18.7104	-0.631646	-2.267878E+8	1.110088E-10	NaN
546	1.000000	0.434554	7.37039e+06	-49789.1	1005.82	-29757.8	0.000000	0.000000	6.434912	-0.024819	NaN	0.000000	0.001668	0.001760	28.0819	0.069385	0.001995	34.7766	86.6272	-165.68	-0.040589	0.433252	-0.624659	-0.625961	-0.024819	34.7766	-0.624124	-1.787752E+8	1.388270E-10	NaN
546	1.000000	0.442574	7.37039e+06	-49789.1	1005.82	-29757.8	0.000000	0.000000	6.442934	0.009835	NaN	0.000000	0.001626	0.001740	28.0822	0.152386	0.002112	72.1551	-103.082	-167.777	0.072460	0.441275	-0.616639	-0.617937	0.009835	72.1551	-0.616741	-1.415237E+8	-6.949245E-11	NaN
546	1.000000	0.450532	7.37039e+06	-49789.1	1005.82	-29757.8	0.000000	0.000000	6.450895	0.069020	NaN	0.000000	0.001649	0.001714	28.0819	0.025774	0.002039	12.641	-73.6547	-166.714	-0.010002	0.449253	-0.608680	-0.609959	0.069020	12.641	-0.612775	-1.248226E+8	-5.529457E-10	NaN
546	1.000000	0.458542	7.37039e+06	-49789.1	1005.82	-29757.8	0.000000	0.000000	6.458901	-0.001378	NaN	0.000000	0.001631	0.001717	28.0822	0.029427	0.002060	14.2852	102.959	-165.15	-0.029463	0.457236	-0.600671	-0.601977	-0.001378	14.2852	-0.600598	-8.485948E+7	1.623928E-11	NaN
546	1.000000	0.466548	7.37039e+06	-49789.1	1005.82	-29757.8	0.000000	0.000000	6.466905	-0.032456	NaN	0.000000	0.001660	0.001721	28.0821	0.062433	0.002108	29.6163	86.3545	-163.033	-0.006382	0.465235	-0.592665	-0.593977	-0.032456	29.6163	-0.591843	-6.428002E+7	5.049179E-10	NaN
546	1.000000	0.474582	7.37039e+06	-49789.1	1005.82	-29757.8	0.000000	0.000000	6.474940	-0.028257	NaN	0.000000	0.001671	0.001678	28.082	0.038866	0.001901	20.4416	-128.611	-167.994	-0.021985	0.473265	-0.584631	-0.585948	-0.028257	20.4416	-0.583594	-4.946744E+7	5.712223E-10	NaN
546	1.000000	0.482575	7.37039e+06	-49789.1	1005.82	-29757.8	0.000000	0.000000	6.482936	0.030705	NaN	0.000000	0.001624	0.001716	28.0824	0.103853	0.001952	53.2034	-116.592	-165.099	-0.011349	0.481322	-0.576637	-0.577890	0.030705	53.2034	-0.577070	-4.020541E+7	-7.637034E-10	NaN
546	1.000000	0.490583	7.37039e+06	-49789.1	1005.82	-29757.8	0.000000	0.000000	6.490943	0.003505	NaN	0.000000	0.001647	0.001728	28.0818	0.170642	0.001857	91.9066	-172.579	-166.368	0.068518	0.489269	-0.568630	-0.569944	0.003505	91.9066	-0.568658	-3.076736E+7	-1.139080E-10	NaN
546	1.000000	0.498565	7.37039e+06	-49789.1	1005.82	-29757.8	0.000000	0.000000	6.498921	-0.071165	NaN	0.000000	0.001692	0.001764	28.0818	0.073116	0.002058	35.5359	17.2126	-165.14	-0.045311	0.497318	-0.560648	-0.561894	-0.071165	35.5359	-0.559146	-2.272818E+7	3.131125E-9	NaN
546	1.000000	0.506568	7.37039e+06	-49789.1	1005.82	-29757.8	0.000000	0.000000	6.506929	0.033811	NaN	0.000000	0.001661	0.001742	28.0819	0.025779	0.002030	12.7016	148.724	-164.581	-0.032424	0.505214	-0.552645	-0.553999	0.033811	12.7016	-0.554641	-1.968895E+7	-1.717234E-9	NaN
546	1.000000	0.514609	7.37039e+06	-49789.1	1005.82	-29757.8	0.000000	0.000000	6.514968	-6.899766E-5	NaN	0.000000	0.001660	0.001789	28.0806	0.125046	0.002002	62.4614	142.906	-164.308	0.018218	0.513275	-0.544604	-0.545937	-6.899766E-5	62.4614	-0.544603	-1.429463E+7	4.826823E-12	NaN
546	1.000000	0.522602	7.37039e+06	-49789.1	1005.82	-29757.8	0.000000	0.000000	6.522959	-0.059370	NaN	0.000000	0.001629	0.001749	28.0807	0.034620	0.002031	17.042	86.6194	-168.362	-0.018674	0.521260	-0.536610	-0.537953	-0.059370	17.042	-0.533998	-1.018773E+7	5.827631E-9	NaN
546	1.000000	0.530600	7.37039e+06	-49789.1	1005.82	-29757.8	0.000000	0.000000	6.530958	-0.021559	NaN	0.000000	0.001648	0.001784	28.0805	0.016276	0.001922	8.469613	23.3011	-164.145	0.025434	0.529252	-0.528613	-0.529960	-0.021559	8.469613	-0.526704	-8.06843e+06	2.672062E-9	NaN
546	1.000000	0.538596	7.37039e+06	-49789.1	1005.82	-29757.8	0.000000	0.000000	6.538952	-0.059768	NaN	0.000000	0.001660	0.001769	28.0808	0.045275	0.002042	22.167	-163.252	-159.278	-0.012885	0.537352	-0.520617	-0.521861	-0.059768	22.167	-0.518595	-6.22376e+06	9.603118E-9	NaN
546	1.000000	0.546597	7.37039e+06	-49789.1	1005.82	-29757.8	0.000000	0.000000	6.546954	-0.054115	NaN	0.000000	0.001641	0.001745	28.0805	0.095541	0.001994	47.9067	-74.0793	-165.651	-0.021562	0.545290	-0.512616	-0.513922	-0.054115	47.9067	-0.511769	-5.00091e+06	1.082104E-8	NaN
546	1.000000	0.554570	7.37039e+06	-49789.1	1005.82	-29757.8	0.000000	0.000000	6.554930	0.006318	NaN	0.000000	0.001637	0.001798	28.0805	0.076096	0.001899	40.0715	63.9762	-165.284	0.041443	0.553277	-0.504643	-0.505936	0.006318	40.0715	-0.504761	-3.99404e+06	-1.581893E-9	NaN
546	1.000000	0.562616	7.37039e+06	-49789.1	1005.82	-29757.8	0.000000	0.000000	6.562981	0.128101	NaN	0.000000	0.001641	0.001747	28.0805	0.114449	0.001916	59.7403	-7.784020	-162.841	0.030642	0.561277	-0.496596	-0.497936	0.128101	59.7403	-0.498205	-3.23568e+06	-3.958998E-8	NaN
546	1.000000	0.570614	7.37039e+06	-49789.1	1005.82	-29757.8	0.000000	0.000000	6.570973	0.002472	NaN	0.000000	0.001592	0.001794	28.0804	0.043721	0.001989	21.9805	132.114	-165.053	-0.009871	0.569286	-0.488599	-0.489926	0.002472	21.9805	-0.488683	-2.38226e+06	-1.037602E-9	NaN
546	1.000000	0.578585	7.37039e+06	-49789.1	1005.82	-29757.8	0.000000	0.000000	6.578944	-0.015112	NaN	0.000000	0.001626	0.001787	28.0807	0.036630	0.001903	19.244	-59.4922	-169.012	-0.002334	0.577287	-0.480628	-0.481926	-0.015112	19.244	-0.480039	-1.8033e+06	8.380469E-9	NaN
546	1.000000	0.586642	7.37039e+06	-49789.1	1005.82	-29757.8	0.000000	0.000000	6.586999	-0.062471	NaN	0.000000	0.001626	0.001791	28.0807	0.130342	0.001988	65.5712	175.262	-165.438	-0.016446	0.585314	-0.472570	-0.473898	-0.062471	65.5712	-0.471856	-1.38493e+06	4.510755E-8	NaN
546	1.000000	0.594605	7.37039e+06	-49789.1	1005.82	-29757.8	0.000000	0.000000	6.594964	-0.016333	NaN	0.000000	0.001636	0.001766	28.0807	0.093228	0.002157	43.2122	97.1844	-166.72	0.017784	0.593322	-0.464608	-0.465891	-0.016333	43.2122	-0.464324	-1.08582e+06	1.504223E-8	NaN
546	1.000000	0.602608	7.37039e+06	-49789.1	1005.82	-29757.8	0.000000	0.000000	6.602970	0.055175	NaN	0.000000	0.001601	0.001740	28.0805	0.042476	0.001920	22.1203	10.3273	-162.668	0.094454	0.601301	-0.456605	-0.457912	0.055175	22.1203	-0.458475	-898645	-6.139798E-8	NaN
546	1.000000	0.610657	7.37039e+06	-49789.1	1005.82	-29757.8	0.000000	0.000000	6.611016	-0.011880	NaN	0.000000	0.001624	0.001760	28.0806	0.082249	0.002070	39.7322	71.1541	-167.447	-0.100989	0.609300	-0.448555	-0.449913	-0.011880	39.7322	-0.448331	-646898	1.836438E-8	NaN
546	1.000000	0.618637	7.37039e+06	-49789.1	1005.82	-29757.8	0.000000	0.000000	6.618995	-0.032949	NaN	0.000000	0.001607	0.001729	28.0806	0.025660	0.002027	12.6573	65.4208	-163.704	-0.030298	0.617331	-0.440575	-0.441882	-0.032949	12.6573	-0.438623	-471985	6.980889E-8	NaN
546	1.000000	0.626617	7.37039e+06	-49789.1	1005.82	-29757.8	0.000000	0.000000	6.626976	-0.019778	NaN	0.000000	0.001630	0.001784	28.0806	0.060317	0.002007	30.0587	128.728	-162.022	-0.056964	0.625359	-0.432596	-0.433854	-0.019778	30.0587	-0.432102	-381761	5.180686E-8	NaN
546	1.000000	0.634642	7.37039e+06	-49789.1	1005.82	-29757.8	0.000000	0.000000	6.635001	-0.019938	NaN	0.000000	0.001634	0.001753	28.0805	0.050360	0.002058	24.4677	80.6626	-168.114	-0.054636	0.633364	-0.424570	-0.425849	-0.019938	24.4677	-0.423959	-292776	6.809985E-8	NaN
546	1.000000	0.642653	7.37039e+06	-49789.1	1005.82	-29757.8	0.000000	0.000000	6.643009	-0.086784	NaN	0.000000	0.001652	0.001733	28.0805	0.033572	0.001971	17.0332	-25.9298	-163.612	-0.122577	0.641333	-0.416559	-0.417880	-0.086784	17.0332	-0.412738	-202920	4.276757E-7	NaN
546	1.000000	0.650649	7.37039e+06	-49789.1	1005.82	-29757.8	0.000000	0.000000	6.651007	-0.050725	NaN	0.000000	0.001619	0.001724	28.082	0.052159	0.001978	26.3737	57.9756	-165.434	0.012960	0.649310	-0.408563	-0.409903	-0.050725	26.3737	-0.407121	-168826	3.004590E-7	NaN
546	1.000000	0.658638	7.37039e+06	-49789.1	1005.82	-29757.8	0.000000	0.000000	6.658999	0.041406	NaN	0.000000	0.001617	0.001797	28.082	0.044441	0.002054	21.6398	-28.7848	-163.749	0.020210	0.657390	-0.400575	-0.401822	0.041406	21.6398	-0.402010	-142775	-2.900094E-7	NaN
546	1.000000	0.666631	7.37039e+06	-49789.1	1005.82	-29757.8	0.000000	0.000000	6.666993	0.067021	NaN	0.000000	0.001623	0.001743	28.0817	0.137665	0.001902	72.3941	-58.6897	-164.992	-0.057585	0.665280	-0.392582	-0.393933	0.067021	72.3941	-0.393276	-107155	-6.254624E-7	NaN
546	1.000000	0.674661	7.37039e+06	-49789.1	1005.82	-29757.8	0.000000	0.000000	6.675021	0.010482	NaN	0.000000	0.001635	0.001775	28.0819	0.049134	0.001988	24.7117	143.994	-163.524	-0.091535	0.673377	-0.384551	-0.385836	0.010482	24.7117	-0.384870	-81230.1	-1.290416E-7	NaN
546	1.000000	0.682666	7.37039e+06	-49789.1	1005.82	-29757.8	0.000000	0.000000	6.683025	0.005569	NaN	0.000000	0.001612	0.001751	28.0818	0.078400	0.002054	38.1662	107.759	-163.954	-0.015783	0.681333	-0.376547	-0.377879	0.005569	38.1662	-0.376656	-61926.6	-8.993347E-8	NaN
546	1.000000	0.690648	7.37039e+06	-49789.1	1005.82	-29757.8	0.000000	0.000000	6.691007	-0.010064	NaN	0.000000	0.001628	0.001754	28.0821	0.134905	0.002094	64.4187	-23.0126	-165.307	-0.040497	0.689351	-0.368564	-0.369862	-0.010064	64.4187	-0.368447	-47180.1	2.133011E-7	NaN
546	1.000000	0.698654	7.37039e+06	-49789.1	1005.82	-29757.8	0.000000	0.000000	6.699014	0.015873	NaN	0.000000	0.001589	0.001738	28.0818	0.082769	0.001943	42.5961	-129.226	-168.685	-0.045258	0.697403	-0.360559	-0.361809	0.015873	42.5961	-0.360838	-36640.5	-4.332181E-7	NaN
546	1.000000	0.706672	7.37039e+06	-49789.1	1005.82	-29757.8	0.000000	0.000000	6.707031	-0.029033	NaN	0.000000	0.001600	0.001733	28.0819	0.063332	0.002049	30.9076	132.803	-166.808	0.045413	0.705365	-0.352540	-0.353848	-0.029033	30.9076	-0.351836	-27141.6	1.069679E-6	NaN
546	1.000000	0.714664	7.37039e+06	-49789.1	1005.82	-29757.8	0.000000	0.000000	6.715022	-0.014640	NaN	0.000000	0.001611	0.001793	28.0817	0.097514	0.002083	46.8036	-179.804	-163.822	0.015732	0.713349	-0.344549	-0.345864	-0.014640	46.8036	-0.344314	-21104.8	6.936653E-7	NaN
546	1.000000	0.722664	7.37039e+06	-49789.1	1005.82	-29757.8	0.000000	0.000000	6.723024	0.018887	NaN	0.000000	0.001617	0.001833	28.0818	0.022606	0.002075	10.8969	160.632	-167.31	-0.037885	0.721365	-0.336549	-0.337848	0.018887	10.8969	-0.337849	-16989.6	-1.111670E-6	NaN
546	1.000000	0.730661	7.37039e+06	-49789.1	1005.82	-29757.8	0.000000	0.000000	6.731019	-0.011305	NaN	0.000000	0.001611	0.001838	28.0821	0.124584	0.001965	63.3906	-179.087	-163.946	-0.021184	0.729342	-0.328552	-0.329871	-0.011305	63.3906	-0.328418	-12367.4	9.140800E-7	NaN
546	1.000000	0.738680	7.37039e+06	-49789.1	1005.82	-29757.8	0.000000	0.000000	6.739038	-0.016299	NaN	0.000000	0.001607	0.001782	28.0819	0.072011	0.002065	34.8655	-174.132	-166.541	0.028489	0.737369	-0.320533	-0.321844	-0.016299	34.8655	-0.320182	-9361.01	1.741206E-6	NaN
546	1.000000	0.746688	7.37039e+06	-49789.1	1005.82	-29757.8	0.000000	0.000000	6.747048	0.014554	NaN	0.000000	0.001588	0.001767	28.0822	0.057359	0.002060	27.8425	-75.3157	-162.889	-0.025125	0.745396	-0.312525	-0.313817	0.014554	27.8425	-0.312917	-7314.49	-1.989693E-6	NaN
546	1.000000	0.754702	7.37039e+06	-49789.1	1005.82	-29757.8	0.000000	0.000000	6.755060	-0.043238	NaN	0.000000	0.001575	0.001775	28.0821	0.110300	0.001880	58.6711	33.351	-166.307	-0.010753	0.753393	-0.304510	-0.305820	-0.043238	58.6711	-0.303958	-5388.64	8.023992E-6	NaN
546	1.000000	0.762697	7.37039e+06	-49789.1	1005.82	-29757.8	0.000000	0.000000	6.763055	-0.048806	NaN	0.000000	0.001559	0.001749	28.0819	0.081731	0.002113	38.6848	58.2762	-166.29	0.032284	0.761388	-0.296515	-0.297824	-0.048806	38.6848	-0.295569	-4041.91	1.207508E-5	NaN
546	1.000000	0.770689	7.37039e+06	-49789.1	1005.82	-29757.8	0.000000	0.000000	6.771047	-0.039941	NaN	0.000000	0.001593	0.001743	28.082	0.099417	0.001922	51.7233	-87.3721	-165.933	-0.083802	0.769407	-0.288524	-0.289806	-0.039941	51.7233	-0.287944	-3108.02	1.285084E-5	NaN
546	1.000000	0.778694	7.37039e+06	-49789.1	1005.82	-29757.8	0.000000	0.000000	6.779053	-0.003906	NaN	0.000000	0.001617	0.001759	28.082	0.073252	0.001833	39.9629	-104.798	-165.32	0.028803	0.777382	-0.280519	-0.281830	-0.003906	39.9629	-0.280445	-2397.11	1.629429E-6	NaN
546	1.000000	0.786700	7.37039e+06	-49789.1	1005.82	-29757.8	0.000000	0.000000	6.787060	0.020178	NaN	0.000000	0.001633	0.001772	28.0807	0.124707	0.002020	61.7324	-87.1133	-168.535	0.021645	0.785407	-0.272513	-0.273806	0.020178	61.7324	-0.272758	-1834.1	-1.100147E-5	NaN
546	1.000000	0.794723	7.37039e+06	-49789.1	1005.82	-29757.8	0.000000	0.000000	6.795082	-0.003248	NaN	0.000000	0.001643	0.001770	28.0808	0.091171	0.002128	42.8452	34.5682	-168.285	-0.004533	0.793405	-0.264490	-0.265808	-0.003248	42.8452	-0.264433	-1370.04	2.371043E-6	NaN
546	1.000000	0.802691	7.37039e+06	-49789.1	1005.82	-29757.8	0.000000	0.000000	6.803050	-0.023539	NaN	0.000000	0.001649	0.001784	28.0806	0.040608	0.002044	19.866	-57.968	-163.97	0.003175	0.801419	-0.256521	-0.257793	-0.023539	19.866	-0.255633	-1004.28	2.343843E-5	NaN
546	1.000000	0.810731	7.37039e+06	-49789.1	1005.82	-29757.8	0.000000	0.000000	6.811089	-0.031507	NaN	0.000000	0.001653	0.001759	28.0804	0.019653	0.002079	9.452564	-76.2741	-163.864	-0.034772	0.809438	-0.248482	-0.249775	-0.031507	9.452564	-0.245982	-712.367	4.422841E-5	NaN
546	1.000000	0.818687	7.37039e+06	-49789.1	1005.82	-29757.8	0.000000	0.000000	6.819044	-0.064665	NaN	0.000000	0.001648	0.001753	28.0806	0.032644	0.001987	16.4282	37.3932	-165.286	0.068997	0.817387	-0.240525	-0.241826	-0.064665	16.4282	-0.237573	-526.742	0.000123	NaN
546	1.000000	0.826707	7.37039e+06	-49789.1	1005.82	-29757.8	0.000000	0.000000	6.827067	0.019056	NaN	0.000000	0.001603	0.001706	28.0806	0.187644	0.001952	96.1288	-110.29	-165.535	-0.007102	0.825431	-0.232506	-0.233782	0.019056	96.1288	-0.232654	-440.929	-4.321810E-5	NaN
546	1.000000	0.834713	7.37039e+06	-49789.1	1005.82	-29757.8	0.000000	0.000000	6.835072	-0.021643	NaN	0.000000	0.001617	0.001780	28.0807	0.056681	0.002145	26.4223	-173.84	-166.741	-0.037964	0.833363	-0.224499	-0.225850	-0.021643	26.4223	-0.223885	-320.343	6.756260E-5	NaN
546	1.000000	0.842727	7.37039e+06	-49789.1	1005.82	-29757.8	0.000000	0.000000	6.843086	-0.013469	NaN	0.000000	0.001592	0.001760	28.0808	0.056884	0.001951	29.1579	137.479	-166.952	-0.053751	0.841421	-0.216486	-0.217792	-0.013469	29.1579	-0.216139	-240.894	5.591218E-5	NaN
546	1.000000	0.850713	7.37039e+06	-49789.1	1005.82	-29757.8	0.000000	0.000000	6.851073	0.013634	NaN	0.000000	0.001618	0.001719	28.0805	0.027679	0.001993	13.8903	-173.267	-166.315	-0.069111	0.849452	-0.208499	-0.209760	0.013634	13.8903	-0.209235	-186.393	-7.314431E-5	NaN
546	1.000000	0.858700	7.37039e+06	-49789.1	1005.82	-29757.8	0.000000	0.000000	6.859058	-0.038600	NaN	0.000000	0.001625	0.001709	28.0808	0.113430	0.001879	60.3668	-114.319	-165.024	0.042902	0.857395	-0.200513	-0.201818	-0.038600	60.3668	-0.200033	-131.899	0.000293	NaN
546	1.000000	0.866742	7.37039e+06	-49789.1	1005.82	-29757.8	0.000000	0.000000	6.867103	0.047928	NaN	0.000000	0.001620	0.001771	28.0805	0.123489	0.002062	59.8738	-142.439	-163.263	0.026266	0.865477	-0.192471	-0.193736	0.047928	59.8738	-0.193071	-101.205	-0.000474	NaN
546	1.000000	0.874740	7.37039e+06	-49789.1	1005.82	-29757.8	0.000000	0.000000	6.875101	0.045575	NaN	0.000000	0.001601	0.001748	28.0805	0.045334	0.002006	22.5947	-145.263	-163.774	0.070797	0.873376	-0.184473	-0.185837	0.045575	22.5947	-0.185985	-77.0414	-0.000592	NaN
546	1.000000	0.882729	7.37039e+06	-49789.1	1005.82	-29757.8	0.000000	0.000000	6.883088	0.010821	NaN	0.000000	0.001631	0.001762	28.0804	0.030986	0.002037	15.2099	127.773	-165.089	-0.004734	0.881393	-0.176484	-0.177819	0.010821	15.2099	-0.177018	-54.2724	-0.000199	NaN
546	1.000000	0.890728	7.37039e+06	-49789.1	1005.82	-29757.8	0.000000	0.000000	6.891091	0.090053	NaN	0.000000	0.001619	0.001740	28.0803	0.049764	0.002043	24.3566	-102.039	-164.459	0.120283	0.889430	-0.168485	-0.169783	0.090053	24.3566	-0.171258	-43.1948	-0.002085	NaN
546	1.000000	0.898767	7.37039e+06	-49789.1	1005.82	-29757.8	0.000000	0.000000	6.899126	-0.003489	NaN	0.000000	0.001615	0.001789	28.0806	0.044748	0.001965	22.7769	119.471	-162.957	0.028133	0.897392	-0.160446	-0.161820	-0.003489	22.7769	-0.160331	-27.7887	0.000126	NaN
546	1.000000	0.906747	7.37039e+06	-49789.1	1005.82	-29757.8	0.000000	0.000000	6.907107	0.019177	NaN	0.000000	0.001645	0.001749	28.0805	0.048112	0.002012	23.9159	168.819	-164.618	-0.101872	0.905459	-0.152466	-0.153754	0.019177	23.9159	-0.153067	-20.5928	-0.000931	NaN
546	1.000000	0.914783	7.37039e+06	-49789.1	1005.82	-29757.8	0.000000	0.000000	6.915140	-0.056279	NaN	0.000000	0.001663	0.001731	28.0804	0.004194	0.002108	1.989659	-90.0082	-162.945	-0.032059	0.913437	-0.144430	-0.145776	-0.056279	1.989659	-0.123215	-5.604774	0.010041	NaN
546	1.000000	0.922739	7.37039e+06	-49789.1	1005.82	-29757.8	0.000000	0.000000	6.923098	0.000984	NaN	0.000000	0.001689	0.001740	28.0816	0.211212	0.002010	105.085	-175.885	-169.366	0.027993	0.921443	-0.136474	-0.137770	0.000984	105.085	-0.136481	-10.1506	-9.690737E-5	NaN
546	1.000000	0.930719	7.37039e+06	-49789.1	1005.82	-29757.8	0.000000	0.000000	6.931077	-0.024203	NaN	0.000000	0.001700	0.001727	28.0817	0.136512	0.001828	74.6594	59.7972	-166.917	-0.029422	0.929442	-0.128494	-0.129771	-0.024203	74.6594	-0.128251	-7.045652	0.003435	NaN
546	1.000000	0.938760	7.37039e+06	-49789.1	1005.82	-29757.8	0.000000	0.000000	6.939118	-0.033357	NaN	0.000000	0.001682	0.001713	28.0817	0.109018	0.001961	55.585	-32.6097	-167.2	-0.001502	0.937392	-0.120452	-0.121821	-0.033357	55.585	-0.120002	-4.831978	0.006903	NaN
546	1.000000	0.946750	7.37039e+06	-49789.1	1005.82	-29757.8	0.000000	0.000000	6.947109	-0.017778	NaN	0.000000	0.001716	0.001732	28.0815	0.071350	0.001990	35.8599	-102.124	-165.827	-0.003239	0.945429	-0.112463	-0.113784	-0.017778	35.8599	-0.112091	-3.324644	0.005347	NaN
546	1.000000	0.954754	7.37039e+06	-49789.1	1005.82	-29757.8	0.000000	0.000000	6.955114	0.021438	NaN	0.000000	0.001711	0.001745	28.0817	0.100400	0.001938	51.8091	177.099	-165.777	-0.014227	0.953448	-0.104459	-0.105765	0.021438	51.8091	-0.104769	-2.323721	-0.009226	NaN
546	1.000000	0.962779	7.37039e+06	-49789.1	1005.82	-29757.8	0.000000	0.000000	6.963138	-0.000925	NaN	0.000000	0.001686	0.001718	28.0817	0.040548	0.002066	19.6299	159.169	-166.792	-0.048504	0.961467	-0.096434	-0.097745	-0.000925	19.6299	-0.096398	-1.517573	0.000610	NaN
546	1.000000	0.970794	7.37039e+06	-49789.1	1005.82	-29757.8	0.000000	0.000000	6.971153	-0.014691	NaN	0.000000	0.001647	0.001732	28.0818	0.071436	0.001927	37.0691	-73.08	-166.627	-0.004675	0.969464	-0.088418	-0.089749	-0.014691	37.0691	-0.088121	-0.976066	0.015051	NaN
546	1.000000	0.978773	7.37039e+06	-49789.1	1005.82	-29757.8	0.000000	0.000000	6.979133	-0.001716	NaN	0.000000	0.001671	0.001757	28.0818	0.066395	0.001962	33.8402	-116.324	-168.307	0.030295	0.977447	-0.080439	-0.081765	-0.001716	33.8402	-0.080401	-0.633437	0.002710	NaN
546	1.000000	0.986796	7.37039e+06	-49789.1	1005.82	-29757.8	0.000000	0.000000	6.987154	-0.030730	NaN	0.000000	0.001686	0.001746	28.0815	0.053018	0.002073	25.5798	-85.7695	-161.813	-0.043599	0.985532	-0.072417	-0.073680	-0.030730	25.5798	-0.071516	-0.374361	0.082086	NaN
546	1.000000	0.994761	7.37039e+06	-49789.1	1005.82	-29757.8	0.000000	0.000000	6.995122	0.031543	NaN	0.000000	0.001650	0.001777	28.0817	0.142028	0.002100	67.6312	-77.8648	-163.63	0.029433	0.993437	-0.064451	-0.065776	0.031543	67.6312	-0.064801	-0.246067	-0.128187	NaN
546	1.000000	1.002771	7.37039e+06	-49789.1	1005.82	-29757.8	0.000000	0.000000	7.003126	-0.099562	NaN	0.000000	0.001666	0.001748	28.0817	0.002664	0.002103	1.267031	147.009	-164.487	-0.102855	1.001478	-0.056442	-0.057735	-0.099562	1.267031	0.002493	0.001957	-50.8715	26.1668
546	1.000000	1.010800	7.37039e+06	-49789.1	1005.82	-29757.8	0.000000	0.000000	7.011158	-0.012916	NaN	0.000000	0.001673	0.001757	28.0818	0.040681	0.001907	21.3315	-28.1697	-164.467	-0.039328	1.009456	-0.048413	-0.049757	-0.012916	21.3315	-0.047959	-0.079124	0.163241	NaN
546	1.000000	1.018807	7.37039e+06	-49789.1	1005.82	-29757.8	0.000000	0.000000	7.019165	-0.025746	NaN	0.000000	0.001684	0.001741	28.0814	0.142577	0.002025	70.4138	-41.3604	-164.225	-0.016628	1.017539	-0.040406	-0.041673	-0.025746	70.4138	-0.040132	-0.045641	0.564095	NaN
546	1.000000	1.026785	7.37039e+06	-49789.1	1005.82	-29757.8	0.000000	0.000000	7.027145	-0.000944	NaN	0.000000	0.001714	0.001748	28.0816	0.050095	0.002067	24.2318	-99.615	-164.594	0.031997	1.025512	-0.032427	-0.033700	-0.000944	24.2318	-0.032398	-0.026903	0.035091	NaN
546	1.000000	1.034803	7.37039e+06	-49789.1	1005.82	-29757.8	0.000000	0.000000	7.035161	-0.042135	NaN	0.000000	0.001691	0.001727	28.0815	0.095352	0.002131	44.7353	17.9056	-165.887	-0.014401	1.033464	-0.024409	-0.025748	-0.042135	44.7353	-0.023703	-0.015613	2.698804	NaN
546	1.000000	1.042794	7.37039e+06	-49789.1	1005.82	-29757.8	0.000000	0.000000	7.043153	-0.011989	NaN	0.000000	0.001702	0.001733	28.0815	0.080368	0.002027	39.6469	5.627309	-163.415	-0.083591	1.041528	-0.016419	-0.017685	-0.011989	39.6469	-0.016192	-0.010002	1.198655	NaN
546	1.000000	1.050831	7.37039e+06	-49789.1	1005.82	-29757.8	0.000000	0.000000	7.051192	0.040304	NaN	0.000000	0.001694	0.001719	28.0814	0.080281	0.002051	39.1466	-11.7109	-165.165	0.043432	1.049535	-0.008381	-0.009678	0.040304	39.1466	-0.009154	-0.005902	-6.829349	NaN
546	1.000000	1.058786	7.37039e+06	-49789.1	1005.82	-29757.8	0.000000	0.000000	7.059221	1.848945	NaN	0.000000	0.001715	0.001684	28.0808	2.804119	0.002055	1364.77	12.5961	-166.716	0.683467	1.057469	-0.000427	-0.001744	1.848945	1364.77	-0.001443	-0.001049	-1762.63	NaN
546	2.000000	1.065405	7.37039e+06	-49789.1	1005.82	-29757.8	0.000000	0.000000	7.066060	7.187975	NaN	0.000000	0.001737	0.001714	28.0804	8.656000	0.001782	4858.6	10.9103	-170.926	7.475551	1.064956	0.006192	0.005743	7.187975	4858.6	0.005083	0.004209	1707.79	68422.3
546	2.000000	1.067418	7.37039e+06	-49789.1	1005.82	-29757.8	0.000000	0.000000	7.068210	10.5179	NaN	0.000000	0.001735	0.001719	28.0802	10.7867	0.001658	6506.52	4.824436	-169.022	10.4342	1.067022	0.008205	0.007810	10.5179	6506.52	0.006993	0.006027	1745.24	76574.7
546	2.000000	1.069364	7.37039e+06	-49789.1	1005.82	-29757.8	0.000000	0.000000	7.070241	12.5921	NaN	0.000000	0.001730	0.001696	28.0806	13.7635	0.001904	7227.11	8.636269	-173.757	12.7051	1.069079	0.010152	0.009866	12.5921	7227.11	0.008845	0.007926	1588.73	74167.6
546	2.000000	1.071325	7.37039e+06	-49789.1	1005.82	-29757.8	0.000000	0.000000	7.072312	15.2745	NaN	0.000000	0.001755	0.001736	28.0801	14.9828	0.001681	8912.83	5.577844	-173.938	14.3067	1.070959	0.012112	0.011746	15.2745	8912.83	0.010827	0.010115	1510.1	80966.9
546	2.000000	1.073334	7.37039e+06	-49789.1	1005.82	-29757.8	0.000000	0.000000	7.074415	17.5544	NaN	0.000000	0.001722	0.001765	28.0806	17.5966	0.001751	10049.2	9.160303	-178.297	18.1102	1.072987	0.014121	0.013775	17.5544	10049.2	0.012811	0.012476	1407.06	82199.1
546	2.000000	1.075354	7.37039e+06	-49789.1	1005.82	-29757.8	0.000000	0.000000	7.076615	21.9284	NaN	0.000000	0.001672	0.001718	28.0803	19.7884	0.001772	11167.3	10.8555	-178.735	22.0581	1.075042	0.016141	0.015829	21.9284	11167.3	0.014669	0.014846	1477.06	83736.7
546	2.000000	1.077318	7.37039e+06	-49789.1	1005.82	-29757.8	0.000000	0.000000	7.078720	25.3603	NaN	0.000000	0.001683	0.001715	28.0802	21.5274	0.001761	12222.9	4.167957	-175.711	24.1084	1.076991	0.018106	0.017778	25.3603	12222.9	0.016550	0.017407	1456.86	84641
546	2.000000	1.079333	7.37039e+06	-49789.1	1005.82	-29757.8	0.000000	0.000000	7.080898	29.3159	NaN	0.000000	0.001616	0.001727	28.0805	23.551	0.001802	13069.9	4.517023	-175.609	30.5446	1.079055	0.020121	0.019843	29.3159	13069.9	0.018438	0.020147	1455.07	84126.9
546	2.000000	1.081347	7.37039e+06	-49789.1	1005.82	-29757.8	0.000000	0.000000	7.083034	32.2872	NaN	0.000000	0.001657	0.001728	28.0802	25.4564	0.001691	15051.8	4.659788	-178.611	33.4016	1.081052	0.022134	0.021840	32.2872	15051.8	0.020525	0.023374	1381.32	89948.4
546	2.000000	1.083367	7.37039e+06	-49789.1	1005.82	-29757.8	0.000000	0.000000	7.085290	38.026	NaN	0.000000	0.001642	0.001725	28.0805	28.2827	0.001817	15563.3	6.467218	-179.838	40.4242	1.083007	0.024154	0.023794	38.026	15563.3	0.022322	0.026322	1444.63	87642.2
546	2.000000	1.085368	7.37039e+06	-49789.1	1005.82	-29757.8	0.000000	0.000000	7.087468	42.3373	NaN	0.000000	0.001628	0.001734	28.0803	29.6751	0.001804	16445.3	5.658399	-178.927	43.7102	1.085017	0.026155	0.025804	42.3373	16445.3	0.024224	0.029619	1429.38	87302.6
546	2.000000	1.087287	7.37039e+06	-49789.1	1005.82	-29757.8	0.000000	0.000000	7.089631	48.2756	NaN	0.000000	0.001644	0.001729	28.0802	31.4323	0.001668	18842.4	7.498605	176.432	47.0378	1.086952	0.028074	0.027739	48.2756	18842.4	0.026152	0.033145	1456.48	94557.7
546	2.000000	1.089312	7.37039e+06	-49789.1	1005.82	-29757.8	0.000000	0.000000	7.091795	51.629	NaN	0.000000	0.001653	0.001707	28.0805	34.1175	0.001785	19115.7	4.182577	-179.585	52.3679	1.089019	0.030100	0.029807	51.629	19115.7	0.028074	0.036846	1401.21	90984.6
546	2.000000	1.091288	7.37039e+06	-49789.1	1005.82	-29757.8	0.000000	0.000000	7.094226	62.7149	NaN	0.000000	0.001669	0.001727	28.0802	35.4381	0.001734	20431.6	3.759141	-179.965	62.5461	1.090933	0.032076	0.031720	62.7149	20431.6	0.029774	0.040276	1557.14	93015.2
546	2.000000	1.093320	7.37039e+06	-49789.1	1005.82	-29757.8	0.000000	0.000000	7.096323	64.2992	NaN	0.000000	0.001650	0.001683	28.0805	38.5325	0.001840	20939.7	6.897114	176.972	65.3162	1.092962	0.034107	0.033749	64.2992	20939.7	0.031804	0.044566	1442.77	90623.2
546	2.000000	1.095300	7.37039e+06	-49789.1	1005.82	-29757.8	0.000000	0.000000	7.098760	75.4146	NaN	0.000000	0.001637	0.001710	28.0805	40.3537	0.001770	22798.4	5.544196	177.21	73.4405	1.094978	0.036087	0.035765	75.4146	22798.4	0.033606	0.048551	1553.32	94532.3
546	2.000000	1.097294	7.37039e+06	-49789.1	1005.82	-29757.8	0.000000	0.000000	7.100934	79.7715	NaN	0.000000	0.001659	0.001716	28.081	42.3371	0.001838	23040.4	11	172.571	81.3236	1.096901	0.038082	0.037688	79.7715	23040.4	0.035485	0.052882	1508.49	91540.1
546	2.000000	1.099241	7.3704e+06	-49789.1	1005.82	-29757.8	0.000000	0.000000	7.103178	87.0042	NaN	0.000000	0.001631	0.001689	28.0828	44.0383	0.001727	25506.1	5.177332	176.949	85.806	1.098898	0.040029	0.039686	87.0042	25506.1	0.037470	0.057654	1509.07	97051.4
546	2.000000	1.101181	7.3704e+06	-49789.1	1005.82	-29757.8	0.000000	0.000000	7.105625	99.3384	NaN	0.000000	0.001619	0.001710	28.0815	45.0348	0.001611	27947	5.209451	176.108	96.7972	1.100909	0.041968	0.041697	99.3384	27947	0.039302	0.062238	1596.1	102348
546	2.000000	1.103212	7.3704e+06	-49789.1	1005.82	-29757.8	0.000000	0.000000	7.107933	106.094	NaN	0.000000	0.001612	0.001724	28.0827	47.9793	0.001846	25996.6	2.948788	178.773	104.182	1.102953	0.043999	0.043740	106.094	25996.6	0.040938	0.066475	1595.99	92121.1
546	2.000000	1.105276	7.3704e+06	-49789.1	1005.82	-29757.8	0.000000	0.000000	7.110458	117.284	NaN	0.000000	0.001672	0.001739	28.0816	49.4733	0.001707	28983.3	4.678088	176.373	115.006	1.104898	0.046064	0.045685	117.284	28983.3	0.043029	0.072089	1626.92	98624.7
546	2.000000	1.107293	7.3704e+06	-49789.1	1005.82	-29757.8	0.000000	0.000000	7.112663	121.851	NaN	0.000000	0.001620	0.001691	28.0814	51.1687	0.001750	29235.3	5.009521	175.865	123.827	1.106924	0.048081	0.047712	121.851	29235.3	0.044955	0.077459	1573.12	95972.4
546	2.000000	1.109182	7.3704e+06	-49789.1	1005.82	-29757.8	0.000000	0.000000	7.115027	133.404	NaN	0.000000	0.001629	0.001694	28.0819	53.7634	0.001851	29037.8	1.959523	178.225	130.485	1.108988	0.049970	0.049776	133.404	29037.8	0.046524	0.081972	1627.43	92662.5
546	2.000000	1.111308	7.3704e+06	-49789.1	1005.82	-29757.8	0.000000	0.000000	7.117643	145.309	NaN	0.000000	0.001621	0.001734	28.0816	54.1727	0.001686	32130.6	1.835650	178.572	147.192	1.111023	0.052096	0.051810	145.309	32130.6	0.048704	0.088449	1642.86	98706.5
546	2.000000	1.113265	7.3704e+06	-49789.1	1005.82	-29757.8	0.000000	0.000000	7.119933	153.41	NaN	0.000000	0.001626	0.001684	28.0825	57.8062	0.001802	32073.6	4.753947	175.986	152.968	1.112894	0.054053	0.053682	153.41	32073.6	0.050465	0.093857	1634.51	95650.8
546	2.000000	1.115268	7.3704e+06	-49789.1	1005.82	-29757.8	0.000000	0.000000	7.122477	166.572	NaN	0.000000	0.001586	0.001722	28.0816	61.104	0.001847	33077.9	6.689599	172.688	164.991	1.114978	0.056055	0.055765	166.572	33077.9	0.052278	0.099585	1672.66	95766.4
546	2.000000	1.117318	7.3704e+06	-49789.1	1005.82	-29757.8	0.000000	0.000000	7.124865	174.791	NaN	0.000000	0.001618	0.001748	28.0817	60.5324	0.001685	35923	4.100215	175.15	177.816	1.116911	0.058106	0.057698	174.791	35923	0.054456	0.106684	1638.41	100484
546	2.000000	1.119218	7.3704e+06	-49789.1	1005.82	-29757.8	0.000000	0.000000	7.127143	184.002	NaN	0.000000	0.001599	0.001716	28.0819	64.2538	0.001789	35911.6	3.239832	175.235	181.106	1.119016	0.060005	0.059803	184.002	35911.6	0.056162	0.112408	1636.91	97861
546	2.000000	1.121238	7.3704e+06	-49789.1	1005.82	-29757.8	0.000000	0.000000	7.130101	206.805	NaN	0.000000	0.001611	0.001736	28.0817	64.2701	0.001677	38324.6	1.307709	176.955	205.84	1.120874	0.062026	0.061661	206.805	38324.6	0.057979	0.118660	1742.84	101648
546	2.000000	1.123251	7.3704e+06	-49789.1	1005.82	-29757.8	0.000000	0.000000	7.132393	213.586	NaN	0.000000	0.001607	0.001756	28.0821	67.5123	0.001805	37396.8	3.836271	174.973	213.104	1.122873	0.064038	0.063660	213.586	37396.8	0.059755	0.124930	1709.65	96666.2
546	2.000000	1.125283	7.3704e+06	-49789.1	1005.82	-29757.8	0.000000	0.000000	7.134930	225.863	NaN	0.000000	0.001612	0.001714	28.0817	70.0517	0.001794	39050.6	6.449583	172.771	227.546	1.124908	0.066070	0.065695	225.863	39050.6	0.061733	0.132094	1709.86	98165.5
546	2.000000	1.127238	7.3704e+06	-49789.1	1005.82	-29757.8	0.000000	0.000000	7.137206	233.683	NaN	0.000000	0.001589	0.001753	28.0817	69.9567	0.001704	41044	0.494157	177.378	232.974	1.127026	0.068025	0.067814	233.683	41044	0.063755	0.139617	1673.75	100358
546	2.000000	1.129217	7.3704e+06	-49789.1	1005.82	-29757.8	0.000000	0.000000	7.139874	250.434	NaN	0.000000	0.001602	0.001737	28.0817	74.6117	0.001888	39517.6	3.938298	174.07	246.853	1.129021	0.070004	0.069809	250.434	39517.6	0.065251	0.145309	1723.46	94714.7
546	2.000000	1.131242	7.3704e+06	-49789.1	1005.82	-29757.8	0.000000	0.000000	7.142416	263.014	NaN	0.000000	0.001622	0.001732	28.0813	75.9104	0.001760	43137.7	5.127305	172.836	264.848	1.130901	0.072029	0.071688	263.014	43137.7	0.067456	0.153894	1709.06	100466
546	2.000000	1.133238	7.3704e+06	-49789.1	1005.82	-29757.8	0.000000	0.000000	7.144772	271.76	NaN	0.000000	0.001564	0.001726	28.0808	78.7182	0.001821	43227.9	6.550777	170.631	270.964	1.132992	0.074025	0.073779	271.76	43227.9	0.069310	0.161293	1684.88	98339.9
546	2.000000	1.135239	7.3704e+06	-49789.1	1005.82	-29757.8	0.000000	0.000000	7.147758	295.705	NaN	0.000000	0.001589	0.001742	28.0807	80.9098	0.001924	42056.9	7.708785	170.891	294.123	1.134855	0.076026	0.075643	295.705	42056.9	0.070753	0.167165	1768.94	93980.5
546	2.000000	1.137346	7.3704e+06	-49789.1	1005.82	-29757.8	0.000000	0.000000	7.150125	302.031	NaN	0.000000	0.001583	0.001739	28.0807	81.3527	0.001770	45950	3.931700	173.231	307.848	1.136981	0.078134	0.077768	302.031	45950	0.073204	0.177364	1702.89	99684
546	2.000000	1.139313	7.3704e+06	-49789.1	1005.82	-29757.8	0.000000	0.000000	7.152673	316.174	NaN	0.000000	0.001600	0.001698	28.0804	84.0398	0.001837	45760.4	5.859580	172.119	318.921	1.138962	0.080100	0.079749	316.174	45760.4	0.074918	0.184667	1712.13	97289.9
546	2.000000	1.141157	7.3704e+06	-49789.1	1005.82	-29757.8	0.000000	0.000000	7.155461	339.133	NaN	0.000000	0.001610	0.001734	28.0806	83.4494	0.001740	47949.1	0.766324	176.575	337.342	1.140833	0.081944	0.081620	339.133	47949.1	0.076639	0.192140	1765.03	99941.4
546	2.000000	1.143114	7.3704e+06	-49789.1	1005.82	-29757.8	0.000000	0.000000	7.157977	352.723	NaN	0.000000	0.001649	0.001725	28.0803	85.3406	0.001729	49345.1	3.279620	173.301	346.462	1.142829	0.083901	0.083617	352.723	49345.1	0.078540	0.200552	1758.76	100671
546	2.000000	1.145269	7.3704e+06	-49789.1	1005.82	-29757.8	0.000000	0.000000	7.160558	363.068	NaN	0.000000	0.001595	0.001711	28.0806	89.1013	0.001859	47922.2	6.904660	169.723	364.313	1.145012	0.086056	0.085799	363.068	47922.2	0.080374	0.208831	1738.58	95810.4
546	2.000000	1.147149	7.3704e+06	-49789.1	1005.82	-29757.8	0.000000	0.000000	7.163064	378.326	NaN	0.000000	0.001631	0.001744	28.0806	88.3207	0.001704	51829.5	-0.634811	176.423	374.138	1.146961	0.087936	0.087748	378.326	51829.5	0.082461	0.218440	1731.94	101317
546	2.000000	1.149097	7.3704e+06	-49789.1	1005.82	-29757.8	0.000000	0.000000	7.165755	396.359	NaN	0.000000	0.001585	0.001733	28.0804	92.4747	0.001732	53397.6	6.294795	169.31	389.696	1.148811	0.089885	0.089598	396.359	53397.6	0.084318	0.227157	1744.87	102360
546	2.000000	1.151258	7.3704e+06	-49789.1	1005.82	-29757.8	0.000000	0.000000	7.168549	411.762	NaN	0.000000	0.001619	0.001737	28.0805	93.6039	0.001733	54003	4.495358	171.331	413.447	1.150900	0.092045	0.091687	411.762	54003	0.086327	0.236772	1739.07	101397
546	2.000000	1.153165	7.3704e+06	-49789.1	1005.82	-29757.8	0.000000	0.000000	7.171226	430.512	NaN	0.000000	0.001621	0.001722	28.0804	96.6231	0.001850	52231.9	4.376631	172.069	427.803	1.152799	0.093952	0.093586	430.512	52231.9	0.087770	0.243794	1765.89	96649.1
546	2.000000	1.155202	7.3704e+06	-49789.1	1005.82	-29757.8	0.000000	0.000000	7.173902	446.025	NaN	0.000000	0.001684	0.001723	28.0804	97.9722	0.001883	52033.5	5.522274	171.316	442.599	1.154743	0.095989	0.095531	446.025	52033.5	0.089560	0.252635	1765.49	94582.1
546	2.000000	1.157113	7.3704e+06	-49789.1	1005.82	-29757.8	0.000000	0.000000	7.176363	459.424	NaN	0.000000	0.001684	0.001724	28.0808	99.7192	0.001808	55160.8	7.656778	167.942	453.995	1.156868	0.097900	0.097656	459.424	55160.8	0.091653	0.263159	1745.81	98241.4
546	2.000000	1.159193	7.3704e+06	-49789.1	1005.82	-29757.8	0.000000	0.000000	7.179234	478.659	NaN	0.000000	0.001690	0.001776	28.0804	102.887	0.001865	55173.9	4.063700	171.64	475.564	1.158911	0.099980	0.099699	478.659	55173.9	0.093473	0.272475	1756.71	96570.3
546	2.000000	1.161140	7.3704e+06	-49789.1	1005.82	-29757.8	0.000000	0.000000	7.181908	496.336	NaN	0.000000	0.001609	0.001733	28.0807	103.565	0.001873	55289.7	5.500214	170.131	490.004	1.160765	0.101927	0.101552	496.336	55289.7	0.095194	0.281421	1763.68	95222.4
546	2.000000	1.163147	7.3704e+06	-49789.1	1005.82	-29757.8	0.000000	0.000000	7.184414	508.45	NaN	0.000000	0.001607	0.001729	28.0806	105.429	0.001803	58488.2	2.963453	171.987	504.349	1.162864	0.103934	0.103652	508.45	58488.2	0.097415	0.293163	1734.36	98693.2