File: remote_trans/data/nanoindenter/0828-1/data/Data_2025-08-06,11h17m57s/2025-07-22_16-23-58_1_193.txt
2025-07-22, 16:23:58, 1
Index	Phase	Displacement	Time	Pos X	Pos Y	Pos Z	Rot A	Rot B	Piezo Z	Force A	Force B	Gripper	Voltage A	Voltage B	Temperature	Amplitude force	Amplitude pos	Stiffness	Phase shift	Phase excitation	Force A raw	Displacement raw	HMax	HMax raw	Real Force	Real Stiffness	Contact Depth	Area	Hardness	Reduced Mod.
[#]	[#]	[um]	[s]	[um]	[um]	[um]	[m°]	[m°]	[um]	[uN]	[uN]	[V]	[V]	[V]	[°C]	[uN]	[um]	[N/m]	[°]	[°]	[uN]	[um]	[um]	[um]	[uN]	[N/m]	[um]	[um^2]	[MPa]	[MPa]
193	1.000000	0.001936	7.36693e+06	-48289.1	955.819	-29763.2	0.000000	0.000000	6.002785	-0.013258	NaN	0.000000	0.001622	0.001711	28.0775	0.013155	0.000967	13.5972	-20.3893	-168.922	0.008517	0.000661	-1.156815	-1.158089	-0.013258	13.5972	-1.156084	-2.833826E+15	4.678470E-18	NaN
193	1.000000	0.012022	7.36693e+06	-48289.1	955.818	-29763.2	0.000000	0.000000	6.012871	-0.032671	NaN	0.000000	0.001623	0.001714	28.0776	0.103956	0.001298	80.1001	-12.1174	14.9213	-0.021175	0.010575	-1.146729	-1.148175	-0.032671	80.1001	-1.146423	-2.103088E+15	1.553465E-17	NaN
193	1.000000	0.021920	7.36693e+06	-48289.1	955.818	-29763.2	0.000000	0.000000	6.022770	0.005283	NaN	0.000000	0.001608	0.001741	28.0776	0.046980	0.001921	24.4614	130.392	-163.587	-0.082809	0.020578	-1.136831	-1.138172	0.005283	24.4614	-1.136993	-1.571843E+15	-3.361108E-18	NaN
193	1.000000	0.031906	7.36693e+06	-48289.1	955.818	-29763.2	0.000000	0.000000	6.032755	-0.022525	NaN	0.000000	0.001643	0.001701	28.0775	0.079386	0.001878	42.2655	69.177	13.6668	0.040753	0.030513	-1.126844	-1.128238	-0.022525	42.2655	-1.126444	-1.134822E+15	1.984881E-17	NaN
193	1.000000	0.041932	7.36693e+06	-48289.1	955.818	-29763.2	0.000000	0.000000	6.042785	0.076058	NaN	0.000000	0.001630	0.001736	28.0778	0.117390	0.002105	55.7674	42.7782	-163.449	0.135366	0.040580	-1.116818	-1.118171	0.076058	55.7674	-1.117841	-8.699777E+14	-8.742563E-17	NaN
193	1.000000	0.051916	7.36693e+06	-48289.1	955.818	-29763.2	0.000000	0.000000	6.052766	-0.017537	NaN	0.000000	0.001635	0.001722	28.0779	0.106592	0.001994	53.4672	-105.933	15.0005	-0.020682	0.050534	-1.106834	-1.108216	-0.017537	53.4672	-1.106588	-6.144666E+14	2.853961E-17	NaN
193	1.000000	0.061917	7.36693e+06	-48289.1	955.818	-29763.2	0.000000	0.000000	6.062766	-0.043294	NaN	0.000000	0.001615	0.001684	28.0774	0.066230	0.002050	32.3149	-139.991	-164.529	0.029503	0.060623	-1.096833	-1.098128	-0.043294	32.3149	-1.095828	-4.406191E+14	9.825831E-17	NaN
193	1.000000	0.071891	7.36693e+06	-48289.1	955.818	-29763.2	0.000000	0.000000	6.072743	0.029592	NaN	0.000000	0.001562	0.001678	28.0776	0.045671	0.002010	22.7168	126.428	12.4168	-0.001787	0.070512	-1.086859	-1.088239	0.029592	22.7168	-1.087836	-3.441568E+14	-8.598308E-17	NaN
193	1.000000	0.081900	7.36693e+06	-48289.1	955.818	-29763.2	0.000000	0.000000	6.082750	-0.007302	NaN	0.000000	0.001580	0.001684	28.0775	0.106868	0.002026	52.7483	-90.7196	-164.696	0.034991	0.080581	-1.076851	-1.078170	-0.007302	52.7483	-1.076747	-2.442429E+14	2.989663E-17	NaN
193	1.000000	0.091924	7.36693e+06	-48289.1	955.819	-29763.2	0.000000	0.000000	6.092774	-0.005705	NaN	0.000000	0.001546	0.001695	28.0784	0.111004	0.002038	54.4684	102.206	12.9189	0.041478	0.090581	-1.066827	-1.068169	-0.005705	54.4684	-1.066748	-1.792655E+14	3.182614E-17	NaN
193	1.000000	0.101913	7.36693e+06	-48289.1	955.818	-29763.2	0.000000	0.000000	6.102762	-0.024207	NaN	0.000000	0.001531	0.001703	28.0776	0.087990	0.001882	46.7637	-98.3409	-166.907	-0.038235	0.100627	-1.056837	-1.058123	-0.024207	46.7637	-1.056449	-1.303470E+14	1.857144E-16	NaN
193	1.000000	0.111916	7.36693e+06	-48289.1	955.818	-29763.2	0.000000	0.000000	6.112767	0.019622	NaN	0.000000	0.001523	0.001668	28.0775	0.015428	0.001937	7.963053	-149.345	12.2085	-0.007021	0.110575	-1.046835	-1.048175	0.019622	7.963053	-1.048683	-1.024955E+14	-1.914385E-16	NaN
193	1.000000	0.121892	7.36693e+06	-48289.1	955.82	-29763.2	0.000000	0.000000	6.122744	0.051116	NaN	0.000000	0.001527	0.001680	28.0788	0.080644	0.001983	40.6628	-81.6937	-163.651	0.015678	0.120663	-1.036858	-1.038087	0.051116	40.6628	-1.037801	-7.318107E+13	-6.984898E-16	NaN
193	1.000000	0.131940	7.36693e+06	-48289.1	955.818	-29763.2	0.000000	0.000000	6.132793	0.075091	NaN	0.000000	0.001548	0.001714	28.0786	0.082858	0.001967	42.1307	142.479	15.8486	0.015527	0.130644	-1.026811	-1.028106	0.075091	42.1307	-1.028148	-5.427062E+13	-1.383648E-15	NaN
193	1.000000	0.141949	7.36693e+06	-48289.1	955.818	-29763.2	0.000000	0.000000	6.142799	0.007281	NaN	0.000000	0.001573	0.001687	28.0787	0.054468	0.001957	27.8257	-53.9163	-168.445	0.018360	0.140658	-1.016801	-1.018093	0.007281	27.8257	-1.016998	-3.841966E+13	-1.895223E-16	NaN
193	1.000000	0.151932	7.36693e+06	-48289.1	955.817	-29763.2	0.000000	0.000000	6.152784	0.057869	NaN	0.000000	0.001579	0.001668	28.0788	0.033438	0.002026	16.5069	58.4025	12.473	-0.020566	0.150673	-1.006819	-1.008077	0.057869	16.5069	-1.009448	-3.040572E+13	-1.903244E-15	NaN
193	1.000000	0.161954	7.36693e+06	-48289.1	955.82	-29763.2	0.000000	0.000000	6.162805	0.009624	NaN	0.000000	0.001630	0.001710	28.0786	0.071628	0.001911	37.4818	-124.497	-162.562	-0.023961	0.160645	-0.996796	-0.998106	0.009624	37.4818	-0.996989	-2.066446E+13	-4.657334E-16	NaN
193	1.000000	0.171951	7.36693e+06	-48289.1	955.818	-29763.2	0.000000	0.000000	6.172801	0.001057	NaN	0.000000	0.001555	0.001720	28.0787	0.058249	0.001969	29.5829	77.9894	19.6384	0.045375	0.170587	-0.986799	-0.988163	0.001057	29.5829	-0.986826	-1.507867E+13	-7.009126E-17	NaN
193	1.000000	0.181946	7.36693e+06	-48289.1	955.818	-29763.2	0.000000	0.000000	6.182797	0.021889	NaN	0.000000	0.001608	0.001709	28.0783	0.045872	0.001993	23.0116	113.377	-165.375	0.035032	0.180653	-0.976805	-0.978097	0.021889	23.0116	-0.977518	-1.129717E+13	-1.937569E-15	NaN
193	1.000000	0.191940	7.36693e+06	-48289.1	955.818	-29763.2	0.000000	0.000000	6.192792	0.050026	NaN	0.000000	0.001615	0.001671	28.0784	0.104505	0.002018	51.7888	42.0063	14.5132	0.038467	0.190565	-0.966810	-0.968185	0.050026	51.7888	-0.967535	-8.287778E+12	-6.036166E-15	NaN
193	1.000000	0.201960	7.36693e+06	-48289.1	955.818	-29763.2	0.000000	0.000000	6.202811	0.016953	NaN	0.000000	0.001624	0.001691	28.0785	0.010268	0.002002	5.129775	-54.9537	-164.292	0.060526	0.200655	-0.956790	-0.958095	0.016953	5.129775	-0.959269	-6.412288E+12	-2.643846E-15	NaN
193	1.000000	0.211975	7.36693e+06	-48289.1	955.818	-29763.2	0.000000	0.000000	6.212827	0.042220	NaN	0.000000	0.001597	0.001713	28.0786	0.039905	0.002065	19.3288	-158.458	13.2472	0.016439	0.210638	-0.946775	-0.948113	0.042220	19.3288	-0.948413	-4.577485E+12	-9.223464E-15	NaN
193	1.000000	0.221991	7.36693e+06	-48289.1	955.818	-29763.2	0.000000	0.000000	6.222841	0.001709	NaN	0.000000	0.001598	0.001754	28.0787	0.048277	0.002000	24.1396	96.7684	-168.586	-0.046807	0.220618	-0.936760	-0.938132	0.001709	24.1396	-0.936813	-3.192525E+12	-5.352141E-16	NaN
193	1.000000	0.231944	7.36693e+06	-48289.1	955.819	-29763.2	0.000000	0.000000	6.232793	-0.025010	NaN	0.000000	0.001641	0.001705	28.0784	0.069316	0.001908	36.3387	67.703	18.6604	0.034360	0.230655	-0.926807	-0.928096	-0.025010	36.3387	-0.926291	-2.302135E+12	1.086366E-14	NaN
193	1.000000	0.241993	7.36693e+06	-48289.1	955.818	-29763.2	0.000000	0.000000	6.242846	0.089998	NaN	0.000000	0.001530	0.001696	28.0784	0.072403	0.002017	35.8935	-10.6486	-168.204	0.033749	0.240667	-0.916758	-0.918084	0.089998	35.8935	-0.918638	-1.814768E+12	-4.959193E-14	NaN
193	1.000000	0.251984	7.36693e+06	-48289.1	955.818	-29763.2	0.000000	0.000000	6.252836	0.038571	NaN	0.000000	0.001531	0.001700	28.0784	0.047911	0.002029	23.6184	-29.321	13.1171	0.005213	0.250681	-0.906766	-0.908069	0.038571	23.6184	-0.907991	-1.303238E+12	-2.959626E-14	NaN
193	1.000000	0.262008	7.36693e+06	-48289.1	955.82	-29763.2	0.000000	0.000000	6.262858	0.000378	NaN	0.000000	0.001562	0.001659	28.0775	0.036406	0.001941	18.7592	-43.0953	-164.058	0.116370	0.260693	-0.896742	-0.898057	0.000378	18.7592	-0.896757	-9.188601E+11	-4.119076E-16	NaN
193	1.000000	0.272008	7.36693e+06	-48289.1	955.819	-29763.2	0.000000	0.000000	6.272859	0.028928	NaN	0.000000	0.001563	0.001666	28.0772	0.089524	0.001913	46.8041	113.868	14.2882	0.027496	0.270584	-0.886743	-0.888167	0.028928	46.8041	-0.887206	-6.825696E+11	-4.238154E-14	NaN
193	1.000000	0.281993	7.36693e+06	-48289.1	955.818	-29763.2	0.000000	0.000000	6.282843	-0.007018	NaN	0.000000	0.001605	0.001683	28.0772	0.200546	0.002091	95.8886	131.309	-166.379	0.018133	0.280696	-0.876757	-0.878055	-0.007018	95.8886	-0.876702	-4.921604E+11	1.425902E-14	NaN
193	1.000000	0.291989	7.36693e+06	-48289.1	955.818	-29763.2	0.000000	0.000000	6.292838	-0.014621	NaN	0.000000	0.001549	0.001702	28.0775	0.034133	0.002059	16.5738	-115.349	14.1764	-0.009939	0.290607	-0.866762	-0.868144	-0.014621	16.5738	-0.866100	-3.537333E+11	4.133440E-14	NaN
193	1.000000	0.302006	7.36693e+06	-48289.1	955.819	-29763.2	0.000000	0.000000	6.302856	0.008407	NaN	0.000000	0.001545	0.001681	28.0775	0.052443	0.002021	25.9459	-67.4751	-166.059	-0.048750	0.300689	-0.856745	-0.858062	0.008407	25.9459	-0.856988	-2.662861E+11	-3.156985E-14	NaN
193	1.000000	0.312021	7.36693e+06	-48289.1	955.819	-29763.2	0.000000	0.000000	6.312871	0.006028	NaN	0.000000	0.001583	0.001682	28.0772	0.107317	0.002070	51.8407	122.872	17.072	-0.009800	0.310660	-0.846730	-0.848090	0.006028	51.8407	-0.846817	-1.939254E+11	-3.108598E-14	NaN
193	1.000000	0.321975	7.36693e+06	-48289.1	955.819	-29763.2	0.000000	0.000000	6.322827	0.060747	NaN	0.000000	0.001617	0.001702	28.0773	0.068159	0.001954	34.886	177.618	-165.594	0.031928	0.320680	-0.836776	-0.838070	0.060747	34.886	-0.838082	-1.476736E+11	-4.113597E-13	NaN
193	1.000000	0.332012	7.36693e+06	-48289.1	955.818	-29763.2	0.000000	0.000000	6.332862	0.011809	NaN	0.000000	0.001579	0.001711	28.0772	0.016522	0.001853	8.916628	143.997	13.5402	-0.011227	0.330644	-0.826739	-0.828106	0.011809	8.916628	-0.827732	-1.069159E+11	-1.104490E-13	NaN
193	1.000000	0.342041	7.36693e+06	-48289.1	955.819	-29763.2	0.000000	0.000000	6.342893	0.037842	NaN	0.000000	0.001563	0.001739	28.0775	0.152598	0.002059	74.0958	150.161	-164.348	0.050315	0.340713	-0.816709	-0.818037	0.037842	74.0958	-0.817092	-7.669722E+10	-4.933974E-13	NaN
193	1.000000	0.352019	7.36693e+06	-48289.1	955.818	-29763.2	0.000000	0.000000	6.352871	0.055227	NaN	0.000000	0.001566	0.001687	28.0772	0.090026	0.002085	43.1699	157.11	12.2261	0.091753	0.350646	-0.806731	-0.808104	0.055227	43.1699	-0.807691	-5.717957E+10	-9.658516E-13	NaN
193	1.000000	0.362019	7.36693e+06	-48289.1	955.818	-29763.2	0.000000	0.000000	6.362868	-0.037781	NaN	0.000000	0.001584	0.001709	28.0771	0.023546	0.001903	12.3702	84.644	-163.939	-0.042113	0.360748	-0.796731	-0.798002	-0.037781	12.3702	-0.794440	-3.779058E+10	9.997482E-13	NaN
193	1.000000	0.372054	7.36693e+06	-48289.1	955.819	-29763.2	0.000000	0.000000	6.372905	0.018153	NaN	0.000000	0.001644	0.001708	28.077	0.078002	0.001946	40.0815	106.581	13.2907	-0.014885	0.370660	-0.786696	-0.788091	0.018153	40.0815	-0.787036	-2.997956E+10	-6.055171E-13	NaN
193	1.000000	0.382059	7.36693e+06	-48289.1	955.818	-29763.2	0.000000	0.000000	6.382908	-0.013212	NaN	0.000000	0.001583	0.001686	28.077	0.030330	0.001949	15.5644	-178.471	-162.674	0.047993	0.380695	-0.776691	-0.778055	-0.013212	15.5644	-0.776055	-2.126256E+10	6.213642E-13	NaN
193	1.000000	0.392042	7.36693e+06	-48289.1	955.819	-29763.2	0.000000	0.000000	6.392892	0.010479	NaN	0.000000	0.001582	0.001677	28.0772	0.066181	0.002072	31.933	164.008	12.5661	0.075162	0.390658	-0.766709	-0.768092	0.010479	31.933	-0.766955	-1.599179E+10	-6.552494E-13	NaN
193	1.000000	0.402048	7.36693e+06	-48289.1	955.818	-29763.2	0.000000	0.000000	6.402896	-0.052232	NaN	0.000000	0.001561	0.001733	28.0782	0.073860	0.001915	38.5651	-138.659	-167.054	-0.041832	0.400746	-0.756702	-0.758005	-0.052232	38.5651	-0.755687	-1.123609E+10	4.648612E-12	NaN
193	1.000000	0.412056	7.36693e+06	-48289.1	955.819	-29763.2	0.000000	0.000000	6.412907	0.016122	NaN	0.000000	0.001617	0.001689	28.0784	0.117944	0.002046	57.6436	117.373	15.8955	0.026800	0.410730	-0.746694	-0.748021	0.016122	57.6436	-0.746904	-8.532404E+9	-1.889499E-12	NaN
193	1.000000	0.422066	7.36693e+06	-48289.1	955.818	-29763.2	0.000000	0.000000	6.422915	-0.030270	NaN	0.000000	0.001600	0.001725	28.0782	0.172552	0.002036	84.7496	-37.6045	-163.549	0.009130	0.420776	-0.736684	-0.737974	-0.030270	84.7496	-0.736416	-6.141023E+9	4.929222E-12	NaN
193	1.000000	0.432058	7.36693e+06	-48289.1	955.819	-29763.2	0.000000	0.000000	6.432912	0.099972	NaN	0.000000	0.001614	0.001712	28.0783	0.086575	0.001907	45.4057	-41.4187	16.2653	0.052290	0.430716	-0.726692	-0.728035	0.099972	45.4057	-0.728344	-4.766857E+9	-2.097222E-11	NaN
193	1.000000	0.442067	7.36693e+06	-48289.1	955.819	-29763.2	0.000000	0.000000	6.442915	-0.049054	NaN	0.000000	0.001650	0.001735	28.0784	0.084159	0.001965	42.8204	57.7327	-162.025	-0.034138	0.440760	-0.716684	-0.717990	-0.049054	42.8204	-0.715825	-3.217518E+9	1.524581E-11	NaN
193	1.000000	0.452080	7.36693e+06	-48289.1	955.818	-29763.2	0.000000	0.000000	6.452929	-0.038702	NaN	0.000000	0.001607	0.001731	28.0786	0.058833	0.002140	27.4917	-4.368109	12.6589	0.048022	0.450748	-0.706670	-0.708002	-0.038702	27.4917	-0.705615	-2.334485E+9	1.657832E-11	NaN
193	1.000000	0.462071	7.36693e+06	-48289.1	955.819	-29763.2	0.000000	0.000000	6.462924	0.056632	NaN	0.000000	0.001671	0.001738	28.0784	0.082968	0.001851	44.8132	-102.166	-163.93	0.086636	0.460775	-0.696679	-0.697975	0.056632	44.8132	-0.697627	-1.816020E+9	-3.118477E-11	NaN
193	1.000000	0.472076	7.36693e+06	-48289.1	955.819	-29763.2	0.000000	0.000000	6.472925	-0.032244	NaN	0.000000	0.001600	0.001696	28.0785	0.011070	0.002052	5.395133	-103.773	10.5002	-0.004458	0.470704	-0.686674	-0.688046	-0.032244	5.395133	-0.682192	-1.117334E+9	2.885773E-11	NaN
193	1.000000	0.482099	7.36693e+06	-48289.1	955.819	-29763.2	0.000000	0.000000	6.482948	-0.024279	NaN	0.000000	0.001660	0.001734	28.0785	0.009989	0.001903	5.248883	140.256	-166.455	-0.034920	0.480742	-0.676651	-0.678008	-0.024279	5.248883	-0.673182	-8.412787E+8	2.885977E-11	NaN
193	1.000000	0.492091	7.36693e+06	-48289.1	955.818	-29763.2	0.000000	0.000000	6.492942	0.017746	NaN	0.000000	0.001634	0.001707	28.0785	0.059954	0.002175	27.5664	94.8418	17.8672	0.003299	0.490706	-0.666660	-0.668045	0.017746	27.5664	-0.667142	-6.954638E+8	-2.551685E-11	NaN
193	1.000000	0.502101	7.36693e+06	-48289.1	955.818	-29763.2	0.000000	0.000000	6.502954	0.060746	NaN	0.000000	0.001629	0.001722	28.0784	0.058798	0.002058	28.5691	-68.2249	-166.519	0.074637	0.500815	-0.656649	-0.657936	0.060746	28.5691	-0.658244	-5.253035E+8	-1.156403E-10	NaN
193	1.000000	0.512075	7.36693e+06	-48289.1	955.818	-29763.2	0.000000	0.000000	6.512923	-0.040381	NaN	0.000000	0.001634	0.001732	28.0788	0.016235	0.002064	7.865228	-136.486	12.7179	-0.020067	0.510758	-0.646675	-0.647992	-0.040381	7.865228	-0.642825	-3.228807E+8	1.250659E-10	NaN
193	1.000000	0.522095	7.36693e+06	-48289.1	955.819	-29763.2	0.000000	0.000000	6.522945	0.003257	NaN	0.000000	0.001674	0.001735	28.0786	0.017287	0.001955	8.844184	-107.757	-163.854	0.033325	0.520825	-0.636655	-0.637925	0.003257	8.844184	-0.636932	-2.680308E+8	-1.215065E-11	NaN
193	1.000000	0.532106	7.36693e+06	-48289.1	955.819	-29763.2	0.000000	0.000000	6.532953	-0.068692	NaN	0.000000	0.001656	0.001679	28.0768	0.023368	0.001999	11.6871	168.853	17.8334	0.017799	0.530727	-0.626644	-0.628024	-0.068692	11.6871	-0.622236	-1.684086E+8	4.078897E-10	NaN
193	1.000000	0.542084	7.36693e+06	-48289.1	955.818	-29763.2	0.000000	0.000000	6.542933	-0.012373	NaN	0.000000	0.001651	0.001727	28.0769	0.113070	0.002058	54.9316	122.332	-163.58	-0.079860	0.540826	-0.616667	-0.617925	-0.012373	54.9316	-0.616498	-1.404393E+8	8.810253E-11	NaN
193	1.000000	0.552110	7.36693e+06	-48289.1	955.818	-29763.2	0.000000	0.000000	6.552960	0.014431	NaN	0.000000	0.001652	0.001720	28.0772	0.029874	0.001902	15.7053	165.823	15.7145	-0.052425	0.550706	-0.606641	-0.608044	0.014431	15.7053	-0.607330	-1.050442E+8	-1.373803E-10	NaN
193	1.000000	0.562075	7.36693e+06	-48289.1	955.819	-29763.2	0.000000	0.000000	6.562923	-0.051597	NaN	0.000000	0.001643	0.001684	28.0771	0.083685	0.002026	41.3028	5.695619	-163.102	0.004813	0.560851	-0.596675	-0.597900	-0.051597	41.3028	-0.595738	-7.273692E+7	7.093687E-10	NaN
193	1.000000	0.572123	7.36693e+06	-48289.1	955.818	-29763.2	0.000000	0.000000	6.572971	-0.063182	NaN	0.000000	0.001634	0.001691	28.0774	0.033825	0.002025	16.7069	177.467	12.4782	-0.024085	0.570766	-0.586627	-0.587985	-0.063182	16.7069	-0.583791	-4.977760E+7	1.269291E-9	NaN
193	1.000000	0.582123	7.36693e+06	-48289.1	955.818	-29763.2	0.000000	0.000000	6.582971	-0.041483	NaN	0.000000	0.001639	0.001664	28.0769	0.010518	0.002034	5.171308	172.953	-164.867	-0.027156	0.580821	-0.576628	-0.577930	-0.041483	5.171308	-0.570612	-3.274023E+7	1.267038E-9	NaN
193	1.000000	0.592109	7.36693e+06	-48289.1	955.818	-29763.2	0.000000	0.000000	6.592958	-0.016630	NaN	0.000000	0.001635	0.001678	28.0773	0.048285	0.001949	24.7738	10.022	15.5741	0.017636	0.590728	-0.566641	-0.568023	-0.016630	24.7738	-0.566138	-2.839608E+7	5.856351E-10	NaN
193	1.000000	0.602156	7.36693e+06	-48289.1	955.818	-29763.2	0.000000	0.000000	6.603005	-0.026762	NaN	0.000000	0.001661	0.001705	28.077	0.034590	0.001966	17.594	22.1516	-164.312	0.048882	0.600849	-0.556595	-0.557901	-0.026762	17.594	-0.555454	-2.020545E+7	1.324516E-9	NaN
193	1.000000	0.612138	7.36693e+06	-48289.1	955.818	-29763.2	0.000000	0.000000	6.612989	0.033825	NaN	0.000000	0.001641	0.001716	28.0772	0.077599	0.002017	38.4706	-57.7224	12.0687	0.045421	0.610758	-0.546613	-0.547993	0.033825	38.4706	-0.547272	-1.556561E+7	-2.173028E-9	NaN
193	1.000000	0.622131	7.36693e+06	-48289.1	955.817	-29763.2	0.000000	0.000000	6.622982	0.017235	NaN	0.000000	0.001650	0.001742	28.0771	0.048775	0.002004	24.3341	-125.858	-164.284	0.010076	0.620812	-0.536619	-0.537939	0.017235	24.3341	-0.537150	-1.126755E+7	-1.529654E-9	NaN
193	1.000000	0.632151	7.36693e+06	-48289.1	955.819	-29763.2	0.000000	0.000000	6.632999	-0.031526	NaN	0.000000	0.001626	0.001671	28.0774	0.028917	0.001947	14.8492	-145.713	12.6594	-0.004772	0.630772	-0.526600	-0.527978	-0.031526	14.8492	-0.525007	-7.64212e+06	4.125302E-9	NaN
193	1.000000	0.642178	7.36693e+06	-48289.1	955.818	-29763.2	0.000000	0.000000	6.643030	0.040199	NaN	0.000000	0.001655	0.001655	28.0773	0.036604	0.002041	17.9381	-56.892	-163.543	0.035356	0.640833	-0.516572	-0.517918	0.040199	17.9381	-0.518253	-6.15601e+06	-6.530080E-9	NaN
193	1.000000	0.652147	7.36693e+06	-48289.1	955.819	-29763.2	0.000000	0.000000	6.652993	-0.091634	NaN	0.000000	0.001630	0.001628	28.0775	0.066123	0.002035	32.4948	24.8163	17.9381	-0.058136	0.650796	-0.506604	-0.507955	-0.091634	32.4948	-0.504489	-3.95929e+06	2.314407E-8	NaN
193	1.000000	0.662168	7.36693e+06	-48289.1	955.818	-29763.2	0.000000	0.000000	6.663019	0.018629	NaN	0.000000	0.001580	0.001640	28.0774	0.034721	0.002175	15.9606	-147.407	-166.403	0.001867	0.660867	-0.496582	-0.497883	0.018629	15.9606	-0.497458	-3.15897e+06	-5.897193E-9	NaN
193	1.000000	0.672175	7.36693e+06	-48289.1	955.818	-29763.2	0.000000	0.000000	6.673023	-0.032858	NaN	0.000000	0.001602	0.001634	28.0788	0.054563	0.002064	26.4329	-174.61	14.444	-0.116880	0.670833	-0.486576	-0.487918	-0.032858	26.4329	-0.485643	-2.16018e+06	1.521057E-8	NaN
193	1.000000	0.682156	7.36693e+06	-48289.1	955.818	-29763.2	0.000000	0.000000	6.683003	-0.072444	NaN	0.000000	0.001558	0.001623	28.0785	0.086038	0.002147	40.0765	-100.603	-166.036	-0.024560	0.680835	-0.476595	-0.477915	-0.072444	40.0765	-0.475239	-1.54473e+06	4.689736E-8	NaN
193	1.000000	0.692168	7.36693e+06	-48289.1	955.818	-29763.2	0.000000	0.000000	6.693019	0.021256	NaN	0.000000	0.001540	0.001641	28.0785	0.034182	0.002042	16.7392	-30.0212	15.1356	0.019830	0.690845	-0.466582	-0.467906	0.021256	16.7392	-0.467535	-1.20454e+06	-1.764664E-8	NaN
193	1.000000	0.702192	7.36693e+06	-48289.1	955.819	-29763.2	0.000000	0.000000	6.703042	0.018115	NaN	0.000000	0.001539	0.001640	28.0787	0.065350	0.001958	33.3789	103.879	-164.467	-0.037833	0.700855	-0.456559	-0.457895	0.018115	33.3789	-0.456966	-855788	-2.116800E-8	NaN
193	1.000000	0.712185	7.36693e+06	-48289.1	955.818	-29763.2	0.000000	0.000000	6.713032	-0.060872	NaN	0.000000	0.001567	0.001636	28.0786	0.066497	0.002124	31.3044	27.0478	13.5453	-0.011633	0.710805	-0.446566	-0.447946	-0.060872	31.3044	-0.445107	-582643	1.044764E-7	NaN
193	1.000000	0.722209	7.36693e+06	-48289.1	955.819	-29763.2	0.000000	0.000000	6.723059	0.000484	NaN	0.000000	0.001526	0.001640	28.0787	0.148354	0.001993	74.4425	-67.7511	-164.918	-0.072743	0.720889	-0.436542	-0.437861	0.000484	74.4425	-0.436547	-441171	-1.096572E-9	NaN
193	1.000000	0.732212	7.36693e+06	-48289.1	955.818	-29763.2	0.000000	0.000000	6.733062	-0.006561	NaN	0.000000	0.001609	0.001671	28.0784	0.126976	0.001942	65.3972	146.077	15.3803	-0.084624	0.730878	-0.426538	-0.427872	-0.006561	65.3972	-0.426463	-317690	2.065186E-8	NaN
193	1.000000	0.742196	7.36693e+06	-48289.1	955.818	-29763.2	0.000000	0.000000	6.743041	-0.112378	NaN	0.000000	0.001560	0.001655	28.0788	0.034217	0.002047	16.7196	125.893	-162.934	-0.016121	0.740966	-0.416554	-0.417785	-0.112378	16.7196	-0.411513	-194947	5.764533E-7	NaN
193	1.000000	0.752194	7.36693e+06	-48289.1	955.82	-29763.2	0.000000	0.000000	6.753043	-0.027762	NaN	0.000000	0.001563	0.001627	28.0785	0.039952	0.001895	21.0882	-24.9488	16.8124	-0.037106	0.750792	-0.406557	-0.407959	-0.027762	21.0882	-0.405569	-160456	1.730216E-7	NaN
193	1.000000	0.762199	7.36693e+06	-48289.1	955.819	-29763.2	0.000000	0.000000	6.763046	-0.065686	NaN	0.000000	0.001577	0.001611	28.0787	0.004105	0.002155	1.904579	-139.597	-163.822	0.015448	0.760868	-0.396552	-0.397882	-0.065686	1.904579	-0.370686	-50816	1.292616E-6	NaN
193	1.000000	0.772230	7.36693e+06	-48289.1	955.818	-29763.2	0.000000	0.000000	6.773078	-0.040345	NaN	0.000000	0.001667	0.001668	28.0785	0.064720	0.001934	33.4589	-64.0607	13.0386	-0.020851	0.770826	-0.386521	-0.387925	-0.040345	33.4589	-0.385616	-83255.9	4.845927E-7	NaN
193	1.000000	0.782230	7.36693e+06	-48289.1	955.818	-29763.2	0.000000	0.000000	6.783078	-0.035111	NaN	0.000000	0.001622	0.001642	28.0788	0.060571	0.001922	31.5191	-44.5759	-164.509	-0.011056	0.780872	-0.376521	-0.377878	-0.035111	31.5191	-0.375685	-59967.9	5.854926E-7	NaN
193	1.000000	0.792219	7.36693e+06	-48289.1	955.819	-29763.2	0.000000	0.000000	6.793072	0.065587	NaN	0.000000	0.001628	0.001652	28.0785	0.136806	0.002003	68.2948	-175.738	16.2702	0.044305	0.790867	-0.366531	-0.367883	0.065587	68.2948	-0.367251	-45344.5	-1.446409E-6	NaN
193	1.000000	0.802213	7.36693e+06	-48289.1	955.819	-29763.2	0.000000	0.000000	6.803063	0.017470	NaN	0.000000	0.001637	0.001633	28.0781	0.074655	0.001764	42.3314	-161.843	-165.453	0.043410	0.800893	-0.356538	-0.357858	0.017470	42.3314	-0.356847	-32080.8	-5.445507E-7	NaN
193	1.000000	0.812235	7.36693e+06	-48289.1	955.818	-29763.2	0.000000	0.000000	6.813082	-0.063308	NaN	0.000000	0.001637	0.001631	28.0774	0.071334	0.002130	33.4893	140.555	16.968	-0.087670	0.810851	-0.346516	-0.347900	-0.063308	33.4893	-0.345098	-21666.1	2.921975E-6	NaN
193	1.000000	0.822227	7.36693e+06	-48289.1	955.817	-29763.2	0.000000	0.000000	6.823072	-0.119052	NaN	0.000000	0.001616	0.001638	28.0775	0.115639	0.001889	61.2023	30.6473	-166.031	-0.005808	0.820923	-0.336524	-0.337827	-0.119052	61.2023	-0.335065	-15471.7	7.694813E-6	NaN
193	1.000000	0.832242	7.36693e+06	-48289.1	955.819	-29763.2	0.000000	0.000000	6.833092	0.002592	NaN	0.000000	0.001633	0.001686	28.0772	0.040040	0.001942	20.6169	-58.7913	14.0833	0.017279	0.830859	-0.326509	-0.327891	0.002592	20.6169	-0.326603	-11632.1	-2.227965E-7	NaN
193	1.000000	0.842235	7.36693e+06	-48289.1	955.819	-29763.2	0.000000	0.000000	6.843087	0.039927	NaN	0.000000	0.001638	0.001640	28.0774	0.065637	0.002034	32.2652	-179.686	-165.223	0.078438	0.840898	-0.316515	-0.317852	0.039927	32.2652	-0.317443	-8530.68	-4.680399E-6	NaN
193	1.000000	0.852242	7.36693e+06	-48289.1	955.818	-29763.2	0.000000	0.000000	6.853089	-0.074893	NaN	0.000000	0.001642	0.001658	28.0772	0.093007	0.002098	44.329	71.0367	13.9785	-0.087695	0.850839	-0.306508	-0.307911	-0.074893	44.329	-0.305241	-5630.34	1.330162E-5	NaN
193	1.000000	0.862234	7.36693e+06	-48289.1	955.819	-29763.2	0.000000	0.000000	6.863086	0.037521	NaN	0.000000	0.001646	0.001654	28.0773	0.021669	0.001998	10.8466	86.0194	-165.97	0.030214	0.860889	-0.296516	-0.297861	0.037521	10.8466	-0.299111	-4564.49	-8.220210E-6	NaN
193	1.000000	0.872271	7.36693e+06	-48289.1	955.819	-29763.2	0.000000	0.000000	6.873120	-0.024259	NaN	0.000000	0.001658	0.001673	28.0771	0.029992	0.002083	14.399	-113.294	15.5639	0.016341	0.870852	-0.286480	-0.287899	-0.024259	14.399	-0.285216	-2828.26	8.577412E-6	NaN
193	1.000000	0.882245	7.36693e+06	-48289.1	955.819	-29763.2	0.000000	0.000000	6.883093	-0.041404	NaN	0.000000	0.001653	0.001608	28.0775	0.049394	0.002024	24.4038	144.488	-168.273	-0.044065	0.880998	-0.276505	-0.277753	-0.041404	24.4038	-0.275233	-1999.53	2.070669E-5	NaN
193	1.000000	0.892235	7.36693e+06	-48289.1	955.818	-29763.2	0.000000	0.000000	6.893082	-0.071800	NaN	0.000000	0.001632	0.001640	28.0772	0.098599	0.002028	48.6208	-175.307	11.9569	-0.006263	0.890878	-0.266516	-0.267873	-0.071800	48.6208	-0.265408	-1417.8	5.064204E-5	NaN
193	1.000000	0.902274	7.36694e+06	-48289.1	955.819	-29763.2	0.000000	0.000000	6.903124	-0.002634	NaN	0.000000	0.001582	0.001624	28.0773	0.039097	0.002052	19.0573	-66.9059	-168.907	0.023963	0.900964	-0.256477	-0.257786	-0.002634	19.0573	-0.256373	-1030.96	2.554649E-6	NaN
193	1.000000	0.912246	7.36694e+06	-48289.1	955.818	-29763.2	0.000000	0.000000	6.913095	-0.022391	NaN	0.000000	0.001570	0.001629	28.0772	0.069928	0.001859	37.6072	-95.7972	13.198	-0.105853	0.910912	-0.246505	-0.247838	-0.022391	37.6072	-0.246058	-714.316	3.134558E-5	NaN
193	1.000000	0.922280	7.36694e+06	-48289.1	955.819	-29763.2	0.000000	0.000000	6.923130	-0.002578	NaN	0.000000	0.001547	0.001666	28.0774	0.017268	0.001902	9.078366	-57.5457	-165.028	-0.008038	0.920946	-0.236470	-0.237805	-0.002578	9.078366	-0.236257	-502.32	5.131660E-6	NaN
193	1.000000	0.932243	7.36694e+06	-48289.1	955.818	-29763.2	0.000000	0.000000	6.933092	-0.024943	NaN	0.000000	0.001552	0.001627	28.0773	0.106511	0.002037	52.2758	57.4385	15.4121	0.012481	0.930931	-0.226507	-0.227819	-0.024943	52.2758	-0.226149	-347.997	7.167510E-5	NaN
193	1.000000	0.942252	7.36694e+06	-48289.1	955.818	-29763.2	0.000000	0.000000	6.943098	-0.115121	NaN	0.000000	0.001572	0.001649	28.0786	0.037042	0.001939	19.1002	133.068	-167.592	-0.137977	0.940968	-0.216498	-0.217782	-0.115121	19.1002	-0.211978	-206.445	0.000558	NaN
193	1.000000	0.952269	7.36694e+06	-48289.1	955.818	-29763.2	0.000000	0.000000	6.953120	0.009636	NaN	0.000000	0.001604	0.001647	28.0785	0.102979	0.001980	51.9996	106.32	11.3263	-0.033251	0.950874	-0.206481	-0.207876	0.009636	51.9996	-0.206620	-169.026	-5.701025E-5	NaN
193	1.000000	0.962275	7.36694e+06	-48289.1	955.819	-29763.2	0.000000	0.000000	6.963123	-0.041624	NaN	0.000000	0.001542	0.001635	28.0787	0.089961	0.001815	49.5749	98.5393	-166.106	-0.121496	0.960976	-0.196476	-0.197775	-0.041624	49.5749	-0.195846	-112.514	0.000370	NaN
193	1.000000	0.972328	7.36694e+06	-48289.1	955.818	-29763.2	0.000000	0.000000	6.973176	-0.046031	NaN	0.000000	0.001582	0.001653	28.0784	0.048920	0.001975	24.7655	-3.425849	16.0797	-0.052226	0.970914	-0.186422	-0.187836	-0.046031	24.7655	-0.185028	-74.2346	0.000620	NaN
193	1.000000	0.982306	7.36694e+06	-48289.1	955.819	-29763.2	0.000000	0.000000	6.983156	-0.001620	NaN	0.000000	0.001553	0.001679	28.0785	0.024902	0.002030	12.2656	-56.844	-165.299	0.028439	0.980955	-0.176444	-0.177796	-0.001620	12.2656	-0.176345	-52.8525	3.065048E-5	NaN
193	1.000000	0.992286	7.36694e+06	-48289.1	955.818	-29763.2	0.000000	0.000000	6.993132	-0.089701	NaN	0.000000	0.001581	0.001650	28.0785	0.053667	0.002079	25.8156	-125.761	15.9728	-0.067634	0.990944	-0.166465	-0.167806	-0.089701	25.8156	-0.163859	-32.0801	0.002796	NaN
193	1.000000	1.002311	7.36694e+06	-48289.1	955.818	-29763.2	0.000000	0.000000	7.003161	-0.008406	NaN	0.000000	0.001598	0.001676	28.0786	0.046720	0.002031	23.0014	76.4377	-165.327	-0.005710	1.000982	-0.156439	-0.157769	-0.008406	23.0014	-0.156165	-23.4163	0.000359	NaN
193	1.000000	1.012302	7.36694e+06	-48289.1	955.819	-29763.2	0.000000	0.000000	7.013154	0.030003	NaN	0.000000	0.001582	0.001646	28.0788	0.059271	0.001977	29.984	38.8066	17.4122	-0.049684	1.010915	-0.146448	-0.147836	0.030003	29.984	-0.147198	-16.0957	-0.001864	NaN
193	1.000000	1.022320	7.36694e+06	-48289.1	955.819	-29763.2	0.000000	0.000000	7.023169	-0.031613	NaN	0.000000	0.001583	0.001644	28.0785	0.103171	0.001989	51.8633	132.99	-164.835	-0.036946	1.020990	-0.136431	-0.137760	-0.031613	51.8633	-0.135973	-9.927591	0.003184	NaN
193	1.000000	1.032305	7.36694e+06	-48289.1	955.818	-29763.2	0.000000	0.000000	7.033153	-0.045318	NaN	0.000000	0.001586	0.001647	28.0788	0.051292	0.002002	25.6194	-126.861	17.5731	-0.065929	1.030957	-0.126445	-0.127793	-0.045318	25.6194	-0.125119	-6.114243	0.007412	NaN
193	1.000000	1.042332	7.36694e+06	-48289.1	955.82	-29763.2	0.000000	0.000000	7.043181	-0.038013	NaN	0.000000	0.001540	0.001626	28.0785	0.075337	0.002028	37.146	-160.025	-167.377	-0.110465	1.040927	-0.116418	-0.117823	-0.038013	37.146	-0.115651	-3.940018	0.009648	NaN
193	1.000000	1.052315	7.36694e+06	-48289.1	955.819	-29763.2	0.000000	0.000000	7.053169	0.108038	NaN	0.000000	0.001578	0.001640	28.0786	0.061151	0.001943	31.4686	147.396	13.9242	0.090612	1.051028	-0.106436	-0.107722	0.108038	31.4686	-0.109011	-2.863944	-0.037724	NaN
193	1.000000	1.062360	7.36694e+06	-48289.1	955.82	-29763.2	0.000000	0.000000	7.063209	-0.022305	NaN	0.000000	0.001571	0.001660	28.0784	0.058186	0.002085	27.9042	-91.4299	-163.995	0.078805	1.061059	-0.096391	-0.097692	-0.022305	27.9042	-0.095791	-1.470291	0.015170	NaN
193	1.000000	1.072350	7.36694e+06	-48289.1	955.82	-29763.2	0.000000	0.000000	7.073200	0.001780	NaN	0.000000	0.001575	0.001650	28.079	0.029726	0.001960	15.1677	127.92	13.0539	0.046175	1.070942	-0.086401	-0.087808	0.001780	15.1677	-0.086489	-0.892357	-0.001995	NaN
193	1.000000	1.082352	7.36694e+06	-48289.1	955.82	-29763.2	0.000000	0.000000	7.083201	-0.034539	NaN	0.000000	0.001592	0.001648	28.0773	0.161092	0.002072	77.7589	38.3074	-167.898	-0.042474	1.081037	-0.076398	-0.077713	-0.034539	77.7589	-0.076065	-0.492015	0.070200	NaN
193	1.000000	1.092322	7.36694e+06	-48289.1	955.819	-29763.2	0.000000	0.000000	7.093170	-0.039195	NaN	0.000000	0.001601	0.001624	28.0784	0.074616	0.002096	35.5935	175.277	15.3753	-0.021838	1.090955	-0.066429	-0.067795	-0.039195	35.5935	-0.065603	-0.258979	0.151345	NaN
193	1.000000	1.102319	7.36694e+06	-48289.1	955.819	-29763.2	0.000000	0.000000	7.103168	-0.031041	NaN	0.000000	0.001584	0.001668	28.0775	0.069768	0.002041	34.1796	79.9833	-163.936	-0.053397	1.101071	-0.056431	-0.057679	-0.031041	34.1796	-0.055750	-0.135507	0.229073	NaN
193	1.000000	1.112359	7.36694e+06	-48289.1	955.819	-29763.2	0.000000	0.000000	7.113210	0.011177	NaN	0.000000	0.001592	0.001632	28.0775	0.157561	0.002062	76.4064	140.21	17.229	0.031226	1.110996	-0.046391	-0.047755	0.011177	76.4064	-0.046501	-0.071427	-0.156479	NaN
193	1.000000	1.122364	7.36694e+06	-48289.1	955.819	-29763.2	0.000000	0.000000	7.123214	0.008323	NaN	0.000000	0.001577	0.001641	28.0774	0.038939	0.001923	20.2448	-19.4125	-167.783	0.050768	1.120999	-0.036387	-0.037752	0.008323	20.2448	-0.036695	-0.035954	-0.231499	NaN
193	1.000000	1.132354	7.36694e+06	-48289.1	955.821	-29763.2	0.000000	0.000000	7.133205	0.020765	NaN	0.000000	0.001564	0.001678	28.0776	0.075514	0.002000	37.7574	130.343	17.3615	0.029114	1.130992	-0.026396	-0.027758	0.020765	37.7574	-0.026809	-0.018832	-1.102648	NaN
193	1.000000	1.142363	7.36694e+06	-48289.1	955.82	-29763.2	0.000000	0.000000	7.143211	-0.061141	NaN	0.000000	0.001573	0.001657	28.0775	0.096308	0.002012	47.8717	-87.2034	-164.796	0.003454	1.141036	-0.016387	-0.017715	-0.061141	47.8717	-0.015429	-0.009534	6.412908	NaN
193	1.000000	1.152376	7.36694e+06	-48289.1	955.82	-29763.2	0.000000	0.000000	7.153225	-0.018314	NaN	0.000000	0.001580	0.001638	28.0777	0.049238	0.001954	25.1998	-112.208	15.5232	-0.089459	1.151054	-0.006375	-0.007696	-0.018314	25.1998	-0.005830	-0.003932	4.657867	NaN
193	1.000000	1.162326	7.36694e+06	-48289.1	955.821	-29763.2	0.000000	0.000000	7.163300	3.005681	NaN	0.000000	0.001578	0.001650	28.0775	3.609910	0.001959	1842.56	9.442221	-166.475	1.733635	1.161029	0.003576	0.002278	3.005681	1842.56	0.002353	0.001842	1631.81	39224.5
193	2.000000	1.169363	7.36694e+06	-48289.1	955.82	-29763.2	0.000000	0.000000	7.170675	11.2341	NaN	0.000000	0.001633	0.001647	28.0777	10.2948	0.001723	5974.35	9.453692	5.969860	10.5183	1.168970	0.010613	0.010220	11.2341	5974.35	0.009202	0.008309	1352.11	59882.7
193	2.000000	1.171808	7.36694e+06	-48289.1	955.82	-29763.2	0.000000	0.000000	7.173310	15.8628	NaN	0.000000	0.001595	0.001669	28.0776	12.4683	0.001707	7304.34	5.971244	-172.994	14.7693	1.171494	0.013057	0.012744	15.8628	7304.34	0.011429	0.010813	1467.04	64177.9
193	2.000000	1.174330	7.36694e+06	-48289.1	955.82	-29763.2	0.000000	0.000000	7.175848	16.2586	NaN	0.000000	0.001569	0.001638	28.0778	15.5628	0.001912	8139.53	6.196484	6.247685	15.6325	1.173954	0.015579	0.015203	16.2586	8139.53	0.014081	0.014079	1154.79	62673.1
193	2.000000	1.176777	7.36694e+06	-48289.1	955.82	-29763.2	0.000000	0.000000	7.178497	21.1471	NaN	0.000000	0.001580	0.001631	28.0773	17.471	0.001655	10559	0.695283	-171.584	19.683	1.176534	0.018027	0.017784	21.1471	10559	0.016525	0.017373	1217.25	73191.8
193	2.000000	1.179336	7.36694e+06	-48289.1	955.82	-29763.2	0.000000	0.000000	7.181358	28.4995	NaN	0.000000	0.001615	0.001664	28.0787	19.6572	0.001797	10940.6	7.056209	4.626393	28.1392	1.178933	0.020586	0.020182	28.4995	10940.6	0.018632	0.020438	1394.41	69918.1
193	2.000000	1.181773	7.36694e+06	-48289.1	955.821	-29763.2	0.000000	0.000000	7.183889	30.791	NaN	0.000000	0.001618	0.001624	28.0788	22.3743	0.001767	12663.6	8.051686	179.983	30.927	1.181448	0.023023	0.022697	30.791	12663.6	0.021199	0.024462	1258.75	73975.5
193	2.000000	1.184230	7.36694e+06	-48289.1	955.82	-29763.2	0.000000	0.000000	7.186661	38.4637	NaN	0.000000	0.001611	0.001635	28.079	24.9676	0.001778	14046.1	6.792927	1.654747	38.3485	1.183927	0.025479	0.025176	38.4637	14046.1	0.023426	0.028214	1363.3	76401.3
193	2.000000	1.186799	7.36694e+06	-48289.1	955.82	-29763.2	0.000000	0.000000	7.189471	44.3197	NaN	0.000000	0.001581	0.001611	28.0786	27.7639	0.001843	15062.5	7.751198	179.788	45.5774	1.186518	0.028049	0.027767	44.3197	15062.5	0.025842	0.032565	1360.95	76259.3
193	2.000000	1.189306	7.36694e+06	-48289.1	955.821	-29763.2	0.000000	0.000000	7.192266	51.3164	NaN	0.000000	0.001636	0.001627	28.0791	29.6663	0.001751	16943.1	8.936078	-2.481483	50.9621	1.188895	0.030556	0.030144	51.3164	16943.1	0.028284	0.037263	1377.15	80191.8
193	2.000000	1.191757	7.36694e+06	-48289.1	955.821	-29763.2	0.000000	0.000000	7.194998	58.1308	NaN	0.000000	0.001641	0.001629	28.0786	32.1125	0.001791	17934.3	5.959055	179.758	57.8802	1.191394	0.033007	0.032644	58.1308	17934.3	0.030576	0.041946	1385.85	80004.2
193	2.000000	1.194241	7.36694e+06	-48289.1	955.82	-29763.2	0.000000	0.000000	7.198009	70.9774	NaN	0.000000	0.001593	0.001656	28.079	35.2696	0.001763	20000.8	6.074603	-1.847716	69.1091	1.193804	0.035490	0.035053	70.9774	20000.8	0.032829	0.046811	1516.26	84459.3
193	2.000000	1.196721	7.36694e+06	-48289.1	955.82	-29763.2	0.000000	0.000000	7.200757	77.4935	NaN	0.000000	0.001586	0.001656	28.0786	38.7704	0.001852	20935.8	6.530693	177.779	75.6314	1.196394	0.037970	0.037644	77.4935	20935.8	0.035194	0.052198	1484.59	83721
193	2.000000	1.199226	7.36694e+06	-48289.1	955.821	-29763.2	0.000000	0.000000	7.203839	91.5314	NaN	0.000000	0.001605	0.001638	28.0792	41.0106	0.001859	22063.3	3.735830	1.921696	88.7374	1.198833	0.040476	0.040083	91.5314	22063.3	0.037364	0.057394	1594.79	84141.5
193	2.000000	1.201648	7.36694e+06	-48289.1	955.82	-29763.2	0.000000	0.000000	7.206825	105.23	NaN	0.000000	0.001622	0.001633	28.0787	43.6489	0.001729	25240.2	1.553071	-178.934	101.544	1.201373	0.042898	0.042622	105.23	25240.2	0.039771	0.063438	1658.78	91557.1
193	2.000000	1.204130	7.36694e+06	-48289.1	955.821	-29763.2	0.000000	0.000000	7.209748	115.976	NaN	0.000000	0.001607	0.001616	28.0787	47.1565	0.001800	26198.7	2.177707	-0.502758	110.576	1.203839	0.045380	0.045089	115.976	26198.7	0.042060	0.069459	1669.69	90821.5
193	2.000000	1.206683	7.36694e+06	-48289.1	955.821	-29763.2	0.000000	0.000000	7.212837	129.011	NaN	0.000000	0.001610	0.001602	28.0787	49.1746	0.001731	28415.3	2.601790	178.941	127.473	1.206423	0.047932	0.047672	129.011	28415.3	0.044527	0.076250	1691.94	94016.6
193	2.000000	1.209215	7.36694e+06	-48289.1	955.821	-29763.2	0.000000	0.000000	7.215813	139.814	NaN	0.000000	0.001678	0.001628	28.0788	51.5088	0.001751	29413.2	6.183165	-4.455435	137	1.208745	0.050464	0.049994	139.814	29413.2	0.046899	0.083071	1683.06	93237.7
193	2.000000	1.211731	7.36694e+06	-48289.1	955.821	-29763.2	0.000000	0.000000	7.218788	150.977	NaN	0.000000	0.001664	0.001661	28.0787	54.4986	0.001834	29717.4	4.321732	176.414	150.852	1.211394	0.052980	0.052643	150.977	29717.4	0.049170	0.089864	1680.06	90571.3
193	2.000000	1.214182	7.36694e+06	-48289.1	955.82	-29763.2	0.000000	0.000000	7.221756	163.538	NaN	0.000000	0.001722	0.001630	28.0774	57.5655	0.001764	32632	5.847734	-5.474285	161.142	1.213885	0.055431	0.055135	163.538	32632	0.051673	0.097653	1674.69	95405.6
193	2.000000	1.216697	7.36694e+06	-48289.1	955.82	-29763.2	0.000000	0.000000	7.224639	172.473	NaN	0.000000	0.001689	0.001653	28.0775	59.7058	0.001742	34268	1.693727	177.576	171.119	1.216508	0.057947	0.057757	172.473	34268	0.054172	0.105744	1631.05	96279.6
193	2.000000	1.219214	7.36694e+06	-48289.1	955.822	-29763.2	0.000000	0.000000	7.227641	184.305	NaN	0.000000	0.001678	0.001657	28.0774	61.9938	0.001829	33885.7	4.985054	-4.487760	182.59	1.218898	0.060463	0.060147	184.305	33885.7	0.056384	0.113161	1628.69	92032.3
193	2.000000	1.221710	7.36694e+06	-48289.1	955.821	-29763.2	0.000000	0.000000	7.230901	202.871	NaN	0.000000	0.001678	0.001643	28.0775	64.1211	0.001816	35305.4	3.225056	177.39	202.569	1.221282	0.062959	0.062532	202.871	35305.4	0.058650	0.121010	1676.48	92726.4
193	2.000000	1.224171	7.36694e+06	-48289.1	955.82	-29763.2	0.000000	0.000000	7.233997	218.302	NaN	0.000000	0.001702	0.001644	28.0774	66.4759	0.001808	36759.1	3.222433	-3.876089	214.302	1.223709	0.065421	0.064958	218.302	36759.1	0.060967	0.129298	1688.37	93399
193	2.000000	1.226724	7.36694e+06	-48289.1	955.822	-29763.2	0.000000	0.000000	7.237226	234.748	NaN	0.000000	0.001660	0.001620	28.0776	70.0239	0.001784	39244.7	6.047426	172.963	236.991	1.226382	0.067974	0.067631	234.748	39244.7	0.063487	0.138610	1693.59	96307
193	2.000000	1.229174	7.36694e+06	-48289.1	955.821	-29763.2	0.000000	0.000000	7.240469	254.049	NaN	0.000000	0.001658	0.001628	28.0774	70.9708	0.001846	38451.9	5.534125	-5.822977	248.868	1.228770	0.070423	0.070020	254.049	38451.9	0.065468	0.146142	1738.37	91897.5
193	2.000000	1.231602	7.36694e+06	-48289.1	955.82	-29763.2	0.000000	0.000000	7.243351	265.077	NaN	0.000000	0.001691	0.001613	28.0776	72.878	0.001712	42568.1	1.191357	176.978	258.718	1.231310	0.072851	0.072560	265.077	42568.1	0.068181	0.156768	1690.89	98226.7
193	2.000000	1.234250	7.36694e+06	-48289.1	955.821	-29763.3	0.000000	0.000000	7.246826	285.184	NaN	0.000000	0.001695	0.001641	28.0777	76.6338	0.001736	44153.6	6.733162	-8.420464	285.785	1.233796	0.075500	0.075046	285.184	44153.6	0.070656	0.166766	1710.09	98783.8
193	2.000000	1.236738	7.36694e+06	-48289.1	955.821	-29763.2	0.000000	0.000000	7.249542	290.761	NaN	0.000000	0.001699	0.001646	28.0776	80.0747	0.001828	43809	4.297557	173.276	291.242	1.236492	0.077987	0.077741	290.761	43809	0.073009	0.176545	1646.95	95259.6
193	2.000000	1.239176	7.36694e+06	-48289.1	955.821	-29763.2	0.000000	0.000000	7.252984	315.161	NaN	0.000000	0.001673	0.001621	28.0776	80.74	0.001652	48877.6	2.273570	-4.704791	312.932	1.238789	0.080425	0.080038	315.161	48877.6	0.075589	0.187565	1680.27	103111
193	2.000000	1.241669	7.36694e+06	-48289.1	955.821	-29763.3	0.000000	0.000000	7.255906	325.594	NaN	0.000000	0.001616	0.001649	28.0774	83.8768	0.001862	45058.5	3.990915	173.618	325.004	1.241502	0.082918	0.082751	325.594	45058.5	0.077499	0.195923	1661.84	93005.2
193	2.000000	1.244181	7.36694e+06	-48289.1	955.821	-29763.3	0.000000	0.000000	7.259427	350.142	NaN	0.000000	0.001618	0.001627	28.0776	85.2572	0.001780	47889.3	2.122998	-4.827658	346.882	1.243845	0.085430	0.085095	350.142	47889.3	0.079947	0.206887	1692.43	96193.3
193	2.000000	1.246672	7.36694e+06	-48289.1	955.821	-29763.3	0.000000	0.000000	7.262715	369.526	NaN	0.000000	0.001629	0.001650	28.0774	87.9071	0.001664	52818	1.789894	175.022	369.573	1.246432	0.087922	0.087682	369.526	52818	0.082674	0.219433	1684.01	103016
193	2.000000	1.249181	7.36694e+06	-48289.1	955.821	-29763.3	0.000000	0.000000	7.266009	388.633	NaN	0.000000	0.001611	0.001655	28.0786	90.4086	0.001835	49272.4	9.090159	-11.0026	387.377	1.248683	0.090430	0.089933	388.633	49272.4	0.084515	0.228092	1703.85	94258.9
193	2.000000	1.251591	7.36694e+06	-48289.1	955.82	-29763.3	0.000000	0.000000	7.269265	409.182	NaN	0.000000	0.001605	0.001617	28.0786	91.4827	0.001691	54108.4	6.913563	169.809	404.184	1.251326	0.092841	0.092575	409.182	54108.4	0.087169	0.240858	1698.86	100730
193	2.000000	1.254108	7.36694e+06	-48289.1	955.82	-29763.3	0.000000	0.000000	7.272733	432.319	NaN	0.000000	0.001625	0.001672	28.0789	95.1463	0.001792	53108.8	2.519297	-5.485462	427.214	1.253736	0.095358	0.094986	432.319	53108.8	0.089253	0.251105	1721.67	96830.4
193	2.000000	1.256573	7.36694e+06	-48289.1	955.821	-29763.3	0.000000	0.000000	7.275997	451.768	NaN	0.000000	0.001624	0.001626	28.0787	98.1242	0.001774	55314	5.328777	171.213	445.878	1.256330	0.097822	0.097579	451.768	55314	0.091697	0.263379	1715.27	98473
193	2.000000	1.259124	7.36694e+06	-48289.1	955.82	-29763.3	0.000000	0.000000	7.279582	476.913	NaN	0.000000	0.001592	0.001642	28.0786	99.4769	0.001722	57767.6	5.411200	-8.703755	471.249	1.258690	0.100373	0.099939	476.913	57767.6	0.094182	0.276139	1727.07	100437
193	2.000000	1.261603	7.36694e+06	-48289.1	955.82	-29763.3	0.000000	0.000000	7.282812	495.158	NaN	0.000000	0.001626	0.001639	28.0787	101.417	0.001885	53798.7	2.358317	174.788	491.852	1.261435	0.102853	0.102684	495.158	53798.7	0.095950	0.285391	1735.02	92007.9
193	2.000000	1.264208	7.36694e+06	-48289.1	955.821	-29763.3	0.000000	0.000000	7.286308	516.827	NaN	0.000000	0.001589	0.001680	28.0787	105.312	0.001837	57314.4	6.720964	-10.4343	516.113	1.263820	0.105458	0.105070	516.827	57314.4	0.098695	0.300036	1722.55	95598.4
193	2.000000	1.266595	7.36694e+06	-48289.1	955.821	-29763.3	0.000000	0.000000	7.289878	545.612	NaN	0.000000	0.001608	0.001642	28.079	107.429	0.001718	62516.5	6.169119	169.993	540.707	1.266143	0.107845	0.107393	545.612	62516.5	0.101299	0.314247	1736.25	101890