File: remote_trans/data/nanoindenter/0828-1/data/Data_2025-08-06,11h17m57s/2025-07-22_16-23-58_1_322.txt
2025-07-22, 16:23:58, 1
Index	Phase	Displacement	Time	Pos X	Pos Y	Pos Z	Rot A	Rot B	Piezo Z	Force A	Force B	Gripper	Voltage A	Voltage B	Temperature	Amplitude force	Amplitude pos	Stiffness	Phase shift	Phase excitation	Force A raw	Displacement raw	HMax	HMax raw	Real Force	Real Stiffness	Contact Depth	Area	Hardness	Reduced Mod.
[#]	[#]	[um]	[s]	[um]	[um]	[um]	[m°]	[m°]	[um]	[uN]	[uN]	[V]	[V]	[V]	[°C]	[uN]	[um]	[N/m]	[°]	[°]	[uN]	[um]	[um]	[um]	[uN]	[N/m]	[um]	[um^2]	[MPa]	[MPa]
322	1.000000	0.002523	7.36822e+06	-54739.1	955.818	-29743.3	0.000000	0.000000	6.002787	0.120338	NaN	0.000000	0.001672	0.001683	28.0785	0.049075	0.000948	51.7683	-47.45	-163.648	0.107557	0.001272	-0.998812	-1.000064	0.120338	51.7683	-1.000556	-2.308094E+13	-5.213753E-15	NaN
322	1.000000	0.010494	7.36822e+06	-54739.1	955.819	-29743.3	0.000000	0.000000	6.010753	0.015285	NaN	0.000000	0.001716	0.001683	28.079	0.017407	0.000938	18.5538	-148.379	-160.292	-0.002965	0.009139	-0.990842	-0.992196	0.015285	18.5538	-0.991459	-1.740875E+13	-8.780200E-16	NaN
322	1.000000	0.018497	7.36822e+06	-54739.1	955.819	-29743.3	0.000000	0.000000	6.018759	0.078440	NaN	0.000000	0.001675	0.001701	28.0789	0.098808	0.001744	56.6414	150.044	-163.112	0.107378	0.017175	-0.982838	-0.984160	0.078440	56.6414	-0.983877	-1.376060E+13	-5.700365E-15	NaN
322	1.000000	0.026546	7.36822e+06	-54739.1	955.819	-29743.3	0.000000	0.000000	6.026806	0.031821	NaN	0.000000	0.001688	0.001672	28.0797	0.039991	0.001872	21.3636	136.566	-163.064	0.019525	0.025207	-0.974790	-0.976128	0.031821	21.3636	-0.975907	-1.074630E+13	-2.961067E-15	NaN
322	1.000000	0.034501	7.36822e+06	-54739.1	955.817	-29743.3	0.000000	0.000000	6.034762	0.056099	NaN	0.000000	0.001714	0.001715	28.0803	0.074283	0.001853	40.0886	-121.797	-164.253	0.011367	0.033160	-0.966835	-0.968176	0.056099	40.0886	-0.967884	-8.378169E+12	-6.695869E-15	NaN
322	1.000000	0.042511	7.36822e+06	-54739.1	955.818	-29743.3	0.000000	0.000000	6.042770	-0.007307	NaN	0.000000	0.001668	0.001692	28.0801	0.131348	0.002045	64.2342	155.599	-165.028	0.037097	0.041161	-0.958824	-0.960175	-0.007307	64.2342	-0.958739	-6.307635E+12	1.158456E-15	NaN
322	1.000000	0.050482	7.36822e+06	-54739.1	955.818	-29743.3	0.000000	0.000000	6.050741	0.004550	NaN	0.000000	0.001692	0.001647	28.0805	0.132444	0.002055	64.454	113.794	-167.675	-0.005572	0.049228	-0.950853	-0.952108	0.004550	64.454	-0.950906	-4.945956E+12	-9.199807E-16	NaN
322	1.000000	0.058493	7.36822e+06	-54739.1	955.819	-29743.3	0.000000	0.000000	6.058752	0.018918	NaN	0.000000	0.001657	0.001660	28.0803	0.013769	0.002068	6.659442	-41.9203	-165.791	0.012844	0.057219	-0.942843	-0.944116	0.018918	6.659442	-0.944974	-4.113689E+12	-4.598835E-15	NaN
322	1.000000	0.066465	7.36822e+06	-54739.1	955.818	-29743.3	0.000000	0.000000	6.066723	-0.027719	NaN	0.000000	0.001673	0.001658	28.0801	0.085691	0.002004	42.753	-155.639	-160.006	0.055448	0.065141	-0.934870	-0.936195	-0.027719	42.753	-0.934384	-2.960448E+12	9.363147E-15	NaN
322	1.000000	0.074508	7.36822e+06	-54739.1	955.818	-29743.3	0.000000	0.000000	6.074767	0.002566	NaN	0.000000	0.001671	0.001684	28.0803	0.061313	0.001942	31.5674	-30.422	-164.629	-0.006118	0.073203	-0.926827	-0.928133	0.002566	31.5674	-0.926888	-2.345292E+12	-1.094059E-15	NaN
322	1.000000	0.082516	7.36822e+06	-54739.1	955.819	-29743.3	0.000000	0.000000	6.082774	-0.035038	NaN	0.000000	0.001707	0.001675	28.0801	0.070587	0.001847	38.212	14.7353	-167.096	-0.079604	0.081243	-0.918819	-0.920093	-0.035038	38.212	-0.918132	-1.786405E+12	1.961368E-14	NaN
322	1.000000	0.090485	7.36822e+06	-54739.1	955.819	-29743.3	0.000000	0.000000	6.090742	-0.028772	NaN	0.000000	0.001619	0.001713	28.08	0.045062	0.002016	22.3523	86.1065	-166.129	-0.007589	0.089190	-0.910851	-0.912146	-0.028772	22.3523	-0.909885	-1.382341E+12	2.081422E-14	NaN
322	1.000000	0.098507	7.36822e+06	-54739.1	955.818	-29743.3	0.000000	0.000000	6.098770	0.114956	NaN	0.000000	0.001624	0.001728	28.08	0.048670	0.001910	25.484	61.5571	-161.439	0.110997	0.097178	-0.902829	-0.904158	0.114956	25.484	-0.906212	-1.233093E+12	-9.322600E-14	NaN
322	1.000000	0.106515	7.36822e+06	-54739.1	955.82	-29743.3	0.000000	0.000000	6.106774	0.024946	NaN	0.000000	0.001621	0.001700	28.0801	0.123089	0.002076	59.2797	-139.726	-166.603	0.107759	0.105256	-0.894821	-0.896080	0.024946	59.2797	-0.895137	-8.736617E+11	-2.855301E-14	NaN
322	1.000000	0.114511	7.36822e+06	-54739.1	955.818	-29743.3	0.000000	0.000000	6.114771	0.003595	NaN	0.000000	0.001593	0.001712	28.0802	0.071701	0.002054	34.913	84.1539	-162.724	0.043287	0.113175	-0.886824	-0.888161	0.003595	34.913	-0.886901	-6.761211E+11	-5.317411E-15	NaN
322	1.000000	0.122513	7.36822e+06	-54739.1	955.818	-29743.3	0.000000	0.000000	6.122770	-0.058102	NaN	0.000000	0.001589	0.001713	28.08	0.046342	0.002053	22.5698	35.1812	-163.619	0.015290	0.121207	-0.878822	-0.880129	-0.058102	22.5698	-0.876891	-4.950706E+11	1.173608E-13	NaN
322	1.000000	0.130531	7.36822e+06	-54739.1	955.817	-29743.3	0.000000	0.000000	6.130789	-0.036957	NaN	0.000000	0.001636	0.001666	28.08	0.105869	0.001940	54.5827	-99.0397	-164.449	-0.010211	0.129262	-0.870804	-0.872074	-0.036957	54.5827	-0.870296	-4.031382E+11	9.167269E-14	NaN
322	1.000000	0.138543	7.36822e+06	-54739.1	955.819	-29743.3	0.000000	0.000000	6.138804	0.042768	NaN	0.000000	0.001623	0.001719	28.0799	0.124165	0.001997	62.171	168.009	-165.047	0.035981	0.137235	-0.862792	-0.864100	0.042768	62.171	-0.863308	-3.242615E+11	-1.318943E-13	NaN
322	1.000000	0.146512	7.36822e+06	-54739.1	955.819	-29743.3	0.000000	0.000000	6.146771	-0.010912	NaN	0.000000	0.001644	0.001671	28.0802	0.131524	0.002019	65.1328	-85.7088	-163.92	0.059527	0.145251	-0.854823	-0.856084	-0.010912	65.1328	-0.854698	-2.479373E+11	4.401184E-14	NaN
322	1.000000	0.154538	7.36822e+06	-54739.1	955.818	-29743.3	0.000000	0.000000	6.154797	-0.002002	NaN	0.000000	0.001733	0.001683	28.0801	0.014478	0.001955	7.406459	-19.8541	-164.921	-0.010765	0.153218	-0.846798	-0.848117	-0.002002	7.406459	-0.846595	-1.925859E+11	1.039692E-14	NaN
322	1.000000	0.162503	7.36822e+06	-54739.1	955.819	-29743.3	0.000000	0.000000	6.162764	0.043707	NaN	0.000000	0.001702	0.001699	28.0793	0.124443	0.002007	62.0082	51.2321	-164.393	0.105063	0.161175	-0.838833	-0.840160	0.043707	62.0082	-0.839361	-1.536877E+11	-2.843902E-13	NaN
322	1.000000	0.170541	7.36822e+06	-54739.1	955.818	-29743.3	0.000000	0.000000	6.170801	0.020478	NaN	0.000000	0.001715	0.001699	28.0789	0.016859	0.002007	8.400118	118.828	-162.719	-0.028572	0.169218	-0.830794	-0.832117	0.020478	8.400118	-0.832623	-1.245464E+11	-1.644223E-13	NaN
322	1.000000	0.178556	7.36822e+06	-54739.1	955.818	-29743.3	0.000000	0.000000	6.178817	0.058819	NaN	0.000000	0.001711	0.001710	28.0787	0.157503	0.001851	85.1131	-161.231	-164.453	0.018627	0.177249	-0.822780	-0.824087	0.058819	85.1131	-0.823298	-9.309536E+10	-6.318177E-13	NaN
322	1.000000	0.186546	7.36822e+06	-54739.1	955.818	-29743.3	0.000000	0.000000	6.186805	0.017433	NaN	0.000000	0.001714	0.001706	28.0785	0.052309	0.002064	25.3393	152.625	-164.592	0.013601	0.185207	-0.814790	-0.816129	0.017433	25.3393	-0.815306	-7.253472E+10	-2.403431E-13	NaN
322	1.000000	0.194541	7.36822e+06	-54739.1	955.817	-29743.3	0.000000	0.000000	6.194798	-0.034817	NaN	0.000000	0.001695	0.001722	28.0789	0.073694	0.002043	36.0762	-22.3391	-163.148	0.024993	0.193246	-0.806795	-0.808090	-0.034817	36.0762	-0.806071	-5.435723E+10	6.405189E-13	NaN
322	1.000000	0.202541	7.36822e+06	-54739.1	955.818	-29743.3	0.000000	0.000000	6.202797	-0.077222	NaN	0.000000	0.001707	0.001702	28.0793	0.031347	0.002040	15.3635	-41.0498	-163.681	-0.046285	0.201233	-0.798794	-0.800102	-0.077222	15.3635	-0.795024	-3.848685E+10	2.006455E-12	NaN
322	1.000000	0.210555	7.36822e+06	-54739.1	955.819	-29743.3	0.000000	0.000000	6.210815	0.019005	NaN	0.000000	0.001702	0.001698	28.0794	0.128911	0.002094	61.5489	-35.8598	-162.922	0.084711	0.209241	-0.790781	-0.792095	0.019005	61.5489	-0.791012	-3.394922E+10	-5.597969E-13	NaN
322	1.000000	0.218587	7.36822e+06	-54739.1	955.818	-29743.3	0.000000	0.000000	6.218844	-0.034486	NaN	0.000000	0.001631	0.001686	28.0791	0.190109	0.002177	87.3233	-147.283	-162.879	-0.021728	0.217242	-0.782749	-0.784093	-0.034486	87.3233	-0.782453	-2.597509E+10	1.327670E-12	NaN
322	1.000000	0.226589	7.36822e+06	-54739.1	955.819	-29743.3	0.000000	0.000000	6.226848	-0.015454	NaN	0.000000	0.001556	0.001629	28.0792	0.058634	0.002029	28.8997	-90.6274	-162.986	-0.029153	0.225232	-0.774746	-0.776104	-0.015454	28.8997	-0.774345	-2.015466E+10	7.667531E-13	NaN
322	1.000000	0.234585	7.36822e+06	-54739.1	955.819	-29743.3	0.000000	0.000000	6.234845	0.042261	NaN	0.000000	0.001592	0.001672	28.0792	0.042986	0.001943	22.1215	75.6059	-166.283	-0.026906	0.233245	-0.766751	-0.768090	0.042261	22.1215	-0.768184	-1.661906E+10	-2.542951E-12	NaN
322	1.000000	0.242563	7.36822e+06	-54739.1	955.818	-29743.3	0.000000	0.000000	6.242822	-0.000659	NaN	0.000000	0.001620	0.001689	28.0793	0.080437	0.001890	42.5601	168.729	-160.739	0.019417	0.241282	-0.758772	-0.760054	-0.000659	42.5601	-0.758761	-1.237201E+10	5.324386E-14	NaN
322	1.000000	0.250605	7.36822e+06	-54739.1	955.818	-29743.3	0.000000	0.000000	6.250865	0.014683	NaN	0.000000	0.001600	0.001703	28.0791	0.082378	0.001949	42.2567	137.247	-167.153	0.031136	0.249215	-0.750730	-0.752121	0.014683	42.2567	-0.750991	-9.698625E+9	-1.513926E-12	NaN
322	1.000000	0.258554	7.36822e+06	-54739.1	955.818	-29743.3	0.000000	0.000000	6.258812	-0.020745	NaN	0.000000	0.001622	0.001700	28.0789	0.043857	0.001954	22.4443	-112.62	-165.081	0.055922	0.257220	-0.742781	-0.744116	-0.020745	22.4443	-0.742088	-7.336627E+9	2.827651E-12	NaN
322	1.000000	0.266581	7.36822e+06	-54739.1	955.818	-29743.3	0.000000	0.000000	6.266840	-0.006730	NaN	0.000000	0.001608	0.001663	28.0789	0.030865	0.002105	14.666	60.6363	-166.567	0.011687	0.265257	-0.734754	-0.736079	-0.006730	14.666	-0.734410	-5.766388E+9	1.167080E-12	NaN
322	1.000000	0.274590	7.36822e+06	-54739.1	955.819	-29743.3	0.000000	0.000000	6.274850	0.021159	NaN	0.000000	0.001610	0.001717	28.0786	0.070958	0.002098	33.8175	116.426	-165.869	0.069383	0.273252	-0.726745	-0.728083	0.021159	33.8175	-0.727215	-4.600915E+9	-4.598868E-12	NaN
322	1.000000	0.282593	7.36822e+06	-54739.1	955.819	-29743.3	0.000000	0.000000	6.282853	0.015933	NaN	0.000000	0.001619	0.001684	28.0787	0.081916	0.002071	39.5458	-39.1919	-164.715	-0.012654	0.281233	-0.718742	-0.720103	0.015933	39.5458	-0.719044	-3.559930E+9	-4.475643E-12	NaN
322	1.000000	0.290607	7.36822e+06	-54739.1	955.819	-29743.3	0.000000	0.000000	6.290868	0.041138	NaN	0.000000	0.001603	0.001687	28.0789	0.119769	0.002048	58.4682	-38.9403	-164.495	0.033148	0.289258	-0.710729	-0.712078	0.041138	58.4682	-0.711256	-2.787355E+9	-1.475884E-11	NaN
322	1.000000	0.298613	7.36822e+06	-54739.1	955.818	-29743.3	0.000000	0.000000	6.298871	-0.011386	NaN	0.000000	0.001603	0.001710	28.0793	0.099826	0.002027	49.2572	-46.0722	-164.374	-0.008286	0.297300	-0.702723	-0.704035	-0.011386	49.2572	-0.702549	-2.120037E+9	5.370701E-12	NaN
322	1.000000	0.306594	7.36822e+06	-54739.1	955.818	-29743.3	0.000000	0.000000	6.306852	-0.013285	NaN	0.000000	0.001582	0.001717	28.08	0.066088	0.001958	33.7476	23.9596	-163.592	-0.057945	0.305316	-0.694742	-0.696019	-0.013285	33.7476	-0.694446	-1.643139E+9	8.085327E-12	NaN
322	1.000000	0.314604	7.36822e+06	-54739.1	955.818	-29743.3	0.000000	0.000000	6.314861	-0.046924	NaN	0.000000	0.001593	0.001666	28.0798	0.146795	0.002063	71.143	148.455	-163.81	-0.047013	0.313290	-0.686731	-0.688045	-0.046924	71.143	-0.686237	-1.269055E+9	3.697548E-11	NaN
322	1.000000	0.322645	7.36822e+06	-54739.1	955.818	-29743.3	0.000000	0.000000	6.322904	0.013657	NaN	0.000000	0.001603	0.001688	28.0799	0.050405	0.001880	26.8179	22.6698	-159.864	0.038775	0.321327	-0.678691	-0.680009	0.013657	26.8179	-0.679073	-1.012804E+9	-1.348457E-11	NaN
322	1.000000	0.330612	7.36822e+06	-54739.1	955.818	-29743.3	0.000000	0.000000	6.330871	0.008402	NaN	0.000000	0.001623	0.001722	28.08	0.092898	0.001881	49.3986	-157.921	-164.647	0.098037	0.329292	-0.670724	-0.672043	0.008402	49.3986	-0.670851	-7.817037E+8	-1.074839E-11	NaN
322	1.000000	0.338614	7.36822e+06	-54739.1	955.818	-29743.3	0.000000	0.000000	6.338875	0.031745	NaN	0.000000	0.001594	0.001706	28.0801	0.114769	0.001888	60.7911	94.7913	-164.538	0.003198	0.337306	-0.662721	-0.664030	0.031745	60.7911	-0.663113	-6.124915E+8	-5.182907E-11	NaN
322	1.000000	0.346628	7.36822e+06	-54739.1	955.819	-29743.3	0.000000	0.000000	6.346884	-0.060536	NaN	0.000000	0.001587	0.001706	28.0801	0.025617	0.001925	13.3069	-179.177	-161.744	-0.123365	0.345317	-0.654707	-0.656018	-0.060536	13.3069	-0.651295	-4.218863E+8	1.434893E-10	NaN
322	1.000000	0.354613	7.36822e+06	-54739.1	955.818	-29743.3	0.000000	0.000000	6.354872	-0.006622	NaN	0.000000	0.001598	0.001688	28.08	0.010483	0.001937	5.412334	168.077	-164.053	-0.091513	0.353313	-0.646722	-0.648022	-0.006622	5.412334	-0.645804	-3.547393E+8	1.866701E-11	NaN
322	1.000000	0.362613	7.36822e+06	-54739.1	955.819	-29743.3	0.000000	0.000000	6.362870	-0.042150	NaN	0.000000	0.001624	0.001731	28.08	0.025411	0.001933	13.1478	148.679	-165.643	0.033017	0.361305	-0.638723	-0.640030	-0.042150	13.1478	-0.636318	-2.628854E+8	1.603344E-10	NaN
322	1.000000	0.370605	7.36822e+06	-54739.1	955.818	-29743.3	0.000000	0.000000	6.370863	-0.019312	NaN	0.000000	0.001640	0.001690	28.08	0.063692	0.001885	33.7943	-107.297	-165.33	-0.076722	0.369325	-0.630730	-0.632010	-0.019312	33.7943	-0.630302	-2.173536E+8	8.884962E-11	NaN
322	1.000000	0.378619	7.36822e+06	-54739.1	955.818	-29743.3	0.000000	0.000000	6.378879	0.005565	NaN	0.000000	0.001617	0.001680	28.0799	0.081502	0.001900	42.8972	-70.4572	-168.146	0.026879	0.377345	-0.622716	-0.623990	0.005565	42.8972	-0.622813	-1.715136E+8	-3.244713E-11	NaN
322	1.000000	0.386624	7.36822e+06	-54739.1	955.819	-29743.3	0.000000	0.000000	6.386882	-0.005604	NaN	0.000000	0.001613	0.001682	28.08	0.148254	0.001992	74.4114	150.806	-164.674	0.010812	0.385327	-0.614712	-0.616008	-0.005604	74.4114	-0.614655	-1.324798E+8	4.230376E-11	NaN
322	1.000000	0.394628	7.36822e+06	-54739.1	955.818	-29743.3	0.000000	0.000000	6.394889	0.040959	NaN	0.000000	0.001607	0.001699	28.0798	0.024123	0.002095	11.5143	35.1519	-166.622	-0.076935	0.393287	-0.606707	-0.608049	0.040959	11.5143	-0.609375	-1.120778E+8	-3.654512E-10	NaN
322	1.000000	0.402680	7.36822e+06	-54739.1	955.818	-29743.3	0.000000	0.000000	6.402939	0.010148	NaN	0.000000	0.001588	0.001711	28.0798	0.007933	0.001960	4.048626	-3.223384	-163.761	0.053287	0.401323	-0.598656	-0.600012	0.010148	4.048626	-0.600536	-8.469131E+7	-1.198245E-10	NaN
322	1.000000	0.410613	7.36822e+06	-54739.1	955.818	-29743.3	0.000000	0.000000	6.410872	0.007325	NaN	0.000000	0.001590	0.001690	28.0802	0.048082	0.001979	24.291	71.0391	-167.71	0.014076	0.409352	-0.590723	-0.591983	0.007325	24.291	-0.590949	-6.248137E+7	-1.172324E-10	NaN
322	1.000000	0.418644	7.36822e+06	-54739.1	955.819	-29743.3	0.000000	0.000000	6.418903	0.015552	NaN	0.000000	0.001622	0.001690	28.0796	0.056821	0.002056	27.6422	-1.354848	-165.145	0.001924	0.417349	-0.582692	-0.583987	0.015552	27.6422	-0.583114	-4.871859E+7	-3.192138E-10	NaN
322	1.000000	0.426620	7.36822e+06	-54739.1	955.819	-29743.3	0.000000	0.000000	6.426878	-0.004107	NaN	0.000000	0.001594	0.001673	28.0797	0.056969	0.002046	27.8474	-121.382	-167.344	0.041590	0.425316	-0.574716	-0.576019	-0.004107	27.8474	-0.574605	-3.717462E+7	1.104864E-10	NaN
322	1.000000	0.434623	7.36822e+06	-54739.1	955.818	-29743.3	0.000000	0.000000	6.434886	0.082002	NaN	0.000000	0.001609	0.001672	28.0795	0.011751	0.001963	5.987025	-140.385	-166.15	0.129092	0.433319	-0.566712	-0.568017	0.082002	5.987025	-0.576985	-4.009613E+7	-2.045132E-9	NaN
322	1.000000	0.442664	7.36822e+06	-54739.1	955.818	-29743.3	0.000000	0.000000	6.442919	-0.081254	NaN	0.000000	0.001613	0.001695	28.0786	0.099310	0.001999	49.6802	104.494	-167.12	-0.061192	0.441300	-0.558672	-0.560036	-0.081254	49.6802	-0.557445	-2.152933E+7	3.774103E-9	NaN
322	1.000000	0.450669	7.36822e+06	-54739.1	955.818	-29743.3	0.000000	0.000000	6.450929	0.031726	NaN	0.000000	0.001632	0.001680	28.0785	0.046987	0.001954	24.0417	-17.2436	-163.001	0.046515	0.449316	-0.550666	-0.552020	0.031726	24.0417	-0.551656	-1.790163E+7	-1.772252E-9	NaN
322	1.000000	0.458662	7.36822e+06	-54739.1	955.819	-29743.3	0.000000	0.000000	6.458921	0.011648	NaN	0.000000	0.001644	0.001677	28.0783	0.147917	0.002074	71.3167	110.51	-162.131	-0.017071	0.457360	-0.542674	-0.543976	0.011648	71.3167	-0.542796	-1.349368E+7	-8.632245E-10	NaN
322	1.000000	0.466654	7.36822e+06	-54739.1	955.818	-29743.3	0.000000	0.000000	6.466912	-0.031905	NaN	0.000000	0.001582	0.001685	28.0785	0.089698	0.001960	45.7668	31.8106	-168.151	-0.047943	0.465369	-0.534681	-0.535967	-0.031905	45.7668	-0.534158	-1.024017E+7	3.115634E-9	NaN
322	1.000000	0.474664	7.36822e+06	-54739.1	955.819	-29743.3	0.000000	0.000000	6.474923	0.004534	NaN	0.000000	0.001588	0.001675	28.0785	0.044894	0.001998	22.4697	123.94	-165.527	-0.006094	0.473361	-0.526671	-0.527975	0.004534	22.4697	-0.526823	-8.09912e+06	-5.598645E-10	NaN
322	1.000000	0.482653	7.36822e+06	-54739.1	955.819	-29743.3	0.000000	0.000000	6.482910	-0.039384	NaN	0.000000	0.001622	0.001693	28.0787	0.120006	0.002053	58.4552	170.553	-164.331	0.048643	0.481334	-0.518682	-0.520002	-0.039384	58.4552	-0.518177	-6.14103e+06	6.413191E-9	NaN
322	1.000000	0.490674	7.36822e+06	-54739.1	955.818	-29743.3	0.000000	0.000000	6.490937	0.089180	NaN	0.000000	0.001614	0.001684	28.0784	0.102783	0.001997	51.4689	-83.5952	-165.953	-0.024758	0.489337	-0.510661	-0.511998	0.089180	51.4689	-0.511961	-5.03183e+06	-1.772317E-8	NaN
322	1.000000	0.498694	7.36822e+06	-54739.1	955.818	-29743.3	0.000000	0.000000	6.498957	0.079956	NaN	0.000000	0.001605	0.001703	28.0785	0.113236	0.001958	57.8205	86.1951	-165.776	0.065457	0.497374	-0.502641	-0.503961	0.079956	57.8205	-0.503678	-3.8576e+06	-2.072682E-8	NaN
322	1.000000	0.506692	7.36822e+06	-54739.1	955.818	-29743.3	0.000000	0.000000	6.506951	-0.002017	NaN	0.000000	0.001611	0.001687	28.0786	0.092757	0.002126	43.6249	-22.2823	-164.348	0.049506	0.505354	-0.494644	-0.495981	-0.002017	43.6249	-0.494609	-2.88254e+06	6.995859E-10	NaN
322	1.000000	0.514683	7.36822e+06	-54739.1	955.818	-29743.3	0.000000	0.000000	6.514941	-0.012772	NaN	0.000000	0.001592	0.001657	28.0787	0.107877	0.002007	53.7408	118.859	-165.926	-0.061920	0.513424	-0.486653	-0.487911	-0.012772	53.7408	-0.486475	-2.21878e+06	5.756184E-9	NaN
322	1.000000	0.522707	7.36822e+06	-54739.1	955.819	-29743.3	0.000000	0.000000	6.522965	-0.021526	NaN	0.000000	0.001611	0.001682	28.0787	0.057466	0.001893	30.3624	38.0545	-165.78	-0.013733	0.521372	-0.478629	-0.479964	-0.021526	30.3624	-0.478097	-1.69389e+06	1.270810E-8	NaN
322	1.000000	0.530716	7.36822e+06	-54739.1	955.819	-29743.3	0.000000	0.000000	6.530977	0.041422	NaN	0.000000	0.001610	0.001670	28.0788	0.022530	0.002005	11.2341	-24.9574	-166.062	0.087319	0.529409	-0.470620	-0.471926	0.041422	11.2341	-0.473385	-1.45501e+06	-2.846868E-8	NaN
322	1.000000	0.538702	7.36822e+06	-54739.1	955.819	-29743.3	0.000000	0.000000	6.538961	-0.007945	NaN	0.000000	0.001591	0.001674	28.0786	0.070219	0.001962	35.7951	-47.1111	-168.439	0.026813	0.537416	-0.462633	-0.463920	-0.007945	35.7951	-0.462467	-1.02253e+06	7.769431E-9	NaN
322	1.000000	0.546686	7.36822e+06	-54739.1	955.818	-29743.3	0.000000	0.000000	6.546948	0.062868	NaN	0.000000	0.001613	0.001698	28.0786	0.127669	0.001991	64.1233	45.3007	-164.653	-0.045157	0.545430	-0.454649	-0.455906	0.062868	64.1233	-0.455385	-813074	-7.732140E-8	NaN
322	1.000000	0.554707	7.36822e+06	-54739.1	955.818	-29743.3	0.000000	0.000000	6.554966	-0.003436	NaN	0.000000	0.001574	0.001711	28.0786	0.115658	0.001992	58.0736	-63.2876	-165.84	0.044613	0.553408	-0.446629	-0.447927	-0.003436	58.0736	-0.446584	-611257	5.621356E-9	NaN
322	1.000000	0.562709	7.36822e+06	-54739.1	955.818	-29743.3	0.000000	0.000000	6.562970	0.046898	NaN	0.000000	0.001600	0.001691	28.0785	0.064181	0.001917	33.4866	132.267	-166.161	-0.037833	0.561364	-0.438626	-0.439972	0.046898	33.4866	-0.439677	-488428	-9.601800E-8	NaN
322	1.000000	0.570691	7.36822e+06	-54739.1	955.819	-29743.3	0.000000	0.000000	6.570951	0.024684	NaN	0.000000	0.001619	0.001691	28.0786	0.033943	0.001827	18.5782	-107.577	-166.452	0.004855	0.569391	-0.430645	-0.431945	0.024684	18.5782	-0.431641	-376076	-6.563645E-8	NaN
322	1.000000	0.578675	7.36822e+06	-54739.1	955.819	-29743.3	0.000000	0.000000	6.578934	0.014640	NaN	0.000000	0.001610	0.001686	28.0798	0.067892	0.002043	33.2355	129.428	-166.037	-0.047776	0.577449	-0.422661	-0.423886	0.014640	33.2355	-0.422991	-283674	-5.160775E-8	NaN
322	1.000000	0.586719	7.36822e+06	-54739.1	955.819	-29743.3	0.000000	0.000000	6.586981	0.064109	NaN	0.000000	0.001616	0.001698	28.0799	0.070650	0.001901	37.1585	86.9004	-167.723	0.049975	0.585456	-0.414616	-0.415880	0.064109	37.1585	-0.415910	-225101	-2.848016E-7	NaN
322	1.000000	0.594714	7.36822e+06	-54739.1	955.819	-29743.3	0.000000	0.000000	6.594974	0.016489	NaN	0.000000	0.001602	0.001698	28.0798	0.040525	0.002080	19.4866	-62.1925	-166.769	0.010987	0.593453	-0.406621	-0.407882	0.016489	19.4866	-0.407256	-169575	-9.723547E-8	NaN
322	1.000000	0.602694	7.36822e+06	-54739.1	955.817	-29743.3	0.000000	0.000000	6.602954	0.022793	NaN	0.000000	0.001602	0.001643	28.0797	0.113819	0.001979	57.5252	-67.354	-164.686	0.033775	0.601422	-0.398641	-0.399914	0.022793	57.5252	-0.398938	-129078	-1.765823E-7	NaN
322	1.000000	0.610722	7.36822e+06	-54739.1	955.819	-29743.3	0.000000	0.000000	6.610981	-0.007157	NaN	0.000000	0.001619	0.001673	28.0801	0.142829	0.001958	72.9645	20.5274	-166.529	-0.018509	0.609443	-0.390613	-0.391893	-0.007157	72.9645	-0.390539	-97922.8	7.308950E-8	NaN
322	1.000000	0.618725	7.36822e+06	-54739.1	955.819	-29743.3	0.000000	0.000000	6.618984	-0.013608	NaN	0.000000	0.001615	0.001675	28.0797	0.052513	0.001923	27.3132	-101.398	-164.26	0.037692	0.617462	-0.382610	-0.383874	-0.013608	27.3132	-0.382236	-74468.6	1.827316E-7	NaN
322	1.000000	0.626734	7.36822e+06	-54739.1	955.818	-29743.3	0.000000	0.000000	6.626997	0.087720	NaN	0.000000	0.001628	0.001702	28.0798	0.072484	0.002064	35.1164	29.0384	-166.225	0.069512	0.625487	-0.374601	-0.375848	0.087720	35.1164	-0.376475	-61555	-1.425061E-6	NaN
322	1.000000	0.634738	7.36822e+06	-54739.1	955.818	-29743.3	0.000000	0.000000	6.634999	0.040344	NaN	0.000000	0.001639	0.001721	28.0796	0.100078	0.002021	49.5242	-144.645	-166.291	0.074537	0.633451	-0.366597	-0.367884	0.040344	49.5242	-0.367208	-45279.4	-8.910079E-7	NaN
322	1.000000	0.642730	7.36822e+06	-54739.1	955.818	-29743.3	0.000000	0.000000	6.642988	-0.030707	NaN	0.000000	0.001640	0.001731	28.0797	0.108329	0.002058	52.6331	135.324	-165.974	-0.021766	0.641416	-0.358605	-0.359920	-0.030707	52.6331	-0.358168	-33523.3	9.159959E-7	NaN
322	1.000000	0.650765	7.36822e+06	-54739.1	955.818	-29743.3	0.000000	0.000000	6.651025	0.036584	NaN	0.000000	0.001593	0.001670	28.0798	0.044528	0.002155	20.6625	2.311548	-166.061	-0.019293	0.649438	-0.350571	-0.351898	0.036584	20.6625	-0.351899	-27198.8	-1.345057E-6	NaN
322	1.000000	0.658748	7.36822e+06	-54739.1	955.819	-29743.3	0.000000	0.000000	6.659009	0.060630	NaN	0.000000	0.001620	0.001689	28.0798	0.082837	0.002046	40.4867	0.770595	-163.263	0.046879	0.657427	-0.342588	-0.343909	0.060630	40.4867	-0.343711	-20682.3	-2.931489E-6	NaN
322	1.000000	0.666759	7.36822e+06	-54739.1	955.818	-29743.3	0.000000	0.000000	6.667020	0.037135	NaN	0.000000	0.001605	0.001707	28.08	0.041881	0.002037	20.5647	33.9285	-164.314	-0.018849	0.665515	-0.334576	-0.335821	0.037135	20.5647	-0.335930	-15928.6	-2.331318E-6	NaN
322	1.000000	0.674774	7.36822e+06	-54739.1	955.818	-29743.3	0.000000	0.000000	6.675034	0.027983	NaN	0.000000	0.001636	0.001700	28.0802	0.039579	0.002063	19.1834	126.235	-164.513	0.050349	0.673422	-0.326562	-0.327914	0.027983	19.1834	-0.327656	-12053.1	-2.321650E-6	NaN
322	1.000000	0.682740	7.36822e+06	-54739.1	955.818	-29743.3	0.000000	0.000000	6.682998	-0.022500	NaN	0.000000	0.001626	0.001699	28.08	0.112793	0.001974	57.1336	90.4993	-165.043	0.028664	0.681504	-0.318595	-0.319831	-0.022500	57.1336	-0.318300	-8782.17	2.561989E-6	NaN
322	1.000000	0.690769	7.36822e+06	-54739.1	955.819	-29743.3	0.000000	0.000000	6.691027	-0.019229	NaN	0.000000	0.001665	0.001711	28.08	0.087148	0.001972	44.1887	87.4381	-164.566	0.008116	0.689421	-0.310567	-0.311914	-0.019229	44.1887	-0.310240	-6677.48	2.879717E-6	NaN
322	1.000000	0.698789	7.36822e+06	-54739.1	955.819	-29743.3	0.000000	0.000000	6.699048	0.000139	NaN	0.000000	0.001612	0.001681	28.0799	0.022277	0.002105	10.582	4.157147	-169.349	0.038668	0.697431	-0.302547	-0.303904	0.000139	10.582	-0.302557	-5136.47	-2.705555E-8	NaN
322	1.000000	0.706757	7.36822e+06	-54739.1	955.819	-29743.3	0.000000	0.000000	6.707012	-0.077155	NaN	0.000000	0.001620	0.001706	28.0799	0.074788	0.002045	36.5757	-131.169	-167.981	0.006777	0.705396	-0.294579	-0.295939	-0.077155	36.5757	-0.292997	-3699.59	2.085509E-5	NaN
322	1.000000	0.714764	7.36822e+06	-54739.1	955.818	-29743.3	0.000000	0.000000	6.715024	0.024501	NaN	0.000000	0.001641	0.001678	28.0791	0.014640	0.001926	7.599771	171.672	-163.032	0.007407	0.713428	-0.286572	-0.287907	0.024501	7.599771	-0.288990	-3222.26	-7.603651E-6	NaN
322	1.000000	0.722760	7.36822e+06	-54739.1	955.819	-29743.3	0.000000	0.000000	6.723020	0.018166	NaN	0.000000	0.001570	0.001676	28.079	0.050974	0.001997	25.524	-127.506	-166.995	0.006387	0.721458	-0.278576	-0.279878	0.018166	25.524	-0.279109	-2288.39	-7.938518E-6	NaN
322	1.000000	0.730815	7.36822e+06	-54739.1	955.819	-29743.3	0.000000	0.000000	6.731073	-0.042326	NaN	0.000000	0.001600	0.001693	28.0789	0.052945	0.002068	25.607	68.0527	-163.25	-0.014154	0.729490	-0.270520	-0.271845	-0.042326	25.607	-0.269280	-1624.06	2.606187E-5	NaN
322	1.000000	0.738782	7.36822e+06	-54739.1	955.818	-29743.3	0.000000	0.000000	6.739042	0.019683	NaN	0.000000	0.001600	0.001645	28.079	0.116682	0.001997	58.4353	98.412	-165.709	0.026288	0.737490	-0.262553	-0.263846	0.019683	58.4353	-0.262806	-1293.8	-1.521319E-5	NaN
322	1.000000	0.746776	7.36822e+06	-54739.1	955.818	-29743.3	0.000000	0.000000	6.747035	-0.010603	NaN	0.000000	0.001629	0.001686	28.0789	0.083435	0.001890	44.1386	70.6983	-165.257	-0.013551	0.745444	-0.254559	-0.255891	-0.010603	44.1386	-0.254379	-960.618	1.103725E-5	NaN
322	1.000000	0.754795	7.36822e+06	-54739.1	955.818	-29743.3	0.000000	0.000000	6.755052	-0.041565	NaN	0.000000	0.001603	0.001715	28.079	0.128853	0.001880	68.524	-93.6979	-167.467	-0.000940	0.753470	-0.246541	-0.247865	-0.041565	68.524	-0.246086	-715.013	5.813203E-5	NaN
322	1.000000	0.762844	7.36822e+06	-54739.1	955.819	-29743.3	0.000000	0.000000	6.763103	-0.013604	NaN	0.000000	0.001620	0.001655	28.0791	0.158557	0.001963	80.7526	-126.975	-162.739	0.039937	0.761501	-0.238491	-0.239835	-0.013604	80.7526	-0.238365	-541.987	2.510075E-5	NaN
322	1.000000	0.770793	7.36822e+06	-54739.1	955.818	-29743.3	0.000000	0.000000	6.771050	-0.044107	NaN	0.000000	0.001616	0.001719	28.079	0.135446	0.001908	70.9978	72.1355	-166.905	-0.135130	0.769465	-0.230543	-0.231870	-0.044107	70.9978	-0.230077	-401.542	0.000110	NaN
322	1.000000	0.778779	7.36822e+06	-54739.1	955.819	-29743.3	0.000000	0.000000	6.779038	-0.004434	NaN	0.000000	0.001603	0.001728	28.0789	0.074239	0.001974	37.6121	-83.4646	-166.277	-0.081497	0.777515	-0.222556	-0.223820	-0.004434	37.6121	-0.222468	-304.127	1.457923E-5	NaN
322	1.000000	0.786799	7.36822e+06	-54739.1	955.819	-29743.3	0.000000	0.000000	6.787055	-0.065436	NaN	0.000000	0.001621	0.001655	28.0791	0.080204	0.001987	40.3668	-149.827	-168.677	-0.017410	0.785495	-0.214537	-0.215841	-0.065436	40.3668	-0.213321	-217.008	0.000302	NaN
322	1.000000	0.794824	7.36822e+06	-54739.1	955.819	-29743.3	0.000000	0.000000	6.795082	-0.011573	NaN	0.000000	0.001617	0.001704	28.0788	0.060660	0.001992	30.4546	-167.511	-162.991	-0.086477	0.793487	-0.206512	-0.207849	-0.011573	30.4546	-0.206227	-166.551	6.948660E-5	NaN
322	1.000000	0.802819	7.36822e+06	-54739.1	955.819	-29743.3	0.000000	0.000000	6.803076	-0.051465	NaN	0.000000	0.001611	0.001657	28.0792	0.094451	0.002122	44.5018	-42.7392	-165.845	0.065922	0.801467	-0.198516	-0.199869	-0.051465	44.5018	-0.197649	-120.5	0.000427	NaN
322	1.000000	0.810825	7.36822e+06	-54739.1	955.819	-29743.3	0.000000	0.000000	6.811083	-0.005683	NaN	0.000000	0.001590	0.001697	28.0794	0.125327	0.001925	65.117	61.3991	-165.134	0.050942	0.809516	-0.190511	-0.191820	-0.005683	65.117	-0.190445	-91.5093	6.210590E-5	NaN
322	1.000000	0.818827	7.36822e+06	-54739.1	955.819	-29743.3	0.000000	0.000000	6.819087	0.008819	NaN	0.000000	0.001589	0.001653	28.0798	0.102303	0.001912	53.5168	59.2084	-166.061	0.032527	0.817484	-0.182508	-0.183851	0.008819	53.5168	-0.182632	-67.6284	-0.000130	NaN
322	1.000000	0.826828	7.36822e+06	-54739.1	955.818	-29743.3	0.000000	0.000000	6.827086	-0.017764	NaN	0.000000	0.001613	0.001655	28.0792	0.097949	0.002015	48.6164	139.199	-169.114	-0.022383	0.825469	-0.174507	-0.175867	-0.017764	48.6164	-0.174233	-48.6178	0.000365	NaN
322	1.000000	0.834813	7.36822e+06	-54739.1	955.818	-29743.3	0.000000	0.000000	6.835072	-0.005228	NaN	0.000000	0.001589	0.001629	28.0792	0.101757	0.001880	54.1303	-10.3489	-166.239	0.029751	0.833516	-0.166522	-0.167820	-0.005228	54.1303	-0.166450	-35.622	0.000147	NaN
322	1.000000	0.842826	7.36822e+06	-54739.1	955.818	-29743.3	0.000000	0.000000	6.843083	-0.033354	NaN	0.000000	0.001601	0.001655	28.0793	0.083582	0.002057	40.6399	-1.446849	-166.562	-0.012906	0.841492	-0.158510	-0.159844	-0.033354	40.6399	-0.157894	-25.1459	0.001326	NaN
322	1.000000	0.850819	7.36822e+06	-54739.1	955.817	-29743.3	0.000000	0.000000	6.851077	-0.010105	NaN	0.000000	0.001577	0.001637	28.0805	0.031683	0.001996	15.8761	-95.8087	-168.525	-0.004320	0.849489	-0.150517	-0.151846	-0.010105	15.8761	-0.150040	-18.1438	0.000557	NaN
322	1.000000	0.858865	7.36822e+06	-54739.1	955.819	-29743.3	0.000000	0.000000	6.859124	0.016172	NaN	0.000000	0.001576	0.001648	28.0806	0.070080	0.001955	35.8446	-75.7225	-165.789	-0.067823	0.857541	-0.142471	-0.143794	0.016172	35.8446	-0.142809	-13.3508	-0.001211	NaN
322	1.000000	0.866826	7.36822e+06	-54739.1	955.818	-29743.3	0.000000	0.000000	6.867082	-0.081564	NaN	0.000000	0.001584	0.001644	28.0807	0.088651	0.002073	42.7703	-44.438	-169.165	-0.100852	0.865532	-0.134509	-0.135804	-0.081564	42.7703	-0.133079	-8.739603	0.009333	NaN
322	1.000000	0.874854	7.36822e+06	-54739.1	955.818	-29743.3	0.000000	0.000000	6.875113	-0.012632	NaN	0.000000	0.001567	0.001638	28.0805	0.007253	0.001972	3.677180	-9.473200	-166.503	-0.063231	0.873510	-0.126481	-0.127825	-0.012632	3.677180	-0.123905	-5.784630	0.002184	NaN
322	1.000000	0.882853	7.36822e+06	-54739.1	955.819	-29743.3	0.000000	0.000000	6.883110	-0.049895	NaN	0.000000	0.001581	0.001663	28.0808	0.169960	0.001933	87.9104	-99.0952	-165.978	-0.010535	0.881499	-0.118482	-0.119836	-0.049895	87.9104	-0.118057	-4.412649	0.011307	NaN
322	1.000000	0.890832	7.36822e+06	-54739.1	955.819	-29743.3	0.000000	0.000000	6.891087	-0.090737	NaN	0.000000	0.001580	0.001663	28.0801	0.043311	0.002031	21.32	32.1088	-167.088	-0.019969	0.889581	-0.110503	-0.111754	-0.090737	21.32	-0.107311	-2.635248	0.034432	NaN
322	1.000000	0.898839	7.36822e+06	-54739.1	955.818	-29743.3	0.000000	0.000000	6.899099	0.027213	NaN	0.000000	0.001614	0.001664	28.0802	0.060039	0.001847	32.5117	178.919	-165.936	-0.043934	0.897506	-0.102497	-0.103829	0.027213	32.5117	-0.103124	-2.140259	-0.012715	NaN
322	1.000000	0.906869	7.36822e+06	-54739.1	955.818	-29743.3	0.000000	0.000000	6.907129	0.010666	NaN	0.000000	0.001615	0.001685	28.08	0.037770	0.002030	18.6096	-116.512	-166.162	0.081236	0.905560	-0.094466	-0.095775	0.010666	18.6096	-0.094896	-1.402968	-0.007602	NaN
322	1.000000	0.914862	7.36822e+06	-54739.1	955.819	-29743.3	0.000000	0.000000	6.915121	0.001396	NaN	0.000000	0.001598	0.001711	28.0803	0.020552	0.002010	10.2228	168.15	-165.781	-0.113038	0.913557	-0.086473	-0.087778	0.001396	10.2228	-0.086576	-0.896647	-0.001557	NaN
322	1.000000	0.922861	7.36822e+06	-54739.1	955.818	-29743.3	0.000000	0.000000	6.923121	0.020582	NaN	0.000000	0.001574	0.001731	28.0802	0.102751	0.001982	51.8341	-40.1557	-165.457	0.050939	0.921509	-0.078474	-0.079826	0.020582	51.8341	-0.078772	-0.576568	-0.035697	NaN
322	1.000000	0.930850	7.36822e+06	-54739.1	955.819	-29743.3	0.000000	0.000000	6.931106	-0.062903	NaN	0.000000	0.001571	0.001693	28.0801	0.049417	0.002024	24.4175	173.66	-166.633	-0.105124	0.929572	-0.070485	-0.071764	-0.062903	24.4175	-0.068553	-0.311847	0.201712	NaN
322	1.000000	0.938879	7.36822e+06	-54739.1	955.818	-29743.3	0.000000	0.000000	6.939137	-0.028886	NaN	0.000000	0.001580	0.001711	28.0802	0.089045	0.001902	46.8232	161.526	-164.818	-0.077735	0.937545	-0.062457	-0.063791	-0.028886	46.8232	-0.061994	-0.205269	0.140724	NaN
322	1.000000	0.946893	7.36822e+06	-54739.1	955.818	-29743.3	0.000000	0.000000	6.947152	3.754489E-5	NaN	0.000000	0.001585	0.001708	28.0802	0.107362	0.001973	54.4036	31.6757	-163.986	0.120712	0.945555	-0.054443	-0.055781	3.754489E-5	54.4036	-0.054443	-0.123982	-0.000303	NaN
322	1.000000	0.954857	7.36822e+06	-54739.1	955.819	-29743.3	0.000000	0.000000	6.955116	-0.007761	NaN	0.000000	0.001606	0.001674	28.0803	0.062500	0.002119	29.4882	88.9934	-167.475	-0.071114	0.953547	-0.046478	-0.047788	-0.007761	29.4882	-0.046281	-0.070330	0.110350	NaN
322	1.000000	0.962882	7.36822e+06	-54739.1	955.819	-29743.3	0.000000	0.000000	6.963142	0.031261	NaN	0.000000	0.001603	0.001687	28.0805	0.055267	0.002065	26.7587	179.327	-167.528	0.077431	0.961562	-0.038454	-0.039773	0.031261	26.7587	-0.039330	-0.043154	-0.724407	NaN
322	1.000000	0.970892	7.36822e+06	-54739.1	955.819	-29743.3	0.000000	0.000000	6.971150	-0.020460	NaN	0.000000	0.001633	0.001715	28.0802	0.061664	0.002069	29.8013	-4.399343	-163.712	-0.010683	0.969546	-0.030444	-0.031790	-0.020460	29.8013	-0.029929	-0.022908	0.893155	NaN
322	1.000000	0.978889	7.36822e+06	-54739.1	955.82	-29743.3	0.000000	0.000000	6.979147	-0.013212	NaN	0.000000	0.001629	0.001693	28.0801	0.073156	0.001976	37.0264	81.8087	-164.487	-0.115650	0.977514	-0.022447	-0.023822	-0.013212	37.0264	-0.022179	-0.014270	0.925836	NaN
322	1.000000	0.986880	7.36822e+06	-54739.1	955.819	-29743.3	0.000000	0.000000	6.987137	-0.060571	NaN	0.000000	0.001627	0.001694	28.079	0.015018	0.001904	7.887406	-95.862	-166.507	-0.056116	0.985564	-0.014455	-0.015771	-0.060571	7.887406	-0.008696	-0.005637	10.7451	NaN
322	1.000000	0.994892	7.36822e+06	-54739.1	955.819	-29743.3	0.000000	0.000000	6.995152	0.026205	NaN	0.000000	0.001607	0.001693	28.079	0.073724	0.002000	36.8636	-123.492	-164.229	0.149365	0.993588	-0.006444	-0.007748	0.026205	36.8636	-0.006977	-0.004627	-5.664203	NaN
322	1.000000	1.002882	7.36822e+06	-54739.1	955.82	-29743.3	0.000000	0.000000	7.003178	0.901578	NaN	0.000000	0.001633	0.001685	28.0792	1.460236	0.001976	738.816	7.145403	-165.115	0.253553	1.001542	0.001546	0.000206	0.901578	738.816	0.000631	0.000477	1888.38	30892.4
322	2.000000	1.010421	7.36822e+06	-54739.1	955.819	-29743.3	0.000000	0.000000	7.010991	7.559929	NaN	0.000000	0.001592	0.001674	28.0794	8.171141	0.001740	4694.85	13.8249	-173.931	7.314374	1.009531	0.009086	0.008196	7.559929	4694.85	0.007878	0.006917	1092.93	51574.3
322	2.000000	1.012585	7.36822e+06	-54739.1	955.819	-29743.3	0.000000	0.000000	7.013250	9.855741	NaN	0.000000	0.001649	0.001684	28.0791	10.8282	0.001825	5932.77	12.0229	-176.536	9.623517	1.012250	0.011250	0.010915	9.855741	5932.77	0.010004	0.009186	1072.94	56555.4
322	2.000000	1.014592	7.36822e+06	-54739.1	955.819	-29743.3	0.000000	0.000000	7.015403	13.4351	NaN	0.000000	0.001634	0.001722	28.079	13.023	0.001643	7925.44	6.717633	-175.099	12.9841	1.014232	0.013256	0.012896	13.4351	7925.44	0.011985	0.011472	1171.11	67604.3
322	2.000000	1.016535	7.36822e+06	-54739.1	955.819	-29743.3	0.000000	0.000000	7.017426	15.379	NaN	0.000000	0.001640	0.001657	28.079	14.5254	0.001722	8434.7	7.459941	-177.34	14.8398	1.016254	0.015199	0.014918	15.379	8434.7	0.013832	0.013759	1117.73	65697.5
322	2.000000	1.018513	7.36822e+06	-54739.1	955.819	-29743.3	0.000000	0.000000	7.019530	18.4293	NaN	0.000000	0.001614	0.001683	28.0793	16.8572	0.001823	9244.62	8.852742	-178.008	18.1576	1.018287	0.017177	0.016951	18.4293	9244.62	0.015682	0.016206	1137.21	66348.1
322	2.000000	1.020503	7.36822e+06	-54739.1	955.818	-29743.3	0.000000	0.000000	7.021754	24.1353	NaN	0.000000	0.001670	0.001651	28.0793	18.3459	0.001634	11228	4.336181	-175.893	22.2729	1.020176	0.019167	0.018840	24.1353	11228	0.017555	0.018845	1280.73	74727.4
322	2.000000	1.022513	7.36822e+06	-54739.1	955.819	-29743.3	0.000000	0.000000	7.023894	27.2739	NaN	0.000000	0.001628	0.001641	28.0791	19.9682	0.001795	11127.3	3.736602	-173.495	26.7534	1.022178	0.021177	0.020842	27.2739	11127.3	0.019339	0.021514	1267.7	69310.2
322	2.000000	1.024505	7.36822e+06	-54739.1	955.819	-29743.3	0.000000	0.000000	7.026155	33.8177	NaN	0.000000	0.001610	0.001669	28.0792	22.5699	0.001613	13995.5	4.583374	-179.077	32.2641	1.024173	0.023170	0.022837	33.8177	13995.5	0.021358	0.024721	1368	81326.7
322	2.000000	1.026513	7.36822e+06	-54739.1	955.819	-29743.3	0.000000	0.000000	7.028222	35.2575	NaN	0.000000	0.001615	0.001712	28.0791	24.6148	0.001833	13427.3	4.925300	-177.487	35.0368	1.026261	0.025177	0.024926	35.2575	13427.3	0.023208	0.027836	1266.62	73529
322	2.000000	1.028509	7.36822e+06	-54739.1	955.819	-29743.3	0.000000	0.000000	7.030521	42.6105	NaN	0.000000	0.001609	0.001663	28.0793	27.1654	0.001858	14616.9	5.648493	-179.627	42.3776	1.028164	0.027174	0.026828	42.6105	14616.9	0.024987	0.030993	1374.85	75857.3
322	2.000000	1.030485	7.36822e+06	-54739.1	955.818	-29743.3	0.000000	0.000000	7.032649	46.3128	NaN	0.000000	0.001600	0.001696	28.0795	27.838	0.001773	15702.4	10.2731	175.269	45.0046	1.030164	0.029149	0.028828	46.3128	15702.4	0.026937	0.034635	1337.18	77087.4
322	2.000000	1.032474	7.36822e+06	-54739.1	955.819	-29743.3	0.000000	0.000000	7.034761	49.308	NaN	0.000000	0.001588	0.001679	28.0793	30.8163	0.001764	17466.3	8.841992	175.276	50.4921	1.032251	0.031139	0.030916	49.308	17466.3	0.029021	0.038740	1272.8	81076.6
322	2.000000	1.034537	7.36822e+06	-54739.1	955.819	-29743.3	0.000000	0.000000	7.037040	54.5584	NaN	0.000000	0.001631	0.001694	28.0792	32.8946	0.001861	17673.8	8.181420	177.524	56.2737	1.034131	0.033202	0.032796	54.5584	17673.8	0.030886	0.042601	1280.69	78234
322	2.000000	1.036496	7.36822e+06	-54739.1	955.82	-29743.3	0.000000	0.000000	7.039346	62.9816	NaN	0.000000	0.001603	0.001704	28.0796	34.3689	0.001664	20660.5	6.935424	176.311	64.3735	1.036113	0.035161	0.034777	62.9816	20660.5	0.032875	0.046913	1342.53	87150.1
322	2.000000	1.038468	7.36822e+06	-54739.1	955.82	-29743.3	0.000000	0.000000	7.041414	65.3244	NaN	0.000000	0.001643	0.001694	28.0804	37.784	0.001806	20925.2	8.668292	173.917	65.799	1.038255	0.037133	0.036919	65.3244	20925.2	0.034791	0.051261	1274.35	84440.3
322	2.000000	1.040451	7.36822e+06	-54739.1	955.82	-29743.3	0.000000	0.000000	7.043882	77.1036	NaN	0.000000	0.001628	0.001732	28.0805	37.742	0.001782	21184.1	2.625593	-179.665	75.2371	1.040120	0.039116	0.038785	77.1036	21184.1	0.036386	0.055023	1401.3	82511.1
322	2.000000	1.042424	7.36822e+06	-54739.1	955.82	-29743.3	0.000000	0.000000	7.046206	85.6336	NaN	0.000000	0.001632	0.001720	28.0805	41.3108	0.001877	22012.8	5.758786	176.708	81.9233	1.042047	0.041089	0.040712	85.6336	22012.8	0.038171	0.059388	1441.94	82527.8
322	2.000000	1.044492	7.36822e+06	-54739.1	955.82	-29743.3	0.000000	0.000000	7.048599	93.545	NaN	0.000000	0.001630	0.001703	28.0804	42.8714	0.001773	24176.6	4.982371	177.805	92.9401	1.044100	0.043157	0.042765	93.545	24176.6	0.040255	0.064689	1446.07	86846.6
322	2.000000	1.046410	7.36822e+06	-54739.1	955.819	-29743.3	0.000000	0.000000	7.050817	100.837	NaN	0.000000	0.001620	0.001674	28.081	44.6005	0.001704	26175.2	3.968840	177.18	98.8517	1.046167	0.045075	0.044832	100.837	26175.2	0.042186	0.069799	1444.68	90519
322	2.000000	1.048417	7.36822e+06	-54739.1	955.819	-29743.3	0.000000	0.000000	7.053212	110.282	NaN	0.000000	0.001614	0.001686	28.0804	47.1013	0.001840	25596.1	3.812058	176.813	108.184	1.048189	0.047081	0.046853	110.282	25596.1	0.043850	0.074356	1483.16	85760.8
322	2.000000	1.050481	7.36822e+06	-54739.1	955.819	-29743.3	0.000000	0.000000	7.055806	123.154	NaN	0.000000	0.001579	0.001644	28.0807	47.632	0.001681	28339.4	5.205222	175.729	122.72	1.050090	0.049146	0.048755	123.154	28339.4	0.045886	0.080124	1537.05	91470.9
322	2.000000	1.052397	7.36822e+06	-54739.1	955.82	-29743.3	0.000000	0.000000	7.057840	126.037	NaN	0.000000	0.001551	0.001647	28.0804	50.7183	0.001804	28108.4	3.839839	176.604	122.767	1.052124	0.051061	0.050789	126.037	28108.4	0.047698	0.085432	1475.3	87861.5
322	2.000000	1.054482	7.36822e+06	-54739.1	955.82	-29743.3	0.000000	0.000000	7.060628	143.122	NaN	0.000000	0.001552	0.001630	28.0803	53.0825	0.001780	29824.7	6.616254	174.223	143.92	1.054037	0.053146	0.052702	143.122	29824.7	0.049547	0.091018	1572.46	90320.3
322	2.000000	1.056481	7.36822e+06	-54739.1	955.819	-29743.3	0.000000	0.000000	7.062676	144.321	NaN	0.000000	0.001585	0.001676	28.0807	53.9939	0.001663	32472	5.494697	173.71	147.112	1.056151	0.055145	0.054816	144.321	32472	0.051812	0.098095	1471.23	94723.6
322	2.000000	1.058495	7.36822e+06	-54739.1	955.82	-29743.3	0.000000	0.000000	7.065131	155.024	NaN	0.000000	0.001648	0.001690	28.0802	57.451	0.001796	31979.7	1.919841	177.493	158.197	1.058176	0.057160	0.056841	155.024	31979.7	0.053524	0.103616	1496.15	90768.5
322	2.000000	1.060382	7.36822e+06	-54739.1	955.818	-29743.3	0.000000	0.000000	7.067664	170.745	NaN	0.000000	0.001575	0.001706	28.0808	58.4724	0.001657	35286	6.027506	171.625	166.3	1.060082	0.059046	0.058747	170.745	35286	0.055417	0.109889	1553.8	97252
322	2.000000	1.062430	7.36822e+06	-54739.1	955.819	-29743.3	0.000000	0.000000	7.070076	179.575	NaN	0.000000	0.001624	0.001701	28.0803	61.3572	0.001737	35320.3	5.820534	172.381	179.085	1.062201	0.061094	0.060866	179.575	35320.3	0.057281	0.116240	1544.87	94649.9
322	2.000000	1.064363	7.36822e+06	-54739.1	955.819	-29743.3	0.000000	0.000000	7.072490	191.269	NaN	0.000000	0.001644	0.001706	28.0804	63.0512	0.001852	34043.1	2.693485	176.085	185.573	1.064138	0.063028	0.062803	191.269	34043.1	0.058814	0.121590	1573.07	89197.7
322	2.000000	1.066386	7.36822e+06	-54739.1	955.818	-29743.3	0.000000	0.000000	7.075169	207.242	NaN	0.000000	0.001610	0.001689	28.0805	65.7125	0.001902	34547.9	6.922620	171.793	204.463	1.066030	0.065050	0.064695	207.242	34547.9	0.060551	0.127792	1621.71	88296.5
322	2.000000	1.068473	7.36822e+06	-54739.1	955.818	-29743.3	0.000000	0.000000	7.077755	219.353	NaN	0.000000	0.001613	0.001682	28.0803	67.523	0.001834	36807.6	5.328078	173.494	220.571	1.068030	0.067137	0.066695	219.353	36807.6	0.062668	0.135548	1618.28	91340.7
322	2.000000	1.070445	7.36822e+06	-54739.1	955.82	-29743.3	0.000000	0.000000	7.080403	235.789	NaN	0.000000	0.001627	0.001684	28.0808	68.8536	0.001757	39182.5	8.692425	170.17	236.921	1.069940	0.069110	0.068605	235.789	39182.5	0.064596	0.142804	1651.13	94731.5
322	2.000000	1.072408	7.36822e+06	-54739.1	955.818	-29743.3	0.000000	0.000000	7.082765	245.469	NaN	0.000000	0.001626	0.001695	28.079	70.2689	0.001795	39153.5	2.837518	175.284	244.458	1.072063	0.071073	0.070728	245.469	39153.5	0.066371	0.149639	1640.41	92474.5
322	2.000000	1.074397	7.36822e+06	-54739.1	955.818	-29743.3	0.000000	0.000000	7.085390	260.949	NaN	0.000000	0.001585	0.001693	28.0791	73.1252	0.001663	43983.5	6.145936	170.636	259.852	1.074105	0.073061	0.072770	260.949	43983.5	0.068611	0.158485	1646.52	100941
322	2.000000	1.076354	7.36822e+06	-54739.1	955.819	-29743.3	0.000000	0.000000	7.087873	273.717	NaN	0.000000	0.001581	0.001688	28.0792	73.501	0.001676	43861.6	2.228467	174.526	269.889	1.076034	0.075019	0.074698	273.717	43861.6	0.070338	0.165467	1654.21	98515
322	2.000000	1.078413	7.36822e+06	-54739.1	955.819	-29743.3	0.000000	0.000000	7.090117	278.211	NaN	0.000000	0.001560	0.001671	28.0791	78.5928	0.001807	43499.1	4.024738	172.502	277.121	1.078207	0.077078	0.076872	278.211	43499.1	0.072281	0.173491	1603.61	95414.8
322	2.000000	1.080391	7.36822e+06	-54739.1	955.819	-29743.3	0.000000	0.000000	7.093050	301.453	NaN	0.000000	0.001549	0.001700	28.0796	79.3703	0.001814	43753.2	7.518220	169.709	298.884	1.080017	0.079056	0.078681	301.453	43753.2	0.073888	0.180264	1672.29	94151.8
322	2.000000	1.082384	7.36822e+06	-54739.1	955.82	-29743.3	0.000000	0.000000	7.095672	316.735	NaN	0.000000	0.001564	0.001690	28.0808	81.9448	0.001822	44967.4	5.369749	171.791	313.648	1.082021	0.081048	0.080686	316.735	44967.4	0.075766	0.188330	1681.81	94669.8
322	2.000000	1.084375	7.36822e+06	-54739.1	955.818	-29743.3	0.000000	0.000000	7.098432	335.414	NaN	0.000000	0.001517	0.001698	28.083	84.9228	0.001869	45439.7	8.644738	168.574	332.657	1.083999	0.083040	0.082664	335.414	45439.7	0.077504	0.195945	1711.78	93786.8
322	2.000000	1.086260	7.36822e+06	-54739.1	955.819	-29743.3	0.000000	0.000000	7.100893	349.448	NaN	0.000000	0.001597	0.001729	28.0803	84.9466	0.001812	46869.9	4.385004	171.905	340.797	1.085985	0.084924	0.084649	349.448	46869.9	0.079332	0.204109	1712.06	94784.2
322	2.000000	1.088295	7.36822e+06	-54739.1	955.819	-29743.3	0.000000	0.000000	7.103479	362.827	NaN	0.000000	0.001574	0.001704	28.0793	87.6802	0.001844	47557.4	2.831058	173.502	357.767	1.088063	0.086960	0.086727	362.827	47557.4	0.081238	0.212781	1705.16	94194.3
322	2.000000	1.090343	7.36822e+06	-54739.1	955.819	-29743.3	0.000000	0.000000	7.106353	382.911	NaN	0.000000	0.001597	0.001749	28.0799	88.0311	0.001760	50013.7	0.539711	175.649	380.328	1.090037	0.089007	0.088701	382.911	50013.7	0.083265	0.222195	1723.31	96938.2
322	2.000000	1.092440	7.36822e+06	-54739.1	955.819	-29743.3	0.000000	0.000000	7.108905	393.97	NaN	0.000000	0.001625	0.001708	28.0791	91.0729	0.001860	48972.9	3.693815	172.826	394.695	1.092125	0.091105	0.090790	393.97	48972.9	0.085071	0.230742	1707.4	93146.2
322	2.000000	1.094464	7.36822e+06	-54739.1	955.819	-29743.3	0.000000	0.000000	7.111480	407.38	NaN	0.000000	0.001603	0.001722	28.0792	92.8244	0.001720	53972.5	6.255623	169.597	409.798	1.094068	0.093128	0.092732	407.38	53972.5	0.087467	0.242311	1681.22	100175
322	2.000000	1.096406	7.36822e+06	-54739.1	955.818	-29743.3	0.000000	0.000000	7.114187	425.955	NaN	0.000000	0.001574	0.001698	28.0794	94.1975	0.001788	52690.2	7.828979	168.856	424.607	1.095892	0.095071	0.094556	425.955	52690.2	0.089008	0.249891	1704.56	96300.3
322	2.000000	1.098431	7.36822e+06	-54739.1	955.818	-29743.3	0.000000	0.000000	7.116749	439.024	NaN	0.000000	0.001601	0.001634	28.079	97.8748	0.001833	53382	5.633821	170.127	440.836	1.098050	0.097095	0.096715	439.024	53382	0.090927	0.259485	1691.91	95744.2
322	2.000000	1.100342	7.36822e+06	-54739.1	955.82	-29743.3	0.000000	0.000000	7.119419	457.463	NaN	0.000000	0.001624	0.001636	28.0794	96.8396	0.001854	52221.6	-0.568912	176.636	453.68	1.100051	0.099007	0.098716	457.463	52221.6	0.092437	0.267151	1712.38	92309.1
322	2.000000	1.102344	7.36822e+06	-54739.1	955.819	-29743.3	0.000000	0.000000	7.122263	477.942	NaN	0.000000	0.001561	0.001644	28.0791	101.038	0.001724	58622.7	7.601202	167.522	476.566	1.102097	0.101009	0.100761	477.942	58622.7	0.094894	0.279850	1707.85	101246
322	2.000000	1.104440	7.36822e+06	-54739.1	955.82	-29743.3	0.000000	0.000000	7.124965	492.662	NaN	0.000000	0.001604	0.001639	28.0792	103.995	0.001819	57164.7	8.592699	166.338	492.224	1.104152	0.103105	0.102817	492.662	57164.7	0.096641	0.289046	1704.44	97144.4
322	2.000000	1.106284	7.36822e+06	-54739.1	955.819	-29743.3	0.000000	0.000000	7.127655	513.241	NaN	0.000000	0.001573	0.001650	28.0805	104.43	0.001775	58818.2	5.827268	169.068	505.146	1.105950	0.104948	0.104614	513.241	58818.2	0.098404	0.298466	1719.59	98364.2
322	2.000000	1.108349	7.36822e+06	-54739.1	955.819	-29743.3	0.000000	0.000000	7.130636	535.506	NaN	0.000000	0.001574	0.001653	28.0802	106.98	0.001732	61748.9	6.358237	168.198	532.83	1.107991	0.107014	0.106655	535.506	61748.9	0.100509	0.309905	1727.97	101342
322	2.000000	1.108810	7.36822e+06	-54739.1	955.819	-29743.3	0.000000	0.000000	7.131329	541.152	NaN	0.000000	0.001574	0.001665	28.0806	108.122	0.001821	59383	8.252984	-12.9573	536.242	1.108422	0.107474	0.107086	541.152	59383	0.100640	0.310618	1742.18	97346.7