File: remote_trans/data/nanoindenter/0828-1/data/Data_2025-08-06,11h17m57s/2025-07-22_16-23-58_1_1131.txt
2025-07-22, 16:23:58, 1
Index	Phase	Displacement	Time	Pos X	Pos Y	Pos Z	Rot A	Rot B	Piezo Z	Force A	Force B	Gripper	Voltage A	Voltage B	Temperature	Amplitude force	Amplitude pos	Stiffness	Phase shift	Phase excitation	Force A raw	Displacement raw	HMax	HMax raw	Real Force	Real Stiffness	Contact Depth	Area	Hardness	Reduced Mod.
[#]	[#]	[um]	[s]	[um]	[um]	[um]	[m°]	[m°]	[um]	[uN]	[uN]	[V]	[V]	[V]	[°C]	[uN]	[um]	[N/m]	[°]	[°]	[uN]	[um]	[um]	[um]	[uN]	[N/m]	[um]	[um^2]	[MPa]	[MPa]
1131	1.000000	0.002105	7.37611e+06	-56689.1	1055.82	-29738.1	0.000000	0.000000	6.002800	0.012013	NaN	0.000000	0.001573	0.001661	28.0833	0.075694	0.001015	74.5713	-88.3617	-166.68	-0.026299	0.000813	-1.248769	-1.250062	0.012013	74.5713	-1.248890	-4.955340E+16	-2.424259E-19	NaN
1131	1.000000	0.012188	7.37611e+06	-56689.1	1055.82	-29738.1	0.000000	0.000000	6.012882	0.002935	NaN	0.000000	0.001530	0.001658	28.0834	0.074331	0.001230	60.4524	-56.4804	15.741	-0.018585	0.010728	-1.238687	-1.240147	0.002935	60.4524	-1.238723	-3.622971E+16	-8.102422E-20	NaN
1131	1.000000	0.022073	7.37611e+06	-56689.1	1055.82	-29738.1	0.000000	0.000000	6.022765	-0.049598	NaN	0.000000	0.001565	0.001742	28.0831	0.052670	0.001698	31.0214	33.0202	-166.393	0.008896	0.020708	-1.228802	-1.230167	-0.049598	31.0214	-1.227602	-2.571899E+16	1.928459E-18	NaN
1131	1.000000	0.032036	7.37611e+06	-56689.1	1055.82	-29738.1	0.000000	0.000000	6.032731	0.048258	NaN	0.000000	0.001590	0.001713	28.0827	0.042251	0.001880	22.4684	12.9669	15.5466	-0.030248	0.030746	-1.218839	-1.220128	0.048258	22.4684	-1.220450	-2.063134E+16	-2.339057E-18	NaN
1131	1.000000	0.042073	7.37611e+06	-56689.1	1055.82	-29738.1	0.000000	0.000000	6.042768	0.015799	NaN	0.000000	0.001606	0.001717	28.083	0.073257	0.001864	39.3	-28.8687	-163.749	0.054538	0.040727	-1.208801	-1.210148	0.015799	39.3	-1.209103	-1.454214E+16	-1.086409E-18	NaN
1131	1.000000	0.052054	7.37611e+06	-56689.1	1055.82	-29738.1	0.000000	0.000000	6.052747	-0.004685	NaN	0.000000	0.001555	0.001732	28.0825	0.029934	0.001948	15.3696	-135.249	17.7859	-0.003799	0.050655	-1.198821	-1.200220	-0.004685	15.3696	-1.198592	-1.051713E+16	4.454952E-19	NaN
1131	1.000000	0.062098	7.37611e+06	-56689.1	1055.82	-29738.1	0.000000	0.000000	6.062793	0.029767	NaN	0.000000	0.001579	0.001745	28.0841	0.003917	0.001849	2.118167	155.092	-168.672	0.009152	0.060748	-1.188777	-1.190127	0.029767	2.118167	-1.199317	-1.075480E+16	-2.767818E-18	NaN
1131	1.000000	0.072080	7.37611e+06	-56689.1	1055.82	-29738.1	0.000000	0.000000	6.072773	-0.023797	NaN	0.000000	0.001558	0.001727	28.0841	0.035410	0.002124	16.6709	137.733	13.7855	-0.031976	0.070703	-1.178795	-1.180172	-0.023797	16.6709	-1.177724	-5.525645E+15	4.306627E-18	NaN
1131	1.000000	0.082038	7.37611e+06	-56689.1	1055.82	-29738.1	0.000000	0.000000	6.082732	0.009757	NaN	0.000000	0.001565	0.001741	28.0845	0.042902	0.002065	20.7759	176.821	-165.063	0.009675	0.080746	-1.168837	-1.170129	0.009757	20.7759	-1.169189	-4.246388E+15	-2.297679E-18	NaN
1131	1.000000	0.092085	7.37611e+06	-56689.1	1055.82	-29738.1	0.000000	0.000000	6.092779	0.001765	NaN	0.000000	0.001602	0.001712	28.0841	0.153302	0.001967	77.9177	127.395	17.5532	0.007659	0.090727	-1.158789	-1.160147	0.001765	77.9177	-1.158806	-3.082257E+15	-5.725403E-19	NaN
1131	1.000000	0.102090	7.37611e+06	-56689.1	1055.82	-29738.1	0.000000	0.000000	6.102785	0.024750	NaN	0.000000	0.001590	0.001725	28.0843	0.097244	0.001877	51.808	-152.266	-166.96	0.051028	0.100769	-1.148785	-1.150105	0.024750	51.808	-1.149143	-2.287344E+15	-1.082022E-17	NaN
1131	1.000000	0.112045	7.37611e+06	-56689.1	1055.82	-29738.1	0.000000	0.000000	6.112737	-0.050354	NaN	0.000000	0.001574	0.001739	28.0843	0.013045	0.002018	6.463341	29.1016	16.3855	-0.004505	0.110752	-1.138829	-1.140123	-0.050354	6.463341	-1.132986	-1.388923E+15	3.625377E-17	NaN
1131	1.000000	0.122061	7.37611e+06	-56689.1	1055.82	-29738.1	0.000000	0.000000	6.122755	0.017757	NaN	0.000000	0.001596	0.001726	28.0843	0.040599	0.001913	21.2233	-126.243	-166.734	0.018931	0.120797	-1.128814	-1.130078	0.017757	21.2233	-1.129442	-1.244893E+15	-1.426366E-17	NaN
1131	1.000000	0.132118	7.37611e+06	-56689.1	1055.82	-29738.1	0.000000	0.000000	6.132813	0.039297	NaN	0.000000	0.001594	0.001743	28.0841	0.091449	0.001918	47.6919	-108.433	16.4574	0.063225	0.130708	-1.118757	-1.120167	0.039297	47.6919	-1.119375	-9.121851E+14	-4.307963E-17	NaN
1131	1.000000	0.142093	7.37611e+06	-56689.1	1055.82	-29738.1	0.000000	0.000000	6.142785	-0.041792	NaN	0.000000	0.001603	0.001731	28.0844	0.050582	0.001969	25.6871	-127.003	-164.496	0.004067	0.140791	-1.108782	-1.110084	-0.041792	25.6871	-1.107561	-6.332270E+14	6.599880E-17	NaN
1131	1.000000	0.152081	7.37611e+06	-56689.1	1055.82	-29738.1	0.000000	0.000000	6.152778	0.080690	NaN	0.000000	0.001622	0.001764	28.0846	0.078057	0.002131	36.6319	-178.15	13.4136	0.028288	0.150733	-1.098794	-1.100141	0.080690	36.6319	-1.100446	-5.082182E+14	-1.587697E-16	NaN
1131	1.000000	0.162106	7.37611e+06	-56689.1	1055.82	-29738.1	0.000000	0.000000	6.162798	-0.032030	NaN	0.000000	0.001564	0.001751	28.0846	0.070978	0.001970	36.0373	-30.5569	-164.675	-0.052047	0.160811	-1.088769	-1.090063	-0.032030	36.0373	-1.088102	-3.469998E+14	9.230664E-17	NaN
1131	1.000000	0.172105	7.37611e+06	-56689.1	1055.82	-29738.1	0.000000	0.000000	6.172800	0.027041	NaN	0.000000	0.001579	0.001749	28.0843	0.052184	0.001932	27.0089	88.8787	16.2315	0.051492	0.170761	-1.078769	-1.080114	0.027041	27.0089	-1.079520	-2.661189E+14	-1.016109E-16	NaN
1131	1.000000	0.182111	7.37611e+06	-56689.1	1055.82	-29738.1	0.000000	0.000000	6.182806	0.006965	NaN	0.000000	0.001546	0.001740	28.0844	0.123280	0.002048	60.1992	162.062	-162.738	-0.009833	0.180797	-1.068763	-1.070078	0.006965	60.1992	-1.068850	-1.913104E+14	-3.640554E-17	NaN
1131	1.000000	0.192093	7.37612e+06	-56689.1	1055.82	-29738.1	0.000000	0.000000	6.192787	0.018180	NaN	0.000000	0.001548	0.001736	28.0845	0.080856	0.002010	40.2173	-151.921	15.1175	0.026350	0.190731	-1.058782	-1.060144	0.018180	40.2173	-1.059121	-1.415829E+14	-1.284026E-16	NaN
1131	1.000000	0.202139	7.37612e+06	-56689.1	1055.82	-29738.1	0.000000	0.000000	6.202831	-0.041557	NaN	0.000000	0.001552	0.001735	28.0832	0.047250	0.002040	23.1615	-134.689	-162.771	0.023244	0.200796	-1.048735	-1.050079	-0.041557	23.1615	-1.047390	-9.847463E+13	4.220090E-16	NaN
1131	1.000000	0.212111	7.37612e+06	-56689.1	1055.82	-29738.1	0.000000	0.000000	6.212805	0.003886	NaN	0.000000	0.001591	0.001669	28.083	0.025140	0.001867	13.4633	-171.335	20.2628	-0.035594	0.210768	-1.038764	-1.040106	0.003886	13.4633	-1.038980	-7.590257E+13	-5.119367E-17	NaN
1131	1.000000	0.222149	7.37612e+06	-56689.1	1055.82	-29738.1	0.000000	0.000000	6.222846	0.071136	NaN	0.000000	0.001542	0.001710	28.0833	0.082182	0.001971	41.6924	-165.276	-163.115	-0.025872	0.220785	-1.028725	-1.030090	0.071136	41.6924	-1.030005	-5.748428E+13	-1.237481E-15	NaN
1131	1.000000	0.232106	7.37612e+06	-56689.1	1055.82	-29738.1	0.000000	0.000000	6.232800	0.000187	NaN	0.000000	0.001561	0.001710	28.083	0.076346	0.001833	41.6401	124.399	14.0051	0.042462	0.230761	-1.018768	-1.020114	0.000187	41.6401	-1.018772	-4.059044E+13	-4.612645E-18	NaN
1131	1.000000	0.242157	7.37612e+06	-56689.1	1055.82	-29738.1	0.000000	0.000000	6.242852	0.021243	NaN	0.000000	0.001557	0.001715	28.083	0.025637	0.002038	12.5823	-163.614	-163.33	0.045014	0.240787	-1.008717	-1.010088	0.021243	12.5823	-1.009984	-3.091438E+13	-6.871643E-16	NaN
1131	1.000000	0.252116	7.37612e+06	-56689.1	1055.82	-29738.1	0.000000	0.000000	6.252811	0.023385	NaN	0.000000	0.001571	0.001721	28.0832	0.182184	0.002050	88.886	16.3354	14.3838	0.097273	0.250721	-0.998758	-1.000154	0.023385	88.886	-0.998956	-2.196380E+13	-1.064707E-15	NaN
1131	1.000000	0.262161	7.37612e+06	-56689.1	1055.82	-29738.1	0.000000	0.000000	6.262859	0.092702	NaN	0.000000	0.001581	0.001734	28.0831	0.168978	0.001837	91.976	151.132	-165.108	0.145891	0.260833	-0.988714	-0.990042	0.092702	91.976	-0.989470	-1.636705E+13	-5.663960E-15	NaN
1131	1.000000	0.272134	7.37612e+06	-56689.1	1055.82	-29738.1	0.000000	0.000000	6.272831	0.083795	NaN	0.000000	0.001563	0.001723	28.0833	0.035952	0.002034	17.6741	122.284	15.9549	-0.012686	0.270770	-0.978741	-0.980105	0.083795	17.6741	-0.982297	-1.310241E+13	-6.395376E-15	NaN
1131	1.000000	0.282177	7.37612e+06	-56689.1	1055.82	-29738.1	0.000000	0.000000	6.282872	0.032672	NaN	0.000000	0.001612	0.001723	28.0831	0.064933	0.002151	30.1886	78.6282	-166.613	0.050358	0.280857	-0.968698	-0.970018	0.032672	30.1886	-0.969510	-8.811582E+12	-3.707903E-15	NaN
1131	1.000000	0.292151	7.37612e+06	-56689.1	1055.82	-29738.1	0.000000	0.000000	6.292844	-0.026384	NaN	0.000000	0.001627	0.001694	28.0834	0.101391	0.001985	51.0904	99.9674	13.5697	-0.049964	0.290787	-0.958724	-0.960088	-0.026384	51.0904	-0.958337	-6.229363E+12	4.235445E-15	NaN
1131	1.000000	0.302166	7.37612e+06	-56689.1	1055.82	-29738.1	0.000000	0.000000	6.302862	0.054569	NaN	0.000000	0.001573	0.001726	28.0831	0.122586	0.002033	60.2914	-103.11	-165.291	-0.016985	0.300822	-0.948709	-0.950053	0.054569	60.2914	-0.949388	-4.718158E+12	-1.156564E-14	NaN
1131	1.000000	0.312177	7.37612e+06	-56689.1	1055.82	-29738.1	0.000000	0.000000	6.312874	0.057704	NaN	0.000000	0.001604	0.001733	28.0832	0.026546	0.001971	13.4692	-165.65	14.6701	0.110974	0.310831	-0.938697	-0.940043	0.057704	13.4692	-0.941911	-3.740352E+12	-1.542755E-14	NaN
1131	1.000000	0.322145	7.37612e+06	-56689.1	1055.82	-29738.1	0.000000	0.000000	6.322840	0.021467	NaN	0.000000	0.001579	0.001737	28.0829	0.079379	0.001798	44.1523	73.8287	-163.553	0.100630	0.320808	-0.928730	-0.930066	0.021467	44.1523	-0.929094	-2.511729E+12	-8.546705E-15	NaN
1131	1.000000	0.332189	7.37612e+06	-56689.1	1055.82	-29738.1	0.000000	0.000000	6.332885	0.043449	NaN	0.000000	0.001667	0.001743	28.0837	0.025033	0.001917	13.0611	-44.6094	18.0856	0.051277	0.330801	-0.918686	-0.920074	0.043449	13.0611	-0.921181	-1.964025E+12	-2.212236E-14	NaN
1131	1.000000	0.342172	7.37612e+06	-56689.1	1055.82	-29738.1	0.000000	0.000000	6.342867	0.038339	NaN	0.000000	0.001665	0.001728	28.0844	0.145781	0.002016	72.3293	140.535	-163.658	-0.021893	0.340922	-0.908703	-0.909952	0.038339	72.3293	-0.909100	-1.348991E+12	-2.842043E-14	NaN
1131	1.000000	0.352184	7.37612e+06	-56689.1	1055.82	-29738.1	0.000000	0.000000	6.352880	0.062923	NaN	0.000000	0.001551	0.001708	28.0845	0.018615	0.001915	9.719289	-94.917	15.4075	0.067244	0.350806	-0.898691	-0.900069	0.062923	9.719289	-0.903546	-1.134961E+12	-5.544035E-14	NaN
1131	1.000000	0.362186	7.37612e+06	-56689.1	1055.82	-29738.1	0.000000	0.000000	6.362879	-0.023324	NaN	0.000000	0.001511	0.001710	28.0845	0.082975	0.001995	41.5982	113.543	-166.587	0.037231	0.360918	-0.888689	-0.889957	-0.023324	41.5982	-0.888268	-7.055121E+11	3.305898E-14	NaN
1131	1.000000	0.372175	7.37612e+06	-56689.1	1055.82	-29738.1	0.000000	0.000000	6.372868	-0.032077	NaN	0.000000	0.001533	0.001728	28.0845	0.064954	0.002096	30.9839	2.805625	14.3077	0.047421	0.370873	-0.878699	-0.880002	-0.032077	30.9839	-0.877923	-5.112330E+11	6.274388E-14	NaN
1131	1.000000	0.382205	7.37612e+06	-56689.1	1055.82	-29738.1	0.000000	0.000000	6.382901	0.051400	NaN	0.000000	0.001575	0.001742	28.0841	0.043560	0.002164	20.1252	-142.294	-161.682	0.049457	0.380892	-0.868670	-0.869982	0.051400	20.1252	-0.870585	-4.067842E+11	-1.263569E-13	NaN
1131	1.000000	0.392211	7.37612e+06	-56689.1	1055.82	-29738.1	0.000000	0.000000	6.392907	0.054848	NaN	0.000000	0.001529	0.001722	28.0846	0.054188	0.002034	26.6422	169.367	16.0635	0.037867	0.390823	-0.858664	-0.860051	0.054848	26.6422	-0.860208	-2.944002E+11	-1.863041E-13	NaN
1131	1.000000	0.402215	7.37612e+06	-56689.1	1055.82	-29738.1	0.000000	0.000000	6.402909	-0.002255	NaN	0.000000	0.001549	0.001722	28.0844	0.110364	0.002037	54.1891	-109.878	-162.578	0.049679	0.400904	-0.848659	-0.849971	-0.002255	54.1891	-0.848628	-2.051926E+11	1.099137E-14	NaN
1131	1.000000	0.412232	7.37612e+06	-56689.1	1055.82	-29738.1	0.000000	0.000000	6.412924	-0.051312	NaN	0.000000	0.001566	0.001720	28.0846	0.088178	0.001944	45.367	51.8103	14.3477	0.008019	0.410838	-0.838643	-0.840037	-0.051312	45.367	-0.837794	-1.463559E+11	3.505987E-13	NaN
1131	1.000000	0.422192	7.37612e+06	-56689.1	1055.82	-29738.1	0.000000	0.000000	6.422885	-0.043811	NaN	0.000000	0.001586	0.001711	28.0845	0.055924	0.001941	28.8071	140.224	-169.014	-0.035525	0.420921	-0.828682	-0.829954	-0.043811	28.8071	-0.827542	-1.062824E+11	4.122159E-13	NaN
1131	1.000000	0.432216	7.37612e+06	-56689.1	1055.82	-29738.1	0.000000	0.000000	6.432912	0.062900	NaN	0.000000	0.001581	0.001696	28.0847	0.073052	0.001934	37.769	-128.633	15.5766	0.019339	0.430846	-0.818659	-0.820029	0.062900	37.769	-0.819908	-8.374554E+10	-7.510889E-13	NaN
1131	1.000000	0.442217	7.37612e+06	-56689.1	1055.82	-29738.1	0.000000	0.000000	6.442910	-0.020647	NaN	0.000000	0.001566	0.001717	28.0846	0.098857	0.001984	49.8244	85.5529	-160.715	0.006708	0.440896	-0.808657	-0.809978	-0.020647	49.8244	-0.808347	-5.836318E+10	3.537732E-13	NaN
1131	1.000000	0.452227	7.37612e+06	-56689.1	1055.82	-29738.1	0.000000	0.000000	6.452923	0.055358	NaN	0.000000	0.001600	0.001711	28.0847	0.051229	0.001979	25.8844	145.544	17.3779	0.088417	0.450915	-0.798648	-0.799960	0.055358	25.8844	-0.800252	-4.531915E+10	-1.221517E-12	NaN
1131	1.000000	0.462201	7.37612e+06	-56689.1	1055.82	-29738.1	0.000000	0.000000	6.462896	0.012183	NaN	0.000000	0.001583	0.001707	28.0846	0.096055	0.002091	45.9431	58.017	-161.89	0.072218	0.460908	-0.788673	-0.789966	0.012183	45.9431	-0.788872	-3.175156E+10	-3.836978E-13	NaN
1131	1.000000	0.472240	7.37612e+06	-56689.1	1055.82	-29738.1	0.000000	0.000000	6.472934	-0.014217	NaN	0.000000	0.001607	0.001742	28.0837	0.075958	0.002092	36.3088	-156.904	13.253	0.022686	0.470803	-0.778634	-0.780072	-0.014217	36.3088	-0.778341	-2.283938E+10	6.224742E-13	NaN
1131	1.000000	0.482227	7.37612e+06	-56689.1	1055.82	-29738.1	0.000000	0.000000	6.482920	-0.005132	NaN	0.000000	0.001616	0.001716	28.0835	0.018655	0.001843	10.1244	-174.859	-164.635	-0.117208	0.480853	-0.768648	-0.770022	-0.005132	10.1244	-0.768268	-1.666298E+10	3.079778E-13	NaN
1131	1.000000	0.492238	7.37612e+06	-56689.1	1055.82	-29738.1	0.000000	0.000000	6.492932	0.005753	NaN	0.000000	0.001631	0.001712	28.0831	0.049725	0.001966	25.296	-176.339	14.4062	0.023172	0.490881	-0.758637	-0.759994	0.005753	25.296	-0.758807	-1.239006E+10	-4.643120E-13	NaN
1131	1.000000	0.502252	7.37612e+06	-56689.1	1055.82	-29738.1	0.000000	0.000000	6.502945	-0.022123	NaN	0.000000	0.001626	0.001680	28.0833	0.098521	0.002010	49.0213	50.6244	-165.271	-0.011833	0.500942	-0.748622	-0.749933	-0.022123	49.0213	-0.748284	-8.909571E+9	2.483035E-12	NaN
1131	1.000000	0.512262	7.37612e+06	-56689.1	1055.82	-29738.1	0.000000	0.000000	6.512957	0.011971	NaN	0.000000	0.001630	0.001703	28.0833	0.010106	0.002033	4.971287	164.294	16.8261	-0.003661	0.510839	-0.738612	-0.740036	0.011971	4.971287	-0.740418	-6.962319E+9	-1.719451E-12	NaN
1131	1.000000	0.522283	7.37612e+06	-56689.1	1055.82	-29738.1	0.000000	0.000000	6.522978	0.027995	NaN	0.000000	0.001636	0.001720	28.0833	0.051922	0.002006	25.8803	28.8486	-163.604	0.056501	0.520966	-0.728592	-0.729909	0.027995	25.8803	-0.729403	-4.927978E+9	-5.680786E-12	NaN
1131	1.000000	0.532261	7.37612e+06	-56689.1	1055.82	-29738.1	0.000000	0.000000	6.532960	0.119966	NaN	0.000000	0.001696	0.001697	28.0833	0.053609	0.001744	30.7356	-104.773	14.5827	0.040996	0.530905	-0.718613	-0.719970	0.119966	30.7356	-0.721541	-3.850192E+9	-3.115843E-11	NaN
1131	1.000000	0.542249	7.37612e+06	-56689.1	1055.82	-29738.1	0.000000	0.000000	6.542942	-0.012490	NaN	0.000000	0.001692	0.001694	28.0836	0.052968	0.001922	27.5626	27.6701	-165.697	0.004457	0.540946	-0.708626	-0.709929	-0.012490	27.5626	-0.708286	-2.538948E+9	4.919363E-12	NaN
1131	1.000000	0.552238	7.37612e+06	-56689.1	1055.82	-29738.1	0.000000	0.000000	6.552933	0.034482	NaN	0.000000	0.001656	0.001667	28.0835	0.026757	0.002111	12.6746	93.7808	14.4581	-0.015927	0.550880	-0.698636	-0.699995	0.034482	12.6746	-0.700677	-1.998827E+9	-1.725110E-11	NaN
1131	1.000000	0.562248	7.37612e+06	-56689.1	1055.82	-29738.1	0.000000	0.000000	6.562941	-0.009143	NaN	0.000000	0.001669	0.001669	28.0833	0.113284	0.001944	58.2792	103.744	-164.118	-0.062586	0.560944	-0.688627	-0.689931	-0.009143	58.2792	-0.688509	-1.363148E+9	6.707355E-12	NaN
1131	1.000000	0.572269	7.37612e+06	-56689.1	1055.82	-29738.1	0.000000	0.000000	6.572964	0.027064	NaN	0.000000	0.001689	0.001701	28.083	0.111058	0.001868	59.4414	-80.7542	16.7926	0.054466	0.570931	-0.678606	-0.679944	0.027064	59.4414	-0.678947	-1.008812E+9	-2.682751E-11	NaN
1131	1.000000	0.582280	7.37612e+06	-56689.1	1055.82	-29738.1	0.000000	0.000000	6.582975	0.025930	NaN	0.000000	0.001663	0.001683	28.0832	0.088764	0.001905	46.6006	85.1555	-168.395	0.057844	0.580936	-0.668595	-0.669939	0.025930	46.6006	-0.669012	-7.376803E+8	-3.515025E-11	NaN
1131	1.000000	0.592276	7.37612e+06	-56689.1	1055.82	-29738.1	0.000000	0.000000	6.592973	0.077584	NaN	0.000000	0.001669	0.001675	28.083	0.086446	0.002034	42.5055	77.483	18.4446	0.020885	0.590848	-0.658598	-0.660027	0.077584	42.5055	-0.659967	-5.546547E+8	-1.398776E-10	NaN
1131	1.000000	0.602288	7.37612e+06	-56689.1	1055.82	-29738.1	0.000000	0.000000	6.602982	0.008673	NaN	0.000000	0.001720	0.001673	28.0831	0.030254	0.002012	15.0347	66.1055	-164.74	-0.020935	0.600933	-0.648587	-0.649942	0.008673	15.0347	-0.649019	-3.926380E+8	-2.208943E-11	NaN
1131	1.000000	0.612298	7.37612e+06	-56689.1	1055.82	-29738.1	0.000000	0.000000	6.612992	-0.001241	NaN	0.000000	0.001641	0.001670	28.0845	0.049944	0.002007	24.889	-14.9363	15.209	0.003685	0.610935	-0.638576	-0.639940	-0.001241	24.889	-0.638539	-2.819955E+8	4.401397E-12	NaN
1131	1.000000	0.622312	7.37612e+06	-56689.1	1055.82	-29738.2	0.000000	0.000000	6.623005	-0.004027	NaN	0.000000	0.001652	0.001671	28.0843	0.055201	0.002053	26.8932	144.482	-164.21	0.009875	0.621005	-0.628563	-0.629870	-0.004027	26.8932	-0.628451	-2.049971E+8	1.964279E-11	NaN
1131	1.000000	0.632298	7.37612e+06	-56689.1	1055.82	-29738.2	0.000000	0.000000	6.632992	0.002469	NaN	0.000000	0.001624	0.001697	28.0842	0.048289	0.001900	25.416	110.442	18.2936	0.008143	0.630932	-0.618576	-0.619942	0.002469	25.416	-0.618649	-1.503372E+8	-1.642203E-11	NaN
1131	1.000000	0.642329	7.37612e+06	-56689.1	1055.82	-29738.2	0.000000	0.000000	6.643022	-0.013824	NaN	0.000000	0.001637	0.001738	28.0843	0.094236	0.001987	47.4326	-114.14	-166.847	-0.023501	0.640999	-0.608546	-0.609876	-0.013824	47.4326	-0.608328	-1.084183E+8	1.275101E-10	NaN
1131	1.000000	0.652339	7.37612e+06	-56689.1	1055.82	-29738.2	0.000000	0.000000	6.653035	0.049615	NaN	0.000000	0.001606	0.001704	28.0846	0.076988	0.001950	39.4842	28.1856	15.971	0.004742	0.650981	-0.598536	-0.599893	0.049615	39.4842	-0.599478	-8.189805E+7	-6.058098E-10	NaN
1131	1.000000	0.662330	7.37612e+06	-56689.1	1055.82	-29738.2	0.000000	0.000000	6.663023	-0.035383	NaN	0.000000	0.001590	0.001728	28.0846	0.072394	0.001949	37.1483	-46.2948	-164.064	-0.006070	0.660977	-0.588544	-0.589898	-0.035383	37.1483	-0.587830	-5.659090E+7	6.252501E-10	NaN
1131	1.000000	0.672317	7.37612e+06	-56689.1	1055.82	-29738.2	0.000000	0.000000	6.673012	0.020768	NaN	0.000000	0.001591	0.001706	28.0846	0.087955	0.002040	43.1113	-127.086	16.8227	-0.043165	0.670929	-0.578557	-0.579946	0.020768	43.1113	-0.578919	-4.263845E+7	-4.870605E-10	NaN
1131	1.000000	0.682319	7.37612e+06	-56689.1	1055.82	-29738.2	0.000000	0.000000	6.683012	-0.024810	NaN	0.000000	0.001598	0.001709	28.0848	0.048629	0.001845	26.3601	-56.0531	-165.434	-0.002047	0.681029	-0.568555	-0.569845	-0.024810	26.3601	-0.567849	-2.998553E+7	8.273993E-10	NaN
1131	1.000000	0.692327	7.37612e+06	-56689.1	1055.82	-29738.2	0.000000	0.000000	6.693020	-0.010637	NaN	0.000000	0.001602	0.001725	28.0848	0.090430	0.002076	43.5638	3.033263	17.4837	0.023518	0.690971	-0.558548	-0.559904	-0.010637	43.5638	-0.558365	-2.216956E+7	4.798196E-10	NaN
1131	1.000000	0.702346	7.37612e+06	-56689.1	1055.82	-29738.2	0.000000	0.000000	6.703036	-0.095579	NaN	0.000000	0.001616	0.001752	28.0847	0.065035	0.001962	33.1487	-113.704	-164.131	-0.034691	0.700969	-0.548529	-0.549906	-0.095579	33.1487	-0.546366	-1.512222E+7	6.320410E-9	NaN
1131	1.000000	0.712338	7.37612e+06	-56689.1	1055.82	-29738.2	0.000000	0.000000	6.713030	-0.053022	NaN	0.000000	0.001604	0.001711	28.085	0.115050	0.001986	57.9169	-32.6991	16.0245	-0.075135	0.710992	-0.538537	-0.539883	-0.053022	57.9169	-0.537850	-1.152227E+7	4.601683E-9	NaN
1131	1.000000	0.722376	7.37612e+06	-56689.1	1055.82	-29738.2	0.000000	0.000000	6.723071	0.021216	NaN	0.000000	0.001626	0.001749	28.0851	0.103984	0.002073	50.1707	145.362	-164.221	0.051261	0.721022	-0.528498	-0.529853	0.021216	50.1707	-0.528816	-8.63224e+06	-2.457716E-9	NaN
1131	1.000000	0.732355	7.37612e+06	-56689.1	1055.82	-29738.2	0.000000	0.000000	6.733047	-0.035269	NaN	0.000000	0.001607	0.001732	28.085	0.105898	0.002072	51.1195	88.2632	13.286	-0.000851	0.730987	-0.518520	-0.519888	-0.035269	51.1195	-0.518003	-6.10679e+06	5.775455E-9	NaN
1131	1.000000	0.742300	7.37612e+06	-56689.1	1055.82	-29738.2	0.000000	0.000000	6.742994	0.008765	NaN	0.000000	0.001620	0.001771	28.0844	0.054749	0.001890	28.9673	96.9725	-165.762	0.088940	0.741013	-0.508575	-0.509862	0.008765	28.9673	-0.508802	-4.54699e+06	-1.927555E-9	NaN
1131	1.000000	0.752371	7.37612e+06	-56689.1	1055.82	-29738.2	0.000000	0.000000	6.753062	-0.071078	NaN	0.000000	0.001614	0.001725	28.0835	0.045924	0.001948	23.571	-69.0025	15.4572	-0.022079	0.751032	-0.498504	-0.499842	-0.071078	23.571	-0.496242	-3.0379e+06	2.339700E-8	NaN
1131	1.000000	0.762348	7.37612e+06	-56689.1	1055.82	-29738.2	0.000000	0.000000	6.763042	-0.002704	NaN	0.000000	0.001584	0.001697	28.0837	0.026409	0.002006	13.168	125.627	-167.587	0.051504	0.761090	-0.488527	-0.489784	-0.002704	13.168	-0.488373	-2.35858e+06	1.146266E-9	NaN
1131	1.000000	0.772354	7.37612e+06	-56689.1	1055.82	-29738.2	0.000000	0.000000	6.773048	0.019196	NaN	0.000000	0.001574	0.001729	28.0834	0.034014	0.001955	17.3957	34.2309	15.3146	-0.036213	0.771021	-0.478521	-0.479854	0.019196	17.3957	-0.479349	-1.76363e+06	-1.088423E-8	NaN
1131	1.000000	0.782331	7.37612e+06	-56689.1	1055.82	-29738.2	0.000000	0.000000	6.783027	0.053054	NaN	0.000000	0.001591	0.001730	28.0833	0.082993	0.001918	43.2596	-79.9644	-165.519	-0.016782	0.781045	-0.468544	-0.469829	0.053054	43.2596	-0.469464	-1.282e+06	-4.138360E-8	NaN
1131	1.000000	0.792369	7.37612e+06	-56689.1	1055.82	-29738.2	0.000000	0.000000	6.793066	0.073377	NaN	0.000000	0.001601	0.001703	28.0834	0.096276	0.001988	48.4257	6.541878	16.4043	-0.012729	0.790970	-0.458506	-0.459905	0.073377	48.4257	-0.459642	-933236	-7.862649E-8	NaN
1131	1.000000	0.802347	7.37612e+06	-56689.1	1055.82	-29738.2	0.000000	0.000000	6.803042	0.031736	NaN	0.000000	0.001549	0.001709	28.0835	0.053449	0.002005	26.6511	5.972531	-163.977	0.044989	0.801016	-0.448528	-0.449858	0.031736	26.6511	-0.449421	-670180	-4.735470E-8	NaN
1131	1.000000	0.812375	7.37612e+06	-56689.1	1055.82	-29738.2	0.000000	0.000000	6.813072	0.071344	NaN	0.000000	0.001596	0.001734	28.0833	0.137394	0.001935	71.0113	-150.588	18.0028	0.084633	0.811018	-0.438500	-0.439856	0.071344	71.0113	-0.439253	-481751	-1.480922E-7	NaN
1131	1.000000	0.822373	7.37612e+06	-56689.1	1055.82	-29738.2	0.000000	0.000000	6.823069	0.058496	NaN	0.000000	0.001574	0.001702	28.0835	0.098337	0.001996	49.2549	-85.4487	-164.963	0.006563	0.821101	-0.428502	-0.429774	0.058496	49.2549	-0.429393	-349519	-1.673625E-7	NaN
1131	1.000000	0.832375	7.37612e+06	-56689.1	1055.82	-29738.2	0.000000	0.000000	6.833067	-0.043591	NaN	0.000000	0.001622	0.001698	28.0836	0.075777	0.002100	36.0829	-105.714	16.5639	0.015141	0.831009	-0.418499	-0.419866	-0.043591	36.0829	-0.417593	-237833	1.832854E-7	NaN
1131	1.000000	0.842372	7.37612e+06	-56689.1	1055.82	-29738.2	0.000000	0.000000	6.843065	-0.025306	NaN	0.000000	0.001559	0.001733	28.0834	0.053679	0.001992	26.9499	-157.112	-162.939	-0.063353	0.841044	-0.408503	-0.409831	-0.025306	26.9499	-0.407799	-172618	1.466018E-7	NaN
1131	1.000000	0.852378	7.37612e+06	-56689.1	1055.82	-29738.2	0.000000	0.000000	6.853072	0.006333	NaN	0.000000	0.001568	0.001696	28.0835	0.032999	0.001862	17.7256	-11.0071	13.6623	-0.029929	0.851049	-0.398497	-0.399826	0.006333	17.7256	-0.398765	-128345	-4.934496E-8	NaN
1131	1.000000	0.862399	7.37612e+06	-56689.1	1055.82	-29738.2	0.000000	0.000000	6.863092	-0.032462	NaN	0.000000	0.001599	0.001714	28.0833	0.037532	0.002034	18.4503	-169.318	-166.104	-0.041309	0.861080	-0.388475	-0.389795	-0.032462	18.4503	-0.387156	-87591.4	3.706026E-7	NaN
1131	1.000000	0.872401	7.37612e+06	-56689.1	1055.82	-29738.2	0.000000	0.000000	6.873095	0.007036	NaN	0.000000	0.001611	0.001696	28.0834	0.082112	0.001924	42.685	86.9541	13.3321	0.000610	0.871016	-0.378474	-0.379859	0.007036	42.685	-0.378597	-66032.1	-1.065485E-7	NaN
1131	1.000000	0.882387	7.37612e+06	-56689.1	1055.82	-29738.2	0.000000	0.000000	6.883083	0.037296	NaN	0.000000	0.001628	0.001694	28.0845	0.079367	0.002071	38.3276	-120.366	-164.762	-0.033204	0.881136	-0.368487	-0.369739	0.037296	38.3276	-0.369217	-48400.9	-7.705571E-7	NaN
1131	1.000000	0.892421	7.37612e+06	-56689.1	1055.82	-29738.2	0.000000	0.000000	6.893115	0.001244	NaN	0.000000	0.001616	0.001680	28.0846	0.060536	0.001959	30.8953	-89.3397	15.0223	-0.005481	0.891070	-0.358453	-0.359804	0.001244	30.8953	-0.358484	-33878.2	-3.672907E-8	NaN
1131	1.000000	0.902398	7.37612e+06	-56689.1	1055.82	-29738.2	0.000000	0.000000	6.903091	-0.001942	NaN	0.000000	0.001633	0.001666	28.0847	0.042409	0.002012	21.073	23.9614	-163.958	0.052928	0.901061	-0.348477	-0.349813	-0.001942	21.073	-0.348408	-24204	8.023529E-8	NaN
1131	1.000000	0.912417	7.37612e+06	-56689.1	1055.82	-29738.2	0.000000	0.000000	6.913112	0.029830	NaN	0.000000	0.001602	0.001700	28.0846	0.095815	0.001947	49.202	163.477	13.6028	0.058847	0.911097	-0.338457	-0.339778	0.029830	49.202	-0.338912	-17607.2	-1.694204E-6	NaN
1131	1.000000	0.922440	7.37612e+06	-56689.1	1055.82	-29738.2	0.000000	0.000000	6.923135	0.035855	NaN	0.000000	0.001582	0.001692	28.0845	0.076850	0.002053	37.4387	-15.9463	-162.305	0.046748	0.921092	-0.328435	-0.329782	0.035855	37.4387	-0.329153	-12677.8	-2.828210E-6	NaN
1131	1.000000	0.932405	7.37612e+06	-56689.1	1055.82	-29738.2	0.000000	0.000000	6.933100	0.022453	NaN	0.000000	0.001623	0.001734	28.0846	0.105503	0.002156	48.9445	-139.027	14.5831	0.046950	0.931053	-0.318469	-0.319822	0.022453	48.9445	-0.318813	-8936.51	-2.512472E-6	NaN
1131	1.000000	0.942428	7.37612e+06	-56689.1	1055.82	-29738.2	0.000000	0.000000	6.943121	-0.010935	NaN	0.000000	0.001592	0.001741	28.0847	0.074067	0.002053	36.0852	72.6752	-168.032	0.000177	0.941154	-0.308447	-0.309720	-0.010935	36.0852	-0.308220	-6232.98	1.754444E-6	NaN
1131	1.000000	0.952437	7.37612e+06	-56689.1	1055.82	-29738.2	0.000000	0.000000	6.953131	0.003309	NaN	0.000000	0.001597	0.001714	28.0844	0.200549	0.001986	100.996	93.3343	13.8453	-0.001563	0.951058	-0.298438	-0.299817	0.003309	100.996	-0.298462	-4464.1	-7.411701E-7	NaN
1131	1.000000	0.962390	7.37612e+06	-56689.1	1055.82	-29738.2	0.000000	0.000000	6.963084	0.014235	NaN	0.000000	0.001607	0.001688	28.0843	0.137170	0.002007	68.3575	-14.1725	-163.247	0.025652	0.961176	-0.288485	-0.289698	0.014235	68.3575	-0.288641	-3183.74	-4.471256E-6	NaN
1131	1.000000	0.972418	7.37612e+06	-56689.1	1055.82	-29738.2	0.000000	0.000000	6.973109	-0.051554	NaN	0.000000	0.001635	0.001712	28.0843	0.039814	0.002000	19.9076	-111.522	15.116	-0.044183	0.971003	-0.278457	-0.279871	-0.051554	19.9076	-0.276515	-2090.87	2.465695E-5	NaN
1131	1.000000	0.982454	7.37612e+06	-56689.1	1055.82	-29738.2	0.000000	0.000000	6.983150	0.050785	NaN	0.000000	0.001690	0.001707	28.0846	0.107452	0.001964	54.7125	84.1481	-162.828	0.011321	0.981146	-0.268420	-0.269729	0.050785	54.7125	-0.269116	-1614.76	-3.145056E-5	NaN
1131	1.000000	0.992429	7.37612e+06	-56689.1	1055.82	-29738.2	0.000000	0.000000	6.993126	0.078314	NaN	0.000000	0.001654	0.001684	28.0845	0.125256	0.001955	64.0683	-54.441	16.1818	0.003515	0.991100	-0.258446	-0.259775	0.078314	64.0683	-0.259363	-1145.91	-6.834215E-5	NaN
1131	1.000000	1.002450	7.37612e+06	-56689.1	1055.82	-29738.2	0.000000	0.000000	7.003143	-0.010801	NaN	0.000000	0.001657	0.001639	28.0847	0.056710	0.002171	26.1174	29.6727	-164.786	0.019716	1.001130	-0.248425	-0.249745	-0.010801	26.1174	-0.248115	-768.742	1.404961E-5	NaN
1131	1.000000	1.012427	7.37612e+06	-56689.1	1055.82	-29738.2	0.000000	0.000000	7.013120	-0.020062	NaN	0.000000	0.001686	0.001684	28.0847	0.019675	0.002053	9.582133	-87.3905	14.8522	0.009948	1.011048	-0.238448	-0.239827	-0.020062	9.582133	-0.236877	-513.687	3.905543E-5	NaN
1131	1.000000	1.022462	7.37612e+06	-56689.1	1055.82	-29738.2	0.000000	0.000000	7.023153	-0.079269	NaN	0.000000	0.001677	0.001699	28.0834	0.125730	0.002005	62.7019	13.6494	-165.652	-0.086287	1.021126	-0.228413	-0.229749	-0.079269	62.7019	-0.227464	-365.106	0.000217	NaN
1131	1.000000	1.032471	7.37612e+06	-56689.1	1055.82	-29738.2	0.000000	0.000000	7.033166	0.027196	NaN	0.000000	0.001678	0.001746	28.0831	0.106742	0.001814	58.8564	-78.8556	10.2506	0.023099	1.031066	-0.218403	-0.219808	0.027196	58.8564	-0.218750	-265.265	-0.000103	NaN
1131	1.000000	1.042474	7.37612e+06	-56689.1	1055.82	-29738.2	0.000000	0.000000	7.043169	0.038467	NaN	0.000000	0.001714	0.001739	28.0831	0.109130	0.002040	53.491	-86.7718	-165.568	0.009101	1.041207	-0.208401	-0.209668	0.038467	53.491	-0.208940	-184.35	-0.000209	NaN
1131	1.000000	1.052466	7.37612e+06	-56689.1	1055.82	-29738.2	0.000000	0.000000	7.053161	0.043501	NaN	0.000000	0.001683	0.001735	28.0831	0.109900	0.001980	55.5159	-63.5608	13.3813	0.029255	1.051118	-0.198409	-0.199756	0.043501	55.5159	-0.198997	-126.823	-0.000343	NaN
1131	1.000000	1.062463	7.37612e+06	-56689.1	1055.82	-29738.2	0.000000	0.000000	7.063159	0.041064	NaN	0.000000	0.001717	0.001738	28.083	0.030931	0.002019	15.3166	-46.5773	-167.258	0.031678	1.061141	-0.188412	-0.189733	0.041064	15.3166	-0.190422	-91.4284	-0.000449	NaN
1131	1.000000	1.072460	7.37612e+06	-56689.1	1055.82	-29738.2	0.000000	0.000000	7.073155	0.015534	NaN	0.000000	0.001724	0.001748	28.0832	0.071947	0.002045	35.1771	-68.8453	17.0252	0.019022	1.071101	-0.178414	-0.179774	0.015534	35.1771	-0.178746	-58.0897	-0.000267	NaN
1131	1.000000	1.082513	7.37612e+06	-56689.1	1055.82	-29738.2	0.000000	0.000000	7.083211	0.117805	NaN	0.000000	0.001705	0.001739	28.0832	0.094394	0.001989	47.4495	-35.5173	-166.639	0.089147	1.081176	-0.168362	-0.169698	0.117805	47.4495	-0.170224	-41.4481	-0.002842	NaN
1131	1.000000	1.092474	7.37612e+06	-56689.1	1055.82	-29738.2	0.000000	0.000000	7.093168	0.020033	NaN	0.000000	0.001753	0.001707	28.0832	0.073414	0.001834	40.0286	-162.711	11.2741	-0.090104	1.091135	-0.158401	-0.159740	0.020033	40.0286	-0.158776	-26.0742	-0.000768	NaN
1131	1.000000	1.102505	7.37612e+06	-56689.1	1055.82	-29738.2	0.000000	0.000000	7.103197	-0.036167	NaN	0.000000	0.001741	0.001676	28.0833	0.025511	0.001944	13.124	27.7124	-162.357	0.000654	1.101166	-0.148370	-0.149709	-0.036167	13.124	-0.146303	-15.4961	0.002334	NaN
1131	1.000000	1.112471	7.37612e+06	-56689.1	1055.82	-29738.2	0.000000	0.000000	7.113164	-0.022576	NaN	0.000000	0.001762	0.001710	28.083	0.093211	0.002007	46.4515	147.285	13.7421	-0.029459	1.111151	-0.138404	-0.139723	-0.022576	46.4515	-0.138039	-10.8649	0.002078	NaN
1131	1.000000	1.122492	7.37612e+06	-56689.1	1055.82	-29738.2	0.000000	0.000000	7.123186	0.001604	NaN	0.000000	0.001758	0.001746	28.0832	0.060657	0.001882	32.2338	-37.2498	-168.098	-0.012233	1.121196	-0.128383	-0.129679	0.001604	32.2338	-0.128420	-7.099706	-0.000226	NaN
1131	1.000000	1.132498	7.37612e+06	-56689.1	1055.82	-29738.2	0.000000	0.000000	7.133192	0.003076	NaN	0.000000	0.001772	0.001720	28.083	0.083203	0.002009	41.4067	-63.2494	13.3856	-0.102834	1.131139	-0.118376	-0.119736	0.003076	41.4067	-0.118432	-4.490940	-0.000685	NaN
1131	1.000000	1.142487	7.37612e+06	-56689.1	1055.82	-29738.2	0.000000	0.000000	7.143181	0.012265	NaN	0.000000	0.001759	0.001696	28.0828	0.086230	0.002017	42.7563	-84.8018	-167.007	0.015046	1.141173	-0.108388	-0.109702	0.012265	42.7563	-0.108603	-2.807544	-0.004369	NaN
1131	1.000000	1.152534	7.37612e+06	-56689.1	1055.82	-29738.2	0.000000	0.000000	7.153227	-0.010996	NaN	0.000000	0.001739	0.001686	28.0834	0.053298	0.002036	26.1737	16.7399	17.878	0.134696	1.151141	-0.098341	-0.099734	-0.010996	26.1737	-0.098026	-1.651112	0.006660	NaN
1131	1.000000	1.162522	7.37612e+06	-56689.1	1055.82	-29738.2	0.000000	0.000000	7.163213	-0.065613	NaN	0.000000	0.001755	0.001700	28.0845	0.095058	0.002092	45.4335	108.568	-165.536	-0.052654	1.161224	-0.088353	-0.089651	-0.065613	45.4335	-0.087270	-0.931591	0.070432	NaN
1131	1.000000	1.172495	7.37612e+06	-56689.1	1055.82	-29738.2	0.000000	0.000000	7.173194	0.126583	NaN	0.000000	0.001740	0.001666	28.084	0.077540	0.002029	38.2208	68.6534	12.7119	0.078623	1.171195	-0.078380	-0.079680	0.126583	38.2208	-0.080864	-0.650471	-0.194602	NaN
1131	1.000000	1.182528	7.37612e+06	-56689.1	1055.82	-29738.2	0.000000	0.000000	7.183224	0.046364	NaN	0.000000	0.001782	0.001660	28.0842	0.036642	0.002100	17.4503	-114.291	-166.615	0.083910	1.181206	-0.068347	-0.069669	0.046364	17.4503	-0.070340	-0.348321	-0.133107	NaN
1131	1.000000	1.192527	7.37612e+06	-56689.1	1055.82	-29738.2	0.000000	0.000000	7.193221	-0.008583	NaN	0.000000	0.001785	0.001688	28.0844	0.062983	0.002010	31.3383	156.744	14.8361	-0.024023	1.191208	-0.058347	-0.059667	-0.008583	31.3383	-0.058142	-0.159178	0.053919	NaN
1131	1.000000	1.202537	7.37612e+06	-56689.1	1055.82	-29738.2	0.000000	0.000000	7.203230	-0.025361	NaN	0.000000	0.001770	0.001686	28.0844	0.028941	0.001971	14.6806	18.6394	-165.603	-0.052453	1.201214	-0.048337	-0.049661	-0.025361	14.6806	-0.047042	-0.074192	0.341833	NaN
1131	1.000000	1.212545	7.37612e+06	-56689.1	1055.82	-29738.2	0.000000	0.000000	7.213240	0.027595	NaN	0.000000	0.001767	0.001697	28.0842	0.078644	0.002028	38.7827	144.344	13.3259	-0.014482	1.211143	-0.038330	-0.039732	0.027595	38.7827	-0.038864	-0.041775	-0.660567	NaN
1131	1.000000	1.222536	7.37612e+06	-56689.1	1055.82	-29738.2	0.000000	0.000000	7.223231	0.042640	NaN	0.000000	0.001782	0.001676	28.0843	0.049040	0.001878	26.1068	-21.2725	-162.766	0.018754	1.221237	-0.028339	-0.029638	0.042640	26.1068	-0.029564	-0.022380	-1.905313	NaN
1131	1.000000	1.232563	7.37612e+06	-56689.1	1055.82	-29738.2	0.000000	0.000000	7.233254	-0.055767	NaN	0.000000	0.001787	0.001695	28.0845	0.058303	0.001835	31.7651	-92.3126	14.452	-0.000190	1.231173	-0.018312	-0.019702	-0.055767	31.7651	-0.016995	-0.010508	5.307283	NaN
1131	1.000000	1.242559	7.37612e+06	-56689.1	1055.82	-29738.2	0.000000	0.000000	7.243253	0.017527	NaN	0.000000	0.001748	0.001654	28.0844	0.121444	0.002016	60.2509	132.092	-166.03	-0.017650	1.241240	-0.008316	-0.009635	0.017527	60.2509	-0.008534	-0.005543	-3.161832	NaN
1131	1.000000	1.252517	7.37612e+06	-56689.1	1055.82	-29738.2	0.000000	0.000000	7.253347	3.310075	NaN	0.000000	0.001793	0.001704	28.0839	4.182317	0.001971	2122.36	5.631744	12.4038	1.528487	1.251168	0.001642	0.000293	3.310075	2122.36	0.000472	0.000356	9289.94	102726
1131	2.000000	1.259150	7.37612e+06	-56689.1	1055.82	-29738.2	0.000000	0.000000	7.260271	10.3927	NaN	0.000000	0.001789	0.001665	28.0844	10.7978	0.001703	6338.75	5.335495	-171.967	10.4379	1.258856	0.008275	0.007981	10.3927	6338.75	0.007045	0.006079	1709.64	74279
1131	2.000000	1.261617	7.37612e+06	-56689.1	1055.82	-29738.2	0.000000	0.000000	7.262871	13.6177	NaN	0.000000	0.001770	0.001707	28.0846	13.3695	0.001754	7620.8	4.333101	7.912634	12.2116	1.261252	0.010742	0.010377	13.6177	7620.8	0.009402	0.008524	1597.48	75411.9
1131	2.000000	1.264114	7.37612e+06	-56689.1	1055.82	-29738.2	0.000000	0.000000	7.265514	17.1679	NaN	0.000000	0.001737	0.001704	28.0844	15.8848	0.001721	9229.65	3.050047	-172.146	16.986	1.263753	0.013239	0.012878	17.1679	9229.65	0.011844	0.011304	1518.8	79313.9
1131	2.000000	1.266639	7.37612e+06	-56689.1	1055.82	-29738.2	0.000000	0.000000	7.268176	20.4829	NaN	0.000000	0.001733	0.001689	28.0828	18.4368	0.001797	10260.1	7.563837	4.928001	20.0956	1.266242	0.015764	0.015368	20.4829	10260.1	0.014267	0.014321	1430.32	78333.5
1131	2.000000	1.269049	7.37612e+06	-56689.1	1055.82	-29738.2	0.000000	0.000000	7.270930	28.849	NaN	0.000000	0.001732	0.001732	28.0834	21.7452	0.001812	11999.9	4.681096	-176.59	27.17	1.268732	0.018175	0.017858	28.849	11999.9	0.016372	0.017158	1681.36	83697.9
1131	2.000000	1.271521	7.37612e+06	-56689.1	1055.82	-29738.2	0.000000	0.000000	7.273619	34.1408	NaN	0.000000	0.001757	0.001718	28.0834	25.557	0.001850	13813.6	8.541684	-2.679716	32.2029	1.271190	0.020646	0.020316	34.1408	13813.6	0.018792	0.020680	1650.93	87762.1
1131	2.000000	1.274032	7.37612e+06	-56689.1	1055.82	-29738.2	0.000000	0.000000	7.276447	41.8372	NaN	0.000000	0.001794	0.001711	28.0833	26.9477	0.001765	15268.4	3.904834	-177.344	40.343	1.273704	0.023157	0.022830	41.8372	15268.4	0.021102	0.024304	1721.4	89480.2
1131	2.000000	1.276551	7.37612e+06	-56689.1	1055.82	-29738.2	0.000000	0.000000	7.279263	49.0475	NaN	0.000000	0.001763	0.001696	28.0833	29.5286	0.001828	16151.2	8.349210	-0.857022	49.0843	1.276119	0.025677	0.025245	49.0475	16151.2	0.023399	0.028167	1741.28	87923.3
1131	2.000000	1.279034	7.37612e+06	-56689.1	1055.82	-29738.2	0.000000	0.000000	7.281931	53.5589	NaN	0.000000	0.001752	0.001689	28.0834	31.7288	0.001601	19822.7	6.252970	176.847	51.4527	1.278699	0.028159	0.027825	53.5589	19822.7	0.026133	0.033109	1617.66	99532.4
1131	2.000000	1.281544	7.37612e+06	-56689.1	1055.82	-29738.2	0.000000	0.000000	7.284786	61.9547	NaN	0.000000	0.001713	0.001713	28.0835	34.2831	0.001790	19156.3	2.945495	2.928794	60.7124	1.281168	0.030669	0.030293	61.9547	19156.3	0.028243	0.037181	1666.29	90765.8
1131	2.000000	1.284012	7.37612e+06	-56689.1	1055.82	-29738.2	0.000000	0.000000	7.287583	69.9331	NaN	0.000000	0.001716	0.001724	28.0833	37.6725	0.001852	20337.9	4.898774	178.58	66.756	1.283773	0.033137	0.032898	69.9331	20337.9	0.030558	0.041909	1668.7	90766.7
1131	2.000000	1.286515	7.37612e+06	-56689.1	1055.82	-29738.2	0.000000	0.000000	7.290448	78.7347	NaN	0.000000	0.001775	0.001701	28.0832	38.9358	0.001694	22988.5	4.591622	-1.080888	76.2791	1.286242	0.035640	0.035368	78.7347	22988.5	0.033071	0.047351	1662.8	96520.7
1131	2.000000	1.289032	7.37612e+06	-56689.1	1055.82	-29738.2	0.000000	0.000000	7.293286	86.5278	NaN	0.000000	0.001768	0.001700	28.0835	41.121	0.001721	23889	5.619656	177.262	86.1446	1.288728	0.038157	0.037854	86.5278	23889	0.035441	0.052777	1639.49	95005.4
1131	2.000000	1.291487	7.37612e+06	-56689.1	1055.82	-29738.2	0.000000	0.000000	7.296204	97.7918	NaN	0.000000	0.001770	0.001718	28.0833	45.0129	0.001718	26201.4	4.924222	-3.540058	94.0571	1.291146	0.040612	0.040271	97.7918	26201.4	0.037813	0.058498	1671.7	98975.1
1131	2.000000	1.293975	7.37612e+06	-56689.1	1055.82	-29738.2	0.000000	0.000000	7.299027	105.93	NaN	0.000000	0.001740	0.001695	28.0832	46.9888	0.001770	26547.9	0.456876	-179.171	103.079	1.293816	0.043100	0.042942	105.93	26547.9	0.040108	0.064307	1647.24	95647.3
1131	2.000000	1.296533	7.37612e+06	-56689.1	1055.82	-29738.2	0.000000	0.000000	7.301961	115.067	NaN	0.000000	0.001731	0.001697	28.0829	49.5651	0.001760	28154.3	5.442229	-3.992177	112.37	1.296168	0.045658	0.045293	115.067	28154.3	0.042593	0.070902	1622.91	96602.8
1131	2.000000	1.298939	7.37612e+06	-56689.1	1055.82	-29738.2	0.000000	0.000000	7.305023	131.016	NaN	0.000000	0.001750	0.001702	28.0834	52.4296	0.001861	28179.1	3.626724	177.052	127.435	1.298653	0.048064	0.047778	131.016	28179.1	0.044577	0.076392	1715.05	93148.8
1131	2.000000	1.301480	7.37612e+06	-56689.1	1055.82	-29738.2	0.000000	0.000000	7.308090	143.794	NaN	0.000000	0.001768	0.001696	28.0842	54.297	0.001810	29999.2	6.385582	-5.748078	141.584	1.301134	0.050606	0.050260	143.794	29999.2	0.047011	0.083398	1724.2	94908.4
1131	2.000000	1.303951	7.37612e+06	-56689.1	1055.82	-29738.2	0.000000	0.000000	7.310940	152.992	NaN	0.000000	0.001672	0.001738	28.0845	56.494	0.001714	32954.9	4.472870	174.586	148.492	1.303634	0.053077	0.052759	152.992	32954.9	0.049595	0.091165	1678.19	99719.4
1131	2.000000	1.306559	7.37612e+06	-56689.1	1055.82	-29738.2	0.000000	0.000000	7.313909	161.783	NaN	0.000000	0.001690	0.001689	28.0843	59.2763	0.001694	34982.3	7.532032	-8.392357	162.241	1.306095	0.055684	0.055220	161.783	34982.3	0.052215	0.099384	1627.86	101383
1131	2.000000	1.308955	7.37612e+06	-56689.1	1055.82	-29738.2	0.000000	0.000000	7.316863	175.351	NaN	0.000000	0.001685	0.001703	28.0846	61.7214	0.001796	34369.6	5.757930	173.418	172.454	1.308675	0.058080	0.057800	175.351	34369.6	0.054254	0.106012	1654.06	96442.6
1131	2.000000	1.311423	7.37612e+06	-56689.1	1055.82	-29738.2	0.000000	0.000000	7.320087	193.73	NaN	0.000000	0.001706	0.001733	28.0842	64.1105	0.001778	36059.3	5.068613	-6.200362	189.025	1.311058	0.060548	0.060183	193.73	36059.3	0.056519	0.113623	1705.03	97736.8
1131	2.000000	1.313953	7.37612e+06	-56689.1	1055.82	-29738.2	0.000000	0.000000	7.322943	201.647	NaN	0.000000	0.001696	0.001671	28.0845	67.3781	0.001872	35994.7	4.057889	174.299	198.123	1.313742	0.063078	0.062867	201.647	35994.7	0.058877	0.121811	1655.4	94225.5
1131	2.000000	1.316438	7.37612e+06	-56689.1	1055.82	-29738.2	0.000000	0.000000	7.326050	216.763	NaN	0.000000	0.001718	0.001685	28.0842	68.4593	0.001730	39562.2	6.359863	-7.534974	210.096	1.316096	0.065564	0.065221	216.763	39562.2	0.061454	0.131075	1653.73	99837.5
1131	2.000000	1.318949	7.37612e+06	-56689.1	1055.82	-29738.2	0.000000	0.000000	7.329035	228.285	NaN	0.000000	0.001694	0.001689	28.0845	70.7259	0.001806	39161.9	1.099220	176.265	224.253	1.318658	0.068074	0.067783	228.285	39161.9	0.063702	0.139419	1637.41	95824.4
1131	2.000000	1.321425	7.37612e+06	-56689.1	1055.82	-29738.2	0.000000	0.000000	7.332175	244.406	NaN	0.000000	0.001669	0.001668	28.0844	74.6568	0.001751	42635.9	5.825435	-9.085432	239.717	1.321081	0.070551	0.070206	244.406	42635.9	0.066251	0.149174	1638.39	100856
1131	2.000000	1.324048	7.37612e+06	-56689.1	1055.82	-29738.2	0.000000	0.000000	7.334891	246.693	NaN	0.000000	0.001687	0.001722	28.0844	75.4786	0.001583	47673.7	-1.016484	176.79	246.783	1.323885	0.073173	0.073010	246.693	47673.7	0.069292	0.161220	1530.16	108478
1131	2.000000	1.326479	7.37612e+06	-56689.1	1055.82	-29738.2	0.000000	0.000000	7.338723	280.739	NaN	0.000000	0.001716	0.001720	28.0845	78.3685	0.001717	45652.9	6.385922	-7.652910	277.527	1.325978	0.075604	0.075103	280.739	45652.9	0.070992	0.168148	1669.6	101718
1131	2.000000	1.328907	7.37612e+06	-56689.1	1055.82	-29738.2	0.000000	0.000000	7.341558	290.646	NaN	0.000000	0.001719	0.001713	28.0843	80.921	0.001794	45096.5	-0.299893	177.061	287.726	1.328708	0.078032	0.077833	290.646	45096.5	0.073198	0.177341	1638.91	97838.7
1131	2.000000	1.331451	7.37612e+06	-56689.1	1055.82	-29738.2	0.000000	0.000000	7.344782	307.172	NaN	0.000000	0.001689	0.001719	28.0843	84.5041	0.001883	44880.1	1.107364	-4.844418	302.824	1.331191	0.080576	0.080316	307.172	44880.1	0.075443	0.186931	1643.24	94838.7
1131	2.000000	1.333962	7.37612e+06	-56689.1	1055.82	-29738.2	0.000000	0.000000	7.348211	329.472	NaN	0.000000	0.001699	0.001680	28.0834	86.2231	0.001703	50639.3	3.722058	173.002	327.612	1.333575	0.083087	0.082700	329.472	50639.3	0.078208	0.199069	1655.06	103695
1131	2.000000	1.336328	7.37612e+06	-56689.1	1055.82	-29738.2	0.000000	0.000000	7.351116	342.587	NaN	0.000000	0.001715	0.001699	28.0834	88.1987	0.001751	50362.7	3.518168	-6.859077	330.149	1.336026	0.085453	0.085151	342.587	50362.7	0.080351	0.208725	1641.33	100715
1131	2.000000	1.338832	7.37612e+06	-56689.1	1055.82	-29738.2	0.000000	0.000000	7.354304	359.203	NaN	0.000000	0.001710	0.001691	28.084	91.5219	0.001833	49927.3	2.886683	172.671	350.839	1.338632	0.087957	0.087757	359.203	49927.3	0.082561	0.218905	1640.91	97495.2
1131	2.000000	1.341478	7.37612e+06	-56689.1	1055.82	-29738.2	0.000000	0.000000	7.357766	379.019	NaN	0.000000	0.001690	0.001717	28.0833	94.5278	0.001820	51933.8	5.114435	-9.320409	377.339	1.341138	0.090604	0.090263	379.019	51933.8	0.085130	0.231022	1640.62	98717.9
1131	2.000000	1.343926	7.37612e+06	-56689.1	1055.82	-29738.2	0.000000	0.000000	7.360920	396.205	NaN	0.000000	0.001664	0.001717	28.0828	97.321	0.001812	53718.5	5.393817	169.925	393.079	1.343659	0.093051	0.092785	396.205	53718.5	0.087520	0.242567	1633.38	99650.7
1131	2.000000	1.346467	7.37612e+06	-56689.1	1055.82	-29738.2	0.000000	0.000000	7.364411	419.299	NaN	0.000000	0.001683	0.001699	28.0835	99.6071	0.001833	54346.2	10.3005	-14.267	416.116	1.346022	0.095592	0.095147	419.299	54346.2	0.089805	0.253857	1651.71	98548
1131	2.000000	1.348971	7.37612e+06	-56689.1	1055.82	-29738.2	0.000000	0.000000	7.367445	432.163	NaN	0.000000	0.001698	0.001693	28.0831	101.078	0.001811	55822.4	8.107275	167.362	431.617	1.348498	0.098097	0.097623	432.163	55822.4	0.092290	0.266402	1622.22	98812.6
1131	2.000000	1.351374	7.37612e+06	-56689.1	1055.82	-29738.2	0.000000	0.000000	7.370741	453.867	NaN	0.000000	0.001676	0.001718	28.0835	102.765	0.001825	56295.6	4.714001	-9.534475	449.554	1.351039	0.100500	0.100165	453.867	56295.6	0.094453	0.277550	1635.26	97628.6
1131	2.000000	1.353943	7.37612e+06	-56689.1	1055.82	-29738.2	0.000000	0.000000	7.374177	474.942	NaN	0.000000	0.001715	0.001734	28.0831	105.735	0.001832	57706	5.711582	169.609	474.772	1.353586	0.103069	0.102711	474.942	57706	0.096896	0.290399	1635.48	97835.5
1131	2.000000	1.356381	7.37612e+06	-56689.1	1055.82	-29738.2	0.000000	0.000000	7.377394	493.881	NaN	0.000000	0.001681	0.001735	28.0836	106.812	0.001872	57067.3	3.908526	-8.150574	485.849	1.356030	0.105506	0.105155	493.881	57067.3	0.099015	0.301768	1636.62	94912.5