File: remote_trans/data/nanoindenter/0828-1/data/Data_2025-08-06,11h17m57s/2025-07-22_16-23-58_1_539.txt
2025-07-22, 16:23:58, 1
Index	Phase	Displacement	Time	Pos X	Pos Y	Pos Z	Rot A	Rot B	Piezo Z	Force A	Force B	Gripper	Voltage A	Voltage B	Temperature	Amplitude force	Amplitude pos	Stiffness	Phase shift	Phase excitation	Force A raw	Displacement raw	HMax	HMax raw	Real Force	Real Stiffness	Contact Depth	Area	Hardness	Reduced Mod.
[#]	[#]	[um]	[s]	[um]	[um]	[um]	[m°]	[m°]	[um]	[uN]	[uN]	[V]	[V]	[V]	[°C]	[uN]	[um]	[N/m]	[°]	[°]	[uN]	[um]	[um]	[um]	[uN]	[N/m]	[um]	[um^2]	[MPa]	[MPa]
539	1.000000	0.002541	7.37032e+06	-50139.1	1005.82	-29756.6	0.000000	0.000000	6.002815	0.086685	NaN	0.000000	0.001557	0.001773	28.083	0.161046	0.000871	184.907	117.422	-164.426	0.069517	0.001239	-1.102024	-1.103326	0.086685	184.907	-1.102376	-5.394564E+14	-1.606900E-16	NaN
539	1.000000	0.012562	7.37032e+06	-50139.1	1005.82	-29756.6	0.000000	0.000000	6.012834	0.049635	NaN	0.000000	0.001556	0.001777	28.0816	0.018670	0.001277	14.6155	117.713	15.4115	0.065292	0.011128	-1.092003	-1.093437	0.049635	14.6155	-1.094550	-4.235511E+14	-1.171874E-16	NaN
539	1.000000	0.022464	7.37032e+06	-50139.1	1005.82	-29756.7	0.000000	0.000000	6.022737	0.086617	NaN	0.000000	0.001583	0.001771	28.0814	0.079332	0.001641	48.3325	-63.421	-167.369	0.117609	0.021157	-1.082101	-1.083408	0.086617	48.3325	-1.083445	-3.004643E+14	-2.882765E-16	NaN
539	1.000000	0.032467	7.37032e+06	-50139.1	1005.82	-29756.7	0.000000	0.000000	6.032738	0.011142	NaN	0.000000	0.001561	0.001732	28.082	0.016370	0.001798	9.104816	93.2777	14.074	0.043323	0.031155	-1.072098	-1.073410	0.011142	9.104816	-1.073016	-2.176225E+14	-5.119845E-17	NaN
539	1.000000	0.042460	7.37032e+06	-50139.1	1005.82	-29756.7	0.000000	0.000000	6.042731	0.037067	NaN	0.000000	0.001587	0.001807	28.0818	0.125866	0.001986	63.3697	122.059	-165.75	0.069376	0.041159	-1.062105	-1.063406	0.037067	63.3697	-1.062544	-1.574018E+14	-2.354920E-16	NaN
539	1.000000	0.052491	7.37032e+06	-50139.1	1005.82	-29756.7	0.000000	0.000000	6.052761	0.009627	NaN	0.000000	0.001549	0.001778	28.0819	0.123814	0.002043	60.6042	-129.72	15.2687	0.029193	0.051134	-1.052074	-1.053431	0.009627	60.6042	-1.052193	-1.142606E+14	-8.425739E-17	NaN
539	1.000000	0.062469	7.37032e+06	-50139.1	1005.82	-29756.7	0.000000	0.000000	6.062742	0.063426	NaN	0.000000	0.001549	0.001776	28.0821	0.071298	0.002013	35.426	-107.544	-168.724	0.072249	0.061177	-1.042096	-1.043389	0.063426	35.426	-1.043439	-8.713842E+13	-7.278766E-16	NaN
539	1.000000	0.072466	7.37032e+06	-50139.1	1005.82	-29756.7	0.000000	0.000000	6.072739	0.057982	NaN	0.000000	0.001581	0.001772	28.0824	0.015733	0.002170	7.251047	123.856	16.814	-0.018894	0.071075	-1.032099	-1.033490	0.057982	7.251047	-1.038096	-7.385280E+13	-7.851050E-16	NaN
539	1.000000	0.082489	7.37032e+06	-50139.1	1005.82	-29756.7	0.000000	0.000000	6.082760	0.019875	NaN	0.000000	0.001562	0.001796	28.0819	0.066251	0.002020	32.8006	-51.0333	-162.337	0.037153	0.081234	-1.022077	-1.023331	0.019875	32.8006	-1.022531	-4.560423E+13	-4.358230E-16	NaN
539	1.000000	0.092477	7.37032e+06	-50139.1	1005.82	-29756.7	0.000000	0.000000	6.092749	0.045295	NaN	0.000000	0.001567	0.001790	28.082	0.072785	0.002019	36.054	171.346	14.8719	0.056921	0.091158	-1.012088	-1.013408	0.045295	36.054	-1.013030	-3.397503E+13	-1.333171E-15	NaN
539	1.000000	0.102497	7.37032e+06	-50139.1	1005.82	-29756.7	0.000000	0.000000	6.102768	0.007197	NaN	0.000000	0.001582	0.001770	28.0821	0.080028	0.002031	39.3955	77.5264	-165.871	0.012537	0.101153	-1.002068	-1.003413	0.007197	39.3955	-1.002205	-2.429134E+13	-2.962581E-16	NaN
539	1.000000	0.112501	7.37032e+06	-50139.1	1005.82	-29756.7	0.000000	0.000000	6.112771	0.010265	NaN	0.000000	0.001588	0.001772	28.082	0.092079	0.002076	44.3489	144.773	12.8444	0.024164	0.111185	-0.992064	-0.993380	0.010265	44.3489	-0.992238	-1.783411E+13	-5.755755E-16	NaN
539	1.000000	0.122499	7.37032e+06	-50139.1	1005.82	-29756.7	0.000000	0.000000	6.122768	-0.043856	NaN	0.000000	0.001550	0.001784	28.082	0.108538	0.002013	53.9175	5.260649	-169.582	-0.088452	0.121200	-0.982066	-0.983365	-0.043856	53.9175	-0.981456	-1.276509E+13	3.435626E-15	NaN
539	1.000000	0.132473	7.37032e+06	-50139.1	1005.82	-29756.7	0.000000	0.000000	6.132742	-0.022835	NaN	0.000000	0.001582	0.001765	28.0819	0.057214	0.001924	29.741	-112.498	10.7471	-0.052324	0.131156	-0.972092	-0.973409	-0.022835	29.741	-0.971517	-9.377823E+12	2.435006E-15	NaN
539	1.000000	0.142535	7.37032e+06	-50139.1	1005.82	-29756.7	0.000000	0.000000	6.142805	-0.006708	NaN	0.000000	0.001574	0.001780	28.0829	0.091343	0.001933	47.2475	119.934	-168.104	-0.048056	0.141210	-0.962030	-0.963355	-0.006708	47.2475	-0.961923	-6.963055E+12	9.633632E-16	NaN
539	1.000000	0.152518	7.37032e+06	-50139.1	1005.82	-29756.7	0.000000	0.000000	6.152790	0.052333	NaN	0.000000	0.001588	0.001754	28.083	0.067875	0.001860	36.4888	7.144355	13.5826	0.038247	0.151146	-0.952048	-0.953420	0.052333	36.4888	-0.953123	-5.298421E+12	-9.877055E-15	NaN
539	1.000000	0.162554	7.37032e+06	-50139.1	1005.82	-29756.7	0.000000	0.000000	6.162823	-0.015541	NaN	0.000000	0.001583	0.001753	28.0834	0.080640	0.001937	41.6305	-8.613312	-168.806	-0.025498	0.161228	-0.942011	-0.943337	-0.015541	41.6305	-0.941731	-3.719569E+12	4.178148E-15	NaN
539	1.000000	0.172531	7.37032e+06	-50139.1	1005.82	-29756.7	0.000000	0.000000	6.172800	-0.039154	NaN	0.000000	0.001604	0.001747	28.0832	0.043449	0.001945	22.3341	-98.9604	12.2908	0.007942	0.171196	-0.932034	-0.933369	-0.039154	22.3341	-0.930719	-2.641826E+12	1.482086E-14	NaN
539	1.000000	0.182524	7.37032e+06	-50139.1	1005.82	-29756.7	0.000000	0.000000	6.182796	0.026467	NaN	0.000000	0.001558	0.001748	28.0839	0.043038	0.001911	22.5167	156.245	-165.106	0.009781	0.181200	-0.922041	-0.923366	0.026467	22.5167	-0.922922	-2.073289E+12	-1.276560E-14	NaN
539	1.000000	0.192555	7.37032e+06	-50139.1	1005.82	-29756.7	0.000000	0.000000	6.192826	0.023044	NaN	0.000000	0.001518	0.001754	28.0832	0.029584	0.001861	15.8997	-58.6149	16.4733	-0.081890	0.191209	-0.912010	-0.913356	0.023044	15.8997	-0.913097	-1.527551E+12	-1.508557E-14	NaN
539	1.000000	0.202544	7.37032e+06	-50139.1	1005.82	-29756.7	0.000000	0.000000	6.202814	-0.001542	NaN	0.000000	0.001591	0.001755	28.0832	0.073844	0.002102	35.1383	101.558	-165.902	0.037506	0.201243	-0.902021	-0.903322	-0.001542	35.1383	-0.901988	-1.081256E+12	1.425901E-15	NaN
539	1.000000	0.212544	7.37032e+06	-50139.1	1005.82	-29756.7	0.000000	0.000000	6.212815	0.020991	NaN	0.000000	0.001596	0.001768	28.0835	0.039538	0.002037	19.4142	-174.698	14.0791	0.035278	0.211178	-0.892021	-0.893387	0.020991	19.4142	-0.892832	-8.131912E+11	-2.581282E-14	NaN
539	1.000000	0.222527	7.37032e+06	-50139.1	1005.82	-29756.7	0.000000	0.000000	6.222798	0.016033	NaN	0.000000	0.001612	0.001752	28.0835	0.039666	0.002081	19.0617	164.538	-167.783	0.046906	0.221218	-0.882038	-0.883347	0.016033	19.0617	-0.882669	-5.926452E+11	-2.705246E-14	NaN
539	1.000000	0.232540	7.37032e+06	-50139.1	1005.82	-29756.7	0.000000	0.000000	6.232810	-0.011569	NaN	0.000000	0.001593	0.001763	28.0834	0.039503	0.002052	19.2522	84.5887	10.733	-0.043036	0.231192	-0.872025	-0.873373	-0.011569	19.2522	-0.871574	-4.195089E+11	2.757676E-14	NaN
539	1.000000	0.242590	7.37032e+06	-50139.1	1005.82	-29756.7	0.000000	0.000000	6.242864	0.088116	NaN	0.000000	0.001654	0.001767	28.0833	0.076242	0.001975	38.611	54.9892	-166.253	0.033018	0.241217	-0.861975	-0.863348	0.088116	38.611	-0.863686	-3.281058E+11	-2.685596E-13	NaN
539	1.000000	0.252546	7.37032e+06	-50139.1	1005.82	-29756.7	0.000000	0.000000	6.252815	-0.008080	NaN	0.000000	0.001639	0.001759	28.0833	0.097969	0.001929	50.7972	121.097	16.1671	0.028987	0.251197	-0.852020	-0.853369	-0.008080	50.7972	-0.851900	-2.272321E+11	3.555964E-14	NaN
539	1.000000	0.262538	7.37032e+06	-50139.1	1005.82	-29756.7	0.000000	0.000000	6.262806	-0.048621	NaN	0.000000	0.001600	0.001726	28.0827	0.066945	0.002004	33.4001	113.248	-163.486	0.013535	0.261266	-0.842027	-0.843299	-0.048621	33.4001	-0.840935	-1.614224E+11	3.012026E-13	NaN
539	1.000000	0.272569	7.37032e+06	-50139.1	1005.82	-29756.7	0.000000	0.000000	6.272839	0.004352	NaN	0.000000	0.001598	0.001751	28.083	0.090151	0.001922	46.9	29.5532	14.312	0.023869	0.271242	-0.831996	-0.833323	0.004352	46.9	-0.832066	-1.224015E+11	-3.555640E-14	NaN
539	1.000000	0.282565	7.37032e+06	-50139.1	1005.82	-29756.7	0.000000	0.000000	6.282838	0.061595	NaN	0.000000	0.001644	0.001734	28.0818	0.050839	0.001972	25.7819	34.7755	-162.841	0.041312	0.281248	-0.822000	-0.823317	0.061595	25.7819	-0.823791	-9.454116E+10	-6.515111E-13	NaN
539	1.000000	0.292579	7.37032e+06	-50139.1	1005.82	-29756.7	0.000000	0.000000	6.292849	0.011277	NaN	0.000000	0.001640	0.001729	28.0818	0.093414	0.001849	50.5217	-19.6753	15.1854	-0.047243	0.291218	-0.811986	-0.813347	0.011277	50.5217	-0.812154	-6.573386E+10	-1.715622E-13	NaN
539	1.000000	0.302591	7.37032e+06	-50139.1	1005.82	-29756.7	0.000000	0.000000	6.302863	0.045825	NaN	0.000000	0.001634	0.001750	28.0817	0.090589	0.001933	46.8698	79.794	-168.26	0.042205	0.301289	-0.801974	-0.803277	0.045825	46.8698	-0.802707	-4.893417E+10	-9.364562E-13	NaN
539	1.000000	0.312564	7.37032e+06	-50139.1	1005.82	-29756.7	0.000000	0.000000	6.312830	-0.098821	NaN	0.000000	0.001611	0.001761	28.0816	0.055619	0.001943	28.6276	143.79	12.8997	-0.076642	0.311263	-0.792001	-0.793303	-0.098821	28.6276	-0.789412	-3.229238E+10	3.060185E-12	NaN
539	1.000000	0.322586	7.37032e+06	-50139.1	1005.82	-29756.7	0.000000	0.000000	6.322855	-0.009714	NaN	0.000000	0.001597	0.001790	28.0819	0.050082	0.002069	24.21	-34.2526	-167.574	0.004002	0.321303	-0.781980	-0.783262	-0.009714	24.21	-0.781679	-2.535377E+10	3.831367E-13	NaN
539	1.000000	0.332581	7.37032e+06	-50139.1	1005.82	-29756.7	0.000000	0.000000	6.332850	-0.022552	NaN	0.000000	0.001609	0.001737	28.082	0.047254	0.002078	22.7419	-7.919190	10.9191	-0.039453	0.331244	-0.771985	-0.773322	-0.022552	22.7419	-0.771241	-1.828843E+10	1.233122E-12	NaN
539	1.000000	0.342604	7.37032e+06	-50139.1	1005.82	-29756.7	0.000000	0.000000	6.342876	0.040068	NaN	0.000000	0.001566	0.001742	28.0823	0.069681	0.002027	34.3702	163.432	-162.44	-0.038997	0.341331	-0.761961	-0.763234	0.040068	34.3702	-0.762836	-1.405642E+10	-2.850533E-12	NaN
539	1.000000	0.352594	7.37032e+06	-50139.1	1005.82	-29756.7	0.000000	0.000000	6.352861	-0.066346	NaN	0.000000	0.001609	0.001748	28.0857	0.017975	0.001938	9.275641	-62.2962	14.7093	-0.004024	0.351209	-0.751971	-0.753356	-0.066346	9.275641	-0.746607	-8.453271E+9	7.848547E-12	NaN
539	1.000000	0.362590	7.37032e+06	-50139.1	1005.82	-29756.7	0.000000	0.000000	6.362860	-0.007335	NaN	0.000000	0.001547	0.001772	28.0829	0.027071	0.002030	13.3365	-151.05	-166.758	-0.009847	0.361322	-0.741975	-0.743243	-0.007335	13.3365	-0.741562	-7.216644E+9	1.016386E-12	NaN
539	1.000000	0.372634	7.37032e+06	-50139.1	1005.82	-29756.7	0.000000	0.000000	6.372903	-0.008352	NaN	0.000000	0.001559	0.001736	28.0827	0.062019	0.002058	30.1403	44.6423	14.8226	-0.027748	0.371218	-0.731932	-0.733348	-0.008352	30.1403	-0.731724	-5.300289E+9	1.575850E-12	NaN
539	1.000000	0.382611	7.37032e+06	-50139.1	1005.82	-29756.7	0.000000	0.000000	6.382883	0.056354	NaN	0.000000	0.001553	0.001783	28.0821	0.067427	0.001999	33.7354	8.777675	-165.16	0.048699	0.381253	-0.721954	-0.723312	0.056354	33.7354	-0.723207	-4.057043E+9	-1.389036E-11	NaN
539	1.000000	0.392652	7.37032e+06	-50139.1	1005.82	-29756.7	0.000000	0.000000	6.392922	0.006992	NaN	0.000000	0.001582	0.001724	28.082	0.090864	0.001972	46.0698	132.753	17.9225	-0.007552	0.391286	-0.711914	-0.713279	0.006992	46.0698	-0.712027	-2.855712E+9	-2.448410E-12	NaN
539	1.000000	0.402643	7.37032e+06	-50139.1	1005.82	-29756.7	0.000000	0.000000	6.402915	0.044076	NaN	0.000000	0.001551	0.001799	28.0821	0.088853	0.002054	43.2545	59.2576	-165.78	-0.024932	0.401331	-0.701922	-0.703234	0.044076	43.2545	-0.702686	-2.129165E+9	-2.070119E-11	NaN
539	1.000000	0.412646	7.37032e+06	-50139.1	1005.82	-29756.7	0.000000	0.000000	6.412916	0.010149	NaN	0.000000	0.001576	0.001757	28.0821	0.156460	0.002046	76.4623	-176.447	14.0633	-0.012484	0.411297	-0.691919	-0.693268	0.010149	76.4623	-0.692019	-1.522325E+9	-6.666940E-12	NaN
539	1.000000	0.422625	7.37032e+06	-50139.1	1005.82	-29756.7	0.000000	0.000000	6.422898	0.076056	NaN	0.000000	0.001542	0.001789	28.0834	0.094287	0.002071	45.5203	125.098	-166.65	0.085145	0.421355	-0.681940	-0.683210	0.076056	45.5203	-0.683193	-1.153119E+9	-6.595659E-11	NaN
539	1.000000	0.432619	7.37032e+06	-50139.1	1005.82	-29756.7	0.000000	0.000000	6.432889	-0.012331	NaN	0.000000	0.001561	0.001788	28.0832	0.012153	0.001963	6.192505	-0.960872	11.3444	0.050615	0.431254	-0.671946	-0.673311	-0.012331	6.192505	-0.670453	-7.719444E+8	1.597408E-11	NaN
539	1.000000	0.442659	7.37032e+06	-50139.1	1005.82	-29756.7	0.000000	0.000000	6.442929	-0.018808	NaN	0.000000	0.001550	0.001759	28.0834	0.042788	0.001964	21.7823	112.337	-168.247	-0.032177	0.441301	-0.661906	-0.663264	-0.018808	21.7823	-0.661258	-5.776995E+8	3.255736E-11	NaN
539	1.000000	0.452638	7.37032e+06	-50139.1	1005.82	-29756.7	0.000000	0.000000	6.452910	0.051711	NaN	0.000000	0.001597	0.001736	28.0832	0.068423	0.002029	33.7291	-102.024	14.61	0.047904	0.451265	-0.651927	-0.653300	0.051711	33.7291	-0.653077	-4.462859E+8	-1.158688E-10	NaN
539	1.000000	0.462644	7.37032e+06	-50139.1	1005.82	-29756.7	0.000000	0.000000	6.462913	-0.018659	NaN	0.000000	0.001619	0.001754	28.0833	0.094645	0.002095	45.1704	-175.349	-166.449	-0.062041	0.461350	-0.641921	-0.643215	-0.018659	45.1704	-0.641611	-3.107393E+8	6.004715E-11	NaN
539	1.000000	0.472672	7.37032e+06	-50139.1	1005.82	-29756.7	0.000000	0.000000	6.472943	0.017655	NaN	0.000000	0.001600	0.001782	28.0831	0.072294	0.001923	37.5872	-76.5619	10.7802	0.006792	0.471290	-0.631893	-0.633275	0.017655	37.5872	-0.632245	-2.311289E+8	-7.638675E-11	NaN
539	1.000000	0.482666	7.37032e+06	-50139.1	1005.82	-29756.7	0.000000	0.000000	6.482935	-0.028927	NaN	0.000000	0.001563	0.001798	28.0836	0.076850	0.001951	39.3867	-171.721	-166.803	0.040668	0.481364	-0.621899	-0.623201	-0.028927	39.3867	-0.621349	-1.637450E+8	1.766585E-10	NaN
539	1.000000	0.492646	7.37032e+06	-50139.1	1005.82	-29756.7	0.000000	0.000000	6.492918	0.054817	NaN	0.000000	0.001562	0.001727	28.0831	0.089638	0.001956	45.8235	-145.553	13.8042	-0.009273	0.491246	-0.611919	-0.613320	0.054817	45.8235	-0.612816	-1.249843E+8	-4.385873E-10	NaN
539	1.000000	0.502657	7.37032e+06	-50139.1	1005.82	-29756.7	0.000000	0.000000	6.502929	0.041132	NaN	0.000000	0.001569	0.001765	28.0836	0.071520	0.002010	35.5861	156.66	-166.738	-0.003863	0.501344	-0.601908	-0.603221	0.041132	35.5861	-0.602775	-9.092198E+7	-4.523885E-10	NaN
539	1.000000	0.512691	7.37032e+06	-50139.1	1005.82	-29756.7	0.000000	0.000000	6.512959	-0.056416	NaN	0.000000	0.001591	0.001777	28.0834	0.118250	0.001975	59.8673	175.87	11.787	0.006650	0.511357	-0.591874	-0.593209	-0.056416	59.8673	-0.591168	-6.291622E+7	8.966924E-10	NaN
539	1.000000	0.522683	7.37032e+06	-50139.1	1005.82	-29756.7	0.000000	0.000000	6.522952	-0.007261	NaN	0.000000	0.001554	0.001777	28.0836	0.016901	0.001956	8.642746	74.0248	-169.544	0.044095	0.521348	-0.581883	-0.583217	-0.007261	8.642746	-0.581252	-4.592081E+7	1.581289E-10	NaN
539	1.000000	0.532678	7.37032e+06	-50139.1	1005.82	-29756.7	0.000000	0.000000	6.532951	0.067023	NaN	0.000000	0.001609	0.001773	28.0833	0.043493	0.001982	21.9469	-32.0566	13.0964	-0.002082	0.531343	-0.571887	-0.573222	0.067023	21.9469	-0.574178	-3.667262E+7	-1.827592E-9	NaN
539	1.000000	0.542672	7.37032e+06	-50139.1	1005.82	-29756.7	0.000000	0.000000	6.542945	0.065503	NaN	0.000000	0.001552	0.001763	28.0835	0.079374	0.002014	39.4075	10.2	-162.676	-0.005763	0.541362	-0.561893	-0.563203	0.065503	39.4075	-0.563140	-2.581107E+7	-2.537796E-9	NaN
539	1.000000	0.552689	7.37032e+06	-50139.1	1005.82	-29756.7	0.000000	0.000000	6.552959	-0.008900	NaN	0.000000	0.001546	0.001793	28.0827	0.110841	0.002011	55.1066	-99.3741	15.932	0.001406	0.551320	-0.551876	-0.553245	-0.008900	55.1066	-0.551755	-1.795820E+7	4.956216E-10	NaN
539	1.000000	0.562716	7.37032e+06	-50139.1	1005.82	-29756.7	0.000000	0.000000	6.562987	0.019270	NaN	0.000000	0.001627	0.001801	28.082	0.034972	0.001963	17.8176	-106.695	-165.471	-0.061826	0.561368	-0.541849	-0.543197	0.019270	17.8176	-0.542660	-1.343512E+7	-1.434282E-9	NaN
539	1.000000	0.572710	7.37032e+06	-50139.1	1005.82	-29756.7	0.000000	0.000000	6.572979	-0.034713	NaN	0.000000	0.001580	0.001813	28.0823	0.021151	0.001918	11.0301	78.6148	16.8606	-0.063777	0.571330	-0.531855	-0.533235	-0.034713	11.0301	-0.529495	-8.82175e+06	3.934957E-9	NaN
539	1.000000	0.582706	7.37032e+06	-50139.1	1005.82	-29756.7	0.000000	0.000000	6.582978	0.059214	NaN	0.000000	0.001592	0.001827	28.0823	0.048230	0.002087	23.1102	-150.805	-164.102	0.127314	0.581421	-0.521859	-0.523144	0.059214	23.1102	-0.523781	-7.34801e+06	-8.058468E-9	NaN
539	1.000000	0.592686	7.37032e+06	-50139.1	1005.82	-29756.7	0.000000	0.000000	6.592955	-0.035755	NaN	0.000000	0.001609	0.001802	28.0824	0.020230	0.001926	10.5008	94.8878	11.6876	-0.018130	0.591372	-0.511879	-0.513193	-0.035755	10.5008	-0.509325	-4.62398e+06	7.732538E-9	NaN
539	1.000000	0.602696	7.37032e+06	-50139.1	1005.82	-29756.7	0.000000	0.000000	6.602966	-0.009524	NaN	0.000000	0.001658	0.001802	28.0824	0.072935	0.001959	37.2237	-119.517	-162.593	0.069774	0.601385	-0.501869	-0.503180	-0.009524	37.2237	-0.501677	-3.61751e+06	2.632798E-9	NaN
539	1.000000	0.612692	7.37032e+06	-50139.1	1005.82	-29756.7	0.000000	0.000000	6.612959	-0.080149	NaN	0.000000	0.001624	0.001801	28.0824	0.046072	0.002053	22.4381	-90.1483	18.6118	-0.041512	0.611390	-0.491873	-0.493175	-0.080149	22.4381	-0.489194	-2.42172e+06	3.309595E-8	NaN
539	1.000000	0.622710	7.37032e+06	-50139.1	1005.82	-29756.7	0.000000	0.000000	6.622980	0.005014	NaN	0.000000	0.001620	0.001772	28.0824	0.071951	0.001957	36.7573	-41.9178	-165.07	0.066860	0.621382	-0.481855	-0.483183	0.005014	36.7573	-0.481958	-1.91835e+06	-2.613693E-9	NaN
539	1.000000	0.632715	7.37032e+06	-50139.1	1005.82	-29756.7	0.000000	0.000000	6.632986	0.017274	NaN	0.000000	0.001626	0.001767	28.0822	0.138644	0.002060	67.2868	13.1288	16.2609	0.007254	0.631357	-0.471850	-0.473208	0.017274	67.2868	-0.472043	-1.39333e+06	-1.239781E-8	NaN
539	1.000000	0.642725	7.37032e+06	-50139.1	1005.82	-29756.7	0.000000	0.000000	6.642994	-0.024426	NaN	0.000000	0.001551	0.001798	28.0821	0.092180	0.002020	45.6308	-83.4337	-168.489	0.006534	0.641433	-0.461840	-0.463132	-0.024426	45.6308	-0.461438	-989071	2.469609E-8	NaN
539	1.000000	0.652716	7.37032e+06	-50139.1	1005.82	-29756.7	0.000000	0.000000	6.652985	-0.013392	NaN	0.000000	0.001565	0.001773	28.0822	0.033049	0.001974	16.7429	35.6056	10.9649	-0.004693	0.651376	-0.451849	-0.453189	-0.013392	16.7429	-0.451249	-711108	1.883275E-8	NaN
539	1.000000	0.662740	7.37032e+06	-50139.1	1005.82	-29756.7	0.000000	0.000000	6.663010	-0.005175	NaN	0.000000	0.001583	0.001752	28.0823	0.112789	0.002004	56.2788	-28.7742	-166.146	0.011414	0.661469	-0.441825	-0.443096	-0.005175	56.2788	-0.441756	-522562	9.903469E-9	NaN
539	1.000000	0.672761	7.37032e+06	-50139.1	1005.82	-29756.7	0.000000	0.000000	6.673030	-0.032079	NaN	0.000000	0.001572	0.001800	28.0825	0.107547	0.001937	55.5353	-169.415	14.5858	0.011523	0.671367	-0.431804	-0.433198	-0.032079	55.5353	-0.431371	-372779	8.605350E-8	NaN
539	1.000000	0.682742	7.37032e+06	-50139.1	1005.82	-29756.7	0.000000	0.000000	6.683013	0.033396	NaN	0.000000	0.001541	0.001780	28.0821	0.098742	0.002123	46.5073	-139.068	-167.56	0.059744	0.681447	-0.421824	-0.423119	0.033396	46.5073	-0.422362	-277911	-1.201670E-7	NaN
539	1.000000	0.692755	7.37032e+06	-50139.1	1005.82	-29756.7	0.000000	0.000000	6.693025	0.012331	NaN	0.000000	0.001554	0.001790	28.0836	0.041555	0.001940	21.4198	156.367	12.8076	0.063089	0.691419	-0.411810	-0.413146	0.012331	21.4198	-0.412242	-199653	-6.176422E-8	NaN
539	1.000000	0.702774	7.37032e+06	-50139.1	1005.82	-29756.7	0.000000	0.000000	6.703046	0.057043	NaN	0.000000	0.001565	0.001781	28.0833	0.050525	0.002035	24.8254	168.977	-165.089	0.051500	0.701460	-0.401791	-0.403105	0.057043	24.8254	-0.403515	-150000	-3.802867E-7	NaN
539	1.000000	0.712774	7.37032e+06	-50139.1	1005.82	-29756.7	0.000000	0.000000	6.713046	0.035952	NaN	0.000000	0.001591	0.001814	28.0834	0.088713	0.001918	46.2449	154.999	13.0601	0.082588	0.711439	-0.391791	-0.393126	0.035952	46.2449	-0.392374	-104020	-3.456282E-7	NaN
539	1.000000	0.722760	7.37032e+06	-50139.1	1005.82	-29756.7	0.000000	0.000000	6.723029	-0.032576	NaN	0.000000	0.001578	0.001764	28.0832	0.099353	0.001989	49.9416	-2.996429	-170.088	-0.033871	0.721451	-0.381805	-0.383114	-0.032576	49.9416	-0.381316	-72239.2	4.509495E-7	NaN
539	1.000000	0.732812	7.37032e+06	-50139.1	1005.82	-29756.7	0.000000	0.000000	6.733083	0.011506	NaN	0.000000	0.001568	0.001765	28.0836	0.101300	0.002055	49.2847	19.8021	15.0373	-0.068495	0.731457	-0.371753	-0.373109	0.011506	49.2847	-0.371928	-52951.9	-2.172868E-7	NaN
539	1.000000	0.742776	7.37032e+06	-50139.1	1005.82	-29756.7	0.000000	0.000000	6.743047	0.034782	NaN	0.000000	0.001561	0.001768	28.083	0.085144	0.002118	40.2093	-137.537	-165.099	0.020072	0.741518	-0.361789	-0.363047	0.034782	40.2093	-0.362438	-38643.1	-9.000847E-7	NaN
539	1.000000	0.752769	7.37032e+06	-50139.1	1005.82	-29756.7	0.000000	0.000000	6.753041	0.050981	NaN	0.000000	0.001528	0.001794	28.0835	0.070125	0.001944	36.0732	-136.203	16.8179	-0.022262	0.751470	-0.351796	-0.353095	0.050981	36.0732	-0.352856	-28081.9	-1.815449E-6	NaN
539	1.000000	0.762766	7.37032e+06	-50139.1	1005.82	-29756.7	0.000000	0.000000	6.763038	0.047583	NaN	0.000000	0.001534	0.001784	28.0836	0.073113	0.001985	36.8385	-49.3762	-166.195	-0.006147	0.761453	-0.341800	-0.343112	0.047583	36.8385	-0.342768	-20039.3	-2.374498E-6	NaN
539	1.000000	0.772821	7.37032e+06	-50139.1	1005.82	-29756.7	0.000000	0.000000	6.773092	0.024997	NaN	0.000000	0.001530	0.001784	28.0839	0.082798	0.002090	39.6067	-55.0827	12.6585	0.060231	0.771412	-0.331744	-0.333153	0.024997	39.6067	-0.332218	-14057.5	-1.778193E-6	NaN
539	1.000000	0.782773	7.37032e+06	-50139.1	1005.82	-29756.7	0.000000	0.000000	6.783045	0.036837	NaN	0.000000	0.001595	0.001803	28.0835	0.061391	0.001978	31.0418	13.1566	-169.674	0.024906	0.781416	-0.321792	-0.323149	0.036837	31.0418	-0.322682	-10188	-3.615762E-6	NaN
539	1.000000	0.792774	7.37032e+06	-50139.1	1005.82	-29756.7	0.000000	0.000000	6.793045	0.011591	NaN	0.000000	0.001548	0.001737	28.0838	0.085014	0.002056	41.3589	113.417	15.3574	0.020579	0.791454	-0.311791	-0.313111	0.011591	41.3589	-0.312001	-7090.07	-1.634817E-6	NaN
539	1.000000	0.802799	7.37032e+06	-50139.1	1005.82	-29756.7	0.000000	0.000000	6.803070	0.030730	NaN	0.000000	0.001553	0.001786	28.0837	0.061878	0.002004	30.8821	124.527	-163.148	0.005834	0.801458	-0.301767	-0.303107	0.030730	30.8821	-0.302513	-5128.79	-5.991674E-6	NaN
539	1.000000	0.812794	7.37032e+06	-50139.1	1005.82	-29756.7	0.000000	0.000000	6.813064	0.005746	NaN	0.000000	0.001572	0.001798	28.0835	0.064297	0.001977	32.5249	16.1152	12.3639	0.051411	0.811402	-0.291771	-0.293163	0.005746	32.5249	-0.291904	-3562.94	-1.612628E-6	NaN
539	1.000000	0.822795	7.37032e+06	-50139.1	1005.82	-29756.7	0.000000	0.000000	6.823063	-0.043854	NaN	0.000000	0.001540	0.001796	28.0832	0.119245	0.002071	57.5918	-159.069	-167.865	-0.055777	0.821502	-0.281770	-0.283063	-0.043854	57.5918	-0.281199	-2460.66	1.782204E-5	NaN
539	1.000000	0.832792	7.37032e+06	-50139.1	1005.82	-29756.7	0.000000	0.000000	6.833061	-0.008120	NaN	0.000000	0.001563	0.001726	28.0824	0.145937	0.001968	74.1728	82.4341	17.0428	-0.001549	0.831472	-0.271774	-0.273093	-0.008120	74.1728	-0.271692	-1767.01	4.595568E-6	NaN
539	1.000000	0.842804	7.37032e+06	-50139.1	1005.82	-29756.7	0.000000	0.000000	6.843074	-0.001262	NaN	0.000000	0.001580	0.001757	28.0821	0.049890	0.002071	24.0919	145.435	-167.194	0.059892	0.841502	-0.261761	-0.263063	-0.001262	24.0919	-0.261722	-1245.34	1.013650E-6	NaN
539	1.000000	0.852826	7.37032e+06	-50139.1	1005.82	-29756.7	0.000000	0.000000	6.853097	0.008885	NaN	0.000000	0.001592	0.001796	28.0822	0.034150	0.001895	18.0214	30.6704	14.6266	0.050539	0.851469	-0.251739	-0.253096	0.008885	18.0214	-0.252108	-886.225	-1.002612E-5	NaN
539	1.000000	0.862831	7.37032e+06	-50139.1	1005.82	-29756.7	0.000000	0.000000	6.863098	-0.093982	NaN	0.000000	0.001560	0.001860	28.082	0.024077	0.002025	11.8875	-60.7495	-168.229	-0.039611	0.861519	-0.241734	-0.243046	-0.093982	11.8875	-0.235804	-494.167	0.000190	NaN
539	1.000000	0.872826	7.37032e+06	-50139.1	1005.82	-29756.7	0.000000	0.000000	6.873096	-0.008812	NaN	0.000000	0.001598	0.001812	28.0823	0.039767	0.002015	19.734	-143.091	12.7241	-0.021614	0.871480	-0.231739	-0.233085	-0.008812	19.734	-0.231404	-421.376	2.091281E-5	NaN
539	1.000000	0.882805	7.37032e+06	-50139.1	1005.82	-29756.7	0.000000	0.000000	6.883077	0.052492	NaN	0.000000	0.001594	0.001813	28.0821	0.109901	0.001898	57.891	50.9974	-166.776	0.010000	0.881527	-0.221760	-0.223038	0.052492	57.891	-0.222441	-303.822	-0.000173	NaN
539	1.000000	0.892831	7.37032e+06	-50139.1	1005.82	-29756.7	0.000000	0.000000	6.893104	0.092585	NaN	0.000000	0.001597	0.001811	28.0819	0.077058	0.001885	40.872	82.9519	13.2588	-0.000517	0.891476	-0.211735	-0.213089	0.092585	40.872	-0.213433	-217.917	-0.000425	NaN
539	1.000000	0.902836	7.37033e+06	-50139.1	1005.82	-29756.7	0.000000	0.000000	6.903107	0.023116	NaN	0.000000	0.001606	0.001807	28.0823	0.089190	0.001995	44.6992	-28.0125	-161.976	0.060242	0.901563	-0.201730	-0.203002	0.023116	44.6992	-0.202117	-142.706	-0.000162	NaN
539	1.000000	0.912836	7.37033e+06	-50139.1	1005.82	-29756.7	0.000000	0.000000	6.913107	0.023885	NaN	0.000000	0.001595	0.001832	28.0824	0.072962	0.002080	35.0752	78.8805	15.3878	0.031594	0.911465	-0.191729	-0.193100	0.023885	35.0752	-0.192240	-98.0322	-0.000244	NaN
539	1.000000	0.922842	7.37033e+06	-50139.1	1005.82	-29756.7	0.000000	0.000000	6.923114	0.029865	NaN	0.000000	0.001554	0.001820	28.0823	0.085421	0.001890	45.1862	-78.9071	-163.8	0.070190	0.921521	-0.181723	-0.183045	0.029865	45.1862	-0.182218	-66.5473	-0.000449	NaN
539	1.000000	0.932861	7.37033e+06	-50139.1	1005.82	-29756.7	0.000000	0.000000	6.933135	0.094799	NaN	0.000000	0.001624	0.001786	28.0824	0.059859	0.001847	32.4153	-58.9234	11.6247	0.055895	0.931548	-0.171704	-0.173017	0.094799	32.4153	-0.173897	-47.9744	-0.001976	NaN
539	1.000000	0.942823	7.37033e+06	-50139.1	1005.82	-29756.7	0.000000	0.000000	6.943094	0.010239	NaN	0.000000	0.001569	0.001819	28.0823	0.107607	0.001903	56.5423	-132.146	-168.525	0.079422	0.941599	-0.161742	-0.162966	0.010239	56.5423	-0.161878	-29.5988	-0.000346	NaN
539	1.000000	0.952868	7.37033e+06	-50139.1	1005.82	-29756.7	0.000000	0.000000	6.953140	0.047297	NaN	0.000000	0.001606	0.001820	28.0823	0.011134	0.001966	5.662927	76.4658	14.9801	0.054226	0.951509	-0.151697	-0.153056	0.047297	5.662927	-0.157961	-25.2156	-0.001876	NaN
539	1.000000	0.962900	7.37033e+06	-50139.1	1005.82	-29756.7	0.000000	0.000000	6.963169	-0.014242	NaN	0.000000	0.001554	0.001838	28.0834	0.042622	0.002144	19.8821	-159.657	-165.829	0.030135	0.961569	-0.141665	-0.142996	-0.014242	19.8821	-0.141128	-12.4199	0.001147	NaN
539	1.000000	0.972865	7.37033e+06	-50139.1	1005.82	-29756.7	0.000000	0.000000	6.973137	0.047884	NaN	0.000000	0.001535	0.001823	28.0835	0.084581	0.002050	41.2623	55.9261	10.4735	0.056012	0.971473	-0.131700	-0.133092	0.047884	41.2623	-0.132571	-8.545152	-0.005604	NaN
539	1.000000	0.982869	7.37033e+06	-50139.1	1005.82	-29756.7	0.000000	0.000000	6.983141	0.036002	NaN	0.000000	0.001563	0.001826	28.0838	0.012154	0.001990	6.106528	-131.725	-167.716	0.039588	0.981541	-0.121696	-0.123024	0.036002	6.106528	-0.126118	-6.398361	-0.005627	NaN
539	1.000000	0.992851	7.37033e+06	-50139.1	1005.82	-29756.7	0.000000	0.000000	6.993120	-0.005880	NaN	0.000000	0.001587	0.001825	28.0835	0.133690	0.002123	62.9721	74.6654	15.0806	-0.020153	0.991494	-0.111714	-0.113071	-0.005880	62.9721	-0.111644	-3.253987	0.001807	NaN
539	1.000000	1.002854	7.37033e+06	-50139.1	1005.82	-29756.7	0.000000	0.000000	7.003126	0.046944	NaN	0.000000	0.001626	0.001805	28.0838	0.026315	0.001986	13.2498	-51.8914	-164.318	-0.032868	1.001536	-0.101712	-0.103029	0.046944	13.2498	-0.104369	-2.277809	-0.020609	NaN
539	1.000000	1.012865	7.37033e+06	-50139.1	1005.82	-29756.7	0.000000	0.000000	7.013137	0.038503	NaN	0.000000	0.001625	0.001826	28.0836	0.110261	0.002019	54.6206	-156.274	14.4324	0.053025	1.011538	-0.091700	-0.093027	0.038503	54.6206	-0.092229	-1.218339	-0.031603	NaN
539	1.000000	1.022869	7.37033e+06	-50139.1	1005.82	-29756.7	0.000000	0.000000	7.023139	-0.014047	NaN	0.000000	0.001635	0.001801	28.0839	0.093523	0.001973	47.4019	-97.5632	-169.254	-0.039113	1.021586	-0.081696	-0.082979	-0.014047	47.4019	-0.081473	-0.673519	0.020857	NaN
539	1.000000	1.032875	7.37033e+06	-50139.1	1005.82	-29756.7	0.000000	0.000000	7.033146	0.018266	NaN	0.000000	0.001644	0.001819	28.0837	0.053109	0.002012	26.3972	-89.9187	11.7304	0.106019	1.031523	-0.071690	-0.073043	0.018266	26.3972	-0.072209	-0.390500	-0.046776	NaN
539	1.000000	1.042892	7.37033e+06	-50139.1	1005.82	-29756.7	0.000000	0.000000	7.043163	0.041062	NaN	0.000000	0.001618	0.001845	28.0842	0.066181	0.002038	32.4656	158.439	-168.273	0.016258	1.041577	-0.061673	-0.062989	0.041062	32.4656	-0.062622	-0.213831	-0.192028	NaN
539	1.000000	1.052907	7.37033e+06	-50139.1	1005.82	-29756.7	0.000000	0.000000	7.053178	0.026674	NaN	0.000000	0.001651	0.001843	28.0839	0.069950	0.002087	33.5228	138.35	15.6148	0.035898	1.051540	-0.051659	-0.053025	0.026674	33.5228	-0.052255	-0.106695	-0.250004	NaN
539	1.000000	1.062899	7.37033e+06	-50139.1	1005.82	-29756.7	0.000000	0.000000	7.063171	0.036512	NaN	0.000000	0.001565	0.001865	28.0839	0.065867	0.001855	35.5154	131.636	-165.628	0.029936	1.061530	-0.041666	-0.043035	0.036512	35.5154	-0.042437	-0.053656	-0.680481	NaN
539	1.000000	1.072893	7.37033e+06	-50139.1	1005.82	-29756.7	0.000000	0.000000	7.073165	0.028328	NaN	0.000000	0.001574	0.001806	28.0836	0.014534	0.002098	6.926418	-89.9072	14.1102	-0.007539	1.071544	-0.031672	-0.033021	0.028328	6.926418	-0.034739	-0.031464	-0.900325	NaN
539	1.000000	1.082909	7.37033e+06	-50139.1	1005.82	-29756.7	0.000000	0.000000	7.083179	-0.005935	NaN	0.000000	0.001582	0.001806	28.0837	0.096489	0.002019	47.7807	64.1882	-164.811	0.010834	1.081604	-0.021656	-0.022962	-0.005935	47.7807	-0.021563	-0.013764	0.431205	NaN
539	1.000000	1.092903	7.37033e+06	-50139.1	1005.82	-29756.7	0.000000	0.000000	7.093171	-0.034193	NaN	0.000000	0.001562	0.001835	28.0838	0.141815	0.002005	70.7183	130.292	17.3034	-0.020767	1.091572	-0.011662	-0.012993	-0.034193	70.7183	-0.011300	-0.007129	4.796333	NaN
539	1.000000	1.102906	7.37033e+06	-50139.1	1005.82	-29756.7	0.000000	0.000000	7.103201	0.612277	NaN	0.000000	0.001593	0.001839	28.0824	1.145338	0.001841	621.965	9.226808	-170.095	0.090058	1.101594	-0.001660	-0.002972	0.612277	621.965	-0.002398	-0.001713	-357.376	NaN
539	2.000000	1.111975	7.37033e+06	-50139.1	1005.82	-29756.7	0.000000	0.000000	7.112632	9.407341	NaN	0.000000	0.001573	0.001815	28.0824	9.138133	0.001702	5369.51	12.5896	3.148738	9.235458	1.111363	0.007410	0.006798	9.407341	5369.51	0.006096	0.005156	1824.66	68322.8
539	2.000000	1.114486	7.37033e+06	-50139.1	1005.82	-29756.7	0.000000	0.000000	7.115266	12.3943	NaN	0.000000	0.001570	0.001822	28.0825	12.1508	0.001774	6847.73	7.468861	-174.523	11.9304	1.114147	0.009921	0.009582	12.3943	6847.73	0.008564	0.007629	1624.7	71629.9
539	2.000000	1.116980	7.37033e+06	-50139.1	1005.82	-29756.7	0.000000	0.000000	7.117959	17.2303	NaN	0.000000	0.001559	0.001795	28.0823	14.3375	0.001656	8660.27	5.588587	4.614496	15.8565	1.116582	0.012415	0.012017	17.2303	8660.27	0.010923	0.010225	1685.08	78247.1
539	2.000000	1.119406	7.37033e+06	-50139.1	1005.82	-29756.7	0.000000	0.000000	7.120481	19.5803	NaN	0.000000	0.001576	0.001769	28.0823	16.6367	0.001749	9514.4	4.161568	-174.049	18.4659	1.119177	0.014841	0.014612	19.5803	9514.4	0.013297	0.013082	1496.79	76001.9
539	2.000000	1.121948	7.37033e+06	-50139.1	1005.82	-29756.7	0.000000	0.000000	7.123261	25.3516	NaN	0.000000	0.001570	0.001736	28.0823	19.3239	0.001772	10904.7	1.558888	7.368120	24.5642	1.121612	0.017383	0.017047	25.3516	10904.7	0.015640	0.016148	1569.97	78402.6
539	2.000000	1.124406	7.37033e+06	-50139.1	1005.82	-29756.7	0.000000	0.000000	7.126016	32.6004	NaN	0.000000	0.001557	0.001734	28.0825	22.7072	0.001752	12959.5	2.056489	-175.576	31.2222	1.124110	0.019841	0.019545	32.6004	12959.5	0.017954	0.019429	1677.96	84945.8
539	2.000000	1.126898	7.37033e+06	-50139.1	1005.82	-29756.7	0.000000	0.000000	7.128774	39.0544	NaN	0.000000	0.001562	0.001762	28.0827	24.5851	0.001734	14180.4	3.677602	3.299959	36.4912	1.126575	0.022333	0.022010	39.0544	14180.4	0.020267	0.022964	1700.65	85493.8
539	2.000000	1.129447	7.37033e+06	-50139.1	1005.82	-29756.7	0.000000	0.000000	7.131503	43.4302	NaN	0.000000	0.001583	0.001761	28.0824	27.1255	0.001692	16029.9	1.086416	-176.67	42.9318	1.129088	0.024882	0.024523	43.4302	16029.9	0.022850	0.027221	1595.49	88767.6
539	2.000000	1.131876	7.37033e+06	-50139.1	1005.82	-29756.7	0.000000	0.000000	7.134268	51.6022	NaN	0.000000	0.001592	0.001787	28.083	30.2644	0.001876	16131.4	5.654372	-0.621389	49.4677	1.131521	0.027311	0.026955	51.6022	16131.4	0.024912	0.030856	1672.36	83902.7
539	2.000000	1.134441	7.37033e+06	-50139.1	1005.82	-29756.7	0.000000	0.000000	7.137159	59.5515	NaN	0.000000	0.001581	0.001790	28.0824	32.8449	0.001757	18690.8	4.347561	179.334	61.3154	1.134086	0.029875	0.029521	59.5515	18690.8	0.027486	0.035694	1668.41	90386.8
539	2.000000	1.136894	7.37033e+06	-50139.1	1005.82	-29756.7	0.000000	0.000000	7.139988	68.6888	NaN	0.000000	0.001562	0.001790	28.0825	34.8143	0.001798	19362.3	10.2288	-5.921504	68.6215	1.136508	0.032328	0.031943	68.6888	19362.3	0.029668	0.040058	1714.74	88386.5
539	2.000000	1.139415	7.37033e+06	-50139.1	1005.82	-29756.7	0.000000	0.000000	7.142856	77.1128	NaN	0.000000	0.001528	0.001789	28.0823	37.3464	0.001803	20715.4	7.169034	175.774	76.0317	1.139008	0.034850	0.034443	77.1128	20715.4	0.032058	0.045117	1709.18	89103.9
539	2.000000	1.141916	7.37033e+06	-50139.1	1005.82	-29756.7	0.000000	0.000000	7.145736	86.3381	NaN	0.000000	0.001602	0.001768	28.0823	40.5412	0.001808	22428.6	5.081245	-2.929010	87.013	1.141546	0.037351	0.036980	86.3381	22428.6	0.034464	0.050505	1709.51	91182.3
539	2.000000	1.144443	7.37033e+06	-50139.1	1005.82	-29756.7	0.000000	0.000000	7.148621	95.0426	NaN	0.000000	0.001622	0.001756	28.0837	42.9565	0.001866	23025.3	3.034088	-179.835	95.5727	1.144087	0.039878	0.039521	95.0426	23025.3	0.036782	0.055976	1697.91	88915.4
539	2.000000	1.146850	7.37033e+06	-50139.1	1005.82	-29756.7	0.000000	0.000000	7.151717	111.786	NaN	0.000000	0.001641	0.001792	28.0837	44.4639	0.001769	25138.8	5.582776	-3.634545	108.565	1.146489	0.042285	0.041924	111.786	25138.8	0.038950	0.061343	1822.31	92733.2
539	2.000000	1.149393	7.37033e+06	-50139.1	1005.82	-29756.7	0.000000	0.000000	7.154573	119.403	NaN	0.000000	0.001625	0.001803	28.0835	47.7538	0.001873	25497.5	4.162830	177.42	117.774	1.149078	0.044828	0.044513	119.403	25497.5	0.041316	0.067473	1769.64	89681.8
539	2.000000	1.151799	7.37033e+06	-50139.1	1005.82	-29756.7	0.000000	0.000000	7.157609	134.711	NaN	0.000000	0.001652	0.001820	28.0835	49.0455	0.001747	28079.8	4.892818	-4.654376	128.894	1.151442	0.047234	0.046877	134.711	28079.8	0.043636	0.073763	1826.28	94460.3
539	2.000000	1.154360	7.37033e+06	-50139.1	1005.82	-29756.7	0.000000	0.000000	7.160526	143.369	NaN	0.000000	0.001647	0.001804	28.0837	51.6248	0.001746	29572.3	3.142136	176.941	141.602	1.154091	0.049795	0.049525	143.369	29572.3	0.046159	0.080912	1771.91	94984.3
539	2.000000	1.156874	7.37033e+06	-50139.1	1005.82	-29756.7	0.000000	0.000000	7.163777	161.324	NaN	0.000000	0.001622	0.001794	28.0834	53.6067	0.001724	31099.8	4.920230	-4.571090	158.027	1.156464	0.052308	0.051899	161.324	31099.8	0.048418	0.087586	1841.9	96009.5
539	2.000000	1.159347	7.37033e+06	-50139.1	1005.82	-29756.7	0.000000	0.000000	7.166877	176.557	NaN	0.000000	0.001630	0.001816	28.0835	55.8492	0.001701	32827	2.435952	177.584	175.442	1.159044	0.054781	0.054478	176.557	32827	0.050748	0.094738	1863.63	97440.9
539	2.000000	1.161873	7.37033e+06	-50139.1	1005.82	-29756.7	0.000000	0.000000	7.169758	185.178	NaN	0.000000	0.001614	0.001754	28.0834	61.0263	0.001893	32230.7	8.614453	-8.952093	184.785	1.161405	0.057308	0.056840	185.178	32230.7	0.052999	0.101908	1817.11	92244.2
539	2.000000	1.164288	7.37033e+06	-50139.1	1005.82	-29756.7	0.000000	0.000000	7.172906	203.013	NaN	0.000000	0.001601	0.001798	28.0837	62.2915	0.001869	33324.1	1.649114	177.732	199.229	1.164024	0.059723	0.059459	203.013	33324.1	0.055154	0.109006	1862.41	92216.1
539	2.000000	1.166872	7.37033e+06	-50139.1	1005.82	-29756.7	0.000000	0.000000	7.176066	217.021	NaN	0.000000	0.001609	0.001827	28.0836	64.0636	0.001767	36254.2	2.925729	-3.952756	214.271	1.166465	0.062307	0.061900	217.021	36254.2	0.057817	0.118097	1837.65	96385.5
539	2.000000	1.169346	7.37033e+06	-50139.1	1005.82	-29756.7	0.000000	0.000000	7.179227	233.704	NaN	0.000000	0.001624	0.001784	28.0835	66.2359	0.001781	37180.1	1.350072	177.12	232.473	1.169000	0.064781	0.064435	233.704	37180.1	0.060067	0.126049	1854.08	95678.6
539	2.000000	1.171830	7.37033e+06	-50139.1	1005.82	-29756.7	0.000000	0.000000	7.182268	247.26	NaN	0.000000	0.001583	0.001774	28.084	69.7788	0.001748	39919.5	3.539953	-5.594257	245.858	1.171468	0.067265	0.066903	247.26	39919.5	0.062620	0.135369	1826.56	99128.6
539	2.000000	1.174335	7.37033e+06	-50139.1	1005.82	-29756.7	0.000000	0.000000	7.185195	257.54	NaN	0.000000	0.001580	0.001774	28.0834	73.707	0.001803	40882.8	4.866679	172.183	255.714	1.174161	0.069769	0.069596	257.54	40882.8	0.065045	0.144517	1782.07	98254.8
539	2.000000	1.176873	7.37033e+06	-50139.1	1005.82	-29756.7	0.000000	0.000000	7.188852	284.748	NaN	0.000000	0.001588	0.001801	28.0827	75.4571	0.001821	41430.9	5.695615	-7.709366	282.672	1.176484	0.072308	0.071918	284.748	41430.9	0.067154	0.152702	1864.72	96866.7
539	2.000000	1.179346	7.37033e+06	-50139.1	1005.82	-29756.7	0.000000	0.000000	7.191753	295.168	NaN	0.000000	0.001603	0.001801	28.082	78.6056	0.001864	42181	5.578816	171.688	294.548	1.179107	0.074780	0.074541	295.168	42181	0.069532	0.162190	1819.89	95692.6
539	2.000000	1.181817	7.37033e+06	-50139.1	1005.82	-29756.7	0.000000	0.000000	7.195309	321.519	NaN	0.000000	0.001615	0.001803	28.0827	81.1257	0.001779	45598.6	6.267888	-9.066212	318.807	1.181464	0.077252	0.076899	321.519	45598.6	0.071964	0.172169	1867.46	100403
539	2.000000	1.184310	7.37033e+06	-50139.1	1005.82	-29756.7	0.000000	0.000000	7.198567	340.163	NaN	0.000000	0.001626	0.001815	28.0821	84.3729	0.001858	45420.3	6.577229	170.725	339.51	1.184041	0.079744	0.079476	340.163	45420.3	0.074128	0.181283	1876.42	97464.2
539	2.000000	1.186848	7.37033e+06	-50139.1	1005.82	-29756.7	0.000000	0.000000	7.201959	360.913	NaN	0.000000	0.001636	0.001800	28.0824	85.3644	0.001811	47147.9	6.059448	-8.754271	358.186	1.186480	0.082283	0.081915	360.913	47147.9	0.076541	0.191711	1882.59	98381.2
539	2.000000	1.189370	7.37033e+06	-50139.1	1005.82	-29756.7	0.000000	0.000000	7.205182	377.961	NaN	0.000000	0.001647	0.001793	28.0821	87.359	0.001800	48543.1	10.0721	167.609	378.333	1.188924	0.084805	0.084359	377.961	48543.1	0.078965	0.202456	1866.88	98567.9
539	2.000000	1.191727	7.37033e+06	-50139.1	1005.82	-29756.7	0.000000	0.000000	7.208001	389.192	NaN	0.000000	0.001589	0.001798	28.0823	89.734	0.001879	47760	7.235508	-10.6055	380.86	1.191545	0.087162	0.086979	389.192	47760	0.081050	0.211922	1836.49	94787.2
539	2.000000	1.194191	7.37033e+06	-50139.1	1005.82	-29756.7	0.000000	0.000000	7.211677	418.669	NaN	0.000000	0.001666	0.001792	28.082	91.662	0.001739	52711.5	7.934529	168.047	411.961	1.193882	0.089626	0.089316	418.669	52711.5	0.083669	0.224092	1868.29	101734
539	2.000000	1.196884	7.37033e+06	-50139.1	1005.82	-29756.7	0.000000	0.000000	7.215045	435.089	NaN	0.000000	0.001635	0.001798	28.082	93.9381	0.001804	52083.7	6.391682	-9.376694	434.367	1.196465	0.092319	0.091900	435.089	52083.7	0.086054	0.235453	1847.88	98066.9
539	2.000000	1.199272	7.37033e+06	-50139.1	1005.82	-29756.7	0.000000	0.000000	7.218240	454.714	NaN	0.000000	0.001625	0.001813	28.0822	95.3436	0.001795	53129.9	4.621136	171.954	452.306	1.198985	0.094707	0.094420	454.714	53129.9	0.088288	0.246337	1845.9	97801.9
539	2.000000	1.201732	7.37033e+06	-50139.1	1005.82	-29756.7	0.000000	0.000000	7.221633	477.406	NaN	0.000000	0.001651	0.001801	28.082	97.5071	0.001857	52497.2	2.895658	-5.852978	471.15	1.201375	0.097166	0.096810	477.406	52497.2	0.090346	0.256562	1860.78	94691.9
539	2.000000	1.204358	7.37033e+06	-50139.1	1005.82	-29756.7	0.000000	0.000000	7.225051	496.666	NaN	0.000000	0.001670	0.001812	28.082	101.389	0.001976	51321.5	8.518175	168.513	499.271	1.204027	0.099793	0.099462	496.666	51321.5	0.092535	0.267651	1855.65	90633.3
539	2.000000	1.206874	7.37033e+06	-50139.1	1005.82	-29756.7	0.000000	0.000000	7.228184	511.67	NaN	0.000000	0.001669	0.001820	28.0821	101.065	0.001783	56687.6	4.148381	-7.920671	508.718	1.206569	0.102309	0.102004	511.67	56687.6	0.095539	0.283229	1806.56	97317.7
539	2.000000	1.209255	7.37033e+06	-50139.1	1005.82	-29756.7	0.000000	0.000000	7.231342	530.568	NaN	0.000000	0.001683	0.001803	28.0821	104.732	0.001817	57646.4	4.360431	171.176	526.809	1.209032	0.104690	0.104467	530.568	57646.4	0.097787	0.295155	1797.59	96943.7
539	2.000000	1.210350	7.37033e+06	-50139.1	1005.82	-29756.7	0.000000	0.000000	7.233044	545.315	NaN	0.000000	0.001682	0.001789	28.082	106.509	0.001784	59694.3	4.492333	171.712	545.751	1.209834	0.105785	0.105269	545.315	59694.3	0.098934	0.301326	1809.72	99354.6