File: remote_trans/data/nanoindenter/0828-1/data/Data_2025-08-06,11h17m57s/2025-07-22_16-23-58_1_206.txt
2025-07-22, 16:23:58, 1
Index	Phase	Displacement	Time	Pos X	Pos Y	Pos Z	Rot A	Rot B	Piezo Z	Force A	Force B	Gripper	Voltage A	Voltage B	Temperature	Amplitude force	Amplitude pos	Stiffness	Phase shift	Phase excitation	Force A raw	Displacement raw	HMax	HMax raw	Real Force	Real Stiffness	Contact Depth	Area	Hardness	Reduced Mod.
[#]	[#]	[um]	[s]	[um]	[um]	[um]	[m°]	[m°]	[um]	[uN]	[uN]	[V]	[V]	[V]	[°C]	[uN]	[um]	[N/m]	[°]	[°]	[uN]	[um]	[um]	[um]	[uN]	[N/m]	[um]	[um^2]	[MPa]	[MPa]
206	1.000000	0.002698	7.36706e+06	-48939.1	955.819	-29761	0.000000	0.000000	6.002787	-0.071295	NaN	0.000000	0.001665	0.001671	28.0803	0.059196	0.001013	58.4402	-84.6819	-172.975	-0.048119	0.001446	-1.067150	-1.068403	-0.071295	58.4402	-1.066235	-1.764418E+14	4.040702E-16	NaN
206	1.000000	0.010700	7.36706e+06	-48939.1	955.819	-29761	0.000000	0.000000	6.010793	0.017395	NaN	0.000000	0.001703	0.001673	28.0797	0.079073	0.000850	93.0737	-55.6557	-165.798	0.025042	0.009362	-1.059148	-1.060487	0.017395	93.0737	-1.059288	-1.423161E+14	-1.222254E-16	NaN
206	1.000000	0.018657	7.36706e+06	-48939.1	955.819	-29761	0.000000	0.000000	6.018750	0.011326	NaN	0.000000	0.001719	0.001669	28.0799	0.055018	0.001699	32.3812	77.1817	-166.51	-0.025669	0.017377	-1.051191	-1.052471	0.011326	32.3812	-1.051453	-1.116728E+14	-1.014250E-16	NaN
206	1.000000	0.026661	7.36706e+06	-48939.1	955.819	-29761	0.000000	0.000000	6.026753	0.012727	NaN	0.000000	0.001665	0.001650	28.0799	0.070323	0.001907	36.8808	18.7284	-165.902	0.068736	0.025315	-1.043187	-1.044533	0.012727	36.8808	-1.043446	-8.715670E+13	-1.460215E-16	NaN
206	1.000000	0.034694	7.36706e+06	-48939.1	955.819	-29761	0.000000	0.000000	6.034789	0.073906	NaN	0.000000	0.001703	0.001675	28.08	0.085743	0.001939	44.2226	-152.319	-165.802	-0.005943	0.033374	-1.035154	-1.036475	0.073906	44.2226	-1.036408	-7.009088E+13	-1.054429E-15	NaN
206	1.000000	0.042654	7.36706e+06	-48939.1	955.818	-29761	0.000000	0.000000	6.042745	-0.015620	NaN	0.000000	0.001667	0.001651	28.0799	0.050903	0.001959	25.9842	156.307	-165.452	0.030231	0.041352	-1.027194	-1.028497	-0.015620	25.9842	-1.026743	-5.196039E+13	3.006169E-16	NaN
206	1.000000	0.050646	7.36706e+06	-48939.1	955.818	-29761	0.000000	0.000000	6.050740	0.054310	NaN	0.000000	0.001683	0.001620	28.0799	0.017177	0.002027	8.475081	-18.9214	-168.554	0.057408	0.049383	-1.019202	-1.020466	0.054310	8.475081	-1.024009	-4.774021E+13	-1.137609E-15	NaN
206	1.000000	0.058658	7.36706e+06	-48939.1	955.819	-29761	0.000000	0.000000	6.058747	-0.060980	NaN	0.000000	0.001639	0.001668	28.0798	0.067678	0.002066	32.7549	-62.5668	-164.107	-0.053683	0.057357	-1.011191	-1.012491	-0.060980	32.7549	-1.009794	-3.073367E+13	1.984140E-15	NaN
206	1.000000	0.066656	7.36706e+06	-48939.1	955.818	-29761	0.000000	0.000000	6.066750	0.052039	NaN	0.000000	0.001679	0.001646	28.08	0.105373	0.001981	53.1856	116.153	-168.235	-0.014036	0.065401	-1.003192	-1.004448	0.052039	53.1856	-1.003926	-2.562253E+13	-2.030988E-15	NaN
206	1.000000	0.074672	7.36706e+06	-48939.1	955.818	-29761	0.000000	0.000000	6.074762	-0.019797	NaN	0.000000	0.001670	0.001655	28.0801	0.055564	0.001960	28.3448	-82.5588	-164.064	0.015802	0.073350	-0.995177	-0.996498	-0.019797	28.3448	-0.994653	-1.922083E+13	1.029978E-15	NaN
206	1.000000	0.082686	7.36706e+06	-48939.1	955.819	-29761	0.000000	0.000000	6.082777	-0.007711	NaN	0.000000	0.001660	0.001601	28.08	0.041781	0.001916	21.8052	135.547	-165.816	-0.025230	0.081363	-0.987163	-0.988486	-0.007711	21.8052	-0.986897	-1.511209E+13	5.102375E-16	NaN
206	1.000000	0.090666	7.36706e+06	-48939.1	955.819	-29761	0.000000	0.000000	6.090758	0.017134	NaN	0.000000	0.001680	0.001630	28.0802	0.067602	0.001868	36.189	-56.0093	-168.245	-0.019568	0.089363	-0.979182	-0.980485	0.017134	36.189	-0.979537	-1.202754E+13	-1.424540E-15	NaN
206	1.000000	0.098682	7.36706e+06	-48939.1	955.818	-29761	0.000000	0.000000	6.098775	0.032153	NaN	0.000000	0.001673	0.001614	28.0799	0.020482	0.001886	10.861	127.896	-160.282	0.011745	0.097348	-0.971166	-0.972500	0.032153	10.861	-0.973387	-9.938082E+12	-3.235364E-15	NaN
206	1.000000	0.106672	7.36706e+06	-48939.1	955.818	-29761	0.000000	0.000000	6.106762	-0.033230	NaN	0.000000	0.001719	0.001627	28.0798	0.097752	0.002038	47.9743	-178.939	-168.751	-0.002099	0.105367	-0.963177	-0.964481	-0.033230	47.9743	-0.962657	-7.123437E+12	4.664903E-15	NaN
206	1.000000	0.114693	7.36706e+06	-48939.1	955.817	-29761	0.000000	0.000000	6.114781	-0.082222	NaN	0.000000	0.001725	0.001642	28.0801	0.027721	0.001896	14.6226	105.032	-167.694	0.016679	0.113357	-0.955155	-0.956491	-0.082222	14.6226	-0.950938	-4.950816E+12	1.660785E-14	NaN
206	1.000000	0.122710	7.36706e+06	-48939.1	955.819	-29761	0.000000	0.000000	6.122804	0.053053	NaN	0.000000	0.001701	0.001656	28.0788	0.055986	0.002196	25.4958	64.3227	-165.35	0.045848	0.121405	-0.947138	-0.948443	0.053053	25.4958	-0.948699	-4.618285E+12	-1.148762E-14	NaN
206	1.000000	0.130685	7.36706e+06	-48939.1	955.818	-29761	0.000000	0.000000	6.130779	0.059330	NaN	0.000000	0.001691	0.001635	28.0791	0.109145	0.002103	51.8888	-147.944	-167.299	0.048250	0.129356	-0.939163	-0.940492	0.059330	51.8888	-0.940021	-3.527088E+12	-1.682138E-14	NaN
206	1.000000	0.138698	7.36706e+06	-48939.1	955.818	-29761	0.000000	0.000000	6.138789	0.002785	NaN	0.000000	0.001688	0.001624	28.0791	0.050748	0.001978	25.65	29.835	-168.554	0.078980	0.137396	-0.931151	-0.932452	0.002785	25.65	-0.931232	-2.684263E+12	-1.037701E-15	NaN
206	1.000000	0.146687	7.36706e+06	-48939.1	955.819	-29761	0.000000	0.000000	6.146778	-0.021545	NaN	0.000000	0.001666	0.001643	28.079	0.074710	0.002052	36.4021	107.618	-167.867	-0.039185	0.145424	-0.923161	-0.924424	-0.021545	36.4021	-0.922717	-2.060114E+12	1.045814E-14	NaN
206	1.000000	0.154729	7.36706e+06	-48939.1	955.818	-29761	0.000000	0.000000	6.154818	-0.053932	NaN	0.000000	0.001705	0.001646	28.0787	0.028108	0.001983	14.1723	-79.2359	-166.691	-0.071640	0.153429	-0.915119	-0.916419	-0.053932	14.1723	-0.912265	-1.488538E+12	3.623129E-14	NaN
206	1.000000	0.162732	7.36706e+06	-48939.1	955.819	-29761	0.000000	0.000000	6.162824	0.002357	NaN	0.000000	0.001692	0.001681	28.0788	0.053046	0.001988	26.6766	139.102	-166.164	0.059872	0.161354	-0.907116	-0.908495	0.002357	26.6766	-0.907182	-1.270869E+12	-1.854401E-15	NaN
206	1.000000	0.170666	7.36706e+06	-48939.1	955.817	-29761	0.000000	0.000000	6.170757	-0.023349	NaN	0.000000	0.001712	0.001691	28.079	0.064137	0.002111	30.3838	133.427	-166.275	0.006987	0.169405	-0.899182	-0.900443	-0.023349	30.3838	-0.898606	-9.732528E+11	2.399086E-14	NaN
206	1.000000	0.178701	7.36706e+06	-48939.1	955.818	-29761	0.000000	0.000000	6.178790	-0.060270	NaN	0.000000	0.001750	0.001696	28.0789	0.027569	0.001976	13.9498	-18.5328	-165.835	-0.084264	0.177422	-0.891147	-0.892426	-0.060270	13.9498	-0.887907	-6.976264E+11	8.639228E-14	NaN
206	1.000000	0.186698	7.36706e+06	-48939.1	955.819	-29761	0.000000	0.000000	6.186792	0.049454	NaN	0.000000	0.001733	0.001666	28.0792	0.111097	0.002012	55.2144	29.8071	-168.734	0.017547	0.185437	-0.883150	-0.884411	0.049454	55.2144	-0.883822	-6.143096E+11	-8.050371E-14	NaN
206	1.000000	0.194704	7.36706e+06	-48939.1	955.819	-29761	0.000000	0.000000	6.194794	-0.052155	NaN	0.000000	0.001736	0.001685	28.079	0.078729	0.002056	38.2864	56.7473	-163.8	-0.063531	0.193380	-0.875144	-0.876468	-0.052155	38.2864	-0.874122	-4.541589E+11	1.148382E-13	NaN
206	1.000000	0.202728	7.36706e+06	-48939.1	955.818	-29761	0.000000	0.000000	6.202818	-0.029027	NaN	0.000000	0.001706	0.001673	28.0791	0.062059	0.001943	31.942	-21.3889	-167.685	-0.054489	0.201422	-0.867120	-0.868427	-0.029027	31.942	-0.866439	-3.574880E+11	8.119668E-14	NaN
206	1.000000	0.210738	7.36706e+06	-48939.1	955.818	-29761	0.000000	0.000000	6.210831	0.035304	NaN	0.000000	0.001719	0.001670	28.079	0.007545	0.001991	3.790018	78.0146	-168.508	-0.058567	0.209412	-0.859111	-0.860436	0.035304	3.790018	-0.866097	-3.536970E+11	-9.981439E-14	NaN
206	1.000000	0.218680	7.36706e+06	-48939.1	955.818	-29761	0.000000	0.000000	6.218769	-0.060644	NaN	0.000000	0.001692	0.001688	28.0795	0.180006	0.002049	87.8478	-148.095	-164.604	-0.013127	0.217370	-0.851169	-0.852478	-0.060644	87.8478	-0.850651	-2.185507E+11	2.774829E-13	NaN
206	1.000000	0.226732	7.36706e+06	-48939.1	955.818	-29761	0.000000	0.000000	6.226826	0.061827	NaN	0.000000	0.001661	0.001650	28.0793	0.068039	0.002063	32.9863	166.882	-169.692	0.067632	0.225413	-0.843117	-0.844435	0.061827	32.9863	-0.844522	-1.805318E+11	-3.424713E-13	NaN
206	1.000000	0.234708	7.36706e+06	-48939.1	955.818	-29761	0.000000	0.000000	6.234798	-0.054441	NaN	0.000000	0.001715	0.001694	28.0792	0.140399	0.002003	70.0818	176.72	-164.082	-0.075762	0.233449	-0.835140	-0.836399	-0.054441	70.0818	-0.834557	-1.322962E+11	4.115070E-13	NaN
206	1.000000	0.242725	7.36706e+06	-48939.1	955.818	-29761	0.000000	0.000000	6.242815	-0.037627	NaN	0.000000	0.001691	0.001673	28.0788	0.057855	0.001960	29.5158	42.9476	-165.998	-0.062099	0.241449	-0.827123	-0.828399	-0.037627	29.5158	-0.826167	-1.018183E+11	3.695543E-13	NaN
206	1.000000	0.250750	7.36706e+06	-48939.1	955.818	-29761	0.000000	0.000000	6.250839	-0.048404	NaN	0.000000	0.001658	0.001666	28.0788	0.062834	0.001909	32.9068	21.483	-168.626	0.043707	0.249401	-0.819099	-0.820448	-0.048404	32.9068	-0.817995	-7.889073E+10	6.135530E-13	NaN
206	1.000000	0.258749	7.36706e+06	-48939.1	955.818	-29761	0.000000	0.000000	6.258838	-0.074521	NaN	0.000000	0.001678	0.001693	28.0803	0.096480	0.002067	46.6677	-68.898	-163.906	-0.052307	0.257417	-0.811099	-0.812432	-0.074521	46.6677	-0.809902	-6.126817E+10	1.216308E-12	NaN
206	1.000000	0.266736	7.36706e+06	-48939.1	955.818	-29761	0.000000	0.000000	6.266825	-0.062222	NaN	0.000000	0.001686	0.001663	28.0803	0.033433	0.002004	16.6835	37.7992	-169.414	-0.041904	0.265461	-0.803112	-0.804387	-0.062222	16.6835	-0.800315	-4.540819E+10	1.370274E-12	NaN
206	1.000000	0.274770	7.36706e+06	-48939.1	955.818	-29761	0.000000	0.000000	6.274861	-0.025108	NaN	0.000000	0.001698	0.001646	28.0802	0.178630	0.002115	84.4774	-15.9136	-166.19	-0.004505	0.273419	-0.795078	-0.796429	-0.025108	84.4774	-0.794855	-3.828346E+10	6.558571E-13	NaN
206	1.000000	0.282761	7.36706e+06	-48939.1	955.819	-29761	0.000000	0.000000	6.282852	-0.006933	NaN	0.000000	0.001707	0.001602	28.0805	0.018081	0.001952	9.260787	108.116	-165.704	-0.016330	0.281428	-0.787087	-0.788420	-0.006933	9.260787	-0.786526	-2.950495E+10	2.349800E-13	NaN
206	1.000000	0.290771	7.36706e+06	-48939.1	955.818	-29761	0.000000	0.000000	6.290863	0.004019	NaN	0.000000	0.001673	0.001609	28.0802	0.070277	0.001946	36.1148	68.9635	-167.513	-0.005670	0.289470	-0.779077	-0.780378	0.004019	36.1148	-0.779160	-2.343257E+10	-1.715044E-13	NaN
206	1.000000	0.298771	7.36706e+06	-48939.1	955.818	-29761	0.000000	0.000000	6.298865	0.043272	NaN	0.000000	0.001702	0.001585	28.08	0.098688	0.002051	48.1141	-87.802	-165.113	-0.006987	0.297456	-0.771077	-0.772392	0.043272	48.1141	-0.771752	-1.858315E+10	-2.328586E-12	NaN
206	1.000000	0.306751	7.36706e+06	-48939.1	955.818	-29761	0.000000	0.000000	6.306840	-0.056896	NaN	0.000000	0.001706	0.001642	28.0796	0.047518	0.001963	24.2062	80.6827	-167.183	-0.084325	0.305506	-0.763097	-0.764342	-0.056896	24.2062	-0.761334	-1.341075E+10	4.242596E-12	NaN
206	1.000000	0.314797	7.36706e+06	-48939.1	955.819	-29761	0.000000	0.000000	6.314888	-0.012975	NaN	0.000000	0.001659	0.001623	28.0802	0.111839	0.001884	59.3588	-157.36	-165.195	-0.095883	0.313429	-0.755051	-0.756420	-0.012975	59.3588	-0.754887	-1.095803E+10	1.184084E-12	NaN
206	1.000000	0.322775	7.36706e+06	-48939.1	955.819	-29761	0.000000	0.000000	6.322866	-0.008683	NaN	0.000000	0.001678	0.001602	28.0801	0.122890	0.001920	64.0058	137.037	-166.591	0.050481	0.321433	-0.747073	-0.748415	-0.008683	64.0058	-0.746972	-8.550529E+9	1.015501E-12	NaN
206	1.000000	0.330772	7.36706e+06	-48939.1	955.818	-29761	0.000000	0.000000	6.330864	0.009622	NaN	0.000000	0.001651	0.001591	28.0801	0.022474	0.001929	11.6514	31.1781	-168.386	0.004738	0.329536	-0.739076	-0.740312	0.009622	11.6514	-0.739696	-6.806312E+9	-1.413712E-12	NaN
206	1.000000	0.338782	7.36706e+06	-48939.1	955.819	-29761	0.000000	0.000000	6.338873	-0.016081	NaN	0.000000	0.001697	0.001637	28.0803	0.092544	0.002023	45.7555	-1.483285	-160.813	-0.016125	0.337476	-0.731066	-0.732372	-0.016081	45.7555	-0.730802	-5.149240E+9	3.122969E-12	NaN
206	1.000000	0.346773	7.36706e+06	-48939.1	955.817	-29761	0.000000	0.000000	6.346864	-0.018840	NaN	0.000000	0.001730	0.001613	28.0799	0.062422	0.001926	32.4099	-76.8522	-164.85	-0.017725	0.345472	-0.723075	-0.724376	-0.018840	32.4099	-0.722639	-3.985282E+9	4.727330E-12	NaN
206	1.000000	0.354798	7.36706e+06	-48939.1	955.819	-29761	0.000000	0.000000	6.354888	-0.032253	NaN	0.000000	0.001727	0.001622	28.08	0.069157	0.001887	36.6488	111.871	-165.769	-0.024144	0.353440	-0.715050	-0.716408	-0.032253	36.6488	-0.714390	-3.075781E+9	1.048614E-11	NaN
206	1.000000	0.362794	7.36706e+06	-48939.1	955.819	-29761	0.000000	0.000000	6.362883	-0.048097	NaN	0.000000	0.001713	0.001602	28.0803	0.160835	0.002058	78.1523	-139.123	-167.289	-0.038343	0.361534	-0.707055	-0.708314	-0.048097	78.1523	-0.706593	-2.407409E+9	1.997888E-11	NaN
206	1.000000	0.370799	7.36706e+06	-48939.1	955.818	-29761	0.000000	0.000000	6.370891	0.022945	NaN	0.000000	0.001714	0.001584	28.08	0.117759	0.001961	60.0598	175.323	-167.214	-0.060648	0.369467	-0.699050	-0.700381	0.022945	60.0598	-0.699336	-1.916301E+9	-1.197353E-11	NaN
206	1.000000	0.378817	7.36706e+06	-48939.1	955.818	-29761	0.000000	0.000000	6.378910	0.032621	NaN	0.000000	0.001706	0.001609	28.0804	0.050571	0.002054	24.6262	-27.6612	-164.015	0.088117	0.377459	-0.691031	-0.692389	0.032621	24.6262	-0.692024	-1.522584E+9	-2.142445E-11	NaN
206	1.000000	0.386775	7.36706e+06	-48939.1	955.817	-29761	0.000000	0.000000	6.386865	-0.026462	NaN	0.000000	0.001704	0.001612	28.0802	0.091979	0.001931	47.6328	-47.0884	-166.405	-0.069744	0.385500	-0.683073	-0.684348	-0.026462	47.6328	-0.682657	-1.133804E+9	2.333884E-11	NaN
206	1.000000	0.394774	7.36706e+06	-48939.1	955.818	-29761	0.000000	0.000000	6.394867	0.027755	NaN	0.000000	0.001684	0.001613	28.0792	0.079613	0.002013	39.5397	-179.104	-168.517	-0.027083	0.393468	-0.675074	-0.676380	0.027755	39.5397	-0.675601	-9.078806E+8	-3.057115E-11	NaN
206	1.000000	0.402798	7.36706e+06	-48939.1	955.818	-29761	0.000000	0.000000	6.402888	-0.037318	NaN	0.000000	0.001735	0.001588	28.0792	0.045660	0.001968	23.1967	-53.5958	-165.067	0.004503	0.401471	-0.667050	-0.668377	-0.037318	23.1967	-0.665844	-6.675661E+8	5.590125E-11	NaN
206	1.000000	0.410829	7.36706e+06	-48939.1	955.819	-29761	0.000000	0.000000	6.410921	-0.004887	NaN	0.000000	0.001699	0.001613	28.0792	0.038738	0.002122	18.2556	-99.9628	-167.889	-0.021521	0.409491	-0.659019	-0.660357	-0.004887	18.2556	-0.658818	-5.349094E+8	9.135864E-12	NaN
206	1.000000	0.418834	7.36706e+06	-48939.1	955.819	-29761	0.000000	0.000000	6.418928	0.063664	NaN	0.000000	0.001718	0.001612	28.0797	0.053360	0.002023	26.3754	-34.2802	-168.68	0.046799	0.417537	-0.651015	-0.652311	0.063664	26.3754	-0.652825	-4.427485E+8	-1.437921E-10	NaN
206	1.000000	0.426815	7.36706e+06	-48939.1	955.818	-29761	0.000000	0.000000	6.426905	-0.022025	NaN	0.000000	0.001678	0.001618	28.0792	0.079854	0.002019	39.5509	-19.1839	-166.91	-0.045595	0.425501	-0.643034	-0.644347	-0.022025	39.5509	-0.642616	-3.207594E+8	6.866508E-11	NaN
206	1.000000	0.434811	7.36706e+06	-48939.1	955.819	-29761	0.000000	0.000000	6.434901	-0.036043	NaN	0.000000	0.001668	0.001621	28.0792	0.010154	0.002154	4.712986	-93.2036	-166.041	-0.048996	0.433534	-0.635037	-0.636314	-0.036043	4.712986	-0.629302	-2.105875E+8	1.711526E-10	NaN
206	1.000000	0.442837	7.36706e+06	-48939.1	955.819	-29761	0.000000	0.000000	6.442929	0.017028	NaN	0.000000	0.001698	0.001671	28.0791	0.043687	0.002029	21.5332	133.5	-165.499	0.019178	0.441469	-0.627011	-0.628379	0.017028	21.5332	-0.627605	-1.995830E+8	-8.531726E-11	NaN
206	1.000000	0.450855	7.36706e+06	-48939.1	955.818	-29761	0.000000	0.000000	6.450945	-0.026877	NaN	0.000000	0.001718	0.001675	28.0792	0.052488	0.002011	26.0969	-105.114	-165.543	-0.021820	0.449532	-0.618993	-0.620316	-0.026877	26.0969	-0.618221	-1.483127E+8	1.812182E-10	NaN
206	1.000000	0.458838	7.36706e+06	-48939.1	955.817	-29761	0.000000	0.000000	6.458929	-0.024957	NaN	0.000000	0.001716	0.001649	28.0791	0.092879	0.002058	45.139	-171.429	-169.009	0.058145	0.457568	-0.611010	-0.612281	-0.024957	45.139	-0.610595	-1.164946E+8	2.142347E-10	NaN
206	1.000000	0.466833	7.36706e+06	-48939.1	955.819	-29761	0.000000	0.000000	6.466925	-0.005681	NaN	0.000000	0.001686	0.001655	28.0793	0.081471	0.001981	41.1302	-68.2779	-166.333	-0.037270	0.465506	-0.603015	-0.604342	-0.005681	41.1302	-0.602911	-9.131637E+7	6.220841E-11	NaN
206	1.000000	0.474841	7.36706e+06	-48939.1	955.818	-29761	0.000000	0.000000	6.474933	0.001190	NaN	0.000000	0.001657	0.001624	28.0793	0.175103	0.001971	88.8517	-177.435	-166.156	0.003676	0.473525	-0.595007	-0.596324	0.001190	88.8517	-0.595017	-7.109076E+7	-1.673776E-11	NaN
206	1.000000	0.482830	7.36706e+06	-48939.1	955.819	-29761	0.000000	0.000000	6.482920	-0.032385	NaN	0.000000	0.001718	0.001654	28.0792	0.128090	0.001967	65.1044	103.741	-165.097	-0.094680	0.481564	-0.587018	-0.588284	-0.032385	65.1044	-0.586645	-5.450159E+7	5.941984E-10	NaN
206	1.000000	0.490839	7.36706e+06	-48939.1	955.818	-29761	0.000000	0.000000	6.490929	-0.040393	NaN	0.000000	0.001673	0.001659	28.0794	0.038111	0.001881	20.2618	171.902	-167.587	-0.042880	0.489574	-0.579010	-0.580274	-0.040393	20.2618	-0.577514	-4.077716E+7	9.905906E-10	NaN
206	1.000000	0.498859	7.36706e+06	-48939.1	955.819	-29761	0.000000	0.000000	6.498952	0.027832	NaN	0.000000	0.001671	0.001654	28.0794	0.018234	0.001962	9.293227	66.4612	-165.732	-0.023667	0.497576	-0.570989	-0.572272	0.027832	9.293227	-0.573235	-3.558948E+7	-7.820371E-10	NaN
206	1.000000	0.506836	7.36706e+06	-48939.1	955.817	-29761	0.000000	0.000000	6.506928	0.010700	NaN	0.000000	0.001675	0.001653	28.0795	0.036576	0.001971	18.5542	10.9105	-164.235	-0.011174	0.505574	-0.563012	-0.564274	0.010700	18.5542	-0.563444	-2.606260E+7	-4.105535E-10	NaN
206	1.000000	0.514868	7.36706e+06	-48939.1	955.819	-29761	0.000000	0.000000	6.514959	-0.012947	NaN	0.000000	0.001686	0.001651	28.0795	0.068893	0.002072	33.2506	125.627	-168.591	-0.036124	0.513620	-0.554980	-0.556228	-0.012947	33.2506	-0.554688	-1.971852E+7	6.565758E-10	NaN
206	1.000000	0.522855	7.36706e+06	-48939.1	955.82	-29761	0.000000	0.000000	6.522948	0.030956	NaN	0.000000	0.001659	0.001665	28.0796	0.094949	0.001939	48.9554	113.366	-166.764	-0.033850	0.521555	-0.546993	-0.548293	0.030956	48.9554	-0.547467	-1.566275E+7	-1.976438E-9	NaN
206	1.000000	0.530883	7.36706e+06	-48939.1	955.817	-29761	0.000000	0.000000	6.530972	-0.050641	NaN	0.000000	0.001770	0.001643	28.0804	0.118477	0.002087	56.756	-16.3098	-165.21	0.013780	0.529565	-0.538965	-0.540283	-0.050641	56.756	-0.538296	-1.168760E+7	4.332922E-9	NaN
206	1.000000	0.538830	7.36706e+06	-48939.1	955.819	-29761.1	0.000000	0.000000	6.538923	0.038526	NaN	0.000000	0.001687	0.001644	28.0805	0.123074	0.002142	57.4684	164.28	-168.438	-0.021136	0.537583	-0.531018	-0.532265	0.038526	57.4684	-0.531521	-9.41234e+06	-4.093089E-9	NaN
206	1.000000	0.546843	7.36706e+06	-48939.1	955.819	-29761.1	0.000000	0.000000	6.546934	-0.015141	NaN	0.000000	0.001693	0.001616	28.0805	0.113147	0.002013	56.1962	-151.787	-167.494	0.029142	0.545509	-0.523005	-0.524339	-0.015141	56.1962	-0.522803	-7.12149e+06	2.126152E-9	NaN
206	1.000000	0.554893	7.36706e+06	-48939.1	955.817	-29761.1	0.000000	0.000000	6.554983	-0.049200	NaN	0.000000	0.001691	0.001605	28.0804	0.038115	0.001983	19.2181	-42.5084	-165.097	-0.019276	0.553551	-0.514955	-0.516297	-0.049200	19.2181	-0.513035	-5.20813e+06	9.446771E-9	NaN
206	1.000000	0.562848	7.36706e+06	-48939.1	955.818	-29761.1	0.000000	0.000000	6.562942	0.055910	NaN	0.000000	0.001710	0.001630	28.0806	0.175352	0.001973	88.8558	-70.0433	-165.894	-0.028202	0.561570	-0.507000	-0.508278	0.055910	88.8558	-0.507472	-4.35711e+06	-1.283199E-8	NaN
206	1.000000	0.570893	7.36706e+06	-48939.1	955.819	-29761.1	0.000000	0.000000	6.570984	-0.027245	NaN	0.000000	0.001711	0.001623	28.0806	0.048122	0.002124	22.6533	100.999	-165.143	-0.056416	0.569614	-0.498955	-0.500234	-0.027245	22.6533	-0.498053	-3.21994e+06	8.461397E-9	NaN
206	1.000000	0.578877	7.36706e+06	-48939.1	955.818	-29761.1	0.000000	0.000000	6.578968	-0.010644	NaN	0.000000	0.001710	0.001661	28.0804	0.083732	0.002019	41.4652	36.4853	-165.638	-0.067503	0.577564	-0.490971	-0.492284	-0.010644	41.4652	-0.490779	-2.54845e+06	4.176672E-9	NaN
206	1.000000	0.586892	7.36706e+06	-48939.1	955.818	-29761.1	0.000000	0.000000	6.586985	0.038506	NaN	0.000000	0.001623	0.001663	28.0804	0.140497	0.001998	70.3198	152.974	-167.567	-0.042938	0.585547	-0.482956	-0.484301	0.038506	70.3198	-0.483367	-2.00745e+06	-1.918181E-8	NaN
206	1.000000	0.594906	7.36706e+06	-48939.1	955.818	-29761.1	0.000000	0.000000	6.594997	-0.004850	NaN	0.000000	0.001662	0.001667	28.0803	0.104344	0.001982	52.6516	60.2451	-165.953	-0.080719	0.593602	-0.474943	-0.476246	-0.004850	52.6516	-0.474874	-1.52661e+06	3.176778E-9	NaN
206	1.000000	0.602878	7.36706e+06	-48939.1	955.819	-29761.1	0.000000	0.000000	6.602969	-0.007723	NaN	0.000000	0.001676	0.001644	28.0804	0.061152	0.001924	31.7852	76.7371	-169.725	-0.086525	0.601589	-0.466971	-0.468259	-0.007723	31.7852	-0.466788	-1.17584e+06	6.568410E-9	NaN
206	1.000000	0.610883	7.36706e+06	-48939.1	955.818	-29761.1	0.000000	0.000000	6.610973	-0.036363	NaN	0.000000	0.001658	0.001655	28.0803	0.046283	0.001886	24.5469	-116.041	-166.119	-0.087353	0.609554	-0.458966	-0.460295	-0.036363	24.5469	-0.457855	-880770	4.128572E-8	NaN
206	1.000000	0.618909	7.36706e+06	-48939.1	955.819	-29761.1	0.000000	0.000000	6.618998	-0.061742	NaN	0.000000	0.001693	0.001689	28.0802	0.029550	0.002140	13.8056	-114.821	-169.454	-0.049927	0.617643	-0.450939	-0.452206	-0.061742	13.8056	-0.447585	-631435	9.778019E-8	NaN
206	1.000000	0.626905	7.36706e+06	-48939.1	955.819	-29761.1	0.000000	0.000000	6.626995	-0.038436	NaN	0.000000	0.001665	0.001718	28.0803	0.071609	0.001938	36.9512	-14.2261	-169.368	-0.003487	0.625574	-0.442944	-0.444275	-0.038436	36.9512	-0.442164	-529531	7.258531E-8	NaN
206	1.000000	0.634903	7.36706e+06	-48939.1	955.819	-29761.1	0.000000	0.000000	6.634994	-0.021957	NaN	0.000000	0.001620	0.001654	28.08	0.097745	0.001953	50.0587	139.519	-165.899	-0.065747	0.633585	-0.434945	-0.436264	-0.021957	50.0587	-0.434616	-414316	5.299598E-8	NaN
206	1.000000	0.642893	7.36706e+06	-48939.1	955.819	-29761.1	0.000000	0.000000	6.642981	-0.082683	NaN	0.000000	0.001696	0.001686	28.0799	0.067365	0.001935	34.8091	105.064	-163.939	-0.068368	0.641552	-0.426955	-0.428296	-0.082683	34.8091	-0.425174	-304608	2.714401E-7	NaN
206	1.000000	0.650888	7.36706e+06	-48939.1	955.818	-29761.1	0.000000	0.000000	6.650978	-0.035940	NaN	0.000000	0.001701	0.001661	28.08	0.026955	0.001961	13.7437	138.501	-167.1	-0.002458	0.649601	-0.418960	-0.420247	-0.035940	13.7437	-0.416999	-233259	1.540777E-7	NaN
206	1.000000	0.658938	7.36706e+06	-48939.1	955.817	-29761.1	0.000000	0.000000	6.659029	-0.023135	NaN	0.000000	0.001703	0.001675	28.0801	0.132020	0.001903	69.3882	-109.269	-167.856	-0.063509	0.657585	-0.410910	-0.412263	-0.023135	69.3882	-0.410660	-189575	1.220350E-7	NaN
206	1.000000	0.666931	7.36706e+06	-48939.1	955.819	-29761.1	0.000000	0.000000	6.667022	-0.000618	NaN	0.000000	0.001718	0.001681	28.0795	0.023034	0.002029	11.3496	-132.241	-165.42	-0.000497	0.665581	-0.402918	-0.404267	-0.000618	11.3496	-0.402877	-146894	4.207133E-9	NaN
206	1.000000	0.674922	7.36706e+06	-48939.1	955.818	-29761.1	0.000000	0.000000	6.675014	-0.004926	NaN	0.000000	0.001694	0.001663	28.0789	0.060282	0.001903	31.6711	-71.386	-166.289	-0.023503	0.673564	-0.394926	-0.396284	-0.004926	31.6711	-0.394809	-112697	4.371412E-8	NaN
206	1.000000	0.682932	7.36706e+06	-48939.1	955.818	-29761.1	0.000000	0.000000	6.683022	-0.032411	NaN	0.000000	0.001731	0.001662	28.079	0.059147	0.002073	28.5283	-104.818	-163.583	-0.038347	0.681632	-0.386917	-0.388217	-0.032411	28.5283	-0.386065	-84496.1	3.835806E-7	NaN
206	1.000000	0.690920	7.36706e+06	-48939.1	955.819	-29761.1	0.000000	0.000000	6.691008	-0.089907	NaN	0.000000	0.001747	0.001697	28.0788	0.054930	0.001960	28.02	-83.0442	-163.641	-0.177360	0.689670	-0.378929	-0.380179	-0.089907	28.02	-0.376522	-61652	1.458299E-6	NaN
206	1.000000	0.698899	7.36706e+06	-48939.1	955.818	-29761.1	0.000000	0.000000	6.698990	-0.020018	NaN	0.000000	0.001757	0.001677	28.079	0.010594	0.002107	5.028815	-136.75	-169.372	0.021797	0.697671	-0.370949	-0.372177	-0.020018	5.028815	-0.367964	-46429.7	4.311434E-7	NaN
206	1.000000	0.706950	7.36706e+06	-48939.1	955.818	-29761.1	0.000000	0.000000	6.707040	-0.025372	NaN	0.000000	0.001754	0.001657	28.079	0.027563	0.001987	13.8703	164.532	-167	0.052572	0.705662	-0.362899	-0.364187	-0.025372	13.8703	-0.361527	-37489.5	6.767629E-7	NaN
206	1.000000	0.714932	7.36706e+06	-48939.1	955.818	-29761.1	0.000000	0.000000	6.715025	0.019308	NaN	0.000000	0.001783	0.001685	28.079	0.048902	0.002089	23.411	-25.1284	-165.191	0.045897	0.713618	-0.354916	-0.356231	0.019308	23.411	-0.355534	-30707	-6.287690E-7	NaN
206	1.000000	0.722970	7.36706e+06	-48939.1	955.819	-29761.1	0.000000	0.000000	6.723060	-0.031306	NaN	0.000000	0.001810	0.001689	28.079	0.066244	0.001905	34.769	151.711	-165.394	0.040392	0.721633	-0.346878	-0.348215	-0.031306	34.769	-0.346203	-22482.7	1.392459E-6	NaN
206	1.000000	0.730950	7.36706e+06	-48939.1	955.818	-29761.1	0.000000	0.000000	6.731037	-0.104754	NaN	0.000000	0.001796	0.001644	28.0789	0.042627	0.001894	22.5076	143.103	-165.262	-0.122447	0.729632	-0.338899	-0.340216	-0.104754	22.5076	-0.335408	-15651.2	6.693066E-6	NaN
206	1.000000	0.738937	7.36706e+06	-48939.1	955.818	-29761.1	0.000000	0.000000	6.739028	-0.009895	NaN	0.000000	0.001756	0.001652	28.0789	0.137259	0.002140	64.1377	-129.701	-167.655	-0.012053	0.737666	-0.330911	-0.332182	-0.009895	64.1377	-0.330795	-13399.8	7.384689E-7	NaN
206	1.000000	0.746948	7.36706e+06	-48939.1	955.818	-29761.1	0.000000	0.000000	6.747041	0.037537	NaN	0.000000	0.001797	0.001692	28.0791	0.071213	0.001888	37.7211	-64.118	-169.292	-0.010859	0.745612	-0.322900	-0.324236	0.037537	37.7211	-0.323647	-10526	-3.566150E-6	NaN
206	1.000000	0.754960	7.36706e+06	-48939.1	955.819	-29761.1	0.000000	0.000000	6.755048	-0.085328	NaN	0.000000	0.001770	0.001673	28.0792	0.076909	0.002013	38.2107	136.788	-163.97	-0.011788	0.753628	-0.314889	-0.316220	-0.085328	38.2107	-0.313214	-7388.78	1.154837E-5	NaN
206	1.000000	0.762950	7.36706e+06	-48939.1	955.818	-29761.1	0.000000	0.000000	6.763043	0.032327	NaN	0.000000	0.001755	0.001664	28.0792	0.044844	0.001975	22.704	-147.29	-164.735	0.030543	0.761617	-0.306898	-0.308231	0.032327	22.704	-0.307966	-6179.35	-5.231487E-6	NaN
206	1.000000	0.770955	7.36706e+06	-48939.1	955.818	-29761.1	0.000000	0.000000	6.771049	0.048438	NaN	0.000000	0.001779	0.001666	28.0788	0.131643	0.001948	67.5835	126.054	-167.104	0.011830	0.769691	-0.298893	-0.300157	0.048438	67.5835	-0.299431	-4614.88	-1.049605E-5	NaN
206	1.000000	0.778965	7.36706e+06	-48939.1	955.819	-29761.1	0.000000	0.000000	6.779058	0.034852	NaN	0.000000	0.001776	0.001705	28.0789	0.075559	0.002043	36.9802	67.8842	-163.909	0.053297	0.777680	-0.290884	-0.292168	0.034852	36.9802	-0.291591	-3524.67	-9.888005E-6	NaN
206	1.000000	0.786967	7.36706e+06	-48939.1	955.82	-29761.1	0.000000	0.000000	6.787058	-0.031683	NaN	0.000000	0.001773	0.001682	28.0791	0.118638	0.001931	61.4422	-16.2731	-165.992	-0.031497	0.785677	-0.282881	-0.284171	-0.031683	61.4422	-0.282494	-2573.74	1.231016E-5	NaN
206	1.000000	0.794993	7.36706e+06	-48939.1	955.819	-29761.1	0.000000	0.000000	6.795085	0.006527	NaN	0.000000	0.001755	0.001684	28.0788	0.009708	0.001823	5.325221	167.805	-168.866	0.013452	0.793673	-0.274855	-0.276176	0.006527	5.325221	-0.275775	-2037.65	-3.203214E-6	NaN
206	1.000000	0.802995	7.36706e+06	-48939.1	955.818	-29761.1	0.000000	0.000000	6.803085	-0.019144	NaN	0.000000	0.001762	0.001678	28.0795	0.110659	0.002105	52.5706	-146.231	-166.481	0.044892	0.801664	-0.266854	-0.268184	-0.019144	52.5706	-0.266581	-1477.39	1.295773E-5	NaN
206	1.000000	0.810981	7.36706e+06	-48939.1	955.819	-29761.1	0.000000	0.000000	6.811073	0.017768	NaN	0.000000	0.001743	0.001649	28.0801	0.109005	0.002031	53.6838	98.9957	-169.941	0.015228	0.809697	-0.258867	-0.260151	0.017768	53.6838	-0.259116	-1135.95	-1.564120E-5	NaN
206	1.000000	0.818966	7.36706e+06	-48939.1	955.818	-29761.1	0.000000	0.000000	6.819059	0.033326	NaN	0.000000	0.001742	0.001686	28.0801	0.024563	0.002142	11.4664	-141.43	-169.274	0.101378	0.817667	-0.250882	-0.252181	0.033326	11.4664	-0.253062	-916.745	-3.635249E-5	NaN
206	1.000000	0.826986	7.36707e+06	-48939.1	955.819	-29761.1	0.000000	0.000000	6.827076	-0.038438	NaN	0.000000	0.001756	0.001647	28.08	0.087288	0.001959	44.5589	-179.621	-167.682	-0.046124	0.825686	-0.242863	-0.244163	-0.038438	44.5589	-0.242216	-622.475	6.175038E-5	NaN
206	1.000000	0.834978	7.36707e+06	-48939.1	955.819	-29761.1	0.000000	0.000000	6.835066	-0.083118	NaN	0.000000	0.001774	0.001667	28.0799	0.102369	0.001974	51.8592	-29.3139	-165.713	-0.047598	0.833705	-0.234870	-0.236143	-0.083118	51.8592	-0.233668	-457.429	0.000182	NaN
206	1.000000	0.842950	7.36707e+06	-48939.1	955.819	-29761.1	0.000000	0.000000	6.843042	-0.009250	NaN	0.000000	0.001729	0.001670	28.0801	0.171797	0.001935	88.7846	164.223	-168.303	-0.054494	0.841687	-0.226898	-0.228161	-0.009250	88.7846	-0.226820	-356.62	2.593916E-5	NaN
206	1.000000	0.850994	7.36707e+06	-48939.1	955.819	-29761.1	0.000000	0.000000	6.851085	0.003065	NaN	0.000000	0.001752	0.001661	28.0803	0.056775	0.001869	30.3695	-86.5842	-167.026	0.027373	0.849691	-0.218855	-0.220157	0.003065	30.3695	-0.218930	-267.035	-1.147734E-5	NaN
206	1.000000	0.859024	7.36707e+06	-48939.1	955.818	-29761.1	0.000000	0.000000	6.859113	-0.066447	NaN	0.000000	0.001773	0.001652	28.0802	0.026583	0.002101	12.6506	145.433	-165.427	0.018901	0.857743	-0.210824	-0.212105	-0.066447	12.6506	-0.206885	-170.709	0.000389	NaN
206	1.000000	0.866997	7.36707e+06	-48939.1	955.82	-29761.1	0.000000	0.000000	6.867088	-0.021264	NaN	0.000000	0.001736	0.001676	28.0801	0.061319	0.001950	31.4428	-179.639	-166.245	0.033574	0.865762	-0.202851	-0.204086	-0.021264	31.4428	-0.202344	-143.93	0.000148	NaN
206	1.000000	0.875009	7.36707e+06	-48939.1	955.818	-29761.1	0.000000	0.000000	6.875101	-0.002533	NaN	0.000000	0.001705	0.001630	28.0802	0.034974	0.002010	17.4036	118.88	-164.833	-0.042461	0.873696	-0.194839	-0.196153	-0.002533	17.4036	-0.194730	-107.827	2.349322E-5	NaN
206	1.000000	0.883016	7.36707e+06	-48939.1	955.819	-29761.1	0.000000	0.000000	6.883106	-0.035837	NaN	0.000000	0.001705	0.001642	28.0803	0.063255	0.001920	32.939	62.1325	-165.793	-0.017579	0.881692	-0.186832	-0.188157	-0.035837	32.939	-0.186016	-77.1339	0.000465	NaN
206	1.000000	0.891023	7.36707e+06	-48939.1	955.819	-29761.1	0.000000	0.000000	6.891112	-0.076613	NaN	0.000000	0.001694	0.001682	28.08	0.079337	0.001992	39.8335	-1.666869	-164.866	-0.052553	0.889718	-0.178825	-0.180130	-0.076613	39.8335	-0.177383	-55.0582	0.001391	NaN
206	1.000000	0.899031	7.36707e+06	-48939.1	955.818	-29761.1	0.000000	0.000000	6.899124	0.038869	NaN	0.000000	0.001713	0.001642	28.0803	0.046362	0.002061	22.4966	126.343	-168.141	0.025486	0.897714	-0.170817	-0.172134	0.038869	22.4966	-0.172113	-44.6913	-0.000870	NaN
206	1.000000	0.907017	7.36707e+06	-48939.1	955.818	-29761.1	0.000000	0.000000	6.907107	-0.041769	NaN	0.000000	0.001731	0.001652	28.0804	0.060823	0.001973	30.8352	-9.188791	-165.226	-0.057264	0.905671	-0.162831	-0.164177	-0.041769	30.8352	-0.161815	-29.5235	0.001415	NaN
206	1.000000	0.915004	7.36707e+06	-48939.1	955.82	-29761.1	0.000000	0.000000	6.915093	-0.056023	NaN	0.000000	0.001674	0.001647	28.08	0.044589	0.001976	22.5645	-1.159322	-169.181	-0.018810	0.913701	-0.154844	-0.156147	-0.056023	22.5645	-0.152982	-20.5199	0.002730	NaN
206	1.000000	0.922995	7.36707e+06	-48939.1	955.82	-29761.1	0.000000	0.000000	6.923085	-0.024008	NaN	0.000000	0.001691	0.001645	28.0799	0.051972	0.001995	26.0552	-19.538	-165.271	-0.042486	0.921726	-0.146854	-0.148122	-0.024008	26.0552	-0.146163	-15.4042	0.001559	NaN
206	1.000000	0.931046	7.36707e+06	-48939.1	955.819	-29761.1	0.000000	0.000000	6.931140	0.059887	NaN	0.000000	0.001699	0.001604	28.0801	0.049227	0.002013	24.4514	-170.606	-167.854	-0.005035	0.929654	-0.138803	-0.140194	0.059887	24.4514	-0.140639	-12.1609	-0.004925	NaN
206	1.000000	0.939040	7.36707e+06	-48939.1	955.818	-29761.1	0.000000	0.000000	6.939131	-0.016066	NaN	0.000000	0.001671	0.001615	28.0798	0.097466	0.002132	45.7105	-40.0375	-166.597	0.018855	0.937691	-0.130808	-0.132158	-0.016066	45.7105	-0.130544	-7.808687	0.002058	NaN
206	1.000000	0.947032	7.36707e+06	-48939.1	955.817	-29761.1	0.000000	0.000000	6.947124	0.002189	NaN	0.000000	0.001729	0.001659	28.079	0.042627	0.002059	20.6994	-103.118	-163.171	0.038771	0.945769	-0.122816	-0.124079	0.002189	20.6994	-0.122895	-5.523060	-0.000396	NaN
206	1.000000	0.955056	7.36707e+06	-48939.1	955.819	-29761.1	0.000000	0.000000	6.955145	-0.051911	NaN	0.000000	0.001716	0.001634	28.0788	0.129091	0.002058	62.7124	155.89	-170.858	-0.036682	0.953725	-0.114793	-0.116124	-0.051911	62.7124	-0.114172	-3.672828	0.014134	NaN
206	1.000000	0.963009	7.36707e+06	-48939.1	955.818	-29761.1	0.000000	0.000000	6.963100	-0.024152	NaN	0.000000	0.001697	0.001633	28.0787	0.121060	0.001909	63.4131	45.5523	-167.054	0.002053	0.961738	-0.106839	-0.108111	-0.024152	63.4131	-0.106553	-2.538600	0.009514	NaN
206	1.000000	0.971027	7.36707e+06	-48939.1	955.819	-29761.1	0.000000	0.000000	6.971120	0.030249	NaN	0.000000	0.001733	0.001631	28.0786	0.011791	0.002042	5.772701	95.6127	-166.734	0.057556	0.969764	-0.098821	-0.100084	0.030249	5.772701	-0.102751	-2.100465	-0.014401	NaN
206	1.000000	0.979048	7.36707e+06	-48939.1	955.819	-29761.1	0.000000	0.000000	6.979136	-0.087461	NaN	0.000000	0.001703	0.001640	28.0789	0.098018	0.002068	47.4078	124.708	-165.419	0.081748	0.977733	-0.090800	-0.092115	-0.087461	47.4078	-0.089416	-1.047372	0.083505	NaN
206	1.000000	0.987054	7.36707e+06	-48939.1	955.819	-29761.1	0.000000	0.000000	6.987146	0.017150	NaN	0.000000	0.001693	0.001638	28.0788	0.067323	0.002036	33.071	-157.895	-170.733	0.067321	0.985772	-0.082795	-0.084077	0.017150	33.071	-0.083184	-0.742093	-0.023110	NaN
206	1.000000	0.995058	7.36707e+06	-48939.1	955.819	-29761.1	0.000000	0.000000	6.995151	0.029229	NaN	0.000000	0.001707	0.001678	28.0791	0.077485	0.001963	39.4626	19.8139	-168.061	-0.059195	0.993736	-0.074790	-0.076113	0.029229	39.4626	-0.075345	-0.471461	-0.061997	NaN
206	1.000000	1.003040	7.36707e+06	-48939.1	955.818	-29761.1	0.000000	0.000000	7.003130	-0.051197	NaN	0.000000	0.001688	0.001653	28.0789	0.052646	0.001948	27.0214	145.629	-165.907	0.002339	1.001818	-0.066808	-0.068030	-0.051197	27.0214	-0.065387	-0.255442	0.200426	NaN
206	1.000000	1.011079	7.36707e+06	-48939.1	955.818	-29761.1	0.000000	0.000000	7.011171	0.019384	NaN	0.000000	0.001679	0.001641	28.0788	0.030982	0.001890	16.3905	145.921	-166.229	-0.134512	1.009784	-0.058769	-0.060065	0.019384	16.3905	-0.059656	-0.176047	-0.110108	NaN
206	1.000000	1.019064	7.36707e+06	-48939.1	955.819	-29761.1	0.000000	0.000000	7.019156	-0.008430	NaN	0.000000	0.001674	0.001633	28.0789	0.053788	0.001996	26.9471	173.666	-169.201	0.030592	1.017730	-0.050784	-0.052118	-0.008430	26.9471	-0.050549	-0.094805	0.088922	NaN
206	1.000000	1.027043	7.36707e+06	-48939.1	955.819	-29761.1	0.000000	0.000000	7.027134	-0.016578	NaN	0.000000	0.001718	0.001628	28.0787	0.116483	0.002015	57.799	151.996	-164.371	-0.072616	1.025760	-0.042805	-0.044089	-0.016578	57.799	-0.042590	-0.054237	0.305661	NaN
206	1.000000	1.035105	7.36707e+06	-48939.1	955.819	-29761.1	0.000000	0.000000	7.035195	-0.055978	NaN	0.000000	0.001681	0.001648	28.0792	0.029416	0.001886	15.5993	-148.201	-163.314	-0.028763	1.033725	-0.034743	-0.036123	-0.055978	15.5993	-0.032052	-0.026295	2.128820	NaN
206	1.000000	1.043066	7.36707e+06	-48939.1	955.817	-29761.1	0.000000	0.000000	7.043158	0.015753	NaN	0.000000	0.001702	0.001653	28.0792	0.059654	0.001974	30.2252	-42.614	-168.86	0.005777	1.041762	-0.026782	-0.028087	0.015753	30.2252	-0.027173	-0.019260	-0.817896	NaN
206	1.000000	1.051058	7.36707e+06	-48939.1	955.819	-29761.1	0.000000	0.000000	7.051151	0.017597	NaN	0.000000	0.001693	0.001631	28.0789	0.094605	0.002050	46.1501	-148.48	-167.7	-0.051761	1.049763	-0.018790	-0.020086	0.017597	46.1501	-0.019076	-0.011897	-1.479093	NaN
206	1.000000	1.059070	7.36707e+06	-48939.1	955.818	-29761.1	0.000000	0.000000	7.059161	0.004664	NaN	0.000000	0.001741	0.001646	28.079	0.134994	0.001960	68.8618	79.1062	-163.681	-0.004357	1.057767	-0.010779	-0.012081	0.004664	68.8618	-0.010830	-0.006861	-0.679842	NaN
206	1.000000	1.067108	7.36707e+06	-48939.1	955.818	-29761.1	0.000000	0.000000	7.067197	-0.081178	NaN	0.000000	0.001706	0.001698	28.0788	0.088066	0.002016	43.6737	25.3659	-165.875	-0.071482	1.065800	-0.002740	-0.004048	-0.081178	43.6737	-0.001346	-0.000980	82.8084	NaN
206	1.000000	1.075034	7.36707e+06	-48939.1	955.818	-29761.1	0.000000	0.000000	7.075375	6.051168	NaN	0.000000	0.001748	0.001689	28.0792	6.697435	0.001704	3930.58	13.2244	-174.279	4.181223	1.073741	0.005186	0.003892	6.051168	3930.58	0.004031	0.003266	1852.52	62833.5
206	2.000000	1.078662	7.36707e+06	-48939.1	955.818	-29761.1	0.000000	0.000000	7.079222	11.3986	NaN	0.000000	0.001723	0.001671	28.0801	10.6533	0.001701	6261.52	6.784272	-174.754	10.9566	1.078409	0.008814	0.008561	11.3986	6261.52	0.007449	0.006481	1758.68	71059.2
206	2.000000	1.080621	7.36707e+06	-48939.1	955.818	-29761.1	0.000000	0.000000	7.081350	15.499	NaN	0.000000	0.001716	0.001672	28.0804	12.1257	0.001591	7623.11	4.005586	-174.131	14.6084	1.080377	0.010773	0.010528	15.499	7623.11	0.009248	0.008357	1854.52	76184.8
206	2.000000	1.082599	7.36707e+06	-48939.1	955.818	-29761.1	0.000000	0.000000	7.083475	19.0821	NaN	0.000000	0.001703	0.001693	28.0802	14.3623	0.001793	8011.95	5.499823	-174.397	17.9148	1.082336	0.012751	0.012488	19.0821	8011.95	0.010964	0.010273	1857.5	72220.9
206	2.000000	1.084629	7.36707e+06	-48939.1	955.818	-29761.1	0.000000	0.000000	7.085660	22.8514	NaN	0.000000	0.001689	0.001691	28.0801	16.3942	0.001723	9516.87	5.707070	-175.089	22.2601	1.084265	0.014781	0.014417	22.8514	9516.87	0.012980	0.012685	1801.47	77201.3
206	2.000000	1.086618	7.36707e+06	-48939.1	955.818	-29761.1	0.000000	0.000000	7.087834	27.3474	NaN	0.000000	0.001694	0.001672	28.08	18.2578	0.001862	9804.22	6.097322	-175.447	26.919	1.086164	0.016770	0.016316	27.3474	9804.22	0.014678	0.014858	1840.57	73485.9
206	2.000000	1.088618	7.36707e+06	-48939.1	955.818	-29761.1	0.000000	0.000000	7.089995	31.2466	NaN	0.000000	0.001671	0.001653	28.0803	20.3428	0.001693	12016.4	0.793271	-174.866	30.6345	1.088245	0.018770	0.018397	31.2466	12016.4	0.016820	0.017789	1756.5	82313.6
206	2.000000	1.090618	7.36707e+06	-48939.1	955.819	-29761.1	0.000000	0.000000	7.092263	37.7842	NaN	0.000000	0.001691	0.001654	28.0804	21.3007	0.001565	13613.1	5.918581	-178.597	38.6235	1.090208	0.020770	0.020360	37.7842	13613.1	0.018688	0.020522	1841.13	86819.7
206	2.000000	1.092573	7.36707e+06	-48939.1	955.819	-29761.1	0.000000	0.000000	7.094308	39.9824	NaN	0.000000	0.001709	0.001677	28.0803	23.9177	0.001644	14552.4	3.453741	-179.236	38.1505	1.092305	0.022725	0.022457	39.9824	14552.4	0.020664	0.023596	1694.42	86553.2
206	2.000000	1.094655	7.36707e+06	-48939.1	955.82	-29761.1	0.000000	0.000000	7.096573	44.4184	NaN	0.000000	0.001679	0.001644	28.0805	26.7689	0.001901	14082.7	11.1031	177.23	45.4289	1.094247	0.024807	0.024399	44.4184	14082.7	0.022441	0.026524	1674.62	79001.9
206	2.000000	1.096542	7.36707e+06	-48939.1	955.818	-29761.1	0.000000	0.000000	7.098676	49.6698	NaN	0.000000	0.001686	0.001694	28.08	28.0295	0.001728	16220.7	3.113963	-179.014	46.9873	1.096204	0.026694	0.026356	49.6698	16220.7	0.024398	0.029929	1659.6	85664
206	2.000000	1.098601	7.36707e+06	-48939.1	955.818	-29761.1	0.000000	0.000000	7.100938	54.6226	NaN	0.000000	0.001675	0.001691	28.08	30.5156	0.001815	16817.1	3.615195	179.714	53.558	1.098356	0.028752	0.028507	54.6226	16817.1	0.026316	0.033454	1632.77	84004.3
206	2.000000	1.100561	7.36707e+06	-48939.1	955.818	-29761.1	0.000000	0.000000	7.103203	62.0316	NaN	0.000000	0.001743	0.001685	28.0799	31.7116	0.001601	19801.2	5.518418	176.447	61.073	1.100228	0.030713	0.030380	62.0316	19801.2	0.028364	0.037420	1657.71	93521.6
206	2.000000	1.102530	7.36707e+06	-48939.1	955.818	-29761.1	0.000000	0.000000	7.105385	67.2229	NaN	0.000000	0.001753	0.001640	28.0802	33.9904	0.001825	18624.5	4.593783	178.923	64.5629	1.102223	0.032681	0.032375	67.2229	18624.5	0.029974	0.040690	1652.06	84355
206	2.000000	1.104557	7.36707e+06	-48939.1	955.818	-29761.1	0.000000	0.000000	7.107832	77.4151	NaN	0.000000	0.001705	0.001640	28.0801	35.9988	0.001721	20919.4	2.757801	179.643	75.4888	1.104262	0.034709	0.034414	77.4151	20919.4	0.031933	0.044846	1726.25	90252.9
206	2.000000	1.106514	7.36707e+06	-48939.1	955.817	-29761.1	0.000000	0.000000	7.110098	84.9446	NaN	0.000000	0.001719	0.001645	28.0801	37.3201	0.001904	19601.2	-0.679042	-175.631	82.5462	1.106223	0.036665	0.036375	84.9446	19601.2	0.033415	0.048120	1765.25	81638
206	2.000000	1.108520	7.36707e+06	-48939.1	955.818	-29761.1	0.000000	0.000000	7.111872	79.3175	NaN	0.000000	0.001720	0.001652	28.0804	39.266	0.001820	21580.1	-0.508197	-177.645	76.8143	1.108376	0.038671	0.038527	79.3175	21580.1	0.035915	0.053897	1471.64	84926.7
206	2.000000	1.110546	7.36707e+06	-48939.1	955.818	-29761.1	0.000000	0.000000	7.114674	98.1695	NaN	0.000000	0.001725	0.001677	28.0799	40.7774	0.001813	22491.5	2.103876	-179.925	97.3037	1.110151	0.040698	0.040303	98.1695	22491.5	0.037424	0.057541	1706.07	85664.5
206	2.000000	1.112465	7.36707e+06	-48939.1	955.818	-29761.1	0.000000	0.000000	7.116991	107.851	NaN	0.000000	0.001713	0.001644	28.0794	43.259	0.001720	25155.9	2.322450	178.626	104.169	1.112215	0.042617	0.042366	107.851	25155.9	0.039401	0.062490	1725.9	91940.8
206	2.000000	1.114534	7.36707e+06	-48939.1	955.818	-29761.1	0.000000	0.000000	7.119374	115.483	NaN	0.000000	0.001693	0.001654	28.0792	45.6737	0.001817	25137	5.798005	175.881	112.72	1.114149	0.044686	0.044301	115.483	25137	0.041241	0.067274	1716.6	88544.6
206	2.000000	1.116528	7.36707e+06	-48939.1	955.818	-29761.1	0.000000	0.000000	7.121766	125.166	NaN	0.000000	0.001701	0.001639	28.0789	47.3226	0.001783	26542.8	1.746771	178.965	123.545	1.116138	0.046680	0.046289	125.166	26542.8	0.043143	0.072403	1728.74	90124.1
206	2.000000	1.118537	7.36707e+06	-48939.1	955.818	-29761.1	0.000000	0.000000	7.124165	134.662	NaN	0.000000	0.001717	0.001641	28.079	49.6124	0.001718	28883.9	2.274960	177.375	135.032	1.118231	0.048689	0.048383	134.662	28883.9	0.045192	0.078133	1723.49	94408.6
206	2.000000	1.120531	7.36707e+06	-48939.1	955.819	-29761.1	0.000000	0.000000	7.126593	145.198	NaN	0.000000	0.001688	0.001625	28.0788	51.4879	0.001858	27713.7	3.911485	176.443	143.548	1.120231	0.050683	0.050382	145.198	27713.7	0.046753	0.082643	1756.93	88077.6
206	2.000000	1.122477	7.36707e+06	-48939.1	955.818	-29761.1	0.000000	0.000000	7.128882	153.56	NaN	0.000000	0.001723	0.001659	28.0794	53.7666	0.001777	30260.2	3.464858	176.654	151.064	1.122146	0.052628	0.052298	153.56	30260.2	0.048822	0.088808	1729.12	92772.3
206	2.000000	1.124544	7.36707e+06	-48939.1	955.818	-29761.1	0.000000	0.000000	7.131327	162.751	NaN	0.000000	0.001699	0.001685	28.0789	56.4776	0.001817	31086.1	4.853462	174.644	161.47	1.124291	0.054696	0.054443	162.751	31086.1	0.050769	0.094805	1716.7	92241.1
206	2.000000	1.126595	7.36707e+06	-48939.1	955.818	-29761.1	0.000000	0.000000	7.133944	176.498	NaN	0.000000	0.001659	0.001638	28.0789	58.757	0.001937	30337.9	9.104563	171.169	178.594	1.126215	0.056747	0.056367	176.498	30337.9	0.052384	0.099923	1766.34	87685
206	2.000000	1.128504	7.36707e+06	-48939.1	955.818	-29761.1	0.000000	0.000000	7.136228	185.641	NaN	0.000000	0.001673	0.001657	28.0792	59.7705	0.001750	34151	5.345423	172.814	183.885	1.128282	0.058656	0.058434	185.641	34151	0.054579	0.107089	1733.51	95346.2
206	2.000000	1.130428	7.36707e+06	-48939.1	955.818	-29761.1	0.000000	0.000000	7.138817	201.802	NaN	0.000000	0.001728	0.001657	28.0789	59.5643	0.001627	36600.9	4.151864	174.174	196.83	1.130077	0.060580	0.060229	201.802	36600.9	0.056445	0.113369	1780.04	99315.5
206	2.000000	1.132501	7.36707e+06	-48939.1	955.818	-29761.1	0.000000	0.000000	7.141023	205.04	NaN	0.000000	0.001667	0.001667	28.0791	63.6411	0.001687	37717.8	0.950555	176.167	201.12	1.132125	0.062653	0.062277	205.04	37717.8	0.058575	0.120749	1698.06	99169.2
206	2.000000	1.134475	7.36707e+06	-48939.1	955.818	-29761.1	0.000000	0.000000	7.143534	218.078	NaN	0.000000	0.001687	0.001680	28.0788	67.8204	0.001842	36826.1	8.469226	169.411	215.041	1.134158	0.064627	0.064310	218.078	36826.1	0.060186	0.126476	1724.27	94607.5
206	2.000000	1.136498	7.36707e+06	-48939.1	955.818	-29761.1	0.000000	0.000000	7.146164	232.87	NaN	0.000000	0.001706	0.001666	28.0788	69.3592	0.001878	36932.4	6.455537	171.236	232.813	1.136252	0.066650	0.066403	232.87	36932.4	0.061921	0.132785	1753.73	92598.8
206	2.000000	1.138500	7.36707e+06	-48939.1	955.817	-29761.1	0.000000	0.000000	7.148684	245.45	NaN	0.000000	0.001713	0.001643	28.079	70.3426	0.001751	40166.3	4.674903	172.902	245.12	1.138180	0.068652	0.068332	245.45	40166.3	0.064069	0.140802	1743.23	97798.3
206	2.000000	1.140474	7.36707e+06	-48939.1	955.817	-29761.1	0.000000	0.000000	7.151154	257.517	NaN	0.000000	0.001715	0.001629	28.0787	72.0474	0.001798	40082	5.746842	172.118	256.692	1.140127	0.070626	0.070279	257.517	40082	0.065807	0.147451	1746.45	95367
206	2.000000	1.142542	7.36707e+06	-48939.1	955.819	-29761.1	0.000000	0.000000	7.153686	268.817	NaN	0.000000	0.001723	0.001649	28.0793	74.8412	0.001819	41149.3	5.587994	171.405	271.967	1.142225	0.072693	0.072377	268.817	41149.3	0.067794	0.155229	1731.74	95421.9
206	2.000000	1.144444	7.36707e+06	-48939.1	955.818	-29761.1	0.000000	0.000000	7.156363	287.661	NaN	0.000000	0.001693	0.001698	28.0789	76.8581	0.001811	42428.7	7.018819	169.547	284.578	1.144155	0.074595	0.074307	287.661	42428.7	0.069511	0.162103	1774.56	96280.4
206	2.000000	1.146471	7.36707e+06	-48939.1	955.818	-29761.1	0.000000	0.000000	7.158903	300.119	NaN	0.000000	0.001692	0.001739	28.08	77.7751	0.001765	44053.9	6.962540	169.713	295.899	1.146103	0.076623	0.076254	300.119	44053.9	0.071514	0.170300	1762.29	97532.6
206	2.000000	1.148446	7.36707e+06	-48939.1	955.819	-29761.1	0.000000	0.000000	7.161148	306.698	NaN	0.000000	0.001678	0.001740	28.08	80.1728	0.001805	44418.1	2.432073	173.733	303.403	1.148318	0.078598	0.078470	306.698	44418.1	0.073419	0.178274	1720.37	96114.4
206	2.000000	1.150445	7.36707e+06	-48939.1	955.818	-29761.1	0.000000	0.000000	7.164226	332.936	NaN	0.000000	0.001694	0.001740	28.0799	81.0351	0.001759	46079	3.755668	172.49	327.805	1.150131	0.080597	0.080282	332.936	46079	0.075178	0.185785	1792.05	97672.1
206	2.000000	1.152383	7.36707e+06	-48939.1	955.819	-29761.1	0.000000	0.000000	7.166316	336.642	NaN	0.000000	0.001718	0.001746	28.0803	83.0198	0.001789	46397.4	2.423645	173.569	329.973	1.152134	0.082534	0.082285	336.642	46397.4	0.077093	0.194131	1734.1	96209.8
206	2.000000	1.154486	7.36707e+06	-48939.1	955.818	-29761.1	0.000000	0.000000	7.169363	359.577	NaN	0.000000	0.001695	0.001752	28.08	85.6801	0.001829	46857.4	2.988705	173.695	357.939	1.154166	0.084638	0.084318	359.577	46857.4	0.078883	0.202086	1779.32	95232
206	2.000000	1.156477	7.36707e+06	-48939.1	955.818	-29761.1	0.000000	0.000000	7.171924	373.451	NaN	0.000000	0.001688	0.001730	28.0802	86.6793	0.001763	49152.6	0.847680	175.097	372.857	1.156132	0.086629	0.086283	373.451	49152.6	0.080930	0.211371	1766.8	97678
206	2.000000	1.158473	7.36707e+06	-48939.1	955.817	-29761.1	0.000000	0.000000	7.174432	385.899	NaN	0.000000	0.001683	0.001682	28.0797	90.9291	0.001893	48029.8	6.088927	169.707	383.824	1.158232	0.088625	0.088384	385.899	48029.8	0.082599	0.219080	1761.45	93752.4
206	2.000000	1.160499	7.36707e+06	-48939.1	955.817	-29761.1	0.000000	0.000000	7.177325	406.995	NaN	0.000000	0.001710	0.001682	28.0798	91.6529	0.001774	51669.4	9.181380	166.453	408.021	1.160163	0.090651	0.090315	406.995	51669.4	0.084743	0.229179	1775.89	98609.7
206	2.000000	1.162457	7.36707e+06	-48939.1	955.818	-29761.1	0.000000	0.000000	7.179892	421.793	NaN	0.000000	0.001687	0.001708	28.0801	94.1758	0.001896	49662.9	6.160509	170.126	419.598	1.162042	0.092609	0.092194	421.793	49662.9	0.086239	0.236349	1784.62	93331.5
206	2.000000	1.164475	7.36707e+06	-48939.1	955.817	-29761.1	0.000000	0.000000	7.182428	434.387	NaN	0.000000	0.001701	0.001717	28.08	95.2161	0.001704	55883.1	9.280071	166.836	432.541	1.164001	0.094627	0.094153	434.387	55883.1	0.088797	0.248848	1745.59	102350
206	2.000000	1.166440	7.36707e+06	-48939.1	955.818	-29761.1	0.000000	0.000000	7.185237	454.919	NaN	0.000000	0.001668	0.001727	28.0804	96.2739	0.001755	54871.2	6.989549	168.038	452.506	1.166145	0.096592	0.096297	454.919	54871.2	0.090374	0.256702	1772.17	98947.1
206	2.000000	1.168385	7.36707e+06	-48939.1	955.819	-29761.1	0.000000	0.000000	7.187780	469.477	NaN	0.000000	0.001688	0.001702	28.0799	99.4768	0.001869	53237.4	7.605714	167.226	463.96	1.168052	0.098537	0.098203	469.477	53237.4	0.091923	0.264529	1774.76	94569.9
206	2.000000	1.170413	7.36707e+06	-48939.1	955.818	-29761.1	0.000000	0.000000	7.190730	491.915	NaN	0.000000	0.001706	0.001682	28.08	98.9741	0.001700	58233	3.351304	170.912	488.575	1.170304	0.100564	0.100456	491.915	58233	0.094229	0.276384	1779.82	101201
206	2.000000	1.172567	7.36707e+06	-48939.1	955.819	-29761.1	0.000000	0.000000	7.193420	504.951	NaN	0.000000	0.001696	0.001713	28.0801	102.346	0.001815	56384.9	5.677657	169.449	507.981	1.172054	0.102718	0.102206	504.951	56384.9	0.096002	0.285665	1767.63	96384.5
206	2.000000	1.174431	7.36707e+06	-48939.1	955.818	-29761.1	0.000000	0.000000	7.195923	520.471	NaN	0.000000	0.001686	0.001704	28.0802	103.768	0.001782	58236.8	2.859107	171.883	516.396	1.174231	0.104583	0.104383	520.471	58236.8	0.097880	0.295652	1760.42	97854.4
206	2.000000	1.175522	7.36707e+06	-48939.1	955.818	-29761.1	0.000000	0.000000	7.197234	525.832	NaN	0.000000	0.001684	0.001685	28.0801	104.628	0.001808	57855	1.508972	173.183	527.936	1.175160	0.105673	0.105312	525.832	57855	0.098857	0.300911	1747.47	96359.6