File: remote_trans/data/nanoindenter/0828-1/data/Data_2025-08-06,11h17m57s/2025-07-22_16-23-58_1_636.txt
2025-07-22, 16:23:58, 1
Index	Phase	Displacement	Time	Pos X	Pos Y	Pos Z	Rot A	Rot B	Piezo Z	Force A	Force B	Gripper	Voltage A	Voltage B	Temperature	Amplitude force	Amplitude pos	Stiffness	Phase shift	Phase excitation	Force A raw	Displacement raw	HMax	HMax raw	Real Force	Real Stiffness	Contact Depth	Area	Hardness	Reduced Mod.
[#]	[#]	[um]	[s]	[um]	[um]	[um]	[m°]	[m°]	[um]	[uN]	[uN]	[V]	[V]	[V]	[°C]	[uN]	[um]	[N/m]	[°]	[°]	[uN]	[um]	[um]	[um]	[uN]	[N/m]	[um]	[um^2]	[MPa]	[MPa]
636	1.000000	0.002778	7.37127e+06	-45289.1	1005.82	-29773	0.000000	0.000000	6.002834	-0.048847	NaN	0.000000	0.001754	0.001660	28.0821	0.077747	0.000947	82.0583	18.4836	-161.039	-0.006696	0.001452	-1.032761	-1.034087	-0.048847	82.0583	-1.032315	-6.174646E+13	7.910914E-16	NaN
636	1.000000	0.010723	7.37127e+06	-45289.1	1005.82	-29773	0.000000	0.000000	6.010781	-0.005495	NaN	0.000000	0.001749	0.001692	28.0819	0.055983	0.000939	59.6025	-22.7986	-166.994	-0.015288	0.009387	-1.024816	-1.026152	-0.005495	59.6025	-1.024747	-4.884530E+13	1.125007E-16	NaN
636	1.000000	0.018702	7.37127e+06	-45289.1	1005.82	-29773	0.000000	0.000000	6.018760	-0.024581	NaN	0.000000	0.001755	0.001696	28.0817	0.115088	0.001687	68.2169	122.199	-162.321	-0.036706	0.017367	-1.016837	-1.018172	-0.024581	68.2169	-1.016566	-3.790980E+13	6.483993E-16	NaN
636	1.000000	0.026707	7.37127e+06	-45289.1	1005.82	-29773	0.000000	0.000000	6.026763	-0.060413	NaN	0.000000	0.001776	0.001690	28.0817	0.134822	0.001829	73.7095	138.023	-164.57	-0.028717	0.025402	-1.008832	-1.010137	-0.060413	73.7095	-1.008217	-2.926757E+13	2.064167E-15	NaN
636	1.000000	0.034682	7.37127e+06	-45289.1	1005.82	-29773	0.000000	0.000000	6.034739	-0.034425	NaN	0.000000	0.001707	0.001714	28.0817	0.040664	0.001796	22.6372	-153.011	-166.611	0.021346	0.033377	-1.000857	-1.002162	-0.034425	22.6372	-0.999716	-2.248787E+13	1.530819E-15	NaN
636	1.000000	0.042685	7.37127e+06	-45289.1	1005.82	-29773	0.000000	0.000000	6.042742	-0.017358	NaN	0.000000	0.001756	0.001694	28.082	0.146339	0.001972	74.2089	-158.583	-167.069	-0.039382	0.041461	-0.992854	-0.994078	-0.017358	74.2089	-0.992679	-1.807959E+13	9.600976E-16	NaN
636	1.000000	0.050701	7.37127e+06	-45289.1	1005.82	-29773	0.000000	0.000000	6.050760	0.011061	NaN	0.000000	0.001737	0.001690	28.0817	0.055557	0.002106	26.3797	-51.3771	-162.212	-0.027952	0.049344	-0.984838	-0.986195	0.011061	26.3797	-0.985152	-1.431588E+13	-7.726523E-16	NaN
636	1.000000	0.058683	7.37127e+06	-45289.1	1005.82	-29773	0.000000	0.000000	6.058741	-0.007553	NaN	0.000000	0.001760	0.001697	28.0818	0.048454	0.001938	25.004	35.534	-165.357	0.032567	0.057364	-0.976856	-0.978175	-0.007553	25.004	-0.976630	-1.099011E+13	6.872951E-16	NaN
636	1.000000	0.066678	7.37127e+06	-45289.1	1005.82	-29773	0.000000	0.000000	6.066736	-0.004996	NaN	0.000000	0.001749	0.001711	28.0819	0.037353	0.001976	18.8989	126.039	-163.512	-0.012171	0.065381	-0.968861	-0.970158	-0.004996	18.8989	-0.968663	-8.583026E+12	5.820341E-16	NaN
636	1.000000	0.074699	7.37127e+06	-45289.1	1005.82	-29773	0.000000	0.000000	6.074755	-0.041785	NaN	0.000000	0.001770	0.001685	28.082	0.080394	0.002138	37.6004	12.6088	-164.704	0.021002	0.073404	-0.960840	-0.962135	-0.041785	37.6004	-0.960007	-6.560892E+12	6.368827E-15	NaN
636	1.000000	0.082686	7.37127e+06	-45289.1	1005.82	-29773	0.000000	0.000000	6.082745	0.018668	NaN	0.000000	0.001771	0.001696	28.0819	0.109860	0.002002	54.8669	-128.512	-167.226	-0.022473	0.081383	-0.952853	-0.954156	0.018668	54.8669	-0.953108	-5.295952E+12	-3.524923E-15	NaN
636	1.000000	0.090728	7.37127e+06	-45289.1	1005.82	-29773	0.000000	0.000000	6.090787	0.036355	NaN	0.000000	0.001752	0.001705	28.0801	0.114449	0.001972	58.0502	-107.279	-166.25	0.015950	0.089352	-0.944811	-0.946187	0.036355	58.0502	-0.945281	-4.153183E+12	-8.753578E-15	NaN
636	1.000000	0.098693	7.37127e+06	-45289.1	1005.82	-29773	0.000000	0.000000	6.098752	0.019439	NaN	0.000000	0.001755	0.001708	28.0806	0.046740	0.001917	24.3883	164.757	-162.662	0.043674	0.097455	-0.936846	-0.938084	0.019439	24.3883	-0.937444	-3.255759E+12	-5.970699E-15	NaN
636	1.000000	0.106715	7.37127e+06	-45289.1	1005.82	-29773	0.000000	0.000000	6.106774	0.023448	NaN	0.000000	0.001741	0.001680	28.0806	0.169811	0.001888	89.9353	-136.835	-168.343	0.084245	0.105411	-0.928824	-0.930128	0.023448	89.9353	-0.929020	-2.505930E+12	-9.356910E-15	NaN
636	1.000000	0.114724	7.37127e+06	-45289.1	1005.82	-29773	0.000000	0.000000	6.114782	0.004260	NaN	0.000000	0.001745	0.001735	28.0807	0.017739	0.001935	9.166985	-133.848	-167.353	0.060124	0.113421	-0.920815	-0.922118	0.004260	9.166985	-0.921164	-1.962981E+12	-2.170287E-15	NaN
636	1.000000	0.122719	7.37127e+06	-45289.1	1005.82	-29773	0.000000	0.000000	6.122776	-0.015621	NaN	0.000000	0.001746	0.001735	28.0804	0.087648	0.002070	42.3429	24.3194	-164.008	0.002299	0.121372	-0.912820	-0.914167	-0.015621	42.3429	-0.912544	-1.501476E+12	1.040349E-14	NaN
636	1.000000	0.130743	7.37127e+06	-45289.1	1005.82	-29773	0.000000	0.000000	6.130803	0.040013	NaN	0.000000	0.001732	0.001753	28.0799	0.059798	0.002208	27.0821	-178.498	-162.055	-0.027800	0.129420	-0.904796	-0.906120	0.040013	27.0821	-0.905904	-1.221344E+12	-3.276164E-14	NaN
636	1.000000	0.138735	7.37127e+06	-45289.1	1005.82	-29773	0.000000	0.000000	6.138795	0.033964	NaN	0.000000	0.001710	0.001711	28.0804	0.056074	0.001934	28.9922	-167.43	-162.624	-0.032167	0.137388	-0.896804	-0.898151	0.033964	28.9922	-0.897683	-9.456953E+11	-3.591450E-14	NaN
636	1.000000	0.146754	7.37127e+06	-45289.1	1005.82	-29773	0.000000	0.000000	6.146812	0.005449	NaN	0.000000	0.001706	0.001760	28.0804	0.019074	0.001989	9.587478	160.277	-166.945	0.054851	0.145441	-0.888785	-0.890098	0.005449	9.587478	-0.889212	-7.265381E+11	-7.500369E-15	NaN
636	1.000000	0.154737	7.37127e+06	-45289.1	1005.82	-29773	0.000000	0.000000	6.154797	0.044490	NaN	0.000000	0.001730	0.001716	28.0807	0.051926	0.002060	25.2106	-13.2979	-166.226	0.058497	0.153436	-0.880802	-0.882103	0.044490	25.2106	-0.882126	-5.827171E+11	-7.634854E-14	NaN
636	1.000000	0.162709	7.37127e+06	-45289.1	1005.82	-29773	0.000000	0.000000	6.162766	-0.011718	NaN	0.000000	0.001739	0.001697	28.0805	0.099605	0.001995	49.9182	69.6666	-166.192	0.004426	0.161423	-0.872830	-0.874116	-0.011718	49.9182	-0.872654	-4.338634E+11	2.700739E-14	NaN
636	1.000000	0.170740	7.37127e+06	-45289.1	1005.82	-29773	0.000000	0.000000	6.170799	0.006258	NaN	0.000000	0.001716	0.001720	28.0803	0.051439	0.001910	26.9323	69.9683	-165.374	0.003741	0.169428	-0.864799	-0.866111	0.006258	26.9323	-0.864973	-3.415269E+11	-1.832363E-14	NaN
636	1.000000	0.178751	7.37127e+06	-45289.1	1005.82	-29773	0.000000	0.000000	6.178807	-0.041277	NaN	0.000000	0.001724	0.001720	28.0807	0.016779	0.002069	8.108034	76.2843	-163.741	-0.032928	0.177425	-0.856788	-0.858114	-0.041277	8.108034	-0.852970	-2.349394E+11	1.756912E-13	NaN
636	1.000000	0.186737	7.37127e+06	-45289.1	1005.82	-29773	0.000000	0.000000	6.186792	-0.080250	NaN	0.000000	0.001751	0.001699	28.0803	0.013110	0.001928	6.801486	19.4225	-167.608	0.002350	0.185400	-0.848802	-0.850139	-0.080250	6.801486	-0.839953	-1.565511E+11	5.126132E-13	NaN
636	1.000000	0.194753	7.37127e+06	-45289.1	1005.82	-29773	0.000000	0.000000	6.194810	-0.020335	NaN	0.000000	0.001687	0.001746	28.0805	0.048087	0.001947	24.6929	-157.313	-163.096	0.030747	0.193413	-0.840786	-0.842126	-0.020335	24.6929	-0.840169	-1.576073E+11	1.290252E-13	NaN
636	1.000000	0.202741	7.37127e+06	-45289.1	1005.82	-29773	0.000000	0.000000	6.202801	0.063892	NaN	0.000000	0.001725	0.001738	28.0803	0.079113	0.002062	38.3658	-76.6512	-167.346	-0.123729	0.201493	-0.832798	-0.834046	0.063892	38.3658	-0.834047	-1.302083E+11	-4.906891E-13	NaN
636	1.000000	0.210769	7.37127e+06	-45289.1	1005.82	-29773	0.000000	0.000000	6.210825	-0.061178	NaN	0.000000	0.001736	0.001736	28.0801	0.022746	0.002074	10.9693	70.1104	-166.395	-0.042357	0.209473	-0.824770	-0.826066	-0.061178	10.9693	-0.820587	-8.554024E+10	7.151945E-13	NaN
636	1.000000	0.218789	7.37127e+06	-45289.1	1005.82	-29773	0.000000	0.000000	6.218847	-0.002960	NaN	0.000000	0.001715	0.001706	28.0807	0.077785	0.001960	39.6831	150.01	-160.368	0.001906	0.217472	-0.816750	-0.818067	-0.002960	39.6831	-0.816694	-7.574960E+10	3.907664E-14	NaN
636	1.000000	0.226774	7.37127e+06	-45289.1	1005.82	-29773	0.000000	0.000000	6.226834	0.041596	NaN	0.000000	0.001707	0.001709	28.0818	0.054174	0.002081	26.0361	40.26	-165.874	0.054557	0.225446	-0.808765	-0.810093	0.041596	26.0361	-0.809964	-6.138696E+10	-6.776005E-13	NaN
636	1.000000	0.234773	7.37127e+06	-45289.1	1005.82	-29773	0.000000	0.000000	6.234832	0.021557	NaN	0.000000	0.001706	0.001710	28.0821	0.060996	0.001984	30.751	-27.7223	-166.887	-0.020088	0.233487	-0.800766	-0.802052	0.021557	30.751	-0.801292	-4.681652E+10	-4.604486E-13	NaN
636	1.000000	0.242771	7.37127e+06	-45289.1	1005.82	-29773	0.000000	0.000000	6.242831	0.050491	NaN	0.000000	0.001698	0.001729	28.0815	0.159501	0.001983	80.4438	93.293	-165.994	0.072821	0.241491	-0.792768	-0.794048	0.050491	80.4438	-0.793239	-3.639699E+10	-1.387230E-12	NaN
636	1.000000	0.250745	7.37127e+06	-45289.1	1005.82	-29773	0.000000	0.000000	6.250803	-0.001107	NaN	0.000000	0.001717	0.001719	28.0816	0.018447	0.001874	9.845438	-28.7497	-164.151	0.005196	0.249433	-0.784794	-0.786106	-0.001107	9.845438	-0.784710	-2.787568E+10	3.972293E-14	NaN
636	1.000000	0.258756	7.37127e+06	-45289.1	1005.82	-29773	0.000000	0.000000	6.258815	0.014670	NaN	0.000000	0.001693	0.001724	28.0818	0.062014	0.001944	31.8946	130.441	-165.909	0.050242	0.257477	-0.776783	-0.778062	0.014670	31.8946	-0.777128	-2.198884E+10	-6.671693E-13	NaN
636	1.000000	0.266779	7.37127e+06	-45289.1	1005.82	-29773	0.000000	0.000000	6.266838	0.004052	NaN	0.000000	0.001694	0.001681	28.0815	0.041601	0.001938	21.4709	91.369	-163.347	-0.007286	0.265488	-0.768760	-0.770051	0.004052	21.4709	-0.768901	-1.699683E+10	-2.384075E-13	NaN
636	1.000000	0.274779	7.37127e+06	-45289.1	1005.82	-29773	0.000000	0.000000	6.274836	-0.029321	NaN	0.000000	0.001680	0.001703	28.0816	0.100027	0.001809	55.2985	-162.369	-166.577	0.007492	0.273462	-0.760760	-0.762077	-0.029321	55.2985	-0.760363	-1.300874E+10	2.253953E-12	NaN
636	1.000000	0.282797	7.37127e+06	-45289.1	1005.82	-29773	0.000000	0.000000	6.282856	0.027856	NaN	0.000000	0.001683	0.001686	28.0816	0.031465	0.002112	14.897	-78.0985	-165.181	0.014668	0.281509	-0.752742	-0.754030	0.027856	14.897	-0.754144	-1.070600E+10	-2.601903E-12	NaN
636	1.000000	0.290784	7.37127e+06	-45289.1	1005.82	-29773	0.000000	0.000000	6.290841	-0.029343	NaN	0.000000	0.001649	0.001687	28.0818	0.029984	0.002136	14.0406	-42.4087	-164.301	-0.027290	0.289458	-0.744755	-0.746081	-0.029343	14.0406	-0.743188	-7.593992E+9	3.863916E-12	NaN
636	1.000000	0.298788	7.37127e+06	-45289.1	1005.82	-29773	0.000000	0.000000	6.298849	0.063932	NaN	0.000000	0.001684	0.001713	28.0816	0.039632	0.001995	19.8611	-118.19	-165.336	0.174074	0.297473	-0.736751	-0.738066	0.063932	19.8611	-0.739165	-6.693974E+9	-9.550651E-12	NaN
636	1.000000	0.306787	7.37127e+06	-45289.1	1005.82	-29773	0.000000	0.000000	6.306845	0.009080	NaN	0.000000	0.001717	0.001705	28.0817	0.073932	0.002089	35.3857	93.7992	-165.478	0.000370	0.305512	-0.728752	-0.730028	0.009080	35.3857	-0.728945	-4.857618E+9	-1.869314E-12	NaN
636	1.000000	0.314775	7.37127e+06	-45289.1	1005.82	-29773	0.000000	0.000000	6.314833	-0.008316	NaN	0.000000	0.001680	0.001698	28.0818	0.049300	0.002102	23.4582	105.576	-166.77	-0.011573	0.313512	-0.720764	-0.722027	-0.008316	23.4582	-0.720498	-3.726207E+9	2.231665E-12	NaN
636	1.000000	0.322811	7.37127e+06	-45289.1	1005.82	-29773	0.000000	0.000000	6.322868	-0.032637	NaN	0.000000	0.001701	0.001724	28.0817	0.027891	0.001967	14.1784	161.045	-162.829	-0.010550	0.321468	-0.712728	-0.714071	-0.032637	14.1784	-0.711002	-2.765143E+9	1.180297E-11	NaN
636	1.000000	0.330800	7.37127e+06	-45289.1	1005.82	-29773	0.000000	0.000000	6.330862	0.075809	NaN	0.000000	0.001708	0.001698	28.0818	0.133310	0.001829	72.8716	-164.021	-168.026	0.045463	0.329513	-0.704739	-0.706026	0.075809	72.8716	-0.705519	-2.327488E+9	-3.257129E-11	NaN
636	1.000000	0.338813	7.37127e+06	-45289.1	1005.82	-29773	0.000000	0.000000	6.338872	0.017175	NaN	0.000000	0.001691	0.001684	28.0817	0.065891	0.002010	32.7805	123.54	-167.332	0.008057	0.337475	-0.696726	-0.698064	0.017175	32.7805	-0.697119	-1.787222E+9	-9.609784E-12	NaN
636	1.000000	0.346809	7.37127e+06	-45289.1	1005.82	-29773	0.000000	0.000000	6.346864	-0.082967	NaN	0.000000	0.001712	0.001665	28.0816	0.020749	0.002084	9.957459	21.9662	-163.188	-0.034476	0.345560	-0.688730	-0.689979	-0.082967	9.957459	-0.682481	-1.127542E+9	7.358256E-11	NaN
636	1.000000	0.354822	7.37127e+06	-45289.1	1005.82	-29773	0.000000	0.000000	6.354881	0.024580	NaN	0.000000	0.001740	0.001706	28.0817	0.078972	0.002014	39.2089	-55.5545	-167.177	-0.020193	0.353517	-0.680717	-0.682022	0.024580	39.2089	-0.681187	-1.082529E+9	-2.270609E-11	NaN
636	1.000000	0.362810	7.37127e+06	-45289.1	1005.82	-29773	0.000000	0.000000	6.362869	0.005654	NaN	0.000000	0.001711	0.001696	28.0806	0.132838	0.001903	69.7896	65.591	-168.089	0.093240	0.361530	-0.672729	-0.674009	0.005654	69.7896	-0.672789	-8.309293E+8	-6.804255E-12	NaN
636	1.000000	0.370826	7.37127e+06	-45289.1	1005.82	-29773	0.000000	0.000000	6.370886	0.043533	NaN	0.000000	0.001733	0.001674	28.0807	0.125593	0.001854	67.7551	-80.1954	-167.028	-0.006587	0.369475	-0.664713	-0.666064	0.043533	67.7551	-0.665195	-6.540536E+8	-6.655869E-11	NaN
636	1.000000	0.378807	7.37127e+06	-45289.1	1005.82	-29773	0.000000	0.000000	6.378865	-0.009493	NaN	0.000000	0.001706	0.001679	28.0806	0.036467	0.001778	20.5156	-24.962	-168.09	0.046390	0.377514	-0.656732	-0.658025	-0.009493	20.5156	-0.656385	-4.953792E+8	1.916356E-11	NaN
636	1.000000	0.386850	7.37127e+06	-45289.1	1005.82	-29773	0.000000	0.000000	6.386905	-0.094079	NaN	0.000000	0.001659	0.001710	28.0807	0.018636	0.002164	8.611174	134.783	-164.54	-0.012439	0.385494	-0.648689	-0.650045	-0.094079	8.611174	-0.640495	-2.999702E+8	3.136282E-10	NaN
636	1.000000	0.394823	7.37127e+06	-45289.1	1005.82	-29773	0.000000	0.000000	6.394880	-0.021995	NaN	0.000000	0.001644	0.001693	28.0805	0.028854	0.002068	13.9507	-125.461	-167.153	-0.023021	0.393551	-0.640717	-0.641988	-0.021995	13.9507	-0.639534	-2.910024E+8	7.558221E-11	NaN
636	1.000000	0.402825	7.37127e+06	-45289.1	1005.82	-29773	0.000000	0.000000	6.402882	-0.033545	NaN	0.000000	0.001685	0.001684	28.0806	0.099050	0.002048	48.3643	-127.748	-163.806	-0.046924	0.401502	-0.632714	-0.634037	-0.033545	48.3643	-0.632194	-2.307525E+8	1.453741E-10	NaN
636	1.000000	0.410844	7.37127e+06	-45289.1	1005.82	-29773	0.000000	0.000000	6.410906	0.088721	NaN	0.000000	0.001659	0.001716	28.0807	0.120142	0.002164	55.5214	-142.869	-164.938	0.007124	0.409553	-0.624695	-0.625986	0.088721	55.5214	-0.625893	-1.890681E+8	-4.692519E-10	NaN
636	1.000000	0.418842	7.37127e+06	-45289.1	1005.82	-29773	0.000000	0.000000	6.418901	0.029382	NaN	0.000000	0.001679	0.001738	28.0804	0.046087	0.001990	23.1644	-53.8001	-162.787	-0.031144	0.417549	-0.616697	-0.617990	0.029382	23.1644	-0.617648	-1.456488E+8	-2.017326E-10	NaN
636	1.000000	0.426831	7.37127e+06	-45289.1	1005.82	-29773	0.000000	0.000000	6.426892	0.065764	NaN	0.000000	0.001640	0.001722	28.0801	0.064861	0.001946	33.3277	64.2206	-165.894	0.037964	0.425515	-0.608708	-0.610024	0.065764	33.3277	-0.610188	-1.150009E+8	-5.718526E-10	NaN
636	1.000000	0.434886	7.37127e+06	-45289.1	1005.82	-29773	0.000000	0.000000	6.434945	0.014512	NaN	0.000000	0.001683	0.001721	28.0803	0.056093	0.002127	26.3658	-12.1844	-163.815	-0.052989	0.433574	-0.600653	-0.601965	0.014512	26.3658	-0.601065	-8.612566E+7	-1.684978E-10	NaN
636	1.000000	0.442866	7.37127e+06	-45289.1	1005.82	-29773	0.000000	0.000000	6.442926	0.039415	NaN	0.000000	0.001672	0.001701	28.0805	0.058969	0.001961	30.0767	-50.7612	-165.925	0.045042	0.441581	-0.592673	-0.593958	0.039415	30.0767	-0.593656	-6.808605E+7	-5.789015E-10	NaN
636	1.000000	0.450837	7.37127e+06	-45289.1	1005.82	-29773	0.000000	0.000000	6.450895	0.003351	NaN	0.000000	0.001679	0.001763	28.0807	0.036157	0.002095	17.2584	136.595	-162.732	0.004741	0.449533	-0.584702	-0.586006	0.003351	17.2584	-0.584848	-5.147768E+7	-6.508851E-11	NaN
636	1.000000	0.458856	7.37127e+06	-45289.1	1005.82	-29773	0.000000	0.000000	6.458914	-0.015530	NaN	0.000000	0.001652	0.001753	28.0804	0.049892	0.001961	25.4425	-36.8362	-165.589	-0.013275	0.457575	-0.576683	-0.577964	-0.015530	25.4425	-0.576225	-3.913973E+7	3.967829E-10	NaN
636	1.000000	0.466891	7.37127e+06	-45289.1	1005.82	-29773	0.000000	0.000000	6.466949	-0.008945	NaN	0.000000	0.001661	0.001761	28.0808	0.087587	0.001947	44.9752	39.437	-166.766	0.012751	0.465598	-0.568648	-0.569941	-0.008945	44.9752	-0.568498	-3.061141E+7	2.922133E-10	NaN
636	1.000000	0.474868	7.37127e+06	-45289.1	1005.82	-29773	0.000000	0.000000	6.474925	-0.023909	NaN	0.000000	0.001670	0.001719	28.0804	0.041790	0.002061	20.2741	-127.018	-162.438	-0.043439	0.473571	-0.560671	-0.561968	-0.023909	20.2741	-0.559786	-2.319652E+7	1.030722E-9	NaN
636	1.000000	0.482879	7.37127e+06	-45289.1	1005.82	-29773	0.000000	0.000000	6.482937	-0.009776	NaN	0.000000	0.001655	0.001749	28.0806	0.024436	0.002041	11.9749	150.321	-166.263	-0.025730	0.481593	-0.552660	-0.553946	-0.009776	11.9749	-0.552047	-1.812641E+7	5.393139E-10	NaN
636	1.000000	0.490864	7.37127e+06	-45289.1	1005.82	-29773	0.000000	0.000000	6.490924	0.045566	NaN	0.000000	0.001674	0.001740	28.0805	0.126411	0.001943	65.0576	-50.9686	-165.493	-0.023289	0.489563	-0.544675	-0.545976	0.045566	65.0576	-0.545200	-1.456986E+7	-3.127395E-9	NaN
636	1.000000	0.498885	7.37127e+06	-45289.1	1005.82	-29773	0.000000	0.000000	6.498943	-0.009587	NaN	0.000000	0.001665	0.001751	28.0819	0.121156	0.002045	59.248	156.734	-164.221	0.036787	0.497580	-0.536654	-0.537959	-0.009587	59.248	-0.536532	-1.104725E+7	8.678409E-10	NaN
636	1.000000	0.506868	7.37127e+06	-45289.1	1005.82	-29773	0.000000	0.000000	6.506927	0.018175	NaN	0.000000	0.001651	0.001754	28.082	0.106400	0.001953	54.4698	-140.358	-165.838	0.010429	0.505522	-0.528671	-0.530017	0.018175	54.4698	-0.528922	-8.66158e+06	-2.098293E-9	NaN
636	1.000000	0.514895	7.37127e+06	-45289.1	1005.82	-29773	0.000000	0.000000	6.514956	0.066191	NaN	0.000000	0.001644	0.001701	28.0818	0.045414	0.001916	23.7032	87.6752	-166.342	-0.019715	0.513551	-0.520644	-0.521989	0.066191	23.7032	-0.522738	-7.10674e+06	-9.313876E-9	NaN
636	1.000000	0.522885	7.37127e+06	-45289.1	1005.82	-29773	0.000000	0.000000	6.522944	0.027724	NaN	0.000000	0.001679	0.001756	28.0817	0.034587	0.002022	17.1034	-52.1899	-164.36	0.041999	0.521521	-0.512654	-0.514018	0.027724	17.1034	-0.513870	-5.34932e+06	-5.182689E-9	NaN
636	1.000000	0.530918	7.37127e+06	-45289.1	1005.82	-29773	0.000000	0.000000	6.530978	0.043825	NaN	0.000000	0.001660	0.001759	28.0818	0.073400	0.002040	35.9879	162.661	-162.971	0.114935	0.529556	-0.504621	-0.505983	0.043825	35.9879	-0.505535	-4.09447e+06	-1.070355E-8	NaN
636	1.000000	0.538881	7.37127e+06	-45289.1	1005.82	-29773	0.000000	0.000000	6.538944	0.114714	NaN	0.000000	0.001686	0.001750	28.0818	0.030441	0.002011	15.1351	-35.9175	-167.164	0.014809	0.537560	-0.496658	-0.497979	0.114714	15.1351	-0.502343	-3.69569e+06	-3.103996E-8	NaN
636	1.000000	0.546891	7.37127e+06	-45289.1	1005.82	-29773	0.000000	0.000000	6.546948	-0.040891	NaN	0.000000	0.001683	0.001753	28.0818	0.044362	0.002086	21.264	-36.7704	-164.641	0.012788	0.545583	-0.488648	-0.489956	-0.040891	21.264	-0.487205	-2.27159e+06	1.800092E-8	NaN
636	1.000000	0.554904	7.37127e+06	-45289.1	1005.82	-29773	0.000000	0.000000	6.554961	-0.010205	NaN	0.000000	0.001670	0.001712	28.0821	0.030578	0.002007	15.2366	-88.3501	-165.738	0.050199	0.553647	-0.480635	-0.481892	-0.010205	15.2366	-0.480133	-1.80881e+06	5.641634E-9	NaN
636	1.000000	0.562933	7.37127e+06	-45289.1	1005.82	-29773	0.000000	0.000000	6.562993	0.049949	NaN	0.000000	0.001673	0.001800	28.0819	0.088250	0.001824	48.3724	-36.75	-165.123	0.080693	0.561561	-0.472606	-0.473978	0.049949	48.3724	-0.473381	-1.45482e+06	-3.433357E-8	NaN
636	1.000000	0.570912	7.37127e+06	-45289.1	1005.82	-29773	0.000000	0.000000	6.570971	0.026026	NaN	0.000000	0.001685	0.001757	28.0819	0.057020	0.002014	28.3134	100.523	-165.208	0.083344	0.569594	-0.464627	-0.465945	0.026026	28.3134	-0.465317	-1.12123e+06	-2.321214E-8	NaN
636	1.000000	0.578926	7.37127e+06	-45289.1	1005.82	-29773	0.000000	0.000000	6.578983	-0.029627	NaN	0.000000	0.001681	0.001748	28.0819	0.044628	0.002089	21.3648	56.9053	-164.522	0.044368	0.577529	-0.456613	-0.458010	-0.029627	21.3648	-0.455573	-818053	3.621609E-8	NaN
636	1.000000	0.586930	7.37127e+06	-45289.1	1005.82	-29773	0.000000	0.000000	6.586988	-0.016370	NaN	0.000000	0.001643	0.001703	28.0818	0.074913	0.002054	36.4757	81.3949	-165.862	0.032037	0.585576	-0.448609	-0.449963	-0.016370	36.4757	-0.448272	-645669	2.535344E-8	NaN
636	1.000000	0.594922	7.37127e+06	-45289.1	1005.82	-29773	0.000000	0.000000	6.594977	-0.082295	NaN	0.000000	0.001633	0.001740	28.082	0.005625	0.001976	2.846475	-155.498	-164.592	-0.077847	0.593618	-0.440617	-0.441921	-0.082295	2.846475	-0.418934	-248478	3.311954E-7	NaN
636	1.000000	0.602938	7.37127e+06	-45289.1	1005.82	-29773	0.000000	0.000000	6.602995	-0.022008	NaN	0.000000	0.001667	0.001737	28.0818	0.047020	0.001991	23.6117	87.7704	-167.074	-0.057105	0.601634	-0.432601	-0.433905	-0.022008	23.6117	-0.431902	-379283	5.802603E-8	NaN
636	1.000000	0.610947	7.37127e+06	-45289.1	1005.82	-29773	0.000000	0.000000	6.611004	-0.029876	NaN	0.000000	0.001655	0.001684	28.0819	0.051344	0.002049	25.0532	41.9381	-168.914	-0.013283	0.609610	-0.424592	-0.425929	-0.029876	25.0532	-0.423698	-290291	1.029180E-7	NaN
636	1.000000	0.618928	7.37127e+06	-45289.1	1005.82	-29773	0.000000	0.000000	6.618988	0.054376	NaN	0.000000	0.001663	0.001739	28.0817	0.036992	0.002118	17.4658	151.172	-163.464	0.043203	0.617636	-0.416612	-0.417903	0.054376	17.4658	-0.418946	-248583	-2.187426E-7	NaN
636	1.000000	0.626922	7.37127e+06	-45289.1	1005.82	-29773	0.000000	0.000000	6.626979	-0.006485	NaN	0.000000	0.001639	0.001743	28.0817	0.065255	0.002031	32.1374	145.729	-164.512	-0.023534	0.625616	-0.408618	-0.409923	-0.006485	32.1374	-0.408466	-176435	3.675853E-8	NaN
636	1.000000	0.634970	7.37127e+06	-45289.1	1005.82	-29773	0.000000	0.000000	6.635027	-0.021456	NaN	0.000000	0.001640	0.001796	28.0806	0.021965	0.002015	10.9001	120.778	-163.687	-0.055142	0.633628	-0.400569	-0.401911	-0.021456	10.9001	-0.399093	-129734	1.653823E-7	NaN
636	1.000000	0.642920	7.37127e+06	-45289.1	1005.82	-29773	0.000000	0.000000	6.642984	0.145766	NaN	0.000000	0.001626	0.001760	28.0806	0.100143	0.001932	51.8293	-129.621	-167.209	0.086835	0.641633	-0.392619	-0.393906	0.145766	51.8293	-0.394729	-112398	-1.296874E-6	NaN
636	1.000000	0.650971	7.37128e+06	-45289.1	1005.82	-29773	0.000000	0.000000	6.651030	0.030336	NaN	0.000000	0.001671	0.001794	28.0809	0.033734	0.001919	17.5776	-45.7858	-164.33	0.064185	0.649659	-0.384569	-0.385880	0.030336	17.5776	-0.385863	-83935.9	-3.614175E-7	NaN
636	1.000000	0.658949	7.37128e+06	-45289.1	1005.82	-29773	0.000000	0.000000	6.659005	-0.040520	NaN	0.000000	0.001689	0.001756	28.0806	0.064409	0.002024	31.8165	7.673059	-166.593	-0.004773	0.657658	-0.376590	-0.377881	-0.040520	31.8165	-0.375635	-59869.2	6.768027E-7	NaN
636	1.000000	0.666969	7.37128e+06	-45289.1	1005.82	-29773	0.000000	0.000000	6.667026	-0.042919	NaN	0.000000	0.001686	0.001762	28.0806	0.111783	0.001860	60.0862	171.834	-165.593	-0.030416	0.665648	-0.368570	-0.369891	-0.042919	60.0862	-0.368034	-46537.5	9.222470E-7	NaN
636	1.000000	0.674944	7.37128e+06	-45289.1	1005.82	-29773	0.000000	0.000000	6.675007	0.108443	NaN	0.000000	0.001686	0.001776	28.0805	0.093214	0.001999	46.641	-2.348950	-162.261	0.151309	0.673627	-0.360595	-0.361912	0.108443	46.641	-0.362338	-38515.3	-2.815572E-6	NaN
636	1.000000	0.682956	7.37128e+06	-45289.1	1005.82	-29773	0.000000	0.000000	6.683016	0.022054	NaN	0.000000	0.001652	0.001759	28.0805	0.081346	0.001832	44.3913	-44.5507	-165.876	0.069732	0.681629	-0.352583	-0.353910	0.022054	44.3913	-0.352955	-28175.2	-7.827474E-7	NaN
636	1.000000	0.690985	7.37128e+06	-45289.1	1005.82	-29773	0.000000	0.000000	6.691047	0.077255	NaN	0.000000	0.001665	0.001765	28.0811	0.063763	0.002033	31.3662	179.083	-165.602	0.070027	0.689659	-0.344554	-0.345880	0.077255	31.3662	-0.346401	-22632.1	-3.413522E-6	NaN
636	1.000000	0.698971	7.37128e+06	-45289.1	1005.82	-29773	0.000000	0.000000	6.699027	-0.055690	NaN	0.000000	0.001676	0.001748	28.081	0.077282	0.002027	38.131	134.691	-166.722	-0.032171	0.697635	-0.336568	-0.337904	-0.055690	38.131	-0.335472	-15685.1	3.550494E-6	NaN
636	1.000000	0.706950	7.37128e+06	-45289.1	1005.82	-29773	0.000000	0.000000	6.707008	0.006211	NaN	0.000000	0.001692	0.001772	28.0806	0.049717	0.001931	25.748	162.852	-165.558	-0.008326	0.705696	-0.328589	-0.329843	0.006211	25.748	-0.328770	-12515.1	-4.962595E-7	NaN
636	1.000000	0.714977	7.37128e+06	-45289.1	1005.82	-29773	0.000000	0.000000	6.715037	0.050976	NaN	0.000000	0.001688	0.001765	28.0806	0.060034	0.002064	29.0893	-34.6405	-163.662	0.039658	0.713641	-0.320562	-0.321898	0.050976	29.0893	-0.321876	-9913.79	-5.141930E-6	NaN
636	1.000000	0.722972	7.37128e+06	-45289.1	1005.82	-29773	0.000000	0.000000	6.723032	0.045576	NaN	0.000000	0.001697	0.001744	28.0806	0.033655	0.001922	17.5149	-43.5269	-165.485	-0.011737	0.721612	-0.312567	-0.313928	0.045576	17.5149	-0.314518	-7723.9	-5.900605E-6	NaN
636	1.000000	0.730995	7.37128e+06	-45289.1	1005.82	-29773	0.000000	0.000000	6.731057	0.094146	NaN	0.000000	0.001670	0.001763	28.0808	0.063170	0.001932	32.6932	140.381	-163.747	0.088338	0.729681	-0.304544	-0.305858	0.094146	32.6932	-0.306704	-5918.78	-1.590638E-5	NaN
636	1.000000	0.738987	7.37128e+06	-45289.1	1005.82	-29773	0.000000	0.000000	6.739048	0.046448	NaN	0.000000	0.001681	0.001758	28.0806	0.042958	0.002074	20.7113	170.35	-164.186	0.080210	0.737672	-0.296552	-0.297867	0.046448	20.7113	-0.298234	-4429.2	-1.048670E-5	NaN
636	1.000000	0.746953	7.37128e+06	-45289.1	1005.82	-29773	0.000000	0.000000	6.747011	-0.003978	NaN	0.000000	0.001699	0.001727	28.0806	0.051802	0.002074	24.9788	69.4978	-166.114	-0.091191	0.745704	-0.288586	-0.289835	-0.003978	24.9788	-0.288466	-3164.56	1.256923E-6	NaN
636	1.000000	0.754991	7.37128e+06	-45289.1	1005.82	-29773	0.000000	0.000000	6.755050	0.029151	NaN	0.000000	0.001676	0.001740	28.0805	0.100100	0.001983	50.4869	-116.278	-162.97	0.044696	0.753662	-0.280548	-0.281877	0.029151	50.4869	-0.280981	-2442.12	-1.193668E-5	NaN
636	1.000000	0.763012	7.37128e+06	-45289.1	1005.82	-29773	0.000000	0.000000	6.763072	0.042075	NaN	0.000000	0.001650	0.001738	28.0806	0.079131	0.002117	37.3818	44.8622	-165.554	0.105592	0.761683	-0.272527	-0.273856	0.042075	37.3818	-0.273371	-1873.79	-2.245449E-5	NaN
636	1.000000	0.770981	7.37128e+06	-45289.1	1005.82	-29773	0.000000	0.000000	6.771039	-0.006034	NaN	0.000000	0.001694	0.001737	28.0819	0.063306	0.001996	31.7136	162.031	-163.411	-0.028433	0.769698	-0.264558	-0.265841	-0.006034	31.7136	-0.264415	-1369.19	4.406959E-6	NaN
636	1.000000	0.779001	7.37128e+06	-45289.1	1005.82	-29773	0.000000	0.000000	6.779059	0.013540	NaN	0.000000	0.001647	0.001782	28.0818	0.030157	0.002054	14.6818	-53.1948	-163.829	0.074297	0.777683	-0.256538	-0.257856	0.013540	14.6818	-0.257230	-1062.71	-1.274075E-5	NaN
636	1.000000	0.786987	7.37128e+06	-45289.1	1005.82	-29773	0.000000	0.000000	6.787042	-0.082884	NaN	0.000000	0.001634	0.001779	28.0819	0.034529	0.001970	17.528	79.8053	-164.436	-0.049916	0.785696	-0.248552	-0.249843	-0.082884	17.528	-0.245006	-687.926	0.000120	NaN
636	1.000000	0.795010	7.37128e+06	-45289.1	1005.82	-29773	0.000000	0.000000	6.795066	-0.038970	NaN	0.000000	0.001613	0.001752	28.0823	0.052386	0.001984	26.4108	-119.203	-164.568	0.083618	0.793697	-0.240529	-0.241843	-0.038970	26.4108	-0.239423	-563.028	6.921532E-5	NaN
636	1.000000	0.803001	7.37128e+06	-45289.1	1005.82	-29773	0.000000	0.000000	6.803058	-0.021632	NaN	0.000000	0.001639	0.001745	28.082	0.121105	0.001988	60.9189	-43.0734	-162.303	-0.030602	0.801724	-0.232538	-0.233816	-0.021632	60.9189	-0.232272	-434.85	4.974559E-5	NaN
636	1.000000	0.811004	7.37128e+06	-45289.1	1005.82	-29773	0.000000	0.000000	6.811062	0.013849	NaN	0.000000	0.001627	0.001757	28.0817	0.133056	0.001988	66.9258	-144.769	-165.782	0.036574	0.809679	-0.224536	-0.225860	0.013849	66.9258	-0.224691	-329.93	-4.197549E-5	NaN
636	1.000000	0.819004	7.37128e+06	-45289.1	1005.82	-29773	0.000000	0.000000	6.819061	-0.046605	NaN	0.000000	0.001687	0.001778	28.0818	0.074014	0.001929	38.3622	-48.6223	-163.208	-0.051534	0.817723	-0.216535	-0.217816	-0.046605	38.3622	-0.215624	-236.342	0.000197	NaN
636	1.000000	0.827044	7.37128e+06	-45289.1	1005.82	-29773	0.000000	0.000000	6.827103	0.006212	NaN	0.000000	0.001680	0.001752	28.0821	0.078281	0.002076	37.7132	-17.1462	-162.36	-0.038858	0.825682	-0.208495	-0.209857	0.006212	37.7132	-0.208618	-182.148	-3.410548E-5	NaN
636	1.000000	0.834963	7.37128e+06	-45289.1	1005.82	-29773	0.000000	0.000000	6.835023	0.047348	NaN	0.000000	0.001702	0.001774	28.0821	0.111226	0.002048	54.3108	-120.539	-166.285	0.070291	0.833710	-0.200576	-0.201829	0.047348	54.3108	-0.201230	-138.006	-0.000343	NaN
636	1.000000	0.843046	7.37128e+06	-45289.1	1005.82	-29773	0.000000	0.000000	6.843104	4.419541E-5	NaN	0.000000	0.001696	0.001721	28.0819	0.072205	0.001946	37.1018	172.609	-162.86	0.000265	0.841741	-0.192493	-0.193798	4.419541E-5	37.1018	-0.192494	-98.9929	-4.464503E-7	NaN
636	1.000000	0.851029	7.37128e+06	-45289.1	1005.82	-29773	0.000000	0.000000	6.851089	0.035634	NaN	0.000000	0.001664	0.001752	28.0818	0.078193	0.001979	39.5098	-96.3952	-162.726	0.015291	0.849734	-0.184510	-0.185805	0.035634	39.5098	-0.185187	-74.6925	-0.000477	NaN
636	1.000000	0.859016	7.37128e+06	-45289.1	1005.82	-29773	0.000000	0.000000	6.859074	0.012338	NaN	0.000000	0.001628	0.001744	28.0819	0.033770	0.001954	17.2824	171.728	-166.215	-0.053323	0.857715	-0.176523	-0.177824	0.012338	17.2824	-0.177059	-54.3608	-0.000227	NaN
636	1.000000	0.867046	7.37128e+06	-45289.1	1005.82	-29773	0.000000	0.000000	6.867103	-0.031450	NaN	0.000000	0.001622	0.001746	28.0821	0.035446	0.001916	18.5038	-18.6745	-167.321	-0.031151	0.865724	-0.168493	-0.169815	-0.031450	18.5038	-0.167219	-36.7423	0.000856	NaN
636	1.000000	0.875053	7.37128e+06	-45289.1	1005.82	-29773	0.000000	0.000000	6.875112	0.016240	NaN	0.000000	0.001624	0.001784	28.082	0.048260	0.001964	24.5743	-79.5021	-169.123	-0.065113	0.873711	-0.160486	-0.161828	0.016240	24.5743	-0.160982	-28.5374	-0.000569	NaN
636	1.000000	0.883033	7.37128e+06	-45289.1	1005.82	-29773	0.000000	0.000000	6.883092	0.024450	NaN	0.000000	0.001662	0.001747	28.0821	0.044586	0.002013	22.1473	-75.2868	-164.786	0.064966	0.881726	-0.152506	-0.153813	0.024450	22.1473	-0.153334	-20.8225	-0.001174	NaN
636	1.000000	0.891016	7.37128e+06	-45289.1	1005.82	-29773	0.000000	0.000000	6.891075	0.027097	NaN	0.000000	0.001649	0.001755	28.082	0.108566	0.002013	53.9285	-161.569	-166.446	0.008220	0.889783	-0.144523	-0.145756	0.027097	53.9285	-0.144900	-14.5988	-0.001856	NaN
636	1.000000	0.899060	7.37128e+06	-45289.1	1005.82	-29773	0.000000	0.000000	6.899119	0.011058	NaN	0.000000	0.001681	0.001748	28.0818	0.040153	0.002060	19.4929	37.5596	-165.42	-0.008358	0.897755	-0.136479	-0.137784	0.011058	19.4929	-0.136904	-10.3402	-0.001069	NaN
636	1.000000	0.907053	7.37128e+06	-45289.1	1005.82	-29773	0.000000	0.000000	6.907110	-0.024046	NaN	0.000000	0.001631	0.001722	28.0806	0.078655	0.001991	39.512	16.953	-162.58	0.032870	0.905695	-0.128486	-0.129844	-0.024046	39.512	-0.128030	-6.975922	0.003447	NaN
636	1.000000	0.915046	7.37128e+06	-45289.1	1005.82	-29773	0.000000	0.000000	6.915104	-0.004602	NaN	0.000000	0.001676	0.001704	28.0806	0.045748	0.002022	22.6222	61.4957	-162.599	-0.036098	0.913723	-0.120493	-0.121816	-0.004602	22.6222	-0.120340	-4.908509	0.000937	NaN
636	1.000000	0.923035	7.37128e+06	-45289.1	1005.82	-29773	0.000000	0.000000	6.923090	-0.060625	NaN	0.000000	0.001637	0.001725	28.0807	0.047256	0.002085	22.6602	-120.981	-163.834	-0.014441	0.921718	-0.112505	-0.113821	-0.060625	22.6602	-0.110498	-3.078653	0.019692	NaN
636	1.000000	0.931072	7.37128e+06	-45289.1	1005.82	-29773	0.000000	0.000000	6.931130	-0.008854	NaN	0.000000	0.001643	0.001694	28.0808	0.087860	0.002047	42.9248	-160.53	-166.528	0.008706	0.929731	-0.104467	-0.105808	-0.008854	42.9248	-0.104313	-2.271420	0.003898	NaN
636	1.000000	0.939060	7.37128e+06	-45289.1	1005.82	-29773	0.000000	0.000000	6.939118	-0.002287	NaN	0.000000	0.001645	0.001739	28.081	0.065338	0.002078	31.4381	-98.257	-163.535	0.009486	0.937718	-0.096479	-0.097821	-0.002287	31.4381	-0.096425	-1.519672	0.001505	NaN
636	1.000000	0.947082	7.37128e+06	-45289.1	1005.82	-29773	0.000000	0.000000	6.947137	-0.070209	NaN	0.000000	0.001660	0.001717	28.0806	0.100094	0.001947	51.3996	134.657	-162.604	-0.020462	0.945778	-0.088457	-0.089761	-0.070209	51.3996	-0.087432	-0.939942	0.074695	NaN
636	1.000000	0.955064	7.37128e+06	-45289.1	1005.82	-29773	0.000000	0.000000	6.955119	-0.062981	NaN	0.000000	0.001673	0.001735	28.0808	0.052554	0.002120	24.7873	-152.423	-161.573	-0.035849	0.953725	-0.080476	-0.081814	-0.062981	24.7873	-0.078570	-0.569840	0.110525	NaN
636	1.000000	0.963080	7.37128e+06	-45289.1	1005.82	-29773	0.000000	0.000000	6.963139	0.015476	NaN	0.000000	0.001674	0.001741	28.0807	0.062147	0.001888	32.9201	163.211	-166.734	-0.013363	0.961787	-0.072459	-0.073752	0.015476	32.9201	-0.072812	-0.405020	-0.038210	NaN
636	1.000000	0.971067	7.37128e+06	-45289.1	1005.82	-29773	0.000000	0.000000	6.971122	-0.076221	NaN	0.000000	0.001646	0.001764	28.0807	0.052286	0.001957	26.7133	-64.0058	-165.596	-0.070645	0.969780	-0.064472	-0.065759	-0.076221	26.7133	-0.062332	-0.209843	0.363228	NaN
636	1.000000	0.979071	7.37128e+06	-45289.1	1005.82	-29773	0.000000	0.000000	6.979127	-0.055065	NaN	0.000000	0.001649	0.001783	28.0812	0.088450	0.002034	43.4864	-68.1148	-164.091	-0.028868	0.977773	-0.056468	-0.057766	-0.055065	43.4864	-0.055518	-0.133393	0.412806	NaN
636	1.000000	0.987090	7.37128e+06	-45289.1	1005.82	-29773	0.000000	0.000000	6.987144	-0.096785	NaN	0.000000	0.001639	0.001764	28.0808	0.052201	0.002049	25.4761	28.1739	-162.465	-0.107453	0.985794	-0.048449	-0.049745	-0.096785	25.4761	-0.045600	-0.067039	1.443700	NaN
636	1.000000	0.995087	7.37128e+06	-45289.1	1005.82	-29773	0.000000	0.000000	6.995141	-0.098139	NaN	0.000000	0.001728	0.001736	28.0805	0.100956	0.001968	51.3084	133.317	-162.381	-0.127738	0.993731	-0.040452	-0.041808	-0.098139	51.3084	-0.039018	-0.042226	2.324158	NaN
636	1.000000	1.003122	7.37128e+06	-45289.1	1005.82	-29773	0.000000	0.000000	7.003179	-0.023484	NaN	0.000000	0.001684	0.001769	28.0808	0.096214	0.002047	46.9939	86.0514	-164.021	-0.023175	1.001880	-0.032417	-0.033659	-0.023484	46.9939	-0.032042	-0.026280	0.893618	NaN
636	1.000000	1.011090	7.37128e+06	-45289.1	1005.82	-29773	0.000000	0.000000	7.011147	-0.027976	NaN	0.000000	0.001728	0.001763	28.0806	0.069155	0.002065	33.4827	-5.987841	-165.231	-0.066825	1.009794	-0.024449	-0.025745	-0.027976	33.4827	-0.023822	-0.015724	1.779247	NaN
636	1.000000	1.019063	7.37128e+06	-45289.1	1005.82	-29773	0.000000	0.000000	7.019120	-0.035237	NaN	0.000000	0.001742	0.001796	28.0808	0.117469	0.001935	60.7186	66.454	-166.468	-0.124504	1.017783	-0.016476	-0.017756	-0.035237	60.7186	-0.016041	-0.009908	3.556318	NaN
636	1.000000	1.027103	7.37128e+06	-45289.1	1005.82	-29773	0.000000	0.000000	7.027172	0.246901	NaN	0.000000	0.001756	0.001751	28.0808	0.312246	0.001945	160.572	44.6489	-163.787	0.167478	1.025792	-0.008436	-0.009747	0.246901	160.572	-0.009589	-0.006152	-40.1336	NaN
636	1.000000	1.035079	7.37128e+06	-45289.1	1005.82	-29773	0.000000	0.000000	7.035266	3.124918	NaN	0.000000	0.001724	0.001798	28.0808	4.022894	0.001925	2089.67	9.422209	-166.836	1.817478	1.033774	-0.000460	-0.001765	3.124918	2089.67	-0.001581	-0.001147	-2725.06	NaN
636	2.000000	1.041591	7.37128e+06	-45289.1	1005.82	-29773	0.000000	0.000000	7.042078	10.4406	NaN	0.000000	0.001691	0.001758	28.0818	9.806175	0.001562	6276.57	4.401027	-169.715	9.815065	1.041172	0.006052	0.005632	10.4406	6276.57	0.004804	0.003955	2639.66	91181.5
636	2.000000	1.043543	7.37128e+06	-45289.1	1005.82	-29773	0.000000	0.000000	7.044172	13.8799	NaN	0.000000	0.001738	0.001743	28.0819	11.758	0.001649	7129.53	7.961184	-174.77	12.6646	1.043305	0.008004	0.007766	13.8799	7129.53	0.006544	0.005587	2484.35	87145.9
636	2.000000	1.045569	7.37128e+06	-45289.1	1005.82	-29773	0.000000	0.000000	7.046300	16.3825	NaN	0.000000	0.001673	0.001783	28.082	14.1506	0.001672	8462.18	8.067104	-174.766	16.8145	1.045177	0.010029	0.009638	16.3825	8462.18	0.008577	0.007643	2143.45	88434.4
636	2.000000	1.047533	7.37128e+06	-45289.1	1005.82	-29773	0.000000	0.000000	7.048419	20.1331	NaN	0.000000	0.001731	0.001757	28.0818	16.8695	0.001848	9127.99	12.6589	-179.57	20.276	1.047226	0.011994	0.011687	20.1331	9127.99	0.010339	0.009561	2105.73	85289.1
636	2.000000	1.049553	7.37128e+06	-45289.1	1005.82	-29773	0.000000	0.000000	7.050667	25.6865	NaN	0.000000	0.001737	0.001748	28.0821	18.2766	0.001666	10970.4	6.635046	-176.474	26.2655	1.049227	0.014014	0.013688	25.6865	10970.4	0.012258	0.011800	2176.79	92267.8
636	2.000000	1.051530	7.37128e+06	-45289.1	1005.82	-29773	0.000000	0.000000	7.052799	29.4659	NaN	0.000000	0.001724	0.001796	28.0824	20.5372	0.001689	12155.9	2.424011	-174.644	28.7696	1.051231	0.015991	0.015692	29.4659	12155.9	0.014173	0.014198	2075.31	93205.3
636	2.000000	1.053509	7.37128e+06	-45289.1	1005.82	-29773	0.000000	0.000000	7.054929	33.1363	NaN	0.000000	0.001693	0.001754	28.0819	22.0148	0.001692	13011.6	6.548161	-177.808	31.7393	1.053165	0.017970	0.017626	33.1363	13011.6	0.016060	0.016725	1981.26	91922.4
636	2.000000	1.055488	7.37128e+06	-45289.1	1005.82	-29773	0.000000	0.000000	7.057051	36.5974	NaN	0.000000	0.001754	0.001743	28.0818	24.9589	0.001738	14357	7.061892	179.876	35.2045	1.055222	0.019949	0.019683	36.5974	14357	0.018037	0.019551	1871.88	93810.1
636	2.000000	1.057514	7.37128e+06	-45289.1	1005.82	-29773	0.000000	0.000000	7.059320	42.5345	NaN	0.000000	0.001714	0.001755	28.0821	26.5803	0.001824	14570.2	6.265546	-177.326	40.305	1.057158	0.021975	0.021619	42.5345	14570.2	0.019785	0.022206	1915.47	89331.6
636	2.000000	1.059485	7.37128e+06	-45289.1	1005.82	-29773	0.000000	0.000000	7.061425	45.7981	NaN	0.000000	0.001688	0.001771	28.0821	28.312	0.001831	15461.1	6.318409	-178.995	44.7336	1.059193	0.023946	0.023654	45.7981	15461.1	0.021724	0.025324	1808.49	88766.1
636	2.000000	1.061494	7.37128e+06	-45289.1	1005.82	-29773	0.000000	0.000000	7.063644	50.8747	NaN	0.000000	0.001738	0.001758	28.0823	30.5095	0.001903	16029	5.620798	-178.678	51.5012	1.061281	0.025955	0.025742	50.8747	16029	0.023575	0.028474	1786.72	86787.4
636	2.000000	1.063492	7.37128e+06	-45289.1	1005.82	-29773	0.000000	0.000000	7.065834	55.5569	NaN	0.000000	0.001718	0.001743	28.082	31.221	0.001681	18578.3	1.400677	-177.157	54.5568	1.063251	0.027953	0.027712	55.5569	18578.3	0.025710	0.032321	1718.92	94414.4
636	2.000000	1.065523	7.37128e+06	-45289.1	1005.82	-29773	0.000000	0.000000	7.068316	66.5291	NaN	0.000000	0.001747	0.001709	28.0819	32.9773	0.001844	17883.7	0.504553	-173.834	66.8495	1.065081	0.029983	0.029541	66.5291	17883.7	0.027193	0.035127	1893.95	87178.3
636	2.000000	1.067525	7.37128e+06	-45289.1	1005.82	-29773	0.000000	0.000000	7.070617	73.7962	NaN	0.000000	0.001741	0.001786	28.082	35.9943	0.001848	19481	11.9158	174.911	74.1466	1.067143	0.031986	0.031604	73.7962	19481	0.029145	0.038990	1892.72	90138.6
636	2.000000	1.069459	7.37128e+06	-45289.1	1005.82	-29773	0.000000	0.000000	7.072784	79.4816	NaN	0.000000	0.001761	0.001743	28.082	37.0552	0.001783	20782.8	5.994472	178.443	77.4149	1.069172	0.033920	0.033633	79.4816	20782.8	0.031051	0.042951	1850.53	91620.4
636	2.000000	1.071453	7.37128e+06	-45289.1	1005.82	-29773	0.000000	0.000000	7.075035	85.7282	NaN	0.000000	0.001741	0.001719	28.0822	40.3079	0.001747	23069.8	8.279239	174.442	84.6322	1.071194	0.035914	0.035655	85.7282	23069.8	0.033127	0.047475	1805.75	96735.2
636	2.000000	1.073467	7.37128e+06	-45289.1	1005.82	-29773	0.000000	0.000000	7.077465	95.8241	NaN	0.000000	0.001714	0.001752	28.0822	40.496	0.001753	23096.4	6.304170	177.327	94.4084	1.073114	0.037928	0.037575	95.8241	23096.4	0.034817	0.051320	1867.19	93148.3
636	2.000000	1.075473	7.37128e+06	-45289.1	1005.82	-29773	0.000000	0.000000	7.079699	101.392	NaN	0.000000	0.001755	0.001761	28.0808	43.5328	0.001759	24747.1	3.061269	179.766	101.815	1.075147	0.039934	0.039608	101.392	24747.1	0.036861	0.056169	1805.13	95400.1
636	2.000000	1.077579	7.37128e+06	-45289.1	1005.82	-29773	0.000000	0.000000	7.082214	111.346	NaN	0.000000	0.001754	0.001718	28.0811	46.7748	0.001891	24732.3	10.9236	172.94	114.188	1.077145	0.042040	0.041606	111.346	24732.3	0.038664	0.060620	1836.78	91775.9
636	2.000000	1.079475	7.37128e+06	-45289.1	1005.82	-29773	0.000000	0.000000	7.084437	119.278	NaN	0.000000	0.001727	0.001742	28.0806	47.9322	0.001731	27695	9.913904	172.109	118.412	1.079111	0.043936	0.043572	119.278	27695	0.040706	0.065866	1810.92	98592.5
636	2.000000	1.081456	7.37128e+06	-45289.1	1005.82	-29773	0.000000	0.000000	7.086655	125.064	NaN	0.000000	0.001723	0.001725	28.0814	49.6973	0.001788	27799.7	0.765814	-179.525	123.242	1.081238	0.045917	0.045699	125.064	27799.7	0.042543	0.070764	1767.33	95478.6
636	2.000000	1.083459	7.37128e+06	-45289.1	1005.82	-29773	0.000000	0.000000	7.089267	139.88	NaN	0.000000	0.001705	0.001791	28.081	51.0378	0.001749	29187	5.567029	175.776	138.891	1.083091	0.047920	0.047552	139.88	29187	0.044326	0.075684	1848.21	96930.5
636	2.000000	1.085477	7.37128e+06	-45289.1	1005.82	-29773	0.000000	0.000000	7.091588	147.226	NaN	0.000000	0.001692	0.001762	28.0806	53.5381	0.001831	29235.4	6.997974	174.686	147.898	1.085185	0.049938	0.049646	147.226	29235.4	0.046161	0.080919	1819.42	93898.3
636	2.000000	1.087499	7.37128e+06	-45289.1	1005.82	-29773	0.000000	0.000000	7.094024	157.311	NaN	0.000000	0.001652	0.001785	28.0812	54.6482	0.001806	30252.9	3.380582	178.914	157.893	1.087134	0.051960	0.051595	157.311	30252.9	0.048060	0.086512	1818.37	93972.7
636	2.000000	1.089393	7.37128e+06	-45289.1	1005.82	-29773	0.000000	0.000000	7.096298	166.572	NaN	0.000000	0.001687	0.001763	28.0809	56.6174	0.001737	32585.9	6.383052	174.517	162.902	1.089008	0.053854	0.053469	166.572	32585.9	0.050020	0.092475	1801.25	97901.7
636	2.000000	1.091446	7.37128e+06	-45289.1	1005.82	-29773	0.000000	0.000000	7.098792	177.309	NaN	0.000000	0.001688	0.001770	28.0808	59.2947	0.001788	33157.8	6.791755	173.4	177.086	1.091151	0.055907	0.055612	177.309	33157.8	0.051896	0.098364	1802.59	96592.1
636	2.000000	1.093443	7.37128e+06	-45289.1	1005.82	-29773	0.000000	0.000000	7.101228	187.959	NaN	0.000000	0.001695	0.001777	28.0807	59.6187	0.001671	35668	5.710153	174.448	187.535	1.093130	0.057904	0.057591	187.959	35668	0.053952	0.105018	1789.79	100559
636	2.000000	1.095458	7.37128e+06	-45289.1	1005.82	-29773	0.000000	0.000000	7.103623	197.211	NaN	0.000000	0.001696	0.001733	28.0808	61.387	0.001789	34320.4	2.404867	177.621	196.948	1.095180	0.059919	0.059641	197.211	34320.4	0.055610	0.110537	1784.11	94313.1
636	2.000000	1.097454	7.37128e+06	-45289.1	1005.82	-29773	0.000000	0.000000	7.106162	210.407	NaN	0.000000	0.001698	0.001767	28.0814	63.5288	0.001845	34424.8	4.510070	176.479	208.835	1.097088	0.061915	0.061548	210.407	34424.8	0.057331	0.116413	1807.41	92181.5
636	2.000000	1.099403	7.37128e+06	-45289.1	1005.82	-29773	0.000000	0.000000	7.108507	220.059	NaN	0.000000	0.001676	0.001770	28.0805	65.7424	0.001805	36428.9	6.324280	173.422	219.283	1.099064	0.063864	0.063525	220.059	36428.9	0.059333	0.123428	1782.9	94735.5
636	2.000000	1.101467	7.37128e+06	-45289.1	1005.82	-29773	0.000000	0.000000	7.110965	229.637	NaN	0.000000	0.001704	0.001761	28.0808	67.8443	0.001873	36219.9	3.083415	176.738	230.849	1.101214	0.065928	0.065675	229.637	36219.9	0.061173	0.130047	1765.8	91763.5
636	2.000000	1.103351	7.37128e+06	-45289.1	1005.82	-29773	0.000000	0.000000	7.113483	245.066	NaN	0.000000	0.001680	0.001781	28.0804	67.4627	0.001688	39972.5	3.683645	175.368	240.615	1.103071	0.067812	0.067532	245.066	39972.5	0.063214	0.137585	1781.19	98457.4
636	2.000000	1.105431	7.37128e+06	-45289.1	1005.82	-29773	0.000000	0.000000	7.116131	258.894	NaN	0.000000	0.001710	0.001771	28.0806	69.9139	0.001773	39423.2	2.985271	176.647	257.822	1.105008	0.069892	0.069469	258.894	39423.2	0.064967	0.144218	1795.16	94845.4
636	2.000000	1.107477	7.37128e+06	-45289.1	1005.82	-29773	0.000000	0.000000	7.118567	268.362	NaN	0.000000	0.001670	0.001746	28.0808	72.5516	0.001874	38722.4	4.231599	175.477	268.089	1.107053	0.071938	0.071514	268.362	38722.4	0.066740	0.151080	1776.29	91019.1
636	2.000000	1.109398	7.37128e+06	-45289.1	1005.82	-29773	0.000000	0.000000	7.120887	278.095	NaN	0.000000	0.001698	0.001708	28.0813	74.1212	0.001755	42224.9	5.510883	172.999	274.773	1.109090	0.073859	0.073550	278.095	42224.9	0.068919	0.159718	1741.16	96530.4
636	2.000000	1.111513	7.37128e+06	-45289.1	1005.82	-29773	0.000000	0.000000	7.123193	282.722	NaN	0.000000	0.001702	0.001707	28.0824	76.6233	0.001700	45067	4.596426	173.266	287.627	1.111185	0.075974	0.075646	282.722	45067	0.071269	0.169289	1670.06	100073
636	2.000000	1.113380	7.37128e+06	-45289.1	1005.82	-29773	0.000000	0.000000	7.125785	300.357	NaN	0.000000	0.001672	0.001733	28.082	77.155	0.001702	45342.3	2.660247	175.733	297.744	1.113183	0.077841	0.077644	300.357	45342.3	0.072873	0.175971	1706.85	98754.2
636	2.000000	1.115401	7.37128e+06	-45289.1	1005.82	-29773	0.000000	0.000000	7.128411	315.065	NaN	0.000000	0.001649	0.001736	28.082	80.6264	0.001775	45434.8	5.543998	172.561	315.333	1.115004	0.079862	0.079464	315.065	45434.8	0.074661	0.183565	1716.37	96887.3
636	2.000000	1.117431	7.37128e+06	-45289.1	1005.82	-29773	0.000000	0.000000	7.131004	328.782	NaN	0.000000	0.001674	0.001732	28.0818	83.2707	0.001907	43655.5	5.051512	173.546	327.504	1.117127	0.081892	0.081588	328.782	43655.5	0.076244	0.190409	1726.71	91404.7
636	2.000000	1.119435	7.37128e+06	-45289.1	1005.82	-29773	0.000000	0.000000	7.133642	344.21	NaN	0.000000	0.001649	0.001763	28.0817	83.6776	0.001847	45308.1	1.634936	177.1	344.494	1.119045	0.083896	0.083506	344.21	45308.1	0.078198	0.199025	1729.48	92788.8
636	2.000000	1.121431	7.37128e+06	-45289.1	1005.82	-29773	0.000000	0.000000	7.136142	356.459	NaN	0.000000	0.001672	0.001744	28.082	87.1167	0.001845	47208.6	4.945703	172.713	355.323	1.121106	0.085891	0.085567	356.459	47208.6	0.080228	0.208167	1712.38	94534.2
636	2.000000	1.123298	7.37128e+06	-45289.1	1005.82	-29773	0.000000	0.000000	7.138662	372.353	NaN	0.000000	0.001689	0.001765	28.0819	87.7404	0.001815	48340.1	6.955018	171.13	367.189	1.122998	0.087759	0.087459	372.353	48340.1	0.081982	0.216213	1722.16	94981.6
636	2.000000	1.125419	7.37128e+06	-45289.1	1005.82	-29773	0.000000	0.000000	7.141356	386.29	NaN	0.000000	0.001684	0.001750	28.0824	91.1528	0.001847	49364.4	6.397394	171.006	386.384	1.125110	0.089880	0.089571	386.29	49364.4	0.084011	0.225707	1711.47	94932.5
636	2.000000	1.127262	7.37128e+06	-45289.1	1005.82	-29773	0.000000	0.000000	7.143509	393.834	NaN	0.000000	0.001654	0.001737	28.0817	91.0003	0.001767	51503.3	-0.022779	177.217	385.391	1.127128	0.091722	0.091589	393.834	51503.3	0.085987	0.235135	1674.93	97039.9
636	2.000000	1.129347	7.37128e+06	-45289.1	1005.82	-29773	0.000000	0.000000	7.146274	410.364	NaN	0.000000	0.001650	0.001779	28.0818	92.9917	0.001898	48991.6	3.949755	173.991	407.863	1.129002	0.093808	0.093463	410.364	48991.6	0.087526	0.242599	1691.53	90876.3
636	2.000000	1.131424	7.37128e+06	-45289.1	1005.82	-29773	0.000000	0.000000	7.149067	427.794	NaN	0.000000	0.001644	0.001732	28.082	94.551	0.001805	52377.2	2.066753	175.257	426.156	1.131121	0.095885	0.095582	427.794	52377.2	0.089759	0.253626	1686.72	95020.9
636	2.000000	1.133392	7.37128e+06	-45289.1	1005.82	-29773	0.000000	0.000000	7.151841	447.388	NaN	0.000000	0.001665	0.001749	28.0818	96.0741	0.001809	53115.9	7.868490	169.121	447.05	1.133147	0.097853	0.097608	447.388	53115.9	0.091536	0.262562	1703.93	94706.9
636	2.000000	1.135338	7.37128e+06	-45289.1	1005.82	-29773	0.000000	0.000000	7.154512	465.016	NaN	0.000000	0.001673	0.001752	28.0819	97.4287	0.001798	54199.4	1.995615	175.141	461.931	1.135032	0.099799	0.099493	465.016	54199.4	0.093364	0.271912	1710.17	94962.9
636	2.000000	1.137383	7.37128e+06	-45289.1	1005.82	-29773	0.000000	0.000000	7.156973	475.166	NaN	0.000000	0.001674	0.001759	28.0817	99.2245	0.001737	57109.3	2.753989	174.541	471.596	1.137039	0.101844	0.101500	475.166	57109.3	0.095603	0.283567	1675.67	97983.4
636	2.000000	1.139412	7.37128e+06	-45289.1	1005.82	-29773	0.000000	0.000000	7.159724	492.726	NaN	0.000000	0.001672	0.001752	28.082	101.568	0.001791	56698.6	4.268023	172.502	493.637	1.139059	0.103873	0.103520	492.726	56698.6	0.097355	0.292844	1682.55	95725.4