File: remote_trans/data/nanoindenter/0828-1/data/Data_2025-08-06,11h17m57s/2025-07-22_16-23-58_1_80.txt
2025-07-22, 16:23:58, 1
Index	Phase	Displacement	Time	Pos X	Pos Y	Pos Z	Rot A	Rot B	Piezo Z	Force A	Force B	Gripper	Voltage A	Voltage B	Temperature	Amplitude force	Amplitude pos	Stiffness	Phase shift	Phase excitation	Force A raw	Displacement raw	HMax	HMax raw	Real Force	Real Stiffness	Contact Depth	Area	Hardness	Reduced Mod.
[#]	[#]	[um]	[s]	[um]	[um]	[um]	[m°]	[m°]	[um]	[uN]	[uN]	[V]	[V]	[V]	[°C]	[uN]	[um]	[N/m]	[°]	[°]	[uN]	[um]	[um]	[um]	[uN]	[N/m]	[um]	[um^2]	[MPa]	[MPa]
80	1.000000	0.002399	7.36582e+06	-42639.1	955.818	-29782.6	0.000000	0.000000	6.002823	-0.060500	NaN	0.000000	0.001717	0.001671	28.0861	0.075816	0.001022	74.1645	173.141	-164.168	-0.099499	0.001173	-1.095886	-1.097112	-0.060500	74.1645	-1.095274	-4.331337E+14	1.396800E-16	NaN
80	1.000000	0.012405	7.36582e+06	-42639.1	955.819	-29782.6	0.000000	0.000000	6.012834	0.053128	NaN	0.000000	0.001617	0.001697	28.1253	0.049537	0.001367	36.24	19.2166	16.928	0.070488	0.010975	-1.085880	-1.087310	0.053128	36.24	-1.086979	-3.351559E+14	-1.585177E-16	NaN
80	1.000000	0.022308	7.36582e+06	-42639.1	955.818	-29782.6	0.000000	0.000000	6.022738	0.090877	NaN	0.000000	0.001605	0.001673	28.1096	0.024502	0.001696	14.4426	170.781	-166.42	0.013025	0.021014	-1.075977	-1.077271	0.090877	14.4426	-1.080696	-2.759730E+14	-3.292950E-16	NaN
80	1.000000	0.032310	7.36582e+06	-42639.1	955.818	-29782.6	0.000000	0.000000	6.032736	-0.022929	NaN	0.000000	0.001598	0.001646	28.0794	0.014129	0.001898	7.445940	177.439	14.5758	-0.020369	0.030950	-1.065975	-1.067335	-0.022929	7.445940	-1.063665	-1.629573E+14	1.407049E-16	NaN
80	1.000000	0.042324	7.36582e+06	-42639.1	955.818	-29782.6	0.000000	0.000000	6.042751	0.030229	NaN	0.000000	0.001621	0.001653	28.087	0.054684	0.001928	28.3675	-34.8831	-168.488	-0.023330	0.041056	-1.055961	-1.057230	0.030229	28.3675	-1.056760	-1.316082E+14	-2.296903E-16	NaN
80	1.000000	0.052338	7.36582e+06	-42639.1	955.818	-29782.6	0.000000	0.000000	6.052763	-0.021191	NaN	0.000000	0.001571	0.001626	28.1278	0.127931	0.001894	67.5423	71.6541	9.857270	-0.018208	0.050971	-1.045947	-1.047314	-0.021191	67.5423	-1.045712	-9.348966E+13	2.266705E-16	NaN
80	1.000000	0.062309	7.36582e+06	-42639.1	955.817	-29782.6	0.000000	0.000000	6.062739	0.084411	NaN	0.000000	0.001598	0.001652	28.1088	0.020629	0.002015	10.2379	-67.9439	-164.672	0.052492	0.061019	-1.035976	-1.037266	0.084411	10.2379	-1.042159	-8.375370E+13	-1.007843E-15	NaN
80	1.000000	0.072346	7.36582e+06	-42639.1	955.818	-29782.6	0.000000	0.000000	6.072774	0.040598	NaN	0.000000	0.001563	0.001626	28.0808	0.133187	0.002120	62.8284	49.8439	11.1322	-0.059196	0.070989	-1.025939	-1.027296	0.040598	62.8284	-1.026423	-5.144821E+13	-7.891015E-16	NaN
80	1.000000	0.082345	7.36582e+06	-42639.1	955.818	-29782.6	0.000000	0.000000	6.082770	-0.029691	NaN	0.000000	0.001593	0.001631	28.0862	0.021056	0.001952	10.7874	-16.5414	-169.233	-0.044033	0.081031	-1.015940	-1.017254	-0.029691	10.7874	-1.013875	-3.487704E+13	8.513060E-16	NaN
80	1.000000	0.092360	7.36582e+06	-42639.1	955.818	-29782.6	0.000000	0.000000	6.092788	0.051286	NaN	0.000000	0.001584	0.001666	28.1263	0.018999	0.002016	9.423889	-37.6106	14.0743	0.060656	0.090951	-1.005925	-1.007334	0.051286	9.423889	-1.010007	-3.093660E+13	-1.657790E-15	NaN
80	1.000000	0.102335	7.36582e+06	-42639.1	955.818	-29782.6	0.000000	0.000000	6.102761	-0.020441	NaN	0.000000	0.001606	0.001667	28.1125	0.088290	0.002110	41.8534	-25.0189	-165.589	0.021242	0.101026	-0.995950	-0.997259	-0.020441	41.8534	-0.995584	-1.978352E+13	1.033240E-15	NaN
80	1.000000	0.112325	7.36582e+06	-42639.1	955.818	-29782.6	0.000000	0.000000	6.112753	0.046339	NaN	0.000000	0.001603	0.001639	28.0804	0.042114	0.001908	22.0722	142.017	13.0118	0.011242	0.111001	-0.985960	-0.987284	0.046339	22.0722	-0.987534	-1.541357E+13	-3.006372E-15	NaN
80	1.000000	0.122354	7.36582e+06	-42639.1	955.818	-29782.6	0.000000	0.000000	6.122782	0.031708	NaN	0.000000	0.001574	0.001707	28.0861	0.081885	0.001952	41.9583	-178.026	-165.537	0.013000	0.121008	-0.975931	-0.977277	0.031708	41.9583	-0.976497	-1.094510E+13	-2.896974E-15	NaN
80	1.000000	0.132334	7.36582e+06	-42639.1	955.817	-29782.6	0.000000	0.000000	6.132758	-0.049634	NaN	0.000000	0.001599	0.001728	28.1263	0.040371	0.001925	20.9772	-114.531	13.6085	-0.020945	0.130951	-0.965952	-0.967334	-0.049634	20.9772	-0.964177	-7.467546E+12	6.646582E-15	NaN
80	1.000000	0.142345	7.36582e+06	-42639.1	955.819	-29782.6	0.000000	0.000000	6.142770	-0.028826	NaN	0.000000	0.001616	0.001685	28.1115	0.065199	0.001972	33.056	-110.796	-162.569	-0.078913	0.141065	-0.955940	-0.957220	-0.028826	33.056	-0.955286	-5.666420E+12	5.087077E-15	NaN
80	1.000000	0.152388	7.36582e+06	-42639.1	955.819	-29782.6	0.000000	0.000000	6.152815	0.011744	NaN	0.000000	0.001629	0.001695	28.081	0.120673	0.002038	59.2172	33.4485	11.7641	-0.008022	0.151011	-0.945897	-0.947274	0.011744	59.2172	-0.946046	-4.253016E+12	-2.761289E-15	NaN
80	1.000000	0.162402	7.36582e+06	-42639.1	955.818	-29782.6	0.000000	0.000000	6.162827	-0.028097	NaN	0.000000	0.001617	0.001687	28.0871	0.062357	0.002042	30.5326	125.775	-166.203	0.021018	0.161024	-0.935883	-0.937261	-0.028097	30.5326	-0.935193	-3.035800E+12	9.255302E-15	NaN
80	1.000000	0.172393	7.36582e+06	-42639.1	955.819	-29782.6	0.000000	0.000000	6.172819	-0.003317	NaN	0.000000	0.001598	0.001740	28.1265	0.025171	0.002058	12.2284	-10.4347	12.5015	-0.067160	0.171042	-0.925892	-0.927243	-0.003317	12.2284	-0.925689	-2.259473E+12	1.468254E-15	NaN
80	1.000000	0.182373	7.36582e+06	-42639.1	955.818	-29782.6	0.000000	0.000000	6.182798	-0.025377	NaN	0.000000	0.001623	0.001666	28.113	0.090492	0.001991	45.4436	169.116	-167.542	-0.023187	0.181081	-0.915912	-0.917204	-0.025377	45.4436	-0.915493	-1.645709E+12	1.541984E-14	NaN
80	1.000000	0.192367	7.36582e+06	-42639.1	955.818	-29782.6	0.000000	0.000000	6.192793	-0.007968	NaN	0.000000	0.001679	0.001660	28.0813	0.078198	0.001964	39.8231	135.605	17.512	-0.024739	0.190978	-0.905918	-0.907307	-0.007968	39.8231	-0.905768	-1.216184E+12	6.551242E-15	NaN
80	1.000000	0.202384	7.36582e+06	-42639.1	955.819	-29782.6	0.000000	0.000000	6.202811	0.005362	NaN	0.000000	0.001673	0.001694	28.0871	0.046414	0.002008	23.1133	-66.6225	-164.884	-0.027975	0.201077	-0.895901	-0.897208	0.005362	23.1133	-0.896075	-8.995467E+11	-5.960770E-15	NaN
80	1.000000	0.212411	7.36582e+06	-42639.1	955.818	-29782.6	0.000000	0.000000	6.212839	0.044273	NaN	0.000000	0.001666	0.001680	28.1256	0.085916	0.001893	45.3791	119.427	9.833307	0.004665	0.211014	-0.885874	-0.887271	0.044273	45.3791	-0.886605	-6.699221E+11	-6.608714E-14	NaN
80	1.000000	0.222385	7.36582e+06	-42639.1	955.818	-29782.6	0.000000	0.000000	6.222808	-0.089713	NaN	0.000000	0.001615	0.001652	28.1117	0.057438	0.002041	28.1359	-18.1028	-168.127	-0.016625	0.221100	-0.875900	-0.877185	-0.089713	28.1359	-0.873508	-4.455592E+11	2.013494E-13	NaN
80	1.000000	0.232382	7.36582e+06	-42639.1	955.819	-29782.6	0.000000	0.000000	6.232810	0.044500	NaN	0.000000	0.001648	0.001662	28.0804	0.050415	0.001999	25.2149	20.4858	13.3135	0.047418	0.231045	-0.865903	-0.867241	0.044500	25.2149	-0.867227	-3.663718E+11	-1.214606E-13	NaN
80	1.000000	0.242384	7.36582e+06	-42639.1	955.819	-29782.6	0.000000	0.000000	6.242809	-0.036339	NaN	0.000000	0.001626	0.001674	28.0853	0.097474	0.001964	49.6316	131.813	-167.709	0.065861	0.241100	-0.855901	-0.857185	-0.036339	49.6316	-0.855352	-2.530477E+11	1.436059E-13	NaN
80	1.000000	0.252429	7.36582e+06	-42639.1	955.818	-29782.6	0.000000	0.000000	6.252857	0.037918	NaN	0.000000	0.001631	0.001668	28.125	0.039329	0.002025	19.4182	-1.144434	13.9104	0.057560	0.251053	-0.845856	-0.847233	0.037918	19.4182	-0.847321	-1.969954E+11	-1.924820E-13	NaN
80	1.000000	0.262417	7.36582e+06	-42639.1	955.818	-29782.6	0.000000	0.000000	6.262844	0.006598	NaN	0.000000	0.001612	0.001661	28.1111	0.016026	0.002093	7.657368	-22.7776	-163.956	-0.053787	0.261097	-0.835868	-0.837188	0.006598	7.657368	-0.836514	-1.406254E+11	-4.692170E-14	NaN
80	1.000000	0.272385	7.36582e+06	-42639.1	955.818	-29782.6	0.000000	0.000000	6.272811	-0.013332	NaN	0.000000	0.001624	0.001664	28.0802	0.226410	0.001993	113.599	-129.267	15.7531	-0.011847	0.271090	-0.825900	-0.827195	-0.013332	113.599	-0.825812	-1.006962E+11	1.324012E-13	NaN
80	1.000000	0.282398	7.36582e+06	-42639.1	955.818	-29782.6	0.000000	0.000000	6.282828	0.083679	NaN	0.000000	0.001628	0.001628	28.0848	0.093111	0.001958	47.5565	-28.4839	-164.071	0.027182	0.281138	-0.815887	-0.817147	0.083679	47.5565	-0.817207	-7.697113E+10	-1.087154E-12	NaN
80	1.000000	0.292445	7.36582e+06	-42639.1	955.819	-29782.6	0.000000	0.000000	6.292870	-0.028574	NaN	0.000000	0.001637	0.001649	28.1237	0.027491	0.002154	12.7616	-14.0051	11.8736	0.015955	0.291056	-0.805840	-0.807229	-0.028574	12.7616	-0.804161	-5.120827E+10	5.579896E-13	NaN
80	1.000000	0.302418	7.36582e+06	-42639.1	955.818	-29782.6	0.000000	0.000000	6.302845	0.018946	NaN	0.000000	0.001609	0.001655	28.1104	0.107228	0.001881	57.0021	-106.806	-166.801	0.107840	0.301126	-0.795867	-0.797159	0.018946	57.0021	-0.796116	-3.982338E+10	-4.757497E-13	NaN
80	1.000000	0.312447	7.36582e+06	-42639.1	955.818	-29782.6	0.000000	0.000000	6.312874	0.027271	NaN	0.000000	0.001620	0.001654	28.0792	0.066156	0.001956	33.8248	-130.229	14.4527	0.012159	0.311037	-0.785838	-0.787248	0.027271	33.8248	-0.786443	-2.942872E+10	-9.266658E-13	NaN
80	1.000000	0.322415	7.36582e+06	-42639.1	955.818	-29782.6	0.000000	0.000000	6.322842	0.012460	NaN	0.000000	0.001591	0.001652	28.0855	0.045754	0.002056	22.2489	18.8853	-164.272	-0.062309	0.321142	-0.775870	-0.777143	0.012460	22.2489	-0.776290	-2.141940E+10	-5.817374E-13	NaN
80	1.000000	0.332439	7.36582e+06	-42639.1	955.818	-29782.6	0.000000	0.000000	6.332865	9.636552E-5	NaN	0.000000	0.001656	0.001673	28.1251	0.070174	0.001973	35.5619	-29.5161	13.6345	-0.006056	0.331072	-0.765846	-0.767213	9.636552E-5	35.5619	-0.765848	-1.544729E+10	-6.238345E-15	NaN
80	1.000000	0.342450	7.36582e+06	-42639.1	955.817	-29782.6	0.000000	0.000000	6.342875	-0.046810	NaN	0.000000	0.001635	0.001640	28.1124	0.055926	0.001952	28.6515	-72.9306	-165.061	-0.053562	0.341169	-0.755835	-0.757116	-0.046810	28.6515	-0.754610	-1.086319E+10	4.309076E-12	NaN
80	1.000000	0.352489	7.36582e+06	-42639.1	955.818	-29782.6	0.000000	0.000000	6.352915	-0.018259	NaN	0.000000	0.001613	0.001623	28.0797	0.102490	0.001988	51.5485	-89.914	13.0342	0.029793	0.351124	-0.745796	-0.747161	-0.018259	51.5485	-0.745530	-8.172775E+9	2.234102E-12	NaN
80	1.000000	0.362446	7.36582e+06	-42639.1	955.817	-29782.6	0.000000	0.000000	6.362872	-0.015859	NaN	0.000000	0.001576	0.001646	28.0844	0.047630	0.001998	23.8401	34.0166	-163.573	-0.083424	0.361160	-0.735839	-0.737125	-0.015859	23.8401	-0.735340	-5.937143E+9	2.671096E-12	NaN
80	1.000000	0.372486	7.36582e+06	-42639.1	955.818	-29782.6	0.000000	0.000000	6.372910	-0.052523	NaN	0.000000	0.001584	0.001644	28.1242	0.040836	0.002026	20.156	-118.512	16.4759	0.032953	0.371067	-0.725800	-0.727218	-0.052523	20.156	-0.723845	-4.139106E+9	1.268939E-11	NaN
80	1.000000	0.382465	7.36582e+06	-42639.1	955.819	-29782.6	0.000000	0.000000	6.382890	-0.040215	NaN	0.000000	0.001600	0.001624	28.1126	0.031690	0.002068	15.327	53.2304	-166.891	-0.059036	0.381179	-0.715820	-0.717106	-0.040215	15.327	-0.713852	-3.024193E+9	1.329792E-11	NaN
80	1.000000	0.392479	7.36582e+06	-42639.1	955.819	-29782.6	0.000000	0.000000	6.392905	0.003591	NaN	0.000000	0.001572	0.001616	28.0823	0.095841	0.002043	46.9234	-177.794	16.1194	0.035117	0.391110	-0.705806	-0.707175	0.003591	46.9234	-0.705863	-2.352813E+9	-1.526216E-12	NaN
80	1.000000	0.402478	7.36582e+06	-42639.1	955.819	-29782.6	0.000000	0.000000	6.402905	0.025959	NaN	0.000000	0.001580	0.001621	28.0854	0.047536	0.001891	25.1317	-88.8547	-164.565	-0.004832	0.401158	-0.695807	-0.697127	0.025959	25.1317	-0.696582	-1.757299E+9	-1.477188E-11	NaN
80	1.000000	0.412483	7.36582e+06	-42639.1	955.818	-29782.6	0.000000	0.000000	6.412910	0.013729	NaN	0.000000	0.001568	0.001639	28.1249	0.044537	0.001960	22.7239	-28.6582	11.948	-0.033901	0.411140	-0.685802	-0.687145	0.013729	22.7239	-0.686255	-1.269799E+9	-1.081203E-11	NaN
80	1.000000	0.422464	7.36582e+06	-42639.1	955.818	-29782.6	0.000000	0.000000	6.422891	0.034986	NaN	0.000000	0.001579	0.001677	28.1133	0.031270	0.001929	16.2142	46.7682	-161.853	0.008359	0.421183	-0.675822	-0.677102	0.034986	16.2142	-0.677440	-9.620306E+8	-3.636731E-11	NaN
80	1.000000	0.432494	7.36582e+06	-42639.1	955.818	-29782.6	0.000000	0.000000	6.432917	-0.095200	NaN	0.000000	0.001580	0.001646	28.0818	0.072342	0.001955	37.008	-13.1201	12.5286	-0.072787	0.431114	-0.665791	-0.667171	-0.095200	37.008	-0.663861	-6.271197E+8	1.518052E-10	NaN
80	1.000000	0.442471	7.36582e+06	-42639.1	955.819	-29782.6	0.000000	0.000000	6.442895	-0.035550	NaN	0.000000	0.001566	0.001677	28.0851	0.094779	0.001996	47.4791	-166.469	-163.022	-0.042442	0.441193	-0.655814	-0.657093	-0.035550	47.4791	-0.655253	-4.780049E+8	7.437094E-11	NaN
80	1.000000	0.452467	7.36582e+06	-42639.1	955.818	-29782.6	0.000000	0.000000	6.452892	-0.012032	NaN	0.000000	0.001575	0.001641	28.1247	0.056093	0.002107	26.6181	141.444	13.3407	-0.009500	0.451157	-0.645818	-0.647129	-0.012032	26.6181	-0.645479	-3.511183E+8	3.426835E-11	NaN
80	1.000000	0.462479	7.36582e+06	-42639.1	955.818	-29782.6	0.000000	0.000000	6.462907	0.042274	NaN	0.000000	0.001595	0.001629	28.1125	0.083788	0.002015	41.5758	11.3808	-166.582	0.049434	0.461246	-0.635806	-0.637040	0.042274	41.5758	-0.636568	-2.649698E+8	-1.595434E-10	NaN
80	1.000000	0.472484	7.36582e+06	-42639.1	955.818	-29782.6	0.000000	0.000000	6.472911	0.015210	NaN	0.000000	0.001597	0.001614	28.0808	0.015923	0.002009	7.926668	-156.358	16.0251	-0.001894	0.471153	-0.625801	-0.627132	0.015210	7.926668	-0.627240	-1.972979E+8	-7.708995E-11	NaN
80	1.000000	0.482512	7.36582e+06	-42639.1	955.817	-29782.6	0.000000	0.000000	6.482940	0.034996	NaN	0.000000	0.001604	0.001629	28.0863	0.089139	0.001916	46.517	-27.8832	-169.407	0.043921	0.481212	-0.615773	-0.617073	0.034996	46.517	-0.616337	-1.397259E+8	-2.504652E-10	NaN
80	1.000000	0.492516	7.36582e+06	-42639.1	955.819	-29782.6	0.000000	0.000000	6.492941	-0.040444	NaN	0.000000	0.001610	0.001655	28.1253	0.079868	0.001999	39.9516	50.0994	15.6995	0.021726	0.491176	-0.605769	-0.607109	-0.040444	39.9516	-0.605010	-9.759738E+7	4.143980E-10	NaN
80	1.000000	0.502530	7.36582e+06	-42639.1	955.819	-29782.6	0.000000	0.000000	6.502956	-0.008070	NaN	0.000000	0.001649	0.001675	28.1121	0.016232	0.001977	8.208933	-1.188663	-163.721	0.003437	0.501165	-0.595755	-0.597121	-0.008070	8.208933	-0.595018	-7.109347E+7	1.135138E-10	NaN
80	1.000000	0.512498	7.36582e+06	-42639.1	955.818	-29782.6	0.000000	0.000000	6.512924	0.006601	NaN	0.000000	0.001619	0.001635	28.08	0.124226	0.002062	60.2392	155.703	13.2484	0.014400	0.511187	-0.585787	-0.587098	0.006601	60.2392	-0.585870	-5.317528E+7	-1.241449E-10	NaN
80	1.000000	0.522505	7.36582e+06	-42639.1	955.818	-29782.6	0.000000	0.000000	6.522931	0.001990	NaN	0.000000	0.001610	0.001648	28.0841	0.078493	0.002049	38.3065	11.9568	-168.507	0.109957	0.521206	-0.575780	-0.577079	0.001990	38.3065	-0.575819	-3.863750E+7	-5.149797E-11	NaN
80	1.000000	0.532521	7.36582e+06	-42639.1	955.819	-29782.6	0.000000	0.000000	6.532946	-0.037680	NaN	0.000000	0.001625	0.001667	28.1229	0.079561	0.002026	39.2697	-179.535	12.693	-0.063028	0.531165	-0.565764	-0.567120	-0.037680	39.2697	-0.565044	-2.742423E+7	1.373973E-9	NaN
80	1.000000	0.542520	7.36582e+06	-42639.1	955.818	-29782.6	0.000000	0.000000	6.542949	0.066569	NaN	0.000000	0.001598	0.001638	28.1118	0.103684	0.002007	51.6571	-103.998	-167.123	0.046983	0.541198	-0.555765	-0.557087	0.066569	51.6571	-0.556732	-2.104546E+7	-3.163115E-9	NaN
80	1.000000	0.552489	7.36582e+06	-42639.1	955.818	-29782.6	0.000000	0.000000	6.552915	-0.007455	NaN	0.000000	0.001623	0.001674	28.0825	0.113751	0.001984	57.3249	-138.277	13.9678	-0.030317	0.551157	-0.545796	-0.547128	-0.007455	57.3249	-0.545698	-1.480326E+7	5.035877E-10	NaN
80	1.000000	0.562556	7.36582e+06	-42639.1	955.818	-29782.6	0.000000	0.000000	6.562983	0.034812	NaN	0.000000	0.001609	0.001649	28.0843	0.062686	0.002007	31.2286	104.966	-169.492	-0.073692	0.561252	-0.535729	-0.537033	0.034812	31.2286	-0.536565	-1.105889E+7	-3.147871E-9	NaN
80	1.000000	0.572555	7.36582e+06	-42639.1	955.818	-29782.6	0.000000	0.000000	6.572981	-0.002394	NaN	0.000000	0.001608	0.001668	28.1236	0.068924	0.001978	34.854	39.2153	14.9443	0.000418	0.571187	-0.525730	-0.527098	-0.002394	34.854	-0.525678	-7.80795e+06	3.065989E-10	NaN
80	1.000000	0.582544	7.36582e+06	-42639.1	955.819	-29782.6	0.000000	0.000000	6.582970	0.003118	NaN	0.000000	0.001590	0.001699	28.1133	0.087369	0.001923	45.4454	6.422126	-165.316	-0.087857	0.581270	-0.515741	-0.517015	0.003118	45.4454	-0.515793	-5.68936e+06	-5.480080E-10	NaN
80	1.000000	0.592555	7.36582e+06	-42639.1	955.819	-29782.6	0.000000	0.000000	6.592980	-0.020349	NaN	0.000000	0.001611	0.001683	28.0801	0.039869	0.001963	20.3109	111.385	10.623	-0.014994	0.591201	-0.505730	-0.507084	-0.020349	20.3109	-0.504979	-4.02207e+06	5.059248E-9	NaN
80	1.000000	0.602561	7.36583e+06	-42639.1	955.818	-29782.6	0.000000	0.000000	6.602989	0.046285	NaN	0.000000	0.001592	0.001678	28.0833	0.055518	0.001983	27.9906	97.5698	-165.957	0.111987	0.601212	-0.495724	-0.497073	0.046285	27.9906	-0.496965	-3.10929e+06	-1.488592E-8	NaN
80	1.000000	0.612563	7.36583e+06	-42639.1	955.818	-29782.6	0.000000	0.000000	6.612990	0.022626	NaN	0.000000	0.001617	0.001675	28.1225	0.030139	0.001877	16.0585	128.356	12.3333	0.031457	0.611154	-0.485722	-0.487131	0.022626	16.0585	-0.486778	-2.24058e+06	-1.009815E-8	NaN
80	1.000000	0.622584	7.36583e+06	-42639.1	955.818	-29782.6	0.000000	0.000000	6.623010	-0.006076	NaN	0.000000	0.001575	0.001661	28.1114	0.035840	0.002041	17.5563	-126.449	-166.749	-0.043554	0.621243	-0.475701	-0.477042	-0.006076	17.5563	-0.475442	-1.55486e+06	3.907523E-9	NaN
80	1.000000	0.632587	7.36583e+06	-42639.1	955.817	-29782.6	0.000000	0.000000	6.633014	0.013452	NaN	0.000000	0.001579	0.001702	28.0815	0.089136	0.001908	46.7098	-107.639	13.3907	0.029343	0.631209	-0.465698	-0.467076	0.013452	46.7098	-0.465914	-1.14309e+06	-1.176803E-8	NaN
80	1.000000	0.642592	7.36583e+06	-42639.1	955.818	-29782.6	0.000000	0.000000	6.643016	-0.038584	NaN	0.000000	0.001580	0.001680	28.0858	0.091163	0.002182	41.7865	-95.7893	-171.465	-0.002957	0.641313	-0.455693	-0.456972	-0.038584	41.7865	-0.455001	-803025	4.804844E-8	NaN
80	1.000000	0.652600	7.36583e+06	-42639.1	955.818	-29782.6	0.000000	0.000000	6.653027	0.006277	NaN	0.000000	0.001564	0.001700	28.1245	0.135317	0.002035	66.4993	73.478	12.3016	0.074829	0.651152	-0.445685	-0.447133	0.006277	66.4993	-0.445756	-595037	-1.054866E-8	NaN
80	1.000000	0.662576	7.36583e+06	-42639.1	955.819	-29782.6	0.000000	0.000000	6.662999	-0.076222	NaN	0.000000	0.001584	0.001685	28.1145	0.063844	0.002037	31.3417	161.704	-167.202	-0.031261	0.661205	-0.435709	-0.437080	-0.076222	31.3417	-0.433885	-404573	1.884020E-7	NaN
80	1.000000	0.672577	7.36583e+06	-42639.1	955.818	-29782.6	0.000000	0.000000	6.673003	0.004092	NaN	0.000000	0.001695	0.001687	28.0818	0.109835	0.001973	55.6613	108.504	13.3836	-0.007571	0.671279	-0.425708	-0.427006	0.004092	55.6613	-0.425763	-310523	-1.317837E-8	NaN
80	1.000000	0.682578	7.36583e+06	-42639.1	955.819	-29782.6	0.000000	0.000000	6.683002	-0.032642	NaN	0.000000	0.001660	0.001673	28.0854	0.050913	0.002008	25.3502	55.9647	-168.381	-0.057357	0.681284	-0.415708	-0.417001	-0.032642	25.3502	-0.414742	-216665	1.506589E-7	NaN
80	1.000000	0.692599	7.36583e+06	-42639.1	955.818	-29782.6	0.000000	0.000000	6.693025	-0.000555	NaN	0.000000	0.001626	0.001657	28.1238	0.087502	0.001972	44.374	145.438	15.5764	0.041008	0.691235	-0.405686	-0.407051	-0.000555	44.374	-0.405677	-161023	3.445682E-9	NaN
80	1.000000	0.702627	7.36583e+06	-42639.1	955.818	-29782.6	0.000000	0.000000	6.703052	-0.044751	NaN	0.000000	0.001646	0.001673	28.1132	0.031585	0.001986	15.906	-95.0941	-166.835	-0.054302	0.701271	-0.395658	-0.397014	-0.044751	15.906	-0.393548	-108115	4.139217E-7	NaN
80	1.000000	0.712609	7.36583e+06	-42639.1	955.818	-29782.6	0.000000	0.000000	6.713037	0.032622	NaN	0.000000	0.001667	0.001682	28.0817	0.097953	0.001891	51.7935	147.037	15.048	0.012551	0.711243	-0.385676	-0.387042	0.032622	51.7935	-0.386148	-84729.9	-3.850068E-7	NaN
80	1.000000	0.722616	7.36583e+06	-42639.1	955.819	-29782.6	0.000000	0.000000	6.723041	-0.033953	NaN	0.000000	0.001671	0.001668	28.0856	0.018158	0.002132	8.516159	160.16	-166.333	0.041106	0.721271	-0.375669	-0.377014	-0.033953	8.516159	-0.372679	-54286	6.254383E-7	NaN
80	1.000000	0.732619	7.36583e+06	-42639.1	955.818	-29782.6	0.000000	0.000000	6.733047	0.045997	NaN	0.000000	0.001667	0.001649	28.1247	0.033186	0.001967	16.8713	-173.043	10.9721	0.074811	0.731267	-0.365667	-0.367018	0.045997	16.8713	-0.367711	-46041.8	-9.990310E-7	NaN
80	1.000000	0.742621	7.36583e+06	-42639.1	955.818	-29782.6	0.000000	0.000000	6.743048	0.030329	NaN	0.000000	0.001611	0.001684	28.1153	0.072100	0.001948	37.0052	137.907	-166.411	0.009593	0.741323	-0.355664	-0.356962	0.030329	37.0052	-0.356279	-31478.9	-9.634735E-7	NaN
80	1.000000	0.752622	7.36583e+06	-42639.1	955.818	-29782.6	0.000000	0.000000	6.753046	-0.043586	NaN	0.000000	0.001634	0.001672	28.0813	0.013409	0.001928	6.955940	21.2087	16.493	0.073819	0.751272	-0.345663	-0.347014	-0.043586	6.955940	-0.340964	-18862.4	2.310712E-6	NaN
80	1.000000	0.762613	7.36583e+06	-42639.1	955.818	-29782.6	0.000000	0.000000	6.763037	-0.053217	NaN	0.000000	0.001600	0.001645	28.0853	0.020824	0.002012	10.3501	-11.0325	-166.853	-0.019479	0.761327	-0.335672	-0.336958	-0.053217	10.3501	-0.331816	-13868.4	3.837272E-6	NaN
80	1.000000	0.772635	7.36583e+06	-42639.1	955.818	-29782.6	0.000000	0.000000	6.773059	-0.035398	NaN	0.000000	0.001633	0.001650	28.1229	0.083459	0.001956	42.672	88.0935	11.1584	0.009608	0.771264	-0.325650	-0.327021	-0.035398	42.672	-0.325028	-11029.4	3.209415E-6	NaN
80	1.000000	0.782655	7.36583e+06	-42639.1	955.817	-29782.6	0.000000	0.000000	6.783082	0.031547	NaN	0.000000	0.001606	0.001676	28.1129	0.045286	0.002020	22.4155	-74.7557	-165.144	0.038331	0.781323	-0.315630	-0.316962	0.031547	22.4155	-0.316686	-8314.12	-3.794367E-6	NaN
80	1.000000	0.792650	7.36583e+06	-42639.1	955.819	-29782.6	0.000000	0.000000	6.793079	0.050614	NaN	0.000000	0.001639	0.001664	28.0808	0.037922	0.002012	18.8514	31.7259	13.1881	0.076593	0.791255	-0.305635	-0.307030	0.050614	18.8514	-0.307648	-6112.68	-8.280214E-6	NaN
80	1.000000	0.802643	7.36583e+06	-42639.1	955.818	-29782.6	0.000000	0.000000	6.803067	-0.052722	NaN	0.000000	0.001608	0.001675	28.0835	0.066435	0.002043	32.5226	51.4857	-165.483	-0.005418	0.801341	-0.295643	-0.296944	-0.052722	32.5226	-0.294427	-3886.21	1.356634E-5	NaN
80	1.000000	0.812640	7.36583e+06	-42639.1	955.819	-29782.6	0.000000	0.000000	6.813067	0.025961	NaN	0.000000	0.001654	0.001681	28.1228	0.113480	0.001908	59.4888	-34.7943	11.2946	-0.057850	0.811248	-0.285645	-0.287037	0.025961	59.4888	-0.285973	-2903.24	-8.942052E-6	NaN
80	1.000000	0.822619	7.36583e+06	-42639.1	955.818	-29782.6	0.000000	0.000000	6.823044	-0.022838	NaN	0.000000	0.001592	0.001669	28.1141	0.093892	0.001910	49.1489	93.59	-166.035	-0.005920	0.821313	-0.275666	-0.276972	-0.022838	49.1489	-0.275317	-2005.43	1.138829E-5	NaN
80	1.000000	0.832642	7.36583e+06	-42639.1	955.818	-29782.6	0.000000	0.000000	6.833068	-0.010070	NaN	0.000000	0.001593	0.001676	28.0806	0.100168	0.001925	52.0222	-173.185	13.7917	-0.046737	0.831299	-0.265643	-0.266986	-0.010070	52.0222	-0.265497	-1422.26	7.080344E-6	NaN
80	1.000000	0.842656	7.36583e+06	-42639.1	955.818	-29782.6	0.000000	0.000000	6.843081	-0.017640	NaN	0.000000	0.001628	0.001680	28.0838	0.067559	0.002067	32.6776	-178.727	-167.356	-0.019688	0.841328	-0.255629	-0.256957	-0.017640	32.6776	-0.255224	-989.852	1.782063E-5	NaN
80	1.000000	0.852668	7.36583e+06	-42639.1	955.818	-29782.6	0.000000	0.000000	6.853095	0.010527	NaN	0.000000	0.001616	0.001667	28.1213	0.059180	0.002036	29.0631	-57.5206	14.5261	0.036158	0.851312	-0.245617	-0.246973	0.010527	29.0631	-0.245889	-709.998	-1.482680E-5	NaN
80	1.000000	0.862692	7.36583e+06	-42639.1	955.819	-29782.6	0.000000	0.000000	6.863118	0.002940	NaN	0.000000	0.001641	0.001684	28.1133	0.034022	0.001964	17.3232	-45.7315	-163.028	0.005733	0.861378	-0.235593	-0.236907	0.002940	17.3232	-0.235720	-492.671	-5.966511E-6	NaN
80	1.000000	0.872667	7.36583e+06	-42639.1	955.819	-29782.6	0.000000	0.000000	6.873092	-0.023633	NaN	0.000000	0.001699	0.001705	28.0812	0.080799	0.002051	39.4018	120.614	13.8605	-0.064490	0.871310	-0.225619	-0.226975	-0.023633	39.4018	-0.225169	-335.748	7.039056E-5	NaN
80	1.000000	0.882662	7.36583e+06	-42639.1	955.818	-29782.6	0.000000	0.000000	6.883091	0.086252	NaN	0.000000	0.001685	0.001689	28.0835	0.036866	0.001868	19.7307	-169.204	-166.229	0.067552	0.881375	-0.215623	-0.216910	0.086252	19.7307	-0.218902	-266.758	-0.000323	NaN
80	1.000000	0.892697	7.36583e+06	-42639.1	955.819	-29782.6	0.000000	0.000000	6.893123	-0.014753	NaN	0.000000	0.001700	0.001720	28.1227	0.104373	0.001877	55.6133	-160.5	15.6262	-0.004919	0.891299	-0.205588	-0.206987	-0.014753	55.6133	-0.205389	-161.398	9.140588E-5	NaN
80	1.000000	0.902679	7.36583e+06	-42639.1	955.819	-29782.6	0.000000	0.000000	6.903107	0.042821	NaN	0.000000	0.001686	0.001737	28.1138	0.083642	0.002001	41.7956	121.163	-171.888	0.049569	0.901394	-0.195606	-0.196891	0.042821	41.7956	-0.196374	-114.799	-0.000373	NaN
80	1.000000	0.912675	7.36583e+06	-42639.1	955.818	-29782.6	0.000000	0.000000	6.913102	0.022609	NaN	0.000000	0.001685	0.001705	28.0818	0.040115	0.001986	20.1963	61.398	10.9541	-0.036693	0.911346	-0.185610	-0.186939	0.022609	20.1963	-0.186450	-78.4396	-0.000288	NaN
80	1.000000	0.922673	7.36583e+06	-42639.1	955.818	-29782.6	0.000000	0.000000	6.923100	0.018867	NaN	0.000000	0.001694	0.001696	28.0848	0.094180	0.001887	49.903	-127.794	-167.61	0.093853	0.921444	-0.175612	-0.176841	0.018867	49.903	-0.175896	-51.9225	-0.000363	NaN
80	1.000000	0.932701	7.36583e+06	-42639.1	955.819	-29782.6	0.000000	0.000000	6.933125	-0.035923	NaN	0.000000	0.001713	0.001711	28.1226	0.107770	0.001900	56.71	-113.589	12.639	0.022672	0.931340	-0.165584	-0.166945	-0.035923	56.71	-0.165109	-33.7462	0.001065	NaN
80	1.000000	0.942696	7.36583e+06	-42639.1	955.818	-29782.6	0.000000	0.000000	6.943124	0.047350	NaN	0.000000	0.001716	0.001705	28.1154	0.120890	0.002044	59.1576	-17.6355	-167.156	0.006359	0.941386	-0.155589	-0.156899	0.047350	59.1576	-0.156190	-23.4399	-0.002020	NaN
80	1.000000	0.952705	7.36583e+06	-42639.1	955.818	-29782.6	0.000000	0.000000	6.953134	0.055233	NaN	0.000000	0.001697	0.001661	28.0829	0.044426	0.002033	21.8509	-82.0095	12.7573	0.083326	0.951365	-0.145580	-0.146920	0.055233	21.8509	-0.147476	-16.2855	-0.003392	NaN
80	1.000000	0.962713	7.36583e+06	-42639.1	955.817	-29782.6	0.000000	0.000000	6.963135	-0.085393	NaN	0.000000	0.001680	0.001690	28.0856	0.022669	0.002012	11.267	153.336	-162.93	-0.108654	0.961444	-0.135572	-0.136841	-0.085393	11.267	-0.129888	-7.582916	0.011261	NaN
80	1.000000	0.972688	7.36583e+06	-42639.1	955.818	-29782.6	0.000000	0.000000	6.973115	0.002209	NaN	0.000000	0.001714	0.001715	28.1228	0.012632	0.001870	6.755977	27.1136	13.5402	0.004482	0.971358	-0.125597	-0.126927	0.002209	6.755977	-0.125842	-6.318668	-0.000350	NaN
80	1.000000	0.982703	7.36583e+06	-42639.1	955.818	-29782.6	0.000000	0.000000	6.983128	-0.033210	NaN	0.000000	0.001664	0.001690	28.1164	0.050462	0.001961	25.7277	-101.022	-163.182	-0.013402	0.981382	-0.115582	-0.116903	-0.033210	25.7277	-0.114614	-3.750979	0.008854	NaN
80	1.000000	0.992707	7.36583e+06	-42639.1	955.818	-29782.6	0.000000	0.000000	6.993132	-0.023571	NaN	0.000000	0.001639	0.001687	28.0804	0.067398	0.001900	35.4775	152.508	11.049	0.030608	0.991345	-0.105578	-0.106940	-0.023571	35.4775	-0.105080	-2.359951	0.009988	NaN
80	1.000000	1.002712	7.36583e+06	-42639.1	955.818	-29782.6	0.000000	0.000000	7.003139	0.024009	NaN	0.000000	0.001615	0.001704	28.0835	0.148609	0.002118	70.1607	70.2464	-165.19	-0.039419	1.001378	-0.095573	-0.096907	0.024009	70.1607	-0.095830	-1.473240	-0.016297	NaN
80	1.000000	1.012741	7.36583e+06	-42639.1	955.818	-29782.6	0.000000	0.000000	7.013164	-0.067566	NaN	0.000000	0.001631	0.001696	28.1217	0.053706	0.001965	27.3352	-65.3003	14.1493	-0.060347	1.011382	-0.085544	-0.086903	-0.067566	27.3352	-0.083691	-0.763579	0.088486	NaN
80	1.000000	1.022750	7.36583e+06	-42639.1	955.818	-29782.6	0.000000	0.000000	7.023177	0.015851	NaN	0.000000	0.001622	0.001695	28.1153	0.109877	0.002059	53.3545	48.7057	-165.52	0.015729	1.021430	-0.075535	-0.076855	0.015851	53.3545	-0.075757	-0.483132	-0.032810	NaN
80	1.000000	1.032725	7.36583e+06	-42639.1	955.819	-29782.6	0.000000	0.000000	7.033151	-0.015111	NaN	0.000000	0.001600	0.001709	28.0818	0.017415	0.002157	8.074148	56.2073	12.1701	0.039597	1.031421	-0.065560	-0.066864	-0.015111	8.074148	-0.064156	-0.236107	0.064000	NaN
80	1.000000	1.042705	7.36583e+06	-42639.1	955.819	-29782.6	0.000000	0.000000	7.043131	-0.002461	NaN	0.000000	0.001621	0.001712	28.0843	0.025688	0.001830	14.035	40.5157	-165.91	-0.044018	1.041460	-0.055580	-0.056825	-0.002461	14.035	-0.055449	-0.132768	0.018534	NaN
80	1.000000	1.052754	7.36583e+06	-42639.1	955.819	-29782.6	0.000000	0.000000	7.053180	-0.002260	NaN	0.000000	0.001620	0.001691	28.1209	0.084883	0.001868	45.4404	-53.2501	15.1197	-0.100778	1.051378	-0.045531	-0.046907	-0.002260	45.4404	-0.045494	-0.066541	0.033962	NaN
80	1.000000	1.062763	7.36583e+06	-42639.1	955.819	-29782.6	0.000000	0.000000	7.063191	0.036960	NaN	0.000000	0.001651	0.001663	28.1146	0.119174	0.001969	60.5208	141.527	-166.507	-0.016357	1.061465	-0.035522	-0.036820	0.036960	60.5208	-0.035980	-0.034235	-1.079602	NaN
80	1.000000	1.072770	7.36583e+06	-42639.1	955.818	-29782.6	0.000000	0.000000	7.073197	0.018760	NaN	0.000000	0.001639	0.001694	28.0789	0.085402	0.001981	43.1204	-49.6689	14.2531	0.115205	1.071371	-0.025515	-0.026914	0.018760	43.1204	-0.025841	-0.017750	-1.056900	NaN
80	1.000000	1.082745	7.36583e+06	-42639.1	955.818	-29782.6	0.000000	0.000000	7.083170	-0.028059	NaN	0.000000	0.001640	0.001676	28.0821	0.052254	0.002022	25.8468	157.154	-167.1	-0.094026	1.081435	-0.015540	-0.016850	-0.028059	25.8468	-0.014726	-0.009112	3.079419	NaN
80	1.000000	1.092741	7.36583e+06	-42639.1	955.818	-29782.6	0.000000	0.000000	7.093165	-0.060589	NaN	0.000000	0.001618	0.001629	28.1198	0.050871	0.002031	25.0461	42.2776	10.6576	-0.046061	1.091413	-0.005544	-0.006872	-0.060589	25.0461	-0.003730	-0.002603	23.2753	NaN
80	1.000000	1.102727	7.36583e+06	-42639.1	955.819	-29782.6	0.000000	0.000000	7.103267	2.767621	NaN	0.000000	0.001697	0.001682	28.1136	3.316515	0.001904	1741.73	6.529498	-170.122	1.283328	1.101426	0.004442	0.003141	2.767621	1741.73	0.003250	0.002592	1067.87	31257.9
80	2.000000	1.109816	7.36583e+06	-42639.1	955.819	-29782.6	0.000000	0.000000	7.110609	8.923344	NaN	0.000000	0.001655	0.001644	28.0818	9.425988	0.001586	5944.04	6.311399	7.509655	8.683660	1.109490	0.011531	0.011205	8.923344	5944.04	0.010405	0.009635	926.118	55325.4
80	2.000000	1.112288	7.36583e+06	-42639.1	955.819	-29782.6	0.000000	0.000000	7.113217	12.2328	NaN	0.000000	0.001651	0.001659	28.084	12.685	0.001874	6769.92	8.166141	-176.462	11.5269	1.111990	0.014002	0.013705	12.2328	6769.92	0.012647	0.012275	996.589	55828
80	2.000000	1.114776	7.36583e+06	-42639.1	955.819	-29782.6	0.000000	0.000000	7.115868	16.1985	NaN	0.000000	0.001650	0.001690	28.121	15.0145	0.001722	8719.84	7.531519	2.813567	15.4878	1.114430	0.016490	0.016145	16.1985	8719.84	0.015097	0.015415	1050.81	64166.2
80	2.000000	1.117254	7.36583e+06	-42639.1	955.819	-29782.6	0.000000	0.000000	7.118515	20.3075	NaN	0.000000	0.001627	0.001666	28.1152	17.3159	0.001755	9867.06	7.615326	-177.377	20.1567	1.116904	0.018969	0.018619	20.3075	9867.06	0.017425	0.018657	1088.48	65999.8
80	2.000000	1.119710	7.36583e+06	-42639.1	955.82	-29782.6	0.000000	0.000000	7.121226	26.5054	NaN	0.000000	0.001640	0.001693	28.0809	20.6474	0.001797	11492.5	7.429898	-0.920098	24.2289	1.119349	0.021425	0.021064	26.5054	11492.5	0.019695	0.022066	1201.21	70685.7
80	2.000000	1.122176	7.36583e+06	-42639.1	955.818	-29782.6	0.000000	0.000000	7.123998	33.9791	NaN	0.000000	0.001665	0.001695	28.0823	22.3369	0.001716	13016.5	2.326783	-175.583	32.4419	1.121864	0.023891	0.023578	33.9791	13016.5	0.021933	0.025671	1323.64	74224.4
80	2.000000	1.124726	7.36583e+06	-42639.1	955.818	-29782.6	0.000000	0.000000	7.126828	40.7841	NaN	0.000000	0.001664	0.001707	28.1198	25.3804	0.001817	13966.3	8.691733	-2.326359	39.8273	1.124324	0.026441	0.026039	40.7841	13966.3	0.024251	0.029666	1374.76	74083.9
80	2.000000	1.127220	7.36583e+06	-42639.1	955.818	-29782.6	0.000000	0.000000	7.129659	48.9654	NaN	0.000000	0.001615	0.001682	28.1142	28.06	0.001821	15409	10.1873	176.68	49.1424	1.126798	0.028935	0.028513	48.9654	15409	0.026552	0.033899	1444.44	76463.1
80	2.000000	1.129677	7.36583e+06	-42639.1	955.819	-29782.6	0.000000	0.000000	7.132219	51.4736	NaN	0.000000	0.001572	0.001674	28.0813	30.5688	0.001705	17926.6	5.461025	-2.101522	50.2049	1.129472	0.031392	0.031187	51.4736	17926.6	0.029239	0.039181	1313.74	82743.6
80	2.000000	1.132269	7.36583e+06	-42639.1	955.817	-29782.6	0.000000	0.000000	7.135075	57.9016	NaN	0.000000	0.001581	0.001705	28.0832	33.3467	0.001764	18904.4	3.200871	-179.857	61.6553	1.131924	0.033984	0.033638	57.9016	18904.4	0.031687	0.044313	1306.66	82049
80	2.000000	1.134678	7.36583e+06	-42639.1	955.819	-29782.6	0.000000	0.000000	7.138032	71.2311	NaN	0.000000	0.001570	0.001686	28.1218	35.7199	0.001770	20179.9	7.695443	-5.186760	69.6368	1.134309	0.036393	0.036024	71.2311	20179.9	0.033746	0.048866	1457.67	83404.1
80	2.000000	1.137202	7.36583e+06	-42639.1	955.818	-29782.6	0.000000	0.000000	7.140781	76.7137	NaN	0.000000	0.001618	0.001717	28.1166	36.7627	0.001857	19792.9	5.124560	178.785	76.1057	1.136841	0.038917	0.038555	76.7137	19792.9	0.036010	0.054124	1417.38	77730.3
80	2.000000	1.139636	7.36583e+06	-42639.1	955.818	-29782.6	0.000000	0.000000	7.143641	87.0824	NaN	0.000000	0.001599	0.001681	28.0813	39.799	0.001779	22367.9	2.324177	-1.314850	83.6643	1.139356	0.041351	0.041071	87.0824	22367.9	0.038431	0.060036	1450.5	83404.8
80	2.000000	1.142167	7.36583e+06	-42639.1	955.819	-29782.6	0.000000	0.000000	7.146470	94.3259	NaN	0.000000	0.001593	0.001696	28.0835	42.9834	0.001726	24906.7	3.926838	176.185	92.7506	1.141944	0.043882	0.043658	94.3259	24906.7	0.041041	0.066747	1413.18	88079.1
80	2.000000	1.144738	7.36583e+06	-42639.1	955.819	-29782.6	0.000000	0.000000	7.149574	107.275	NaN	0.000000	0.001581	0.001743	28.1204	44.7206	0.001773	25230	4.646295	-2.573124	108.504	1.144271	0.046453	0.045986	107.275	25230	0.043264	0.072736	1474.84	85470
80	2.000000	1.147195	7.36583e+06	-42639.1	955.818	-29782.6	0.000000	0.000000	7.152454	117.584	NaN	0.000000	0.001574	0.001693	28.1164	46.1644	0.001721	26831.1	3.568868	177.743	117.089	1.146810	0.048910	0.048525	117.584	26831.1	0.045623	0.079366	1481.55	87015.4
80	2.000000	1.149686	7.36583e+06	-42639.1	955.819	-29782.6	0.000000	0.000000	7.155212	124.061	NaN	0.000000	0.001546	0.001664	28.0826	50.2937	0.001730	29074.4	8.174148	-8.953202	123.379	1.149444	0.051401	0.051159	124.061	29074.4	0.048201	0.086934	1427.07	90092.5
80	2.000000	1.152177	7.36583e+06	-42639.1	955.818	-29782.6	0.000000	0.000000	7.158222	136.714	NaN	0.000000	0.001563	0.001689	28.0841	53.5041	0.001862	28733.5	7.575375	171.937	136.357	1.151910	0.053892	0.053625	136.714	28733.5	0.050323	0.093414	1463.52	85892.5
80	2.000000	1.154672	7.36583e+06	-42639.1	955.819	-29782.6	0.000000	0.000000	7.161372	152.645	NaN	0.000000	0.001600	0.001673	28.1215	55.3278	0.001845	29981.2	7.832423	-8.662761	150.934	1.154242	0.056387	0.055957	152.645	29981.2	0.052569	0.100518	1518.58	86397
80	2.000000	1.157164	7.36583e+06	-42639.1	955.818	-29782.6	0.000000	0.000000	7.164410	165.938	NaN	0.000000	0.001593	0.001698	28.1171	57.2217	0.001794	31902.4	7.393680	172.89	166.148	1.156815	0.058879	0.058530	165.938	31902.4	0.054978	0.108418	1530.54	88520.8
80	2.000000	1.159646	7.36583e+06	-42639.1	955.819	-29782.6	0.000000	0.000000	7.167420	178.769	NaN	0.000000	0.001591	0.001670	28.0811	60.0312	0.001822	32947.8	3.728435	-4.787420	176.379	1.159296	0.061361	0.061011	178.769	32947.8	0.057292	0.116277	1537.44	88278
80	2.000000	1.162098	7.36583e+06	-42639.1	955.818	-29782.6	0.000000	0.000000	7.170512	194.364	NaN	0.000000	0.001614	0.001649	28.0818	62.2461	0.001763	35306.2	2.569871	175.832	191.209	1.161786	0.063813	0.063501	194.364	35306.2	0.059684	0.124677	1558.94	91354.6
80	2.000000	1.164641	7.36583e+06	-42639.1	955.819	-29782.6	0.000000	0.000000	7.173795	212.351	NaN	0.000000	0.001611	0.001671	28.1188	64.2813	0.001838	34972.6	7.663768	-8.250929	209.99	1.164251	0.066356	0.065966	212.351	34972.6	0.061802	0.132350	1604.46	87829.1
80	2.000000	1.167151	7.36583e+06	-42639.1	955.818	-29782.6	0.000000	0.000000	7.176900	226.847	NaN	0.000000	0.001614	0.001656	28.1152	65.6663	0.001763	37240.7	3.371664	174.852	224.979	1.166739	0.068866	0.068454	226.847	37240.7	0.064297	0.141666	1601.27	90397.7
80	2.000000	1.169603	7.36583e+06	-42639.1	955.819	-29782.6	0.000000	0.000000	7.179729	236.002	NaN	0.000000	0.001618	0.001623	28.0818	69.6621	0.001811	38459.7	4.580994	-6.383334	233.724	1.169272	0.071318	0.070987	236.002	38459.7	0.066716	0.150987	1563.07	90429.5
80	2.000000	1.172020	7.36583e+06	-42639.1	955.819	-29782.6	0.000000	0.000000	7.182561	246.102	NaN	0.000000	0.001605	0.001656	28.0821	71.7782	0.001864	38513.7	-0.316483	178.025	239.87	1.171876	0.073734	0.073591	246.102	38513.7	0.068942	0.159811	1539.96	88020.9
80	2.000000	1.174705	7.36583e+06	-42639.1	955.82	-29782.6	0.000000	0.000000	7.186067	266.073	NaN	0.000000	0.001613	0.001646	28.12	73.9282	0.001871	39508.3	2.807879	-5.403671	264.866	1.174307	0.076420	0.076022	266.073	39508.3	0.071369	0.169700	1567.9	87623.5
80	2.000000	1.177159	7.36583e+06	-42639.1	955.82	-29782.6	0.000000	0.000000	7.189313	285.343	NaN	0.000000	0.001576	0.001684	28.1166	76.3735	0.001747	43727.6	6.651551	170.485	286.353	1.176776	0.078874	0.078491	285.343	43727.6	0.073980	0.180654	1579.5	93995.1
80	2.000000	1.179613	7.36583e+06	-42639.1	955.819	-29782.6	0.000000	0.000000	7.192467	302.382	NaN	0.000000	0.001604	0.001671	28.0802	78.8723	0.001758	44855.8	3.525821	-7.270586	298.691	1.179228	0.081328	0.080943	302.382	44855.8	0.076272	0.190533	1587.04	93887.3
80	2.000000	1.182034	7.36583e+06	-42639.1	955.819	-29782.6	0.000000	0.000000	7.195363	313.945	NaN	0.000000	0.001581	0.001664	28.0817	81.2737	0.001809	44937.6	-0.890744	176.893	307.718	1.181759	0.083749	0.083474	313.945	44937.6	0.078509	0.200414	1566.48	91710.5
80	2.000000	1.184707	7.36583e+06	-42639.1	955.82	-29782.6	0.000000	0.000000	7.199011	337.664	NaN	0.000000	0.001571	0.001662	28.1184	84.1989	0.001908	44131.3	5.189145	-8.456933	340.15	1.184360	0.086422	0.086075	337.664	44131.3	0.080684	0.210242	1606.07	87934.6
80	2.000000	1.187065	7.36583e+06	-42639.1	955.821	-29782.6	0.000000	0.000000	7.202006	353.169	NaN	0.000000	0.001583	0.001670	28.1153	84.7403	0.001962	43189.4	3.673368	172.709	349.975	1.186802	0.088780	0.088517	353.169	43189.4	0.082647	0.219303	1610.41	84261.1
80	2.000000	1.189588	7.36583e+06	-42639.1	955.82	-29782.6	0.000000	0.000000	7.205230	370.194	NaN	0.000000	0.001599	0.001662	28.0807	88.4086	0.001887	46844.6	2.084725	-5.611900	367.998	1.189098	0.091303	0.090813	370.194	46844.6	0.085376	0.232200	1594.29	88818
80	2.000000	1.192232	7.36583e+06	-42639.1	955.82	-29782.6	0.000000	0.000000	7.208453	384.315	NaN	0.000000	0.001582	0.001662	28.0814	90.1794	0.001791	50350.5	4.543349	171.495	390.739	1.191923	0.093947	0.093638	384.315	50350.5	0.088222	0.246011	1562.19	92747
80	2.000000	1.194673	7.36583e+06	-42639.1	955.82	-29782.6	0.000000	0.000000	7.211783	405.913	NaN	0.000000	0.001596	0.001626	28.1196	92.1751	0.001828	50414.9	5.637547	-9.991184	406.172	1.194404	0.096388	0.096119	405.913	50414.9	0.090350	0.256581	1582.01	90932.7
80	2.000000	1.196967	7.36583e+06	-42639.1	955.82	-29782.6	0.000000	0.000000	7.215047	429.535	NaN	0.000000	0.001595	0.001619	28.1181	93.6607	0.001784	52494.7	2.669408	172.554	420.832	1.196668	0.098681	0.098383	429.535	52494.7	0.092545	0.267702	1604.53	92696.3
80	2.000000	1.199569	7.36583e+06	-42639.1	955.82	-29782.6	0.000000	0.000000	7.218630	453.399	NaN	0.000000	0.001580	0.001630	28.0815	97.1473	0.001843	52719.2	5.899684	-10.0362	448.399	1.199245	0.101284	0.100960	453.399	52719.2	0.094834	0.279536	1621.97	91101
80	2.000000	1.202100	7.36583e+06	-42639.1	955.821	-29782.6	0.000000	0.000000	7.221981	473.34	NaN	0.000000	0.001561	0.001649	28.0825	98.046	0.001712	57285.7	3.404452	171.494	471.148	1.201807	0.103815	0.103522	473.34	57285.7	0.097618	0.294252	1608.62	96485
80	2.000000	1.204702	7.36583e+06	-42639.1	955.82	-29782.6	0.000000	0.000000	7.225123	486.476	NaN	0.000000	0.001634	0.001650	28.12	100.002	0.001722	58068.4	1.705289	-6.683963	488.84	1.204435	0.106417	0.106150	486.476	58068.4	0.100134	0.307849	1580.24	95619
80	2.000000	1.206999	7.36583e+06	-42639.1	955.819	-29782.6	0.000000	0.000000	7.228746	518.749	NaN	0.000000	0.001641	0.001648	28.1173	102.522	0.001839	55744.7	4.972138	170.4	512.06	1.206742	0.108714	0.108457	518.749	55744.7	0.101734	0.316651	1638.24	90507.9