File: remote_trans/data/nanoindenter/0828-1/data/Data_2025-08-06,11h17m57s/2025-07-22_16-23-58_1_547.txt
2025-07-22, 16:23:58, 1
Index	Phase	Displacement	Time	Pos X	Pos Y	Pos Z	Rot A	Rot B	Piezo Z	Force A	Force B	Gripper	Voltage A	Voltage B	Temperature	Amplitude force	Amplitude pos	Stiffness	Phase shift	Phase excitation	Force A raw	Displacement raw	HMax	HMax raw	Real Force	Real Stiffness	Contact Depth	Area	Hardness	Reduced Mod.
[#]	[#]	[um]	[s]	[um]	[um]	[um]	[m°]	[m°]	[um]	[uN]	[uN]	[V]	[V]	[V]	[°C]	[uN]	[um]	[N/m]	[°]	[°]	[uN]	[um]	[um]	[um]	[uN]	[N/m]	[um]	[um^2]	[MPa]	[MPa]
547	1.000000	0.002400	7.3704e+06	-49739.1	1005.82	-29757.9	0.000000	0.000000	6.002782	-0.001747	NaN	0.000000	0.001668	0.001792	28.0816	0.085710	0.001032	83.0733	-162.543	-165.366	0.040676	0.001151	-1.129669	-1.130917	-0.001747	83.0733	-1.129653	-1.253053E+15	1.393910E-18	NaN
547	1.000000	0.012492	7.3704e+06	-49739.1	1005.82	-29757.9	0.000000	0.000000	6.012870	-0.086231	NaN	0.000000	0.001689	0.001769	28.0809	0.082056	0.001282	64.0129	123.65	16.6774	-0.014785	0.011039	-1.119577	-1.121030	-0.086231	64.0129	-1.118566	-8.896840E+14	9.692334E-17	NaN
547	1.000000	0.022367	7.3704e+06	-49739.1	1005.82	-29757.9	0.000000	0.000000	6.022748	-0.016937	NaN	0.000000	0.001690	0.001754	28.0812	0.045910	0.001756	26.1397	-56.2954	-165.577	-0.028373	0.021021	-1.109702	-1.111048	-0.016937	26.1397	-1.109216	-6.664538E+14	2.541288E-17	NaN
547	1.000000	0.032379	7.3704e+06	-49739.1	1005.82	-29757.9	0.000000	0.000000	6.032763	0.051066	NaN	0.000000	0.001695	0.001755	28.0813	0.068509	0.001880	36.4451	-21.1385	12.0379	0.134011	0.030990	-1.099690	-1.101079	0.051066	36.4451	-1.100740	-5.128699E+14	-9.956848E-17	NaN
547	1.000000	0.042328	7.3704e+06	-49739.1	1005.82	-29757.9	0.000000	0.000000	6.042709	-0.003128	NaN	0.000000	0.001719	0.001749	28.0812	0.081265	0.002040	39.8396	103.913	-167.791	0.043476	0.041113	-1.089741	-1.090956	-0.003128	39.8396	-1.089682	-3.643739E+14	8.583949E-18	NaN
547	1.000000	0.052365	7.3704e+06	-49739.1	1005.82	-29757.9	0.000000	0.000000	6.052748	0.023946	NaN	0.000000	0.001647	0.001764	28.081	0.030419	0.002094	14.5274	-62.4235	9.997614	0.021551	0.051022	-1.079704	-1.081047	0.023946	14.5274	-1.080940	-2.780652E+14	-8.611482E-17	NaN
547	1.000000	0.062356	7.3704e+06	-49739.1	1005.82	-29757.9	0.000000	0.000000	6.062738	-0.002644	NaN	0.000000	0.001626	0.001766	28.0809	0.080775	0.002004	40.3102	164.876	-165.079	-0.001251	0.061087	-1.069712	-1.070982	-0.002644	40.3102	-1.069663	-1.961843E+14	1.347823E-17	NaN
547	1.000000	0.072365	7.3704e+06	-49739.1	1005.82	-29757.9	0.000000	0.000000	6.072750	0.083713	NaN	0.000000	0.001621	0.001777	28.0813	0.084493	0.002020	41.8321	-100.824	10.6312	-0.039956	0.071042	-1.059704	-1.061027	0.083713	41.8321	-1.061205	-1.510129E+14	-5.543406E-16	NaN
547	1.000000	0.082377	7.3704e+06	-49739.1	1005.82	-29757.9	0.000000	0.000000	6.082757	-0.031056	NaN	0.000000	0.001664	0.001766	28.0812	0.074364	0.001916	38.8117	-61.7694	-165.358	-0.008095	0.081057	-1.049692	-1.051012	-0.031056	38.8117	-1.049092	-1.038024E+14	2.991805E-16	NaN
547	1.000000	0.092366	7.3704e+06	-49739.1	1005.82	-29757.9	0.000000	0.000000	6.092749	0.035881	NaN	0.000000	0.001616	0.001740	28.0811	0.016094	0.001966	8.186128	-23.211	10.9525	0.045139	0.091045	-1.039703	-1.041024	0.035881	8.186128	-1.042990	-8.593478E+13	-4.175332E-16	NaN
547	1.000000	0.102378	7.3704e+06	-49739.1	1005.82	-29757.9	0.000000	0.000000	6.102763	0.078667	NaN	0.000000	0.001585	0.001745	28.0812	0.090477	0.002209	40.9644	-162.64	-163.724	0.066560	0.101031	-1.029691	-1.031038	0.078667	40.9644	-1.031131	-5.952412E+13	-1.321598E-15	NaN
547	1.000000	0.112356	7.3704e+06	-49739.1	1005.82	-29757.9	0.000000	0.000000	6.112742	0.109040	NaN	0.000000	0.001563	0.001765	28.0827	0.038178	0.002015	18.9455	135.298	14.3518	0.110132	0.111086	-1.019713	-1.020983	0.109040	18.9455	-1.024029	-4.777071E+13	-2.282564E-15	NaN
547	1.000000	0.122374	7.3704e+06	-49739.1	1005.82	-29757.9	0.000000	0.000000	6.122758	0.060863	NaN	0.000000	0.001592	0.001819	28.0824	0.035746	0.001955	18.2819	75.2419	-164.382	-0.017087	0.121012	-1.009695	-1.011057	0.060863	18.2819	-1.012192	-3.310394E+13	-1.838545E-15	NaN
547	1.000000	0.132393	7.3704e+06	-49739.1	1005.82	-29757.9	0.000000	0.000000	6.132774	0.003722	NaN	0.000000	0.001616	0.001786	28.0821	0.069289	0.001812	38.2403	-76.1671	13.2911	0.033412	0.131066	-0.999676	-1.001003	0.003722	38.2403	-0.999749	-2.251098E+13	-1.653635E-16	NaN
547	1.000000	0.142380	7.3704e+06	-49739.1	1005.82	-29757.9	0.000000	0.000000	6.142761	0.002478	NaN	0.000000	0.001638	0.001812	28.0826	0.056689	0.001963	28.8844	-135.176	-165.248	-0.031991	0.141034	-0.989689	-0.991035	0.002478	28.8844	-0.989753	-1.651167E+13	-1.500535E-16	NaN
547	1.000000	0.152392	7.3704e+06	-49739.1	1005.82	-29757.9	0.000000	0.000000	6.152776	0.061249	NaN	0.000000	0.001638	0.001803	28.0824	0.060722	0.001886	32.1929	17.6007	13.4586	0.096931	0.151037	-0.979677	-0.981032	0.061249	32.1929	-0.981103	-1.262631E+13	-4.850898E-15	NaN
547	1.000000	0.162414	7.3704e+06	-49739.1	1005.82	-29757.9	0.000000	0.000000	6.162798	0.048559	NaN	0.000000	0.001644	0.001835	28.0824	0.093591	0.001994	46.9267	59.944	-165.481	-0.011520	0.161085	-0.969655	-0.970983	0.048559	46.9267	-0.970431	-9.067180E+12	-5.355439E-15	NaN
547	1.000000	0.172403	7.3704e+06	-49739.1	1005.82	-29757.9	0.000000	0.000000	6.172790	0.139212	NaN	0.000000	0.001638	0.001785	28.0823	0.053792	0.002105	25.559	-95.816	13.7981	0.061384	0.171036	-0.959666	-0.961033	0.139212	25.559	-0.963751	-7.369541E+12	-1.889017E-14	NaN
547	1.000000	0.182418	7.3704e+06	-49739.1	1005.82	-29757.9	0.000000	0.000000	6.182800	-0.000329	NaN	0.000000	0.001622	0.001817	28.0827	0.084598	0.002007	42.1546	32.0675	-168.626	-0.053173	0.181092	-0.949650	-0.950977	-0.000329	42.1546	-0.949645	-4.755920E+12	6.927801E-17	NaN
547	1.000000	0.192432	7.3704e+06	-49739.1	1005.82	-29757.9	0.000000	0.000000	6.192816	0.069634	NaN	0.000000	0.001620	0.001818	28.0825	0.033948	0.002022	16.7918	51.4522	12.7842	0.024715	0.191057	-0.939637	-0.941012	0.069634	16.7918	-0.942747	-3.838825E+12	-1.813950E-14	NaN
547	1.000000	0.202413	7.3704e+06	-49739.1	1005.82	-29757.9	0.000000	0.000000	6.202797	0.051673	NaN	0.000000	0.001636	0.001820	28.0825	0.122168	0.002184	55.9493	69.6502	-167.144	0.014270	0.201120	-0.929656	-0.930949	0.051673	55.9493	-0.930348	-2.611538E+12	-1.978636E-14	NaN
547	1.000000	0.212412	7.3704e+06	-49739.1	1005.82	-29757.9	0.000000	0.000000	6.212794	0.007679	NaN	0.000000	0.001622	0.001768	28.0823	0.056161	0.001924	29.1915	-25.22	13.3058	-0.084485	0.211069	-0.919657	-0.921000	0.007679	29.1915	-0.919854	-1.884670E+12	-4.074319E-15	NaN
547	1.000000	0.222435	7.3704e+06	-49739.1	1005.82	-29757.9	0.000000	0.000000	6.222818	0.030399	NaN	0.000000	0.001604	0.001783	28.0828	0.102987	0.002067	49.8313	-3.709698	-163.087	0.063491	0.221056	-0.909633	-0.911012	0.030399	49.8313	-0.910091	-1.391206E+12	-2.185113E-14	NaN
547	1.000000	0.232412	7.3704e+06	-49739.1	1005.82	-29757.9	0.000000	0.000000	6.232793	-0.034992	NaN	0.000000	0.001587	0.001797	28.0825	0.034961	0.002022	17.288	-102.905	13.1292	-0.013330	0.231114	-0.899656	-0.900955	-0.034992	17.288	-0.898138	-9.592019E+11	3.648081E-14	NaN
547	1.000000	0.242455	7.3704e+06	-49739.1	1005.82	-29757.9	0.000000	0.000000	6.242837	0.012974	NaN	0.000000	0.001612	0.001783	28.0826	0.013569	0.002029	6.688675	108.972	-167.502	0.068368	0.241161	-0.889614	-0.890908	0.012974	6.688675	-0.891069	-7.697761E+11	-1.685448E-14	NaN
547	1.000000	0.252457	7.3704e+06	-49739.1	1005.82	-29757.9	0.000000	0.000000	6.252839	0.002882	NaN	0.000000	0.001621	0.001782	28.0825	0.055167	0.001984	27.8114	112.38	11.2298	0.011413	0.251128	-0.879612	-0.880940	0.002882	27.8114	-0.879690	-5.401446E+11	-5.335823E-15	NaN
547	1.000000	0.262442	7.3704e+06	-49739.1	1005.82	-29757.9	0.000000	0.000000	6.262821	-0.067243	NaN	0.000000	0.001578	0.001787	28.0815	0.115467	0.001969	58.6386	-178.546	-168.068	-0.055664	0.261124	-0.869627	-0.870945	-0.067243	58.6386	-0.868767	-3.843786E+11	1.749389E-13	NaN
547	1.000000	0.272442	7.3704e+06	-49739.1	1005.82	-29757.9	0.000000	0.000000	6.272822	-0.018058	NaN	0.000000	0.001615	0.001783	28.0814	0.045496	0.002063	22.054	148.806	18.5434	-0.030398	0.271110	-0.859627	-0.860959	-0.018058	22.054	-0.859013	-2.836379E+11	6.366484E-14	NaN
547	1.000000	0.282488	7.3704e+06	-49739.1	1005.82	-29757.9	0.000000	0.000000	6.282868	-0.036292	NaN	0.000000	0.001608	0.001782	28.0811	0.150919	0.002045	73.7842	-64.0475	-164.724	0.002307	0.281173	-0.849581	-0.850896	-0.036292	73.7842	-0.849212	-2.089638E+11	1.736771E-13	NaN
547	1.000000	0.292430	7.3704e+06	-49739.1	1005.82	-29757.9	0.000000	0.000000	6.292817	0.121964	NaN	0.000000	0.001614	0.001812	28.0815	0.132509	0.001951	67.9138	-174.3	15.8575	0.066581	0.291121	-0.839639	-0.840948	0.121964	67.9138	-0.840985	-1.616752E+11	-7.543795E-13	NaN
547	1.000000	0.302448	7.3704e+06	-49739.1	1005.82	-29757.9	0.000000	0.000000	6.302830	0.008637	NaN	0.000000	0.001695	0.001820	28.0813	0.125210	0.001916	65.351	133.673	-166.781	0.058504	0.301184	-0.829621	-0.830885	0.008637	65.351	-0.829720	-1.137608E+11	-7.592350E-14	NaN
547	1.000000	0.312460	7.3704e+06	-49739.1	1005.82	-29757.9	0.000000	0.000000	6.312840	-0.032720	NaN	0.000000	0.001673	0.001827	28.0813	0.050022	0.002108	23.7337	-61.5277	13.3	0.014475	0.311098	-0.819609	-0.820971	-0.032720	23.7337	-0.818575	-8.033086E+10	4.073155E-13	NaN
547	1.000000	0.322481	7.3704e+06	-49739.1	1005.82	-29757.9	0.000000	0.000000	6.322864	0.018498	NaN	0.000000	0.001648	0.001829	28.0814	0.031629	0.001935	16.3468	-59.0793	-167.86	-0.018223	0.321187	-0.809587	-0.810882	0.018498	16.3468	-0.810436	-6.230006E+10	-2.969241E-13	NaN
547	1.000000	0.332499	7.3704e+06	-49739.1	1005.82	-29757.9	0.000000	0.000000	6.332880	0.001878	NaN	0.000000	0.001655	0.001803	28.0817	0.027777	0.001863	14.9066	124.829	10.415	-0.037100	0.331128	-0.799570	-0.800940	0.001878	14.9066	-0.799665	-4.449490E+10	-4.220957E-14	NaN
547	1.000000	0.342482	7.3704e+06	-49739.1	1005.82	-29757.9	0.000000	0.000000	6.342865	0.035565	NaN	0.000000	0.001639	0.001786	28.0812	0.092013	0.001976	46.5544	-16.1314	-165.423	0.083671	0.341154	-0.789587	-0.790915	0.035565	46.5544	-0.790160	-3.305647E+10	-1.075899E-12	NaN
547	1.000000	0.352484	7.3704e+06	-49739.1	1005.82	-29757.9	0.000000	0.000000	6.352869	0.082335	NaN	0.000000	0.001649	0.001803	28.0813	0.110729	0.002055	53.8946	64.1794	10.9752	0.099691	0.351141	-0.779585	-0.780928	0.082335	53.8946	-0.780731	-2.461291E+10	-3.345188E-12	NaN
547	1.000000	0.362467	7.3704e+06	-49739.1	1005.82	-29757.9	0.000000	0.000000	6.362850	0.025542	NaN	0.000000	0.001666	0.001810	28.0814	0.028979	0.001995	14.5266	-48.5841	-167.804	-0.014704	0.361204	-0.769601	-0.770865	0.025542	14.5266	-0.770920	-1.810574E+10	-1.410734E-12	NaN
547	1.000000	0.372487	7.3704e+06	-49739.1	1005.82	-29757.9	0.000000	0.000000	6.372868	0.003980	NaN	0.000000	0.001675	0.001821	28.0814	0.085865	0.001949	44.0512	43.749	15.0361	0.027047	0.371190	-0.759582	-0.760879	0.003980	44.0512	-0.759650	-1.272158E+10	-3.128845E-13	NaN
547	1.000000	0.382503	7.3704e+06	-49739.1	1005.82	-29757.9	0.000000	0.000000	6.382884	-0.013016	NaN	0.000000	0.001674	0.001786	28.0814	0.012289	0.001977	6.216277	-135.633	-167.129	-0.027788	0.381250	-0.749566	-0.750819	-0.013016	6.216277	-0.747995	-8.829366E+9	1.474154E-12	NaN
547	1.000000	0.392479	7.3704e+06	-49739.1	1005.82	-29757.9	0.000000	0.000000	6.392862	0.033415	NaN	0.000000	0.001693	0.001787	28.0815	0.086336	0.001982	43.5614	-44.316	16.3851	-0.025029	0.391092	-0.739590	-0.740976	0.033415	43.5614	-0.740165	-6.907225E+9	-4.837689E-12	NaN
547	1.000000	0.402539	7.3704e+06	-49739.1	1005.82	-29757.9	0.000000	0.000000	6.402921	0.013046	NaN	0.000000	0.001661	0.001774	28.0828	0.106879	0.002146	49.7964	-145.667	-163.552	0.000969	0.401205	-0.729530	-0.730864	0.013046	49.7964	-0.729727	-4.978321E+9	-2.620468E-12	NaN
547	1.000000	0.412519	7.3704e+06	-49739.1	1005.82	-29757.9	0.000000	0.000000	6.412901	-0.002806	NaN	0.000000	0.001638	0.001811	28.0827	0.044875	0.002148	20.8886	90.7816	13.557	-0.036213	0.411173	-0.719550	-0.720896	-0.002806	20.8886	-0.719449	-3.605446E+9	7.782608E-13	NaN
547	1.000000	0.422516	7.3704e+06	-49739.1	1005.82	-29757.9	0.000000	0.000000	6.422901	0.082769	NaN	0.000000	0.001610	0.001795	28.0826	0.027449	0.002129	12.8923	-54.5711	-168.851	0.105202	0.421196	-0.709553	-0.710873	0.082769	12.8923	-0.714368	-3.073591E+9	-2.692897E-11	NaN
547	1.000000	0.432476	7.3704e+06	-49739.1	1005.82	-29757.9	0.000000	0.000000	6.432858	0.004216	NaN	0.000000	0.001664	0.001808	28.0825	0.095871	0.001947	49.2328	-12.9145	14.2568	0.044545	0.431176	-0.699592	-0.700893	0.004216	49.2328	-0.699657	-1.935720E+9	-2.178024E-12	NaN
547	1.000000	0.442541	7.3704e+06	-49739.1	1005.82	-29757.9	0.000000	0.000000	6.442923	0.015740	NaN	0.000000	0.001637	0.001776	28.0825	0.116341	0.001909	60.9449	30.3834	-165.013	0.041112	0.441276	-0.689528	-0.690793	0.015740	60.9449	-0.689721	-1.416151E+9	-1.111450E-11	NaN
547	1.000000	0.452562	7.3704e+06	-49739.1	1005.82	-29757.9	0.000000	0.000000	6.452947	0.075069	NaN	0.000000	0.001664	0.001739	28.0827	0.045772	0.001934	23.6725	179.007	12.7987	0.047551	0.451218	-0.679507	-0.680851	0.075069	23.6725	-0.681885	-1.106581E+9	-6.783879E-11	NaN
547	1.000000	0.462552	7.3704e+06	-49739.1	1005.82	-29757.9	0.000000	0.000000	6.462934	-0.004917	NaN	0.000000	0.001601	0.001758	28.0825	0.033956	0.002100	16.1731	-69.9429	-166.695	0.036658	0.461190	-0.669517	-0.670878	-0.004917	16.1731	-0.669289	-7.441377E+8	6.607852E-12	NaN
547	1.000000	0.472559	7.3704e+06	-49739.1	1005.82	-29757.9	0.000000	0.000000	6.472944	0.102902	NaN	0.000000	0.001657	0.001731	28.0828	0.004344	0.002080	2.088102	95.8319	9.332238	0.050219	0.471151	-0.659510	-0.660918	0.102902	2.088102	-0.696471	-1.751156E+9	-5.876236E-11	NaN
547	1.000000	0.482533	7.3704e+06	-49739.1	1005.82	-29757.9	0.000000	0.000000	6.482916	0.036797	NaN	0.000000	0.001602	0.001726	28.0824	0.103641	0.001877	55.2249	11.325	-169.349	-0.013353	0.481296	-0.649536	-0.650773	0.036797	55.2249	-0.650036	-4.054423E+8	-9.075686E-11	NaN
547	1.000000	0.492560	7.3704e+06	-49739.1	1005.82	-29757.9	0.000000	0.000000	6.492940	-0.040898	NaN	0.000000	0.001607	0.001770	28.0825	0.074025	0.002085	35.5006	47.7935	13.7856	0.079064	0.491150	-0.639508	-0.640918	-0.040898	35.5006	-0.638644	-2.829370E+8	1.445466E-10	NaN
547	1.000000	0.502544	7.3704e+06	-49739.1	1005.82	-29757.9	0.000000	0.000000	6.502925	-0.026428	NaN	0.000000	0.001618	0.001776	28.0824	0.069795	0.002150	32.4634	72.4057	-165.022	-0.063395	0.501223	-0.629525	-0.630845	-0.026428	32.4634	-0.628914	-2.080226E+8	1.270449E-10	NaN
547	1.000000	0.512583	7.3704e+06	-49739.1	1005.82	-29757.9	0.000000	0.000000	6.512964	-0.003200	NaN	0.000000	0.001594	0.001761	28.0828	0.020470	0.002013	10.1697	-63.4499	13.292	-0.040016	0.511209	-0.619486	-0.620860	-0.003200	10.1697	-0.619250	-1.532225E+8	2.088197E-11	NaN
547	1.000000	0.522554	7.3704e+06	-49739.1	1005.82	-29757.9	0.000000	0.000000	6.522935	-0.034539	NaN	0.000000	0.001590	0.001792	28.0825	0.155789	0.002069	75.291	163.781	-167.428	0.040667	0.521253	-0.609515	-0.610816	-0.034539	75.291	-0.609170	-1.113526E+8	3.101758E-10	NaN
547	1.000000	0.532580	7.3704e+06	-49739.1	1005.82	-29757.9	0.000000	0.000000	6.532963	0.038549	NaN	0.000000	0.001593	0.001767	28.0814	0.127032	0.002129	59.6808	-81.2319	17.3531	0.045587	0.531209	-0.599489	-0.600860	0.038549	59.6808	-0.599974	-8.319544E+7	-4.633588E-10	NaN
547	1.000000	0.542600	7.3704e+06	-49739.1	1005.82	-29757.9	0.000000	0.000000	6.542979	-0.061015	NaN	0.000000	0.001630	0.001762	28.0812	0.040507	0.002024	20.0118	17.062	-167.045	-0.047966	0.541268	-0.589469	-0.590801	-0.061015	20.0118	-0.587182	-5.543804E+7	1.100590E-9	NaN
547	1.000000	0.552562	7.3704e+06	-49739.1	1005.82	-29757.9	0.000000	0.000000	6.552944	-0.002645	NaN	0.000000	0.001625	0.001734	28.0816	0.025709	0.001857	13.8425	-141.076	10.9657	-0.022603	0.551213	-0.579507	-0.580856	-0.002645	13.8425	-0.579363	-4.324521E+7	6.116061E-11	NaN
547	1.000000	0.562586	7.3704e+06	-49739.1	1005.82	-29757.9	0.000000	0.000000	6.562967	-0.001022	NaN	0.000000	0.001591	0.001744	28.0812	0.058800	0.002157	27.2569	18.2191	-168.412	-0.093815	0.561277	-0.569483	-0.570792	-0.001022	27.2569	-0.569455	-3.155724E+7	3.239644E-11	NaN
547	1.000000	0.572584	7.3704e+06	-49739.1	1005.82	-29757.9	0.000000	0.000000	6.572970	0.093370	NaN	0.000000	0.001646	0.001751	28.0814	0.056786	0.002035	27.9045	87.5291	10.9588	0.043812	0.571166	-0.559485	-0.560903	0.093370	27.9045	-0.561994	-2.488647E+7	-3.751831E-9	NaN
547	1.000000	0.582577	7.3704e+06	-49739.1	1005.82	-29757.9	0.000000	0.000000	6.582959	0.015360	NaN	0.000000	0.001641	0.001750	28.0812	0.014252	0.001956	7.287238	-69.5906	-168.309	-0.006112	0.581291	-0.549492	-0.550778	0.015360	7.287238	-0.551073	-1.757172E+7	-8.741267E-10	NaN
547	1.000000	0.592613	7.3704e+06	-49739.1	1005.82	-29757.9	0.000000	0.000000	6.592995	-0.005300	NaN	0.000000	0.001636	0.001739	28.0816	0.128677	0.001988	64.7403	-104.264	14.7886	-0.006869	0.591232	-0.539456	-0.540837	-0.005300	64.7403	-0.539394	-1.210472E+7	4.378623E-10	NaN
547	1.000000	0.602619	7.3704e+06	-49739.1	1005.82	-29757.9	0.000000	0.000000	6.603000	-0.031554	NaN	0.000000	0.001634	0.001701	28.0815	0.040861	0.002039	20.0393	118.225	-166.53	0.024704	0.601312	-0.529450	-0.530757	-0.031554	20.0393	-0.528269	-8.48255e+06	3.719827E-9	NaN
547	1.000000	0.612595	7.3704e+06	-49739.1	1005.82	-29757.9	0.000000	0.000000	6.612978	0.027930	NaN	0.000000	0.001606	0.001737	28.0813	0.126156	0.002037	61.9273	-152.501	12.676	0.052621	0.611252	-0.519474	-0.520817	0.027930	61.9273	-0.519812	-6.47118e+06	-4.316119E-9	NaN
547	1.000000	0.622637	7.3704e+06	-49739.1	1005.82	-29757.9	0.000000	0.000000	6.623018	-0.029920	NaN	0.000000	0.001640	0.001736	28.0813	0.108961	0.001986	54.8601	-13.0025	-168.406	0.048744	0.621266	-0.509432	-0.510803	-0.029920	54.8601	-0.509023	-4.5793e+06	6.533644E-9	NaN
547	1.000000	0.632613	7.3704e+06	-49739.1	1005.82	-29757.9	0.000000	0.000000	6.632996	0.040319	NaN	0.000000	0.001635	0.001706	28.0814	0.020613	0.002094	9.844913	53.5649	11.3936	-0.071505	0.631255	-0.499456	-0.500813	0.040319	9.844913	-0.502528	-3.71768e+06	-1.084508E-8	NaN
547	1.000000	0.642650	7.3704e+06	-49739.1	1005.82	-29757.9	0.000000	0.000000	6.643032	0.027315	NaN	0.000000	0.001622	0.001719	28.0811	0.049533	0.002024	24.4788	31.3872	-166.561	0.035505	0.641335	-0.489419	-0.490734	0.027315	24.4788	-0.490256	-2.50595e+06	-1.090005E-8	NaN
547	1.000000	0.652613	7.3704e+06	-49739.1	1005.82	-29757.9	0.000000	0.000000	6.652994	-0.014233	NaN	0.000000	0.001655	0.001759	28.0812	0.008649	0.001997	4.332046	79.3398	13.4394	0.007085	0.651281	-0.479455	-0.480787	-0.014233	4.332046	-0.476991	-1.63455e+06	8.707657E-9	NaN
547	1.000000	0.662618	7.3704e+06	-49739.1	1005.82	-29757.9	0.000000	0.000000	6.662998	-0.052460	NaN	0.000000	0.001663	0.001723	28.0815	0.034141	0.001930	17.6866	146.378	-166.216	-0.050640	0.661271	-0.469451	-0.470797	-0.052460	17.6866	-0.467226	-1.19259e+06	4.398829E-8	NaN
547	1.000000	0.672615	7.3704e+06	-49739.1	1005.82	-29757.9	0.000000	0.000000	6.672998	0.022614	NaN	0.000000	0.001574	0.001752	28.0825	0.114653	0.002054	55.8279	-53.9132	14.9269	-0.017061	0.671295	-0.459454	-0.460774	0.022614	55.8279	-0.459757	-936720	-2.414140E-8	NaN
547	1.000000	0.682618	7.3704e+06	-49739.1	1005.82	-29757.9	0.000000	0.000000	6.683000	0.011806	NaN	0.000000	0.001652	0.001741	28.0825	0.032777	0.002040	16.0657	-17.7514	-168.19	-0.019800	0.681276	-0.449451	-0.450792	0.011806	16.0657	-0.450002	-682931	-1.728739E-8	NaN
547	1.000000	0.692650	7.3704e+06	-49739.1	1005.82	-29757.9	0.000000	0.000000	6.693031	-0.025740	NaN	0.000000	0.001637	0.001755	28.0826	0.108335	0.002000	54.1728	-40.5605	12.8977	-0.051252	0.691268	-0.439419	-0.440801	-0.025740	54.1728	-0.439062	-478773	5.376164E-8	NaN
547	1.000000	0.702646	7.3704e+06	-49739.1	1005.82	-29757.9	0.000000	0.000000	6.703026	-0.043864	NaN	0.000000	0.001647	0.001734	28.0826	0.166717	0.002003	83.2165	-140.984	-165.495	-0.017645	0.701324	-0.429423	-0.430745	-0.043864	83.2165	-0.429028	-345386	1.270001E-7	NaN
547	1.000000	0.712606	7.3704e+06	-49739.1	1005.82	-29757.9	0.000000	0.000000	6.712990	0.040043	NaN	0.000000	0.001623	0.001724	28.0825	0.046909	0.001911	24.5412	-128.998	12.1141	0.040537	0.711296	-0.419462	-0.420773	0.040043	24.5412	-0.420686	-263116	-1.521871E-7	NaN
547	1.000000	0.722636	7.3704e+06	-49739.1	1005.82	-29757.9	0.000000	0.000000	6.723020	0.059692	NaN	0.000000	0.001662	0.001711	28.0823	0.020720	0.002025	10.2347	98.4831	-163.789	-0.004086	0.721319	-0.409433	-0.410750	0.059692	10.2347	-0.413808	-210144	-2.840505E-7	NaN
547	1.000000	0.732669	7.3704e+06	-49739.1	1005.82	-29757.9	0.000000	0.000000	6.733045	-0.119836	NaN	0.000000	0.001566	0.001726	28.0823	0.049720	0.002075	23.9642	39.9626	14.2768	-0.069439	0.731365	-0.399400	-0.400704	-0.119836	23.9642	-0.395650	-115855	1.034365E-6	NaN
547	1.000000	0.742661	7.3704e+06	-49739.1	1005.82	-29757.9	0.000000	0.000000	6.743043	0.014254	NaN	0.000000	0.001623	0.001728	28.0824	0.036816	0.001937	19.0027	167.515	-169.86	0.009656	0.741370	-0.389408	-0.390699	0.014254	19.0027	-0.389971	-96105.6	-1.483162E-7	NaN
547	1.000000	0.752668	7.3704e+06	-49739.1	1005.82	-29757.9	0.000000	0.000000	6.753052	0.060503	NaN	0.000000	0.001593	0.001772	28.0822	0.084016	0.001977	42.4891	-47.8501	10.1851	0.033462	0.751315	-0.379400	-0.380754	0.060503	42.4891	-0.380468	-70244.4	-8.613275E-7	NaN
547	1.000000	0.762678	7.3704e+06	-49739.1	1005.82	-29757.9	0.000000	0.000000	6.763059	-0.031497	NaN	0.000000	0.001626	0.001745	28.0823	0.088500	0.001956	45.2363	173.268	-163.686	-0.022455	0.761321	-0.369391	-0.370748	-0.031497	45.2363	-0.368868	-47844.1	6.583272E-7	NaN
547	1.000000	0.772660	7.3704e+06	-49739.1	1005.82	-29757.9	0.000000	0.000000	6.773044	0.035576	NaN	0.000000	0.001646	0.001744	28.0824	0.107525	0.001939	55.4489	-150.093	15.521	0.023124	0.771344	-0.359408	-0.360724	0.035576	55.4489	-0.359890	-35501.8	-1.002104E-6	NaN
547	1.000000	0.782660	7.3704e+06	-49739.1	1005.82	-29757.9	0.000000	0.000000	6.783042	0.012414	NaN	0.000000	0.001660	0.001738	28.0823	0.124870	0.001994	62.6115	-7.761948	-166.639	-0.016449	0.781353	-0.349409	-0.350716	0.012414	62.6115	-0.349557	-25152.3	-4.935662E-7	NaN
547	1.000000	0.792671	7.3704e+06	-49739.1	1005.82	-29757.9	0.000000	0.000000	6.793054	0.022562	NaN	0.000000	0.001695	0.001727	28.0823	0.067494	0.002069	32.6169	8.578256	12.3693	0.054217	0.791372	-0.339398	-0.340697	0.022562	32.6169	-0.339917	-18211.2	-1.238897E-6	NaN
547	1.000000	0.802687	7.3704e+06	-49739.1	1005.82	-29757.9	0.000000	0.000000	6.803070	0.036312	NaN	0.000000	0.001664	0.001771	28.0824	0.041392	0.001962	21.0978	169.141	-168.281	-0.022316	0.801385	-0.329382	-0.330684	0.036312	21.0978	-0.330673	-13344.5	-2.721108E-6	NaN
547	1.000000	0.812652	7.3704e+06	-49739.1	1005.82	-29757.9	0.000000	0.000000	6.813032	-0.026521	NaN	0.000000	0.001706	0.001750	28.0809	0.042024	0.001925	21.8359	143.645	11.657	-0.051579	0.811264	-0.319417	-0.320805	-0.026521	21.8359	-0.318506	-8843.84	2.998807E-6	NaN
547	1.000000	0.822676	7.3704e+06	-49739.1	1005.82	-29757.9	0.000000	0.000000	6.823057	-0.013665	NaN	0.000000	0.001629	0.001770	28.0811	0.131058	0.001980	66.2013	133.321	-165.892	-0.038552	0.821390	-0.309393	-0.310679	-0.013665	66.2013	-0.309238	-6453.26	2.117571E-6	NaN
547	1.000000	0.832673	7.3704e+06	-49739.1	1005.82	-29757.9	0.000000	0.000000	6.833057	0.061500	NaN	0.000000	0.001616	0.001765	28.0811	0.085948	0.001992	43.144	-54.8633	16.0355	0.048255	0.831332	-0.299396	-0.300737	0.061500	43.144	-0.300465	-4781.45	-1.286230E-5	NaN
547	1.000000	0.842704	7.3704e+06	-49739.1	1005.82	-29757.9	0.000000	0.000000	6.843086	0.016907	NaN	0.000000	0.001663	0.001767	28.0813	0.042791	0.001948	21.9671	-140.356	-166.708	-0.012129	0.841359	-0.289365	-0.290710	0.016907	21.9671	-0.289942	-3329.96	-5.077153E-6	NaN
547	1.000000	0.852706	7.3704e+06	-49739.1	1005.82	-29757.9	0.000000	0.000000	6.853088	0.030771	NaN	0.000000	0.001652	0.001747	28.0811	0.057669	0.001956	29.4873	29.7551	17.5487	-0.042257	0.851341	-0.279363	-0.280728	0.030771	29.4873	-0.280146	-2372.31	-1.297076E-5	NaN
547	1.000000	0.862699	7.3704e+06	-49739.1	1005.82	-29757.9	0.000000	0.000000	6.863083	0.051636	NaN	0.000000	0.001662	0.001747	28.0808	0.080208	0.002033	39.4544	104.794	-166.04	0.083239	0.861400	-0.269370	-0.270669	0.051636	39.4544	-0.270351	-1686.11	-3.062418E-5	NaN
547	1.000000	0.872722	7.3704e+06	-49739.1	1005.82	-29757.9	0.000000	0.000000	6.873105	0.043445	NaN	0.000000	0.001649	0.001748	28.0813	0.024132	0.002042	11.8207	-117.88	13.5934	0.035607	0.871373	-0.259347	-0.260696	0.043445	11.8207	-0.262104	-1262.21	-3.441938E-5	NaN
547	1.000000	0.882714	7.3704e+06	-49739.1	1005.82	-29757.9	0.000000	0.000000	6.883098	0.048883	NaN	0.000000	0.001673	0.001738	28.0811	0.074136	0.002028	36.5526	27.608	-161.308	-0.000365	0.881390	-0.249355	-0.250679	0.048883	36.5526	-0.250358	-832.722	-5.870274E-5	NaN
547	1.000000	0.892728	7.3704e+06	-49739.1	1005.82	-29757.9	0.000000	0.000000	6.893113	0.063101	NaN	0.000000	0.001651	0.001792	28.0812	0.044696	0.002010	22.237	46.3369	12.9968	0.016936	0.891363	-0.239340	-0.240706	0.063101	22.237	-0.241469	-606.003	-0.000104	NaN
547	1.000000	0.902727	7.3704e+06	-49739.1	1005.82	-29757.9	0.000000	0.000000	6.903111	0.061093	NaN	0.000000	0.001645	0.001739	28.0815	0.092862	0.002077	44.7	136.039	-166.253	0.018709	0.901404	-0.229342	-0.230664	0.061093	44.7	-0.230367	-405.793	-0.000151	NaN
547	1.000000	0.912746	7.3704e+06	-49739.1	1005.82	-29757.9	0.000000	0.000000	6.913129	0.022365	NaN	0.000000	0.001654	0.001708	28.0812	0.087401	0.001960	44.5822	-175.266	16.9259	-0.012634	0.911333	-0.219323	-0.220736	0.022365	44.5822	-0.219699	-274.705	-8.141536E-5	NaN
547	1.000000	0.922732	7.3704e+06	-49739.1	1005.82	-29757.9	0.000000	0.000000	6.923113	-0.021608	NaN	0.000000	0.001621	0.001728	28.0811	0.071852	0.001915	37.5254	-62.5042	-166.883	-0.092898	0.921389	-0.209337	-0.210680	-0.021608	37.5254	-0.208905	-184.108	0.000117	NaN
547	1.000000	0.932679	7.3704e+06	-49739.1	1005.82	-29757.9	0.000000	0.000000	6.933064	0.072925	NaN	0.000000	0.001637	0.001735	28.0816	0.074894	0.002042	36.6785	-2.409047	10.7527	0.078200	0.931358	-0.199390	-0.200711	0.072925	36.6785	-0.200881	-136.198	-0.000535	NaN
547	1.000000	0.942736	7.3704e+06	-49739.1	1005.82	-29757.9	0.000000	0.000000	6.943117	0.001068	NaN	0.000000	0.001631	0.001739	28.0826	0.033048	0.001997	16.5468	-112.346	-169.906	-0.030624	0.941479	-0.189333	-0.190590	0.001068	16.5468	-0.189382	-87.84	-1.216351E-5	NaN
547	1.000000	0.952750	7.3704e+06	-49739.1	1005.82	-29757.9	0.000000	0.000000	6.953133	0.026572	NaN	0.000000	0.001609	0.001732	28.0824	0.054873	0.001906	28.7967	-24.9027	14.7376	-0.018722	0.951366	-0.179318	-0.180703	0.026572	28.7967	-0.180011	-61.0446	-0.000435	NaN
547	1.000000	0.962748	7.3704e+06	-49739.1	1005.82	-29757.9	0.000000	0.000000	6.963130	0.008650	NaN	0.000000	0.001620	0.001747	28.0824	0.104950	0.002069	50.7154	-77.6434	-167.903	0.038505	0.961465	-0.169321	-0.170604	0.008650	50.7154	-0.169448	-40.1819	-0.000215	NaN
547	1.000000	0.972782	7.3704e+06	-49739.1	1005.82	-29757.9	0.000000	0.000000	6.973167	0.082811	NaN	0.000000	0.001594	0.001742	28.0824	0.069949	0.001863	37.5506	-138.337	13.104	0.034504	0.971388	-0.159287	-0.160681	0.082811	37.5506	-0.160941	-28.4896	-0.002907	NaN
547	1.000000	0.982773	7.3704e+06	-49739.1	1005.82	-29757.9	0.000000	0.000000	6.983155	-0.003747	NaN	0.000000	0.001627	0.001724	28.0825	0.085160	0.001953	43.5978	-50.8674	-164.669	-0.040713	0.981424	-0.149296	-0.150645	-0.003747	43.5978	-0.149231	-17.5375	0.000214	NaN
547	1.000000	0.992769	7.3704e+06	-49739.1	1005.82	-29757.9	0.000000	0.000000	6.993150	-0.011530	NaN	0.000000	0.001638	0.001761	28.0822	0.078801	0.002051	38.4276	-176.86	13.1505	0.005804	0.991408	-0.139300	-0.140661	-0.011530	38.4276	-0.139075	-11.3647	0.001015	NaN
547	1.000000	1.002760	7.3704e+06	-49739.1	1005.82	-29757.9	0.000000	0.000000	7.003141	-0.012827	NaN	0.000000	0.001652	0.001758	28.0824	0.090046	0.001902	47.337	-25.5608	-165.981	-0.015955	1.001498	-0.129309	-0.130571	-0.012827	47.337	-0.129106	-7.321795	0.001752	NaN
547	1.000000	1.012789	7.3704e+06	-49739.1	1005.82	-29757.9	0.000000	0.000000	7.013170	-0.007138	NaN	0.000000	0.001620	0.001741	28.0826	0.058955	0.001860	31.7042	122.499	16.3775	0.004107	1.011381	-0.119280	-0.120688	-0.007138	31.7042	-0.119111	-4.635635	0.001540	NaN
547	1.000000	1.022774	7.3704e+06	-49739.1	1005.82	-29757.9	0.000000	0.000000	7.023156	-0.006628	NaN	0.000000	0.001661	0.001765	28.0824	0.101715	0.001984	51.258	120.203	-166.039	-0.140377	1.021454	-0.109295	-0.110615	-0.006628	51.258	-0.109198	-2.890153	0.002293	NaN
547	1.000000	1.032768	7.3704e+06	-49739.1	1005.82	-29757.9	0.000000	0.000000	7.033151	0.031258	NaN	0.000000	0.001673	0.001741	28.0823	0.043590	0.002017	21.6136	30.3094	14.8657	0.034070	1.031403	-0.099300	-0.100666	0.031258	21.6136	-0.100385	-1.863377	-0.016775	NaN
547	1.000000	1.042760	7.3704e+06	-49739.1	1005.82	-29757.9	0.000000	0.000000	7.043144	0.050346	NaN	0.000000	0.001689	0.001745	28.0824	0.096170	0.002021	47.58	148.888	-167.844	0.012812	1.041489	-0.089309	-0.090580	0.050346	47.58	-0.090102	-1.086966	-0.046318	NaN
547	1.000000	1.052815	7.3704e+06	-49739.1	1005.82	-29757.9	0.000000	0.000000	7.053197	-0.004572	NaN	0.000000	0.001599	0.001728	28.0825	0.014871	0.002064	7.204210	-164.071	12.2659	-0.013705	1.051420	-0.079253	-0.080649	-0.004572	7.204210	-0.078777	-0.576751	0.007928	NaN
547	1.000000	1.062788	7.3704e+06	-49739.1	1005.82	-29757.9	0.000000	0.000000	7.063170	0.017046	NaN	0.000000	0.001619	0.001737	28.0823	0.130236	0.001998	65.1884	174.054	-168.677	0.074670	1.061448	-0.069281	-0.070621	0.017046	65.1884	-0.069477	-0.330267	-0.051613	NaN
547	1.000000	1.072783	7.3704e+06	-49739.1	1005.82	-29757.9	0.000000	0.000000	7.073160	-0.092925	NaN	0.000000	0.001588	0.001713	28.0821	0.082466	0.001933	42.6668	18.9702	17.084	-0.044218	1.071469	-0.059286	-0.060600	-0.092925	42.6668	-0.057653	-0.154050	0.603213	NaN
547	1.000000	1.082835	7.3704e+06	-49739.1	1005.82	-29757.9	0.000000	0.000000	7.083219	0.045422	NaN	0.000000	0.001622	0.001742	28.0812	0.044723	0.002160	20.7088	79.306	-163.929	0.094115	1.081475	-0.049234	-0.050594	0.045422	20.7088	-0.050879	-0.096999	-0.468274	NaN
547	1.000000	1.092778	7.3704e+06	-49739.1	1005.82	-29757.9	0.000000	0.000000	7.093158	-0.044193	NaN	0.000000	0.001597	0.001767	28.0811	0.033296	0.002037	16.3484	-52.9424	10.3655	0.062435	1.091420	-0.039291	-0.040649	-0.044193	16.3484	-0.037264	-0.037390	1.181943	NaN
547	1.000000	1.102803	7.3704e+06	-49739.1	1005.82	-29757.9	0.000000	0.000000	7.103186	0.024304	NaN	0.000000	0.001597	0.001752	28.0812	0.005296	0.001969	2.689079	-176.723	-167.966	-0.009373	1.101467	-0.029266	-0.030602	0.024304	2.689079	-0.036045	-0.034386	-0.706805	NaN
547	1.000000	1.112790	7.3704e+06	-49739.1	1005.82	-29757.9	0.000000	0.000000	7.113174	0.069593	NaN	0.000000	0.001671	0.001766	28.0813	0.058975	0.002022	29.1655	43.518	8.615862	0.017875	1.111464	-0.019279	-0.020605	0.069593	29.1655	-0.021069	-0.013372	-5.204517	NaN
547	1.000000	1.122802	7.3704e+06	-49739.1	1005.82	-29757.9	0.000000	0.000000	7.123183	-0.015004	NaN	0.000000	0.001648	0.001709	28.0813	0.068745	0.001819	37.7987	-74.877	-163.369	0.009953	1.121506	-0.009267	-0.010563	-0.015004	37.7987	-0.008969	-0.005795	2.589149	NaN
547	1.000000	1.132810	7.3704e+06	-49739.1	1005.82	-29757.9	0.000000	0.000000	7.133214	0.539034	NaN	0.000000	0.001603	0.001733	28.0809	0.998337	0.001738	574.348	10.732	9.968411	0.046705	1.131446	0.000741	-0.000622	0.539034	574.348	3.711193E-5	2.775402E-5	19421.8	99605.9
547	2.000000	1.141440	7.3704e+06	-49739.1	1005.82	-29757.9	0.000000	0.000000	7.142179	8.676564	NaN	0.000000	0.001639	0.001716	28.0812	9.090682	0.001719	5288.8	9.179266	-173.589	8.628311	1.140991	0.009372	0.008922	8.676564	5288.8	0.008141	0.007188	1207.1	56993.8
547	2.000000	1.143975	7.3704e+06	-49739.1	1005.82	-29757.9	0.000000	0.000000	7.144802	10.822	NaN	0.000000	0.001592	0.001763	28.081	11.2891	0.001738	6493.96	10.2084	3.921397	11.4129	1.143604	0.011906	0.011535	10.822	6493.96	0.010656	0.009920	1090.92	59569.7
547	2.000000	1.146414	7.3704e+06	-49739.1	1005.82	-29757.9	0.000000	0.000000	7.147436	15.5816	NaN	0.000000	0.001640	0.001752	28.0814	14.8746	0.001877	7924.82	8.523646	-176.962	15.3695	1.146141	0.014345	0.014073	15.5816	7924.82	0.012870	0.012550	1241.61	64632.2
547	2.000000	1.148918	7.3704e+06	-49739.1	1005.82	-29757.9	0.000000	0.000000	7.150197	21.8202	NaN	0.000000	0.001616	0.001726	28.0809	17.0388	0.001841	9254.46	8.315429	2.381997	20.6625	1.148519	0.016849	0.016450	21.8202	9254.46	0.015081	0.015393	1417.54	68149.4
547	2.000000	1.151381	7.3704e+06	-49739.1	1005.82	-29757.9	0.000000	0.000000	7.152766	24.3851	NaN	0.000000	0.001617	0.001726	28.0812	19.2697	0.001824	10564	7.908391	-179	25.0187	1.151076	0.019312	0.019007	24.3851	10564	0.017581	0.018883	1291.37	70236.8
547	2.000000	1.153881	7.3704e+06	-49739.1	1005.82	-29757.9	0.000000	0.000000	7.155611	32.8031	NaN	0.000000	0.001615	0.001761	28.0813	21.8653	0.001598	13684	6.389217	-0.841923	32.7768	1.153421	0.021812	0.021352	32.8031	13684	0.020014	0.022565	1453.74	83228.2
547	2.000000	1.156412	7.3704e+06	-49739.1	1005.82	-29757.9	0.000000	0.000000	7.158352	37.8926	NaN	0.000000	0.001645	0.001732	28.0811	25.7848	0.001866	13816.1	7.660506	177.824	38.2535	1.155991	0.024343	0.023922	37.8926	13816.1	0.022286	0.026263	1442.83	77891.1
547	2.000000	1.158813	7.3704e+06	-49739.1	1005.82	-29757.9	0.000000	0.000000	7.161161	47.817	NaN	0.000000	0.001639	0.001732	28.0812	27.2022	0.001670	16292.3	-0.365589	5.018610	45.1467	1.158531	0.026744	0.026462	47.817	16292.3	0.024543	0.030189	1583.92	85670.6
547	2.000000	1.161313	7.3704e+06	-49739.1	1005.82	-29757.9	0.000000	0.000000	7.163923	54.1895	NaN	0.000000	0.001623	0.001708	28.0824	30.0377	0.001811	16588.2	2.678072	-178.829	52.4737	1.161044	0.029244	0.028976	54.1895	16588.2	0.026794	0.034361	1577.06	81759.8
547	2.000000	1.163838	7.3704e+06	-49739.1	1005.82	-29757.9	0.000000	0.000000	7.166775	62.1307	NaN	0.000000	0.001648	0.001741	28.0826	33.0199	0.001819	18153.1	7.040464	-3.284294	60.6513	1.163397	0.031769	0.031328	62.1307	18153.1	0.029202	0.039107	1588.75	83868.4
547	2.000000	1.166349	7.3704e+06	-49739.1	1005.82	-29757.9	0.000000	0.000000	7.169682	71.7838	NaN	0.000000	0.001628	0.001743	28.0825	34.8848	0.001814	19229.7	5.150958	178.646	70.9672	1.166023	0.034280	0.033954	71.7838	19229.7	0.031480	0.043868	1636.35	83882.3
547	2.000000	1.168875	7.3704e+06	-49739.1	1005.82	-29757.9	0.000000	0.000000	7.172446	77.5812	NaN	0.000000	0.001616	0.001743	28.0825	37.0435	0.001821	20347.1	5.756700	-3.181926	75.7447	1.168494	0.036806	0.036425	77.5812	20347.1	0.033946	0.049320	1573.01	83707.2
547	2.000000	1.171296	7.3704e+06	-49739.1	1005.82	-29757.9	0.000000	0.000000	7.175308	88.2947	NaN	0.000000	0.001616	0.001750	28.0832	39.0016	0.001747	22319.1	5.273527	175.814	85.6056	1.171061	0.039227	0.038992	88.2947	22319.1	0.036260	0.054721	1613.55	87171.2
547	2.000000	1.173788	7.3704e+06	-49739.1	1005.82	-29757.9	0.000000	0.000000	7.178291	100.214	NaN	0.000000	0.001650	0.001735	28.0825	40.6549	0.001737	23406	4.551073	-2.367673	97.9171	1.173477	0.041719	0.041408	100.214	23406	0.038508	0.060230	1663.85	87135.1
547	2.000000	1.176343	7.3704e+06	-49739.1	1005.82	-29757.9	0.000000	0.000000	7.181174	108.215	NaN	0.000000	0.001600	0.001785	28.0826	44.6304	0.001868	23895.1	3.931839	177.723	107.889	1.176008	0.044274	0.043939	108.215	23895.1	0.040877	0.066315	1631.84	84776.9
547	2.000000	1.178835	7.3704e+06	-49739.1	1005.82	-29757.9	0.000000	0.000000	7.184262	122.703	NaN	0.000000	0.001646	0.001783	28.0824	45.9302	0.001679	27356.1	3.830029	-3.770853	120.352	1.178423	0.046766	0.046354	122.703	27356.1	0.043402	0.073115	1678.21	92432.2
547	2.000000	1.181376	7.3704e+06	-49739.1	1005.82	-29757.9	0.000000	0.000000	7.187180	131.888	NaN	0.000000	0.001639	0.001784	28.0829	48.9462	0.001755	27883.7	8.694978	171.697	134.114	1.180962	0.049307	0.048893	131.888	27883.7	0.045759	0.079757	1653.61	90206.5
547	2.000000	1.183831	7.37041e+06	-49739.1	1005.82	-29757.9	0.000000	0.000000	7.190195	145.495	NaN	0.000000	0.001623	0.001759	28.0824	50.3495	0.001666	30220	3.023741	-3.573713	143.999	1.183468	0.051762	0.051399	145.495	30220	0.048151	0.086784	1676.53	93723.6
547	2.000000	1.186330	7.37041e+06	-49739.1	1005.82	-29757.9	0.000000	0.000000	7.192957	151.89	NaN	0.000000	0.001600	0.001764	28.0826	53.8163	0.001897	28363.1	2.159860	177.375	152.06	1.186025	0.054261	0.053956	151.89	28363.1	0.050245	0.093171	1630.23	84895.8
547	2.000000	1.188789	7.37041e+06	-49739.1	1005.82	-29757.9	0.000000	0.000000	7.196066	167.677	NaN	0.000000	0.001648	0.001759	28.0824	55.5136	0.001806	30745	4.076355	-3.951144	165.06	1.188379	0.056721	0.056311	167.677	30745	0.052630	0.100716	1664.85	88511.2
547	2.000000	1.191285	7.37041e+06	-49739.1	1005.82	-29757.9	0.000000	0.000000	7.199041	179.323	NaN	0.000000	0.001612	0.001771	28.0827	57.5256	0.001777	32378.1	7.221432	171.232	179.095	1.191037	0.059216	0.058968	179.323	32378.1	0.055063	0.108701	1649.69	89723.7
547	2.000000	1.193762	7.37041e+06	-49739.1	1005.82	-29757.9	0.000000	0.000000	7.202091	193.257	NaN	0.000000	0.001636	0.001718	28.0813	60.1201	0.001848	32527.6	0.150067	-1.859336	190.145	1.193490	0.061693	0.061421	193.257	32527.6	0.057237	0.116089	1664.74	87222.8
547	2.000000	1.196237	7.37041e+06	-49739.1	1005.82	-29757.9	0.000000	0.000000	7.205291	210.889	NaN	0.000000	0.001597	0.001762	28.0814	63.7095	0.001986	32084.1	5.278129	173.835	207.656	1.196044	0.064168	0.063975	210.889	32084.1	0.059239	0.123093	1713.25	83550.3
547	2.000000	1.198839	7.37041e+06	-49739.1	1005.82	-29757.9	0.000000	0.000000	7.208459	224.66	NaN	0.000000	0.001607	0.001778	28.0815	64.6746	0.001802	35887.6	4.808028	-6.935005	222.957	1.198491	0.066771	0.066422	224.66	35887.6	0.062076	0.133356	1684.67	89786.6
547	2.000000	1.201304	7.37041e+06	-49739.1	1005.82	-29757.9	0.000000	0.000000	7.211488	238.387	NaN	0.000000	0.001643	0.001763	28.0817	66.5112	0.001786	37234.3	2.104606	175.501	238.418	1.200985	0.069236	0.068916	238.387	37234.3	0.064434	0.142186	1676.59	90217.1
547	2.000000	1.203740	7.37041e+06	-49739.1	1005.82	-29757.9	0.000000	0.000000	7.214629	255.551	NaN	0.000000	0.001643	0.001752	28.0812	69.613	0.001826	38124.4	4.896191	-6.741905	250.002	1.203326	0.071671	0.071257	255.551	38124.4	0.066644	0.150703	1695.73	89725.3
547	2.000000	1.206234	7.37041e+06	-49739.1	1005.82	-29757.9	0.000000	0.000000	7.217673	268.907	NaN	0.000000	0.001640	0.001755	28.0818	70.7846	0.001711	41362	0.551505	176.056	264.421	1.206046	0.074165	0.073977	268.907	41362	0.069289	0.161207	1668.09	94120.3
547	2.000000	1.208833	7.37041e+06	-49739.1	1005.82	-29757.9	0.000000	0.000000	7.220758	280.729	NaN	0.000000	0.001607	0.001735	28.0815	72.5084	0.001653	43858.8	-0.972424	-2.656373	280.082	1.208511	0.076764	0.076442	280.729	43858.8	0.071964	0.172167	1630.56	96572.8
547	2.000000	1.211281	7.37041e+06	-49739.1	1005.82	-29757.9	0.000000	0.000000	7.224136	303.353	NaN	0.000000	0.001635	0.001745	28.082	75.7902	0.001725	43938	4.221676	172.037	301.789	1.210966	0.079212	0.078898	303.353	43938	0.074034	0.180883	1677.07	94387.6
547	2.000000	1.213691	7.37041e+06	-49739.1	1005.82	-29757.9	0.000000	0.000000	7.227144	317.878	NaN	0.000000	0.001617	0.001762	28.0812	77.2925	0.001612	47951	4.660664	-9.137232	310.67	1.213468	0.081623	0.081399	317.878	47951	0.076651	0.192189	1653.99	99932.4
547	2.000000	1.216285	7.37041e+06	-49739.1	1005.82	-29757.9	0.000000	0.000000	7.230247	330.264	NaN	0.000000	0.001618	0.001810	28.082	82.2788	0.001899	43326.5	3.992318	172.196	328.18	1.216174	0.084216	0.084105	330.264	43326.5	0.078499	0.200369	1648.28	88432.5
547	2.000000	1.218796	7.37041e+06	-49739.1	1005.82	-29757.9	0.000000	0.000000	7.233804	355.726	NaN	0.000000	0.001662	0.001743	28.0813	83.2534	0.001814	45901.1	4.127976	-7.236505	354.379	1.218491	0.086727	0.086422	355.726	45901.1	0.080914	0.211297	1683.53	91232.4
547	2.000000	1.221266	7.37041e+06	-49739.1	1005.82	-29757.9	0.000000	0.000000	7.236856	369.847	NaN	0.000000	0.001607	0.001791	28.0814	86.913	0.001797	48360.7	8.994620	166.759	369.646	1.220946	0.089197	0.088877	369.847	48360.7	0.083461	0.223117	1657.64	93540.6
547	2.000000	1.223659	7.37041e+06	-49739.1	1005.82	-29757.9	0.000000	0.000000	7.240351	396.672	NaN	0.000000	0.001588	0.001738	28.0814	89.1077	0.001916	46503	6.566958	-10.0122	387.81	1.223293	0.091590	0.091224	396.672	46503	0.085192	0.231319	1714.83	88338.3
547	2.000000	1.226216	7.37041e+06	-49739.1	1005.82	-29757.9	0.000000	0.000000	7.243532	411.849	NaN	0.000000	0.001600	0.001747	28.0816	91.0855	0.001817	50140.5	7.671525	168.149	408.577	1.225800	0.094147	0.093731	411.849	50140.5	0.087987	0.244854	1682.02	92578
547	2.000000	1.228827	7.37041e+06	-49739.1	1005.82	-29757.9	0.000000	0.000000	7.246770	427.07	NaN	0.000000	0.001598	0.001767	28.0826	91.8277	0.001751	52454.7	3.758914	-7.457584	429.295	1.228368	0.096758	0.096299	427.07	52454.7	0.090652	0.258100	1654.67	94333
547	2.000000	1.231272	7.37041e+06	-49739.1	1005.82	-29757.9	0.000000	0.000000	7.250170	450.309	NaN	0.000000	0.001592	0.001733	28.0828	93.6839	0.001763	53130.7	7.380140	169.052	449.171	1.230782	0.099203	0.098713	450.309	53130.7	0.092846	0.269248	1672.47	93549.8
547	2.000000	1.233717	7.37041e+06	-49739.1	1005.82	-29757.9	0.000000	0.000000	7.253467	471.023	NaN	0.000000	0.001636	0.001713	28.0828	97.2361	0.001873	51920.9	7.133072	-10.3321	466.247	1.233256	0.101648	0.101187	471.023	51920.9	0.094845	0.279591	1684.68	89712.6
547	2.000000	1.236126	7.37041e+06	-49739.1	1005.82	-29757.9	0.000000	0.000000	7.256709	491.291	NaN	0.000000	0.001614	0.001720	28.0827	99.3099	0.001824	54447.5	6.564643	168.708	484.236	1.235850	0.104057	0.103781	491.291	54447.5	0.097289	0.292495	1679.66	91979.8
547	2.000000	1.238791	7.37041e+06	-49739.1	1005.82	-29757.9	0.000000	0.000000	7.260080	508.45	NaN	0.000000	0.001583	0.001720	28.0826	100.926	0.001776	56814.4	8.259074	-13.085	508.172	1.238269	0.106722	0.106200	508.45	56814.4	0.100010	0.307173	1655.25	93656.8
547	2.000000	1.239222	7.37041e+06	-49739.1	1005.82	-29757.9	0.000000	0.000000	7.260654	511.947	NaN	0.000000	0.001602	0.001732	28.0825	101.694	0.001813	56087.5	5.056828	169.396	508.15	1.239041	0.107153	0.106972	511.947	56087.5	0.100307	0.308796	1657.88	92215.4