File: remote_trans/data/nanoindenter/0828-1/data/Data_2025-08-06,11h17m57s/2025-07-22_16-23-58_1_674.txt
2025-07-22, 16:23:58, 1
Index	Phase	Displacement	Time	Pos X	Pos Y	Pos Z	Rot A	Rot B	Piezo Z	Force A	Force B	Gripper	Voltage A	Voltage B	Temperature	Amplitude force	Amplitude pos	Stiffness	Phase shift	Phase excitation	Force A raw	Displacement raw	HMax	HMax raw	Real Force	Real Stiffness	Contact Depth	Area	Hardness	Reduced Mod.
[#]	[#]	[um]	[s]	[um]	[um]	[um]	[m°]	[m°]	[um]	[uN]	[uN]	[V]	[V]	[V]	[°C]	[uN]	[um]	[N/m]	[°]	[°]	[uN]	[um]	[um]	[um]	[uN]	[N/m]	[um]	[um^2]	[MPa]	[MPa]
674	1.000000	0.002420	7.37164e+06	-43389.1	1005.82	-29779.2	0.000000	0.000000	6.002826	0.049146	NaN	0.000000	0.001566	0.001718	28.0817	0.124993	0.001046	119.475	-91.5059	-158.237	0.057188	0.001112	-1.050149	-1.051456	0.049146	119.475	-1.050457	-1.082825E+14	-4.538714E-16	NaN
674	1.000000	0.010363	7.37164e+06	-43389.1	1005.82	-29779.2	0.000000	0.000000	6.010766	-0.018881	NaN	0.000000	0.001560	0.001691	28.0817	0.036713	0.000888	41.3641	38.4894	-165.244	0.004720	0.009039	-1.042206	-1.043529	-0.018881	41.3641	-1.041863	-8.298920E+13	2.275164E-16	NaN
674	1.000000	0.018332	7.37164e+06	-43389.1	1005.82	-29779.2	0.000000	0.000000	6.018735	-0.017660	NaN	0.000000	0.001618	0.001653	28.0826	0.078317	0.001693	46.2612	-121.701	-165.96	-0.054214	0.017042	-1.034237	-1.035526	-0.017660	46.2612	-1.033950	-6.495490E+13	2.718804E-16	NaN
674	1.000000	0.026385	7.37164e+06	-43389.1	1005.82	-29779.2	0.000000	0.000000	6.026789	0.005409	NaN	0.000000	0.001615	0.001720	28.0831	0.004806	0.001956	2.457806	-124.655	-164.805	-0.018118	0.025040	-1.026184	-1.027528	0.005409	2.457806	-1.027834	-5.374624E+13	-1.006474E-16	NaN
674	1.000000	0.034321	7.37164e+06	-43389.1	1005.82	-29779.2	0.000000	0.000000	6.034725	0.005287	NaN	0.000000	0.001596	0.001671	28.082	0.049379	0.001944	25.404	-155.175	-167.683	-0.050540	0.033039	-1.018247	-1.019530	0.005287	25.404	-1.018404	-4.013028E+13	-1.317473E-16	NaN
674	1.000000	0.042334	7.37164e+06	-43389.1	1005.82	-29779.2	0.000000	0.000000	6.042737	-0.013565	NaN	0.000000	0.001639	0.001722	28.0817	0.079339	0.002014	39.4018	163.365	-167.174	0.027646	0.041060	-1.010234	-1.011508	-0.013565	39.4018	-1.009976	-3.090745E+13	4.388771E-16	NaN
674	1.000000	0.050366	7.37164e+06	-43389.1	1005.82	-29779.2	0.000000	0.000000	6.050772	0.058915	NaN	0.000000	0.001663	0.001658	28.0818	0.094646	0.001975	47.9171	125.289	-165.045	0.115091	0.049066	-1.002202	-1.003503	0.058915	47.9171	-1.003124	-2.499374E+13	-2.357198E-15	NaN
674	1.000000	0.058343	7.37164e+06	-43389.1	1005.82	-29779.2	0.000000	0.000000	6.058746	-0.027600	NaN	0.000000	0.001705	0.001664	28.0814	0.020892	0.002011	10.391	21.0167	-164.649	0.095898	0.057042	-0.994225	-0.995526	-0.027600	10.391	-0.992233	-1.783138E+13	1.547822E-15	NaN
674	1.000000	0.066355	7.37164e+06	-43389.1	1005.82	-29779.2	0.000000	0.000000	6.066759	0.011613	NaN	0.000000	0.001692	0.001662	28.0815	0.111896	0.001974	56.6842	80.4192	-168.211	0.091555	0.065074	-0.986213	-0.987494	0.011613	56.6842	-0.986367	-1.486548E+13	-7.812342E-16	NaN
674	1.000000	0.074373	7.37164e+06	-43389.1	1005.82	-29779.2	0.000000	0.000000	6.074776	-0.012363	NaN	0.000000	0.001656	0.001696	28.0815	0.012891	0.001951	6.606735	-59.8565	-166.906	0.018073	0.073024	-0.978195	-0.979545	-0.012363	6.606735	-0.976792	-1.104547E+13	1.119284E-15	NaN
674	1.000000	0.082373	7.37164e+06	-43389.1	1005.82	-29779.2	0.000000	0.000000	6.082776	-0.039775	NaN	0.000000	0.001680	0.001688	28.0816	0.085757	0.002102	40.7887	-133.937	-163.931	-0.100202	0.081042	-0.970195	-0.971526	-0.039775	40.7887	-0.969463	-8.798969E+12	4.520466E-15	NaN
674	1.000000	0.090356	7.37164e+06	-43389.1	1005.82	-29779.2	0.000000	0.000000	6.090762	0.054682	NaN	0.000000	0.001677	0.001688	28.0815	0.067430	0.001981	34.0367	163.093	-163.251	-0.025021	0.089083	-0.962213	-0.963486	0.054682	34.0367	-0.963418	-7.293577E+12	-7.497275E-15	NaN
674	1.000000	0.098372	7.37164e+06	-43389.1	1005.82	-29779.2	0.000000	0.000000	6.098776	0.008204	NaN	0.000000	0.001669	0.001708	28.0825	0.140332	0.002075	67.6328	116.388	-163.689	0.001985	0.097056	-0.954196	-0.955512	0.008204	67.6328	-0.954287	-5.493459E+12	-1.493453E-15	NaN
674	1.000000	0.106326	7.37164e+06	-43389.1	1005.82	-29779.2	0.000000	0.000000	6.106730	0.006490	NaN	0.000000	0.001711	0.001675	28.0823	0.183416	0.002013	91.0938	0.301188	-163.384	0.004115	0.105017	-0.946243	-0.947551	0.006490	91.0938	-0.946296	-4.286173E+12	-1.514110E-15	NaN
674	1.000000	0.114369	7.37164e+06	-43389.1	1005.82	-29779.2	0.000000	0.000000	6.114772	-0.023915	NaN	0.000000	0.001679	0.001689	28.0826	0.071270	0.002052	34.7323	132.03	-168.98	-0.054721	0.113047	-0.938200	-0.939521	-0.023915	34.7323	-0.937683	-3.280030E+12	7.291239E-15	NaN
674	1.000000	0.122357	7.37164e+06	-43389.1	1005.82	-29779.2	0.000000	0.000000	6.122763	0.057612	NaN	0.000000	0.001689	0.001715	28.0827	0.110070	0.002083	52.8505	39.2012	-164.053	-0.028982	0.121057	-0.930211	-0.931511	0.057612	52.8505	-0.931029	-2.667381E+12	-2.159864E-14	NaN
674	1.000000	0.130364	7.37164e+06	-43389.1	1005.82	-29779.2	0.000000	0.000000	6.130768	-0.001912	NaN	0.000000	0.001656	0.001722	28.0831	0.039392	0.001981	19.888	162.616	-167.673	-0.049589	0.129075	-0.922204	-0.923494	-0.001912	19.888	-0.922132	-2.022982E+12	9.450857E-16	NaN
674	1.000000	0.138374	7.37164e+06	-43389.1	1005.82	-29779.2	0.000000	0.000000	6.138778	0.010138	NaN	0.000000	0.001638	0.001723	28.0829	0.084603	0.002145	39.4506	71.8633	-165.842	0.029059	0.137057	-0.914195	-0.915511	0.010138	39.4506	-0.914387	-1.590069E+12	-6.375590E-15	NaN
674	1.000000	0.146395	7.37164e+06	-43389.1	1005.82	-29779.2	0.000000	0.000000	6.146798	-0.010128	NaN	0.000000	0.001721	0.001699	28.0829	0.080038	0.001924	41.6071	119.828	-167.443	0.041648	0.145122	-0.906173	-0.907447	-0.010128	41.6071	-0.905991	-1.224638E+12	8.269942E-15	NaN
674	1.000000	0.154357	7.37164e+06	-43389.1	1005.82	-29779.2	0.000000	0.000000	6.154764	0.068431	NaN	0.000000	0.001621	0.001707	28.0827	0.066381	0.002053	32.3286	-146.504	-165.588	0.057830	0.153055	-0.898211	-0.899513	0.068431	32.3286	-0.899799	-1.010059E+12	-6.774985E-14	NaN
674	1.000000	0.162373	7.37164e+06	-43389.1	1005.82	-29779.2	0.000000	0.000000	6.162779	0.061619	NaN	0.000000	0.001622	0.001722	28.0828	0.079169	0.001919	41.2513	2.649767	-164.853	0.047816	0.161033	-0.890195	-0.891535	0.061619	41.2513	-0.891315	-7.757066E+11	-7.943536E-14	NaN
674	1.000000	0.170365	7.37164e+06	-43389.1	1005.82	-29779.2	0.000000	0.000000	6.170771	0.061307	NaN	0.000000	0.001611	0.001669	28.0828	0.065347	0.002036	32.0972	59.014	-164.155	0.009538	0.169102	-0.882203	-0.883466	0.061307	32.0972	-0.883636	-6.107622E+11	-1.003778E-13	NaN
674	1.000000	0.178371	7.37164e+06	-43389.1	1005.82	-29779.2	0.000000	0.000000	6.178778	0.074662	NaN	0.000000	0.001617	0.001693	28.0832	0.027140	0.002116	12.8281	10.0276	-161.962	0.034470	0.177073	-0.874197	-0.875495	0.074662	12.8281	-0.878563	-5.215161E+11	-1.431630E-13	NaN
674	1.000000	0.186399	7.37164e+06	-43389.1	1005.82	-29779.3	0.000000	0.000000	6.186802	-0.010395	NaN	0.000000	0.001618	0.001726	28.083	0.067795	0.001938	34.9751	34.615	-168.949	0.050884	0.185066	-0.866169	-0.867502	-0.010395	34.9751	-0.865946	-3.520437E+11	2.952817E-14	NaN
674	1.000000	0.194411	7.37164e+06	-43389.1	1005.82	-29779.3	0.000000	0.000000	6.194817	0.058082	NaN	0.000000	0.001593	0.001731	28.0831	0.022338	0.001964	11.3726	-155.332	-164.878	0.085212	0.193094	-0.858157	-0.859474	0.058082	11.3726	-0.861988	-3.111901E+11	-1.866449E-13	NaN
674	1.000000	0.202388	7.37164e+06	-43389.1	1005.82	-29779.3	0.000000	0.000000	6.202790	-0.030907	NaN	0.000000	0.001590	0.001710	28.0829	0.023056	0.001929	11.9501	144.144	-162.92	-0.063986	0.201049	-0.850181	-0.851520	-0.030907	11.9501	-0.848241	-2.027291E+11	1.524555E-13	NaN
674	1.000000	0.210411	7.37164e+06	-43389.1	1005.82	-29779.3	0.000000	0.000000	6.210816	0.024307	NaN	0.000000	0.001594	0.001730	28.0829	0.062378	0.002052	30.3991	15.4476	-162.541	0.025726	0.209136	-0.842157	-0.843433	0.024307	30.3991	-0.842757	-1.708613E+11	-1.422601E-13	NaN
674	1.000000	0.218430	7.37164e+06	-43389.1	1005.82	-29779.3	0.000000	0.000000	6.218835	0.036585	NaN	0.000000	0.001614	0.001687	28.0831	0.037396	0.001916	19.5131	-66.6335	-166.364	-0.003005	0.217056	-0.834139	-0.835512	0.036585	19.5131	-0.835545	-1.364357E+11	-2.681516E-13	NaN
674	1.000000	0.226426	7.37164e+06	-43389.1	1005.82	-29779.3	0.000000	0.000000	6.226831	0.039789	NaN	0.000000	0.001639	0.001670	28.083	0.115217	0.002077	55.4845	-46.4479	-165.109	-0.013488	0.225085	-0.826142	-0.827483	0.039789	55.4845	-0.826680	-1.034630E+11	-3.845729E-13	NaN
674	1.000000	0.234387	7.37164e+06	-43389.1	1005.82	-29779.3	0.000000	0.000000	6.234791	7.715451E-5	NaN	0.000000	0.001587	0.001707	28.0821	0.069316	0.002074	33.4177	61.7812	-164.165	0.022689	0.233089	-0.818181	-0.819479	7.715451E-5	33.4177	-0.818183	-7.935332E+10	-9.722908E-16	NaN
674	1.000000	0.242448	7.37164e+06	-43389.1	1005.82	-29779.3	0.000000	0.000000	6.242853	0.018676	NaN	0.000000	0.001605	0.001689	28.0817	0.013602	0.002071	6.567087	2.126392	-165.696	-0.004017	0.241139	-0.810120	-0.811429	0.018676	6.567087	-0.812253	-6.593791E+10	-2.832354E-13	NaN
674	1.000000	0.250414	7.37164e+06	-43389.1	1005.82	-29779.3	0.000000	0.000000	6.250817	-0.026742	NaN	0.000000	0.001576	0.001653	28.0818	0.107948	0.001966	54.8954	120.368	-165.675	-0.102611	0.249128	-0.802154	-0.803440	-0.026742	54.8954	-0.801789	-4.754929E+10	5.624145E-13	NaN
674	1.000000	0.258427	7.37164e+06	-43389.1	1005.82	-29779.3	0.000000	0.000000	6.258833	0.070833	NaN	0.000000	0.001598	0.001686	28.0817	0.020339	0.002029	10.0233	-33.0743	-163.9	0.129747	0.257129	-0.794142	-0.795439	0.070833	10.0233	-0.799442	-4.418618E+10	-1.603067E-12	NaN
674	1.000000	0.266455	7.37164e+06	-43389.1	1005.82	-29779.3	0.000000	0.000000	6.266859	-0.003259	NaN	0.000000	0.001606	0.001699	28.0817	0.103989	0.001890	55.013	-60.687	-167.427	-0.017318	0.265101	-0.786113	-0.787467	-0.003259	55.013	-0.786068	-2.908585E+10	1.120438E-13	NaN
674	1.000000	0.274435	7.37164e+06	-43389.1	1005.82	-29779.3	0.000000	0.000000	6.274838	-0.031356	NaN	0.000000	0.001599	0.001682	28.0817	0.142825	0.002004	71.2811	-97.8831	-164.776	-0.014197	0.273150	-0.778133	-0.779418	-0.031356	71.2811	-0.777803	-2.245848E+10	1.396164E-12	NaN
674	1.000000	0.282439	7.37164e+06	-43389.1	1005.82	-29779.3	0.000000	0.000000	6.282845	0.063328	NaN	0.000000	0.001600	0.001665	28.082	0.089151	0.002045	43.5863	-71.0327	-163.952	0.086353	0.281057	-0.770130	-0.771511	0.063328	43.5863	-0.771219	-1.827606E+10	-3.465066E-12	NaN
674	1.000000	0.290445	7.37164e+06	-43389.1	1005.82	-29779.3	0.000000	0.000000	6.290850	0.025754	NaN	0.000000	0.001597	0.001718	28.082	0.025255	0.002049	12.3279	-27.8729	-168.851	0.034938	0.289137	-0.762123	-0.763431	0.025754	12.3279	-0.763690	-1.443772E+10	-1.783790E-12	NaN
674	1.000000	0.298456	7.37164e+06	-43389.1	1005.82	-29779.3	0.000000	0.000000	6.298858	-0.054042	NaN	0.000000	0.001653	0.001713	28.0817	0.053212	0.002012	26.4493	-46.887	-167.571	-0.015132	0.297181	-0.754112	-0.755387	-0.054042	26.4493	-0.752579	-1.019366E+10	5.301498E-12	NaN
674	1.000000	0.306443	7.37164e+06	-43389.1	1005.82	-29779.3	0.000000	0.000000	6.306846	-0.036117	NaN	0.000000	0.001621	0.001690	28.0816	0.195735	0.001963	99.6964	66.9428	-165.888	-0.030751	0.305160	-0.746125	-0.747408	-0.036117	99.6964	-0.745853	-8.255895E+9	4.374632E-12	NaN
674	1.000000	0.314457	7.37164e+06	-43389.1	1005.82	-29779.3	0.000000	0.000000	6.314860	-0.031522	NaN	0.000000	0.001620	0.001734	28.0816	0.088200	0.001993	44.2509	-108.512	-162.328	0.027692	0.313139	-0.738111	-0.739429	-0.031522	44.2509	-0.737577	-6.368639E+9	4.949611E-12	NaN
674	1.000000	0.322482	7.37164e+06	-43389.1	1005.82	-29779.3	0.000000	0.000000	6.322885	-0.036284	NaN	0.000000	0.001630	0.001727	28.0819	0.032655	0.001963	16.6338	6.335014	-161.949	-0.094761	0.321151	-0.730086	-0.731417	-0.036284	16.6338	-0.728450	-4.782777E+9	7.586315E-12	NaN
674	1.000000	0.330467	7.37164e+06	-43389.1	1005.82	-29779.3	0.000000	0.000000	6.330869	-0.048294	NaN	0.000000	0.001611	0.001717	28.0816	0.055565	0.001987	27.9589	104.405	-164.901	-0.028413	0.329126	-0.722102	-0.723442	-0.048294	27.9589	-0.720806	-3.762407E+9	1.283600E-11	NaN
674	1.000000	0.338485	7.37164e+06	-43389.1	1005.82	-29779.3	0.000000	0.000000	6.338887	-0.047685	NaN	0.000000	0.001640	0.001701	28.0816	0.082830	0.001971	42.0345	-47.2836	-165.572	0.043572	0.337176	-0.714084	-0.715392	-0.047685	42.0345	-0.713233	-2.965935E+9	1.607760E-11	NaN
674	1.000000	0.346450	7.37164e+06	-43389.1	1005.82	-29779.3	0.000000	0.000000	6.346852	-0.040479	NaN	0.000000	0.001619	0.001737	28.082	0.029623	0.002012	14.722	139.775	-166.112	-0.023592	0.345181	-0.706118	-0.707388	-0.040479	14.722	-0.704056	-2.222870E+9	1.821025E-11	NaN
674	1.000000	0.354463	7.37164e+06	-43389.1	1005.82	-29779.3	0.000000	0.000000	6.354866	-0.011905	NaN	0.000000	0.001650	0.001717	28.0815	0.011702	0.002056	5.691535	81.2043	-167.199	0.001157	0.353123	-0.698105	-0.699446	-0.011905	5.691535	-0.696536	-1.754788E+9	6.784235E-12	NaN
674	1.000000	0.362474	7.37164e+06	-43389.1	1005.82	-29779.3	0.000000	0.000000	6.362876	-0.056926	NaN	0.000000	0.001641	0.001711	28.0817	0.024892	0.002032	12.2528	-34.974	-168.48	-0.025694	0.361170	-0.690094	-0.691399	-0.056926	12.2528	-0.686610	-1.284036E+9	4.433334E-11	NaN
674	1.000000	0.370494	7.37164e+06	-43389.1	1005.82	-29779.3	0.000000	0.000000	6.370896	-0.039045	NaN	0.000000	0.001600	0.001716	28.0823	0.061944	0.002078	29.8097	85.2814	-169.494	0.031143	0.369190	-0.682074	-0.683379	-0.039045	29.8097	-0.681092	-1.079291E+9	3.617677E-11	NaN
674	1.000000	0.378471	7.37164e+06	-43389.1	1005.82	-29779.3	0.000000	0.000000	6.378874	-0.005246	NaN	0.000000	0.001560	0.001729	28.083	0.100857	0.001956	51.5609	28.2764	-168.558	-0.009440	0.377114	-0.674097	-0.675454	-0.005246	51.5609	-0.674021	-8.638104E+8	6.073334E-12	NaN
674	1.000000	0.386492	7.37164e+06	-43389.1	1005.82	-29779.3	0.000000	0.000000	6.386896	0.001964	NaN	0.000000	0.001660	0.001675	28.0827	0.086804	0.001960	44.2853	66.4948	-166.468	-0.044442	0.385202	-0.666077	-0.667366	0.001964	44.2853	-0.666110	-6.731941E+8	-2.916981E-12	NaN
674	1.000000	0.394482	7.37164e+06	-43389.1	1005.82	-29779.3	0.000000	0.000000	6.394887	0.025425	NaN	0.000000	0.001657	0.001738	28.0828	0.021726	0.002164	10.0415	-62.7519	-167.926	-0.053955	0.393233	-0.658087	-0.659335	0.025425	10.0415	-0.659986	-5.549732E+8	-4.581216E-11	NaN
674	1.000000	0.402502	7.37164e+06	-43389.1	1005.82	-29779.3	0.000000	0.000000	6.402903	-0.068539	NaN	0.000000	0.001641	0.001725	28.0834	0.047117	0.002024	23.2744	20.0937	-167.641	-0.062764	0.401177	-0.650067	-0.651392	-0.068539	23.2744	-0.647858	-3.785041E+8	1.810792E-10	NaN
674	1.000000	0.410504	7.37164e+06	-43389.1	1005.82	-29779.3	0.000000	0.000000	6.410907	-0.021686	NaN	0.000000	0.001653	0.001738	28.0828	0.052582	0.001975	26.6217	-81.3155	-166.833	0.030774	0.409198	-0.642064	-0.643370	-0.021686	26.6217	-0.641454	-3.091945E+8	7.013864E-11	NaN
674	1.000000	0.418499	7.37164e+06	-43389.1	1005.82	-29779.3	0.000000	0.000000	6.418903	-0.003899	NaN	0.000000	0.001685	0.001727	28.0829	0.047368	0.001945	24.3527	-38.9498	-165.054	-0.004869	0.417201	-0.634069	-0.635367	-0.003899	24.3527	-0.633949	-2.439192E+8	1.598608E-11	NaN
674	1.000000	0.426505	7.37164e+06	-43389.1	1005.82	-29779.3	0.000000	0.000000	6.426908	-0.006476	NaN	0.000000	0.001668	0.001714	28.0826	0.062798	0.001986	31.6222	169.135	-163.53	0.094710	0.425196	-0.626064	-0.627372	-0.006476	31.6222	-0.625910	-1.891678E+8	3.423619E-11	NaN
674	1.000000	0.434483	7.37164e+06	-43389.1	1005.82	-29779.3	0.000000	0.000000	6.434888	0.035429	NaN	0.000000	0.001625	0.001726	28.0828	0.145118	0.002069	70.152	103.153	-162.225	0.012183	0.433172	-0.618086	-0.619396	0.035429	70.152	-0.618464	-1.494601E+8	-2.370468E-10	NaN
674	1.000000	0.442510	7.37164e+06	-43389.1	1005.82	-29779.3	0.000000	0.000000	6.442913	-0.002333	NaN	0.000000	0.001655	0.001676	28.0831	0.074126	0.001927	38.4614	-134.497	-163.141	0.000869	0.441180	-0.610059	-0.611388	-0.002333	38.4614	-0.610013	-1.143656E+8	2.040323E-11	NaN
674	1.000000	0.450524	7.37164e+06	-43389.1	1005.82	-29779.3	0.000000	0.000000	6.450928	0.004094	NaN	0.000000	0.001621	0.001735	28.083	0.049190	0.001977	24.8836	-87.3176	-165.603	0.009421	0.449173	-0.602044	-0.603395	0.004094	24.8836	-0.602168	-8.918876E+7	-4.589821E-11	NaN
674	1.000000	0.458517	7.37164e+06	-43389.1	1005.82	-29779.3	0.000000	0.000000	6.458922	0.022718	NaN	0.000000	0.001621	0.001714	28.0829	0.117480	0.002075	56.62	-126.166	-166.833	-0.034408	0.457178	-0.594051	-0.595390	0.022718	56.62	-0.594352	-6.960697E+7	-3.263770E-10	NaN
674	1.000000	0.466519	7.37164e+06	-43389.1	1005.82	-29779.3	0.000000	0.000000	6.466922	0.000612	NaN	0.000000	0.001619	0.001696	28.0828	0.036424	0.002031	17.9316	38.4104	-163.945	-0.077111	0.465211	-0.586050	-0.587357	0.000612	17.9316	-0.586075	-5.352379E+7	-1.144019E-11	NaN
674	1.000000	0.474503	7.37164e+06	-43389.1	1005.82	-29779.3	0.000000	0.000000	6.474906	-0.013476	NaN	0.000000	0.001630	0.001710	28.0832	0.057279	0.002022	28.3226	-168.959	-166.735	0.000415	0.473240	-0.578065	-0.579328	-0.013476	28.3226	-0.577709	-4.102951E+7	3.284578E-10	NaN
674	1.000000	0.482508	7.37164e+06	-43389.1	1005.82	-29779.3	0.000000	0.000000	6.482915	0.070115	NaN	0.000000	0.001573	0.001756	28.0834	0.072638	0.001944	37.362	-129.974	-166.188	0.072093	0.481203	-0.570061	-0.571365	0.070115	37.362	-0.571468	-3.364448E+7	-2.083993E-9	NaN
674	1.000000	0.490536	7.37164e+06	-43389.1	1005.82	-29779.3	0.000000	0.000000	6.490942	0.047639	NaN	0.000000	0.001616	0.001723	28.0829	0.207968	0.002122	98.0275	-143.424	-167.323	0.048593	0.489260	-0.562033	-0.563308	0.047639	98.0275	-0.562397	-2.520771E+7	-1.889869E-9	NaN
674	1.000000	0.498518	7.37164e+06	-43389.1	1005.82	-29779.3	0.000000	0.000000	6.498923	0.010819	NaN	0.000000	0.001616	0.001748	28.083	0.036615	0.001900	19.2689	66.8784	-167.897	0.031528	0.497255	-0.554050	-0.555314	0.010819	19.2689	-0.554471	-1.958231E+7	-5.524725E-10	NaN
674	1.000000	0.506562	7.37164e+06	-43389.1	1005.82	-29779.3	0.000000	0.000000	6.506965	-0.007688	NaN	0.000000	0.001605	0.001748	28.0824	0.089309	0.001992	44.8379	81.4136	-163.576	-0.022621	0.505212	-0.546006	-0.547356	-0.007688	44.8379	-0.545878	-1.488832E+7	5.163543E-10	NaN
674	1.000000	0.514520	7.37164e+06	-43389.1	1005.82	-29779.3	0.000000	0.000000	6.514925	0.010514	NaN	0.000000	0.001605	0.001718	28.0819	0.092021	0.002021	45.5422	61.1687	-165.1	0.060318	0.513244	-0.538048	-0.539324	0.010514	45.5422	-0.538221	-1.165957E+7	-9.017618E-10	NaN
674	1.000000	0.522558	7.37165e+06	-43389.1	1005.82	-29779.3	0.000000	0.000000	6.522961	-0.014234	NaN	0.000000	0.001584	0.001707	28.0818	0.066728	0.001984	33.6354	-74.5127	-167.65	-0.065044	0.521278	-0.530010	-0.531290	-0.014234	33.6354	-0.529693	-8.87788e+06	1.603349E-9	NaN
674	1.000000	0.530543	7.37165e+06	-43389.1	1005.82	-29779.3	0.000000	0.000000	6.530947	0.002769	NaN	0.000000	0.001616	0.001724	28.0818	0.052924	0.002068	25.5937	132.883	-166.183	0.009134	0.529211	-0.522025	-0.523357	0.002769	25.5937	-0.522106	-6.96437e+06	-3.976039E-10	NaN
674	1.000000	0.538561	7.37165e+06	-43389.1	1005.82	-29779.3	0.000000	0.000000	6.538963	-0.039586	NaN	0.000000	0.001605	0.001732	28.0818	0.087433	0.002109	41.4494	-45.9312	-163.483	-0.008815	0.537280	-0.514007	-0.515288	-0.039586	41.4494	-0.513291	-5.25098e+06	7.538816E-9	NaN
674	1.000000	0.546569	7.37165e+06	-43389.1	1005.82	-29779.3	0.000000	0.000000	6.546973	-0.002450	NaN	0.000000	0.001551	0.001701	28.0816	0.077016	0.001994	38.6172	-113.258	-164.725	0.025465	0.545286	-0.505999	-0.507282	-0.002450	38.6172	-0.505951	-4.14958e+06	5.903620E-10	NaN
674	1.000000	0.554560	7.37165e+06	-43389.1	1005.82	-29779.3	0.000000	0.000000	6.554964	0.000369	NaN	0.000000	0.001590	0.001725	28.0823	0.054313	0.001986	27.351	169.078	-168.237	-0.045325	0.553245	-0.498009	-0.499323	0.000369	27.351	-0.498019	-3.21642e+06	-1.148525E-10	NaN
674	1.000000	0.562582	7.37165e+06	-43389.1	1005.82	-29779.3	0.000000	0.000000	6.562985	-0.018538	NaN	0.000000	0.001563	0.001736	28.0816	0.025931	0.002109	12.2931	-177.613	-163.962	-0.055840	0.561238	-0.489986	-0.491330	-0.018538	12.2931	-0.488855	-2.39549e+06	7.738898E-9	NaN
674	1.000000	0.570572	7.37165e+06	-43389.1	1005.82	-29779.3	0.000000	0.000000	6.570977	0.006369	NaN	0.000000	0.001600	0.001742	28.0816	0.118971	0.002026	58.7349	-90.8327	-166.308	0.075748	0.569264	-0.481996	-0.483304	0.006369	58.7349	-0.482077	-1.92574e+06	-3.307465E-9	NaN
674	1.000000	0.578597	7.37165e+06	-43389.1	1005.82	-29779.3	0.000000	0.000000	6.579000	-0.018520	NaN	0.000000	0.001607	0.001754	28.0816	0.101456	0.001895	53.5387	-121.367	-163.609	-0.046317	0.577203	-0.473972	-0.475365	-0.018520	53.5387	-0.473712	-1.47046e+06	1.259444E-8	NaN
674	1.000000	0.586576	7.37165e+06	-43389.1	1005.82	-29779.3	0.000000	0.000000	6.586981	0.015389	NaN	0.000000	0.001571	0.001684	28.0815	0.056515	0.001972	28.6611	144.532	-163.847	0.061364	0.585251	-0.465992	-0.467318	0.015389	28.6611	-0.466395	-1.16099e+06	-1.325468E-8	NaN
674	1.000000	0.594534	7.37165e+06	-43389.1	1005.82	-29779.3	0.000000	0.000000	6.594938	0.015462	NaN	0.000000	0.001582	0.001693	28.082	0.024024	0.002057	11.6816	-59.7655	-164.169	0.024012	0.593271	-0.458035	-0.459298	0.015462	11.6816	-0.459027	-914849	-1.690156E-8	NaN
674	1.000000	0.602563	7.37165e+06	-43389.1	1005.82	-29779.3	0.000000	0.000000	6.602968	0.044219	NaN	0.000000	0.001598	0.001713	28.0816	0.067224	0.002073	32.4358	-142.363	-163.891	0.093218	0.601262	-0.450006	-0.451306	0.044219	32.4358	-0.451028	-706024	-6.263093E-8	NaN
674	1.000000	0.610571	7.37165e+06	-43389.1	1005.82	-29779.3	0.000000	0.000000	6.610974	-0.011502	NaN	0.000000	0.001593	0.001683	28.0818	0.059729	0.002112	28.2805	76.6519	-166.538	-0.022256	0.609283	-0.441997	-0.443285	-0.011502	28.2805	-0.441692	-521485	2.205580E-8	NaN
674	1.000000	0.618620	7.37165e+06	-43389.1	1005.82	-29779.3	0.000000	0.000000	6.619021	-0.054746	NaN	0.000000	0.001582	0.001685	28.0816	0.021713	0.002179	9.963828	-70.299	-165.505	-0.026443	0.617251	-0.433949	-0.435317	-0.054746	9.963828	-0.429828	-354506	1.544303E-7	NaN
674	1.000000	0.626572	7.37165e+06	-43389.1	1005.82	-29779.3	0.000000	0.000000	6.626976	0.007809	NaN	0.000000	0.001592	0.001685	28.082	0.027959	0.002022	13.8298	-109.363	-162.312	0.022990	0.625259	-0.425996	-0.427309	0.007809	13.8298	-0.426420	-317241	-2.461695E-8	NaN
674	1.000000	0.634612	7.37165e+06	-43389.1	1005.82	-29779.3	0.000000	0.000000	6.635015	-0.020897	NaN	0.000000	0.001590	0.001669	28.0818	0.072790	0.002109	34.516	-7.349142	-165.954	0.012378	0.633277	-0.417956	-0.419291	-0.020897	34.516	-0.417502	-237123	8.812688E-8	NaN
674	1.000000	0.642578	7.37165e+06	-43389.1	1005.82	-29779.3	0.000000	0.000000	6.642984	0.034391	NaN	0.000000	0.001588	0.001680	28.0821	0.008054	0.001898	4.243765	-83.687	-163.339	-0.009905	0.641304	-0.409990	-0.411264	0.034391	4.243765	-0.416068	-226265	-1.519952E-7	NaN
674	1.000000	0.650593	7.37165e+06	-43389.1	1005.82	-29779.3	0.000000	0.000000	6.650995	-0.045662	NaN	0.000000	0.001548	0.001692	28.0835	0.080600	0.002045	39.4222	10.0855	-165.026	0.007086	0.649288	-0.401975	-0.403280	-0.045662	39.4222	-0.401106	-138602	3.294494E-7	NaN
674	1.000000	0.658599	7.37165e+06	-43389.1	1005.82	-29779.3	0.000000	0.000000	6.658999	-0.081881	NaN	0.000000	0.001539	0.001694	28.0831	0.029983	0.002116	14.171	18.4487	-164.729	-0.072082	0.657270	-0.393970	-0.395299	-0.081881	14.171	-0.389636	-95051.8	8.614329E-7	NaN
674	1.000000	0.666572	7.37165e+06	-43389.1	1005.82	-29779.3	0.000000	0.000000	6.666973	-0.072366	NaN	0.000000	0.001574	0.001736	28.0833	0.007764	0.002096	3.704439	95.3896	-166.409	-0.041419	0.665322	-0.385996	-0.387246	-0.072366	3.704439	-0.371345	-51939	1.393288E-6	NaN
674	1.000000	0.674601	7.37165e+06	-43389.1	1005.82	-29779.3	0.000000	0.000000	6.675003	-0.033405	NaN	0.000000	0.001619	0.001713	28.083	0.041930	0.001992	21.0455	126.442	-166.16	0.002756	0.673290	-0.377968	-0.379278	-0.033405	21.0455	-0.376777	-62174.5	5.372735E-7	NaN
674	1.000000	0.682603	7.37165e+06	-43389.1	1005.82	-29779.3	0.000000	0.000000	6.683007	0.006967	NaN	0.000000	0.001584	0.001677	28.0831	0.041153	0.001952	21.0877	-71.1527	-165.665	-0.032656	0.681228	-0.369965	-0.371340	0.006967	21.0877	-0.370213	-50025.6	-1.392696E-7	NaN
674	1.000000	0.690637	7.37165e+06	-43389.1	1005.82	-29779.3	0.000000	0.000000	6.691042	0.008857	NaN	0.000000	0.001597	0.001648	28.0836	0.043466	0.002048	21.2216	-81.906	-164.099	-0.060745	0.689302	-0.361931	-0.363266	0.008857	21.2216	-0.362244	-38394.4	-2.306969E-7	NaN
674	1.000000	0.698618	7.37165e+06	-43389.1	1005.82	-29779.3	0.000000	0.000000	6.699023	0.028353	NaN	0.000000	0.001593	0.001703	28.0831	0.044210	0.002005	22.0529	-51.148	-166.842	0.012839	0.697314	-0.353951	-0.355254	0.028353	22.0529	-0.354915	-30079	-9.426113E-7	NaN
674	1.000000	0.706617	7.37165e+06	-43389.1	1005.82	-29779.3	0.000000	0.000000	6.707024	0.062248	NaN	0.000000	0.001571	0.001693	28.0832	0.055891	0.002095	26.68	-108.701	-165.209	0.060763	0.705293	-0.345951	-0.347275	0.062248	26.68	-0.347701	-23638.5	-2.633334E-6	NaN
674	1.000000	0.714606	7.37165e+06	-43389.1	1005.82	-29779.3	0.000000	0.000000	6.715011	0.029256	NaN	0.000000	0.001589	0.001707	28.0831	0.020993	0.002027	10.3575	134.211	-163.076	0.047185	0.713332	-0.337962	-0.339236	0.029256	10.3575	-0.340081	-18311.8	-1.597672E-6	NaN
674	1.000000	0.722641	7.37165e+06	-43389.1	1005.82	-29779.3	0.000000	0.000000	6.723046	0.022322	NaN	0.000000	0.001616	0.001735	28.083	0.149291	0.001914	77.9798	-39.4811	-167.882	0.050349	0.721288	-0.329927	-0.331281	0.022322	77.9798	-0.330142	-13107.7	-1.702932E-6	NaN
674	1.000000	0.730629	7.37165e+06	-43389.1	1005.82	-29779.3	0.000000	0.000000	6.731032	-0.032614	NaN	0.000000	0.001570	0.001706	28.0832	0.024096	0.002015	11.9569	54.6114	-167.829	-0.013270	0.729323	-0.321939	-0.323245	-0.032614	11.9569	-0.319893	-9269.74	3.518304E-6	NaN
674	1.000000	0.738639	7.37165e+06	-43389.1	1005.82	-29779.3	0.000000	0.000000	6.739043	0.011604	NaN	0.000000	0.001594	0.001749	28.083	0.045106	0.001994	22.623	68.2253	-165.038	-0.058610	0.737329	-0.313930	-0.315240	0.011604	22.623	-0.314314	-7670.55	-1.512838E-6	NaN
674	1.000000	0.746620	7.37165e+06	-43389.1	1005.82	-29779.3	0.000000	0.000000	6.747027	0.054273	NaN	0.000000	0.001595	0.001719	28.0834	0.047562	0.001913	24.8691	168.341	-167.937	0.031315	0.745316	-0.305948	-0.307252	0.054273	24.8691	-0.307585	-6099.39	-8.898170E-6	NaN
674	1.000000	0.754634	7.37165e+06	-43389.1	1005.82	-29779.3	0.000000	0.000000	6.755039	0.017370	NaN	0.000000	0.001560	0.001749	28.0831	0.034677	0.001984	17.4769	23.4756	-165.273	0.045918	0.753331	-0.297934	-0.299237	0.017370	17.4769	-0.298679	-4497.45	-3.862126E-6	NaN
674	1.000000	0.762640	7.37165e+06	-43389.1	1005.82	-29779.3	0.000000	0.000000	6.763044	-0.004847	NaN	0.000000	0.001583	0.001745	28.083	0.033636	0.002069	16.2575	-100.174	-165.223	0.043732	0.761360	-0.289928	-0.291208	-0.004847	16.2575	-0.289705	-3302.75	1.467485E-6	NaN
674	1.000000	0.770649	7.37165e+06	-43389.1	1005.82	-29779.3	0.000000	0.000000	6.771052	-0.018376	NaN	0.000000	0.001555	0.001772	28.0829	0.063363	0.001937	32.7182	-165.795	-167.406	0.010922	0.769307	-0.281919	-0.283261	-0.018376	32.7182	-0.281498	-2486.32	7.390993E-6	NaN
674	1.000000	0.778655	7.37165e+06	-43389.1	1005.82	-29779.3	0.000000	0.000000	6.779059	-0.013428	NaN	0.000000	0.001602	0.001736	28.0827	0.095885	0.002051	46.7552	157.43	-165.006	-0.028943	0.777307	-0.273913	-0.275262	-0.013428	46.7552	-0.273697	-1895.25	7.085157E-6	NaN
674	1.000000	0.786648	7.37165e+06	-43389.1	1005.82	-29779.3	0.000000	0.000000	6.787053	0.018514	NaN	0.000000	0.001591	0.001745	28.0816	0.148366	0.002035	72.9009	-48.9877	-163.088	-0.041820	0.785373	-0.265920	-0.267195	0.018514	72.9009	-0.266110	-1453.21	-1.274018E-5	NaN
674	1.000000	0.794644	7.37165e+06	-43389.1	1005.82	-29779.3	0.000000	0.000000	6.795047	-0.004067	NaN	0.000000	0.001547	0.001740	28.0816	0.034496	0.002012	17.1414	98.6688	-165.131	0.038332	0.793346	-0.257925	-0.259222	-0.004067	17.1414	-0.257747	-1082.3	3.757460E-6	NaN
674	1.000000	0.802663	7.37165e+06	-43389.1	1005.82	-29779.3	0.000000	0.000000	6.803067	-0.005661	NaN	0.000000	0.001596	0.001730	28.082	0.046522	0.002060	22.5811	145.25	-164.818	-0.026257	0.801341	-0.249905	-0.251227	-0.005661	22.5811	-0.249717	-813.927	6.954875E-6	NaN
674	1.000000	0.810634	7.37165e+06	-43389.1	1005.82	-29779.3	0.000000	0.000000	6.811037	-0.028391	NaN	0.000000	0.001583	0.001715	28.0817	0.043944	0.001990	22.0851	-104.131	-166.965	0.048321	0.809407	-0.241934	-0.243162	-0.028391	22.0851	-0.240970	-595.246	4.769545E-5	NaN
674	1.000000	0.818667	7.37165e+06	-43389.1	1005.82	-29779.3	0.000000	0.000000	6.819072	0.017559	NaN	0.000000	0.001583	0.001709	28.0814	0.053868	0.001999	26.9428	-23.0454	-163.69	-0.042369	0.817363	-0.233901	-0.235205	0.017559	26.9428	-0.234390	-469.535	-3.739659E-5	NaN
674	1.000000	0.826684	7.37165e+06	-43389.1	1005.82	-29779.3	0.000000	0.000000	6.827089	0.022836	NaN	0.000000	0.001563	0.001687	28.0813	0.016563	0.001967	8.419081	-58.103	-168.126	-0.070733	0.825420	-0.225884	-0.227148	0.022836	8.419081	-0.227918	-371.2	-6.151962E-5	NaN
674	1.000000	0.834664	7.37165e+06	-43389.1	1005.82	-29779.3	0.000000	0.000000	6.835069	0.029694	NaN	0.000000	0.001586	0.001676	28.0813	0.042961	0.002041	21.0454	-10.611	-165.459	0.052277	0.833347	-0.217905	-0.219221	0.029694	21.0454	-0.218963	-267.356	-0.000111	NaN
674	1.000000	0.842680	7.37165e+06	-43389.1	1005.82	-29779.3	0.000000	0.000000	6.843082	-0.046020	NaN	0.000000	0.001598	0.001711	28.0816	0.040391	0.001889	21.3858	-49.7393	-168.023	-0.075652	0.841367	-0.209888	-0.211202	-0.046020	21.3858	-0.208274	-179.817	0.000256	NaN
674	1.000000	0.850682	7.37165e+06	-43389.1	1005.82	-29779.3	0.000000	0.000000	6.851087	0.016778	NaN	0.000000	0.001575	0.001711	28.0813	0.056626	0.001858	30.4819	-19.961	-168.003	0.043328	0.849341	-0.201886	-0.203228	0.016778	30.4819	-0.202299	-143.686	-0.000117	NaN
674	1.000000	0.858660	7.37165e+06	-43389.1	1005.82	-29779.3	0.000000	0.000000	6.859065	0.025865	NaN	0.000000	0.001594	0.001682	28.0814	0.062212	0.002060	30.2005	-87.5882	-161.959	-0.007337	0.857342	-0.193908	-0.195226	0.025865	30.2005	-0.194550	-107.09	-0.000242	NaN
674	1.000000	0.866681	7.37165e+06	-43389.1	1005.82	-29779.3	0.000000	0.000000	6.867084	-0.018090	NaN	0.000000	0.001575	0.001703	28.0813	0.070578	0.002032	34.7391	72.0147	-166.845	-0.009176	0.865404	-0.185888	-0.187164	-0.018090	34.7391	-0.185497	-75.597	0.000239	NaN
674	1.000000	0.874678	7.37165e+06	-43389.1	1005.82	-29779.3	0.000000	0.000000	6.875081	-0.015914	NaN	0.000000	0.001599	0.001702	28.0814	0.045631	0.001898	24.0445	-168.838	-165.998	-0.057439	0.873425	-0.177890	-0.179144	-0.015914	24.0445	-0.177394	-55.0831	0.000289	NaN
674	1.000000	0.882659	7.37165e+06	-43389.1	1005.82	-29779.3	0.000000	0.000000	6.883060	-0.058477	NaN	0.000000	0.001597	0.001669	28.0814	0.034029	0.002077	16.3874	-136.08	-167.51	-0.015035	0.881370	-0.169910	-0.171198	-0.058477	16.3874	-0.167233	-36.7639	0.001591	NaN
674	1.000000	0.890683	7.37165e+06	-43389.1	1005.82	-29779.3	0.000000	0.000000	6.891088	0.031275	NaN	0.000000	0.001640	0.001646	28.0814	0.044310	0.001951	22.711	103.698	-166.011	0.013559	0.889376	-0.161886	-0.163192	0.031275	22.711	-0.162918	-30.879	-0.001013	NaN
674	1.000000	0.898696	7.37165e+06	-43389.1	1005.82	-29779.3	0.000000	0.000000	6.899100	-0.008078	NaN	0.000000	0.001535	0.001650	28.0815	0.032240	0.001937	16.6419	178.121	-166.233	-0.047226	0.897410	-0.153872	-0.155158	-0.008078	16.6419	-0.153508	-20.9737	0.000385	NaN
674	1.000000	0.906730	7.37165e+06	-43389.1	1005.82	-29779.3	0.000000	0.000000	6.907132	-0.050295	NaN	0.000000	0.001570	0.001651	28.0815	0.018853	0.001966	9.587548	164.487	-165.557	0.042154	0.905380	-0.145838	-0.147188	-0.050295	9.587548	-0.141904	-12.8416	0.003917	NaN
674	1.000000	0.914713	7.37165e+06	-43389.1	1005.82	-29779.3	0.000000	0.000000	6.915118	0.028995	NaN	0.000000	0.001578	0.001666	28.0816	0.038020	0.002000	19.0066	127.93	-165.185	0.085187	0.913436	-0.137856	-0.139133	0.028995	19.0066	-0.139000	-11.3279	-0.002560	NaN
674	1.000000	0.922685	7.37165e+06	-43389.1	1005.82	-29779.3	0.000000	0.000000	6.923088	-0.016058	NaN	0.000000	0.001602	0.001702	28.0828	0.019839	0.001929	10.2853	-150.979	-164.543	-0.000769	0.921423	-0.129883	-0.131145	-0.016058	10.2853	-0.128713	-7.193576	0.002232	NaN
674	1.000000	0.930721	7.37165e+06	-43389.1	1005.82	-29779.3	0.000000	0.000000	6.931127	0.059010	NaN	0.000000	0.001591	0.001713	28.0829	0.032225	0.002106	15.2995	-1.496168	-168.049	0.104125	0.929462	-0.121847	-0.123107	0.059010	15.2995	-0.124740	-6.009603	-0.009819	NaN
674	1.000000	0.938727	7.37165e+06	-43389.1	1005.82	-29779.3	0.000000	0.000000	6.939132	0.031102	NaN	0.000000	0.001606	0.001724	28.0829	0.016175	0.001851	8.738504	-133.45	-168.191	0.024656	0.937410	-0.113841	-0.115158	0.031102	8.738504	-0.116511	-4.103456	-0.007580	NaN
674	1.000000	0.946715	7.37165e+06	-43389.1	1005.82	-29779.3	0.000000	0.000000	6.947119	-0.005052	NaN	0.000000	0.001605	0.001697	28.0828	0.042589	0.002045	20.8272	-16.0529	-170.367	0.025507	0.945439	-0.105853	-0.107129	-0.005052	20.8272	-0.105671	-2.430214	0.002079	NaN
674	1.000000	0.954704	7.37165e+06	-43389.1	1005.82	-29779.3	0.000000	0.000000	6.955108	0.010385	NaN	0.000000	0.001600	0.001699	28.0831	0.108474	0.001974	54.9464	112.857	-168.452	-0.106189	0.953445	-0.097865	-0.099124	0.010385	54.9464	-0.098006	-1.649458	-0.006296	NaN
674	1.000000	0.962695	7.37165e+06	-43389.1	1005.82	-29779.3	0.000000	0.000000	6.963097	-0.037115	NaN	0.000000	0.001615	0.001697	28.0829	0.017881	0.002034	8.790071	107.736	-165.016	0.002151	0.961425	-0.089874	-0.091144	-0.037115	8.790071	-0.086707	-0.903160	0.041095	NaN
674	1.000000	0.970719	7.37165e+06	-43389.1	1005.82	-29779.3	0.000000	0.000000	6.971124	0.010374	NaN	0.000000	0.001612	0.001656	28.0829	0.029204	0.002006	14.5547	97.2566	-169.87	-0.020594	0.969422	-0.081849	-0.083146	0.010374	14.5547	-0.082383	-0.709275	-0.014626	NaN
674	1.000000	0.978733	7.37165e+06	-43389.1	1005.82	-29779.3	0.000000	0.000000	6.979139	0.044333	NaN	0.000000	0.001601	0.001676	28.0829	0.063407	0.001898	33.4134	167.107	-163.06	0.018813	0.977435	-0.073835	-0.075134	0.044333	33.4134	-0.074831	-0.457228	-0.096960	NaN
674	1.000000	0.986721	7.37165e+06	-43389.1	1005.82	-29779.3	0.000000	0.000000	6.987124	-0.012746	NaN	0.000000	0.001558	0.001697	28.0829	0.109059	0.002054	53.1021	-33.6451	-163.237	-0.035098	0.985456	-0.065848	-0.067112	-0.012746	53.1021	-0.065668	-0.260048	0.049016	NaN
674	1.000000	0.994732	7.37165e+06	-43389.1	1005.82	-29779.3	0.000000	0.000000	6.995137	0.022504	NaN	0.000000	0.001632	0.001683	28.0829	0.040069	0.002096	19.1194	-99.087	-165.131	0.019353	0.993451	-0.057836	-0.059117	0.022504	19.1194	-0.058719	-0.165425	-0.136040	NaN
674	1.000000	1.002738	7.37165e+06	-43389.1	1005.82	-29779.3	0.000000	0.000000	7.003144	0.028875	NaN	0.000000	0.001611	0.001701	28.0828	0.084487	0.001974	42.7995	-112.594	-168.429	0.016470	1.001447	-0.049830	-0.051121	0.028875	42.7995	-0.050336	-0.093408	-0.309125	NaN
674	1.000000	1.010733	7.37165e+06	-43389.1	1005.82	-29779.3	0.000000	0.000000	7.011136	-0.011787	NaN	0.000000	0.001623	0.001699	28.0831	0.100496	0.002033	49.4297	-134.937	-167.122	-0.000941	1.009471	-0.041835	-0.043097	-0.011787	49.4297	-0.041656	-0.050791	0.232062	NaN
674	1.000000	1.018746	7.37165e+06	-43389.1	1005.82	-29779.3	0.000000	0.000000	7.019150	0.010395	NaN	0.000000	0.001641	0.001669	28.0827	0.055260	0.002008	27.5189	80.433	-166.69	-0.025048	1.017494	-0.033822	-0.035074	0.010395	27.5189	-0.034105	-0.030147	-0.344804	NaN
674	1.000000	1.026745	7.37165e+06	-43389.1	1005.82	-29779.3	0.000000	0.000000	7.027151	0.046980	NaN	0.000000	0.001612	0.001678	28.0826	0.057485	0.001927	29.8316	-124.596	-165.588	-0.015290	1.025443	-0.025823	-0.027125	0.046980	29.8316	-0.027004	-0.019059	-2.464897	NaN
674	1.000000	1.034752	7.37165e+06	-43389.1	1005.82	-29779.3	0.000000	0.000000	7.035155	-0.014519	NaN	0.000000	0.001604	0.001712	28.0829	0.066687	0.001774	37.5992	-109.367	-162.049	-0.059776	1.033426	-0.017816	-0.019143	-0.014519	37.5992	-0.017527	-0.010851	1.338064	NaN
674	1.000000	1.042737	7.37165e+06	-43389.1	1005.82	-29779.3	0.000000	0.000000	7.043141	0.004679	NaN	0.000000	0.001604	0.001705	28.0828	0.044610	0.002060	21.6583	-77.2857	-161.402	0.038229	1.041447	-0.009831	-0.011121	0.004679	21.6583	-0.009993	-0.006383	-0.733006	NaN
674	1.000000	1.050749	7.37165e+06	-43389.1	1005.82	-29779.3	0.000000	0.000000	7.051180	0.658814	NaN	0.000000	0.001618	0.001698	28.0829	1.155682	0.002095	551.577	13.8368	-167.916	0.114687	1.049438	-0.001819	-0.003130	0.658814	551.577	-0.002715	-0.001929	-341.558	NaN
674	2.000000	1.058195	7.37165e+06	-43389.1	1005.82	-29779.3	0.000000	0.000000	7.058950	8.534109	NaN	0.000000	0.001616	0.001688	28.0816	8.381162	0.001606	5220.14	9.791465	-171.942	7.752122	1.057362	0.005627	0.004794	8.534109	5220.14	0.004401	0.003593	2375.02	79562.7
674	2.000000	1.060452	7.37165e+06	-43389.1	1005.82	-29779.3	0.000000	0.000000	7.061337	11.7074	NaN	0.000000	0.001645	0.001679	28.0817	10.9919	0.001702	6457.85	2.774361	-169.024	11.8151	1.060061	0.007883	0.007493	11.7074	6457.85	0.006524	0.005567	2102.87	79074.6
674	2.000000	1.062375	7.37165e+06	-43389.1	1005.82	-29779.3	0.000000	0.000000	7.063376	14.5198	NaN	0.000000	0.001587	0.001672	28.0815	12.6933	0.001667	7613.72	4.830419	-173.347	13.9309	1.062008	0.009807	0.009440	14.5198	7613.72	0.008377	0.007433	1953.43	80684.5
674	2.000000	1.064366	7.37165e+06	-43389.1	1005.82	-29779.3	0.000000	0.000000	7.065511	18.0271	NaN	0.000000	0.001607	0.001688	28.0818	15.8245	0.001787	8853.66	7.919659	-176.477	18.0198	1.064066	0.011798	0.011498	18.0271	8853.66	0.010271	0.009484	1900.72	83060.2
674	2.000000	1.066327	7.37165e+06	-43389.1	1005.82	-29779.3	0.000000	0.000000	7.067652	22.3908	NaN	0.000000	0.001598	0.001677	28.0817	16.8	0.001602	10485.1	-0.198515	-169.364	22.1653	1.066010	0.013759	0.013442	22.3908	10485.1	0.012158	0.011679	1917.12	88641.5
674	2.000000	1.068296	7.37165e+06	-43389.1	1005.82	-29779.3	0.000000	0.000000	7.069837	27.6686	NaN	0.000000	0.001609	0.001666	28.0817	20.6375	0.001819	11348.5	6.334223	-177.579	26.2448	1.067966	0.015728	0.015398	27.6686	11348.5	0.013899	0.013845	1998.39	88116.4
674	2.000000	1.070338	7.37165e+06	-43389.1	1005.82	-29779.3	0.000000	0.000000	7.072098	33.0051	NaN	0.000000	0.001657	0.001699	28.0816	22.5958	0.001766	12798.2	8.590000	-179.641	33.6003	1.069979	0.017769	0.017411	33.0051	12798.2	0.015835	0.016415	2010.63	91263.3
674	2.000000	1.072339	7.37165e+06	-43389.1	1005.82	-29779.3	0.000000	0.000000	7.074283	37.4646	NaN	0.000000	0.001654	0.001679	28.0819	24.9539	0.001799	13872.6	6.286074	-179.505	38.0029	1.072102	0.019771	0.019534	37.4646	13872.6	0.017746	0.019123	1959.17	91654.8
674	2.000000	1.074369	7.37165e+06	-43389.1	1005.82	-29779.3	0.000000	0.000000	7.076498	41.9637	NaN	0.000000	0.001661	0.001692	28.0818	27.7829	0.001869	14863.9	7.665073	178.715	42.5822	1.074050	0.021801	0.021481	41.9637	14863.9	0.019683	0.022047	1903.35	91459.1
674	2.000000	1.076273	7.37165e+06	-43389.1	1005.82	-29779.3	0.000000	0.000000	7.078752	50.4679	NaN	0.000000	0.001607	0.001730	28.0815	29.4585	0.001681	17524.5	10.8195	173.852	48.8177	1.075987	0.023705	0.023419	50.4679	17524.5	0.021545	0.025029	2016.38	101204
674	2.000000	1.078284	7.37165e+06	-43389.1	1005.82	-29779.3	0.000000	0.000000	7.081060	57.7074	NaN	0.000000	0.001580	0.001735	28.0821	31.7861	0.001892	16799.5	8.016557	177.947	58.2604	1.077991	0.025716	0.025423	57.7074	16799.5	0.023139	0.027718	2081.98	92191.8
674	2.000000	1.080323	7.37165e+06	-43389.1	1005.82	-29779.3	0.000000	0.000000	7.083298	62.57	NaN	0.000000	0.001648	0.001719	28.0816	34.0668	0.001812	18805.7	10.7679	173.673	62.8844	1.080029	0.027754	0.027461	62.57	18805.7	0.025259	0.031489	1987.07	96824.7
674	2.000000	1.082236	7.37165e+06	-43389.1	1005.82	-29779.3	0.000000	0.000000	7.085571	71.2993	NaN	0.000000	0.001664	0.001739	28.0823	34.6334	0.001760	19682	4.596095	178.422	68.1293	1.081968	0.029668	0.029400	71.2993	19682	0.026951	0.034661	2057.04	96587.8
674	2.000000	1.084274	7.37165e+06	-43389.1	1005.82	-29779.3	0.000000	0.000000	7.087817	76.3788	NaN	0.000000	0.001654	0.001716	28.0815	37.694	0.001811	20813.5	0.630391	-177.767	74.9603	1.084057	0.031706	0.031488	76.3788	20813.5	0.028954	0.038603	1978.59	96785.2
674	2.000000	1.086283	7.37165e+06	-43389.1	1005.82	-29779.3	0.000000	0.000000	7.090346	89.0092	NaN	0.000000	0.001600	0.001709	28.0815	38.8256	0.001573	24683.4	4.982931	176.531	87.7002	1.085946	0.033715	0.033378	89.0092	24683.4	0.031011	0.042864	2076.54	108926
674	2.000000	1.088246	7.37165e+06	-43389.1	1005.82	-29779.3	0.000000	0.000000	7.092601	96.1281	NaN	0.000000	0.001634	0.001731	28.0816	42.8706	0.001836	23348.8	9.581498	172.326	94.6706	1.087926	0.035677	0.035357	96.1281	23348.8	0.032590	0.046282	2077	99158.5
674	2.000000	1.090283	7.37165e+06	-43389.1	1005.82	-29779.3	0.000000	0.000000	7.094867	101.713	NaN	0.000000	0.001632	0.001719	28.0814	43.5368	0.001795	24250.8	3.297910	178.782	99.4889	1.089966	0.037715	0.037397	101.713	24250.8	0.034569	0.050747	2004.31	98354
674	2.000000	1.092226	7.37165e+06	-43389.1	1005.82	-29779.3	0.000000	0.000000	7.097369	115.303	NaN	0.000000	0.001663	0.001714	28.0832	45.6775	0.001771	25792.2	6.049800	174.836	111.896	1.091943	0.039657	0.039375	115.303	25792.2	0.036305	0.054827	2103.02	100638
674	2.000000	1.094278	7.37165e+06	-43389.1	1005.82	-29779.3	0.000000	0.000000	7.099407	114.975	NaN	0.000000	0.001647	0.001738	28.0832	47.5968	0.001801	26427.4	2.607310	177.298	112.556	1.094063	0.041709	0.041495	114.975	26427.4	0.038446	0.060075	1913.86	98510.2
674	2.000000	1.096247	7.37165e+06	-43389.1	1005.82	-29779.3	0.000000	0.000000	7.101932	128.475	NaN	0.000000	0.001631	0.001756	28.0827	48.1237	0.001706	28203.1	2.136889	178.25	127.618	1.095937	0.043679	0.043369	128.475	28203.1	0.040263	0.064709	1985.44	101295
674	2.000000	1.098262	7.37165e+06	-43389.1	1005.82	-29779.3	0.000000	0.000000	7.104334	137.902	NaN	0.000000	0.001642	0.001753	28.0833	51.3217	0.001772	28955.2	2.041256	178.135	136.661	1.097864	0.045694	0.045296	137.902	28955.2	0.042122	0.069627	1980.59	100256
674	2.000000	1.100312	7.37165e+06	-43389.1	1005.82	-29779.3	0.000000	0.000000	7.106684	145.21	NaN	0.000000	0.001612	0.001736	28.0828	54.1038	0.001728	31312.1	7.574355	172.313	145.985	1.100009	0.047744	0.047441	145.21	31312.1	0.044265	0.075516	1922.9	104104
674	2.000000	1.102326	7.37165e+06	-43389.1	1005.82	-29779.3	0.000000	0.000000	7.109064	154.109	NaN	0.000000	0.001616	0.001718	28.0832	55.3023	0.001840	30054.3	6.423265	174.185	155.273	1.101929	0.049758	0.049361	154.109	30054.3	0.045912	0.080197	1921.64	96961.8
674	2.000000	1.104270	7.37165e+06	-43389.1	1005.82	-29779.3	0.000000	0.000000	7.111427	164.294	NaN	0.000000	0.001630	0.001734	28.0831	56.7194	0.001797	31570.5	2.968150	176.547	164.613	1.103984	0.051702	0.051415	164.294	31570.5	0.047799	0.085732	1916.37	98510.8
674	2.000000	1.106237	7.37165e+06	-43389.1	1005.82	-29779.3	0.000000	0.000000	7.113813	174.477	NaN	0.000000	0.001605	0.001744	28.0829	57.5462	0.001825	31537.6	4.456188	174.832	172.897	1.105946	0.053669	0.053377	174.477	31537.6	0.049520	0.090935	1918.7	95551.4
674	2.000000	1.108220	7.37165e+06	-43389.1	1005.82	-29779.3	0.000000	0.000000	7.116263	185.86	NaN	0.000000	0.001606	0.001750	28.0833	58.9334	0.001666	35377.6	-0.395074	179.142	182.579	1.107920	0.055652	0.055352	185.86	35377.6	0.051712	0.097778	1900.84	103367
674	2.000000	1.110273	7.37165e+06	-43389.1	1005.82	-29779.3	0.000000	0.000000	7.118812	197.912	NaN	0.000000	0.001662	0.001750	28.0828	63.2809	0.001862	33987.1	6.361233	172.755	196.179	1.109844	0.057705	0.057276	197.912	33987.1	0.053338	0.103009	1921.31	96750
674	2.000000	1.112258	7.37165e+06	-43389.1	1005.82	-29779.3	0.000000	0.000000	7.121270	209.439	NaN	0.000000	0.001660	0.001751	28.0833	64.3271	0.001787	35988.5	5.335708	173.184	209.331	1.111856	0.059689	0.059288	209.439	35988.5	0.055325	0.109579	1911.29	99328.2
674	2.000000	1.114242	7.37165e+06	-43389.1	1005.82	-29779.3	0.000000	0.000000	7.123420	213.454	NaN	0.000000	0.001607	0.001761	28.083	67.0144	0.001762	38043.1	6.027388	171.245	213.054	1.114050	0.061674	0.061482	213.454	38043.1	0.057466	0.116878	1826.29	101668
674	2.000000	1.116161	7.37165e+06	-43389.1	1005.82	-29779.3	0.000000	0.000000	7.126231	235.185	NaN	0.000000	0.001615	0.001711	28.0829	66.8936	0.001673	39986.4	5.306733	172.527	231.353	1.115873	0.063593	0.063305	235.185	39986.4	0.059181	0.122889	1913.8	104214
674	2.000000	1.118253	7.37165e+06	-43389.1	1005.82	-29779.3	0.000000	0.000000	7.128769	246.047	NaN	0.000000	0.001607	0.001736	28.0835	70.7918	0.001740	40683.8	4.236098	173.133	246.253	1.117935	0.065684	0.065367	246.047	40683.8	0.061148	0.129959	1893.27	103108
674	2.000000	1.120224	7.37165e+06	-43389.1	1005.82	-29779.3	0.000000	0.000000	7.131269	258.891	NaN	0.000000	0.001620	0.001720	28.0829	73.7923	0.001824	40455.4	9.201973	168.659	256.87	1.119889	0.067656	0.067321	258.891	40455.4	0.062856	0.136250	1900.12	100134
674	2.000000	1.122225	7.37165e+06	-43389.1	1005.82	-29779.3	0.000000	0.000000	7.133754	270.661	NaN	0.000000	0.001642	0.001727	28.0835	74.6171	0.001866	39989.6	1.646104	176.006	267.927	1.121964	0.069657	0.069395	270.661	39989.6	0.064580	0.142744	1896.13	96703.3
674	2.000000	1.124200	7.37165e+06	-43389.1	1005.82	-29779.3	0.000000	0.000000	7.136625	292.478	NaN	0.000000	0.001580	0.001746	28.083	77.3633	0.001928	40116.1	3.628981	173.787	289.272	1.123989	0.071632	0.071421	292.478	40116.1	0.066164	0.148834	1965.13	95003.8
674	2.000000	1.126257	7.37165e+06	-43389.1	1005.82	-29779.3	0.000000	0.000000	7.139176	304.482	NaN	0.000000	0.001623	0.001732	28.0819	78.3744	0.001866	41991.9	6.219360	170.983	304.689	1.125805	0.073689	0.073237	304.482	41991.9	0.068250	0.157044	1938.83	96811.9
674	2.000000	1.128146	7.37165e+06	-43389.1	1005.82	-29779.3	0.000000	0.000000	7.141630	318.233	NaN	0.000000	0.001592	0.001735	28.0818	78.3059	0.001635	47907.6	1.784763	174.556	312.111	1.127814	0.075578	0.075246	318.233	47907.6	0.070596	0.166522	1911.06	107261
674	2.000000	1.130316	7.37165e+06	-43389.1	1005.82	-29779.3	0.000000	0.000000	7.144423	333.409	NaN	0.000000	0.001606	0.001722	28.0819	82.4356	0.001782	46257.3	6.461924	170.763	337.109	1.129907	0.077747	0.077339	333.409	46257.3	0.072342	0.173744	1918.97	101391
674	2.000000	1.132168	7.37165e+06	-43389.1	1005.82	-29779.3	0.000000	0.000000	7.146724	344.334	NaN	0.000000	0.001643	0.001705	28.0827	83.4058	0.001732	48150.6	3.988024	172.126	341.187	1.131985	0.079599	0.079417	344.334	48150.6	0.074236	0.181746	1894.59	103191
674	2.000000	1.134181	7.37165e+06	-43389.1	1005.82	-29779.3	0.000000	0.000000	7.149857	371.572	NaN	0.000000	0.001655	0.001711	28.0821	85.5782	0.001730	49470.2	3.744412	172.152	367.728	1.133781	0.081613	0.081213	371.572	49470.2	0.075979	0.189259	1963.31	103894
674	2.000000	1.136149	7.37165e+06	-43389.1	1005.82	-29779.3	0.000000	0.000000	7.152148	379.418	NaN	0.000000	0.001573	0.001724	28.082	87.2257	0.001851	47113.9	4.233119	171.865	375.97	1.135987	0.083581	0.083419	379.418	47113.9	0.077541	0.196108	1934.74	97202
674	2.000000	1.138287	7.37165e+06	-43389.1	1005.82	-29779.3	0.000000	0.000000	7.155122	399.759	NaN	0.000000	0.001657	0.001679	28.0819	88.2011	0.001727	51070.1	6.092738	170.128	402.506	1.137869	0.085719	0.085300	399.759	51070.1	0.079848	0.206440	1936.44	102694
674	2.000000	1.140178	7.37165e+06	-43389.1	1005.82	-29779.3	0.000000	0.000000	7.157856	420.295	NaN	0.000000	0.001691	0.001687	28.0816	91.2723	0.001808	50485.1	5.566796	171.157	416.004	1.139785	0.087609	0.087217	420.295	50485.1	0.081365	0.213369	1969.8	99855.2
674	2.000000	1.142026	7.37165e+06	-43389.1	1005.82	-29779.3	0.000000	0.000000	7.160280	434.277	NaN	0.000000	0.001682	0.001747	28.0819	92.4899	0.001701	54370.1	4.079269	171.28	424.348	1.141801	0.089458	0.089233	434.277	54370.1	0.083467	0.223144	1946.17	105158
674	2.000000	1.144264	7.37165e+06	-43389.1	1005.82	-29779.3	0.000000	0.000000	7.163276	452.736	NaN	0.000000	0.001662	0.001767	28.0817	96.7775	0.001831	52848.1	4.329637	171.397	456.809	1.143935	0.091696	0.091367	452.736	52848.1	0.085271	0.231694	1954.03	100310
674	2.000000	1.146112	7.37165e+06	-43389.1	1005.82	-29779.3	0.000000	0.000000	7.165542	462.886	NaN	0.000000	0.001661	0.001747	28.0816	97.1082	0.001895	51242.6	2.117260	173.614	455.936	1.145886	0.093544	0.093317	462.886	51242.6	0.086769	0.238913	1937.47	95782.1
674	2.000000	1.148083	7.37165e+06	-43389.1	1005.82	-29779.3	0.000000	0.000000	7.168472	486.22	NaN	0.000000	0.001640	0.001751	28.0814	98.9862	0.001762	56174.6	1.041804	174.241	479.16	1.147876	0.095515	0.095308	486.22	56174.6	0.089023	0.249966	1945.14	102653
674	2.000000	1.150255	7.37165e+06	-43389.1	1005.82	-29779.3	0.000000	0.000000	7.171537	507.95	NaN	0.000000	0.001665	0.001743	28.0815	102.344	0.001840	55624.4	6.121253	170.147	506.52	1.149844	0.097687	0.097275	507.95	55624.4	0.090838	0.259038	1960.91	99852
674	2.000000	1.152139	7.37165e+06	-43389.1	1005.82	-29779.3	0.000000	0.000000	7.174145	525.568	NaN	0.000000	0.001699	0.001721	28.0814	103.944	0.001844	56375.2	5.409659	170.005	521.918	1.151798	0.099571	0.099230	525.568	56375.2	0.092579	0.267877	1961.98	99516.2
674	2.000000	1.154143	7.37165e+06	-43389.1	1005.82	-29779.3	0.000000	0.000000	7.176603	536.616	NaN	0.000000	0.001660	0.001724	28.0814	106.68	0.001856	57489.3	7.387020	167.531	532.634	1.153856	0.101575	0.101287	536.616	57489.3	0.094574	0.278180	1929.03	99585.7
674	2.000000	1.156284	7.37165e+06	-43389.1	1005.82	-29779.3	0.000000	0.000000	7.179418	553.034	NaN	0.000000	0.001671	0.001709	28.0816	106.606	0.001752	60863.9	5.092219	169.407	557.161	1.156003	0.103715	0.103435	553.034	60863.9	0.096901	0.290424	1904.23	103185
674	2.000000	1.156577	7.37165e+06	-43389.1	1005.82	-29779.3	0.000000	0.000000	7.180064	561.609	NaN	0.000000	0.001650	0.001693	28.0819	106.222	0.001787	59435	1.005896	-5.833846	551.554	1.156372	0.104008	0.103804	561.609	59435	0.096921	0.290536	1933.01	100743