File: remote_trans/data/nanoindenter/0828-1/data/Data_2025-08-06,11h17m57s/2025-07-22_16-23-58_1_1092.txt
2025-07-22, 16:23:58, 1
Index	Phase	Displacement	Time	Pos X	Pos Y	Pos Z	Rot A	Rot B	Piezo Z	Force A	Force B	Gripper	Voltage A	Voltage B	Temperature	Amplitude force	Amplitude pos	Stiffness	Phase shift	Phase excitation	Force A raw	Displacement raw	HMax	HMax raw	Real Force	Real Stiffness	Contact Depth	Area	Hardness	Reduced Mod.
[#]	[#]	[um]	[s]	[um]	[um]	[um]	[m°]	[m°]	[um]	[uN]	[uN]	[V]	[V]	[V]	[°C]	[uN]	[um]	[N/m]	[°]	[°]	[uN]	[um]	[um]	[um]	[uN]	[N/m]	[um]	[um^2]	[MPa]	[MPa]
1092	1.000000	0.002599	7.37573e+06	-54739.1	1055.82	-29742.9	0.000000	0.000000	6.002806	0.090959	NaN	0.000000	0.001712	0.001688	28.084	0.136294	0.001016	134.141	-146.987	-162.159	0.018986	0.001327	-1.045900	-1.047172	0.090959	134.141	-1.046409	-9.552920E+13	-9.521640E-16	NaN
1092	1.000000	0.010576	7.37573e+06	-54739.1	1055.82	-29742.9	0.000000	0.000000	6.010778	-0.025853	NaN	0.000000	0.001661	0.001702	28.0838	0.051352	0.000894	57.4355	2.594362	-168.42	-0.058339	0.009266	-1.037923	-1.039233	-0.025853	57.4355	-1.037585	-7.269353E+13	3.556446E-16	NaN
1092	1.000000	0.018549	7.37573e+06	-54739.1	1055.82	-29742.9	0.000000	0.000000	6.018753	0.024401	NaN	0.000000	0.001705	0.001704	28.084	0.117109	0.001726	67.8405	133.272	-168.497	-0.024161	0.017156	-1.029950	-1.031343	0.024401	67.8405	-1.030220	-5.786748E+13	-4.216719E-16	NaN
1092	1.000000	0.026546	7.37573e+06	-54739.1	1055.82	-29742.9	0.000000	0.000000	6.026749	-0.005628	NaN	0.000000	0.001655	0.001666	28.0841	0.051262	0.001876	27.3277	113.846	-162.727	-0.055968	0.025201	-1.021953	-1.023298	-0.005628	27.3277	-1.021798	-4.458045E+13	1.262408E-16	NaN
1092	1.000000	0.034546	7.37573e+06	-54739.1	1055.82	-29742.9	0.000000	0.000000	6.034750	0.027310	NaN	0.000000	0.001658	0.001656	28.0843	0.059452	0.001996	29.7837	-166.931	-166.067	0.010771	0.033225	-1.013953	-1.015274	0.027310	29.7837	-1.014641	-3.571416E+13	-7.646813E-16	NaN
1092	1.000000	0.042554	7.37573e+06	-54739.1	1055.82	-29742.9	0.000000	0.000000	6.042760	0.061852	NaN	0.000000	0.001660	0.001697	28.0843	0.060348	0.002023	29.8266	-7.671721	-165.278	0.021451	0.041245	-1.005945	-1.007254	0.061852	29.8266	-1.007500	-2.862416E+13	-2.160842E-15	NaN
1092	1.000000	0.050542	7.37573e+06	-54739.1	1055.82	-29742.9	0.000000	0.000000	6.050744	-0.025677	NaN	0.000000	0.001665	0.001669	28.0841	0.024218	0.001909	12.6844	11.323	-167.878	0.038376	0.049225	-0.997957	-0.999273	-0.025677	12.6844	-0.996439	-2.031519E+13	1.263921E-15	NaN
1092	1.000000	0.058538	7.37573e+06	-54739.1	1055.82	-29742.9	0.000000	0.000000	6.058740	-0.020051	NaN	0.000000	0.001637	0.001688	28.0842	0.117778	0.002102	56.0285	174.074	-164.94	-0.042446	0.057200	-0.989961	-0.991299	-0.020051	56.0285	-0.989692	-1.648046E+13	1.216631E-15	NaN
1092	1.000000	0.066571	7.37573e+06	-54739.1	1055.82	-29742.9	0.000000	0.000000	6.066774	0.004638	NaN	0.000000	0.001656	0.001712	28.0829	0.044150	0.002004	22.0362	77.4777	-165.801	0.014059	0.065277	-0.981928	-0.983221	0.004638	22.0362	-0.982086	-1.301696E+13	-3.563312E-16	NaN
1092	1.000000	0.074574	7.37573e+06	-54739.1	1055.82	-29742.9	0.000000	0.000000	6.074779	0.045013	NaN	0.000000	0.001657	0.001707	28.0825	0.052377	0.002059	25.4396	-74.789	-167.402	0.106934	0.073208	-0.973925	-0.975290	0.045013	25.4396	-0.975252	-1.053035E+13	-4.274583E-15	NaN
1092	1.000000	0.082555	7.37573e+06	-54739.1	1055.82	-29742.9	0.000000	0.000000	6.082762	0.091332	NaN	0.000000	0.001698	0.001682	28.083	0.048998	0.001822	26.8987	-78.0741	-166.272	0.024766	0.081225	-0.965944	-0.967273	0.091332	26.8987	-0.968491	-8.537320E+12	-1.069793E-14	NaN
1092	1.000000	0.090572	7.37573e+06	-54739.1	1055.82	-29742.9	0.000000	0.000000	6.090778	0.069199	NaN	0.000000	0.001689	0.001726	28.0828	0.036872	0.001994	18.4901	-139.349	-166.976	0.004403	0.089294	-0.957927	-0.959205	0.069199	18.4901	-0.960733	-6.710546E+12	-1.031204E-14	NaN
1092	1.000000	0.098534	7.37573e+06	-54739.1	1055.82	-29742.9	0.000000	0.000000	6.098740	0.080504	NaN	0.000000	0.001723	0.001724	28.083	0.045693	0.002134	21.4125	-174.897	-162.149	0.004656	0.097284	-0.949965	-0.951215	0.080504	21.4125	-0.952785	-5.243081E+12	-1.535429E-14	NaN
1092	1.000000	0.106559	7.37573e+06	-54739.1	1055.82	-29742.9	0.000000	0.000000	6.106762	-0.005406	NaN	0.000000	0.001699	0.001700	28.0828	0.067257	0.001949	34.5133	-27.0458	-165.66	0.071453	0.105265	-0.941940	-0.943233	-0.005406	34.5133	-0.941822	-3.730120E+12	1.449182E-15	NaN
1092	1.000000	0.114613	7.37573e+06	-54739.1	1055.82	-29742.9	0.000000	0.000000	6.114815	-0.035261	NaN	0.000000	0.001702	0.001706	28.0826	0.080745	0.002009	40.1837	-25.3262	-169.948	-0.003591	0.113266	-0.933885	-0.935233	-0.035261	40.1837	-0.933227	-2.855957E+12	1.234647E-14	NaN
1092	1.000000	0.122562	7.37573e+06	-54739.1	1055.82	-29742.9	0.000000	0.000000	6.122764	-0.019597	NaN	0.000000	0.001623	0.001716	28.0828	0.138345	0.001927	71.7932	132.633	-164.022	0.024597	0.121250	-0.925937	-0.927249	-0.019597	71.7932	-0.925733	-2.262540E+12	8.661486E-15	NaN
1092	1.000000	0.130589	7.37573e+06	-54739.1	1055.82	-29742.9	0.000000	0.000000	6.130794	0.050163	NaN	0.000000	0.001652	0.001704	28.0825	0.038179	0.001938	19.7029	140.906	-165.638	0.103323	0.129218	-0.917910	-0.919281	0.050163	19.7029	-0.919819	-1.882632E+12	-2.664490E-14	NaN
1092	1.000000	0.138567	7.37573e+06	-54739.1	1055.82	-29742.9	0.000000	0.000000	6.138773	0.062507	NaN	0.000000	0.001618	0.001675	28.0829	0.106070	0.001906	55.6478	-123.772	-166.061	0.139720	0.137246	-0.909932	-0.911253	0.062507	55.6478	-0.910774	-1.421090E+12	-4.398527E-14	NaN
1092	1.000000	0.146595	7.37573e+06	-54739.1	1055.82	-29742.9	0.000000	0.000000	6.146798	-0.006431	NaN	0.000000	0.001620	0.001726	28.0829	0.015609	0.001998	7.810664	37.1176	-164.855	0.011729	0.145260	-0.901904	-0.903239	-0.006431	7.810664	-0.901287	-1.057918E+12	6.078563E-15	NaN
1092	1.000000	0.154584	7.37573e+06	-54739.1	1055.82	-29742.9	0.000000	0.000000	6.154789	0.043400	NaN	0.000000	0.001619	0.001691	28.0829	0.074491	0.001977	37.6795	-99.179	-166.739	0.037374	0.153274	-0.893915	-0.895224	0.043400	37.6795	-0.894779	-8.639870E+11	-5.023202E-14	NaN
1092	1.000000	0.162581	7.37573e+06	-54739.1	1055.82	-29742.9	0.000000	0.000000	6.162786	0.032742	NaN	0.000000	0.001637	0.001680	28.083	0.040898	0.002098	19.4964	-11.8559	-171.404	0.058139	0.161267	-0.885918	-0.887232	0.032742	19.4964	-0.887177	-6.819506E+11	-4.801185E-14	NaN
1092	1.000000	0.170582	7.37573e+06	-54739.1	1055.82	-29743	0.000000	0.000000	6.170787	0.049877	NaN	0.000000	0.001597	0.001670	28.0829	0.062608	0.002023	30.9528	-136.938	-164.3	0.005874	0.169265	-0.877917	-0.879234	0.049877	30.9528	-0.879125	-5.307387E+11	-9.397573E-14	NaN
1092	1.000000	0.178592	7.37573e+06	-54739.1	1055.82	-29743	0.000000	0.000000	6.178795	0.005996	NaN	0.000000	0.001658	0.001675	28.0833	0.119164	0.002038	58.4813	-78.4425	-165.875	-0.007650	0.177289	-0.869907	-0.871209	0.005996	58.4813	-0.869984	-3.992343E+11	-1.501842E-14	NaN
1092	1.000000	0.186589	7.37573e+06	-54739.1	1055.82	-29743	0.000000	0.000000	6.186792	0.005039	NaN	0.000000	0.001657	0.001701	28.083	0.027341	0.002038	13.4157	-165.504	-169.484	0.012697	0.185315	-0.861910	-0.863184	0.005039	13.4157	-0.862192	-3.131763E+11	-1.609026E-14	NaN
1092	1.000000	0.194611	7.37573e+06	-54739.1	1055.82	-29743	0.000000	0.000000	6.194817	0.058663	NaN	0.000000	0.001642	0.001667	28.0831	0.011806	0.001994	5.921932	-82.1311	-167.75	0.074411	0.193275	-0.853888	-0.855224	0.058663	5.921932	-0.861317	-3.047530E+11	-1.924945E-13	NaN
1092	1.000000	0.202598	7.37573e+06	-54739.1	1055.82	-29743	0.000000	0.000000	6.202801	0.002280	NaN	0.000000	0.001632	0.001671	28.0843	0.062232	0.002203	28.2464	94.3467	-165.426	-0.049766	0.201341	-0.845901	-0.847158	0.002280	28.2464	-0.845961	-1.888183E+11	-1.207645E-14	NaN
1092	1.000000	0.210608	7.37573e+06	-54739.1	1055.82	-29743	0.000000	0.000000	6.210809	-0.042876	NaN	0.000000	0.001640	0.001666	28.084	0.051161	0.002000	25.5787	170.933	-166.615	0.014732	0.209292	-0.837891	-0.839207	-0.042876	25.5787	-0.836634	-1.411506E+11	3.037582E-13	NaN
1092	1.000000	0.218610	7.37573e+06	-54739.1	1055.82	-29743	0.000000	0.000000	6.218812	-0.030734	NaN	0.000000	0.001626	0.001680	28.0846	0.040120	0.002071	19.3727	-25.8524	-165.114	-0.051186	0.217326	-0.829888	-0.831173	-0.030734	19.3727	-0.828699	-1.101905E+11	2.789146E-13	NaN
1092	1.000000	0.226613	7.37573e+06	-54739.1	1055.82	-29743	0.000000	0.000000	6.226817	0.020764	NaN	0.000000	0.001640	0.001688	28.0843	0.039305	0.001983	19.8239	175.361	-164.292	0.036606	0.225274	-0.821886	-0.823225	0.020764	19.8239	-0.822672	-9.129284E+10	-2.274404E-13	NaN
1092	1.000000	0.234592	7.37573e+06	-54739.1	1055.82	-29743	0.000000	0.000000	6.234796	0.015972	NaN	0.000000	0.001633	0.001709	28.0845	0.026287	0.002100	12.5166	7.741728	-165.741	0.066988	0.233317	-0.813907	-0.815182	0.015972	12.5166	-0.814864	-7.154034E+10	-2.232601E-13	NaN
1092	1.000000	0.242642	7.37573e+06	-54739.1	1055.82	-29743	0.000000	0.000000	6.242846	0.029639	NaN	0.000000	0.001656	0.001675	28.0844	0.050592	0.002023	25.0048	161.242	-165.953	0.023628	0.241297	-0.805857	-0.807202	0.029639	25.0048	-0.806746	-5.551577E+10	-5.338886E-13	NaN
1092	1.000000	0.250630	7.37574e+06	-54739.1	1055.82	-29743	0.000000	0.000000	6.250835	0.036897	NaN	0.000000	0.001613	0.001721	28.0842	0.077052	0.001994	38.6358	-159.085	-163.422	-0.005536	0.249309	-0.797869	-0.799190	0.036897	38.6358	-0.798585	-4.301809E+10	-8.577076E-13	NaN
1092	1.000000	0.258651	7.37574e+06	-54739.1	1055.82	-29743	0.000000	0.000000	6.258856	0.060160	NaN	0.000000	0.001676	0.001671	28.0845	0.122233	0.002030	60.224	-116.589	-166.808	0.029351	0.257325	-0.789848	-0.791174	0.060160	60.224	-0.790597	-3.351158E+10	-1.795201E-12	NaN
1092	1.000000	0.266666	7.37574e+06	-54739.1	1055.82	-29743	0.000000	0.000000	6.266871	0.058596	NaN	0.000000	0.001648	0.001674	28.0844	0.034338	0.002026	16.9454	148.116	-164.805	0.098864	0.265311	-0.781833	-0.783188	0.058596	16.9454	-0.784426	-2.762956E+10	-2.120770E-12	NaN
1092	1.000000	0.274640	7.37574e+06	-54739.1	1055.82	-29743	0.000000	0.000000	6.274846	0.070740	NaN	0.000000	0.001661	0.001692	28.084	0.110038	0.002060	53.4196	79.1807	-166.854	-0.020587	0.273330	-0.773859	-0.775169	0.070740	53.4196	-0.774852	-2.047730E+10	-3.454537E-12	NaN
1092	1.000000	0.282622	7.37574e+06	-54739.1	1055.82	-29743	0.000000	0.000000	6.282825	-0.011021	NaN	0.000000	0.001688	0.001673	28.0843	0.056465	0.002062	27.3802	-77.1227	-166.98	0.013615	0.281303	-0.765877	-0.767195	-0.011021	27.3802	-0.765575	-1.531547E+10	7.195799E-13	NaN
1092	1.000000	0.290623	7.37574e+06	-54739.1	1055.82	-29743	0.000000	0.000000	6.290829	0.067692	NaN	0.000000	0.001658	0.001693	28.0841	0.068867	0.002047	33.6436	88.1141	-167.405	0.088299	0.289353	-0.757876	-0.759146	0.067692	33.6436	-0.759385	-1.261642E+10	-5.365362E-12	NaN
1092	1.000000	0.298636	7.37574e+06	-54739.1	1055.82	-29743	0.000000	0.000000	6.298839	0.001603	NaN	0.000000	0.001661	0.001678	28.0841	0.035469	0.001938	18.3035	85.8691	-164.342	-0.010636	0.297323	-0.749863	-0.751175	0.001603	18.3035	-0.749928	-9.380924E+9	-1.708756E-13	NaN
1092	1.000000	0.306647	7.37574e+06	-54739.1	1055.82	-29743	0.000000	0.000000	6.306849	-0.036664	NaN	0.000000	0.001651	0.001700	28.0842	0.111456	0.001920	58.0631	143.168	-165.341	-0.044105	0.305356	-0.741852	-0.743143	-0.036664	58.0631	-0.741378	-7.175080E+9	5.109912E-12	NaN
1092	1.000000	0.314662	7.37574e+06	-54739.1	1055.82	-29743	0.000000	0.000000	6.314864	-0.039517	NaN	0.000000	0.001648	0.001710	28.0842	0.038237	0.001998	19.137	-121.516	-166.085	-0.001685	0.313314	-0.733837	-0.735185	-0.039517	19.137	-0.732288	-5.394979E+9	7.324835E-12	NaN
1092	1.000000	0.322664	7.37574e+06	-54739.1	1055.82	-29743	0.000000	0.000000	6.322866	-0.031416	NaN	0.000000	0.001648	0.001721	28.0841	0.104292	0.001950	53.4843	28.2501	-166.674	-0.011151	0.321281	-0.725835	-0.727218	-0.031416	53.4843	-0.725394	-4.345360E+9	7.229847E-12	NaN
1092	1.000000	0.330642	7.37574e+06	-54739.1	1055.82	-29743	0.000000	0.000000	6.330845	-0.015048	NaN	0.000000	0.001669	0.001713	28.0844	0.027205	0.002035	13.3674	53.5669	-169.835	-0.029033	0.329321	-0.717857	-0.719178	-0.015048	13.3674	-0.717013	-3.339842E+9	4.505523E-12	NaN
1092	1.000000	0.338664	7.37574e+06	-54739.1	1055.82	-29743	0.000000	0.000000	6.338867	-0.003086	NaN	0.000000	0.001648	0.001652	28.0829	0.133071	0.001995	66.707	111.14	-170.176	0.125428	0.337359	-0.709835	-0.711140	-0.003086	66.707	-0.709800	-2.662691E+9	1.158834E-12	NaN
1092	1.000000	0.346662	7.37574e+06	-54739.1	1055.82	-29743	0.000000	0.000000	6.346863	-0.055235	NaN	0.000000	0.001610	0.001610	28.0831	0.057346	0.001991	28.8007	-115.339	-167.937	-0.002649	0.345314	-0.701836	-0.703185	-0.055235	28.8007	-0.700398	-1.981371E+9	2.787700E-11	NaN
1092	1.000000	0.354703	7.37574e+06	-54739.1	1055.82	-29743	0.000000	0.000000	6.354906	0.002532	NaN	0.000000	0.001639	0.001641	28.0828	0.062395	0.002057	30.3401	150.664	-163.779	-0.070221	0.353365	-0.693796	-0.695134	0.002532	30.3401	-0.693858	-1.613022E+9	-1.569872E-12	NaN
1092	1.000000	0.362693	7.37574e+06	-54739.1	1055.82	-29743	0.000000	0.000000	6.362896	0.005101	NaN	0.000000	0.001652	0.001672	28.0826	0.107810	0.002092	51.5312	105.048	-169.276	0.057491	0.361403	-0.685806	-0.687095	0.005101	51.5312	-0.685880	-1.254907E+9	-4.064676E-12	NaN
1092	1.000000	0.370675	7.37574e+06	-54739.1	1055.82	-29743	0.000000	0.000000	6.370878	-0.003215	NaN	0.000000	0.001672	0.001642	28.0827	0.011449	0.001888	6.065019	56.9395	-167.703	-0.030051	0.369397	-0.677824	-0.679102	-0.003215	6.065019	-0.677426	-9.616219E+8	3.343136E-12	NaN
1092	1.000000	0.378678	7.37574e+06	-54739.1	1055.82	-29743	0.000000	0.000000	6.378879	-0.041448	NaN	0.000000	0.001639	0.001674	28.0828	0.031874	0.002030	15.7016	160.535	-165.538	-0.044578	0.377339	-0.669821	-0.671160	-0.041448	15.7016	-0.667841	-7.109572E+8	5.829944E-11	NaN
1092	1.000000	0.386697	7.37574e+06	-54739.1	1055.82	-29743	0.000000	0.000000	6.386900	-0.008786	NaN	0.000000	0.001657	0.001682	28.083	0.052200	0.002175	24.0015	86.592	-166.392	-0.015441	0.385398	-0.661802	-0.663101	-0.008786	24.0015	-0.661527	-5.826194E+8	1.507999E-11	NaN
1092	1.000000	0.394637	7.37574e+06	-54739.1	1055.82	-29743	0.000000	0.000000	6.394837	-0.071637	NaN	0.000000	0.001649	0.001703	28.0829	0.040845	0.001958	20.8574	147.091	-166.695	-0.036966	0.393374	-0.653862	-0.655125	-0.071637	20.8574	-0.651286	-4.217562E+8	1.698547E-10	NaN
1092	1.000000	0.402671	7.37574e+06	-54739.1	1055.82	-29743	0.000000	0.000000	6.402876	0.021801	NaN	0.000000	0.001608	0.001694	28.0842	0.120808	0.002038	59.2866	124.444	-166.966	-0.007120	0.401421	-0.645827	-0.647077	0.021801	59.2866	-0.646103	-3.581017E+8	-6.087973E-11	NaN
1092	1.000000	0.410714	7.37574e+06	-54739.1	1055.82	-29743	0.000000	0.000000	6.410917	-0.017868	NaN	0.000000	0.001639	0.001684	28.0829	0.060179	0.002159	27.8744	123.424	-165.366	0.080037	0.409372	-0.637784	-0.639127	-0.017868	27.8744	-0.637304	-2.712002E+8	6.588467E-11	NaN
1092	1.000000	0.418702	7.37574e+06	-54739.1	1055.82	-29743	0.000000	0.000000	6.418906	0.009247	NaN	0.000000	0.001647	0.001672	28.083	0.060324	0.002042	29.5388	66.477	-168.39	-0.010656	0.417386	-0.629797	-0.631113	0.009247	29.5388	-0.630031	-2.155036E+8	-4.290896E-11	NaN
1092	1.000000	0.426669	7.37574e+06	-54739.1	1055.82	-29743	0.000000	0.000000	6.426869	-0.062489	NaN	0.000000	0.001628	0.001701	28.0831	0.100503	0.002084	48.2228	87.7914	-165.665	-0.074730	0.425387	-0.621830	-0.623112	-0.062489	48.2228	-0.620858	-1.612243E+8	3.875907E-10	NaN
1092	1.000000	0.434715	7.37574e+06	-54739.1	1055.82	-29743	0.000000	0.000000	6.434919	0.029838	NaN	0.000000	0.001616	0.001696	28.0828	0.036624	0.002050	17.8652	-14.203	-168.419	0.028757	0.433427	-0.613784	-0.615072	0.029838	17.8652	-0.615037	-1.340894E+8	-2.225253E-10	NaN
1092	1.000000	0.442693	7.37574e+06	-54739.1	1055.82	-29743	0.000000	0.000000	6.442895	-0.044698	NaN	0.000000	0.001618	0.001722	28.083	0.047660	0.001921	24.8139	-30.4388	-170.561	-0.070513	0.441408	-0.605805	-0.607091	-0.044698	24.8139	-0.604454	-9.589459E+7	4.661110E-10	NaN
1092	1.000000	0.450732	7.37574e+06	-54739.1	1055.82	-29743	0.000000	0.000000	6.450936	0.012746	NaN	0.000000	0.001649	0.001687	28.0832	0.097386	0.001876	51.9165	-90.0331	-166.507	0.032322	0.449379	-0.597767	-0.599120	0.012746	51.9165	-0.597951	-7.802610E+7	-1.633572E-10	NaN
1092	1.000000	0.458716	7.37574e+06	-54739.1	1055.82	-29743	0.000000	0.000000	6.458921	0.043078	NaN	0.000000	0.001612	0.001676	28.0829	0.096597	0.002002	48.2591	76.2417	-165.263	0.091777	0.457389	-0.589783	-0.591110	0.043078	48.2591	-0.590452	-6.150356E+7	-7.004224E-10	NaN
1092	1.000000	0.466701	7.37574e+06	-54739.1	1055.82	-29743	0.000000	0.000000	6.466907	0.081089	NaN	0.000000	0.001657	0.001674	28.0832	0.098414	0.002019	48.7532	62.2578	-168.485	0.114190	0.465365	-0.581798	-0.583134	0.081089	48.7532	-0.583045	-4.861273E+7	-1.668054E-9	NaN
1092	1.000000	0.474716	7.37574e+06	-54739.1	1055.82	-29743	0.000000	0.000000	6.474921	0.040272	NaN	0.000000	0.001650	0.001676	28.084	0.039763	0.002060	19.3053	43.3089	-165.667	0.064379	0.473464	-0.573783	-0.575035	0.040272	19.3053	-0.575348	-3.806259E+7	-1.058057E-9	NaN
1092	1.000000	0.482744	7.37574e+06	-54739.1	1055.82	-29743	0.000000	0.000000	6.482948	0.019295	NaN	0.000000	0.001636	0.001660	28.084	0.034831	0.001934	18.0081	-4.857604	-162.429	-0.005712	0.481476	-0.565755	-0.567023	0.019295	18.0081	-0.566558	-2.877840E+7	-6.704834E-10	NaN
1092	1.000000	0.490745	7.37574e+06	-54739.1	1055.82	-29743	0.000000	0.000000	6.490948	0.009900	NaN	0.000000	0.001610	0.001685	28.084	0.066376	0.002010	33.0206	59.0357	-165.761	-0.025687	0.489399	-0.557754	-0.559100	0.009900	33.0206	-0.557979	-2.189860E+7	-4.520905E-10	NaN
1092	1.000000	0.498724	7.37574e+06	-54739.1	1055.82	-29743	0.000000	0.000000	6.498929	0.051387	NaN	0.000000	0.001617	0.001679	28.0845	0.049594	0.001992	24.9003	121.241	-167.476	0.075558	0.497437	-0.549775	-0.551062	0.051387	24.9003	-0.551323	-1.771225E+7	-2.901205E-9	NaN
1092	1.000000	0.506710	7.37574e+06	-54739.1	1055.82	-29743	0.000000	0.000000	6.506913	-0.006650	NaN	0.000000	0.001626	0.001675	28.0846	0.109243	0.001898	57.5521	-109.844	-168.02	0.003410	0.505450	-0.541789	-0.543049	-0.006650	57.5521	-0.541702	-1.303045E+7	5.103542E-10	NaN
1092	1.000000	0.514745	7.37574e+06	-54739.1	1055.82	-29743	0.000000	0.000000	6.514949	0.009143	NaN	0.000000	0.001619	0.001756	28.0842	0.102283	0.001980	51.6593	-127.22	-162.616	0.015755	0.513451	-0.533754	-0.535048	0.009143	51.6593	-0.533887	-1.015164E+7	-9.006333E-10	NaN
1092	1.000000	0.522741	7.37574e+06	-54739.1	1055.82	-29743	0.000000	0.000000	6.522943	-0.026004	NaN	0.000000	0.001622	0.001748	28.0838	0.044765	0.002063	21.6986	69.6491	-163.686	-0.014433	0.521438	-0.525758	-0.527061	-0.026004	21.6986	-0.524859	-7.60595e+06	3.418946E-9	NaN
1092	1.000000	0.530783	7.37574e+06	-54739.1	1055.82	-29743	0.000000	0.000000	6.530988	0.046103	NaN	0.000000	0.001643	0.001716	28.0843	0.050310	0.002063	24.3895	-130.861	-166.905	-0.002643	0.529477	-0.517716	-0.519021	0.046103	24.3895	-0.519134	-6.33213e+06	-7.280792E-9	NaN
1092	1.000000	0.538719	7.37574e+06	-54739.1	1055.82	-29743	0.000000	0.000000	6.538920	-0.054677	NaN	0.000000	0.001666	0.001703	28.0843	0.095703	0.001938	49.3893	29.8929	-167.258	-0.098464	0.537460	-0.509780	-0.511038	-0.054677	49.3893	-0.508949	-4.56857e+06	1.196814E-8	NaN
1092	1.000000	0.546784	7.37574e+06	-54739.1	1055.82	-29743	0.000000	0.000000	6.546989	0.053576	NaN	0.000000	0.001634	0.001730	28.0843	0.020082	0.002048	9.805635	117.525	-164.562	-0.000747	0.545444	-0.501715	-0.503055	0.053576	9.805635	-0.505813	-4.13117e+06	-1.296873E-8	NaN
1092	1.000000	0.554740	7.37574e+06	-54739.1	1055.82	-29743	0.000000	0.000000	6.554943	-0.001022	NaN	0.000000	0.001647	0.001741	28.0845	0.057246	0.002008	28.5126	169.969	-162.813	-0.068893	0.553372	-0.493759	-0.495127	-0.001022	28.5126	-0.493732	-2.80238e+06	3.647042E-10	NaN
1092	1.000000	0.562764	7.37574e+06	-54739.1	1055.82	-29743	0.000000	0.000000	6.562968	0.007110	NaN	0.000000	0.001671	0.001721	28.0843	0.074519	0.001976	37.7028	-61.8552	-165.545	0.011803	0.561443	-0.485735	-0.487056	0.007110	37.7028	-0.485876	-2.17642e+06	-3.266652E-9	NaN
1092	1.000000	0.570735	7.37574e+06	-54739.1	1055.82	-29743	0.000000	0.000000	6.570937	-0.039532	NaN	0.000000	0.001695	0.001734	28.084	0.028976	0.001995	14.5263	-164.286	-163.472	-0.016254	0.569424	-0.477763	-0.479075	-0.039532	14.5263	-0.475722	-1.56899e+06	2.519552E-8	NaN
1092	1.000000	0.578746	7.37574e+06	-54739.1	1055.82	-29743	0.000000	0.000000	6.578949	-0.002485	NaN	0.000000	0.001653	0.001715	28.0839	0.091615	0.001996	45.8962	-179.332	-163.732	0.001735	0.577466	-0.469753	-0.471033	-0.002485	45.8962	-0.469713	-1.29234e+06	1.922685E-9	NaN
1092	1.000000	0.586754	7.37574e+06	-54739.1	1055.82	-29743	0.000000	0.000000	6.586956	-0.027604	NaN	0.000000	0.001679	0.001707	28.0839	0.103934	0.001937	53.6556	-26.7168	-162.767	0.000261	0.585462	-0.461745	-0.463037	-0.027604	53.6556	-0.461359	-986540	2.798014E-8	NaN
1092	1.000000	0.594767	7.37574e+06	-54739.1	1055.82	-29743	0.000000	0.000000	6.594970	-0.019468	NaN	0.000000	0.001660	0.001762	28.0842	0.109258	0.002004	54.5143	153.736	-165.639	-0.033181	0.593449	-0.453731	-0.455049	-0.019468	54.5143	-0.453464	-764013	2.548143E-8	NaN
1092	1.000000	0.602769	7.37574e+06	-54739.1	1055.82	-29743	0.000000	0.000000	6.602972	0.002982	NaN	0.000000	0.001642	0.001699	28.0839	0.041487	0.001942	21.3595	55.5455	-165.523	-0.030124	0.601454	-0.445730	-0.447044	0.002982	21.3595	-0.445835	-596565	-4.998093E-9	NaN
1092	1.000000	0.610767	7.37574e+06	-54739.1	1055.82	-29743	0.000000	0.000000	6.610968	-0.065635	NaN	0.000000	0.001631	0.001704	28.0828	0.025240	0.001967	12.8347	21.5757	-166.678	-0.004093	0.609468	-0.437731	-0.439031	-0.065635	12.8347	-0.433896	-404719	1.621733E-7	NaN
1092	1.000000	0.618784	7.37574e+06	-54739.1	1055.82	-29743	0.000000	0.000000	6.618986	-0.047732	NaN	0.000000	0.001675	0.001708	28.0828	0.041137	0.002113	19.47	99.7097	-168.957	-0.028381	0.617420	-0.429714	-0.431079	-0.047732	19.47	-0.427876	-332662	1.434856E-7	NaN
1092	1.000000	0.626775	7.37574e+06	-54739.1	1055.82	-29743	0.000000	0.000000	6.626980	0.041622	NaN	0.000000	0.001659	0.001693	28.0828	0.094769	0.002030	46.6884	-171.928	-165.063	0.073190	0.625465	-0.421724	-0.423034	0.041622	46.6884	-0.422393	-278187	-1.496204E-7	NaN
1092	1.000000	0.634827	7.37574e+06	-54739.1	1055.82	-29743	0.000000	0.000000	6.635027	-0.074118	NaN	0.000000	0.001624	0.001725	28.083	0.081026	0.001991	40.6932	-13.9741	-164.946	0.054819	0.633486	-0.413672	-0.415012	-0.074118	40.6932	-0.412306	-200070	3.704605E-7	NaN
1092	1.000000	0.642793	7.37574e+06	-54739.1	1055.82	-29743	0.000000	0.000000	6.642997	0.008742	NaN	0.000000	0.001655	0.001676	28.0827	0.043872	0.001974	22.2302	131.039	-162.142	0.122457	0.641462	-0.405705	-0.407036	0.008742	22.2302	-0.406000	-162739	-5.371981E-8	NaN
1092	1.000000	0.650833	7.37574e+06	-54739.1	1055.82	-29743	0.000000	0.000000	6.651036	0.005831	NaN	0.000000	0.001602	0.001685	28.0828	0.098064	0.001905	51.4807	-156.489	-172.22	-0.010684	0.649481	-0.397666	-0.399018	0.005831	51.4807	-0.397751	-124140	-4.697087E-8	NaN
1092	1.000000	0.658824	7.37574e+06	-54739.1	1055.82	-29743	0.000000	0.000000	6.659027	0.002321	NaN	0.000000	0.001631	0.001665	28.0829	0.092366	0.002072	44.5799	-150.461	-168.75	-0.031402	0.657542	-0.389675	-0.390957	0.002321	44.5799	-0.389714	-95296.7	-2.435519E-8	NaN
1092	1.000000	0.666790	7.37574e+06	-54739.1	1055.82	-29743	0.000000	0.000000	6.666996	0.070317	NaN	0.000000	0.001632	0.001675	28.0827	0.067161	0.002135	31.4598	-34.3366	-164.23	0.026084	0.665470	-0.381709	-0.383028	0.070317	31.4598	-0.383385	-77347.6	-9.091091E-7	NaN
1092	1.000000	0.674805	7.37574e+06	-54739.1	1055.82	-29743	0.000000	0.000000	6.675008	-0.014558	NaN	0.000000	0.001647	0.001699	28.0828	0.083021	0.002005	41.4149	160.871	-168.422	0.021254	0.673524	-0.373693	-0.374975	-0.014558	41.4149	-0.373430	-55653.5	2.615775E-7	NaN
1092	1.000000	0.682810	7.37574e+06	-54739.1	1055.82	-29743	0.000000	0.000000	6.683011	-0.035511	NaN	0.000000	0.001635	0.001698	28.0829	0.086535	0.001974	43.8298	-53.3958	-163.626	0.008681	0.681497	-0.365689	-0.367002	-0.035511	43.8298	-0.365082	-42192.1	8.416591E-7	NaN
1092	1.000000	0.690797	7.37574e+06	-54739.1	1055.82	-29743	0.000000	0.000000	6.690999	-0.023258	NaN	0.000000	0.001629	0.001672	28.083	0.038777	0.001978	19.6089	124.543	-166.757	0.051260	0.689451	-0.357702	-0.359048	-0.023258	19.6089	-0.356813	-32043.5	7.258211E-7	NaN
1092	1.000000	0.698823	7.37574e+06	-54739.1	1055.82	-29743	0.000000	0.000000	6.699027	0.001798	NaN	0.000000	0.001675	0.001698	28.083	0.112164	0.002018	55.5746	141.173	-165.406	-0.071125	0.697544	-0.349675	-0.350955	0.001798	55.5746	-0.349700	-25272.2	-7.116443E-8	NaN
1092	1.000000	0.706795	7.37574e+06	-54739.1	1055.82	-29743	0.000000	0.000000	6.706999	0.017111	NaN	0.000000	0.001637	0.001675	28.0831	0.027289	0.001874	14.564	-6.609698	-165.394	0.006467	0.705557	-0.341704	-0.342942	0.017111	14.564	-0.342585	-19916.5	-8.591581E-7	NaN
1092	1.000000	0.714825	7.37574e+06	-54739.1	1055.82	-29743	0.000000	0.000000	6.715030	0.021878	NaN	0.000000	0.001631	0.001673	28.0829	0.020473	0.001941	10.5475	75.9792	-165.618	0.070160	0.713570	-0.333673	-0.334929	0.021878	10.5475	-0.335229	-15557.3	-1.406284E-6	NaN
1092	1.000000	0.722852	7.37574e+06	-54739.1	1055.82	-29743	0.000000	0.000000	6.723055	0.008274	NaN	0.000000	0.001632	0.001683	28.0828	0.036600	0.001998	18.3147	83.4651	-162.9	0.039808	0.721536	-0.325647	-0.326963	0.008274	18.3147	-0.325986	-11392.3	-7.262539E-7	NaN
1092	1.000000	0.730818	7.37574e+06	-54739.1	1055.82	-29743	0.000000	0.000000	6.731023	0.031546	NaN	0.000000	0.001636	0.001715	28.0832	0.048307	0.002044	23.6386	-30.9547	-170.317	0.053762	0.729534	-0.317680	-0.318964	0.031546	23.6386	-0.318681	-8896.55	-3.545833E-6	NaN
1092	1.000000	0.738843	7.37574e+06	-54739.1	1055.82	-29743	0.000000	0.000000	6.739045	-0.024795	NaN	0.000000	0.001621	0.001697	28.0829	0.007063	0.001985	3.559077	-89.9462	-165.641	-0.119759	0.737471	-0.309656	-0.311028	-0.024795	3.559077	-0.304431	-5476.52	4.527472E-6	NaN
1092	1.000000	0.746845	7.37574e+06	-54739.1	1055.82	-29743	0.000000	0.000000	6.747048	-0.001875	NaN	0.000000	0.001649	0.001697	28.0839	0.028811	0.002028	14.2063	-80.0625	-168.508	-0.007231	0.745537	-0.301654	-0.302962	-0.001875	14.2063	-0.301555	-4963.31	3.777259E-7	NaN
1092	1.000000	0.754837	7.37574e+06	-54739.1	1055.82	-29743	0.000000	0.000000	6.755040	0.001812	NaN	0.000000	0.001601	0.001703	28.0846	0.062253	0.001983	31.3916	-99.444	-166.644	0.007618	0.753514	-0.293662	-0.294985	0.001812	31.3916	-0.293705	-3790.92	-4.779015E-7	NaN
1092	1.000000	0.762827	7.37574e+06	-54739.1	1055.82	-29743	0.000000	0.000000	6.763032	0.044187	NaN	0.000000	0.001641	0.001684	28.0843	0.138002	0.001970	70.0691	-110.351	-165.872	0.098389	0.761535	-0.285672	-0.286963	0.044187	70.0691	-0.286145	-2920.58	-1.512956E-5	NaN
1092	1.000000	0.770836	7.37574e+06	-54739.1	1055.82	-29743	0.000000	0.000000	6.771038	-0.042488	NaN	0.000000	0.001616	0.001681	28.0841	0.110561	0.001954	56.5676	-156.919	-165.971	0.011191	0.769543	-0.277663	-0.278956	-0.042488	56.5676	-0.277099	-2133.85	1.991128E-5	NaN
1092	1.000000	0.778855	7.37574e+06	-54739.1	1055.82	-29743	0.000000	0.000000	6.779056	-0.049251	NaN	0.000000	0.001625	0.001685	28.0841	0.066058	0.002022	32.6699	-174.906	-165.031	-0.019979	0.777497	-0.269644	-0.271002	-0.049251	32.6699	-0.268513	-1581.01	3.115190E-5	NaN
1092	1.000000	0.786859	7.37574e+06	-54739.1	1055.82	-29743	0.000000	0.000000	6.787062	-0.017229	NaN	0.000000	0.001645	0.001673	28.0842	0.070977	0.002054	34.5488	-16.3647	-166.119	-0.027863	0.785552	-0.261639	-0.262947	-0.017229	34.5488	-0.261265	-1225.47	1.405882E-5	NaN
1092	1.000000	0.794835	7.37574e+06	-54739.1	1055.82	-29743	0.000000	0.000000	6.795040	0.033886	NaN	0.000000	0.001619	0.001676	28.0844	0.057252	0.001958	29.2377	51.4594	-164.672	0.060844	0.793555	-0.253664	-0.254944	0.033886	29.2377	-0.254533	-965.887	-3.508294E-5	NaN
1092	1.000000	0.802887	7.37574e+06	-54739.1	1055.82	-29743	0.000000	0.000000	6.803091	0.039325	NaN	0.000000	0.001650	0.001666	28.0845	0.044549	0.002012	22.1468	106.308	-166.949	0.021982	0.801542	-0.245612	-0.246957	0.039325	22.1468	-0.246944	-737.282	-5.333722E-5	NaN
1092	1.000000	0.810833	7.37574e+06	-54739.1	1055.82	-29743	0.000000	0.000000	6.811036	-0.005070	NaN	0.000000	0.001646	0.001680	28.0841	0.160563	0.002040	78.7101	-148.766	-165.953	-0.036173	0.809582	-0.237666	-0.238917	-0.005070	78.7101	-0.237618	-527.588	9.610090E-6	NaN
1092	1.000000	0.818893	7.37574e+06	-54739.1	1055.82	-29743	0.000000	0.000000	6.819098	0.048837	NaN	0.000000	0.001662	0.001691	28.0843	0.128316	0.002094	61.2658	-8.533149	-170.147	0.141773	0.817569	-0.229606	-0.230930	0.048837	61.2658	-0.230204	-403.404	-0.000121	NaN
1092	1.000000	0.826864	7.37574e+06	-54739.1	1055.82	-29743	0.000000	0.000000	6.827067	0.011744	NaN	0.000000	0.001658	0.001691	28.0845	0.129271	0.002028	63.7458	-147.538	-166.3	-0.004950	0.825558	-0.221635	-0.222941	0.011744	63.7458	-0.221773	-296.472	-3.961148E-5	NaN
1092	1.000000	0.834896	7.37574e+06	-54739.1	1055.82	-29743	0.000000	0.000000	6.835099	-0.010638	NaN	0.000000	0.001638	0.001671	28.0845	0.031959	0.002073	15.4138	-169.708	-167.798	-0.073382	0.833580	-0.213602	-0.214918	-0.010638	15.4138	-0.213085	-215.115	4.945145E-5	NaN
1092	1.000000	0.842879	7.37574e+06	-54739.1	1055.82	-29743	0.000000	0.000000	6.843083	0.031982	NaN	0.000000	0.001643	0.001726	28.0844	0.045427	0.001966	23.1041	101.967	-166.489	0.063392	0.841554	-0.205620	-0.206945	0.031982	23.1041	-0.206658	-169.268	-0.000189	NaN
1092	1.000000	0.850879	7.37574e+06	-54739.1	1055.82	-29743	0.000000	0.000000	6.851083	0.015001	NaN	0.000000	0.001657	0.001641	28.0842	0.096493	0.001838	52.4948	67.8881	-166.084	0.001584	0.849561	-0.197620	-0.198938	0.015001	52.4948	-0.197834	-121.351	-0.000124	NaN
1092	1.000000	0.858871	7.37574e+06	-54739.1	1055.82	-29743	0.000000	0.000000	6.859070	-0.096589	NaN	0.000000	0.001611	0.001620	28.0843	0.067955	0.001973	34.4501	-130.051	-165.654	-0.029349	0.857607	-0.189628	-0.190891	-0.096589	34.4501	-0.187525	-81.7693	0.001181	NaN
1092	1.000000	0.866887	7.37574e+06	-54739.1	1055.82	-29743	0.000000	0.000000	6.867092	0.024951	NaN	0.000000	0.001634	0.001632	28.084	0.066728	0.001997	33.4162	-38.5301	-168.84	0.026920	0.865560	-0.181611	-0.182939	0.024951	33.4162	-0.182171	-66.4255	-0.000376	NaN
1092	1.000000	0.874872	7.37574e+06	-54739.1	1055.82	-29743	0.000000	0.000000	6.875078	0.069327	NaN	0.000000	0.001639	0.001613	28.0844	0.025966	0.002014	12.8935	55.3799	-167.678	0.063202	0.873574	-0.173627	-0.174925	0.069327	12.8935	-0.177659	-55.6617	-0.001246	NaN
1092	1.000000	0.882882	7.37574e+06	-54739.1	1055.82	-29743	0.000000	0.000000	6.883082	-0.074999	NaN	0.000000	0.001636	0.001604	28.084	0.077166	0.001947	39.6365	88.8454	-163.177	0.006233	0.881581	-0.165616	-0.166918	-0.074999	39.6365	-0.164197	-32.5235	0.002306	NaN
1092	1.000000	0.890906	7.37574e+06	-54739.1	1055.82	-29743	0.000000	0.000000	6.891109	-0.008397	NaN	0.000000	0.001650	0.001612	28.0833	0.081146	0.002078	39.0561	-28.5484	-167.011	-0.068845	0.889553	-0.157592	-0.158946	-0.008397	39.0561	-0.157431	-24.6713	0.000340	NaN
1092	1.000000	0.898906	7.37574e+06	-54739.1	1055.82	-29743	0.000000	0.000000	6.899110	0.031660	NaN	0.000000	0.001647	0.001659	28.0831	0.026775	0.002128	12.5828	-72.9521	-165.839	0.011258	0.897537	-0.149593	-0.150961	0.031660	12.5828	-0.151480	-19.273	-0.001643	NaN
1092	1.000000	0.906874	7.37574e+06	-54739.1	1055.82	-29743	0.000000	0.000000	6.907078	0.005924	NaN	0.000000	0.001642	0.001621	28.0831	0.036151	0.002053	17.6106	101.933	-167.1	-0.009512	0.905626	-0.141624	-0.142873	0.005924	17.6106	-0.141877	-12.8267	-0.000462	NaN
1092	1.000000	0.914893	7.37574e+06	-54739.1	1055.82	-29743	0.000000	0.000000	6.915095	-0.028511	NaN	0.000000	0.001638	0.001661	28.083	0.100563	0.001893	53.1311	51.3131	-169.302	0.047407	0.913595	-0.133605	-0.134904	-0.028511	53.1311	-0.133203	-8.787746	0.003244	NaN
1092	1.000000	0.922915	7.37574e+06	-54739.1	1055.82	-29743	0.000000	0.000000	6.923119	0.030086	NaN	0.000000	0.001641	0.001637	28.0832	0.056421	0.002033	27.7562	-70.7854	-166.114	-0.019705	0.921577	-0.125584	-0.126922	0.030086	27.7562	-0.126397	-6.479849	-0.004643	NaN
1092	1.000000	0.930903	7.37574e+06	-54739.1	1055.82	-29743	0.000000	0.000000	6.931107	0.030575	NaN	0.000000	0.001661	0.001596	28.0832	0.151607	0.002046	74.0971	-171.223	-164.842	-0.016022	0.929620	-0.117596	-0.118879	0.030575	74.0971	-0.117905	-4.381505	-0.006978	NaN
1092	1.000000	0.938904	7.37574e+06	-54739.1	1055.82	-29743	0.000000	0.000000	6.939110	0.077278	NaN	0.000000	0.001681	0.001598	28.0832	0.047394	0.002039	23.2485	120.859	-165.458	0.013899	0.937586	-0.109595	-0.110913	0.077278	23.2485	-0.112088	-3.324203	-0.023247	NaN
1092	1.000000	0.946925	7.37574e+06	-54739.1	1055.82	-29743	0.000000	0.000000	6.947128	-0.024310	NaN	0.000000	0.001633	0.001619	28.0832	0.080822	0.001933	41.8137	-47.8586	-168.153	0.002381	0.945612	-0.101573	-0.102887	-0.024310	41.8137	-0.101137	-1.936024	0.012557	NaN
1092	1.000000	0.954923	7.37574e+06	-54739.1	1055.82	-29743	0.000000	0.000000	6.955124	-0.038247	NaN	0.000000	0.001659	0.001614	28.0831	0.120830	0.001762	68.5748	-137.891	-164.64	-0.016682	0.953594	-0.093576	-0.094905	-0.038247	68.5748	-0.093158	-1.280012	0.029881	NaN
1092	1.000000	0.962924	7.37574e+06	-54739.1	1055.82	-29743	0.000000	0.000000	6.963129	0.045739	NaN	0.000000	0.001623	0.001621	28.0833	0.041318	0.002014	20.5151	-105.469	-168.119	-0.017459	0.961610	-0.085575	-0.086889	0.045739	20.5151	-0.087247	-0.930422	-0.049160	NaN
1092	1.000000	0.970912	7.37574e+06	-54739.1	1055.82	-29743	0.000000	0.000000	6.971116	0.031806	NaN	0.000000	0.001644	0.001617	28.0832	0.067636	0.001934	34.9785	26.611	-166.991	-0.023686	0.969579	-0.077587	-0.078920	0.031806	34.9785	-0.078269	-0.559951	-0.056801	NaN
1092	1.000000	0.978955	7.37574e+06	-54739.1	1055.82	-29743	0.000000	0.000000	6.979156	-0.058883	NaN	0.000000	0.001629	0.001634	28.0834	0.074889	0.001952	38.3725	-136.282	-164.051	-0.005134	0.977605	-0.069544	-0.070894	-0.058883	38.3725	-0.068393	-0.308737	0.190722	NaN
1092	1.000000	0.986966	7.37574e+06	-54739.1	1055.82	-29743	0.000000	0.000000	6.987168	-0.023329	NaN	0.000000	0.001673	0.001656	28.0832	0.033792	0.002080	16.2452	136.992	-169.321	-0.016207	0.985667	-0.061533	-0.062832	-0.023329	16.2452	-0.060456	-0.185590	0.125703	NaN
1092	1.000000	0.994910	7.37574e+06	-54739.1	1055.82	-29743	0.000000	0.000000	6.995113	0.002002	NaN	0.000000	0.001644	0.001634	28.0831	0.103269	0.002054	50.2717	150.464	-170.472	-0.009249	0.993652	-0.053589	-0.054846	0.002002	50.2717	-0.053619	-0.117182	-0.017087	NaN
1092	1.000000	1.002935	7.37574e+06	-54739.1	1055.82	-29743	0.000000	0.000000	7.003139	0.006206	NaN	0.000000	0.001640	0.001650	28.0832	0.074197	0.002080	35.6654	172.322	-166.087	0.025454	1.001669	-0.045564	-0.046830	0.006206	35.6654	-0.045694	-0.067486	-0.091956	NaN
1092	1.000000	1.010919	7.37574e+06	-54739.1	1055.82	-29743	0.000000	0.000000	7.011127	0.109395	NaN	0.000000	0.001715	0.001640	28.0831	0.029715	0.001984	14.977	62.3324	-163.557	0.087274	1.009657	-0.037580	-0.038842	0.109395	14.977	-0.043058	-0.056053	-1.951646	NaN
1092	1.000000	1.018948	7.37574e+06	-54739.1	1055.82	-29743	0.000000	0.000000	7.019150	-0.006057	NaN	0.000000	0.001663	0.001626	28.0837	0.042371	0.002160	19.6167	-86.8858	-167.23	-0.048798	1.017677	-0.029551	-0.030822	-0.006057	19.6167	-0.029320	-0.022034	0.274911	NaN
1092	1.000000	1.026897	7.37574e+06	-54739.1	1055.82	-29743	0.000000	0.000000	7.027100	0.011678	NaN	0.000000	0.001657	0.001645	28.0846	0.090615	0.002004	45.2224	-155.458	-168.1	-0.002215	1.025727	-0.021602	-0.022772	0.011678	45.2224	-0.021796	-0.013953	-0.836949	NaN
1092	1.000000	1.034965	7.37574e+06	-54739.1	1055.82	-29743	0.000000	0.000000	7.035167	-0.040769	NaN	0.000000	0.001655	0.001652	28.0846	0.095920	0.001880	51.031	-80.0126	-167.724	-0.056045	1.033595	-0.013534	-0.014904	-0.040769	51.031	-0.012935	-0.008065	5.055371	NaN
1092	1.000000	1.042941	7.37574e+06	-54739.1	1055.82	-29743	0.000000	0.000000	7.043139	-0.117628	NaN	0.000000	0.001658	0.001634	28.0843	0.068239	0.002153	31.7016	-73.2243	-162.258	-0.075369	1.041687	-0.005558	-0.006812	-0.117628	31.7016	-0.002775	-0.001969	59.7279	NaN
1092	1.000000	1.050942	7.37574e+06	-54739.1	1055.82	-29743	0.000000	0.000000	7.051359	5.200032	NaN	0.000000	0.001702	0.001619	28.0845	5.838335	0.001738	3358.89	5.378663	-167.439	3.422436	1.049623	0.002443	0.001124	5.200032	3358.89	0.001282	0.000982	5294.11	97918
1092	2.000000	1.055515	7.37574e+06	-54739.1	1055.82	-29743	0.000000	0.000000	7.056136	10.1499	NaN	0.000000	0.001602	0.001642	28.0843	10.4977	0.001682	6241.66	8.345888	-176.637	10.5038	1.055221	0.007016	0.006722	10.1499	6241.66	0.005797	0.004872	2083.16	81696.6
1092	2.000000	1.057542	7.37574e+06	-54739.1	1055.82	-29743	0.000000	0.000000	7.058290	13.2384	NaN	0.000000	0.001626	0.001658	28.0845	12.3039	0.001656	7431.57	9.581099	-176.863	14.2034	1.057188	0.009043	0.008689	13.2384	7431.57	0.007707	0.006743	1963.38	82687.1
1092	2.000000	1.059470	7.37574e+06	-54739.1	1055.82	-29743	0.000000	0.000000	7.060316	15.633	NaN	0.000000	0.001611	0.001638	28.0848	14.3051	0.001598	8951.96	7.882529	-178.81	15.0787	1.059152	0.010971	0.010653	15.633	8951.96	0.009661	0.008808	1774.93	87148.7
1092	2.000000	1.061467	7.37574e+06	-54739.1	1055.82	-29743	0.000000	0.000000	7.062389	17.4714	NaN	0.000000	0.001624	0.001614	28.0842	16.7879	0.001843	9107.85	7.086831	-176.498	17.5212	1.061156	0.012968	0.012657	17.4714	9107.85	0.011529	0.010931	1598.33	79590
1092	2.000000	1.063418	7.37574e+06	-54739.1	1055.82	-29743	0.000000	0.000000	7.064508	21.5671	NaN	0.000000	0.001622	0.001592	28.0845	18.7924	0.001858	10116.3	9.057196	-178.884	22.7132	1.063157	0.014919	0.014658	21.5671	10116.3	0.013320	0.013110	1645.04	80721.2
1092	2.000000	1.065424	7.37574e+06	-54739.1	1055.82	-29743	0.000000	0.000000	7.066611	23.9208	NaN	0.000000	0.001613	0.001620	28.0844	20.3626	0.001927	10566.3	4.437129	-174.101	22.9962	1.065092	0.016925	0.016593	23.9208	10566.3	0.015227	0.015589	1534.45	77319
1092	2.000000	1.067454	7.37574e+06	-54739.1	1055.82	-29743	0.000000	0.000000	7.068884	29.8246	NaN	0.000000	0.001631	0.001621	28.0844	22.4576	0.001806	12433.5	8.239798	179.44	29.8588	1.067137	0.018955	0.018638	29.8246	12433.5	0.017156	0.018269	1632.51	84044
1092	2.000000	1.069415	7.37574e+06	-54739.1	1055.82	-29743	0.000000	0.000000	7.070921	31.6772	NaN	0.000000	0.001588	0.001641	28.0846	23.9969	0.001716	13984.9	3.498299	-178.877	29.6615	1.069102	0.020916	0.020603	31.6772	13984.9	0.019217	0.021327	1485.33	87492.1
1092	2.000000	1.071365	7.37574e+06	-54739.1	1055.82	-29743	0.000000	0.000000	7.073068	36.4441	NaN	0.000000	0.001576	0.001641	28.0847	26.3104	0.001759	14957.9	3.567928	-178.313	34.7717	1.071165	0.022866	0.022666	36.4441	14957.9	0.021039	0.024201	1505.87	87846.3
1092	2.000000	1.073425	7.37574e+06	-54739.1	1055.82	-29743	0.000000	0.000000	7.075297	40.5821	NaN	0.000000	0.001600	0.001631	28.0847	27.3797	0.001785	15336.1	2.686659	-177.975	40.3269	1.073082	0.024926	0.024583	40.5821	15336.1	0.022941	0.027376	1482.39	84684.3
1092	2.000000	1.075482	7.37574e+06	-54739.1	1055.82	-29743	0.000000	0.000000	7.077503	44.2057	NaN	0.000000	0.001625	0.001644	28.0844	30.1508	0.001821	16560.2	6.525263	179.168	48.9467	1.075172	0.026983	0.026673	44.2057	16560.2	0.024981	0.030981	1426.87	85959.5
1092	2.000000	1.077416	7.37574e+06	-54739.1	1055.82	-29743	0.000000	0.000000	7.079801	53.0363	NaN	0.000000	0.001639	0.001635	28.085	31.7532	0.001698	18701.7	4.325140	179.069	52.4453	1.077135	0.028917	0.028636	53.0363	18701.7	0.026790	0.034353	1543.86	92187.6
1092	2.000000	1.079370	7.37574e+06	-54739.1	1055.82	-29743	0.000000	0.000000	7.081897	56.4796	NaN	0.000000	0.001619	0.001694	28.0843	33.5373	0.001840	18229.3	5.754601	178.948	55.5488	1.079104	0.030871	0.030605	56.4796	18229.3	0.028548	0.037787	1494.68	85678.4
1092	2.000000	1.081336	7.37574e+06	-54739.1	1055.82	-29743	0.000000	0.000000	7.084051	61.0826	NaN	0.000000	0.001614	0.001657	28.0834	35.7504	0.001792	19953.6	4.368436	178.855	58.7308	1.081078	0.032837	0.032579	61.0826	19953.6	0.030541	0.041872	1458.78	89090.5
1092	2.000000	1.083347	7.37574e+06	-54739.1	1055.82	-29743	0.000000	0.000000	7.086437	70.1647	NaN	0.000000	0.001592	0.001654	28.0833	36.8367	0.001759	20937.2	5.357627	177.349	68.5815	1.083070	0.034848	0.034571	70.1647	20937.2	0.032335	0.045722	1534.58	89459.5
1092	2.000000	1.085496	7.37574e+06	-54739.1	1055.82	-29743	0.000000	0.000000	7.088741	73.9534	NaN	0.000000	0.001622	0.001643	28.0831	39.8799	0.001704	23405.5	5.912973	176.303	79.5298	1.085084	0.036997	0.036586	73.9534	23405.5	0.034627	0.050882	1453.43	94800.2
1092	2.000000	1.087415	7.37574e+06	-54739.1	1055.82	-29743	0.000000	0.000000	7.091059	83.6458	NaN	0.000000	0.001626	0.001645	28.0844	42.3195	0.001768	23940.6	7.171114	174.633	83.8144	1.087009	0.038916	0.038511	83.6458	23940.6	0.036296	0.054806	1526.21	93431.6
1092	2.000000	1.089331	7.37574e+06	-54739.1	1055.82	-29743	0.000000	0.000000	7.093323	92.1245	NaN	0.000000	0.001600	0.001645	28.0833	43.4343	0.001798	24155.6	4.424970	176.886	89.1449	1.089035	0.040832	0.040537	92.1245	24155.6	0.037972	0.058891	1564.32	90942.4
1092	2.000000	1.091340	7.37574e+06	-54739.1	1055.82	-29743	0.000000	0.000000	7.095780	103.007	NaN	0.000000	0.001593	0.001667	28.0833	45.8987	0.001868	24564.7	3.804169	177.513	100.544	1.091128	0.042841	0.042629	103.007	24564.7	0.039696	0.063245	1628.7	89242.5
1092	2.000000	1.093382	7.37574e+06	-54739.1	1055.82	-29743	0.000000	0.000000	7.098083	109.346	NaN	0.000000	0.001618	0.001644	28.0832	47.4943	0.001727	27495.6	9.153289	171.491	109.484	1.092975	0.044883	0.044476	109.346	27495.6	0.041900	0.069031	1584	95612.4
1092	2.000000	1.095327	7.37574e+06	-54739.1	1055.82	-29743	0.000000	0.000000	7.100246	114.636	NaN	0.000000	0.001616	0.001642	28.083	50.6723	0.001689	29996.8	5.243913	174.102	112.552	1.095091	0.046828	0.046592	114.636	29996.8	0.043962	0.074668	1535.27	100295
1092	2.000000	1.097367	7.37574e+06	-54739.1	1055.82	-29743	0.000000	0.000000	7.102922	130.111	NaN	0.000000	0.001640	0.001664	28.0834	52.3625	0.001767	29635.6	2.511459	178.22	128.547	1.096974	0.048868	0.048475	130.111	29635.6	0.045575	0.079229	1642.22	96193.5
1092	2.000000	1.099287	7.37574e+06	-54739.1	1055.82	-29743	0.000000	0.000000	7.105108	136.577	NaN	0.000000	0.001605	0.001661	28.0831	54.5539	0.001784	30581.3	2.485715	176.839	132.975	1.098966	0.050788	0.050467	136.577	30581.3	0.047439	0.084661	1613.22	96025.5
1092	2.000000	1.101421	7.37574e+06	-54739.1	1055.82	-29743	0.000000	0.000000	7.107597	145.205	NaN	0.000000	0.001600	0.001650	28.0833	58.0543	0.001747	33227.1	8.925521	169.752	149.842	1.101053	0.052922	0.052554	145.205	33227.1	0.049645	0.091318	1590.1	100459
1092	2.000000	1.103290	7.37574e+06	-54739.1	1055.82	-29743	0.000000	0.000000	7.110025	158.799	NaN	0.000000	0.001630	0.001606	28.0831	57.3178	0.001685	34014.9	4.005533	175.321	156.063	1.102987	0.054791	0.054488	158.799	34014.9	0.051289	0.096440	1646.6	100072
1092	2.000000	1.105233	7.37574e+06	-54739.1	1055.82	-29743	0.000000	0.000000	7.112407	169.468	NaN	0.000000	0.001647	0.001662	28.0831	61.2296	0.001846	33165.9	5.409129	173.787	165.347	1.104998	0.056734	0.056499	169.468	33165.9	0.052901	0.101592	1668.13	95068.4
1092	2.000000	1.107353	7.37574e+06	-54739.1	1055.82	-29743	0.000000	0.000000	7.114915	178.892	NaN	0.000000	0.001650	0.001596	28.0834	62.7788	0.001755	35777.6	5.306583	172.373	176.017	1.107052	0.058855	0.058553	178.892	35777.6	0.055104	0.108841	1643.61	99080.4
1092	2.000000	1.109268	7.37574e+06	-54739.1	1055.82	-29743	0.000000	0.000000	7.117200	187.892	NaN	0.000000	0.001626	0.001620	28.083	64.2855	0.001776	36193.9	5.558823	171.955	185.307	1.109017	0.060769	0.060518	187.892	36193.9	0.056876	0.114843	1636.07	97578.8
1092	2.000000	1.111320	7.37574e+06	-54739.1	1055.82	-29743	0.000000	0.000000	7.119671	198.069	NaN	0.000000	0.001659	0.001631	28.0836	65.718	0.001809	36336.7	-3.862254	-178.099	195.252	1.111096	0.062822	0.062597	198.069	36336.7	0.058733	0.121306	1632.81	95318.7
1092	2.000000	1.113308	7.37574e+06	-54739.1	1055.82	-29743	0.000000	0.000000	7.122311	213.918	NaN	0.000000	0.001643	0.001622	28.083	66.9827	0.001826	36675.8	3.496911	175.718	212.753	1.112924	0.064809	0.064425	213.918	36675.8	0.060435	0.127372	1679.48	93889.4
1092	2.000000	1.115253	7.37574e+06	-54739.1	1055.82	-29743	0.000000	0.000000	7.124770	226.424	NaN	0.000000	0.001619	0.001645	28.0843	70.141	0.001768	39667.3	4.736238	172.633	220.838	1.114959	0.066754	0.066460	226.424	39667.3	0.062473	0.134825	1679.39	98700.6
1092	2.000000	1.117252	7.37574e+06	-54739.1	1055.82	-29743	0.000000	0.000000	7.127295	239.211	NaN	0.000000	0.001650	0.001654	28.0845	72.8866	0.001877	38836.2	7.073868	171.625	233.847	1.116834	0.068753	0.068335	239.211	38836.2	0.064133	0.141045	1696	94478.1
1092	2.000000	1.119286	7.37574e+06	-54739.1	1055.82	-29743	0.000000	0.000000	7.129790	250.436	NaN	0.000000	0.001677	0.001624	28.0845	74.377	0.001777	41859.3	4.755784	171.763	247.988	1.119006	0.070787	0.070507	250.436	41859.3	0.066300	0.149362	1676.71	98956.7
1092	2.000000	1.121288	7.37574e+06	-54739.1	1055.82	-29743	0.000000	0.000000	7.132441	266.196	NaN	0.000000	0.001653	0.001656	28.0847	77.1593	0.001750	44084.7	4.820818	171.727	263.447	1.121074	0.072789	0.072576	266.196	44084.7	0.068260	0.157082	1694.63	101624
1092	2.000000	1.123315	7.37574e+06	-54739.1	1055.82	-29743	0.000000	0.000000	7.134893	276.525	NaN	0.000000	0.001646	0.001658	28.0844	77.6623	0.001847	42042.7	3.194896	174.09	274.954	1.123071	0.074816	0.074573	276.525	42042.7	0.069883	0.163614	1690.11	94962.9
1092	2.000000	1.125162	7.37574e+06	-54739.1	1055.82	-29743	0.000000	0.000000	7.137529	295.69	NaN	0.000000	0.001596	0.001626	28.0844	80.655	0.001837	43895.6	5.477907	171.474	287.995	1.124908	0.076664	0.076409	295.69	43895.6	0.071612	0.170705	1732.17	97066.9
1092	2.000000	1.127304	7.37574e+06	-54739.1	1055.82	-29743	0.000000	0.000000	7.140235	309.425	NaN	0.000000	0.001656	0.001625	28.0843	82.0419	0.001805	45462.1	4.598252	172.618	305.906	1.126827	0.078805	0.078328	309.425	45462.1	0.073701	0.179466	1724.14	98046.3
1092	2.000000	1.129222	7.37574e+06	-54739.1	1055.82	-29743	0.000000	0.000000	7.142783	324.731	NaN	0.000000	0.001620	0.001646	28.0844	83.3907	0.001745	47774.8	4.390820	171.803	317.673	1.128899	0.080723	0.080400	324.731	47774.8	0.075625	0.187721	1729.86	100743
1092	2.000000	1.131305	7.37574e+06	-54739.1	1055.82	-29743	0.000000	0.000000	7.145419	338.176	NaN	0.000000	0.001614	0.001700	28.0849	86.33	0.001838	46966.8	3.000628	173.4	334.699	1.130901	0.082806	0.082402	338.176	46966.8	0.077406	0.195512	1729.7	97046
1092	2.000000	1.133382	7.37574e+06	-54739.1	1055.82	-29743	0.000000	0.000000	7.147912	348.282	NaN	0.000000	0.001622	0.001646	28.0845	87.8189	0.001740	50475.9	7.007098	169.188	352.545	1.133038	0.084883	0.084539	348.282	50475.9	0.079708	0.205807	1692.27	101655
1092	2.000000	1.135404	7.37574e+06	-54739.1	1055.82	-29743	0.000000	0.000000	7.150506	362.197	NaN	0.000000	0.001642	0.001650	28.0844	90.5476	0.001825	49607.7	4.621248	171.883	368.689	1.134995	0.086905	0.086496	362.197	49607.7	0.081429	0.213661	1695.2	98052.7
1092	2.000000	1.137343	7.37574e+06	-54739.1	1055.82	-29743	0.000000	0.000000	7.153080	377.634	NaN	0.000000	0.001633	0.001655	28.0843	92.0116	0.001687	54551.7	4.496124	170.41	375.948	1.137106	0.088844	0.088607	377.634	54551.7	0.083652	0.224015	1685.75	105303
1092	2.000000	1.139264	7.37574e+06	-54739.1	1055.82	-29743	0.000000	0.000000	7.155826	397.695	NaN	0.000000	0.001643	0.001662	28.0844	94.0429	0.001851	50809.6	5.365306	170.858	393.789	1.138905	0.090765	0.090406	397.695	50809.6	0.084895	0.229899	1729.87	96816.7
1092	2.000000	1.141338	7.37574e+06	-54739.1	1055.82	-29743	0.000000	0.000000	7.158452	411.091	NaN	0.000000	0.001711	0.001640	28.0847	95.7418	0.001755	54541	2.697615	172.284	411.478	1.141098	0.092839	0.092599	411.091	54541	0.087186	0.240942	1706.18	101517
1092	2.000000	1.143314	7.37574e+06	-54739.1	1055.82	-29743	0.000000	0.000000	7.161164	428.997	NaN	0.000000	0.001707	0.001639	28.0843	96.3402	0.001740	55368	2.060345	173.148	426.371	1.143003	0.094815	0.094504	428.997	55368	0.089004	0.249870	1716.88	101199
1092	2.000000	1.145293	7.37574e+06	-54739.1	1055.82	-29743	0.000000	0.000000	7.164086	451.926	NaN	0.000000	0.001686	0.001650	28.0845	100.102	0.001745	57380.8	5.667341	169.365	449.768	1.144967	0.096794	0.096468	451.926	57380.8	0.090887	0.259283	1742.98	102956
1092	2.000000	1.147491	7.37574e+06	-54739.1	1055.82	-29743	0.000000	0.000000	7.166930	467.623	NaN	0.000000	0.001719	0.001645	28.084	102.754	0.001770	58039.4	5.684947	169.748	475.814	1.146956	0.098992	0.098457	467.623	58039.4	0.092949	0.269776	1733.38	102093
1092	2.000000	1.149297	7.37574e+06	-54739.1	1055.82	-29743	0.000000	0.000000	7.169669	490.303	NaN	0.000000	0.001692	0.001658	28.0829	103.527	0.001752	59106.9	2.899271	172.392	489.934	1.149010	0.100799	0.100512	490.303	59106.9	0.094577	0.278197	1762.43	102385
1092	2.000000	1.151123	7.37574e+06	-54739.1	1055.82	-29743	0.000000	0.000000	7.172024	503.148	NaN	0.000000	0.001667	0.001607	28.0831	106.914	0.001784	59931.4	4.771788	170.109	491.745	1.150857	0.102625	0.102359	503.148	59931.4	0.096328	0.287389	1750.76	102139
1092	2.000000	1.152810	7.37574e+06	-54739.1	1055.82	-29743	0.000000	0.000000	7.174220	515.536	NaN	0.000000	0.001688	0.001613	28.0828	107.281	0.001751	61266.6	4.662601	-10.1661	515.079	1.152578	0.104311	0.104079	515.536	61266.6	0.098000	0.296299	1739.92	102833