File: remote_trans/data/nanoindenter/0828-1/data/Data_2025-08-06,11h17m57s/2025-07-22_16-23-58_1_55.txt
2025-07-22, 16:23:58, 1
Index	Phase	Displacement	Time	Pos X	Pos Y	Pos Z	Rot A	Rot B	Piezo Z	Force A	Force B	Gripper	Voltage A	Voltage B	Temperature	Amplitude force	Amplitude pos	Stiffness	Phase shift	Phase excitation	Force A raw	Displacement raw	HMax	HMax raw	Real Force	Real Stiffness	Contact Depth	Area	Hardness	Reduced Mod.
[#]	[#]	[um]	[s]	[um]	[um]	[um]	[m°]	[m°]	[um]	[uN]	[uN]	[V]	[V]	[V]	[°C]	[uN]	[um]	[N/m]	[°]	[°]	[uN]	[um]	[um]	[um]	[uN]	[N/m]	[um]	[um^2]	[MPa]	[MPa]
55	1.000000	0.002474	7.36558e+06	-41389.1	955.817	-29787	0.000000	0.000000	6.002836	0.057738	NaN	0.000000	0.001595	0.001685	28.0821	0.109049	0.000947	115.136	-98.284	-163.96	0.029534	0.001186	-1.109337	-1.110625	0.057738	115.136	-1.109713	-6.767674E+14	-8.531382E-17	NaN
55	1.000000	0.012528	7.36558e+06	-41389.1	955.818	-29787	0.000000	0.000000	6.012885	-0.049700	NaN	0.000000	0.001597	0.001687	28.1146	0.148912	0.001296	114.858	-20.907	18.4022	-0.098258	0.011028	-1.099283	-1.100783	-0.049700	114.858	-1.098959	-4.853861E+14	1.023934E-16	NaN
55	1.000000	0.022398	7.36558e+06	-41389.1	955.818	-29787	0.000000	0.000000	6.022755	-0.069559	NaN	0.000000	0.001586	0.001668	28.1252	0.054055	0.001679	32.198	137.766	-164.494	0.010501	0.021085	-1.089413	-1.090726	-0.069559	32.198	-1.087792	-3.436924E+14	2.023865E-16	NaN
55	1.000000	0.032396	7.36558e+06	-41389.1	955.818	-29787	0.000000	0.000000	6.032751	-0.092965	NaN	0.000000	0.001588	0.001704	28.087	0.071234	0.002027	35.1483	86.1726	13.5276	-0.100117	0.031025	-1.079416	-1.080786	-0.092965	35.1483	-1.077432	-2.494734E+14	3.726459E-16	NaN
55	1.000000	0.042407	7.36558e+06	-41389.1	955.818	-29787	0.000000	0.000000	6.042768	0.035935	NaN	0.000000	0.001581	0.001701	28.0836	0.017566	0.002035	8.632929	67.076	-164.837	-0.007272	0.041083	-1.069404	-1.070728	0.035935	8.632929	-1.072526	-2.143479E+14	-1.676483E-16	NaN
55	1.000000	0.052406	7.36558e+06	-41389.1	955.818	-29787	0.000000	0.000000	6.052763	-0.068650	NaN	0.000000	0.001565	0.001664	28.1161	0.061954	0.001893	32.7294	-162.667	13.0528	-0.021323	0.051111	-1.059405	-1.060700	-0.068650	32.7294	-1.057832	-1.360450E+14	5.046151E-16	NaN
55	1.000000	0.062400	7.36558e+06	-41389.1	955.818	-29787	0.000000	0.000000	6.062760	0.033757	NaN	0.000000	0.001552	0.001748	28.1263	0.140031	0.001914	73.1599	102.367	-166.708	0.001581	0.061053	-1.049411	-1.050758	0.033757	73.1599	-1.049757	-1.059628E+14	-3.185721E-16	NaN
55	1.000000	0.072423	7.36558e+06	-41389.1	955.819	-29787	0.000000	0.000000	6.072782	-0.001860	NaN	0.000000	0.001534	0.001705	28.0869	0.059821	0.002040	29.3268	32.8284	17.4422	-0.087875	0.071098	-1.039389	-1.040713	-0.001860	29.3268	-1.039341	-7.675487E+13	2.423383E-17	NaN
55	1.000000	0.082409	7.36558e+06	-41389.1	955.818	-29787	0.000000	0.000000	6.082768	-0.015120	NaN	0.000000	0.001583	0.001689	28.082	0.044314	0.001971	22.4848	-123.677	-166.673	-0.057444	0.081136	-1.029402	-1.030676	-0.015120	22.4848	-1.028897	-5.554541E+13	2.722115E-16	NaN
55	1.000000	0.092402	7.36558e+06	-41389.1	955.818	-29787	0.000000	0.000000	6.092764	0.060414	NaN	0.000000	0.001569	0.001737	28.1145	0.071052	0.002053	34.6081	80.2643	14.25	-0.035179	0.091042	-1.019409	-1.020769	0.060414	34.6081	-1.020718	-4.311398E+13	-1.401262E-15	NaN
55	1.000000	0.102441	7.36558e+06	-41389.1	955.819	-29787	0.000000	0.000000	6.102800	-0.009315	NaN	0.000000	0.001626	0.001740	28.1251	0.082075	0.002009	40.8544	-107.989	-167.305	0.008551	0.101111	-1.009370	-1.010700	-0.009315	40.8544	-1.009199	-3.017180E+13	3.087172E-16	NaN
55	1.000000	0.112418	7.36558e+06	-41389.1	955.818	-29787	0.000000	0.000000	6.112777	0.000131	NaN	0.000000	0.001623	0.001677	28.0853	0.108037	0.002001	54.004	-133.653	16.7129	-0.051846	0.111065	-0.999393	-1.000746	0.000131	54.004	-0.999395	-2.226486E+13	-5.871516E-18	NaN
55	1.000000	0.122410	7.36558e+06	-41389.1	955.818	-29787	0.000000	0.000000	6.122772	0.077016	NaN	0.000000	0.001614	0.001725	28.0818	0.114526	0.002109	54.3106	-178.917	-164.509	0.036331	0.121105	-0.989401	-0.990706	0.077016	54.3106	-0.990465	-1.688003E+13	-4.562546E-15	NaN
55	1.000000	0.132447	7.36558e+06	-41389.1	955.819	-29787	0.000000	0.000000	6.132807	0.022008	NaN	0.000000	0.001596	0.001743	28.1145	0.148165	0.002139	69.2823	21.1159	14.2425	0.033945	0.131081	-0.979364	-0.980730	0.022008	69.2823	-0.979602	-1.205182E+13	-1.826128E-15	NaN
55	1.000000	0.142436	7.36558e+06	-41389.1	955.818	-29787	0.000000	0.000000	6.142794	-0.022646	NaN	0.000000	0.001620	0.001743	28.1251	0.127394	0.002048	62.2003	-86.1255	-163.201	-0.048693	0.141098	-0.969375	-0.970713	-0.022646	62.2003	-0.969102	-8.700865E+12	2.602769E-15	NaN
55	1.000000	0.152416	7.36558e+06	-41389.1	955.818	-29787	0.000000	0.000000	6.152774	-0.016189	NaN	0.000000	0.001606	0.001708	28.0858	0.076047	0.001929	39.4163	136.672	16.6767	0.008092	0.151059	-0.959395	-0.960752	-0.016189	39.4163	-0.959087	-6.376214E+12	2.538957E-15	NaN
55	1.000000	0.162430	7.36558e+06	-41389.1	955.818	-29787	0.000000	0.000000	6.162789	-0.007948	NaN	0.000000	0.001608	0.001746	28.0811	0.080273	0.001978	40.5826	114.063	-164.187	0.020857	0.161136	-0.949381	-0.950676	-0.007948	40.5826	-0.949234	-4.695623E+12	1.692580E-15	NaN
55	1.000000	0.172442	7.36558e+06	-41389.1	955.819	-29787	0.000000	0.000000	6.172801	-0.011084	NaN	0.000000	0.001555	0.001741	28.113	0.060688	0.002030	29.8908	165.786	17.6148	-0.017591	0.171087	-0.939369	-0.940724	-0.011084	29.8908	-0.939091	-3.426655E+12	3.234515E-15	NaN
55	1.000000	0.182465	7.36558e+06	-41389.1	955.818	-29787	0.000000	0.000000	6.182826	0.056676	NaN	0.000000	0.001545	0.001748	28.1237	0.078449	0.001948	40.2729	9.529411	-161.019	0.047478	0.181112	-0.929346	-0.930699	0.056676	40.2729	-0.930402	-2.615902E+12	-2.166599E-14	NaN
55	1.000000	0.192468	7.36558e+06	-41389.1	955.818	-29787	0.000000	0.000000	6.192824	-0.071493	NaN	0.000000	0.001582	0.001776	28.0854	0.048873	0.002094	23.3447	118.955	14.1838	-0.073177	0.191085	-0.919343	-0.920726	-0.071493	23.3447	-0.917046	-1.727135E+12	4.139417E-14	NaN
55	1.000000	0.202460	7.36558e+06	-41389.1	955.819	-29787	0.000000	0.000000	6.202818	-0.024447	NaN	0.000000	0.001559	0.001739	28.0805	0.092038	0.002032	45.2979	-83.4738	-165.466	-0.117910	0.201093	-0.909351	-0.910718	-0.024447	45.2979	-0.908946	-1.342546E+12	1.820967E-14	NaN
55	1.000000	0.212488	7.36558e+06	-41389.1	955.818	-29787	0.000000	0.000000	6.212846	-0.034805	NaN	0.000000	0.001571	0.001756	28.114	0.054693	0.002023	27.0318	97.1441	14.0157	-0.030052	0.211031	-0.899323	-0.900780	-0.034805	27.0318	-0.898357	-9.657607E+11	3.603886E-14	NaN
55	1.000000	0.222448	7.36558e+06	-41389.1	955.818	-29787	0.000000	0.000000	6.222805	-0.043706	NaN	0.000000	0.001552	0.001751	28.1252	0.042884	0.001948	22.0097	-92.7232	-162	-0.014901	0.221106	-0.889363	-0.890705	-0.043706	22.0097	-0.887874	-6.969034E+11	6.271402E-14	NaN
55	1.000000	0.232456	7.36558e+06	-41389.1	955.818	-29787	0.000000	0.000000	6.232815	-0.003098	NaN	0.000000	0.001566	0.001715	28.0858	0.121803	0.002125	57.3189	63.5882	13.8379	-0.047339	0.231097	-0.879355	-0.880714	-0.003098	57.3189	-0.879315	-5.338738E+11	5.802713E-15	NaN
55	1.000000	0.242468	7.36558e+06	-41389.1	955.817	-29787	0.000000	0.000000	6.242828	0.015578	NaN	0.000000	0.001584	0.001751	28.0805	0.081580	0.001985	41.1018	145.894	-160.474	-0.030228	0.241148	-0.869343	-0.870663	0.015578	41.1018	-0.869628	-3.948258E+11	-3.945502E-14	NaN
55	1.000000	0.252463	7.36558e+06	-41389.1	955.818	-29787	0.000000	0.000000	6.252819	-0.069428	NaN	0.000000	0.001642	0.001729	28.1136	0.053437	0.001975	27.0501	112.533	17.3852	-0.043403	0.251138	-0.859348	-0.860673	-0.069428	27.0501	-0.857423	-2.699227E+11	2.572136E-13	NaN
55	1.000000	0.262472	7.36558e+06	-41389.1	955.818	-29787	0.000000	0.000000	6.262831	-0.023634	NaN	0.000000	0.001640	0.001734	28.1293	0.055812	0.001809	30.8605	-107.098	-164.416	-0.046606	0.261202	-0.849339	-0.850609	-0.023634	30.8605	-0.848764	-2.060655E+11	1.146931E-13	NaN
55	1.000000	0.272502	7.36558e+06	-41389.1	955.818	-29787	0.000000	0.000000	6.272860	-0.040542	NaN	0.000000	0.001637	0.001775	28.0878	0.090318	0.002089	43.2281	100.102	18.9944	-0.096772	0.271145	-0.839309	-0.840666	-0.040542	43.2281	-0.838605	-1.501065E+11	2.700909E-13	NaN
55	1.000000	0.282481	7.36558e+06	-41389.1	955.819	-29787	0.000000	0.000000	6.282841	0.014896	NaN	0.000000	0.001600	0.001753	28.0847	0.017504	0.002067	8.470065	-149.674	-167.144	-0.037398	0.281197	-0.829330	-0.830614	0.014896	8.470065	-0.830649	-1.171070E+11	-1.271967E-13	NaN
55	1.000000	0.292497	7.36558e+06	-41389.1	955.818	-29787	0.000000	0.000000	6.292855	-0.028449	NaN	0.000000	0.001558	0.001725	28.1149	0.058604	0.001963	29.8527	-119.738	14.599	0.007043	0.291126	-0.819314	-0.820685	-0.028449	29.8527	-0.818599	-8.039249E+10	3.538743E-13	NaN
55	1.000000	0.302494	7.36558e+06	-41389.1	955.819	-29787	0.000000	0.000000	6.302854	0.022711	NaN	0.000000	0.001557	0.001730	28.1278	0.038203	0.001976	19.3355	-74.9053	-165.839	0.176974	0.301144	-0.809317	-0.810668	0.022711	19.3355	-0.810198	-6.183813E+10	-3.672664E-13	NaN
55	1.000000	0.312495	7.36558e+06	-41389.1	955.819	-29787	0.000000	0.000000	6.312857	0.065315	NaN	0.000000	0.001561	0.001709	28.0886	0.068978	0.002012	34.281	-128.491	14.8781	0.076080	0.311173	-0.799316	-0.800638	0.065315	34.281	-0.800745	-4.602340E+10	-1.419163E-12	NaN
55	1.000000	0.322484	7.36558e+06	-41389.1	955.819	-29787	0.000000	0.000000	6.322842	-0.051435	NaN	0.000000	0.001543	0.001729	28.0822	0.137765	0.002132	64.604	-54.3127	-165.642	-0.052581	0.321244	-0.789327	-0.790567	-0.051435	64.604	-0.788730	-3.161029E+10	1.627151E-12	NaN
55	1.000000	0.332509	7.36558e+06	-41389.1	955.819	-29787	0.000000	0.000000	6.332867	-0.028523	NaN	0.000000	0.001559	0.001712	28.1136	0.065171	0.002025	32.187	-68.101	13.6295	0.030984	0.331160	-0.779302	-0.780651	-0.028523	32.187	-0.778638	-2.305261E+10	1.237317E-12	NaN
55	1.000000	0.342523	7.36558e+06	-41389.1	955.818	-29787	0.000000	0.000000	6.342882	-0.000149	NaN	0.000000	0.001564	0.001773	28.1262	0.111587	0.001976	56.4838	162.606	-160.768	0.003224	0.341219	-0.769288	-0.770592	-0.000149	56.4838	-0.769286	-1.720286E+10	8.667763E-15	NaN
55	1.000000	0.352527	7.36558e+06	-41389.1	955.819	-29787	0.000000	0.000000	6.352883	-0.086073	NaN	0.000000	0.001537	0.001706	28.0886	0.041757	0.002036	20.5102	48.2248	17.458	-0.021783	0.351211	-0.759284	-0.760600	-0.086073	20.5102	-0.756137	-1.139569E+10	7.553092E-12	NaN
55	1.000000	0.362525	7.36558e+06	-41389.1	955.819	-29787	0.000000	0.000000	6.362882	-0.069825	NaN	0.000000	0.001572	0.001716	28.0823	0.069495	0.001994	34.8567	-113.302	-163.53	-0.049698	0.361226	-0.749286	-0.750585	-0.069825	34.8567	-0.747784	-8.770950E+9	7.960978E-12	NaN
55	1.000000	0.372522	7.36558e+06	-41389.1	955.819	-29787	0.000000	0.000000	6.372880	-0.048690	NaN	0.000000	0.001563	0.001732	28.1143	0.147330	0.002058	71.5962	163.463	15.0369	0.004769	0.371185	-0.739289	-0.740626	-0.048690	71.5962	-0.738779	-6.613310E+9	7.362433E-12	NaN
55	1.000000	0.382545	7.36558e+06	-41389.1	955.818	-29787	0.000000	0.000000	6.382906	0.040232	NaN	0.000000	0.001590	0.001718	28.1259	0.133448	0.002096	63.6829	154.074	-166.861	0.002947	0.381168	-0.729266	-0.730643	0.040232	63.6829	-0.729740	-4.980339E+9	-8.078192E-12	NaN
55	1.000000	0.392539	7.36558e+06	-41389.1	955.818	-29787	0.000000	0.000000	6.392900	0.053128	NaN	0.000000	0.001594	0.001722	28.0878	0.089188	0.002011	44.3394	-171.448	12.8171	-0.006163	0.391169	-0.719272	-0.720642	0.053128	44.3394	-0.720171	-3.688132E+9	-1.440501E-11	NaN
55	1.000000	0.402548	7.36558e+06	-41389.1	955.819	-29787	0.000000	0.000000	6.402908	0.021544	NaN	0.000000	0.001625	0.001746	28.082	0.084051	0.002093	40.1579	19.6201	-164.081	0.062535	0.401191	-0.709263	-0.710620	0.021544	40.1579	-0.709665	-2.651431E+9	-8.125332E-12	NaN
55	1.000000	0.412567	7.36558e+06	-41389.1	955.819	-29787	0.000000	0.000000	6.412926	-0.010054	NaN	0.000000	0.001582	0.001713	28.1119	0.020061	0.002056	9.755593	9.087933	16.3051	0.080382	0.411190	-0.699244	-0.700622	-0.010054	9.755593	-0.698471	-1.864891E+9	5.391188E-12	NaN
55	1.000000	0.422556	7.36558e+06	-41389.1	955.818	-29787	0.000000	0.000000	6.422916	0.029169	NaN	0.000000	0.001590	0.001724	28.1252	0.096067	0.002079	46.2125	-10.7618	-165.761	0.072057	0.421294	-0.689255	-0.690517	0.029169	46.2125	-0.689729	-1.416478E+9	-2.059269E-11	NaN
55	1.000000	0.432543	7.36558e+06	-41389.1	955.819	-29787	0.000000	0.000000	6.432904	0.032368	NaN	0.000000	0.001582	0.001699	28.086	0.087811	0.002188	40.139	70.341	14.2346	0.015096	0.431197	-0.679268	-0.680614	0.032368	40.139	-0.679873	-1.038646E+9	-3.116349E-11	NaN
55	1.000000	0.442540	7.36558e+06	-41389.1	955.819	-29787	0.000000	0.000000	6.442900	0.006531	NaN	0.000000	0.001571	0.001713	28.0818	0.112927	0.001980	57.0416	48.8631	-165.158	-0.081900	0.441267	-0.669271	-0.670544	0.006531	57.0416	-0.669357	-7.457373E+8	-8.758215E-12	NaN
55	1.000000	0.452569	7.36558e+06	-41389.1	955.819	-29787	0.000000	0.000000	6.452928	0.001797	NaN	0.000000	0.001549	0.001700	28.1122	0.131183	0.001982	66.1987	-175.97	12.2797	-0.036688	0.451176	-0.659242	-0.660635	0.001797	66.1987	-0.659262	-5.424559E+8	-3.313265E-12	NaN
55	1.000000	0.462580	7.36558e+06	-41389.1	955.818	-29787	0.000000	0.000000	6.462939	-0.021175	NaN	0.000000	0.001590	0.001715	28.1265	0.107793	0.001926	55.9688	118.657	-164.938	0.008220	0.461249	-0.649231	-0.650562	-0.021175	55.9688	-0.648947	-3.917436E+8	5.405226E-11	NaN
55	1.000000	0.472563	7.36558e+06	-41389.1	955.818	-29787	0.000000	0.000000	6.472923	0.018565	NaN	0.000000	0.001590	0.001691	28.0864	0.103877	0.001997	52.0263	157.525	18.065	-0.024306	0.471246	-0.639248	-0.640565	0.018565	52.0263	-0.639516	-2.908352E+8	-6.383278E-11	NaN
55	1.000000	0.482593	7.36558e+06	-41389.1	955.818	-29787	0.000000	0.000000	6.482954	0.035522	NaN	0.000000	0.001582	0.001723	28.0809	0.039424	0.001996	19.7485	-179.94	-163.035	0.062805	0.481294	-0.629218	-0.630517	0.035522	19.7485	-0.630567	-2.191870E+8	-1.620640E-10	NaN
55	1.000000	0.492609	7.36558e+06	-41389.1	955.819	-29787	0.000000	0.000000	6.492965	-0.075331	NaN	0.000000	0.001606	0.001723	28.1112	0.040443	0.002039	19.8327	-134.598	17.4712	-0.091000	0.491252	-0.619202	-0.620559	-0.075331	19.8327	-0.616354	-1.397987E+8	5.388533E-10	NaN
55	1.000000	0.502619	7.36558e+06	-41389.1	955.817	-29787	0.000000	0.000000	6.502974	-0.087387	NaN	0.000000	0.001593	0.001692	28.126	0.136744	0.002043	66.9183	-106.779	-164.183	-0.026473	0.501232	-0.609193	-0.610579	-0.087387	66.9183	-0.608213	-1.080259E+8	8.089430E-10	NaN
55	1.000000	0.512586	7.36558e+06	-41389.1	955.818	-29787	0.000000	0.000000	6.512948	0.049677	NaN	0.000000	0.001584	0.001732	28.0863	0.057937	0.002108	27.4829	40.9191	15.1363	0.005289	0.511239	-0.599225	-0.600572	0.049677	27.4829	-0.600581	-8.481172E+7	-5.857338E-10	NaN
55	1.000000	0.522600	7.36558e+06	-41389.1	955.818	-29787	0.000000	0.000000	6.522958	-0.024953	NaN	0.000000	0.001594	0.001722	28.0829	0.113278	0.001904	59.4856	-7.736896	-162.339	-0.021611	0.521258	-0.589211	-0.590553	-0.024953	59.4856	-0.588897	-5.854002E+7	4.262623E-10	NaN
55	1.000000	0.532596	7.36558e+06	-41389.1	955.819	-29787	0.000000	0.000000	6.532958	0.086707	NaN	0.000000	0.001549	0.001739	28.1136	0.055985	0.001880	29.7801	-113.475	15.9345	0.071716	0.531235	-0.579216	-0.580576	0.086707	29.7801	-0.581399	-4.613555E+7	-1.879406E-9	NaN
55	1.000000	0.542612	7.36558e+06	-41389.1	955.818	-29787	0.000000	0.000000	6.542969	-0.069533	NaN	0.000000	0.001560	0.001700	28.1282	0.096417	0.001953	49.3763	150.442	-164.999	0.005791	0.541262	-0.569199	-0.570549	-0.069533	49.3763	-0.568142	-3.026653E+7	2.297368E-9	NaN
55	1.000000	0.552613	7.36558e+06	-41389.1	955.818	-29787	0.000000	0.000000	6.552971	-0.031699	NaN	0.000000	0.001592	0.001726	28.0888	0.039220	0.001967	19.941	-173.597	14.089	-0.016552	0.551241	-0.559198	-0.560570	-0.031699	19.941	-0.558006	-2.191764E+7	1.446287E-9	NaN
55	1.000000	0.562621	7.36558e+06	-41389.1	955.818	-29787	0.000000	0.000000	6.562979	-0.037565	NaN	0.000000	0.001572	0.001709	28.0807	0.104741	0.002045	51.2106	-96.4175	-167.861	0.006407	0.561312	-0.549190	-0.550499	-0.037565	51.2106	-0.548640	-1.625977E+7	2.310306E-9	NaN
55	1.000000	0.572621	7.36558e+06	-41389.1	955.819	-29787	0.000000	0.000000	6.572982	0.037891	NaN	0.000000	0.001556	0.001693	28.1122	0.058118	0.002026	28.6909	-32.8869	12.5293	0.038813	0.571268	-0.539190	-0.540543	0.037891	28.6909	-0.540181	-1.241256E+7	-3.052603E-9	NaN
55	1.000000	0.582611	7.36558e+06	-41389.1	955.818	-29787	0.000000	0.000000	6.582971	0.025948	NaN	0.000000	0.001568	0.001706	28.1264	0.080136	0.002001	40.0559	18.2997	-166.689	0.060899	0.581327	-0.529200	-0.530485	0.025948	40.0559	-0.529686	-8.876e+06	-2.923359E-9	NaN
55	1.000000	0.592617	7.36558e+06	-41389.1	955.818	-29787	0.000000	0.000000	6.592977	0.018934	NaN	0.000000	0.001578	0.001694	28.0878	0.037522	0.002026	18.5207	-88.3311	16.4541	-0.035283	0.591274	-0.519194	-0.520537	0.018934	18.5207	-0.519961	-6.50212e+06	-2.912033E-9	NaN
55	1.000000	0.602649	7.36558e+06	-41389.1	955.819	-29787	0.000000	0.000000	6.603009	0.021112	NaN	0.000000	0.001583	0.001737	28.0822	0.031650	0.001989	15.9117	-79.6807	-165.093	0.003555	0.601302	-0.509162	-0.510509	0.021112	15.9117	-0.510157	-4.74905e+06	-4.445474E-9	NaN
55	1.000000	0.612610	7.36558e+06	-41389.1	955.818	-29787	0.000000	0.000000	6.612971	0.045153	NaN	0.000000	0.001585	0.001709	28.1131	0.092638	0.002093	44.2646	140.908	17.4181	-0.029200	0.611313	-0.499201	-0.500498	0.045153	44.2646	-0.499966	-3.42409e+06	-1.318672E-8	NaN
55	1.000000	0.622630	7.36558e+06	-41389.1	955.819	-29787	0.000000	0.000000	6.622985	-0.085612	NaN	0.000000	0.001600	0.001723	28.1276	0.106452	0.001856	57.35	10.0103	-164.182	0.006537	0.621329	-0.489181	-0.490482	-0.085612	57.35	-0.488062	-2.33508e+06	3.666352E-8	NaN
55	1.000000	0.632653	7.36558e+06	-41389.1	955.818	-29787	0.000000	0.000000	6.633011	-0.027987	NaN	0.000000	0.001532	0.001741	28.0891	0.061376	0.002115	29.0155	44.0102	17.9117	-0.089701	0.631308	-0.479158	-0.480503	-0.027987	29.0155	-0.478435	-1.71244e+06	1.634366E-8	NaN
55	1.000000	0.642645	7.36558e+06	-41389.1	955.818	-29787	0.000000	0.000000	6.643006	0.041136	NaN	0.000000	0.001559	0.001724	28.0812	0.066953	0.001950	34.3296	-6.547455	-165.483	0.012217	0.641304	-0.469166	-0.470507	0.041136	34.3296	-0.470065	-1.30712e+06	-3.147061E-8	NaN
55	1.000000	0.652669	7.36558e+06	-41389.1	955.819	-29787	0.000000	0.000000	6.653029	0.001657	NaN	0.000000	0.001517	0.001766	28.1104	0.082429	0.001964	41.9768	-0.891981	14.0291	0.012554	0.651267	-0.459142	-0.460545	0.001657	41.9768	-0.459171	-919118	-1.802599E-9	NaN
55	1.000000	0.662639	7.36558e+06	-41389.1	955.817	-29787	0.000000	0.000000	6.662996	-0.060031	NaN	0.000000	0.001545	0.001747	28.1256	0.055424	0.001953	28.3802	-43.1972	-162.764	0.015362	0.661324	-0.449172	-0.450487	-0.060031	28.3802	-0.447586	-631446	9.506922E-8	NaN
55	1.000000	0.672640	7.36558e+06	-41389.1	955.818	-29787	0.000000	0.000000	6.672999	0.013846	NaN	0.000000	0.001530	0.001763	28.0859	0.095476	0.001952	48.9038	143.51	14.1793	0.038855	0.671290	-0.439172	-0.440521	0.013846	48.9038	-0.439384	-483802	-2.861827E-8	NaN
55	1.000000	0.682681	7.36558e+06	-41389.1	955.818	-29787	0.000000	0.000000	6.683037	-0.085778	NaN	0.000000	0.001550	0.001740	28.0819	0.076762	0.001958	39.2034	-100.576	-162.515	-0.047317	0.681393	-0.429130	-0.430418	-0.085778	39.2034	-0.427489	-328496	2.611237E-7	NaN
55	1.000000	0.692658	7.36558e+06	-41389.1	955.818	-29787	0.000000	0.000000	6.693012	-0.125436	NaN	0.000000	0.001534	0.001725	28.111	0.083927	0.002028	41.3753	-122.805	12.7347	-0.047796	0.691294	-0.419153	-0.420517	-0.125436	41.3753	-0.416879	-232346	5.398683E-7	NaN
55	1.000000	0.702693	7.36558e+06	-41389.1	955.818	-29787	0.000000	0.000000	6.703053	0.016556	NaN	0.000000	0.001537	0.001735	28.1264	0.058919	0.002034	28.9674	116.145	-163.645	0.034707	0.701419	-0.409118	-0.410392	0.016556	28.9674	-0.409547	-182793	-9.057470E-8	NaN
55	1.000000	0.712689	7.36558e+06	-41389.1	955.819	-29787	0.000000	0.000000	6.713045	-0.067328	NaN	0.000000	0.001572	0.001738	28.0871	0.128789	0.001919	67.1072	125.517	14.8048	-0.041492	0.711381	-0.399122	-0.400430	-0.067328	67.1072	-0.398370	-126690	5.314370E-7	NaN
55	1.000000	0.722691	7.36558e+06	-41389.1	955.819	-29787	0.000000	0.000000	6.723051	0.023943	NaN	0.000000	0.001564	0.001688	28.0799	0.116919	0.001976	59.166	23.3002	-162.146	0.011835	0.721367	-0.389121	-0.390444	0.023943	59.166	-0.389424	-94390.4	-2.536611E-7	NaN
55	1.000000	0.732695	7.36558e+06	-41389.1	955.819	-29787	0.000000	0.000000	6.733054	0.003562	NaN	0.000000	0.001558	0.001729	28.1093	0.056049	0.002094	26.7665	-52.6089	17.6065	0.026876	0.731355	-0.379117	-0.380456	0.003562	26.7665	-0.379216	-67397.1	-5.285061E-8	NaN
55	1.000000	0.742681	7.36558e+06	-41389.1	955.819	-29787	0.000000	0.000000	6.743039	-0.044361	NaN	0.000000	0.001540	0.001727	28.1257	0.096827	0.002051	47.2094	143.117	-163.75	-0.100137	0.741381	-0.369130	-0.370430	-0.044361	47.2094	-0.368425	-47145.4	9.409356E-7	NaN
55	1.000000	0.752707	7.36558e+06	-41389.1	955.818	-29787	0.000000	0.000000	6.753068	0.037598	NaN	0.000000	0.001543	0.001719	28.0864	0.061477	0.001899	32.3716	46.8398	10.8346	-0.037712	0.751339	-0.359104	-0.360472	0.037598	32.3716	-0.359975	-35602.5	-1.056059E-6	NaN
55	1.000000	0.762700	7.36558e+06	-41389.1	955.818	-29787	0.000000	0.000000	6.763056	-0.070073	NaN	0.000000	0.001558	0.001741	28.0818	0.030027	0.002072	14.4931	-138.074	-167.732	-0.072408	0.761409	-0.349111	-0.350402	-0.070073	14.4931	-0.345485	-21948.8	3.192572E-6	NaN
55	1.000000	0.772700	7.36558e+06	-41389.1	955.818	-29787	0.000000	0.000000	6.773056	-0.086528	NaN	0.000000	0.001553	0.001755	28.1106	0.132361	0.002011	65.8077	-74.3086	14.3365	-0.008143	0.771360	-0.339111	-0.340451	-0.086528	65.8077	-0.338125	-17147.6	5.046087E-6	NaN
55	1.000000	0.782714	7.36558e+06	-41389.1	955.818	-29787	0.000000	0.000000	6.783070	-0.082714	NaN	0.000000	0.001551	0.001747	28.1269	0.037803	0.001897	19.9307	-76.7114	-164.112	-0.020015	0.781384	-0.329097	-0.330427	-0.082714	19.9307	-0.325984	-11391.6	7.260949E-6	NaN
55	1.000000	0.792686	7.36558e+06	-41389.1	955.818	-29787	0.000000	0.000000	6.793043	-0.060163	NaN	0.000000	0.001591	0.001698	28.0883	0.135066	0.001960	68.9272	-75.9593	13.9904	-0.072501	0.791396	-0.319125	-0.320415	-0.060163	68.9272	-0.318471	-8833.21	6.810979E-6	NaN
55	1.000000	0.802692	7.36558e+06	-41389.1	955.818	-29787	0.000000	0.000000	6.803049	-0.050309	NaN	0.000000	0.001575	0.001723	28.0816	0.155204	0.002011	77.1587	1.295832	-168.396	-0.056203	0.801383	-0.309119	-0.310428	-0.050309	77.1587	-0.308630	-6320.92	7.959133E-6	NaN
55	1.000000	0.812722	7.36559e+06	-41389.1	955.819	-29787	0.000000	0.000000	6.813077	-0.104889	NaN	0.000000	0.001595	0.001744	28.111	0.078348	0.002090	37.491	110.38	14.91	-0.097556	0.811356	-0.299089	-0.300455	-0.104889	37.491	-0.296991	-4244.19	2.471345E-5	NaN
55	1.000000	0.822701	7.36559e+06	-41389.1	955.818	-29787	0.000000	0.000000	6.823063	0.042790	NaN	0.000000	0.001561	0.001699	28.127	0.030941	0.002037	15.1877	54.0191	-165.32	0.009400	0.821411	-0.289110	-0.290401	0.042790	15.1877	-0.291223	-3480.27	-1.229507E-5	NaN
55	1.000000	0.832749	7.36559e+06	-41389.1	955.819	-29787	0.000000	0.000000	6.833107	-0.025480	NaN	0.000000	0.001540	0.001715	28.0873	0.071929	0.001943	37.0099	-35.2432	13.8525	-0.033559	0.831357	-0.279062	-0.280454	-0.025480	37.0099	-0.278546	-2243.99	1.135482E-5	NaN
55	1.000000	0.842717	7.36559e+06	-41389.1	955.819	-29787	0.000000	0.000000	6.843077	0.029913	NaN	0.000000	0.001569	0.001700	28.0812	0.057306	0.002007	28.5545	108.371	-161.871	0.001821	0.841434	-0.269095	-0.270377	0.029913	28.5545	-0.269880	-1658.53	-1.803553E-5	NaN
55	1.000000	0.852711	7.36559e+06	-41389.1	955.819	-29787	0.000000	0.000000	6.853071	0.005354	NaN	0.000000	0.001595	0.001712	28.112	0.037021	0.001983	18.6731	119.626	14.931	-0.085478	0.851397	-0.259100	-0.260414	0.005354	18.6731	-0.259315	-1143.97	-4.680165E-6	NaN
55	1.000000	0.862738	7.36559e+06	-41389.1	955.818	-29787	0.000000	0.000000	6.863096	-0.027839	NaN	0.000000	0.001589	0.001696	28.1283	0.109362	0.001946	56.202	-164.288	-167.939	0.012177	0.861427	-0.249073	-0.250384	-0.027839	56.202	-0.248701	-785.002	3.546394E-5	NaN
55	1.000000	0.872722	7.36559e+06	-41389.1	955.818	-29787	0.000000	0.000000	6.873084	0.044923	NaN	0.000000	0.001586	0.001735	28.0886	0.065569	0.002033	32.2576	51.2797	13.373	0.003792	0.871411	-0.239089	-0.240400	0.044923	32.2576	-0.240133	-577.607	-7.777402E-5	NaN
55	1.000000	0.882759	7.36559e+06	-41389.1	955.818	-29787	0.000000	0.000000	6.883118	-0.009472	NaN	0.000000	0.001598	0.001689	28.0815	0.161701	0.001979	81.705	65.9477	-163.957	0.017417	0.881405	-0.229052	-0.230406	-0.009472	81.705	-0.228965	-385.627	2.456145E-5	NaN
55	1.000000	0.892773	7.36559e+06	-41389.1	955.82	-29787	0.000000	0.000000	6.893133	0.019117	NaN	0.000000	0.001538	0.001681	28.1097	0.051418	0.002007	25.6177	177.31	12.8739	-0.012773	0.891413	-0.219038	-0.220398	0.019117	25.6177	-0.219597	-273.679	-6.985003E-5	NaN
55	1.000000	0.902751	7.36559e+06	-41389.1	955.818	-29787	0.000000	0.000000	6.903108	-0.056792	NaN	0.000000	0.001512	0.001755	28.1273	0.049450	0.002043	24.2078	102.457	-164.314	-0.079919	0.901431	-0.209060	-0.210380	-0.056792	24.2078	-0.207301	-173.391	0.000328	NaN
55	1.000000	0.912764	7.36559e+06	-41389.1	955.818	-29787	0.000000	0.000000	6.913122	-0.019104	NaN	0.000000	0.001558	0.001779	28.0879	0.046731	0.002025	23.079	117.605	16.7419	-0.095027	0.911423	-0.199047	-0.200388	-0.019104	23.079	-0.198426	-124.109	0.000154	NaN
55	1.000000	0.922760	7.36559e+06	-41389.1	955.819	-29787	0.000000	0.000000	6.923116	-0.062575	NaN	0.000000	0.001549	0.001744	28.0819	0.045628	0.001861	24.5204	80.5931	-163.71	-0.020238	0.921437	-0.189052	-0.190374	-0.062575	24.5204	-0.187138	-80.5545	0.000777	NaN
55	1.000000	0.932749	7.36559e+06	-41389.1	955.818	-29787	0.000000	0.000000	6.933106	-0.052526	NaN	0.000000	0.001563	0.001731	28.1095	0.054433	0.001959	27.7796	-90.2608	12.5466	-0.042329	0.931389	-0.179062	-0.180422	-0.052526	27.7796	-0.177644	-55.627	0.000944	NaN
55	1.000000	0.942766	7.36559e+06	-41389.1	955.817	-29787	0.000000	0.000000	6.943125	0.003333	NaN	0.000000	0.001586	0.001724	28.1278	0.098339	0.001943	50.6054	-177.724	-166.825	-0.013740	0.941412	-0.169045	-0.170399	0.003333	50.6054	-0.169094	-39.6162	-8.412634E-5	NaN
55	1.000000	0.952786	7.36559e+06	-41389.1	955.818	-29787	0.000000	0.000000	6.953145	0.006787	NaN	0.000000	0.001558	0.001745	28.0884	0.031234	0.002109	14.8087	89.0334	14.4548	-0.028396	0.951369	-0.159025	-0.160442	0.006787	14.8087	-0.159369	-26.7156	-0.000254	NaN
55	1.000000	0.962725	7.36559e+06	-41389.1	955.819	-29787	0.000000	0.000000	6.963081	-0.082621	NaN	0.000000	0.001564	0.001741	28.0806	0.115308	0.001879	61.3825	-162.588	-165.201	-0.002171	0.961499	-0.149086	-0.150312	-0.082621	61.3825	-0.148077	-16.7044	0.004946	NaN
55	1.000000	0.972795	7.36559e+06	-41389.1	955.819	-29787	0.000000	0.000000	6.973153	-0.029685	NaN	0.000000	0.001559	0.001717	28.1081	0.062173	0.002056	30.2394	71.8679	15.8792	-0.029451	0.971374	-0.139016	-0.140437	-0.029685	30.2394	-0.138280	-10.9792	0.002704	NaN
55	1.000000	0.982771	7.36559e+06	-41389.1	955.818	-29787	0.000000	0.000000	6.983128	-0.060512	NaN	0.000000	0.001546	0.001764	28.1265	0.101873	0.002053	49.6102	-86.8226	-164.825	-0.127436	0.981516	-0.129040	-0.130295	-0.060512	49.6102	-0.128125	-7.006064	0.008637	NaN
55	1.000000	0.992793	7.36559e+06	-41389.1	955.819	-29787	0.000000	0.000000	6.993155	0.062849	NaN	0.000000	0.001536	0.001733	28.086	0.063061	0.001960	32.176	32.4774	12.2061	0.018733	0.991382	-0.119018	-0.120429	0.062849	32.176	-0.120483	-4.941011	-0.012720	NaN
55	1.000000	1.002803	7.36559e+06	-41389.1	955.819	-29787	0.000000	0.000000	7.003161	-0.026957	NaN	0.000000	0.001569	0.001726	28.0795	0.065170	0.001962	33.221	174.425	-163.319	-0.047167	1.001458	-0.109009	-0.110353	-0.026957	33.221	-0.108400	-2.779758	0.009698	NaN
55	1.000000	1.012797	7.36559e+06	-41389.1	955.819	-29787	0.000000	0.000000	7.013158	0.049709	NaN	0.000000	0.001545	0.001742	28.1091	0.060584	0.002016	30.0588	126.703	15.6142	-0.020574	1.011463	-0.099014	-0.100348	0.049709	30.0588	-0.100254	-1.851011	-0.026855	NaN
55	1.000000	1.022800	7.36559e+06	-41389.1	955.818	-29787	0.000000	0.000000	7.023159	0.002483	NaN	0.000000	0.001538	0.001757	28.1271	0.094423	0.001977	47.749	146.61	-165.631	-0.047715	1.021480	-0.089011	-0.090331	0.002483	47.749	-0.089050	-1.026748	-0.002418	NaN
55	1.000000	1.032815	7.36559e+06	-41389.1	955.818	-29787	0.000000	0.000000	7.033171	-0.074355	NaN	0.000000	0.001550	0.001752	28.0873	0.116830	0.002078	56.2141	64.5748	15.1765	-0.044119	1.031471	-0.078996	-0.080340	-0.074355	56.2141	-0.078004	-0.551378	0.134854	NaN
55	1.000000	1.042785	7.36559e+06	-41389.1	955.818	-29787	0.000000	0.000000	7.043144	-0.027826	NaN	0.000000	0.001562	0.001736	28.0802	0.050994	0.002046	24.9218	-145.574	-163.919	0.005682	1.041499	-0.069026	-0.070312	-0.027826	24.9218	-0.068188	-0.304822	0.091286	NaN
55	1.000000	1.052802	7.36559e+06	-41389.1	955.818	-29787	0.000000	0.000000	7.053161	0.008723	NaN	0.000000	0.001572	0.001775	28.108	0.121582	0.001947	62.4482	-101.635	11.9957	0.075966	1.051473	-0.059009	-0.060339	0.008723	62.4482	-0.059114	-0.169831	-0.051365	NaN
55	1.000000	1.062800	7.36559e+06	-41389.1	955.819	-29787	0.000000	0.000000	7.063157	-0.063016	NaN	0.000000	0.001573	0.001753	28.1267	0.050813	0.002056	24.7162	-149.25	-168.789	-0.052835	1.061483	-0.049011	-0.050328	-0.063016	24.7162	-0.047099	-0.074489	0.845973	NaN
55	1.000000	1.072841	7.36559e+06	-41389.1	955.818	-29787	0.000000	0.000000	7.073200	0.009554	NaN	0.000000	0.001522	0.001785	28.0881	0.032086	0.002023	15.8589	121.465	13.2154	0.053510	1.071407	-0.038970	-0.040404	0.009554	15.8589	-0.039422	-0.043433	-0.219973	NaN
55	1.000000	1.082846	7.36559e+06	-41389.1	955.818	-29787	0.000000	0.000000	7.083203	-0.055706	NaN	0.000000	0.001545	0.001761	28.0818	0.037917	0.001977	19.1754	40.6244	-162.737	-0.052364	1.081526	-0.028965	-0.030285	-0.055706	19.1754	-0.026786	-0.018806	2.962228	NaN
55	1.000000	1.092847	7.36559e+06	-41389.1	955.819	-29787	0.000000	0.000000	7.093206	-0.016895	NaN	0.000000	0.001513	0.001767	28.1099	0.049461	0.002027	24.4045	-27.2723	16.5098	-0.026372	1.091498	-0.018964	-0.020313	-0.016895	24.4045	-0.018445	-0.011462	1.473991	NaN
55	1.000000	1.102822	7.36559e+06	-41389.1	955.819	-29787	0.000000	0.000000	7.103181	-0.004751	NaN	0.000000	0.001516	0.001789	28.129	0.099089	0.001875	52.855	121.4	-164.672	-0.018412	1.101502	-0.008989	-0.010309	-0.004751	52.855	-0.008921	-0.005767	0.823826	NaN
55	1.000000	1.112798	7.36559e+06	-41389.1	955.818	-29787	0.000000	0.000000	7.113160	0.058965	NaN	0.000000	0.001541	0.001754	28.0898	0.183036	0.001920	95.3267	-4.997295	17.9215	-0.022607	1.111476	0.000987	-0.000335	0.058965	95.3267	0.000523	0.000395	149.289	4382.33
55	1.000000	1.122724	7.36559e+06	-41389.1	955.819	-29787	0.000000	0.000000	7.123370	6.972007	NaN	0.000000	0.001561	0.001717	28.0804	7.425215	0.001780	4171.97	9.609816	-168.279	5.325228	1.121477	0.010913	0.009666	6.972007	4171.97	0.009660	0.008806	791.726	40618.4
55	2.000000	1.126010	7.36559e+06	-41389.1	955.818	-29787	0.000000	0.000000	7.126801	10.5013	NaN	0.000000	0.001559	0.001700	28.1091	10.6218	0.001746	6081.95	10.1331	5.016120	10.0251	1.125594	0.014199	0.013783	10.5013	6081.95	0.012904	0.012591	834.006	49519.7
55	2.000000	1.128435	7.36559e+06	-41389.1	955.818	-29787	0.000000	0.000000	7.129420	15.2203	NaN	0.000000	0.001549	0.001725	28.1281	13.29	0.001726	7701.52	5.160106	-173.105	15.0191	1.128181	0.016624	0.016369	15.2203	7701.52	0.015141	0.015474	983.574	56564.3
55	2.000000	1.130948	7.36559e+06	-41389.1	955.819	-29787	0.000000	0.000000	7.131972	16.1888	NaN	0.000000	0.001563	0.001724	28.0887	15.4767	0.001785	8671.12	4.978706	6.319322	15.2938	1.130635	0.019137	0.018824	16.1888	8671.12	0.017737	0.019110	847.153	57309
55	2.000000	1.133453	7.36559e+06	-41389.1	955.819	-29787	0.000000	0.000000	7.134735	22.4544	NaN	0.000000	0.001546	0.001688	28.0812	18.5959	0.001696	10966.9	3.727393	-172.201	24.8776	1.133149	0.021642	0.021338	22.4544	10966.9	0.020106	0.022709	988.784	66490.4
55	2.000000	1.135933	7.36559e+06	-41389.1	955.819	-29787	0.000000	0.000000	7.137407	27.1295	NaN	0.000000	0.001542	0.001738	28.11	20.7141	0.001725	12011.4	4.932771	5.260319	25.441	1.135475	0.024122	0.023664	27.1295	12011.4	0.022428	0.026502	1023.69	67410.7
55	2.000000	1.138401	7.36559e+06	-41389.1	955.819	-29787	0.000000	0.000000	7.140012	30.4438	NaN	0.000000	0.001602	0.001747	28.1296	23.0162	0.001786	12887.6	4.349917	-176.36	31.665	1.138177	0.026590	0.026366	30.4438	12887.6	0.024818	0.030686	992.104	67216.3
55	2.000000	1.140849	7.36559e+06	-41389.1	955.821	-29787	0.000000	0.000000	7.142830	39.4484	NaN	0.000000	0.001644	0.001707	28.0897	25.6817	0.001863	13785.6	5.562265	3.406714	37.4521	1.140485	0.029038	0.028674	39.4484	13785.6	0.026892	0.034548	1141.84	67761.9
55	2.000000	1.143360	7.36559e+06	-41389.1	955.821	-29787	0.000000	0.000000	7.145506	43.4915	NaN	0.000000	0.001613	0.001752	28.0793	28.0377	0.001756	15965.5	2.602571	-174.052	41.7269	1.143076	0.031548	0.031265	43.4915	15965.5	0.029505	0.039725	1094.82	73185.3
55	2.000000	1.145860	7.36559e+06	-41389.1	955.819	-29787	0.000000	0.000000	7.148358	52.0404	NaN	0.000000	0.001569	0.001724	28.1073	30.1041	0.001647	18274	6.086159	-0.350661	49.7645	1.145515	0.034049	0.033704	52.0404	18274	0.031913	0.044803	1161.54	78877.7
55	2.000000	1.148316	7.36559e+06	-41389.1	955.819	-29787	0.000000	0.000000	7.151154	60.3131	NaN	0.000000	0.001581	0.001687	28.1269	32.9399	0.001713	19227.7	5.393171	179.882	58.4784	1.147980	0.036505	0.036169	60.3131	19227.7	0.034153	0.049791	1211.32	78727.1
55	2.000000	1.150838	7.36559e+06	-41389.1	955.82	-29787	0.000000	0.000000	7.153897	65.6883	NaN	0.000000	0.001596	0.001707	28.0881	35.5583	0.001751	20305.1	6.511955	-3.366435	62.0371	1.150478	0.039027	0.038667	65.6883	20305.1	0.036601	0.055540	1182.73	78718.6
55	2.000000	1.153306	7.36559e+06	-41389.1	955.82	-29787	0.000000	0.000000	7.156750	75.0501	NaN	0.000000	0.001601	0.001696	28.0811	37.6187	0.001787	21054.1	1.977716	-178.254	72.2827	1.153089	0.041495	0.041278	75.0501	21054.1	0.038822	0.061019	1229.95	77871.3
55	2.000000	1.155851	7.36559e+06	-41389.1	955.819	-29787	0.000000	0.000000	7.159798	87.284	NaN	0.000000	0.001533	0.001693	28.1072	39.8958	0.001828	21829	6.800622	-1.372188	85.7251	1.155487	0.044040	0.043676	87.284	21829	0.041041	0.066747	1307.68	77195.3
55	2.000000	1.158334	7.36559e+06	-41389.1	955.819	-29787	0.000000	0.000000	7.162734	98.3328	NaN	0.000000	0.001539	0.001731	28.1279	40.9558	0.001770	23141.1	4.100524	-179.651	96.9463	1.157967	0.046523	0.046156	98.3328	23141.1	0.043336	0.072933	1348.26	78287.9
55	2.000000	1.160853	7.36559e+06	-41389.1	955.82	-29787	0.000000	0.000000	7.165450	103.11	NaN	0.000000	0.001554	0.001729	28.0901	44.1995	0.001815	24357	3.080623	-0.442260	100.971	1.160489	0.049042	0.048678	103.11	24357	0.045867	0.080067	1287.8	78644.8
55	2.000000	1.163311	7.36559e+06	-41389.1	955.82	-29787	0.000000	0.000000	7.168496	117.425	NaN	0.000000	0.001543	0.001723	28.0796	46.7101	0.001810	25811.8	0.508689	-177.617	115.234	1.163059	0.051500	0.051247	117.425	25811.8	0.048088	0.086594	1356.04	80139.6
55	2.000000	1.165849	7.36559e+06	-41389.1	955.819	-29787	0.000000	0.000000	7.171621	131.698	NaN	0.000000	0.001480	0.001723	28.1067	49.1754	0.001869	26308.9	4.742812	-1.912089	128.814	1.165515	0.054038	0.053704	131.698	26308.9	0.050284	0.093293	1411.66	78696.1
55	2.000000	1.168407	7.36559e+06	-41389.1	955.819	-29787	0.000000	0.000000	7.174504	139.619	NaN	0.000000	0.001513	0.001708	28.127	51.6342	0.001816	28439	3.544953	178.646	142.452	1.168038	0.056596	0.056227	139.619	28439	0.052913	0.101631	1373.79	81503.1
55	2.000000	1.170817	7.36559e+06	-41389.1	955.819	-29787	0.000000	0.000000	7.177603	156.373	NaN	0.000000	0.001507	0.001710	28.0882	54.1446	0.001870	28950.9	7.539014	-4.744655	155.005	1.170387	0.059006	0.058576	156.373	28950.9	0.054955	0.108342	1443.33	80359.4
55	2.000000	1.173363	7.36559e+06	-41389.1	955.82	-29787	0.000000	0.000000	7.180441	163.482	NaN	0.000000	0.001583	0.001745	28.0795	56.4463	0.001801	31340.1	8.819068	171.96	164.92	1.173053	0.061552	0.061242	163.482	31340.1	0.057640	0.117481	1391.56	83539
55	2.000000	1.175798	7.36559e+06	-41389.1	955.82	-29787	0.000000	0.000000	7.183564	180.228	NaN	0.000000	0.001549	0.001739	28.1067	57.0009	0.001785	31940.4	4.694381	-2.900056	176.433	1.175526	0.063987	0.063715	180.228	31940.4	0.059755	0.124931	1442.62	82561.7
55	2.000000	1.178416	7.36559e+06	-41389.1	955.82	-29787	0.000000	0.000000	7.186575	189.795	NaN	0.000000	0.001572	0.001673	28.1295	59.6836	0.001703	35055.9	5.848302	174.527	195.68	1.178075	0.066605	0.066264	189.795	35055.9	0.062544	0.135089	1404.97	87141.4
55	2.000000	1.180726	7.36559e+06	-41389.1	955.819	-29787	0.000000	0.000000	7.189610	207.409	NaN	0.000000	0.001571	0.001721	28.091	62.3862	0.001782	35011.3	5.334981	-5.571934	200.935	1.180503	0.068915	0.068692	207.409	35011.3	0.064472	0.142332	1457.21	84787.1
55	2.000000	1.183287	7.36559e+06	-41389.1	955.82	-29787	0.000000	0.000000	7.192900	225.165	NaN	0.000000	0.001605	0.001721	28.0805	66.1473	0.001873	35311.8	7.156818	173.351	223.603	1.183027	0.071476	0.071216	225.165	35311.8	0.066693	0.150897	1492.18	83052.5
55	2.000000	1.185861	7.36559e+06	-41389.1	955.819	-29787	0.000000	0.000000	7.195858	234.511	NaN	0.000000	0.001574	0.001719	28.1071	67.579	0.001824	37050.3	4.475104	-4.509346	233.727	1.185587	0.074050	0.073776	234.511	37050.3	0.069303	0.161264	1454.21	84293.9
55	2.000000	1.188357	7.36559e+06	-41389.1	955.819	-29787	0.000000	0.000000	7.199232	255.883	NaN	0.000000	0.001588	0.001739	28.1289	69.1447	0.001660	41657.4	4.103250	174.879	258.182	1.188026	0.076546	0.076215	255.883	41657.4	0.071939	0.172065	1487.13	91752.8
55	2.000000	1.190763	7.36559e+06	-41389.1	955.819	-29787	0.000000	0.000000	7.202253	270.828	NaN	0.000000	0.001581	0.001729	28.0901	73.662	0.001783	41318.3	4.952717	-5.756612	266.762	1.190432	0.078952	0.078621	270.828	41318.3	0.074036	0.180892	1497.19	88757.8
55	2.000000	1.193246	7.36559e+06	-41389.1	955.819	-29787	0.000000	0.000000	7.205455	288.34	NaN	0.000000	0.001592	0.001713	28.0824	76.388	0.001806	42298.2	2.828570	175.556	284.314	1.193039	0.081435	0.081228	288.34	42298.2	0.076322	0.190751	1511.6	88483.4
55	2.000000	1.195785	7.36559e+06	-41389.1	955.82	-29787	0.000000	0.000000	7.208908	310.554	NaN	0.000000	0.001555	0.001718	28.108	78.2269	0.001720	45488.1	3.134010	-5.222233	304.657	1.195456	0.083974	0.083645	310.554	45488.1	0.078854	0.201958	1537.72	92478.6
55	2.000000	1.198277	7.36559e+06	-41389.1	955.82	-29787	0.000000	0.000000	7.212319	332.926	NaN	0.000000	0.001560	0.001750	28.1303	80.3467	0.001767	45464	1.449671	176.879	331.37	1.198000	0.086466	0.086189	332.926	45464	0.080974	0.211570	1573.6	90305.5
55	2.000000	1.200765	7.36559e+06	-41389.1	955.82	-29787	0.000000	0.000000	7.215625	352.832	NaN	0.000000	0.001552	0.001743	28.0915	83.5895	0.001818	45970.7	5.652241	-7.271465	349.107	1.200312	0.088954	0.088501	352.832	45970.7	0.083197	0.221878	1590.21	89165.5
55	2.000000	1.203212	7.36559e+06	-41389.1	955.819	-29787	0.000000	0.000000	7.218838	371.473	NaN	0.000000	0.001582	0.001703	28.0802	85.5228	0.001787	47868.2	3.069214	174.609	365.747	1.202950	0.091401	0.091139	371.473	47868.2	0.085581	0.233181	1593.06	90567.8
55	2.000000	1.205733	7.36559e+06	-41389.1	955.82	-29787	0.000000	0.000000	7.221911	384.91	NaN	0.000000	0.001560	0.001743	28.1063	87.6815	0.001824	48061.8	5.712303	-7.946361	379.337	1.205377	0.093922	0.093566	384.91	48061.8	0.087916	0.244506	1574.24	88803.3
55	2.000000	1.208248	7.36559e+06	-41389.1	955.82	-29787	0.000000	0.000000	7.225599	413.452	NaN	0.000000	0.001553	0.001738	28.129	87.3701	0.001780	49096.4	2.260912	175.055	410.784	1.207946	0.096437	0.096135	413.452	49096.4	0.090121	0.255434	1618.63	88753
55	2.000000	1.210760	7.36559e+06	-41389.1	955.819	-29787	0.000000	0.000000	7.228578	424.803	NaN	0.000000	0.001613	0.001727	28.0897	92.3655	0.001768	52232.8	6.757205	-9.459750	422.008	1.210423	0.098949	0.098612	424.803	52232.8	0.092850	0.269265	1577.64	91965.8
55	2.000000	1.213190	7.36559e+06	-41389.1	955.82	-29787	0.000000	0.000000	7.231728	442.333	NaN	0.000000	0.001579	0.001761	28.08	94.1565	0.001729	54462.1	2.854775	174.033	437.081	1.212992	0.101379	0.101181	442.333	54462.1	0.095288	0.281911	1569.05	93715.5
55	2.000000	1.215739	7.36559e+06	-41389.1	955.82	-29787	0.000000	0.000000	7.235130	463.088	NaN	0.000000	0.001581	0.001766	28.1064	95.4221	0.001768	53967.2	1.799357	-4.809636	458.255	1.215513	0.103928	0.103702	463.088	53967.2	0.097493	0.293579	1577.39	90999.8
55	2.000000	1.218224	7.36559e+06	-41389.1	955.821	-29787	0.000000	0.000000	7.238496	484.522	NaN	0.000000	0.001590	0.001765	28.1289	98.0643	0.001824	53776.8	1.974995	175.131	480.232	1.218011	0.106413	0.106200	484.522	53776.8	0.099656	0.305244	1587.32	88929.2
55	2.000000	1.220777	7.36559e+06	-41389.1	955.82	-29787	0.000000	0.000000	7.241875	504.604	NaN	0.000000	0.001583	0.001734	28.0899	101.373	0.001902	53286	4.749414	-7.524909	503.447	1.220574	0.108966	0.108763	504.604	53286	0.101864	0.317369	1589.96	86418
55	2.000000	1.222279	7.36559e+06	-41389.1	955.82	-29787	0.000000	0.000000	7.244135	523.069	NaN	0.000000	0.001562	0.001777	28.1289	102.202	0.001995	51240.1	6.666930	170.703	521.432	1.221924	0.110468	0.110113	523.069	51240.1	0.102812	0.322643	1621.2	82418