File: remote_trans/data/nanoindenter/0828-1/data/Data_2025-08-06,11h17m57s/2025-07-22_16-23-58_1_254.txt
2025-07-22, 16:23:58, 1
Index	Phase	Displacement	Time	Pos X	Pos Y	Pos Z	Rot A	Rot B	Piezo Z	Force A	Force B	Gripper	Voltage A	Voltage B	Temperature	Amplitude force	Amplitude pos	Stiffness	Phase shift	Phase excitation	Force A raw	Displacement raw	HMax	HMax raw	Real Force	Real Stiffness	Contact Depth	Area	Hardness	Reduced Mod.
[#]	[#]	[um]	[s]	[um]	[um]	[um]	[m°]	[m°]	[um]	[uN]	[uN]	[V]	[V]	[V]	[°C]	[uN]	[um]	[N/m]	[°]	[°]	[uN]	[um]	[um]	[um]	[uN]	[N/m]	[um]	[um^2]	[MPa]	[MPa]
254	1.000000	0.002560	7.36754e+06	-51339.1	955.82	-29752.9	0.000000	0.000000	6.002784	-0.044032	NaN	0.000000	0.001537	0.001694	28.0805	0.123180	0.000908	135.718	158.688	-164.653	0.032509	0.001320	-1.122067	-1.123307	-0.044032	135.718	-1.121824	-9.838685E+14	4.475357E-17	NaN
254	1.000000	0.012660	7.36754e+06	-51339.1	955.82	-29752.9	0.000000	0.000000	6.012882	-0.078842	NaN	0.000000	0.001602	0.001709	28.0805	0.076082	0.001266	60.0972	8.387123	20.6563	0.009692	0.011201	-1.111967	-1.113426	-0.078842	60.0972	-1.110983	-7.038554E+14	1.120147E-16	NaN
254	1.000000	0.022522	7.36754e+06	-51339.1	955.82	-29752.9	0.000000	0.000000	6.022749	0.038095	NaN	0.000000	0.001616	0.001635	28.0802	0.101368	0.001898	53.4182	-157.271	-165.189	0.058089	0.021244	-1.102105	-1.103383	0.038095	53.4182	-1.102640	-5.438843E+14	-7.004241E-17	NaN
254	1.000000	0.032518	7.36754e+06	-51339.1	955.819	-29752.9	0.000000	0.000000	6.032743	-0.017370	NaN	0.000000	0.001610	0.001669	28.0802	0.102702	0.001916	53.6027	-38.2845	15.4597	-0.028002	0.031171	-1.092109	-1.093456	-0.017370	53.6027	-1.091866	-3.898203E+14	4.455829E-17	NaN
254	1.000000	0.042522	7.36754e+06	-51339.1	955.819	-29752.9	0.000000	0.000000	6.042747	-0.019315	NaN	0.000000	0.001599	0.001638	28.0802	0.092909	0.001915	48.5285	151.392	-165.009	-0.011036	0.041277	-1.082105	-1.083350	-0.019315	48.5285	-1.081806	-2.856117E+14	6.762510E-17	NaN
254	1.000000	0.052532	7.36754e+06	-51339.1	955.82	-29752.9	0.000000	0.000000	6.052756	-0.036627	NaN	0.000000	0.001594	0.001647	28.0804	0.007813	0.002110	3.702426	100.683	15.3098	-0.019141	0.051219	-1.072095	-1.073408	-0.036627	3.702426	-1.064675	-1.681304E+14	2.178509E-16	NaN
254	1.000000	0.062510	7.36754e+06	-51339.1	955.819	-29752.9	0.000000	0.000000	6.062736	0.021769	NaN	0.000000	0.001599	0.001664	28.0803	0.080176	0.001983	40.431	-48.5821	-163.875	0.041813	0.061171	-1.062117	-1.063456	0.021769	40.431	-1.062521	-1.572880E+14	-1.384035E-16	NaN
254	1.000000	0.072524	7.36754e+06	-51339.1	955.818	-29752.9	0.000000	0.000000	6.072750	0.007945	NaN	0.000000	0.001585	0.001692	28.0805	0.111405	0.001783	62.4739	116.906	16.4854	0.036070	0.071139	-1.052103	-1.053488	0.007945	62.4739	-1.052199	-1.142792E+14	-6.952137E-17	NaN
254	1.000000	0.082527	7.36754e+06	-51339.1	955.819	-29752.9	0.000000	0.000000	6.082751	-0.036780	NaN	0.000000	0.001590	0.001638	28.0791	0.034227	0.002031	16.8562	62.9965	-166.101	-0.042118	0.081212	-1.042099	-1.043415	-0.036780	16.8562	-1.040463	-7.946811E+13	4.628289E-16	NaN
254	1.000000	0.092528	7.36754e+06	-51339.1	955.818	-29752.9	0.000000	0.000000	6.092755	0.031252	NaN	0.000000	0.001569	0.001646	28.079	0.070060	0.002032	34.4796	-68.3258	17.1102	0.029168	0.091199	-1.032099	-1.033428	0.031252	34.4796	-1.032778	-6.263991E+13	-4.989108E-16	NaN
254	1.000000	0.102539	7.36754e+06	-51339.1	955.819	-29752.9	0.000000	0.000000	6.102764	-0.012535	NaN	0.000000	0.001594	0.001663	28.0788	0.066935	0.001813	36.9281	-18.5534	-168.163	-0.033742	0.101276	-1.022088	-1.023351	-0.012535	36.9281	-1.021833	-4.462932E+13	2.808588E-16	NaN
254	1.000000	0.112541	7.36754e+06	-51339.1	955.819	-29752.9	0.000000	0.000000	6.112765	-0.045016	NaN	0.000000	0.001596	0.001683	28.0794	0.048615	0.002093	23.2231	112.176	17.0182	-0.016492	0.111211	-1.012085	-1.013416	-0.045016	23.2231	-1.010632	-3.154157E+13	1.427208E-15	NaN
254	1.000000	0.122549	7.36754e+06	-51339.1	955.817	-29752.9	0.000000	0.000000	6.122774	-0.021383	NaN	0.000000	0.001597	0.001698	28.0792	0.060624	0.002023	29.9659	158.399	-162.379	-0.069441	0.121254	-1.002078	-1.003373	-0.021383	29.9659	-1.001542	-2.379769E+13	8.985411E-16	NaN
254	1.000000	0.132563	7.36754e+06	-51339.1	955.819	-29752.9	0.000000	0.000000	6.132791	0.054621	NaN	0.000000	0.001591	0.001700	28.0792	0.066143	0.002099	31.5142	170.202	16.1295	0.025518	0.131234	-0.992064	-0.993393	0.054621	31.5142	-0.993364	-1.846778E+13	-2.957626E-15	NaN
254	1.000000	0.142541	7.36754e+06	-51339.1	955.819	-29752.9	0.000000	0.000000	6.142766	-0.029261	NaN	0.000000	0.001556	0.001693	28.0791	0.053089	0.002158	24.6032	17.7124	-163.454	-0.073614	0.141298	-0.982086	-0.983329	-0.029261	24.6032	-0.981194	-1.266168E+13	2.311002E-15	NaN
254	1.000000	0.152548	7.36754e+06	-51339.1	955.818	-29752.9	0.000000	0.000000	6.152772	-0.030445	NaN	0.000000	0.001571	0.001672	28.0793	0.063435	0.001945	32.6212	57.0758	12.6657	-0.039368	0.151202	-0.972079	-0.973425	-0.030445	32.6212	-0.971379	-9.337932E+12	3.260308E-15	NaN
254	1.000000	0.162554	7.36754e+06	-51339.1	955.818	-29752.9	0.000000	0.000000	6.162781	0.044552	NaN	0.000000	0.001577	0.001649	28.0789	0.090905	0.001983	45.8454	84.229	-165.763	0.079734	0.161270	-0.962073	-0.963357	0.044552	45.8454	-0.962802	-7.155592E+12	-6.226243E-15	NaN
254	1.000000	0.172613	7.36754e+06	-51339.1	955.819	-29752.9	0.000000	0.000000	6.172838	0.001298	NaN	0.000000	0.001600	0.001696	28.0788	0.064299	0.001969	32.6531	-117.124	12.9866	-0.002812	0.171196	-0.952014	-0.953431	0.001298	32.6531	-0.952044	-5.123842E+12	-2.533536E-16	NaN
254	1.000000	0.182565	7.36754e+06	-51339.1	955.818	-29752.9	0.000000	0.000000	6.182789	-0.045450	NaN	0.000000	0.001562	0.001689	28.0787	0.083530	0.001976	42.2758	82.0282	-164.033	-0.033356	0.181267	-0.942062	-0.943360	-0.045450	42.2758	-0.941255	-3.664977E+12	1.240123E-14	NaN
254	1.000000	0.192574	7.36754e+06	-51339.1	955.817	-29752.9	0.000000	0.000000	6.192802	0.058305	NaN	0.000000	0.001583	0.001670	28.0792	0.028675	0.001981	14.4732	103.611	15.0381	0.077907	0.191210	-0.932053	-0.933417	0.058305	14.4732	-0.935075	-3.024689E+12	-1.927637E-14	NaN
254	1.000000	0.202591	7.36754e+06	-51339.1	955.818	-29752.9	0.000000	0.000000	6.202817	0.014899	NaN	0.000000	0.001509	0.001697	28.0788	0.015778	0.002193	7.195828	67.1742	-168.674	0.108503	0.201297	-0.922036	-0.923330	0.014899	7.195828	-0.923589	-2.116675E+12	-7.038823E-15	NaN
254	1.000000	0.212615	7.36754e+06	-51339.1	955.818	-29752.9	0.000000	0.000000	6.212839	-0.043613	NaN	0.000000	0.001544	0.001731	28.079	0.084705	0.001958	43.2599	-101.997	12.8851	-0.084579	0.211221	-0.912012	-0.913405	-0.043613	43.2599	-0.911256	-1.442521E+12	3.023388E-14	NaN
254	1.000000	0.222593	7.36754e+06	-51339.1	955.819	-29752.9	0.000000	0.000000	6.222819	0.019930	NaN	0.000000	0.001529	0.001726	28.0802	0.044860	0.001965	22.8336	106.807	-164.575	0.043411	0.221249	-0.902034	-0.903378	0.019930	22.8336	-0.902689	-1.105080E+12	-1.803445E-14	NaN
254	1.000000	0.232571	7.36754e+06	-51339.1	955.818	-29752.9	0.000000	0.000000	6.232794	-0.052513	NaN	0.000000	0.001537	0.001718	28.0809	0.111874	0.002003	55.8609	39.1104	14.0394	0.008548	0.231267	-0.892056	-0.893360	-0.052513	55.8609	-0.891351	-7.765733E+11	6.762173E-14	NaN
254	1.000000	0.242609	7.36754e+06	-51339.1	955.818	-29752.9	0.000000	0.000000	6.242837	0.052483	NaN	0.000000	0.001580	0.001658	28.0802	0.080190	0.001996	40.1782	-124.764	-165.452	0.059135	0.241285	-0.882018	-0.883342	0.052483	40.1782	-0.882998	-5.987496E+11	-8.765426E-14	NaN
254	1.000000	0.252587	7.36754e+06	-51339.1	955.818	-29752.9	0.000000	0.000000	6.252812	-0.009432	NaN	0.000000	0.001546	0.001698	28.0804	0.033236	0.001961	16.9462	79.0111	16.5567	0.029398	0.251164	-0.872040	-0.873463	-0.009432	16.9462	-0.871622	-4.201353E+11	2.244949E-14	NaN
254	1.000000	0.262582	7.36754e+06	-51339.1	955.818	-29752.9	0.000000	0.000000	6.262809	0.048685	NaN	0.000000	0.001543	0.001672	28.0804	0.015791	0.001905	8.288939	-61.4059	-167.033	0.040236	0.261369	-0.862045	-0.863258	0.048685	8.288939	-0.866450	-3.576156E+11	-1.361385E-13	NaN
254	1.000000	0.272605	7.36754e+06	-51339.1	955.818	-29752.9	0.000000	0.000000	6.272831	0.005023	NaN	0.000000	0.001565	0.001669	28.0804	0.062190	0.001967	31.6172	-49.9435	11.4915	0.050427	0.271275	-0.852022	-0.853352	0.005023	31.6172	-0.852141	-2.289428E+11	-2.194213E-14	NaN
254	1.000000	0.282606	7.36754e+06	-51339.1	955.819	-29752.9	0.000000	0.000000	6.282830	-0.024049	NaN	0.000000	0.001548	0.001687	28.0805	0.152568	0.001836	83.1082	100.497	-169.866	-0.029923	0.281304	-0.842021	-0.843323	-0.024049	83.1082	-0.841804	-1.658575E+11	1.449991E-13	NaN
254	1.000000	0.292653	7.36754e+06	-51339.1	955.818	-29752.9	0.000000	0.000000	6.292879	0.003911	NaN	0.000000	0.001564	0.001688	28.0804	0.085194	0.001997	42.6586	-96.3303	15.9963	0.064726	0.291290	-0.831973	-0.833337	0.003911	42.6586	-0.832042	-1.223104E+11	-3.197871E-14	NaN
254	1.000000	0.302637	7.36754e+06	-51339.1	955.82	-29752.9	0.000000	0.000000	6.302859	-0.072617	NaN	0.000000	0.001561	0.001654	28.0811	0.021942	0.002079	10.555	61.8696	-170.044	0.029890	0.301334	-0.821990	-0.823293	-0.072617	10.555	-0.816830	-7.607241E+10	9.545810E-13	NaN
254	1.000000	0.312622	7.36754e+06	-51339.1	955.819	-29752.9	0.000000	0.000000	6.312847	0.004738	NaN	0.000000	0.001612	0.001737	28.0804	0.099224	0.001921	51.6575	10.7097	15.9865	0.066528	0.311243	-0.812005	-0.813384	0.004738	51.6575	-0.812074	-6.557081E+10	-7.225627E-14	NaN
254	1.000000	0.322627	7.36754e+06	-51339.1	955.819	-29752.9	0.000000	0.000000	6.322854	0.026207	NaN	0.000000	0.001582	0.001714	28.0805	0.094805	0.002112	44.8982	100.429	-167.216	0.097713	0.321317	-0.802000	-0.803310	0.026207	44.8982	-0.802438	-4.852312E+10	-5.400841E-13	NaN
254	1.000000	0.332610	7.36754e+06	-51339.1	955.819	-29752.9	0.000000	0.000000	6.332835	-0.009490	NaN	0.000000	0.001547	0.001728	28.0803	0.129990	0.002135	60.8754	5.208497	12.8348	-0.004784	0.331263	-0.792017	-0.793364	-0.009490	60.8754	-0.791900	-3.490525E+10	2.718874E-13	NaN
254	1.000000	0.342651	7.36754e+06	-51339.1	955.818	-29752.9	0.000000	0.000000	6.342878	0.019578	NaN	0.000000	0.001604	0.001684	28.0807	0.055390	0.001920	28.8559	-43.5902	-164.313	0.021703	0.341388	-0.781976	-0.783239	0.019578	28.8559	-0.782484	-2.600101E+10	-7.529519E-13	NaN
254	1.000000	0.352625	7.36754e+06	-51339.1	955.819	-29752.9	0.000000	0.000000	6.352851	0.004662	NaN	0.000000	0.001623	0.001677	28.0792	0.096451	0.001995	48.3492	-166.974	16.1987	0.066657	0.351293	-0.772002	-0.773334	0.004662	48.3492	-0.772074	-1.877165E+10	-2.483636E-13	NaN
254	1.000000	0.362664	7.36754e+06	-51339.1	955.819	-29752.9	0.000000	0.000000	6.362891	0.022344	NaN	0.000000	0.001653	0.001681	28.079	0.030194	0.001974	15.295	-112.385	-166.496	0.027078	0.361329	-0.761963	-0.763298	0.022344	15.295	-0.763058	-1.415485E+10	-1.578509E-12	NaN
254	1.000000	0.372684	7.36754e+06	-51339.1	955.819	-29752.9	0.000000	0.000000	6.372912	0.066948	NaN	0.000000	0.001654	0.001664	28.0792	0.002992	0.002147	1.393779	154.603	15.9007	0.007882	0.371384	-0.751943	-0.753243	0.066948	1.393779	-0.787968	-3.086641E+10	-2.168967E-12	NaN
254	1.000000	0.382642	7.36754e+06	-51339.1	955.818	-29752.9	0.000000	0.000000	6.382865	-0.056035	NaN	0.000000	0.001628	0.001685	28.0792	0.048234	0.002186	22.066	129.634	-168.293	-0.068508	0.381381	-0.741985	-0.743246	-0.056035	22.066	-0.740080	-6.888920E+9	8.134135E-12	NaN
254	1.000000	0.392647	7.36754e+06	-51339.1	955.819	-29752.9	0.000000	0.000000	6.392872	-0.018733	NaN	0.000000	0.001588	0.001664	28.0792	0.040798	0.001960	20.8181	53.1874	13.7867	0.064696	0.391276	-0.731980	-0.733351	-0.018733	20.8181	-0.731305	-5.231090E+9	3.581181E-12	NaN
254	1.000000	0.402685	7.36754e+06	-51339.1	955.818	-29752.9	0.000000	0.000000	6.402907	-0.091218	NaN	0.000000	0.001569	0.001705	28.0792	0.110976	0.001889	58.7516	165.174	-166.315	0.006864	0.401350	-0.721942	-0.723277	-0.091218	58.7516	-0.720777	-3.759020E+9	2.426631E-11	NaN
254	1.000000	0.412652	7.36754e+06	-51339.1	955.819	-29752.9	0.000000	0.000000	6.412880	0.061045	NaN	0.000000	0.001546	0.001676	28.0794	0.086806	0.002019	42.9947	67.7995	14.1798	0.063997	0.411295	-0.711974	-0.713332	0.061045	42.9947	-0.713039	-2.947961E+9	-2.070746E-11	NaN
254	1.000000	0.422669	7.36754e+06	-51339.1	955.818	-29752.9	0.000000	0.000000	6.422895	0.011202	NaN	0.000000	0.001561	0.001715	28.079	0.049656	0.002047	24.2532	-100.413	-161.737	0.031857	0.421388	-0.701958	-0.703239	0.011202	24.2532	-0.702304	-2.103740E+9	-5.324644E-12	NaN
254	1.000000	0.432701	7.36754e+06	-51339.1	955.819	-29752.9	0.000000	0.000000	6.432922	-0.092531	NaN	0.000000	0.001545	0.001663	28.0789	0.109769	0.002052	53.503	108.594	14.8267	-0.007997	0.431343	-0.691926	-0.693284	-0.092531	53.503	-0.690629	-1.457184E+9	6.349997E-11	NaN
254	1.000000	0.442704	7.36754e+06	-51339.1	955.818	-29752.9	0.000000	0.000000	6.442928	-0.035439	NaN	0.000000	0.001586	0.001679	28.0791	0.026322	0.001976	13.318	-6.920305	-166.838	0.000456	0.441395	-0.681923	-0.683232	-0.035439	13.318	-0.679927	-1.040419E+9	3.406226E-11	NaN
254	1.000000	0.452685	7.36754e+06	-51339.1	955.819	-29752.9	0.000000	0.000000	6.452908	-0.053549	NaN	0.000000	0.001534	0.001678	28.0792	0.088273	0.001986	44.4422	-31.3793	13.8885	-0.041635	0.451349	-0.671942	-0.673278	-0.053549	44.4422	-0.671039	-7.863319E+8	6.809942E-11	NaN
254	1.000000	0.462707	7.36754e+06	-51339.1	955.818	-29752.9	0.000000	0.000000	6.462933	0.015465	NaN	0.000000	0.001557	0.001689	28.079	0.007751	0.001898	4.082890	-79.6967	-162.084	-0.006250	0.461398	-0.661920	-0.663229	0.015465	4.082890	-0.664761	-6.451600E+8	-2.397038E-11	NaN
254	1.000000	0.472698	7.36754e+06	-51339.1	955.819	-29752.9	0.000000	0.000000	6.472926	0.042147	NaN	0.000000	0.001552	0.001679	28.0787	0.154821	0.001965	78.7781	-35.5255	9.697681	-0.053808	0.471349	-0.651928	-0.653278	0.042147	78.7781	-0.652330	-4.358846E+8	-9.669338E-11	NaN
254	1.000000	0.482702	7.36754e+06	-51339.1	955.819	-29752.9	0.000000	0.000000	6.482929	0.021629	NaN	0.000000	0.001565	0.001731	28.079	0.011034	0.001917	5.754874	144.928	-164.885	0.018536	0.481404	-0.641925	-0.643223	0.021629	5.754874	-0.644743	-3.430499E+8	-6.304933E-11	NaN
254	1.000000	0.492697	7.36754e+06	-51339.1	955.82	-29752.9	0.000000	0.000000	6.492924	0.050293	NaN	0.000000	0.001528	0.001709	28.0802	0.090011	0.002022	44.5073	-161.701	12.6649	0.044130	0.491340	-0.631930	-0.633286	0.050293	44.5073	-0.632778	-2.350509E+8	-2.139683E-10	NaN
254	1.000000	0.502726	7.36754e+06	-51339.1	955.818	-29752.9	0.000000	0.000000	6.502952	0.008342	NaN	0.000000	0.001579	0.001694	28.0796	0.055512	0.001992	27.8691	-94.6481	-167.753	-0.037293	0.501419	-0.621901	-0.623208	0.008342	27.8691	-0.622125	-1.678200E+8	-4.970861E-11	NaN
254	1.000000	0.512707	7.36754e+06	-51339.1	955.819	-29752.9	0.000000	0.000000	6.512933	0.017918	NaN	0.000000	0.001549	0.001659	28.0801	0.096730	0.002057	47.0208	8.769866	13.4947	0.056085	0.511317	-0.611920	-0.613310	0.017918	47.0208	-0.612206	-1.225914E+8	-1.461573E-10	NaN
254	1.000000	0.522722	7.36754e+06	-51339.1	955.819	-29752.9	0.000000	0.000000	6.522948	0.013691	NaN	0.000000	0.001522	0.001696	28.0801	0.154386	0.001835	84.1474	10.3386	-163.692	0.028445	0.521368	-0.601905	-0.603259	0.013691	84.1474	-0.602027	-8.879228E+7	-1.541875E-10	NaN
254	1.000000	0.532704	7.36754e+06	-51339.1	955.819	-29752.9	0.000000	0.000000	6.532931	0.025871	NaN	0.000000	0.001557	0.001681	28.0802	0.023160	0.001943	11.921	-158.925	15.9032	0.058239	0.531387	-0.591923	-0.593240	0.025871	11.921	-0.593550	-6.785825E+7	-3.812533E-10	NaN
254	1.000000	0.542729	7.36754e+06	-51339.1	955.819	-29752.9	0.000000	0.000000	6.542955	0.028866	NaN	0.000000	0.001557	0.001710	28.0803	0.123182	0.002022	60.909	157.004	-164.651	-0.042621	0.541386	-0.581898	-0.583241	0.028866	60.909	-0.582254	-4.740517E+7	-6.089231E-10	NaN
254	1.000000	0.552748	7.36754e+06	-51339.1	955.819	-29752.9	0.000000	0.000000	6.552973	-0.001409	NaN	0.000000	0.001559	0.001689	28.0806	0.035923	0.002080	17.2725	-83.7788	15.7128	0.009910	0.551370	-0.571879	-0.573257	-0.001409	17.2725	-0.571818	-3.402124E+7	4.141666E-11	NaN
254	1.000000	0.562739	7.36754e+06	-51339.1	955.818	-29752.9	0.000000	0.000000	6.562960	-0.095131	NaN	0.000000	0.001542	0.001709	28.0805	0.089398	0.001889	47.33	124.949	-168.356	-0.077957	0.561479	-0.561888	-0.563148	-0.095131	47.33	-0.560381	-2.363974E+7	4.024212E-9	NaN
254	1.000000	0.572729	7.36754e+06	-51339.1	955.819	-29752.9	0.000000	0.000000	6.572955	0.008061	NaN	0.000000	0.001579	0.001700	28.0803	0.092593	0.002088	44.3403	-127.298	12.3261	-0.017952	0.571334	-0.551898	-0.553293	0.008061	44.3403	-0.552034	-1.811868E+7	-4.449185E-10	NaN
254	1.000000	0.582745	7.36754e+06	-51339.1	955.818	-29752.9	0.000000	0.000000	6.582971	-0.008887	NaN	0.000000	0.001574	0.001691	28.0804	0.071380	0.002168	32.9216	-127.612	-164.819	0.053435	0.581383	-0.541881	-0.543244	-0.008887	32.9216	-0.541679	-1.302090E+7	6.825163E-10	NaN
254	1.000000	0.592721	7.36754e+06	-51339.1	955.819	-29752.9	0.000000	0.000000	6.592949	0.051763	NaN	0.000000	0.001567	0.001740	28.0803	0.098342	0.001972	49.8748	-137.073	11.4252	0.028252	0.591418	-0.531906	-0.533209	0.051763	49.8748	-0.532684	-9.76887e+06	-5.298788E-9	NaN
254	1.000000	0.602764	7.36754e+06	-51339.1	955.819	-29752.9	0.000000	0.000000	6.602990	0.011656	NaN	0.000000	0.001554	0.001702	28.0808	0.125940	0.001981	63.5597	-100.769	-165.44	-0.028164	0.601438	-0.521863	-0.523189	0.011656	63.5597	-0.522001	-6.94096e+06	-1.679363E-9	NaN
254	1.000000	0.612751	7.36754e+06	-51339.1	955.818	-29752.9	0.000000	0.000000	6.612979	0.061772	NaN	0.000000	0.001516	0.001706	28.0807	0.108867	0.001909	57.0384	-93.6199	15.04	0.042531	0.611381	-0.511875	-0.513246	0.061772	57.0384	-0.512688	-5.15044e+06	-1.199361E-8	NaN
254	1.000000	0.622752	7.36754e+06	-51339.1	955.817	-29752.9	0.000000	0.000000	6.622979	0.032084	NaN	0.000000	0.001595	0.001707	28.0806	0.130629	0.001954	66.8565	89.7901	-165.311	0.032599	0.621424	-0.501875	-0.503203	0.032084	66.8565	-0.502234	-3.68286e+06	-8.711620E-9	NaN
254	1.000000	0.632752	7.36754e+06	-51339.1	955.819	-29752.9	0.000000	0.000000	6.632979	0.044655	NaN	0.000000	0.001641	0.001675	28.0793	0.049528	0.001961	25.2529	149.574	11.7324	-0.002303	0.631406	-0.491875	-0.493221	0.044655	25.2529	-0.493201	-2.75496e+06	-1.620899E-8	NaN
254	1.000000	0.642785	7.36754e+06	-51339.1	955.818	-29752.9	0.000000	0.000000	6.643009	-0.036290	NaN	0.000000	0.001596	0.001672	28.0792	0.193763	0.001912	101.344	-174.617	-166.672	0.004990	0.641429	-0.481842	-0.483198	-0.036290	101.344	-0.481573	-1.89475e+06	1.915312E-8	NaN
254	1.000000	0.652772	7.36754e+06	-51339.1	955.819	-29752.9	0.000000	0.000000	6.652997	-0.021977	NaN	0.000000	0.001551	0.001718	28.0794	0.084799	0.001956	43.3591	-102.305	10.7977	-0.071292	0.651443	-0.471855	-0.473183	-0.021977	43.3591	-0.471474	-1.36799e+06	1.606529E-8	NaN
254	1.000000	0.662772	7.36754e+06	-51339.1	955.819	-29752.9	0.000000	0.000000	6.663000	0.053706	NaN	0.000000	0.001533	0.001705	28.0795	0.135938	0.002052	66.2415	18.4737	-168.003	0.024685	0.661495	-0.461855	-0.463132	0.053706	66.2415	-0.462463	-1.02239e+06	-5.252977E-8	NaN
254	1.000000	0.672775	7.36754e+06	-51339.1	955.818	-29752.9	0.000000	0.000000	6.673004	0.088577	NaN	0.000000	0.001549	0.001740	28.0794	0.060463	0.002010	30.0756	90.221	11.7263	-0.020016	0.671410	-0.451852	-0.453217	0.088577	30.0756	-0.454061	-778939	-1.137148E-7	NaN
254	1.000000	0.682778	7.36754e+06	-51339.1	955.818	-29752.9	0.000000	0.000000	6.683004	0.003124	NaN	0.000000	0.001556	0.001697	28.0794	0.076245	0.001968	38.739	-32.6167	-167.241	-0.020937	0.681489	-0.441849	-0.443138	0.003124	38.739	-0.441910	-525180	-5.948586E-9	NaN
254	1.000000	0.692790	7.36754e+06	-51339.1	955.819	-29752.9	0.000000	0.000000	6.693013	-0.041668	NaN	0.000000	0.001589	0.001705	28.0794	0.047697	0.002033	23.4653	-97.178	14.3797	-0.049323	0.691462	-0.431837	-0.433165	-0.041668	23.4653	-0.430506	-362421	1.149723E-7	NaN
254	1.000000	0.702815	7.36754e+06	-51339.1	955.818	-29752.9	0.000000	0.000000	6.703040	-0.005684	NaN	0.000000	0.001597	0.001700	28.0793	0.065357	0.002093	31.2256	161.16	-167.144	-0.104688	0.701497	-0.421812	-0.423130	-0.005684	31.2256	-0.421676	-271754	2.091644E-8	NaN
254	1.000000	0.712829	7.36754e+06	-51339.1	955.817	-29752.9	0.000000	0.000000	6.713054	-0.011658	NaN	0.000000	0.001618	0.001702	28.0795	0.081506	0.002009	40.5756	-178.566	16.5662	-0.001143	0.711457	-0.411798	-0.413170	-0.011658	40.5756	-0.411582	-195386	5.966401E-8	NaN
254	1.000000	0.722796	7.36754e+06	-51339.1	955.819	-29752.9	0.000000	0.000000	6.723023	0.026166	NaN	0.000000	0.001611	0.001708	28.0793	0.059944	0.002004	29.9178	-147.264	-167.416	-0.048128	0.721510	-0.401831	-0.403117	0.026166	29.9178	-0.402487	-145027	-1.804226E-7	NaN
254	1.000000	0.732833	7.36754e+06	-51339.1	955.819	-29752.9	0.000000	0.000000	6.733056	-0.081761	NaN	0.000000	0.001579	0.001690	28.0791	0.065453	0.002018	32.4409	-164.523	15.011	0.023706	0.731450	-0.391794	-0.393177	-0.081761	32.4409	-0.389903	-95892.2	8.526399E-7	NaN
254	1.000000	0.742791	7.36754e+06	-51339.1	955.818	-29752.9	0.000000	0.000000	6.743020	0.077724	NaN	0.000000	0.001610	0.001683	28.0792	0.094645	0.002043	46.3346	110.345	-169.928	0.043087	0.741462	-0.381836	-0.383165	0.077724	46.3346	-0.383094	-76606.8	-1.014585E-6	NaN
254	1.000000	0.752833	7.36754e+06	-51339.1	955.818	-29752.9	0.000000	0.000000	6.753059	0.012391	NaN	0.000000	0.001611	0.001659	28.0793	0.079111	0.001878	42.1349	149.073	10.2498	0.022297	0.751504	-0.371794	-0.373123	0.012391	42.1349	-0.372014	-53104.2	-2.333257E-7	NaN
254	1.000000	0.762820	7.36754e+06	-51339.1	955.819	-29752.9	0.000000	0.000000	6.763045	0.005764	NaN	0.000000	0.001598	0.001671	28.0803	0.044179	0.002074	21.2981	-18.0678	-166.567	0.022159	0.761548	-0.361807	-0.363079	0.005764	21.2981	-0.362010	-38097.1	-1.512946E-7	NaN
254	1.000000	0.772818	7.36754e+06	-51339.1	955.819	-29752.9	0.000000	0.000000	6.773044	0.028509	NaN	0.000000	0.001623	0.001703	28.0804	0.094002	0.002086	45.0589	-105.085	14.3507	0.001099	0.771518	-0.351809	-0.353109	0.028509	45.0589	-0.352284	-27550.6	-1.034802E-6	NaN
254	1.000000	0.782829	7.36754e+06	-51339.1	955.818	-29752.9	0.000000	0.000000	6.783055	-0.002333	NaN	0.000000	0.001639	0.001679	28.0808	0.018163	0.002103	8.636618	5.614971	-164.22	0.039025	0.781558	-0.341798	-0.343069	-0.002333	8.636618	-0.341595	-19266.3	1.210897E-7	NaN
254	1.000000	0.792845	7.36754e+06	-51339.1	955.819	-29752.9	0.000000	0.000000	6.793072	0.041320	NaN	0.000000	0.001652	0.001711	28.0807	0.089930	0.001993	45.1169	116.222	11.1291	0.023350	0.791488	-0.331782	-0.333139	0.041320	45.1169	-0.332469	-14176.9	-2.914592E-6	NaN
254	1.000000	0.802829	7.36754e+06	-51339.1	955.819	-29752.9	0.000000	0.000000	6.803054	-0.020079	NaN	0.000000	0.001662	0.001730	28.0808	0.055441	0.001976	28.061	-11.5997	-166.527	-0.016830	0.801514	-0.321798	-0.323113	-0.020079	28.061	-0.321261	-9709.51	2.068018E-6	NaN
254	1.000000	0.812851	7.36754e+06	-51339.1	955.819	-29752.9	0.000000	0.000000	6.813078	0.032097	NaN	0.000000	0.001658	0.001680	28.0806	0.050426	0.002001	25.1989	-141.818	15.1922	0.086556	0.811499	-0.311776	-0.313128	0.032097	25.1989	-0.312731	-7268.4	-4.416027E-6	NaN
254	1.000000	0.822865	7.36754e+06	-51339.1	955.817	-29752.9	0.000000	0.000000	6.823090	-0.009801	NaN	0.000000	0.001572	0.001646	28.0808	0.069073	0.001869	36.9569	14.8412	-167.236	-0.108656	0.821590	-0.301762	-0.303037	-0.009801	36.9569	-0.301563	-4964.76	1.974022E-6	NaN
254	1.000000	0.832850	7.36754e+06	-51339.1	955.818	-29752.9	0.000000	0.000000	6.833076	0.016723	NaN	0.000000	0.001630	0.001672	28.0808	0.086205	0.001983	43.4686	-151.198	15.2476	0.042818	0.831550	-0.291777	-0.293077	0.016723	43.4686	-0.292066	-3582.85	-4.667511E-6	NaN
254	1.000000	0.842858	7.36754e+06	-51339.1	955.818	-29752.9	0.000000	0.000000	6.843085	0.034963	NaN	0.000000	0.001633	0.001684	28.0807	0.091635	0.002117	43.276	-91.7854	-166.06	0.016465	0.841579	-0.281769	-0.283048	0.034963	43.276	-0.282375	-2563.11	-1.364085E-5	NaN
254	1.000000	0.852832	7.36754e+06	-51339.1	955.818	-29752.9	0.000000	0.000000	6.853060	0.043369	NaN	0.000000	0.001621	0.001649	28.0804	0.005026	0.001999	2.513784	51.3011	15.3202	0.059623	0.851557	-0.271795	-0.273070	0.043369	2.513784	-0.284734	-2781.44	-1.559240E-5	NaN
254	1.000000	0.862860	7.36754e+06	-51339.1	955.819	-29752.9	0.000000	0.000000	6.863088	0.049473	NaN	0.000000	0.001595	0.001704	28.0807	0.069868	0.002025	34.5045	-174.358	-168.887	0.082362	0.861553	-0.261767	-0.263074	0.049473	34.5045	-0.262842	-1295.45	-3.818977E-5	NaN
254	1.000000	0.872841	7.36754e+06	-51339.1	955.818	-29752.9	0.000000	0.000000	6.873068	0.028867	NaN	0.000000	0.001604	0.001721	28.0805	0.086853	0.002027	42.8504	10.3755	13.1615	-0.010930	0.871523	-0.251786	-0.253104	0.028867	42.8504	-0.252291	-891.987	-3.236228E-5	NaN
254	1.000000	0.882878	7.36754e+06	-51339.1	955.819	-29752.9	0.000000	0.000000	6.883103	-0.020126	NaN	0.000000	0.001616	0.001685	28.0803	0.065902	0.002054	32.0832	-145.147	-165.967	0.024811	0.881596	-0.241749	-0.243031	-0.020126	32.0832	-0.241278	-601.873	3.343960E-5	NaN
254	1.000000	0.892857	7.36754e+06	-51339.1	955.819	-29752.9	0.000000	0.000000	6.893084	0.038939	NaN	0.000000	0.001586	0.001706	28.0803	0.100691	0.001919	52.4638	94.9261	11.6871	0.051492	0.891513	-0.231770	-0.233114	0.038939	52.4638	-0.232326	-435.715	-8.936886E-5	NaN
254	1.000000	0.902862	7.36754e+06	-51339.1	955.819	-29752.9	0.000000	0.000000	6.903089	0.021573	NaN	0.000000	0.001607	0.001689	28.0794	0.099154	0.002065	48.0081	-135.085	-167.436	0.027296	0.901533	-0.221764	-0.223094	0.021573	48.0081	-0.222102	-300.066	-7.189547E-5	NaN
254	1.000000	0.912878	7.36754e+06	-51339.1	955.819	-29752.9	0.000000	0.000000	6.913105	0.030747	NaN	0.000000	0.001629	0.001668	28.0792	0.055265	0.002044	27.037	-126.624	16.7417	-0.025426	0.911559	-0.211748	-0.213068	0.030747	27.037	-0.212601	-211.286	-0.000146	NaN
254	1.000000	0.922871	7.36754e+06	-51339.1	955.819	-29752.9	0.000000	0.000000	6.923096	-0.003112	NaN	0.000000	0.001612	0.001657	28.0791	0.077391	0.002053	37.6882	168.454	-171.038	0.029408	0.921595	-0.201756	-0.203032	-0.003112	37.6882	-0.201694	-140.444	2.215963E-5	NaN
254	1.000000	0.932898	7.36754e+06	-51339.1	955.819	-29752.9	0.000000	0.000000	6.933122	-0.049626	NaN	0.000000	0.001582	0.001684	28.0793	0.074353	0.001907	38.9805	82.9148	13.3401	-0.016683	0.931521	-0.191728	-0.193106	-0.049626	38.9805	-0.190774	-92.671	0.000536	NaN
254	1.000000	0.942888	7.36754e+06	-51339.1	955.819	-29752.9	0.000000	0.000000	6.943112	-0.031069	NaN	0.000000	0.001612	0.001684	28.0794	0.036238	0.002055	17.6308	-99.3658	-166.963	-0.051862	0.941544	-0.181739	-0.183083	-0.031069	17.6308	-0.180417	-62.0243	0.000501	NaN
254	1.000000	0.952906	7.36754e+06	-51339.1	955.819	-29752.9	0.000000	0.000000	6.953131	-0.004443	NaN	0.000000	0.001609	0.001662	28.0792	0.097444	0.002029	48.0165	-32.9377	15.6272	-0.042850	0.951602	-0.171721	-0.173025	-0.004443	48.0165	-0.171651	-43.8772	0.000101	NaN
254	1.000000	0.962877	7.36754e+06	-51339.1	955.818	-29752.9	0.000000	0.000000	6.963103	0.015426	NaN	0.000000	0.001609	0.001736	28.0792	0.054894	0.002050	26.7759	-46.7761	-168.366	0.053847	0.961634	-0.161750	-0.162993	0.015426	26.7759	-0.162182	-29.9682	-0.000515	NaN
254	1.000000	0.972905	7.36754e+06	-51339.1	955.819	-29752.9	0.000000	0.000000	6.973126	-0.112507	NaN	0.000000	0.001635	0.001699	28.0793	0.052073	0.001985	26.2327	140.866	16.2993	-0.024108	0.971542	-0.151722	-0.153085	-0.112507	26.2327	-0.148505	-17.0092	0.006614	NaN
254	1.000000	0.982931	7.36754e+06	-51339.1	955.819	-29752.9	0.000000	0.000000	6.983154	-0.061753	NaN	0.000000	0.001657	0.001679	28.0793	0.041717	0.001930	21.6147	25.8003	-169.565	-0.116025	0.981612	-0.141696	-0.143015	-0.061753	21.6147	-0.139553	-11.603	0.005322	NaN
254	1.000000	0.992907	7.36754e+06	-51339.1	955.819	-29752.9	0.000000	0.000000	6.993133	0.014521	NaN	0.000000	0.001675	0.001676	28.0795	0.127649	0.001984	64.3462	104.249	13.8039	-0.022097	0.991584	-0.131720	-0.133043	0.014521	64.3462	-0.131889	-8.290584	-0.001751	NaN
254	1.000000	1.002936	7.36754e+06	-51339.1	955.819	-29752.9	0.000000	0.000000	7.003160	-0.047306	NaN	0.000000	0.001649	0.001665	28.0793	0.087207	0.001957	44.557	48.9363	-166.846	-0.041297	1.001567	-0.121691	-0.123060	-0.047306	44.557	-0.120895	-5.036226	0.009393	NaN
254	1.000000	1.012913	7.36754e+06	-51339.1	955.818	-29752.9	0.000000	0.000000	7.013140	0.037163	NaN	0.000000	0.001645	0.001698	28.0794	0.068090	0.002079	32.751	46.4883	13.1698	-0.021982	1.011558	-0.111714	-0.113069	0.037163	32.751	-0.112565	-3.401205	-0.010927	NaN
254	1.000000	1.022939	7.36754e+06	-51339.1	955.819	-29752.9	0.000000	0.000000	7.023165	0.007390	NaN	0.000000	0.001661	0.001698	28.0787	0.088702	0.002004	44.2593	-178.427	-168.47	0.005913	1.021657	-0.101688	-0.102970	0.007390	44.2593	-0.101813	-2.003386	-0.003689	NaN
254	1.000000	1.032926	7.36754e+06	-51339.1	955.819	-29752.9	0.000000	0.000000	7.033152	0.018330	NaN	0.000000	0.001646	0.001695	28.0806	0.089493	0.002012	44.4736	-51.6842	13.5467	0.078425	1.031599	-0.091701	-0.093027	0.018330	44.4736	-0.092010	-1.204201	-0.015222	NaN
254	1.000000	1.042920	7.36754e+06	-51339.1	955.818	-29752.9	0.000000	0.000000	7.043145	-0.020112	NaN	0.000000	0.001664	0.001703	28.0805	0.078810	0.001922	40.9991	169.632	-167.533	-0.079681	1.041695	-0.081707	-0.082932	-0.020112	40.9991	-0.081339	-0.668364	0.030092	NaN
254	1.000000	1.052915	7.36754e+06	-51339.1	955.818	-29752.9	0.000000	0.000000	7.053139	-0.036106	NaN	0.000000	0.001651	0.001679	28.0808	0.055428	0.001853	29.9088	-9.985070	15.2317	0.063451	1.051595	-0.071712	-0.073032	-0.036106	29.9088	-0.070807	-0.358465	0.100724	NaN
254	1.000000	1.062952	7.36754e+06	-51339.1	955.82	-29752.9	0.000000	0.000000	7.063176	-0.025686	NaN	0.000000	0.001639	0.001700	28.0805	0.132918	0.002051	64.8023	166.17	-166.026	0.032259	1.061679	-0.061675	-0.062948	-0.025686	64.8023	-0.061378	-0.197171	0.130274	NaN
254	1.000000	1.072942	7.36754e+06	-51339.1	955.82	-29752.9	0.000000	0.000000	7.073170	0.058645	NaN	0.000000	0.001638	0.001687	28.0805	0.129565	0.001958	66.165	140.1	13.6395	0.087825	1.071595	-0.051685	-0.053032	0.058645	66.165	-0.052350	-0.107393	-0.546080	NaN
254	1.000000	1.082956	7.36754e+06	-51339.1	955.82	-29752.9	0.000000	0.000000	7.083181	-0.016599	NaN	0.000000	0.001616	0.001707	28.0805	0.069003	0.002069	33.3515	-51.0233	-165.784	0.038801	1.081631	-0.041671	-0.042996	-0.016599	33.3515	-0.041298	-0.049527	0.335155	NaN
254	1.000000	1.092961	7.36754e+06	-51339.1	955.818	-29752.9	0.000000	0.000000	7.093187	0.004162	NaN	0.000000	0.001650	0.001694	28.0805	0.054933	0.001911	28.7455	33.2639	12.8318	0.024416	1.091611	-0.031666	-0.033016	0.004162	28.7455	-0.031775	-0.025821	-0.161182	NaN
254	1.000000	1.102977	7.36754e+06	-51339.1	955.818	-29752.9	0.000000	0.000000	7.103204	0.034500	NaN	0.000000	0.001641	0.001694	28.0803	0.048156	0.001995	24.1375	-84.6783	-165.9	-0.023710	1.101634	-0.021650	-0.022993	0.034500	24.1375	-0.022722	-0.014733	-2.341634	NaN
254	1.000000	1.112982	7.36754e+06	-51339.1	955.819	-29752.9	0.000000	0.000000	7.113206	-0.036980	NaN	0.000000	0.001631	0.001697	28.0804	0.040266	0.002117	19.0172	117.068	15.1397	-0.009578	1.111547	-0.011645	-0.013080	-0.036980	19.0172	-0.010186	-0.006494	5.694564	NaN
254	1.000000	1.122966	7.36754e+06	-51339.1	955.818	-29752.9	0.000000	0.000000	7.123194	0.057513	NaN	0.000000	0.001649	0.001684	28.0806	0.066202	0.002020	32.7777	57.8924	-164.022	0.047567	1.121645	-0.001661	-0.002982	0.057513	32.7777	-0.002977	-0.002105	-27.3244	NaN
254	1.000000	1.132954	7.36754e+06	-51339.1	955.818	-29752.9	0.000000	0.000000	7.133434	6.181490	NaN	0.000000	0.001633	0.001701	28.0805	6.459421	0.001667	3874.39	11.2656	6.992826	4.895251	1.131610	0.008327	0.006983	6.181490	3874.39	0.007131	0.006163	1002.92	45088.3
254	2.000000	1.137503	7.36754e+06	-51339.1	955.819	-29752.9	0.000000	0.000000	7.138121	9.556868	NaN	0.000000	0.001621	0.001642	28.0805	10.2341	0.001737	5890.37	7.228173	-172.608	10.1139	1.137229	0.012876	0.012602	9.556868	5890.37	0.011659	0.011084	862.23	51117.5
254	2.000000	1.139951	7.36754e+06	-51339.1	955.819	-29752.9	0.000000	0.000000	7.140760	14.1812	NaN	0.000000	0.001650	0.001641	28.0805	13.9243	0.001703	8178.55	5.048003	3.776578	12.4587	1.139639	0.015325	0.015012	14.1812	8178.55	0.014024	0.014006	1012.51	63138.3
254	2.000000	1.142463	7.36754e+06	-51339.1	955.818	-29752.9	0.000000	0.000000	7.143381	16.8395	NaN	0.000000	0.001646	0.001614	28.0806	16.341	0.001843	8866.6	6.521413	-174.535	16.3389	1.142180	0.017836	0.017553	16.8395	8866.6	0.016412	0.017214	978.247	61743.4
254	2.000000	1.144918	7.36754e+06	-51339.1	955.819	-29752.9	0.000000	0.000000	7.146167	24.8902	NaN	0.000000	0.001656	0.001647	28.0791	19.1585	0.001701	11262.8	4.706974	2.178312	22.2382	1.144573	0.020291	0.019946	24.8902	11262.8	0.018634	0.020440	1217.7	71973.7
254	2.000000	1.147452	7.36754e+06	-51339.1	955.818	-29752.9	0.000000	0.000000	7.148889	29.44	NaN	0.000000	0.001680	0.001675	28.0791	21.9793	0.001772	12405.3	6.389347	-177.396	30.0915	1.147106	0.022825	0.022479	29.44	12405.3	0.021046	0.024212	1215.93	72839.2
254	2.000000	1.149877	7.36754e+06	-51339.1	955.818	-29752.9	0.000000	0.000000	7.151510	34.2304	NaN	0.000000	0.001681	0.001676	28.0794	24.5008	0.001783	13739.9	6.095538	0.545732	32.381	1.149550	0.025250	0.024923	34.2304	13739.9	0.023381	0.028136	1216.59	74838.2
254	2.000000	1.152424	7.36754e+06	-51339.1	955.818	-29752.9	0.000000	0.000000	7.154344	41.2011	NaN	0.000000	0.001653	0.001628	28.0795	27.4776	0.001857	14793.2	8.191646	178.368	41.6785	1.152067	0.027797	0.027440	41.2011	14793.2	0.025708	0.032317	1274.92	75183.3
254	2.000000	1.154954	7.36754e+06	-51339.1	955.818	-29752.9	0.000000	0.000000	7.157178	48.5966	NaN	0.000000	0.001616	0.001632	28.0792	29.3192	0.001794	16344.1	4.569432	1.284231	48.2745	1.154550	0.030327	0.029923	48.5966	16344.1	0.028097	0.036892	1317.28	77744.4
254	2.000000	1.157389	7.36754e+06	-51339.1	955.818	-29752.9	0.000000	0.000000	7.159875	54.9837	NaN	0.000000	0.001547	0.001684	28.0791	31.5378	0.001798	17539.1	4.338732	179.738	52.2478	1.157071	0.032762	0.032444	54.9837	17539.1	0.030411	0.041599	1321.75	78566.8
254	2.000000	1.159902	7.36754e+06	-51339.1	955.818	-29752.9	0.000000	0.000000	7.162696	62.4543	NaN	0.000000	0.001634	0.001683	28.0792	34.5134	0.001733	19910.5	6.613112	-4.881226	60.2839	1.159550	0.035275	0.034923	62.4543	19910.5	0.032923	0.047019	1328.27	83891.5
254	2.000000	1.162419	7.36754e+06	-51339.1	955.819	-29752.9	0.000000	0.000000	7.165547	70.5636	NaN	0.000000	0.001638	0.001691	28.0794	37.0165	0.001793	20640.3	4.580199	178.649	70.4097	1.162112	0.037792	0.037485	70.5636	20640.3	0.035228	0.052279	1349.74	82475.6
254	2.000000	1.164945	7.36754e+06	-51339.1	955.819	-29752.9	0.000000	0.000000	7.168418	78.9702	NaN	0.000000	0.001608	0.001695	28.0791	39.3894	0.001764	22327.5	4.545530	-2.354528	78.5213	1.164656	0.040318	0.040029	78.9702	22327.5	0.037666	0.058135	1358.4	84605.1
254	2.000000	1.167343	7.36754e+06	-51339.1	955.818	-29752.9	0.000000	0.000000	7.171204	88.4005	NaN	0.000000	0.001610	0.001709	28.0791	42.3263	0.001819	23272.8	4.380190	176.509	86.8515	1.167113	0.042716	0.042486	88.4005	23272.8	0.039867	0.063685	1388.08	84256.2
254	2.000000	1.169887	7.36754e+06	-51339.1	955.819	-29752.9	0.000000	0.000000	7.174200	99.388	NaN	0.000000	0.001623	0.001661	28.0794	44.7453	0.001867	23969.4	4.581271	-3.457077	98.767	1.169631	0.045261	0.045004	99.388	23969.4	0.042151	0.069705	1425.84	82946.8
254	2.000000	1.172350	7.36754e+06	-51339.1	955.82	-29752.9	0.000000	0.000000	7.177024	108.167	NaN	0.000000	0.001654	0.001678	28.0795	47.2152	0.001784	26468.8	6.295739	172.949	105.871	1.172139	0.047723	0.047512	108.167	26468.8	0.044658	0.076619	1411.75	87365.2
254	2.000000	1.174975	7.36754e+06	-51339.1	955.819	-29752.9	0.000000	0.000000	7.179961	115.752	NaN	0.000000	0.001619	0.001687	28.0792	48.7624	0.001848	26393.2	5.114506	-3.585181	118.87	1.174665	0.050348	0.050038	115.752	26393.2	0.047059	0.083539	1385.6	83429.7
254	2.000000	1.177354	7.36754e+06	-51339.1	955.818	-29752.9	0.000000	0.000000	7.183206	136.822	NaN	0.000000	0.001614	0.001661	28.0791	50.1098	0.001715	29226.2	5.129898	174.55	135.229	1.177044	0.052727	0.052418	136.822	29226.2	0.049216	0.090006	1520.14	89004
254	2.000000	1.179808	7.36754e+06	-51339.1	955.818	-29752.9	0.000000	0.000000	7.186165	149.105	NaN	0.000000	0.001638	0.001718	28.0803	53.4103	0.001686	31677	1.968595	-3.687140	143.966	1.179519	0.055181	0.054892	149.105	31677	0.051650	0.097582	1528	92647
254	2.000000	1.182353	7.36754e+06	-51339.1	955.819	-29752.9	0.000000	0.000000	7.189134	159.402	NaN	0.000000	0.001633	0.001639	28.0806	58.401	0.001947	29990.3	8.165927	171.255	157.598	1.182005	0.057726	0.057378	159.402	29990.3	0.053740	0.104322	1527.98	84833.4
254	2.000000	1.184823	7.36754e+06	-51339.1	955.819	-29752.9	0.000000	0.000000	7.192332	177.108	NaN	0.000000	0.001602	0.001643	28.0802	59.3049	0.001822	32543.8	6.498129	-7.061454	171.696	1.184444	0.060196	0.059817	177.108	32543.8	0.056115	0.112245	1577.87	88747.7
254	2.000000	1.187262	7.36754e+06	-51339.1	955.819	-29752.9	0.000000	0.000000	7.195064	184.23	NaN	0.000000	0.001629	0.001679	28.0817	61.4661	0.001796	34227.3	1.398544	176.829	179.25	1.187040	0.062635	0.062413	184.23	34227.3	0.058598	0.120828	1524.72	89962.3
254	2.000000	1.189819	7.36754e+06	-51339.1	955.818	-29752.9	0.000000	0.000000	7.198252	199.573	NaN	0.000000	0.001656	0.001700	28.0813	64.8865	0.001794	36170.9	5.418798	-7.191295	197.975	1.189481	0.065192	0.064854	199.573	36170.9	0.061054	0.129615	1539.73	91792.1
254	2.000000	1.192363	7.36754e+06	-51339.1	955.818	-29752.9	0.000000	0.000000	7.201489	216.433	NaN	0.000000	0.001674	0.001685	28.0808	66.9972	0.001773	37795.8	0.083377	177.834	214.673	1.192086	0.067736	0.067459	216.433	37795.8	0.063441	0.138436	1563.41	92809.5
254	2.000000	1.194758	7.36754e+06	-51339.1	955.818	-29752.9	0.000000	0.000000	7.204607	234.014	NaN	0.000000	0.001648	0.001701	28.0804	69.1646	0.001791	38611.9	4.767118	-6.739087	227.807	1.194354	0.070131	0.069727	234.014	38611.9	0.065585	0.146594	1596.34	92137.3
254	2.000000	1.197194	7.36754e+06	-51339.1	955.818	-29752.9	0.000000	0.000000	7.207576	246.952	NaN	0.000000	0.001657	0.001688	28.0803	70.6448	0.001703	41482.5	3.178586	173.601	237.831	1.196993	0.072567	0.072366	246.952	41482.5	0.068103	0.156455	1578.42	95817.2
254	2.000000	1.199799	7.36754e+06	-51339.1	955.818	-29752.9	0.000000	0.000000	7.211110	269.557	NaN	0.000000	0.001671	0.001713	28.0803	73.8493	0.001793	41178.4	4.709937	-7.376161	264.919	1.199466	0.075172	0.074839	269.557	41178.4	0.070263	0.165159	1632.11	92574.7
254	2.000000	1.202450	7.36754e+06	-51339.1	955.818	-29752.9	0.000000	0.000000	7.214236	281.108	NaN	0.000000	0.001637	0.001703	28.0806	78.2931	0.001776	44094.7	6.622642	169.783	287.737	1.202063	0.077823	0.077436	281.108	44094.7	0.073042	0.176682	1591.04	95843.8
254	2.000000	1.204829	7.36754e+06	-51339.1	955.819	-29752.9	0.000000	0.000000	7.217340	298.74	NaN	0.000000	0.001662	0.001675	28.0803	80.1101	0.001781	44990.3	6.731570	-9.405610	295.962	1.204517	0.080202	0.079890	298.74	44990.3	0.075222	0.185978	1606.32	95315.1
254	2.000000	1.207301	7.36754e+06	-51339.1	955.817	-29752.9	0.000000	0.000000	7.220733	321.141	NaN	0.000000	0.001698	0.001662	28.0803	81.902	0.001790	45757.3	3.985377	172.064	318.742	1.207036	0.082674	0.082409	321.141	45757.3	0.077411	0.195533	1642.39	94541.9
254	2.000000	1.209789	7.36754e+06	-51339.1	955.818	-29752.9	0.000000	0.000000	7.223917	338.075	NaN	0.000000	0.001654	0.001683	28.0804	84.1898	0.001809	46542.9	1.506435	-5.592388	333.495	1.209525	0.085162	0.084898	338.075	46542.9	0.079714	0.205831	1642.48	93728.3
254	2.000000	1.212377	7.36754e+06	-51339.1	955.818	-29752.9	0.000000	0.000000	7.227022	350.629	NaN	0.000000	0.001640	0.001675	28.0803	87.112	0.001751	49748.3	1.679669	173.745	353.223	1.212216	0.087750	0.087589	350.629	49748.3	0.082464	0.218454	1605.05	97245.9
254	2.000000	1.214769	7.36754e+06	-51339.1	955.818	-29752.9	0.000000	0.000000	7.230568	378.689	NaN	0.000000	0.001659	0.001684	28.079	88.5718	0.001750	50605.6	5.199065	-9.075780	373.552	1.214445	0.090142	0.089818	378.689	50605.6	0.084530	0.228165	1659.72	96793.8
254	2.000000	1.217387	7.36754e+06	-51339.1	955.817	-29752.9	0.000000	0.000000	7.233821	394.124	NaN	0.000000	0.001652	0.001665	28.0793	91.7647	0.001806	50806.3	4.115667	171.847	396.523	1.216968	0.092760	0.092341	394.124	50806.3	0.086942	0.239753	1643.87	94800
254	2.000000	1.219761	7.36754e+06	-51339.1	955.818	-29752.9	0.000000	0.000000	7.237283	420.604	NaN	0.000000	0.001650	0.001637	28.0794	93.2166	0.001792	52017.7	3.514019	-7.703920	413.25	1.219337	0.095134	0.094710	420.604	52017.7	0.089070	0.250197	1681.09	95013.1
254	2.000000	1.222347	7.36754e+06	-51339.1	955.818	-29752.9	0.000000	0.000000	7.240676	440.196	NaN	0.000000	0.001629	0.001672	28.0791	96.1628	0.001742	55206.5	4.225486	171.184	438.872	1.221933	0.097721	0.097306	440.196	55206.5	0.091740	0.263601	1669.93	98240.3
254	2.000000	1.224675	7.36754e+06	-51339.1	955.816	-29752.9	0.000000	0.000000	7.244126	467.491	NaN	0.000000	0.001601	0.001684	28.079	97.9596	0.001816	53928.2	4.175640	-8.897518	455.249	1.224355	0.100048	0.099728	467.491	53928.2	0.093546	0.272851	1713.36	94324.8
254	2.000000	1.227223	7.36754e+06	-51339.1	955.817	-29752.9	0.000000	0.000000	7.247736	493.335	NaN	0.000000	0.001567	0.001641	28.0794	99.106	0.001697	58389	2.816368	172.136	487.471	1.226959	0.102596	0.102332	493.335	58389	0.096259	0.287024	1718.79	99573.9
254	2.000000	1.229725	7.36754e+06	-51339.1	955.818	-29752.9	0.000000	0.000000	7.251035	512.689	NaN	0.000000	0.001568	0.001680	28.0793	103.068	0.001677	61454.3	4.600459	-9.931079	505.255	1.229421	0.105098	0.104794	512.689	61454.3	0.098841	0.300826	1704.27	102369
254	2.000000	1.232332	7.36754e+06	-51339.1	955.818	-29752.9	0.000000	0.000000	7.254600	535.992	NaN	0.000000	0.001551	0.001659	28.0794	107.181	0.001790	59884.9	3.823280	171.242	536.097	1.231957	0.107705	0.107330	535.992	59884.9	0.100992	0.312557	1714.86	97864.6
254	2.000000	1.234229	7.36754e+06	-51339.1	955.818	-29752.9	0.000000	0.000000	7.257278	554.981	NaN	0.000000	0.001568	0.001634	28.0792	106.688	0.001684	63343.3	1.827199	172.238	549.437	1.233965	0.109603	0.109338	554.981	63343.3	0.103031	0.323870	1713.59	101693