File: remote_trans/data/nanoindenter/0828-1/data/Data_2025-08-06,11h17m57s/2025-07-22_16-23-58_1_421.txt
2025-07-22, 16:23:58, 1
Index	Phase	Displacement	Time	Pos X	Pos Y	Pos Z	Rot A	Rot B	Piezo Z	Force A	Force B	Gripper	Voltage A	Voltage B	Temperature	Amplitude force	Amplitude pos	Stiffness	Phase shift	Phase excitation	Force A raw	Displacement raw	HMax	HMax raw	Real Force	Real Stiffness	Contact Depth	Area	Hardness	Reduced Mod.
[#]	[#]	[um]	[s]	[um]	[um]	[um]	[m°]	[m°]	[um]	[uN]	[uN]	[V]	[V]	[V]	[°C]	[uN]	[um]	[N/m]	[°]	[°]	[uN]	[um]	[um]	[um]	[uN]	[N/m]	[um]	[um^2]	[MPa]	[MPa]
421	1.000000	0.003054	7.36918e+06	-56039.1	1005.82	-29740.2	0.000000	0.000000	6.002791	0.050808	NaN	0.000000	0.001687	0.001652	28.0794	0.056387	0.000860	65.5859	-59.2101	-167.716	-0.022491	0.001836	-1.082024	-1.083243	0.050808	65.5859	-1.082605	-2.927593E+14	-1.735480E-16	NaN
421	1.000000	0.011046	7.36918e+06	-56039.1	1005.82	-29740.2	0.000000	0.000000	6.010779	-0.041047	NaN	0.000000	0.001656	0.001660	28.0793	0.028281	0.000980	28.8658	128.196	-159.614	-0.080048	0.009707	-1.074033	-1.075371	-0.041047	28.8658	-1.072966	-2.172901E+14	1.889062E-16	NaN
421	1.000000	0.019044	7.36918e+06	-56039.1	1005.82	-29740.2	0.000000	0.000000	6.018777	-0.051633	NaN	0.000000	0.001644	0.001665	28.0787	0.094797	0.001796	52.7862	-126.091	-162.1	-0.001121	0.017754	-1.066035	-1.067325	-0.051633	52.7862	-1.065301	-1.714175E+14	3.012100E-16	NaN
421	1.000000	0.027047	7.36918e+06	-56039.1	1005.82	-29740.2	0.000000	0.000000	6.026780	-0.030552	NaN	0.000000	0.001662	0.001639	28.0791	0.046119	0.001896	24.3254	179.887	-163.474	0.039879	0.025720	-1.058032	-1.059359	-0.030552	24.3254	-1.057090	-1.329579E+14	2.297892E-16	NaN
421	1.000000	0.034997	7.36918e+06	-56039.1	1005.82	-29740.2	0.000000	0.000000	6.034732	0.008436	NaN	0.000000	0.001683	0.001651	28.0787	0.082631	0.001827	45.2372	-113.243	-167.898	-0.037939	0.033690	-1.050082	-1.051388	0.008436	45.2372	-1.050222	-1.074972E+14	-7.847529E-17	NaN
421	1.000000	0.043020	7.36918e+06	-56039.1	1005.82	-29740.2	0.000000	0.000000	6.042757	0.061211	NaN	0.000000	0.001667	0.001640	28.0791	0.020384	0.001939	10.514	20.995	-165.419	0.002996	0.041695	-1.042059	-1.043383	0.061211	10.514	-1.046425	-9.557831E+13	-6.404303E-16	NaN
421	1.000000	0.050990	7.36918e+06	-56039.1	1005.82	-29740.2	0.000000	0.000000	6.050722	-0.044928	NaN	0.000000	0.001677	0.001677	28.0788	0.009673	0.001909	5.067526	-163.073	-163.796	0.018887	0.049696	-1.034089	-1.035382	-0.044928	5.067526	-1.027440	-5.309336E+13	8.462146E-16	NaN
421	1.000000	0.059001	7.36918e+06	-56039.1	1005.82	-29740.2	0.000000	0.000000	6.058734	-0.052076	NaN	0.000000	0.001638	0.001657	28.079	0.038061	0.001938	19.6409	-80.8439	-164.447	-0.010836	0.057638	-1.026078	-1.027441	-0.052076	19.6409	-1.024089	-4.785926E+13	1.088112E-15	NaN
421	1.000000	0.066995	7.36918e+06	-56039.1	1005.82	-29740.2	0.000000	0.000000	6.066733	0.077828	NaN	0.000000	0.001630	0.001647	28.0791	0.059646	0.001895	31.4701	43.7196	-163.716	0.076350	0.065725	-1.018084	-1.019353	0.077828	31.4701	-1.019938	-4.208459E+13	-1.849327E-15	NaN
421	1.000000	0.075018	7.36918e+06	-56039.1	1005.82	-29740.2	0.000000	0.000000	6.074754	0.026723	NaN	0.000000	0.001640	0.001670	28.079	0.065594	0.001982	33.1012	-23.1439	-167.388	0.115603	0.073773	-1.010061	-1.011305	0.026723	33.1012	-1.010666	-3.157546E+13	-8.463106E-16	NaN
421	1.000000	0.083037	7.36918e+06	-56039.1	1005.82	-29740.2	0.000000	0.000000	6.082772	0.011023	NaN	0.000000	0.001611	0.001671	28.0791	0.121514	0.001964	61.8754	-158.993	-164.74	-0.072165	0.081714	-1.002042	-1.003365	0.011023	61.8754	-1.002175	-2.426908E+13	-4.541978E-16	NaN
421	1.000000	0.091018	7.36918e+06	-56039.1	1005.82	-29740.2	0.000000	0.000000	6.090753	0.013812	NaN	0.000000	0.001599	0.001681	28.079	0.063280	0.002040	31.0231	-76.4809	-166.845	0.055719	0.089753	-0.994061	-0.995326	0.013812	31.0231	-0.994395	-1.906747E+13	-7.243776E-16	NaN
421	1.000000	0.099056	7.36918e+06	-56039.1	1005.82	-29740.2	0.000000	0.000000	6.098790	-0.018417	NaN	0.000000	0.001584	0.001672	28.0798	0.084556	0.001947	43.4287	-87.7874	-161.192	-0.132164	0.097664	-0.986022	-0.987415	-0.018417	43.4287	-0.985704	-1.456302E+13	1.264670E-15	NaN
421	1.000000	0.107020	7.36918e+06	-56039.1	1005.82	-29740.2	0.000000	0.000000	6.106757	0.052390	NaN	0.000000	0.001609	0.001661	28.0802	0.027716	0.002033	13.6331	170.365	-165.841	0.059551	0.105753	-0.978059	-0.979326	0.052390	13.6331	-0.980941	-1.256280E+13	-4.170267E-15	NaN
421	1.000000	0.115049	7.36918e+06	-56039.1	1005.82	-29740.2	0.000000	0.000000	6.114784	0.021931	NaN	0.000000	0.001630	0.001660	28.0802	0.053125	0.002000	26.5593	155.363	-165.964	-0.031963	0.113753	-0.970030	-0.971325	0.021931	26.5593	-0.970649	-9.128811E+12	-2.402385E-15	NaN
421	1.000000	0.123021	7.36918e+06	-56039.1	1005.82	-29740.2	0.000000	0.000000	6.122756	0.002452	NaN	0.000000	0.001641	0.001631	28.0802	0.073401	0.001970	37.2681	-31.3181	-165.125	0.001818	0.121692	-0.962057	-0.963386	0.002452	37.2681	-0.962107	-7.002805E+12	-3.501562E-16	NaN
421	1.000000	0.131037	7.36918e+06	-56039.1	1005.82	-29740.2	0.000000	0.000000	6.130771	-0.012305	NaN	0.000000	0.001630	0.001632	28.0802	0.079625	0.002086	38.1693	77.639	-168.953	0.009620	0.129722	-0.954042	-0.955357	-0.012305	38.1693	-0.953800	-5.410916E+12	2.274137E-15	NaN
421	1.000000	0.139055	7.36918e+06	-56039.1	1005.82	-29740.2	0.000000	0.000000	6.138790	-0.002103	NaN	0.000000	0.001643	0.001626	28.0807	0.103524	0.001980	52.2827	102.524	-165.965	0.020658	0.137729	-0.946023	-0.947350	-0.002103	52.2827	-0.945993	-4.246031E+12	4.952520E-16	NaN
421	1.000000	0.147053	7.36918e+06	-56039.1	1005.82	-29740.2	0.000000	0.000000	6.146789	0.028382	NaN	0.000000	0.001652	0.001658	28.08	0.084645	0.002055	41.1985	37.2632	-168.124	0.030182	0.145720	-0.938026	-0.939359	0.028382	41.1985	-0.938542	-3.368756E+12	-8.425204E-15	NaN
421	1.000000	0.155080	7.36918e+06	-56039.1	1005.82	-29740.2	0.000000	0.000000	6.154817	0.060155	NaN	0.000000	0.001677	0.001644	28.0802	0.055880	0.001937	28.8431	-168.888	-164.075	0.070872	0.153734	-0.929998	-0.931344	0.060155	28.8431	-0.931563	-2.711978E+12	-2.218128E-14	NaN
421	1.000000	0.163066	7.36918e+06	-56039.1	1005.82	-29740.2	0.000000	0.000000	6.162800	-0.038363	NaN	0.000000	0.001622	0.001648	28.0801	0.069324	0.002067	33.5368	117.928	-167.059	-0.075115	0.161735	-0.922012	-0.923344	-0.038363	33.5368	-0.921154	-1.962410E+12	1.954881E-14	NaN
421	1.000000	0.171077	7.36918e+06	-56039.1	1005.82	-29740.2	0.000000	0.000000	6.170815	0.063888	NaN	0.000000	0.001656	0.001651	28.0802	0.044133	0.002081	21.207	-50.1301	-165.95	0.064745	0.169759	-0.914001	-0.915320	0.063888	21.207	-0.916261	-1.685443E+12	-3.790548E-14	NaN
421	1.000000	0.179082	7.36918e+06	-56039.1	1005.82	-29740.2	0.000000	0.000000	6.178817	0.017783	NaN	0.000000	0.001644	0.001646	28.0802	0.049170	0.002009	24.4799	47.6706	-168.919	0.018252	0.177757	-0.905997	-0.907322	0.017783	24.4799	-0.906542	-1.245807E+12	-1.427466E-14	NaN
421	1.000000	0.187070	7.36918e+06	-56039.1	1005.82	-29740.2	0.000000	0.000000	6.186806	0.024574	NaN	0.000000	0.001635	0.001632	28.0801	0.121520	0.001958	62.0762	-176.565	-166.8	-0.001386	0.185792	-0.898008	-0.899286	0.024574	62.0762	-0.898305	-9.641942E+11	-2.548661E-14	NaN
421	1.000000	0.195056	7.36918e+06	-56039.1	1005.82	-29740.2	0.000000	0.000000	6.194788	-0.054397	NaN	0.000000	0.001650	0.001649	28.0806	0.028093	0.002051	13.6984	37.8002	-164.427	0.014904	0.193755	-0.890023	-0.891324	-0.054397	13.6984	-0.887045	-6.791425E+11	8.009716E-14	NaN
421	1.000000	0.203066	7.36918e+06	-56039.1	1005.82	-29740.2	0.000000	0.000000	6.202799	-0.048955	NaN	0.000000	0.001633	0.001627	28.0801	0.134106	0.001889	71.0015	-23.2487	-165.5	0.004536	0.201746	-0.882012	-0.883333	-0.048955	71.0015	-0.881495	-5.713858E+11	8.567734E-14	NaN
421	1.000000	0.211101	7.36918e+06	-56039.1	1005.82	-29740.2	0.000000	0.000000	6.210836	0.005997	NaN	0.000000	0.001624	0.001640	28.0803	0.069679	0.002049	34.0093	-67.1698	-166.523	-0.001428	0.209759	-0.873978	-0.875320	0.005997	34.0093	-0.874110	-4.539871E+11	-1.320888E-14	NaN
421	1.000000	0.219101	7.36918e+06	-56039.1	1005.82	-29740.2	0.000000	0.000000	6.218840	0.102542	NaN	0.000000	0.001653	0.001621	28.0801	0.054206	0.001908	28.4092	78.1246	-164.952	0.049203	0.217732	-0.865978	-0.867347	0.102542	28.4092	-0.868685	-3.833997E+11	-2.674556E-13	NaN
421	1.000000	0.227111	7.36918e+06	-56039.1	1005.82	-29740.2	0.000000	0.000000	6.226846	0.003349	NaN	0.000000	0.001660	0.001604	28.08	0.078740	0.002027	38.8529	-94.9476	-165.001	-0.046260	0.225796	-0.857967	-0.859282	0.003349	38.8529	-0.858032	-2.750940E+11	-1.217545E-14	NaN
421	1.000000	0.235093	7.36918e+06	-56039.1	1005.82	-29740.2	0.000000	0.000000	6.234829	0.033639	NaN	0.000000	0.001635	0.001664	28.0802	0.136964	0.002062	66.4316	159.498	-164.221	0.083689	0.233809	-0.849985	-0.851270	0.033639	66.4316	-0.850365	-2.166115E+11	-1.552974E-13	NaN
421	1.000000	0.243107	7.36918e+06	-56039.1	1005.82	-29740.2	0.000000	0.000000	6.242842	-0.012175	NaN	0.000000	0.001644	0.001636	28.0788	0.107711	0.001917	56.2016	38.2817	-164.297	-0.019941	0.241760	-0.841971	-0.843318	-0.012175	56.2016	-0.841809	-1.658805E+11	7.339880E-14	NaN
421	1.000000	0.251121	7.36918e+06	-56039.1	1005.82	-29740.2	0.000000	0.000000	6.250856	0.021533	NaN	0.000000	0.001629	0.001635	28.079	0.097311	0.001947	49.9905	22.9943	-167.884	0.050337	0.249830	-0.833958	-0.835249	0.021533	49.9905	-0.834281	-1.311601E+11	-1.641698E-13	NaN
421	1.000000	0.259111	7.36918e+06	-56039.1	1005.82	-29740.2	0.000000	0.000000	6.258846	0.012220	NaN	0.000000	0.001649	0.001643	28.0788	0.021887	0.001889	11.5859	11.4576	-167.781	0.040288	0.257846	-0.825968	-0.827233	0.012220	11.5859	-0.826759	-1.037165E+11	-1.178169E-13	NaN
421	1.000000	0.267129	7.36918e+06	-56039.1	1005.82	-29740.2	0.000000	0.000000	6.266864	0.000775	NaN	0.000000	0.001648	0.001658	28.0788	0.066828	0.001986	33.6517	170.654	-163.21	0.048999	0.265759	-0.817949	-0.819320	0.000775	33.6517	-0.817967	-7.881983E+10	-9.831914E-15	NaN
421	1.000000	0.275101	7.36918e+06	-56039.1	1005.82	-29740.2	0.000000	0.000000	6.274837	0.020710	NaN	0.000000	0.001638	0.001633	28.0793	0.030483	0.002142	14.2341	104.918	-164.178	-0.031156	0.273811	-0.809977	-0.811267	0.020710	14.2341	-0.811069	-6.354326E+10	-3.259249E-13	NaN
421	1.000000	0.283093	7.36918e+06	-56039.1	1005.82	-29740.2	0.000000	0.000000	6.282829	0.022062	NaN	0.000000	0.001629	0.001628	28.0789	0.059785	0.001888	31.659	130.853	-165.117	0.033624	0.281770	-0.801985	-0.803308	0.022062	31.659	-0.802508	-4.862978E+10	-4.536709E-13	NaN
421	1.000000	0.291095	7.36918e+06	-56039.1	1005.82	-29740.2	0.000000	0.000000	6.290829	-0.023141	NaN	0.000000	0.001649	0.001641	28.0792	0.103223	0.001988	51.9303	3.645629	-163.011	-0.064203	0.289828	-0.793984	-0.795250	-0.023141	51.9303	-0.793650	-3.686771E+10	6.276740E-13	NaN
421	1.000000	0.299141	7.36918e+06	-56039.1	1005.82	-29740.2	0.000000	0.000000	6.298876	0.003187	NaN	0.000000	0.001627	0.001663	28.079	0.054603	0.002011	27.1519	138.205	-163.18	0.017496	0.297799	-0.785938	-0.787280	0.003187	27.1519	-0.786026	-2.904722E+10	-1.097058E-13	NaN
421	1.000000	0.307139	7.36918e+06	-56039.1	1005.82	-29740.2	0.000000	0.000000	6.306877	0.069859	NaN	0.000000	0.001626	0.001638	28.0788	0.158332	0.001988	79.631	-36.9946	-167.253	0.059936	0.305784	-0.777939	-0.779295	0.069859	79.631	-0.778597	-2.302335E+10	-3.034279E-12	NaN
421	1.000000	0.315119	7.36918e+06	-56039.1	1005.82	-29740.2	0.000000	0.000000	6.314852	-0.022514	NaN	0.000000	0.001615	0.001651	28.0793	0.023346	0.001918	12.1709	165.008	-164.08	-0.016474	0.313819	-0.769960	-0.771260	-0.022514	12.1709	-0.768573	-1.682277E+10	1.338327E-12	NaN
421	1.000000	0.323131	7.36918e+06	-56039.1	1005.82	-29740.2	0.000000	0.000000	6.322867	0.023811	NaN	0.000000	0.001643	0.001643	28.0789	0.054179	0.002166	25.0117	-161.635	-165.304	0.037364	0.321828	-0.761948	-0.763251	0.023811	25.0117	-0.762662	-1.398012E+10	-1.703223E-12	NaN
421	1.000000	0.331153	7.36918e+06	-56039.1	1005.82	-29740.2	0.000000	0.000000	6.330887	-0.000169	NaN	0.000000	0.001654	0.001618	28.0792	0.100779	0.002049	49.1938	-173.727	-162.857	0.027436	0.329802	-0.753926	-0.755277	-0.000169	49.1938	-0.753923	-1.063215E+10	1.593493E-14	NaN
421	1.000000	0.339125	7.36918e+06	-56039.1	1005.82	-29740.2	0.000000	0.000000	6.338859	-0.017375	NaN	0.000000	0.001615	0.001680	28.0787	0.064438	0.001986	32.4394	175.232	-162.685	0.005558	0.337846	-0.745954	-0.747233	-0.017375	32.4394	-0.745552	-8.178375E+9	2.124506E-12	NaN
421	1.000000	0.347115	7.36918e+06	-56039.1	1005.82	-29740.2	0.000000	0.000000	6.346849	-0.024116	NaN	0.000000	0.001619	0.001669	28.0788	0.101441	0.001966	51.5853	22.2208	-164.265	-0.028112	0.345811	-0.737964	-0.739267	-0.024116	51.5853	-0.737613	-6.375886E+9	3.782356E-12	NaN
421	1.000000	0.355133	7.36918e+06	-56039.1	1005.82	-29740.2	0.000000	0.000000	6.354869	0.030909	NaN	0.000000	0.001643	0.001680	28.079	0.044013	0.001944	22.6431	6.723800	-163.875	0.042884	0.353821	-0.729946	-0.731258	0.030909	22.6431	-0.730970	-5.176323E+9	-5.971304E-12	NaN
421	1.000000	0.363134	7.36918e+06	-56039.1	1005.82	-29740.2	0.000000	0.000000	6.362865	-0.077291	NaN	0.000000	0.001616	0.001692	28.0789	0.044863	0.001957	22.93	-175.885	-167.685	-0.064629	0.361836	-0.721945	-0.723242	-0.077291	22.93	-0.719417	-3.601798E+9	2.145891E-11	NaN
421	1.000000	0.371149	7.36918e+06	-56039.1	1005.82	-29740.2	0.000000	0.000000	6.370883	-0.014011	NaN	0.000000	0.001667	0.001652	28.079	0.040622	0.002049	19.8226	174.105	-162.824	0.015654	0.369828	-0.713930	-0.715251	-0.014011	19.8226	-0.713399	-2.981507E+9	4.699201E-12	NaN
421	1.000000	0.379159	7.36918e+06	-56039.1	1005.82	-29740.2	0.000000	0.000000	6.378893	-0.023787	NaN	0.000000	0.001669	0.001674	28.0799	0.059745	0.001978	30.2048	73.199	-164.082	-0.001421	0.377887	-0.705920	-0.707192	-0.023787	30.2048	-0.705329	-2.313620E+9	1.028150E-11	NaN
421	1.000000	0.387161	7.36918e+06	-56039.1	1005.82	-29740.2	0.000000	0.000000	6.386895	-0.020358	NaN	0.000000	0.001625	0.001679	28.0803	0.085134	0.002055	41.4314	131.606	-161.775	-0.007195	0.385828	-0.697917	-0.699251	-0.020358	41.4314	-0.697549	-1.811565E+9	1.123758E-11	NaN
421	1.000000	0.395122	7.36918e+06	-56039.1	1005.82	-29740.2	0.000000	0.000000	6.394856	-0.017187	NaN	0.000000	0.001644	0.001650	28.0801	0.080274	0.001961	40.9308	43.7738	-165.669	0.066937	0.393887	-0.689956	-0.691192	-0.017187	40.9308	-0.689642	-1.412599E+9	1.216703E-11	NaN
421	1.000000	0.403165	7.36918e+06	-56039.1	1005.82	-29740.2	0.000000	0.000000	6.402902	0.062021	NaN	0.000000	0.001635	0.001654	28.08	0.067410	0.002100	32.1019	-5.983936	-165.175	0.032572	0.401865	-0.681914	-0.683214	0.062021	32.1019	-0.683363	-1.159280E+9	-5.349931E-11	NaN
421	1.000000	0.411153	7.36918e+06	-56039.1	1005.82	-29740.2	0.000000	0.000000	6.410888	-0.008905	NaN	0.000000	0.001645	0.001622	28.08	0.094377	0.002060	45.8153	-31.5364	-163.614	-0.006470	0.409831	-0.673925	-0.675248	-0.008905	45.8153	-0.673780	-8.572606E+8	1.038765E-11	NaN
421	1.000000	0.419174	7.36918e+06	-56039.1	1005.82	-29740.2	0.000000	0.000000	6.418909	-0.004904	NaN	0.000000	0.001631	0.001642	28.0801	0.060748	0.001959	31.0027	-82.9162	-163.551	0.011084	0.417858	-0.665905	-0.667221	-0.004904	31.0027	-0.665786	-6.663546E+8	7.359239E-12	NaN
421	1.000000	0.427168	7.36918e+06	-56039.1	1005.82	-29740.2	0.000000	0.000000	6.426901	-0.033098	NaN	0.000000	0.001688	0.001666	28.0801	0.061533	0.002038	30.1944	-144.68	-163.232	0.078547	0.425863	-0.657911	-0.659216	-0.033098	30.1944	-0.657089	-5.065069E+8	6.534570E-11	NaN
421	1.000000	0.435139	7.36918e+06	-56039.1	1005.82	-29740.2	0.000000	0.000000	6.434873	-0.013428	NaN	0.000000	0.001648	0.001668	28.0802	0.025983	0.002027	12.8174	18.4776	-166.077	0.042521	0.433911	-0.649940	-0.651167	-0.013428	12.8174	-0.649154	-3.943094E+8	3.405493E-11	NaN
421	1.000000	0.443216	7.36918e+06	-56039.1	1005.82	-29740.2	0.000000	0.000000	6.442955	0.099261	NaN	0.000000	0.001666	0.001687	28.0804	0.059909	0.001871	32.0117	-140.067	-162.665	0.161654	0.441840	-0.641862	-0.643238	0.099261	32.0117	-0.644188	-3.370856E+8	-2.944694E-10	NaN
421	1.000000	0.451198	7.36918e+06	-56039.1	1005.82	-29740.2	0.000000	0.000000	6.450934	0.018579	NaN	0.000000	0.001708	0.001652	28.0801	0.029693	0.001975	15.0382	154.406	-167.908	-0.040688	0.449868	-0.633880	-0.635211	0.018579	15.0382	-0.634807	-2.506224E+8	-7.413165E-11	NaN
421	1.000000	0.459200	7.36918e+06	-56039.1	1005.82	-29740.2	0.000000	0.000000	6.458939	0.089745	NaN	0.000000	0.001717	0.001673	28.0803	0.083728	0.001904	43.9717	-130.323	-168.081	0.069200	0.457824	-0.625878	-0.627254	0.089745	43.9717	-0.627409	-1.983540E+8	-4.524489E-10	NaN
421	1.000000	0.467208	7.36918e+06	-56039.1	1005.82	-29740.2	0.000000	0.000000	6.466944	0.042628	NaN	0.000000	0.001726	0.001688	28.0801	0.111807	0.002018	55.4179	-38.0669	-162.923	0.007856	0.465877	-0.617871	-0.619201	0.042628	55.4179	-0.618448	-1.493821E+8	-2.853653E-10	NaN
421	1.000000	0.475174	7.36918e+06	-56039.1	1005.82	-29740.2	0.000000	0.000000	6.474910	0.031386	NaN	0.000000	0.001780	0.001648	28.0802	0.060918	0.001969	30.9401	17.5828	-163.199	-0.012432	0.473900	-0.609905	-0.611178	0.031386	30.9401	-0.610666	-1.167549E+8	-2.688201E-10	NaN
421	1.000000	0.483199	7.36918e+06	-56039.1	1005.82	-29740.2	0.000000	0.000000	6.482935	0.021291	NaN	0.000000	0.001766	0.001607	28.0804	0.066973	0.002034	32.9226	44.5619	-165.481	0.075407	0.481924	-0.601879	-0.603154	0.021291	32.9226	-0.602364	-8.974708E+7	-2.372355E-10	NaN
421	1.000000	0.491192	7.36918e+06	-56039.1	1005.82	-29740.2	0.000000	0.000000	6.490929	0.053235	NaN	0.000000	0.001794	0.001686	28.0801	0.043557	0.001945	22.3994	-131.643	-167.324	-0.018669	0.489914	-0.593886	-0.595165	0.053235	22.3994	-0.595669	-7.257691E+7	-7.334921E-10	NaN
421	1.000000	0.499209	7.36918e+06	-56039.1	1005.82	-29740.2	0.000000	0.000000	6.498945	0.047146	NaN	0.000000	0.001784	0.001676	28.0805	0.049914	0.001895	26.3446	-158.996	-164.549	0.044129	0.497867	-0.585870	-0.587211	0.047146	26.3446	-0.587212	-5.549131E+7	-8.496191E-10	NaN
421	1.000000	0.507186	7.36918e+06	-56039.1	1005.82	-29740.2	0.000000	0.000000	6.506917	-0.087469	NaN	0.000000	0.001724	0.001722	28.0799	0.126828	0.002022	62.7223	-38.8273	-165.92	-0.125343	0.505916	-0.577893	-0.579163	-0.087469	62.7223	-0.576847	-3.992095E+7	2.191058E-9	NaN
421	1.000000	0.515202	7.36918e+06	-56039.1	1005.82	-29740.2	0.000000	0.000000	6.514938	0.021068	NaN	0.000000	0.001762	0.001687	28.079	0.023321	0.002055	11.3478	167.592	-163.998	-0.026594	0.513868	-0.569876	-0.571211	0.021068	11.3478	-0.571269	-3.343189E+7	-6.301832E-10	NaN
421	1.000000	0.523211	7.36918e+06	-56039.1	1005.82	-29740.2	0.000000	0.000000	6.522945	-0.036805	NaN	0.000000	0.001754	0.001670	28.0788	0.038431	0.001989	19.3218	-151.457	-162.292	-0.064857	0.521929	-0.561867	-0.563149	-0.036805	19.3218	-0.560439	-2.368349E+7	1.554044E-9	NaN
421	1.000000	0.531220	7.36918e+06	-56039.1	1005.82	-29740.2	0.000000	0.000000	6.530954	-0.014283	NaN	0.000000	0.001725	0.001684	28.0789	0.064558	0.002129	30.3213	-116.626	-163.586	-0.021568	0.529913	-0.553859	-0.555166	-0.014283	30.3213	-0.553505	-1.898872E+7	7.521851E-10	NaN
421	1.000000	0.539227	7.36918e+06	-56039.1	1005.82	-29740.2	0.000000	0.000000	6.538963	0.037275	NaN	0.000000	0.001734	0.001683	28.0792	0.031582	0.002069	15.265	144.209	-166.961	0.056061	0.537942	-0.545851	-0.547137	0.037275	15.265	-0.547683	-1.577089E+7	-2.363519E-9	NaN
421	1.000000	0.547225	7.36918e+06	-56039.1	1005.82	-29740.2	0.000000	0.000000	6.546958	-0.043342	NaN	0.000000	0.001733	0.001660	28.0789	0.122447	0.001952	62.7422	29.3492	-168.975	-0.071740	0.545931	-0.537854	-0.539147	-0.043342	62.7422	-0.537336	-1.133444E+7	3.823920E-9	NaN
421	1.000000	0.555248	7.36918e+06	-56039.1	1005.82	-29740.2	0.000000	0.000000	6.554983	0.004643	NaN	0.000000	0.001752	0.001673	28.0789	0.104642	0.001923	54.4184	-122.454	-166.59	-0.048858	0.553917	-0.529831	-0.531161	0.004643	54.4184	-0.529895	-8.93542e+06	-5.195891E-10	NaN
421	1.000000	0.563230	7.36918e+06	-56039.1	1005.82	-29740.2	0.000000	0.000000	6.562965	-0.004014	NaN	0.000000	0.001744	0.001669	28.079	0.071025	0.001934	36.7289	-164.849	-167.383	0.075894	0.561936	-0.521849	-0.523142	-0.004014	36.7289	-0.521767	-6.88914e+06	5.826269E-10	NaN
421	1.000000	0.571245	7.36918e+06	-56039.1	1005.82	-29740.2	0.000000	0.000000	6.570979	-0.012919	NaN	0.000000	0.001745	0.001651	28.079	0.059838	0.001949	30.6951	-29.7489	-164.92	0.077730	0.569973	-0.513834	-0.515106	-0.012919	30.6951	-0.513518	-5.28942e+06	2.442477E-9	NaN
421	1.000000	0.579235	7.36918e+06	-56039.1	1005.82	-29740.2	0.000000	0.000000	6.578970	0.005052	NaN	0.000000	0.001735	0.001648	28.0792	0.031286	0.002065	15.1501	-28.7785	-167.139	0.030126	0.577925	-0.505844	-0.507154	0.005052	15.1501	-0.506094	-4.16861e+06	-1.211907E-9	NaN
421	1.000000	0.587248	7.36918e+06	-56039.1	1005.82	-29740.2	0.000000	0.000000	6.586985	0.053366	NaN	0.000000	0.001733	0.001662	28.0788	0.055490	0.002119	26.1817	169.153	-167.858	-0.018273	0.585947	-0.497830	-0.499131	0.053366	26.1817	-0.499359	-3.35794e+06	-1.589250E-8	NaN
421	1.000000	0.595273	7.36918e+06	-56039.1	1005.82	-29740.2	0.000000	0.000000	6.595007	-0.025356	NaN	0.000000	0.001724	0.001625	28.0789	0.079957	0.001852	43.1818	-21.0372	-161.29	-0.019307	0.593914	-0.489805	-0.491164	-0.025356	43.1818	-0.489365	-2.43512e+06	1.041258E-8	NaN
421	1.000000	0.603210	7.36918e+06	-56039.1	1005.82	-29740.2	0.000000	0.000000	6.602943	-0.057039	NaN	0.000000	0.001664	0.001726	28.0787	0.059368	0.002042	29.0795	62.5697	-165.782	-0.052291	0.601972	-0.481868	-0.483107	-0.057039	29.0795	-0.480397	-1.82426e+06	3.126708E-8	NaN
421	1.000000	0.611248	7.36918e+06	-56039.1	1005.82	-29740.2	0.000000	0.000000	6.610983	-0.002622	NaN	0.000000	0.001658	0.001670	28.0788	0.070230	0.001991	35.2792	47.5641	-166.621	-0.067210	0.609949	-0.473830	-0.475129	-0.002622	35.2792	-0.473775	-1.47342e+06	1.779780E-9	NaN
421	1.000000	0.619224	7.36918e+06	-56039.1	1005.82	-29740.2	0.000000	0.000000	6.618959	0.000230	NaN	0.000000	0.001670	0.001656	28.0789	0.073810	0.001906	38.7333	176.15	-164.409	0.011764	0.617966	-0.465854	-0.467113	0.000230	38.7333	-0.465859	-1.14105e+06	-2.015742E-10	NaN
421	1.000000	0.627262	7.36918e+06	-56039.1	1005.82	-29740.2	0.000000	0.000000	6.626999	0.049837	NaN	0.000000	0.001668	0.001711	28.0789	0.034654	0.001983	17.4801	8.105204	-168.719	-0.061983	0.625962	-0.457816	-0.459117	0.049837	17.4801	-0.459955	-942714	-5.286567E-8	NaN
421	1.000000	0.635269	7.36918e+06	-56039.1	1005.82	-29740.2	0.000000	0.000000	6.635005	0.019194	NaN	0.000000	0.001664	0.001682	28.0788	0.150398	0.002111	71.2283	-109.306	-168.078	0.044094	0.633966	-0.449809	-0.451112	0.019194	71.2283	-0.450011	-683128	-2.809691E-8	NaN
421	1.000000	0.643244	7.36918e+06	-56039.1	1005.82	-29740.2	0.000000	0.000000	6.642977	-0.040519	NaN	0.000000	0.001658	0.001655	28.0789	0.134145	0.001998	67.1482	90.0432	-163.22	-0.068388	0.641945	-0.441835	-0.443134	-0.040519	67.1482	-0.441382	-516258	7.848523E-8	NaN
421	1.000000	0.651213	7.36918e+06	-56039.1	1005.82	-29740.2	0.000000	0.000000	6.650949	0.021370	NaN	0.000000	0.001662	0.001663	28.0804	0.040694	0.002100	19.3762	-80.1685	-161.947	0.041240	0.649957	-0.433865	-0.435122	0.021370	19.3762	-0.434693	-415347	-5.145144E-8	NaN
421	1.000000	0.659300	7.36918e+06	-56039.1	1005.82	-29740.2	0.000000	0.000000	6.659034	-0.008643	NaN	0.000000	0.001675	0.001700	28.08	0.046852	0.002091	22.4032	-166.408	-164.035	0.026805	0.657956	-0.425779	-0.427123	-0.008643	22.4032	-0.425489	-307760	2.808386E-8	NaN
421	1.000000	0.667234	7.36918e+06	-56039.1	1005.82	-29740.2	0.000000	0.000000	6.666969	0.005747	NaN	0.000000	0.001657	0.001700	28.0799	0.079210	0.002028	39.0517	55.1568	-164.755	-0.053405	0.665961	-0.417845	-0.419117	0.005747	39.0517	-0.417955	-240659	-2.388157E-8	NaN
421	1.000000	0.675294	7.36918e+06	-56039.1	1005.82	-29740.2	0.000000	0.000000	6.675031	0.046799	NaN	0.000000	0.001665	0.001693	28.0802	0.036425	0.002018	18.0506	51.1344	-163.528	0.031554	0.674027	-0.409784	-0.411051	0.046799	18.0506	-0.411729	-196326	-2.383739E-7	NaN
421	1.000000	0.683267	7.36918e+06	-56039.1	1005.82	-29740.2	0.000000	0.000000	6.683001	-0.010968	NaN	0.000000	0.001655	0.001651	28.0802	0.050751	0.001902	26.6761	-158.921	-163.605	-0.040835	0.681985	-0.401812	-0.403094	-0.010968	26.6761	-0.401503	-140420	7.810937E-8	NaN
421	1.000000	0.691283	7.36918e+06	-56039.1	1005.82	-29740.2	0.000000	0.000000	6.691021	0.079127	NaN	0.000000	0.001653	0.001677	28.0803	0.082695	0.001960	42.1931	53.2424	-169.3	0.092697	0.689962	-0.393795	-0.395116	0.079127	42.1931	-0.395202	-114161	-6.931170E-7	NaN
421	1.000000	0.699287	7.36918e+06	-56039.1	1005.82	-29740.2	0.000000	0.000000	6.699020	-0.036512	NaN	0.000000	0.001649	0.001681	28.0801	0.055251	0.002136	25.8693	-5.523916	-169.612	-0.090732	0.697948	-0.385792	-0.387131	-0.036512	25.8693	-0.384733	-80866.2	4.515056E-7	NaN
421	1.000000	0.707280	7.36918e+06	-56039.1	1005.82	-29740.2	0.000000	0.000000	6.707015	-0.006145	NaN	0.000000	0.001639	0.001709	28.0804	0.119056	0.001886	63.1219	27.6564	-168.103	0.017912	0.705951	-0.377799	-0.379128	-0.006145	63.1219	-0.377726	-64155.7	9.577898E-8	NaN
421	1.000000	0.715290	7.36918e+06	-56039.1	1005.82	-29740.2	0.000000	0.000000	6.715024	-0.018891	NaN	0.000000	0.001629	0.001685	28.0801	0.071127	0.001976	35.9946	-5.595372	-164.925	-0.028324	0.714009	-0.369789	-0.371069	-0.018891	35.9946	-0.369395	-48687.1	3.880172E-7	NaN
421	1.000000	0.723288	7.36918e+06	-56039.1	1005.82	-29740.2	0.000000	0.000000	6.723026	0.069044	NaN	0.000000	0.001623	0.001665	28.0803	0.051804	0.001976	26.21	65.0158	-162.425	0.047785	0.722002	-0.361790	-0.363077	0.069044	26.21	-0.363766	-40387.3	-1.709543E-6	NaN
421	1.000000	0.731271	7.36918e+06	-56039.1	1005.82	-29740.2	0.000000	0.000000	6.731006	0.012089	NaN	0.000000	0.001606	0.001672	28.0801	0.065767	0.002004	32.8126	121.004	-165.263	-0.003945	0.729979	-0.353808	-0.355100	0.012089	32.8126	-0.354084	-29256.8	-4.131983E-7	NaN
421	1.000000	0.739272	7.36918e+06	-56039.1	1005.82	-29740.2	0.000000	0.000000	6.739007	-0.010304	NaN	0.000000	0.001616	0.001667	28.0801	0.045480	0.002030	22.4019	-78.2004	-163.543	0.033016	0.737981	-0.345806	-0.347097	-0.010304	22.4019	-0.345461	-21931.3	4.698485E-7	NaN
421	1.000000	0.747292	7.36918e+06	-56039.1	1005.82	-29740.2	0.000000	0.000000	6.747028	0.025457	NaN	0.000000	0.001627	0.001690	28.0805	0.069001	0.002090	33.0146	-41.2037	-166.108	0.066204	0.745949	-0.337787	-0.339129	0.025457	33.0146	-0.338365	-17286.6	-1.472628E-6	NaN
421	1.000000	0.755323	7.36918e+06	-56039.1	1005.82	-29740.2	0.000000	0.000000	6.755056	-0.049926	NaN	0.000000	0.001628	0.001683	28.0801	0.089035	0.002025	43.9684	-161.364	-162.799	-0.036272	0.754003	-0.329755	-0.331075	-0.049926	43.9684	-0.328904	-12571.6	3.971374E-6	NaN
421	1.000000	0.763345	7.36918e+06	-56039.1	1005.82	-29740.2	0.000000	0.000000	6.763080	0.010451	NaN	0.000000	0.001654	0.001634	28.0804	0.068937	0.001939	35.5618	22.8983	-164.018	0.059130	0.762028	-0.321734	-0.323050	0.010451	35.5618	-0.321954	-9940.04	-1.051420E-6	NaN
421	1.000000	0.771302	7.36918e+06	-56039.1	1005.82	-29740.2	0.000000	0.000000	6.771037	0.012340	NaN	0.000000	0.001653	0.001650	28.0803	0.070517	0.001910	36.9247	118.667	-164.646	-0.047851	0.769965	-0.313777	-0.315114	0.012340	36.9247	-0.314027	-7596.06	-1.624540E-6	NaN
421	1.000000	0.779332	7.36918e+06	-56039.1	1005.82	-29740.2	0.000000	0.000000	6.779068	0.023437	NaN	0.000000	0.001663	0.001694	28.0801	0.062521	0.002014	31.0506	-157.7	-164.89	-0.047891	0.777990	-0.305746	-0.307089	0.023437	31.0506	-0.306312	-5840.19	-4.013024E-6	NaN
421	1.000000	0.787340	7.36918e+06	-56039.1	1005.82	-29740.2	0.000000	0.000000	6.787073	-0.046836	NaN	0.000000	0.001644	0.001660	28.079	0.053719	0.001960	27.4118	128.261	-165.01	-0.067729	0.785965	-0.297739	-0.299114	-0.046836	27.4118	-0.296457	-4167.18	1.123918E-5	NaN
421	1.000000	0.795325	7.36918e+06	-56039.1	1005.82	-29740.2	0.000000	0.000000	6.795057	-0.048107	NaN	0.000000	0.001622	0.001686	28.0789	0.125214	0.001928	64.9529	122.254	-161.293	0.028240	0.794007	-0.289754	-0.291071	-0.048107	64.9529	-0.289199	-3245.57	1.482221E-5	NaN
421	1.000000	0.803321	7.36918e+06	-56039.1	1005.82	-29740.2	0.000000	0.000000	6.803054	-0.038266	NaN	0.000000	0.001651	0.001646	28.079	0.029596	0.002049	14.4442	-57.4013	-164.094	0.006465	0.802023	-0.281757	-0.283056	-0.038266	14.4442	-0.279770	-2341.57	1.634199E-5	NaN
421	1.000000	0.811324	7.36918e+06	-56039.1	1005.82	-29740.2	0.000000	0.000000	6.811058	-0.013796	NaN	0.000000	0.001635	0.001681	28.0791	0.060127	0.001929	31.1768	106.799	-167.054	-0.011662	0.810013	-0.273755	-0.275065	-0.013796	31.1768	-0.273423	-1877.16	7.349458E-6	NaN
421	1.000000	0.819304	7.36918e+06	-56039.1	1005.82	-29740.2	0.000000	0.000000	6.819040	0.031813	NaN	0.000000	0.001644	0.001659	28.079	0.015201	0.001896	8.016140	63.6822	-167.099	0.070317	0.817979	-0.265775	-0.267100	0.031813	8.016140	-0.268751	-1594.24	-1.995480E-5	NaN
421	1.000000	0.827343	7.36918e+06	-56039.1	1005.82	-29740.2	0.000000	0.000000	6.827080	0.064771	NaN	0.000000	0.001663	0.001690	28.079	0.040226	0.002130	18.8872	40.9763	-163.609	0.033782	0.826030	-0.257736	-0.259049	0.064771	18.8872	-0.260308	-1184.76	-5.466993E-5	NaN
421	1.000000	0.835345	7.36918e+06	-56039.1	1005.82	-29740.2	0.000000	0.000000	6.835082	0.059431	NaN	0.000000	0.001677	0.001728	28.0791	0.043111	0.002016	21.3801	-77.6739	-166.951	0.041087	0.833979	-0.249734	-0.251099	0.059431	21.3801	-0.251819	-877.14	-6.775518E-5	NaN
421	1.000000	0.843330	7.36918e+06	-56039.1	1005.82	-29740.2	0.000000	0.000000	6.843063	-0.038318	NaN	0.000000	0.001631	0.001672	28.079	0.020662	0.002039	10.133	80.764	-166.163	-0.055552	0.842029	-0.241749	-0.243049	-0.038318	10.133	-0.238913	-552.787	6.931720E-5	NaN
421	1.000000	0.851337	7.36918e+06	-56039.1	1005.82	-29740.2	0.000000	0.000000	6.851069	-0.066616	NaN	0.000000	0.001683	0.001707	28.0791	0.088953	0.002031	43.7916	-85.2527	-164.13	-0.034911	0.849976	-0.233741	-0.235103	-0.066616	43.7916	-0.232600	-440.066	0.000151	NaN
421	1.000000	0.859343	7.36918e+06	-56039.1	1005.82	-29740.2	0.000000	0.000000	6.859078	0.013295	NaN	0.000000	0.001682	0.001691	28.0791	0.110121	0.001971	55.8828	-13.7903	-163.736	-0.013341	0.858042	-0.225735	-0.227037	0.013295	55.8828	-0.225914	-345.018	-3.853512E-5	NaN
421	1.000000	0.867351	7.36918e+06	-56039.1	1005.82	-29740.2	0.000000	0.000000	6.867083	-0.080846	NaN	0.000000	0.001643	0.001708	28.0792	0.061328	0.001943	31.5615	-34.9159	-163.934	-0.069729	0.866057	-0.217727	-0.219022	-0.080846	31.5615	-0.215806	-237.943	0.000340	NaN
421	1.000000	0.875368	7.36918e+06	-56039.1	1005.82	-29740.2	0.000000	0.000000	6.875101	-0.027493	NaN	0.000000	0.001643	0.001729	28.079	0.081635	0.001935	42.1832	15.8824	-165.157	-0.025530	0.874084	-0.209711	-0.210994	-0.027493	42.1832	-0.209222	-186.3	0.000148	NaN
421	1.000000	0.883338	7.36918e+06	-56039.1	1005.82	-29740.2	0.000000	0.000000	6.883077	0.100017	NaN	0.000000	0.001641	0.001672	28.079	0.092203	0.002074	44.4487	105.22	-166.749	-0.015531	0.882046	-0.201740	-0.203032	0.100017	44.4487	-0.203428	-149.929	-0.000667	NaN
421	1.000000	0.891373	7.36918e+06	-56039.1	1005.82	-29740.2	0.000000	0.000000	6.891108	0.001112	NaN	0.000000	0.001633	0.001672	28.0793	0.034300	0.002006	17.1001	12.2585	-167.076	-0.056620	0.890054	-0.193706	-0.195024	0.001112	17.1001	-0.193754	-103.884	-1.070529E-5	NaN
421	1.000000	0.899360	7.36918e+06	-56039.1	1005.82	-29740.2	0.000000	0.000000	6.899096	0.028145	NaN	0.000000	0.001666	0.001643	28.0792	0.062619	0.001940	32.2797	42.0133	-167.506	0.073544	0.898088	-0.185719	-0.186991	0.028145	32.2797	-0.186373	-78.2066	-0.000360	NaN
421	1.000000	0.907374	7.36918e+06	-56039.1	1005.82	-29740.2	0.000000	0.000000	6.907107	-0.031681	NaN	0.000000	0.001678	0.001674	28.0792	0.117640	0.002071	56.8066	21.7763	-164.482	-0.005140	0.906060	-0.177705	-0.179018	-0.031681	56.8066	-0.177287	-54.8507	0.000578	NaN
421	1.000000	0.915392	7.36918e+06	-56039.1	1005.82	-29740.2	0.000000	0.000000	6.915127	0.021836	NaN	0.000000	0.001657	0.001702	28.0793	0.028906	0.002044	14.1392	-130.238	-161.716	0.037521	0.914034	-0.169687	-0.171045	0.021836	14.1392	-0.170845	-42.4892	-0.000514	NaN
421	1.000000	0.923380	7.36918e+06	-56039.1	1005.82	-29740.2	0.000000	0.000000	6.923117	0.045002	NaN	0.000000	0.001680	0.001704	28.0802	0.028872	0.002024	14.2672	159.401	-165.276	0.062422	0.922106	-0.161699	-0.162973	0.045002	14.2672	-0.164064	-32.3487	-0.001391	NaN
421	1.000000	0.931372	7.36918e+06	-56039.1	1005.82	-29740.2	0.000000	0.000000	6.931110	0.076015	NaN	0.000000	0.001686	0.001692	28.0805	0.093511	0.002009	46.5571	-127.499	-163.778	0.066985	0.930039	-0.153707	-0.155040	0.076015	46.5571	-0.154931	-22.2507	-0.003416	NaN
421	1.000000	0.939387	7.36918e+06	-56039.1	1005.82	-29740.2	0.000000	0.000000	6.939121	-0.018162	NaN	0.000000	0.001663	0.001723	28.0802	0.057577	0.001939	29.6866	-88.9218	-162.807	0.000914	0.938072	-0.145692	-0.147007	-0.018162	29.6866	-0.145233	-14.8073	0.001227	NaN
421	1.000000	0.947354	7.36918e+06	-56039.1	1005.82	-29740.2	0.000000	0.000000	6.947088	0.000213	NaN	0.000000	0.001612	0.001720	28.0804	0.106633	0.001960	54.4019	87.2918	-165.698	0.004967	0.946052	-0.137725	-0.139027	0.000213	54.4019	-0.137728	-10.7185	-1.991651E-5	NaN
421	1.000000	0.955426	7.36918e+06	-56039.1	1005.82	-29740.2	0.000000	0.000000	6.955162	0.030504	NaN	0.000000	0.001648	0.001705	28.0805	0.108734	0.001866	58.2579	-111.47	-168.375	0.017526	0.954089	-0.129653	-0.130990	0.030504	58.2579	-0.130046	-7.636563	-0.003994	NaN
421	1.000000	0.963389	7.36918e+06	-56039.1	1005.82	-29740.2	0.000000	0.000000	6.963122	-0.047898	NaN	0.000000	0.001644	0.001700	28.0802	0.082196	0.002058	39.9313	34.5211	-165.849	-0.000543	0.962149	-0.121689	-0.122929	-0.047898	39.9313	-0.120790	-5.011787	0.009557	NaN
421	1.000000	0.971425	7.36918e+06	-56039.1	1005.82	-29740.2	0.000000	0.000000	6.971160	0.001804	NaN	0.000000	0.001660	0.001682	28.0811	0.074641	0.002051	36.4001	-42.0675	-163.895	0.066720	0.970060	-0.113654	-0.115019	0.001804	36.4001	-0.113691	-3.589567	-0.000502	NaN
421	1.000000	0.979391	7.36918e+06	-56039.1	1005.82	-29740.2	0.000000	0.000000	6.979125	-0.015235	NaN	0.000000	0.001676	0.001658	28.0802	0.095395	0.002171	43.9478	121.027	-164.131	-0.001040	0.978154	-0.105688	-0.106925	-0.015235	43.9478	-0.105428	-2.401047	0.006345	NaN
421	1.000000	0.987395	7.36918e+06	-56039.1	1005.82	-29740.2	0.000000	0.000000	6.987134	0.088929	NaN	0.000000	0.001651	0.001690	28.0802	0.076605	0.002029	37.7503	-47.493	-167.601	0.067810	0.986059	-0.097684	-0.099020	0.088929	37.7503	-0.099450	-1.776523	-0.050058	NaN
421	1.000000	0.995388	7.36918e+06	-56039.1	1005.82	-29740.2	0.000000	0.000000	6.995120	-0.063887	NaN	0.000000	0.001656	0.001651	28.0802	0.053035	0.001861	28.5009	-119.91	-165.661	-0.004194	0.994144	-0.089690	-0.090935	-0.063887	28.5009	-0.088009	-0.970116	0.065855	NaN
421	1.000000	1.003442	7.36918e+06	-56039.1	1005.82	-29740.2	0.000000	0.000000	7.003176	-0.028564	NaN	0.000000	0.001658	0.001668	28.0803	0.074236	0.002056	36.1046	105.623	-164.091	-0.053468	1.002103	-0.081636	-0.082976	-0.028564	36.1046	-0.081043	-0.657171	0.043466	NaN
421	1.000000	1.011409	7.36918e+06	-56039.1	1005.82	-29740.2	0.000000	0.000000	7.011146	0.037519	NaN	0.000000	0.001645	0.001677	28.0806	0.040474	0.002225	18.1892	-119.245	-166.867	0.008144	1.010077	-0.073669	-0.075002	0.037519	18.1892	-0.075216	-0.467856	-0.080193	NaN
421	1.000000	1.019437	7.36918e+06	-56039.1	1005.82	-29740.2	0.000000	0.000000	7.019173	0.021476	NaN	0.000000	0.001671	0.001690	28.0802	0.029451	0.001976	14.9074	120.13	-163.398	0.058563	1.018113	-0.065642	-0.066965	0.021476	14.9074	-0.066722	-0.278011	-0.077250	NaN
421	1.000000	1.027433	7.36918e+06	-56039.1	1005.82	-29740.2	0.000000	0.000000	7.027167	-0.011102	NaN	0.000000	0.001684	0.001654	28.0804	0.110998	0.002095	52.9754	172.21	-164.584	0.026614	1.026133	-0.057646	-0.058945	-0.011102	52.9754	-0.057489	-0.152363	0.072864	NaN
421	1.000000	1.035438	7.36918e+06	-56039.1	1005.82	-29740.2	0.000000	0.000000	7.035179	0.149337	NaN	0.000000	0.001689	0.001684	28.0803	0.067066	0.001920	34.9371	36.1604	-166.973	0.094829	1.034132	-0.049641	-0.050947	0.149337	34.9371	-0.052846	-0.111130	-1.343799	NaN
421	1.000000	1.043419	7.36918e+06	-56039.1	1005.82	-29740.2	0.000000	0.000000	7.043157	0.076749	NaN	0.000000	0.001695	0.001697	28.0805	0.071846	0.002084	34.4695	-173.502	-165.254	0.085259	1.042144	-0.041660	-0.042934	0.076749	34.4695	-0.043329	-0.057135	-1.343292	NaN
421	1.000000	1.051428	7.36918e+06	-56039.1	1005.82	-29740.2	0.000000	0.000000	7.051164	0.035631	NaN	0.000000	0.001681	0.001668	28.0805	0.129236	0.001956	66.0838	-75.9731	-164.267	0.042112	1.050117	-0.033651	-0.034962	0.035631	66.0838	-0.034055	-0.030045	-1.185929	NaN
421	1.000000	1.059419	7.36918e+06	-56039.1	1005.82	-29740.2	0.000000	0.000000	7.059153	-0.008796	NaN	0.000000	0.001713	0.001687	28.0789	0.115473	0.002042	56.5621	-33.284	-164.555	0.065138	1.058153	-0.025660	-0.026925	-0.008796	56.5621	-0.025543	-0.017433	0.504544	NaN
421	1.000000	1.067428	7.36918e+06	-56039.1	1005.82	-29740.2	0.000000	0.000000	7.067161	-0.049346	NaN	0.000000	0.001693	0.001683	28.079	0.057774	0.001962	29.445	-2.646436	-165.19	-0.026475	1.066097	-0.017651	-0.018981	-0.049346	29.445	-0.016394	-0.010127	4.872478	NaN
421	1.000000	1.075423	7.36918e+06	-56039.1	1005.82	-29740.2	0.000000	0.000000	7.075158	-0.000301	NaN	0.000000	0.001676	0.001671	28.0789	0.044477	0.002049	21.7057	20.7365	-166.264	0.006294	1.074158	-0.009655	-0.010920	-0.000301	21.7057	-0.009645	-0.006184	0.048623	NaN
421	1.000000	1.083448	7.36918e+06	-56039.1	1005.82	-29740.2	0.000000	0.000000	7.083187	0.105277	NaN	0.000000	0.001654	0.001655	28.0798	0.089259	0.002054	43.4522	-44.0117	-164.667	0.039534	1.082164	-0.001631	-0.002914	0.105277	43.4522	-0.003448	-0.002418	-43.5405	NaN
421	1.000000	1.091394	7.36918e+06	-56039.1	1005.82	-29740.2	0.000000	0.000000	7.091369	5.823107	NaN	0.000000	0.001651	0.001656	28.0791	6.275598	0.001814	3459.44	12.9584	-170.794	4.462898	1.090108	0.006316	0.005029	5.823107	3459.44	0.005053	0.004182	1392.36	48874
421	2.000000	1.095050	7.36918e+06	-56039.1	1005.82	-29740.2	0.000000	0.000000	7.095182	9.641631	NaN	0.000000	0.001662	0.001658	28.0791	9.733934	0.001609	6049.57	4.144493	-169.948	8.513583	1.094789	0.009972	0.009710	9.641631	6049.57	0.008776	0.007853	1227.77	62370.7
421	2.000000	1.097108	7.36918e+06	-56039.1	1005.82	-29740.2	0.000000	0.000000	7.097345	12.2042	NaN	0.000000	0.001697	0.001622	28.0791	12.0291	0.001750	6872.3	8.116675	-172.15	11.7129	1.096750	0.012029	0.011672	12.2042	6872.3	0.010697	0.009967	1224.48	62892.4
421	2.000000	1.099059	7.36918e+06	-56039.1	1005.82	-29740.2	0.000000	0.000000	7.099388	14.4641	NaN	0.000000	0.001662	0.001670	28.079	14.1974	0.001720	8253.32	8.486996	-176.362	14.09	1.098730	0.013980	0.013651	14.4641	8253.32	0.012666	0.012297	1176.21	67998.3
421	2.000000	1.101010	7.36918e+06	-56039.1	1005.82	-29740.2	0.000000	0.000000	7.101454	17.2426	NaN	0.000000	0.001653	0.001660	28.0793	16.2194	0.001769	9167.8	5.493509	-174.087	15.8312	1.100709	0.015932	0.015630	17.2426	9167.8	0.014521	0.014652	1176.82	69197.6
421	2.000000	1.103023	7.36918e+06	-56039.1	1005.82	-29740.2	0.000000	0.000000	7.103616	20.8739	NaN	0.000000	0.001647	0.001647	28.0811	17.846	0.001840	9698.74	7.454006	-176.063	20.3931	1.102692	0.017944	0.017613	20.8739	9698.74	0.016330	0.017100	1220.71	67763.1
421	2.000000	1.104988	7.36918e+06	-56039.1	1005.82	-29740.2	0.000000	0.000000	7.105682	23.3248	NaN	0.000000	0.001668	0.001673	28.083	19.8534	0.001880	10559.5	7.920027	-177.888	21.8973	1.104719	0.019909	0.019640	23.3248	10559.5	0.018253	0.019870	1173.85	68440.4
421	2.000000	1.107066	7.36918e+06	-56039.1	1005.82	-29740.2	0.000000	0.000000	7.107955	28.0579	NaN	0.000000	0.001647	0.001633	28.0802	21.6888	0.001781	12181.3	6.535847	-176.796	28.792	1.106741	0.021987	0.021662	28.0579	12181.3	0.020260	0.022952	1222.45	73460.4
421	2.000000	1.109001	7.36918e+06	-56039.1	1005.82	-29740.2	0.000000	0.000000	7.110074	32.5311	NaN	0.000000	0.001651	0.001662	28.0793	22.6428	0.001759	12873.4	3.996588	-175.312	31.1397	1.108675	0.023923	0.023596	32.5311	12873.4	0.022027	0.025829	1259.49	73183.7
421	2.000000	1.110981	7.36918e+06	-56039.1	1005.82	-29740.2	0.000000	0.000000	7.112266	37.6723	NaN	0.000000	0.001648	0.001674	28.0796	25.586	0.001852	13815.4	4.751128	-176.936	36.3086	1.110631	0.025902	0.025552	37.6723	13815.4	0.023857	0.028969	1300.42	74159.8
421	2.000000	1.112936	7.36918e+06	-56039.1	1005.82	-29740.2	0.000000	0.000000	7.114323	40.1514	NaN	0.000000	0.001680	0.001714	28.0792	26.2656	0.001814	14479.9	1.797925	-174.515	37.4341	1.112689	0.027858	0.027610	40.1514	14479.9	0.025778	0.032446	1237.47	73443.8
421	2.000000	1.114989	7.36918e+06	-56039.1	1005.82	-29740.2	0.000000	0.000000	7.116569	44.8411	NaN	0.000000	0.001638	0.001662	28.0797	29.1243	0.001755	16596.7	5.103099	-179.199	43.9274	1.114647	0.029911	0.029569	44.8411	16596.7	0.027884	0.036473	1229.45	79398.5
421	2.000000	1.117023	7.36918e+06	-56039.1	1005.82	-29740.2	0.000000	0.000000	7.118975	53.8761	NaN	0.000000	0.001665	0.001656	28.0791	31.4234	0.001842	17057.1	8.136847	178.55	54.022	1.116591	0.031945	0.031512	53.8761	17057.1	0.029576	0.039869	1351.33	78047.6
421	2.000000	1.118977	7.36918e+06	-56039.1	1005.82	-29740.2	0.000000	0.000000	7.121216	60.8721	NaN	0.000000	0.001670	0.001653	28.0802	32.9046	0.001801	18273.7	2.708846	-177.535	59.7411	1.118659	0.033899	0.033581	60.8721	18273.7	0.031400	0.043696	1393.07	79868.7
421	2.000000	1.120930	7.36918e+06	-56039.1	1005.82	-29740.2	0.000000	0.000000	7.123439	67.4511	NaN	0.000000	0.001691	0.001645	28.0805	35.3596	0.001686	20975.1	6.035713	178.444	65.5765	1.120590	0.035851	0.035512	67.4511	20975.1	0.033439	0.048175	1400.14	87311
421	2.000000	1.122919	7.36918e+06	-56039.1	1005.82	-29740.2	0.000000	0.000000	7.125660	73.074	NaN	0.000000	0.001675	0.001700	28.0803	37.0253	0.001738	21300.8	6.331234	177.022	71.308	1.122703	0.037840	0.037624	73.074	21300.8	0.035267	0.052370	1395.35	85041.3
421	2.000000	1.124945	7.36918e+06	-56039.1	1005.82	-29740.2	0.000000	0.000000	7.127922	78.8049	NaN	0.000000	0.001644	0.001654	28.0805	39.4154	0.001809	21786.3	4.932742	178.729	76.9482	1.124628	0.039867	0.039549	78.8049	21786.3	0.037154	0.056880	1385.47	83460
421	2.000000	1.127051	7.36918e+06	-56039.1	1005.82	-29740.2	0.000000	0.000000	7.130306	85.5529	NaN	0.000000	0.001683	0.001668	28.0803	41.292	0.001918	21534	3.629317	-178.896	88.7928	1.126743	0.041973	0.041664	85.5529	21534	0.038993	0.061452	1392.19	79365.4
421	2.000000	1.128962	7.36918e+06	-56039.1	1005.82	-29740.2	0.000000	0.000000	7.132718	97.7633	NaN	0.000000	0.001690	0.001693	28.0803	42.6076	0.001806	23591.1	4.283863	178.986	98.5506	1.128626	0.043883	0.043547	97.7633	23591.1	0.040775	0.066047	1480.21	83867.9
421	2.000000	1.130959	7.36918e+06	-56039.1	1005.82	-29740.2	0.000000	0.000000	7.135065	106.257	NaN	0.000000	0.001721	0.001705	28.0804	45.3636	0.001755	25843.3	3.857450	177.973	105.564	1.130743	0.045881	0.045665	106.257	25843.3	0.042797	0.071456	1487.02	88328.6
421	2.000000	1.132882	7.36918e+06	-56039.1	1005.82	-29740.2	0.000000	0.000000	7.137449	117.47	NaN	0.000000	0.001701	0.001684	28.08	46.0718	0.001750	26323.9	4.203922	178.447	113.936	1.132603	0.047803	0.047524	117.47	26323.9	0.044456	0.076051	1544.61	87210.8
421	2.000000	1.134914	7.36918e+06	-56039.1	1005.82	-29740.2	0.000000	0.000000	7.139854	126.521	NaN	0.000000	0.001655	0.001714	28.0804	49.0708	0.001809	27120.3	5.828338	176.919	124.081	1.134587	0.049835	0.049509	126.521	27120.3	0.046336	0.081426	1553.82	86833.4
421	2.000000	1.136948	7.36918e+06	-56039.1	1005.82	-29740.2	0.000000	0.000000	7.142404	139.071	NaN	0.000000	0.001645	0.001663	28.0803	51.1726	0.001893	27035.7	4.924324	177.984	137.309	1.136592	0.051869	0.051513	139.071	27035.7	0.048011	0.086365	1610.28	84051.1
421	2.000000	1.138963	7.36918e+06	-56039.1	1005.82	-29740.2	0.000000	0.000000	7.144786	147.996	NaN	0.000000	0.001654	0.001668	28.0801	52.691	0.001761	29917.1	6.399465	174.786	147.574	1.138541	0.053884	0.053462	147.996	29917.1	0.050174	0.092952	1592.18	89652.9
421	2.000000	1.140938	7.36918e+06	-56039.1	1005.82	-29740.2	0.000000	0.000000	7.146897	151.31	NaN	0.000000	0.001673	0.001694	28.0802	55.7168	0.001868	29821.6	3.196605	177.457	149.395	1.140741	0.055859	0.055662	151.31	29821.6	0.052054	0.098866	1530.45	86652.3
421	2.000000	1.142972	7.36918e+06	-56039.1	1005.82	-29740.2	0.000000	0.000000	7.149528	165.795	NaN	0.000000	0.001671	0.001692	28.0801	56.5628	0.001730	32703.2	7.537052	172.821	166.203	1.142704	0.057894	0.057626	165.795	32703.2	0.054091	0.105477	1571.85	91999.1
421	2.000000	1.144903	7.36918e+06	-56039.1	1005.82	-29740.2	0.000000	0.000000	7.151797	174.029	NaN	0.000000	0.001669	0.001672	28.0804	57.9457	0.001683	34420.7	2.833952	176.881	173.581	1.144613	0.059824	0.059534	174.029	34420.7	0.056032	0.111967	1554.29	93982.6
421	2.000000	1.146974	7.36918e+06	-56039.1	1005.82	-29740.2	0.000000	0.000000	7.154350	185.752	NaN	0.000000	0.001653	0.001706	28.0804	59.9256	0.001695	35358.7	0.783545	179.296	184.665	1.146584	0.061895	0.061505	185.752	35358.7	0.057955	0.118578	1566.5	93813.9
421	2.000000	1.148972	7.36918e+06	-56039.1	1005.82	-29740.2	0.000000	0.000000	7.156773	196.051	NaN	0.000000	0.001670	0.001676	28.0803	61.8743	0.001733	35708.2	7.511593	172.813	196.113	1.148469	0.063894	0.063390	196.051	35708.2	0.059776	0.125006	1568.33	92273.1
421	2.000000	1.150987	7.36918e+06	-56039.1	1005.82	-29740.2	0.000000	0.000000	7.159062	202.72	NaN	0.000000	0.001740	0.001689	28.0803	63.7627	0.001704	37408.7	3.851046	174.989	205.386	1.150630	0.065909	0.065551	202.72	37408.7	0.061844	0.132504	1529.91	93892.3
421	2.000000	1.152908	7.36918e+06	-56039.1	1005.82	-29740.2	0.000000	0.000000	7.161553	216.591	NaN	0.000000	0.001755	0.001683	28.0789	65.05	0.001794	36267.6	6.017785	173.408	216.447	1.152621	0.067829	0.067542	216.591	36267.6	0.063350	0.138096	1568.41	89166.4
421	2.000000	1.154957	7.36918e+06	-56039.1	1005.82	-29740.2	0.000000	0.000000	7.164086	228.341	NaN	0.000000	0.001735	0.001689	28.0791	67.5439	0.001816	37189.3	6.325102	173.032	229.05	1.154595	0.069879	0.069516	228.341	37189.3	0.065274	0.145395	1570.49	89108
421	2.000000	1.156886	7.36918e+06	-56039.1	1005.82	-29740.2	0.000000	0.000000	7.166227	233.505	NaN	0.000000	0.001754	0.001676	28.0788	68.5143	0.001790	38283.8	4.484080	174.907	229.437	1.156560	0.071808	0.071481	233.505	38283.8	0.067233	0.153016	1526.02	89416.9
421	2.000000	1.158842	7.36918e+06	-56039.1	1005.82	-29740.2	0.000000	0.000000	7.168742	247.091	NaN	0.000000	0.001725	0.001659	28.079	69.6511	0.001792	38877.2	3.443586	175.248	243.9	1.158668	0.073764	0.073589	247.091	38877.2	0.068997	0.160031	1544.02	88790.6
421	2.000000	1.160918	7.36918e+06	-56039.1	1005.82	-29740.2	0.000000	0.000000	7.170966	250.692	NaN	0.000000	0.001743	0.001667	28.0791	72.5229	0.001788	40551.8	3.277914	174.972	248.199	1.160800	0.075840	0.075721	250.692	40551.8	0.071203	0.169016	1483.24	90119.5
421	2.000000	1.162937	7.36918e+06	-56039.1	1005.82	-29740.2	0.000000	0.000000	7.173788	270.215	NaN	0.000000	0.001716	0.001684	28.079	73.5308	0.001780	41315.4	7.678521	171.524	270.962	1.162469	0.077858	0.077390	270.215	41315.4	0.072953	0.176308	1532.63	89897.7
421	2.000000	1.164922	7.36918e+06	-56039.1	1005.82	-29740.2	0.000000	0.000000	7.176343	284.065	NaN	0.000000	0.001719	0.001689	28.0793	75.2835	0.001744	43165.4	6.122329	172.784	285.3	1.164614	0.079843	0.079535	284.065	43165.4	0.074907	0.184621	1538.63	91784.2
421	2.000000	1.166939	7.36918e+06	-56039.1	1005.82	-29740.2	0.000000	0.000000	7.178718	292.767	NaN	0.000000	0.001763	0.001681	28.0788	78.6721	0.001788	43997	7.745905	170.486	291.248	1.166477	0.081860	0.081399	292.767	43997	0.076870	0.193150	1515.75	91463.7
421	2.000000	1.168876	7.36918e+06	-56039.1	1005.82	-29740.2	0.000000	0.000000	7.180956	300.071	NaN	0.000000	0.001715	0.001704	28.0789	79.6434	0.001847	43129.1	4.302967	173.461	297.94	1.168623	0.083798	0.083544	300.071	43129.1	0.078579	0.200728	1494.91	87950.6
421	2.000000	1.170812	7.36918e+06	-56039.1	1005.82	-29740.2	0.000000	0.000000	7.183567	316.494	NaN	0.000000	0.001725	0.001668	28.079	82.6401	0.001879	43979	4.008197	173.774	310.452	1.170580	0.085733	0.085501	316.494	43979	0.080336	0.208656	1516.82	87963.6
421	2.000000	1.172987	7.36918e+06	-56039.1	1005.82	-29740.2	0.000000	0.000000	7.186108	325.373	NaN	0.000000	0.001702	0.001675	28.0789	83.8222	0.001843	45469.1	5.780831	172.501	329.877	1.172549	0.087909	0.087471	325.373	45469.1	0.082542	0.218815	1486.98	88807.9
421	2.000000	1.174843	7.36918e+06	-56039.1	1005.82	-29740.2	0.000000	0.000000	7.188789	345.427	NaN	0.000000	0.001714	0.001697	28.0793	86.8809	0.001852	46903.6	7.887179	170.407	342.614	1.174523	0.089764	0.089444	345.427	46903.6	0.084241	0.226794	1523.08	89983.6
421	2.000000	1.176908	7.36918e+06	-56039.1	1005.82	-29740.2	0.000000	0.000000	7.191319	356.752	NaN	0.000000	0.001711	0.001708	28.0789	89.1486	0.001926	46286.1	8.923597	169.836	353.686	1.176550	0.091829	0.091471	356.752	46286.1	0.086048	0.235428	1515.34	87155.5
421	2.000000	1.178917	7.36918e+06	-56039.1	1005.82	-29740.2	0.000000	0.000000	7.193683	365.353	NaN	0.000000	0.001735	0.001695	28.079	89.7051	0.001819	49318.9	5.292490	172.15	364.963	1.178508	0.093839	0.093429	365.353	49318.9	0.088283	0.246310	1483.3	90791.6
421	2.000000	1.180890	7.36918e+06	-56039.1	1005.82	-29740.2	0.000000	0.000000	7.196123	376.726	NaN	0.000000	0.001720	0.001698	28.079	91.7033	0.001825	50249.8	1.821569	175.355	375.311	1.180697	0.095811	0.095618	376.726	50249.8	0.090188	0.255772	1472.89	90778
421	2.000000	1.182845	7.36918e+06	-56039.1	1005.82	-29740.2	0.000000	0.000000	7.198864	395.836	NaN	0.000000	0.001703	0.001695	28.0788	91.8657	0.001771	51875.2	2.062399	174.766	393.687	1.182526	0.097766	0.097447	395.836	51875.2	0.092043	0.265141	1492.92	92043.7
421	2.000000	1.184850	7.36918e+06	-56039.1	1005.82	-29740.2	0.000000	0.000000	7.201738	416.95	NaN	0.000000	0.001716	0.001700	28.0791	95.9165	0.001901	50459.3	9.028278	168.72	413.876	1.184510	0.099771	0.099432	416.95	50459.3	0.093574	0.272991	1527.34	88234.8
421	2.000000	1.186890	7.36918e+06	-56039.1	1005.82	-29740.2	0.000000	0.000000	7.204534	435.327	NaN	0.000000	0.001727	0.001687	28.0801	95.2648	0.001677	56803.2	4.664633	172.227	435.94	1.186610	0.101812	0.101531	435.327	56803.2	0.096064	0.285993	1522.16	97043.9
421	2.000000	1.188822	7.36918e+06	-56039.1	1005.82	-29740.2	0.000000	0.000000	7.207016	448.681	NaN	0.000000	0.001734	0.001655	28.0803	95.4382	0.001672	57076.3	0.940254	175.991	442.73	1.188422	0.103744	0.103343	448.681	57076.3	0.097848	0.295481	1518.48	95932.2
421	2.000000	1.190874	7.36918e+06	-56039.1	1005.82	-29740.2	0.000000	0.000000	7.209387	456.443	NaN	0.000000	0.001667	0.001652	28.08	100.6	0.001814	55458.7	3.514516	173.295	456.672	1.190635	0.105796	0.105557	456.443	55458.7	0.099623	0.305066	1496.21	91737.4
421	2.000000	1.191919	7.36918e+06	-56039.1	1005.82	-29740.2	0.000000	0.000000	7.210803	465.46	NaN	0.000000	0.001661	0.001659	28.0803	100.88	0.001811	55716.7	3.901960	173.111	466.9	1.191509	0.106841	0.106430	465.46	55716.7	0.100575	0.310266	1500.2	91388.5