File: remote_trans/data/nanoindenter/0828-1/data/Data_2025-08-06,11h17m57s/2025-07-22_16-23-58_1_1098.txt
2025-07-22, 16:23:58, 1
Index	Phase	Displacement	Time	Pos X	Pos Y	Pos Z	Rot A	Rot B	Piezo Z	Force A	Force B	Gripper	Voltage A	Voltage B	Temperature	Amplitude force	Amplitude pos	Stiffness	Phase shift	Phase excitation	Force A raw	Displacement raw	HMax	HMax raw	Real Force	Real Stiffness	Contact Depth	Area	Hardness	Reduced Mod.
[#]	[#]	[um]	[s]	[um]	[um]	[um]	[m°]	[m°]	[um]	[uN]	[uN]	[V]	[V]	[V]	[°C]	[uN]	[um]	[N/m]	[°]	[°]	[uN]	[um]	[um]	[um]	[uN]	[N/m]	[um]	[um^2]	[MPa]	[MPa]
1098	1.000000	0.002100	7.3758e+06	-55039.1	1055.82	-29741.4	0.000000	0.000000	6.002783	0.002729	NaN	0.000000	0.001707	0.001709	28.0827	0.030318	0.000916	33.0894	26.3167	-158.508	0.005995	0.000860	-1.991683	-1.992924	0.002729	33.0894	-1.991745	-3.769850E+26	-7.238719E-30	NaN
1098	1.000000	0.016069	7.3758e+06	-55039.1	1055.82	-29741.4	0.000000	0.000000	6.016752	-0.013593	NaN	0.000000	0.001681	0.001676	28.0822	0.019047	0.001625	11.7231	-140.326	20.4188	-0.074015	0.014732	-1.977714	-1.979051	-0.013593	11.7231	-1.976845	-2.392899E+26	5.680415E-29	NaN
1098	1.000000	0.030065	7.3758e+06	-55039.1	1055.82	-29741.4	0.000000	0.000000	6.030747	-0.019841	NaN	0.000000	0.001693	0.001678	28.0822	0.023963	0.001951	12.2821	70.0048	-164.966	-0.035462	0.028795	-1.963718	-1.964988	-0.019841	12.2821	-1.962507	-1.545096E+26	1.284158E-28	NaN
1098	1.000000	0.044091	7.3758e+06	-55039.1	1055.82	-29741.4	0.000000	0.000000	6.044777	0.080677	NaN	0.000000	0.001705	0.001721	28.0823	0.031252	0.002127	14.6905	13.6633	14.4378	0.052588	0.042730	-1.949693	-1.951054	0.080677	14.6905	-1.953812	-1.185061E+26	-6.807874E-28	NaN
1098	1.000000	0.058038	7.3758e+06	-55039.1	1055.82	-29741.4	0.000000	0.000000	6.058721	0.018262	NaN	0.000000	0.001706	0.001679	28.0818	0.077795	0.002005	38.8069	55.8218	-170.049	-0.035450	0.056784	-1.935746	-1.937000	0.018262	38.8069	-1.936099	-6.902611E+25	-2.645730E-28	NaN
1098	1.000000	0.072091	7.3758e+06	-55039.1	1055.82	-29741.4	0.000000	0.000000	6.072772	-0.054926	NaN	0.000000	0.001705	0.001703	28.082	0.101832	0.002095	48.5977	25.2983	12.6346	0.089588	0.070683	-1.921692	-1.923101	-0.054926	48.5977	-1.920845	-4.333404E+25	1.267500E-27	NaN
1098	1.000000	0.086071	7.3758e+06	-55039.1	1055.82	-29741.4	0.000000	0.000000	6.086754	0.005732	NaN	0.000000	0.001698	0.001759	28.0819	0.028423	0.001997	14.2331	-134.481	-164.771	0.097178	0.084789	-1.907713	-1.908994	0.005732	14.2331	-1.908015	-2.929282E+25	-1.956731E-28	NaN
1098	1.000000	0.100072	7.3758e+06	-55039.1	1055.82	-29741.4	0.000000	0.000000	6.100757	0.057388	NaN	0.000000	0.001717	0.001687	28.0819	0.079797	0.001860	42.8973	-153.222	14.9704	-0.007595	0.098685	-1.893712	-1.895098	0.057388	42.8973	-1.894715	-1.951836E+25	-2.940222E-27	NaN
1098	1.000000	0.114098	7.3758e+06	-55039.1	1055.82	-29741.4	0.000000	0.000000	6.114782	0.029587	NaN	0.000000	0.001693	0.001734	28.0808	0.094434	0.002145	44.0356	-143.338	-165.908	0.054389	0.112776	-1.879686	-1.881008	0.029587	44.0356	-1.880190	-1.252728E+25	-2.361806E-27	NaN
1098	1.000000	0.128091	7.3758e+06	-55039.1	1055.82	-29741.4	0.000000	0.000000	6.128776	0.061762	NaN	0.000000	0.001686	0.001689	28.0807	0.052547	0.002013	26.1074	175.757	12.8975	0.112264	0.126736	-1.865693	-1.867048	0.061762	26.1074	-1.867467	-8.494645E+24	-7.270684E-27	NaN
1098	1.000000	0.142112	7.3758e+06	-55039.1	1055.82	-29741.4	0.000000	0.000000	6.142794	-0.011373	NaN	0.000000	0.001695	0.001709	28.0807	0.043838	0.001972	22.2272	-168.971	-166.314	-0.011366	0.140750	-1.851672	-1.853033	-0.011373	22.2272	-1.851288	-5.182906E+24	2.194311E-27	NaN
1098	1.000000	0.156113	7.3758e+06	-55039.1	1055.82	-29741.4	0.000000	0.000000	6.156796	0.001605	NaN	0.000000	0.001692	0.001692	28.0807	0.036321	0.002035	17.8525	156.626	15.4755	0.007351	0.154768	-1.837671	-1.839016	0.001605	17.8525	-1.837738	-3.426437E+24	-4.682970E-28	NaN
1098	1.000000	0.170129	7.3758e+06	-55039.1	1055.82	-29741.4	0.000000	0.000000	6.170815	0.071222	NaN	0.000000	0.001681	0.001690	28.0805	0.102480	0.001923	53.2954	116.238	-164.21	0.046905	0.168821	-1.823655	-1.824963	0.071222	53.2954	-1.824657	-2.297766E+24	-3.099611E-26	NaN
1098	1.000000	0.184108	7.3758e+06	-55039.1	1055.82	-29741.4	0.000000	0.000000	6.184793	0.064730	NaN	0.000000	0.001717	0.001687	28.0807	0.148242	0.001929	76.8666	52.3991	12.5687	0.105000	0.182764	-1.809676	-1.811020	0.064730	76.8666	-1.810307	-1.482235E+24	-4.367052E-26	NaN
1098	1.000000	0.198146	7.3758e+06	-55039.1	1055.82	-29741.4	0.000000	0.000000	6.198829	0.007913	NaN	0.000000	0.001693	0.001699	28.0809	0.030083	0.001920	15.6703	-94.8347	-164.734	0.001984	0.196848	-1.795638	-1.796936	0.007913	15.6703	-1.796017	-9.578271E+23	-8.261678E-27	NaN
1098	1.000000	0.212125	7.3758e+06	-55039.1	1055.82	-29741.4	0.000000	0.000000	6.212806	-0.033178	NaN	0.000000	0.001714	0.001667	28.0807	0.076342	0.001912	39.9205	119.824	15.2422	0.030983	0.210739	-1.781659	-1.783045	-0.033178	39.9205	-1.781035	-6.059786E+23	5.475058E-26	NaN
1098	1.000000	0.226103	7.3758e+06	-55039.1	1055.82	-29741.4	0.000000	0.000000	6.226784	-0.029295	NaN	0.000000	0.001719	0.001723	28.0807	0.057943	0.001992	29.0858	-167.713	-165.435	0.063835	0.224840	-1.767681	-1.768944	-0.029295	29.0858	-1.766925	-3.937019E+23	7.440900E-26	NaN
1098	1.000000	0.240137	7.3758e+06	-55039.1	1055.82	-29741.4	0.000000	0.000000	6.240821	0.047933	NaN	0.000000	0.001726	0.001705	28.0821	0.080911	0.001843	43.8904	-27.9398	17.507	0.121872	0.238806	-1.753647	-1.754978	0.047933	43.8904	-1.754466	-2.690070E+23	-1.781836E-25	NaN
1098	1.000000	0.254165	7.3758e+06	-55039.1	1055.82	-29741.4	0.000000	0.000000	6.254845	-0.070907	NaN	0.000000	0.001721	0.001677	28.0822	0.118193	0.002004	58.9763	-82.0736	-166.304	0.038634	0.252818	-1.739619	-1.740966	-0.070907	58.9763	-1.738717	-1.662082E+23	4.266146E-25	NaN
1098	1.000000	0.268176	7.3758e+06	-55039.1	1055.82	-29741.4	0.000000	0.000000	6.268858	-0.018886	NaN	0.000000	0.001673	0.001671	28.0837	0.064063	0.002053	31.1971	35.7043	14.7334	0.141924	0.266811	-1.725608	-1.726973	-0.018886	31.1971	-1.725153	-1.097835E+23	1.720277E-25	NaN
1098	1.000000	0.282170	7.3758e+06	-55039.1	1055.82	-29741.4	0.000000	0.000000	6.282853	0.012249	NaN	0.000000	0.001668	0.001712	28.0832	0.091918	0.002028	45.3336	168.526	-162.5	0.001565	0.280885	-1.711614	-1.712899	0.012249	45.3336	-1.711817	-7.301344E+22	-1.677583E-25	NaN
1098	1.000000	0.296194	7.3758e+06	-55039.1	1055.82	-29741.4	0.000000	0.000000	6.296875	-0.031380	NaN	0.000000	0.001693	0.001724	28.0828	0.059037	0.001982	29.7882	21.431	15.68	-0.015586	0.294796	-1.697590	-1.698987	-0.031380	29.7882	-1.696800	-4.612409E+22	6.803338E-25	NaN
1098	1.000000	0.310179	7.3758e+06	-55039.1	1055.82	-29741.4	0.000000	0.000000	6.310861	-0.003198	NaN	0.000000	0.001727	0.001699	28.0827	0.084554	0.001816	46.5722	-132.574	-167.52	-0.023393	0.308889	-1.683605	-1.684895	-0.003198	46.5722	-1.683554	-3.075666E+22	1.039923E-25	NaN
1098	1.000000	0.324162	7.3758e+06	-55039.1	1055.82	-29741.4	0.000000	0.000000	6.324850	0.133836	NaN	0.000000	0.001685	0.001689	28.0821	0.007626	0.002165	3.522331	50.2554	11.5222	0.079064	0.322888	-1.669622	-1.670895	0.133836	3.522331	-1.698119	-4.802323E+22	-2.786894E-24	NaN
1098	1.000000	0.338189	7.3758e+06	-55039.1	1055.82	-29741.4	0.000000	0.000000	6.338875	0.080913	NaN	0.000000	0.001730	0.001737	28.0822	0.070621	0.001883	37.5112	-13.9271	-169.887	0.041232	0.336834	-1.655595	-1.656950	0.080913	37.5112	-1.657212	-1.373704E+22	-5.890137E-24	NaN
1098	1.000000	0.352200	7.3758e+06	-55039.1	1055.82	-29741.4	0.000000	0.000000	6.352885	0.053635	NaN	0.000000	0.001685	0.001736	28.0827	0.032943	0.002093	15.7404	-27.693	7.903213	0.022766	0.350832	-1.641584	-1.642952	0.053635	15.7404	-1.644139	-9.207175E+21	-5.825394E-24	NaN
1098	1.000000	0.366187	7.3758e+06	-55039.1	1055.82	-29741.4	0.000000	0.000000	6.366868	-0.051653	NaN	0.000000	0.001645	0.001688	28.0824	0.102910	0.001948	52.8254	145.214	-165.963	-0.113957	0.364875	-1.627597	-1.628909	-0.051653	52.8254	-1.626863	-5.425670E+21	9.520047E-24	NaN
1098	1.000000	0.380229	7.3758e+06	-55039.1	1055.82	-29741.4	0.000000	0.000000	6.380914	0.041903	NaN	0.000000	0.001668	0.001723	28.0811	0.076901	0.001986	38.7138	81.4809	12.9077	0.061487	0.378889	-1.613555	-1.614895	0.041903	38.7138	-1.614366	-3.700708E+21	-1.132295E-23	NaN
1098	1.000000	0.394211	7.3758e+06	-55039.1	1055.82	-29741.4	0.000000	0.000000	6.394895	0.031751	NaN	0.000000	0.001719	0.001718	28.0812	0.043875	0.002029	21.6188	118.469	-165.908	0.016909	0.392953	-1.599573	-1.600831	0.031751	21.6188	-1.600674	-2.433281E+21	-1.304848E-23	NaN
1098	1.000000	0.408239	7.3758e+06	-55039.1	1055.82	-29741.4	0.000000	0.000000	6.408922	-0.004735	NaN	0.000000	0.001701	0.001688	28.0812	0.080761	0.001965	41.1071	163.367	14.3968	0.015231	0.406846	-1.585544	-1.586937	-0.004735	41.1071	-1.585458	-1.526844E+21	3.101443E-24	NaN
1098	1.000000	0.422230	7.3758e+06	-55039.1	1055.82	-29741.4	0.000000	0.000000	6.422915	0.035660	NaN	0.000000	0.001706	0.001669	28.0812	0.077968	0.001969	39.6021	130.475	-164.698	0.005296	0.420901	-1.571553	-1.572883	0.035660	39.6021	-1.572229	-1.018106E+21	-3.502577E-23	NaN
1098	1.000000	0.436219	7.3758e+06	-55039.1	1055.82	-29741.4	0.000000	0.000000	6.436904	0.063163	NaN	0.000000	0.001711	0.001718	28.081	0.035877	0.002068	17.3507	87.2457	15.6382	0.042060	0.434877	-1.557565	-1.558907	0.063163	17.3507	-1.560295	-7.063239E+20	-8.942508E-23	NaN
1098	1.000000	0.450220	7.3758e+06	-55039.1	1055.82	-29741.4	0.000000	0.000000	6.450901	-0.032401	NaN	0.000000	0.001717	0.001721	28.0809	0.067029	0.002048	32.7234	-117.478	-164.283	-0.064189	0.448958	-1.543564	-1.544826	-0.032401	32.7234	-1.542822	-4.134782E+20	7.836090E-23	NaN
1098	1.000000	0.464219	7.3758e+06	-55039.1	1055.82	-29741.4	0.000000	0.000000	6.464903	0.041006	NaN	0.000000	0.001743	0.001695	28.0813	0.018433	0.002000	9.214725	-65.2064	12.6471	-0.003060	0.462860	-1.529565	-1.530924	0.041006	9.214725	-1.532903	-3.050832E+20	-1.344101E-22	NaN
1098	1.000000	0.478261	7.3758e+06	-55039.1	1055.82	-29741.4	0.000000	0.000000	6.478949	0.131880	NaN	0.000000	0.001754	0.001695	28.0808	0.048309	0.002035	23.7432	113.339	-168.415	0.080668	0.476882	-1.515523	-1.516902	0.131880	23.7432	-1.519689	-2.034695E+20	-6.481556E-22	NaN
1098	1.000000	0.492273	7.3758e+06	-55039.1	1055.82	-29741.4	0.000000	0.000000	6.492954	-0.044085	NaN	0.000000	0.001723	0.001682	28.081	0.102809	0.002071	49.6493	50.023	17.0835	-0.041584	0.490935	-1.501510	-1.502849	-0.044085	49.6493	-1.500844	-1.141719E+20	3.861284E-22	NaN
1098	1.000000	0.506248	7.3758e+06	-55039.1	1055.82	-29741.4	0.000000	0.000000	6.506930	-0.003577	NaN	0.000000	0.001791	0.001726	28.0811	0.113782	0.002089	54.4725	-96.3188	-165.852	0.025722	0.504985	-1.487536	-1.488799	-0.003577	54.4725	-1.487487	-7.579488E+19	4.719138E-23	NaN
1098	1.000000	0.520240	7.3758e+06	-55039.1	1055.82	-29741.4	0.000000	0.000000	6.520926	0.075110	NaN	0.000000	0.001747	0.001745	28.0822	0.055033	0.001963	28.0416	156.631	12.5386	-0.005871	0.518866	-1.473544	-1.474918	0.075110	28.0416	-1.475553	-5.256036E+19	-1.429024E-21	NaN
1098	1.000000	0.534273	7.3758e+06	-55039.1	1055.82	-29741.4	0.000000	0.000000	6.534958	0.052310	NaN	0.000000	0.001763	0.001685	28.082	0.113033	0.002094	53.9766	-78.5372	-166.908	0.039068	0.532966	-1.459511	-1.460818	0.052310	53.9766	-1.460238	-3.285402E+19	-1.592186E-21	NaN
1098	1.000000	0.548289	7.3758e+06	-55039.1	1055.82	-29741.4	0.000000	0.000000	6.548970	-0.023448	NaN	0.000000	0.001741	0.001698	28.0821	0.035449	0.002035	17.4203	-63.1282	15.0703	0.063840	0.546889	-1.445495	-1.446895	-0.023448	17.4203	-1.444486	-2.026042E+19	1.157321E-21	NaN
1098	1.000000	0.562290	7.3758e+06	-55039.1	1055.82	-29741.4	0.000000	0.000000	6.562973	0.010248	NaN	0.000000	0.001734	0.001718	28.082	0.091748	0.002024	45.3343	-169.364	-167.817	-0.047677	0.560978	-1.431493	-1.432806	0.010248	45.3343	-1.431663	-1.366815E+19	-7.497481E-22	NaN
1098	1.000000	0.576277	7.3758e+06	-55039.1	1055.82	-29741.4	0.000000	0.000000	6.576962	0.049726	NaN	0.000000	0.001730	0.001716	28.0821	0.110148	0.001962	56.1387	-102.588	9.514464	0.077224	0.574976	-1.417507	-1.418808	0.049726	56.1387	-1.418171	-9.032604E+18	-5.505200E-21	NaN
1098	1.000000	0.590270	7.3758e+06	-55039.1	1055.82	-29741.4	0.000000	0.000000	6.590953	0.007005	NaN	0.000000	0.001718	0.001720	28.0819	0.172934	0.002143	80.7015	69.3651	-166.623	-0.031579	0.588973	-1.403513	-1.404810	0.007005	80.7015	-1.403579	-5.770310E+18	-1.213897E-21	NaN
1098	1.000000	0.604276	7.3758e+06	-55039.1	1055.82	-29741.4	0.000000	0.000000	6.604961	0.062819	NaN	0.000000	0.001675	0.001716	28.0819	0.050989	0.001941	26.2654	9.355031	10.8026	0.019323	0.602950	-1.389508	-1.390834	0.062819	26.2654	-1.391302	-3.957592E+18	-1.587300E-20	NaN
1098	1.000000	0.618340	7.3758e+06	-55039.1	1055.82	-29741.4	0.000000	0.000000	6.619023	0.011358	NaN	0.000000	0.001696	0.001691	28.082	0.072248	0.001856	38.924	108.614	-163.49	-0.107372	0.617015	-1.375444	-1.376769	0.011358	38.924	-1.375663	-2.447747E+18	-4.640227E-21	NaN
1098	1.000000	0.632305	7.3758e+06	-55039.1	1055.82	-29741.4	0.000000	0.000000	6.632989	0.027303	NaN	0.000000	0.001673	0.001714	28.0819	0.127165	0.002052	61.9715	123.008	11.9729	0.018266	0.630934	-1.361479	-1.362850	0.027303	61.9715	-1.361809	-1.599080E+18	-1.707410E-20	NaN
1098	1.000000	0.646305	7.3758e+06	-55039.1	1055.82	-29741.4	0.000000	0.000000	6.646988	0.007482	NaN	0.000000	0.001681	0.001703	28.0818	0.082710	0.002050	40.3382	-84.0591	-166.056	0.037611	0.644964	-1.347479	-1.348820	0.007482	40.3382	-1.347618	-1.033777E+18	-7.237610E-21	NaN
1098	1.000000	0.660298	7.3758e+06	-55039.1	1055.82	-29741.4	0.000000	0.000000	6.660981	0.011131	NaN	0.000000	0.001692	0.001734	28.0807	0.020591	0.001839	11.1949	-102.298	12.7164	0.117832	0.658945	-1.333486	-1.334839	0.011131	11.1949	-1.334232	-6.849873E+17	-1.624987E-20	NaN
1098	1.000000	0.674335	7.3758e+06	-55039.1	1055.82	-29741.4	0.000000	0.000000	6.675018	0.011455	NaN	0.000000	0.001674	0.001727	28.0808	0.057380	0.002056	27.9133	162.293	-165.531	0.046742	0.673029	-1.319449	-1.320755	0.011455	27.9133	-1.319757	-4.388887E+17	-2.610080E-20	NaN
1098	1.000000	0.688358	7.3758e+06	-55039.1	1055.82	-29741.4	0.000000	0.000000	6.689043	0.048250	NaN	0.000000	0.001647	0.001709	28.0808	0.067238	0.001991	33.7633	89.3705	11.089	0.049452	0.686952	-1.305426	-1.306832	0.048250	33.7633	-1.306497	-2.918882E+17	-1.653034E-19	NaN
1098	1.000000	0.702322	7.3758e+06	-55039.1	1055.82	-29741.4	0.000000	0.000000	6.703007	0.065187	NaN	0.000000	0.001691	0.001711	28.081	0.047712	0.001962	24.3234	3.623712	-164.011	0.062134	0.701006	-1.291462	-1.292777	0.065187	24.3234	-1.293472	-1.955041E+17	-3.334313E-19	NaN
1098	1.000000	0.716351	7.3758e+06	-55039.1	1055.82	-29741.4	0.000000	0.000000	6.717037	0.074475	NaN	0.000000	0.001696	0.001695	28.081	0.104311	0.002015	51.7723	44.9405	16.7437	0.057960	0.714960	-1.277433	-1.278824	0.074475	51.7723	-1.278511	-1.233633E+17	-6.037009E-19	NaN
1098	1.000000	0.730351	7.3758e+06	-55039.1	1055.82	-29741.4	0.000000	0.000000	6.731033	-0.008100	NaN	0.000000	0.001685	0.001716	28.0808	0.073083	0.002015	36.2726	143.204	-166.87	-0.006258	0.729082	-1.263433	-1.264701	-0.008100	36.2726	-1.263266	-7.715114E+16	1.049827E-19	NaN
1098	1.000000	0.744337	7.3758e+06	-55039.1	1055.82	-29741.4	0.000000	0.000000	6.745020	-0.012990	NaN	0.000000	0.001709	0.001718	28.0807	0.042116	0.001923	21.8993	168.017	13.7705	-0.095809	0.742989	-1.249446	-1.250795	-0.012990	21.8993	-1.249001	-4.972372E+16	2.612507E-19	NaN
1098	1.000000	0.758367	7.3758e+06	-55039.1	1055.82	-29741.4	0.000000	0.000000	6.759049	-0.020410	NaN	0.000000	0.001703	0.001703	28.0807	0.046025	0.001940	23.722	161.026	-167.819	-0.020285	0.757022	-1.235416	-1.236761	-0.020410	23.722	-1.234771	-3.207614E+16	6.363098E-19	NaN
1098	1.000000	0.772380	7.3758e+06	-55039.1	1055.82	-29741.4	0.000000	0.000000	6.773062	-0.016115	NaN	0.000000	0.001731	0.001706	28.0809	0.123519	0.002019	61.1912	8.407246	16.608	-0.029230	0.771056	-1.221404	-1.222728	-0.016115	61.1912	-1.221207	-2.111813E+16	7.630798E-19	NaN
1098	1.000000	0.786396	7.3758e+06	-55039.1	1055.82	-29741.4	0.000000	0.000000	6.787079	0.003539	NaN	0.000000	0.001732	0.001705	28.082	0.083254	0.002022	41.1726	82.8833	-166.336	-0.039901	0.785087	-1.207387	-1.208696	0.003539	41.1726	-1.207452	-1.382056E+16	-2.560322E-19	NaN
1098	1.000000	0.800388	7.3758e+06	-55039.1	1055.82	-29741.4	0.000000	0.000000	6.801074	0.062368	NaN	0.000000	0.001661	0.001691	28.082	0.054227	0.001993	27.2114	169.84	15.365	0.041828	0.799075	-1.193395	-1.194709	0.062368	27.2114	-1.195114	-9.447611E+15	-6.601425E-18	NaN
1098	1.000000	0.814399	7.3758e+06	-55039.1	1055.82	-29741.4	0.000000	0.000000	6.815082	-0.005960	NaN	0.000000	0.001690	0.001725	28.0821	0.118601	0.002007	59.1086	-176.753	-164.793	0.025151	0.813041	-1.179384	-1.180742	-0.005960	59.1086	-1.179309	-5.802431E+15	1.027173E-18	NaN
1098	1.000000	0.828403	7.3758e+06	-55039.1	1055.82	-29741.4	0.000000	0.000000	6.829087	0.040612	NaN	0.000000	0.001677	0.001749	28.0822	0.094333	0.002067	45.6461	74.7611	14.3958	0.038406	0.827070	-1.165381	-1.166713	0.040612	45.6461	-1.166048	-3.854183E+15	-1.053711E-17	NaN
1098	1.000000	0.842417	7.3758e+06	-55039.1	1055.82	-29741.4	0.000000	0.000000	6.843100	0.008852	NaN	0.000000	0.001696	0.001740	28.082	0.056019	0.001975	28.357	102.892	-165.467	-0.003370	0.841093	-1.151367	-1.152691	0.008852	28.357	-1.151601	-2.467669E+15	-3.587289E-18	NaN
1098	1.000000	0.856410	7.3758e+06	-55039.1	1055.82	-29741.4	0.000000	0.000000	6.857092	-0.017484	NaN	0.000000	0.001676	0.001728	28.0821	0.094370	0.002013	46.8713	-19.8409	13.0408	-0.030025	0.855049	-1.137374	-1.138734	-0.017484	46.8713	-1.137094	-1.576786E+15	1.108844E-17	NaN
1098	1.000000	0.870408	7.3758e+06	-55039.1	1055.82	-29741.4	0.000000	0.000000	6.871089	-0.021355	NaN	0.000000	0.001663	0.001668	28.0819	0.024242	0.002015	12.0292	-13.4069	-167.573	0.020073	0.869109	-1.123376	-1.124675	-0.021355	12.0292	-1.122045	-9.906141E+14	2.155775E-17	NaN
1098	1.000000	0.884425	7.3758e+06	-55039.1	1055.82	-29741.4	0.000000	0.000000	6.885107	-0.016601	NaN	0.000000	0.001685	0.001683	28.0821	0.101764	0.001907	53.3534	10.0965	14.6269	-0.102761	0.883017	-1.109359	-1.110766	-0.016601	53.3534	-1.109126	-6.645875E+14	2.497874E-17	NaN
1098	1.000000	0.898406	7.3758e+06	-55039.1	1055.82	-29741.4	0.000000	0.000000	6.899090	0.017429	NaN	0.000000	0.001692	0.001710	28.0822	0.034753	0.002057	16.8988	85.1303	-168.628	0.052578	0.897063	-1.095377	-1.096721	0.017429	16.8988	-1.096151	-4.450383E+14	-3.916324E-17	NaN
1098	1.000000	0.912412	7.3758e+06	-55039.1	1055.82	-29741.4	0.000000	0.000000	6.913098	0.061035	NaN	0.000000	0.001700	0.001691	28.082	0.013551	0.001910	7.093206	40.0117	14.0907	0.076435	0.911043	-1.081371	-1.082740	0.061035	7.093206	-1.087825	-3.440376E+14	-1.774080E-16	NaN
1098	1.000000	0.926455	7.3758e+06	-55039.1	1055.82	-29741.4	0.000000	0.000000	6.927138	0.018335	NaN	0.000000	0.001669	0.001715	28.0807	0.030232	0.002114	14.3035	-68.6409	-168.073	0.042933	0.925114	-1.067329	-1.068670	0.018335	14.3035	-1.068290	-1.880253E+14	-9.751445E-17	NaN
1098	1.000000	0.940447	7.3758e+06	-55039.1	1055.82	-29741.4	0.000000	0.000000	6.941128	-0.031189	NaN	0.000000	0.001688	0.001709	28.081	0.105875	0.001899	55.7462	114.053	12.397	-0.036327	0.939082	-1.053337	-1.054701	-0.031189	55.7462	-1.052917	-1.168505E+14	2.669141E-16	NaN
1098	1.000000	0.954455	7.3758e+06	-55039.1	1055.82	-29741.4	0.000000	0.000000	6.955139	0.034187	NaN	0.000000	0.001684	0.001702	28.0809	0.044677	0.002012	22.2025	163.665	-170.141	0.084933	0.953135	-1.039329	-1.040649	0.034187	22.2025	-1.040484	-7.951975E+13	-4.299212E-16	NaN
1098	1.000000	0.968460	7.3758e+06	-55039.1	1055.82	-29741.4	0.000000	0.000000	6.969144	0.032429	NaN	0.000000	0.001649	0.001713	28.0807	0.056207	0.002111	26.6204	117.807	13.4045	0.051789	0.967090	-1.025323	-1.026693	0.032429	26.6204	-1.026237	-5.115193E+13	-6.339838E-16	NaN
1098	1.000000	0.982435	7.3758e+06	-55039.1	1055.82	-29741.4	0.000000	0.000000	6.983119	0.040148	NaN	0.000000	0.001699	0.001719	28.0813	0.016489	0.002005	8.222541	-163.745	-162.516	-0.013074	0.981127	-1.011349	-1.012657	0.040148	8.222541	-1.015011	-3.612575E+13	-1.111346E-15	NaN
1098	1.000000	0.996467	7.3758e+06	-55039.1	1055.82	-29741.4	0.000000	0.000000	6.997152	0.050292	NaN	0.000000	0.001696	0.001701	28.081	0.013727	0.002010	6.827919	-115.165	12.733	-0.001501	0.995060	-0.997316	-0.998724	0.050292	6.827919	-1.002841	-2.477492E+13	-2.029960E-15	NaN
1098	1.000000	1.010479	7.3758e+06	-55039.1	1055.82	-29741.4	0.000000	0.000000	7.011161	-0.022221	NaN	0.000000	0.001694	0.001688	28.0809	0.125371	0.001985	63.1599	-69.2599	-166.266	-0.053326	1.009167	-0.983305	-0.984617	-0.022221	63.1599	-0.983041	-1.340840E+13	1.657210E-15	NaN
1098	1.000000	1.024480	7.3758e+06	-55039.1	1055.82	-29741.4	0.000000	0.000000	7.025166	0.073816	NaN	0.000000	0.001714	0.001675	28.0816	0.056320	0.002044	27.5494	73.061	14.1023	0.024628	1.023100	-0.969303	-0.970684	0.073816	27.5494	-0.971313	-9.318761E+12	-7.921218E-15	NaN
1098	1.000000	1.038444	7.3758e+06	-55039.1	1055.82	-29741.4	0.000000	0.000000	7.039128	0.032208	NaN	0.000000	0.001705	0.001716	28.0807	0.055108	0.002075	26.5613	103.598	-166.035	0.065346	1.037150	-0.955340	-0.956634	0.032208	26.5613	-0.956249	-5.838454E+12	-5.516572E-15	NaN
1098	1.000000	1.052496	7.3758e+06	-55039.1	1055.82	-29741.4	0.000000	0.000000	7.053179	0.007178	NaN	0.000000	0.001699	0.001725	28.0807	0.070344	0.002058	34.1754	108.308	14.8408	0.014332	1.051140	-0.941288	-0.942644	0.007178	34.1754	-0.941445	-3.686682E+12	-1.946947E-15	NaN
1098	1.000000	1.066479	7.3758e+06	-55039.1	1055.82	-29741.4	0.000000	0.000000	7.067164	0.046829	NaN	0.000000	0.001708	0.001707	28.082	0.055524	0.002002	27.7302	92.6571	-165.504	0.005887	1.065179	-0.927305	-0.928605	0.046829	27.7302	-0.928571	-2.471226E+12	-1.894987E-14	NaN
1098	1.000000	1.080471	7.3758e+06	-55039.1	1055.82	-29741.4	0.000000	0.000000	7.081155	0.030820	NaN	0.000000	0.001730	0.001707	28.0823	0.060894	0.001895	32.135	-171.782	13.7766	0.097195	1.079132	-0.913313	-0.914651	0.030820	32.135	-0.914032	-1.572609E+12	-1.959771E-14	NaN
1098	1.000000	1.094499	7.3758e+06	-55039.1	1055.82	-29741.4	0.000000	0.000000	7.095181	-0.020989	NaN	0.000000	0.001729	0.001701	28.0821	0.094480	0.001952	48.4119	44.2613	-167.726	-0.065296	1.093187	-0.899284	-0.900597	-0.020989	48.4119	-0.898959	-9.840152E+11	2.132955E-14	NaN
1098	1.000000	1.108510	7.3758e+06	-55039.1	1055.82	-29741.4	0.000000	0.000000	7.109194	0.026653	NaN	0.000000	0.001725	0.001665	28.0822	0.011531	0.001945	5.927342	-136.566	10.3231	0.047136	1.107195	-0.885273	-0.886589	0.026653	5.927342	-0.888646	-7.138570E+11	-3.733699E-14	NaN
1098	1.000000	1.122495	7.3758e+06	-55039.1	1055.82	-29741.4	0.000000	0.000000	7.123180	0.064256	NaN	0.000000	0.001705	0.001706	28.0822	0.087852	0.001987	44.2133	113.49	-169.141	0.001028	1.121267	-0.871289	-0.872517	0.064256	44.2133	-0.872379	-4.301536E+11	-1.493799E-13	NaN
1098	1.000000	1.136518	7.3758e+06	-55039.1	1055.82	-29741.4	0.000000	0.000000	7.137206	0.112737	NaN	0.000000	0.001704	0.001688	28.082	0.097476	0.001807	53.9349	59.7649	11.6731	0.063720	1.135091	-0.857265	-0.858693	0.112737	53.9349	-0.858833	-2.820505E+11	-3.997043E-13	NaN
1098	1.000000	1.150553	7.3758e+06	-55039.1	1055.82	-29741.4	0.000000	0.000000	7.151234	-0.058192	NaN	0.000000	0.001775	0.001667	28.0822	0.196902	0.001978	99.5485	150.86	-168.03	0.003657	1.149247	-0.843230	-0.844537	-0.058192	99.5485	-0.842792	-1.710464E+11	3.402104E-13	NaN
1098	1.000000	1.164549	7.3758e+06	-55039.1	1055.82	-29741.4	0.000000	0.000000	7.165230	-0.043239	NaN	0.000000	0.001759	0.001719	28.082	0.072528	0.001969	36.8354	40.9945	17.7374	-0.103599	1.163151	-0.829235	-0.830633	-0.043239	36.8354	-0.828355	-1.090144E+11	3.966377E-13	NaN
1098	1.000000	1.178539	7.3758e+06	-55039.1	1055.82	-29741.4	0.000000	0.000000	7.179219	-0.051241	NaN	0.000000	0.001764	0.001669	28.0821	0.116726	0.002085	55.9707	45.9999	-168.685	-0.149382	1.177224	-0.815245	-0.816559	-0.051241	55.9707	-0.814558	-7.086149E+10	7.231112E-13	NaN
1098	1.000000	1.192558	7.3758e+06	-55039.1	1055.82	-29741.4	0.000000	0.000000	7.193243	0.067745	NaN	0.000000	0.001736	0.001704	28.0818	0.075653	0.001972	38.3582	-160.227	16.4265	0.002160	1.191187	-0.801226	-0.802596	0.067745	38.3582	-0.802550	-4.869449E+10	-1.391225E-12	NaN
1098	1.000000	1.206537	7.3758e+06	-55039.1	1055.82	-29741.4	0.000000	0.000000	7.207220	0.013321	NaN	0.000000	0.001755	0.001681	28.081	0.086703	0.001941	44.666	29.7771	-167.976	0.007738	1.205253	-0.787247	-0.788530	0.013321	44.666	-0.787471	-3.038995E+10	-4.383494E-13	NaN
1098	1.000000	1.220533	7.3758e+06	-55039.1	1055.82	-29741.4	0.000000	0.000000	7.221220	0.098922	NaN	0.000000	0.001737	0.001680	28.0809	0.007834	0.002109	3.714953	-102.776	12.6345	0.027609	1.219160	-0.773251	-0.774624	0.098922	3.714953	-0.793222	-3.637797E+10	-2.719293E-12	NaN
1098	1.000000	1.234529	7.3758e+06	-55039.1	1055.82	-29741.4	0.000000	0.000000	7.235212	0.005723	NaN	0.000000	0.001722	0.001704	28.0809	0.044351	0.002028	21.8722	160.597	-164.597	-0.032992	1.233242	-0.759254	-0.760541	0.005723	21.8722	-0.759451	-1.264233E+10	-4.526926E-13	NaN
1098	1.000000	1.248564	7.3758e+06	-55039.1	1055.82	-29741.4	0.000000	0.000000	7.249247	0.010406	NaN	0.000000	0.001748	0.001720	28.0808	0.063445	0.002077	30.5521	6.803460	15.3447	0.012165	1.247265	-0.745220	-0.746518	0.010406	30.5521	-0.745475	-8.158598E+9	-1.275466E-12	NaN
1098	1.000000	1.262555	7.3758e+06	-55039.1	1055.82	-29741.4	0.000000	0.000000	7.263239	0.042978	NaN	0.000000	0.001712	0.001711	28.0807	0.112237	0.001960	57.2578	-128.658	-170.134	0.109438	1.261259	-0.731229	-0.732524	0.042978	57.2578	-0.731792	-5.311633E+9	-8.091227E-12	NaN
1098	1.000000	1.276595	7.3758e+06	-55039.1	1055.82	-29741.4	0.000000	0.000000	7.277278	-0.005669	NaN	0.000000	0.001745	0.001713	28.0809	0.100428	0.001961	51.2027	-76.938	13.0248	-0.051116	1.275198	-0.717189	-0.718586	-0.005669	51.2027	-0.717106	-3.349613E+9	1.692415E-12	NaN
1098	1.000000	1.290564	7.3758e+06	-55039.1	1055.82	-29741.4	0.000000	0.000000	7.291248	0.023048	NaN	0.000000	0.001714	0.001710	28.0809	0.128127	0.001927	66.4743	-146.148	-168.395	0.020355	1.289293	-0.703219	-0.704491	0.023048	66.4743	-0.703479	-2.182942E+9	-1.055842E-11	NaN
1098	1.000000	1.304605	7.3758e+06	-55039.1	1055.82	-29741.4	0.000000	0.000000	7.305289	0.045848	NaN	0.000000	0.001739	0.001703	28.0807	0.101086	0.001795	56.3267	-69.7435	13.5181	0.070662	1.303190	-0.689179	-0.690594	0.045848	56.3267	-0.689789	-1.419186E+9	-3.230576E-11	NaN
1098	1.000000	1.318594	7.3758e+06	-55039.1	1055.82	-29741.4	0.000000	0.000000	7.319277	0.002782	NaN	0.000000	0.001677	0.001705	28.0806	0.069637	0.001899	36.6708	33.6872	-164.476	-0.032331	1.317285	-0.675190	-0.676499	0.002782	36.6708	-0.675247	-8.978172E+8	-3.098780E-12	NaN
1098	1.000000	1.332605	7.3758e+06	-55039.1	1055.82	-29741.4	0.000000	0.000000	7.333287	-0.015538	NaN	0.000000	0.001653	0.001698	28.082	0.062569	0.001846	33.894	-104.703	12.2582	-0.076747	1.331269	-0.661178	-0.662515	-0.015538	33.894	-0.660835	-5.700321E+8	2.725755E-11	NaN
1098	1.000000	1.346610	7.3758e+06	-55039.1	1055.82	-29741.4	0.000000	0.000000	7.347294	0.037962	NaN	0.000000	0.001668	0.001673	28.0819	0.129299	0.002036	63.4974	-0.106686	-163.985	-0.019019	1.345267	-0.647174	-0.648517	0.037962	63.4974	-0.647622	-3.756989E+8	-1.010441E-10	NaN
1098	1.000000	1.360613	7.3758e+06	-55039.1	1055.82	-29741.4	0.000000	0.000000	7.361296	0.008406	NaN	0.000000	0.001648	0.001711	28.082	0.005050	0.002063	2.447918	-85.7388	12.4832	0.062381	1.359241	-0.633171	-0.634542	0.008406	2.447918	-0.635746	-2.581725E+8	-3.255862E-11	NaN
1098	1.000000	1.374585	7.3758e+06	-55039.1	1055.82	-29741.4	0.000000	0.000000	7.375270	0.062110	NaN	0.000000	0.001672	0.001724	28.0822	0.070538	0.002085	33.8242	49.5804	-166.694	0.080319	1.373364	-0.619199	-0.620420	0.062110	33.8242	-0.620576	-1.597908E+8	-3.886935E-10	NaN
1098	1.000000	1.388648	7.3758e+06	-55039.1	1055.82	-29741.4	0.000000	0.000000	7.389329	-0.043978	NaN	0.000000	0.001674	0.001671	28.0821	0.019500	0.002004	9.730916	-26.7438	17.1197	-0.007059	1.387268	-0.605135	-0.606516	-0.043978	9.730916	-0.601746	-8.800402E+7	4.997229E-10	NaN
1098	1.000000	1.402628	7.3758e+06	-55039.1	1055.82	-29741.4	0.000000	0.000000	7.403310	-0.008482	NaN	0.000000	0.001686	0.001702	28.0819	0.088827	0.001968	45.1319	-18.7065	-168.016	-0.015691	1.401361	-0.591156	-0.592423	-0.008482	45.1319	-0.591015	-6.261151E+7	1.354709E-10	NaN
1098	1.000000	1.416636	7.3758e+06	-55039.1	1055.82	-29741.4	0.000000	0.000000	7.417321	0.052487	NaN	0.000000	0.001679	0.001717	28.0819	0.134064	0.001947	68.8481	44.2963	14.0734	0.064324	1.415289	-0.577148	-0.578495	0.052487	68.8481	-0.577719	-4.104373E+7	-1.278807E-9	NaN
1098	1.000000	1.430629	7.3758e+06	-55039.1	1055.82	-29741.4	0.000000	0.000000	7.431312	-0.001421	NaN	0.000000	0.001646	0.001682	28.082	0.050525	0.002026	24.9396	-40.1928	-165.775	-0.001729	1.429319	-0.563154	-0.564465	-0.001421	24.9396	-0.563112	-2.578789E+7	5.509785E-11	NaN
1098	1.000000	1.444617	7.3758e+06	-55039.1	1055.82	-29741.4	0.000000	0.000000	7.445298	-0.039298	NaN	0.000000	0.001647	0.001709	28.0818	0.062708	0.001977	31.7204	41.0154	13.1394	-0.011296	1.443276	-0.549167	-0.550507	-0.039298	31.7204	-0.548237	-1.605239E+7	2.448094E-9	NaN
1098	1.000000	1.458647	7.3758e+06	-55039.1	1055.82	-29741.4	0.000000	0.000000	7.459329	-0.017235	NaN	0.000000	0.001680	0.001734	28.0818	0.040591	0.002034	19.9565	-128.748	-167.957	0.019553	1.457318	-0.535137	-0.536465	-0.017235	19.9565	-0.534489	-1.034894E+7	1.665348E-9	NaN
1098	1.000000	1.472644	7.3758e+06	-55039.1	1055.82	-29741.4	0.000000	0.000000	7.473326	-0.006133	NaN	0.000000	0.001729	0.001683	28.0808	0.081652	0.001940	42.081	40.2738	14.2793	0.050654	1.471319	-0.521140	-0.522464	-0.006133	42.081	-0.521031	-6.72871e+06	9.114993E-10	NaN
1098	1.000000	1.486666	7.3758e+06	-55039.1	1055.82	-29741.4	0.000000	0.000000	7.487348	-0.029724	NaN	0.000000	0.001694	0.001711	28.0807	0.074387	0.002019	36.8434	-73.4161	-164.41	-0.002316	1.485379	-0.507118	-0.508404	-0.029724	36.8434	-0.506512	-4.22498e+06	7.035293E-9	NaN
1098	1.000000	1.500700	7.3758e+06	-55039.1	1055.82	-29741.4	0.000000	0.000000	7.501385	0.042052	NaN	0.000000	0.001631	0.001713	28.0806	0.085547	0.002016	42.4444	-68.9685	14.6957	0.059019	1.499292	-0.493083	-0.494492	0.042052	42.4444	-0.493826	-2.81091e+06	-1.496034E-8	NaN
1098	1.000000	1.514653	7.3758e+06	-55039.1	1055.82	-29741.4	0.000000	0.000000	7.515333	-0.054689	NaN	0.000000	0.001630	0.001718	28.0807	0.072845	0.001986	36.6716	47.4711	-163.901	-0.030874	1.513389	-0.479131	-0.480394	-0.054689	36.6716	-0.478012	-1.68926e+06	3.237456E-8	NaN
1098	1.000000	1.528675	7.3758e+06	-55039.1	1055.82	-29741.4	0.000000	0.000000	7.529359	0.044376	NaN	0.000000	0.001597	0.001718	28.0807	0.022915	0.001930	11.8748	169.353	11.5962	0.017605	1.527319	-0.465109	-0.466465	0.044376	11.8748	-0.467911	-1.2193e+06	-3.639435E-8	NaN
1098	1.000000	1.542700	7.3758e+06	-55039.1	1055.82	-29741.4	0.000000	0.000000	7.543382	-0.021895	NaN	0.000000	0.001657	0.001700	28.0806	0.096985	0.001952	49.6891	-117.248	-166.342	-0.035770	1.541354	-0.451084	-0.452429	-0.021895	49.6891	-0.450753	-699757	3.128941E-8	NaN
1098	1.000000	1.556691	7.3758e+06	-55039.1	1055.82	-29741.4	0.000000	0.000000	7.557373	-0.029321	NaN	0.000000	0.001697	0.001720	28.0807	0.101285	0.001907	53.1225	-55.957	15.6276	-0.045100	1.555354	-0.437092	-0.438429	-0.029321	53.1225	-0.436679	-443065	6.617687E-8	NaN
1098	1.000000	1.570732	7.3758e+06	-55039.1	1055.82	-29741.4	0.000000	0.000000	7.571412	-0.043742	NaN	0.000000	0.001681	0.001721	28.0805	0.102684	0.001973	52.055	141.74	-168.704	0.043776	1.569433	-0.423052	-0.424350	-0.043742	52.055	-0.422422	-278454	1.570898E-7	NaN
1098	1.000000	1.584738	7.3758e+06	-55039.1	1055.82	-29741.4	0.000000	0.000000	7.585420	-0.009326	NaN	0.000000	0.001672	0.001717	28.0807	0.087448	0.001823	47.9771	121.813	11.6494	0.007892	1.583374	-0.409046	-0.410410	-0.009326	47.9771	-0.408900	-178962	5.211380E-8	NaN
1098	1.000000	1.598732	7.3758e+06	-55039.1	1055.82	-29741.4	0.000000	0.000000	7.599416	0.033058	NaN	0.000000	0.001659	0.001713	28.0806	0.052879	0.002084	25.3779	-39.7278	-169.348	0.044638	1.597383	-0.395051	-0.396401	0.033058	25.3779	-0.396028	-117306	-2.818147E-7	NaN
1098	1.000000	1.612738	7.3758e+06	-55039.1	1055.82	-29741.4	0.000000	0.000000	7.613418	-0.071795	NaN	0.000000	0.001659	0.001700	28.082	0.114047	0.002042	55.8443	166.79	16.943	-0.019614	1.611333	-0.381046	-0.382451	-0.071795	55.8443	-0.380081	-69351.7	1.035234E-6	NaN
1098	1.000000	1.626736	7.3758e+06	-55039.1	1055.82	-29741.4	0.000000	0.000000	7.627418	-0.017196	NaN	0.000000	0.001677	0.001680	28.082	0.053021	0.002119	25.0226	14.6805	-164.074	-0.039391	1.625424	-0.367048	-0.368360	-0.017196	25.0226	-0.366532	-44274.9	3.883825E-7	NaN
1098	1.000000	1.640729	7.3758e+06	-55039.1	1055.82	-29741.4	0.000000	0.000000	7.641411	-0.028273	NaN	0.000000	0.001709	0.001710	28.0822	0.110369	0.001994	55.3638	-80.0902	15.5642	-0.045571	1.639378	-0.353054	-0.354405	-0.028273	55.3638	-0.352671	-27909.4	1.013022E-6	NaN
1098	1.000000	1.654763	7.3758e+06	-55039.1	1055.82	-29741.4	0.000000	0.000000	7.655446	-0.008176	NaN	0.000000	0.001715	0.001722	28.082	0.021539	0.001962	10.979	-161.462	-167.224	-0.025511	1.653431	-0.339020	-0.340352	-0.008176	10.979	-0.338462	-17343.1	4.714063E-7	NaN
1098	1.000000	1.668753	7.3758e+06	-55039.1	1055.82	-29741.4	0.000000	0.000000	7.669434	-0.055812	NaN	0.000000	0.001752	0.001723	28.0821	0.109971	0.001891	58.1607	-108.907	15.4621	0.010795	1.667416	-0.325030	-0.326368	-0.055812	58.1607	-0.324311	-10765	5.184560E-6	NaN
1098	1.000000	1.682779	7.3758e+06	-55039.1	1055.82	-29741.4	0.000000	0.000000	7.683463	0.027151	NaN	0.000000	0.001685	0.001724	28.0823	0.046376	0.002118	21.8956	61.2605	-165.507	-0.008299	1.681488	-0.311005	-0.312296	0.027151	21.8956	-0.311935	-7074.1	-3.838035E-6	NaN
1098	1.000000	1.696781	7.3758e+06	-55039.1	1055.82	-29741.4	0.000000	0.000000	7.697464	0.002407	NaN	0.000000	0.001712	0.001704	28.082	0.048253	0.001954	24.6958	-153.466	15.6126	-0.038983	1.695410	-0.297002	-0.298373	0.002407	24.6958	-0.297075	-4256.57	-5.655210E-7	NaN
1098	1.000000	1.710732	7.3758e+06	-55039.1	1055.82	-29741.4	0.000000	0.000000	7.711417	0.036621	NaN	0.000000	0.001692	0.001710	28.0819	0.026863	0.001917	14.0162	44.0631	-168.395	0.070161	1.709467	-0.283051	-0.284317	0.036621	14.0162	-0.285011	-2808.22	-1.304078E-5	NaN
1098	1.000000	1.724771	7.3758e+06	-55039.1	1055.82	-29741.4	0.000000	0.000000	7.725454	0.013405	NaN	0.000000	0.001726	0.001728	28.082	0.109157	0.002059	53.0136	48.7025	14.5105	0.001421	1.723445	-0.269013	-0.270338	0.013405	53.0136	-0.269202	-1619.63	-8.276605E-6	NaN
1098	1.000000	1.738797	7.3758e+06	-55039.1	1055.82	-29741.4	0.000000	0.000000	7.739479	-0.017327	NaN	0.000000	0.001793	0.001692	28.0818	0.077632	0.002004	38.7337	-46.9166	-169.384	0.015994	1.737475	-0.254987	-0.256309	-0.017327	38.7337	-0.254651	-969.939	1.786419E-5	NaN
1098	1.000000	1.752781	7.3758e+06	-55039.1	1055.82	-29741.4	0.000000	0.000000	7.753462	-0.034551	NaN	0.000000	0.001771	0.001639	28.0804	0.050503	0.001944	25.9732	2.720330	11.1867	-0.064440	1.751363	-0.241003	-0.242421	-0.034551	25.9732	-0.240005	-574.961	6.009270E-5	NaN
1098	1.000000	1.766790	7.3758e+06	-55039.1	1055.82	-29741.4	0.000000	0.000000	7.767475	0.056103	NaN	0.000000	0.001705	0.001658	28.0804	0.030915	0.001912	16.1681	-169.735	-164.039	0.028960	1.765487	-0.226994	-0.228296	0.056103	16.1681	-0.229597	-394.59	-0.000142	NaN
1098	1.000000	1.780807	7.3758e+06	-55039.1	1055.82	-29741.4	0.000000	0.000000	7.781488	-0.028588	NaN	0.000000	0.001715	0.001664	28.0805	0.072671	0.002041	35.6038	-81.9593	13.1761	0.058719	1.779407	-0.212977	-0.214377	-0.028588	35.6038	-0.212375	-209.515	0.000136	NaN
1098	1.000000	1.794812	7.3758e+06	-55039.1	1055.82	-29741.4	0.000000	0.000000	7.795496	0.038527	NaN	0.000000	0.001711	0.001669	28.0805	0.044629	0.001910	23.3684	166.68	-167.276	0.001412	1.793534	-0.198972	-0.200250	0.038527	23.3684	-0.200208	-132.777	-0.000290	NaN
1098	1.000000	1.808791	7.3758e+06	-55039.1	1055.82	-29741.4	0.000000	0.000000	7.809473	-0.016411	NaN	0.000000	0.001695	0.001673	28.0805	0.026740	0.001961	13.6341	131.437	13.1237	-0.004694	1.807427	-0.184993	-0.186357	-0.016411	13.6341	-0.184090	-71.5781	0.000229	NaN
1098	1.000000	1.822803	7.3758e+06	-55039.1	1055.82	-29741.4	0.000000	0.000000	7.823485	-0.029285	NaN	0.000000	0.001691	0.001631	28.0805	0.015563	0.002099	7.413345	156.986	-165.683	0.047634	1.821523	-0.170980	-0.172260	-0.029285	7.413345	-0.168017	-37.9413	0.000772	NaN
1098	1.000000	1.836835	7.3758e+06	-55039.1	1055.82	-29741.4	0.000000	0.000000	7.837519	0.042954	NaN	0.000000	0.001688	0.001653	28.0809	0.005985	0.002041	2.933105	124.794	16.8782	0.049230	1.835461	-0.156949	-0.158322	0.042954	2.933105	-0.167932	-37.8114	-0.001136	NaN
1098	1.000000	1.850820	7.3758e+06	-55039.1	1055.82	-29741.4	0.000000	0.000000	7.851499	-0.071115	NaN	0.000000	0.001672	0.001664	28.0805	0.078325	0.002061	38.0036	111.085	-164.08	-0.092090	1.849496	-0.142964	-0.144288	-0.071115	38.0036	-0.141561	-12.6535	0.005620	NaN
1098	1.000000	1.864841	7.3758e+06	-55039.1	1055.82	-29741.4	0.000000	0.000000	7.865524	0.015461	NaN	0.000000	0.001664	0.001658	28.0806	0.095050	0.002081	45.6841	-148.883	16.2069	-0.079107	1.863429	-0.128943	-0.130354	0.015461	45.6841	-0.129197	-7.351673	-0.002103	NaN
1098	1.000000	1.878836	7.3758e+06	-55039.1	1055.82	-29741.4	0.000000	0.000000	7.879518	-0.014396	NaN	0.000000	0.001726	0.001643	28.0818	0.131090	0.002085	62.8709	-36.6847	-166.315	0.043721	1.877550	-0.114948	-0.116234	-0.014396	62.8709	-0.114776	-3.780014	0.003808	NaN
1098	1.000000	1.892845	7.3758e+06	-55039.1	1055.82	-29741.4	0.000000	0.000000	7.893525	-0.061396	NaN	0.000000	0.001651	0.001638	28.0819	0.065379	0.002023	32.3182	-129.659	15.1463	0.026499	1.891484	-0.100939	-0.102300	-0.061396	32.3182	-0.099514	-1.782346	0.034447	NaN
1098	1.000000	1.906831	7.3758e+06	-55039.1	1055.82	-29741.4	0.000000	0.000000	7.907515	0.017487	NaN	0.000000	0.001691	0.001717	28.0821	0.050324	0.002038	24.6943	-62.6892	-164.162	0.005685	1.905543	-0.086952	-0.088241	0.017487	24.6943	-0.087483	-0.942570	-0.018553	NaN
1098	1.000000	1.920900	7.3758e+06	-55039.1	1055.82	-29741.4	0.000000	0.000000	7.921582	-0.025446	NaN	0.000000	0.001684	0.001676	28.0819	0.062594	0.001938	32.3065	-3.113636	11.8555	-0.003780	1.919481	-0.072884	-0.074303	-0.025446	32.3065	-0.072293	-0.392491	0.064833	NaN
1098	1.000000	1.934867	7.3758e+06	-55039.1	1055.82	-29741.4	0.000000	0.000000	7.935549	-0.026184	NaN	0.000000	0.001671	0.001637	28.0819	0.050370	0.001991	25.2941	38.4001	-162.519	0.017968	1.933577	-0.058916	-0.060207	-0.026184	25.2941	-0.058140	-0.159158	0.164515	NaN
1098	1.000000	1.948879	7.3758e+06	-55039.1	1055.82	-29741.4	0.000000	0.000000	7.949558	-0.078247	NaN	0.000000	0.001682	0.001679	28.0817	0.033956	0.001908	17.7963	-127.773	14.8008	0.026873	1.947559	-0.044905	-0.046225	-0.078247	17.7963	-0.041608	-0.050617	1.545870	NaN
1098	1.000000	1.962893	7.3758e+06	-55039.1	1055.82	-29741.4	0.000000	0.000000	7.963578	0.058421	NaN	0.000000	0.001644	0.001679	28.0817	0.075011	0.001944	38.5877	93.7287	-169.777	0.043053	1.961581	-0.030890	-0.032203	0.058421	38.5877	-0.032026	-0.026251	-2.225492	NaN
1098	1.000000	1.976892	7.3758e+06	-55039.1	1055.82	-29741.4	0.000000	0.000000	7.977580	0.120215	NaN	0.000000	0.001641	0.001627	28.082	0.045409	0.002088	21.743	-165.961	15.1666	0.119529	1.975520	-0.016891	-0.018264	0.120215	21.743	-0.021038	-0.013348	-9.006567	NaN
1098	1.000000	1.990869	7.3758e+06	-55039.1	1055.82	-29741.4	0.000000	0.000000	7.991598	1.117652	NaN	0.000000	0.001680	0.001651	28.0819	1.662193	0.001907	871.404	12.8853	-165.646	0.403746	1.989610	-0.002915	-0.004174	1.117652	871.404	-0.003877	-0.002699	-414.131	NaN
1098	2.000000	2.000055	7.37581e+06	-55039.1	1055.82	-29741.4	0.000000	0.000000	8.001159	10.2405	NaN	0.000000	0.001695	0.001659	28.0818	9.980678	0.001564	6382.5	8.324717	5.634581	9.235841	1.999716	0.006272	0.005932	10.2405	6382.5	0.005068	0.004196	2440.71	90024.7
1098	2.000000	2.003504	7.37581e+06	-55039.1	1055.82	-29741.4	0.000000	0.000000	8.004815	15.2745	NaN	0.000000	0.001676	0.001657	28.0805	14.5023	0.001707	8496.4	6.676558	-176.229	15.5455	2.003192	0.009720	0.009408	15.2745	8496.4	0.008372	0.007428	2056.44	90070.4
1098	2.000000	2.006962	7.37581e+06	-55039.1	1055.82	-29741.4	0.000000	0.000000	8.008531	21.5535	NaN	0.000000	0.001700	0.001643	28.0817	17.6942	0.001750	10111.3	4.773577	5.162256	19.7842	2.006621	0.013178	0.012838	21.5535	10111.3	0.011579	0.010990	1961.15	88120.9
1098	2.000000	2.010450	7.37581e+06	-55039.1	1055.82	-29741.4	0.000000	0.000000	8.012302	28.4262	NaN	0.000000	0.001731	0.001676	28.0806	21.5955	0.001799	12004.5	2.939525	-174.682	27.1667	2.010157	0.016666	0.016374	28.4262	12004.5	0.014890	0.015139	1877.69	89139.1
1098	2.000000	2.013924	7.37581e+06	-55039.1	1055.82	-29741.4	0.000000	0.000000	8.016263	40.2575	NaN	0.000000	0.001701	0.001674	28.0808	24.7011	0.001708	14460.5	4.933929	1.686693	37.6632	2.013607	0.020140	0.019823	40.2575	14460.5	0.018052	0.019573	2056.75	94432.7
1098	2.000000	2.017454	7.37581e+06	-55039.1	1055.82	-29741.4	0.000000	0.000000	8.019998	45.2304	NaN	0.000000	0.001718	0.001630	28.0825	27.7163	0.001708	16229.1	3.606815	-178.384	45.2723	2.017156	0.023671	0.023372	45.2304	16229.1	0.021580	0.025087	1802.95	93614.8
1098	2.000000	2.020965	7.37581e+06	-55039.1	1055.82	-29741.4	0.000000	0.000000	8.023967	56.3868	NaN	0.000000	0.001722	0.001675	28.0806	31.4597	0.001683	18693.9	4.609812	-0.228670	56.266	2.020585	0.027181	0.026801	56.3868	18693.9	0.024919	0.030868	1826.71	97212.2
1098	2.000000	2.024441	7.37581e+06	-55039.1	1055.82	-29741.4	0.000000	0.000000	8.027802	65.1166	NaN	0.000000	0.001730	0.001663	28.0807	35.0358	0.001742	20108.1	6.753092	177.388	64.6105	2.024139	0.030657	0.030355	65.1166	20108.1	0.028228	0.037152	1752.71	95313.5
1098	2.000000	2.027910	7.37581e+06	-55039.1	1055.82	-29741.4	0.000000	0.000000	8.031842	78.9895	NaN	0.000000	0.001749	0.001722	28.0818	38.312	0.001763	21733.9	3.067632	-0.692693	76.9523	2.027588	0.034127	0.033804	78.9895	21733.9	0.031401	0.043697	1807.65	94991
1098	2.000000	2.031445	7.37581e+06	-55039.1	1055.82	-29741.4	0.000000	0.000000	8.035862	90.7712	NaN	0.000000	0.001721	0.001681	28.0806	41.6407	0.001825	22822.7	3.470133	179.759	92.8196	2.031051	0.037661	0.037267	90.7712	22822.7	0.034678	0.051000	1779.83	92332.6
1098	2.000000	2.034939	7.37581e+06	-55039.1	1055.82	-29741.4	0.000000	0.000000	8.039816	101.972	NaN	0.000000	0.001693	0.001711	28.0808	45.7611	0.001816	25192.2	7.472389	-6.823942	102.423	2.034737	0.041155	0.040954	101.972	25192.2	0.038119	0.059258	1720.8	94550.4
1098	2.000000	2.038409	7.37581e+06	-55039.1	1055.82	-29741.4	0.000000	0.000000	8.044084	121.358	NaN	0.000000	0.001716	0.001704	28.0821	47.0246	0.001733	27127.5	2.392831	179.221	120.559	2.038040	0.044625	0.044256	121.358	27127.5	0.041270	0.067351	1801.88	95501.9
1098	2.000000	2.041916	7.37581e+06	-55039.1	1055.82	-29741.4	0.000000	0.000000	8.048155	135.073	NaN	0.000000	0.001724	0.001722	28.0819	51.8503	0.001709	30337.4	8.907880	-8.637791	132.404	2.041528	0.048133	0.047744	135.073	30337.4	0.044793	0.077001	1754.16	99885.5
1098	2.000000	2.045437	7.37581e+06	-55039.1	1055.82	-29741.4	0.000000	0.000000	8.052350	151.474	NaN	0.000000	0.001723	0.001728	28.0819	54.992	0.001737	31656.3	2.245395	177.266	151.881	2.045083	0.051653	0.051299	151.474	31656.3	0.048064	0.086523	1750.67	98325.7
1098	2.000000	2.049029	7.37581e+06	-55039.1	1055.82	-29741.4	0.000000	0.000000	8.056413	162.888	NaN	0.000000	0.001679	0.001740	28.082	58.7275	0.001811	32428	6.566615	-5.541982	168.342	2.048377	0.055246	0.054593	162.888	32428	0.051478	0.097037	1678.62	95109.7
1098	2.000000	2.052326	7.37581e+06	-55039.1	1055.82	-29741.4	0.000000	0.000000	8.060696	186.869	NaN	0.000000	0.001707	0.001762	28.082	62.4738	0.001782	35064.2	4.640183	174.186	184.013	2.051978	0.058542	0.058194	186.869	35064.2	0.054545	0.106977	1746.81	97947
1098	2.000000	2.055884	7.37581e+06	-55039.1	1055.82	-29741.4	0.000000	0.000000	8.064965	204.168	NaN	0.000000	0.001704	0.001749	28.0819	65.5051	0.001782	36759.4	4.848621	-6.228274	201.486	2.055488	0.062100	0.061704	204.168	36759.4	0.057935	0.118506	1722.85	97560
1098	2.000000	2.059346	7.37581e+06	-55039.1	1055.82	-29741.4	0.000000	0.000000	8.069143	221.555	NaN	0.000000	0.001688	0.001761	28.0819	68.7062	0.001809	37990.6	3.220749	174.693	218.689	2.058996	0.065562	0.065212	221.555	37990.6	0.061188	0.130104	1702.91	96228.5
1098	2.000000	2.062847	7.37581e+06	-55039.1	1055.82	-29741.4	0.000000	0.000000	8.073745	248.317	NaN	0.000000	0.001647	0.001741	28.0822	70.6814	0.001762	40109.5	4.890940	-6.808508	243.36	2.062484	0.069064	0.068700	248.317	40109.5	0.064420	0.142135	1747.05	97200.9
1098	2.000000	2.066278	7.37581e+06	-55039.1	1055.82	-29741.4	0.000000	0.000000	8.077678	260.527	NaN	0.000000	0.001681	0.001701	28.0818	74.279	0.001755	42318.5	2.463805	174.47	254.949	2.066070	0.072494	0.072286	260.527	42318.5	0.067877	0.155559	1674.78	98029.4
1098	2.000000	2.069808	7.37581e+06	-55039.1	1055.82	-29741.4	0.000000	0.000000	8.082412	289.792	NaN	0.000000	0.001704	0.001741	28.0818	76.9759	0.001733	44412.6	-0.010076	-3.015517	283.557	2.069492	0.076024	0.075708	289.792	44412.6	0.071130	0.168717	1717.62	98787.1
1098	2.000000	2.073323	7.37581e+06	-55039.1	1055.82	-29741.4	0.000000	0.000000	8.086879	312.945	NaN	0.000000	0.001653	0.001725	28.0809	81.9364	0.001805	45392.2	4.278965	172.982	309.019	2.073059	0.079539	0.079276	312.945	45392.2	0.074369	0.182311	1716.54	97128.7
1098	2.000000	2.076843	7.37581e+06	-55039.1	1055.82	-29741.4	0.000000	0.000000	8.091383	336.867	NaN	0.000000	0.001685	0.001726	28.0807	84.7812	0.001751	48430.3	6.114752	-8.932033	333.492	2.076390	0.083059	0.082606	336.867	48430.3	0.077843	0.197446	1706.12	99578.8
1098	2.000000	2.080376	7.37581e+06	-55039.1	1055.82	-29741.4	0.000000	0.000000	8.096023	363.768	NaN	0.000000	0.001714	0.001726	28.0807	88.5948	0.001797	49308.4	5.562943	171.34	364.242	2.080001	0.086593	0.086217	363.768	49308.4	0.081059	0.211963	1716.18	97850.7
1098	2.000000	2.083811	7.37581e+06	-55039.1	1055.82	-29741.4	0.000000	0.000000	8.100239	382.759	NaN	0.000000	0.001731	0.001737	28.0808	92.1897	0.001827	50456.9	5.487852	-9.563454	379.262	2.083542	0.090027	0.089758	382.759	50456.9	0.084338	0.227253	1684.29	96702.7
1098	2.000000	2.087282	7.37581e+06	-55039.1	1055.82	-29741.4	0.000000	0.000000	8.105141	417.529	NaN	0.000000	0.001717	0.001721	28.0805	94.5855	0.001742	54288.1	5.190714	170.901	413.953	2.086907	0.093499	0.093123	417.529	54288.1	0.087730	0.243598	1714.01	100494
1098	2.000000	2.090871	7.37581e+06	-55039.1	1055.82	-29741.4	0.000000	0.000000	8.109833	444.358	NaN	0.000000	0.001731	0.001716	28.0806	97.9823	0.001779	55085.2	5.823065	-10.0867	443.299	2.090484	0.097087	0.096700	444.358	55085.2	0.091037	0.260042	1708.79	98693
1098	2.000000	2.094246	7.37581e+06	-55039.1	1055.82	-29741.4	0.000000	0.000000	8.114405	473.474	NaN	0.000000	0.001748	0.001732	28.0808	101.021	0.001861	54275.5	5.471682	170.735	469.994	2.093990	0.100462	0.100206	473.474	54275.5	0.093919	0.274779	1723.11	94598.6
1098	2.000000	2.096787	7.37581e+06	-55039.1	1055.82	-29741.4	0.000000	0.000000	8.117853	495.51	NaN	0.000000	0.001734	0.001752	28.0809	104.007	0.001809	57506.2	5.646191	-10.0358	489.454	2.096307	0.103003	0.102523	495.51	57506.2	0.096541	0.288514	1717.46	97814.7