File: remote_trans/data/nanoindenter/0828-1/data/Data_2025-08-06,11h17m57s/2025-07-22_16-23-58_1_1150.txt
2025-07-22, 16:23:58, 1
Index	Phase	Displacement	Time	Pos X	Pos Y	Pos Z	Rot A	Rot B	Piezo Z	Force A	Force B	Gripper	Voltage A	Voltage B	Temperature	Amplitude force	Amplitude pos	Stiffness	Phase shift	Phase excitation	Force A raw	Displacement raw	HMax	HMax raw	Real Force	Real Stiffness	Contact Depth	Area	Hardness	Reduced Mod.
[#]	[#]	[um]	[s]	[um]	[um]	[um]	[m°]	[m°]	[um]	[uN]	[uN]	[V]	[V]	[V]	[°C]	[uN]	[um]	[N/m]	[°]	[°]	[uN]	[um]	[um]	[um]	[uN]	[N/m]	[um]	[um^2]	[MPa]	[MPa]
1150	1.000000	0.002702	7.37631e+06	-57639.1	1055.82	-29736.6	0.000000	0.000000	6.002828	0.019048	NaN	0.000000	0.001526	0.001714	28.0828	0.037028	0.000914	40.5227	-32.7596	-163.324	0.063809	0.001419	-1.064458	-1.065741	0.019048	40.5227	-1.064810	-1.688341E+14	-1.128232E-16	NaN
1150	1.000000	0.010662	7.37631e+06	-57639.1	1055.82	-29736.6	0.000000	0.000000	6.010787	0.014874	NaN	0.000000	0.001509	0.001784	28.0825	0.139739	0.000905	154.338	141.453	-164.372	0.002420	0.009343	-1.056498	-1.057816	0.014874	154.338	-1.056570	-1.308348E+14	-1.136839E-16	NaN
1150	1.000000	0.018664	7.37631e+06	-57639.1	1055.82	-29736.6	0.000000	0.000000	6.018788	-0.040367	NaN	0.000000	0.001471	0.001730	28.0825	0.019168	0.001579	12.1371	3.518148	-164.825	-0.016724	0.017323	-1.048495	-1.049837	-0.040367	12.1371	-1.046001	-9.432942E+13	4.279377E-16	NaN
1150	1.000000	0.026651	7.37631e+06	-57639.1	1055.82	-29736.6	0.000000	0.000000	6.026776	0.006190	NaN	0.000000	0.001498	0.001733	28.0823	0.074365	0.002000	37.1733	88.004	-166.544	0.059641	0.025350	-1.040508	-1.041810	0.006190	37.1733	-1.040633	-7.988832E+13	-7.747802E-17	NaN
1150	1.000000	0.034625	7.37631e+06	-57639.1	1055.82	-29736.6	0.000000	0.000000	6.034752	0.030467	NaN	0.000000	0.001543	0.001734	28.0825	0.084211	0.001902	44.2682	112.58	-165.028	-0.012675	0.033356	-1.032534	-1.033803	0.030467	44.2682	-1.033050	-6.316900E+13	-4.823113E-16	NaN
1150	1.000000	0.042606	7.37631e+06	-57639.1	1055.82	-29736.6	0.000000	0.000000	6.042732	0.020022	NaN	0.000000	0.001529	0.001748	28.0811	0.112917	0.001922	58.7503	51.0701	-163.322	-0.014996	0.041347	-1.024554	-1.025812	0.020022	58.7503	-1.024809	-4.893911E+13	-4.091117E-16	NaN
1150	1.000000	0.050641	7.37631e+06	-57639.1	1055.82	-29736.6	0.000000	0.000000	6.050764	-0.038810	NaN	0.000000	0.001566	0.001719	28.0812	0.043719	0.002058	21.2388	39.0799	-162.819	0.009389	0.049336	-1.016519	-1.017824	-0.038810	21.2388	-1.015148	-3.628005E+13	1.069734E-15	NaN
1150	1.000000	0.058631	7.37631e+06	-57639.1	1055.82	-29736.6	0.000000	0.000000	6.058754	-0.042082	NaN	0.000000	0.001586	0.001725	28.0807	0.115913	0.001982	58.4929	-97.5143	-166.614	-0.063372	0.057360	-1.008529	-1.009799	-0.042082	58.4929	-1.007989	-2.906128E+13	1.448036E-15	NaN
1150	1.000000	0.066640	7.37631e+06	-57639.1	1055.82	-29736.6	0.000000	0.000000	6.066762	-0.062509	NaN	0.000000	0.001533	0.001744	28.0814	0.026321	0.001937	13.5918	60.3225	-164.53	-0.030445	0.065326	-1.000520	-1.001833	-0.062509	13.5918	-0.997071	-2.071700E+13	3.017279E-15	NaN
1150	1.000000	0.074657	7.37631e+06	-57639.1	1055.82	-29736.6	0.000000	0.000000	6.074780	-0.035866	NaN	0.000000	0.001566	0.001736	28.0812	0.081725	0.001966	41.5655	-1.047179	-164.918	-0.022858	0.073331	-0.992503	-0.993828	-0.035866	41.5655	-0.991856	-1.762395E+13	2.035099E-15	NaN
1150	1.000000	0.082658	7.37631e+06	-57639.1	1055.82	-29736.6	0.000000	0.000000	6.082782	-0.037300	NaN	0.000000	0.001511	0.001707	28.081	0.056731	0.001923	29.5022	-149.505	-168.741	-0.022150	0.081317	-0.984501	-0.985842	-0.037300	29.5022	-0.983553	-1.362314E+13	2.738023E-15	NaN
1150	1.000000	0.090659	7.37631e+06	-57639.1	1055.82	-29736.6	0.000000	0.000000	6.090783	-0.038657	NaN	0.000000	0.001549	0.001726	28.0814	0.105151	0.001977	53.1788	121.988	-167.606	0.010770	0.089362	-0.976500	-0.977797	-0.038657	53.1788	-0.975955	-1.076241E+13	3.591853E-15	NaN
1150	1.000000	0.098634	7.37631e+06	-57639.1	1055.82	-29736.6	0.000000	0.000000	6.098759	-0.000778	NaN	0.000000	0.001551	0.001708	28.0815	0.034018	0.001966	17.3012	-162.506	-165.855	-0.039892	0.097311	-0.968525	-0.969849	-0.000778	17.3012	-0.968492	-8.537604E+12	9.114775E-17	NaN
1150	1.000000	0.106637	7.37631e+06	-57639.1	1055.82	-29736.6	0.000000	0.000000	6.106762	-0.015213	NaN	0.000000	0.001595	0.001734	28.0813	0.083002	0.002029	40.907	-21.1485	-166.178	-0.053074	0.105338	-0.960522	-0.961821	-0.015213	40.907	-0.960243	-6.609226E+12	2.301707E-15	NaN
1150	1.000000	0.114646	7.37631e+06	-57639.1	1055.82	-29736.6	0.000000	0.000000	6.114771	-0.011904	NaN	0.000000	0.001555	0.001695	28.0812	0.088402	0.002015	43.8644	-25.1843	-167.773	0.016787	0.113411	-0.952513	-0.953748	-0.011904	43.8644	-0.952309	-5.166223E+12	2.304146E-15	NaN
1150	1.000000	0.122670	7.37631e+06	-57639.1	1055.82	-29736.6	0.000000	0.000000	6.122793	-0.050162	NaN	0.000000	0.001560	0.001755	28.081	0.054814	0.001813	30.2412	-25.2602	-166.994	0.002091	0.121387	-0.944489	-0.945772	-0.050162	30.2412	-0.943245	-3.898668E+12	1.286652E-14	NaN
1150	1.000000	0.130663	7.37631e+06	-57639.1	1055.82	-29736.6	0.000000	0.000000	6.130787	-0.008361	NaN	0.000000	0.001568	0.001735	28.0814	0.081561	0.001984	41.1084	-179.189	-165.901	0.026182	0.129406	-0.936497	-0.937753	-0.008361	41.1084	-0.936344	-3.146387E+12	2.657430E-15	NaN
1150	1.000000	0.138660	7.37631e+06	-57639.1	1055.82	-29736.6	0.000000	0.000000	6.138783	-0.045453	NaN	0.000000	0.001595	0.001757	28.0814	0.048815	0.002058	23.7168	-21.5221	-164.802	0.010020	0.137365	-0.928500	-0.929794	-0.045453	23.7168	-0.927062	-2.358023E+12	1.927581E-14	NaN
1150	1.000000	0.146633	7.37631e+06	-57639.1	1055.82	-29736.6	0.000000	0.000000	6.146761	0.070527	NaN	0.000000	0.001596	0.001763	28.0814	0.058962	0.001988	29.6651	-178.049	-163.112	0.031164	0.145329	-0.920526	-0.921831	0.070527	29.6651	-0.922309	-2.034156E+12	-3.467117E-14	NaN
1150	1.000000	0.154669	7.37631e+06	-57639.1	1055.82	-29736.6	0.000000	0.000000	6.154789	-0.136978	NaN	0.000000	0.001573	0.001758	28.0814	0.092953	0.002034	45.7062	179.564	-166.512	-0.076637	0.153365	-0.912490	-0.913794	-0.136978	45.7062	-0.910243	-1.397781E+12	9.799682E-14	NaN
1150	1.000000	0.162671	7.37631e+06	-57639.1	1055.82	-29736.6	0.000000	0.000000	6.162794	-0.039448	NaN	0.000000	0.001545	0.001761	28.0812	0.021172	0.002027	10.4461	-155.07	-163.935	0.003266	0.161358	-0.904489	-0.905801	-0.039448	10.4461	-0.901656	-1.070152E+12	3.686188E-14	NaN
1150	1.000000	0.170687	7.37631e+06	-57639.1	1055.82	-29736.6	0.000000	0.000000	6.170810	-0.041781	NaN	0.000000	0.001546	0.001762	28.0811	0.046970	0.001899	24.7287	-55.146	-165.013	-0.004877	0.169395	-0.896473	-0.897764	-0.041781	24.7287	-0.895205	-8.755375E+11	4.772055E-14	NaN
1150	1.000000	0.178673	7.37631e+06	-57639.1	1055.82	-29736.6	0.000000	0.000000	6.178797	-0.033474	NaN	0.000000	0.001548	0.001789	28.0826	0.035618	0.001911	18.6378	-142.794	-164.174	-0.055716	0.177372	-0.888486	-0.889787	-0.033474	18.6378	-0.887139	-6.811472E+11	4.914288E-14	NaN
1150	1.000000	0.186659	7.37631e+06	-57639.1	1055.82	-29736.6	0.000000	0.000000	6.186786	0.047956	NaN	0.000000	0.001583	0.001761	28.0824	0.134498	0.002102	63.9859	-178.985	-168.113	0.044786	0.185362	-0.880500	-0.881797	0.047956	63.9859	-0.881062	-5.637364E+11	-8.506784E-14	NaN
1150	1.000000	0.194671	7.37631e+06	-57639.1	1055.82	-29736.6	0.000000	0.000000	6.194796	-0.026048	NaN	0.000000	0.001543	0.001755	28.0826	0.059952	0.001957	30.6355	-143.311	-165.267	-0.017952	0.193403	-0.872488	-0.873757	-0.026048	30.6355	-0.871850	-4.231305E+11	6.156081E-14	NaN
1150	1.000000	0.202660	7.37631e+06	-57639.1	1055.82	-29736.6	0.000000	0.000000	6.202785	-0.006504	NaN	0.000000	0.001561	0.001735	28.0824	0.012825	0.002019	6.350973	-102.47	-166.478	-0.098528	0.201376	-0.864499	-0.865783	-0.006504	6.350973	-0.863731	-3.285629E+11	1.979622E-14	NaN
1150	1.000000	0.210658	7.37631e+06	-57639.1	1055.82	-29736.6	0.000000	0.000000	6.210779	-0.104330	NaN	0.000000	0.001526	0.001761	28.0824	0.083935	0.002091	40.1345	-158.527	-167.508	-0.085595	0.209351	-0.856501	-0.857808	-0.104330	40.1345	-0.854552	-2.468131E+11	4.227089E-13	NaN
1150	1.000000	0.218699	7.37631e+06	-57639.1	1055.82	-29736.6	0.000000	0.000000	6.218827	0.058571	NaN	0.000000	0.001563	0.001767	28.0823	0.057789	0.002085	27.7112	-172.201	-163.85	-0.008223	0.217368	-0.848460	-0.849792	0.058571	27.7112	-0.850045	-2.144632E+11	-2.731059E-13	NaN
1150	1.000000	0.226682	7.37631e+06	-57639.1	1055.82	-29736.6	0.000000	0.000000	6.226809	0.039108	NaN	0.000000	0.001582	0.001772	28.0822	0.064886	0.002071	31.3236	139.911	-166.994	-0.041203	0.225370	-0.840477	-0.841789	0.039108	31.3236	-0.841414	-1.638493E+11	-2.386853E-13	NaN
1150	1.000000	0.234694	7.37631e+06	-57639.1	1055.82	-29736.6	0.000000	0.000000	6.234820	0.030365	NaN	0.000000	0.001582	0.001755	28.0821	0.062897	0.001950	32.2517	-84.9691	-166.561	0.002489	0.233420	-0.832466	-0.833740	0.030365	32.2517	-0.833172	-1.266992E+11	-2.396660E-13	NaN
1150	1.000000	0.242706	7.37631e+06	-57639.1	1055.82	-29736.6	0.000000	0.000000	6.242831	0.005081	NaN	0.000000	0.001595	0.001773	28.0824	0.058395	0.002176	26.8364	158.867	-168.407	0.002228	0.241385	-0.824453	-0.825775	0.005081	26.8364	-0.824595	-9.694323E+10	-5.241178E-14	NaN
1150	1.000000	0.250702	7.37631e+06	-57639.1	1055.82	-29736.6	0.000000	0.000000	6.250823	-0.095812	NaN	0.000000	0.001561	0.001747	28.082	0.028737	0.001997	14.391	-51.7189	-165.819	-0.017367	0.249415	-0.816458	-0.817744	-0.095812	14.391	-0.811464	-6.433336E+10	1.489301E-12	NaN
1150	1.000000	0.258684	7.37631e+06	-57639.1	1055.82	-29736.6	0.000000	0.000000	6.258811	0.030109	NaN	0.000000	0.001571	0.001763	28.082	0.023121	0.001976	11.703	174.259	-168.408	-0.010013	0.257404	-0.808475	-0.809755	0.030109	11.703	-0.810404	-6.223835E+10	-4.837668E-13	NaN
1150	1.000000	0.266704	7.37631e+06	-57639.1	1055.82	-29736.6	0.000000	0.000000	6.266828	-0.036893	NaN	0.000000	0.001582	0.001764	28.0822	0.141563	0.001868	75.7796	92.5426	-170.273	-0.029187	0.265429	-0.800455	-0.801730	-0.036893	75.7796	-0.800090	-4.509018E+10	8.181957E-13	NaN
1150	1.000000	0.274697	7.37631e+06	-57639.1	1055.82	-29736.6	0.000000	0.000000	6.274822	0.003392	NaN	0.000000	0.001604	0.001746	28.0819	0.091620	0.001874	48.901	56.5547	-168.361	-0.085291	0.273447	-0.792462	-0.793712	0.003392	48.901	-0.792514	-3.558187E+10	-9.533368E-14	NaN
1150	1.000000	0.282715	7.37631e+06	-57639.1	1055.82	-29736.6	0.000000	0.000000	6.282842	0.054410	NaN	0.000000	0.001572	0.001769	28.0822	0.075657	0.001963	38.5503	158.661	-165.763	-0.027026	0.281435	-0.784445	-0.785724	0.054410	38.5503	-0.785503	-2.857596E+10	-1.904036E-12	NaN
1150	1.000000	0.290730	7.37631e+06	-57639.1	1055.82	-29736.6	0.000000	0.000000	6.290853	-0.053153	NaN	0.000000	0.001575	0.001732	28.0819	0.136628	0.002009	68.0064	-97.9608	-162.456	-0.016709	0.289413	-0.776429	-0.777746	-0.053153	68.0064	-0.775843	-2.112206E+10	2.516463E-12	NaN
1150	1.000000	0.298708	7.37631e+06	-57639.1	1055.82	-29736.6	0.000000	0.000000	6.298832	-0.016195	NaN	0.000000	0.001580	0.001781	28.0822	0.079608	0.002002	39.7684	16.4122	-163.58	0.019278	0.297488	-0.768452	-0.769672	-0.016195	39.7684	-0.768146	-1.659964E+10	9.756316E-13	NaN
1150	1.000000	0.306765	7.37631e+06	-57639.1	1055.82	-29736.6	0.000000	0.000000	6.306888	-0.040547	NaN	0.000000	0.001608	0.001739	28.082	0.112295	0.002040	55.0431	-68.4299	-164.453	0.021858	0.305413	-0.760395	-0.761746	-0.040547	55.0431	-0.759842	-1.279843E+10	3.168119E-12	NaN
1150	1.000000	0.314734	7.37631e+06	-57639.1	1055.82	-29736.6	0.000000	0.000000	6.314856	-0.058147	NaN	0.000000	0.001604	0.001760	28.0807	0.092629	0.001938	47.7918	56.4192	-162.301	0.056088	0.313418	-0.752426	-0.753741	-0.058147	47.7918	-0.751513	-9.858641E+9	5.898036E-12	NaN
1150	1.000000	0.322735	7.37631e+06	-57639.1	1055.82	-29736.6	0.000000	0.000000	6.322857	-0.069934	NaN	0.000000	0.001605	0.001737	28.081	0.017489	0.002065	8.467787	-80.2641	-166.34	-0.056477	0.321449	-0.744425	-0.745710	-0.069934	8.467787	-0.738230	-6.500593E+9	1.075808E-11	NaN
1150	1.000000	0.330771	7.37631e+06	-57639.1	1055.82	-29736.6	0.000000	0.000000	6.330891	-0.106208	NaN	0.000000	0.001648	0.001751	28.0806	0.058138	0.002107	27.5927	177.75	-172.048	-0.111759	0.329479	-0.736389	-0.737680	-0.106208	27.5927	-0.733502	-5.604432E+9	1.895078E-11	NaN
1150	1.000000	0.338747	7.37631e+06	-57639.1	1055.82	-29736.6	0.000000	0.000000	6.338869	-0.068919	NaN	0.000000	0.001654	0.001764	28.081	0.013809	0.001979	6.977369	-172.157	-163.355	-0.009734	0.337407	-0.728413	-0.729752	-0.068919	6.977369	-0.721005	-3.785938E+9	1.820403E-11	NaN
1150	1.000000	0.346747	7.37631e+06	-57639.1	1055.82	-29736.6	0.000000	0.000000	6.346872	-0.003593	NaN	0.000000	0.001600	0.001728	28.0806	0.069197	0.001997	34.6469	93.0349	-167.179	0.017512	0.345462	-0.720412	-0.721697	-0.003593	34.6469	-0.720334	-3.707062E+9	9.692191E-13	NaN
1150	1.000000	0.354731	7.37631e+06	-57639.1	1055.82	-29736.6	0.000000	0.000000	6.354858	0.038200	NaN	0.000000	0.001632	0.001747	28.0805	0.098769	0.001938	50.96	76.9448	-164.775	0.051090	0.353452	-0.712428	-0.713707	0.038200	50.96	-0.712990	-2.943433E+9	-1.297804E-11	NaN
1150	1.000000	0.362732	7.37631e+06	-57639.1	1055.82	-29736.6	0.000000	0.000000	6.362857	-0.015852	NaN	0.000000	0.001645	0.001757	28.0807	0.135236	0.002110	64.0844	-135.562	-165.291	-0.016731	0.361438	-0.704427	-0.705721	-0.015852	64.0844	-0.704242	-2.235878E+9	7.089778E-12	NaN
1150	1.000000	0.370766	7.37631e+06	-57639.1	1055.82	-29736.6	0.000000	0.000000	6.370892	0.016172	NaN	0.000000	0.001649	0.001738	28.0806	0.106024	0.002049	51.7353	18.9967	-163.242	-0.016898	0.369428	-0.696393	-0.697731	0.016172	51.7353	-0.696627	-1.759824E+9	-9.189486E-12	NaN
1150	1.000000	0.378754	7.37631e+06	-57639.1	1055.82	-29736.6	0.000000	0.000000	6.378878	-0.020369	NaN	0.000000	0.001639	0.001739	28.0808	0.124682	0.002074	60.1184	-79.7826	-164.301	-0.022510	0.377461	-0.688406	-0.689698	-0.020369	60.1184	-0.688152	-1.347897E+9	1.511194E-11	NaN
1150	1.000000	0.386778	7.37631e+06	-57639.1	1055.82	-29736.6	0.000000	0.000000	6.386902	-0.026885	NaN	0.000000	0.001674	0.001708	28.0805	0.116448	0.002016	57.7706	-59.9656	-164.905	-0.087621	0.385457	-0.680381	-0.681702	-0.026885	57.7706	-0.680032	-1.043874E+9	2.575484E-11	NaN
1150	1.000000	0.394761	7.37631e+06	-57639.1	1055.82	-29736.6	0.000000	0.000000	6.394888	0.038147	NaN	0.000000	0.001629	0.001766	28.0808	0.048810	0.001972	24.7538	-140.189	-164.997	0.043041	0.393478	-0.672398	-0.673682	0.038147	24.7538	-0.673554	-8.511819E+8	-4.481673E-11	NaN
1150	1.000000	0.402775	7.37631e+06	-57639.1	1055.82	-29736.6	0.000000	0.000000	6.402900	0.017828	NaN	0.000000	0.001615	0.001741	28.0807	0.089710	0.001882	47.678	34.8852	-168.698	0.016772	0.401507	-0.664385	-0.665652	0.017828	47.678	-0.664665	-6.432179E+8	-2.771715E-11	NaN
1150	1.000000	0.410764	7.37631e+06	-57639.1	1055.82	-29736.6	0.000000	0.000000	6.410888	-0.031420	NaN	0.000000	0.001602	0.001773	28.0806	0.081124	0.001996	40.6405	-148.114	-166.932	-0.001476	0.409488	-0.656395	-0.657672	-0.031420	40.6405	-0.655815	-4.865597E+8	6.457670E-11	NaN
1150	1.000000	0.418777	7.37631e+06	-57639.1	1055.82	-29736.6	0.000000	0.000000	6.418900	-0.049535	NaN	0.000000	0.001628	0.001777	28.0808	0.110824	0.001977	56.0646	134.656	-164.499	0.029284	0.417465	-0.648382	-0.649694	-0.049535	56.0646	-0.647720	-3.768531E+8	1.314441E-10	NaN
1150	1.000000	0.426790	7.37631e+06	-57639.1	1055.82	-29736.6	0.000000	0.000000	6.426917	0.041323	NaN	0.000000	0.001577	0.001766	28.0806	0.112279	0.002027	55.3995	75.7662	-167.317	0.006520	0.425466	-0.640369	-0.641694	0.041323	55.3995	-0.640928	-3.041084E+8	-1.358832E-10	NaN
1150	1.000000	0.434793	7.37631e+06	-57639.1	1055.82	-29736.6	0.000000	0.000000	6.434915	-0.070116	NaN	0.000000	0.001567	0.001775	28.081	0.031369	0.002114	14.8352	-160.944	-167.679	-0.080844	0.433517	-0.632367	-0.633642	-0.070116	14.8352	-0.628822	-2.074168E+8	3.380440E-10	NaN
1150	1.000000	0.442788	7.37631e+06	-57639.1	1055.82	-29736.6	0.000000	0.000000	6.442911	-0.048605	NaN	0.000000	0.001532	0.001768	28.081	0.044861	0.001926	23.2983	117.333	-166.239	-0.036675	0.441453	-0.624371	-0.625706	-0.048605	23.2983	-0.622807	-1.714778E+8	2.834494E-10	NaN
1150	1.000000	0.450808	7.37631e+06	-57639.1	1055.82	-29736.6	0.000000	0.000000	6.450932	-0.037111	NaN	0.000000	0.001549	0.001741	28.0822	0.044875	0.001855	24.1866	73.1365	-164.13	-0.039852	0.449456	-0.616351	-0.617703	-0.037111	24.1866	-0.615201	-1.347871E+8	2.753276E-10	NaN
1150	1.000000	0.458808	7.37631e+06	-57639.1	1055.82	-29736.6	0.000000	0.000000	6.458932	-0.031385	NaN	0.000000	0.001583	0.001775	28.082	0.029239	0.001922	15.2098	-5.249152	-165.229	-0.083528	0.457442	-0.608351	-0.609718	-0.031385	15.2098	-0.606803	-1.033065E+8	3.038036E-10	NaN
1150	1.000000	0.466829	7.37631e+06	-57639.1	1055.82	-29736.6	0.000000	0.000000	6.466953	-0.029660	NaN	0.000000	0.001562	0.001745	28.0821	0.119550	0.001939	61.6429	134.098	-165.743	-0.040611	0.465452	-0.600331	-0.601707	-0.029660	61.6429	-0.599970	-8.318464E+7	3.565594E-10	NaN
1150	1.000000	0.474816	7.37631e+06	-57639.1	1055.82	-29736.6	0.000000	0.000000	6.474940	-0.032202	NaN	0.000000	0.001561	0.001728	28.0823	0.065099	0.002000	32.5535	78.6205	-166.453	0.040121	0.473504	-0.592344	-0.593655	-0.032202	32.5535	-0.591602	-6.378909E+7	5.048188E-10	NaN
1150	1.000000	0.482784	7.37631e+06	-57639.1	1055.82	-29736.6	0.000000	0.000000	6.482910	0.001985	NaN	0.000000	0.001551	0.001763	28.082	0.078610	0.001904	41.2856	82.9008	-170.228	-0.056686	0.481449	-0.584375	-0.585711	0.001985	41.2856	-0.584411	-5.076799E+7	-3.910092E-11	NaN
1150	1.000000	0.490844	7.37631e+06	-57639.1	1055.82	-29736.6	0.000000	0.000000	6.490970	0.023349	NaN	0.000000	0.001520	0.001801	28.0824	0.038393	0.002066	18.5793	90.7012	-164.04	0.037966	0.489570	-0.576316	-0.577590	0.023349	18.5793	-0.577258	-4.044630E+7	-5.772730E-10	NaN
1150	1.000000	0.498796	7.37631e+06	-57639.1	1055.82	-29736.6	0.000000	0.000000	6.498924	0.057694	NaN	0.000000	0.001558	0.001787	28.082	0.047973	0.001996	24.0307	28.7402	-164.8	-0.035628	0.497479	-0.568363	-0.569680	0.057694	24.0307	-0.570164	-3.227703E+7	-1.787471E-9	NaN
1150	1.000000	0.506811	7.37631e+06	-57639.1	1055.82	-29736.6	0.000000	0.000000	6.506933	-0.085200	NaN	0.000000	0.001585	0.001785	28.0822	0.073585	0.002098	35.0656	27.1212	-168.268	0.010063	0.505530	-0.560348	-0.561629	-0.085200	35.0656	-0.558526	-2.228368E+7	3.823405E-9	NaN
1150	1.000000	0.514840	7.37631e+06	-57639.1	1055.82	-29736.6	0.000000	0.000000	6.514964	-0.017777	NaN	0.000000	0.001583	0.001727	28.0821	0.022583	0.002038	11.0809	-105.755	-164.241	0.041856	0.513470	-0.552320	-0.553689	-0.017777	11.0809	-0.551116	-1.759616E+7	1.010304E-9	NaN
1150	1.000000	0.522855	7.37631e+06	-57639.1	1055.82	-29736.6	0.000000	0.000000	6.522981	0.023543	NaN	0.000000	0.001554	0.001762	28.082	0.066218	0.001906	34.7455	-38.2889	-165.086	0.036715	0.521479	-0.544304	-0.545680	0.023543	34.7455	-0.544812	-1.439054E+7	-1.636038E-9	NaN
1150	1.000000	0.530847	7.37631e+06	-57639.1	1055.82	-29736.6	0.000000	0.000000	6.530971	-0.012446	NaN	0.000000	0.001549	0.001767	28.0825	0.049082	0.001935	25.3714	-112.235	-168.343	-0.065232	0.529577	-0.536313	-0.537583	-0.012446	25.3714	-0.535945	-1.084183E+7	1.147922E-9	NaN
1150	1.000000	0.538836	7.37631e+06	-57639.1	1055.82	-29736.6	0.000000	0.000000	6.538960	-0.034520	NaN	0.000000	0.001599	0.001730	28.0822	0.121861	0.001962	62.1232	-52.8514	-167.568	0.007443	0.537522	-0.528323	-0.529638	-0.034520	62.1232	-0.527906	-8.38481e+06	4.116943E-9	NaN
1150	1.000000	0.546827	7.37631e+06	-57639.1	1055.82	-29736.6	0.000000	0.000000	6.546950	-0.055199	NaN	0.000000	0.001578	0.001714	28.0823	0.009958	0.002165	4.599214	-26.0499	-160.717	-0.054688	0.545493	-0.520332	-0.521666	-0.055199	4.599214	-0.511331	-4.93117e+06	1.119390E-8	NaN
1150	1.000000	0.554828	7.37631e+06	-57639.1	1055.82	-29736.6	0.000000	0.000000	6.554952	-0.032805	NaN	0.000000	0.001582	0.001781	28.0822	0.061746	0.002124	29.0712	-148.431	-163.529	-0.070052	0.553525	-0.512331	-0.513634	-0.032805	29.0712	-0.511485	-4.9556e+06	6.619718E-9	NaN
1150	1.000000	0.562845	7.37631e+06	-57639.1	1055.82	-29736.6	0.000000	0.000000	6.562970	-0.011821	NaN	0.000000	0.001580	0.001737	28.0819	0.036220	0.001819	19.9155	59.7927	-165.842	0.006727	0.561550	-0.504314	-0.505610	-0.011821	19.9155	-0.503869	-3.88131e+06	3.045596E-9	NaN
1150	1.000000	0.570861	7.37631e+06	-57639.1	1055.82	-29736.6	0.000000	0.000000	6.570986	0.008622	NaN	0.000000	0.001546	0.001775	28.0821	0.096761	0.001877	51.5385	-124.496	-165.659	0.062868	0.569546	-0.496299	-0.497613	0.008622	51.5385	-0.496424	-3.05574e+06	-2.821525E-9	NaN
1150	1.000000	0.578844	7.37631e+06	-57639.1	1055.82	-29736.6	0.000000	0.000000	6.578967	-0.045744	NaN	0.000000	0.001569	0.001754	28.0821	0.047863	0.001972	24.2664	61.6065	-167.62	-0.043166	0.577525	-0.488315	-0.489634	-0.045744	24.2664	-0.486901	-2.24946e+06	2.033551E-8	NaN
1150	1.000000	0.586861	7.37631e+06	-57639.1	1055.82	-29736.6	0.000000	0.000000	6.586985	-0.026997	NaN	0.000000	0.001548	0.001749	28.0812	0.099940	0.001993	50.1558	102.508	-163.51	-0.073980	0.585468	-0.480298	-0.481691	-0.026997	50.1558	-0.479894	-1.79494e+06	1.504060E-8	NaN
1150	1.000000	0.594835	7.37631e+06	-57639.1	1055.82	-29736.6	0.000000	0.000000	6.594961	0.024966	NaN	0.000000	0.001559	0.001731	28.0809	0.020627	0.002021	10.2051	-10.4707	-166.732	-0.008603	0.593587	-0.472324	-0.473572	0.024966	10.2051	-0.474159	-1.49181e+06	-1.673545E-8	NaN
1150	1.000000	0.602864	7.37631e+06	-57639.1	1055.82	-29736.6	0.000000	0.000000	6.602988	-0.016862	NaN	0.000000	0.001560	0.001781	28.0809	0.018661	0.001932	9.657039	133.472	-167.33	0.011021	0.601536	-0.464296	-0.465623	-0.016862	9.657039	-0.462986	-1.03985e+06	1.621543E-8	NaN
1150	1.000000	0.610838	7.37631e+06	-57639.1	1055.82	-29736.6	0.000000	0.000000	6.610964	0.013074	NaN	0.000000	0.001546	0.001769	28.0808	0.100279	0.002110	47.5189	176.002	-167.457	-0.070240	0.609583	-0.456321	-0.457576	0.013074	47.5189	-0.456528	-843730	-1.549547E-8	NaN
1150	1.000000	0.618875	7.37631e+06	-57639.1	1055.82	-29736.6	0.000000	0.000000	6.619001	0.009467	NaN	0.000000	0.001570	0.001754	28.0808	0.068312	0.002070	32.9956	-75.6834	-166.146	-0.045048	0.617589	-0.448284	-0.449571	0.009467	32.9956	-0.448499	-650442	-1.455406E-8	NaN
1150	1.000000	0.626864	7.37631e+06	-57639.1	1055.82	-29736.6	0.000000	0.000000	6.626988	-0.017936	NaN	0.000000	0.001505	0.001770	28.0809	0.076207	0.001856	41.0488	93.116	-166.176	-0.087826	0.625511	-0.440295	-0.441648	-0.017936	41.0488	-0.439968	-493069	3.637528E-8	NaN
1150	1.000000	0.634903	7.37631e+06	-57639.1	1055.82	-29736.6	0.000000	0.000000	6.635028	-0.017060	NaN	0.000000	0.001573	0.001770	28.0809	0.031427	0.001855	16.942	-45.0484	-164.23	-0.025184	0.633557	-0.432256	-0.433602	-0.017060	16.942	-0.431501	-374361	4.557033E-8	NaN
1150	1.000000	0.642885	7.37631e+06	-57639.1	1055.82	-29736.6	0.000000	0.000000	6.643007	-0.091320	NaN	0.000000	0.001580	0.001742	28.081	0.071516	0.001860	38.4392	131.616	-164.194	-0.017251	0.641614	-0.424274	-0.425545	-0.091320	38.4392	-0.422492	-279095	3.272021E-7	NaN
1150	1.000000	0.650878	7.37631e+06	-57639.1	1055.82	-29736.6	0.000000	0.000000	6.651001	-0.033672	NaN	0.000000	0.001561	0.001741	28.0808	0.067617	0.002104	32.134	131.987	-165.64	-0.104188	0.649568	-0.416282	-0.417591	-0.033672	32.134	-0.415496	-222073	1.516268E-7	NaN
1150	1.000000	0.658899	7.37631e+06	-57639.1	1055.82	-29736.6	0.000000	0.000000	6.659023	-0.021284	NaN	0.000000	0.001603	0.001765	28.0807	0.085668	0.001979	43.2964	85.838	-166.153	-0.034808	0.657579	-0.408260	-0.409580	-0.021284	43.2964	-0.407892	-173145	1.229279E-7	NaN
1150	1.000000	0.666916	7.37631e+06	-57639.1	1055.82	-29736.6	0.000000	0.000000	6.667041	-0.000933	NaN	0.000000	0.001576	0.001768	28.0808	0.021303	0.001944	10.9585	-61.6207	-165.39	0.047795	0.665593	-0.400243	-0.401566	-0.000933	10.9585	-0.400179	-134448	6.940510E-9	NaN
1150	1.000000	0.674866	7.37631e+06	-57639.1	1055.82	-29736.6	0.000000	0.000000	6.674989	-0.051952	NaN	0.000000	0.001568	0.001727	28.081	0.052003	0.001976	26.3157	-152.839	-166.108	-0.072467	0.673563	-0.392294	-0.393596	-0.051952	26.3157	-0.390813	-98808.5	5.257888E-7	NaN
1150	1.000000	0.682887	7.37631e+06	-57639.1	1055.82	-29736.6	0.000000	0.000000	6.683015	0.064659	NaN	0.000000	0.001586	0.001695	28.0809	0.013337	0.001870	7.133987	-6.576445	-167.799	0.064523	0.681603	-0.384272	-0.385556	0.064659	7.133987	-0.391070	-99648.3	-6.488767E-7	NaN
1150	1.000000	0.690884	7.37631e+06	-57639.1	1055.82	-29736.6	0.000000	0.000000	6.691009	-0.006967	NaN	0.000000	0.001597	0.001746	28.0811	0.066794	0.001917	34.8374	131.901	-165.696	0.015434	0.689604	-0.376275	-0.377556	-0.006967	34.8374	-0.376125	-60847.7	1.144947E-7	NaN
1150	1.000000	0.698883	7.37631e+06	-57639.1	1055.82	-29736.6	0.000000	0.000000	6.699008	-0.021880	NaN	0.000000	0.001595	0.001762	28.0811	0.095198	0.002017	47.1907	155.106	-166.928	-0.031424	0.697627	-0.368276	-0.369532	-0.021880	47.1907	-0.367928	-46374.6	4.718005E-7	NaN
1150	1.000000	0.706885	7.37631e+06	-57639.1	1055.82	-29736.6	0.000000	0.000000	6.707005	-0.126074	NaN	0.000000	0.001621	0.001743	28.0808	0.066089	0.001928	34.275	75.1391	-168.305	-0.090061	0.705620	-0.360274	-0.361539	-0.126074	34.275	-0.357516	-32803.1	3.843368E-6	NaN
1150	1.000000	0.714923	7.37631e+06	-57639.1	1055.82	-29736.6	0.000000	0.000000	6.715047	-0.021340	NaN	0.000000	0.001581	0.001750	28.081	0.049189	0.001933	25.4536	-81.9184	-168.314	0.000158	0.713616	-0.352237	-0.353543	-0.021340	25.4536	-0.351608	-26935.7	7.922693E-7	NaN
1150	1.000000	0.722928	7.37631e+06	-57639.1	1055.82	-29736.6	0.000000	0.000000	6.723052	-0.048965	NaN	0.000000	0.001582	0.001725	28.0823	0.083015	0.002025	41.0015	-115.066	-165.025	0.001917	0.721577	-0.344231	-0.345582	-0.048965	41.0015	-0.343335	-20423.7	2.397463E-6	NaN
1150	1.000000	0.730892	7.37631e+06	-57639.1	1055.82	-29736.6	0.000000	0.000000	6.731013	-0.092437	NaN	0.000000	0.001614	0.001746	28.0823	0.014600	0.002003	7.287591	-134.907	-166.135	-0.109995	0.729597	-0.336267	-0.337563	-0.092437	7.287591	-0.326754	-11691.7	7.906210E-6	NaN
1150	1.000000	0.738933	7.37631e+06	-57639.1	1055.82	-29736.6	0.000000	0.000000	6.739058	0.008838	NaN	0.000000	0.001595	0.001715	28.0822	0.007936	0.002004	3.959475	12.0443	-167.252	0.062450	0.737584	-0.328227	-0.329575	0.008838	3.959475	-0.329901	-13001.7	-6.797460E-7	NaN
1150	1.000000	0.746943	7.37631e+06	-57639.1	1055.82	-29736.6	0.000000	0.000000	6.747068	-0.000571	NaN	0.000000	0.001613	0.001742	28.0821	0.142977	0.001918	74.5318	8.792669	-166.149	-0.081118	0.745641	-0.320216	-0.321518	-0.000571	74.5318	-0.320210	-9369.87	6.096143E-8	NaN
1150	1.000000	0.754926	7.37631e+06	-57639.1	1055.82	-29736.6	0.000000	0.000000	6.755050	-0.020784	NaN	0.000000	0.001563	0.001730	28.0824	0.169114	0.001958	86.3568	172.742	-165.019	-0.063165	0.753602	-0.312234	-0.313557	-0.020784	86.3568	-0.312053	-7102.65	2.926230E-6	NaN
1150	1.000000	0.762932	7.37631e+06	-57639.1	1055.82	-29736.6	0.000000	0.000000	6.763058	0.002225	NaN	0.000000	0.001581	0.001755	28.0818	0.056308	0.001991	28.277	-113.173	-166.781	-0.026546	0.761630	-0.304227	-0.305529	0.002225	28.277	-0.304286	-5449.49	-4.082311E-7	NaN
1150	1.000000	0.770955	7.37631e+06	-57639.1	1055.82	-29736.6	0.000000	0.000000	6.771079	-0.042505	NaN	0.000000	0.001580	0.001766	28.0821	0.084475	0.001924	43.8993	128.914	-167.297	0.013402	0.769609	-0.296204	-0.297551	-0.042505	43.8993	-0.295478	-4029.22	1.054913E-5	NaN
1150	1.000000	0.778940	7.37631e+06	-57639.1	1055.82	-29736.6	0.000000	0.000000	6.779062	-0.073080	NaN	0.000000	0.001565	0.001742	28.082	0.033998	0.001998	17.0165	101.273	-161.66	0.025525	0.777593	-0.288219	-0.289567	-0.073080	17.0165	-0.284998	-2806.99	2.603495E-5	NaN
1150	1.000000	0.786946	7.37631e+06	-57639.1	1055.82	-29736.6	0.000000	0.000000	6.787070	-0.014500	NaN	0.000000	0.001516	0.001740	28.0822	0.004307	0.001968	2.188269	17.0416	-168.429	-0.018839	0.785638	-0.280214	-0.281521	-0.014500	2.188269	-0.275244	-2000.29	7.248928E-6	NaN
1150	1.000000	0.794932	7.37631e+06	-57639.1	1055.82	-29736.6	0.000000	0.000000	6.795056	-0.022060	NaN	0.000000	0.001514	0.001735	28.0826	0.050079	0.001984	25.2421	-143.106	-165.064	0.049457	0.793626	-0.272228	-0.273534	-0.022060	25.2421	-0.271572	-1759.65	1.253649E-5	NaN
1150	1.000000	0.802964	7.37631e+06	-57639.1	1055.82	-29736.6	0.000000	0.000000	6.803089	-0.007954	NaN	0.000000	0.001522	0.001770	28.0823	0.050257	0.001966	25.5623	-99.0682	-163.008	-0.000845	0.801631	-0.264195	-0.265528	-0.007954	25.5623	-0.263962	-1347.52	5.902825E-6	NaN
1150	1.000000	0.810934	7.37631e+06	-57639.1	1055.82	-29736.6	0.000000	0.000000	6.811058	-0.018332	NaN	0.000000	0.001551	0.001749	28.0824	0.013217	0.001915	6.903245	-3.769605	-162.037	-0.030844	0.809649	-0.256225	-0.257511	-0.018332	6.903245	-0.254234	-955.679	1.918230E-5	NaN
1150	1.000000	0.818923	7.37631e+06	-57639.1	1055.82	-29736.6	0.000000	0.000000	6.819049	0.018563	NaN	0.000000	0.001552	0.001745	28.0823	0.048160	0.001987	24.2384	56.0291	-164.001	0.003789	0.817650	-0.248236	-0.249510	0.018563	24.2384	-0.248810	-788.054	-2.355565E-5	NaN
1150	1.000000	0.826932	7.37631e+06	-57639.1	1055.82	-29736.6	0.000000	0.000000	6.827055	-0.036304	NaN	0.000000	0.001560	0.001737	28.0821	0.065673	0.002023	32.4555	-16.9212	-167.736	-0.052420	0.825669	-0.240228	-0.241491	-0.036304	32.4555	-0.239389	-562.341	6.455803E-5	NaN
1150	1.000000	0.834960	7.37631e+06	-57639.1	1055.82	-29736.6	0.000000	0.000000	6.835083	-0.068025	NaN	0.000000	0.001558	0.001750	28.0821	0.111118	0.001939	57.2993	-131.366	-166.687	-0.076099	0.833580	-0.232199	-0.233579	-0.068025	57.2993	-0.231309	-419.918	0.000162	NaN
1150	1.000000	0.842949	7.37631e+06	-57639.1	1055.82	-29736.6	0.000000	0.000000	6.843074	-0.017025	NaN	0.000000	0.001575	0.001738	28.0822	0.078146	0.001986	39.3447	149.483	-167.081	-0.051805	0.841676	-0.224210	-0.225483	-0.017025	39.3447	-0.223886	-320.349	5.314409E-5	NaN
1150	1.000000	0.850973	7.37631e+06	-57639.1	1055.82	-29736.6	0.000000	0.000000	6.851097	-0.013982	NaN	0.000000	0.001579	0.001731	28.0822	0.062568	0.001981	31.5774	-14.4663	-164.655	-0.038330	0.849649	-0.216187	-0.217510	-0.013982	31.5774	-0.215855	-238.371	5.865455E-5	NaN
1150	1.000000	0.858959	7.37631e+06	-57639.1	1055.82	-29736.6	0.000000	0.000000	6.859084	-0.001258	NaN	0.000000	0.001587	0.001695	28.0814	0.074949	0.002065	36.2903	27.8818	-167.421	-0.043262	0.857634	-0.208201	-0.209525	-0.001258	36.2903	-0.208175	-179.152	7.020935E-6	NaN
1150	1.000000	0.866977	7.37631e+06	-57639.1	1055.82	-29736.6	0.000000	0.000000	6.867101	-0.017154	NaN	0.000000	0.001577	0.001732	28.081	0.077580	0.001991	38.9717	109.643	-167.481	-0.076241	0.865653	-0.200183	-0.201507	-0.017154	38.9717	-0.199853	-131.001	0.000131	NaN
1150	1.000000	0.874989	7.37631e+06	-57639.1	1055.82	-29736.6	0.000000	0.000000	6.875109	-0.112184	NaN	0.000000	0.001583	0.001745	28.0807	0.040806	0.002077	19.6463	-29.0028	-166.505	-0.086038	0.873692	-0.192171	-0.193467	-0.112184	19.6463	-0.187888	-82.9247	0.001353	NaN
1150	1.000000	0.882999	7.37631e+06	-57639.1	1055.82	-29736.6	0.000000	0.000000	6.883120	-0.093725	NaN	0.000000	0.001533	0.001715	28.0809	0.038800	0.002196	17.6661	147.719	-169.619	-0.081740	0.881666	-0.184160	-0.185493	-0.093725	17.6661	-0.180181	-61.4536	0.001525	NaN
1150	1.000000	0.890979	7.37631e+06	-57639.1	1055.82	-29736.6	0.000000	0.000000	6.891104	0.011914	NaN	0.000000	0.001549	0.001716	28.081	0.053700	0.002022	26.5599	50.9133	-164.012	0.000709	0.889626	-0.176180	-0.177534	0.011914	26.5599	-0.176517	-53.2115	-0.000224	NaN
1150	1.000000	0.898987	7.37631e+06	-57639.1	1055.82	-29736.6	0.000000	0.000000	6.899111	-0.027047	NaN	0.000000	0.001508	0.001734	28.0809	0.099147	0.002011	49.2928	156.999	-165.395	-0.153731	0.897644	-0.168173	-0.169515	-0.027047	49.2928	-0.167761	-37.5524	0.000720	NaN
1150	1.000000	0.906995	7.37631e+06	-57639.1	1055.82	-29736.6	0.000000	0.000000	6.907120	-0.012329	NaN	0.000000	0.001522	0.001707	28.0811	0.072294	0.001900	38.0533	39.3514	-167.507	-0.007323	0.905682	-0.160164	-0.161477	-0.012329	38.0533	-0.159921	-27.3264	0.000451	NaN
1150	1.000000	0.914988	7.37631e+06	-57639.1	1055.82	-29736.6	0.000000	0.000000	6.915111	-0.053755	NaN	0.000000	0.001553	0.001721	28.081	0.086190	0.001848	46.6302	-117.322	-168.663	-0.026628	0.913677	-0.152171	-0.153482	-0.053755	46.6302	-0.151307	-19.1336	0.002809	NaN
1150	1.000000	0.922975	7.37631e+06	-57639.1	1055.82	-29736.6	0.000000	0.000000	6.923098	-0.039435	NaN	0.000000	0.001527	0.001700	28.0811	0.095393	0.002063	46.2381	71.1104	-167.535	-0.033632	0.921652	-0.144185	-0.145507	-0.039435	46.2381	-0.143545	-13.7781	0.002862	NaN
1150	1.000000	0.930992	7.37631e+06	-57639.1	1055.82	-29736.6	0.000000	0.000000	6.931119	0.026276	NaN	0.000000	0.001525	0.001688	28.081	0.085091	0.002162	39.3651	-117.488	-163.751	-0.017506	0.929663	-0.136167	-0.137497	0.026276	39.3651	-0.136668	-10.2338	-0.002568	NaN
1150	1.000000	0.939009	7.37631e+06	-57639.1	1055.82	-29736.6	0.000000	0.000000	6.939133	-0.013970	NaN	0.000000	0.001583	0.001700	28.0809	0.102885	0.002100	48.9957	-150.93	-167.322	-0.054042	0.937680	-0.128151	-0.129480	-0.013970	48.9957	-0.127937	-6.946763	0.002011	NaN
1150	1.000000	0.946986	7.37631e+06	-57639.1	1055.82	-29736.6	0.000000	0.000000	6.947111	0.005451	NaN	0.000000	0.001597	0.001697	28.0811	0.030317	0.002072	14.6313	-169.959	-161.148	-0.043344	0.945723	-0.120174	-0.121437	0.005451	14.6313	-0.120453	-4.934188	-0.001105	NaN
1150	1.000000	0.955024	7.37631e+06	-57639.1	1055.82	-29736.6	0.000000	0.000000	6.955151	0.027699	NaN	0.000000	0.001571	0.001705	28.0811	0.003434	0.001979	1.735122	140.836	-167.587	0.094131	0.953699	-0.112135	-0.113461	0.027699	1.735122	-0.124108	-5.838608	-0.004744	NaN
1150	1.000000	0.963015	7.37631e+06	-57639.1	1055.82	-29736.6	0.000000	0.000000	6.963141	0.018514	NaN	0.000000	0.001525	0.001742	28.0813	0.025443	0.002137	11.9082	167.831	-166.12	-0.003440	0.961686	-0.104144	-0.105473	0.018514	11.9082	-0.105310	-2.387071	-0.007756	NaN
1150	1.000000	0.971002	7.37631e+06	-57639.1	1055.82	-29736.6	0.000000	0.000000	6.971127	-0.013118	NaN	0.000000	0.001563	0.001721	28.0808	0.048882	0.001986	24.616	-144.901	-167.1	-0.045502	0.969685	-0.096157	-0.097474	-0.013118	24.616	-0.095757	-1.467684	0.008938	NaN
1150	1.000000	0.979017	7.37631e+06	-57639.1	1055.82	-29736.6	0.000000	0.000000	6.979141	-0.046684	NaN	0.000000	0.001526	0.001738	28.0808	0.093285	0.001984	47.0245	-16.5521	-166.776	-0.051036	0.977697	-0.088142	-0.089463	-0.046684	47.0245	-0.087397	-0.938132	0.049762	NaN
1150	1.000000	0.987015	7.37631e+06	-57639.1	1055.82	-29736.6	0.000000	0.000000	6.987140	-0.017744	NaN	0.000000	0.001563	0.001758	28.0813	0.098519	0.001898	51.9185	172.195	-167.643	-0.117279	0.985700	-0.080144	-0.081459	-0.017744	51.9185	-0.079888	-0.615006	0.028852	NaN
1150	1.000000	0.995028	7.37631e+06	-57639.1	1055.82	-29736.6	0.000000	0.000000	6.995152	-0.032866	NaN	0.000000	0.001586	0.001743	28.0819	0.097613	0.001956	49.9003	-83.9584	-165.359	-0.079169	0.993741	-0.072131	-0.073418	-0.032866	49.9003	-0.071637	-0.377130	0.087147	NaN
1150	1.000000	1.003014	7.37631e+06	-57639.1	1055.82	-29736.6	0.000000	0.000000	7.003141	0.055127	NaN	0.000000	0.001570	0.001750	28.0825	0.176208	0.001994	88.3616	178.681	-162.44	0.079411	1.001743	-0.064145	-0.065417	0.055127	88.3616	-0.064613	-0.243128	-0.226742	NaN
1150	1.000000	1.011042	7.37631e+06	-57639.1	1055.82	-29736.6	0.000000	0.000000	7.011167	-0.014537	NaN	0.000000	0.001587	0.001720	28.0821	0.018113	0.002124	8.526559	36.0283	-165.639	-0.032105	1.009663	-0.056117	-0.057496	-0.014537	8.526559	-0.054839	-0.127370	0.114129	NaN
1150	1.000000	1.018989	7.37631e+06	-57639.1	1055.82	-29736.6	0.000000	0.000000	7.019114	0.008853	NaN	0.000000	0.001546	0.001762	28.0822	0.071565	0.002024	35.3543	-98.2616	-168.664	-0.005561	1.017685	-0.048171	-0.049474	0.008853	35.3543	-0.048359	-0.081369	-0.108798	NaN
1150	1.000000	1.027028	7.37631e+06	-57639.1	1055.82	-29736.6	0.000000	0.000000	7.027151	-0.049501	NaN	0.000000	0.001566	0.001725	28.082	0.080318	0.001937	41.4678	73.6889	-166.126	0.069070	1.025741	-0.040131	-0.041418	-0.049501	41.4678	-0.039236	-0.042872	1.154622	NaN
1150	1.000000	1.035029	7.37631e+06	-57639.1	1055.82	-29736.6	0.000000	0.000000	7.035155	0.028442	NaN	0.000000	0.001560	0.001740	28.0821	0.056189	0.001959	28.6818	-116.184	-167.35	0.012677	1.033741	-0.032131	-0.033418	0.028442	28.6818	-0.032875	-0.027766	-1.024366	NaN
1150	1.000000	1.043006	7.37631e+06	-57639.1	1055.82	-29736.6	0.000000	0.000000	7.043129	-0.040955	NaN	0.000000	0.001516	0.001745	28.082	0.053802	0.002015	26.7056	10.3984	-163.42	0.003488	1.041757	-0.024154	-0.025402	-0.040955	26.7056	-0.023004	-0.014980	2.734036	NaN
1150	1.000000	1.051029	7.37631e+06	-57639.1	1055.82	-29736.6	0.000000	0.000000	7.051153	-0.025543	NaN	0.000000	0.001528	0.001722	28.0821	0.150968	0.002029	74.3978	-158.424	-166.372	-0.040555	1.049703	-0.016130	-0.017456	-0.025543	74.3978	-0.015873	-0.009805	2.605126	NaN
1150	1.000000	1.059041	7.37631e+06	-57639.1	1055.82	-29736.6	0.000000	0.000000	7.059166	-0.004521	NaN	0.000000	0.001556	0.001729	28.0823	0.028183	0.001930	14.603	159.459	-164.106	-0.015874	1.057756	-0.008118	-0.009404	-0.004521	14.603	-0.007886	-0.005165	0.875255	NaN
1150	1.000000	1.067016	7.37631e+06	-57639.1	1055.82	-29736.6	0.000000	0.000000	7.067293	3.678883	NaN	0.000000	0.001557	0.001735	28.0821	4.356593	0.001864	2336.88	12.7033	-171.207	2.586771	1.065748	-0.000143	-0.001412	3.678883	2336.88	-0.001324	-0.000965	-3813.8	NaN
1150	2.000000	1.072649	7.37631e+06	-57639.1	1055.82	-29736.6	0.000000	0.000000	7.073096	7.807772	NaN	0.000000	0.001553	0.001738	28.0821	8.298696	0.001625	5107.68	7.368933	-171.418	7.398685	1.072296	0.005490	0.005136	7.807772	5107.68	0.004344	0.003542	2204.21	78407.9
1150	2.000000	1.074636	7.37631e+06	-57639.1	1055.82	-29736.6	0.000000	0.000000	7.075203	10.7212	NaN	0.000000	0.001558	0.001745	28.0819	11.4359	0.001753	6522.18	8.958105	-175.031	10.5066	1.074354	0.007477	0.007195	10.7212	6522.18	0.006244	0.005298	2023.71	81868.9
1150	2.000000	1.076596	7.37631e+06	-57639.1	1055.82	-29736.6	0.000000	0.000000	7.077291	13.8408	NaN	0.000000	0.001578	0.001751	28.0826	13.3228	0.001654	8056.08	7.770764	-176.687	13.1426	1.076266	0.009437	0.009107	13.8408	8056.08	0.008148	0.007195	1923.66	86772.1
1150	2.000000	1.078567	7.37631e+06	-57639.1	1055.82	-29736.6	0.000000	0.000000	7.079409	17.4254	NaN	0.000000	0.001582	0.001796	28.0821	15.8616	0.001716	9242.17	4.460426	-174.834	15.723	1.078230	0.011408	0.011070	17.4254	9242.17	0.009994	0.009174	1899.35	88157.4
1150	2.000000	1.080612	7.37631e+06	-57639.1	1055.82	-29736.6	0.000000	0.000000	7.081652	22.2253	NaN	0.000000	0.001582	0.001801	28.0822	18.261	0.001884	9693.07	9.199259	-177.724	21.9537	1.080270	0.013453	0.013110	22.2253	9693.07	0.011733	0.011172	1989.41	83786.2
1150	2.000000	1.082567	7.37631e+06	-57639.1	1055.82	-29736.6	0.000000	0.000000	7.083780	26.4315	NaN	0.000000	0.001585	0.001774	28.0823	20.7289	0.001840	11268.1	8.175655	-179.338	26.1174	1.082222	0.015408	0.015063	26.4315	11268.1	0.013649	0.013525	1954.21	88521.8
1150	2.000000	1.084582	7.37631e+06	-57639.1	1055.82	-29736.6	0.000000	0.000000	7.085918	29.4135	NaN	0.000000	0.001591	0.001681	28.0822	22.2839	0.001733	12858.7	4.019508	-175.236	29.8853	1.084267	0.017423	0.017107	29.4135	12858.7	0.015707	0.016240	1811.13	92187.3
1150	2.000000	1.086547	7.37631e+06	-57639.1	1055.82	-29736.6	0.000000	0.000000	7.088083	34.2973	NaN	0.000000	0.001605	0.001728	28.0824	23.3932	0.001757	13316.3	3.054006	-175.897	32.8815	1.086196	0.019387	0.019037	34.2973	13316.3	0.017456	0.018701	1834.01	88966.7
1150	2.000000	1.088528	7.37631e+06	-57639.1	1055.82	-29736.6	0.000000	0.000000	7.090339	40.9632	NaN	0.000000	0.001577	0.001742	28.0809	26.5881	0.001838	14468.6	7.037693	-179.221	39.6401	1.088194	0.021369	0.021035	40.9632	14468.6	0.019245	0.021370	1916.82	90426.1
1150	2.000000	1.090521	7.37631e+06	-57639.1	1055.82	-29736.6	0.000000	0.000000	7.092427	43.2872	NaN	0.000000	0.001594	0.001748	28.0808	28.2846	0.001679	16850.4	3.921734	-178.17	42.2037	1.090216	0.023362	0.023056	43.2872	16850.4	0.021435	0.024847	1742.13	97666
1150	2.000000	1.092525	7.37631e+06	-57639.1	1055.82	-29736.6	0.000000	0.000000	7.094578	46.8631	NaN	0.000000	0.001562	0.001725	28.0814	29.8606	0.001706	17498.4	1.787988	-177.403	45.7838	1.092226	0.025366	0.025067	46.8631	17498.4	0.023357	0.028095	1668.05	95380.8
1150	2.000000	1.094534	7.37631e+06	-57639.1	1055.82	-29736.6	0.000000	0.000000	7.096904	54.5609	NaN	0.000000	0.001618	0.001690	28.0809	32.8799	0.001876	17525.7	3.305943	-178.425	55.0868	1.094304	0.027374	0.027145	54.5609	17525.7	0.025040	0.031088	1755.07	90814.8
1150	2.000000	1.096532	7.37631e+06	-57639.1	1055.82	-29736.6	0.000000	0.000000	7.099139	60.3281	NaN	0.000000	0.001604	0.001717	28.0823	33.8994	0.001805	18785.3	4.061734	-179.194	59.3629	1.096191	0.029373	0.029032	60.3281	18785.3	0.026964	0.034686	1739.27	92154
1150	2.000000	1.098471	7.37631e+06	-57639.1	1055.82	-29736.6	0.000000	0.000000	7.101495	70.4595	NaN	0.000000	0.001626	0.001729	28.0811	35.4821	0.001776	19981.3	0.348353	-176.809	67.5696	1.098148	0.031311	0.030989	70.4595	19981.3	0.028667	0.038026	1852.96	93617.9
1150	2.000000	1.100542	7.37631e+06	-57639.1	1055.82	-29736.6	0.000000	0.000000	7.103685	73.35	NaN	0.000000	0.001574	0.001750	28.081	38.3996	0.001796	21385.7	6.821584	176.403	73.1387	1.100220	0.033382	0.033060	73.35	21385.7	0.030810	0.042439	1728.34	94844.6
1150	2.000000	1.102516	7.37631e+06	-57639.1	1055.82	-29736.6	0.000000	0.000000	7.105926	79.8151	NaN	0.000000	0.001574	0.001707	28.0813	40.4488	0.001863	21712.7	7.857180	174.544	78.4994	1.102238	0.035357	0.035079	79.8151	21712.7	0.032600	0.046306	1723.66	92187
1150	2.000000	1.104492	7.37631e+06	-57639.1	1055.82	-29736.6	0.000000	0.000000	7.108364	91.0666	NaN	0.000000	0.001613	0.001728	28.0811	41.7825	0.001778	23496.9	2.983076	179.155	89.0886	1.104166	0.037333	0.037006	91.0666	23496.9	0.034426	0.050418	1806.22	95606.9
1150	2.000000	1.106457	7.37631e+06	-57639.1	1055.82	-29736.6	0.000000	0.000000	7.110538	96.1273	NaN	0.000000	0.001599	0.001749	28.0821	41.8076	0.001676	24951.9	0.030735	-178.916	93.3445	1.106223	0.039298	0.039063	96.1273	24951.9	0.036409	0.055077	1745.33	97138.5
1150	2.000000	1.108449	7.37631e+06	-57639.1	1055.82	-29736.6	0.000000	0.000000	7.112964	106.698	NaN	0.000000	0.001576	0.001715	28.0809	45.0078	0.001711	26297.5	3.169918	178.322	102.511	1.108111	0.041290	0.040952	106.698	26297.5	0.038247	0.059576	1790.96	98435.5
1150	2.000000	1.110481	7.37631e+06	-57639.1	1055.82	-29736.6	0.000000	0.000000	7.115236	112.51	NaN	0.000000	0.001605	0.001723	28.081	47.6521	0.001944	24512.5	4.143289	178.072	108.315	1.110191	0.043322	0.043032	112.51	24512.5	0.039879	0.063717	1765.76	88722
1150	2.000000	1.112511	7.37631e+06	-57639.1	1055.82	-29736.6	0.000000	0.000000	7.117582	120.204	NaN	0.000000	0.001593	0.001721	28.0813	49.3292	0.001820	27106.5	7.376396	173.229	119.597	1.112261	0.045352	0.045102	120.204	27106.5	0.042026	0.069369	1732.81	94029.3
1150	2.000000	1.114454	7.37631e+06	-57639.1	1055.82	-29736.6	0.000000	0.000000	7.119833	127.703	NaN	0.000000	0.001596	0.001738	28.081	51.5273	0.001775	29031.7	7.149437	173.201	125.829	1.114149	0.047294	0.046989	127.703	29031.7	0.043995	0.074761	1708.16	97008.2
1150	2.000000	1.116525	7.37631e+06	-57639.1	1055.82	-29736.6	0.000000	0.000000	7.122147	133.593	NaN	0.000000	0.001575	0.001707	28.0813	52.1355	0.001791	29103.2	2.145129	178.559	136.265	1.116261	0.049366	0.049102	133.593	29103.2	0.045923	0.080230	1665.13	93874.2
1150	2.000000	1.118492	7.37631e+06	-57639.1	1055.82	-29736.6	0.000000	0.000000	7.124565	144.563	NaN	0.000000	0.001591	0.001724	28.081	54.3752	0.001795	30298.7	-0.513139	-179.149	143.978	1.118245	0.051332	0.051085	144.563	30298.7	0.047754	0.085597	1688.88	94616.8
1150	2.000000	1.120524	7.37631e+06	-57639.1	1055.82	-29736.6	0.000000	0.000000	7.127042	155.362	NaN	0.000000	0.001565	0.001710	28.0815	58.4851	0.001911	30607.6	10.5201	171.011	155.461	1.120114	0.053365	0.052955	155.362	30607.6	0.049558	0.091052	1706.3	92673.9
1150	2.000000	1.122509	7.37631e+06	-57639.1	1055.82	-29736.6	0.000000	0.000000	7.129362	163.517	NaN	0.000000	0.001544	0.001688	28.0825	58.5725	0.001722	34008.7	2.909649	176.735	164.62	1.122176	0.055350	0.055017	163.517	34008.7	0.051744	0.097878	1670.61	99316.2
1150	2.000000	1.124496	7.37631e+06	-57639.1	1055.82	-29736.6	0.000000	0.000000	7.131540	168.159	NaN	0.000000	0.001605	0.001681	28.0824	62.8696	0.001884	33370	5.706553	173.759	166.217	1.124182	0.057337	0.057023	168.159	33370	0.053557	0.103724	1621.21	94664.9
1150	2.000000	1.126449	7.37631e+06	-57639.1	1055.82	-29736.6	0.000000	0.000000	7.133700	173.186	NaN	0.000000	0.001600	0.001703	28.0824	63.0366	0.001786	35301.6	5.022761	173.062	169.371	1.126261	0.059290	0.059101	173.186	35301.6	0.055610	0.110539	1566.74	97008.5
1150	2.000000	1.128490	7.37631e+06	-57639.1	1055.82	-29736.6	0.000000	0.000000	7.136427	189.86	NaN	0.000000	0.001570	0.001713	28.0821	63.8494	0.001665	38357.1	2.409294	176.405	189.777	1.128112	0.061331	0.060953	189.86	38357.1	0.057618	0.117407	1617.11	102276
1150	2.000000	1.130541	7.37631e+06	-57639.1	1055.82	-29736.6	0.000000	0.000000	7.138824	198.279	NaN	0.000000	0.001587	0.001700	28.0823	68.0486	0.001929	35272	11.9305	168.181	197.926	1.130025	0.063382	0.062865	198.279	35272	0.059166	0.122833	1614.21	91948.6
1150	2.000000	1.132496	7.37631e+06	-57639.1	1055.82	-29736.6	0.000000	0.000000	7.141120	206.554	NaN	0.000000	0.001588	0.001735	28.0826	68.4726	0.001821	37604.9	7.280575	171.99	208.504	1.132169	0.065337	0.065010	206.554	37604.9	0.061217	0.130208	1586.34	95213.3
1150	2.000000	1.134468	7.37631e+06	-57639.1	1055.82	-29736.6	0.000000	0.000000	7.143193	209.031	NaN	0.000000	0.001533	0.001736	28.0824	70.6861	0.001819	38857.4	1.383539	176.449	207.155	1.134265	0.067308	0.067106	209.031	38857.4	0.063274	0.137808	1516.82	95633.2
1150	2.000000	1.136506	7.37631e+06	-57639.1	1055.82	-29736.6	0.000000	0.000000	7.145755	221.744	NaN	0.000000	0.001514	0.001756	28.0822	70.9744	0.001784	39775.1	-0.309694	178.516	221.196	1.136188	0.069347	0.069028	221.744	39775.1	0.065166	0.144980	1529.48	95439.8
1150	2.000000	1.138483	7.37631e+06	-57639.1	1055.82	-29736.6	0.000000	0.000000	7.148430	238.709	NaN	0.000000	0.001572	0.001742	28.0819	72.8743	0.001757	41471.5	3.579712	174.603	239.12	1.138107	0.071323	0.070948	238.709	41471.5	0.067006	0.152124	1569.17	97145.8
1150	2.000000	1.140607	7.37631e+06	-57639.1	1055.82	-29736.6	0.000000	0.000000	7.151100	251.986	NaN	0.000000	0.001571	0.001735	28.0819	75.2655	0.001856	40548.4	9.106027	170.5	256.932	1.140057	0.073448	0.072898	251.986	40548.4	0.068787	0.159189	1582.93	92851.9
1150	2.000000	1.142427	7.37631e+06	-57639.1	1055.82	-29736.6	0.000000	0.000000	7.153507	266.256	NaN	0.000000	0.001573	0.001710	28.0822	75.6755	0.001716	44106.6	7.721657	170.542	263.311	1.141917	0.075267	0.074758	266.256	44106.6	0.070740	0.167110	1593.29	98576.8
1150	2.000000	1.144466	7.37631e+06	-57639.1	1055.82	-29736.6	0.000000	0.000000	7.155213	258.158	NaN	0.000000	0.001571	0.001714	28.0822	79.1671	0.001795	44104	3.846151	172.979	256.494	1.144400	0.077307	0.077240	258.158	44104	0.072917	0.176155	1465.52	96007.2
1150	2.000000	1.146436	7.37631e+06	-57639.1	1055.82	-29736.6	0.000000	0.000000	7.158079	279.943	NaN	0.000000	0.001590	0.001723	28.082	79.5503	0.001811	43928.3	5.382915	171.796	278.224	1.146217	0.079277	0.079058	279.943	43928.3	0.074497	0.182861	1530.91	93854.9
1150	2.000000	1.148458	7.37631e+06	-57639.1	1055.82	-29736.6	0.000000	0.000000	7.160450	288.43	NaN	0.000000	0.001563	0.001731	28.0821	81.9882	0.001818	45104.3	1.863653	175.068	286.923	1.148200	0.081298	0.081041	288.43	45104.3	0.076502	0.191539	1505.85	94159.1
1150	2.000000	1.150470	7.37631e+06	-57639.1	1055.82	-29736.6	0.000000	0.000000	7.163308	308.982	NaN	0.000000	0.001543	0.001723	28.0819	84.5652	0.001787	47324	4.057611	173.02	309.419	1.150197	0.083310	0.083038	308.982	47324	0.078414	0.199988	1545	96683.7
1150	2.000000	1.152508	7.37631e+06	-57639.1	1055.82	-29736.6	0.000000	0.000000	7.165892	322.233	NaN	0.000000	0.001541	0.001673	28.0819	86.5199	0.001810	47799.1	5.005266	172.262	325.184	1.152103	0.085349	0.084944	322.233	47799.1	0.080293	0.208461	1545.78	95649.1
1150	2.000000	1.154483	7.37631e+06	-57639.1	1055.82	-29736.6	0.000000	0.000000	7.167911	323.322	NaN	0.000000	0.001563	0.001695	28.0821	88.9722	0.001776	50091.6	3.431614	172.778	324.013	1.154318	0.087324	0.087159	323.322	50091.6	0.082483	0.218540	1479.46	97897.8
1150	2.000000	1.156444	7.37631e+06	-57639.1	1055.82	-29736.6	0.000000	0.000000	7.170827	346.525	NaN	0.000000	0.001536	0.001666	28.0806	89.5258	0.001787	50086.2	3.168474	173.713	346.441	1.156134	0.089285	0.088975	346.525	50086.2	0.084096	0.226109	1532.56	96234.9
1150	2.000000	1.158481	7.37631e+06	-57639.1	1055.82	-29736.6	0.000000	0.000000	7.173216	355.083	NaN	0.000000	0.001561	0.001669	28.0809	93.3422	0.001925	48499.5	7.470408	169.319	354.278	1.158160	0.091322	0.091001	355.083	48499.5	0.085831	0.234382	1514.98	91526.8
1150	2.000000	1.160543	7.37631e+06	-57639.1	1055.82	-29736.6	0.000000	0.000000	7.175858	369.165	NaN	0.000000	0.001537	0.001648	28.0808	94.2344	0.001901	49579.1	5.108389	172.16	373.298	1.160095	0.093384	0.092936	369.165	49579.1	0.087799	0.243937	1513.37	91713.5
1150	2.000000	1.162423	7.37631e+06	-57639.1	1055.82	-29736.6	0.000000	0.000000	7.178013	375.841	NaN	0.000000	0.001571	0.001692	28.0808	94.3396	0.001842	51207.3	2.785450	173.344	374.204	1.162264	0.095264	0.095104	375.841	51207.3	0.089759	0.253627	1481.86	92898.2
1150	2.000000	1.164452	7.37631e+06	-57639.1	1055.82	-29736.6	0.000000	0.000000	7.180943	397.755	NaN	0.000000	0.001541	0.001653	28.0807	97.8554	0.001794	54552.5	5.321101	170.838	397.925	1.164158	0.097293	0.096999	397.755	54552.5	0.091825	0.264030	1506.48	96997.8
1150	2.000000	1.166446	7.37631e+06	-57639.1	1055.82	-29736.6	0.000000	0.000000	7.183276	405.994	NaN	0.000000	0.001587	0.001656	28.0809	98.7228	0.001759	56123.2	5.998665	169.709	406.752	1.166150	0.099287	0.098990	405.994	56123.2	0.093861	0.274480	1479.14	97872.5
1150	2.000000	1.168367	7.37631e+06	-57639.1	1055.82	-29736.6	0.000000	0.000000	7.186171	429.677	NaN	0.000000	0.001548	0.001666	28.0813	100.115	0.001779	56288.5	2.020387	173.881	425.841	1.168034	0.101207	0.100874	429.677	56288.5	0.095482	0.282930	1518.67	96683.8
1150	2.000000	1.170455	7.37631e+06	-57639.1	1055.82	-29736.6	0.000000	0.000000	7.188892	445.066	NaN	0.000000	0.001550	0.001663	28.0811	102.947	0.001909	53937.1	6.729342	170.032	443.41	1.170103	0.103295	0.102944	445.066	53937.1	0.097107	0.291522	1526.7	91269.5