File: remote_trans/data/nanoindenter/0828-1/data/Data_2025-08-06,11h17m57s/2025-07-22_16-23-58_1_290.txt
2025-07-22, 16:23:58, 1
Index	Phase	Displacement	Time	Pos X	Pos Y	Pos Z	Rot A	Rot B	Piezo Z	Force A	Force B	Gripper	Voltage A	Voltage B	Temperature	Amplitude force	Amplitude pos	Stiffness	Phase shift	Phase excitation	Force A raw	Displacement raw	HMax	HMax raw	Real Force	Real Stiffness	Contact Depth	Area	Hardness	Reduced Mod.
[#]	[#]	[um]	[s]	[um]	[um]	[um]	[m°]	[m°]	[um]	[uN]	[uN]	[V]	[V]	[V]	[°C]	[uN]	[um]	[N/m]	[°]	[°]	[uN]	[um]	[um]	[um]	[uN]	[N/m]	[um]	[um^2]	[MPa]	[MPa]
290	1.000000	0.002589	7.36789e+06	-53139.1	955.819	-29747.4	0.000000	0.000000	6.002803	-0.030003	NaN	0.000000	0.001581	0.001689	28.0787	0.059798	0.001004	59.5715	33.8539	-163.011	-0.058728	0.001287	-1.081775	-1.083077	-0.030003	59.5715	-1.081397	-2.820256E+14	1.063847E-16	NaN
290	1.000000	0.010538	7.36789e+06	-53139.1	955.819	-29747.4	0.000000	0.000000	6.010750	-0.049010	NaN	0.000000	0.001591	0.001671	28.0783	0.037615	0.001063	35.3901	-11.2875	-160.784	-0.082392	0.009239	-1.073827	-1.075126	-0.049010	35.3901	-1.072788	-2.160974E+14	2.267943E-16	NaN
290	1.000000	0.018513	7.36789e+06	-53139.1	955.819	-29747.4	0.000000	0.000000	6.018725	-0.044477	NaN	0.000000	0.001672	0.001677	28.0784	0.100066	0.001634	61.2449	132.355	-170.526	-0.024869	0.017222	-1.065852	-1.067143	-0.044477	61.2449	-1.065307	-1.714508E+14	2.594176E-16	NaN
290	1.000000	0.026565	7.36789e+06	-53139.1	955.818	-29747.4	0.000000	0.000000	6.026777	-0.058674	NaN	0.000000	0.001623	0.001655	28.0784	0.048124	0.001783	26.9828	-103.187	-166.102	-0.041842	0.025243	-1.057800	-1.059122	-0.058674	26.9828	-1.056169	-1.292217E+14	4.540604E-16	NaN
290	1.000000	0.034522	7.36789e+06	-53139.1	955.819	-29747.4	0.000000	0.000000	6.034736	0.007846	NaN	0.000000	0.001598	0.001673	28.0784	0.024980	0.001993	12.5355	-75.3458	-162.742	0.032805	0.033225	-1.049843	-1.051140	0.007846	12.5355	-1.050312	-1.077986E+14	-7.278233E-17	NaN
290	1.000000	0.042550	7.36789e+06	-53139.1	955.82	-29747.4	0.000000	0.000000	6.042763	-0.037371	NaN	0.000000	0.001618	0.001709	28.0786	0.110080	0.001987	55.3934	129.717	-170.483	-0.012547	0.041212	-1.041814	-1.043153	-0.037371	55.3934	-1.041309	-8.157600E+13	4.581088E-16	NaN
290	1.000000	0.050534	7.36789e+06	-53139.1	955.819	-29747.4	0.000000	0.000000	6.050746	-0.051001	NaN	0.000000	0.001640	0.001700	28.0783	0.050356	0.001869	26.9411	-148.861	-167.866	-0.002841	0.049154	-1.033831	-1.035211	-0.051001	26.9411	-1.032411	-6.193096E+13	8.235093E-16	NaN
290	1.000000	0.058516	7.36789e+06	-53139.1	955.819	-29747.4	0.000000	0.000000	6.058731	0.025790	NaN	0.000000	0.001648	0.001658	28.0801	0.023768	0.002040	11.6484	-87.0926	-168.241	0.079665	0.057263	-1.025849	-1.027102	0.025790	11.6484	-1.027510	-5.320866E+13	-4.846993E-16	NaN
290	1.000000	0.066534	7.36789e+06	-53139.1	955.817	-29747.4	0.000000	0.000000	6.066747	-0.021407	NaN	0.000000	0.001665	0.001683	28.0797	0.051415	0.001923	26.7389	43.3745	-166.946	-0.011738	0.065232	-1.017831	-1.019132	-0.021407	26.7389	-1.017231	-3.869805E+13	5.531904E-16	NaN
290	1.000000	0.074507	7.36789e+06	-53139.1	955.819	-29747.4	0.000000	0.000000	6.074721	-0.019110	NaN	0.000000	0.001629	0.001690	28.0798	0.049385	0.002053	24.0518	140.322	-167.547	0.024843	0.073214	-1.009857	-1.011150	-0.019110	24.0518	-1.009262	-3.023037E+13	6.321517E-16	NaN
290	1.000000	0.082545	7.36789e+06	-53139.1	955.818	-29747.4	0.000000	0.000000	6.082759	-0.025400	NaN	0.000000	0.001645	0.001636	28.0797	0.152273	0.002123	71.7255	-82.3434	-166.173	0.009290	0.081248	-1.001819	-1.003117	-0.025400	71.7255	-1.001554	-2.380600E+13	1.066938E-15	NaN
290	1.000000	0.090541	7.36789e+06	-53139.1	955.819	-29747.4	0.000000	0.000000	6.090757	0.029634	NaN	0.000000	0.001626	0.001628	28.0797	0.051772	0.002079	24.8994	124.017	-168.572	0.074096	0.089234	-0.993823	-0.995131	0.029634	24.8994	-0.994716	-1.925837E+13	-1.538778E-15	NaN
290	1.000000	0.098545	7.36789e+06	-53139.1	955.818	-29747.4	0.000000	0.000000	6.098759	-0.021677	NaN	0.000000	0.001630	0.001657	28.0801	0.094804	0.001983	47.8113	173.101	-165.56	-0.035274	0.097281	-0.985819	-0.987083	-0.021677	47.8113	-0.985479	-1.446189E+13	1.498872E-15	NaN
290	1.000000	0.106555	7.36789e+06	-53139.1	955.819	-29747.4	0.000000	0.000000	6.106767	-0.054442	NaN	0.000000	0.001620	0.001659	28.0797	0.055008	0.001979	27.795	169.878	-169.934	0.034731	0.105244	-0.977810	-0.979121	-0.054442	27.795	-0.976341	-1.089214E+13	4.998255E-15	NaN
290	1.000000	0.114562	7.36789e+06	-53139.1	955.819	-29747.4	0.000000	0.000000	6.114779	0.051743	NaN	0.000000	0.001601	0.001644	28.0797	0.144629	0.001903	75.9983	131.229	-165.624	0.027093	0.113256	-0.969802	-0.971109	0.051743	75.9983	-0.970313	-9.033987E+12	-5.727612E-15	NaN
290	1.000000	0.122589	7.36789e+06	-53139.1	955.818	-29747.4	0.000000	0.000000	6.122803	-0.003265	NaN	0.000000	0.001626	0.001639	28.0795	0.024768	0.002031	12.196	-76.2085	-163.905	0.005850	0.121256	-0.961776	-0.963109	-0.003265	12.196	-0.961575	-6.888111E+12	4.739779E-16	NaN
290	1.000000	0.130570	7.36789e+06	-53139.1	955.818	-29747.4	0.000000	0.000000	6.130785	0.014891	NaN	0.000000	0.001620	0.001640	28.0793	0.014594	0.001998	7.304743	-18.3508	-167.505	-0.048443	0.129260	-0.953795	-0.955104	0.014891	7.304743	-0.955323	-5.673045E+12	-2.624840E-15	NaN
290	1.000000	0.138558	7.36789e+06	-53139.1	955.818	-29747.4	0.000000	0.000000	6.138772	-0.007588	NaN	0.000000	0.001601	0.001657	28.0798	0.039632	0.001893	20.9395	57.5367	-169.769	-0.051369	0.137226	-0.945807	-0.947139	-0.007588	20.9395	-0.945535	-4.186058E+12	1.812745E-15	NaN
290	1.000000	0.146605	7.36789e+06	-53139.1	955.818	-29747.4	0.000000	0.000000	6.146821	0.052557	NaN	0.000000	0.001559	0.001651	28.0797	0.055649	0.001989	27.9743	-53.3748	-167.426	0.045228	0.145268	-0.937760	-0.939096	0.052557	27.9743	-0.939169	-3.434998E+12	-1.530032E-14	NaN
290	1.000000	0.154578	7.36789e+06	-53139.1	955.819	-29747.4	0.000000	0.000000	6.154791	-0.044558	NaN	0.000000	0.001609	0.001645	28.0795	0.107896	0.002129	50.6841	107.106	-164.45	-0.067581	0.153298	-0.929786	-0.931067	-0.044558	50.6841	-0.929127	-2.514273E+12	1.772204E-14	NaN
290	1.000000	0.162557	7.36789e+06	-53139.1	955.819	-29747.4	0.000000	0.000000	6.162769	-0.072007	NaN	0.000000	0.001552	0.001643	28.0794	0.015031	0.001869	8.041140	-23.1489	-165.079	-0.149138	0.161251	-0.921807	-0.923114	-0.072007	8.041140	-0.915091	-1.625256E+12	4.430532E-14	NaN
290	1.000000	0.170597	7.36789e+06	-53139.1	955.819	-29747.4	0.000000	0.000000	6.170813	0.029829	NaN	0.000000	0.001541	0.001654	28.0794	0.022859	0.002053	11.1321	166.178	-168.688	-0.020621	0.169329	-0.913767	-0.915036	0.029829	11.1321	-0.915777	-1.660291E+12	-1.796628E-14	NaN
290	1.000000	0.178577	7.36789e+06	-53139.1	955.819	-29747.4	0.000000	0.000000	6.178792	0.014312	NaN	0.000000	0.001582	0.001652	28.0796	0.171904	0.002050	83.8464	108.846	-166.731	-0.029090	0.177274	-0.905788	-0.907090	0.014312	83.8464	-0.905916	-1.221773E+12	-1.171418E-14	NaN
290	1.000000	0.186563	7.36789e+06	-53139.1	955.819	-29747.4	0.000000	0.000000	6.186777	-0.013877	NaN	0.000000	0.001599	0.001679	28.0795	0.085197	0.001972	43.1982	30.6213	-168.571	-0.032427	0.185276	-0.897801	-0.899089	-0.013877	43.1982	-0.897560	-9.421048E+11	1.473007E-14	NaN
290	1.000000	0.194590	7.36789e+06	-53139.1	955.818	-29747.4	0.000000	0.000000	6.194802	-0.060430	NaN	0.000000	0.001573	0.001662	28.0783	0.118885	0.002047	58.0836	129.54	-166.269	-0.000905	0.193197	-0.889775	-0.891167	-0.060430	58.0836	-0.888995	-7.216465E+11	8.373899E-14	NaN
290	1.000000	0.202613	7.36789e+06	-53139.1	955.818	-29747.4	0.000000	0.000000	6.202826	-0.027914	NaN	0.000000	0.001557	0.001653	28.0785	0.049846	0.001898	26.2668	-38.3822	-163.22	0.010001	0.201302	-0.881752	-0.883062	-0.027914	26.2668	-0.880955	-5.618503E+11	4.968296E-14	NaN
290	1.000000	0.210579	7.36789e+06	-53139.1	955.818	-29747.4	0.000000	0.000000	6.210793	-0.003626	NaN	0.000000	0.001603	0.001650	28.0785	0.057924	0.001912	30.2969	-151.229	-166.54	-0.011362	0.209275	-0.873786	-0.875089	-0.003626	30.2969	-0.873696	-4.481729E+11	8.091544E-15	NaN
290	1.000000	0.218604	7.36789e+06	-53139.1	955.818	-29747.4	0.000000	0.000000	6.218817	-0.029482	NaN	0.000000	0.001597	0.001633	28.0784	0.042930	0.001910	22.4732	-109.639	-166.58	-0.021675	0.217289	-0.865761	-0.867076	-0.029482	22.4732	-0.864777	-3.394439E+11	8.685439E-14	NaN
290	1.000000	0.226597	7.36789e+06	-53139.1	955.82	-29747.4	0.000000	0.000000	6.226808	-0.075518	NaN	0.000000	0.001594	0.001653	28.0784	0.098494	0.002018	48.8019	173.035	-168.058	-0.053074	0.225364	-0.857767	-0.859000	-0.075518	48.8019	-0.856607	-2.631417E+11	2.869848E-13	NaN
290	1.000000	0.234596	7.36789e+06	-53139.1	955.819	-29747.4	0.000000	0.000000	6.234811	0.028319	NaN	0.000000	0.001614	0.001662	28.0786	0.117140	0.002035	57.5655	78.9667	-167.264	0.095166	0.233315	-0.849769	-0.851050	0.028319	57.5655	-0.850138	-2.150825E+11	-1.316677E-13	NaN
290	1.000000	0.242604	7.36789e+06	-53139.1	955.818	-29747.5	0.000000	0.000000	6.242816	-0.045381	NaN	0.000000	0.001592	0.001675	28.0785	0.099974	0.002023	49.4157	133.209	-167.637	-0.125984	0.241290	-0.841761	-0.843075	-0.045381	49.4157	-0.841072	-1.621126E+11	2.799335E-13	NaN
290	1.000000	0.250585	7.36789e+06	-53139.1	955.818	-29747.5	0.000000	0.000000	6.250799	-0.026620	NaN	0.000000	0.001603	0.001640	28.0787	0.087753	0.001965	44.6528	-58.1414	-164.047	-0.076291	0.249283	-0.833779	-0.835082	-0.026620	44.6528	-0.833332	-1.273342E+11	2.090583E-13	NaN
290	1.000000	0.258654	7.36789e+06	-53139.1	955.818	-29747.5	0.000000	0.000000	6.258866	-0.059012	NaN	0.000000	0.001600	0.001662	28.0791	0.021973	0.001968	11.1626	173.357	-167.514	-0.027402	0.257265	-0.825711	-0.827100	-0.059012	11.1626	-0.821746	-8.869196E+10	6.653586E-13	NaN
290	1.000000	0.266632	7.36789e+06	-53139.1	955.819	-29747.5	0.000000	0.000000	6.266844	-0.057581	NaN	0.000000	0.001638	0.001661	28.0784	0.055066	0.002054	26.8077	-171.149	-163.763	-0.002489	0.265282	-0.817733	-0.819082	-0.057581	26.8077	-0.816122	-7.440748E+10	7.738640E-13	NaN
290	1.000000	0.274625	7.36789e+06	-53139.1	955.818	-29747.5	0.000000	0.000000	6.274837	-0.047509	NaN	0.000000	0.001619	0.001679	28.0786	0.046657	0.001952	23.8971	47.2798	-166.532	-0.091066	0.273359	-0.809740	-0.811006	-0.047509	23.8971	-0.808249	-5.818467E+10	8.165162E-13	NaN
290	1.000000	0.282639	7.36789e+06	-53139.1	955.819	-29747.5	0.000000	0.000000	6.282853	-0.015237	NaN	0.000000	0.001556	0.001723	28.0784	0.072287	0.002001	36.1318	-136.061	-163.214	-0.006406	0.281308	-0.801725	-0.803057	-0.015237	36.1318	-0.801409	-4.698818E+10	3.242669E-13	NaN
290	1.000000	0.290638	7.36789e+06	-53139.1	955.818	-29747.5	0.000000	0.000000	6.290852	-0.008769	NaN	0.000000	0.001570	0.001740	28.0788	0.059607	0.001996	29.8572	-5.168683	-166.177	-0.042016	0.289299	-0.793726	-0.795066	-0.008769	29.8572	-0.793506	-3.670274E+10	2.389280E-13	NaN
290	1.000000	0.298633	7.36789e+06	-53139.1	955.818	-29747.5	0.000000	0.000000	6.298846	-0.018189	NaN	0.000000	0.001610	0.001724	28.0782	0.089657	0.001935	46.3259	-141.057	-165.819	-0.035607	0.297357	-0.785732	-0.787008	-0.018189	46.3259	-0.785438	-2.851756E+10	6.378048E-13	NaN
290	1.000000	0.306643	7.36789e+06	-53139.1	955.819	-29747.5	0.000000	0.000000	6.306856	-0.021008	NaN	0.000000	0.001597	0.001706	28.0783	0.052294	0.001924	27.1734	46.4096	-165.91	-0.024516	0.305306	-0.777722	-0.779058	-0.021008	27.1734	-0.777142	-2.199844E+10	9.549819E-13	NaN
290	1.000000	0.314634	7.36789e+06	-53139.1	955.819	-29747.5	0.000000	0.000000	6.314847	-0.018055	NaN	0.000000	0.001580	0.001711	28.0782	0.049319	0.002074	23.7744	140.365	-164.51	0.007617	0.313314	-0.769731	-0.771050	-0.018055	23.7744	-0.769161	-1.713570E+10	1.053655E-12	NaN
290	1.000000	0.322640	7.3679e+06	-53139.1	955.818	-29747.5	0.000000	0.000000	6.322857	0.054144	NaN	0.000000	0.001625	0.001681	28.0783	0.123260	0.001924	64.0589	-102.674	-164.987	-0.016296	0.321326	-0.761725	-0.763038	0.054144	64.0589	-0.762358	-1.384793E+10	-3.909908E-12	NaN
290	1.000000	0.330679	7.3679e+06	-53139.1	955.819	-29747.5	0.000000	0.000000	6.330895	0.032981	NaN	0.000000	0.001674	0.001691	28.0796	0.083090	0.001993	41.6998	46.518	-165.734	-0.034988	0.329330	-0.753685	-0.755034	0.032981	41.6998	-0.754279	-1.075115E+10	-3.067660E-12	NaN
290	1.000000	0.338669	7.3679e+06	-53139.1	955.819	-29747.5	0.000000	0.000000	6.338881	-0.059400	NaN	0.000000	0.001654	0.001686	28.0795	0.077329	0.001922	40.2329	-117.932	-162.291	-0.020088	0.337379	-0.745696	-0.746986	-0.059400	40.2329	-0.744588	-7.934962E+9	7.485891E-12	NaN
290	1.000000	0.346671	7.3679e+06	-53139.1	955.819	-29747.5	0.000000	0.000000	6.346886	0.023152	NaN	0.000000	0.001656	0.001651	28.0799	0.066801	0.002135	31.2851	96.0368	-165.461	-0.034527	0.345317	-0.737694	-0.739048	0.023152	31.2851	-0.738249	-6.504281E+9	-3.559546E-12	NaN
290	1.000000	0.354632	7.3679e+06	-53139.1	955.819	-29747.5	0.000000	0.000000	6.354846	0.005043	NaN	0.000000	0.001646	0.001623	28.0796	0.122315	0.002141	57.1254	-157.574	-163.322	-0.007894	0.353407	-0.729733	-0.730957	0.005043	57.1254	-0.729799	-4.989663E+9	-1.010664E-12	NaN
290	1.000000	0.362681	7.3679e+06	-53139.1	955.818	-29747.5	0.000000	0.000000	6.362892	-0.071268	NaN	0.000000	0.001624	0.001606	28.0797	0.075954	0.001894	40.0946	-68.1732	-167.546	-0.081505	0.361309	-0.721684	-0.723056	-0.071268	40.0946	-0.720351	-3.709011E+9	1.921474E-11	NaN
290	1.000000	0.370653	7.3679e+06	-53139.1	955.819	-29747.5	0.000000	0.000000	6.370866	-0.050251	NaN	0.000000	0.001662	0.001586	28.0798	0.094726	0.001965	48.2153	-130.63	-166.536	-0.018723	0.369356	-0.713711	-0.715008	-0.050251	48.2153	-0.712930	-2.937820E+9	1.710470E-11	NaN
290	1.000000	0.378669	7.3679e+06	-53139.1	955.817	-29747.5	0.000000	0.000000	6.378881	-0.040048	NaN	0.000000	0.001667	0.001576	28.0797	0.071447	0.001925	37.116	129.745	-166.515	-0.004804	0.377389	-0.705696	-0.706976	-0.040048	37.116	-0.704887	-2.281685E+9	1.755196E-11	NaN
290	1.000000	0.386662	7.3679e+06	-53139.1	955.819	-29747.5	0.000000	0.000000	6.386875	-0.040892	NaN	0.000000	0.001678	0.001597	28.0799	0.032039	0.002047	15.6503	116.094	-162.813	-0.006865	0.385354	-0.697702	-0.699011	-0.040892	15.6503	-0.695743	-1.711531E+9	2.389214E-11	NaN
290	1.000000	0.394694	7.3679e+06	-53139.1	955.819	-29747.5	0.000000	0.000000	6.394909	0.006129	NaN	0.000000	0.001667	0.001627	28.0796	0.094138	0.002018	46.6472	103.464	-167.52	-0.085221	0.393395	-0.689671	-0.690970	0.006129	46.6472	-0.689769	-1.418280E+9	-4.321238E-12	NaN
290	1.000000	0.402677	7.3679e+06	-53139.1	955.817	-29747.5	0.000000	0.000000	6.402890	-0.024120	NaN	0.000000	0.001651	0.001634	28.0797	0.023693	0.001970	12.0278	-177.99	-167.39	0.002552	0.401356	-0.681688	-0.683009	-0.024120	12.0278	-0.680184	-1.048865E+9	2.299626E-11	NaN
290	1.000000	0.410714	7.3679e+06	-53139.1	955.818	-29747.5	0.000000	0.000000	6.410927	-0.028293	NaN	0.000000	0.001659	0.001649	28.08	0.056481	0.001931	29.2495	-164.684	-162.598	0.007544	0.409384	-0.673650	-0.674981	-0.028293	29.2495	-0.672925	-8.344839E+8	3.390534E-11	NaN
290	1.000000	0.418680	7.3679e+06	-53139.1	955.82	-29747.5	0.000000	0.000000	6.418895	0.000832	NaN	0.000000	0.001682	0.001625	28.0798	0.106089	0.002018	52.5615	40.9728	-168.671	-0.046660	0.417399	-0.665684	-0.666965	0.000832	52.5615	-0.665696	-6.644704E+8	-1.251874E-12	NaN
290	1.000000	0.426684	7.3679e+06	-53139.1	955.818	-29747.5	0.000000	0.000000	6.426899	0.002117	NaN	0.000000	0.001692	0.001639	28.08	0.085133	0.001999	42.5827	-153.473	-165.71	-0.045523	0.425387	-0.657680	-0.658977	0.002117	42.5827	-0.657718	-5.166575E+8	-4.098419E-12	NaN
290	1.000000	0.434688	7.3679e+06	-53139.1	955.819	-29747.5	0.000000	0.000000	6.434903	0.011921	NaN	0.000000	0.001666	0.001618	28.0796	0.063638	0.002006	31.7168	-60.1201	-165.18	-0.024932	0.433327	-0.649676	-0.651037	0.011921	31.7168	-0.649958	-4.044488E+8	-2.947459E-11	NaN
290	1.000000	0.442686	7.3679e+06	-53139.1	955.818	-29747.5	0.000000	0.000000	6.442903	0.059161	NaN	0.000000	0.001686	0.001620	28.0797	0.077191	0.001990	38.7951	-83.5328	-169.417	0.033548	0.441422	-0.641678	-0.642942	0.059161	38.7951	-0.642822	-3.228517E+8	-1.832463E-10	NaN
290	1.000000	0.450708	7.3679e+06	-53139.1	955.819	-29747.5	0.000000	0.000000	6.450922	0.005087	NaN	0.000000	0.001650	0.001603	28.0797	0.031221	0.001902	16.4167	-160.056	-165.027	-0.007133	0.449416	-0.633657	-0.634949	0.005087	16.4167	-0.633889	-2.434583E+8	-2.089296E-11	NaN
290	1.000000	0.458736	7.3679e+06	-53139.1	955.819	-29747.5	0.000000	0.000000	6.458947	-0.072546	NaN	0.000000	0.001656	0.001645	28.0796	0.068285	0.002064	33.081	-155.736	-160.538	0.029159	0.457388	-0.625629	-0.626976	-0.072546	33.081	-0.623984	-1.779843E+8	4.075954E-10	NaN
290	1.000000	0.466687	7.3679e+06	-53139.1	955.818	-29747.5	0.000000	0.000000	6.466900	-0.022306	NaN	0.000000	0.001644	0.001657	28.0788	0.108513	0.001871	57.9986	137.459	-166.346	0.042546	0.465402	-0.617678	-0.618963	-0.022306	57.9986	-0.617390	-1.444601E+8	1.544115E-10	NaN
290	1.000000	0.474707	7.3679e+06	-53139.1	955.818	-29747.5	0.000000	0.000000	6.474917	-0.095308	NaN	0.000000	0.001642	0.001604	28.0783	0.116795	0.001913	61.0677	78.3746	-168.049	-0.028856	0.473459	-0.609658	-0.610906	-0.095308	61.0677	-0.608487	-1.089680E+8	8.746451E-10	NaN
290	1.000000	0.482709	7.3679e+06	-53139.1	955.818	-29747.5	0.000000	0.000000	6.482923	-0.014892	NaN	0.000000	0.001697	0.001640	28.0783	0.067819	0.001990	34.0859	34.9507	-165.616	0.042975	0.481421	-0.601656	-0.602944	-0.014892	34.0859	-0.601328	-8.684541E+7	1.714792E-10	NaN
290	1.000000	0.490722	7.3679e+06	-53139.1	955.818	-29747.5	0.000000	0.000000	6.490933	-0.067332	NaN	0.000000	0.001655	0.001628	28.0782	0.058299	0.002122	27.4719	-74.7253	-163.74	-0.058261	0.489454	-0.593643	-0.594911	-0.067332	27.4719	-0.591805	-6.420126E+7	1.048768E-9	NaN
290	1.000000	0.498717	7.3679e+06	-53139.1	955.819	-29747.5	0.000000	0.000000	6.498934	0.050458	NaN	0.000000	0.001704	0.001636	28.0784	0.133150	0.001967	67.7047	123.633	-167.216	-0.052225	0.497404	-0.585647	-0.586961	0.050458	67.7047	-0.586206	-5.374677E+7	-9.388132E-10	NaN
290	1.000000	0.506691	7.3679e+06	-53139.1	955.819	-29747.5	0.000000	0.000000	6.506903	-0.061071	NaN	0.000000	0.001644	0.001649	28.0785	0.124743	0.001972	63.2538	-158.153	-161.553	-0.033810	0.505373	-0.577673	-0.578992	-0.061071	63.2538	-0.576949	-4.005103E+7	1.524839E-9	NaN
290	1.000000	0.514741	7.3679e+06	-53139.1	955.819	-29747.5	0.000000	0.000000	6.514952	-0.067468	NaN	0.000000	0.001641	0.001611	28.0783	0.021455	0.002018	10.6321	119.672	-166.279	-0.014220	0.513414	-0.569624	-0.570950	-0.067468	10.6321	-0.564865	-2.726818E+7	2.474249E-9	NaN
290	1.000000	0.522712	7.3679e+06	-53139.1	955.819	-29747.5	0.000000	0.000000	6.522925	-0.017002	NaN	0.000000	0.001637	0.001636	28.0785	0.054021	0.001916	28.1969	-14.6779	-167.283	-0.025503	0.521441	-0.561653	-0.562923	-0.017002	28.1969	-0.561201	-2.426551E+7	7.006679E-10	NaN
290	1.000000	0.530742	7.3679e+06	-53139.1	955.819	-29747.5	0.000000	0.000000	6.530954	-0.057284	NaN	0.000000	0.001630	0.001627	28.0784	0.078581	0.001871	42.0055	-72.9943	-168.893	-0.125178	0.529391	-0.553623	-0.554973	-0.057284	42.0055	-0.552600	-1.844862E+7	3.105042E-9	NaN
290	1.000000	0.538759	7.3679e+06	-53139.1	955.819	-29747.5	0.000000	0.000000	6.538974	0.014911	NaN	0.000000	0.001653	0.001640	28.0785	0.100633	0.002009	50.0844	173.716	-164.618	-0.011124	0.537423	-0.545605	-0.546941	0.014911	50.0844	-0.545828	-1.486488E+7	-1.003115E-9	NaN
290	1.000000	0.546745	7.3679e+06	-53139.1	955.82	-29747.5	0.000000	0.000000	6.546958	-0.017546	NaN	0.000000	0.001663	0.001613	28.0784	0.042300	0.002081	20.3284	-173.155	-165.53	-0.041155	0.545412	-0.537620	-0.538953	-0.017546	20.3284	-0.536972	-1.120369E+7	1.566049E-9	NaN
290	1.000000	0.554762	7.3679e+06	-53139.1	955.819	-29747.5	0.000000	0.000000	6.554978	0.042608	NaN	0.000000	0.001598	0.001636	28.0785	0.137576	0.002061	66.7522	-169.51	-165.216	0.025546	0.553472	-0.529603	-0.530893	0.042608	66.7522	-0.530081	-8.98886e+06	-4.740141E-9	NaN
290	1.000000	0.562763	7.3679e+06	-53139.1	955.819	-29747.5	0.000000	0.000000	6.562974	-0.090780	NaN	0.000000	0.001573	0.001632	28.0786	0.015147	0.001932	7.840038	22.5072	-162.69	-0.052794	0.561431	-0.521602	-0.522933	-0.090780	7.840038	-0.512917	-5.1885e+06	1.749646E-8	NaN
290	1.000000	0.570769	7.3679e+06	-53139.1	955.819	-29747.5	0.000000	0.000000	6.570980	-0.073993	NaN	0.000000	0.001640	0.001683	28.0784	0.070696	0.002132	33.152	142.2	-167.692	0.055897	0.569444	-0.513596	-0.514921	-0.073993	33.152	-0.511922	-5.02551e+06	1.472350E-8	NaN
290	1.000000	0.578747	7.3679e+06	-53139.1	955.818	-29747.5	0.000000	0.000000	6.578964	0.052420	NaN	0.000000	0.001599	0.001691	28.0783	0.059693	0.002018	29.5754	60.9394	-167.231	0.082328	0.577506	-0.505617	-0.506859	0.052420	29.5754	-0.506947	-4.28426e+06	-1.223555E-8	NaN
290	1.000000	0.586749	7.3679e+06	-53139.1	955.819	-29747.5	0.000000	0.000000	6.586963	-0.023453	NaN	0.000000	0.001591	0.001663	28.0783	0.098745	0.001938	50.9594	-10.2706	-161.175	0.013395	0.585430	-0.497615	-0.498934	-0.023453	50.9594	-0.497270	-3.13996e+06	7.469049E-9	NaN
290	1.000000	0.594776	7.3679e+06	-53139.1	955.818	-29747.5	0.000000	0.000000	6.594989	-0.038305	NaN	0.000000	0.001581	0.001647	28.0784	0.059774	0.002008	29.7677	-110.624	-167.753	-0.060808	0.593487	-0.489589	-0.490878	-0.038305	29.7677	-0.488623	-2.37769e+06	1.611018E-8	NaN
290	1.000000	0.602766	7.3679e+06	-53139.1	955.818	-29747.5	0.000000	0.000000	6.602981	0.029187	NaN	0.000000	0.001589	0.001666	28.0795	0.055178	0.002039	27.0644	-88.0761	-162.502	0.111466	0.601385	-0.481599	-0.482980	0.029187	27.0644	-0.482408	-1.94638e+06	-1.499548E-8	NaN
290	1.000000	0.610744	7.3679e+06	-53139.1	955.819	-29747.5	0.000000	0.000000	6.610957	-0.047766	NaN	0.000000	0.001587	0.001657	28.0799	0.034338	0.002113	16.2546	67.2839	-163.419	-0.097221	0.609462	-0.473620	-0.474903	-0.047766	16.2546	-0.471416	-1.36543e+06	3.498223E-8	NaN
290	1.000000	0.618746	7.3679e+06	-53139.1	955.819	-29747.5	0.000000	0.000000	6.618960	-0.029698	NaN	0.000000	0.001595	0.001676	28.0797	0.066636	0.002014	33.0805	30.3649	-165.241	-0.032497	0.617459	-0.465618	-0.466906	-0.029698	33.0805	-0.464945	-1.10783e+06	2.680699E-8	NaN
290	1.000000	0.626733	7.3679e+06	-53139.1	955.818	-29747.5	0.000000	0.000000	6.626950	0.061746	NaN	0.000000	0.001611	0.001651	28.0796	0.018253	0.002014	9.061519	97.51	-167.515	-0.065631	0.625421	-0.457632	-0.458944	0.061746	9.061519	-0.462742	-1.03168e+06	-5.984938E-8	NaN
290	1.000000	0.634766	7.3679e+06	-53139.1	955.819	-29747.5	0.000000	0.000000	6.634978	-0.064168	NaN	0.000000	0.001628	0.001652	28.0799	0.019303	0.001831	10.5437	-55.5021	-164.856	0.031057	0.633419	-0.449599	-0.450945	-0.064168	10.5437	-0.445034	-581265	1.103944E-7	NaN
290	1.000000	0.642750	7.3679e+06	-53139.1	955.819	-29747.5	0.000000	0.000000	6.642964	0.000301	NaN	0.000000	0.001571	0.001664	28.0799	0.041526	0.001934	21.4743	106.389	-168.367	-0.026693	0.641461	-0.441615	-0.442904	0.000301	21.4743	-0.441625	-520351	-5.793068E-10	NaN
290	1.000000	0.650764	7.3679e+06	-53139.1	955.818	-29747.5	0.000000	0.000000	6.650975	-0.067175	NaN	0.000000	0.001627	0.001619	28.0799	0.130485	0.002068	63.0898	-136.328	-167.401	-0.117232	0.649467	-0.433601	-0.434897	-0.067175	63.0898	-0.432802	-390565	1.719949E-7	NaN
290	1.000000	0.658790	7.3679e+06	-53139.1	955.819	-29747.5	0.000000	0.000000	6.659003	-0.042734	NaN	0.000000	0.001597	0.001641	28.0801	0.023213	0.002041	11.3753	-50.2327	-167.422	-0.015551	0.657494	-0.425574	-0.426870	-0.042734	11.3753	-0.422757	-281515	1.517997E-7	NaN
290	1.000000	0.666784	7.3679e+06	-53139.1	955.819	-29747.5	0.000000	0.000000	6.666997	-0.028392	NaN	0.000000	0.001580	0.001628	28.0797	0.026374	0.002075	12.7101	-23.9445	-162.744	-0.036641	0.665462	-0.417581	-0.418902	-0.028392	12.7101	-0.415905	-225065	1.261507E-7	NaN
290	1.000000	0.674790	7.3679e+06	-53139.1	955.819	-29747.5	0.000000	0.000000	6.675004	-0.003106	NaN	0.000000	0.001594	0.001623	28.0799	0.057853	0.002012	28.7534	-161.208	-167.488	-0.017717	0.673526	-0.409575	-0.410838	-0.003106	28.7534	-0.409494	-182473	1.702086E-8	NaN
290	1.000000	0.682799	7.3679e+06	-53139.1	955.819	-29747.5	0.000000	0.000000	6.683010	-0.080264	NaN	0.000000	0.001584	0.001635	28.0798	0.055891	0.002029	27.5457	171.204	-165.439	-0.092031	0.681440	-0.401566	-0.402925	-0.080264	27.5457	-0.399380	-130965	6.128657E-7	NaN
290	1.000000	0.690789	7.3679e+06	-53139.1	955.818	-29747.5	0.000000	0.000000	6.691003	-0.014079	NaN	0.000000	0.001564	0.001687	28.08	0.065357	0.002039	32.0608	-125.985	-165.635	-0.115503	0.689462	-0.393575	-0.394902	-0.014079	32.0608	-0.393246	-107047	1.315192E-7	NaN
290	1.000000	0.698802	7.3679e+06	-53139.1	955.819	-29747.5	0.000000	0.000000	6.699014	-0.044743	NaN	0.000000	0.001611	0.001656	28.0799	0.023548	0.001950	12.0735	135.401	-169.567	0.017616	0.697521	-0.385563	-0.386843	-0.044743	12.0735	-0.382784	-75826	5.900778E-7	NaN
290	1.000000	0.706805	7.3679e+06	-53139.1	955.819	-29747.5	0.000000	0.000000	6.707021	0.044829	NaN	0.000000	0.001601	0.001669	28.0798	0.015588	0.001990	7.834049	92.1284	-161.945	0.078997	0.705553	-0.377560	-0.378811	0.044829	7.834049	-0.381852	-73528	-6.096926E-7	NaN
290	1.000000	0.714823	7.3679e+06	-53139.1	955.818	-29747.5	0.000000	0.000000	6.715034	-0.059861	NaN	0.000000	0.001591	0.001663	28.0798	0.117917	0.001938	60.8299	-103.206	-168.463	-0.047254	0.713547	-0.369542	-0.370817	-0.059861	60.8299	-0.368804	-47742.1	1.253837E-6	NaN
290	1.000000	0.722831	7.3679e+06	-53139.1	955.82	-29747.5	0.000000	0.000000	6.723045	-0.010853	NaN	0.000000	0.001613	0.001632	28.0798	0.083560	0.002120	39.4151	-136.255	-164.744	-0.037202	0.721511	-0.361534	-0.362853	-0.010853	39.4151	-0.361327	-37241.7	2.914099E-7	NaN
290	1.000000	0.730821	7.3679e+06	-53139.1	955.819	-29747.5	0.000000	0.000000	6.731031	-0.103797	NaN	0.000000	0.001594	0.001630	28.08	0.094493	0.001969	47.9797	52.9018	-166.227	-0.097586	0.729476	-0.353544	-0.354889	-0.103797	47.9797	-0.351922	-27219.5	3.813324E-6	NaN
290	1.000000	0.738790	7.3679e+06	-53139.1	955.818	-29747.5	0.000000	0.000000	6.739002	-0.045054	NaN	0.000000	0.001548	0.001622	28.0794	0.051984	0.002078	25.0153	19.6733	-166.99	0.009248	0.737489	-0.345575	-0.346876	-0.045054	25.0153	-0.344224	-21041.2	2.141247E-6	NaN
290	1.000000	0.746787	7.3679e+06	-53139.1	955.819	-29747.5	0.000000	0.000000	6.747000	-0.039092	NaN	0.000000	0.001593	0.001627	28.0787	0.050808	0.002050	24.7883	168.557	-164.955	-0.048276	0.745459	-0.337578	-0.338905	-0.039092	24.7883	-0.336395	-16179.3	2.416170E-6	NaN
290	1.000000	0.754846	7.3679e+06	-53139.1	955.818	-29747.5	0.000000	0.000000	6.755061	0.021783	NaN	0.000000	0.001587	0.001625	28.0789	0.068463	0.001962	34.8861	65.3692	-165.713	0.017792	0.753545	-0.329518	-0.330820	0.021783	34.8861	-0.329987	-13039.4	-1.670578E-6	NaN
290	1.000000	0.762820	7.3679e+06	-53139.1	955.819	-29747.5	0.000000	0.000000	6.763034	-0.005395	NaN	0.000000	0.001587	0.001624	28.0786	0.087993	0.001990	44.2148	21.4011	-164.56	-0.034704	0.761607	-0.321544	-0.322758	-0.005395	44.2148	-0.321453	-9772.74	5.520156E-7	NaN
290	1.000000	0.770838	7.3679e+06	-53139.1	955.818	-29747.5	0.000000	0.000000	6.771049	-0.061527	NaN	0.000000	0.001608	0.001622	28.0786	0.133800	0.001971	67.8797	-19.9665	-168.655	-0.147417	0.769525	-0.313527	-0.314840	-0.061527	67.8797	-0.312847	-7297.24	8.431529E-6	NaN
290	1.000000	0.778824	7.3679e+06	-53139.1	955.819	-29747.5	0.000000	0.000000	6.779039	0.011600	NaN	0.000000	0.001595	0.001637	28.0786	0.118510	0.001947	60.8777	169.634	-164.005	-0.062214	0.777516	-0.305541	-0.306849	0.011600	60.8777	-0.305684	-5716.12	-2.029396E-6	NaN
290	1.000000	0.786819	7.3679e+06	-53139.1	955.819	-29747.5	0.000000	0.000000	6.787033	-0.007748	NaN	0.000000	0.001610	0.001631	28.0789	0.042531	0.002107	20.1854	118.687	-160.036	-0.073143	0.785523	-0.297546	-0.298841	-0.007748	20.1854	-0.297258	-4283.32	1.808903E-6	NaN
290	1.000000	0.794833	7.3679e+06	-53139.1	955.819	-29747.5	0.000000	0.000000	6.795048	0.031606	NaN	0.000000	0.001669	0.001630	28.0792	0.051398	0.001925	26.7065	75.5392	-166.906	0.073663	0.793506	-0.289532	-0.290859	0.031606	26.7065	-0.290420	-3385.22	-9.336342E-6	NaN
290	1.000000	0.802835	7.3679e+06	-53139.1	955.818	-29747.5	0.000000	0.000000	6.803049	0.000488	NaN	0.000000	0.001685	0.001615	28.0788	0.071997	0.002034	35.4028	101.691	-168.763	-0.007762	0.801561	-0.281530	-0.282803	0.000488	35.4028	-0.281540	-2489.96	-1.958423E-7	NaN
290	1.000000	0.810843	7.3679e+06	-53139.1	955.818	-29747.5	0.000000	0.000000	6.811056	-0.042722	NaN	0.000000	0.001665	0.001674	28.0786	0.099546	0.002152	46.2535	-143.975	-162.103	-0.069144	0.809545	-0.273521	-0.274820	-0.042722	46.2535	-0.272829	-1838.63	2.323588E-5	NaN
290	1.000000	0.818843	7.3679e+06	-53139.1	955.819	-29747.5	0.000000	0.000000	6.819058	0.011278	NaN	0.000000	0.001668	0.001675	28.0789	0.046526	0.002041	22.7922	40.475	-164.106	0.109386	0.817544	-0.265522	-0.266821	0.011278	22.7922	-0.265893	-1442.14	-7.820465E-6	NaN
290	1.000000	0.826841	7.3679e+06	-53139.1	955.819	-29747.5	0.000000	0.000000	6.827053	-0.051435	NaN	0.000000	0.001677	0.001694	28.0789	0.076916	0.001795	42.8491	72.2016	-169.037	-0.074889	0.825506	-0.257524	-0.258858	-0.051435	42.8491	-0.256623	-1040.13	4.945033E-5	NaN
290	1.000000	0.834844	7.3679e+06	-53139.1	955.819	-29747.5	0.000000	0.000000	6.835060	0.050541	NaN	0.000000	0.001684	0.001660	28.079	0.081413	0.001858	43.8264	120.517	-167.355	0.095547	0.833558	-0.249521	-0.250806	0.050541	43.8264	-0.250386	-833.547	-6.063356E-5	NaN
290	1.000000	0.842863	7.3679e+06	-53139.1	955.818	-29747.5	0.000000	0.000000	6.843077	0.003354	NaN	0.000000	0.001644	0.001640	28.0787	0.084058	0.002089	40.2383	71.4786	-166.537	0.030521	0.841584	-0.241502	-0.242781	0.003354	40.2383	-0.241564	-608.087	-5.515367E-6	NaN
290	1.000000	0.850854	7.3679e+06	-53139.1	955.818	-29747.5	0.000000	0.000000	6.851067	-0.015283	NaN	0.000000	0.001694	0.001656	28.0787	0.073483	0.001985	37.0133	2.803622	-166.368	0.018123	0.849550	-0.233511	-0.234814	-0.015283	37.0133	-0.233201	-449.754	3.398176E-5	NaN
290	1.000000	0.858865	7.3679e+06	-53139.1	955.818	-29747.5	0.000000	0.000000	6.859078	-0.043726	NaN	0.000000	0.001669	0.001662	28.0787	0.060890	0.001962	31.0323	47.4523	-164.083	-0.033866	0.857590	-0.225500	-0.226775	-0.043726	31.0323	-0.224443	-326.951	0.000134	NaN
290	1.000000	0.866891	7.3679e+06	-53139.1	955.817	-29747.5	0.000000	0.000000	6.867104	-0.034554	NaN	0.000000	0.001673	0.001664	28.0789	0.040705	0.002019	20.1652	-25.8251	-164.427	-0.067914	0.865535	-0.217473	-0.218830	-0.034554	20.1652	-0.216188	-241.328	0.000143	NaN
290	1.000000	0.874901	7.3679e+06	-53139.1	955.819	-29747.5	0.000000	0.000000	6.875116	0.012787	NaN	0.000000	0.001651	0.001671	28.0791	0.042558	0.002096	20.3057	5.346799	-165.815	-0.090004	0.873582	-0.209464	-0.210783	0.012787	20.3057	-0.209936	-191.329	-6.683182E-5	NaN
290	1.000000	0.882892	7.3679e+06	-53139.1	955.819	-29747.5	0.000000	0.000000	6.883107	0.013642	NaN	0.000000	0.001684	0.001656	28.08	0.029870	0.002069	14.4376	-72.2626	-165.874	-0.027167	0.881610	-0.201473	-0.202754	0.013642	14.4376	-0.202181	-143.049	-9.536278E-5	NaN
290	1.000000	0.890909	7.3679e+06	-53139.1	955.818	-29747.5	0.000000	0.000000	6.891122	-0.020332	NaN	0.000000	0.001655	0.001686	28.0802	0.056247	0.002055	27.3742	-128.951	-161.247	-0.084749	0.889567	-0.193456	-0.194798	-0.020332	27.3742	-0.192899	-100.539	0.000202	NaN
290	1.000000	0.898874	7.3679e+06	-53139.1	955.818	-29747.5	0.000000	0.000000	6.899089	-0.002138	NaN	0.000000	0.001630	0.001668	28.08	0.081640	0.002023	40.3647	154.036	-166.107	-0.033334	0.897590	-0.185490	-0.186775	-0.002138	40.3647	-0.185451	-75.4612	2.832755E-5	NaN
290	1.000000	0.906876	7.3679e+06	-53139.1	955.819	-29747.5	0.000000	0.000000	6.907093	0.068509	NaN	0.000000	0.001661	0.001645	28.0799	0.051371	0.001989	25.8332	143.315	-165.755	-0.019550	0.905568	-0.177489	-0.178796	0.068509	25.8332	-0.179478	-59.7833	-0.001146	NaN
290	1.000000	0.914875	7.3679e+06	-53139.1	955.819	-29747.5	0.000000	0.000000	6.915090	2.846491E-5	NaN	0.000000	0.001680	0.001617	28.0799	0.020468	0.001984	10.3161	-169.163	-163.403	0.013829	0.913576	-0.169489	-0.170789	2.846491E-5	10.3161	-0.169491	-40.2509	-7.071868E-7	NaN
290	1.000000	0.922886	7.3679e+06	-53139.1	955.818	-29747.5	0.000000	0.000000	6.923100	-0.011549	NaN	0.000000	0.001654	0.001641	28.0801	0.063193	0.002024	31.2244	18.6164	-165.21	0.020041	0.921584	-0.161478	-0.162781	-0.011549	31.2244	-0.161201	-28.7936	0.000401	NaN
290	1.000000	0.930919	7.3679e+06	-53139.1	955.819	-29747.5	0.000000	0.000000	6.931132	-0.037259	NaN	0.000000	0.001646	0.001673	28.0801	0.084529	0.001963	43.0567	-36.4349	-165.583	0.004277	0.929662	-0.153445	-0.154703	-0.037259	43.0567	-0.152796	-20.3616	0.001830	NaN
290	1.000000	0.938890	7.3679e+06	-53139.1	955.819	-29747.5	0.000000	0.000000	6.939101	-0.089678	NaN	0.000000	0.001692	0.001634	28.0801	0.037368	0.001959	19.0726	107.538	-166.239	-0.072425	0.937608	-0.145475	-0.146757	-0.089678	19.0726	-0.141948	-12.8661	0.006970	NaN
290	1.000000	0.946917	7.3679e+06	-53139.1	955.819	-29747.5	0.000000	0.000000	6.947131	-0.021210	NaN	0.000000	0.001675	0.001646	28.0799	0.071150	0.002011	35.3764	-105.199	-166.982	-0.066865	0.945652	-0.137447	-0.138713	-0.021210	35.3764	-0.136998	-10.3824	0.002043	NaN
290	1.000000	0.954905	7.3679e+06	-53139.1	955.819	-29747.5	0.000000	0.000000	6.955114	-0.127570	NaN	0.000000	0.001664	0.001608	28.08	0.104622	0.001982	52.7835	-150.027	-167.239	0.005117	0.953610	-0.129460	-0.130755	-0.127570	52.7835	-0.127647	-6.856741	0.018605	NaN
290	1.000000	0.962913	7.3679e+06	-53139.1	955.818	-29747.5	0.000000	0.000000	6.963127	-0.027745	NaN	0.000000	0.001661	0.001601	28.0803	0.063981	0.002039	31.3852	-5.882276	-166.899	-0.059367	0.961615	-0.121451	-0.122749	-0.027745	31.3852	-0.120788	-5.011469	0.005536	NaN
290	1.000000	0.970928	7.3679e+06	-53139.1	955.819	-29747.5	0.000000	0.000000	6.971144	0.027460	NaN	0.000000	0.001680	0.001630	28.0801	0.010002	0.001922	5.204698	87.2821	-164.087	-0.025843	0.969667	-0.113436	-0.114697	0.027460	5.204698	-0.117393	-4.277498	-0.006420	NaN
290	1.000000	0.978938	7.3679e+06	-53139.1	955.818	-29747.5	0.000000	0.000000	6.979153	-0.006502	NaN	0.000000	0.001681	0.001623	28.0801	0.159339	0.002024	78.7428	84.9473	-165.502	-0.028880	0.977586	-0.105426	-0.106779	-0.006502	78.7428	-0.105364	-2.393509	0.002717	NaN
290	1.000000	0.986913	7.3679e+06	-53139.1	955.817	-29747.5	0.000000	0.000000	6.987126	-0.023147	NaN	0.000000	0.001642	0.001647	28.08	0.036893	0.002187	16.868	-157.714	-163.513	-0.046409	0.985581	-0.097452	-0.098783	-0.023147	16.868	-0.096423	-1.519492	0.015233	NaN
290	1.000000	0.994928	7.3679e+06	-53139.1	955.819	-29747.5	0.000000	0.000000	6.995143	0.005038	NaN	0.000000	0.001688	0.001661	28.0798	0.066328	0.001909	34.752	162.064	-168.733	0.030878	0.993590	-0.089436	-0.090775	0.005038	34.752	-0.089545	-1.054688	-0.004776	NaN
290	1.000000	1.002963	7.3679e+06	-53139.1	955.819	-29747.5	0.000000	0.000000	7.003177	0.006365	NaN	0.000000	0.001688	0.001656	28.0799	0.049448	0.001949	25.3732	132.455	-164.356	0.090805	1.001621	-0.081402	-0.082744	0.006365	25.3732	-0.081590	-0.678005	-0.009388	NaN
290	1.000000	1.010903	7.3679e+06	-53139.1	955.819	-29747.5	0.000000	0.000000	7.011118	-0.001762	NaN	0.000000	0.001670	0.001662	28.0797	0.065258	0.002097	31.1132	-104.983	-164.095	-0.003859	1.009674	-0.073461	-0.074691	-0.001762	31.1132	-0.073419	-0.420135	0.004195	NaN
290	1.000000	1.018933	7.3679e+06	-53139.1	955.817	-29747.5	0.000000	0.000000	7.019144	-0.064825	NaN	0.000000	0.001690	0.001657	28.0788	0.065752	0.002143	30.6839	-18.5782	-165.3	-0.069616	1.017666	-0.065432	-0.066699	-0.064825	30.6839	-0.063848	-0.231463	0.280066	NaN
290	1.000000	1.026939	7.3679e+06	-53139.1	955.818	-29747.5	0.000000	0.000000	7.027153	-0.019236	NaN	0.000000	0.001665	0.001654	28.0785	0.125936	0.002006	62.7672	-60.4607	-164.663	-0.053431	1.025627	-0.057426	-0.058738	-0.019236	62.7672	-0.057196	-0.149398	0.128758	NaN
290	1.000000	1.034939	7.3679e+06	-53139.1	955.817	-29747.5	0.000000	0.000000	7.035155	0.040989	NaN	0.000000	0.001657	0.001639	28.0784	0.148634	0.001985	74.867	10.6305	-164.137	0.047862	1.033647	-0.049425	-0.050718	0.040989	74.867	-0.049836	-0.090214	-0.454356	NaN
290	1.000000	1.042958	7.3679e+06	-53139.1	955.819	-29747.5	0.000000	0.000000	7.043169	-0.061116	NaN	0.000000	0.001678	0.001680	28.0785	0.096828	0.001979	48.9282	-114.306	-167.881	-0.028382	1.041619	-0.041407	-0.042746	-0.061116	48.9282	-0.040470	-0.046735	1.307716	NaN
290	1.000000	1.050945	7.3679e+06	-53139.1	955.817	-29747.5	0.000000	0.000000	7.051159	-0.013853	NaN	0.000000	0.001659	0.001627	28.0784	0.106931	0.002067	51.7328	-162.545	-165.693	0.045880	1.049638	-0.033420	-0.034727	-0.013853	51.7328	-0.033219	-0.028409	0.487632	NaN
290	1.000000	1.058955	7.3679e+06	-53139.1	955.818	-29747.5	0.000000	0.000000	7.059167	-0.064946	NaN	0.000000	0.001697	0.001611	28.0789	0.041505	0.002041	20.3365	122.631	-166.128	-0.026739	1.057647	-0.025410	-0.026718	-0.064946	20.3365	-0.023014	-0.014989	4.332819	NaN
290	1.000000	1.066935	7.3679e+06	-53139.1	955.819	-29747.5	0.000000	0.000000	7.067145	-0.105093	NaN	0.000000	0.001612	0.001623	28.0787	0.161884	0.002009	80.5875	140.506	-165.14	-0.007303	1.065664	-0.017429	-0.018701	-0.105093	80.5875	-0.016451	-0.010164	10.3402	NaN
290	1.000000	1.074956	7.3679e+06	-53139.1	955.819	-29747.5	0.000000	0.000000	7.075171	0.024275	NaN	0.000000	0.001616	0.001625	28.0785	0.096391	0.001867	51.6421	120.854	-163.362	0.012238	1.073600	-0.009409	-0.010765	0.024275	51.6421	-0.009761	-0.006251	-3.883658	NaN
290	1.000000	1.082974	7.3679e+06	-53139.1	955.819	-29747.5	0.000000	0.000000	7.083187	-0.017287	NaN	0.000000	0.001677	0.001612	28.0785	0.024622	0.001962	12.5508	-137.206	-166.197	-0.101559	1.081697	-0.001391	-0.002667	-0.017287	12.5508	-0.000358	-0.000266	65.0982	NaN
290	1.000000	1.090946	7.3679e+06	-53139.1	955.818	-29747.5	0.000000	0.000000	7.091398	5.771530	NaN	0.000000	0.001679	0.001623	28.0784	6.576451	0.001770	3715.42	10.9389	-171.36	4.626566	1.089638	0.006581	0.005273	5.771530	3715.42	0.005416	0.004517	1277.84	50509.7
290	2.000000	1.094584	7.3679e+06	-53139.1	955.819	-29747.5	0.000000	0.000000	7.095180	9.274377	NaN	0.000000	0.001705	0.001635	28.0783	9.475488	0.001624	5832.97	6.234580	-171.248	8.715541	1.094233	0.010220	0.009868	9.274377	5832.97	0.009027	0.008120	1142.14	59139.9
290	2.000000	1.096588	7.3679e+06	-53139.1	955.818	-29747.5	0.000000	0.000000	7.097290	11.8566	NaN	0.000000	0.001702	0.001626	28.0788	11.1864	0.001723	6491.67	5.957110	-171.045	10.9602	1.096204	0.012223	0.011839	11.8566	6491.67	0.010853	0.010145	1168.67	58883.8
290	2.000000	1.098559	7.3679e+06	-53139.1	955.817	-29747.5	0.000000	0.000000	7.099369	14.4807	NaN	0.000000	0.001594	0.001610	28.079	12.9134	0.001781	7251.53	1.038857	-167.213	13.2882	1.098288	0.014194	0.013924	14.4807	7251.53	0.012697	0.012335	1173.91	59652.1
290	2.000000	1.100548	7.3679e+06	-53139.1	955.818	-29747.5	0.000000	0.000000	7.101407	15.6745	NaN	0.000000	0.001623	0.001622	28.0787	14.7232	0.001788	8235.03	6.859891	-176.062	15.7501	1.100271	0.016183	0.015907	15.6745	8235.03	0.014756	0.014961	1047.67	61511.3
290	2.000000	1.102534	7.3679e+06	-53139.1	955.819	-29747.5	0.000000	0.000000	7.103500	18.2781	NaN	0.000000	0.001589	0.001619	28.0784	16.0802	0.001706	9425.11	6.409959	-175.245	17.4583	1.102200	0.018170	0.017835	18.2781	9425.11	0.016715	0.017641	1036.12	64833.3
290	2.000000	1.104542	7.3679e+06	-53139.1	955.818	-29747.5	0.000000	0.000000	7.105623	21.0741	NaN	0.000000	0.001636	0.001605	28.0785	18.0075	0.001730	10411.4	7.006521	-177.801	20.9727	1.104216	0.020177	0.019851	21.0741	10411.4	0.018659	0.020479	1029.07	66471
290	2.000000	1.106558	7.3679e+06	-53139.1	955.818	-29747.5	0.000000	0.000000	7.107880	26.9509	NaN	0.000000	0.001593	0.001641	28.0787	20.3031	0.001745	11636.6	5.203528	-173.823	26.5002	1.106203	0.022193	0.021839	26.9509	11636.6	0.020456	0.023264	1158.49	69704.2
290	2.000000	1.108529	7.3679e+06	-53139.1	955.818	-29747.5	0.000000	0.000000	7.109962	29.6068	NaN	0.000000	0.001596	0.001636	28.0802	21.5794	0.001767	12209.9	4.303222	-174.578	30.4473	1.108192	0.024165	0.023827	29.6068	12209.9	0.022346	0.026364	1123	68703.6
290	2.000000	1.110498	7.3679e+06	-53139.1	955.819	-29747.5	0.000000	0.000000	7.112107	33.8934	NaN	0.000000	0.001610	0.001657	28.08	24.1952	0.001909	12673.9	5.972039	-177.585	32.657	1.110267	0.026134	0.025902	33.8934	12673.9	0.024128	0.029448	1150.94	67476.4
290	2.000000	1.112533	7.3679e+06	-53139.1	955.819	-29747.5	0.000000	0.000000	7.114308	37.9499	NaN	0.000000	0.001635	0.001682	28.0799	25.7537	0.001773	14527.3	7.639251	179.892	37.848	1.112164	0.028168	0.027800	37.9499	14527.3	0.026209	0.033252	1141.29	72786.6
290	2.000000	1.114490	7.3679e+06	-53139.1	955.819	-29747.5	0.000000	0.000000	7.116500	43.6604	NaN	0.000000	0.001654	0.001662	28.08	27.4634	0.001637	16779	3.628949	-179.068	41.435	1.114130	0.030126	0.029766	43.6604	16779	0.028174	0.037044	1178.6	79648.6
290	2.000000	1.116557	7.3679e+06	-53139.1	955.819	-29747.5	0.000000	0.000000	7.118823	49.8821	NaN	0.000000	0.001721	0.001667	28.0799	30.7384	0.001794	17129.7	4.195038	-178.57	49.2586	1.116155	0.032193	0.031791	49.8821	17129.7	0.030009	0.040761	1223.76	77517.4
290	2.000000	1.118459	7.3679e+06	-53139.1	955.82	-29747.5	0.000000	0.000000	7.121102	59.0316	NaN	0.000000	0.001718	0.001633	28.0805	32.7542	0.001779	18410.5	4.036604	-179.026	56.968	1.118177	0.034095	0.033813	59.0316	18410.5	0.031690	0.044319	1331.98	79899.6
290	2.000000	1.120514	7.3679e+06	-53139.1	955.819	-29747.5	0.000000	0.000000	7.123340	63.5052	NaN	0.000000	0.001660	0.001635	28.08	34.4675	0.001780	19366.6	1.006272	-177.836	62.6127	1.120313	0.036150	0.035949	63.5052	19366.6	0.033690	0.048740	1302.93	80146.3
290	2.000000	1.122450	7.3679e+06	-53139.1	955.819	-29747.5	0.000000	0.000000	7.125686	73.4742	NaN	0.000000	0.001665	0.001672	28.08	36.2422	0.001692	21418.1	7.410661	175.415	70.2203	1.122175	0.038085	0.037810	73.4742	21418.1	0.035512	0.052946	1387.72	85042.8
290	2.000000	1.124476	7.3679e+06	-53139.1	955.819	-29747.5	0.000000	0.000000	7.128108	83.0743	NaN	0.000000	0.001688	0.001613	28.0799	39.4828	0.001891	20875.7	6.761245	177.148	82.1235	1.124102	0.040112	0.039737	83.0743	20875.7	0.037127	0.056815	1462.19	80017.1
290	2.000000	1.126491	7.3679e+06	-53139.1	955.82	-29747.5	0.000000	0.000000	7.130382	89.4012	NaN	0.000000	0.001697	0.001635	28.08	41.3714	0.001764	23458	8.079026	175.162	87.6919	1.126170	0.042126	0.041806	89.4012	23458	0.039268	0.062149	1438.49	85969.8
290	2.000000	1.128470	7.3679e+06	-53139.1	955.819	-29747.5	0.000000	0.000000	7.132759	99.0492	NaN	0.000000	0.001669	0.001655	28.0808	42.1916	0.001719	24548.7	4.350055	177.436	97.7568	1.128127	0.044106	0.043762	99.0492	24548.7	0.041080	0.066848	1481.7	86747.6
290	2.000000	1.130476	7.3679e+06	-53139.1	955.82	-29747.5	0.000000	0.000000	7.135013	105.118	NaN	0.000000	0.001668	0.001673	28.0801	45.5162	0.001803	25240.2	2.907351	179.309	103.57	1.130123	0.046111	0.045758	105.118	25240.2	0.042987	0.071976	1460.45	85954.9
290	2.000000	1.132474	7.3679e+06	-53139.1	955.819	-29747.5	0.000000	0.000000	7.137196	109.596	NaN	0.000000	0.001702	0.001669	28.08	45.898	0.001551	29584	2.057661	178.001	108.49	1.132212	0.048110	0.047848	109.596	29584	0.045331	0.078530	1395.59	96452.2
290	2.000000	1.134470	7.3679e+06	-53139.1	955.819	-29747.5	0.000000	0.000000	7.139604	119.632	NaN	0.000000	0.001696	0.001693	28.0799	51.0501	0.001750	29174	4.580509	175.395	118.414	1.134206	0.050105	0.049842	119.632	29174	0.047029	0.083453	1433.53	92267.4
290	2.000000	1.136442	7.3679e+06	-53139.1	955.818	-29747.5	0.000000	0.000000	7.142170	134.056	NaN	0.000000	0.001686	0.001668	28.0799	52.7062	0.001824	28900.9	2.119430	178.939	131.929	1.136141	0.052077	0.051777	134.056	28900.9	0.048598	0.088130	1521.12	88945.4
290	2.000000	1.138384	7.3679e+06	-53139.1	955.818	-29747.5	0.000000	0.000000	7.144562	144.989	NaN	0.000000	0.001696	0.001673	28.0804	54.5075	0.001855	29386.7	5.615163	174.366	141.328	1.138135	0.054019	0.053770	144.989	29386.7	0.050319	0.093402	1552.31	87851
290	2.000000	1.140432	7.3679e+06	-53139.1	955.818	-29747.5	0.000000	0.000000	7.146893	151.889	NaN	0.000000	0.001683	0.001662	28.08	56.8806	0.001850	30754.3	5.500514	174.741	151.126	1.140133	0.056067	0.055769	151.889	30754.3	0.052363	0.099857	1521.08	88918.1
290	2.000000	1.142434	7.3679e+06	-53139.1	955.818	-29747.5	0.000000	0.000000	7.149019	154.891	NaN	0.000000	0.001678	0.001666	28.0786	57.3282	0.001806	31737.7	3.407599	175.722	152.119	1.142313	0.058070	0.057948	154.891	31737.7	0.054409	0.106528	1453.99	88841.6
290	2.000000	1.144421	7.3679e+06	-53139.1	955.819	-29747.5	0.000000	0.000000	7.151889	176.354	NaN	0.000000	0.001691	0.001653	28.0788	58.7807	0.001737	33847.7	2.357804	176.813	173.013	1.144088	0.060056	0.059723	176.354	33847.7	0.056149	0.112361	1569.52	92255.7
290	2.000000	1.146364	7.3679e+06	-53139.1	955.819	-29747.5	0.000000	0.000000	7.154125	183.477	NaN	0.000000	0.001685	0.001613	28.0787	61.1257	0.001832	33365.2	4.976129	174.675	175.629	1.146045	0.061999	0.061680	183.477	33365.2	0.057875	0.118299	1550.96	88629.1
290	2.000000	1.148436	7.3679e+06	-53139.1	955.82	-29747.5	0.000000	0.000000	7.156614	193.606	NaN	0.000000	0.001720	0.001621	28.0788	62.6079	0.001785	35065.8	5.785537	174.221	191.018	1.148002	0.064072	0.063638	193.606	35065.8	0.059931	0.125561	1541.93	90413
290	2.000000	1.150413	7.3679e+06	-53139.1	955.82	-29747.5	0.000000	0.000000	7.159036	204.455	NaN	0.000000	0.001707	0.001652	28.0787	65.263	0.001767	36925.5	3.400977	175.063	202.072	1.150166	0.066048	0.065802	204.455	36925.5	0.061895	0.132692	1540.82	92614
290	2.000000	1.152438	7.3679e+06	-53139.1	955.819	-29747.5	0.000000	0.000000	7.161565	216.676	NaN	0.000000	0.001666	0.001640	28.0788	66.1666	0.001733	38170	4.868350	173.478	215.894	1.152103	0.068074	0.067739	216.676	38170	0.063816	0.139847	1549.37	93254.3
290	2.000000	1.154377	7.3679e+06	-53139.1	955.82	-29747.5	0.000000	0.000000	7.164032	229.514	NaN	0.000000	0.001689	0.001651	28.0787	70.2153	0.001794	39139	5.117414	172.979	225.969	1.154025	0.070013	0.069660	229.514	39139	0.065615	0.146708	1564.42	93359
290	2.000000	1.156524	7.3679e+06	-53139.1	955.82	-29747.5	0.000000	0.000000	7.166680	241.73	NaN	0.000000	0.001651	0.001682	28.0785	71.9779	0.001701	42323.8	9.615291	169.383	243.688	1.156066	0.072159	0.071701	241.73	42323.8	0.067876	0.155553	1554	98043.5
290	2.000000	1.158448	7.3679e+06	-53139.1	955.82	-29747.5	0.000000	0.000000	7.169105	253.902	NaN	0.000000	0.001670	0.001693	28.0789	73.2913	0.001708	42918.5	7.482597	169.618	252.476	1.158089	0.074083	0.073724	253.902	42918.5	0.069646	0.162652	1561.02	97227.2
290	2.000000	1.160389	7.3679e+06	-53139.1	955.818	-29747.5	0.000000	0.000000	7.171537	265.846	NaN	0.000000	0.001682	0.001655	28.0786	75.1982	0.001813	41477.2	2.915038	175.42	262.435	1.160120	0.076024	0.075755	265.846	41477.2	0.071217	0.169074	1572.37	92160.4
290	2.000000	1.162358	7.3679e+06	-53139.1	955.819	-29747.5	0.000000	0.000000	7.174087	279.956	NaN	0.000000	0.001670	0.001661	28.0789	77.3385	0.001747	44257.4	8.610884	169.02	275.091	1.162013	0.077993	0.077649	279.956	44257.4	0.073249	0.177556	1576.72	95960.3
290	2.000000	1.164420	7.3679e+06	-53139.1	955.819	-29747.5	0.000000	0.000000	7.176762	294.85	NaN	0.000000	0.001592	0.001703	28.0788	77.9228	0.001686	46213.5	-0.984882	178.212	294.851	1.164126	0.080055	0.079762	294.85	46213.5	0.075270	0.186185	1583.64	97851.8
290	2.000000	1.166413	7.3679e+06	-53139.1	955.818	-29747.5	0.000000	0.000000	7.179322	308.639	NaN	0.000000	0.001613	0.001649	28.0788	80.7573	0.001758	45938.5	2.552710	175.146	304.101	1.166068	0.082048	0.081704	308.639	45938.5	0.077010	0.193765	1592.85	95348.1
290	2.000000	1.168394	7.3679e+06	-53139.1	955.82	-29747.5	0.000000	0.000000	7.181954	324.48	NaN	0.000000	0.001608	0.001644	28.0791	83.5336	0.001845	45264.7	5.185947	172.218	323.529	1.168111	0.084029	0.083746	324.48	45264.7	0.078653	0.201057	1613.87	92230
290	2.000000	1.170337	7.3679e+06	-53139.1	955.818	-29747.5	0.000000	0.000000	7.184515	339.506	NaN	0.000000	0.001641	0.001613	28.0785	85.6789	0.001835	46691.8	4.612040	173.026	334.416	1.170101	0.085973	0.085736	339.506	46691.8	0.080519	0.209491	1620.62	93203.2
290	2.000000	1.172350	7.3679e+06	-53139.1	955.819	-29747.5	0.000000	0.000000	7.187234	356.67	NaN	0.000000	0.001625	0.001618	28.0787	87.36	0.001791	48775	9.638199	167.524	351.089	1.172053	0.087985	0.087689	356.67	48775	0.082501	0.218624	1631.43	95306.1
290	2.000000	1.174405	7.3679e+06	-53139.1	955.819	-29747.5	0.000000	0.000000	7.189928	372.193	NaN	0.000000	0.001576	0.001659	28.0787	88.7481	0.001672	53087.3	3.588177	173.007	371.203	1.174112	0.090040	0.089747	372.193	53087.3	0.084782	0.229364	1622.72	101275
290	2.000000	1.176386	7.3679e+06	-53139.1	955.819	-29747.5	0.000000	0.000000	7.192629	389.719	NaN	0.000000	0.001611	0.001695	28.0799	91.5301	0.001833	49926.3	2.795284	174.079	385.21	1.176143	0.092021	0.091779	389.719	49926.3	0.086167	0.235998	1651.36	93896.2
290	2.000000	1.178347	7.3679e+06	-53139.1	955.819	-29747.5	0.000000	0.000000	7.195518	412.283	NaN	0.000000	0.001604	0.001712	28.0801	93.719	0.001635	57334.8	6.322233	169.489	407.917	1.177960	0.093982	0.093595	412.283	57334.8	0.088589	0.247820	1663.64	105226
290	2.000000	1.180466	7.3679e+06	-53139.1	955.819	-29747.5	0.000000	0.000000	7.197893	418.504	NaN	0.000000	0.001617	0.001680	28.0797	96.5111	0.001755	54981.3	0.644657	174.964	418.309	1.180214	0.096101	0.095849	418.504	54981.3	0.090392	0.256794	1629.73	99127.8
290	2.000000	1.182327	7.3679e+06	-53139.1	955.82	-29747.5	0.000000	0.000000	7.200945	447.449	NaN	0.000000	0.001580	0.001651	28.08	97.5493	0.001804	54068.1	5.772253	170.007	442.555	1.182083	0.097962	0.097718	447.449	54068.1	0.091755	0.263677	1696.96	96200.6
290	2.000000	1.184358	7.3679e+06	-53139.1	955.82	-29747.5	0.000000	0.000000	7.203574	461.98	NaN	0.000000	0.001617	0.001686	28.0799	99.1958	0.001789	55447.7	3.116841	172.983	458.907	1.184231	0.099994	0.099866	461.98	55447.7	0.093745	0.273876	1686.82	96801
290	2.000000	1.186375	7.3679e+06	-53139.1	955.819	-29747.5	0.000000	0.000000	7.206821	491.885	NaN	0.000000	0.001603	0.001682	28.0798	101.104	0.001809	55895.4	4.207371	172.525	488.116	1.186020	0.102010	0.101656	491.885	55895.4	0.095410	0.282553	1740.86	96072.5
290	2.000000	1.188535	7.3679e+06	-53139.1	955.82	-29747.5	0.000000	0.000000	7.209548	505.67	NaN	0.000000	0.001608	0.001695	28.0802	105.384	0.001950	54038.2	12.8066	165.205	510.164	1.187950	0.104171	0.103586	505.67	54038.2	0.097152	0.291764	1733.14	91402.5
290	2.000000	1.190230	7.3679e+06	-53139.1	955.819	-29747.5	0.000000	0.000000	7.212029	524.773	NaN	0.000000	0.001599	0.001691	28.0797	104.34	0.001771	58915.3	3.018795	173.667	516.015	1.189891	0.105866	0.105527	524.773	58915.3	0.099185	0.302689	1733.71	97837
290	2.000000	1.191481	7.3679e+06	-53139.1	955.82	-29747.5	0.000000	0.000000	7.213029	518.692	NaN	0.000000	0.001608	0.001705	28.0799	106.219	0.001845	57579.4	1.526031	174.296	519.795	1.191278	0.107116	0.106913	518.692	57579.4	0.100360	0.309084	1678.16	94624.1