File: remote_trans/data/nanoindenter/0828-1/data/Data_2025-08-06,11h17m57s/2025-07-22_16-23-58_1_697.txt
2025-07-22, 16:23:58, 1
Index	Phase	Displacement	Time	Pos X	Pos Y	Pos Z	Rot A	Rot B	Piezo Z	Force A	Force B	Gripper	Voltage A	Voltage B	Temperature	Amplitude force	Amplitude pos	Stiffness	Phase shift	Phase excitation	Force A raw	Displacement raw	HMax	HMax raw	Real Force	Real Stiffness	Contact Depth	Area	Hardness	Reduced Mod.
[#]	[#]	[um]	[s]	[um]	[um]	[um]	[m°]	[m°]	[um]	[uN]	[uN]	[V]	[V]	[V]	[°C]	[uN]	[um]	[N/m]	[°]	[°]	[uN]	[um]	[um]	[um]	[uN]	[N/m]	[um]	[um^2]	[MPa]	[MPa]
697	1.000000	0.002167	7.37187e+06	-42239.1	1005.82	-29783.4	0.000000	0.000000	6.002794	-0.008693	NaN	0.000000	0.001558	0.001741	28.0832	0.046799	0.000998	46.8737	-86.1555	-162.75	-0.090904	0.000913	-1.073811	-1.075066	-0.008693	46.8737	-1.073672	-2.220863E+14	3.914108E-17	NaN
697	1.000000	0.010140	7.37187e+06	-42239.1	1005.82	-29783.4	0.000000	0.000000	6.010770	0.058526	NaN	0.000000	0.001582	0.001692	28.0829	0.044085	0.000901	48.9338	-154.149	-158.387	-0.059017	0.008811	-1.065838	-1.067168	0.058526	48.9338	-1.066735	-1.791960E+14	-3.266013E-16	NaN
697	1.000000	0.018129	7.37187e+06	-42239.1	1005.82	-29783.4	0.000000	0.000000	6.018758	0.042793	NaN	0.000000	0.001617	0.001705	28.0834	0.119754	0.001637	73.1729	88.4322	-164.572	0.031005	0.016837	-1.057850	-1.059141	0.042793	73.1729	-1.058288	-1.379804E+14	-3.101400E-16	NaN
697	1.000000	0.026167	7.37187e+06	-42239.1	1005.82	-29783.4	0.000000	0.000000	6.026796	0.058075	NaN	0.000000	0.001597	0.001734	28.0831	0.092188	0.001815	50.8044	152.496	-164.873	0.117696	0.024823	-1.049812	-1.051156	0.058075	50.8044	-1.050669	-1.089962E+14	-5.328159E-16	NaN
697	1.000000	0.034092	7.37187e+06	-42239.1	1005.82	-29783.4	0.000000	0.000000	6.034720	0.036273	NaN	0.000000	0.001701	0.001745	28.0831	0.041514	0.002028	20.4711	-171.111	-163.758	0.000758	0.032848	-1.041887	-1.043130	0.036273	20.4711	-1.043216	-8.653795E+13	-4.191593E-16	NaN
697	1.000000	0.042126	7.37187e+06	-42239.1	1005.82	-29783.4	0.000000	0.000000	6.042753	0.007202	NaN	0.000000	0.001621	0.001743	28.0833	0.071647	0.002017	35.5294	-123.379	-167.365	0.000429	0.040798	-1.033853	-1.035180	0.007202	35.5294	-1.034005	-6.506454E+13	-1.106945E-16	NaN
697	1.000000	0.050103	7.37187e+06	-42239.1	1005.82	-29783.4	0.000000	0.000000	6.050732	0.048482	NaN	0.000000	0.001636	0.001708	28.0834	0.075345	0.001931	39.0223	149.93	-163.482	0.056194	0.048804	-1.025875	-1.027175	0.048482	39.0223	-1.026807	-5.206315E+13	-9.312071E-16	NaN
697	1.000000	0.058104	7.37187e+06	-42239.1	1005.82	-29783.4	0.000000	0.000000	6.058731	0.015754	NaN	0.000000	0.001683	0.001798	28.0816	0.021823	0.001962	11.1249	135.102	-167.786	-0.011657	0.056787	-1.017875	-1.019192	0.015754	11.1249	-1.018937	-4.079913E+13	-3.861408E-16	NaN
697	1.000000	0.066108	7.37187e+06	-42239.1	1005.82	-29783.4	0.000000	0.000000	6.066736	0.023418	NaN	0.000000	0.001650	0.001734	28.0817	0.029121	0.001966	14.8154	-160.332	-168.668	-0.042022	0.064845	-1.009870	-1.011134	0.023418	14.8154	-1.011056	-3.195905E+13	-7.327544E-16	NaN
697	1.000000	0.074181	7.37187e+06	-42239.1	1005.82	-29783.4	0.000000	0.000000	6.074810	0.030351	NaN	0.000000	0.001631	0.001728	28.0816	0.078239	0.001952	40.0735	-56.7455	-165.34	0.012634	0.072855	-1.001797	-1.003123	0.030351	40.0735	-1.002365	-2.441258E+13	-1.243269E-15	NaN
697	1.000000	0.082145	7.37187e+06	-42239.1	1005.82	-29783.4	0.000000	0.000000	6.082770	-0.040896	NaN	0.000000	0.001678	0.001735	28.082	0.067836	0.002006	33.8191	-84.1388	-165.931	-0.098601	0.080797	-0.993834	-0.995182	-0.040896	33.8191	-0.992927	-1.821932E+13	2.244650E-15	NaN
697	1.000000	0.090122	7.37187e+06	-42239.1	1005.82	-29783.4	0.000000	0.000000	6.090753	0.108526	NaN	0.000000	0.001688	0.001746	28.082	0.038106	0.002075	18.3617	-161.804	-165.616	0.040719	0.088822	-0.985857	-0.987156	0.108526	18.3617	-0.990290	-1.678854E+13	-6.464306E-15	NaN
697	1.000000	0.098153	7.37187e+06	-42239.1	1005.82	-29783.4	0.000000	0.000000	6.098785	0.120690	NaN	0.000000	0.001686	0.001750	28.0817	0.076357	0.002074	36.8214	8.087665	-168.86	0.118409	0.096716	-0.977826	-0.979263	0.120690	36.8214	-0.980284	-1.230945E+13	-9.804640E-15	NaN
697	1.000000	0.106127	7.37187e+06	-42239.1	1005.82	-29783.4	0.000000	0.000000	6.106754	0.007539	NaN	0.000000	0.001705	0.001742	28.0816	0.031079	0.001942	16.0011	70.5388	-167.218	0.098944	0.104783	-0.969852	-0.971195	0.007539	16.0011	-0.970205	-9.003803E+12	-8.372700E-16	NaN
697	1.000000	0.114146	7.37187e+06	-42239.1	1005.82	-29783.4	0.000000	0.000000	6.114776	0.080796	NaN	0.000000	0.001717	0.001691	28.0815	0.092106	0.002026	45.4705	-177.918	-167.451	0.100249	0.112874	-0.961833	-0.963104	0.080796	45.4705	-0.963166	-7.236749E+12	-1.116468E-14	NaN
697	1.000000	0.122155	7.37187e+06	-42239.1	1005.82	-29783.4	0.000000	0.000000	6.122786	0.095463	NaN	0.000000	0.001678	0.001727	28.0815	0.082209	0.002018	40.7408	-101.317	-164.412	0.131156	0.120882	-0.953824	-0.955096	0.095463	40.7408	-0.955581	-5.718586E+12	-1.669338E-14	NaN
697	1.000000	0.130158	7.37187e+06	-42239.1	1005.82	-29783.4	0.000000	0.000000	6.130788	0.072721	NaN	0.000000	0.001663	0.001728	28.0815	0.011466	0.001954	5.867311	50.5079	-163.516	0.090879	0.128859	-0.945820	-0.947120	0.072721	5.867311	-0.955116	-5.636602E+12	-1.290154E-14	NaN
697	1.000000	0.138155	7.37187e+06	-42239.1	1005.82	-29783.4	0.000000	0.000000	6.138786	0.105191	NaN	0.000000	0.001638	0.001691	28.0817	0.013646	0.001932	7.064354	-42.6832	-164.129	0.058687	0.136863	-0.937824	-0.939115	0.105191	7.064354	-0.948991	-4.660431E+12	-2.257102E-14	NaN
697	1.000000	0.146183	7.37187e+06	-42239.1	1005.82	-29783.4	0.000000	0.000000	6.146812	0.045806	NaN	0.000000	0.001702	0.001678	28.0815	0.014506	0.002036	7.124253	-4.747298	-165.595	0.051725	0.144869	-0.929795	-0.931110	0.045806	7.124253	-0.934617	-2.982018E+12	-1.536059E-14	NaN
697	1.000000	0.154165	7.37187e+06	-42239.1	1005.82	-29783.4	0.000000	0.000000	6.154792	0.000502	NaN	0.000000	0.001655	0.001691	28.0814	0.021549	0.002090	10.309	71.1692	-164.83	0.067944	0.152896	-0.921814	-0.923082	0.000502	10.309	-0.921850	-2.005327E+12	-2.505440E-16	NaN
697	1.000000	0.162172	7.37187e+06	-42239.1	1005.82	-29783.4	0.000000	0.000000	6.162802	0.081290	NaN	0.000000	0.001646	0.001702	28.0814	0.065757	0.002042	32.203	29.9463	-166.195	0.058950	0.160820	-0.913807	-0.915159	0.081290	32.203	-0.915700	-1.656322E+12	-4.907834E-14	NaN
697	1.000000	0.170183	7.37187e+06	-42239.1	1005.82	-29783.4	0.000000	0.000000	6.170813	0.056582	NaN	0.000000	0.001688	0.001738	28.0815	0.009787	0.001863	5.254662	-132.866	-167.801	0.044840	0.168838	-0.905795	-0.907140	0.056582	5.254662	-0.913871	-1.564763E+12	-3.616037E-14	NaN
697	1.000000	0.178188	7.37187e+06	-42239.1	1005.82	-29783.4	0.000000	0.000000	6.178819	0.098022	NaN	0.000000	0.001686	0.001734	28.0816	0.037745	0.001966	19.1985	-81.5585	-167.525	0.065520	0.176804	-0.897791	-0.899174	0.098022	19.1985	-0.901620	-1.068942E+12	-9.169956E-14	NaN
697	1.000000	0.186183	7.37187e+06	-42239.1	1005.82	-29783.4	0.000000	0.000000	6.186813	0.068766	NaN	0.000000	0.001680	0.001688	28.0816	0.018525	0.002067	8.961419	-86.0361	-165.574	-0.007724	0.184891	-0.889795	-0.891087	0.068766	8.961419	-0.895551	-8.849931E+11	-7.770226E-14	NaN
697	1.000000	0.194183	7.37187e+06	-42239.1	1005.82	-29783.4	0.000000	0.000000	6.194809	-0.018188	NaN	0.000000	0.001642	0.001751	28.0829	0.125765	0.001947	64.5783	-155.767	-164.939	0.075129	0.192881	-0.881796	-0.883098	-0.018188	64.5783	-0.881584	-5.729748E+11	3.174341E-14	NaN
697	1.000000	0.202147	7.37187e+06	-42239.1	1005.82	-29783.4	0.000000	0.000000	6.202774	-0.012771	NaN	0.000000	0.001656	0.001716	28.0826	0.067524	0.002180	30.9783	-104.335	-165.225	-0.043768	0.200907	-0.873832	-0.875072	-0.012771	30.9783	-0.873522	-4.457542E+11	2.865085E-14	NaN
697	1.000000	0.210176	7.37187e+06	-42239.1	1005.82	-29783.4	0.000000	0.000000	6.210805	0.051093	NaN	0.000000	0.001628	0.001733	28.0828	0.016353	0.001926	8.490892	22.633	-166.21	0.093083	0.208895	-0.865803	-0.867084	0.051093	8.490892	-0.870316	-4.033796E+11	-1.266624E-13	NaN
697	1.000000	0.218171	7.37187e+06	-42239.1	1005.82	-29783.4	0.000000	0.000000	6.218800	0.059992	NaN	0.000000	0.001617	0.001711	28.083	0.111331	0.002130	52.2802	46.6678	-165.003	0.048030	0.216889	-0.857808	-0.859089	0.059992	52.2802	-0.858668	-2.806045E+11	-2.137941E-13	NaN
697	1.000000	0.226186	7.37187e+06	-42239.1	1005.82	-29783.4	0.000000	0.000000	6.226814	0.033742	NaN	0.000000	0.001605	0.001714	28.0828	0.086459	0.001940	44.5712	176.155	-167.842	0.134946	0.224899	-0.849793	-0.851079	0.033742	44.5712	-0.850361	-2.165831E+11	-1.557937E-13	NaN
697	1.000000	0.234201	7.37187e+06	-42239.1	1005.82	-29783.4	0.000000	0.000000	6.234831	0.090125	NaN	0.000000	0.001618	0.001728	28.083	0.085063	0.001956	43.4867	126.707	-167.571	0.093290	0.232900	-0.841778	-0.843079	0.090125	43.4867	-0.843332	-1.739530E+11	-5.180970E-13	NaN
697	1.000000	0.242211	7.37187e+06	-42239.1	1005.82	-29783.4	0.000000	0.000000	6.242841	0.065100	NaN	0.000000	0.001604	0.001763	28.0831	0.061129	0.001962	31.1529	55.5367	-166.834	0.046238	0.240871	-0.833767	-0.835108	0.065100	31.1529	-0.835335	-1.355445E+11	-4.802835E-13	NaN
697	1.000000	0.250207	7.37187e+06	-42239.1	1005.82	-29783.4	0.000000	0.000000	6.250834	0.007375	NaN	0.000000	0.001596	0.001744	28.083	0.040952	0.001936	21.1509	157.434	-163.083	0.059171	0.248888	-0.825772	-0.827091	0.007375	21.1509	-0.826033	-1.013943E+11	-7.273465E-14	NaN
697	1.000000	0.258191	7.37187e+06	-42239.1	1005.82	-29783.4	0.000000	0.000000	6.258819	0.025638	NaN	0.000000	0.001629	0.001764	28.0829	0.057165	0.002089	27.3696	-80.6153	-161.591	0.031828	0.256870	-0.817787	-0.819109	0.025638	27.3696	-0.818490	-8.011874E+10	-3.200019E-13	NaN
697	1.000000	0.266216	7.37187e+06	-42239.1	1005.82	-29783.4	0.000000	0.000000	6.266844	0.026941	NaN	0.000000	0.001608	0.001776	28.0829	0.086274	0.002004	43.0598	-121.358	-165.235	-0.021733	0.264880	-0.809763	-0.811098	0.026941	43.0598	-0.810232	-6.190452E+10	-4.351962E-13	NaN
697	1.000000	0.274200	7.37187e+06	-42239.1	1005.82	-29783.4	0.000000	0.000000	6.274829	0.059620	NaN	0.000000	0.001599	0.001721	28.0829	0.138721	0.002042	67.9317	124.372	-166.339	0.066078	0.272933	-0.801779	-0.803045	0.059620	67.9317	-0.802437	-4.852214E+10	-1.228715E-12	NaN
697	1.000000	0.282206	7.37187e+06	-42239.1	1005.82	-29783.4	0.000000	0.000000	6.282836	0.058343	NaN	0.000000	0.001639	0.001719	28.083	0.017922	0.001830	9.794014	99.8421	-167.9	0.141779	0.280959	-0.793772	-0.795019	0.058343	9.794014	-0.798240	-4.255709E+10	-1.370931E-12	NaN
697	1.000000	0.290227	7.37187e+06	-42239.1	1005.82	-29783.4	0.000000	0.000000	6.290855	0.018849	NaN	0.000000	0.001631	0.001717	28.083	0.111185	0.002047	54.3103	137.874	-168.618	-0.017654	0.288905	-0.785752	-0.787073	0.018849	54.3103	-0.786012	-2.903464E+10	-6.491996E-13	NaN
697	1.000000	0.298226	7.37187e+06	-42239.1	1005.82	-29783.4	0.000000	0.000000	6.298853	0.002603	NaN	0.000000	0.001657	0.001686	28.0825	0.136260	0.002054	66.3383	111.357	-167.327	-0.051808	0.296969	-0.777753	-0.779010	0.002603	66.3383	-0.777782	-2.244351E+10	-1.159732E-13	NaN
697	1.000000	0.306236	7.37187e+06	-42239.1	1005.82	-29783.4	0.000000	0.000000	6.306867	0.092358	NaN	0.000000	0.001627	0.001762	28.0831	0.097938	0.001968	49.7561	-32.2019	-166.707	0.133913	0.304958	-0.769742	-0.771021	0.092358	49.7561	-0.771134	-1.822754E+10	-5.066957E-12	NaN
697	1.000000	0.314248	7.37187e+06	-42239.1	1005.82	-29783.4	0.000000	0.000000	6.314877	0.044271	NaN	0.000000	0.001676	0.001750	28.083	0.073205	0.002090	35.0312	142.668	-165.895	0.047287	0.312985	-0.761730	-0.762994	0.044271	35.0312	-0.762678	-1.398735E+10	-3.165055E-12	NaN
697	1.000000	0.322239	7.37187e+06	-42239.1	1005.82	-29783.4	0.000000	0.000000	6.322866	0.001838	NaN	0.000000	0.001629	0.001778	28.083	0.053461	0.001843	29.0144	179.117	-165.882	0.009414	0.320918	-0.753740	-0.755061	0.001838	29.0144	-0.753787	-1.058685E+10	-1.736095E-13	NaN
697	1.000000	0.330228	7.37187e+06	-42239.1	1005.82	-29783.4	0.000000	0.000000	6.330858	0.073434	NaN	0.000000	0.001632	0.001735	28.0817	0.093008	0.001944	47.8486	45.2118	-163.562	0.015683	0.328950	-0.745751	-0.747029	0.073434	47.8486	-0.746902	-8.531779E+9	-8.607112E-12	NaN
697	1.000000	0.338249	7.37187e+06	-42239.1	1005.82	-29783.4	0.000000	0.000000	6.338877	0.026907	NaN	0.000000	0.001639	0.001733	28.0816	0.128580	0.001991	64.5722	137.741	-168.051	0.120663	0.336938	-0.737729	-0.739041	0.026907	64.5722	-0.738042	-6.462259E+9	-4.163720E-12	NaN
697	1.000000	0.346246	7.37187e+06	-42239.1	1005.82	-29783.4	0.000000	0.000000	6.346877	0.084984	NaN	0.000000	0.001715	0.001697	28.0816	0.179518	0.002073	86.5826	-170.872	-170.425	0.113851	0.344934	-0.729732	-0.731044	0.084984	86.5826	-0.730468	-5.095558E+9	-1.667808E-11	NaN
697	1.000000	0.354253	7.37187e+06	-42239.1	1005.82	-29783.4	0.000000	0.000000	6.354879	-0.012621	NaN	0.000000	0.001692	0.001694	28.0817	0.077137	0.001880	41.0267	116.362	-160.382	0.013352	0.352909	-0.721726	-0.723069	-0.012621	41.0267	-0.721495	-3.844679E+9	3.282843E-12	NaN
697	1.000000	0.362230	7.37187e+06	-42239.1	1005.82	-29783.4	0.000000	0.000000	6.362860	0.062469	NaN	0.000000	0.001685	0.001721	28.0818	0.040044	0.002128	18.8135	44.7232	-163.865	0.043784	0.360962	-0.713748	-0.715017	0.062469	18.8135	-0.716238	-3.259625E+9	-1.916436E-11	NaN
697	1.000000	0.370226	7.37187e+06	-42239.1	1005.82	-29783.4	0.000000	0.000000	6.370857	0.099082	NaN	0.000000	0.001656	0.001729	28.0828	0.057573	0.001952	29.4959	-167.851	-165.179	0.042027	0.368906	-0.705752	-0.707072	0.099082	29.4959	-0.708272	-2.537832E+9	-3.904204E-11	NaN
697	1.000000	0.378239	7.37187e+06	-42239.1	1005.82	-29783.4	0.000000	0.000000	6.378867	0.040677	NaN	0.000000	0.001691	0.001715	28.082	0.030859	0.002068	14.9209	-60.3188	-164.656	0.105365	0.376938	-0.697740	-0.699040	0.040677	14.9209	-0.699785	-1.943529E+9	-2.092970E-11	NaN
697	1.000000	0.386239	7.37187e+06	-42239.1	1005.82	-29783.4	0.000000	0.000000	6.386868	0.049581	NaN	0.000000	0.001718	0.001670	28.0816	0.033631	0.001976	17.0194	47.5959	-167.5	0.054934	0.384945	-0.689739	-0.691034	0.049581	17.0194	-0.691924	-1.517787E+9	-3.266687E-11	NaN
697	1.000000	0.394266	7.37187e+06	-42239.1	1005.82	-29783.4	0.000000	0.000000	6.394896	0.088855	NaN	0.000000	0.001710	0.001700	28.0816	0.090408	0.001836	49.2464	-68.2016	-167.692	0.078992	0.392955	-0.681713	-0.683024	0.088855	49.2464	-0.683066	-1.148513E+9	-7.736511E-11	NaN
697	1.000000	0.402265	7.37187e+06	-42239.1	1005.82	-29783.4	0.000000	0.000000	6.402897	0.124815	NaN	0.000000	0.001699	0.001674	28.0818	0.038987	0.002017	19.3275	49.4945	-163.201	0.124985	0.400969	-0.673713	-0.675010	0.124815	19.3275	-0.678557	-9.964778E+8	-1.252565E-10	NaN
697	1.000000	0.410265	7.37187e+06	-42239.1	1005.82	-29783.4	0.000000	0.000000	6.410889	-0.051546	NaN	0.000000	0.001664	0.001716	28.0813	0.094811	0.001988	47.6841	36.3608	-162.929	-0.053491	0.409028	-0.665714	-0.666951	-0.051546	47.6841	-0.664903	-6.480662E+8	7.953826E-11	NaN
697	1.000000	0.418278	7.37187e+06	-42239.1	1005.82	-29783.4	0.000000	0.000000	6.418906	0.040868	NaN	0.000000	0.001626	0.001664	28.0819	0.049710	0.002117	23.4838	-30.5425	-167.039	0.102341	0.416966	-0.657701	-0.659013	0.040868	23.4838	-0.659006	-5.380908E+8	-7.594916E-11	NaN
697	1.000000	0.426259	7.37187e+06	-42239.1	1005.82	-29783.4	0.000000	0.000000	6.426887	0.030903	NaN	0.000000	0.001651	0.001705	28.0814	0.022385	0.001924	11.633	35.5979	-162.261	0.107995	0.424959	-0.649720	-0.651019	0.030903	11.633	-0.651712	-4.274731E+8	-7.229238E-11	NaN
697	1.000000	0.434278	7.37187e+06	-42239.1	1005.82	-29783.4	0.000000	0.000000	6.434903	-0.034385	NaN	0.000000	0.001619	0.001735	28.0816	0.097408	0.001969	49.4714	-106.823	-166.88	0.056039	0.432949	-0.641701	-0.643030	-0.034385	49.4714	-0.641179	-3.065285E+8	1.121749E-10	NaN
697	1.000000	0.442283	7.37187e+06	-42239.1	1005.82	-29783.4	0.000000	0.000000	6.442912	0.047332	NaN	0.000000	0.001666	0.001706	28.0816	0.015607	0.001999	7.806550	90.9946	-166.492	-0.017587	0.441006	-0.633695	-0.634972	0.047332	7.806550	-0.638243	-2.793679E+8	-1.694266E-10	NaN
697	1.000000	0.450299	7.37187e+06	-42239.1	1005.82	-29783.4	0.000000	0.000000	6.450927	0.023238	NaN	0.000000	0.001680	0.001714	28.0816	0.133603	0.002054	65.0433	91.4287	-165.038	-0.043728	0.449006	-0.625679	-0.626972	0.023238	65.0433	-0.625947	-1.893900E+8	-1.227012E-10	NaN
697	1.000000	0.458300	7.37187e+06	-42239.1	1005.82	-29783.4	0.000000	0.000000	6.458930	0.087644	NaN	0.000000	0.001672	0.001735	28.0821	0.089935	0.001953	46.041	-71.0034	-163.926	0.087463	0.456933	-0.617679	-0.619045	0.087644	46.041	-0.619107	-1.525301E+8	-5.745996E-10	NaN
697	1.000000	0.466312	7.37187e+06	-42239.1	1005.82	-29783.4	0.000000	0.000000	6.466937	-0.048300	NaN	0.000000	0.001636	0.001750	28.0828	0.060458	0.002138	28.2757	61.9211	-167.365	-0.033875	0.465022	-0.609666	-0.610957	-0.048300	28.2757	-0.608385	-1.086169E+8	4.446781E-10	NaN
697	1.000000	0.474303	7.37187e+06	-42239.1	1005.82	-29783.4	0.000000	0.000000	6.474933	0.071349	NaN	0.000000	0.001630	0.001734	28.0828	0.043245	0.002013	21.4879	103.656	-166.399	0.091082	0.472993	-0.601675	-0.602985	0.071349	21.4879	-0.604166	-9.502066E+7	-7.508816E-10	NaN
697	1.000000	0.482291	7.37187e+06	-42239.1	1005.82	-29783.4	0.000000	0.000000	6.482919	0.010760	NaN	0.000000	0.001646	0.001731	28.0828	0.031742	0.001926	16.4766	2.379511	-166.441	-0.050767	0.480987	-0.593687	-0.594991	0.010760	16.4766	-0.594177	-6.922136E+7	-1.554475E-10	NaN
697	1.000000	0.490319	7.37187e+06	-42239.1	1005.82	-29783.4	0.000000	0.000000	6.490948	0.058089	NaN	0.000000	0.001637	0.001748	28.0828	0.069340	0.002030	34.1497	-8.060343	-165.846	0.109447	0.489027	-0.585660	-0.586952	0.058089	34.1497	-0.586936	-5.500615E+7	-1.056037E-9	NaN
697	1.000000	0.498308	7.37187e+06	-42239.1	1005.82	-29783.4	0.000000	0.000000	6.498940	0.134220	NaN	0.000000	0.001634	0.001706	28.0831	0.036845	0.002051	17.9608	67.5686	-164.778	0.136281	0.496988	-0.577671	-0.578990	0.134220	17.9608	-0.583276	-4.896963E+7	-2.740884E-9	NaN
697	1.000000	0.506302	7.37187e+06	-42239.1	1005.82	-29783.4	0.000000	0.000000	6.506931	0.028957	NaN	0.000000	0.001659	0.001704	28.0827	0.041903	0.001992	21.0368	-38.2556	-165.76	0.026855	0.504982	-0.569676	-0.570997	0.028957	21.0368	-0.570709	-3.284141E+7	-8.817078E-10	NaN
697	1.000000	0.514327	7.37187e+06	-42239.1	1005.82	-29783.4	0.000000	0.000000	6.514957	0.060809	NaN	0.000000	0.001640	0.001737	28.0829	0.071630	0.002008	35.6726	66.6747	-163.663	0.154542	0.512963	-0.561651	-0.563015	0.060809	35.6726	-0.562930	-2.563899E+7	-2.371725E-9	NaN
697	1.000000	0.522298	7.37187e+06	-42239.1	1005.82	-29783.4	0.000000	0.000000	6.522925	-0.007669	NaN	0.000000	0.001635	0.001762	28.0828	0.041024	0.001988	20.6386	-153.188	-166.535	0.002341	0.520983	-0.553680	-0.554996	-0.007669	20.6386	-0.553402	-1.892610E+7	4.051853E-10	NaN
697	1.000000	0.530305	7.37187e+06	-42239.1	1005.82	-29783.4	0.000000	0.000000	6.530933	0.038694	NaN	0.000000	0.001625	0.001751	28.0828	0.045940	0.002005	22.9145	40.2118	-164.302	-0.078789	0.528966	-0.545674	-0.547012	0.038694	22.9145	-0.546940	-1.540164E+7	-2.512305E-9	NaN
697	1.000000	0.538315	7.37187e+06	-42239.1	1005.82	-29783.4	0.000000	0.000000	6.538944	0.063255	NaN	0.000000	0.001594	0.001770	28.0829	0.054484	0.001968	27.6885	-88.5875	-167.124	0.073788	0.537030	-0.537664	-0.538949	0.063255	27.6885	-0.539377	-1.209821E+7	-5.228494E-9	NaN
697	1.000000	0.546330	7.37187e+06	-42239.1	1005.82	-29783.4	0.000000	0.000000	6.546957	0.001560	NaN	0.000000	0.001629	0.001770	28.0828	0.156150	0.001892	82.5276	-123.052	-167.177	0.099289	0.545012	-0.529649	-0.530967	0.001560	82.5276	-0.529663	-8.86942e+06	-1.759007E-10	NaN
697	1.000000	0.554358	7.37187e+06	-42239.1	1005.82	-29783.4	0.000000	0.000000	6.554990	0.106074	NaN	0.000000	0.001629	0.001767	28.0831	0.072823	0.001909	38.1536	-144.501	-165.317	0.081677	0.552994	-0.521620	-0.522985	0.106074	38.1536	-0.523706	-7.33026e+06	-1.447077E-8	NaN
697	1.000000	0.562323	7.37187e+06	-42239.1	1005.82	-29783.4	0.000000	0.000000	6.562953	0.070766	NaN	0.000000	0.001611	0.001767	28.0827	0.101555	0.002034	49.9289	-126.931	-165.143	0.040878	0.561016	-0.513656	-0.514962	0.070766	49.9289	-0.514719	-5.49688e+06	-1.287382E-8	NaN
697	1.000000	0.570340	7.37187e+06	-42239.1	1005.82	-29783.4	0.000000	0.000000	6.570967	0.018654	NaN	0.000000	0.001643	0.001739	28.083	0.032828	0.002024	16.2211	85.7767	-166.954	-0.025761	0.569023	-0.505639	-0.506955	0.018654	16.2211	-0.506502	-4.22351e+06	-4.416625E-9	NaN
697	1.000000	0.578329	7.37187e+06	-42239.1	1005.82	-29783.4	0.000000	0.000000	6.578960	0.116293	NaN	0.000000	0.001601	0.001792	28.0829	0.040233	0.002091	19.239	-142.723	-167.183	0.128522	0.577029	-0.497650	-0.498950	0.116293	19.239	-0.502183	-3.67682e+06	-3.162860E-8	NaN
697	1.000000	0.586322	7.37187e+06	-42239.1	1005.82	-29783.4	0.000000	0.000000	6.586951	0.041355	NaN	0.000000	0.001632	0.001774	28.0828	0.062329	0.001986	31.3863	43.2314	-166.427	-0.028727	0.584977	-0.489657	-0.491002	0.041355	31.3863	-0.490645	-2.53748e+06	-1.629770E-8	NaN
697	1.000000	0.594361	7.37187e+06	-42239.1	1005.82	-29783.4	0.000000	0.000000	6.594990	0.058151	NaN	0.000000	0.001666	0.001703	28.0829	0.039475	0.001933	20.424	-7.303990	-167.564	0.064758	0.593080	-0.481618	-0.482899	0.058151	20.424	-0.483754	-2.03261e+06	-2.860884E-8	NaN
697	1.000000	0.602358	7.37187e+06	-42239.1	1005.82	-29783.4	0.000000	0.000000	6.602987	0.038153	NaN	0.000000	0.001642	0.001739	28.0817	0.053432	0.001967	27.1677	135.334	-167.146	0.013701	0.601004	-0.473620	-0.474975	0.038153	27.1677	-0.474673	-1.51678e+06	-2.515366E-8	NaN
697	1.000000	0.610360	7.37187e+06	-42239.1	1005.82	-29783.4	0.000000	0.000000	6.610989	0.042886	NaN	0.000000	0.001627	0.001707	28.0818	0.119549	0.001888	63.3115	124.857	-165.242	-0.033806	0.609056	-0.465619	-0.466922	0.042886	63.3115	-0.466127	-1.15097e+06	-3.726049E-8	NaN
697	1.000000	0.618390	7.37187e+06	-42239.1	1005.82	-29783.4	0.000000	0.000000	6.619022	0.127542	NaN	0.000000	0.001601	0.001741	28.0819	0.026283	0.001978	13.2845	-142.696	-166.646	0.121394	0.617071	-0.457589	-0.458907	0.127542	13.2845	-0.464790	-1.10229e+06	-1.157067E-7	NaN
697	1.000000	0.626378	7.37187e+06	-42239.1	1005.82	-29783.4	0.000000	0.000000	6.627011	0.152692	NaN	0.000000	0.001603	0.001765	28.0817	0.110020	0.001998	55.0538	-12.469	-166.223	0.137640	0.625028	-0.449601	-0.450951	0.152692	55.0538	-0.451681	-721118	-2.117429E-7	NaN
697	1.000000	0.634363	7.37187e+06	-42239.1	1005.82	-29783.4	0.000000	0.000000	6.634992	0.055465	NaN	0.000000	0.001594	0.001725	28.0815	0.040445	0.001925	21.0096	-108.517	-166.145	0.011503	0.633113	-0.441616	-0.442865	0.055465	21.0096	-0.443596	-554750	-9.998230E-8	NaN
697	1.000000	0.642342	7.37187e+06	-42239.1	1005.82	-29783.4	0.000000	0.000000	6.642971	0.032902	NaN	0.000000	0.001629	0.001709	28.0818	0.015368	0.002121	7.245598	-30.3583	-167.142	0.071558	0.641083	-0.433636	-0.434896	0.032902	7.245598	-0.437042	-448333	-7.338683E-8	NaN
697	1.000000	0.650372	7.37187e+06	-42239.1	1005.82	-29783.4	0.000000	0.000000	6.651004	0.122478	NaN	0.000000	0.001617	0.001703	28.0818	0.022260	0.001988	11.1956	17.2951	-167.481	0.044313	0.649045	-0.425607	-0.426934	0.122478	11.1956	-0.433811	-403606	-3.034593E-7	NaN
697	1.000000	0.658352	7.37187e+06	-42239.1	1005.82	-29783.4	0.000000	0.000000	6.658981	0.061724	NaN	0.000000	0.001608	0.001727	28.0813	0.084278	0.002093	40.258	171.993	-167.118	0.062072	0.656995	-0.417627	-0.418984	0.061724	40.258	-0.418777	-247208	-2.496855E-7	NaN
697	1.000000	0.666350	7.37187e+06	-42239.1	1005.82	-29783.4	0.000000	0.000000	6.666979	0.066169	NaN	0.000000	0.001627	0.001679	28.0819	0.151721	0.002009	75.5109	-138.855	-164.849	0.038223	0.665083	-0.409629	-0.410895	0.066169	75.5109	-0.410286	-187272	-3.533302E-7	NaN
697	1.000000	0.674394	7.37187e+06	-42239.1	1005.82	-29783.4	0.000000	0.000000	6.675023	0.035635	NaN	0.000000	0.001633	0.001727	28.0815	0.055976	0.001843	30.3776	-134.943	-162.275	0.067486	0.673103	-0.401584	-0.402876	0.035635	30.3776	-0.402464	-144918	-2.459009E-7	NaN
697	1.000000	0.682387	7.37187e+06	-42239.1	1005.82	-29783.4	0.000000	0.000000	6.683019	0.105749	NaN	0.000000	0.001647	0.001701	28.0817	0.103975	0.001922	54.0913	146.047	-165.996	0.090448	0.681086	-0.393591	-0.394893	0.105749	54.0913	-0.395058	-113621	-9.307203E-7	NaN
697	1.000000	0.690370	7.37187e+06	-42239.1	1005.82	-29783.4	0.000000	0.000000	6.690999	0.045945	NaN	0.000000	0.001581	0.001698	28.0815	0.067474	0.001920	35.1469	91.6587	-166.82	-0.020672	0.689098	-0.385608	-0.386880	0.045945	35.1469	-0.386589	-85968.8	-5.344324E-7	NaN
697	1.000000	0.698386	7.37187e+06	-42239.1	1005.82	-29783.4	0.000000	0.000000	6.699014	0.024679	NaN	0.000000	0.001636	0.001668	28.0815	0.022647	0.001980	11.4389	34.3758	-166.506	0.054208	0.697115	-0.377593	-0.378863	0.024679	11.4389	-0.379211	-67384.6	-3.662419E-7	NaN
697	1.000000	0.706399	7.37187e+06	-42239.1	1005.82	-29783.4	0.000000	0.000000	6.707027	0.019931	NaN	0.000000	0.001612	0.001703	28.0821	0.118596	0.001952	60.7675	-67.5409	-164.584	-0.009254	0.705108	-0.369580	-0.370871	0.019931	60.7675	-0.369826	-49387.6	-4.035617E-7	NaN
697	1.000000	0.714396	7.37187e+06	-42239.1	1005.82	-29783.4	0.000000	0.000000	6.715026	0.073199	NaN	0.000000	0.001610	0.001709	28.0815	0.073439	0.002072	35.4466	112.517	-167.848	0.051961	0.713061	-0.361582	-0.362918	0.073199	35.4466	-0.363131	-39543.9	-1.851085E-6	NaN
697	1.000000	0.722401	7.37187e+06	-42239.1	1005.82	-29783.4	0.000000	0.000000	6.723032	0.104175	NaN	0.000000	0.001584	0.001726	28.0815	0.020424	0.001965	10.3943	10.205	-165.815	0.070723	0.721083	-0.353578	-0.354895	0.104175	10.3943	-0.361095	-36954.3	-2.819024E-6	NaN
697	1.000000	0.730419	7.37187e+06	-42239.1	1005.82	-29783.4	0.000000	0.000000	6.731049	0.069086	NaN	0.000000	0.001572	0.001720	28.0815	0.046865	0.001865	25.1324	134.879	-165.887	-0.006840	0.729073	-0.345559	-0.346906	0.069086	25.1324	-0.347621	-23575.2	-2.930462E-6	NaN
697	1.000000	0.738381	7.37187e+06	-42239.1	1005.82	-29783.4	0.000000	0.000000	6.739009	0.023358	NaN	0.000000	0.001603	0.001699	28.0826	0.057274	0.001980	28.9245	133.224	-166.635	0.009467	0.737106	-0.337598	-0.338873	0.023358	28.9245	-0.338204	-17193.2	-1.358563E-6	NaN
697	1.000000	0.746402	7.37187e+06	-42239.1	1005.82	-29783.4	0.000000	0.000000	6.747031	0.053887	NaN	0.000000	0.001607	0.001698	28.0826	0.113824	0.001910	59.6085	-170.902	-163.063	-0.041637	0.745133	-0.329576	-0.330846	0.053887	59.6085	-0.330254	-13157.6	-4.095516E-6	NaN
697	1.000000	0.754389	7.37187e+06	-42239.1	1005.82	-29783.4	0.000000	0.000000	6.755019	0.056062	NaN	0.000000	0.001574	0.001714	28.0826	0.028621	0.001864	15.3542	-69.743	-164.541	0.042594	0.753092	-0.321589	-0.322887	0.056062	15.3542	-0.324328	-10771.2	-5.204814E-6	NaN
697	1.000000	0.762403	7.37187e+06	-42239.1	1005.82	-29783.4	0.000000	0.000000	6.763029	-0.019993	NaN	0.000000	0.001588	0.001718	28.083	0.038021	0.001995	19.0545	163.456	-165.888	0.024432	0.761099	-0.313575	-0.314880	-0.019993	19.0545	-0.312789	-7282.68	2.745284E-6	NaN
697	1.000000	0.770421	7.37187e+06	-42239.1	1005.82	-29783.4	0.000000	0.000000	6.771049	0.012953	NaN	0.000000	0.001627	0.001689	28.0826	0.032727	0.002076	15.766	52.5939	-168.782	0.007626	0.769060	-0.305557	-0.306919	0.012953	15.766	-0.306173	-5812.53	-2.228385E-6	NaN
697	1.000000	0.778456	7.37187e+06	-42239.1	1005.82	-29783.4	0.000000	0.000000	6.779081	-0.067930	NaN	0.000000	0.001555	0.001704	28.0827	0.070805	0.002027	34.9269	125.966	-166.666	-0.006892	0.777158	-0.297522	-0.298821	-0.067930	34.9269	-0.296064	-4111.17	1.652336E-5	NaN
697	1.000000	0.786420	7.37187e+06	-42239.1	1005.82	-29783.4	0.000000	0.000000	6.787051	0.096767	NaN	0.000000	0.001617	0.001730	28.0828	0.106385	0.002008	52.9938	-45.5992	-165.509	0.073684	0.785075	-0.289559	-0.290903	0.096767	52.9938	-0.290928	-3445.12	-2.808820E-5	NaN
697	1.000000	0.794428	7.37187e+06	-42239.1	1005.82	-29783.4	0.000000	0.000000	6.795059	0.088508	NaN	0.000000	0.001613	0.001698	28.0828	0.061307	0.001986	30.8739	95.6896	-167.16	0.042484	0.793121	-0.281551	-0.282857	0.088508	30.8739	-0.283701	-2683.65	-3.298036E-5	NaN
697	1.000000	0.802427	7.37187e+06	-42239.1	1005.82	-29783.4	0.000000	0.000000	6.803054	0.015702	NaN	0.000000	0.001626	0.001678	28.0828	0.125712	0.001956	64.2831	-135.449	-164.643	-0.002158	0.801107	-0.273552	-0.274872	0.015702	64.2831	-0.273735	-1897.75	-8.273918E-6	NaN
697	1.000000	0.810418	7.37187e+06	-42239.1	1005.82	-29783.4	0.000000	0.000000	6.811047	0.057967	NaN	0.000000	0.001674	0.001697	28.0827	0.063361	0.001951	32.478	9.595245	-166.037	0.028168	0.809136	-0.265561	-0.266843	0.057967	32.478	-0.266899	-1494.02	-3.879919E-5	NaN
697	1.000000	0.818422	7.37187e+06	-42239.1	1005.82	-29783.4	0.000000	0.000000	6.819050	0.023407	NaN	0.000000	0.001636	0.001724	28.0831	0.122152	0.001982	61.6428	164.026	-170.385	0.144400	0.817120	-0.257557	-0.258858	0.023407	61.6428	-0.257841	-1085.93	-2.155465E-5	NaN
697	1.000000	0.826425	7.37187e+06	-42239.1	1005.82	-29783.4	0.000000	0.000000	6.827052	-0.001518	NaN	0.000000	0.001607	0.001687	28.0829	0.176386	0.002029	86.9238	-10.8948	-166.214	0.030397	0.825125	-0.249554	-0.250853	-0.001518	86.9238	-0.249541	-808.839	1.876321E-6	NaN
697	1.000000	0.834433	7.37187e+06	-42239.1	1005.82	-29783.4	0.000000	0.000000	6.835061	0.016440	NaN	0.000000	0.001597	0.001698	28.0829	0.038458	0.002086	18.4401	-172.756	-166.404	-0.005820	0.833132	-0.241545	-0.242846	0.016440	18.4401	-0.242214	-622.434	-2.641179E-5	NaN
697	1.000000	0.842455	7.37187e+06	-42239.1	1005.82	-29783.4	0.000000	0.000000	6.843085	0.097774	NaN	0.000000	0.001610	0.001699	28.0826	0.087957	0.002057	42.7556	-114.052	-166.796	-0.049786	0.841161	-0.233524	-0.234817	0.097774	42.7556	-0.235239	-484.177	-0.000202	NaN
697	1.000000	0.850459	7.37187e+06	-42239.1	1005.82	-29783.4	0.000000	0.000000	6.851087	0.030205	NaN	0.000000	0.001626	0.001739	28.0827	0.025384	0.002061	12.3182	159.675	-167.163	0.043725	0.849144	-0.225519	-0.226834	0.030205	12.3182	-0.227358	-363.699	-8.304959E-5	NaN
697	1.000000	0.858471	7.37187e+06	-42239.1	1005.82	-29783.4	0.000000	0.000000	6.859098	0.013972	NaN	0.000000	0.001591	0.001688	28.083	0.106768	0.001924	55.5036	15.3113	-165.319	0.058668	0.857137	-0.217508	-0.218841	0.013972	55.5036	-0.217697	-255.159	-5.475833E-5	NaN
697	1.000000	0.866441	7.37187e+06	-42239.1	1005.82	-29783.4	0.000000	0.000000	6.867071	0.075403	NaN	0.000000	0.001627	0.001712	28.083	0.030164	0.001966	15.3468	-154.884	-165.94	0.068356	0.865173	-0.209538	-0.210805	0.075403	15.3468	-0.213223	-216.22	-0.000349	NaN
697	1.000000	0.874484	7.37187e+06	-42239.1	1005.82	-29783.4	0.000000	0.000000	6.875111	-0.009490	NaN	0.000000	0.001667	0.001716	28.0818	0.060228	0.001978	30.4551	-117.918	-167.917	0.059286	0.873136	-0.201495	-0.202842	-0.009490	30.4551	-0.201261	-138.165	6.868596E-5	NaN
697	1.000000	0.882492	7.37187e+06	-42239.1	1005.82	-29783.4	0.000000	0.000000	6.883122	0.074836	NaN	0.000000	0.001628	0.001730	28.0816	0.070857	0.002016	35.1519	22.3345	-165.766	0.020539	0.881150	-0.193486	-0.194829	0.074836	35.1519	-0.195083	-109.289	-0.000685	NaN
697	1.000000	0.890488	7.37187e+06	-42239.1	1005.82	-29783.4	0.000000	0.000000	6.891119	0.102730	NaN	0.000000	0.001662	0.001721	28.0817	0.159613	0.002040	78.249	140.284	-165.109	0.112214	0.889174	-0.185491	-0.186805	0.102730	78.249	-0.186475	-78.5168	-0.001308	NaN
697	1.000000	0.898455	7.37187e+06	-42239.1	1005.82	-29783.4	0.000000	0.000000	6.899086	0.083026	NaN	0.000000	0.001657	0.001696	28.0817	0.046404	0.001922	24.1406	-60.1456	-165.523	0.110212	0.897131	-0.177523	-0.178848	0.083026	24.1406	-0.180103	-61.2656	-0.001355	NaN
697	1.000000	0.906510	7.37187e+06	-42239.1	1005.82	-29783.4	0.000000	0.000000	6.907141	0.092249	NaN	0.000000	0.001671	0.001699	28.0816	0.070579	0.001981	35.6292	129.461	-166.147	0.141051	0.905178	-0.169468	-0.170800	0.092249	35.6292	-0.171410	-43.4577	-0.002123	NaN
697	1.000000	0.914478	7.37187e+06	-42239.1	1005.82	-29783.4	0.000000	0.000000	6.915107	0.040863	NaN	0.000000	0.001658	0.001765	28.0818	0.090525	0.001994	45.4058	-9.685614	-164.773	0.035350	0.913148	-0.161501	-0.162831	0.040863	45.4058	-0.162176	-29.9602	-0.001364	NaN
697	1.000000	0.922462	7.37187e+06	-42239.1	1005.82	-29783.4	0.000000	0.000000	6.923091	0.058865	NaN	0.000000	0.001649	0.001726	28.0816	0.057516	0.002091	27.5055	-145.48	-166.707	0.057888	0.921165	-0.153517	-0.154814	0.058865	27.5055	-0.155122	-22.4272	-0.002625	NaN
697	1.000000	0.930503	7.37187e+06	-42239.1	1005.82	-29783.4	0.000000	0.000000	6.931131	0.025634	NaN	0.000000	0.001630	0.001736	28.0819	0.095998	0.002084	46.0582	-112.544	-164.486	0.013124	0.929166	-0.145475	-0.146812	0.025634	46.0582	-0.145893	-15.2286	-0.001683	NaN
697	1.000000	0.938494	7.37187e+06	-42239.1	1005.82	-29783.4	0.000000	0.000000	6.939119	-0.042671	NaN	0.000000	0.001654	0.001695	28.0816	0.035633	0.001945	18.3202	-20.736	-164.764	0.002132	0.937194	-0.137485	-0.138785	-0.042671	18.3202	-0.135738	-9.825523	0.004343	NaN
697	1.000000	0.946496	7.37187e+06	-42239.1	1005.82	-29783.4	0.000000	0.000000	6.947124	0.023223	NaN	0.000000	0.001657	0.001723	28.0813	0.166595	0.002049	81.3086	-101.276	-163.863	0.027626	0.945199	-0.129482	-0.130779	0.023223	81.3086	-0.129697	-7.518193	-0.003089	NaN
697	1.000000	0.954487	7.37187e+06	-42239.1	1005.82	-29783.4	0.000000	0.000000	6.955117	0.059632	NaN	0.000000	0.001661	0.001717	28.0819	0.049288	0.001854	26.5813	-152.546	-166.203	0.011184	0.953200	-0.121492	-0.122779	0.059632	26.5813	-0.123174	-5.594170	-0.010660	NaN
697	1.000000	0.962469	7.37187e+06	-42239.1	1005.82	-29783.4	0.000000	0.000000	6.963098	0.048170	NaN	0.000000	0.001667	0.001743	28.0815	0.090022	0.002112	42.6227	59.1129	-164.97	0.012288	0.961181	-0.113509	-0.114797	0.048170	42.6227	-0.114357	-3.705348	-0.013000	NaN
697	1.000000	0.970506	7.37187e+06	-42239.1	1005.82	-29783.4	0.000000	0.000000	6.971134	0.033262	NaN	0.000000	0.001679	0.001742	28.0818	0.024365	0.001938	12.5731	-108.945	-166.749	0.025704	0.969249	-0.105473	-0.106730	0.033262	12.5731	-0.107457	-2.654130	-0.012532	NaN
697	1.000000	0.978513	7.37187e+06	-42239.1	1005.82	-29783.4	0.000000	0.000000	6.979139	-0.019793	NaN	0.000000	0.001667	0.001722	28.0817	0.074156	0.001947	38.0849	-110.787	-167.481	0.100301	0.977214	-0.097466	-0.098764	-0.019793	38.0849	-0.097076	-1.571961	0.012592	NaN
697	1.000000	0.986492	7.37187e+06	-42239.1	1005.82	-29783.4	0.000000	0.000000	6.987123	0.101607	NaN	0.000000	0.001695	0.001718	28.0817	0.032807	0.001951	16.8153	17.5979	-165.579	0.077370	0.985221	-0.089486	-0.090758	0.101607	16.8153	-0.094018	-1.339620	-0.075848	NaN
697	1.000000	0.994533	7.37187e+06	-42239.1	1005.82	-29783.4	0.000000	0.000000	6.995165	0.123343	NaN	0.000000	0.001647	0.001697	28.0816	0.067823	0.002048	33.1153	55.6686	-168.87	0.066748	0.993179	-0.081445	-0.082799	0.123343	33.1153	-0.084239	-0.787431	-0.156640	NaN
697	1.000000	1.002530	7.37187e+06	-42239.1	1005.82	-29783.4	0.000000	0.000000	7.003159	0.065472	NaN	0.000000	0.001607	0.001697	28.0815	0.185100	0.001855	99.7685	169.203	-164.029	0.067820	1.001161	-0.073449	-0.074817	0.065472	99.7685	-0.073941	-0.433542	-0.151017	NaN
697	1.000000	1.010503	7.37187e+06	-42239.1	1005.82	-29783.4	0.000000	0.000000	7.011130	0.005497	NaN	0.000000	0.001652	0.001698	28.083	0.009914	0.002058	4.817159	116.971	-165.583	-0.057265	1.009189	-0.065476	-0.066790	0.005497	4.817159	-0.066331	-0.271231	-0.020265	NaN
697	1.000000	1.018520	7.37187e+06	-42239.1	1005.82	-29783.4	0.000000	0.000000	7.019148	0.012016	NaN	0.000000	0.001691	0.001708	28.083	0.046812	0.001950	24.0031	153.067	-167.09	0.036709	1.017247	-0.057458	-0.058732	0.012016	24.0031	-0.057834	-0.155931	-0.077062	NaN
697	1.000000	1.026541	7.37187e+06	-42239.1	1005.82	-29783.4	0.000000	0.000000	7.027165	-0.064841	NaN	0.000000	0.001658	0.001738	28.0831	0.081512	0.002016	40.4416	-59.8112	-166.006	-0.034260	1.025248	-0.049438	-0.050731	-0.064841	40.4416	-0.048235	-0.080668	0.803794	NaN
697	1.000000	1.034531	7.37187e+06	-42239.1	1005.82	-29783.4	0.000000	0.000000	7.035161	0.089954	NaN	0.000000	0.001664	0.001715	28.0828	0.152059	0.002142	70.9986	-173.042	-165.583	0.115978	1.033185	-0.041448	-0.042794	0.089954	70.9986	-0.042398	-0.053510	-1.681070	NaN
697	1.000000	1.042520	7.37187e+06	-42239.1	1005.82	-29783.4	0.000000	0.000000	7.043148	0.045428	NaN	0.000000	0.001637	0.001726	28.0829	0.056506	0.002087	27.0807	146.066	-165.792	0.047160	1.041220	-0.033459	-0.034759	0.045428	27.0807	-0.034717	-0.031417	-1.445968	NaN
697	1.000000	1.050545	7.37187e+06	-42239.1	1005.82	-29783.4	0.000000	0.000000	7.051174	0.034463	NaN	0.000000	0.001630	0.001707	28.0832	0.069981	0.002122	32.9837	0.189010	-167.119	0.106312	1.049191	-0.025433	-0.026788	0.034463	32.9837	-0.026217	-0.018161	-1.897603	NaN
697	1.000000	1.058558	7.37187e+06	-42239.1	1005.82	-29783.4	0.000000	0.000000	7.059184	-0.032759	NaN	0.000000	0.001629	0.001702	28.0828	0.034740	0.002109	16.4709	66.736	-163.282	-0.019150	1.057206	-0.017420	-0.018772	-0.032759	16.4709	-0.015929	-0.009839	3.329459	NaN
697	1.000000	1.066540	7.37187e+06	-42239.1	1005.82	-29783.4	0.000000	0.000000	7.067168	0.030234	NaN	0.000000	0.001629	0.001732	28.0827	0.055438	0.001961	28.2764	179.149	-168.07	0.098688	1.065286	-0.009438	-0.010692	0.030234	28.2764	-0.010240	-0.006525	-4.633734	NaN
697	1.000000	1.074497	7.37187e+06	-42239.1	1005.82	-29783.4	0.000000	0.000000	7.075141	0.410061	NaN	0.000000	0.001552	0.001741	28.0828	0.711555	0.001956	363.774	8.771074	-161.738	0.116466	1.073152	-0.001481	-0.002827	0.410061	363.774	-0.002327	-0.001664	-246.359	NaN
697	2.000000	1.082019	7.37187e+06	-42239.1	1005.82	-29783.4	0.000000	0.000000	7.082984	8.219988	NaN	0.000000	0.001550	0.001765	28.083	7.526031	0.001688	4459.16	7.595786	-168.988	7.500813	1.081135	0.006040	0.005156	8.219988	4459.16	0.004658	0.003823	2150.07	65889.6
697	2.000000	1.084198	7.37187e+06	-42239.1	1005.82	-29783.4	0.000000	0.000000	7.085262	10.6135	NaN	0.000000	0.001544	0.001743	28.0832	9.751407	0.001585	6153.89	10.7415	-177.082	10.6444	1.083897	0.008220	0.007919	10.6135	6153.89	0.006926	0.005961	1780.47	72821.6
697	2.000000	1.086129	7.37187e+06	-42239.1	1005.82	-29783.4	0.000000	0.000000	7.087335	14.075	NaN	0.000000	0.001597	0.001745	28.0828	12.1847	0.001826	6672.18	7.017229	-173.287	13.2354	1.085820	0.010151	0.009841	14.075	6672.18	0.008569	0.007634	1843.77	69770.2
697	2.000000	1.088146	7.37187e+06	-42239.1	1005.82	-29783.4	0.000000	0.000000	7.089523	18.2541	NaN	0.000000	0.001551	0.001721	28.0826	14.1022	0.001578	8937.2	6.590081	-176.362	17.3721	1.087783	0.012167	0.011805	18.2541	8937.2	0.010635	0.009896	1844.63	82082.2
697	2.000000	1.090129	7.37187e+06	-42239.1	1005.82	-29783.4	0.000000	0.000000	7.091649	21.7313	NaN	0.000000	0.001577	0.001725	28.083	16.2581	0.001703	9544.91	6.202588	-177.021	20.6992	1.089781	0.014150	0.013802	21.7313	9544.91	0.012443	0.012025	1807.2	79525.3
697	2.000000	1.092122	7.37187e+06	-42239.1	1005.82	-29783.4	0.000000	0.000000	7.093783	25.1709	NaN	0.000000	0.001608	0.001713	28.0829	18.7588	0.001974	9500.96	4.463313	-174.458	24.4621	1.091848	0.016143	0.015869	25.1709	9500.96	0.014156	0.014177	1775.53	72904.8
697	2.000000	1.094088	7.37187e+06	-42239.1	1005.82	-29783.4	0.000000	0.000000	7.095857	27.8025	NaN	0.000000	0.001578	0.001714	28.0833	20.0623	0.001669	12023.1	5.065373	-177.412	26.5713	1.093851	0.018109	0.017872	27.8025	12023.1	0.016375	0.017163	1619.95	83849.4
697	2.000000	1.096061	7.37187e+06	-42239.1	1005.82	-29783.4	0.000000	0.000000	7.098047	33.0691	NaN	0.000000	0.001583	0.001682	28.0831	22.6134	0.001836	12316.4	3.082190	-174.335	31.9125	1.095805	0.020082	0.019826	33.0691	12316.4	0.018068	0.019597	1687.42	80381.4
697	2.000000	1.098085	7.37187e+06	-42239.1	1005.82	-29783.4	0.000000	0.000000	7.100348	39.8079	NaN	0.000000	0.001594	0.001661	28.0817	24.7653	0.001705	14527.3	8.050302	179.368	39.7508	1.097704	0.022106	0.021725	39.8079	14527.3	0.020051	0.022622	1759.68	88245.1
697	2.000000	1.100106	7.37187e+06	-42239.1	1005.82	-29783.4	0.000000	0.000000	7.102585	45.0642	NaN	0.000000	0.001673	0.001727	28.0819	26.4718	0.001655	15994.4	8.238898	176.268	44.8515	1.099790	0.024127	0.023811	45.0642	15994.4	0.022014	0.025806	1746.27	90966.6
697	2.000000	1.102081	7.37187e+06	-42239.1	1005.82	-29783.4	0.000000	0.000000	7.104865	52.4792	NaN	0.000000	0.001660	0.001692	28.0816	29.36	0.001739	16881.2	6.299964	177.794	50.738	1.101789	0.026103	0.025811	52.4792	16881.2	0.023771	0.028818	1821.06	90854.2
697	2.000000	1.104101	7.37187e+06	-42239.1	1005.82	-29783.4	0.000000	0.000000	7.106788	50.1069	NaN	0.000000	0.001636	0.001733	28.0817	30.4357	0.001729	17602.6	6.005431	178.075	49.2138	1.103877	0.028123	0.027898	50.1069	17602.6	0.025988	0.032837	1525.92	88749.9
697	2.000000	1.106015	7.37187e+06	-42239.1	1005.82	-29783.4	0.000000	0.000000	7.109117	60.22	NaN	0.000000	0.001656	0.001757	28.0822	32.6538	0.001825	17892.9	4.317483	-178.364	57.7256	1.105749	0.030037	0.029771	60.22	17892.9	0.027512	0.035745	1684.69	86465.7
697	2.000000	1.108108	7.37187e+06	-42239.1	1005.82	-29783.4	0.000000	0.000000	7.111444	65.9175	NaN	0.000000	0.001667	0.001727	28.0816	34.2865	0.001891	18132.1	6.793262	179.647	65.6658	1.107715	0.032129	0.031737	65.9175	18132.1	0.029402	0.039514	1668.2	83338.6
697	2.000000	1.110032	7.37187e+06	-42239.1	1005.82	-29783.4	0.000000	0.000000	7.113523	69.7084	NaN	0.000000	0.001642	0.001711	28.0818	35.9009	0.001766	20327.7	3.634723	179.176	67.0156	1.109712	0.034053	0.033734	69.7084	20327.7	0.031481	0.043869	1589	88670.8
697	2.000000	1.112042	7.37187e+06	-42239.1	1005.82	-29783.4	0.000000	0.000000	7.115911	78.8971	NaN	0.000000	0.001669	0.001727	28.0815	38.0614	0.001781	21367.6	3.316205	179.305	77.2911	1.111771	0.036063	0.035792	78.8971	21367.6	0.033294	0.047848	1648.92	89248
697	2.000000	1.114084	7.37187e+06	-42239.1	1005.82	-29783.4	0.000000	0.000000	7.118182	84.4548	NaN	0.000000	0.001675	0.001755	28.0819	39.1009	0.001804	21671.3	1.528272	-178.65	84.9647	1.113773	0.038105	0.037794	84.4548	21671.3	0.035182	0.052172	1618.79	86684.6
697	2.000000	1.116067	7.37187e+06	-42239.1	1005.82	-29783.4	0.000000	0.000000	7.120472	91.9137	NaN	0.000000	0.001680	0.001743	28.0821	41.3796	0.001859	22256.3	3.778352	179.721	91.7504	1.115676	0.040089	0.039697	91.9137	22256.3	0.036991	0.056484	1627.24	85558.3
697	2.000000	1.118098	7.37187e+06	-42239.1	1005.82	-29783.4	0.000000	0.000000	7.122738	97.6321	NaN	0.000000	0.001709	0.001715	28.0815	44.2167	0.001970	22444.1	8.124346	175.476	98.329	1.117763	0.042120	0.041784	97.6321	22444.1	0.038857	0.061109	1597.68	82951.7
697	2.000000	1.120044	7.37187e+06	-42239.1	1005.82	-29783.4	0.000000	0.000000	7.125160	109.204	NaN	0.000000	0.001649	0.001754	28.0817	44.2844	0.001752	25279.2	4.222842	177.705	108.398	1.119733	0.044066	0.043754	109.204	25279.2	0.040826	0.066180	1650.1	89778.8
697	2.000000	1.122061	7.37187e+06	-42239.1	1005.82	-29783.4	0.000000	0.000000	7.127303	112.288	NaN	0.000000	0.001658	0.001744	28.0816	47.2128	0.001921	24582.8	4.609748	178.252	111.64	1.121738	0.046082	0.045760	112.288	24582.8	0.042657	0.071074	1579.88	84246.1
697	2.000000	1.124053	7.37187e+06	-42239.1	1005.82	-29783.4	0.000000	0.000000	7.129648	120.864	NaN	0.000000	0.001596	0.001736	28.0819	47.844	0.001837	26037.9	3.860747	177.553	119.935	1.123842	0.048075	0.047863	120.864	26037.9	0.044593	0.076437	1581.22	86045.4
697	2.000000	1.125999	7.37187e+06	-42239.1	1005.82	-29783.4	0.000000	0.000000	7.131870	127.588	NaN	0.000000	0.001630	0.001742	28.0817	49.2338	0.001766	27879.5	1.573967	179.648	124.67	1.125725	0.050021	0.049747	127.588	27879.5	0.046588	0.082160	1552.91	88864.3
697	2.000000	1.128053	7.37187e+06	-42239.1	1005.82	-29783.4	0.000000	0.000000	7.134442	140.197	NaN	0.000000	0.001646	0.001722	28.0815	51.1448	0.001861	27475.9	2.942993	179.187	138.812	1.127725	0.052074	0.051747	140.197	27475.9	0.048247	0.087073	1610.12	85071.5
697	2.000000	1.129975	7.37187e+06	-42239.1	1005.82	-29783.4	0.000000	0.000000	7.136739	149.315	NaN	0.000000	0.001666	0.001715	28.0816	52.5404	0.001699	30930.9	2.074142	177.901	147.408	1.129737	0.053997	0.053758	149.315	30930.9	0.050376	0.093579	1595.6	92379.7
697	2.000000	1.132007	7.37187e+06	-42239.1	1005.82	-29783.4	0.000000	0.000000	7.139139	158.272	NaN	0.000000	0.001647	0.001754	28.0826	55.791	0.001823	30611.4	4.151984	175.244	156.311	1.131797	0.056029	0.055818	158.272	30611.4	0.052151	0.099177	1595.86	88807.9
697	2.000000	1.134062	7.37187e+06	-42239.1	1005.82	-29783.4	0.000000	0.000000	7.141659	169.595	NaN	0.000000	0.001673	0.001735	28.0828	57.0529	0.001859	30692	5.971851	174.891	170.333	1.133673	0.058083	0.057694	169.595	30692	0.053939	0.104976	1615.57	86547.3
697	2.000000	1.136074	7.37187e+06	-42239.1	1005.82	-29783.4	0.000000	0.000000	7.143956	176.537	NaN	0.000000	0.001655	0.001756	28.0827	58.5696	0.001859	31507.3	5.485220	175.077	179.783	1.135761	0.060095	0.059782	176.537	31507.3	0.055893	0.111494	1583.39	86210.3
697	2.000000	1.137996	7.37187e+06	-42239.1	1005.82	-29783.4	0.000000	0.000000	7.146474	191.013	NaN	0.000000	0.001652	0.001746	28.0827	60.1454	0.001782	33742.3	5.701252	174.814	187.385	1.137606	0.062018	0.061627	191.013	33742.3	0.057772	0.117941	1619.57	89766.9
697	2.000000	1.139958	7.37187e+06	-42239.1	1005.82	-29783.4	0.000000	0.000000	7.149033	205.566	NaN	0.000000	0.001643	0.001723	28.0833	59.9839	0.001867	32136.2	-1.299092	-177.996	201.764	1.139673	0.063979	0.063694	205.566	32136.2	0.059182	0.122890	1672.76	83754.6
697	2.000000	1.141979	7.37187e+06	-42239.1	1005.82	-29783.4	0.000000	0.000000	7.151304	211.635	NaN	0.000000	0.001622	0.001764	28.0829	64.268	0.001752	36677.7	3.943072	174.752	209.172	1.141794	0.066000	0.065815	211.635	36677.7	0.061673	0.131875	1604.82	92277
697	2.000000	1.143995	7.37187e+06	-42239.1	1005.82	-29783.4	0.000000	0.000000	7.153905	225.865	NaN	0.000000	0.001594	0.001752	28.0828	64.7065	0.001664	38887.4	2.778892	175.159	223.243	1.143646	0.068017	0.067667	225.865	38887.4	0.063661	0.139261	1621.88	95206.6
697	2.000000	1.146035	7.37187e+06	-42239.1	1005.82	-29783.4	0.000000	0.000000	7.156579	241.293	NaN	0.000000	0.001648	0.001696	28.0827	68.8688	0.001696	40608.3	9.176951	169.428	240.397	1.145606	0.070057	0.069627	241.293	40608.3	0.065600	0.146653	1645.34	96881.9
697	2.000000	1.148023	7.37187e+06	-42239.1	1005.82	-29783.4	0.000000	0.000000	7.159016	252.21	NaN	0.000000	0.001636	0.001714	28.0827	70.8582	0.001780	39817.3	4.360579	174.464	248.797	1.147575	0.072045	0.071596	252.21	39817.3	0.067294	0.153255	1645.69	92926.1
697	2.000000	1.149922	7.37187e+06	-42239.1	1005.82	-29783.4	0.000000	0.000000	7.161311	261.858	NaN	0.000000	0.001574	0.001754	28.0828	73.613	0.001830	40233.4	6.343969	171.653	257.057	1.149724	0.073943	0.073746	261.858	40233.4	0.069062	0.160292	1633.64	91813.1
697	2.000000	1.152020	7.37187e+06	-42239.1	1005.82	-29783.4	0.000000	0.000000	7.163878	273.272	NaN	0.000000	0.001616	0.001733	28.0827	75.3615	0.001884	40000.9	3.749213	174.449	272.587	1.151746	0.076041	0.075767	273.272	40000.9	0.070917	0.167839	1628.18	89206.4
697	2.000000	1.153976	7.37187e+06	-42239.1	1005.82	-29783.4	0.000000	0.000000	7.166428	287.732	NaN	0.000000	0.001571	0.001731	28.0829	76.0634	0.001816	41882	6.386930	171.834	286.967	1.153672	0.077997	0.077694	287.732	41882	0.072845	0.175852	1636.22	91248.9
697	2.000000	1.155898	7.37187e+06	-42239.1	1005.82	-29783.4	0.000000	0.000000	7.169043	304.566	NaN	0.000000	0.001540	0.001737	28.0827	79.3417	0.001903	41700.2	5.691392	171.945	298.204	1.155703	0.079920	0.079724	304.566	41700.2	0.074442	0.182626	1667.71	89152
697	2.000000	1.158043	7.37187e+06	-42239.1	1005.82	-29783.4	0.000000	0.000000	7.171661	316.085	NaN	0.000000	0.001610	0.001698	28.0829	80.4634	0.001803	44637.6	4.340257	173.117	317.019	1.157704	0.082064	0.081725	316.085	44637.6	0.076754	0.192641	1640.8	92918.1
697	2.000000	1.160003	7.37187e+06	-42239.1	1005.82	-29783.4	0.000000	0.000000	7.174293	332.438	NaN	0.000000	0.001572	0.001718	28.0827	82.2664	0.001834	44849	10.6309	166.948	333.297	1.159599	0.084025	0.083621	332.438	44849	0.078465	0.200218	1660.38	91574.3
697	2.000000	1.161973	7.37187e+06	-42239.1	1005.82	-29783.4	0.000000	0.000000	7.176653	341.935	NaN	0.000000	0.001614	0.001719	28.0827	83.4717	0.001786	46731.1	4.785394	172.736	340.238	1.161632	0.085994	0.085653	341.935	46731.1	0.080506	0.209432	1632.67	93294.8
697	2.000000	1.164046	7.37187e+06	-42239.1	1005.82	-29783.4	0.000000	0.000000	7.179569	362.445	NaN	0.000000	0.001578	0.001704	28.0829	84.7607	0.001762	48109	8.067302	169.373	363.436	1.163639	0.088067	0.087660	362.445	48109	0.082417	0.218233	1660.82	94089.2
697	2.000000	1.165987	7.37187e+06	-42239.1	1005.82	-29783.4	0.000000	0.000000	7.181844	370.58	NaN	0.000000	0.001580	0.001710	28.0821	87.7384	0.001827	48021	6.574502	170.202	369.792	1.165690	0.090008	0.089712	370.58	48021	0.084220	0.226695	1634.7	92147.4
697	2.000000	1.167896	7.37187e+06	-42239.1	1005.82	-29783.4	0.000000	0.000000	7.184337	384.772	NaN	0.000000	0.001557	0.001695	28.0819	88.599	0.001789	49519.1	3.334143	173.308	379.161	1.167648	0.091917	0.091669	384.772	49519.1	0.086090	0.235628	1632.97	93203.6
697	2.000000	1.169998	7.37187e+06	-42239.1	1005.82	-29783.4	0.000000	0.000000	7.186958	397.385	NaN	0.000000	0.001661	0.001671	28.0815	89.9303	0.001807	49777.7	3.561783	172.806	395.472	1.169657	0.094020	0.093679	397.385	49777.7	0.088032	0.245079	1621.46	91866.1
697	2.000000	1.171936	7.37187e+06	-42239.1	1005.82	-29783.4	0.000000	0.000000	7.189670	416.245	NaN	0.000000	0.001657	0.001709	28.0817	93.3047	0.001872	49843.1	8.879841	168.13	413.967	1.171625	0.095957	0.095647	416.245	49843.1	0.089694	0.253302	1643.28	90481.4
697	2.000000	1.173950	7.37187e+06	-42239.1	1005.82	-29783.4	0.000000	0.000000	7.192228	429.476	NaN	0.000000	0.001642	0.001729	28.0816	93.4489	0.001818	51407.9	9.396245	167.989	426.707	1.173475	0.097971	0.097497	429.476	51407.9	0.091705	0.263423	1630.37	91511.6
697	2.000000	1.175976	7.37187e+06	-42239.1	1005.82	-29783.4	0.000000	0.000000	7.194784	442.374	NaN	0.000000	0.001646	0.001682	28.0815	95.8737	0.001808	53019.8	4.276557	172.54	440.626	1.175637	0.099998	0.099658	442.374	53019.8	0.093740	0.273851	1615.38	92566.6
697	2.000000	1.177984	7.37187e+06	-42239.1	1005.82	-29783.4	0.000000	0.000000	7.197447	458.3	NaN	0.000000	0.001608	0.001699	28.082	97.4862	0.001843	52894.3	2.754377	173.996	458.855	1.177648	0.102006	0.101670	458.3	52894.3	0.095507	0.283063	1619.07	90832.3
697	2.000000	1.179949	7.37187e+06	-42239.1	1005.82	-29783.4	0.000000	0.000000	7.200153	476.316	NaN	0.000000	0.001651	0.001694	28.0814	99.0134	0.001773	55850.9	3.777533	172.149	472.533	1.179585	0.103971	0.103607	476.316	55850.9	0.097574	0.294017	1620.03	94106
697	2.000000	1.180485	7.37187e+06	-42239.1	1005.82	-29783.4	0.000000	0.000000	7.200846	480.151	NaN	0.000000	0.001667	0.001675	28.0814	98.1312	0.001730	56726.6	0.891447	-4.606020	477.402	1.180138	0.104506	0.104159	480.151	56726.6	0.098158	0.297145	1615.88	95077