File: remote_trans/data/nanoindenter/0828-1/data/Data_2025-08-06,11h17m57s/2025-07-22_16-23-58_1_478.txt
2025-07-22, 16:23:58, 1
Index	Phase	Displacement	Time	Pos X	Pos Y	Pos Z	Rot A	Rot B	Piezo Z	Force A	Force B	Gripper	Voltage A	Voltage B	Temperature	Amplitude force	Amplitude pos	Stiffness	Phase shift	Phase excitation	Force A raw	Displacement raw	HMax	HMax raw	Real Force	Real Stiffness	Contact Depth	Area	Hardness	Reduced Mod.
[#]	[#]	[um]	[s]	[um]	[um]	[um]	[m°]	[m°]	[um]	[uN]	[uN]	[V]	[V]	[V]	[°C]	[uN]	[um]	[N/m]	[°]	[°]	[uN]	[um]	[um]	[um]	[uN]	[N/m]	[um]	[um^2]	[MPa]	[MPa]
478	1.000000	0.002563	7.36973e+06	-53189.1	1005.82	-29747	0.000000	0.000000	6.002802	0.064443	NaN	0.000000	0.001570	0.001764	28.0829	0.064247	0.001006	63.8728	39.5669	-162.919	0.067511	0.001318	-1.167633	-1.168878	0.064443	63.8728	-1.168389	-4.142897E+15	-1.555512E-17	NaN
478	1.000000	0.012625	7.36973e+06	-53189.1	1005.82	-29747	0.000000	0.000000	6.012862	0.004341	NaN	0.000000	0.001593	0.001755	28.0827	0.047639	0.001293	36.8403	-50.5526	18.2044	-0.011491	0.011151	-1.157570	-1.159044	0.004341	36.8403	-1.157659	-2.974993E+15	-1.459146E-18	NaN
478	1.000000	0.022538	7.36973e+06	-53189.1	1005.82	-29747	0.000000	0.000000	6.022774	-0.011080	NaN	0.000000	0.001608	0.001700	28.0823	0.065714	0.001698	38.6936	-63.5544	-163.543	-0.051994	0.021205	-1.147657	-1.148991	-0.011080	38.6936	-1.147443	-2.170364E+15	5.105098E-18	NaN
478	1.000000	0.032492	7.36973e+06	-53189.1	1005.82	-29747	0.000000	0.000000	6.032730	0.037075	NaN	0.000000	0.001616	0.001756	28.0823	0.076046	0.001921	39.5896	138.677	17.5412	-0.052478	0.031137	-1.137704	-1.139058	0.037075	39.5896	-1.138406	-1.641966E+15	-2.257975E-17	NaN
478	1.000000	0.042534	7.36973e+06	-53189.1	1005.82	-29747	0.000000	0.000000	6.042769	-0.022919	NaN	0.000000	0.001622	0.001739	28.0825	0.043515	0.001934	22.5041	-18.9281	-162.492	-0.067337	0.041180	-1.127662	-1.129015	-0.022919	22.5041	-1.126898	-1.150831E+15	1.991515E-17	NaN
478	1.000000	0.052519	7.36973e+06	-53189.1	1005.82	-29747	0.000000	0.000000	6.052754	-0.020406	NaN	0.000000	0.001577	0.001730	28.0821	0.068057	0.001909	35.6443	-112.131	12.6762	0.038346	0.051149	-1.117677	-1.119047	-0.020406	35.6443	-1.117248	-8.541681E+14	2.388965E-17	NaN
478	1.000000	0.062530	7.36973e+06	-53189.1	1005.82	-29747	0.000000	0.000000	6.062768	0.030249	NaN	0.000000	0.001584	0.001742	28.0809	0.023431	0.002046	11.4502	-159.197	-164.006	-0.013978	0.061174	-1.107666	-1.109022	0.030249	11.4502	-1.109647	-6.753855E+14	-4.478772E-17	NaN
478	1.000000	0.072501	7.36973e+06	-53189.1	1005.82	-29747	0.000000	0.000000	6.072739	0.047231	NaN	0.000000	0.001601	0.001730	28.081	0.015709	0.001977	7.946164	60.0313	17.0002	0.015818	0.071143	-1.097695	-1.099052	0.047231	7.946164	-1.102153	-5.357554E+14	-8.815861E-17	NaN
478	1.000000	0.082512	7.36973e+06	-53189.1	1005.82	-29747	0.000000	0.000000	6.082748	-0.024829	NaN	0.000000	0.001601	0.001779	28.0813	0.106058	0.001989	53.3121	109.212	-163.656	-0.044742	0.081263	-1.087683	-1.088933	-0.024829	53.3121	-1.087334	-3.388556E+14	7.327169E-17	NaN
478	1.000000	0.092537	7.36973e+06	-53189.1	1005.82	-29747	0.000000	0.000000	6.092773	-0.022783	NaN	0.000000	0.001609	0.001766	28.0812	0.054161	0.001928	28.0947	42.3673	14.598	0.044115	0.091170	-1.077658	-1.079026	-0.022783	28.0947	-1.077050	-2.465448E+14	9.240782E-17	NaN
478	1.000000	0.102514	7.36973e+06	-53189.1	1005.82	-29747	0.000000	0.000000	6.102750	-0.023047	NaN	0.000000	0.001596	0.001759	28.0815	0.118436	0.002082	56.8931	122.868	-165.917	-0.051641	0.101181	-1.067681	-1.069015	-0.023047	56.8931	-1.067378	-1.827921E+14	1.260817E-16	NaN
478	1.000000	0.112547	7.36973e+06	-53189.1	1005.82	-29747	0.000000	0.000000	6.112787	0.095571	NaN	0.000000	0.001577	0.001767	28.0814	0.097103	0.002048	47.424	42.4807	19.3712	0.107700	0.111197	-1.057649	-1.058999	0.095571	47.424	-1.059160	-1.417547E+14	-6.741981E-16	NaN
478	1.000000	0.122545	7.36973e+06	-53189.1	1005.82	-29747	0.000000	0.000000	6.122780	-0.042490	NaN	0.000000	0.001571	0.001747	28.0813	0.025835	0.001893	13.6458	122.414	-163.835	0.018415	0.121232	-1.047650	-1.048963	-0.042490	13.6458	-1.045315	-9.234924E+13	4.600965E-16	NaN
478	1.000000	0.132595	7.36973e+06	-53189.1	1005.82	-29747	0.000000	0.000000	6.132834	0.053239	NaN	0.000000	0.001556	0.001772	28.0812	0.081110	0.002016	40.2318	-166.777	16.3948	0.107847	0.131223	-1.037600	-1.038972	0.053239	40.2318	-1.038593	-7.499686E+13	-7.098795E-16	NaN
478	1.000000	0.142526	7.36973e+06	-53189.1	1005.82	-29747	0.000000	0.000000	6.142761	-0.051976	NaN	0.000000	0.001524	0.001815	28.0812	0.076720	0.002030	37.7936	-163.75	-161.85	0.024577	0.141239	-1.027669	-1.028956	-0.051976	37.7936	-1.026638	-5.179084E+13	1.003566E-15	NaN
478	1.000000	0.152535	7.36973e+06	-53189.1	1005.82	-29747	0.000000	0.000000	6.152776	0.106528	NaN	0.000000	0.001564	0.001766	28.0814	0.097050	0.001963	49.4295	39.0244	13.9148	0.082503	0.151182	-1.017660	-1.019013	0.106528	49.4295	-1.019277	-4.123051E+13	-2.583714E-15	NaN
478	1.000000	0.162566	7.36973e+06	-53189.1	1005.82	-29747	0.000000	0.000000	6.162802	-0.009705	NaN	0.000000	0.001556	0.001764	28.0811	0.060284	0.002001	30.1306	-113.961	-166.873	-0.002801	0.161255	-1.007630	-1.008941	-0.009705	30.1306	-1.007388	-2.852509E+13	3.402414E-16	NaN
478	1.000000	0.172573	7.36973e+06	-53189.1	1005.82	-29747	0.000000	0.000000	6.172813	0.060259	NaN	0.000000	0.001563	0.001786	28.081	0.070245	0.001983	35.4304	61.339	14.7722	0.017594	0.171217	-0.997622	-0.998979	0.060259	35.4304	-0.998898	-2.192439E+13	-2.748494E-15	NaN
478	1.000000	0.182557	7.36973e+06	-53189.1	1005.82	-29747	0.000000	0.000000	6.182794	0.022801	NaN	0.000000	0.001569	0.001779	28.0812	0.066706	0.001968	33.8873	-135.993	-164.587	0.024447	0.181295	-0.987639	-0.988901	0.022801	33.8873	-0.988143	-1.570744E+13	-1.451589E-15	NaN
478	1.000000	0.192563	7.36973e+06	-53189.1	1005.82	-29747	0.000000	0.000000	6.192801	0.040866	NaN	0.000000	0.001538	0.001771	28.0823	0.077368	0.002187	35.383	-39.1046	15.3522	-0.023540	0.191159	-0.977633	-0.979036	0.040866	35.383	-0.978499	-1.164620E+13	-3.508953E-15	NaN
478	1.000000	0.202564	7.36973e+06	-53189.1	1005.82	-29747	0.000000	0.000000	6.202803	0.053695	NaN	0.000000	0.001562	0.001773	28.0826	0.152501	0.001952	78.1398	38.8953	-163.715	0.056161	0.201279	-0.967632	-0.968916	0.053695	78.1398	-0.968147	-8.446787E+12	-6.356905E-15	NaN
478	1.000000	0.212585	7.36973e+06	-53189.1	1005.82	-29747	0.000000	0.000000	6.212825	0.082107	NaN	0.000000	0.001564	0.001774	28.0824	0.061949	0.001905	32.5198	-133.224	18.1752	0.046882	0.211260	-0.957610	-0.958936	0.082107	32.5198	-0.959504	-6.459272E+12	-1.271156E-14	NaN
478	1.000000	0.222603	7.36973e+06	-53189.1	1005.82	-29747	0.000000	0.000000	6.222839	-0.009329	NaN	0.000000	0.001576	0.001772	28.0831	0.073611	0.002049	35.9281	89.9936	-166.233	0.074783	0.221308	-0.947593	-0.948888	-0.009329	35.9281	-0.947398	-4.435412E+12	2.103359E-15	NaN
478	1.000000	0.232588	7.36973e+06	-53189.1	1005.82	-29747	0.000000	0.000000	6.232825	0.005876	NaN	0.000000	0.001564	0.001752	28.0825	0.106877	0.001879	56.8738	-178.458	11.9376	0.010821	0.231202	-0.937607	-0.938994	0.005876	56.8738	-0.937685	-3.280205E+12	-1.791228E-15	NaN
478	1.000000	0.242601	7.36973e+06	-53189.1	1005.82	-29747	0.000000	0.000000	6.242838	0.018304	NaN	0.000000	0.001624	0.001753	28.0827	0.072381	0.002008	36.0399	-7.434701	-162.718	-0.011115	0.241244	-0.927595	-0.928952	0.018304	36.0399	-0.927975	-2.425893E+12	-7.545340E-15	NaN
478	1.000000	0.252595	7.36973e+06	-53189.1	1005.82	-29747	0.000000	0.000000	6.252835	0.087628	NaN	0.000000	0.001617	0.001776	28.0826	0.021501	0.002063	10.4214	-33.4584	16.8528	0.081065	0.251253	-0.917600	-0.918943	0.087628	10.4214	-0.923907	-2.137709E+12	-4.099143E-14	NaN
478	1.000000	0.262587	7.36973e+06	-53189.1	1005.82	-29747	0.000000	0.000000	6.262827	0.071138	NaN	0.000000	0.001638	0.001735	28.0829	0.064992	0.001918	33.8784	-154.418	-165.225	0.101100	0.261269	-0.907608	-0.908926	0.071138	33.8784	-0.909183	-1.352483E+12	-5.259786E-14	NaN
478	1.000000	0.272586	7.36973e+06	-53189.1	1005.82	-29747	0.000000	0.000000	6.272823	0.006887	NaN	0.000000	0.001643	0.001756	28.0826	0.047912	0.002008	23.8567	-141.248	12.4186	-0.006754	0.271193	-0.897609	-0.899003	0.006887	23.8567	-0.897826	-9.499193E+11	-7.250232E-15	NaN
478	1.000000	0.282609	7.36973e+06	-53189.1	1005.82	-29747	0.000000	0.000000	6.282849	0.084457	NaN	0.000000	0.001666	0.001765	28.0827	0.099172	0.001882	52.6921	11.508	-168.714	0.091979	0.281301	-0.887586	-0.888895	0.084457	52.6921	-0.888788	-7.170258E+11	-1.177876E-13	NaN
478	1.000000	0.292635	7.36973e+06	-53189.1	1005.82	-29747	0.000000	0.000000	6.292875	0.074375	NaN	0.000000	0.001599	0.001742	28.0827	0.059490	0.002013	29.56	-17.7764	17.2488	-0.023972	0.291232	-0.877561	-0.878964	0.074375	29.56	-0.879448	-5.360913E+11	-1.387360E-13	NaN
478	1.000000	0.302630	7.36973e+06	-53189.1	1005.82	-29747	0.000000	0.000000	6.302866	-0.008528	NaN	0.000000	0.001577	0.001787	28.0827	0.075231	0.002086	36.0678	-24.274	-164.569	-0.013221	0.301314	-0.867565	-0.868882	-0.008528	36.0678	-0.867388	-3.682184E+11	2.316010E-14	NaN
478	1.000000	0.312629	7.36973e+06	-53189.1	1005.82	-29747	0.000000	0.000000	6.312871	0.134095	NaN	0.000000	0.001613	0.001763	28.0824	0.058486	0.002021	28.9339	108.264	16.6922	-0.008644	0.311248	-0.857567	-0.858947	0.134095	28.9339	-0.861043	-3.021597E+11	-4.437901E-13	NaN
478	1.000000	0.322631	7.36973e+06	-53189.1	1005.82	-29747	0.000000	0.000000	6.322867	0.001112	NaN	0.000000	0.001592	0.001791	28.0827	0.087809	0.001944	45.1777	-116.733	-165.575	-0.013994	0.321315	-0.847565	-0.848880	0.001112	45.1777	-0.847583	-1.986151E+11	-5.597764E-15	NaN
478	1.000000	0.332615	7.36973e+06	-53189.1	1005.82	-29747	0.000000	0.000000	6.332856	0.095312	NaN	0.000000	0.001568	0.001789	28.0815	0.059623	0.002024	29.4533	112.947	13.9853	0.065675	0.331240	-0.837580	-0.838955	0.095312	29.4533	-0.840007	-1.568163E+11	-6.077944E-13	NaN
478	1.000000	0.342657	7.36973e+06	-53189.1	1005.82	-29747	0.000000	0.000000	6.342895	0.036805	NaN	0.000000	0.001556	0.001750	28.0813	0.138141	0.001977	69.8724	-155.782	-166.483	0.033377	0.341298	-0.827539	-0.828897	0.036805	69.8724	-0.827934	-1.075922E+11	-3.420745E-13	NaN
478	1.000000	0.352621	7.36973e+06	-53189.1	1005.82	-29747	0.000000	0.000000	6.352859	0.026203	NaN	0.000000	0.001577	0.001742	28.0813	0.025563	0.001938	13.1918	100.846	15.5646	-0.013214	0.351255	-0.817574	-0.818941	0.026203	13.1918	-0.819064	-8.156741E+10	-3.212395E-13	NaN
478	1.000000	0.362636	7.36973e+06	-53189.1	1005.82	-29747	0.000000	0.000000	6.362876	0.063557	NaN	0.000000	0.001590	0.001742	28.0815	0.141699	0.002180	65.0021	-22.386	-164.925	0.005730	0.361344	-0.807559	-0.808852	0.063557	65.0021	-0.808293	-5.826452E+10	-1.090828E-12	NaN
478	1.000000	0.372630	7.36973e+06	-53189.1	1005.82	-29747	0.000000	0.000000	6.372865	-0.030828	NaN	0.000000	0.001596	0.001734	28.0814	0.108728	0.002121	51.2669	-106.659	13.6142	-0.054657	0.371262	-0.797566	-0.798934	-0.030828	51.2669	-0.797115	-4.108593E+10	7.503326E-13	NaN
478	1.000000	0.382633	7.36973e+06	-53189.1	1005.82	-29747	0.000000	0.000000	6.382869	-0.020473	NaN	0.000000	0.001578	0.001738	28.0814	0.031332	0.001936	16.1841	-37.616	-166.096	0.034495	0.381340	-0.787562	-0.788855	-0.020473	16.1841	-0.786614	-2.958597E+10	6.919697E-13	NaN
478	1.000000	0.392640	7.36973e+06	-53189.1	1005.82	-29747	0.000000	0.000000	6.392876	-0.021205	NaN	0.000000	0.001558	0.001763	28.0814	0.020216	0.001976	10.2299	31.2816	16.6046	0.046700	0.391270	-0.777555	-0.778926	-0.021205	10.2299	-0.776001	-2.122654E+10	9.989709E-13	NaN
478	1.000000	0.402653	7.36973e+06	-53189.1	1005.82	-29747	0.000000	0.000000	6.402890	0.000668	NaN	0.000000	0.001649	0.001712	28.0815	0.049059	0.002080	23.5861	98.2366	-166.51	-0.086148	0.401408	-0.767542	-0.768788	0.000668	23.5861	-0.767564	-1.629955E+10	-4.099299E-14	NaN
478	1.000000	0.412684	7.36973e+06	-53189.1	1005.82	-29747	0.000000	0.000000	6.412920	-0.016117	NaN	0.000000	0.001645	0.001750	28.0813	0.116919	0.002052	56.9882	-164.468	18.6997	-0.045693	0.411318	-0.757512	-0.758878	-0.016117	56.9882	-0.757299	-1.181845E+10	1.363688E-12	NaN
478	1.000000	0.422685	7.36973e+06	-53189.1	1005.82	-29747	0.000000	0.000000	6.422924	0.037762	NaN	0.000000	0.001649	0.001776	28.0814	0.068548	0.002135	32.1017	95.9416	-165.04	0.117207	0.421316	-0.747510	-0.748879	0.037762	32.1017	-0.748392	-8.939948E+9	-4.223984E-12	NaN
478	1.000000	0.432662	7.36973e+06	-53189.1	1005.82	-29747	0.000000	0.000000	6.432900	0.038054	NaN	0.000000	0.001670	0.001771	28.0814	0.059392	0.002117	28.0602	-149.494	15.6534	0.042232	0.431227	-0.737533	-0.738969	0.038054	28.0602	-0.738551	-6.566193E+9	-5.795425E-12	NaN
478	1.000000	0.442682	7.36973e+06	-53189.1	1005.82	-29747	0.000000	0.000000	6.442919	0.003147	NaN	0.000000	0.001685	0.001797	28.0813	0.050179	0.001921	26.1166	161.913	-166.457	-0.055086	0.441343	-0.727513	-0.728853	0.003147	26.1166	-0.727604	-4.657424E+9	-6.757731E-13	NaN
478	1.000000	0.452669	7.36973e+06	-53189.1	1005.82	-29747	0.000000	0.000000	6.452908	0.055649	NaN	0.000000	0.001627	0.001785	28.0816	0.043575	0.001984	21.9622	-109.144	13.8903	-0.032184	0.451339	-0.717526	-0.718856	0.055649	21.9622	-0.719427	-3.602937E+9	-1.544559E-11	NaN
478	1.000000	0.462722	7.36973e+06	-53189.1	1005.82	-29747	0.000000	0.000000	6.462960	0.043533	NaN	0.000000	0.001679	0.001737	28.0821	0.065466	0.001946	33.6468	24.431	-166.972	0.098530	0.461360	-0.707474	-0.708836	0.043533	33.6468	-0.708444	-2.551610E+9	-1.706083E-11	NaN
478	1.000000	0.472687	7.36973e+06	-53189.1	1005.82	-29747	0.000000	0.000000	6.472925	0.019653	NaN	0.000000	0.001700	0.001736	28.0831	0.147722	0.001959	75.4215	-34.3832	14.9421	0.003047	0.471345	-0.697508	-0.698851	0.019653	75.4215	-0.697704	-1.820403E+9	-1.079599E-11	NaN
478	1.000000	0.482659	7.36973e+06	-53189.1	1005.82	-29747	0.000000	0.000000	6.482898	0.053295	NaN	0.000000	0.001652	0.001731	28.0827	0.108784	0.002200	49.4542	21.2196	-165.355	0.027658	0.481392	-0.687537	-0.688804	0.053295	49.4542	-0.688345	-1.356125E+9	-3.929974E-11	NaN
478	1.000000	0.492685	7.36973e+06	-53189.1	1005.82	-29747	0.000000	0.000000	6.492920	-0.040616	NaN	0.000000	0.001646	0.001744	28.0829	0.037907	0.002009	18.8705	155.56	15.79	0.008164	0.491327	-0.677511	-0.678869	-0.040616	18.8705	-0.675897	-9.163818E+8	4.432253E-11	NaN
478	1.000000	0.502671	7.36973e+06	-53189.1	1005.82	-29747	0.000000	0.000000	6.502908	0.016107	NaN	0.000000	0.001676	0.001742	28.0829	0.063223	0.001960	32.2537	143.877	-161.028	0.058019	0.501341	-0.667524	-0.668854	0.016107	32.2537	-0.667899	-7.122493E+8	-2.261470E-11	NaN
478	1.000000	0.512688	7.36973e+06	-53189.1	1005.82	-29747	0.000000	0.000000	6.512923	-0.041756	NaN	0.000000	0.001647	0.001735	28.0829	0.010713	0.001846	5.803252	-69.4301	16.9697	-0.011762	0.511323	-0.657508	-0.658872	-0.041756	5.803252	-0.652111	-4.328907E+8	9.645797E-11	NaN
478	1.000000	0.522688	7.36973e+06	-53189.1	1005.82	-29747	0.000000	0.000000	6.522926	0.044454	NaN	0.000000	0.001639	0.001704	28.083	0.032098	0.002123	15.1203	166.351	-165.812	0.095649	0.521393	-0.647508	-0.648803	0.044454	15.1203	-0.649713	-4.013271E+8	-1.107679E-10	NaN
478	1.000000	0.532706	7.36973e+06	-53189.1	1005.82	-29747	0.000000	0.000000	6.532947	0.089548	NaN	0.000000	0.001625	0.001715	28.083	0.062194	0.002033	30.5893	-31.9915	18.2262	-0.054985	0.531333	-0.637489	-0.638863	0.089548	30.5893	-0.639685	-2.923907E+8	-3.062631E-10	NaN
478	1.000000	0.542683	7.36973e+06	-53189.1	1005.82	-29747	0.000000	0.000000	6.542920	-0.003838	NaN	0.000000	0.001534	0.001722	28.0832	0.068520	0.002021	33.9041	-121.764	-165.157	-0.020799	0.541390	-0.627512	-0.628805	-0.003838	33.9041	-0.627427	-1.984685E+8	1.933927E-11	NaN
478	1.000000	0.552690	7.36973e+06	-53189.1	1005.82	-29747	0.000000	0.000000	6.552928	0.040430	NaN	0.000000	0.001557	0.001751	28.0829	0.036566	0.002046	17.8736	166.124	16.9086	0.069990	0.551307	-0.617506	-0.618888	0.040430	17.8736	-0.619202	-1.529906E+8	-2.642670E-10	NaN
478	1.000000	0.562750	7.36973e+06	-53189.1	1005.82	-29747	0.000000	0.000000	6.562989	0.049782	NaN	0.000000	0.001581	0.001734	28.0828	0.119684	0.002061	58.0835	159.288	-163.051	0.055516	0.561374	-0.607445	-0.608822	0.049782	58.0835	-0.608088	-1.075985E+8	-4.626665E-10	NaN
478	1.000000	0.572704	7.36973e+06	-53189.1	1005.82	-29747	0.000000	0.000000	6.572939	-0.030806	NaN	0.000000	0.001576	0.001770	28.083	0.045100	0.002082	21.6664	-37.4283	15.2497	-0.018586	0.571378	-0.597492	-0.598817	-0.030806	21.6664	-0.596425	-7.433911E+7	4.143975E-10	NaN
478	1.000000	0.582758	7.36973e+06	-53189.1	1005.82	-29747	0.000000	0.000000	6.582998	0.078979	NaN	0.000000	0.001588	0.001735	28.0829	0.066344	0.001934	34.3076	-112.784	-162.433	0.056039	0.581402	-0.587437	-0.588793	0.078979	34.3076	-0.589164	-5.903864E+7	-1.337746E-9	NaN
478	1.000000	0.592725	7.36973e+06	-53189.1	1005.82	-29747	0.000000	0.000000	6.592960	-0.054352	NaN	0.000000	0.001601	0.001776	28.0829	0.065398	0.002025	32.3001	111.844	14.8245	-0.028347	0.591389	-0.577470	-0.578806	-0.054352	32.3001	-0.576208	-3.911826E+7	1.389440E-9	NaN
478	1.000000	0.602767	7.36973e+06	-53189.1	1005.82	-29747	0.000000	0.000000	6.603007	0.098337	NaN	0.000000	0.001625	0.001740	28.0816	0.075540	0.001943	38.8686	106.993	-166.519	0.040001	0.601430	-0.567429	-0.568765	0.098337	38.8686	-0.569326	-3.142837E+7	-3.128918E-9	NaN
478	1.000000	0.612722	7.36973e+06	-53189.1	1005.82	-29747	0.000000	0.000000	6.612960	0.030644	NaN	0.000000	0.001594	0.001753	28.0818	0.123159	0.001810	68.049	44.0392	15.6258	-0.000645	0.611352	-0.557474	-0.558844	0.030644	68.049	-0.557812	-2.178214E+7	-1.406851E-9	NaN
478	1.000000	0.622748	7.36973e+06	-53189.1	1005.82	-29747	0.000000	0.000000	6.622987	0.059093	NaN	0.000000	0.001621	0.001730	28.0817	0.100941	0.002104	47.9797	-156.083	-166.15	-0.035293	0.621383	-0.547448	-0.548813	0.059093	47.9797	-0.548371	-1.612110E+7	-3.665576E-9	NaN
478	1.000000	0.632747	7.36973e+06	-53189.1	1005.82	-29747	0.000000	0.000000	6.632983	-0.022061	NaN	0.000000	0.001583	0.001734	28.0818	0.102059	0.002012	50.7193	101.465	15.6802	0.007671	0.631427	-0.537448	-0.538768	-0.022061	50.7193	-0.537122	-1.125739E+7	1.959668E-9	NaN
478	1.000000	0.642747	7.36973e+06	-53189.1	1005.82	-29747	0.000000	0.000000	6.642987	0.084654	NaN	0.000000	0.001587	0.001752	28.0818	0.083401	0.002004	41.6211	-70.3956	-165.041	0.056968	0.641425	-0.527448	-0.528770	0.084654	41.6211	-0.528974	-8.67601e+06	-9.757267E-9	NaN
478	1.000000	0.652772	7.36973e+06	-53189.1	1005.82	-29747	0.000000	0.000000	6.653012	0.084735	NaN	0.000000	0.001588	0.001752	28.0816	0.081979	0.001988	41.243	108.849	13.692	0.164871	0.651407	-0.517424	-0.518788	0.084735	41.243	-0.518965	-6.29794e+06	-1.345436E-8	NaN
478	1.000000	0.662768	7.36973e+06	-53189.1	1005.82	-29747	0.000000	0.000000	6.663004	-0.016392	NaN	0.000000	0.001577	0.001765	28.0816	0.069643	0.001969	35.3682	98.3439	-160.033	-0.097566	0.661417	-0.507428	-0.508778	-0.016392	35.3682	-0.507080	-4.30264e+06	3.809728E-9	NaN
478	1.000000	0.672752	7.36973e+06	-53189.1	1005.82	-29747	0.000000	0.000000	6.672988	-0.012833	NaN	0.000000	0.001603	0.001738	28.0818	0.080934	0.001926	42.027	33.3645	18.4555	-0.064835	0.671421	-0.497443	-0.498775	-0.012833	42.027	-0.497214	-3.13433e+06	4.094237E-9	NaN
478	1.000000	0.682788	7.36973e+06	-53189.1	1005.82	-29747	0.000000	0.000000	6.683024	0.005536	NaN	0.000000	0.001589	0.001731	28.082	0.056632	0.001848	30.6518	-53.5074	-164.211	0.053285	0.681469	-0.487408	-0.488726	0.005536	30.6518	-0.487543	-2.29645e+06	-2.410566E-9	NaN
478	1.000000	0.692808	7.36973e+06	-53189.1	1005.82	-29747	0.000000	0.000000	6.693044	-0.003996	NaN	0.000000	0.001589	0.001720	28.0819	0.076039	0.002027	37.5217	157.13	14.1724	0.070275	0.691423	-0.477388	-0.478772	-0.003996	37.5217	-0.477308	-1.65132e+06	2.419929E-9	NaN
478	1.000000	0.702799	7.36973e+06	-53189.1	1005.82	-29747	0.000000	0.000000	6.703035	0.001186	NaN	0.000000	0.001596	0.001726	28.0819	0.022581	0.001976	11.4285	-109.395	-162.526	0.111896	0.701486	-0.467397	-0.468710	0.001186	11.4285	-0.467475	-1.20221e+06	-9.866883E-10	NaN
478	1.000000	0.712778	7.36973e+06	-53189.1	1005.82	-29747	0.000000	0.000000	6.713012	-0.055645	NaN	0.000000	0.001598	0.001750	28.082	0.036438	0.002055	17.7318	85.7082	10.5271	-0.038806	0.711445	-0.457418	-0.458750	-0.055645	17.7318	-0.455064	-804679	6.915167E-8	NaN
478	1.000000	0.722782	7.36973e+06	-53189.1	1005.82	-29747	0.000000	0.000000	6.723022	0.087729	NaN	0.000000	0.001603	0.001751	28.0816	0.022888	0.001930	11.8616	177.84	-166.367	0.060445	0.721517	-0.447413	-0.448678	0.087729	11.8616	-0.452960	-751655	-1.167144E-7	NaN
478	1.000000	0.732785	7.36973e+06	-53189.1	1005.82	-29747	0.000000	0.000000	6.733022	-0.008735	NaN	0.000000	0.001571	0.001747	28.0815	0.044003	0.001913	22.9975	-112.736	14.3434	-0.014336	0.731410	-0.437410	-0.438786	-0.008735	22.9975	-0.437125	-449550	1.943081E-8	NaN
478	1.000000	0.742806	7.36973e+06	-53189.1	1005.82	-29747	0.000000	0.000000	6.743042	-0.013268	NaN	0.000000	0.001621	0.001752	28.0831	0.142966	0.001949	73.3437	88.0723	-165.45	-0.063578	0.741500	-0.427390	-0.428695	-0.013268	73.3437	-0.427254	-325990	4.070081E-8	NaN
478	1.000000	0.752796	7.36973e+06	-53189.1	1005.82	-29747	0.000000	0.000000	6.753030	-0.078103	NaN	0.000000	0.001615	0.001747	28.0833	0.088346	0.002031	43.5013	-33.2383	11.1896	-0.006026	0.751504	-0.417399	-0.418691	-0.078103	43.5013	-0.416053	-226153	3.453546E-7	NaN
478	1.000000	0.762767	7.36973e+06	-53189.1	1005.82	-29747	0.000000	0.000000	6.763006	0.055052	NaN	0.000000	0.001612	0.001734	28.0829	0.050553	0.002039	24.7892	-101.771	-164.046	0.069633	0.761501	-0.407429	-0.408694	0.055052	24.7892	-0.409094	-180103	-3.056716E-7	NaN
478	1.000000	0.772824	7.36973e+06	-53189.1	1005.82	-29747	0.000000	0.000000	6.773060	-4.659062E-5	NaN	0.000000	0.001698	0.001755	28.0829	0.091116	0.002027	44.9548	-75.0985	14.8244	0.038768	0.771479	-0.397372	-0.398716	-4.659062E-5	44.9548	-0.397371	-122599	3.800245E-10	NaN
478	1.000000	0.782786	7.36973e+06	-53189.1	1005.82	-29747	0.000000	0.000000	6.783024	0.032304	NaN	0.000000	0.001570	0.001732	28.0829	0.032305	0.002060	15.6839	80.9534	-162.612	-0.032127	0.781502	-0.387409	-0.388694	0.032304	15.6839	-0.388954	-92940	-3.475820E-7	NaN
478	1.000000	0.792822	7.36973e+06	-53189.1	1005.82	-29747	0.000000	0.000000	6.793060	0.018105	NaN	0.000000	0.001596	0.001738	28.0831	0.103065	0.001847	55.8065	144.647	13.1941	0.030621	0.791496	-0.377373	-0.378700	0.018105	55.8065	-0.377616	-63924.6	-2.832225E-7	NaN
478	1.000000	0.802856	7.36973e+06	-53189.1	1005.82	-29747	0.000000	0.000000	6.803092	-0.025146	NaN	0.000000	0.001631	0.001754	28.0829	0.057672	0.001945	29.6525	110.844	-167.271	0.040809	0.801543	-0.367339	-0.368653	-0.025146	29.6525	-0.366703	-44526.9	5.647463E-7	NaN
478	1.000000	0.812806	7.36973e+06	-53189.1	1005.82	-29747	0.000000	0.000000	6.813044	0.044359	NaN	0.000000	0.001623	0.001773	28.0828	0.100355	0.001924	52.1464	114.046	18.3493	-0.041368	0.811462	-0.357390	-0.358733	0.044359	52.1464	-0.358028	-33367.8	-1.329402E-6	NaN
478	1.000000	0.822832	7.36973e+06	-53189.1	1005.82	-29747	0.000000	0.000000	6.823066	-0.077430	NaN	0.000000	0.001615	0.001790	28.083	0.050471	0.001991	25.3492	86.0765	-163.753	-0.015428	0.821532	-0.347363	-0.348664	-0.077430	25.3492	-0.345072	-21647.4	3.576889E-6	NaN
478	1.000000	0.832820	7.36973e+06	-53189.1	1005.82	-29747	0.000000	0.000000	6.833055	-0.035573	NaN	0.000000	0.001608	0.001756	28.083	0.040057	0.001956	20.481	-82.3709	14.0901	-0.032156	0.831498	-0.337376	-0.338697	-0.035573	20.481	-0.336073	-16005.2	2.222555E-6	NaN
478	1.000000	0.842852	7.36973e+06	-53189.1	1005.82	-29747	0.000000	0.000000	6.843091	0.047307	NaN	0.000000	0.001593	0.001739	28.0833	0.074598	0.001918	38.8941	-50.4994	-161.96	0.046020	0.841529	-0.327343	-0.328666	0.047307	38.8941	-0.328255	-12299.6	-3.846258E-6	NaN
478	1.000000	0.852863	7.36973e+06	-53189.1	1005.82	-29747	0.000000	0.000000	6.853099	-0.015421	NaN	0.000000	0.001608	0.001712	28.0829	0.050190	0.001938	25.8927	126.768	15.9001	-0.010314	0.851563	-0.317333	-0.318633	-0.015421	25.8927	-0.316886	-8370.77	1.842260E-6	NaN
478	1.000000	0.862858	7.36973e+06	-53189.1	1005.82	-29747	0.000000	0.000000	6.863093	-0.021589	NaN	0.000000	0.001600	0.001738	28.083	0.114308	0.002159	52.9406	167.576	-165.709	-0.026723	0.861543	-0.307338	-0.308652	-0.021589	52.9406	-0.307032	-5985.43	3.606856E-6	NaN
478	1.000000	0.872846	7.36973e+06	-53189.1	1005.82	-29747	0.000000	0.000000	6.873084	0.032187	NaN	0.000000	0.001575	0.001707	28.0821	0.041550	0.001997	20.8062	65.8088	13.4551	-0.074130	0.871487	-0.297349	-0.298709	0.032187	20.8062	-0.298509	-4471.34	-7.198441E-6	NaN
478	1.000000	0.882901	7.36973e+06	-53189.1	1005.82	-29747	0.000000	0.000000	6.883138	-0.002622	NaN	0.000000	0.001618	0.001740	28.0817	0.052504	0.001966	26.7037	-18.6857	-164.47	0.023711	0.881587	-0.287294	-0.288608	-0.002622	26.7037	-0.287221	-3031.25	8.651287E-7	NaN
478	1.000000	0.892845	7.36973e+06	-53189.1	1005.82	-29747	0.000000	0.000000	6.893083	0.028140	NaN	0.000000	0.001619	0.001762	28.0817	0.068402	0.001931	35.4248	62.7211	12.8552	0.014898	0.891502	-0.277351	-0.278693	0.028140	35.4248	-0.277946	-2197.69	-1.280424E-5	NaN
478	1.000000	0.902887	7.36973e+06	-53189.1	1005.82	-29747	0.000000	0.000000	6.903124	0.004527	NaN	0.000000	0.001584	0.001739	28.0816	0.074345	0.001941	38.3038	150.913	-166.075	-0.005955	0.901566	-0.267308	-0.268629	0.004527	38.3038	-0.267397	-1520.33	-2.977663E-6	NaN
478	1.000000	0.912907	7.36973e+06	-53189.1	1005.82	-29747	0.000000	0.000000	6.913143	-0.018112	NaN	0.000000	0.001588	0.001788	28.0821	0.061080	0.001934	31.5775	-60.9579	15.8727	-0.033023	0.911469	-0.257288	-0.258727	-0.018112	31.5775	-0.256858	-1048.8	1.726908E-5	NaN
478	1.000000	0.922849	7.36973e+06	-53189.1	1005.82	-29747	0.000000	0.000000	6.923086	0.010357	NaN	0.000000	0.001601	0.001751	28.0817	0.143124	0.001995	71.7455	45.9053	-166.705	-0.030623	0.921577	-0.247347	-0.248619	0.010357	71.7455	-0.247455	-750.864	-1.379337E-5	NaN
478	1.000000	0.932885	7.36973e+06	-53189.1	1005.82	-29747	0.000000	0.000000	6.933121	-0.011207	NaN	0.000000	0.001585	0.001772	28.0821	0.168777	0.002128	79.2978	144.85	16.7795	0.013785	0.931529	-0.237311	-0.238666	-0.011207	79.2978	-0.237205	-519.795	2.156126E-5	NaN
478	1.000000	0.942879	7.36973e+06	-53189.1	1005.82	-29747	0.000000	0.000000	6.943118	0.040068	NaN	0.000000	0.001585	0.001810	28.0816	0.028668	0.002073	13.8291	26.2196	-165.566	0.122826	0.941585	-0.227316	-0.228610	0.040068	13.8291	-0.229489	-393.05	-0.000102	NaN
478	1.000000	0.952898	7.36973e+06	-53189.1	1005.82	-29747	0.000000	0.000000	6.953133	-0.036215	NaN	0.000000	0.001601	0.001790	28.0818	0.024239	0.002161	11.2172	72.6861	12.7858	-0.026736	0.951531	-0.217298	-0.218665	-0.036215	11.2172	-0.214876	-229.893	0.000158	NaN
478	1.000000	0.962880	7.36973e+06	-53189.1	1005.82	-29747	0.000000	0.000000	6.963115	-0.051286	NaN	0.000000	0.001591	0.001797	28.0817	0.090464	0.001942	46.5723	90.1038	-162.899	-0.086926	0.961560	-0.207315	-0.208635	-0.051286	46.5723	-0.206490	-168.201	0.000305	NaN
478	1.000000	0.972898	7.36973e+06	-53189.1	1005.82	-29747	0.000000	0.000000	6.973134	0.007397	NaN	0.000000	0.001574	0.001809	28.0819	0.096885	0.001982	48.8758	-44.6597	15.7308	0.011366	0.971597	-0.197298	-0.198598	0.007397	48.8758	-0.197411	-119.419	-6.194421E-5	NaN
478	1.000000	0.982916	7.36973e+06	-53189.1	1005.82	-29747	0.000000	0.000000	6.983154	0.025016	NaN	0.000000	0.001589	0.001817	28.0814	0.068519	0.002064	33.1918	139.949	-162.085	0.061660	0.981638	-0.187280	-0.188558	0.025016	33.1918	-0.187845	-82.7862	-0.000302	NaN
478	1.000000	0.992924	7.36973e+06	-53189.1	1005.82	-29747	0.000000	0.000000	6.993158	-0.072267	NaN	0.000000	0.001597	0.001867	28.0819	0.138131	0.002027	68.1295	-177.182	16.5086	-0.035793	0.991535	-0.177271	-0.178660	-0.072267	68.1295	-0.176476	-53.1247	0.001360	NaN
478	1.000000	1.002898	7.36973e+06	-53189.1	1005.82	-29747	0.000000	0.000000	7.003135	0.011557	NaN	0.000000	0.001615	0.001824	28.0819	0.093381	0.001992	46.8696	29.0697	-169.236	0.027407	1.001579	-0.167298	-0.168617	0.011557	46.8696	-0.167482	-37.1343	-0.000311	NaN
478	1.000000	1.012929	7.36973e+06	-53189.1	1005.82	-29747	0.000000	0.000000	7.013166	0.011657	NaN	0.000000	0.001629	0.001846	28.0831	0.030833	0.002004	15.3868	166.459	12.2307	-0.013739	1.011553	-0.157267	-0.158643	0.011657	15.3868	-0.157835	-25.0846	-0.000465	NaN
478	1.000000	1.022912	7.36973e+06	-53189.1	1005.82	-29747	0.000000	0.000000	7.023150	0.029901	NaN	0.000000	0.001618	0.001778	28.0831	0.030434	0.001957	15.553	-99.6188	-165.468	-0.007970	1.021592	-0.147283	-0.148603	0.029901	15.553	-0.148725	-17.1679	-0.001742	NaN
478	1.000000	1.032893	7.36973e+06	-53189.1	1005.82	-29747	0.000000	0.000000	7.033132	0.043225	NaN	0.000000	0.001610	0.001769	28.0833	0.046358	0.002033	22.7998	-109.111	13.2235	-0.014245	1.031541	-0.137302	-0.138654	0.043225	22.7998	-0.138724	-11.1931	-0.003862	NaN
478	1.000000	1.042927	7.36973e+06	-53189.1	1005.82	-29747	0.000000	0.000000	7.043164	0.019210	NaN	0.000000	0.001605	0.001755	28.0832	0.085800	0.001955	43.8911	75.0352	-165.256	-0.049959	1.041655	-0.127269	-0.128540	0.019210	43.8911	-0.127597	-6.841113	-0.002808	NaN
478	1.000000	1.052907	7.36973e+06	-53189.1	1005.82	-29747	0.000000	0.000000	7.053145	0.023912	NaN	0.000000	0.001589	0.001765	28.0831	0.068572	0.002052	33.4243	108.295	16.3421	0.056363	1.051598	-0.117288	-0.118598	0.023912	33.4243	-0.117825	-4.364983	-0.005478	NaN
478	1.000000	1.062937	7.36973e+06	-53189.1	1005.82	-29747	0.000000	0.000000	7.063171	-0.049676	NaN	0.000000	0.001558	0.001778	28.0831	0.090044	0.001997	45.0958	85.845	-161.245	0.018479	1.061654	-0.107259	-0.108541	-0.049676	45.0958	-0.106433	-2.523571	0.019685	NaN
478	1.000000	1.072932	7.36973e+06	-53189.1	1005.82	-29747	0.000000	0.000000	7.073169	0.024149	NaN	0.000000	0.001521	0.001795	28.0834	0.054834	0.002029	27.0193	-42.0828	14.9902	-0.016059	1.071563	-0.097264	-0.098633	0.024149	27.0193	-0.097934	-1.643322	-0.014695	NaN
478	1.000000	1.082930	7.36973e+06	-53189.1	1005.82	-29747	0.000000	0.000000	7.083165	-0.046853	NaN	0.000000	0.001574	0.001796	28.0831	0.045973	0.001963	23.4248	86.6281	-165.281	0.035265	1.081588	-0.087265	-0.088608	-0.046853	23.4248	-0.085765	-0.857347	0.054649	NaN
478	1.000000	1.092944	7.36973e+06	-53189.1	1005.82	-29747	0.000000	0.000000	7.093183	0.049523	NaN	0.000000	0.001548	0.001784	28.0832	0.071102	0.001974	36.0193	-124.095	14.6866	0.055436	1.091558	-0.077252	-0.078637	0.049523	36.0193	-0.078283	-0.560399	-0.088371	NaN
478	1.000000	1.102931	7.36973e+06	-53189.1	1005.82	-29747	0.000000	0.000000	7.103167	-0.017458	NaN	0.000000	0.001558	0.001779	28.083	0.049549	0.001907	25.9857	178.843	-165.909	-0.082245	1.101624	-0.067265	-0.068571	-0.017458	25.9857	-0.066761	-0.278691	0.062641	NaN
478	1.000000	1.112967	7.36973e+06	-53189.1	1005.82	-29747	0.000000	0.000000	7.113207	0.071104	NaN	0.000000	0.001543	0.001802	28.0832	0.069817	0.001981	35.2451	161.556	15.2508	0.056837	1.111600	-0.057228	-0.058596	0.071104	35.2451	-0.058741	-0.165669	-0.429191	NaN
478	1.000000	1.122926	7.36973e+06	-53189.1	1005.82	-29747	0.000000	0.000000	7.123165	0.073712	NaN	0.000000	0.001566	0.001791	28.0831	0.121718	0.001871	65.0617	-138.228	-163.315	-0.023501	1.121597	-0.047270	-0.048599	0.073712	65.0617	-0.048120	-0.080019	-0.921184	NaN
478	1.000000	1.132980	7.36973e+06	-53189.1	1005.82	-29747	0.000000	0.000000	7.133217	0.010071	NaN	0.000000	0.001566	0.001807	28.0832	0.045458	0.002106	21.5819	74.0869	16.3269	0.041244	1.131616	-0.037216	-0.038580	0.010071	21.5819	-0.037566	-0.038179	-0.263778	NaN
478	1.000000	1.142983	7.36973e+06	-53189.1	1005.82	-29747	0.000000	0.000000	7.143218	-0.038854	NaN	0.000000	0.001556	0.001798	28.0831	0.137633	0.002053	67.0391	-177.735	-165.816	-0.017043	1.141649	-0.027213	-0.028547	-0.038854	67.0391	-0.026778	-0.018796	2.067117	NaN
478	1.000000	1.152968	7.36973e+06	-53189.1	1005.82	-29747	0.000000	0.000000	7.153206	0.017117	NaN	0.000000	0.001551	0.001798	28.0817	0.075322	0.001927	39.0867	48.0911	19.3986	0.053299	1.151616	-0.017227	-0.018579	0.017117	39.0867	-0.017555	-0.010869	-1.574744	NaN
478	1.000000	1.162966	7.36973e+06	-53189.1	1005.82	-29747	0.000000	0.000000	7.163203	0.002550	NaN	0.000000	0.001506	0.001801	28.0817	0.115903	0.002025	57.2293	55.5833	-164.032	-0.034443	1.161708	-0.007229	-0.008488	0.002550	57.2293	-0.007263	-0.004797	-0.531684	NaN
478	2.000000	1.172658	7.36973e+06	-53189.1	1005.82	-29747	0.000000	0.000000	7.173220	7.909045	NaN	0.000000	0.001531	0.001804	28.0817	8.291246	0.001673	4956.89	13.4542	2.637622	5.917246	1.171612	0.002462	0.001416	7.909045	4956.89	0.001265	0.000969	8158.65	145455
478	2.000000	1.175603	7.36973e+06	-53189.1	1005.82	-29747	0.000000	0.000000	7.176297	11.13	NaN	0.000000	0.001547	0.001769	28.0821	10.7319	0.001527	7026.37	4.293661	-170.675	10.659	1.175348	0.005407	0.005153	11.13	7026.37	0.004219	0.003432	3242.83	109577
478	2.000000	1.178063	7.36973e+06	-53189.1	1005.82	-29747	0.000000	0.000000	7.178975	16.4335	NaN	0.000000	0.001519	0.001754	28.0817	14.5809	0.001651	8832.86	7.809469	4.423083	15.3924	1.177743	0.007867	0.007548	16.4335	8832.86	0.006472	0.005517	2978.66	108648
478	2.000000	1.180603	7.36973e+06	-53189.1	1005.82	-29747	0.000000	0.000000	7.181674	20.3032	NaN	0.000000	0.001523	0.001793	28.0817	18.7317	0.001928	9714.88	9.410855	-179.262	20.2809	1.180227	0.010407	0.010031	20.3032	9714.88	0.008840	0.007920	2563.46	99733.8
478	2.000000	1.183052	7.36973e+06	-53189.1	1005.82	-29747	0.000000	0.000000	7.184412	27.3053	NaN	0.000000	0.001551	0.001763	28.0815	20.3021	0.001757	11553.7	5.780526	3.979541	26.1298	1.182724	0.012857	0.012529	27.3053	11553.7	0.011084	0.010411	2622.66	103453
478	2.000000	1.185496	7.36973e+06	-53189.1	1005.82	-29747	0.000000	0.000000	7.187140	34.2316	NaN	0.000000	0.001541	0.001838	28.0819	23.0858	0.001652	13976.5	2.842140	-175.925	32.2939	1.185228	0.015300	0.015032	34.2316	13976.5	0.013463	0.013290	2575.7	110766
478	2.000000	1.187991	7.36973e+06	-53189.1	1005.82	-29747	0.000000	0.000000	7.189964	42.2264	NaN	0.000000	0.001551	0.001808	28.0815	26.5634	0.001781	14916.4	6.400928	0.666320	40.0157	1.187669	0.017795	0.017474	42.2264	14916.4	0.015672	0.016192	2607.86	107099
478	2.000000	1.190528	7.36973e+06	-53189.1	1005.82	-29747	0.000000	0.000000	7.192736	47.9122	NaN	0.000000	0.001556	0.001763	28.0817	29.5173	0.001845	16002.5	5.470087	-179.324	47.0196	1.190194	0.020333	0.019998	47.9122	16002.5	0.018087	0.019625	2441.34	104364
478	2.000000	1.193047	7.36973e+06	-53189.1	1005.82	-29747	0.000000	0.000000	7.195540	54.8726	NaN	0.000000	0.001540	0.001789	28.0817	30.9883	0.001703	18192.2	2.835015	3.536880	53.3096	1.192665	0.022851	0.022469	54.8726	18192.2	0.020589	0.023476	2337.4	108479
478	2.000000	1.195500	7.36973e+06	-53189.1	1005.82	-29747	0.000000	0.000000	7.198275	61.7154	NaN	0.000000	0.001527	0.001751	28.0817	33.8011	0.001576	21453.7	5.357313	177.253	59.9374	1.195165	0.025305	0.024970	61.7154	21453.7	0.023147	0.027731	2225.5	117704
478	2.000000	1.198013	7.36973e+06	-53189.1	1005.82	-29747	0.000000	0.000000	7.201197	71.6764	NaN	0.000000	0.001548	0.001761	28.0816	37.2163	0.001780	20912.8	4.969651	-0.720826	69.989	1.197592	0.027817	0.027396	71.6764	20912.8	0.025247	0.031466	2277.92	107713
478	2.000000	1.200536	7.36973e+06	-53189.1	1005.82	-29747	0.000000	0.000000	7.204123	81.4573	NaN	0.000000	0.001538	0.001794	28.0828	40.2046	0.001737	23142.6	8.475003	175.24	81.7534	1.200178	0.030340	0.029983	81.4573	23142.6	0.027701	0.036113	2255.65	111264
478	2.000000	1.203000	7.36973e+06	-53189.1	1005.82	-29747	0.000000	0.000000	7.207097	93.8428	NaN	0.000000	0.001567	0.001791	28.0831	41.8086	0.001877	22278.5	4.667728	-0.405307	91.3733	1.202632	0.032805	0.032436	93.8428	22278.5	0.029646	0.040012	2345.35	101757
478	2.000000	1.205468	7.36973e+06	-53189.1	1005.82	-29747	0.000000	0.000000	7.209853	100.87	NaN	0.000000	0.001522	0.001757	28.0832	44.8923	0.001811	24785.7	5.535259	176.962	101.043	1.205195	0.035273	0.034999	100.87	24785.7	0.032220	0.045471	2218.32	106195
478	2.000000	1.207993	7.36973e+06	-53189.1	1005.82	-29747	0.000000	0.000000	7.212849	112.301	NaN	0.000000	0.001571	0.001809	28.083	47.2247	0.001924	24545.5	5.187349	-1.377637	110.604	1.207649	0.037798	0.037453	112.301	24545.5	0.034367	0.050281	2233.45	100009
478	2.000000	1.210490	7.36973e+06	-53189.1	1005.82	-29747	0.000000	0.000000	7.215521	116.569	NaN	0.000000	0.001584	0.001809	28.0831	48.5418	0.001742	27863.7	4.027780	176.548	115.059	1.210308	0.040294	0.040113	116.569	27863.7	0.037157	0.056887	2049.13	106734
478	2.000000	1.212971	7.36973e+06	-53189.1	1005.82	-29747	0.000000	0.000000	7.218636	131.966	NaN	0.000000	0.001562	0.001764	28.0834	50.7568	0.001901	26703.9	5.140603	-2.153048	129.698	1.212613	0.042776	0.042417	131.966	26703.9	0.039069	0.061645	2140.73	98264.8
478	2.000000	1.215449	7.36973e+06	-53189.1	1005.82	-29747	0.000000	0.000000	7.221495	141.242	NaN	0.000000	0.001530	0.001796	28.0831	52.6496	0.001770	29740.4	5.244498	175.491	137.999	1.215126	0.045253	0.044931	141.242	29740.4	0.041691	0.068472	2062.76	103840
478	2.000000	1.217970	7.36973e+06	-53189.1	1005.82	-29747	0.000000	0.000000	7.224669	157.106	NaN	0.000000	0.001559	0.001822	28.0831	54.0337	0.001868	28921.7	4.151417	-2.027111	153.822	1.217593	0.047775	0.047398	157.106	28921.7	0.043701	0.073942	2124.73	97174.5
478	2.000000	1.220445	7.36973e+06	-53189.1	1005.82	-29747	0.000000	0.000000	7.227494	165.636	NaN	0.000000	0.001561	0.001883	28.0831	56.0164	0.001738	32227.2	2.099208	178.7	163.969	1.220226	0.050249	0.050031	165.636	32227.2	0.046394	0.081595	2029.98	103077
478	2.000000	1.223022	7.36973e+06	-53189.1	1005.82	-29747	0.000000	0.000000	7.230382	173.187	NaN	0.000000	0.001607	0.001868	28.0831	58.7517	0.001836	31997.2	5.927695	-5.016815	173.163	1.222662	0.052826	0.052467	173.187	31997.2	0.048767	0.088639	1953.84	98191
478	2.000000	1.225439	7.36973e+06	-53189.1	1005.82	-29747	0.000000	0.000000	7.233566	191.847	NaN	0.000000	0.001618	0.001809	28.0829	60.1353	0.001782	33747.9	4.932675	175.542	190.062	1.225120	0.055243	0.054925	191.847	33747.9	0.050980	0.095465	2009.61	99792.4
478	2.000000	1.227952	7.36973e+06	-53189.1	1005.82	-29747	0.000000	0.000000	7.236713	207.247	NaN	0.000000	0.001566	0.001892	28.0832	62.8956	0.001764	35653.7	6.325619	-6.538723	204.538	1.227568	0.057757	0.057372	207.247	35653.7	0.053397	0.103202	2008.18	101399
478	2.000000	1.230483	7.36973e+06	-53189.1	1005.82	-29747	0.000000	0.000000	7.239589	215.654	NaN	0.000000	0.001593	0.001858	28.0836	66.5466	0.001736	38325.3	5.947289	172.749	215.06	1.230217	0.060287	0.060022	215.654	38325.3	0.056067	0.112084	1924.03	104589
478	2.000000	1.232983	7.36973e+06	-53189.1	1005.82	-29747	0.000000	0.000000	7.242734	231.329	NaN	0.000000	0.001603	0.001849	28.083	67.8513	0.001834	37000.7	3.496630	-2.961458	230.269	1.232617	0.062788	0.062422	231.329	37000.7	0.058099	0.119079	1942.66	97964
478	2.000000	1.235476	7.36973e+06	-53189.1	1005.82	-29747	0.000000	0.000000	7.245919	248.163	NaN	0.000000	0.001602	0.001844	28.0822	70.6313	0.001704	41460.2	6.342695	172.271	248.732	1.235165	0.065280	0.064970	248.163	41460.2	0.060791	0.128659	1928.84	105605
478	2.000000	1.237912	7.36973e+06	-53189.1	1005.82	-29747	0.000000	0.000000	7.248917	261.818	NaN	0.000000	0.001595	0.001862	28.0819	72.7187	0.001746	41652.4	1.695748	-3.002051	258.078	1.237637	0.067717	0.067441	261.818	41652.4	0.063002	0.136794	1913.96	102892
478	2.000000	1.240418	7.36973e+06	-53189.1	1005.82	-29747	0.000000	0.000000	7.252214	281.046	NaN	0.000000	0.001572	0.001872	28.0824	76.7541	0.001850	41483.3	5.823003	173.291	279.8	1.240030	0.070223	0.069834	281.046	41483.3	0.065142	0.144888	1939.75	99570.5
478	2.000000	1.242863	7.36973e+06	-53189.1	1005.82	-29747	0.000000	0.000000	7.255466	300.668	NaN	0.000000	0.001601	0.001868	28.0819	77.788	0.001748	44495.4	1.955419	-3.147745	294.125	1.242530	0.072668	0.072334	300.668	44495.4	0.067600	0.154461	1946.57	103438
478	2.000000	1.245432	7.36974e+06	-53189.1	1005.82	-29747	0.000000	0.000000	7.258575	313.797	NaN	0.000000	0.001593	0.001891	28.0823	80.1989	0.001749	45841.6	2.572415	175.091	310.946	1.245066	0.075236	0.074871	313.797	45841.6	0.070102	0.164504	1907.54	103263
478	2.000000	1.247905	7.36974e+06	-53189.1	1005.82	-29747	0.000000	0.000000	7.261594	327.067	NaN	0.000000	0.001584	0.001870	28.0821	83.3857	0.001806	46171.3	4.953184	-7.038783	322.473	1.247593	0.077710	0.077397	327.067	46171.3	0.072397	0.173974	1879.98	101135
478	2.000000	1.250415	7.36974e+06	-53189.1	1005.82	-29747	0.000000	0.000000	7.264843	345.016	NaN	0.000000	0.001548	0.001858	28.0822	85.9496	0.001788	48071.9	4.683047	173.175	344.062	1.250204	0.080220	0.080008	345.016	48071.9	0.074837	0.184319	1871.84	102301
478	2.000000	1.252929	7.36974e+06	-53189.1	1005.82	-29747	0.000000	0.000000	7.268108	363.298	NaN	0.000000	0.001641	0.001842	28.0819	86.9028	0.001788	48615.1	3.142267	-5.241241	360.137	1.252663	0.082733	0.082467	363.298	48615.1	0.077129	0.194289	1869.89	100768
478	2.000000	1.255467	7.36974e+06	-53189.1	1005.82	-29747	0.000000	0.000000	7.271573	385.845	NaN	0.000000	0.001599	0.001874	28.082	89.1897	0.001700	52474.4	3.852887	173.171	387.996	1.255090	0.085271	0.084895	385.845	52474.4	0.079757	0.206025	1872.81	105624
478	2.000000	1.257838	7.36974e+06	-53189.1	1005.82	-29747	0.000000	0.000000	7.274714	404.556	NaN	0.000000	0.001626	0.001861	28.0821	92.1724	0.001771	52045	2.186073	-5.244088	397.293	1.257493	0.087643	0.087297	404.556	52045	0.081813	0.215433	1877.88	102446
478	2.000000	1.260479	7.36974e+06	-53189.1	1005.82	-29747	0.000000	0.000000	7.277516	408.472	NaN	0.000000	0.001680	0.001833	28.082	96.7824	0.001937	49953.9	4.756792	172.075	409.46	1.260374	0.090283	0.090179	408.472	49953.9	0.084150	0.226365	1804.48	95926.3
478	2.000000	1.262800	7.36974e+06	-53189.1	1005.82	-29747	0.000000	0.000000	7.281315	444.383	NaN	0.000000	0.001658	0.001847	28.082	96.5575	0.001757	54954.2	2.436750	-5.235672	436.086	1.262459	0.092605	0.092264	444.383	54954.2	0.086540	0.237803	1868.7	102959
478	2.000000	1.265398	7.36974e+06	-53189.1	1005.82	-29747	0.000000	0.000000	7.284615	461.469	NaN	0.000000	0.001661	0.001833	28.0821	98.9202	0.001665	59423.7	4.610750	172.19	460.516	1.265006	0.095203	0.094810	461.469	59423.7	0.089379	0.251731	1833.18	108209
478	2.000000	1.267904	7.36974e+06	-53189.1	1005.82	-29747	0.000000	0.000000	7.287824	478.555	NaN	0.000000	0.001626	0.001830	28.0821	102.774	0.001828	56233.1	5.525719	-8.632104	474.005	1.267590	0.097709	0.097394	478.555	56233.1	0.091326	0.261501	1830.03	100468
478	2.000000	1.270421	7.36974e+06	-53189.1	1005.82	-29747	0.000000	0.000000	7.290949	493.36	NaN	0.000000	0.001654	0.001831	28.0831	106.109	0.001786	59426.5	5.161203	170.913	492.241	1.270237	0.100225	0.100041	493.36	59426.5	0.093999	0.275190	1792.8	103499
478	2.000000	1.271371	7.36974e+06	-53189.1	1005.82	-29747	0.000000	0.000000	7.292471	507.254	NaN	0.000000	0.001584	0.001832	28.0833	105.017	0.001673	62772.6	1.655933	174.396	504.974	1.270957	0.101175	0.100761	507.254	62772.6	0.095114	0.281003	1805.16	108190