File: remote_trans/data/nanoindenter/0828-1/data/Data_2025-08-06,11h17m57s/2025-07-22_16-23-58_1_323.txt
2025-07-22, 16:23:58, 1
Index	Phase	Displacement	Time	Pos X	Pos Y	Pos Z	Rot A	Rot B	Piezo Z	Force A	Force B	Gripper	Voltage A	Voltage B	Temperature	Amplitude force	Amplitude pos	Stiffness	Phase shift	Phase excitation	Force A raw	Displacement raw	HMax	HMax raw	Real Force	Real Stiffness	Contact Depth	Area	Hardness	Reduced Mod.
[#]	[#]	[um]	[s]	[um]	[um]	[um]	[m°]	[m°]	[um]	[uN]	[uN]	[V]	[V]	[V]	[°C]	[uN]	[um]	[N/m]	[°]	[°]	[uN]	[um]	[um]	[um]	[uN]	[N/m]	[um]	[um^2]	[MPa]	[MPa]
323	1.000000	0.002414	7.36822e+06	-54789.1	955.817	-29743.1	0.000000	0.000000	6.002809	0.060770	NaN	0.000000	0.001588	0.001648	28.0786	0.034765	0.001064	32.6738	46.3183	-169.111	0.048051	0.001128	-1.114882	-1.116168	0.060770	32.6738	-1.116277	-8.289271E+14	-7.331162E-17	NaN
323	1.000000	0.012455	7.36822e+06	-54789.1	955.818	-29743.1	0.000000	0.000000	6.012850	0.055529	NaN	0.000000	0.001577	0.001691	28.0787	0.035695	0.001205	29.618	-64.1663	13.3493	0.092542	0.011022	-1.104841	-1.106274	0.055529	29.618	-1.106247	-6.080246E+14	-9.132625E-17	NaN
323	1.000000	0.022349	7.36822e+06	-54789.1	955.818	-29743.1	0.000000	0.000000	6.022742	0.012966	NaN	0.000000	0.001583	0.001656	28.0788	0.071917	0.001725	41.6818	167.191	-168.372	-0.039279	0.021001	-1.094946	-1.096294	0.012966	41.6818	-1.095180	-4.318748E+14	-3.002358E-17	NaN
323	1.000000	0.032362	7.36823e+06	-54789.1	955.818	-29743.1	0.000000	0.000000	6.032757	0.036832	NaN	0.000000	0.001626	0.001658	28.0788	0.004458	0.002049	2.175764	-29.4767	15.434	0.005739	0.031032	-1.084933	-1.086263	0.036832	2.175764	-1.097630	-4.658515E+14	-7.906451E-17	NaN
323	1.000000	0.042368	7.36823e+06	-54789.1	955.819	-29743.1	0.000000	0.000000	6.042761	0.014513	NaN	0.000000	0.001605	0.001664	28.0789	0.040946	0.001912	21.4127	133.739	-164.701	0.073864	0.041006	-1.074928	-1.076290	0.014513	21.4127	-1.075436	-2.345398E+14	-6.188016E-17	NaN
323	1.000000	0.052343	7.36823e+06	-54789.1	955.817	-29743.1	0.000000	0.000000	6.052734	-0.024905	NaN	0.000000	0.001582	0.001673	28.0787	0.035701	0.001934	18.455	106.33	10.8764	-0.036486	0.050929	-1.064953	-1.066366	-0.024905	18.455	-1.063941	-1.643536E+14	1.515303E-16	NaN
323	1.000000	0.062360	7.36823e+06	-54789.1	955.818	-29743.1	0.000000	0.000000	6.062752	-0.010767	NaN	0.000000	0.001574	0.001666	28.0791	0.075018	0.002008	37.3599	146.458	-164.254	0.031805	0.061068	-1.054936	-1.056228	-0.010767	37.3599	-1.054720	-1.235543E+14	8.714455E-17	NaN
323	1.000000	0.072379	7.36823e+06	-54789.1	955.819	-29743.1	0.000000	0.000000	6.072770	-0.040897	NaN	0.000000	0.001555	0.001701	28.0788	0.037247	0.001819	20.4714	-130.968	15.1279	-0.033930	0.071016	-1.044917	-1.046279	-0.040897	20.4714	-1.043418	-8.708196E+13	4.696435E-16	NaN
323	1.000000	0.082360	7.36823e+06	-54789.1	955.818	-29743.1	0.000000	0.000000	6.082752	-0.021921	NaN	0.000000	0.001569	0.001726	28.0788	0.068373	0.002086	32.7716	-110.683	-164.141	0.011579	0.081037	-1.034935	-1.036259	-0.021921	32.7716	-1.034434	-6.593433E+13	3.324638E-16	NaN
323	1.000000	0.092373	7.36823e+06	-54789.1	955.818	-29743.1	0.000000	0.000000	6.092764	-0.033714	NaN	0.000000	0.001576	0.001691	28.0786	0.150518	0.001959	76.829	136.114	12.5316	-0.079419	0.091025	-1.024923	-1.026271	-0.033714	76.829	-1.024594	-4.861355E+13	6.935009E-16	NaN
323	1.000000	0.102380	7.36823e+06	-54789.1	955.817	-29743.1	0.000000	0.000000	6.102773	-0.005548	NaN	0.000000	0.001604	0.001645	28.0791	0.018907	0.001991	9.495327	131.495	-165.428	0.041290	0.101021	-1.014915	-1.016274	-0.005548	9.495327	-1.014477	-3.553353E+13	1.561300E-16	NaN
323	1.000000	0.112380	7.36823e+06	-54789.1	955.819	-29743.1	0.000000	0.000000	6.112776	0.059050	NaN	0.000000	0.001619	0.001702	28.0788	0.066591	0.001964	33.906	-173.543	13.6119	0.099815	0.111054	-1.004915	-1.006241	0.059050	33.906	-1.006221	-2.751200E+13	-2.146344E-15	NaN
323	1.000000	0.122398	7.36823e+06	-54789.1	955.818	-29743.1	0.000000	0.000000	6.122791	0.007826	NaN	0.000000	0.001609	0.001683	28.08	0.031529	0.002007	15.7115	-41.5285	-161.562	-0.068913	0.121052	-0.994898	-0.996244	0.007826	15.7115	-0.995271	-1.959285E+13	-3.994329E-16	NaN
323	1.000000	0.132366	7.36823e+06	-54789.1	955.818	-29743.1	0.000000	0.000000	6.132758	-0.009507	NaN	0.000000	0.001613	0.001643	28.0799	0.115028	0.002023	56.8687	-130.687	15.0559	-0.057743	0.131027	-0.984929	-0.986268	-0.009507	56.8687	-0.984804	-1.416212E+13	6.712843E-16	NaN
323	1.000000	0.142404	7.36823e+06	-54789.1	955.818	-29743.1	0.000000	0.000000	6.142799	0.050123	NaN	0.000000	0.001637	0.001644	28.08	0.037687	0.001943	19.3952	-74.9989	-165.579	0.022007	0.141076	-0.974892	-0.976219	0.050123	19.3952	-0.976830	-1.105851E+13	-4.532490E-15	NaN
323	1.000000	0.152433	7.36823e+06	-54789.1	955.819	-29743.1	0.000000	0.000000	6.152824	-0.022003	NaN	0.000000	0.001606	0.001643	28.0799	0.093588	0.001895	49.3782	-112.454	13.1021	-0.015819	0.151017	-0.964863	-0.966279	-0.022003	49.3782	-0.964529	-7.549554E+12	2.914422E-15	NaN
323	1.000000	0.162393	7.36823e+06	-54789.1	955.818	-29743.1	0.000000	0.000000	6.162787	0.018011	NaN	0.000000	0.001621	0.001654	28.0799	0.044546	0.002006	22.2081	82.7241	-167.618	-0.045958	0.161144	-0.954902	-0.956152	0.018011	22.2081	-0.955511	-5.706082E+12	-3.156377E-15	NaN
323	1.000000	0.172417	7.36823e+06	-54789.1	955.817	-29743.1	0.000000	0.000000	6.172809	-0.027178	NaN	0.000000	0.001642	0.001689	28.08	0.020152	0.002063	9.769080	-86.3014	14.6787	-0.083346	0.171013	-0.944878	-0.946282	-0.027178	9.769080	-0.942792	-3.844154E+12	7.070028E-15	NaN
323	1.000000	0.182419	7.36823e+06	-54789.1	955.819	-29743.1	0.000000	0.000000	6.182808	-0.089508	NaN	0.000000	0.001579	0.001695	28.0799	0.084067	0.002040	41.2055	138.107	-165.09	-0.143879	0.181113	-0.934876	-0.936183	-0.089508	41.2055	-0.933247	-2.857734E+12	3.132139E-14	NaN
323	1.000000	0.192420	7.36823e+06	-54789.1	955.818	-29743.1	0.000000	0.000000	6.192811	-0.038929	NaN	0.000000	0.001609	0.001672	28.0799	0.048441	0.002007	24.1348	-104.627	15.0954	0.001726	0.191088	-0.924876	-0.926208	-0.038929	24.1348	-0.923666	-2.121763E+12	1.834764E-14	NaN
323	1.000000	0.202376	7.36823e+06	-54789.1	955.819	-29743.1	0.000000	0.000000	6.202768	-0.036424	NaN	0.000000	0.001622	0.001668	28.0797	0.056175	0.001977	28.4094	13.1013	-166.17	0.104105	0.201076	-0.914919	-0.916220	-0.036424	28.4094	-0.913958	-1.568969E+12	2.321554E-14	NaN
323	1.000000	0.212425	7.36823e+06	-54789.1	955.818	-29743.1	0.000000	0.000000	6.212817	-0.013166	NaN	0.000000	0.001580	0.001632	28.0799	0.028457	0.002026	14.0493	111.86	16.3538	-0.119709	0.211131	-0.904871	-0.906165	-0.013166	14.0493	-0.904168	-1.157129E+12	1.137793E-14	NaN
323	1.000000	0.222410	7.36823e+06	-54789.1	955.819	-29743.1	0.000000	0.000000	6.222801	-0.048546	NaN	0.000000	0.001559	0.001707	28.0798	0.030320	0.002024	14.9836	66.747	-168.65	-0.003656	0.221158	-0.894886	-0.896138	-0.048546	14.9836	-0.892456	-8.037294E+11	6.040145E-14	NaN
323	1.000000	0.232417	7.36823e+06	-54789.1	955.818	-29743.1	0.000000	0.000000	6.232810	-0.003483	NaN	0.000000	0.001610	0.001642	28.0798	0.098397	0.001982	49.6406	-25.828	14.9626	0.009130	0.231093	-0.884879	-0.886202	-0.003483	49.6406	-0.884826	-6.338212E+11	5.494953E-15	NaN
323	1.000000	0.242442	7.36823e+06	-54789.1	955.818	-29743.1	0.000000	0.000000	6.242836	0.037914	NaN	0.000000	0.001629	0.001646	28.0797	0.110561	0.002056	53.7664	102.991	-164.524	-0.056597	0.241108	-0.874854	-0.876187	0.037914	53.7664	-0.875383	-4.723433E+11	-8.026889E-14	NaN
323	1.000000	0.252441	7.36823e+06	-54789.1	955.818	-29743.1	0.000000	0.000000	6.252837	0.081650	NaN	0.000000	0.001640	0.001648	28.0787	0.032668	0.002052	15.9213	178.691	12.0409	0.070518	0.251082	-0.864854	-0.866213	0.081650	15.9213	-0.868701	-3.835854E+11	-2.128611E-13	NaN
323	1.000000	0.262465	7.36823e+06	-54789.1	955.817	-29743.1	0.000000	0.000000	6.262862	0.101166	NaN	0.000000	0.001631	0.001631	28.0787	0.039022	0.002064	18.9045	-17.1505	-166.829	0.020135	0.261102	-0.854831	-0.856194	0.101166	18.9045	-0.858844	-2.821465E+11	-3.585578E-13	NaN
323	1.000000	0.272462	7.36823e+06	-54789.1	955.817	-29743.1	0.000000	0.000000	6.272855	0.012909	NaN	0.000000	0.001641	0.001657	28.0786	0.057204	0.001910	29.9447	87.5416	13.3404	0.068383	0.271081	-0.844834	-0.846214	0.012909	29.9447	-0.845157	-1.841400E+11	-7.010278E-14	NaN
323	1.000000	0.282459	7.36823e+06	-54789.1	955.819	-29743.1	0.000000	0.000000	6.282849	-0.054048	NaN	0.000000	0.001597	0.001664	28.0786	0.122889	0.002075	59.2177	-127.821	-162.929	-0.079053	0.281157	-0.834837	-0.836139	-0.054048	59.2177	-0.834153	-1.306359E+11	4.137297E-13	NaN
323	1.000000	0.292475	7.36823e+06	-54789.1	955.818	-29743.1	0.000000	0.000000	6.292867	-0.024566	NaN	0.000000	0.001626	0.001662	28.0784	0.054793	0.002028	27.0201	-24.1864	10.4808	0.076551	0.291114	-0.824820	-0.826182	-0.024566	27.0201	-0.824139	-9.557111E+10	2.570490E-13	NaN
323	1.000000	0.302470	7.36823e+06	-54789.1	955.817	-29743.1	0.000000	0.000000	6.302861	-0.036219	NaN	0.000000	0.001613	0.001654	28.0785	0.101861	0.002138	47.6468	108.681	-164.181	-0.003270	0.301169	-0.814826	-0.816126	-0.036219	47.6468	-0.814256	-7.019450E+10	5.159869E-13	NaN
323	1.000000	0.312452	7.36823e+06	-54789.1	955.817	-29743.1	0.000000	0.000000	6.312844	-0.023364	NaN	0.000000	0.001639	0.001665	28.0784	0.039295	0.001982	19.8215	-111.42	13.0026	-0.017629	0.311124	-0.804843	-0.806172	-0.023364	19.8215	-0.803959	-5.088614E+10	4.591508E-13	NaN
323	1.000000	0.322450	7.36823e+06	-54789.1	955.818	-29743.1	0.000000	0.000000	6.322842	-0.027251	NaN	0.000000	0.001610	0.001614	28.0785	0.065666	0.002007	32.7181	-18.634	-168.191	-0.046036	0.321167	-0.794845	-0.796128	-0.027251	32.7181	-0.794221	-3.753179E+10	7.260853E-13	NaN
323	1.000000	0.332473	7.36823e+06	-54789.1	955.818	-29743.1	0.000000	0.000000	6.332863	-0.060750	NaN	0.000000	0.001593	0.001653	28.0784	0.069036	0.001924	35.8749	165.335	13.8977	-0.047273	0.331082	-0.784823	-0.786213	-0.060750	35.8749	-0.783553	-2.688457E+10	2.259664E-12	NaN
323	1.000000	0.342460	7.36823e+06	-54789.1	955.818	-29743.1	0.000000	0.000000	6.342851	-0.052562	NaN	0.000000	0.001597	0.001651	28.0784	0.104775	0.002066	50.7132	-1.157766	-166.397	-0.045457	0.341260	-0.774835	-0.776036	-0.052562	50.7132	-0.774058	-1.997422E+10	2.631473E-12	NaN
323	1.000000	0.352492	7.36823e+06	-54789.1	955.818	-29743.1	0.000000	0.000000	6.352881	-0.083839	NaN	0.000000	0.001591	0.001669	28.0783	0.013137	0.002046	6.421629	76.718	13.1334	-0.005735	0.351180	-0.764804	-0.766115	-0.083839	6.421629	-0.755012	-1.100098E+10	7.621044E-12	NaN
323	1.000000	0.362484	7.36823e+06	-54789.1	955.818	-29743.1	0.000000	0.000000	6.362876	-0.036647	NaN	0.000000	0.001600	0.001687	28.0784	0.040716	0.002018	20.1802	84.1181	-166.389	0.022540	0.361161	-0.754811	-0.756135	-0.036647	20.1802	-0.753449	-1.047527E+10	3.498447E-12	NaN
323	1.000000	0.372496	7.36823e+06	-54789.1	955.818	-29743.1	0.000000	0.000000	6.372888	-0.016582	NaN	0.000000	0.001591	0.001636	28.0784	0.092455	0.002001	46.1937	-97.4293	15.9028	-0.037385	0.371160	-0.744799	-0.746136	-0.016582	46.1937	-0.744530	-7.920436E+9	2.093609E-12	NaN
323	1.000000	0.382496	7.36823e+06	-54789.1	955.817	-29743.1	0.000000	0.000000	6.382889	0.004750	NaN	0.000000	0.001586	0.001655	28.0784	0.073476	0.002051	35.833	66.2825	-164.144	0.040225	0.381217	-0.734800	-0.736079	0.004750	35.833	-0.734899	-5.855577E+9	-8.111883E-13	NaN
323	1.000000	0.392494	7.36823e+06	-54789.1	955.818	-29743.1	0.000000	0.000000	6.392887	-0.001717	NaN	0.000000	0.001585	0.001647	28.0799	0.054160	0.001991	27.2052	-21.3388	11.1098	-0.052969	0.391153	-0.724802	-0.726142	-0.001717	27.2052	-0.724754	-4.258941E+9	4.032577E-13	NaN
323	1.000000	0.402514	7.36823e+06	-54789.1	955.818	-29743.1	0.000000	0.000000	6.402907	-0.001746	NaN	0.000000	0.001601	0.001645	28.0798	0.073522	0.001938	37.9279	-175.968	-165.527	0.011772	0.401162	-0.714782	-0.716133	-0.001746	37.9279	-0.714747	-3.110433E+9	5.612238E-13	NaN
323	1.000000	0.412529	7.36823e+06	-54789.1	955.819	-29743.1	0.000000	0.000000	6.412920	-0.025459	NaN	0.000000	0.001568	0.001637	28.0798	0.089599	0.002025	44.2562	147.657	13.7663	-0.015292	0.411163	-0.704767	-0.706132	-0.025459	44.2562	-0.704336	-2.242488E+9	1.135284E-11	NaN
323	1.000000	0.422533	7.36823e+06	-54789.1	955.818	-29743.1	0.000000	0.000000	6.422926	0.003973	NaN	0.000000	0.001609	0.001653	28.0794	0.049085	0.001889	25.9911	179.018	-168.409	-0.039836	0.421188	-0.694762	-0.696107	0.003973	25.9911	-0.694877	-1.665552E+9	-2.385299E-12	NaN
323	1.000000	0.432510	7.36823e+06	-54789.1	955.817	-29743.1	0.000000	0.000000	6.432902	-0.020126	NaN	0.000000	0.001612	0.001649	28.0798	0.027784	0.002016	13.7846	-112.602	11.583	-0.076054	0.431182	-0.684785	-0.686113	-0.020126	13.7846	-0.683690	-1.171300E+9	1.718304E-11	NaN
323	1.000000	0.442514	7.36823e+06	-54789.1	955.818	-29743.1	0.000000	0.000000	6.442908	0.035744	NaN	0.000000	0.001587	0.001616	28.0796	0.130918	0.002079	62.9782	36.4939	-164.374	-0.039485	0.441216	-0.674782	-0.676080	0.035744	62.9782	-0.675208	-8.967101E+8	-3.986142E-11	NaN
323	1.000000	0.452513	7.36823e+06	-54789.1	955.816	-29743.1	0.000000	0.000000	6.452907	0.017744	NaN	0.000000	0.001642	0.001643	28.0796	0.032426	0.001949	16.6411	81.369	13.8164	0.033138	0.451159	-0.664782	-0.666137	0.017744	16.6411	-0.665582	-6.620838E+8	-2.680061E-11	NaN
323	1.000000	0.462549	7.36823e+06	-54789.1	955.817	-29743.1	0.000000	0.000000	6.462941	-0.032456	NaN	0.000000	0.001614	0.001619	28.0795	0.130478	0.001971	66.2031	162.608	-168.307	-0.035042	0.461226	-0.654746	-0.656070	-0.032456	66.2031	-0.654378	-4.649957E+8	6.979882E-11	NaN
323	1.000000	0.472521	7.36823e+06	-54789.1	955.818	-29743.1	0.000000	0.000000	6.472914	-0.003599	NaN	0.000000	0.001620	0.001616	28.0797	0.092893	0.001993	46.6079	-96.0319	12.8739	0.053516	0.471172	-0.644774	-0.646123	-0.003599	46.6079	-0.644717	-3.427604E+8	1.049907E-11	NaN
323	1.000000	0.482520	7.36823e+06	-54789.1	955.818	-29743.1	0.000000	0.000000	6.482913	0.013423	NaN	0.000000	0.001604	0.001638	28.0796	0.032411	0.002102	15.4171	98.6992	-166.222	-0.021611	0.481238	-0.634776	-0.636058	0.013423	15.4171	-0.635429	-2.556000E+8	-5.251518E-11	NaN
323	1.000000	0.492546	7.36823e+06	-54789.1	955.818	-29743.1	0.000000	0.000000	6.492939	-0.011030	NaN	0.000000	0.001626	0.001672	28.0797	0.048891	0.002145	22.7937	-105.522	17.0514	0.032502	0.491185	-0.624749	-0.626111	-0.011030	22.7937	-0.624386	-1.802660E+8	6.118997E-11	NaN
323	1.000000	0.502553	7.36823e+06	-54789.1	955.817	-29743.1	0.000000	0.000000	6.502947	0.039246	NaN	0.000000	0.001607	0.001677	28.0798	0.055673	0.001973	28.2146	-134.633	-166.734	0.093394	0.501254	-0.614743	-0.616042	0.039246	28.2146	-0.615786	-1.373086E+8	-2.858261E-10	NaN
323	1.000000	0.512536	7.36823e+06	-54789.1	955.819	-29743.1	0.000000	0.000000	6.512929	-0.002177	NaN	0.000000	0.001608	0.001646	28.0798	0.108689	0.002045	53.1379	-107.292	14.7532	0.001854	0.511208	-0.604759	-0.606087	-0.002177	53.1379	-0.604728	-9.673096E+7	2.250891E-11	NaN
323	1.000000	0.522525	7.36823e+06	-54789.1	955.818	-29743.1	0.000000	0.000000	6.522914	-0.082655	NaN	0.000000	0.001590	0.001674	28.0792	0.068995	0.001937	35.6149	93.4509	-165.691	-0.107511	0.521243	-0.594771	-0.596052	-0.082655	35.6149	-0.593030	-6.674762E+7	1.238323E-9	NaN
323	1.000000	0.532579	7.36823e+06	-54789.1	955.819	-29743.1	0.000000	0.000000	6.532969	-0.065137	NaN	0.000000	0.001589	0.001668	28.0785	0.045293	0.002067	21.9178	72.9331	13.4382	-0.054550	0.531194	-0.584716	-0.586101	-0.065137	21.9178	-0.582488	-4.775872E+7	1.363866E-9	NaN
323	1.000000	0.542569	7.36823e+06	-54789.1	955.818	-29743.1	0.000000	0.000000	6.542963	0.024249	NaN	0.000000	0.001658	0.001652	28.0788	0.048963	0.001933	25.3289	-63.5667	-168.655	0.013823	0.541290	-0.574727	-0.576005	0.024249	25.3289	-0.575445	-3.818028E+7	-6.351136E-10	NaN
323	1.000000	0.552578	7.36823e+06	-54789.1	955.817	-29743.1	0.000000	0.000000	6.552972	0.030789	NaN	0.000000	0.001601	0.001705	28.0785	0.007625	0.001976	3.858497	-100.371	11.8371	0.056244	0.551185	-0.564718	-0.566111	0.030789	3.858497	-0.570702	-3.283497E+7	-9.376833E-10	NaN
323	1.000000	0.562560	7.36823e+06	-54789.1	955.818	-29743.1	0.000000	0.000000	6.562954	0.031410	NaN	0.000000	0.001658	0.001685	28.0784	0.067776	0.001989	34.0752	41.4595	-169.854	0.048813	0.561291	-0.554735	-0.556004	0.031410	34.0752	-0.555427	-2.018802E+7	-1.555886E-9	NaN
323	1.000000	0.572600	7.36823e+06	-54789.1	955.818	-29743.1	0.000000	0.000000	6.572992	-0.006279	NaN	0.000000	0.001601	0.001648	28.0785	0.067473	0.002071	32.5729	163.025	12.3641	-0.027577	0.571196	-0.544696	-0.546100	-0.006279	32.5729	-0.544551	-1.427107E+7	4.399884E-10	NaN
323	1.000000	0.582586	7.36823e+06	-54789.1	955.818	-29743.1	0.000000	0.000000	6.582978	-0.023840	NaN	0.000000	0.001586	0.001691	28.0788	0.045003	0.002016	22.3275	119.04	-171.457	-0.042665	0.581293	-0.534710	-0.536002	-0.023840	22.3275	-0.533909	-1.015883E+7	2.346739E-9	NaN
323	1.000000	0.592565	7.36823e+06	-54789.1	955.817	-29743.1	0.000000	0.000000	6.592958	-0.008129	NaN	0.000000	0.001566	0.001648	28.0788	0.040441	0.001988	20.3394	-160.051	13.4316	0.012408	0.591206	-0.524730	-0.526089	-0.008129	20.3394	-0.524431	-7.50237e+06	1.083464E-9	NaN
323	1.000000	0.602586	7.36823e+06	-54789.1	955.818	-29743.1	0.000000	0.000000	6.602980	0.022390	NaN	0.000000	0.001607	0.001638	28.0786	0.042083	0.002030	20.7295	-17.8061	-169.616	0.103230	0.601306	-0.514710	-0.515990	0.022390	20.7295	-0.515520	-5.63985e+06	-3.970045E-9	NaN
323	1.000000	0.612586	7.36823e+06	-54789.1	955.817	-29743.1	0.000000	0.000000	6.612979	0.006776	NaN	0.000000	0.001610	0.001693	28.0785	0.090087	0.002076	43.3957	-162.282	15.4628	-0.000815	0.611228	-0.504709	-0.506067	0.006776	43.3957	-0.504826	-4.00244e+06	-1.693083E-9	NaN
323	1.000000	0.622597	7.36823e+06	-54789.1	955.818	-29743.1	0.000000	0.000000	6.622994	0.101407	NaN	0.000000	0.001591	0.001635	28.0788	0.062110	0.002011	30.8807	90.2152	-168.278	0.042390	0.621300	-0.494699	-0.495996	0.101407	30.8807	-0.497162	-3.12905e+06	-3.240826E-8	NaN
323	1.000000	0.632586	7.36823e+06	-54789.1	955.818	-29743.1	0.000000	0.000000	6.632978	-0.002791	NaN	0.000000	0.001599	0.001630	28.0785	0.071182	0.002100	33.8893	168.049	11.5241	-0.039520	0.631225	-0.484710	-0.486071	-0.002791	33.8893	-0.484648	-2.09205e+06	1.334017E-9	NaN
323	1.000000	0.642612	7.36823e+06	-54789.1	955.818	-29743.1	0.000000	0.000000	6.643006	0.009969	NaN	0.000000	0.001608	0.001649	28.0788	0.037132	0.002045	18.1585	111.003	-166.809	-0.057297	0.641285	-0.474683	-0.476011	0.009969	18.1585	-0.475095	-1.53755e+06	-6.483478E-9	NaN
323	1.000000	0.652617	7.36823e+06	-54789.1	955.818	-29743.1	0.000000	0.000000	6.653009	-0.031947	NaN	0.000000	0.001609	0.001620	28.0786	0.079080	0.001944	40.6841	123.54	13.3714	-0.078418	0.651221	-0.464678	-0.466074	-0.031947	40.6841	-0.464089	-1.07761e+06	2.964602E-8	NaN
323	1.000000	0.662620	7.36823e+06	-54789.1	955.817	-29743.1	0.000000	0.000000	6.663012	-0.012492	NaN	0.000000	0.001634	0.001682	28.0802	0.044113	0.002010	21.9436	-42.3166	-170.557	0.017869	0.661296	-0.454676	-0.456000	-0.012492	21.9436	-0.454249	-783695	1.593968E-8	NaN
323	1.000000	0.672608	7.36823e+06	-54789.1	955.818	-29743.1	0.000000	0.000000	6.673001	0.004848	NaN	0.000000	0.001614	0.001642	28.0799	0.034200	0.001990	17.1863	117.096	13.4657	0.057276	0.671263	-0.444688	-0.446032	0.004848	17.1863	-0.444899	-578727	-8.377414E-9	NaN
323	1.000000	0.682597	7.36823e+06	-54789.1	955.818	-29743.1	0.000000	0.000000	6.682990	0.015715	NaN	0.000000	0.001626	0.001602	28.0801	0.083515	0.002026	41.219	93.4572	-166.269	0.009429	0.681314	-0.434699	-0.435981	0.015715	41.219	-0.434985	-419311	-3.747726E-8	NaN
323	1.000000	0.692617	7.36823e+06	-54789.1	955.818	-29743.1	0.000000	0.000000	6.693006	-0.098476	NaN	0.000000	0.001601	0.001643	28.0799	0.115684	0.001953	59.2392	107.531	15.6651	-0.085272	0.691324	-0.424678	-0.425971	-0.098476	59.2392	-0.423431	-287780	3.421932E-7	NaN
323	1.000000	0.702614	7.36823e+06	-54789.1	955.817	-29743.1	0.000000	0.000000	6.703004	-0.066584	NaN	0.000000	0.001590	0.001688	28.0801	0.019997	0.001918	10.4255	159.953	-166.29	-0.049270	0.701310	-0.414682	-0.415986	-0.066584	10.4255	-0.409892	-184869	3.601665E-7	NaN
323	1.000000	0.712627	7.36823e+06	-54789.1	955.817	-29743.1	0.000000	0.000000	6.713016	-0.091502	NaN	0.000000	0.001604	0.001680	28.0797	0.028675	0.001954	14.6753	-146.232	13.5234	-0.032659	0.711244	-0.404668	-0.406052	-0.091502	14.6753	-0.399992	-133622	6.847817E-7	NaN
323	1.000000	0.722649	7.36823e+06	-54789.1	955.817	-29743.1	0.000000	0.000000	6.723040	-0.044589	NaN	0.000000	0.001606	0.001630	28.0798	0.031536	0.001951	16.166	8.556422	-168.353	0.032001	0.721338	-0.394646	-0.395957	-0.044589	16.166	-0.392578	-104719	4.258001E-7	NaN
323	1.000000	0.732646	7.36823e+06	-54789.1	955.818	-29743.1	0.000000	0.000000	6.733037	-0.041643	NaN	0.000000	0.001590	0.001639	28.0799	0.025760	0.001940	13.2777	-119.452	15.4217	0.043595	0.731294	-0.384650	-0.386002	-0.041643	13.2777	-0.382298	-74619.6	5.580690E-7	NaN
323	1.000000	0.742644	7.36823e+06	-54789.1	955.817	-29743.1	0.000000	0.000000	6.743038	0.036009	NaN	0.000000	0.001605	0.001637	28.0799	0.066929	0.001973	33.9214	-98.8392	-168.713	0.046018	0.741318	-0.374652	-0.375978	0.036009	33.9214	-0.375448	-59498.7	-6.052109E-7	NaN
323	1.000000	0.752652	7.36823e+06	-54789.1	955.817	-29743.1	0.000000	0.000000	6.753047	0.036719	NaN	0.000000	0.001648	0.001631	28.0799	0.055212	0.002062	26.7775	-24.4802	14.9527	-0.009506	0.751337	-0.364643	-0.365959	0.036719	26.7775	-0.365672	-43027.2	-8.533889E-7	NaN
323	1.000000	0.762663	7.36823e+06	-54789.1	955.818	-29743.1	0.000000	0.000000	6.763056	0.004784	NaN	0.000000	0.001639	0.001636	28.0799	0.046384	0.002050	22.6301	55.6939	-170.044	0.033159	0.761344	-0.354632	-0.355951	0.004784	22.6301	-0.354791	-29955	-1.597147E-7	NaN
323	1.000000	0.772654	7.36823e+06	-54789.1	955.818	-29743.1	0.000000	0.000000	6.773044	-0.071211	NaN	0.000000	0.001709	0.001670	28.0799	0.069547	0.001963	35.4277	82.5695	16.1153	-0.111252	0.771286	-0.344642	-0.346009	-0.071211	35.4277	-0.343134	-20286.5	3.510254E-6	NaN
323	1.000000	0.782683	7.36823e+06	-54789.1	955.817	-29743.1	0.000000	0.000000	6.783073	-0.068094	NaN	0.000000	0.001694	0.001614	28.0797	0.036887	0.001876	19.6617	74.1136	-167.679	-0.026715	0.781290	-0.334612	-0.336005	-0.068094	19.6617	-0.332015	-13961.9	4.877120E-6	NaN
323	1.000000	0.792669	7.36823e+06	-54789.1	955.818	-29743.1	0.000000	0.000000	6.793063	0.047471	NaN	0.000000	0.001704	0.001648	28.0798	0.037954	0.001880	20.189	-145.235	11.4071	0.075080	0.791327	-0.324627	-0.325969	0.047471	20.189	-0.326390	-11548.9	-4.110462E-6	NaN
323	1.000000	0.802671	7.36823e+06	-54789.1	955.818	-29743.1	0.000000	0.000000	6.803060	-0.075357	NaN	0.000000	0.001686	0.001607	28.0787	0.032679	0.002168	15.0731	83.6548	-167.412	-0.052134	0.801374	-0.314625	-0.315922	-0.075357	15.0731	-0.310875	-6823.49	1.104375E-5	NaN
323	1.000000	0.812674	7.36823e+06	-54789.1	955.818	-29743.1	0.000000	0.000000	6.813065	-0.042774	NaN	0.000000	0.001709	0.001631	28.0786	0.044002	0.001918	22.9453	18.2449	14.8594	-0.040277	0.811316	-0.304621	-0.305979	-0.042774	22.9453	-0.303223	-5255	8.139614E-6	NaN
323	1.000000	0.822711	7.36823e+06	-54789.1	955.818	-29743.1	0.000000	0.000000	6.823104	0.006530	NaN	0.000000	0.001673	0.001656	28.0786	0.035870	0.002026	17.7007	158.07	-167.578	0.004557	0.821403	-0.294585	-0.295893	0.006530	17.7007	-0.294861	-3944.74	-1.655311E-6	NaN
323	1.000000	0.832695	7.36823e+06	-54789.1	955.818	-29743.1	0.000000	0.000000	6.833088	0.006164	NaN	0.000000	0.001660	0.001651	28.0786	0.079552	0.001938	41.0385	88.6572	15.8479	-0.038256	0.831311	-0.284601	-0.285985	0.006164	41.0385	-0.284713	-2779.45	-2.217776E-6	NaN
323	1.000000	0.842698	7.36823e+06	-54789.1	955.818	-29743.1	0.000000	0.000000	6.843092	0.021913	NaN	0.000000	0.001693	0.001649	28.0787	0.041118	0.002049	20.0695	173.279	-165.266	-0.045317	0.841390	-0.274597	-0.275905	0.021913	20.0695	-0.275416	-2012.33	-1.088961E-5	NaN
323	1.000000	0.852666	7.36823e+06	-54789.1	955.818	-29743.1	0.000000	0.000000	6.853058	-0.023587	NaN	0.000000	0.001566	0.001659	28.0786	0.043979	0.001906	23.0781	175.974	15.2421	0.008626	0.851314	-0.264630	-0.265982	-0.023587	23.0781	-0.263863	-1342.85	1.756465E-5	NaN
323	1.000000	0.862695	7.36823e+06	-54789.1	955.817	-29743.1	0.000000	0.000000	6.863085	-0.048921	NaN	0.000000	0.001607	0.001611	28.0786	0.183710	0.002011	91.364	-134.471	-169.418	0.054645	0.861403	-0.254601	-0.255892	-0.048921	91.364	-0.254199	-954.521	5.125160E-5	NaN
323	1.000000	0.872721	7.36823e+06	-54789.1	955.82	-29743.1	0.000000	0.000000	6.873112	-0.054444	NaN	0.000000	0.001622	0.001624	28.0787	0.088291	0.002057	42.9205	157.932	13.5891	-0.000185	0.871312	-0.244574	-0.245984	-0.054444	42.9205	-0.243623	-654.691	8.316028E-5	NaN
323	1.000000	0.882712	7.36823e+06	-54789.1	955.819	-29743.1	0.000000	0.000000	6.883103	-0.028025	NaN	0.000000	0.001636	0.001658	28.0788	0.071916	0.001938	37.0997	-40.7279	-165.617	0.010337	0.881383	-0.234584	-0.235912	-0.028025	37.0997	-0.234017	-463.244	6.049633E-5	NaN
323	1.000000	0.892705	7.36823e+06	-54789.1	955.818	-29743.1	0.000000	0.000000	6.893095	-0.054528	NaN	0.000000	0.001637	0.001643	28.0787	0.080092	0.001963	40.8091	13.6963	14.322	-0.069842	0.891353	-0.224591	-0.225943	-0.054528	40.8091	-0.223589	-316.883	0.000172	NaN
323	1.000000	0.902718	7.36823e+06	-54789.1	955.819	-29743.1	0.000000	0.000000	6.903112	0.041980	NaN	0.000000	0.001688	0.001654	28.0787	0.061497	0.002057	29.9028	-114.319	-168.389	0.049719	0.901419	-0.214578	-0.215876	0.041980	29.9028	-0.215631	-236.406	-0.000178	NaN
323	1.000000	0.912721	7.36823e+06	-54789.1	955.817	-29743.1	0.000000	0.000000	6.913113	-0.006941	NaN	0.000000	0.001667	0.001627	28.0789	0.084238	0.001875	44.9283	12.4949	10.8444	-0.053009	0.911314	-0.204575	-0.205982	-0.006941	44.9283	-0.204459	-155.858	4.453296E-5	NaN
323	1.000000	0.922680	7.36823e+06	-54789.1	955.819	-29743.1	0.000000	0.000000	6.923075	0.037920	NaN	0.000000	0.001682	0.001647	28.0788	0.080641	0.002001	40.3097	142.048	-163.688	-0.026284	0.921371	-0.194615	-0.195925	0.037920	40.3097	-0.195321	-110.285	-0.000344	NaN
323	1.000000	0.932743	7.36823e+06	-54789.1	955.818	-29743.1	0.000000	0.000000	6.933135	-0.022363	NaN	0.000000	0.001656	0.001637	28.0796	0.140159	0.002052	68.3146	134.271	12.8605	-0.010341	0.931367	-0.184553	-0.185928	-0.022363	68.3146	-0.184307	-72.1854	0.000310	NaN
323	1.000000	0.942736	7.36823e+06	-54789.1	955.818	-29743.1	0.000000	0.000000	6.943125	-0.076012	NaN	0.000000	0.001601	0.001622	28.0797	0.105511	0.001949	54.1237	178.081	-166.518	-0.034067	0.941385	-0.174560	-0.175911	-0.076012	54.1237	-0.173507	-47.2368	0.001609	NaN
323	1.000000	0.952725	7.36823e+06	-54789.1	955.818	-29743.1	0.000000	0.000000	6.953115	-0.061265	NaN	0.000000	0.001635	0.001685	28.0804	0.049307	0.001940	25.4175	-54.3366	15.2009	-0.033584	0.951409	-0.164571	-0.165886	-0.061265	25.4175	-0.162763	-30.685	0.001997	NaN
323	1.000000	0.962723	7.36823e+06	-54789.1	955.818	-29743.1	0.000000	0.000000	6.963117	0.051165	NaN	0.000000	0.001625	0.001641	28.08	0.082827	0.001949	42.4981	7.220038	-172.182	0.127355	0.961407	-0.154573	-0.155889	0.051165	42.4981	-0.155476	-22.7583	-0.002248	NaN
323	1.000000	0.972739	7.36823e+06	-54789.1	955.819	-29743.1	0.000000	0.000000	6.973130	-0.036642	NaN	0.000000	0.001644	0.001652	28.0801	0.065121	0.001983	32.8354	12.0283	10.7206	-0.004968	0.971443	-0.144556	-0.145853	-0.036642	32.8354	-0.143719	-13.8813	0.002640	NaN
323	1.000000	0.982763	7.36823e+06	-54789.1	955.818	-29743.1	0.000000	0.000000	6.983155	-0.012314	NaN	0.000000	0.001665	0.001650	28.0799	0.091925	0.002098	43.8061	-178.413	-166.635	0.025774	0.981471	-0.134532	-0.135824	-0.012314	43.8061	-0.134322	-9.232575	0.001334	NaN
323	1.000000	0.992750	7.36823e+06	-54789.1	955.818	-29743.1	0.000000	0.000000	6.993143	0.005160	NaN	0.000000	0.001690	0.001626	28.0803	0.049001	0.001959	25.0131	44.8623	11.842	-0.063974	0.991399	-0.124546	-0.125897	0.005160	25.0131	-0.124700	-5.998783	-0.000860	NaN
323	1.000000	1.002734	7.36823e+06	-54789.1	955.819	-29743.1	0.000000	0.000000	7.003131	0.100913	NaN	0.000000	0.001651	0.001664	28.08	0.126418	0.002029	62.2996	-19.4232	-161.08	0.110194	1.001450	-0.114562	-0.115846	0.100913	62.2996	-0.115777	-3.963601	-0.025460	NaN
323	1.000000	1.012729	7.36823e+06	-54789.1	955.819	-29743.1	0.000000	0.000000	7.013132	0.248158	NaN	0.000000	0.001655	0.001624	28.08	0.133577	0.001896	70.4495	38.9336	13.5456	0.163776	1.011406	-0.104567	-0.105889	0.248158	70.4495	-0.107209	-2.621955	-0.094646	NaN
323	1.000000	1.022758	7.36823e+06	-54789.1	955.818	-29743.1	0.000000	0.000000	7.023165	0.350345	NaN	0.000000	0.001642	0.001664	28.0798	0.248525	0.001985	125.213	15.8758	-162.993	0.292790	1.021440	-0.094538	-0.095856	0.350345	125.213	-0.096636	-1.536475	-0.228018	NaN
323	1.000000	1.032769	7.36823e+06	-54789.1	955.817	-29743.1	0.000000	0.000000	7.033183	0.526206	NaN	0.000000	0.001657	0.001674	28.0801	0.195008	0.001826	106.782	12.2862	14.9788	0.401182	1.031467	-0.084527	-0.085828	0.526206	106.782	-0.088222	-0.981485	-0.536133	NaN
323	1.000000	1.042777	7.36823e+06	-54789.1	955.818	-29743.1	0.000000	0.000000	7.043199	0.699151	NaN	0.000000	0.001677	0.001666	28.0799	0.197393	0.002062	95.7097	39.0491	-169.482	0.648865	1.041433	-0.074518	-0.075862	0.699151	95.7097	-0.079997	-0.618883	-1.129700	NaN
323	1.000000	1.052767	7.36823e+06	-54789.1	955.818	-29743.1	0.000000	0.000000	7.053200	0.986666	NaN	0.000000	0.001654	0.001667	28.08	0.422422	0.002199	192.072	32.2936	11.9349	1.057923	1.051385	-0.064529	-0.065910	0.986666	192.072	-0.068381	-0.308521	-3.198056	NaN
323	1.000000	1.062775	7.36823e+06	-54789.1	955.819	-29743.1	0.000000	0.000000	7.063221	1.285167	NaN	0.000000	0.001637	0.001648	28.0797	0.442750	0.002012	220.067	11.9794	-168.404	1.302152	1.061504	-0.054520	-0.055792	1.285167	220.067	-0.058900	-0.167431	-7.675815	NaN
323	1.000000	1.072774	7.36823e+06	-54789.1	955.819	-29743.1	0.000000	0.000000	7.073226	1.441354	NaN	0.000000	0.001649	0.001673	28.0788	0.490571	0.001908	257.094	17.4542	8.851279	1.457233	1.071400	-0.044521	-0.045896	1.441354	257.094	-0.048726	-0.083488	-17.2643	NaN
323	1.000000	1.082799	7.36823e+06	-54789.1	955.818	-29743.1	0.000000	0.000000	7.083253	1.498625	NaN	0.000000	0.001673	0.001698	28.0786	0.607334	0.002088	290.91	20.9243	-168.445	1.477848	1.081468	-0.034497	-0.035828	1.498625	290.91	-0.038361	-0.040339	-37.1506	NaN
323	1.000000	1.092813	7.36823e+06	-54789.1	955.818	-29743.1	0.000000	0.000000	7.093268	1.514850	NaN	0.000000	0.001658	0.001701	28.0786	0.665611	0.002102	316.591	15.5594	10.7826	1.474416	1.091412	-0.024483	-0.025883	1.514850	316.591	-0.028072	-0.020366	-74.381	NaN
323	1.000000	1.102791	7.36823e+06	-54789.1	955.818	-29743.1	0.000000	0.000000	7.103260	1.838238	NaN	0.000000	0.001644	0.001668	28.0788	0.857448	0.002037	420.842	16.1945	-169.394	1.805394	1.101514	-0.014504	-0.015781	1.838238	420.842	-0.017780	-0.011017	-166.855	NaN
323	1.000000	1.112835	7.36823e+06	-54789.1	955.818	-29743.1	0.000000	0.000000	7.113327	2.422273	NaN	0.000000	0.001608	0.001651	28.0787	1.249659	0.002000	624.886	17.2532	16.1719	2.403796	1.111423	-0.004461	-0.005873	2.422273	624.886	-0.007368	-0.004859	-498.467	NaN
323	1.000000	1.122775	7.36823e+06	-54789.1	955.819	-29743.1	0.000000	0.000000	7.123395	5.532882	NaN	0.000000	0.001634	0.001644	28.0787	4.479728	0.001793	2499.06	10.8614	-171.965	4.210582	1.121477	0.005479	0.004181	5.532882	2499.06	0.003819	0.003081	1796	41136.6
323	2.000000	1.127905	7.36823e+06	-54789.1	955.819	-29743.1	0.000000	0.000000	7.128696	9.677006	NaN	0.000000	0.001637	0.001652	28.0788	9.006100	0.001640	5490.83	5.867277	11.3188	9.127837	1.127527	0.010610	0.010232	9.677006	5490.83	0.009288	0.008401	1151.89	54732.7
323	2.000000	1.130360	7.36823e+06	-54789.1	955.819	-29743.1	0.000000	0.000000	7.131257	12.2605	NaN	0.000000	0.001698	0.001644	28.079	11.5421	0.001667	6923.01	8.317030	-174.803	12.0185	1.130076	0.013064	0.012781	12.2605	6923.01	0.011736	0.011175	1097.1	59832.5
323	2.000000	1.132847	7.36823e+06	-54789.1	955.818	-29743.1	0.000000	0.000000	7.133862	15.1202	NaN	0.000000	0.001666	0.001684	28.0788	14.7232	0.001841	7995.89	10.6188	1.083965	14.8535	1.132515	0.015552	0.015219	15.1202	7995.89	0.014134	0.014147	1068.76	61418.8
323	2.000000	1.135315	7.36823e+06	-54789.1	955.819	-29743.1	0.000000	0.000000	7.136509	19.4816	NaN	0.000000	0.001687	0.001692	28.0788	16.8651	0.001738	9705.14	6.579176	-177.356	18.2773	1.135013	0.018019	0.017717	19.4816	9705.14	0.016514	0.017357	1122.39	67302.9
323	2.000000	1.137862	7.36823e+06	-54789.1	955.819	-29743.1	0.000000	0.000000	7.139161	22.0319	NaN	0.000000	0.001640	0.001642	28.0788	18.9242	0.001840	10284	8.787228	1.460691	21.8573	1.137523	0.020566	0.020227	22.0319	10284	0.018959	0.020933	1052.48	64940.9
323	2.000000	1.140290	7.36823e+06	-54789.1	955.818	-29743.1	0.000000	0.000000	7.141906	29.7453	NaN	0.000000	0.001651	0.001674	28.0789	21.8245	0.001704	12805.2	10.0636	178.33	29.2425	1.139906	0.022994	0.022611	29.7453	12805.2	0.021252	0.024548	1211.73	74671.1
323	2.000000	1.142811	7.36823e+06	-54789.1	955.82	-29743.1	0.000000	0.000000	7.144663	35.4797	NaN	0.000000	0.001655	0.001690	28.0786	24.8164	0.001792	13847	6.958306	0.073856	34.1248	1.142414	0.025515	0.025119	35.4797	13847	0.023593	0.028506	1244.63	74930.5
323	2.000000	1.145329	7.36823e+06	-54789.1	955.819	-29743.1	0.000000	0.000000	7.147425	41.404	NaN	0.000000	0.001658	0.001688	28.0787	28.6527	0.001946	14726.5	7.290529	179.288	41.1065	1.144926	0.028034	0.027631	41.404	14726.5	0.025925	0.032720	1265.39	74381.4
323	2.000000	1.147800	7.36823e+06	-54789.1	955.82	-29743.1	0.000000	0.000000	7.150298	51.1763	NaN	0.000000	0.001654	0.001687	28.0799	29.8436	0.001654	18047.9	3.135071	1.317484	48.6338	1.147437	0.030505	0.030141	51.1763	18047.9	0.028378	0.037449	1366.57	85208.4
323	2.000000	1.150277	7.36823e+06	-54789.1	955.819	-29743.1	0.000000	0.000000	7.153033	57.4472	NaN	0.000000	0.001631	0.001683	28.08	32.3277	0.001676	19286.8	3.978355	179.363	56.0945	1.149933	0.032981	0.032637	57.4472	19286.8	0.030747	0.042307	1357.86	85669.7
323	2.000000	1.152770	7.36823e+06	-54789.1	955.82	-29743.1	0.000000	0.000000	7.155864	65.6746	NaN	0.000000	0.001646	0.001675	28.08	36.0832	0.001759	20517.5	6.170263	-2.833138	62.9801	1.152385	0.035474	0.035090	65.6746	20517.5	0.033074	0.047356	1386.83	86141.1
323	2.000000	1.155269	7.36823e+06	-54789.1	955.819	-29743.1	0.000000	0.000000	7.158666	73.0352	NaN	0.000000	0.001672	0.001712	28.0799	38.7615	0.001673	23167.1	4.730408	176.756	71.1875	1.154971	0.037973	0.037676	73.0352	23167.1	0.035609	0.053172	1373.55	91791.2
323	2.000000	1.157785	7.36823e+06	-54789.1	955.819	-29743.1	0.000000	0.000000	7.161521	81.2705	NaN	0.000000	0.001646	0.001663	28.0801	40.5758	0.001681	24133.9	4.186331	-1.870136	78.9402	1.157400	0.040489	0.040104	81.2705	24133.9	0.037963	0.058871	1380.48	90876.1
323	2.000000	1.160223	7.36823e+06	-54789.1	955.819	-29743.1	0.000000	0.000000	7.164315	89.9401	NaN	0.000000	0.001651	0.001707	28.08	44.5689	0.001812	24591.2	8.451985	172.961	88.1827	1.159982	0.042927	0.042687	89.9401	24591.2	0.040184	0.064505	1394.31	88461.9
323	2.000000	1.162720	7.36823e+06	-54789.1	955.82	-29743.1	0.000000	0.000000	7.167250	100.582	NaN	0.000000	0.001649	0.001668	28.0799	46.6888	0.001788	26108.7	8.791077	-8.378506	96.9605	1.162384	0.045424	0.045088	100.582	26108.7	0.042535	0.070743	1421.78	89684.1
323	2.000000	1.165264	7.36823e+06	-54789.1	955.821	-29743.1	0.000000	0.000000	7.170183	110.019	NaN	0.000000	0.001684	0.001689	28.08	49.4941	0.001757	28173.8	6.784400	172.539	108.134	1.164964	0.047969	0.047668	110.019	28173.8	0.045040	0.077701	1415.92	92343.3
323	2.000000	1.167763	7.36823e+06	-54789.1	955.819	-29743.1	0.000000	0.000000	7.173302	125.121	NaN	0.000000	0.001668	0.001666	28.0802	50.5594	0.001806	27996.3	2.474289	-1.125241	122.719	1.167351	0.050467	0.050055	125.121	27996.3	0.047115	0.083705	1494.79	88409.4
323	2.000000	1.170266	7.36823e+06	-54789.1	955.819	-29743.1	0.000000	0.000000	7.176248	135.877	NaN	0.000000	0.001682	0.001668	28.08	54.0995	0.001746	30985.3	6.698283	172.42	135.801	1.169907	0.052970	0.052611	135.877	30985.3	0.049681	0.091431	1486.11	93622.8
323	2.000000	1.172761	7.36823e+06	-54789.1	955.821	-29743.1	0.000000	0.000000	7.179211	147.258	NaN	0.000000	0.001690	0.001700	28.08	56.6555	0.001759	32207.5	2.511540	-3.093762	144.997	1.172339	0.055465	0.055043	147.258	32207.5	0.052036	0.098810	1490.33	93611.8
323	2.000000	1.175208	7.36823e+06	-54789.1	955.82	-29743.1	0.000000	0.000000	7.182246	161.552	NaN	0.000000	0.001677	0.001687	28.0803	61.0145	0.001834	33259.6	7.690020	170.853	160.802	1.174955	0.057912	0.057659	161.552	33259.6	0.054269	0.106064	1523.16	93305.4
323	2.000000	1.177738	7.36823e+06	-54789.1	955.82	-29743.1	0.000000	0.000000	7.185315	174.664	NaN	0.000000	0.001644	0.001660	28.0802	61.246	0.001788	34250.1	4.506303	-5.694216	172.03	1.177374	0.060442	0.060078	174.664	34250.1	0.056617	0.113959	1532.7	92695.8
323	2.000000	1.180230	7.36823e+06	-54789.1	955.82	-29743.1	0.000000	0.000000	7.188287	186.316	NaN	0.000000	0.001640	0.001671	28.0793	63.5539	0.001732	36689.5	4.465727	173.541	186.12	1.179918	0.062934	0.062622	186.316	36689.5	0.059126	0.122691	1518.58	95699.3
323	2.000000	1.182773	7.36823e+06	-54789.1	955.82	-29743.1	0.000000	0.000000	7.191124	193.465	NaN	0.000000	0.001670	0.001675	28.0785	66.4103	0.001768	37557.8	3.391968	-5.856863	193.041	1.182462	0.065477	0.065166	193.465	37557.8	0.061614	0.131660	1469.43	94568.6
323	2.000000	1.185227	7.36823e+06	-54789.1	955.82	-29743.1	0.000000	0.000000	7.194289	210.737	NaN	0.000000	0.001694	0.001639	28.0794	68.7921	0.001764	39006.6	3.965476	173.504	211.386	1.184917	0.067932	0.067621	210.737	39006.6	0.063880	0.140087	1504.32	95216.3
323	2.000000	1.187691	7.36823e+06	-54789.1	955.819	-29743.1	0.000000	0.000000	7.197384	226.087	NaN	0.000000	0.001689	0.001655	28.0786	71.2102	0.001848	38526.1	7.822836	-9.946415	221.325	1.187408	0.070396	0.070113	226.087	38526.1	0.065994	0.148177	1525.79	91440.4
323	2.000000	1.190274	7.36823e+06	-54789.1	955.82	-29743.1	0.000000	0.000000	7.200516	239.43	NaN	0.000000	0.001624	0.001728	28.0794	73.5741	0.001860	39553.6	5.138748	172.095	240.217	1.189859	0.072978	0.072563	239.43	39553.6	0.068438	0.157793	1517.37	90973.8
323	2.000000	1.192745	7.36823e+06	-54789.1	955.82	-29743.1	0.000000	0.000000	7.203531	252.647	NaN	0.000000	0.001606	0.001714	28.0785	77.3518	0.001936	39957.2	5.718243	-8.252105	251.816	1.192421	0.075450	0.075126	252.647	39957.2	0.070707	0.166978	1513.06	89338.5
323	2.000000	1.195187	7.36823e+06	-54789.1	955.82	-29743.1	0.000000	0.000000	7.206571	267.177	NaN	0.000000	0.001584	0.001732	28.0795	78.5934	0.001762	44595.1	-0.080763	177.091	264.64	1.194863	0.077892	0.077568	267.177	44595.1	0.073398	0.178186	1499.43	96521.3
323	2.000000	1.197635	7.36823e+06	-54789.1	955.82	-29743.1	0.000000	0.000000	7.209863	287.699	NaN	0.000000	0.001585	0.001711	28.0786	79.9354	0.001834	43580.9	-0.011856	-2.620367	280.218	1.197359	0.080340	0.080063	287.699	43580.9	0.075388	0.186696	1541.01	92151.5
323	2.000000	1.200166	7.36823e+06	-54789.1	955.82	-29743.1	0.000000	0.000000	7.213230	308.045	NaN	0.000000	0.001594	0.001699	28.0789	82.5774	0.001755	47049	3.602137	172.758	304.925	1.199866	0.082870	0.082570	308.045	47049	0.077960	0.197966	1556.05	96611.4
323	2.000000	1.202603	7.36823e+06	-54789.1	955.82	-29743.1	0.000000	0.000000	7.216288	323.13	NaN	0.000000	0.001592	0.001709	28.0789	85.3736	0.001833	46568.4	4.679139	-8.044945	314.163	1.202320	0.085308	0.085025	323.13	46568.4	0.080104	0.207600	1556.5	93379.4
323	2.000000	1.205179	7.36823e+06	-54789.1	955.819	-29743.1	0.000000	0.000000	7.219854	347.216	NaN	0.000000	0.001595	0.001707	28.0796	87.9385	0.001782	49341.5	5.775867	170.017	343.184	1.204865	0.087883	0.087570	347.216	49341.5	0.082605	0.219110	1584.66	96306.1
323	2.000000	1.207775	7.36823e+06	-54789.1	955.819	-29743.1	0.000000	0.000000	7.223044	361.645	NaN	0.000000	0.001574	0.001656	28.0784	89.2414	0.001822	48991.8	3.350632	-7.182879	361.799	1.207465	0.090479	0.090169	361.645	48991.8	0.084943	0.230129	1571.49	93306.2
323	2.000000	1.210203	7.36823e+06	-54789.1	955.819	-29743.1	0.000000	0.000000	7.226550	387.843	NaN	0.000000	0.001565	0.001649	28.0793	91.6634	0.001775	51651.1	5.964327	169.939	387.815	1.209789	0.092907	0.092493	387.843	51651.1	0.087276	0.241376	1606.8	96051.8
323	2.000000	1.212667	7.36823e+06	-54789.1	955.82	-29743.1	0.000000	0.000000	7.229690	404.27	NaN	0.000000	0.001538	0.001655	28.0786	94.8473	0.001798	52755	5.056250	-9.308542	401.801	1.212368	0.095372	0.095072	404.27	52755	0.089624	0.252954	1598.2	95833.2
323	2.000000	1.215263	7.36823e+06	-54789.1	955.82	-29743.1	0.000000	0.000000	7.233088	423.767	NaN	0.000000	0.001565	0.001635	28.0805	97.3843	0.001729	56327.4	5.227563	169.828	425.225	1.214907	0.097967	0.097612	423.767	56327.4	0.092325	0.266579	1589.65	99673.7
323	2.000000	1.217663	7.36823e+06	-54789.1	955.82	-29743.1	0.000000	0.000000	7.236414	446.291	NaN	0.000000	0.001584	0.001664	28.0799	99.1698	0.001779	55739.4	5.935873	-10.938	441.448	1.217270	0.100367	0.099975	446.291	55739.4	0.094362	0.277079	1610.7	96746.2
323	2.000000	1.220275	7.36823e+06	-54789.1	955.822	-29743.1	0.000000	0.000000	7.239813	465.427	NaN	0.000000	0.001596	0.001668	28.0799	101.039	0.001798	56190.8	3.303681	172.374	469.861	1.219728	0.102979	0.102433	465.427	56190.8	0.096767	0.289714	1606.51	95379.3
323	2.000000	1.222717	7.36823e+06	-54789.1	955.82	-29743.1	0.000000	0.000000	7.243068	485.191	NaN	0.000000	0.001633	0.001714	28.08	103.94	0.001685	61681.5	2.133098	-7.708868	484.226	1.222464	0.105421	0.105168	485.191	61681.5	0.099521	0.304513	1593.33	102123
323	2.000000	1.224680	7.36823e+06	-54789.1	955.82	-29743.1	0.000000	0.000000	7.245996	508.618	NaN	0.000000	0.001588	0.001721	28.0802	108.274	0.001863	58132	6.710377	-11.562	505.101	1.224241	0.107385	0.106945	508.618	58132	0.100823	0.311625	1632.15	95142