File: remote_trans/data/nanoindenter/0828-1/data/Data_2025-08-06,11h17m57s/2025-07-22_16-23-58_1_237.txt
2025-07-22, 16:23:58, 1
Index	Phase	Displacement	Time	Pos X	Pos Y	Pos Z	Rot A	Rot B	Piezo Z	Force A	Force B	Gripper	Voltage A	Voltage B	Temperature	Amplitude force	Amplitude pos	Stiffness	Phase shift	Phase excitation	Force A raw	Displacement raw	HMax	HMax raw	Real Force	Real Stiffness	Contact Depth	Area	Hardness	Reduced Mod.
[#]	[#]	[um]	[s]	[um]	[um]	[um]	[m°]	[m°]	[um]	[uN]	[uN]	[V]	[V]	[V]	[°C]	[uN]	[um]	[N/m]	[°]	[°]	[uN]	[um]	[um]	[um]	[uN]	[N/m]	[um]	[um^2]	[MPa]	[MPa]
237	1.000000	0.002207	7.36736e+06	-50489.1	955.818	-29755.6	0.000000	0.000000	6.002788	-0.042096	NaN	0.000000	0.001571	0.001702	28.0788	0.084268	0.001014	83.1281	-70.1072	-164.715	-0.053178	0.000926	-1.252307	-1.253588	-0.042096	83.1281	-1.251927	-5.441247E+16	7.736445E-19	NaN
237	1.000000	0.012254	7.36736e+06	-50489.1	955.82	-29755.6	0.000000	0.000000	6.012835	-0.022483	NaN	0.000000	0.001592	0.001682	28.0788	0.144900	0.001081	134.035	-169.087	21.6461	-0.119697	0.010838	-1.242260	-1.243676	-0.022483	134.035	-1.242134	-4.024361E+16	5.586617E-19	NaN
237	1.000000	0.022201	7.36736e+06	-50489.1	955.819	-29755.6	0.000000	0.000000	6.022781	-0.068453	NaN	0.000000	0.001555	0.001648	28.0786	0.124712	0.001654	75.3825	-166.16	-165.433	-0.078524	0.020871	-1.232313	-1.233643	-0.068453	75.3825	-1.231632	-2.911892E+16	2.350796E-18	NaN
237	1.000000	0.032145	7.36736e+06	-50489.1	955.818	-29755.6	0.000000	0.000000	6.032724	-0.072800	NaN	0.000000	0.001552	0.001648	28.0788	0.048942	0.001993	24.5548	7.121220	12.0794	-0.083829	0.030837	-1.222369	-1.223677	-0.072800	24.5548	-1.220146	-2.043868E+16	3.561888E-18	NaN
237	1.000000	0.042199	7.36736e+06	-50489.1	955.819	-29755.6	0.000000	0.000000	6.042781	-0.007125	NaN	0.000000	0.001544	0.001695	28.0787	0.022481	0.001908	11.7837	-31.4538	-166.25	0.009860	0.040860	-1.212315	-1.213654	-0.007125	11.7837	-1.211861	-1.583286E+16	4.500425E-19	NaN
237	1.000000	0.052208	7.36736e+06	-50489.1	955.819	-29755.6	0.000000	0.000000	6.052790	-0.007796	NaN	0.000000	0.001538	0.001673	28.0784	0.052330	0.001947	26.8744	-59.6636	13.1377	-0.117101	0.050851	-1.202306	-1.203663	-0.007796	26.8744	-1.202089	-1.171428E+16	6.655224E-19	NaN
237	1.000000	0.062178	7.36736e+06	-50489.1	955.819	-29755.6	0.000000	0.000000	6.062756	-0.102191	NaN	0.000000	0.001558	0.001680	28.0783	0.079687	0.002076	38.3814	88.8115	-164.546	-0.156164	0.060901	-1.192336	-1.193613	-0.102191	38.3814	-1.190339	-8.153950E+15	1.253272E-17	NaN
237	1.000000	0.072160	7.36736e+06	-50489.1	955.818	-29755.6	0.000000	0.000000	6.072742	-0.007180	NaN	0.000000	0.001554	0.001654	28.0782	0.022777	0.001992	11.4369	-53.5282	16.7337	-0.023910	0.070809	-1.182354	-1.183705	-0.007180	11.4369	-1.181883	-6.281928E+15	1.142989E-18	NaN
237	1.000000	0.082188	7.36736e+06	-50489.1	955.818	-29755.6	0.000000	0.000000	6.082771	0.016755	NaN	0.000000	0.001544	0.001667	28.0788	0.028116	0.002015	13.9565	-162.677	-164.547	-0.030004	0.080910	-1.172326	-1.173604	0.016755	13.9565	-1.173226	-4.809640E+15	-3.483538E-18	NaN
237	1.000000	0.092165	7.36736e+06	-50489.1	955.819	-29755.6	0.000000	0.000000	6.092749	0.043220	NaN	0.000000	0.001561	0.001658	28.0787	0.064225	0.001957	32.817	121.732	16.2832	0.019843	0.090835	-1.162349	-1.163679	0.043220	32.817	-1.163337	-3.544819E+15	-1.219252E-17	NaN
237	1.000000	0.102165	7.36736e+06	-50489.1	955.819	-29755.6	0.000000	0.000000	6.102749	0.039329	NaN	0.000000	0.001524	0.001673	28.0786	0.057883	0.001967	29.4308	26.447	-163.065	0.042676	0.100873	-1.152349	-1.153641	0.039329	29.4308	-1.153351	-2.604598E+15	-1.510001E-17	NaN
237	1.000000	0.112199	7.36736e+06	-50489.1	955.819	-29755.6	0.000000	0.000000	6.112780	-0.045695	NaN	0.000000	0.001474	0.001635	28.0785	0.073127	0.002015	36.284	-84.6832	16.7221	-0.059965	0.110835	-1.142315	-1.143679	-0.045695	36.284	-1.141370	-1.799344E+15	2.539532E-17	NaN
237	1.000000	0.122209	7.36736e+06	-50489.1	955.818	-29755.6	0.000000	0.000000	6.122790	-0.017832	NaN	0.000000	0.001523	0.001659	28.0783	0.109104	0.001964	55.5479	-61.6773	-164.105	-0.030066	0.120890	-1.132305	-1.133624	-0.017832	55.5479	-1.132065	-1.349938E+15	1.320913E-17	NaN
237	1.000000	0.132209	7.36736e+06	-50489.1	955.818	-29755.7	0.000000	0.000000	6.132791	-0.011030	NaN	0.000000	0.001544	0.001650	28.0783	0.053861	0.002041	26.3897	139.034	14.2921	-0.015994	0.130830	-1.122305	-1.123684	-0.011030	26.3897	-1.121991	-9.889800E+14	1.115325E-17	NaN
237	1.000000	0.142200	7.36736e+06	-50489.1	955.818	-29755.7	0.000000	0.000000	6.142780	-0.062676	NaN	0.000000	0.001529	0.001677	28.0796	0.123792	0.001973	62.7271	37.1522	-168.462	0.036692	0.140874	-1.112314	-1.113640	-0.062676	62.7271	-1.111565	-7.166160E+14	8.746056E-17	NaN
237	1.000000	0.152199	7.36736e+06	-50489.1	955.818	-29755.7	0.000000	0.000000	6.152783	0.034637	NaN	0.000000	0.001528	0.001679	28.0799	0.096335	0.002156	44.6844	-81.2383	17.5416	0.039095	0.150785	-1.102315	-1.103729	0.034637	44.6844	-1.102897	-5.482120E+14	-6.318155E-17	NaN
237	1.000000	0.162195	7.36736e+06	-50489.1	955.819	-29755.7	0.000000	0.000000	6.162781	0.089503	NaN	0.000000	0.001495	0.001617	28.0797	0.072068	0.001974	36.5131	-131.797	-164.576	0.064421	0.160924	-1.092319	-1.093590	0.089503	36.5131	-1.094158	-4.184421E+14	-2.138965E-16	NaN
237	1.000000	0.172219	7.36736e+06	-50489.1	955.818	-29755.7	0.000000	0.000000	6.172800	-0.032449	NaN	0.000000	0.001509	0.001675	28.0796	0.063544	0.001978	32.132	-120.079	18.5998	-0.027652	0.170869	-1.082295	-1.083645	-0.032449	32.132	-1.081537	-2.832484E+14	1.145599E-16	NaN
237	1.000000	0.182216	7.36736e+06	-50489.1	955.818	-29755.7	0.000000	0.000000	6.182797	-0.019377	NaN	0.000000	0.001515	0.001653	28.0797	0.042746	0.001938	22.0574	163.175	-167.613	0.034369	0.180901	-1.072298	-1.073613	-0.019377	22.0574	-1.071639	-2.085515E+14	9.291341E-17	NaN
237	1.000000	0.192200	7.36736e+06	-50489.1	955.819	-29755.7	0.000000	0.000000	6.192783	0.015059	NaN	0.000000	0.001558	0.001666	28.0796	0.091991	0.001979	46.4817	18.882	12.9089	-0.036184	0.190802	-1.062314	-1.063712	0.015059	46.4817	-1.062557	-1.574662E+14	-9.563200E-17	NaN
237	1.000000	0.202228	7.36736e+06	-50489.1	955.819	-29755.7	0.000000	0.000000	6.202809	-0.030309	NaN	0.000000	0.001555	0.001626	28.0795	0.053438	0.001903	28.0781	122.766	-161.67	-0.044648	0.200944	-1.052286	-1.053570	-0.030309	28.0781	-1.051477	-1.117551E+14	2.712056E-16	NaN
237	1.000000	0.212260	7.36736e+06	-50489.1	955.818	-29755.7	0.000000	0.000000	6.212840	-0.057847	NaN	0.000000	0.001561	0.001601	28.0792	0.078618	0.002017	38.9788	-169.863	12.3137	-0.097122	0.210893	-1.042254	-1.043621	-0.057847	38.9788	-1.041141	-8.115322E+13	7.128079E-16	NaN
237	1.000000	0.222232	7.36736e+06	-50489.1	955.818	-29755.7	0.000000	0.000000	6.222813	-0.017706	NaN	0.000000	0.001533	0.001615	28.0797	0.038575	0.002059	18.7353	35.5178	-165.486	-0.062099	0.220979	-1.032282	-1.033535	-0.017706	18.7353	-1.031573	-6.034521E+13	2.934077E-16	NaN
237	1.000000	0.232236	7.36736e+06	-50489.1	955.818	-29755.7	0.000000	0.000000	6.232817	-0.039814	NaN	0.000000	0.001551	0.001628	28.0795	0.046175	0.002082	22.1768	-24.1621	12.8872	-0.028481	0.230863	-1.022278	-1.023651	-0.039814	22.1768	-1.020931	-4.339917E+13	9.173863E-16	NaN
237	1.000000	0.242258	7.36736e+06	-50489.1	955.819	-29755.7	0.000000	0.000000	6.242837	-0.074401	NaN	0.000000	0.001559	0.001620	28.0798	0.043778	0.001990	21.9959	-163.384	-165.636	-0.076612	0.240933	-1.012256	-1.013581	-0.074401	21.9959	-1.009719	-3.066214E+13	2.426475E-15	NaN
237	1.000000	0.252230	7.36736e+06	-50489.1	955.818	-29755.7	0.000000	0.000000	6.252809	-0.062446	NaN	0.000000	0.001618	0.001671	28.0796	0.093998	0.002037	46.1342	37.0549	14.8443	-0.062463	0.250876	-1.002284	-1.003638	-0.062446	46.1342	-1.001269	-2.359705E+13	2.646347E-15	NaN
237	1.000000	0.262248	7.36736e+06	-50489.1	955.818	-29755.7	0.000000	0.000000	6.262824	-0.150227	NaN	0.000000	0.001646	0.001641	28.0813	0.093228	0.001978	47.1214	127.103	-165.174	-0.089211	0.260917	-0.992266	-0.993597	-0.150227	47.1214	-0.989875	-1.657415E+13	9.063922E-15	NaN
237	1.000000	0.272261	7.36736e+06	-50489.1	955.819	-29755.7	0.000000	0.000000	6.272843	-0.024401	NaN	0.000000	0.001674	0.001620	28.0784	0.061626	0.001947	31.6522	-39.1809	14.6733	0.019679	0.270900	-0.982253	-0.983614	-0.024401	31.6522	-0.981674	-1.285195E+13	1.898633E-15	NaN
237	1.000000	0.282249	7.36736e+06	-50489.1	955.818	-29755.7	0.000000	0.000000	6.282828	-0.099727	NaN	0.000000	0.001655	0.001654	28.0789	0.028584	0.001913	14.9446	-36.8674	-165.443	-0.101439	0.280962	-0.972265	-0.973552	-0.099727	14.9446	-0.967260	-8.217321E+12	1.213618E-14	NaN
237	1.000000	0.292275	7.36736e+06	-50489.1	955.819	-29755.7	0.000000	0.000000	6.292857	-0.000361	NaN	0.000000	0.001695	0.001643	28.0785	0.085547	0.001940	44.0995	-168.272	13.4403	0.017165	0.290915	-0.962239	-0.963599	-0.000361	44.0995	-0.962233	-7.030222E+12	5.139875E-17	NaN
237	1.000000	0.302265	7.36736e+06	-50489.1	955.819	-29755.7	0.000000	0.000000	6.302848	0.018829	NaN	0.000000	0.001624	0.001644	28.0796	0.109238	0.001998	54.6603	-83.7357	-163.094	-0.010365	0.301030	-0.952249	-0.953484	0.018829	54.6603	-0.952507	-5.198043E+12	-3.622344E-15	NaN
237	1.000000	0.312258	7.36736e+06	-50489.1	955.819	-29755.7	0.000000	0.000000	6.312841	0.005412	NaN	0.000000	0.001595	0.001613	28.0784	0.046398	0.001864	24.8869	-79.5501	13.9515	0.023894	0.310987	-0.942256	-0.943527	0.005412	24.8869	-0.942419	-3.799871E+12	-1.424191E-15	NaN
237	1.000000	0.322285	7.36736e+06	-50489.1	955.818	-29755.7	0.000000	0.000000	6.322867	-0.014635	NaN	0.000000	0.001595	0.001625	28.0787	0.038997	0.002068	18.8578	42.9225	-163.715	0.012502	0.320992	-0.932229	-0.933522	-0.014635	18.8578	-0.931647	-2.719079E+12	5.382343E-15	NaN
237	1.000000	0.332280	7.36736e+06	-50489.1	955.818	-29755.7	0.000000	0.000000	6.332858	-0.086081	NaN	0.000000	0.001604	0.001650	28.0785	0.044836	0.002018	22.2169	-108.242	17.1893	-0.054565	0.330949	-0.922234	-0.923565	-0.086081	22.2169	-0.919328	-1.854122E+12	4.642701E-14	NaN
237	1.000000	0.342308	7.36736e+06	-50489.1	955.818	-29755.7	0.000000	0.000000	6.342891	0.022424	NaN	0.000000	0.001643	0.001659	28.0787	0.046110	0.001944	23.725	139.983	-163.586	0.050038	0.341011	-0.912206	-0.913503	0.022424	23.725	-0.912915	-1.518930E+12	-1.476320E-14	NaN
237	1.000000	0.352312	7.36737e+06	-50489.1	955.819	-29755.7	0.000000	0.000000	6.352893	-0.040802	NaN	0.000000	0.001615	0.001642	28.0783	0.050988	0.002091	24.3896	-29.4763	14.3005	0.050474	0.350916	-0.902202	-0.903598	-0.040802	24.3896	-0.900947	-1.046799E+12	3.897752E-14	NaN
237	1.000000	0.362324	7.36737e+06	-50489.1	955.818	-29755.7	0.000000	0.000000	6.362904	-0.068771	NaN	0.000000	0.001609	0.001594	28.0785	0.090587	0.001982	45.7117	-118.474	-162.884	-0.028347	0.360971	-0.892190	-0.893543	-0.068771	45.7117	-0.891062	-7.696013E+11	8.935878E-14	NaN
237	1.000000	0.372309	7.36737e+06	-50489.1	955.819	-29755.7	0.000000	0.000000	6.372890	-0.054596	NaN	0.000000	0.001584	0.001638	28.0786	0.071399	0.001977	36.1154	178.437	12.1166	0.010112	0.370957	-0.882205	-0.883557	-0.054596	36.1154	-0.881071	-5.638829E+11	9.682210E-14	NaN
237	1.000000	0.382301	7.36737e+06	-50489.1	955.817	-29755.7	0.000000	0.000000	6.382883	-0.024390	NaN	0.000000	0.001624	0.001633	28.0789	0.029426	0.002039	14.4297	-157.04	-163.862	0.003723	0.381035	-0.872213	-0.873479	-0.024390	14.4297	-0.870945	-4.113681E+11	5.928918E-14	NaN
237	1.000000	0.392319	7.36737e+06	-50489.1	955.818	-29755.7	0.000000	0.000000	6.392902	0.009396	NaN	0.000000	0.001579	0.001593	28.0789	0.078945	0.001843	42.8275	-2.414996	14.628	-0.047905	0.390966	-0.862195	-0.863548	0.009396	42.8275	-0.862359	-3.148131E+11	-2.984582E-14	NaN
237	1.000000	0.402301	7.36737e+06	-50489.1	955.817	-29755.7	0.000000	0.000000	6.402884	-0.004175	NaN	0.000000	0.001583	0.001630	28.0788	0.101832	0.002116	48.1212	81.7067	-168.64	0.020945	0.401001	-0.852213	-0.853513	-0.004175	48.1212	-0.852148	-2.289902E+11	1.823391E-14	NaN
237	1.000000	0.412321	7.36737e+06	-50489.1	955.818	-29755.7	0.000000	0.000000	6.412898	-0.146129	NaN	0.000000	0.001580	0.001675	28.08	0.071378	0.001980	36.0517	25.2856	14.8045	-0.104476	0.410984	-0.842193	-0.843530	-0.146129	36.0517	-0.839153	-1.526907E+11	9.570252E-13	NaN
237	1.000000	0.422306	7.36737e+06	-50489.1	955.819	-29755.7	0.000000	0.000000	6.422888	-8.936235E-5	NaN	0.000000	0.001560	0.001627	28.0799	0.076002	0.002033	37.392	-162.97	-165.874	0.004156	0.421049	-0.832208	-0.833465	-8.936235E-5	37.392	-0.832206	-1.229390E+11	7.268835E-16	NaN
237	1.000000	0.432355	7.36737e+06	-50489.1	955.817	-29755.7	0.000000	0.000000	6.432934	-0.077519	NaN	0.000000	0.001558	0.001671	28.0798	0.031248	0.001916	16.3086	102.868	14.0846	-0.023215	0.430974	-0.822159	-0.823540	-0.077519	16.3086	-0.818594	-8.037888E+10	9.644166E-13	NaN
237	1.000000	0.442335	7.36737e+06	-50489.1	955.819	-29755.7	0.000000	0.000000	6.442917	0.006019	NaN	0.000000	0.001558	0.001658	28.0798	0.136153	0.002030	67.0585	-44.305	-167.72	0.025062	0.441047	-0.812179	-0.813467	0.006019	67.0585	-0.812247	-6.592502E+10	-9.130491E-14	NaN
237	1.000000	0.452316	7.36737e+06	-50489.1	955.818	-29755.7	0.000000	0.000000	6.452896	-0.047959	NaN	0.000000	0.001550	0.001620	28.0797	0.044506	0.002124	20.9566	-161.145	14.8695	-0.091146	0.450949	-0.802198	-0.803565	-0.047959	20.9566	-0.800482	-4.564646E+10	1.050662E-12	NaN
237	1.000000	0.462324	7.36737e+06	-50489.1	955.818	-29755.7	0.000000	0.000000	6.462906	0.004041	NaN	0.000000	0.001554	0.001647	28.0797	0.112999	0.002093	53.9834	145.767	-166.672	0.012197	0.461096	-0.792190	-0.793418	0.004041	53.9834	-0.792246	-3.528489E+10	-1.145331E-13	NaN
237	1.000000	0.472354	7.36737e+06	-50489.1	955.818	-29755.7	0.000000	0.000000	6.472937	0.005841	NaN	0.000000	0.001576	0.001655	28.0797	0.069671	0.002103	33.1351	-168.89	13.4052	-0.012617	0.470984	-0.782160	-0.783530	0.005841	33.1351	-0.782292	-2.584491E+10	-2.259971E-13	NaN
237	1.000000	0.482365	7.36737e+06	-50489.1	955.818	-29755.7	0.000000	0.000000	6.482946	-0.027503	NaN	0.000000	0.001500	0.001641	28.0799	0.060590	0.001940	31.2359	0.854575	-166.889	0.040032	0.480999	-0.772149	-0.773515	-0.027503	31.2359	-0.771489	-1.843106E+10	1.492216E-12	NaN
237	1.000000	0.492365	7.36737e+06	-50489.1	955.818	-29755.7	0.000000	0.000000	6.492946	-0.031198	NaN	0.000000	0.001541	0.001641	28.0801	0.064435	0.001990	32.3719	26.9153	15.0468	-0.013308	0.490980	-0.762149	-0.763534	-0.031198	32.3719	-0.761427	-1.344957E+10	2.319599E-12	NaN
237	1.000000	0.502338	7.36737e+06	-50489.1	955.82	-29755.7	0.000000	0.000000	6.502921	0.013686	NaN	0.000000	0.001574	0.001669	28.0799	0.136167	0.002076	65.583	154.724	-167.307	0.003594	0.501098	-0.752176	-0.753416	0.013686	65.583	-0.752332	-1.011495E+10	-1.353004E-12	NaN
237	1.000000	0.512382	7.36737e+06	-50489.1	955.817	-29755.7	0.000000	0.000000	6.512962	-0.047308	NaN	0.000000	0.001553	0.001669	28.08	0.047616	0.001998	23.8365	-109.068	12.4465	-0.015238	0.511007	-0.742132	-0.743507	-0.047308	23.8365	-0.740644	-7.011672E+9	6.747078E-12	NaN
237	1.000000	0.522362	7.36737e+06	-50489.1	955.819	-29755.7	0.000000	0.000000	6.522946	0.031749	NaN	0.000000	0.001563	0.001656	28.0801	0.131539	0.001951	67.4154	-2.952361	-165.751	-0.011406	0.521107	-0.732152	-0.733407	0.031749	67.4154	-0.732505	-5.431828E+9	-5.844976E-12	NaN
237	1.000000	0.532373	7.36737e+06	-50489.1	955.82	-29755.7	0.000000	0.000000	6.532955	-0.003423	NaN	0.000000	0.001512	0.001668	28.0801	0.073343	0.001986	36.9342	-141.925	15.5203	-0.077140	0.531053	-0.722141	-0.723461	-0.003423	36.9342	-0.722072	-3.914955E+9	8.742894E-13	NaN
237	1.000000	0.542380	7.36737e+06	-50489.1	955.819	-29755.7	0.000000	0.000000	6.542960	-0.068987	NaN	0.000000	0.001552	0.001652	28.0797	0.053659	0.002019	26.5751	-55.5476	-164.206	-0.021925	0.541004	-0.712134	-0.713510	-0.068987	26.5751	-0.710187	-2.695248E+9	2.559572E-11	NaN
237	1.000000	0.552380	7.36737e+06	-50489.1	955.818	-29755.7	0.000000	0.000000	6.552962	-0.018428	NaN	0.000000	0.001570	0.001645	28.0791	0.091560	0.001914	47.8487	27.3202	14.4599	-0.112581	0.551024	-0.702134	-0.703490	-0.018428	47.8487	-0.701845	-2.073609E+9	8.887149E-12	NaN
237	1.000000	0.562386	7.36737e+06	-50489.1	955.818	-29755.7	0.000000	0.000000	6.562970	0.032150	NaN	0.000000	0.001571	0.001631	28.079	0.104839	0.002037	51.459	-114.393	-163.055	-0.035849	0.561155	-0.692128	-0.693359	0.032150	51.459	-0.692597	-1.550241E+9	-2.073862E-11	NaN
237	1.000000	0.572417	7.36737e+06	-50489.1	955.819	-29755.7	0.000000	0.000000	6.573001	0.025991	NaN	0.000000	0.001540	0.001665	28.0791	0.052256	0.002046	25.5465	-115.708	16.7906	-0.019005	0.571048	-0.682097	-0.683466	0.025991	25.5465	-0.682860	-1.141075E+9	-2.277739E-11	NaN
237	1.000000	0.582374	7.36737e+06	-50489.1	955.818	-29755.7	0.000000	0.000000	6.582954	-0.069805	NaN	0.000000	0.001572	0.001666	28.079	0.149209	0.001988	75.0441	112.278	-166.652	-0.065555	0.581110	-0.672140	-0.673404	-0.069805	75.0441	-0.671442	-7.963889E+8	8.765160E-11	NaN
237	1.000000	0.592400	7.36737e+06	-50489.1	955.819	-29755.7	0.000000	0.000000	6.592980	-0.065192	NaN	0.000000	0.001583	0.001633	28.0792	0.015003	0.001959	7.656990	108.902	13.0017	-0.116365	0.591058	-0.662114	-0.663456	-0.065192	7.656990	-0.655728	-4.852294E+8	1.343527E-10	NaN
237	1.000000	0.602416	7.36737e+06	-50489.1	955.818	-29755.7	0.000000	0.000000	6.602994	-0.091766	NaN	0.000000	0.001617	0.001666	28.0792	0.058498	0.001907	30.6795	83.6142	-165.775	-0.086891	0.601059	-0.652098	-0.653455	-0.091766	30.6795	-0.649855	-4.031327E+8	2.276329E-10	NaN
237	1.000000	0.612412	7.36737e+06	-50489.1	955.818	-29755.7	0.000000	0.000000	6.612997	0.055834	NaN	0.000000	0.001552	0.001652	28.079	0.085258	0.002072	41.1473	-103.694	15.1178	0.035864	0.611050	-0.642102	-0.643464	0.055834	41.1473	-0.643120	-3.259019E+8	-1.713209E-10	NaN
237	1.000000	0.622407	7.36737e+06	-50489.1	955.819	-29755.7	0.000000	0.000000	6.622986	-0.091861	NaN	0.000000	0.001616	0.001655	28.0789	0.112943	0.002090	54.0369	-64.1855	-162.937	-0.110948	0.621152	-0.632107	-0.633362	-0.091861	54.0369	-0.630832	-2.210288E+8	4.156051E-10	NaN
237	1.000000	0.632414	7.36737e+06	-50489.1	955.818	-29755.7	0.000000	0.000000	6.632994	-0.051700	NaN	0.000000	0.001603	0.001665	28.0792	0.091421	0.002052	44.5584	-45.8524	14.7539	-0.132097	0.631044	-0.622100	-0.623470	-0.051700	44.5584	-0.621230	-1.631312E+8	3.169211E-10	NaN
237	1.000000	0.642397	7.36737e+06	-50489.1	955.819	-29755.7	0.000000	0.000000	6.642978	-0.037487	NaN	0.000000	0.001588	0.001635	28.079	0.092596	0.001945	47.5999	11.1301	-166.744	-0.068383	0.641097	-0.612117	-0.613417	-0.037487	47.5999	-0.611526	-1.199802E+8	3.124450E-10	NaN
237	1.000000	0.652418	7.36737e+06	-50489.1	955.818	-29755.7	0.000000	0.000000	6.652996	-0.112915	NaN	0.000000	0.001583	0.001645	28.0793	0.072859	0.001985	36.7004	96.7599	17.8422	-0.114032	0.651088	-0.602096	-0.603426	-0.112915	36.7004	-0.599788	-8.270713E+7	1.365243E-9	NaN
237	1.000000	0.662436	7.36737e+06	-50489.1	955.817	-29755.7	0.000000	0.000000	6.663018	-0.006454	NaN	0.000000	0.001550	0.001597	28.0788	0.067267	0.001969	34.1705	-82.9306	-167.16	0.026338	0.661133	-0.592078	-0.593381	-0.006454	34.1705	-0.591936	-6.446985E+7	1.001123E-10	NaN
237	1.000000	0.672436	7.36737e+06	-50489.1	955.818	-29755.7	0.000000	0.000000	6.673014	-0.105398	NaN	0.000000	0.001544	0.001601	28.0794	0.131916	0.001874	70.3816	149.685	12.0246	-0.001063	0.671084	-0.582078	-0.583430	-0.105398	70.3816	-0.580955	-4.548851E+7	2.317024E-9	NaN
237	1.000000	0.682454	7.36737e+06	-50489.1	955.819	-29755.7	0.000000	0.000000	6.683035	-0.042337	NaN	0.000000	0.001581	0.001650	28.0802	0.144720	0.002042	70.8728	53.2019	-163.364	-0.084614	0.681166	-0.572060	-0.573348	-0.042337	70.8728	-0.571612	-3.379882E+7	1.252612E-9	NaN
237	1.000000	0.692430	7.36737e+06	-50489.1	955.819	-29755.7	0.000000	0.000000	6.693011	-0.029028	NaN	0.000000	0.001610	0.001641	28.0803	0.079993	0.001969	40.6264	-108.739	10.6876	0.027837	0.691071	-0.562084	-0.563443	-0.029028	40.6264	-0.561548	-2.453513E+7	1.183126E-9	NaN
237	1.000000	0.702438	7.36737e+06	-50489.1	955.819	-29755.7	0.000000	0.000000	6.703017	-0.088360	NaN	0.000000	0.001551	0.001686	28.0802	0.100168	0.002027	49.4148	-85.935	-168.693	-0.082218	0.701111	-0.552076	-0.553403	-0.088360	49.4148	-0.550734	-1.738317E+7	5.083061E-9	NaN
237	1.000000	0.712435	7.36737e+06	-50489.1	955.817	-29755.7	0.000000	0.000000	6.713020	0.058052	NaN	0.000000	0.001608	0.001675	28.0802	0.107284	0.001980	54.1816	-106.964	16.2455	-0.022547	0.711082	-0.542079	-0.543432	0.058052	54.1816	-0.542883	-1.353093E+7	-4.290302E-9	NaN
237	1.000000	0.722430	7.36737e+06	-50489.1	955.818	-29755.7	0.000000	0.000000	6.723014	0.024890	NaN	0.000000	0.001625	0.001678	28.0802	0.095779	0.002107	45.4532	77.2604	-168.714	0.041014	0.721143	-0.532084	-0.533371	0.024890	45.4532	-0.532494	-9.70984e+06	-2.563374E-9	NaN
237	1.000000	0.732447	7.36737e+06	-50489.1	955.818	-29755.7	0.000000	0.000000	6.733028	-0.023418	NaN	0.000000	0.001619	0.001685	28.0801	0.034581	0.001890	18.2984	-18.0536	14.3541	-0.065746	0.731177	-0.522067	-0.523337	-0.023418	18.2984	-0.521108	-6.74529e+06	3.471726E-9	NaN
237	1.000000	0.742431	7.36737e+06	-50489.1	955.818	-29755.7	0.000000	0.000000	6.743013	0.002212	NaN	0.000000	0.001599	0.001660	28.0804	0.062917	0.002013	31.2594	-136.761	-164.094	0.017093	0.741136	-0.512083	-0.513378	0.002212	31.2594	-0.512136	-5.06022e+06	-4.372053E-10	NaN
237	1.000000	0.752457	7.36737e+06	-50489.1	955.818	-29755.7	0.000000	0.000000	6.753040	0.008434	NaN	0.000000	0.001557	0.001657	28.0804	0.014511	0.001964	7.387872	74.3672	14.3255	0.044166	0.751096	-0.502057	-0.503418	0.008434	7.387872	-0.502913	-3.76402e+06	-2.240717E-9	NaN
237	1.000000	0.762469	7.36737e+06	-50489.1	955.818	-29755.7	0.000000	0.000000	6.763052	0.030294	NaN	0.000000	0.001622	0.001628	28.0805	0.083612	0.002003	41.7332	-0.393814	-166.078	0.055028	0.761142	-0.492045	-0.493372	0.030294	41.7332	-0.492590	-2.7013e+06	-1.121476E-8	NaN
237	1.000000	0.772468	7.36737e+06	-50489.1	955.819	-29755.7	0.000000	0.000000	6.773049	-0.021991	NaN	0.000000	0.001538	0.001644	28.0802	0.026802	0.001945	13.7792	-57.9356	14.7469	-0.002974	0.771120	-0.482046	-0.483394	-0.021991	13.7792	-0.480849	-1.85104e+06	1.188018E-8	NaN
237	1.000000	0.782457	7.36737e+06	-50489.1	955.819	-29755.7	0.000000	0.000000	6.783038	-0.026957	NaN	0.000000	0.001525	0.001628	28.0809	0.047982	0.002036	23.561	-94.6256	-163.254	0.059645	0.781130	-0.472057	-0.473384	-0.026957	23.561	-0.471199	-1.35587e+06	1.988149E-8	NaN
237	1.000000	0.792490	7.36737e+06	-50489.1	955.819	-29755.7	0.000000	0.000000	6.793070	-0.044888	NaN	0.000000	0.001587	0.001617	28.0803	0.057957	0.001890	30.6598	-15.7247	11.4647	0.013064	0.791117	-0.462024	-0.463397	-0.044888	30.6598	-0.460926	-972817	4.614238E-8	NaN
237	1.000000	0.802473	7.36737e+06	-50489.1	955.818	-29755.7	0.000000	0.000000	6.803054	-0.042627	NaN	0.000000	0.001539	0.001616	28.0805	0.091936	0.001896	48.4793	153.7	-168.905	-0.028569	0.801168	-0.452041	-0.453346	-0.042627	48.4793	-0.451381	-714155	5.968877E-8	NaN
237	1.000000	0.812491	7.36737e+06	-50489.1	955.818	-29755.7	0.000000	0.000000	6.813071	-0.043373	NaN	0.000000	0.001572	0.001627	28.0804	0.042499	0.002103	20.2105	67.4751	15.0517	-0.081764	0.811134	-0.442023	-0.443380	-0.043373	20.2105	-0.440414	-500270	8.669952E-8	NaN
237	1.000000	0.822504	7.36737e+06	-50489.1	955.819	-29755.7	0.000000	0.000000	6.823087	0.021711	NaN	0.000000	0.001606	0.001615	28.0791	0.109992	0.002079	52.9036	-176.603	-164.54	-0.017899	0.821191	-0.432010	-0.433323	0.021711	52.9036	-0.432318	-384453	-5.647369E-8	NaN
237	1.000000	0.832487	7.36737e+06	-50489.1	955.818	-29755.7	0.000000	0.000000	6.833069	-0.010738	NaN	0.000000	0.001559	0.001630	28.079	0.094525	0.001998	47.3076	149.584	17.4489	-0.027862	0.831115	-0.422027	-0.423399	-0.010738	47.3076	-0.421857	-273366	3.928242E-8	NaN
237	1.000000	0.842507	7.36737e+06	-50489.1	955.819	-29755.7	0.000000	0.000000	6.843089	-0.004709	NaN	0.000000	0.001574	0.001622	28.0794	0.090697	0.002058	44.0604	-146.608	-162.133	-0.042099	0.841194	-0.412007	-0.413320	-0.004709	44.0604	-0.411926	-197601	2.383231E-8	NaN
237	1.000000	0.852508	7.36737e+06	-50489.1	955.819	-29755.7	0.000000	0.000000	6.853088	-0.044063	NaN	0.000000	0.001583	0.001644	28.0794	0.070901	0.002040	34.7543	-145.952	12.694	-0.066996	0.851174	-0.402006	-0.403340	-0.044063	34.7543	-0.401055	-138370	3.184438E-7	NaN
237	1.000000	0.862506	7.36737e+06	-50489.1	955.818	-29755.7	0.000000	0.000000	6.863088	-0.013217	NaN	0.000000	0.001578	0.001623	28.0791	0.051540	0.001916	26.9025	57.4262	-165.818	-0.019436	0.861244	-0.392008	-0.393270	-0.013217	26.9025	-0.391639	-101534	1.301759E-7	NaN
237	1.000000	0.872513	7.36737e+06	-50489.1	955.82	-29755.7	0.000000	0.000000	6.873092	-0.065673	NaN	0.000000	0.001526	0.001619	28.079	0.172564	0.002107	81.9148	-57.6318	14.7962	-0.065805	0.871180	-0.382001	-0.383334	-0.065673	81.9148	-0.381400	-72439.8	9.065911E-7	NaN
237	1.000000	0.882523	7.36737e+06	-50489.1	955.819	-29755.7	0.000000	0.000000	6.883102	-0.065701	NaN	0.000000	0.001577	0.001637	28.0794	0.044657	0.002018	22.1271	-15.1443	-165.404	-0.014323	0.881259	-0.371991	-0.373255	-0.065701	22.1271	-0.369764	-49287.2	1.333033E-6	NaN
237	1.000000	0.892521	7.36737e+06	-50489.1	955.819	-29755.7	0.000000	0.000000	6.893102	-0.043008	NaN	0.000000	0.001582	0.001609	28.0789	0.041593	0.001936	21.4833	-11.5934	13.6783	0.004837	0.891122	-0.361993	-0.363392	-0.043008	21.4833	-0.360491	-36220	1.187398E-6	NaN
237	1.000000	0.902518	7.36737e+06	-50489.1	955.818	-29755.7	0.000000	0.000000	6.903101	0.012390	NaN	0.000000	0.001591	0.001627	28.0793	0.104634	0.001920	54.4936	-144.125	-169.708	0.062258	0.901184	-0.351996	-0.353330	0.012390	54.4936	-0.352166	-27442.7	-4.514876E-7	NaN
237	1.000000	0.912503	7.36737e+06	-50489.1	955.819	-29755.7	0.000000	0.000000	6.913086	-0.001211	NaN	0.000000	0.001599	0.001656	28.0791	0.021741	0.002012	10.8079	-97.7053	14.1588	0.031481	0.911182	-0.342011	-0.343332	-0.001211	10.8079	-0.341926	-19481.5	6.218534E-8	NaN
237	1.000000	0.922526	7.36737e+06	-50489.1	955.82	-29755.7	0.000000	0.000000	6.923112	0.068316	NaN	0.000000	0.001550	0.001594	28.0794	0.045324	0.002061	21.9943	-97.1162	-163.75	0.009772	0.921249	-0.331988	-0.333265	0.068316	21.9943	-0.334317	-15087.2	-4.528070E-6	NaN
237	1.000000	0.932520	7.36737e+06	-50489.1	955.819	-29755.7	0.000000	0.000000	6.933099	-0.097409	NaN	0.000000	0.001562	0.001629	28.079	0.057340	0.001946	29.4692	-30.7514	14.3552	-0.071554	0.931196	-0.321994	-0.323318	-0.097409	29.4692	-0.319515	-9151.52	1.064397E-5	NaN
237	1.000000	0.942539	7.36737e+06	-50489.1	955.818	-29755.7	0.000000	0.000000	6.943121	-0.000774	NaN	0.000000	0.001536	0.001630	28.0794	0.066396	0.002164	30.6786	120.785	-165.538	-0.061152	0.941249	-0.311975	-0.313265	-0.000774	30.6786	-0.311956	-7079.21	1.093885E-7	NaN
237	1.000000	0.952581	7.36737e+06	-50489.1	955.82	-29755.7	0.000000	0.000000	6.953160	-0.093961	NaN	0.000000	0.001565	0.001656	28.0794	0.014622	0.001886	7.752881	128.349	15.7119	-0.012164	0.951190	-0.301933	-0.303324	-0.093961	7.752881	-0.292843	-3680.07	2.553230E-5	NaN
237	1.000000	0.962551	7.36737e+06	-50489.1	955.819	-29755.7	0.000000	0.000000	6.963132	-0.026145	NaN	0.000000	0.001566	0.001638	28.0806	0.138145	0.001946	70.9835	-145.856	-166.173	-0.091018	0.961198	-0.291963	-0.293316	-0.026145	70.9835	-0.291687	-3536.39	7.393178E-6	NaN
237	1.000000	0.972554	7.36737e+06	-50489.1	955.818	-29755.7	0.000000	0.000000	6.973138	0.025532	NaN	0.000000	0.001518	0.001669	28.0805	0.060567	0.002032	29.802	131.643	13.6934	-0.053816	0.971171	-0.281960	-0.283343	0.025532	29.802	-0.282602	-2583.41	-9.883198E-6	NaN
237	1.000000	0.982554	7.36737e+06	-50489.1	955.819	-29755.7	0.000000	0.000000	6.983134	-0.056159	NaN	0.000000	0.001538	0.001649	28.0806	0.105049	0.001895	55.4284	167.948	-163.283	-0.077738	0.981246	-0.271960	-0.273268	-0.056159	55.4284	-0.271200	-1736.9	3.233321E-5	NaN
237	1.000000	0.992558	7.36737e+06	-50489.1	955.819	-29755.7	0.000000	0.000000	6.993140	0.003708	NaN	0.000000	0.001536	0.001671	28.0804	0.093528	0.001971	47.4473	115.937	15.5599	0.034117	0.991173	-0.261956	-0.263341	0.003708	47.4473	-0.262015	-1258.26	-2.947141E-6	NaN
237	1.000000	1.002564	7.36737e+06	-50489.1	955.819	-29755.7	0.000000	0.000000	7.003141	-0.123542	NaN	0.000000	0.001536	0.001669	28.0806	0.027825	0.002054	13.5482	-108.481	-167.77	-0.166392	1.001313	-0.251950	-0.253201	-0.123542	13.5482	-0.245111	-690.529	0.000179	NaN
237	1.000000	1.012548	7.36737e+06	-50489.1	955.819	-29755.7	0.000000	0.000000	7.013126	-0.115481	NaN	0.000000	0.001569	0.001609	28.0803	0.035448	0.001963	18.0558	-163.576	12.2525	-0.021685	1.011199	-0.241966	-0.243315	-0.115481	18.0558	-0.237169	-519.116	0.000222	NaN
237	1.000000	1.022564	7.36737e+06	-50489.1	955.819	-29755.7	0.000000	0.000000	7.023146	-0.021026	NaN	0.000000	0.001574	0.001648	28.0804	0.124228	0.001949	63.7354	35.865	-162.893	-0.008487	1.021270	-0.231950	-0.233244	-0.021026	63.7354	-0.231702	-425.962	4.936060E-5	NaN
237	1.000000	1.032541	7.36737e+06	-50489.1	955.819	-29755.7	0.000000	0.000000	7.033123	-0.016925	NaN	0.000000	0.001565	0.001654	28.0804	0.053053	0.001953	27.1628	-134.703	18.9683	-0.143314	1.031210	-0.221973	-0.223304	-0.016925	27.1628	-0.221505	-293.569	5.765360E-5	NaN
237	1.000000	1.042590	7.36737e+06	-50489.1	955.82	-29755.7	0.000000	0.000000	7.043170	-0.050592	NaN	0.000000	0.001571	0.001629	28.0806	0.052823	0.002045	25.8315	42.8701	-163.83	-0.113051	1.041250	-0.211924	-0.213264	-0.050592	25.8315	-0.210455	-195.07	0.000259	NaN
237	1.000000	1.052575	7.36737e+06	-50489.1	955.818	-29755.7	0.000000	0.000000	7.053155	-0.045457	NaN	0.000000	0.001543	0.001656	28.0815	0.015369	0.002078	7.396059	-6.022600	12.6746	-0.018062	1.051179	-0.201939	-0.203335	-0.045457	7.396059	-0.197329	-119.047	0.000382	NaN
237	1.000000	1.062615	7.36737e+06	-50489.1	955.818	-29755.7	0.000000	0.000000	7.063193	-0.087946	NaN	0.000000	0.001530	0.001657	28.0804	0.081605	0.001878	43.4432	116.033	-166.155	-0.067360	1.061301	-0.191899	-0.193213	-0.087946	43.4432	-0.190381	-91.2838	0.000963	NaN
237	1.000000	1.072569	7.36737e+06	-50489.1	955.819	-29755.7	0.000000	0.000000	7.073149	-0.060156	NaN	0.000000	0.001578	0.001644	28.0806	0.084156	0.002079	40.4747	-34.25	14.8066	-0.054709	1.071224	-0.181945	-0.183290	-0.060156	40.4747	-0.180830	-63.0352	0.000954	NaN
237	1.000000	1.082573	7.36737e+06	-50489.1	955.819	-29755.7	0.000000	0.000000	7.083154	-0.019701	NaN	0.000000	0.001538	0.001654	28.0803	0.056423	0.001892	29.8229	-17.6143	-166.447	0.007335	1.081281	-0.171941	-0.173233	-0.019701	29.8229	-0.171446	-43.5194	0.000453	NaN
237	1.000000	1.092623	7.36737e+06	-50489.1	955.819	-29755.7	0.000000	0.000000	7.093203	-0.058328	NaN	0.000000	0.001556	0.001679	28.0794	0.076978	0.002074	37.1082	104.203	13.1336	-0.126013	1.091196	-0.161891	-0.163318	-0.058328	37.1082	-0.160712	-28.2246	0.002067	NaN
237	1.000000	1.102612	7.36737e+06	-50489.1	955.818	-29755.7	0.000000	0.000000	7.103194	-0.018460	NaN	0.000000	0.001544	0.001670	28.0791	0.070129	0.002011	34.8695	1.354562	-165.037	-0.028837	1.101274	-0.151902	-0.153240	-0.018460	34.8695	-0.151505	-19.2925	0.000957	NaN
237	1.000000	1.112620	7.36737e+06	-50489.1	955.819	-29755.7	0.000000	0.000000	7.113202	-0.005478	NaN	0.000000	0.001558	0.001681	28.0796	0.017203	0.001917	8.973449	-34.9416	16.483	0.034276	1.111239	-0.141894	-0.143275	-0.005478	8.973449	-0.141437	-12.5861	0.000435	NaN
237	1.000000	1.122612	7.36737e+06	-50489.1	955.819	-29755.7	0.000000	0.000000	7.123195	0.018996	NaN	0.000000	0.001533	0.001666	28.0791	0.065291	0.002009	32.5057	151.195	-167.795	0.028121	1.121323	-0.131902	-0.133191	0.018996	32.5057	-0.132340	-8.458184	-0.002246	NaN
237	1.000000	1.132613	7.36737e+06	-50489.1	955.819	-29755.7	0.000000	0.000000	7.133193	-0.060047	NaN	0.000000	0.001535	0.001696	28.0791	0.012499	0.002062	6.060771	-98.5052	12.2423	-0.122243	1.131288	-0.121901	-0.123226	-0.060047	6.060771	-0.114470	-3.725419	0.016118	NaN
237	1.000000	1.142639	7.36737e+06	-50489.1	955.819	-29755.7	0.000000	0.000000	7.143222	-0.000367	NaN	0.000000	0.001551	0.001639	28.079	0.018138	0.002000	9.068216	-14.455	-164.3	0.003105	1.141288	-0.111875	-0.113226	-0.000367	9.068216	-0.111844	-3.285443	0.000112	NaN
237	1.000000	1.152626	7.36737e+06	-50489.1	955.819	-29755.7	0.000000	0.000000	7.153209	0.006440	NaN	0.000000	0.001561	0.001669	28.0791	0.126328	0.002090	60.4413	89.5734	12.2753	0.054974	1.151248	-0.101888	-0.103266	0.006440	60.4413	-0.101968	-2.019118	-0.003190	NaN
237	1.000000	1.162621	7.36737e+06	-50489.1	955.819	-29755.7	0.000000	0.000000	7.163203	0.003666	NaN	0.000000	0.001560	0.001675	28.079	0.083781	0.001957	42.8165	-33.7803	-166.217	0.025445	1.161331	-0.091893	-0.093183	0.003666	42.8165	-0.091957	-1.200803	-0.003053	NaN
237	1.000000	1.172634	7.36737e+06	-50489.1	955.819	-29755.7	0.000000	0.000000	7.173218	0.036950	NaN	0.000000	0.001573	0.001616	28.0792	0.041224	0.002018	20.4295	24.6759	11.8139	0.036614	1.171262	-0.081880	-0.083252	0.036950	20.4295	-0.083236	-0.744301	-0.049644	NaN
237	1.000000	1.182656	7.36737e+06	-50489.1	955.819	-29755.7	0.000000	0.000000	7.183237	-0.026756	NaN	0.000000	0.001580	0.001624	28.079	0.032320	0.002110	15.32	176.585	-170.677	-0.022863	1.181322	-0.071858	-0.073192	-0.026756	15.32	-0.070548	-0.352821	0.075834	NaN
237	1.000000	1.192602	7.36737e+06	-50489.1	955.819	-29755.7	0.000000	0.000000	7.193185	0.003393	NaN	0.000000	0.001550	0.001601	28.0795	0.024745	0.001988	12.4441	-144.836	14.9478	-0.079551	1.191268	-0.061912	-0.063246	0.003393	12.4441	-0.062116	-0.206911	-0.016398	NaN
237	1.000000	1.202632	7.36737e+06	-50489.1	955.82	-29755.7	0.000000	0.000000	7.203215	0.009479	NaN	0.000000	0.001551	0.001596	28.0791	0.008328	0.002139	3.893540	125.306	-165.517	0.011989	1.201298	-0.051882	-0.053216	0.009479	3.893540	-0.053708	-0.117901	-0.080399	NaN
237	1.000000	1.212653	7.36737e+06	-50489.1	955.819	-29755.7	0.000000	0.000000	7.213237	0.031818	NaN	0.000000	0.001560	0.001633	28.079	0.040026	0.002059	19.4432	-149.808	13.9006	0.075101	1.211242	-0.041861	-0.043272	0.031818	19.4432	-0.043088	-0.056174	-0.566429	NaN
237	1.000000	1.222660	7.36737e+06	-50489.1	955.819	-29755.7	0.000000	0.000000	7.223240	-0.039786	NaN	0.000000	0.001557	0.001608	28.0789	0.040404	0.002017	20.0274	-158.715	-167.252	-0.011202	1.221335	-0.031854	-0.033179	-0.039786	20.0274	-0.030365	-0.023559	1.688811	NaN
237	1.000000	1.232676	7.36737e+06	-50489.1	955.818	-29755.7	0.000000	0.000000	7.233257	-0.027065	NaN	0.000000	0.001529	0.001606	28.0804	0.133504	0.002120	62.9738	-22.0165	16.4769	-0.025231	1.231285	-0.021838	-0.023229	-0.027065	62.9738	-0.021516	-0.013726	1.971761	NaN
237	1.000000	1.242648	7.36737e+06	-50489.1	955.819	-29755.7	0.000000	0.000000	7.243230	-0.010700	NaN	0.000000	0.001567	0.001620	28.0802	0.020592	0.001876	10.9736	-60.6522	-166.38	-0.000539	1.241332	-0.011866	-0.013182	-0.010700	10.9736	-0.011135	-0.007035	1.521020	NaN
237	1.000000	1.252665	7.36737e+06	-50489.1	955.82	-29755.7	0.000000	0.000000	7.253240	-0.162289	NaN	0.000000	0.001567	0.001642	28.0803	0.017977	0.001852	9.705640	-74.5165	13.431	-0.133313	1.251252	-0.001849	-0.003262	-0.162289	9.705640	0.010691	0.009960	-16.294	88.8519
237	1.000000	1.262621	7.36737e+06	-50489.1	955.82	-29755.7	0.000000	0.000000	7.263497	7.141378	NaN	0.000000	0.001578	0.001650	28.0803	7.592945	0.001763	4307.66	10.6799	-172.328	5.308341	1.261337	0.008107	0.006823	7.141378	4307.66	0.006864	0.005899	1210.52	51240.1
237	2.000000	1.266640	7.36737e+06	-50489.1	955.819	-29755.7	0.000000	0.000000	7.267771	13.3231	NaN	0.000000	0.001593	0.001633	28.0802	11.5217	0.001551	7430.73	6.382882	5.539699	12.4614	1.266347	0.012126	0.011833	13.3231	7430.73	0.010782	0.010063	1323.93	67676.2
237	2.000000	1.269144	7.36737e+06	-50489.1	955.818	-29755.7	0.000000	0.000000	7.270435	17.2235	NaN	0.000000	0.001571	0.001615	28.0801	15.0365	0.001774	8475.98	6.022508	-175.114	16.3135	1.268850	0.014630	0.014336	17.2235	8475.98	0.013106	0.012843	1341.13	68334.2
237	2.000000	1.271607	7.36737e+06	-50489.1	955.82	-29755.7	0.000000	0.000000	7.273198	24.5229	NaN	0.000000	0.001551	0.001636	28.0802	17.3094	0.001734	9983	2.918980	6.330722	22.6873	1.271272	0.017093	0.016758	24.5229	9983	0.015251	0.015621	1569.82	72974.8
237	2.000000	1.274081	7.36737e+06	-50489.1	955.82	-29755.7	0.000000	0.000000	7.275894	29.9272	NaN	0.000000	0.001547	0.001629	28.0803	19.8244	0.001646	12047.1	3.215309	-174.811	28.4555	1.273799	0.019567	0.019285	29.9272	12047.1	0.017704	0.019062	1570	79720.7
237	2.000000	1.276560	7.36737e+06	-50489.1	955.819	-29755.7	0.000000	0.000000	7.278799	40.2842	NaN	0.000000	0.001532	0.001624	28.0803	23.5285	0.001894	12420.7	5.372593	2.559044	37.9505	1.276193	0.022046	0.021679	40.2842	12420.7	0.019613	0.021938	1836.24	76615.4
237	2.000000	1.279105	7.36737e+06	-50489.1	955.817	-29755.7	0.000000	0.000000	7.281389	41.379	NaN	0.000000	0.001521	0.001633	28.0802	26.6822	0.001805	14780.8	9.420499	177.699	43.6173	1.278817	0.024591	0.024303	41.379	14780.8	0.022492	0.026610	1555	82784.1
237	2.000000	1.281588	7.36737e+06	-50489.1	955.818	-29755.7	0.000000	0.000000	7.284380	53.7208	NaN	0.000000	0.001531	0.001635	28.0803	27.4547	0.001769	15522.4	4.240232	2.878533	51.889	1.281241	0.027074	0.026727	53.7208	15522.4	0.024479	0.030074	1786.27	81777.8
237	2.000000	1.284043	7.36737e+06	-50489.1	955.819	-29755.7	0.000000	0.000000	7.287112	60.4536	NaN	0.000000	0.001577	0.001603	28.0804	30.4449	0.001765	17250.3	6.385524	178.468	58.7188	1.283699	0.029529	0.029185	60.4536	17250.3	0.026901	0.034565	1748.99	84772
237	2.000000	1.286602	7.36737e+06	-50489.1	955.821	-29755.7	0.000000	0.000000	7.289881	65.5777	NaN	0.000000	0.001524	0.001600	28.0799	33.1128	0.001724	19207.4	6.290538	-1.807913	66.7066	1.286151	0.032088	0.031637	65.5777	19207.4	0.029528	0.039771	1648.89	87995.5
237	2.000000	1.289037	7.36737e+06	-50489.1	955.82	-29755.7	0.000000	0.000000	7.292780	76.8471	NaN	0.000000	0.001568	0.001606	28.0797	35.502	0.001831	19387.6	3.845476	-179.402	75.7485	1.288696	0.034523	0.034182	76.8471	19387.6	0.031551	0.044019	1745.77	84426.1
237	2.000000	1.291568	7.36737e+06	-50489.1	955.819	-29755.7	0.000000	0.000000	7.295683	85.9168	NaN	0.000000	0.001559	0.001597	28.079	37.8287	0.001720	21989.7	3.830117	-1.799360	84.5758	1.291222	0.037054	0.036708	85.9168	21989.7	0.034124	0.049725	1727.85	90096
237	2.000000	1.294045	7.36737e+06	-50489.1	955.819	-29755.7	0.000000	0.000000	7.298471	93.4757	NaN	0.000000	0.001555	0.001651	28.0792	40.5684	0.001827	22199.8	7.555889	175.034	93.164	1.293753	0.039531	0.039239	93.4757	22199.8	0.036373	0.054990	1699.85	86492.7
237	2.000000	1.296521	7.36737e+06	-50489.1	955.819	-29755.7	0.000000	0.000000	7.301347	103.201	NaN	0.000000	0.001569	0.001652	28.0789	42.5648	0.001754	24272.2	5.671999	-4.060055	101.342	1.296225	0.042007	0.041711	103.201	24272.2	0.038818	0.061009	1691.56	89781.1
237	2.000000	1.299000	7.36737e+06	-50489.1	955.82	-29755.7	0.000000	0.000000	7.304225	112.908	NaN	0.000000	0.001543	0.001652	28.0792	46.0986	0.001750	26340.7	3.389651	176.653	110.465	1.298721	0.044486	0.044207	112.908	26340.7	0.041271	0.067355	1676.31	92728.8
237	2.000000	1.301602	7.36737e+06	-50489.1	955.819	-29755.7	0.000000	0.000000	7.307518	129.712	NaN	0.000000	0.001546	0.001598	28.0792	47.4606	0.001777	26706	6.835578	-4.672848	130.568	1.301175	0.047088	0.046661	129.712	26706	0.043445	0.073234	1771.2	90162.3
237	2.000000	1.303945	7.36737e+06	-50489.1	955.819	-29755.7	0.000000	0.000000	7.310415	143.177	NaN	0.000000	0.001593	0.001598	28.0794	48.5698	0.001874	25913.9	1.500621	-179.752	138.822	1.303604	0.049431	0.049090	143.177	25913.9	0.045287	0.078405	1826.13	84554.1
237	2.000000	1.306469	7.36737e+06	-50489.1	955.82	-29755.7	0.000000	0.000000	7.313316	152.341	NaN	0.000000	0.001568	0.001666	28.0792	51.7926	0.001787	28975.3	4.123598	-3.882555	147.45	1.306176	0.051955	0.051662	152.341	28975.3	0.048012	0.086366	1763.9	90080
237	2.000000	1.308997	7.36737e+06	-50489.1	955.819	-29755.7	0.000000	0.000000	7.316200	161.003	NaN	0.000000	0.001583	0.001698	28.0797	54.845	0.001811	30276.9	5.119960	175.305	158.301	1.308695	0.054483	0.054181	161.003	30276.9	0.050495	0.093950	1713.72	90248.1
237	2.000000	1.311568	7.36737e+06	-50489.1	955.819	-29755.7	0.000000	0.000000	7.319543	179.764	NaN	0.000000	0.001570	0.001683	28.0794	57.0877	0.001743	32745.4	5.987982	-6.379965	180.871	1.311122	0.057054	0.056608	179.764	32745.4	0.052937	0.101707	1767.48	93809.9
237	2.000000	1.314007	7.36737e+06	-50489.1	955.819	-29755.7	0.000000	0.000000	7.322395	189.812	NaN	0.000000	0.001597	0.001675	28.0797	58.8566	0.001741	33799.2	5.973945	174.106	189.467	1.313703	0.059493	0.059189	189.812	33799.2	0.055281	0.109433	1734.51	93348.2
237	2.000000	1.316552	7.36737e+06	-50489.1	955.819	-29755.7	0.000000	0.000000	7.325510	203.693	NaN	0.000000	0.001567	0.001638	28.0791	63.67	0.001872	34013.1	8.980506	-9.608927	202.974	1.316085	0.062038	0.061571	203.693	34013.1	0.057546	0.117156	1738.64	90789.8
237	2.000000	1.318924	7.36737e+06	-50489.1	955.819	-29755.7	0.000000	0.000000	7.328510	218.945	NaN	0.000000	0.001610	0.001614	28.0799	64.2877	0.001778	36149.6	2.738456	176.267	213.801	1.318614	0.064410	0.064100	218.945	36149.6	0.059868	0.125335	1746.88	93291.2
237	2.000000	1.321492	7.36737e+06	-50489.1	955.818	-29755.7	0.000000	0.000000	7.331801	236.529	NaN	0.000000	0.001649	0.001724	28.0794	67.6984	0.001922	35224.6	10.6335	-10.8347	232.922	1.321113	0.066978	0.066599	236.529	35224.6	0.061942	0.132863	1780.24	88291.1
237	2.000000	1.323970	7.36737e+06	-50489.1	955.818	-29755.7	0.000000	0.000000	7.334845	250.294	NaN	0.000000	0.001604	0.001672	28.0812	69.3476	0.001833	37839.2	6.848398	172.337	249.327	1.323635	0.069456	0.069121	250.294	37839.2	0.064495	0.142418	1757.46	91607.8
237	2.000000	1.326423	7.36737e+06	-50489.1	955.818	-29755.7	0.000000	0.000000	7.337989	267.106	NaN	0.000000	0.001575	0.001680	28.0803	71.6438	0.001690	42388.3	5.135481	-7.777789	261.505	1.326001	0.071909	0.071487	267.106	42388.3	0.067183	0.152818	1747.87	99067.5
237	2.000000	1.328998	7.36737e+06	-50489.1	955.819	-29755.7	0.000000	0.000000	7.341331	285.757	NaN	0.000000	0.001588	0.001634	28.0808	76.1804	0.001810	42096.2	8.668878	169.799	284.887	1.328534	0.074484	0.074020	285.757	42096.2	0.069392	0.161625	1768.02	95666.9
237	2.000000	1.331456	7.36737e+06	-50489.1	955.818	-29755.7	0.000000	0.000000	7.344636	306.352	NaN	0.000000	0.001650	0.001677	28.0804	76.7048	0.001757	43644.4	5.981073	-8.699282	300.211	1.331085	0.076942	0.076571	306.352	43644.4	0.071677	0.170977	1791.77	96434.4
237	2.000000	1.334001	7.36737e+06	-50489.1	955.819	-29755.7	0.000000	0.000000	7.347655	317.872	NaN	0.000000	0.001617	0.001681	28.0805	79.3315	0.001840	43121.8	3.105233	173.656	317.288	1.333841	0.079487	0.079327	317.872	43121.8	0.073958	0.180561	1760.47	92716.6
237	2.000000	1.336402	7.36737e+06	-50489.1	955.819	-29755.7	0.000000	0.000000	7.351041	341.823	NaN	0.000000	0.001625	0.001659	28.0802	81.447	0.001807	45083	6.088666	-8.813640	336.755	1.335997	0.081888	0.081483	341.823	45083	0.076202	0.190228	1796.92	94438.5
237	2.000000	1.338923	7.36737e+06	-50489.1	955.819	-29755.7	0.000000	0.000000	7.354205	357.457	NaN	0.000000	0.001643	0.001641	28.0806	83.8228	0.001760	47635.8	4.709259	172	352.553	1.338602	0.084409	0.084088	357.457	47635.8	0.078781	0.201632	1772.82	96923.1
237	2.000000	1.341446	7.36737e+06	-50489.1	955.82	-29755.7	0.000000	0.000000	7.357552	377.496	NaN	0.000000	0.001650	0.001613	28.0802	84.7516	0.001797	47166.6	0.464171	-3.841063	371.17	1.341191	0.086932	0.086677	377.496	47166.6	0.080930	0.211369	1785.96	93731.7
237	2.000000	1.343885	7.36737e+06	-50489.1	955.82	-29755.7	0.000000	0.000000	7.360790	396.941	NaN	0.000000	0.001644	0.001633	28.0804	87.7289	0.001929	45478.6	5.001541	172.388	392.345	1.343683	0.089371	0.089169	396.941	45478.6	0.082825	0.220137	1803.16	88559.2
237	2.000000	1.346491	7.36737e+06	-50489.1	955.819	-29755.7	0.000000	0.000000	7.364242	417.501	NaN	0.000000	0.001626	0.001617	28.0801	90.7131	0.001881	48226.4	7.013848	-9.878551	418.383	1.346070	0.091977	0.091556	417.501	48226.4	0.085484	0.232718	1794.02	91336.3
237	2.000000	1.348960	7.36737e+06	-50489.1	955.82	-29755.7	0.000000	0.000000	7.367688	441.262	NaN	0.000000	0.001591	0.001616	28.0806	93.436	0.001918	48717.6	5.787679	170.668	438.323	1.348602	0.094446	0.094088	441.262	48717.6	0.087653	0.243218	1814.26	90252.9
237	2.000000	1.351397	7.36737e+06	-50489.1	955.818	-29755.7	0.000000	0.000000	7.370830	458.403	NaN	0.000000	0.001614	0.001631	28.0803	92.8753	0.001682	55214.9	2.854221	-6.723673	450.513	1.351119	0.096883	0.096605	458.403	55214.9	0.090657	0.258122	1775.91	99292.6
237	2.000000	1.353829	7.36737e+06	-50489.1	955.818	-29755.7	0.000000	0.000000	7.373703	469.139	NaN	0.000000	0.001620	0.001630	28.0804	95.6007	0.001666	57372	4.872728	170.014	461.052	1.353775	0.099315	0.099261	469.139	57372	0.093182	0.270974	1731.3	100695
237	2.000000	1.356457	7.36737e+06	-50489.1	955.819	-29755.7	0.000000	0.000000	7.377956	508.649	NaN	0.000000	0.001599	0.001661	28.0803	98.6106	0.001771	55687.7	5.538261	-9.119270	506.724	1.355940	0.101943	0.101426	508.649	55687.7	0.095092	0.280887	1810.86	95998.9
237	2.000000	1.358885	7.36737e+06	-50489.1	955.819	-29755.7	0.000000	0.000000	7.381304	531.034	NaN	0.000000	0.001680	0.001624	28.0791	101.324	0.001898	53372.6	5.436935	171.003	526.616	1.358602	0.104371	0.104088	531.034	53372.6	0.096909	0.290467	1828.21	90478
237	2.000000	1.361406	7.36737e+06	-50489.1	955.82	-29755.7	0.000000	0.000000	7.384909	557.405	NaN	0.000000	0.001644	0.001621	28.0789	103.366	0.001783	57957.5	10.3329	-13.8138	550.272	1.360999	0.106892	0.106485	557.405	57957.5	0.099678	0.305367	1825.36	95823.5
237	2.000000	1.362832	7.36737e+06	-50489.1	955.82	-29755.7	0.000000	0.000000	7.386365	558.127	NaN	0.000000	0.001588	0.001658	28.0793	104.465	0.001768	59077.4	4.031947	171.109	549.924	1.362582	0.108318	0.108068	558.127	59077.4	0.101232	0.313877	1778.17	96341.7