File: remote_trans/data/nanoindenter/0828-1/data/Data_2025-08-06,11h17m57s/2025-07-22_16-23-58_1_118.txt
2025-07-22, 16:23:58, 1
Index	Phase	Displacement	Time	Pos X	Pos Y	Pos Z	Rot A	Rot B	Piezo Z	Force A	Force B	Gripper	Voltage A	Voltage B	Temperature	Amplitude force	Amplitude pos	Stiffness	Phase shift	Phase excitation	Force A raw	Displacement raw	HMax	HMax raw	Real Force	Real Stiffness	Contact Depth	Area	Hardness	Reduced Mod.
[#]	[#]	[um]	[s]	[um]	[um]	[um]	[m°]	[m°]	[um]	[uN]	[uN]	[V]	[V]	[V]	[°C]	[uN]	[um]	[N/m]	[°]	[°]	[uN]	[um]	[um]	[um]	[uN]	[N/m]	[um]	[um^2]	[MPa]	[MPa]
118	1.000000	0.002916	7.36619e+06	-44539.1	955.819	-29775.9	0.000000	0.000000	6.002796	0.005705	NaN	0.000000	0.001584	0.001675	28.0991	0.064908	0.000840	77.3129	95.4472	-170.722	0.038581	0.001670	-1.077055	-1.078301	0.005705	77.3129	-1.077111	-2.470072E+14	-2.309660E-17	NaN
118	1.000000	0.010877	7.36619e+06	-44539.1	955.819	-29775.9	0.000000	0.000000	6.010760	0.061029	NaN	0.000000	0.001597	0.001710	28.0994	0.086135	0.000900	95.6903	-19.9032	-160.325	0.045783	0.009542	-1.069094	-1.070429	0.061029	95.6903	-1.069572	-1.956317E+14	-3.119593E-16	NaN
118	1.000000	0.018922	7.36619e+06	-44539.1	955.818	-29775.9	0.000000	0.000000	6.018802	0.000638	NaN	0.000000	0.001618	0.001676	28.0985	0.087081	0.001657	52.5531	163.237	-164.848	0.010112	0.017577	-1.061048	-1.062394	0.000638	52.5531	-1.061058	-1.503258E+14	-4.245952E-18	NaN
118	1.000000	0.026916	7.36619e+06	-44539.1	955.817	-29776	0.000000	0.000000	6.026797	0.037722	NaN	0.000000	0.001592	0.001694	28.0995	0.063331	0.001854	34.1578	77.3476	-165.089	0.012773	0.025572	-1.053055	-1.054399	0.037722	34.1578	-1.053883	-1.203955E+14	-3.133186E-16	NaN
118	1.000000	0.034876	7.36619e+06	-44539.1	955.819	-29776	0.000000	0.000000	6.034755	-0.006787	NaN	0.000000	0.001587	0.001699	28.0977	0.051982	0.001913	27.1696	13.8198	-163.765	0.132571	0.033611	-1.045095	-1.046360	-0.006787	27.1696	-1.044908	-9.119220E+13	7.442094E-17	NaN
118	1.000000	0.042856	7.36619e+06	-44539.1	955.818	-29776	0.000000	0.000000	6.042735	-0.002851	NaN	0.000000	0.001608	0.001661	28.0997	0.019953	0.001965	10.1564	104.833	-162.893	-0.038271	0.041593	-1.037115	-1.038378	-0.002851	10.1564	-1.036905	-7.117779E+13	4.005041E-17	NaN
118	1.000000	0.050861	7.36619e+06	-44539.1	955.819	-29776	0.000000	0.000000	6.050741	0.011773	NaN	0.000000	0.001587	0.001682	28.0988	0.066647	0.002054	32.4423	-87.2121	-165.787	0.029501	0.049541	-1.029110	-1.030430	0.011773	32.4423	-1.029382	-5.638641E+13	-2.088000E-16	NaN
118	1.000000	0.058881	7.36619e+06	-44539.1	955.819	-29776	0.000000	0.000000	6.058756	-0.115298	NaN	0.000000	0.001622	0.001668	28.1011	0.104570	0.002088	50.0848	100.434	-165.576	-0.123663	0.057572	-1.021090	-1.022399	-0.115298	50.0848	-1.019363	-4.134139E+13	2.788927E-15	NaN
118	1.000000	0.066892	7.36619e+06	-44539.1	955.818	-29776	0.000000	0.000000	6.066772	-0.003023	NaN	0.000000	0.001619	0.001697	28.0996	0.026231	0.001967	13.3387	-172.806	-165.28	-0.009307	0.065534	-1.013078	-1.014437	-0.003023	13.3387	-1.012908	-3.384747E+13	8.930285E-17	NaN
118	1.000000	0.074881	7.36619e+06	-44539.1	955.819	-29776	0.000000	0.000000	6.074763	0.041420	NaN	0.000000	0.001616	0.001700	28.1006	0.061744	0.001994	30.9591	105.778	-168.8	0.026312	0.073594	-1.005090	-1.006377	0.041420	30.9591	-1.006093	-2.740267E+13	-1.511513E-15	NaN
118	1.000000	0.082871	7.36619e+06	-44539.1	955.818	-29776	0.000000	0.000000	6.082749	-0.035768	NaN	0.000000	0.001595	0.001665	28.101	0.104822	0.001974	53.1019	134.111	-166.768	0.023897	0.081568	-0.997100	-0.998403	-0.035768	53.1019	-0.996595	-2.041384E+13	1.752137E-15	NaN
118	1.000000	0.090901	7.36619e+06	-44539.1	955.819	-29776	0.000000	0.000000	6.090780	-0.020414	NaN	0.000000	0.001628	0.001685	28.101	0.065621	0.001930	34.0084	-131.946	-163.954	0.026951	0.089577	-0.989070	-0.990394	-0.020414	34.0084	-0.988619	-1.594112E+13	1.280580E-15	NaN
118	1.000000	0.098877	7.36619e+06	-44539.1	955.819	-29776	0.000000	0.000000	6.098757	-0.010831	NaN	0.000000	0.001629	0.001679	28.0996	0.124661	0.001999	62.3766	-175.826	-167.582	-0.024507	0.097578	-0.981093	-0.982393	-0.010831	62.3766	-0.980963	-1.257151E+13	8.615756E-16	NaN
118	1.000000	0.106891	7.36619e+06	-44539.1	955.818	-29776	0.000000	0.000000	6.106771	-0.002228	NaN	0.000000	0.001624	0.001733	28.0992	0.119819	0.001950	61.4535	-114.995	-167.268	0.017017	0.105625	-0.973080	-0.974346	-0.002228	61.4535	-0.973052	-9.835557E+12	2.265408E-16	NaN
118	1.000000	0.114883	7.36619e+06	-44539.1	955.817	-29776	0.000000	0.000000	6.114763	0.006708	NaN	0.000000	0.001649	0.001675	28.0997	0.095284	0.002003	47.5753	31.8609	-164.135	-0.035968	0.113565	-0.965088	-0.966406	0.006708	47.5753	-0.965194	-7.706982E+12	-8.704240E-16	NaN
118	1.000000	0.122895	7.36619e+06	-44539.1	955.818	-29776	0.000000	0.000000	6.122773	-0.037636	NaN	0.000000	0.001596	0.001640	28.0997	0.057267	0.002078	27.5623	-81.131	-162.122	-0.015681	0.121541	-0.957076	-0.958430	-0.037636	27.5623	-0.956052	-5.802880E+12	6.485773E-15	NaN
118	1.000000	0.130902	7.36619e+06	-44539.1	955.818	-29776	0.000000	0.000000	6.130779	-0.069394	NaN	0.000000	0.001582	0.001657	28.099	0.090829	0.002124	42.7692	18.8253	-166.809	-0.103281	0.129599	-0.949069	-0.950372	-0.069394	42.7692	-0.947852	-4.498435E+12	1.542628E-14	NaN
118	1.000000	0.138897	7.36619e+06	-44539.1	955.818	-29776	0.000000	0.000000	6.138775	-0.035754	NaN	0.000000	0.001615	0.001699	28.1015	0.041914	0.001935	21.6657	-84.5003	-166.391	-0.057194	0.137606	-0.941074	-0.942364	-0.035754	21.6657	-0.939836	-3.506953E+12	1.019512E-14	NaN
118	1.000000	0.146924	7.36619e+06	-44539.1	955.818	-29776	0.000000	0.000000	6.146805	0.028570	NaN	0.000000	0.001596	0.001743	28.0999	0.026266	0.001952	13.4587	-87.1789	-163.227	-0.007504	0.145527	-0.933047	-0.934444	0.028570	13.4587	-0.934639	-2.984043E+12	-9.574291E-15	NaN
118	1.000000	0.154908	7.36619e+06	-44539.1	955.818	-29776	0.000000	0.000000	6.154787	-0.024920	NaN	0.000000	0.001618	0.001712	28.1005	0.080627	0.001912	42.1686	62.1746	-165.885	-0.019782	0.153597	-0.925063	-0.926374	-0.024920	42.1686	-0.924620	-2.185628E+12	1.140183E-14	NaN
118	1.000000	0.162921	7.36619e+06	-44539.1	955.818	-29776	0.000000	0.000000	6.162803	0.052073	NaN	0.000000	0.001604	0.001706	28.0993	0.060002	0.001978	30.3388	82.8699	-165.762	0.014602	0.161603	-0.917049	-0.918367	0.052073	30.3388	-0.918337	-1.797832E+12	-2.896443E-14	NaN
118	1.000000	0.170912	7.36619e+06	-44539.1	955.818	-29776	0.000000	0.000000	6.170792	-0.006349	NaN	0.000000	0.001597	0.001699	28.1003	0.078234	0.002014	38.8486	103.736	-167.731	-0.017755	0.169613	-0.909059	-0.910358	-0.006349	38.8486	-0.908936	-1.342128E+12	4.730270E-15	NaN
118	1.000000	0.178896	7.36619e+06	-44539.1	955.818	-29776	0.000000	0.000000	6.178775	-0.009072	NaN	0.000000	0.001583	0.001706	28.0972	0.120679	0.001946	62.0217	168.839	-164.466	-0.015573	0.177617	-0.901075	-0.902354	-0.009072	62.0217	-0.900966	-1.047403E+12	8.660977E-15	NaN
118	1.000000	0.186940	7.36619e+06	-44539.1	955.819	-29776	0.000000	0.000000	6.186821	0.014644	NaN	0.000000	0.001621	0.001701	28.0973	0.128750	0.002023	63.6377	69.4503	-164.449	0.048421	0.185610	-0.893031	-0.894361	0.014644	63.6377	-0.893203	-8.226445E+11	-1.780142E-14	NaN
118	1.000000	0.194934	7.36619e+06	-44539.1	955.819	-29776	0.000000	0.000000	6.194814	-0.012150	NaN	0.000000	0.001649	0.001738	28.0984	0.034411	0.002003	17.1809	-7.178402	-165.883	0.000356	0.193671	-0.885037	-0.886300	-0.012150	17.1809	-0.884506	-6.275426E+11	1.936062E-14	NaN
118	1.000000	0.202912	7.36619e+06	-44539.1	955.818	-29776	0.000000	0.000000	6.202789	-0.068119	NaN	0.000000	0.001615	0.001708	28.0973	0.088260	0.002256	39.1218	-146.195	-163.929	-0.045710	0.201659	-0.877059	-0.878312	-0.068119	39.1218	-0.875753	-4.778307E+11	1.425588E-13	NaN
118	1.000000	0.210942	7.36619e+06	-44539.1	955.819	-29776	0.000000	0.000000	6.210824	0.046514	NaN	0.000000	0.001631	0.001692	28.0978	0.029641	0.002124	13.9569	40.4035	-162.661	-0.041059	0.209585	-0.869029	-0.870386	0.046514	13.9569	-0.871528	-4.189069E+11	-1.110365E-13	NaN
118	1.000000	0.218888	7.36619e+06	-44539.1	955.818	-29776	0.000000	0.000000	6.218766	-0.037904	NaN	0.000000	0.001629	0.001678	28.0989	0.103337	0.002137	48.3566	-66.8408	-164.597	-0.084253	0.217649	-0.861083	-0.862322	-0.037904	48.3566	-0.860495	-2.970460E+11	1.276020E-13	NaN
118	1.000000	0.226921	7.36619e+06	-44539.1	955.819	-29776	0.000000	0.000000	6.226801	0.009907	NaN	0.000000	0.001618	0.001705	28.0977	0.150404	0.001919	78.39	160.903	-165.38	0.034527	0.225605	-0.853050	-0.854366	0.009907	78.39	-0.853145	-2.362246E+11	-4.193869E-14	NaN
118	1.000000	0.234971	7.36619e+06	-44539.1	955.818	-29776	0.000000	0.000000	6.234852	0.031332	NaN	0.000000	0.001593	0.001710	28.0986	0.113514	0.001920	59.1259	51.3912	-168.146	-0.015583	0.233650	-0.845000	-0.846321	0.031332	59.1259	-0.845397	-1.855238E+11	-1.688835E-13	NaN
118	1.000000	0.242956	7.36619e+06	-44539.1	955.819	-29776	0.000000	0.000000	6.242833	-0.046697	NaN	0.000000	0.001635	0.001678	28.0986	0.032379	0.002011	16.1035	114.862	-166.112	-0.104666	0.241633	-0.837015	-0.838338	-0.046697	16.1035	-0.834840	-1.334703E+11	3.498715E-13	NaN
118	1.000000	0.250951	7.36619e+06	-44539.1	955.819	-29776	0.000000	0.000000	6.250832	0.025344	NaN	0.000000	0.001636	0.001697	28.0987	0.037755	0.002006	18.8192	64.0271	-163.106	-0.023504	0.249667	-0.829020	-0.830303	0.025344	18.8192	-0.830030	-1.148663E+11	-2.206415E-13	NaN
118	1.000000	0.258968	7.36619e+06	-44539.1	955.819	-29776	0.000000	0.000000	6.258848	0.011735	NaN	0.000000	0.001687	0.001692	28.0963	0.077446	0.001848	41.8999	136.958	-166.34	-0.031043	0.257650	-0.821003	-0.822321	0.011735	41.8999	-0.821213	-8.722869E+10	-1.345316E-13	NaN
118	1.000000	0.266943	7.36619e+06	-44539.1	955.818	-29776	0.000000	0.000000	6.266821	-0.033265	NaN	0.000000	0.001654	0.001679	28.0973	0.088574	0.002036	43.5065	104.753	-165.766	-0.028124	0.265626	-0.813028	-0.814344	-0.033265	43.5065	-0.812455	-6.635474E+10	5.013247E-13	NaN
118	1.000000	0.275000	7.36619e+06	-44539.1	955.818	-29776	0.000000	0.000000	6.274878	-0.026695	NaN	0.000000	0.001636	0.001720	28.0969	0.085902	0.002067	41.5557	-62.6985	-166.192	-0.023227	0.273635	-0.804971	-0.806336	-0.026695	41.5557	-0.804489	-5.173647E+10	5.159846E-13	NaN
118	1.000000	0.282948	7.36619e+06	-44539.1	955.818	-29776	0.000000	0.000000	6.282828	-0.015115	NaN	0.000000	0.001664	0.001686	28.0969	0.138264	0.002016	68.5832	-152.742	-162.896	-0.052918	0.281658	-0.797023	-0.798313	-0.015115	68.5832	-0.796857	-4.075665E+10	3.708660E-13	NaN
118	1.000000	0.290930	7.36619e+06	-44539.1	955.819	-29776	0.000000	0.000000	6.290809	-0.023487	NaN	0.000000	0.001626	0.001717	28.0964	0.064325	0.001980	32.4944	-69.5323	-163.474	0.019563	0.289666	-0.789041	-0.790305	-0.023487	32.4944	-0.788499	-3.138310E+10	7.483855E-13	NaN
118	1.000000	0.298964	7.36619e+06	-44539.1	955.818	-29776	0.000000	0.000000	6.298843	-0.010494	NaN	0.000000	0.001632	0.001664	28.098	0.099095	0.002095	47.2995	-61.6633	-160.121	0.001961	0.297659	-0.781007	-0.782312	-0.010494	47.2995	-0.780840	-2.469746E+10	4.248982E-13	NaN
118	1.000000	0.306949	7.36619e+06	-44539.1	955.819	-29776	0.000000	0.000000	6.306831	0.072694	NaN	0.000000	0.001612	0.001701	28.0985	0.023043	0.001885	12.2255	-71.5778	-166.687	0.021448	0.305692	-0.773022	-0.774279	0.072694	12.2255	-0.777482	-2.223365E+10	-3.269541E-12	NaN
118	1.000000	0.314990	7.36619e+06	-44539.1	955.818	-29776	0.000000	0.000000	6.314873	0.090137	NaN	0.000000	0.001623	0.001719	28.0983	0.083718	0.002088	40.0967	120.374	-163.724	0.029526	0.313695	-0.764981	-0.766275	0.090137	40.0967	-0.766667	-1.584836E+10	-5.687495E-12	NaN
118	1.000000	0.322968	7.36619e+06	-44539.1	955.818	-29776	0.000000	0.000000	6.322847	-0.007603	NaN	0.000000	0.001625	0.001684	28.0987	0.093116	0.001949	47.7833	-34.2052	-166.324	-0.008477	0.321713	-0.757003	-0.758258	-0.007603	47.7833	-0.756884	-1.166555E+10	6.517893E-13	NaN
118	1.000000	0.330994	7.36619e+06	-44539.1	955.819	-29776	0.000000	0.000000	6.330875	0.031275	NaN	0.000000	0.001617	0.001682	28.099	0.033515	0.001911	17.5376	-78.3976	-167.261	0.066583	0.329700	-0.748977	-0.750270	0.031275	17.5376	-0.750315	-9.495175E+9	-3.293783E-12	NaN
118	1.000000	0.338984	7.36619e+06	-44539.1	955.819	-29776	0.000000	0.000000	6.338863	-0.009329	NaN	0.000000	0.001622	0.001689	28.0977	0.044614	0.001949	22.8886	123.901	-165.367	0.044248	0.337700	-0.740987	-0.742271	-0.009329	22.8886	-0.740681	-7.019936E+9	1.328931E-12	NaN
118	1.000000	0.346973	7.36619e+06	-44539.1	955.818	-29776	0.000000	0.000000	6.346853	0.007961	NaN	0.000000	0.001600	0.001714	28.0974	0.024454	0.001977	12.3681	64.3239	-164.479	0.039507	0.345701	-0.732998	-0.734270	0.007961	12.3681	-0.733481	-5.600701E+9	-1.421517E-12	NaN
118	1.000000	0.355003	7.36619e+06	-44539.1	955.818	-29776	0.000000	0.000000	6.354883	-0.000746	NaN	0.000000	0.001648	0.001724	28.0988	0.081480	0.001904	42.7912	159.467	-164.183	0.002066	0.353667	-0.724968	-0.726304	-0.000746	42.7912	-0.724955	-4.285829E+9	1.739970E-13	NaN
118	1.000000	0.362978	7.36619e+06	-44539.1	955.819	-29776	0.000000	0.000000	6.362856	-0.048325	NaN	0.000000	0.001596	0.001699	28.0986	0.002318	0.002073	1.117959	-83.6479	-166.733	-0.061621	0.361723	-0.716993	-0.718248	-0.048325	1.117959	-0.684573	-1.204320E+9	4.012643E-11	NaN
118	1.000000	0.370977	7.36619e+06	-44539.1	955.818	-29776	0.000000	0.000000	6.370857	-0.004250	NaN	0.000000	0.001599	0.001710	28.099	0.034389	0.002022	17.009	32.9836	-162.954	0.015916	0.369768	-0.708994	-0.710203	-0.004250	17.009	-0.708806	-2.580815E+9	1.646717E-12	NaN
118	1.000000	0.378977	7.36619e+06	-44539.1	955.819	-29776	0.000000	0.000000	6.378855	-0.049186	NaN	0.000000	0.001626	0.001709	28.0989	0.025842	0.002007	12.8735	-48.9857	-165.98	-0.018389	0.377687	-0.700994	-0.702284	-0.049186	12.8735	-0.698128	-1.844880E+9	2.666108E-11	NaN
118	1.000000	0.387047	7.36619e+06	-44539.1	955.819	-29776	0.000000	0.000000	6.386929	0.043958	NaN	0.000000	0.001609	0.001730	28.0985	0.051508	0.001996	25.8084	21.0708	-165.867	-0.012010	0.385730	-0.692924	-0.694241	0.043958	25.8084	-0.694201	-1.630518E+9	-2.695978E-11	NaN
118	1.000000	0.395020	7.36619e+06	-44539.1	955.819	-29776	0.000000	0.000000	6.394897	-0.056461	NaN	0.000000	0.001588	0.001733	28.0994	0.066072	0.001903	34.7223	25.7827	-162.32	-0.053753	0.393686	-0.684951	-0.686285	-0.056461	34.7223	-0.683731	-1.172819E+9	4.814096E-11	NaN
118	1.000000	0.403006	7.36619e+06	-44539.1	955.818	-29776	0.000000	0.000000	6.402887	0.040162	NaN	0.000000	0.001677	0.001706	28.0986	0.044557	0.002059	21.6379	157.695	-167.511	0.036910	0.401702	-0.676965	-0.678269	0.040162	21.6379	-0.678357	-9.902351E+8	-4.055814E-11	NaN
118	1.000000	0.411009	7.36619e+06	-44539.1	955.819	-29776	0.000000	0.000000	6.410888	-0.000478	NaN	0.000000	0.001645	0.001729	28.0988	0.081561	0.002090	39.0213	-96.4942	-165.17	-0.028184	0.409718	-0.668962	-0.670253	-0.000478	39.0213	-0.668953	-7.363131E+8	6.492772E-13	NaN
118	1.000000	0.419025	7.36619e+06	-44539.1	955.818	-29776	0.000000	0.000000	6.418906	0.014807	NaN	0.000000	0.001642	0.001717	28.0981	0.054527	0.001941	28.0961	-18.118	-162.575	-0.006448	0.417693	-0.660946	-0.662278	0.014807	28.0961	-0.661341	-5.792101E+8	-2.556373E-11	NaN
118	1.000000	0.427037	7.36619e+06	-44539.1	955.818	-29776	0.000000	0.000000	6.426918	0.050572	NaN	0.000000	0.001633	0.001705	28.0983	0.067636	0.002057	32.8868	152.591	-163.948	0.086684	0.425769	-0.652934	-0.654202	0.050572	32.8868	-0.654088	-4.607483E+8	-1.097613E-10	NaN
118	1.000000	0.434996	7.36619e+06	-44539.1	955.818	-29776	0.000000	0.000000	6.434874	-0.044157	NaN	0.000000	0.001634	0.001693	28.0972	0.005625	0.001879	2.993053	111.313	-168.017	-0.008010	0.433781	-0.644975	-0.646190	-0.044157	2.993053	-0.633910	-2.436211E+8	1.812519E-10	NaN
118	1.000000	0.443046	7.36619e+06	-44539.1	955.818	-29776	0.000000	0.000000	6.442926	-0.009888	NaN	0.000000	0.001628	0.001695	28.0987	0.085301	0.002147	39.7259	-50.0592	-163.116	0.021281	0.441701	-0.636925	-0.638270	-0.009888	39.7259	-0.636738	-2.663940E+8	3.711680E-11	NaN
118	1.000000	0.451032	7.36619e+06	-44539.1	955.819	-29776	0.000000	0.000000	6.450909	-0.064130	NaN	0.000000	0.001616	0.001751	28.0974	0.101302	0.002130	47.5493	-20.5504	-165.14	-0.028509	0.449703	-0.628939	-0.630268	-0.064130	47.5493	-0.627928	-2.016324E+8	3.180560E-10	NaN
118	1.000000	0.459043	7.36619e+06	-44539.1	955.819	-29776	0.000000	0.000000	6.458923	0.005885	NaN	0.000000	0.001675	0.001752	28.0982	0.038345	0.002080	18.4322	-102.851	-163.344	-0.025066	0.457718	-0.620928	-0.622253	0.005885	18.4322	-0.621167	-1.628096E+8	-3.614744E-11	NaN
118	1.000000	0.467022	7.36619e+06	-44539.1	955.819	-29776	0.000000	0.000000	6.466903	0.040828	NaN	0.000000	0.001670	0.001734	28.098	0.023233	0.002066	11.2464	80.5726	-164.261	0.119429	0.465731	-0.612949	-0.614240	0.040828	11.2464	-0.615672	-1.368143E+8	-2.984180E-10	NaN
118	1.000000	0.475025	7.36619e+06	-44539.1	955.819	-29776	0.000000	0.000000	6.474901	-0.093360	NaN	0.000000	0.001677	0.001708	28.0971	0.064839	0.001991	32.5655	83.734	-164.702	-0.032667	0.473736	-0.604946	-0.606235	-0.093360	32.5655	-0.602796	-9.098265E+7	1.026129E-9	NaN
118	1.000000	0.483032	7.36619e+06	-44539.1	955.819	-29776	0.000000	0.000000	6.482913	0.015691	NaN	0.000000	0.001646	0.001718	28.0966	0.055685	0.001923	28.9563	153.93	-164.521	-0.119474	0.481722	-0.596939	-0.598249	0.015691	28.9563	-0.597345	-7.654035E+7	-2.050085E-10	NaN
118	1.000000	0.491042	7.36619e+06	-44539.1	955.819	-29776	0.000000	0.000000	6.490922	0.011466	NaN	0.000000	0.001636	0.001713	28.0973	0.049114	0.002063	23.8061	158.588	-161.56	0.060253	0.489777	-0.588929	-0.590194	0.011466	23.8061	-0.589291	-5.927678E+7	-1.934321E-10	NaN
118	1.000000	0.499028	7.36619e+06	-44539.1	955.819	-29776	0.000000	0.000000	6.498910	0.048966	NaN	0.000000	0.001606	0.001696	28.0952	0.151763	0.001869	81.2054	-35.0226	-162.889	0.008134	0.497780	-0.580943	-0.582191	0.048966	81.2054	-0.581395	-4.612960E+7	-1.061493E-9	NaN
118	1.000000	0.507073	7.36619e+06	-44539.1	955.818	-29776	0.000000	0.000000	6.506951	-0.049973	NaN	0.000000	0.001622	0.001679	28.0959	0.045995	0.001996	23.0484	-35.2288	-166.088	-0.062282	0.505777	-0.572898	-0.574194	-0.049973	23.0484	-0.571272	-3.343521E+7	1.494634E-9	NaN
118	1.000000	0.515054	7.36619e+06	-44539.1	955.818	-29776	0.000000	0.000000	6.514933	-0.006794	NaN	0.000000	0.001653	0.001686	28.0958	0.099668	0.002048	48.6596	101.083	-162.111	-0.074025	0.513769	-0.564917	-0.566202	-0.006794	48.6596	-0.564813	-2.722294E+7	2.495872E-10	NaN
118	1.000000	0.523048	7.36619e+06	-44539.1	955.818	-29776	0.000000	0.000000	6.522925	-0.063337	NaN	0.000000	0.001640	0.001691	28.0958	0.073129	0.001974	37.0486	102.341	-161.966	0.045996	0.521794	-0.556923	-0.558177	-0.063337	37.0486	-0.555641	-2.032641E+7	3.116000E-9	NaN
118	1.000000	0.531089	7.36619e+06	-44539.1	955.818	-29776	0.000000	0.000000	6.530966	-0.072520	NaN	0.000000	0.001632	0.001706	28.0961	0.107008	0.002013	53.1688	-145.739	-164.218	0.007229	0.529782	-0.548881	-0.550189	-0.072520	53.1688	-0.547859	-1.585953E+7	4.572639E-9	NaN
118	1.000000	0.539086	7.36619e+06	-44539.1	955.818	-29776	0.000000	0.000000	6.538965	-0.029414	NaN	0.000000	0.001615	0.001680	28.0964	0.073743	0.001938	38.0472	-98.8303	-166.299	-0.131884	0.537771	-0.540885	-0.542199	-0.029414	38.0472	-0.540305	-1.246190E+7	2.360311E-9	NaN
118	1.000000	0.547069	7.36619e+06	-44539.1	955.819	-29776	0.000000	0.000000	6.546951	0.056812	NaN	0.000000	0.001602	0.001702	28.0968	0.138174	0.002105	65.6433	178.635	-162.155	0.005493	0.545739	-0.532902	-0.534232	0.056812	65.6433	-0.533551	-1.004333E+7	-5.656660E-9	NaN
118	1.000000	0.555098	7.36619e+06	-44539.1	955.818	-29776	0.000000	0.000000	6.554981	0.084422	NaN	0.000000	0.001615	0.001664	28.0972	0.059826	0.002108	28.3781	150.266	-164.627	0.086864	0.553748	-0.524873	-0.526223	0.084422	28.3781	-0.527104	-8.17234e+06	-1.033022E-8	NaN
118	1.000000	0.563070	7.36619e+06	-44539.1	955.819	-29776	0.000000	0.000000	6.562950	0.012680	NaN	0.000000	0.001584	0.001731	28.0965	0.092459	0.002000	46.2389	74.6947	-162.675	0.016167	0.561826	-0.516901	-0.518145	0.012680	46.2389	-0.517107	-5.93407e+06	-2.136757E-9	NaN
118	1.000000	0.571103	7.36619e+06	-44539.1	955.819	-29776	0.000000	0.000000	6.570982	-0.037834	NaN	0.000000	0.001574	0.001734	28.096	0.092526	0.002043	45.2913	154.294	-164.655	-0.019647	0.569833	-0.508867	-0.510138	-0.037834	45.2913	-0.508241	-4.46592e+06	8.471776E-9	NaN
118	1.000000	0.579136	7.36619e+06	-44539.1	955.819	-29776	0.000000	0.000000	6.579014	-0.041683	NaN	0.000000	0.001576	0.001740	28.0955	0.144384	0.002047	70.5247	-127.346	-164.721	-0.027324	0.577765	-0.500835	-0.502206	-0.041683	70.5247	-0.500392	-3.47124e+06	1.200815E-8	NaN
118	1.000000	0.587105	7.36619e+06	-44539.1	955.818	-29776	0.000000	0.000000	6.586984	-0.023933	NaN	0.000000	0.001624	0.001737	28.0946	0.091728	0.002170	42.275	-5.282687	-165.478	-0.148305	0.585769	-0.492866	-0.494202	-0.023933	42.275	-0.492442	-2.68847e+06	8.902234E-9	NaN
118	1.000000	0.595097	7.36619e+06	-44539.1	955.819	-29776	0.000000	0.000000	6.594977	0.010174	NaN	0.000000	0.001606	0.001737	28.0964	0.047999	0.002058	23.3189	95.7971	-163.673	-0.062510	0.593789	-0.484874	-0.486182	0.010174	23.3189	-0.485201	-2.12964e+06	-4.777527E-9	NaN
118	1.000000	0.603139	7.36619e+06	-44539.1	955.818	-29776	0.000000	0.000000	6.603018	-0.032656	NaN	0.000000	0.001578	0.001800	28.0964	0.022495	0.001892	11.8892	-175.652	-163.399	0.002408	0.601838	-0.476832	-0.478133	-0.032656	11.8892	-0.474772	-1.52161e+06	2.146124E-8	NaN
118	1.000000	0.611093	7.36619e+06	-44539.1	955.818	-29776	0.000000	0.000000	6.610973	0.004948	NaN	0.000000	0.001576	0.001749	28.0962	0.075319	0.001897	39.7128	114.597	-167.121	-0.002511	0.609834	-0.468878	-0.470137	0.004948	39.7128	-0.468972	-1.26177e+06	-3.921793E-9	NaN
118	1.000000	0.619104	7.36619e+06	-44539.1	955.818	-29776	0.000000	0.000000	6.618985	0.036557	NaN	0.000000	0.001592	0.001734	28.0977	0.051892	0.001977	26.25	-139.114	-164.823	0.010183	0.617785	-0.460867	-0.462186	0.036557	26.25	-0.461912	-1.00434e+06	-3.639949E-8	NaN
118	1.000000	0.627123	7.36619e+06	-44539.1	955.818	-29776	0.000000	0.000000	6.627004	0.023666	NaN	0.000000	0.001604	0.001701	28.097	0.052949	0.001990	26.6083	-112.913	-165.106	0.001867	0.625802	-0.452848	-0.454169	0.023666	26.6083	-0.453515	-765287	-3.092491E-8	NaN
118	1.000000	0.635116	7.36619e+06	-44539.1	955.818	-29776	0.000000	0.000000	6.634994	-0.047506	NaN	0.000000	0.001563	0.001711	28.0966	0.022819	0.002007	11.3708	156.417	-164.975	0.027939	0.633771	-0.444855	-0.446200	-0.047506	11.3708	-0.441722	-521985	9.101058E-8	NaN
118	1.000000	0.643150	7.36619e+06	-44539.1	955.818	-29776	0.000000	0.000000	6.643030	0.019422	NaN	0.000000	0.001592	0.001711	28.0968	0.023492	0.001947	12.0683	-21.959	-164.066	0.036106	0.641806	-0.436821	-0.438165	0.019422	12.0683	-0.438028	-462946	-4.195285E-8	NaN
118	1.000000	0.651111	7.36619e+06	-44539.1	955.818	-29776	0.000000	0.000000	6.650990	-0.024094	NaN	0.000000	0.001586	0.001724	28.0978	0.037302	0.001941	19.2156	5.369506	-163.261	-0.081177	0.649835	-0.428859	-0.430136	-0.024094	19.2156	-0.427919	-333131	7.232635E-8	NaN
118	1.000000	0.659145	7.36619e+06	-44539.1	955.819	-29776	0.000000	0.000000	6.659023	-0.042503	NaN	0.000000	0.001598	0.001696	28.0968	0.060386	0.002100	28.7538	-27.8307	-165.374	0.026815	0.657814	-0.420826	-0.422157	-0.042503	28.7538	-0.419717	-254919	1.667323E-7	NaN
118	1.000000	0.667109	7.36619e+06	-44539.1	955.818	-29776	0.000000	0.000000	6.666989	-0.004350	NaN	0.000000	0.001591	0.001700	28.0961	0.083645	0.002056	40.6802	123.053	-167.271	-0.042146	0.665783	-0.412862	-0.414188	-0.004350	40.6802	-0.412782	-203209	2.140478E-8	NaN
118	1.000000	0.675157	7.36619e+06	-44539.1	955.819	-29776	0.000000	0.000000	6.675033	-0.100016	NaN	0.000000	0.001624	0.001690	28.0955	0.090371	0.002062	43.8289	54.3022	-162.709	-0.095219	0.673775	-0.404813	-0.406196	-0.100016	43.8289	-0.403102	-147983	6.758599E-7	NaN
118	1.000000	0.683116	7.36619e+06	-44539.1	955.818	-29776	0.000000	0.000000	6.682995	-0.012382	NaN	0.000000	0.001607	0.001674	28.0962	0.020912	0.002033	10.2867	114.219	-165.474	-0.059690	0.681839	-0.396855	-0.398132	-0.012382	10.2867	-0.395952	-117013	1.058209E-7	NaN
118	1.000000	0.691164	7.36619e+06	-44539.1	955.818	-29776	0.000000	0.000000	6.691044	0.003622	NaN	0.000000	0.001588	0.001712	28.0958	0.107417	0.001992	53.9345	99.3315	-163.016	0.010659	0.689867	-0.388806	-0.390104	0.003622	53.9345	-0.388857	-92642.8	-3.910151E-8	NaN
118	1.000000	0.699133	7.36619e+06	-44539.1	955.819	-29776	0.000000	0.000000	6.699012	0.002472	NaN	0.000000	0.001641	0.001703	28.0969	0.025576	0.002024	12.6373	37.206	-164.739	0.014688	0.697816	-0.380838	-0.382155	0.002472	12.6373	-0.380985	-71453.5	-3.458982E-8	NaN
118	1.000000	0.707142	7.36619e+06	-44539.1	955.818	-29776	0.000000	0.000000	6.707020	-0.038012	NaN	0.000000	0.001581	0.001692	28.0966	0.032258	0.001980	16.2925	-123.783	-164.11	-0.066966	0.705828	-0.372829	-0.374143	-0.038012	16.2925	-0.371080	-51484.1	7.383162E-7	NaN
118	1.000000	0.715141	7.36619e+06	-44539.1	955.818	-29776	0.000000	0.000000	6.715022	0.014520	NaN	0.000000	0.001598	0.001680	28.096	0.044250	0.001966	22.505	-3.659270	-166.095	0.004632	0.713869	-0.364829	-0.366102	0.014520	22.505	-0.365313	-42518.2	-3.415014E-7	NaN
118	1.000000	0.723174	7.36619e+06	-44539.1	955.818	-29776	0.000000	0.000000	6.723052	-0.034074	NaN	0.000000	0.001603	0.001706	28.0969	0.125374	0.001968	63.6934	44.948	-162.432	-0.046093	0.721855	-0.356797	-0.358115	-0.034074	63.6934	-0.356396	-31601.7	1.078232E-6	NaN
118	1.000000	0.731144	7.36619e+06	-44539.1	955.819	-29776	0.000000	0.000000	6.731025	0.009209	NaN	0.000000	0.001595	0.001693	28.0948	0.085368	0.002041	41.8179	6.669446	-163.469	0.000943	0.729862	-0.348827	-0.350109	0.009209	41.8179	-0.348992	-24681.1	-3.731144E-7	NaN
118	1.000000	0.739181	7.36619e+06	-44539.1	955.819	-29776	0.000000	0.000000	6.739059	-0.046285	NaN	0.000000	0.001604	0.001696	28.0948	0.045981	0.001972	23.3147	-175.879	-164.51	-0.077405	0.737850	-0.340790	-0.342121	-0.046285	23.3147	-0.339301	-17838.5	2.594691E-6	NaN
118	1.000000	0.747171	7.36619e+06	-44539.1	955.818	-29776	0.000000	0.000000	6.747051	0.026454	NaN	0.000000	0.001576	0.001713	28.0947	0.112698	0.002008	56.1241	46.8589	-165.459	0.018472	0.745889	-0.332800	-0.334082	0.026454	56.1241	-0.333154	-14507.8	-1.823405E-6	NaN
118	1.000000	0.755148	7.36619e+06	-44539.1	955.818	-29776	0.000000	0.000000	6.755025	-0.057724	NaN	0.000000	0.001606	0.001684	28.094	0.050504	0.002018	25.028	-156.57	-166.248	-0.098218	0.753851	-0.324823	-0.326120	-0.057724	25.028	-0.323093	-10330.8	5.587549E-6	NaN
118	1.000000	0.763163	7.36619e+06	-44539.1	955.819	-29776	0.000000	0.000000	6.763041	-0.036688	NaN	0.000000	0.001601	0.001697	28.0939	0.016235	0.001958	8.292336	133.087	-163.461	-0.083096	0.761855	-0.316808	-0.318116	-0.036688	8.292336	-0.313490	-7458.42	4.919039E-6	NaN
118	1.000000	0.771191	7.36619e+06	-44539.1	955.818	-29776	0.000000	0.000000	6.771072	0.014110	NaN	0.000000	0.001623	0.001689	28.094	0.088917	0.001987	44.7441	105.395	-166.038	-0.112475	0.769909	-0.308780	-0.310062	0.014110	44.7441	-0.309016	-6404.6	-2.203031E-6	NaN
118	1.000000	0.779158	7.36619e+06	-44539.1	955.819	-29776	0.000000	0.000000	6.779033	-0.109267	NaN	0.000000	0.001596	0.001728	28.0958	0.082743	0.002134	38.7808	-17.0131	-162.903	-0.170376	0.777865	-0.300813	-0.302105	-0.109267	38.7808	-0.298700	-4500.67	2.427795E-5	NaN
118	1.000000	0.787186	7.36619e+06	-44539.1	955.817	-29776	0.000000	0.000000	6.787064	-0.032148	NaN	0.000000	0.001590	0.001682	28.0945	0.080909	0.001926	42.0104	-49.884	-164.813	0.018605	0.785837	-0.292785	-0.294134	-0.032148	42.0104	-0.292211	-3600.87	8.927900E-6	NaN
118	1.000000	0.795190	7.36619e+06	-44539.1	955.819	-29776	0.000000	0.000000	6.795068	-0.057159	NaN	0.000000	0.001598	0.001726	28.0954	0.068023	0.001978	34.3844	6.314841	-165.726	-0.196841	0.793861	-0.284781	-0.286110	-0.057159	34.3844	-0.283534	-2668.19	2.142254E-5	NaN
118	1.000000	0.803209	7.36619e+06	-44539.1	955.819	-29776	0.000000	0.000000	6.803091	0.063540	NaN	0.000000	0.001611	0.001715	28.0946	0.073376	0.001976	37.1396	162.902	-163.023	0.020065	0.801880	-0.276762	-0.278091	0.063540	37.1396	-0.278045	-2205.27	-2.881294E-5	NaN
118	1.000000	0.811206	7.36619e+06	-44539.1	955.818	-29776	0.000000	0.000000	6.811085	-0.033389	NaN	0.000000	0.001572	0.001732	28.0951	0.044027	0.002015	21.8525	-122.759	-168.606	-0.018800	0.809858	-0.268765	-0.270113	-0.033389	21.8525	-0.267619	-1532.2	2.179160E-5	NaN
118	1.000000	0.819179	7.36619e+06	-44539.1	955.818	-29776	0.000000	0.000000	6.819058	-0.019321	NaN	0.000000	0.001593	0.001729	28.095	0.018522	0.001906	9.715850	103.485	-162.59	-0.018545	0.817853	-0.260792	-0.262118	-0.019321	9.715850	-0.259301	-1143.4	1.689746E-5	NaN
118	1.000000	0.827204	7.3662e+06	-44539.1	955.819	-29776	0.000000	0.000000	6.827084	0.012482	NaN	0.000000	0.001600	0.001715	28.0947	0.088544	0.001869	47.3656	-125.092	-163.102	-0.057145	0.825847	-0.252767	-0.254124	0.012482	47.3656	-0.252965	-913.593	-1.366240E-5	NaN
118	1.000000	0.835197	7.3662e+06	-44539.1	955.819	-29776	0.000000	0.000000	6.835075	-0.043836	NaN	0.000000	0.001594	0.001722	28.0945	0.054667	0.002029	26.9467	158.794	-168.091	-0.092761	0.833871	-0.244774	-0.246099	-0.043836	26.9467	-0.243554	-653.075	6.712204E-5	NaN
118	1.000000	0.843212	7.3662e+06	-44539.1	955.819	-29776	0.000000	0.000000	6.843090	-0.052549	NaN	0.000000	0.001590	0.001711	28.0946	0.054801	0.002017	27.1715	-82.2469	-164.289	-0.023261	0.841924	-0.236759	-0.238047	-0.052549	27.1715	-0.235308	-485.384	0.000108	NaN
118	1.000000	0.851199	7.3662e+06	-44539.1	955.819	-29776	0.000000	0.000000	6.851080	0.041018	NaN	0.000000	0.001551	0.001760	28.0943	0.096221	0.001939	49.6284	157.259	-165.818	-0.043271	0.849893	-0.228772	-0.230078	0.041018	49.6284	-0.229392	-391.667	-0.000105	NaN
118	1.000000	0.859220	7.3662e+06	-44539.1	955.819	-29776	0.000000	0.000000	6.859096	-0.089482	NaN	0.000000	0.001570	0.001723	28.0946	0.091456	0.002051	44.5962	82.9649	-162.856	-0.070444	0.857937	-0.220751	-0.222034	-0.089482	44.5962	-0.219246	-270.164	0.000331	NaN
118	1.000000	0.867218	7.3662e+06	-44539.1	955.818	-29776	0.000000	0.000000	6.867097	-0.024542	NaN	0.000000	0.001588	0.001725	28.0961	0.075518	0.001910	39.5424	106.678	-165.021	0.002489	0.865898	-0.212753	-0.214073	-0.024542	39.5424	-0.212288	-208.837	0.000118	NaN
118	1.000000	0.875226	7.3662e+06	-44539.1	955.818	-29776	0.000000	0.000000	6.875106	0.018856	NaN	0.000000	0.001601	0.001772	28.0955	0.064390	0.001854	34.7345	-8.980724	-166.143	0.104243	0.873916	-0.204745	-0.206055	0.018856	34.7345	-0.205152	-159.973	-0.000118	NaN
118	1.000000	0.883210	7.3662e+06	-44539.1	955.818	-29776	0.000000	0.000000	6.883087	-0.051577	NaN	0.000000	0.001677	0.001755	28.0964	0.077970	0.002014	38.7043	-77.2798	-164.705	-0.080496	0.881897	-0.196761	-0.198074	-0.051577	38.7043	-0.195762	-112.155	0.000460	NaN
118	1.000000	0.891214	7.3662e+06	-44539.1	955.818	-29776	0.000000	0.000000	6.891093	-0.009588	NaN	0.000000	0.001678	0.001763	28.0962	0.074398	0.001885	39.4644	20.2728	-165.713	-0.018908	0.889905	-0.188757	-0.190066	-0.009588	39.4644	-0.188575	-85.1517	0.000113	NaN
118	1.000000	0.899203	7.3662e+06	-44539.1	955.819	-29776	0.000000	0.000000	6.899082	-0.038371	NaN	0.000000	0.001691	0.001731	28.0951	0.078799	0.001988	39.6397	129.143	-163.432	-0.115400	0.897910	-0.180768	-0.182061	-0.038371	39.6397	-0.180042	-61.1187	0.000628	NaN
118	1.000000	0.907230	7.3662e+06	-44539.1	955.819	-29776	0.000000	0.000000	6.907108	-0.057535	NaN	0.000000	0.001682	0.001766	28.0952	0.011535	0.001998	5.772088	-60.2345	-161.669	0.029464	0.905885	-0.172741	-0.174086	-0.057535	5.772088	-0.165265	-33.9588	0.001694	NaN
118	1.000000	0.915253	7.3662e+06	-44539.1	955.819	-29776	0.000000	0.000000	6.915136	0.085721	NaN	0.000000	0.001661	0.001709	28.0947	0.052547	0.002013	26.1085	39.8088	-165.077	0.114808	0.913915	-0.164718	-0.166056	0.085721	26.1085	-0.167180	-36.6859	-0.002337	NaN
118	1.000000	0.923234	7.3662e+06	-44539.1	955.818	-29776	0.000000	0.000000	6.923112	-0.032622	NaN	0.000000	0.001627	0.001737	28.095	0.089425	0.001966	45.4952	175.628	-165.246	-0.017559	0.921973	-0.156737	-0.157997	-0.032622	45.4952	-0.156199	-23.4491	0.001391	NaN
118	1.000000	0.931239	7.3662e+06	-44539.1	955.819	-29776	0.000000	0.000000	6.931118	-0.030117	NaN	0.000000	0.001619	0.001720	28.0954	0.197751	0.002018	97.9799	35.8223	-164.152	0.003355	0.929949	-0.148732	-0.150022	-0.030117	97.9799	-0.148501	-17.0063	0.001771	NaN
118	1.000000	0.939243	7.3662e+06	-44539.1	955.819	-29776	0.000000	0.000000	6.939124	0.017684	NaN	0.000000	0.001603	0.001742	28.096	0.062890	0.002034	30.9242	-101.805	-163.015	-0.092852	0.937970	-0.140727	-0.142001	0.017684	30.9242	-0.141156	-12.4351	-0.001422	NaN
118	1.000000	0.947246	7.3662e+06	-44539.1	955.818	-29776	0.000000	0.000000	6.947126	0.015662	NaN	0.000000	0.001629	0.001765	28.0971	0.091428	0.001903	48.0395	77.4141	-163.978	-0.009450	0.945978	-0.132725	-0.133993	0.015662	48.0395	-0.132969	-8.697437	-0.001801	NaN
118	1.000000	0.955246	7.3662e+06	-44539.1	955.819	-29776	0.000000	0.000000	6.955125	-0.019014	NaN	0.000000	0.001602	0.001726	28.0961	0.021077	0.002037	10.3449	-179.059	-164.148	0.044660	0.953971	-0.124725	-0.126000	-0.019014	10.3449	-0.123347	-5.638600	0.003372	NaN
118	1.000000	0.963238	7.3662e+06	-44539.1	955.818	-29776	0.000000	0.000000	6.963118	0.005601	NaN	0.000000	0.001634	0.001701	28.0968	0.061284	0.001869	32.7948	-131.026	-163.365	0.001546	0.961887	-0.116733	-0.118084	0.005601	32.7948	-0.116861	-4.171802	-0.001343	NaN
118	1.000000	0.971246	7.3662e+06	-44539.1	955.817	-29776	0.000000	0.000000	6.971123	-0.067699	NaN	0.000000	0.001611	0.001703	28.0956	0.087613	0.001945	45.0355	71.1885	-159.229	-0.078747	0.969955	-0.108725	-0.110016	-0.067699	45.0355	-0.107598	-2.672566	0.025331	NaN
118	1.000000	0.979258	7.3662e+06	-44539.1	955.818	-29776	0.000000	0.000000	6.979136	-0.052229	NaN	0.000000	0.001592	0.001708	28.0943	0.098952	0.002045	48.3847	-90.0745	-165.936	-0.036994	0.977910	-0.100713	-0.102061	-0.052229	48.3847	-0.099903	-1.818143	0.028727	NaN
118	1.000000	0.987227	7.3662e+06	-44539.1	955.819	-29776	0.000000	0.000000	6.987105	-0.050024	NaN	0.000000	0.001570	0.001764	28.0957	0.118479	0.002005	59.1007	-69.7003	-166.111	-0.055520	0.985930	-0.092744	-0.094041	-0.050024	59.1007	-0.092109	-1.210574	0.041323	NaN
118	1.000000	0.995288	7.3662e+06	-44539.1	955.818	-29776	0.000000	0.000000	6.995168	-0.015624	NaN	0.000000	0.001615	0.001758	28.0946	0.023664	0.001976	11.973	52.733	-165.21	-0.023393	0.993942	-0.084682	-0.086029	-0.015624	11.973	-0.083704	-0.764147	0.020446	NaN
118	1.000000	1.003306	7.3662e+06	-44539.1	955.818	-29776	0.000000	0.000000	7.003185	-0.007330	NaN	0.000000	0.001617	0.001763	28.0934	0.165447	0.001876	88.2018	63.8216	-164.486	-0.069757	1.001965	-0.076665	-0.078006	-0.007330	88.2018	-0.076603	-0.507883	0.014433	NaN
118	1.000000	1.011258	7.3662e+06	-44539.1	955.818	-29776	0.000000	0.000000	7.011146	0.193928	NaN	0.000000	0.001603	0.001765	28.0947	0.293537	0.001917	153.152	27.432	-163.6	-0.003220	1.009960	-0.068713	-0.070011	0.193928	153.152	-0.069663	-0.334075	-0.580493	NaN
118	1.000000	1.019284	7.3662e+06	-44539.1	955.817	-29776	0.000000	0.000000	7.019279	2.789159	NaN	0.000000	0.001609	0.001764	28.0946	1.661771	0.001921	865.168	15.3586	-165.784	2.363503	1.018035	-0.060687	-0.061936	2.789159	865.168	-0.063105	-0.220625	-12.6421	NaN
118	1.000000	1.027280	7.3662e+06	-44539.1	955.818	-29776	0.000000	0.000000	7.027275	2.785593	NaN	0.000000	0.001663	0.001751	28.0948	1.439362	0.001883	764.372	14.1475	-165.687	3.153171	1.025991	-0.052690	-0.053980	2.785593	764.372	-0.055424	-0.132541	-21.0169	NaN
118	1.000000	1.035246	7.3662e+06	-44539.1	955.817	-29776	0.000000	0.000000	7.035230	2.517242	NaN	0.000000	0.001684	0.001759	28.0946	1.545045	0.001969	784.728	20.2243	-167.292	2.557948	1.033965	-0.044724	-0.046005	2.517242	784.728	-0.047130	-0.074655	-33.7182	NaN
118	1.000000	1.043286	7.3662e+06	-44539.1	955.817	-29776	0.000000	0.000000	7.043295	3.126833	NaN	0.000000	0.001648	0.001711	28.0937	2.434694	0.002046	1190.07	21.0311	-166.795	3.278721	1.041998	-0.036684	-0.037973	3.126833	1190.07	-0.038655	-0.041173	-75.9439	NaN
118	1.000000	1.051269	7.3662e+06	-44539.1	955.817	-29776	0.000000	0.000000	7.051379	5.588525	NaN	0.000000	0.001671	0.001702	28.0954	4.568083	0.001851	2467.78	20.6131	-170.253	5.296751	1.050001	-0.028702	-0.029970	5.588525	2467.78	-0.030400	-0.023613	-236.672	NaN
118	2.000000	1.056932	7.3662e+06	-44539.1	955.817	-29776	0.000000	0.000000	7.057147	8.173535	NaN	0.000000	0.001652	0.001713	28.0929	8.794645	0.001740	5055.45	11.0267	-172.054	8.085120	1.056618	-0.023039	-0.023353	8.173535	5055.45	-0.024252	-0.016131	-506.698	NaN
118	2.000000	1.058943	7.3662e+06	-44539.1	955.816	-29776	0.000000	0.000000	7.059322	12.1538	NaN	0.000000	0.001595	0.001696	28.0925	11.5979	0.001798	6451.25	10.948	-174.439	11.2797	1.058591	-0.021028	-0.021380	12.1538	6451.25	-0.022441	-0.014492	-838.682	NaN
118	2.000000	1.060896	7.3662e+06	-44539.1	955.816	-29776	0.000000	0.000000	7.061479	17.1024	NaN	0.000000	0.001604	0.001679	28.0933	13.5039	0.001712	7887.77	6.449323	-173.284	16.3376	1.060516	-0.019075	-0.019455	17.1024	7887.77	-0.020701	-0.013087	-1306.84	NaN
118	2.000000	1.062870	7.3662e+06	-44539.1	955.817	-29776	0.000000	0.000000	7.063730	23.8581	NaN	0.000000	0.001601	0.001752	28.0927	15.9608	0.001810	8816.82	6.047309	-173.453	22.8815	1.062598	-0.017101	-0.017373	23.8581	8816.82	-0.019131	-0.011936	-1998.84	NaN
118	2.000000	1.064848	7.3662e+06	-44539.1	955.818	-29776	0.000000	0.000000	7.066030	31.6733	NaN	0.000000	0.001602	0.001676	28.0933	17.846	0.001697	10514.7	6.472178	-176.188	30.2693	1.064555	-0.015123	-0.015416	31.6733	10514.7	-0.017382	-0.010756	-2944.6	NaN
118	2.000000	1.066823	7.3662e+06	-44539.1	955.817	-29776	0.000000	0.000000	7.068391	41.0891	NaN	0.000000	0.001593	0.001714	28.094	20.0639	0.001868	10738.2	4.811203	-173.579	39.6571	1.066521	-0.013148	-0.013450	41.0891	10738.2	-0.016018	-0.009894	-4152.88	NaN
118	2.000000	1.068850	7.3662e+06	-44539.1	955.817	-29776	0.000000	0.000000	7.070815	50.7307	NaN	0.000000	0.001574	0.001728	28.0938	22.1969	0.001880	11804.5	5.979036	-175.765	49.4632	1.068536	-0.011121	-0.011435	50.7307	11804.5	-0.014344	-0.008886	-5709.37	NaN
118	2.000000	1.070806	7.3662e+06	-44539.1	955.818	-29776	0.000000	0.000000	7.073258	62.5637	NaN	0.000000	0.001570	0.001706	28.0941	23.6036	0.001751	13476.5	6.326994	-178.097	60.09	1.070476	-0.009165	-0.009495	62.5637	13476.5	-0.012646	-0.007899	-7920.6	NaN
118	2.000000	1.072800	7.3662e+06	-44539.1	955.817	-29776	0.000000	0.000000	7.075779	75.4014	NaN	0.000000	0.001596	0.001682	28.095	26.4315	0.001846	14316.2	5.808912	-177.273	73.9242	1.072446	-0.007171	-0.007524	75.4014	14316.2	-0.011121	-0.007027	-10730.1	NaN
118	2.000000	1.074828	7.3662e+06	-44539.1	955.817	-29776	0.000000	0.000000	7.078383	89.4195	NaN	0.000000	0.001578	0.001678	28.0944	27.5952	0.001806	15281.5	3.300106	-175.979	88.0695	1.074467	-0.005143	-0.005504	89.4195	15281.5	-0.009531	-0.006119	-14613.6	NaN
118	2.000000	1.076789	7.3662e+06	-44539.1	955.817	-29776	0.000000	0.000000	7.081082	107.367	NaN	0.000000	0.001583	0.001674	28.095	30.6311	0.001798	17033.2	6.978510	178.854	105.161	1.076450	-0.003182	-0.003521	107.367	17033.2	-0.007909	-0.005179	-20733.2	NaN
118	2.000000	1.078789	7.3662e+06	-44539.1	955.818	-29776	0.000000	0.000000	7.083813	125.15	NaN	0.000000	0.001587	0.001690	28.0939	31.9272	0.001673	19083.8	1.806077	-176.139	121.907	1.078426	-0.001182	-0.001545	125.15	19083.8	-0.006100	-0.004098	-30543	NaN
118	2.000000	1.080786	7.3662e+06	-44539.1	955.818	-29776	0.000000	0.000000	7.086487	141.614	NaN	0.000000	0.001611	0.001661	28.095	34.1065	0.001715	19886.4	5.921568	178.569	139.094	1.080431	0.000816	0.000461	141.614	19886.4	-0.004525	-0.003116	-45442.6	NaN
118	2.000000	1.082738	7.3662e+06	-44539.1	955.818	-29776	0.000000	0.000000	7.089326	163.194	NaN	0.000000	0.001597	0.001701	28.0937	37.3686	0.001800	20761.9	6.809445	177.885	159.175	1.082393	0.002767	0.002422	163.194	20761.9	-0.003128	-0.002206	-73974.4	NaN
118	2.000000	1.084870	7.3662e+06	-44539.1	955.818	-29776	0.000000	0.000000	7.092208	181.465	NaN	0.000000	0.001625	0.001692	28.0946	37.4505	0.001728	21673.9	5.061781	179.97	181.755	1.084353	0.004899	0.004382	181.465	21673.9	-0.001381	-0.001005	-180540	NaN
118	2.000000	1.086770	7.3662e+06	-44539.1	955.818	-29776	0.000000	0.000000	7.094956	202.076	NaN	0.000000	0.001614	0.001733	28.095	41.1748	0.001808	22771.1	3.544601	179.37	198.808	1.086401	0.006799	0.006430	202.076	22771.1	0.000144	0.000108	1.87613e+06	2.00461e+06
118	2.000000	1.088813	7.3662e+06	-44539.1	955.818	-29776	0.000000	0.000000	7.098077	228.282	NaN	0.000000	0.001597	0.001693	28.0947	42.8757	0.001766	24277.1	-0.260482	-176.73	225.452	1.088408	0.008842	0.008437	228.282	24277.1	0.001790	0.001386	164741	595848
118	2.000000	1.090784	7.3662e+06	-44539.1	955.817	-29776	0.000000	0.000000	7.101036	252.348	NaN	0.000000	0.001611	0.001680	28.0956	45.0738	0.001747	25798.1	3.811309	179.042	250.431	1.090363	0.010813	0.010392	252.348	25798.1	0.003477	0.002785	90609.6	446630
118	2.000000	1.092702	7.3662e+06	-44539.1	955.817	-29776	0.000000	0.000000	7.104065	279.36	NaN	0.000000	0.001619	0.001728	28.0941	46.6979	0.001753	26644.1	0.545159	-179.149	274.442	1.092444	0.012731	0.012473	279.36	26644.1	0.004868	0.004013	69614.9	384276
118	2.000000	1.094712	7.3662e+06	-44539.1	955.817	-29776	0.000000	0.000000	7.107094	304.134	NaN	0.000000	0.001626	0.001737	28.0963	47.6761	0.001699	28063.5	2.517050	178.51	298.999	1.094367	0.014741	0.014396	304.134	28063.5	0.006613	0.005655	53785.7	340969
118	2.000000	1.096699	7.3662e+06	-44539.1	955.818	-29776	0.000000	0.000000	7.110417	336.658	NaN	0.000000	0.001604	0.001740	28.094	50.1481	0.001780	28180.5	2.296487	179.103	330.545	1.096378	0.016728	0.016407	336.658	28180.5	0.007768	0.006805	49469.9	312103
118	2.000000	1.098740	7.3662e+06	-44539.1	955.817	-29776	0.000000	0.000000	7.113712	367.17	NaN	0.000000	0.001602	0.001727	28.0933	52.5241	0.001680	31262.5	1.518655	179.246	361.337	1.098329	0.018769	0.018358	367.17	31262.5	0.009960	0.009137	40183.8	298805
118	2.000000	1.100705	7.3662e+06	-44539.1	955.818	-29776	0.000000	0.000000	7.116900	396.925	NaN	0.000000	0.001610	0.001749	28.0947	54.3577	0.001690	32160.1	4.976312	174.881	391.117	1.100434	0.020734	0.020463	396.925	32160.1	0.011478	0.010870	36514.8	281819
118	2.000000	1.102814	7.3662e+06	-44539.1	955.817	-29776	0.000000	0.000000	7.119933	419.389	NaN	0.000000	0.001599	0.001738	28.094	59.3282	0.001817	32647.9	6.439763	173.717	420.903	1.102451	0.022843	0.022480	419.389	32647.9	0.013209	0.012970	32334.9	261912
118	2.000000	1.104596	7.3662e+06	-44539.1	955.817	-29776	0.000000	0.000000	7.123094	452.95	NaN	0.000000	0.001611	0.001721	28.0942	58.8685	0.001777	33130	1.859520	178.252	444.45	1.104315	0.024625	0.024344	452.95	33130	0.014371	0.014455	31334.2	251755
118	2.000000	1.106807	7.3662e+06	-44539.1	955.817	-29776	0.000000	0.000000	7.126940	492.725	NaN	0.000000	0.001580	0.001724	28.0955	61.5715	0.001809	34035.5	1.307306	178.687	491.942	1.106367	0.026836	0.026396	492.725	34035.5	0.015979	0.016613	29659.5	241259
118	2.000000	1.108648	7.3662e+06	-44539.1	955.818	-29776	0.000000	0.000000	7.129951	521.184	NaN	0.000000	0.001618	0.001721	28.0951	63.2796	0.001800	35148.9	1.505649	178.073	513.608	1.108369	0.028677	0.028398	521.184	35148.9	0.017556	0.018847	27654	233921
118	2.000000	1.110673	7.3662e+06	-44539.1	955.816	-29776	0.000000	0.000000	7.133541	559.256	NaN	0.000000	0.001595	0.001720	28.0943	63.9788	0.001664	38453.4	0.761704	178.178	553.73	1.110386	0.030702	0.030415	559.256	38453.4	0.019795	0.022220	25168.5	235685
118	2.000000	1.112780	7.3662e+06	-44539.1	955.817	-29776	0.000000	0.000000	7.137025	592.768	NaN	0.000000	0.001576	0.001726	28.0928	68.9101	0.001863	36988.7	4.909116	174.274	590.789	1.112492	0.032809	0.032521	592.768	36988.7	0.020790	0.023798	24908	219063
118	2.000000	1.114710	7.3662e+06	-44539.1	955.817	-29776	0.000000	0.000000	7.140680	634.714	NaN	0.000000	0.001600	0.001736	28.0935	68.789	0.001794	38344.1	3.564072	176.153	630.424	1.114271	0.034739	0.034300	634.714	38344.1	0.022324	0.026327	24109.1	215910
118	2.000000	1.116543	7.3662e+06	-44539.1	955.817	-29776	0.000000	0.000000	7.143949	669.656	NaN	0.000000	0.001589	0.001736	28.0922	70.8704	0.001904	37218.1	1.361645	177.605	658.098	1.116322	0.036572	0.036351	669.656	37218.1	0.023077	0.027610	24253.9	204641
118	2.000000	1.118656	7.3662e+06	-44539.1	955.817	-29776	0.000000	0.000000	7.146792	687.419	NaN	0.000000	0.001568	0.001735	28.0933	73.3926	0.001824	40242.6	5.919376	172.178	678.187	1.118347	0.038685	0.038376	687.419	40242.6	0.025874	0.032625	21070.5	203557
118	2.000000	1.120606	7.3662e+06	-44539.1	955.817	-29776	0.000000	0.000000	7.151186	746.886	NaN	0.000000	0.001589	0.001767	28.0926	72.7151	0.001848	39344.1	-1.454753	-179.526	738.415	1.120326	0.040635	0.040355	746.886	39344.1	0.026397	0.033607	22224.1	196082
118	2.000000	1.122713	7.3662e+06	-44539.1	955.818	-29776	0.000000	0.000000	7.154917	786.399	NaN	0.000000	0.001606	0.001744	28.0933	76.6589	0.001729	44336.1	4.811191	173.106	783.236	1.122425	0.042742	0.042455	786.399	44336.1	0.029439	0.039589	19864.1	203584
118	2.000000	1.124732	7.3662e+06	-44539.1	955.817	-29776	0.000000	0.000000	7.158143	815.752	NaN	0.000000	0.001591	0.001707	28.0921	76.5913	0.001767	43340.3	-0.531291	178.519	811.722	1.124459	0.044761	0.044488	815.752	43340.3	0.030644	0.042089	19381.5	193010
118	2.000000	1.126568	7.3662e+06	-44539.1	955.818	-29776	0.000000	0.000000	7.162297	872.152	NaN	0.000000	0.001583	0.001701	28.094	79.5557	0.001849	43029.8	6.973141	170.822	861.622	1.126312	0.046597	0.046341	872.152	43029.8	0.031396	0.043686	19964.1	188093
118	2.000000	1.128867	7.3662e+06	-44539.1	955.819	-29776	0.000000	0.000000	7.165868	903.088	NaN	0.000000	0.001568	0.001730	28.0932	80.5179	0.001714	46970.9	4.743360	174.042	906.327	1.128432	0.048896	0.048461	903.088	46970.9	0.034476	0.050533	17871.3	190904
118	2.000000	1.130644	7.3662e+06	-44539.1	955.818	-29776	0.000000	0.000000	7.168921	934.122	NaN	0.000000	0.001578	0.001709	28.0935	80.788	0.001878	43007.8	0.956900	177.276	927.808	1.130387	0.050673	0.050416	934.122	43007.8	0.034383	0.050319	18564	175168
118	2.000000	1.132624	7.3662e+06	-44539.1	955.817	-29776	0.000000	0.000000	7.173537	998.253	NaN	0.000000	0.001614	0.001713	28.093	84.8704	0.002058	41240.8	3.696344	174.874	990.749	1.132367	0.052653	0.052396	998.253	41240.8	0.034499	0.050586	19733.7	167527
118	2.000000	1.134893	7.3662e+06	-44539.1	955.818	-29776	0.000000	0.000000	7.176681	1019.54	NaN	0.000000	0.001580	0.001690	28.0943	84.7498	0.001797	47166	3.411419	173.636	1025.21	1.134719	0.054922	0.054748	1019.54	47166	0.038710	0.060737	16786.1	174854
118	2.000000	1.136843	7.3662e+06	-44539.1	955.817	-29776	0.000000	0.000000	7.180830	1073.04	NaN	0.000000	0.001601	0.001716	28.0922	88.004	0.001798	48944	9.132630	169.858	1073.6	1.136124	0.056872	0.056153	1073.04	48944	0.040429	0.065142	16472.3	175203
118	2.000000	1.138498	7.3662e+06	-44539.1	955.817	-29776	0.000000	0.000000	7.183834	1105.87	NaN	0.000000	0.001604	0.001746	28.0927	88.9327	0.001879	47330.8	1.909811	175.327	1090.53	1.138114	0.058527	0.058143	1105.87	47330.8	0.041003	0.066647	16592.8	167504
118	2.000000	1.140484	7.3662e+06	-44539.1	955.818	-29776	0.000000	0.000000	7.188617	1173.9	NaN	0.000000	0.001607	0.001720	28.092	89.9844	0.001942	46346.6	3.494272	173.97	1159.11	1.140173	0.060513	0.060202	1173.9	46346.6	0.041516	0.068005	17261.9	162375
118	2.000000	1.142539	7.3662e+06	-44539.1	955.817	-29776	0.000000	0.000000	7.192063	1207.75	NaN	0.000000	0.001587	0.001738	28.0923	90.9736	0.001842	49400.3	0.793845	176.175	1196.04	1.142304	0.062568	0.062333	1207.75	49400.3	0.044232	0.075421	16013.4	164344
118	2.000000	1.144634	7.3662e+06	-44539.1	955.818	-29776	0.000000	0.000000	7.195011	1228.5	NaN	0.000000	0.001680	0.001707	28.0934	91.9956	0.001661	55388.4	4.712274	171.094	1221.12	1.144347	0.064663	0.064376	1228.5	55388.4	0.048028	0.086415	14216.3	172146
118	2.000000	1.146681	7.3662e+06	-44539.1	955.818	-29776	0.000000	0.000000	7.199628	1291.02	NaN	0.000000	0.001684	0.001716	28.0943	94.782	0.001873	50598.9	3.657348	173.299	1286.11	1.146367	0.066710	0.066396	1291.02	50598.9	0.047574	0.085063	15177.3	158506
118	2.000000	1.148634	7.3662e+06	-44539.1	955.817	-29776	0.000000	0.000000	7.204147	1353.44	NaN	0.000000	0.001677	0.001715	28.0935	95.7995	0.001806	53054.3	2.586086	174.695	1345.18	1.148198	0.068663	0.068227	1353.44	53054.3	0.049530	0.090965	14878.8	160715
118	2.000000	1.150698	7.3662e+06	-44539.1	955.817	-29776	0.000000	0.000000	7.206655	1364.25	NaN	0.000000	0.001603	0.001718	28.0949	96.9102	0.001737	55779.4	1.398068	175.077	1362.24	1.150425	0.070727	0.070454	1364.25	55779.4	0.052383	0.099922	13653.2	161219
118	2.000000	1.152778	7.3662e+06	-44539.1	955.819	-29776	0.000000	0.000000	7.210538	1408.12	NaN	0.000000	0.001610	0.001730	28.0941	99.5697	0.001906	52232.5	1.979955	175.054	1408.77	1.152369	0.072807	0.072398	1408.12	52232.5	0.052588	0.100581	13999.9	150473
118	2.000000	1.154523	7.3662e+06	-44539.1	955.818	-29776	0.000000	0.000000	7.215301	1481.53	NaN	0.000000	0.001597	0.001707	28.0937	99.7814	0.001900	52526.8	2.584980	174.03	1469.03	1.154112	0.074552	0.074141	1481.53	52526.8	0.053398	0.103206	14355	149383