File: remote_trans/data/nanoindenter/0828-1/data/Data_2025-08-06,11h17m57s/2025-07-22_16-23-58_1_579.txt
2025-07-22, 16:23:58, 1
Index	Phase	Displacement	Time	Pos X	Pos Y	Pos Z	Rot A	Rot B	Piezo Z	Force A	Force B	Gripper	Voltage A	Voltage B	Temperature	Amplitude force	Amplitude pos	Stiffness	Phase shift	Phase excitation	Force A raw	Displacement raw	HMax	HMax raw	Real Force	Real Stiffness	Contact Depth	Area	Hardness	Reduced Mod.
[#]	[#]	[um]	[s]	[um]	[um]	[um]	[m°]	[m°]	[um]	[uN]	[uN]	[V]	[V]	[V]	[°C]	[uN]	[um]	[N/m]	[°]	[°]	[uN]	[um]	[um]	[um]	[uN]	[N/m]	[um]	[um^2]	[MPa]	[MPa]
579	1.000000	0.002723	7.37071e+06	-48139.1	1005.82	-29763.4	0.000000	0.000000	6.002791	-0.017136	NaN	0.000000	0.001627	0.001758	28.0805	0.023407	0.001086	21.5558	30.7318	-164.267	-0.024284	0.001439	-1.154924	-1.156208	-0.017136	21.5558	-1.154328	-2.684374E+15	6.383544E-18	NaN
579	1.000000	0.012787	7.37071e+06	-48139.1	1005.82	-29763.4	0.000000	0.000000	6.012855	-0.053737	NaN	0.000000	0.001657	0.001719	28.0808	0.039137	0.001248	31.3499	135.089	20.7406	0.002537	0.011387	-1.144860	-1.146261	-0.053737	31.3499	-1.143574	-1.926035E+15	2.790047E-17	NaN
579	1.000000	0.022697	7.37071e+06	-48139.1	1005.82	-29763.4	0.000000	0.000000	6.022764	-0.053821	NaN	0.000000	0.001636	0.001733	28.0805	0.119501	0.001664	71.8052	-111.226	-164.402	-0.011165	0.021363	-1.134951	-1.136284	-0.053821	71.8052	-1.134388	-1.450378E+15	3.710812E-17	NaN
579	1.000000	0.032677	7.37071e+06	-48139.1	1005.82	-29763.4	0.000000	0.000000	6.032746	-0.018606	NaN	0.000000	0.001648	0.001774	28.0797	0.178169	0.001983	89.8386	28.1165	13.4847	-0.079091	0.031296	-1.124970	-1.126351	-0.018606	89.8386	-1.124814	-1.079102E+15	1.724178E-17	NaN
579	1.000000	0.042669	7.37071e+06	-48139.1	1005.82	-29763.4	0.000000	0.000000	6.042738	-0.019780	NaN	0.000000	0.001653	0.001777	28.0798	0.056177	0.001999	28.1074	-128.539	-165.031	0.007309	0.041354	-1.114978	-1.116293	-0.019780	28.1074	-1.114450	-7.834346E+14	2.524745E-17	NaN
579	1.000000	0.052662	7.37071e+06	-48139.1	1005.82	-29763.4	0.000000	0.000000	6.052731	0.000308	NaN	0.000000	0.001642	0.001763	28.0797	0.052531	0.002004	26.2155	105.17	14.1084	-0.024707	0.051334	-1.104985	-1.106313	0.000308	26.2155	-1.104994	-5.849291E+14	-5.257325E-19	NaN
579	1.000000	0.062677	7.37071e+06	-48139.1	1005.82	-29763.4	0.000000	0.000000	6.062746	-0.025694	NaN	0.000000	0.001563	0.001719	28.0797	0.047871	0.002010	23.8122	59.3354	-167.851	0.017655	0.061393	-1.094970	-1.096254	-0.025694	23.8122	-1.094161	-4.184790E+14	6.139898E-17	NaN
579	1.000000	0.072687	7.37071e+06	-48139.1	1005.82	-29763.4	0.000000	0.000000	6.072756	-0.015802	NaN	0.000000	0.001573	0.001737	28.0799	0.047486	0.001973	24.073	-57.9068	10.8644	-0.092828	0.071368	-1.084960	-1.086279	-0.015802	24.073	-1.084468	-3.101169E+14	5.095561E-17	NaN
579	1.000000	0.082678	7.37071e+06	-48139.1	1005.82	-29763.4	0.000000	0.000000	6.082746	-0.018007	NaN	0.000000	0.001537	0.001728	28.0798	0.041579	0.001945	21.3827	-58.6235	-165.74	0.006008	0.081354	-1.074969	-1.076293	-0.018007	21.3827	-1.074338	-2.267068E+14	7.942702E-17	NaN
579	1.000000	0.092710	7.37071e+06	-48139.1	1005.82	-29763.4	0.000000	0.000000	6.092779	0.003647	NaN	0.000000	0.001544	0.001737	28.0795	0.059920	0.002262	26.4937	87.5533	14.0176	0.036491	0.091309	-1.064937	-1.066338	0.003647	26.4937	-1.065041	-1.700413E+14	-2.144529E-17	NaN
579	1.000000	0.102730	7.37071e+06	-48139.1	1005.82	-29763.4	0.000000	0.000000	6.102798	-0.038407	NaN	0.000000	0.001542	0.001737	28.0797	0.133098	0.001985	67.0686	-138.859	-164.714	0.015184	0.101376	-1.054917	-1.056271	-0.038407	67.0686	-1.054488	-1.226702E+14	3.130894E-16	NaN
579	1.000000	0.112674	7.37071e+06	-48139.1	1005.82	-29763.4	0.000000	0.000000	6.112744	0.001733	NaN	0.000000	0.001565	0.001724	28.0798	0.012862	0.002149	5.984667	-56.0068	12.6171	-0.050022	0.111346	-1.044973	-1.046301	0.001733	5.984667	-1.045190	-9.199168E+13	-1.883349E-17	NaN
579	1.000000	0.122689	7.37071e+06	-48139.1	1005.82	-29763.4	0.000000	0.000000	6.122757	-0.049007	NaN	0.000000	0.001537	0.001764	28.0796	0.095478	0.002017	47.3381	-85.6793	-167.453	0.006241	0.121438	-1.034958	-1.036209	-0.049007	47.3381	-1.034181	-6.542139E+13	7.491002E-16	NaN
579	1.000000	0.132708	7.37071e+06	-48139.1	1005.82	-29763.4	0.000000	0.000000	6.132775	-0.068856	NaN	0.000000	0.001527	0.001723	28.0794	0.028368	0.001865	15.2122	-110.257	12.8984	-0.045920	0.131371	-1.024939	-1.026277	-0.068856	15.2122	-1.021544	-4.423146E+13	1.556716E-15	NaN
579	1.000000	0.142711	7.37071e+06	-48139.1	1005.82	-29763.4	0.000000	0.000000	6.142777	-0.076902	NaN	0.000000	0.001543	0.001752	28.0798	0.041213	0.001958	21.0516	-2.777998	-171.318	-0.027463	0.141457	-1.014936	-1.016190	-0.076902	21.0516	-1.012196	-3.310863E+13	2.322724E-15	NaN
579	1.000000	0.152715	7.37071e+06	-48139.1	1005.82	-29763.4	0.000000	0.000000	6.152786	0.032355	NaN	0.000000	0.001522	0.001744	28.0795	0.092889	0.001979	46.9416	21.847	15.5707	-0.018252	0.151369	-1.004932	-1.006278	0.032355	46.9416	-1.005449	-2.686116E+13	-1.204538E-15	NaN
579	1.000000	0.162715	7.37071e+06	-48139.1	1005.82	-29763.4	0.000000	0.000000	6.162783	-0.031262	NaN	0.000000	0.001542	0.001711	28.0807	0.049363	0.001964	25.1318	167.919	-164.359	0.045638	0.161330	-0.994932	-0.996318	-0.031262	25.1318	-0.993999	-1.883529E+13	1.659753E-15	NaN
579	1.000000	0.172721	7.37071e+06	-48139.1	1005.82	-29763.4	0.000000	0.000000	6.172789	-0.041246	NaN	0.000000	0.001539	0.001721	28.0808	0.080327	0.002031	39.5595	-89.4809	13.2142	-0.011053	0.171388	-0.984926	-0.986259	-0.041246	39.5595	-0.984144	-1.387511E+13	2.972628E-15	NaN
579	1.000000	0.182715	7.37071e+06	-48139.1	1005.82	-29763.4	0.000000	0.000000	6.182781	-0.086149	NaN	0.000000	0.001524	0.001750	28.0812	0.054306	0.002153	25.2217	-67.4005	-164.839	-0.101087	0.181458	-0.974932	-0.976189	-0.086149	25.2217	-0.972371	-9.629640E+12	8.946191E-15	NaN
579	1.000000	0.192716	7.37071e+06	-48139.1	1005.82	-29763.4	0.000000	0.000000	6.192782	-0.091326	NaN	0.000000	0.001550	0.001717	28.081	0.069190	0.001988	34.8034	104.318	12.2899	-0.085078	0.191393	-0.964931	-0.966254	-0.091326	34.8034	-0.962963	-7.191340E+12	1.269950E-14	NaN
579	1.000000	0.202736	7.37071e+06	-48139.1	1005.82	-29763.4	0.000000	0.000000	6.202801	-0.098989	NaN	0.000000	0.001535	0.001730	28.0808	0.068553	0.001982	34.5951	74.809	-168.575	-0.100909	0.201448	-0.954911	-0.956199	-0.098989	34.5951	-0.952765	-5.239873E+12	1.889154E-14	NaN
579	1.000000	0.212728	7.37071e+06	-48139.1	1005.82	-29763.4	0.000000	0.000000	6.212798	0.023776	NaN	0.000000	0.001557	0.001745	28.0811	0.063350	0.002022	31.3369	176.774	12.0957	-0.007180	0.211347	-0.944919	-0.946300	0.023776	31.3369	-0.945488	-4.180012E+12	-5.688051E-15	NaN
579	1.000000	0.222768	7.37071e+06	-48139.1	1005.82	-29763.4	0.000000	0.000000	6.222836	-0.038241	NaN	0.000000	0.001554	0.001738	28.0812	0.085447	0.002026	42.182	-124.681	-167.926	-0.121384	0.221454	-0.934879	-0.936193	-0.038241	42.182	-0.934199	-2.943533E+12	1.299144E-14	NaN
579	1.000000	0.232782	7.37071e+06	-48139.1	1005.82	-29763.4	0.000000	0.000000	6.232851	-0.008782	NaN	0.000000	0.001547	0.001751	28.081	0.075099	0.002016	37.2567	-106.063	11.1855	-0.032972	0.231422	-0.924866	-0.926225	-0.008782	37.2567	-0.924689	-2.190317E+12	4.009659E-15	NaN
579	1.000000	0.242751	7.37071e+06	-48139.1	1005.82	-29763.4	0.000000	0.000000	6.242818	-0.053997	NaN	0.000000	0.001577	0.001760	28.0811	0.036442	0.002034	17.9171	-175.443	-167.07	0.056231	0.241424	-0.914896	-0.916223	-0.053997	17.9171	-0.912636	-1.505790E+12	3.585970E-14	NaN
579	1.000000	0.252779	7.37071e+06	-48139.1	1005.82	-29763.4	0.000000	0.000000	6.252849	-0.004653	NaN	0.000000	0.001656	0.001762	28.0812	0.110292	0.002020	54.6011	91.3555	16.3248	0.032315	0.251362	-0.904868	-0.906285	-0.004653	54.6011	-0.904804	-1.180245E+12	3.942590E-15	NaN
579	1.000000	0.262756	7.37071e+06	-48139.1	1005.82	-29763.4	0.000000	0.000000	6.262824	-0.026947	NaN	0.000000	0.001649	0.001775	28.0813	0.025668	0.002010	12.7692	12.7479	-166.199	-0.038949	0.261432	-0.894891	-0.896215	-0.026947	12.7692	-0.893309	-8.253521E+11	3.264864E-14	NaN
579	1.000000	0.272773	7.37071e+06	-48139.1	1005.82	-29763.4	0.000000	0.000000	6.272840	-0.045427	NaN	0.000000	0.001617	0.001737	28.0821	0.096334	0.001974	48.8003	106.285	13.3679	-0.038231	0.271408	-0.884874	-0.886240	-0.045427	48.8003	-0.884176	-6.211280E+11	7.313663E-14	NaN
579	1.000000	0.282778	7.37071e+06	-48139.1	1005.82	-29763.4	0.000000	0.000000	6.282842	-0.111506	NaN	0.000000	0.001577	0.001759	28.0812	0.040362	0.001957	20.6242	174.619	-166.627	-0.123901	0.281493	-0.874870	-0.876154	-0.111506	20.6242	-0.870815	-4.096990E+11	2.721652E-13	NaN
579	1.000000	0.292810	7.37071e+06	-48139.1	1005.82	-29763.4	0.000000	0.000000	6.292874	-0.113543	NaN	0.000000	0.001610	0.001726	28.0812	0.062203	0.001986	31.3203	108.175	14.4153	-0.137828	0.291432	-0.864837	-0.866215	-0.113543	31.3203	-0.862119	-3.124604E+11	3.633836E-13	NaN
579	1.000000	0.302773	7.37071e+06	-48139.1	1005.82	-29763.4	0.000000	0.000000	6.302840	-0.044645	NaN	0.000000	0.001590	0.001755	28.0802	0.089623	0.002062	43.4718	-173.355	-166.907	-0.047616	0.301485	-0.854874	-0.856162	-0.044645	43.4718	-0.854104	-2.433924E+11	1.834269E-13	NaN
579	1.000000	0.312788	7.37071e+06	-48139.1	1005.82	-29763.4	0.000000	0.000000	6.312853	-0.092199	NaN	0.000000	0.001610	0.001736	28.0798	0.028463	0.002135	13.3305	-58.3688	11.1034	-0.038491	0.311411	-0.844859	-0.846236	-0.092199	13.3305	-0.839672	-1.551855E+11	5.941238E-13	NaN
579	1.000000	0.322779	7.37071e+06	-48139.1	1005.82	-29763.4	0.000000	0.000000	6.322847	-0.020425	NaN	0.000000	0.001646	0.001741	28.08	0.046279	0.001903	24.3227	-174.847	-165.691	0.033311	0.321478	-0.834868	-0.836169	-0.020425	24.3227	-0.834239	-1.309871E+11	1.559323E-13	NaN
579	1.000000	0.332807	7.37071e+06	-48139.1	1005.82	-29763.4	0.000000	0.000000	6.332878	0.034057	NaN	0.000000	0.001660	0.001734	28.0801	0.055350	0.001895	29.2121	15.4833	13.4856	0.023454	0.331476	-0.824840	-0.826171	0.034057	29.2121	-0.825714	-1.003901E+11	-3.392444E-13	NaN
579	1.000000	0.342817	7.37071e+06	-48139.1	1005.82	-29763.4	0.000000	0.000000	6.342889	0.041844	NaN	0.000000	0.001640	0.001751	28.0799	0.132008	0.001937	68.1423	54.2707	-166.181	0.015024	0.341501	-0.814830	-0.816146	0.041844	68.1423	-0.815290	-7.249978E+10	-5.771570E-13	NaN
579	1.000000	0.352785	7.37071e+06	-48139.1	1005.82	-29763.4	0.000000	0.000000	6.352853	-0.028127	NaN	0.000000	0.001634	0.001751	28.0801	0.019621	0.001960	10.009	-99.3078	12.1183	0.032733	0.351409	-0.804862	-0.806238	-0.028127	10.009	-0.802755	-4.900664E+10	5.739478E-13	NaN
579	1.000000	0.362818	7.37071e+06	-48139.1	1005.82	-29763.4	0.000000	0.000000	6.362887	-0.010116	NaN	0.000000	0.001635	0.001792	28.0799	0.048967	0.001982	24.7064	4.780614	-170.381	-0.030779	0.361522	-0.794829	-0.796126	-0.010116	24.7064	-0.794522	-3.788670E+10	2.670101E-13	NaN
579	1.000000	0.372817	7.37071e+06	-48139.1	1005.82	-29763.4	0.000000	0.000000	6.372886	-0.016490	NaN	0.000000	0.001631	0.001763	28.08	0.016059	0.002009	7.994779	-43.2722	12.573	0.024960	0.371451	-0.784830	-0.786196	-0.016490	7.994779	-0.783283	-2.665854E+10	6.185683E-13	NaN
579	1.000000	0.382793	7.37071e+06	-48139.1	1005.82	-29763.4	0.000000	0.000000	6.382861	-0.026494	NaN	0.000000	0.001560	0.001763	28.0796	0.116511	0.001993	58.4586	-92.7717	-165.882	-0.057296	0.381507	-0.774854	-0.776140	-0.026494	58.4586	-0.774514	-2.026169E+10	1.307580E-12	NaN
579	1.000000	0.392818	7.37071e+06	-48139.1	1005.82	-29763.4	0.000000	0.000000	6.392887	-0.007854	NaN	0.000000	0.001575	0.001752	28.0796	0.190131	0.002107	90.2337	-10.5932	12.8367	-0.004828	0.391445	-0.764829	-0.766202	-0.007854	90.2337	-0.764764	-1.493151E+10	5.259793E-13	NaN
579	1.000000	0.402842	7.37071e+06	-48139.1	1005.82	-29763.4	0.000000	0.000000	6.402909	-0.040820	NaN	0.000000	0.001534	0.001776	28.0794	0.027095	0.001993	13.5974	-17.7804	-165.619	-0.001339	0.401477	-0.754806	-0.756170	-0.040820	13.5974	-0.752554	-1.018552E+10	4.007654E-12	NaN
579	1.000000	0.412861	7.37071e+06	-48139.1	1005.82	-29763.4	0.000000	0.000000	6.412927	-0.080910	NaN	0.000000	0.001553	0.001707	28.0794	0.072730	0.001989	36.566	46.6355	11.8429	-0.163078	0.411461	-0.744786	-0.746186	-0.080910	36.566	-0.743127	-7.579433E+9	1.067496E-11	NaN
579	1.000000	0.422837	7.37071e+06	-48139.1	1005.82	-29763.4	0.000000	0.000000	6.422907	0.024807	NaN	0.000000	0.001559	0.001779	28.0794	0.055409	0.001996	27.7614	121.41	-164.548	0.051755	0.421548	-0.734810	-0.736099	0.024807	27.7614	-0.735480	-5.963319E+9	-4.160008E-12	NaN
579	1.000000	0.432818	7.37071e+06	-48139.1	1005.82	-29763.4	0.000000	0.000000	6.432888	0.016881	NaN	0.000000	0.001568	0.001778	28.0796	0.117095	0.002015	58.1066	-57.8684	13.4234	-0.061112	0.431464	-0.724829	-0.726183	0.016881	58.1066	-0.725047	-4.298218E+9	-3.927461E-12	NaN
579	1.000000	0.442815	7.37071e+06	-48139.1	1005.82	-29763.4	0.000000	0.000000	6.442881	-0.095149	NaN	0.000000	0.001575	0.001732	28.0806	0.051482	0.002058	25.0189	-154.26	-167.668	-0.095837	0.441541	-0.714832	-0.716106	-0.095149	25.0189	-0.711979	-2.851411E+9	3.336919E-11	NaN
579	1.000000	0.452856	7.37071e+06	-48139.1	1005.82	-29763.4	0.000000	0.000000	6.452921	-0.090743	NaN	0.000000	0.001560	0.001713	28.0807	0.103275	0.002043	50.5497	-173.125	13.4573	-0.071646	0.451492	-0.704792	-0.706155	-0.090743	50.5497	-0.703445	-2.180595E+9	4.161379E-11	NaN
579	1.000000	0.462845	7.37071e+06	-48139.1	1005.82	-29763.4	0.000000	0.000000	6.462911	-0.074363	NaN	0.000000	0.001558	0.001724	28.0808	0.048111	0.001896	25.3715	-80.8736	-168.093	-0.036649	0.461567	-0.694802	-0.696081	-0.074363	25.3715	-0.692604	-1.550597E+9	4.795766E-11	NaN
579	1.000000	0.472836	7.37071e+06	-48139.1	1005.82	-29763.4	0.000000	0.000000	6.472903	-0.053676	NaN	0.000000	0.001534	0.001740	28.0806	0.067352	0.001887	35.7012	-173.275	9.671353	-0.079930	0.471523	-0.684812	-0.686124	-0.053676	35.7012	-0.683684	-1.171066E+9	4.583517E-11	NaN
579	1.000000	0.482833	7.37071e+06	-48139.1	1005.82	-29763.4	0.000000	0.000000	6.482903	0.026516	NaN	0.000000	0.001535	0.001725	28.0802	0.107749	0.001956	55.0958	-179.769	-167.684	0.003865	0.481555	-0.674815	-0.676093	0.026516	55.0958	-0.675175	-8.958015E+8	-2.960022E-11	NaN
579	1.000000	0.492831	7.37071e+06	-48139.1	1005.82	-29763.4	0.000000	0.000000	6.492899	-0.038735	NaN	0.000000	0.001558	0.001769	28.0805	0.034315	0.001997	17.1811	-61.8981	9.590643	-0.109324	0.491447	-0.664816	-0.666200	-0.038735	17.1811	-0.663125	-6.127363E+8	6.321700E-11	NaN
579	1.000000	0.502861	7.37071e+06	-48139.1	1005.82	-29763.4	0.000000	0.000000	6.502927	-0.082576	NaN	0.000000	0.001549	0.001773	28.0806	0.064871	0.002155	30.1095	-145.334	-168.407	-0.041105	0.501596	-0.654786	-0.656051	-0.082576	30.1095	-0.652729	-4.414118E+8	1.870723E-10	NaN
579	1.000000	0.512899	7.37071e+06	-48139.1	1005.82	-29763.4	0.000000	0.000000	6.512965	-0.095459	NaN	0.000000	0.001551	0.001750	28.0805	0.059431	0.001985	29.9462	-32.5403	10.6985	-0.071745	0.511506	-0.644748	-0.646142	-0.095459	29.9462	-0.642357	-3.181474E+8	3.000478E-10	NaN
579	1.000000	0.522886	7.37071e+06	-48139.1	1005.82	-29763.4	0.000000	0.000000	6.522957	0.035443	NaN	0.000000	0.001559	0.001753	28.0805	0.045423	0.002125	21.3709	-87.1228	-163.892	0.020045	0.521572	-0.634761	-0.636075	0.035443	21.3709	-0.636005	-2.602936E+8	-1.361650E-10	NaN
579	1.000000	0.532864	7.37071e+06	-48139.1	1005.82	-29763.4	0.000000	0.000000	6.532931	-0.045854	NaN	0.000000	0.001562	0.001769	28.0807	0.009544	0.002032	4.697824	174.266	14.3844	-0.078919	0.531482	-0.624783	-0.626165	-0.045854	4.697824	-0.617463	-1.447953E+8	3.166825E-10	NaN
579	1.000000	0.542889	7.37071e+06	-48139.1	1005.82	-29763.4	0.000000	0.000000	6.542957	-0.031293	NaN	0.000000	0.001562	0.001729	28.0805	0.020833	0.001907	10.924	-36.7565	-168.356	-0.084754	0.541569	-0.614758	-0.616078	-0.031293	10.924	-0.612610	-1.241699E+8	2.520171E-10	NaN
579	1.000000	0.552917	7.37071e+06	-48139.1	1005.82	-29763.4	0.000000	0.000000	6.552984	-0.054628	NaN	0.000000	0.001552	0.001744	28.0804	0.036757	0.001972	18.6355	-33.2612	11.3576	-0.098908	0.551520	-0.604730	-0.606127	-0.054628	18.6355	-0.602532	-9.022405E+7	6.054697E-10	NaN
579	1.000000	0.562856	7.37071e+06	-48139.1	1005.82	-29763.4	0.000000	0.000000	6.562920	-0.147262	NaN	0.000000	0.001573	0.001760	28.0804	0.145950	0.002033	71.793	-143.345	-164.663	-0.041702	0.561583	-0.594791	-0.596065	-0.147262	71.793	-0.593252	-6.721979E+7	2.190754E-9	NaN
579	1.000000	0.572883	7.37071e+06	-48139.1	1005.82	-29763.4	0.000000	0.000000	6.572953	0.017179	NaN	0.000000	0.001525	0.001734	28.0795	0.177688	0.001879	94.5655	64.6388	16.6562	0.048192	0.571498	-0.584764	-0.586149	0.017179	94.5655	-0.584900	-5.156333E+7	-3.331611E-10	NaN
579	1.000000	0.582897	7.37071e+06	-48139.1	1005.82	-29763.4	0.000000	0.000000	6.582963	-0.080732	NaN	0.000000	0.001544	0.001746	28.0792	0.053238	0.002002	26.5885	38.0828	-166.329	-0.005980	0.581614	-0.574750	-0.576033	-0.080732	26.5885	-0.572473	-3.473761E+7	2.324065E-9	NaN
579	1.000000	0.592892	7.37071e+06	-48139.1	1005.82	-29763.4	0.000000	0.000000	6.592960	-0.030827	NaN	0.000000	0.001572	0.001738	28.0793	0.105012	0.002015	52.1044	-167.621	10.8109	-0.097091	0.591541	-0.564756	-0.566107	-0.030827	52.1044	-0.564312	-2.679240E+7	1.150569E-9	NaN
579	1.000000	0.602907	7.37071e+06	-48139.1	1005.82	-29763.4	0.000000	0.000000	6.602974	-0.060711	NaN	0.000000	0.001578	0.001740	28.0795	0.072708	0.002042	35.615	122.924	-168.186	-0.012659	0.601605	-0.554740	-0.556042	-0.060711	35.615	-0.553462	-1.896244E+7	3.201632E-9	NaN
579	1.000000	0.612941	7.37071e+06	-48139.1	1005.82	-29763.4	0.000000	0.000000	6.613007	-0.083514	NaN	0.000000	0.001564	0.001737	28.0793	0.034677	0.002071	16.7433	-6.119368	12.1787	-0.026455	0.611581	-0.544706	-0.546067	-0.083514	16.7433	-0.540965	-1.272759E+7	6.561657E-9	NaN
579	1.000000	0.622922	7.37071e+06	-48139.1	1005.82	-29763.4	0.000000	0.000000	6.622989	-0.051530	NaN	0.000000	0.001586	0.001743	28.0793	0.087858	0.001962	44.788	-134.527	-166.159	-0.049306	0.621597	-0.534725	-0.536050	-0.051530	44.788	-0.533863	-1.014387E+7	5.079890E-9	NaN
579	1.000000	0.632947	7.37071e+06	-48139.1	1005.82	-29763.4	0.000000	0.000000	6.633017	0.016322	NaN	0.000000	0.001584	0.001752	28.0793	0.040129	0.002080	19.2949	-124.812	14.0745	-0.020841	0.631575	-0.524701	-0.526072	0.016322	19.2949	-0.525335	-7.72269e+06	-2.113515E-9	NaN
579	1.000000	0.642953	7.37071e+06	-48139.1	1005.82	-29763.4	0.000000	0.000000	6.643021	-0.036341	NaN	0.000000	0.001528	0.001768	28.0797	0.053201	0.001969	27.0201	84.5905	-166.354	-0.118206	0.641610	-0.514694	-0.516037	-0.036341	27.0201	-0.513685	-5.31782e+06	6.833824E-9	NaN
579	1.000000	0.652943	7.37071e+06	-48139.1	1005.82	-29763.4	0.000000	0.000000	6.653010	-0.057038	NaN	0.000000	0.001553	0.001728	28.0793	0.070854	0.002046	34.6374	1.828611	13.4576	-0.080118	0.651596	-0.504704	-0.506051	-0.057038	34.6374	-0.503469	-3.83183e+06	1.488525E-8	NaN
579	1.000000	0.662956	7.37071e+06	-48139.1	1005.82	-29763.4	0.000000	0.000000	6.663026	0.010954	NaN	0.000000	0.001548	0.001760	28.0793	0.054491	0.001950	27.9433	24.0199	-165.719	-0.004002	0.661622	-0.494691	-0.496025	0.010954	27.9433	-0.494985	-2.9176e+06	-3.754431E-9	NaN
579	1.000000	0.672957	7.37071e+06	-48139.1	1005.82	-29763.4	0.000000	0.000000	6.673022	-0.107971	NaN	0.000000	0.001563	0.001768	28.0792	0.052722	0.001910	27.6063	-51.2895	11.8427	-0.043299	0.671604	-0.484690	-0.486044	-0.107971	27.6063	-0.481757	-1.90599e+06	5.664823E-8	NaN
579	1.000000	0.682920	7.37071e+06	-48139.1	1005.82	-29763.4	0.000000	0.000000	6.682987	-0.054481	NaN	0.000000	0.001568	0.001748	28.0794	0.051495	0.002056	25.0444	95.3727	-162.354	-0.082053	0.681638	-0.474727	-0.476009	-0.054481	25.0444	-0.473095	-1.44148e+06	3.779502E-8	NaN
579	1.000000	0.692942	7.37071e+06	-48139.1	1005.82	-29763.4	0.000000	0.000000	6.693007	-0.089331	NaN	0.000000	0.001561	0.001763	28.0792	0.049096	0.002134	23.0046	-52.589	15.9038	-0.074993	0.691578	-0.464705	-0.466069	-0.089331	23.0046	-0.461793	-1.00048e+06	8.928774E-8	NaN
579	1.000000	0.702942	7.37071e+06	-48139.1	1005.82	-29763.4	0.000000	0.000000	6.703010	-0.044024	NaN	0.000000	0.001564	0.001765	28.0795	0.098337	0.002089	47.0784	-37.083	-165.915	0.000648	0.701633	-0.454705	-0.456014	-0.044024	47.0784	-0.454004	-777500	5.662184E-8	NaN
579	1.000000	0.712969	7.37071e+06	-48139.1	1005.82	-29763.4	0.000000	0.000000	6.713037	-0.036575	NaN	0.000000	0.001595	0.001762	28.0807	0.085593	0.002121	40.3623	104.385	9.819440	0.046918	0.711556	-0.444678	-0.446091	-0.036575	40.3623	-0.443999	-562046	6.507494E-8	NaN
579	1.000000	0.722965	7.37071e+06	-48139.1	1005.82	-29763.4	0.000000	0.000000	6.723032	-0.067785	NaN	0.000000	0.001536	0.001744	28.0806	0.155519	0.002074	74.9962	-168.144	-166.235	-0.030547	0.721680	-0.434682	-0.435968	-0.067785	74.9962	-0.434004	-406144	1.668977E-7	NaN
579	1.000000	0.732969	7.37071e+06	-48139.1	1005.82	-29763.4	0.000000	0.000000	6.733039	0.020002	NaN	0.000000	0.001539	0.001761	28.0804	0.004479	0.002010	2.228650	-24.7129	14.1926	0.043389	0.731649	-0.424678	-0.425998	0.020002	2.228650	-0.431409	-373246	-5.358929E-8	NaN
579	1.000000	0.742966	7.37071e+06	-48139.1	1005.82	-29763.4	0.000000	0.000000	6.743035	-0.011694	NaN	0.000000	0.001540	0.001737	28.0805	0.073281	0.001979	37.0308	-36.8006	-164.863	-0.039918	0.741651	-0.414681	-0.415996	-0.011694	37.0308	-0.414445	-214569	5.450038E-8	NaN
579	1.000000	0.752992	7.37071e+06	-48139.1	1005.82	-29763.4	0.000000	0.000000	6.753062	0.012179	NaN	0.000000	0.001553	0.001770	28.0806	0.067295	0.002029	33.1587	-134.333	13.1305	0.091916	0.751588	-0.404655	-0.406059	0.012179	33.1587	-0.404931	-157132	-7.750819E-8	NaN
579	1.000000	0.762985	7.37071e+06	-48139.1	1005.82	-29763.4	0.000000	0.000000	6.763053	-0.019247	NaN	0.000000	0.001567	0.001771	28.0806	0.028481	0.002133	13.3521	-172.738	-164.921	-0.080838	0.761732	-0.394663	-0.395915	-0.019247	13.3521	-0.393582	-108236	1.778226E-7	NaN
579	1.000000	0.773004	7.37071e+06	-48139.1	1005.82	-29763.4	0.000000	0.000000	6.773072	-0.021528	NaN	0.000000	0.001555	0.001760	28.0804	0.071102	0.001971	36.0751	178.111	13.8756	-0.024037	0.771648	-0.384643	-0.386000	-0.021528	36.0751	-0.384196	-79444.6	2.709804E-7	NaN
579	1.000000	0.783037	7.37071e+06	-48139.1	1005.82	-29763.4	0.000000	0.000000	6.783106	-0.004915	NaN	0.000000	0.001537	0.001740	28.0811	0.022918	0.002024	11.3226	148.019	-166.359	-0.000703	0.781681	-0.374611	-0.375966	-0.004915	11.3226	-0.374285	-57252.2	8.585608E-8	NaN
579	1.000000	0.792969	7.37071e+06	-48139.1	1005.82	-29763.4	0.000000	0.000000	6.793038	-0.016642	NaN	0.000000	0.001536	0.001758	28.0809	0.046640	0.002065	22.5903	146.344	8.943580	-0.086530	0.791681	-0.364678	-0.365966	-0.016642	22.5903	-0.364126	-40872.9	4.071766E-7	NaN
579	1.000000	0.802986	7.37071e+06	-48139.1	1005.82	-29763.4	0.000000	0.000000	6.803053	-0.044143	NaN	0.000000	0.001558	0.001766	28.0806	0.039625	0.002008	19.738	74.4294	-165.611	-0.088949	0.801665	-0.354661	-0.355982	-0.044143	19.738	-0.352984	-28202.3	1.565217E-6	NaN
579	1.000000	0.812997	7.37071e+06	-48139.1	1005.82	-29763.4	0.000000	0.000000	6.813060	-0.137435	NaN	0.000000	0.001532	0.001734	28.0805	0.100119	0.002043	49.0151	169.054	11.4877	-0.072205	0.811686	-0.344650	-0.345961	-0.137435	49.0151	-0.342548	-19891.5	6.909220E-6	NaN
579	1.000000	0.822988	7.37072e+06	-48139.1	1005.82	-29763.4	0.000000	0.000000	6.823056	-0.030993	NaN	0.000000	0.001543	0.001731	28.0807	0.023276	0.002215	10.507	-77.0406	-165.988	-0.098539	0.821716	-0.334660	-0.335931	-0.030993	10.507	-0.332447	-14166.7	2.187738E-6	NaN
579	1.000000	0.833002	7.37072e+06	-48139.1	1005.82	-29763.4	0.000000	0.000000	6.833069	-0.056807	NaN	0.000000	0.001535	0.001796	28.0806	0.062651	0.001974	31.7402	15.1318	15.2436	-0.025917	0.831635	-0.324645	-0.326012	-0.056807	31.7402	-0.323303	-10404.1	5.460069E-6	NaN
579	1.000000	0.843022	7.37072e+06	-48139.1	1005.82	-29763.4	0.000000	0.000000	6.843091	-0.015875	NaN	0.000000	0.001559	0.001734	28.0806	0.028244	0.002007	14.076	77.2707	-164.989	0.014790	0.841749	-0.314625	-0.315898	-0.015875	14.076	-0.313779	-7532.24	2.107544E-6	NaN
579	1.000000	0.852992	7.37072e+06	-48139.1	1005.82	-29763.4	0.000000	0.000000	6.853058	-0.089632	NaN	0.000000	0.001568	0.001759	28.0797	0.118725	0.001973	60.1611	-144.189	14.1212	-0.140477	0.851672	-0.304655	-0.305975	-0.089632	60.1611	-0.303537	-5311.77	1.687416E-5	NaN
579	1.000000	0.862993	7.37072e+06	-48139.1	1005.82	-29763.4	0.000000	0.000000	6.863060	-0.056725	NaN	0.000000	0.001549	0.001769	28.0796	0.092605	0.001969	47.0353	-57.1317	-169.06	-0.028474	0.861725	-0.294654	-0.295922	-0.056725	47.0353	-0.293749	-3796.68	1.494072E-5	NaN
579	1.000000	0.873034	7.37072e+06	-48139.1	1005.82	-29763.4	0.000000	0.000000	6.873102	-0.023231	NaN	0.000000	0.001553	0.001799	28.0796	0.035669	0.001997	17.8598	-103.081	14.7341	-0.027517	0.871666	-0.284614	-0.285981	-0.023231	17.8598	-0.283638	-2677.83	8.675436E-6	NaN
579	1.000000	0.883027	7.37072e+06	-48139.1	1005.82	-29763.4	0.000000	0.000000	6.883095	-0.052080	NaN	0.000000	0.001545	0.001783	28.0795	0.059906	0.002061	29.0692	-140.004	-171.02	-0.022656	0.881704	-0.274620	-0.275943	-0.052080	29.0692	-0.273276	-1867.58	2.788633E-5	NaN
579	1.000000	0.893023	7.37072e+06	-48139.1	1005.82	-29763.4	0.000000	0.000000	6.893090	-0.069236	NaN	0.000000	0.001559	0.001737	28.0795	0.050696	0.001977	25.6429	108.48	12.5658	-0.106579	0.891662	-0.264624	-0.265985	-0.069236	25.6429	-0.262599	-1284.42	5.390415E-5	NaN
579	1.000000	0.903028	7.37072e+06	-48139.1	1005.82	-29763.4	0.000000	0.000000	6.903094	-0.075311	NaN	0.000000	0.001567	0.001794	28.0794	0.088848	0.001947	45.6286	29.3939	-167.052	-0.154229	0.901704	-0.254619	-0.255944	-0.075311	45.6286	-0.253382	-927.219	8.122259E-5	NaN
579	1.000000	0.913029	7.37072e+06	-48139.1	1005.82	-29763.4	0.000000	0.000000	6.913094	-0.100012	NaN	0.000000	0.001524	0.001737	28.0794	0.078466	0.001951	40.2208	13.8764	17.8414	-0.105101	0.911703	-0.244618	-0.245944	-0.100012	40.2208	-0.242753	-634.598	0.000158	NaN
579	1.000000	0.923025	7.37072e+06	-48139.1	1005.82	-29763.4	0.000000	0.000000	6.923093	-0.035953	NaN	0.000000	0.001540	0.001775	28.0793	0.093695	0.002032	46.1195	149.009	-167.693	-0.025786	0.921706	-0.234622	-0.235942	-0.035953	46.1195	-0.234037	-463.579	7.755504E-5	NaN
579	1.000000	0.933032	7.37072e+06	-48139.1	1005.82	-29763.4	0.000000	0.000000	6.933100	-0.053408	NaN	0.000000	0.001560	0.001758	28.0797	0.023735	0.002004	11.8433	89.4872	17.6028	-0.033266	0.931746	-0.224615	-0.225901	-0.053408	11.8433	-0.221233	-290.643	0.000184	NaN
579	1.000000	0.943058	7.37072e+06	-48139.1	1005.82	-29763.4	0.000000	0.000000	6.943125	-0.060030	NaN	0.000000	0.001569	0.001752	28.0792	0.062903	0.002071	30.3771	-169.593	-165.177	-0.078934	0.941733	-0.214589	-0.215914	-0.060030	30.3771	-0.213107	-215.291	0.000279	NaN
579	1.000000	0.953058	7.37072e+06	-48139.1	1005.82	-29763.4	0.000000	0.000000	6.953121	-0.135449	NaN	0.000000	0.001570	0.001724	28.0795	0.066473	0.002107	31.5438	-152.966	14.924	-0.146969	0.951648	-0.204589	-0.205999	-0.135449	31.5438	-0.201369	-138.731	0.000976	NaN
579	1.000000	0.963065	7.37072e+06	-48139.1	1005.82	-29763.4	0.000000	0.000000	6.963134	-0.014785	NaN	0.000000	0.001587	0.001761	28.0793	0.118556	0.001928	61.5019	156.58	-167.32	-0.007506	0.961733	-0.194582	-0.195914	-0.014785	61.5019	-0.194402	-106.484	0.000139	NaN
579	1.000000	0.973061	7.37072e+06	-48139.1	1005.82	-29763.4	0.000000	0.000000	6.973128	-0.070133	NaN	0.000000	0.001582	0.001778	28.0795	0.081842	0.001960	41.7518	-40.997	15.9182	-0.069226	0.971758	-0.184586	-0.185890	-0.070133	41.7518	-0.183326	-69.4826	0.001009	NaN
579	1.000000	0.983090	7.37072e+06	-48139.1	1005.82	-29763.4	0.000000	0.000000	6.983160	0.003993	NaN	0.000000	0.001569	0.001763	28.0804	0.058774	0.002028	28.9782	62.3499	-163.295	-0.006644	0.981793	-0.174557	-0.175854	0.003993	28.9782	-0.174660	-49.4474	-8.075437E-5	NaN
579	1.000000	0.993053	7.37072e+06	-48139.1	1005.82	-29763.4	0.000000	0.000000	6.993121	-0.024685	NaN	0.000000	0.001596	0.001766	28.0806	0.051474	0.002055	25.052	61.8091	11.6656	-0.047129	0.991686	-0.164594	-0.165961	-0.024685	25.052	-0.163855	-32.0759	0.000770	NaN
579	1.000000	1.003058	7.37072e+06	-48139.1	1005.82	-29763.4	0.000000	0.000000	7.003123	-0.089452	NaN	0.000000	0.001549	0.001758	28.0806	0.025031	0.002009	12.4576	-152.358	-168.975	-0.125418	1.001757	-0.154589	-0.155891	-0.089452	12.4576	-0.149204	-17.5174	0.005106	NaN
579	1.000000	1.013077	7.37072e+06	-48139.1	1005.82	-29763.4	0.000000	0.000000	7.013143	-0.089292	NaN	0.000000	0.001570	0.001751	28.0807	0.019374	0.002009	9.644924	102.16	12.861	-0.013618	1.011708	-0.144570	-0.145939	-0.089292	9.644924	-0.137626	-10.6712	0.008368	NaN
579	1.000000	1.023088	7.37072e+06	-48139.1	1005.82	-29763.4	0.000000	0.000000	7.023157	-0.011869	NaN	0.000000	0.001576	0.001740	28.0803	0.013509	0.001955	6.911498	139.792	-166.085	-0.128136	1.021760	-0.134559	-0.135887	-0.011869	6.911498	-0.133271	-8.814147	0.001347	NaN
579	1.000000	1.033114	7.37072e+06	-48139.1	1005.82	-29763.4	0.000000	0.000000	7.033181	-0.054933	NaN	0.000000	0.001543	0.001743	28.0808	0.010484	0.001876	5.587920	118.926	15.0138	-0.001929	1.031738	-0.124533	-0.125909	-0.054933	5.587920	-0.117160	-4.230810	0.012984	NaN
579	1.000000	1.043072	7.37072e+06	-48139.1	1005.82	-29763.4	0.000000	0.000000	7.043140	-0.039153	NaN	0.000000	0.001565	0.001752	28.0808	0.029780	0.001977	15.0653	56.156	-166.96	-0.039258	1.041775	-0.114575	-0.115872	-0.039153	15.0653	-0.112626	-3.411175	0.011478	NaN
579	1.000000	1.053112	7.37072e+06	-48139.1	1005.82	-29763.4	0.000000	0.000000	7.053180	-0.048824	NaN	0.000000	0.001556	0.001764	28.0806	0.073684	0.001965	37.4995	73.1191	16.2039	-0.027209	1.051741	-0.104535	-0.105907	-0.048824	37.4995	-0.103558	-2.187338	0.022321	NaN
579	1.000000	1.063100	7.37072e+06	-48139.1	1005.82	-29763.4	0.000000	0.000000	7.063168	-0.043067	NaN	0.000000	0.001570	0.001764	28.0804	0.026457	0.002047	12.9218	-117.275	-166.608	-0.017606	1.061856	-0.094547	-0.095791	-0.043067	12.9218	-0.092048	-1.206609	0.035692	NaN
579	1.000000	1.073090	7.37072e+06	-48139.1	1005.82	-29763.4	0.000000	0.000000	7.073157	-0.060795	NaN	0.000000	0.001574	0.001755	28.0809	0.091882	0.001971	46.6085	171.388	13.0439	-0.097618	1.071778	-0.084557	-0.085870	-0.060795	46.6085	-0.083579	-0.758802	0.080120	NaN
579	1.000000	1.083103	7.37072e+06	-48139.1	1005.82	-29763.4	0.000000	0.000000	7.083166	-0.141419	NaN	0.000000	0.001578	0.001739	28.0804	0.011896	0.002097	5.673786	-44.419	-164.905	-0.089285	1.081810	-0.074545	-0.075837	-0.141419	5.673786	-0.055851	-0.136438	1.036507	NaN
579	1.000000	1.093119	7.37072e+06	-48139.1	1005.82	-29763.4	0.000000	0.000000	7.093186	-0.049586	NaN	0.000000	0.001595	0.001770	28.0816	0.073393	0.001934	37.9436	-161.494	13.1952	-0.070654	1.091719	-0.064528	-0.065928	-0.049586	37.9436	-0.063548	-0.227042	0.218402	NaN
579	1.000000	1.103112	7.37072e+06	-48139.1	1005.82	-29763.4	0.000000	0.000000	7.103181	-0.019178	NaN	0.000000	0.001625	0.001740	28.0805	0.041747	0.001932	21.6027	122.28	-165.56	-0.036267	1.101809	-0.054535	-0.055838	-0.019178	21.6027	-0.053869	-0.119211	0.160876	NaN
579	1.000000	1.113085	7.37072e+06	-48139.1	1005.82	-29763.4	0.000000	0.000000	7.113153	-0.037524	NaN	0.000000	0.001577	0.001755	28.0808	0.084684	0.002164	39.1403	-116.002	14.0211	-0.055636	1.111813	-0.044562	-0.045834	-0.037524	39.1403	-0.043843	-0.059239	0.633437	NaN
579	1.000000	1.123106	7.37072e+06	-48139.1	1005.82	-29763.4	0.000000	0.000000	7.123175	-0.000180	NaN	0.000000	0.001592	0.001732	28.0794	0.083137	0.001982	41.9539	106.872	-165.748	-0.047505	1.121814	-0.034541	-0.035833	-0.000180	41.9539	-0.034538	-0.031039	0.005784	NaN
579	1.000000	1.133143	7.37072e+06	-48139.1	1005.82	-29763.4	0.000000	0.000000	7.133211	-0.025891	NaN	0.000000	0.001603	0.001740	28.0794	0.057447	0.001930	29.7623	150.669	12.7604	-0.011821	1.131745	-0.024504	-0.025902	-0.025891	29.7623	-0.023852	-0.015751	1.643772	NaN
579	1.000000	1.143114	7.37072e+06	-48139.1	1005.82	-29763.4	0.000000	0.000000	7.143182	-0.041318	NaN	0.000000	0.001575	0.001743	28.0796	0.089395	0.001948	45.8962	-172.395	-166.428	-0.001165	1.141802	-0.014533	-0.015845	-0.041318	45.8962	-0.013858	-0.008600	4.804290	NaN
579	1.000000	1.153120	7.37072e+06	-48139.1	1005.82	-29763.4	0.000000	0.000000	7.153193	0.077385	NaN	0.000000	0.001603	0.001741	28.0793	0.274165	0.002025	135.399	15.5611	10.0819	-0.057824	1.151792	-0.004527	-0.005855	0.077385	135.399	-0.004955	-0.003389	-22.8367	NaN
579	2.000000	1.162549	7.37072e+06	-48139.1	1005.82	-29763.4	0.000000	0.000000	7.162950	8.076013	NaN	0.000000	0.001608	0.001754	28.0794	8.205902	0.001578	5200.85	11.5889	-174.728	7.552772	1.161806	0.004902	0.004159	8.076013	5200.85	0.003737	0.003010	2683.2	86611.6
579	2.000000	1.165230	7.37072e+06	-48139.1	1005.82	-29763.4	0.000000	0.000000	7.165821	12.6882	NaN	0.000000	0.001577	0.001745	28.0793	11.1954	0.001657	6755.67	8.495366	4.105776	11.0281	1.164825	0.007582	0.007178	12.6882	6755.67	0.006174	0.005230	2425.91	85345.1
579	2.000000	1.167681	7.37072e+06	-48139.1	1005.82	-29763.4	0.000000	0.000000	7.168412	16.0992	NaN	0.000000	0.001586	0.001758	28.0797	13.9301	0.001752	7948.74	4.649112	-174.002	15.5234	1.167303	0.010034	0.009656	16.0992	7948.74	0.008515	0.007577	2124.66	83428.4
579	2.000000	1.170159	7.37072e+06	-48139.1	1005.82	-29763.4	0.000000	0.000000	7.171037	19.6831	NaN	0.000000	0.001576	0.001779	28.0791	16.3664	0.001767	9261.68	2.849044	7.687969	18.7975	1.169788	0.012511	0.012141	19.6831	9261.68	0.010917	0.010219	1926.12	83706.3
579	2.000000	1.172673	7.37072e+06	-48139.1	1005.82	-29763.4	0.000000	0.000000	7.173697	23.2209	NaN	0.000000	0.001575	0.001801	28.0797	19.2682	0.001769	10890.8	7.314340	-178.965	23.2727	1.172333	0.015026	0.014686	23.2209	10890.8	0.013427	0.013245	1753.22	86459.7
579	2.000000	1.175147	7.37072e+06	-48139.1	1005.82	-29763.4	0.000000	0.000000	7.176386	28.4395	NaN	0.000000	0.001601	0.001732	28.0793	21.1045	0.001902	11096.7	6.690637	3.200490	27.7606	1.174773	0.017500	0.017126	28.4395	11096.7	0.015578	0.016064	1770.44	79992.2
579	2.000000	1.177619	7.37072e+06	-48139.1	1005.82	-29763.4	0.000000	0.000000	7.179065	33.488	NaN	0.000000	0.001595	0.001764	28.0797	24.2607	0.001851	13109.1	9.473739	177.42	33.0332	1.177323	0.019972	0.019676	33.488	13109.1	0.018056	0.019579	1710.4	85595.1
579	2.000000	1.180130	7.37072e+06	-48139.1	1005.82	-29763.4	0.000000	0.000000	7.181849	40.1176	NaN	0.000000	0.001582	0.001771	28.0791	26.0223	0.001775	14664	6.276788	-1.463220	39.0523	1.179812	0.022483	0.022164	40.1176	14664	0.020431	0.023224	1727.39	87913.2
579	2.000000	1.182604	7.37072e+06	-48139.1	1005.82	-29763.4	0.000000	0.000000	7.184570	46.1379	NaN	0.000000	0.001567	0.001759	28.0796	29.1163	0.001723	16893.8	5.809262	177.758	44.905	1.182353	0.024956	0.024706	46.1379	16893.8	0.022908	0.027320	1688.82	93382.2
579	2.000000	1.185191	7.37072e+06	-48139.1	1005.82	-29763.4	0.000000	0.000000	7.187533	55.2766	NaN	0.000000	0.001553	0.001784	28.0791	31.1796	0.001822	17112.5	5.221760	-0.206565	55.25	1.184727	0.027544	0.027079	55.2766	17112.5	0.025121	0.031236	1769.64	88462.1
579	2.000000	1.187641	7.37072e+06	-48139.1	1005.82	-29763.4	0.000000	0.000000	7.190204	60.643	NaN	0.000000	0.001601	0.001789	28.081	33.2871	0.001764	18866	4.329561	178.555	60.0942	1.187416	0.029994	0.029769	60.643	18866	0.027583	0.035883	1690.03	90993.7
579	2.000000	1.190090	7.37072e+06	-48139.1	1005.82	-29763.4	0.000000	0.000000	7.193055	70.4217	NaN	0.000000	0.001571	0.001725	28.0803	36.459	0.001716	21245.6	3.799896	-1.728388	68.5133	1.189849	0.032443	0.032202	70.4217	21245.6	0.029957	0.040654	1732.22	96269.8
579	2.000000	1.192590	7.37072e+06	-48139.1	1005.82	-29763.4	0.000000	0.000000	7.195956	80.1775	NaN	0.000000	0.001573	0.001767	28.0804	39.9758	0.001874	21337.3	6.564611	175.506	79.253	1.192279	0.034943	0.034632	80.1775	21337.3	0.032125	0.045263	1771.36	91630.2
579	2.000000	1.195072	7.37072e+06	-48139.1	1005.82	-29763.4	0.000000	0.000000	7.198880	90.9483	NaN	0.000000	0.001567	0.001734	28.0804	41.4801	0.001768	23458.2	6.817891	-5.818352	86.6807	1.194736	0.037424	0.037088	90.9483	23458.2	0.034517	0.050626	1796.46	95253.4
579	2.000000	1.197577	7.37072e+06	-48139.1	1005.82	-29763.4	0.000000	0.000000	7.201760	100.052	NaN	0.000000	0.001577	0.001770	28.0808	43.1103	0.001836	23477.6	6.530489	175.883	99.2517	1.197256	0.039930	0.039609	100.052	23477.6	0.036734	0.055860	1791.12	90756.3
579	2.000000	1.200097	7.37072e+06	-48139.1	1005.82	-29763.4	0.000000	0.000000	7.204657	109.212	NaN	0.000000	0.001603	0.001746	28.0804	44.3915	0.001699	26128.1	3.111917	-2.449195	107.701	1.199746	0.042450	0.042099	109.212	26128.1	0.039315	0.062270	1753.85	95662.2
579	2.000000	1.202694	7.37072e+06	-48139.1	1005.82	-29763.4	0.000000	0.000000	7.207385	112.412	NaN	0.000000	0.001622	0.001743	28.0804	48.5901	0.001885	25772.7	3.022553	178.24	116.657	1.202322	0.045047	0.044674	112.412	25772.7	0.041775	0.068697	1636.34	89838.7
579	2.000000	1.205196	7.37072e+06	-48139.1	1005.82	-29763.4	0.000000	0.000000	7.210468	126.546	NaN	0.000000	0.001628	0.001712	28.0805	50.466	0.001820	27732	4.752695	-3.213209	129.168	1.204623	0.047548	0.046976	126.546	27732	0.044126	0.075126	1684.47	92440.3
579	2.000000	1.207556	7.37072e+06	-48139.1	1005.82	-29763.4	0.000000	0.000000	7.213415	140.83	NaN	0.000000	0.001603	0.001745	28.0806	51.9625	0.001714	30311.6	3.044131	176.395	137.934	1.207239	0.049909	0.049591	140.83	30311.6	0.046424	0.081682	1724.13	96899.1
579	2.000000	1.210106	7.37072e+06	-48139.1	1005.82	-29763.4	0.000000	0.000000	7.216353	150.26	NaN	0.000000	0.001603	0.001727	28.0804	55.1398	0.001771	31130.6	4.236884	-5.504038	148.862	1.209846	0.052459	0.052199	150.26	31130.6	0.048839	0.088858	1691.02	95414
579	2.000000	1.212529	7.37072e+06	-48139.1	1005.82	-29763.4	0.000000	0.000000	7.219262	162.071	NaN	0.000000	0.001639	0.001729	28.0803	57.8771	0.001736	33342.6	2.881265	175.636	159.089	1.212274	0.054882	0.054626	162.071	33342.6	0.051236	0.096272	1683.47	98180.1
579	2.000000	1.215040	7.37072e+06	-48139.1	1005.82	-29763.4	0.000000	0.000000	7.222326	175.528	NaN	0.000000	0.001578	0.001745	28.0806	59.4387	0.001821	32649.2	4.150800	-4.728062	172.053	1.214663	0.057393	0.057016	175.528	32649.2	0.053361	0.103083	1702.79	92908.1
579	2.000000	1.217540	7.37072e+06	-48139.1	1005.82	-29763.4	0.000000	0.000000	7.225336	187.929	NaN	0.000000	0.001606	0.001773	28.0803	61.4775	0.001774	34650.4	2.417351	176.252	185.45	1.217322	0.059893	0.059675	187.929	34650.4	0.055825	0.111266	1689.01	94907.4
579	2.000000	1.220107	7.37072e+06	-48139.1	1005.82	-29763.4	0.000000	0.000000	7.228440	200.987	NaN	0.000000	0.001582	0.001741	28.079	65.3651	0.001803	36246.4	4.805680	-5.891688	201.883	1.219616	0.062460	0.061969	200.987	36246.4	0.058301	0.119786	1677.89	95683.3
579	2.000000	1.222507	7.37072e+06	-48139.1	1005.82	-29763.4	0.000000	0.000000	7.231604	219.561	NaN	0.000000	0.001583	0.001707	28.0792	67.6223	0.001652	40922.4	3.534428	173.773	216.905	1.222198	0.064860	0.064551	219.561	40922.4	0.060836	0.128823	1704.36	104169
579	2.000000	1.225128	7.37072e+06	-48139.1	1005.82	-29763.4	0.000000	0.000000	7.234613	229.006	NaN	0.000000	0.001557	0.001726	28.0791	69.8938	0.001855	37678.4	3.366493	-5.386963	230.502	1.224835	0.067481	0.067188	229.006	37678.4	0.062923	0.136497	1677.74	93176
579	2.000000	1.227656	7.37072e+06	-48139.1	1005.82	-29763.4	0.000000	0.000000	7.237939	248.418	NaN	0.000000	0.001592	0.001705	28.0791	72.4423	0.001843	39304.8	5.817735	171.763	252.107	1.227192	0.070009	0.069545	248.418	39304.8	0.065268	0.145375	1708.81	94183.4
579	2.000000	1.230017	7.37072e+06	-48139.1	1005.82	-29763.4	0.000000	0.000000	7.241028	266.128	NaN	0.000000	0.001580	0.001743	28.0789	73.4414	0.001814	40488.7	3.141077	-5.754977	262.808	1.229624	0.072370	0.071977	266.128	40488.7	0.067440	0.153831	1730	94315.8
579	2.000000	1.232603	7.37072e+06	-48139.1	1005.82	-29763.4	0.000000	0.000000	7.244218	280.811	NaN	0.000000	0.001590	0.001752	28.0794	76.1744	0.001672	45570.9	4.646361	171.631	280.822	1.232209	0.074956	0.074562	280.811	45570.9	0.070335	0.165452	1697.23	102359
579	2.000000	1.235031	7.37072e+06	-48139.1	1005.82	-29763.4	0.000000	0.000000	7.247247	295.44	NaN	0.000000	0.001587	0.001767	28.079	77.7125	0.001739	44675.8	4.277004	-7.457680	290.734	1.234628	0.077384	0.076981	295.44	44675.8	0.072424	0.174089	1697.06	97827.2
579	2.000000	1.237455	7.37072e+06	-48139.1	1005.82	-29763.4	0.000000	0.000000	7.250358	312.16	NaN	0.000000	0.001605	0.001698	28.0791	80.5005	0.001652	48739.5	2.829325	172.835	306.671	1.237249	0.079807	0.079602	312.16	48739.5	0.075004	0.185037	1687.01	103520
579	2.000000	1.239936	7.37072e+06	-48139.1	1005.82	-29763.4	0.000000	0.000000	7.253612	330.936	NaN	0.000000	0.001621	0.001755	28.0792	83.9808	0.001759	47751.3	4.079116	-7.920006	323.225	1.239698	0.082289	0.082051	330.936	47751.3	0.077091	0.194123	1704.78	99019.4
579	2.000000	1.242526	7.37072e+06	-48139.1	1005.82	-29763.4	0.000000	0.000000	7.256788	345.203	NaN	0.000000	0.001621	0.001733	28.079	87.6281	0.001879	46642.2	4.400220	171.96	344.117	1.242205	0.084879	0.084558	345.203	46642.2	0.079328	0.204090	1691.42	94328.1
579	2.000000	1.245035	7.37072e+06	-48139.1	1005.82	-29763.4	0.000000	0.000000	7.260508	374.655	NaN	0.000000	0.001643	0.001756	28.079	87.4413	0.001620	53969.8	1.999396	-6.055281	371.354	1.244516	0.087388	0.086869	374.655	53969.8	0.082182	0.217141	1725.4	105816
579	2.000000	1.247597	7.37072e+06	-48139.1	1005.82	-29763.4	0.000000	0.000000	7.263587	387.242	NaN	0.000000	0.001642	0.001757	28.079	89.8718	0.001771	50736.3	4.331290	172.258	387.639	1.247127	0.089950	0.089479	387.242	50736.3	0.084225	0.226719	1708.02	97352.6
579	2.000000	1.250183	7.37072e+06	-48139.1	1005.82	-29763.4	0.000000	0.000000	7.266673	399.392	NaN	0.000000	0.001641	0.001753	28.0792	94.2247	0.001767	53321.9	8.804419	-13.5681	402.672	1.249753	0.092535	0.092106	399.392	53321.9	0.086918	0.239635	1666.66	99518.4
579	2.000000	1.252536	7.37072e+06	-48139.1	1005.82	-29763.4	0.000000	0.000000	7.269895	420.532	NaN	0.000000	0.001599	0.001766	28.0788	96.0273	0.001699	56507	5.214405	169.457	418.87	1.252315	0.094888	0.094668	420.532	56507	0.089307	0.251374	1672.93	102971
579	2.000000	1.255066	7.37072e+06	-48139.1	1005.82	-29763.4	0.000000	0.000000	7.273536	447.559	NaN	0.000000	0.001605	0.001782	28.08	98.7037	0.001827	54022.9	6.384165	-10.8294	445.067	1.254628	0.097419	0.096981	447.559	54022.9	0.091205	0.260888	1715.52	96632.5
579	2.000000	1.257369	7.37072e+06	-48139.1	1005.82	-29763.4	0.000000	0.000000	7.276175	455.725	NaN	0.000000	0.001601	0.001735	28.0802	101.103	0.001754	57651.4	4.255499	170.444	446.526	1.257087	0.099722	0.099440	455.725	57651.4	0.093793	0.274125	1662.47	100603
579	2.000000	1.260059	7.37072e+06	-48139.1	1005.82	-29763.4	0.000000	0.000000	7.279826	479.086	NaN	0.000000	0.001584	0.001710	28.0802	104.038	0.001854	56103.8	3.038008	-7.838302	476.514	1.259721	0.102412	0.102074	479.086	56103.8	0.096008	0.285697	1676.91	95898.7
579	2.000000	1.260980	7.37072e+06	-48139.1	1005.82	-29763.4	0.000000	0.000000	7.281277	492.001	NaN	0.000000	0.001596	0.001751	28.0801	105.558	0.001758	60053.9	8.816192	-13.5465	488.797	1.260475	0.103333	0.102828	492.001	60053.9	0.097188	0.291955	1685.2	101545