File: remote_trans/data/nanoindenter/0828-1/data/Data_2025-08-06,11h17m57s/2025-07-22_16-23-58_1_162.txt
2025-07-22, 16:23:58, 1
Index	Phase	Displacement	Time	Pos X	Pos Y	Pos Z	Rot A	Rot B	Piezo Z	Force A	Force B	Gripper	Voltage A	Voltage B	Temperature	Amplitude force	Amplitude pos	Stiffness	Phase shift	Phase excitation	Force A raw	Displacement raw	HMax	HMax raw	Real Force	Real Stiffness	Contact Depth	Area	Hardness	Reduced Mod.
[#]	[#]	[um]	[s]	[um]	[um]	[um]	[m°]	[m°]	[um]	[uN]	[uN]	[V]	[V]	[V]	[°C]	[uN]	[um]	[N/m]	[°]	[°]	[uN]	[um]	[um]	[um]	[uN]	[N/m]	[um]	[um^2]	[MPa]	[MPa]
162	1.000000	0.002388	7.36662e+06	-46739.1	955.82	-29768.7	0.000000	0.000000	6.002792	-0.004666	NaN	0.000000	0.001585	0.001635	28.0833	0.021307	0.001167	18.2637	153.237	-165.903	0.042309	0.001182	-1.084631	-1.085837	-0.004666	18.2637	-1.084439	-3.098411E+14	1.505871E-17	NaN
162	1.000000	0.012441	7.36662e+06	-46739.1	955.819	-29768.7	0.000000	0.000000	6.012847	0.040692	NaN	0.000000	0.001583	0.001623	28.0955	0.173534	0.001287	134.819	-75.9961	19.7327	0.009860	0.011056	-1.074578	-1.075963	0.040692	134.819	-1.074804	-2.299994E+14	-1.769228E-16	NaN
162	1.000000	0.022354	7.36662e+06	-46739.1	955.819	-29768.7	0.000000	0.000000	6.022760	0.054487	NaN	0.000000	0.001570	0.001621	28.1325	0.114038	0.001674	68.1358	135.162	-167.573	0.024933	0.021052	-1.064665	-1.065966	0.054487	68.1358	-1.065264	-1.712229E+14	-3.182220E-16	NaN
162	1.000000	0.032339	7.36662e+06	-46739.1	955.818	-29768.7	0.000000	0.000000	6.032743	0.005393	NaN	0.000000	0.001537	0.001614	28.1059	0.088632	0.001811	48.9408	146.682	14.1625	0.038625	0.030980	-1.054680	-1.056038	0.005393	48.9408	-1.054762	-1.237163E+14	-4.358883E-17	NaN
162	1.000000	0.042347	7.36662e+06	-46739.1	955.818	-29768.7	0.000000	0.000000	6.042751	-0.002640	NaN	0.000000	0.001572	0.001618	28.0836	0.052767	0.002075	25.4343	3.707021	-165.138	0.085290	0.041012	-1.044671	-1.046007	-0.002640	25.4343	-1.044594	-9.030907E+13	2.923453E-17	NaN
162	1.000000	0.052374	7.36662e+06	-46739.1	955.818	-29768.7	0.000000	0.000000	6.052778	-0.008421	NaN	0.000000	0.001577	0.001616	28.0945	0.067320	0.001989	33.8548	-111.663	14.6696	-0.042826	0.050998	-1.034644	-1.036021	-0.008421	33.8548	-1.034458	-6.598394E+13	1.276264E-16	NaN
162	1.000000	0.062375	7.36662e+06	-46739.1	955.818	-29768.7	0.000000	0.000000	6.062778	-0.014970	NaN	0.000000	0.001584	0.001587	28.1321	0.106255	0.002026	52.4443	131.096	-167.719	0.035160	0.061035	-1.024644	-1.025984	-0.014970	52.4443	-1.024430	-4.836688E+13	3.095042E-16	NaN
162	1.000000	0.072357	7.36662e+06	-46739.1	955.819	-29768.7	0.000000	0.000000	6.072760	-0.013188	NaN	0.000000	0.001540	0.001633	28.1056	0.083276	0.001979	42.0888	-125.022	16.5592	0.009575	0.070984	-1.014662	-1.016035	-0.013188	42.0888	-1.014427	-3.547795E+13	3.717151E-16	NaN
162	1.000000	0.082349	7.36662e+06	-46739.1	955.819	-29768.7	0.000000	0.000000	6.082755	0.048024	NaN	0.000000	0.001586	0.001635	28.0817	0.047620	0.002075	22.9447	-141.833	-169.053	0.008974	0.081029	-1.004669	-1.005989	0.048024	22.9447	-1.006239	-2.752716E+13	-1.744609E-15	NaN
162	1.000000	0.092367	7.36662e+06	-46739.1	955.819	-29768.7	0.000000	0.000000	6.092773	0.045499	NaN	0.000000	0.001610	0.001642	28.0954	0.059353	0.001983	29.9239	-31.212	14.0547	-0.042344	0.090977	-0.994652	-0.996042	0.045499	29.9239	-0.995792	-1.991193E+13	-2.285010E-15	NaN
162	1.000000	0.102349	7.36662e+06	-46739.1	955.818	-29768.7	0.000000	0.000000	6.102752	-0.022971	NaN	0.000000	0.001575	0.001650	28.132	0.071151	0.001950	36.4967	-105.937	-166.042	-0.015925	0.101040	-0.984670	-0.985979	-0.022971	36.4967	-0.984198	-1.389829E+13	1.652774E-15	NaN
162	1.000000	0.112381	7.36662e+06	-46739.1	955.819	-29768.7	0.000000	0.000000	6.112785	-0.013580	NaN	0.000000	0.001518	0.001632	28.1051	0.054186	0.001908	28.4069	-64.6831	14.3985	0.015998	0.111001	-0.974637	-0.976018	-0.013580	28.4069	-0.974279	-1.021707E+13	1.329148E-15	NaN
162	1.000000	0.122373	7.36662e+06	-46739.1	955.818	-29768.7	0.000000	0.000000	6.122778	0.025941	NaN	0.000000	0.001585	0.001637	28.0827	0.056070	0.002087	26.8667	111.497	-166.507	0.033592	0.121083	-0.964645	-0.965935	0.025941	26.8667	-0.965369	-7.749103E+12	-3.347583E-15	NaN
162	1.000000	0.132362	7.36662e+06	-46739.1	955.818	-29768.7	0.000000	0.000000	6.132767	0.030300	NaN	0.000000	0.001584	0.001646	28.0927	0.103554	0.001937	53.4651	-114.27	16.9127	0.089816	0.131021	-0.954656	-0.955998	0.030300	53.4651	-0.955081	-5.630573E+12	-5.381294E-15	NaN
162	1.000000	0.142392	7.36662e+06	-46739.1	955.818	-29768.7	0.000000	0.000000	6.142795	-0.003777	NaN	0.000000	0.001534	0.001675	28.1309	0.027652	0.001974	14.0091	152.505	-167.353	-0.019066	0.141065	-0.944627	-0.945954	-0.003777	14.0091	-0.944425	-4.044181E+12	9.338679E-16	NaN
162	1.000000	0.152419	7.36662e+06	-46739.1	955.818	-29768.7	0.000000	0.000000	6.152822	-0.031697	NaN	0.000000	0.001571	0.001627	28.105	0.046708	0.001974	23.6621	-115.508	12.6466	-0.053699	0.151021	-0.934599	-0.935998	-0.031697	23.6621	-0.933595	-2.888744E+12	1.097271E-14	NaN
162	1.000000	0.162384	7.36662e+06	-46739.1	955.818	-29768.7	0.000000	0.000000	6.162791	0.061781	NaN	0.000000	0.001561	0.001604	28.0811	0.065271	0.002019	32.3265	-175.471	-163.737	0.046752	0.161101	-0.924635	-0.925918	0.061781	32.3265	-0.926068	-2.286251E+12	-2.702287E-14	NaN
162	1.000000	0.172391	7.36662e+06	-46739.1	955.819	-29768.7	0.000000	0.000000	6.172797	0.045794	NaN	0.000000	0.001570	0.001632	28.0927	0.020351	0.002032	10.016	167.226	13.0927	0.004573	0.170997	-0.914627	-0.916022	0.045794	10.016	-0.918057	-1.782238E+12	-2.569487E-14	NaN
162	1.000000	0.182415	7.36662e+06	-46739.1	955.818	-29768.7	0.000000	0.000000	6.182821	0.038941	NaN	0.000000	0.001524	0.001623	28.1317	0.055312	0.002082	26.5641	12.2108	-166.38	0.107885	0.181059	-0.904603	-0.905960	0.038941	26.5641	-0.905703	-1.213715E+12	-3.208437E-14	NaN
162	1.000000	0.192404	7.36662e+06	-46739.1	955.818	-29768.7	0.000000	0.000000	6.192809	0.009561	NaN	0.000000	0.001562	0.001591	28.1055	0.105064	0.001941	54.1346	-134.262	15.1404	0.024402	0.191036	-0.894614	-0.895983	0.009561	54.1346	-0.894747	-8.631278E+11	-1.107728E-14	NaN
162	1.000000	0.202407	7.36662e+06	-46739.1	955.819	-29768.7	0.000000	0.000000	6.202810	-0.023611	NaN	0.000000	0.001563	0.001593	28.0815	0.083181	0.002034	40.9003	-107.392	-166.139	0.022090	0.201155	-0.884612	-0.885864	-0.023611	40.9003	-0.884179	-6.211845E+11	3.800968E-14	NaN
162	1.000000	0.212420	7.36662e+06	-46739.1	955.818	-29768.7	0.000000	0.000000	6.212821	-0.053356	NaN	0.000000	0.001562	0.001611	28.0925	0.063607	0.001970	32.2854	-148.391	14.786	-0.045265	0.211029	-0.874599	-0.875989	-0.053356	32.2854	-0.873360	-4.435001E+11	1.203061E-13	NaN
162	1.000000	0.222414	7.36662e+06	-46739.1	955.819	-29768.7	0.000000	0.000000	6.222819	0.021398	NaN	0.000000	0.001574	0.001632	28.1301	0.074203	0.002132	34.8012	-3.888355	-165.116	-0.036763	0.221075	-0.864604	-0.865943	0.021398	34.8012	-0.865066	-3.425124E+11	-6.247228E-14	NaN
162	1.000000	0.232439	7.36662e+06	-46739.1	955.818	-29768.7	0.000000	0.000000	6.232842	-0.018795	NaN	0.000000	0.001560	0.001573	28.1031	0.130476	0.002063	63.2511	33.1018	13.593	-0.030864	0.231065	-0.854580	-0.855953	-0.018795	63.2511	-0.854357	-2.453200E+11	7.661473E-14	NaN
162	1.000000	0.242432	7.36662e+06	-46739.1	955.818	-29768.7	0.000000	0.000000	6.242835	-0.013231	NaN	0.000000	0.001565	0.001625	28.0831	0.089018	0.001945	45.7743	48.7274	-166.97	-0.019844	0.241106	-0.844587	-0.845913	-0.013231	45.7743	-0.844370	-1.796751E+11	7.364032E-14	NaN
162	1.000000	0.252441	7.36662e+06	-46739.1	955.818	-29768.7	0.000000	0.000000	6.252846	0.041798	NaN	0.000000	0.001544	0.001610	28.0946	0.044160	0.002002	22.0548	128.372	12.6919	0.102664	0.251036	-0.834578	-0.835983	0.041798	22.0548	-0.836000	-1.383855E+11	-3.020369E-13	NaN
162	1.000000	0.262451	7.36662e+06	-46739.1	955.818	-29768.7	0.000000	0.000000	6.262855	-0.005271	NaN	0.000000	0.001573	0.001615	28.132	0.031174	0.001938	16.09	-89.7124	-162.158	-0.031240	0.261063	-0.824567	-0.825955	-0.005271	16.09	-0.824322	-9.611876E+10	5.483992E-14	NaN
162	1.000000	0.272444	7.36662e+06	-46739.1	955.818	-29768.7	0.000000	0.000000	6.272848	-0.007773	NaN	0.000000	0.001569	0.001637	28.1069	0.015706	0.002122	7.401415	97.3287	12.2944	-0.059778	0.271123	-0.814575	-0.815896	-0.007773	7.401415	-0.813787	-6.917477E+10	1.123687E-13	NaN
162	1.000000	0.282454	7.36662e+06	-46739.1	955.818	-29768.7	0.000000	0.000000	6.282858	0.012098	NaN	0.000000	0.001638	0.001591	28.0814	0.071234	0.002032	35.0595	23.3187	-170.505	0.038891	0.281124	-0.804565	-0.805894	0.012098	35.0595	-0.804824	-5.227985E+10	-2.314029E-13	NaN
162	1.000000	0.292453	7.36662e+06	-46739.1	955.818	-29768.7	0.000000	0.000000	6.292854	-0.064091	NaN	0.000000	0.001561	0.001613	28.0923	0.027019	0.002079	12.9972	-120.59	12.7512	-0.053469	0.291064	-0.794566	-0.795954	-0.064091	12.9972	-0.790867	-3.379571E+10	1.896427E-12	NaN
162	1.000000	0.302443	7.36662e+06	-46739.1	955.82	-29768.7	0.000000	0.000000	6.302848	0.037168	NaN	0.000000	0.001617	0.001610	28.1312	0.055687	0.001997	27.8792	-53.1893	-171.573	0.055879	0.301140	-0.784576	-0.785879	0.037168	27.8792	-0.785576	-2.864103E+10	-1.297734E-12	NaN
162	1.000000	0.312418	7.36662e+06	-46739.1	955.818	-29768.7	0.000000	0.000000	6.312821	-0.023065	NaN	0.000000	0.001611	0.001605	28.1055	0.082189	0.002012	40.8459	-37.9449	13.9253	0.030111	0.311096	-0.774601	-0.775922	-0.023065	40.8459	-0.774177	-2.004920E+10	1.150436E-12	NaN
162	1.000000	0.322457	7.36662e+06	-46739.1	955.818	-29768.7	0.000000	0.000000	6.322864	0.070704	NaN	0.000000	0.001616	0.001623	28.0821	0.032064	0.001979	16.2044	64.7323	-166.673	0.046359	0.321120	-0.764561	-0.765899	0.070704	16.2044	-0.767834	-1.643813E+10	-4.301233E-12	NaN
162	1.000000	0.332470	7.36662e+06	-46739.1	955.819	-29768.7	0.000000	0.000000	6.332874	-0.002032	NaN	0.000000	0.001599	0.001593	28.0934	0.091603	0.001897	48.282	76.013	13.7544	0.023159	0.331083	-0.754548	-0.755936	-0.002032	48.282	-0.754517	-1.083172E+10	1.876137E-13	NaN
162	1.000000	0.342481	7.36662e+06	-46739.1	955.818	-29768.7	0.000000	0.000000	6.342882	-0.064170	NaN	0.000000	0.001608	0.001626	28.1321	0.090504	0.001993	45.4221	172.808	-162.908	-0.012997	0.341129	-0.744538	-0.745890	-0.064170	45.4221	-0.743478	-7.663533E+9	8.373396E-12	NaN
162	1.000000	0.352474	7.36662e+06	-46739.1	955.819	-29768.7	0.000000	0.000000	6.352880	0.039743	NaN	0.000000	0.001596	0.001611	28.1075	0.034434	0.002046	16.8304	-4.018375	14.1945	0.003276	0.351124	-0.734544	-0.735894	0.039743	16.8304	-0.736315	-6.121563E+9	-6.492331E-12	NaN
162	1.000000	0.362428	7.36662e+06	-46739.1	955.818	-29768.7	0.000000	0.000000	6.362832	0.010665	NaN	0.000000	0.001591	0.001612	28.0835	0.101589	0.001878	54.0907	-92.9911	-168.467	0.011868	0.361136	-0.724591	-0.725883	0.010665	54.0907	-0.724739	-4.256906E+9	-2.505257E-12	NaN
162	1.000000	0.372451	7.36662e+06	-46739.1	955.818	-29768.7	0.000000	0.000000	6.372854	-0.035295	NaN	0.000000	0.001601	0.001599	28.0922	0.032100	0.001976	16.2469	34.1139	12.0156	-0.088316	0.371137	-0.714567	-0.715882	-0.035295	16.2469	-0.712938	-2.938598E+9	1.201084E-11	NaN
162	1.000000	0.382469	7.36662e+06	-46739.1	955.819	-29768.7	0.000000	0.000000	6.382874	0.021719	NaN	0.000000	0.001600	0.001610	28.1304	0.032267	0.002021	15.9661	-175.283	-168.864	-0.006940	0.381207	-0.704550	-0.705812	0.021719	15.9661	-0.705570	-2.331230E+9	-9.316713E-12	NaN
162	1.000000	0.392499	7.36662e+06	-46739.1	955.819	-29768.7	0.000000	0.000000	6.392906	0.067955	NaN	0.000000	0.001620	0.001636	28.1051	0.084131	0.001972	42.6544	118.737	14.2621	0.010662	0.391106	-0.694520	-0.695913	0.067955	42.6544	-0.695715	-1.710011E+9	-3.973964E-11	NaN
162	1.000000	0.402490	7.36662e+06	-46739.1	955.818	-29768.7	0.000000	0.000000	6.402893	-0.017812	NaN	0.000000	0.001583	0.001617	28.0802	0.077049	0.002125	36.2528	61.7678	-166.691	-0.007189	0.401133	-0.684529	-0.685886	-0.017812	36.2528	-0.684160	-1.188751E+9	1.498361E-11	NaN
162	1.000000	0.412453	7.36662e+06	-46739.1	955.818	-29768.7	0.000000	0.000000	6.412858	0.023461	NaN	0.000000	0.001585	0.001612	28.0926	0.092159	0.001988	46.3619	122.195	16.086	-0.013928	0.411112	-0.674566	-0.675907	0.023461	46.3619	-0.674945	-8.893276E+8	-2.638053E-11	NaN
162	1.000000	0.422497	7.36662e+06	-46739.1	955.819	-29768.7	0.000000	0.000000	6.422903	0.055281	NaN	0.000000	0.001604	0.001635	28.1315	0.149212	0.001867	79.9235	125.204	-166.912	0.034890	0.421211	-0.664522	-0.665808	0.055281	79.9235	-0.665041	-6.508775E+8	-8.493246E-11	NaN
162	1.000000	0.432506	7.36662e+06	-46739.1	955.818	-29768.7	0.000000	0.000000	6.432907	-0.070815	NaN	0.000000	0.001597	0.001573	28.1072	0.005369	0.001964	2.733247	-108.922	12.9805	0.012314	0.431103	-0.654512	-0.655915	-0.070815	2.733247	-0.635081	-2.528022E+8	2.801204E-10	NaN
162	1.000000	0.442503	7.36662e+06	-46739.1	955.818	-29768.7	0.000000	0.000000	6.442905	-0.044558	NaN	0.000000	0.001617	0.001584	28.0819	0.057596	0.001967	29.2825	60.7814	-170.371	-0.029609	0.441237	-0.644516	-0.645782	-0.044558	29.2825	-0.643375	-3.285409E+8	1.356244E-10	NaN
162	1.000000	0.452529	7.36663e+06	-46739.1	955.818	-29768.7	0.000000	0.000000	6.452935	0.039482	NaN	0.000000	0.001578	0.001601	28.0905	0.110117	0.002057	53.5412	80.2436	13.4012	0.021859	0.451168	-0.634490	-0.635851	0.039482	53.5412	-0.635043	-2.524987E+8	-1.563634E-10	NaN
162	1.000000	0.462532	7.36663e+06	-46739.1	955.818	-29768.7	0.000000	0.000000	6.462936	0.000357	NaN	0.000000	0.001596	0.001618	28.1302	0.013951	0.001971	7.078073	173.39	-166.483	0.027578	0.461158	-0.624487	-0.625860	0.000357	7.078073	-0.624525	-1.810563E+8	-1.973798E-12	NaN
162	1.000000	0.472548	7.36663e+06	-46739.1	955.82	-29768.7	0.000000	0.000000	6.472952	0.003353	NaN	0.000000	0.001593	0.001611	28.1058	0.102442	0.001960	52.2734	148.976	12.2071	-0.016130	0.471216	-0.614471	-0.615803	0.003353	52.2734	-0.614519	-1.319082E+8	-2.541855E-11	NaN
162	1.000000	0.482530	7.36663e+06	-46739.1	955.819	-29768.7	0.000000	0.000000	6.482939	0.109323	NaN	0.000000	0.001577	0.001641	28.0813	0.068796	0.002023	34.002	139.865	-163.76	0.087123	0.481171	-0.604488	-0.605847	0.109323	34.002	-0.606900	-1.036221E+8	-1.055012E-9	NaN
162	1.000000	0.492531	7.36663e+06	-46739.1	955.819	-29768.7	0.000000	0.000000	6.492936	0.021333	NaN	0.000000	0.001606	0.001609	28.0917	0.041646	0.001974	21.0948	-29.1584	16.4499	-0.007176	0.491202	-0.594488	-0.595817	0.021333	21.0948	-0.595246	-7.160969E+7	-2.979085E-10	NaN
162	1.000000	0.502549	7.36663e+06	-46739.1	955.818	-29768.7	0.000000	0.000000	6.502950	-0.081746	NaN	0.000000	0.001598	0.001603	28.1308	0.027592	0.002088	13.217	28.2569	-164.365	-0.033093	0.501246	-0.584470	-0.585773	-0.081746	13.217	-0.579831	-4.389289E+7	1.862390E-9	NaN
162	1.000000	0.512530	7.36663e+06	-46739.1	955.818	-29768.7	0.000000	0.000000	6.512933	-0.012880	NaN	0.000000	0.001571	0.001644	28.1086	0.129758	0.001968	65.9428	76.5302	15.6361	-0.062883	0.511211	-0.574489	-0.575808	-0.012880	65.9428	-0.574343	-3.686563E+7	3.493638E-10	NaN
162	1.000000	0.522536	7.36663e+06	-46739.1	955.818	-29768.7	0.000000	0.000000	6.522943	0.070937	NaN	0.000000	0.001592	0.001617	28.0835	0.057782	0.001982	29.1519	-122.312	-164.7	-0.005975	0.521252	-0.564483	-0.565767	0.070937	29.1519	-0.566308	-2.854987E+7	-2.484680E-9	NaN
162	1.000000	0.532532	7.36663e+06	-46739.1	955.818	-29768.7	0.000000	0.000000	6.532934	-0.057739	NaN	0.000000	0.001602	0.001618	28.093	0.120969	0.002032	59.5215	127.03	13.3142	-0.004925	0.531155	-0.554487	-0.555863	-0.057739	59.5215	-0.553759	-1.914300E+7	3.016180E-9	NaN
162	1.000000	0.542544	7.36663e+06	-46739.1	955.819	-29768.7	0.000000	0.000000	6.542943	-0.108177	NaN	0.000000	0.001579	0.001646	28.1309	0.109926	0.001868	58.847	27.1452	-165.966	-0.093279	0.541277	-0.544475	-0.545742	-0.108177	58.847	-0.543096	-1.362348E+7	7.940492E-9	NaN
162	1.000000	0.552572	7.36663e+06	-46739.1	955.819	-29768.7	0.000000	0.000000	6.552979	0.066041	NaN	0.000000	0.001581	0.001626	28.1083	0.044740	0.002074	21.5669	115.401	12.0329	-0.020323	0.551186	-0.534446	-0.535833	0.066041	21.5669	-0.536743	-1.112182E+7	-5.937949E-9	NaN
162	1.000000	0.562555	7.36663e+06	-46739.1	955.818	-29768.7	0.000000	0.000000	6.562959	0.008292	NaN	0.000000	0.001606	0.001622	28.0819	0.049789	0.001992	24.998	-120.234	-164.454	-0.051520	0.561249	-0.524464	-0.525770	0.008292	24.998	-0.524713	-7.57039e+06	-1.095280E-9	NaN
162	1.000000	0.572587	7.36663e+06	-46739.1	955.819	-29768.7	0.000000	0.000000	6.572989	-0.037904	NaN	0.000000	0.001623	0.001611	28.093	0.125287	0.001932	64.8569	127.16	13.7693	0.024898	0.571221	-0.514432	-0.515798	-0.037904	64.8569	-0.513993	-5.37059e+06	7.057681E-9	NaN
162	1.000000	0.582549	7.36663e+06	-46739.1	955.818	-29768.7	0.000000	0.000000	6.582952	-0.015930	NaN	0.000000	0.001595	0.001629	28.1319	0.081700	0.002048	39.9006	-119.704	-163.609	0.050340	0.581284	-0.504470	-0.505734	-0.015930	39.9006	-0.504171	-3.91908e+06	4.064791E-9	NaN
162	1.000000	0.592573	7.36663e+06	-46739.1	955.819	-29768.7	0.000000	0.000000	6.592980	0.074390	NaN	0.000000	0.001625	0.001602	28.1093	0.082772	0.002069	39.9965	27.8646	10.3677	0.056111	0.591197	-0.494445	-0.495821	0.074390	39.9965	-0.495840	-2.99894e+06	-2.480552E-8	NaN
162	1.000000	0.602576	7.36663e+06	-46739.1	955.819	-29768.7	0.000000	0.000000	6.602981	0.037716	NaN	0.000000	0.001625	0.001633	28.0836	0.061990	0.001953	31.7373	75.1951	-168.351	-0.010854	0.601244	-0.484443	-0.485775	0.037716	31.7373	-0.485334	-2.13877e+06	-1.763436E-8	NaN
162	1.000000	0.612577	7.36663e+06	-46739.1	955.818	-29768.7	0.000000	0.000000	6.612980	-0.024351	NaN	0.000000	0.001602	0.001600	28.0933	0.119687	0.001982	60.3954	-168.027	12.1451	-0.035125	0.611233	-0.474442	-0.475786	-0.024351	60.3954	-0.474139	-1.49087e+06	1.633308E-8	NaN
162	1.000000	0.622576	7.36663e+06	-46739.1	955.818	-29768.7	0.000000	0.000000	6.622984	0.091298	NaN	0.000000	0.001622	0.001633	28.131	0.032688	0.001912	17.0959	-26.6345	-166.878	0.035516	0.621278	-0.464443	-0.465740	0.091298	17.0959	-0.468448	-1.24061e+06	-7.359145E-8	NaN
162	1.000000	0.632592	7.36663e+06	-46739.1	955.818	-29768.7	0.000000	0.000000	6.632995	-0.015359	NaN	0.000000	0.001635	0.001595	28.1078	0.067525	0.002106	32.0571	103.165	12.4196	-0.028734	0.631184	-0.454427	-0.455834	-0.015359	32.0571	-0.454068	-779117	1.971389E-8	NaN
162	1.000000	0.642588	7.36663e+06	-46739.1	955.818	-29768.7	0.000000	0.000000	6.642990	-0.043115	NaN	0.000000	0.001614	0.001663	28.0832	0.081592	0.001774	45.9966	-151.231	-168.087	-0.076691	0.641257	-0.444431	-0.445761	-0.043115	45.9966	-0.443728	-557125	7.738782E-8	NaN
162	1.000000	0.652559	7.36663e+06	-46739.1	955.819	-29768.7	0.000000	0.000000	6.652963	0.011389	NaN	0.000000	0.001596	0.001636	28.0924	0.057660	0.001903	30.3049	-75.9508	13.7531	0.067259	0.651295	-0.434460	-0.435724	0.011389	30.3049	-0.434742	-416012	-2.737638E-8	NaN
162	1.000000	0.662608	7.36663e+06	-46739.1	955.818	-29768.7	0.000000	0.000000	6.663014	0.041372	NaN	0.000000	0.001616	0.001633	28.1307	0.142686	0.002024	70.4966	108.896	-165.625	0.022991	0.661295	-0.424410	-0.425724	0.041372	70.4966	-0.424851	-301416	-1.372587E-7	NaN
162	1.000000	0.672630	7.36663e+06	-46739.1	955.818	-29768.7	0.000000	0.000000	6.673038	0.093121	NaN	0.000000	0.001622	0.001665	28.1088	0.054774	0.001967	27.8409	-5.438653	17.7816	0.053530	0.671247	-0.414388	-0.415771	0.093121	27.8409	-0.416897	-232481	-4.005552E-7	NaN
162	1.000000	0.682605	7.36663e+06	-46739.1	955.819	-29768.7	0.000000	0.000000	6.683006	-0.059418	NaN	0.000000	0.001610	0.001623	28.0834	0.054646	0.002002	27.2924	-176.008	-166.813	-0.077464	0.681313	-0.404414	-0.405706	-0.059418	27.2924	-0.402781	-146433	4.057683E-7	NaN
162	1.000000	0.692637	7.36663e+06	-46739.1	955.818	-29768.7	0.000000	0.000000	6.693042	0.023167	NaN	0.000000	0.001623	0.001615	28.0913	0.127223	0.001844	68.9968	141.035	11.0635	0.093937	0.691280	-0.394382	-0.395739	0.023167	68.9968	-0.394634	-112047	-2.067606E-7	NaN
162	1.000000	0.702607	7.36663e+06	-46739.1	955.819	-29768.7	0.000000	0.000000	6.703012	0.020026	NaN	0.000000	0.001582	0.001642	28.1297	0.015999	0.001987	8.053472	-70.8786	-164.15	-0.034782	0.701324	-0.384412	-0.385695	0.020026	8.053472	-0.386277	-85089.5	-2.353561E-7	NaN
162	1.000000	0.712618	7.36663e+06	-46739.1	955.818	-29768.7	0.000000	0.000000	6.713021	-0.029269	NaN	0.000000	0.001640	0.001659	28.107	0.104470	0.002118	49.3131	178.024	15.8335	0.000821	0.711296	-0.374401	-0.375723	-0.029269	49.3131	-0.373956	-56631.3	5.168330E-7	NaN
162	1.000000	0.722628	7.36663e+06	-46739.1	955.818	-29768.7	0.000000	0.000000	6.723029	-0.061714	NaN	0.000000	0.001643	0.001669	28.0815	0.097029	0.002008	48.3234	86.6159	-168.811	-0.013605	0.721312	-0.364391	-0.365706	-0.061714	48.3234	-0.363433	-39942.7	1.545069E-6	NaN
162	1.000000	0.732651	7.36663e+06	-46739.1	955.818	-29768.7	0.000000	0.000000	6.733053	-0.037402	NaN	0.000000	0.001607	0.001681	28.0915	0.030469	0.002049	14.8715	1.695954	14.4785	-0.052928	0.731286	-0.354368	-0.355733	-0.037402	14.8715	-0.352482	-27733.3	1.348647E-6	NaN
162	1.000000	0.742650	7.36663e+06	-46739.1	955.819	-29768.7	0.000000	0.000000	6.743052	-0.060255	NaN	0.000000	0.001611	0.001624	28.1299	0.069229	0.002042	33.9087	-119.378	-168.527	-0.034330	0.741316	-0.344368	-0.345702	-0.060255	33.9087	-0.343036	-20219.6	2.980028E-6	NaN
162	1.000000	0.752674	7.36663e+06	-46739.1	955.819	-29768.7	0.000000	0.000000	6.753076	-0.046730	NaN	0.000000	0.001623	0.001624	28.1085	0.021229	0.001966	10.7972	33.7015	15.6228	-0.057836	0.751278	-0.334345	-0.335741	-0.046730	10.7972	-0.331099	-13537.6	3.451881E-6	NaN
162	1.000000	0.762631	7.36663e+06	-46739.1	955.817	-29768.7	0.000000	0.000000	6.763035	0.023296	NaN	0.000000	0.001623	0.001654	28.0814	0.064868	0.001926	33.6717	-155.467	-165.581	0.010266	0.761321	-0.324388	-0.325698	0.023296	33.6717	-0.324907	-10984.3	-2.120857E-6	NaN
162	1.000000	0.772623	7.36663e+06	-46739.1	955.818	-29768.7	0.000000	0.000000	6.773029	0.052056	NaN	0.000000	0.001664	0.001597	28.091	0.092752	0.002004	46.2912	-69.9952	14.4444	0.043092	0.771317	-0.314396	-0.315702	0.052056	46.2912	-0.315239	-7915.42	-6.576513E-6	NaN
162	1.000000	0.782655	7.36663e+06	-46739.1	955.819	-29768.7	0.000000	0.000000	6.783061	0.057140	NaN	0.000000	0.001641	0.001644	28.1301	0.078209	0.002145	36.4571	-5.147855	-166.212	0.075952	0.781301	-0.304364	-0.305717	0.057140	36.4571	-0.305539	-5688	-1.004572E-5	NaN
162	1.000000	0.792656	7.36663e+06	-46739.1	955.818	-29768.7	0.000000	0.000000	6.793059	-0.002515	NaN	0.000000	0.001664	0.001650	28.1093	0.023806	0.001977	12.0388	-129.072	13.8584	0.023180	0.791307	-0.294363	-0.295712	-0.002515	12.0388	-0.294206	-3856.86	6.521527E-7	NaN
162	1.000000	0.802673	7.36663e+06	-46739.1	955.818	-29768.7	0.000000	0.000000	6.803075	-0.039101	NaN	0.000000	0.001641	0.001626	28.0821	0.024047	0.001946	12.3553	166.934	-164.629	-0.058272	0.801375	-0.284346	-0.285644	-0.039101	12.3553	-0.281972	-2527.59	1.546983E-5	NaN
162	1.000000	0.812649	7.36663e+06	-46739.1	955.818	-29768.7	0.000000	0.000000	6.813053	-0.016790	NaN	0.000000	0.001728	0.001645	28.0932	0.037484	0.002007	18.6811	-162.324	16.0958	0.044384	0.811289	-0.274369	-0.275729	-0.016790	18.6811	-0.273695	-1895.11	8.859526E-6	NaN
162	1.000000	0.822667	7.36663e+06	-46739.1	955.819	-29768.7	0.000000	0.000000	6.823074	0.070507	NaN	0.000000	0.001713	0.001647	28.1312	0.015958	0.002013	7.927799	-22.4015	-167.657	-0.014921	0.821382	-0.264352	-0.265636	0.070507	7.927799	-0.271022	-1726.13	-4.084703E-5	NaN
162	1.000000	0.832650	7.36663e+06	-46739.1	955.818	-29768.7	0.000000	0.000000	6.833053	-0.014149	NaN	0.000000	0.001644	0.001653	28.1092	0.042801	0.001856	23.0554	83.718	11.8552	0.004854	0.831296	-0.254369	-0.255723	-0.014149	23.0554	-0.253909	-944.724	1.497687E-5	NaN
162	1.000000	0.842683	7.36663e+06	-46739.1	955.818	-29768.7	0.000000	0.000000	6.843088	0.021190	NaN	0.000000	0.001687	0.001597	28.0821	0.098797	0.001968	50.1908	100.347	-166.356	-0.046666	0.841354	-0.244335	-0.245664	0.021190	50.1908	-0.244652	-679.27	-3.119522E-5	NaN
162	1.000000	0.852680	7.36663e+06	-46739.1	955.818	-29768.7	0.000000	0.000000	6.853086	0.042444	NaN	0.000000	0.001708	0.001630	28.0904	0.015893	0.002013	7.896343	-162.032	12.926	0.050401	0.851353	-0.234338	-0.235665	0.042444	7.896343	-0.238370	-542.085	-7.829731E-5	NaN
162	1.000000	0.862664	7.36663e+06	-46739.1	955.819	-29768.7	0.000000	0.000000	6.863070	0.045341	NaN	0.000000	0.001671	0.001637	28.1299	0.125081	0.002123	58.9103	-81.7975	-167.422	0.061722	0.861360	-0.224355	-0.225658	0.045341	58.9103	-0.224932	-332.854	-0.000136	NaN
162	1.000000	0.872672	7.36663e+06	-46739.1	955.818	-29768.7	0.000000	0.000000	6.873074	-0.034156	NaN	0.000000	0.001682	0.001648	28.109	0.068861	0.001959	35.1576	164.66	15.2142	-0.009341	0.871388	-0.214347	-0.215630	-0.034156	35.1576	-0.213618	-219.417	0.000156	NaN
162	1.000000	0.882690	7.36663e+06	-46739.1	955.818	-29768.7	0.000000	0.000000	6.883093	-0.011929	NaN	0.000000	0.001685	0.001662	28.083	0.095091	0.002003	47.4724	-15.6606	-166.195	-0.050970	0.881446	-0.204329	-0.205573	-0.011929	47.4724	-0.204141	-154.004	7.745754E-5	NaN
162	1.000000	0.892685	7.36663e+06	-46739.1	955.819	-29768.7	0.000000	0.000000	6.893091	0.067668	NaN	0.000000	0.001673	0.001639	28.0926	0.043097	0.001943	22.179	53.1842	15.1937	0.120431	0.891275	-0.194334	-0.195744	0.067668	22.179	-0.196622	-115.889	-0.000584	NaN
162	1.000000	0.902707	7.36663e+06	-46739.1	955.817	-29768.7	0.000000	0.000000	6.903113	0.054045	NaN	0.000000	0.001656	0.001603	28.131	0.069734	0.001968	35.4328	-67.4143	-168.216	-0.024898	0.901357	-0.184312	-0.185661	0.054045	35.4328	-0.185456	-75.4771	-0.000716	NaN
162	1.000000	0.912701	7.36663e+06	-46739.1	955.819	-29768.7	0.000000	0.000000	6.913103	-0.047402	NaN	0.000000	0.001643	0.001620	28.1114	0.057523	0.001922	29.9322	-105.566	13.4771	-0.040265	0.911325	-0.174317	-0.175694	-0.047402	29.9322	-0.173130	-46.5351	0.001019	NaN
162	1.000000	0.922714	7.36663e+06	-46739.1	955.818	-29768.7	0.000000	0.000000	6.923115	-0.077325	NaN	0.000000	0.001640	0.001625	28.0813	0.167840	0.001965	85.403	-19.1363	-165.907	-0.093462	0.921360	-0.164304	-0.165659	-0.077325	85.403	-0.163625	-31.7781	0.002433	NaN
162	1.000000	0.932734	7.36663e+06	-46739.1	955.817	-29768.7	0.000000	0.000000	6.933139	0.032580	NaN	0.000000	0.001682	0.001630	28.0894	0.058275	0.002140	27.2347	-18.5799	13.8503	0.110249	0.931363	-0.154285	-0.155656	0.032580	27.2347	-0.155182	-22.4832	-0.001449	NaN
162	1.000000	0.942706	7.36663e+06	-46739.1	955.818	-29768.7	0.000000	0.000000	6.943110	0.001760	NaN	0.000000	0.001671	0.001631	28.1291	0.068140	0.002011	33.8915	-76.969	-167.554	-0.017629	0.941399	-0.144312	-0.145620	0.001760	33.8915	-0.144351	-14.2611	-0.000123	NaN
162	1.000000	0.952721	7.36663e+06	-46739.1	955.819	-29768.7	0.000000	0.000000	6.953125	0.004707	NaN	0.000000	0.001679	0.001587	28.1077	0.128751	0.002018	63.8127	126.813	13.6533	-0.007891	0.951358	-0.134297	-0.135661	0.004707	63.8127	-0.134353	-9.245236	-0.000509	NaN
162	1.000000	0.962724	7.36663e+06	-46739.1	955.818	-29768.7	0.000000	0.000000	6.963126	-0.039214	NaN	0.000000	0.001689	0.001650	28.0814	0.043846	0.002041	21.4811	-24.1031	-165.681	-0.022356	0.961395	-0.124295	-0.125624	-0.039214	21.4811	-0.122926	-5.530840	0.007090	NaN
162	1.000000	0.972729	7.36663e+06	-46739.1	955.818	-29768.7	0.000000	0.000000	6.973133	-0.007005	NaN	0.000000	0.001676	0.001716	28.0909	0.147952	0.002010	73.5899	3.755308	13.6913	-0.091220	0.971371	-0.114290	-0.115648	-0.007005	73.5899	-0.114218	-3.680953	0.001903	NaN
162	1.000000	0.982733	7.36663e+06	-46739.1	955.818	-29768.7	0.000000	0.000000	6.983137	0.008152	NaN	0.000000	0.001692	0.001675	28.1292	0.127339	0.001958	65.0443	106.306	-167.275	-0.002772	0.981458	-0.104286	-0.105561	0.008152	65.0443	-0.104380	-2.279089	-0.003577	NaN
162	1.000000	0.992726	7.36663e+06	-46739.1	955.819	-29768.7	0.000000	0.000000	6.993130	0.009326	NaN	0.000000	0.001676	0.001668	28.1096	0.119984	0.002060	58.2434	-19.7028	14.4116	-0.006656	0.991383	-0.094293	-0.095636	0.009326	58.2434	-0.094413	-1.367763	-0.006818	NaN
162	1.000000	1.002759	7.36663e+06	-46739.1	955.819	-29768.7	0.000000	0.000000	7.003160	-0.071213	NaN	0.000000	0.001684	0.001674	28.0821	0.069984	0.001942	36.0343	-53.3089	-164.67	0.033750	1.001462	-0.084260	-0.085557	-0.071213	36.0343	-0.082778	-0.725288	0.098185	NaN
162	1.000000	1.012747	7.36663e+06	-46739.1	955.818	-29768.7	0.000000	0.000000	7.013152	0.044680	NaN	0.000000	0.001689	0.001698	28.0881	0.108224	0.002103	51.4504	-76.7775	11.2492	0.026114	1.011431	-0.074272	-0.075588	0.044680	51.4504	-0.074923	-0.459767	-0.097179	NaN
162	1.000000	1.022748	7.36663e+06	-46739.1	955.819	-29768.7	0.000000	0.000000	7.023153	0.043959	NaN	0.000000	0.001685	0.001712	28.1278	0.103599	0.002059	50.3237	-71.5135	-162.989	0.009897	1.021434	-0.064271	-0.065584	0.043959	50.3237	-0.064926	-0.248042	-0.177226	NaN
162	1.000000	1.032754	7.36663e+06	-46739.1	955.818	-29768.7	0.000000	0.000000	7.033157	-0.008449	NaN	0.000000	0.001644	0.001722	28.1085	0.072717	0.001908	38.1099	-2.668988	15.3534	0.035297	1.031387	-0.054265	-0.055632	-0.008449	38.1099	-0.054099	-0.121097	0.069767	NaN
162	1.000000	1.042734	7.36663e+06	-46739.1	955.818	-29768.7	0.000000	0.000000	7.043139	0.033980	NaN	0.000000	0.001689	0.001744	28.0813	0.098899	0.002131	46.4005	-113.03	-168.939	0.049172	1.041465	-0.044285	-0.045554	0.033980	46.4005	-0.044834	-0.063522	-0.534932	NaN
162	1.000000	1.052756	7.36663e+06	-46739.1	955.818	-29768.7	0.000000	0.000000	7.053161	0.037887	NaN	0.000000	0.001703	0.001742	28.0907	0.069160	0.001884	36.7105	61.7148	13.0756	-0.027331	1.051412	-0.034263	-0.035607	0.037887	36.7105	-0.035037	-0.032105	-1.180087	NaN
162	1.000000	1.062791	7.36663e+06	-46739.1	955.818	-29768.7	0.000000	0.000000	7.063195	0.003854	NaN	0.000000	0.001692	0.001712	28.1305	0.062790	0.001958	32.0714	174.851	-162.339	0.006328	1.061443	-0.024227	-0.025576	0.003854	32.0714	-0.024317	-0.016194	-0.238008	NaN
162	1.000000	1.072811	7.36663e+06	-46739.1	955.818	-29768.7	0.000000	0.000000	7.073214	-0.005169	NaN	0.000000	0.001636	0.001726	28.1116	0.028300	0.002027	13.963	78.4154	13.2857	0.008688	1.071351	-0.014208	-0.015668	-0.005169	13.963	-0.013930	-0.008642	0.598056	NaN
162	1.000000	1.082773	7.36663e+06	-46739.1	955.818	-29768.7	0.000000	0.000000	7.083174	-0.076292	NaN	0.000000	0.001659	0.001699	28.0831	0.084300	0.002026	41.6133	119.428	-167.257	0.004972	1.081494	-0.004245	-0.005524	-0.076292	41.6133	-0.002870	-0.002033	37.5183	NaN
162	1.000000	1.092701	7.36663e+06	-46739.1	955.818	-29768.7	0.000000	0.000000	7.093362	6.272218	NaN	0.000000	0.001638	0.001710	28.0903	6.436055	0.001735	3709.22	7.997131	8.253887	4.382467	1.091417	0.005682	0.004399	6.272218	3709.22	0.004414	0.003605	1740.03	56444.7
162	2.000000	1.096427	7.36663e+06	-46739.1	955.818	-29768.7	0.000000	0.000000	7.097305	11.5268	NaN	0.000000	0.001644	0.001693	28.1293	10.3454	0.001565	6610.85	8.283754	-177.566	11.1667	1.096091	0.009409	0.009073	11.5268	6610.85	0.008101	0.007146	1612.99	71448.3
162	2.000000	1.098889	7.36663e+06	-46739.1	955.818	-29768.7	0.000000	0.000000	7.099958	16.1824	NaN	0.000000	0.001625	0.001747	28.1106	13.8314	0.001724	8022.31	4.023109	5.218237	14.8516	1.098525	0.011870	0.011507	16.1824	8022.31	0.010357	0.009581	1688.96	74879.1
162	2.000000	1.101326	7.36663e+06	-46739.1	955.817	-29768.7	0.000000	0.000000	7.102526	19.365	NaN	0.000000	0.001613	0.001710	28.0814	16.3322	0.001836	8894.5	4.220619	-174.379	18.4708	1.101070	0.014308	0.014051	19.365	8894.5	0.012675	0.012308	1573.33	73248
162	2.000000	1.103861	7.36663e+06	-46739.1	955.817	-29768.7	0.000000	0.000000	7.105309	25.3914	NaN	0.000000	0.001580	0.001705	28.0916	18.7745	0.001715	10947.3	3.882986	3.792384	23.296	1.103561	0.016842	0.016542	25.3914	10947.3	0.015103	0.015423	1646.37	80538.2
162	2.000000	1.106345	7.36663e+06	-46739.1	955.818	-29768.7	0.000000	0.000000	7.108057	31.8101	NaN	0.000000	0.001589	0.001745	28.1301	21.176	0.001807	11722.1	5.739770	-178.11	31.0711	1.106060	0.019326	0.019042	31.8101	11722.1	0.017291	0.018463	1722.94	78818.9
162	2.000000	1.108862	7.36663e+06	-46739.1	955.819	-29768.7	0.000000	0.000000	7.110847	38.4699	NaN	0.000000	0.001549	0.001690	28.1119	24.4008	0.001865	13084.7	9.463147	-1.514700	39.2149	1.108451	0.021843	0.021432	38.4699	13084.7	0.019638	0.021977	1750.47	80640.6
162	2.000000	1.111327	7.36663e+06	-46739.1	955.818	-29768.7	0.000000	0.000000	7.113540	44.01	NaN	0.000000	0.001589	0.001705	28.0828	26.4322	0.001761	15009.8	6.640384	178.11	43.1153	1.111051	0.024308	0.024032	44.01	15009.8	0.022109	0.025966	1694.91	85103
162	2.000000	1.113870	7.36663e+06	-46739.1	955.818	-29768.7	0.000000	0.000000	7.116377	51.1424	NaN	0.000000	0.001646	0.001689	28.0897	27.8122	0.001708	16284.6	1.677931	2.427286	50.4732	1.113625	0.026851	0.026607	51.1424	16284.6	0.024496	0.030105	1698.79	85749.3
162	2.000000	1.116315	7.36663e+06	-46739.1	955.817	-29768.7	0.000000	0.000000	7.119186	60.0153	NaN	0.000000	0.001623	0.001715	28.1294	31.4167	0.001744	18010.2	8.018009	174.756	59.8668	1.116069	0.029297	0.029051	60.0153	18010.2	0.026797	0.034367	1746.32	88760.9
162	2.000000	1.118807	7.36663e+06	-46739.1	955.817	-29768.7	0.000000	0.000000	7.122061	69.3305	NaN	0.000000	0.001654	0.001693	28.1106	33.6985	0.001864	18082.5	5.895341	-2.515238	66.553	1.118406	0.031788	0.031387	69.3305	18082.5	0.028913	0.038520	1799.85	84175.8
162	2.000000	1.121343	7.36663e+06	-46739.1	955.818	-29768.7	0.000000	0.000000	7.124997	79.0389	NaN	0.000000	0.001613	0.001703	28.0824	35.8882	0.001837	19538.1	2.470091	-179.461	79.4477	1.121044	0.034325	0.034025	79.0389	19538.1	0.031291	0.043461	1818.61	85625.8
162	2.000000	1.123808	7.36663e+06	-46739.1	955.817	-29768.7	0.000000	0.000000	7.127895	89.5901	NaN	0.000000	0.001608	0.001713	28.0891	37.2954	0.001741	21420.6	1.505840	0.908211	87.0915	1.123358	0.036789	0.036339	89.5901	21420.6	0.033652	0.048655	1841.34	88724.2
162	2.000000	1.126257	7.36663e+06	-46739.1	955.818	-29768.7	0.000000	0.000000	7.130790	100.441	NaN	0.000000	0.001629	0.001733	28.1286	40.0839	0.001823	21987	4.855552	176.674	97.9616	1.126039	0.039238	0.039020	100.441	21987	0.035812	0.053654	1872.02	86723.6
162	2.000000	1.128784	7.36663e+06	-46739.1	955.818	-29768.7	0.000000	0.000000	7.133872	113.952	NaN	0.000000	0.001631	0.001754	28.1112	43.4797	0.001756	24761.9	6.247024	-4.802374	113.702	1.128358	0.041765	0.041339	113.952	24761.9	0.038314	0.059743	1907.38	92558.1
162	2.000000	1.131272	7.36663e+06	-46739.1	955.818	-29768.7	0.000000	0.000000	7.136794	124.493	NaN	0.000000	0.001633	0.001745	28.082	47.483	0.001702	27899.8	7.466949	171.552	123.746	1.130975	0.044253	0.043956	124.493	27899.8	0.040906	0.066391	1875.14	98927.7
162	2.000000	1.133819	7.36663e+06	-46739.1	955.818	-29768.7	0.000000	0.000000	7.139715	133.591	NaN	0.000000	0.001652	0.001738	28.0886	48.5399	0.001749	27752.4	5.219412	-4.591953	133.742	1.133497	0.046800	0.046478	133.591	27752.4	0.043190	0.072533	1841.8	94147.1
162	2.000000	1.136332	7.36663e+06	-46739.1	955.818	-29768.7	0.000000	0.000000	7.142928	150.638	NaN	0.000000	0.001609	0.001756	28.1278	50.4901	0.001788	28244.3	5.581131	175.276	151.46	1.135858	0.049313	0.048840	150.638	28244.3	0.045313	0.078478	1919.49	92114.8
162	2.000000	1.138731	7.36663e+06	-46739.1	955.819	-29768.7	0.000000	0.000000	7.145629	157.967	NaN	0.000000	0.001634	0.001759	28.1109	53.2214	0.001743	30531.6	6.339008	-8.209314	153.065	1.138466	0.051712	0.051447	157.967	30531.6	0.047832	0.085830	1840.47	95214.8
162	2.000000	1.141257	7.36663e+06	-46739.1	955.819	-29768.7	0.000000	0.000000	7.148678	170.696	NaN	0.000000	0.001631	0.001765	28.081	55.0257	0.001803	30515.3	-0.129460	178.786	168.939	1.141020	0.054238	0.054002	170.696	30515.3	0.050043	0.092545	1844.46	91645.9
162	2.000000	1.143811	7.36663e+06	-46739.1	955.818	-29768.7	0.000000	0.000000	7.151913	187.247	NaN	0.000000	0.001622	0.001768	28.0891	58.2084	0.001840	31635.3	7.573337	-8.137143	186.925	1.143320	0.056792	0.056301	187.247	31635.3	0.052353	0.099825	1875.75	91479.9
162	2.000000	1.146270	7.36663e+06	-46739.1	955.818	-29768.7	0.000000	0.000000	7.155012	202.814	NaN	0.000000	0.001605	0.001732	28.1288	59.5515	0.001700	35035	3.061278	174.91	202.828	1.145956	0.059251	0.058937	202.814	35035	0.054910	0.108190	1874.6	97315.2
162	2.000000	1.148737	7.36663e+06	-46739.1	955.818	-29768.7	0.000000	0.000000	7.158107	218.111	NaN	0.000000	0.001588	0.001726	28.1112	62.6185	0.001761	35554.8	3.179597	-4.682490	214.714	1.148350	0.061718	0.061331	218.111	35554.8	0.057117	0.115674	1885.57	95511
162	2.000000	1.151233	7.36663e+06	-46739.1	955.818	-29768.7	0.000000	0.000000	7.161128	230.868	NaN	0.000000	0.001595	0.001804	28.083	66.238	0.001826	36276.5	3.123904	174.399	228.927	1.150964	0.064214	0.063945	230.868	36276.5	0.059441	0.123811	1864.68	94193.2
162	2.000000	1.153791	7.36663e+06	-46739.1	955.819	-29768.7	0.000000	0.000000	7.164500	250.673	NaN	0.000000	0.001619	0.001755	28.0891	67.9325	0.001707	39789.7	5.582595	-7.526620	249.706	1.153278	0.066772	0.066259	250.673	39789.7	0.062047	0.133250	1881.22	99588.7
162	2.000000	1.156183	7.36663e+06	-46739.1	955.819	-29768.7	0.000000	0.000000	7.167618	268.345	NaN	0.000000	0.001577	0.001726	28.1284	69.5928	0.001679	41455.1	1.496586	175.416	265.413	1.155923	0.069164	0.068905	268.345	41455.1	0.064309	0.141712	1893.59	100612
162	2.000000	1.158721	7.36663e+06	-46739.1	955.818	-29768.7	0.000000	0.000000	7.170870	285.691	NaN	0.000000	0.001588	0.001728	28.112	73.8284	0.001796	41101.3	5.424725	-8.547303	281.099	1.158361	0.071702	0.071342	285.691	41101.3	0.066489	0.150099	1903.35	96925.9
162	2.000000	1.161280	7.36663e+06	-46739.1	955.818	-29768.7	0.000000	0.000000	7.173548	288.58	NaN	0.000000	0.001613	0.001731	28.0833	77.4346	0.001902	40708.3	2.561783	173.725	288.583	1.161137	0.074261	0.074118	288.58	40708.3	0.068945	0.159821	1805.64	93033.4
162	2.000000	1.163688	7.36663e+06	-46739.1	955.818	-29768.7	0.000000	0.000000	7.177175	318.234	NaN	0.000000	0.001679	0.001731	28.0908	79.4542	0.001802	44084	11.1014	-14.4673	311.938	1.163301	0.076670	0.076282	318.234	44084	0.071255	0.169232	1880.45	97906.7
162	2.000000	1.166304	7.36663e+06	-46739.1	955.818	-29768.7	0.000000	0.000000	7.180363	332.153	NaN	0.000000	0.001629	0.001745	28.1299	80.4975	0.001732	46484.8	4.261582	171.491	333.883	1.165973	0.079286	0.078954	332.153	46484.8	0.073927	0.180427	1840.93	99984.7
162	2.000000	1.168698	7.36663e+06	-46739.1	955.818	-29768.7	0.000000	0.000000	7.183703	355.165	NaN	0.000000	0.001662	0.001732	28.1132	83.5121	0.001881	44404.3	7.249643	-10.8683	350.757	1.168258	0.081679	0.081239	355.165	44404.3	0.075680	0.187959	1889.59	93576.5
162	2.000000	1.171212	7.36663e+06	-46739.1	955.818	-29768.7	0.000000	0.000000	7.186814	369.699	NaN	0.000000	0.001677	0.001706	28.0833	85.7347	0.001992	43035.1	3.804540	172.72	367.277	1.170984	0.084193	0.083965	369.699	43035.1	0.077750	0.197034	1876.32	88577.9
162	2.000000	1.173680	7.36663e+06	-46739.1	955.819	-29768.7	0.000000	0.000000	7.190452	398.146	NaN	0.000000	0.001630	0.001727	28.0876	86.6063	0.001845	46945.6	4.045623	-7.510105	391.508	1.173332	0.086662	0.086314	398.146	46945.6	0.080301	0.208496	1909.61	93933.2
162	2.000000	1.176277	7.36663e+06	-46739.1	955.819	-29768.7	0.000000	0.000000	7.193767	415.605	NaN	0.000000	0.001674	0.001749	28.1283	88.9061	0.001782	49877.7	7.685547	168.507	417.894	1.175896	0.089258	0.088877	415.605	49877.7	0.083009	0.220996	1880.6	96936.6
162	2.000000	1.178701	7.36663e+06	-46739.1	955.819	-29768.7	0.000000	0.000000	7.197001	435.335	NaN	0.000000	0.001669	0.001747	28.1114	90.457	0.001785	50671.8	0.773023	-5.377727	431.188	1.178444	0.091682	0.091425	435.335	50671.8	0.085238	0.231540	1880.17	96211.4
162	2.000000	1.181268	7.36663e+06	-46739.1	955.818	-29768.7	0.000000	0.000000	7.200336	453.992	NaN	0.000000	0.001685	0.001730	28.0833	94.3076	0.001820	51809.6	3.400832	171.974	455.661	1.180889	0.094249	0.093870	453.992	51809.6	0.087677	0.243338	1865.68	95957.3
162	2.000000	1.183673	7.36663e+06	-46739.1	955.819	-29768.7	0.000000	0.000000	7.203777	479.188	NaN	0.000000	0.001664	0.001770	28.0886	96.2258	0.001813	53062.2	6.721754	-11.4234	471.566	1.183313	0.096654	0.096295	479.188	53062.2	0.089881	0.254236	1884.82	96147.9
162	2.000000	1.186103	7.36663e+06	-46739.1	955.819	-29768.7	0.000000	0.000000	7.207175	502.748	NaN	0.000000	0.001680	0.001733	28.1289	97.6231	0.001765	55308.4	6.774671	168.13	496.511	1.185904	0.099084	0.098885	502.748	55308.4	0.092267	0.266281	1888.04	97925.1
162	2.000000	1.188817	7.36663e+06	-46739.1	955.818	-29768.7	0.000000	0.000000	7.210337	513.654	NaN	0.000000	0.001675	0.001716	28.1128	100.205	0.001625	61659	7.592981	-13.5947	516.64	1.188585	0.101798	0.101566	513.654	61659	0.095550	0.283287	1813.19	105842
162	2.000000	1.191225	7.36663e+06	-46739.1	955.82	-29768.7	0.000000	0.000000	7.213999	544.15	NaN	0.000000	0.001622	0.001741	28.0829	102.583	0.001696	60474.4	0.366258	174.184	545.008	1.190895	0.104206	0.103876	544.15	60474.4	0.097458	0.293394	1854.67	102004
162	2.000000	1.192717	7.36663e+06	-46739.1	955.818	-29768.7	0.000000	0.000000	7.216126	559.574	NaN	0.000000	0.001603	0.001757	28.1117	104.771	0.001888	55491.1	5.562802	-10.6049	556.106	1.192286	0.105699	0.105267	559.574	55491.1	0.098136	0.297025	1883.93	93025.2