File: remote_trans/data/nanoindenter/0828-1/data/Data_2025-08-06,11h17m57s/2025-07-22_16-23-58_1_145.txt
2025-07-22, 16:23:58, 1
Index	Phase	Displacement	Time	Pos X	Pos Y	Pos Z	Rot A	Rot B	Piezo Z	Force A	Force B	Gripper	Voltage A	Voltage B	Temperature	Amplitude force	Amplitude pos	Stiffness	Phase shift	Phase excitation	Force A raw	Displacement raw	HMax	HMax raw	Real Force	Real Stiffness	Contact Depth	Area	Hardness	Reduced Mod.
[#]	[#]	[um]	[s]	[um]	[um]	[um]	[m°]	[m°]	[um]	[uN]	[uN]	[V]	[V]	[V]	[°C]	[uN]	[um]	[N/m]	[°]	[°]	[uN]	[um]	[um]	[um]	[uN]	[N/m]	[um]	[um^2]	[MPa]	[MPa]
145	1.000000	0.002892	7.36645e+06	-45889.1	955.818	-29770.8	0.000000	0.000000	6.002794	-0.017700	NaN	0.000000	0.001574	0.001741	28.1277	0.188577	0.001046	180.24	-137.029	-162.64	0.028533	0.001699	-1.705432	-1.706626	-0.017700	180.24	-1.705359	-5.992718E+22	2.953577E-25	NaN
145	1.000000	0.014895	7.36645e+06	-45889.1	955.819	-29770.8	0.000000	0.000000	6.014797	-0.007548	NaN	0.000000	0.001603	0.001708	28.0774	0.122573	0.001621	75.6045	30.142	-166.218	-0.014420	0.013785	-1.693430	-1.694540	-0.007548	75.6045	-1.693355	-4.151065E+22	1.818393E-25	NaN
145	1.000000	0.026884	7.36645e+06	-45889.1	955.818	-29770.8	0.000000	0.000000	6.026789	0.068978	NaN	0.000000	0.001654	0.001756	28.1283	0.049331	0.001845	26.7309	-2.855007	-165.105	-0.023205	0.025531	-1.681441	-1.682793	0.068978	26.7309	-1.683377	-3.059047E+22	-2.254870E-24	NaN
145	1.000000	0.038848	7.36645e+06	-45889.1	955.82	-29770.8	0.000000	0.000000	6.038750	-0.002486	NaN	0.000000	0.001650	0.001739	28.0808	0.097790	0.001891	51.7242	74.2404	-163.817	0.045561	0.037528	-1.669477	-1.670797	-0.002486	51.7242	-1.669441	-1.997145E+22	1.244603E-25	NaN
145	1.000000	0.050853	7.36645e+06	-45889.1	955.818	-29770.8	0.000000	0.000000	6.050752	-0.076958	NaN	0.000000	0.001635	0.001772	28.1291	0.046735	0.002060	22.6885	-108.414	-164.942	0.045489	0.049527	-1.657472	-1.658798	-0.076958	22.6885	-1.654928	-1.280943E+22	6.007907E-24	NaN
145	1.000000	0.062863	7.36645e+06	-45889.1	955.818	-29770.8	0.000000	0.000000	6.062764	-0.036240	NaN	0.000000	0.001614	0.001732	28.0792	0.025800	0.001943	13.279	-148.614	-163.598	-0.060405	0.061567	-1.645462	-1.646758	-0.036240	13.279	-1.643415	-9.005289E+21	4.024264E-24	NaN
145	1.000000	0.074838	7.36645e+06	-45889.1	955.819	-29770.8	0.000000	0.000000	6.074740	0.000765	NaN	0.000000	0.001622	0.001705	28.1282	0.009293	0.002100	4.426097	-57.7333	-162.488	-0.026249	0.073517	-1.633487	-1.634808	0.000765	4.426097	-1.633617	-6.671756E+21	-1.146111E-25	NaN
145	1.000000	0.086874	7.36645e+06	-45889.1	955.817	-29770.8	0.000000	0.000000	6.086774	-0.044779	NaN	0.000000	0.001631	0.001769	28.079	0.041951	0.001790	23.4322	-164.484	-168.665	-0.082171	0.085557	-1.621451	-1.622768	-0.044779	23.4322	-1.620018	-4.399809E+21	1.017748E-23	NaN
145	1.000000	0.098845	7.36645e+06	-45889.1	955.819	-29770.8	0.000000	0.000000	6.098746	-0.031406	NaN	0.000000	0.001687	0.001751	28.1297	0.085291	0.002030	42.0249	-121.745	-166.418	-0.006704	0.097535	-1.609480	-1.610789	-0.031406	42.0249	-1.608920	-3.132211E+21	1.002668E-23	NaN
145	1.000000	0.110885	7.36645e+06	-45889.1	955.818	-29770.8	0.000000	0.000000	6.110784	-0.084654	NaN	0.000000	0.001610	0.001736	28.0807	0.028114	0.002083	13.4977	111.868	-167.107	-0.071370	0.109546	-1.597440	-1.598778	-0.084654	13.4977	-1.592736	-1.908133E+21	4.436509E-23	NaN
145	1.000000	0.122906	7.36645e+06	-45889.1	955.818	-29770.8	0.000000	0.000000	6.122809	0.033052	NaN	0.000000	0.001631	0.001690	28.1297	0.042565	0.001988	21.409	135.04	-166.907	-0.038471	0.121507	-1.585419	-1.586818	0.033052	21.409	-1.586577	-1.580098E+21	-2.091765E-23	NaN
145	1.000000	0.134858	7.36645e+06	-45889.1	955.819	-29770.8	0.000000	0.000000	6.134760	0.006915	NaN	0.000000	0.001647	0.001715	28.0801	0.105735	0.002008	52.6495	109.481	-168.052	0.076260	0.133553	-1.573467	-1.574772	0.006915	52.6495	-1.573565	-1.060666E+21	-6.519789E-24	NaN
145	1.000000	0.146860	7.36645e+06	-45889.1	955.819	-29770.8	0.000000	0.000000	6.146762	-0.014151	NaN	0.000000	0.001633	0.001786	28.1284	0.059388	0.001929	30.788	3.062620	-166.704	0.103530	0.145587	-1.561465	-1.562738	-0.014151	30.788	-1.561120	-7.244052E+20	1.953415E-23	NaN
145	1.000000	0.158887	7.36645e+06	-45889.1	955.818	-29770.8	0.000000	0.000000	6.158787	-0.050699	NaN	0.000000	0.001540	0.001766	28.0796	0.047175	0.001767	26.6959	133.236	-167.283	-0.048459	0.157557	-1.549438	-1.550768	-0.050699	26.6959	-1.548013	-4.847893E+20	1.045788E-22	NaN
145	1.000000	0.170908	7.36645e+06	-45889.1	955.818	-29770.8	0.000000	0.000000	6.170811	0.001647	NaN	0.000000	0.001566	0.001721	28.1275	0.085858	0.001788	48.0151	-81.8767	-166.446	-0.057293	0.169555	-1.537416	-1.538770	0.001647	48.0151	-1.537442	-3.506292E+20	-4.696879E-24	NaN
145	1.000000	0.182891	7.36645e+06	-45889.1	955.819	-29770.8	0.000000	0.000000	6.182792	-0.030020	NaN	0.000000	0.001563	0.001745	28.0797	0.012500	0.001886	6.626608	126.174	-169.566	-0.108625	0.181633	-1.525434	-1.526692	-0.030020	6.626608	-1.522037	-2.186543E+20	1.372930E-22	NaN
145	1.000000	0.194912	7.36645e+06	-45889.1	955.818	-29770.8	0.000000	0.000000	6.194815	0.018141	NaN	0.000000	0.001598	0.001770	28.1282	0.105042	0.001980	53.0461	-4.273668	-166.798	0.021941	0.193629	-1.513413	-1.514696	0.018141	53.0461	-1.513670	-1.691808E+20	-1.072298E-22	NaN
145	1.000000	0.206910	7.36645e+06	-45889.1	955.818	-29770.8	0.000000	0.000000	6.206810	-0.043590	NaN	0.000000	0.001577	0.001773	28.0791	0.010332	0.001995	5.178519	151.894	-166.871	-0.034378	0.205584	-1.501415	-1.502741	-0.043590	5.178519	-1.495102	-9.573647E+19	4.553090E-22	NaN
145	1.000000	0.218907	7.36645e+06	-45889.1	955.818	-29770.8	0.000000	0.000000	6.218810	0.023200	NaN	0.000000	0.001566	0.001799	28.127	0.054817	0.002044	26.8128	-102.423	-168.326	-0.063101	0.217571	-1.489418	-1.490754	0.023200	26.8128	-1.490067	-8.203788E+19	-2.827986E-22	NaN
145	1.000000	0.230916	7.36645e+06	-45889.1	955.818	-29770.8	0.000000	0.000000	6.230815	-0.067019	NaN	0.000000	0.001575	0.001725	28.0775	0.177978	0.001986	89.6077	86.1729	-167.851	-0.070642	0.229602	-1.477409	-1.478723	-0.067019	89.6077	-1.476848	-5.469051E+19	1.225432E-21	NaN
145	1.000000	0.242928	7.36645e+06	-45889.1	955.82	-29770.8	0.000000	0.000000	6.242829	-0.016668	NaN	0.000000	0.001559	0.001740	28.1264	0.047072	0.001930	24.3847	-139.785	-163.176	-0.075500	0.241623	-1.465397	-1.466702	-0.016668	24.3847	-1.464884	-3.788851E+19	4.399321E-22	NaN
145	1.000000	0.254941	7.36645e+06	-45889.1	955.819	-29770.8	0.000000	0.000000	6.254842	-0.008425	NaN	0.000000	0.001583	0.001737	28.0778	0.043510	0.001927	22.585	69.4154	-164.521	0.012427	0.253606	-1.453384	-1.454719	-0.008425	22.585	-1.453104	-2.639519E+19	3.191680E-22	NaN
145	1.000000	0.266926	7.36645e+06	-45889.1	955.819	-29770.8	0.000000	0.000000	6.266827	-0.022388	NaN	0.000000	0.001522	0.001766	28.1278	0.041801	0.002018	20.7109	-112.283	-166.973	0.042639	0.265631	-1.441399	-1.442694	-0.022388	20.7109	-1.440588	-1.797596E+19	1.245440E-21	NaN
145	1.000000	0.278919	7.36645e+06	-45889.1	955.818	-29770.8	0.000000	0.000000	6.278819	-0.031252	NaN	0.000000	0.001546	0.001715	28.0793	0.075089	0.001969	38.1436	-42.0547	-162.959	-0.029968	0.277635	-1.429406	-1.430689	-0.031252	38.1436	-1.428792	-1.251499E+19	2.497182E-21	NaN
145	1.000000	0.290932	7.36645e+06	-45889.1	955.819	-29770.8	0.000000	0.000000	6.290830	-0.093665	NaN	0.000000	0.001557	0.001719	28.1276	0.072079	0.002027	35.5531	-137.594	-167.275	-0.040526	0.289619	-1.417393	-1.418706	-0.093665	35.5531	-1.415417	-8.300183E+18	1.128473E-20	NaN
145	1.000000	0.302950	7.36645e+06	-45889.1	955.819	-29770.8	0.000000	0.000000	6.302850	-0.062362	NaN	0.000000	0.001574	0.001729	28.0777	0.094208	0.001913	49.2416	39.6894	-166.803	-0.014880	0.301667	-1.405375	-1.406658	-0.062362	49.2416	-1.404425	-5.922283E+18	1.053014E-20	NaN
145	1.000000	0.314948	7.36645e+06	-45889.1	955.818	-29770.8	0.000000	0.000000	6.314852	0.027672	NaN	0.000000	0.001563	0.001759	28.128	0.071060	0.001999	35.552	-77.6168	-165.57	0.039828	0.313631	-1.393376	-1.394694	0.027672	35.552	-1.393960	-4.294349E+18	-6.443853E-21	NaN
145	1.000000	0.326982	7.36645e+06	-45889.1	955.819	-29770.8	0.000000	0.000000	6.326881	-0.059683	NaN	0.000000	0.001603	0.001754	28.0801	0.024310	0.002056	11.8244	165.486	-165.686	-0.033612	0.325698	-1.381343	-1.382627	-0.059683	11.8244	-1.377558	-2.594485E+18	2.300383E-20	NaN
145	1.000000	0.338970	7.36645e+06	-45889.1	955.817	-29770.8	0.000000	0.000000	6.338868	-0.086765	NaN	0.000000	0.001566	0.001729	28.1293	0.040274	0.001991	20.227	14.2061	-167.074	0.000966	0.337700	-1.369355	-1.370625	-0.086765	20.227	-1.366138	-1.826625E+18	4.749998E-20	NaN
145	1.000000	0.350988	7.36645e+06	-45889.1	955.818	-29770.8	0.000000	0.000000	6.350891	0.024689	NaN	0.000000	0.001608	0.001740	28.0799	0.107323	0.002051	52.3269	-138.422	-160.734	0.008059	0.349688	-1.357337	-1.358637	0.024689	52.3269	-1.357691	-1.408953E+18	-1.752291E-20	NaN
145	1.000000	0.362976	7.36645e+06	-45889.1	955.819	-29770.8	0.000000	0.000000	6.362878	0.000504	NaN	0.000000	0.001605	0.001728	28.1286	0.035350	0.001981	17.8431	-49.3396	-169.537	0.019448	0.361716	-1.345349	-1.346609	0.000504	17.8431	-1.345371	-9.647644E+17	-5.219640E-22	NaN
145	1.000000	0.374985	7.36645e+06	-45889.1	955.819	-29770.8	0.000000	0.000000	6.374885	-0.041888	NaN	0.000000	0.001585	0.001768	28.0787	0.031757	0.002163	14.6786	171.46	-165.077	-0.057596	0.373670	-1.333340	-1.334655	-0.041888	14.6786	-1.331200	-6.240128E+17	6.712609E-20	NaN
145	1.000000	0.386977	7.36646e+06	-45889.1	955.818	-29770.8	0.000000	0.000000	6.386876	-0.060364	NaN	0.000000	0.001586	0.001743	28.1277	0.099451	0.002021	49.2024	148.654	-166.135	-0.074279	0.385674	-1.321348	-1.322651	-0.060364	49.2024	-1.320428	-4.480460E+17	1.347277E-19	NaN
145	1.000000	0.398977	7.36646e+06	-45889.1	955.818	-29770.8	0.000000	0.000000	6.398876	-0.073022	NaN	0.000000	0.001555	0.001764	28.0781	0.063981	0.001933	33.1001	-86.5618	-166.562	-0.164880	0.397690	-1.309348	-1.310635	-0.073022	33.1001	-1.307693	-3.028274E+17	2.411353E-19	NaN
145	1.000000	0.410981	7.36646e+06	-45889.1	955.818	-29770.8	0.000000	0.000000	6.410881	-0.055140	NaN	0.000000	0.001558	0.001766	28.1273	0.048291	0.001968	24.5324	51.3237	-163.35	-0.015503	0.409706	-1.297344	-1.298619	-0.055140	24.5324	-1.295658	-2.091116E+17	2.636847E-19	NaN
145	1.000000	0.423008	7.36646e+06	-45889.1	955.82	-29770.8	0.000000	0.000000	6.422909	-0.020999	NaN	0.000000	0.001492	0.001729	28.0798	0.049940	0.001873	26.6576	29.3955	-169.273	0.029326	0.421640	-1.285317	-1.286685	-0.020999	26.6576	-1.284726	-1.493709E+17	1.405843E-19	NaN
145	1.000000	0.434995	7.36646e+06	-45889.1	955.819	-29770.8	0.000000	0.000000	6.434898	0.006895	NaN	0.000000	0.001557	0.001727	28.1285	0.123397	0.002032	60.7337	-129.188	-168.764	-0.041535	0.433707	-1.273329	-1.274617	0.006895	60.7337	-1.273415	-1.054499E+17	-6.538842E-20	NaN
145	1.000000	0.447015	7.36646e+06	-45889.1	955.818	-29770.8	0.000000	0.000000	6.446915	-0.049666	NaN	0.000000	0.001565	0.001748	28.0794	0.101520	0.002113	48.0376	120.984	-167.397	-0.036079	0.445724	-1.261310	-1.262601	-0.049666	48.0376	-1.260534	-7.092731E+16	7.002366E-19	NaN
145	1.000000	0.459017	7.36646e+06	-45889.1	955.819	-29770.8	0.000000	0.000000	6.458916	-0.069616	NaN	0.000000	0.001588	0.001751	28.1268	0.086371	0.002013	42.9117	135.933	-165.745	-0.098839	0.457738	-1.249308	-1.250587	-0.069616	42.9117	-1.248091	-4.834902E+16	1.439859E-18	NaN
145	1.000000	0.471050	7.36646e+06	-45889.1	955.819	-29770.8	0.000000	0.000000	6.470948	-0.095690	NaN	0.000000	0.001593	0.001759	28.078	0.130374	0.002050	63.6077	154.672	-166.662	-0.101895	0.469702	-1.237275	-1.238623	-0.095690	63.6077	-1.236147	-3.346513E+16	2.859406E-18	NaN
145	1.000000	0.483056	7.36646e+06	-45889.1	955.82	-29770.8	0.000000	0.000000	6.482956	-0.037646	NaN	0.000000	0.001564	0.001737	28.1262	0.109626	0.002012	54.4772	127.916	-165.73	-0.017339	0.481736	-1.225269	-1.226589	-0.037646	54.4772	-1.224751	-2.355551E+16	1.598194E-18	NaN
145	1.000000	0.495053	7.36646e+06	-45889.1	955.819	-29770.8	0.000000	0.000000	6.494953	-0.058027	NaN	0.000000	0.001547	0.001729	28.0793	0.049935	0.001989	25.1004	-120.579	-165.818	-0.027148	0.493732	-1.213271	-1.214593	-0.058027	25.1004	-1.211538	-1.567568E+16	3.701702E-18	NaN
145	1.000000	0.507040	7.36646e+06	-45889.1	955.818	-29770.8	0.000000	0.000000	6.506940	-0.061107	NaN	0.000000	0.001530	0.001746	28.1273	0.104759	0.002080	50.3659	162.73	-163.43	-0.061691	0.505731	-1.201284	-1.202594	-0.061107	50.3659	-1.200374	-1.111124E+16	5.499520E-18	NaN
145	1.000000	0.519065	7.36646e+06	-45889.1	955.819	-29770.8	0.000000	0.000000	6.518966	-0.034831	NaN	0.000000	0.001539	0.001732	28.079	0.045073	0.001963	22.958	23.5239	-165.604	-0.037446	0.517750	-1.189260	-1.190575	-0.034831	22.958	-1.188122	-7.615047E+15	4.573908E-18	NaN
145	1.000000	0.531063	7.36646e+06	-45889.1	955.819	-29770.8	0.000000	0.000000	6.530963	-0.041736	NaN	0.000000	0.001512	0.001719	28.1271	0.034923	0.002079	16.8011	-163.256	-170.682	-0.032830	0.529721	-1.177262	-1.178604	-0.041736	16.8011	-1.175399	-5.143146E+15	8.114859E-18	NaN
145	1.000000	0.543034	7.36646e+06	-45889.1	955.819	-29770.8	0.000000	0.000000	6.542932	-0.110608	NaN	0.000000	0.001581	0.001715	28.0792	0.032666	0.001832	17.8291	8.914847	-169.47	-0.101998	0.541755	-1.165291	-1.166570	-0.110608	17.8291	-1.160638	-3.261510E+15	3.391312E-17	NaN
145	1.000000	0.555057	7.36646e+06	-45889.1	955.818	-29770.8	0.000000	0.000000	6.554959	-0.018945	NaN	0.000000	0.001621	0.001746	28.1258	0.049833	0.002016	24.7146	161.022	-166.086	-0.121506	0.553677	-1.153267	-1.154648	-0.018945	24.7146	-1.152693	-2.552209E+15	7.423021E-18	NaN
145	1.000000	0.567066	7.36646e+06	-45889.1	955.82	-29770.8	0.000000	0.000000	6.566967	-0.044427	NaN	0.000000	0.001626	0.001738	28.0767	0.092816	0.002010	46.1759	170.545	-164.974	-0.006573	0.565765	-1.141259	-1.142560	-0.044427	46.1759	-1.140537	-1.753635E+15	2.533406E-17	NaN
145	1.000000	0.579086	7.36646e+06	-45889.1	955.819	-29770.8	0.000000	0.000000	6.578988	-0.013105	NaN	0.000000	0.001644	0.001738	28.1277	0.048074	0.002042	23.5473	147.172	-167.287	-0.030450	0.577712	-1.129239	-1.130613	-0.013105	23.5473	-1.128821	-1.221263E+15	1.073042E-17	NaN
145	1.000000	0.591123	7.36646e+06	-45889.1	955.818	-29770.8	0.000000	0.000000	6.591024	-0.035341	NaN	0.000000	0.001672	0.001765	28.081	0.070351	0.001923	36.587	-139.542	-163.412	-0.162528	0.589819	-1.117202	-1.118506	-0.035341	36.587	-1.116477	-8.340736E+14	4.237133E-17	NaN
145	1.000000	0.603076	7.36646e+06	-45889.1	955.818	-29770.8	0.000000	0.000000	6.602977	-0.044958	NaN	0.000000	0.001659	0.001757	28.1286	0.064110	0.001985	32.2951	-22.6256	-168.493	-0.068694	0.601806	-1.105248	-1.106519	-0.044958	32.2951	-1.104204	-5.708245E+14	7.876049E-17	NaN
145	1.000000	0.615077	7.36646e+06	-45889.1	955.818	-29770.8	0.000000	0.000000	6.614977	-0.037600	NaN	0.000000	0.001615	0.001767	28.0805	0.197735	0.002001	98.8349	144.671	-165.144	-0.007528	0.613784	-1.093248	-1.094541	-0.037600	98.8349	-1.092963	-4.032687E+14	9.323745E-17	NaN
145	1.000000	0.627105	7.36646e+06	-45889.1	955.818	-29770.8	0.000000	0.000000	6.627006	-0.030950	NaN	0.000000	0.001615	0.001745	28.1274	0.048688	0.002025	24.0414	-93.942	-169.396	-0.014451	0.625831	-1.081220	-1.082493	-0.030950	24.0414	-1.080254	-2.722282E+14	1.136924E-16	NaN
145	1.000000	0.639094	7.36646e+06	-45889.1	955.818	-29770.8	0.000000	0.000000	6.638991	-0.114528	NaN	0.000000	0.001619	0.001785	28.0791	0.047585	0.002124	22.4011	-58.6164	-170.102	-0.107539	0.637814	-1.069231	-1.070511	-0.114528	22.4011	-1.065397	-1.719264E+14	6.661481E-16	NaN
145	1.000000	0.651107	7.36646e+06	-45889.1	955.818	-29770.8	0.000000	0.000000	6.651008	-0.017079	NaN	0.000000	0.001587	0.001766	28.1268	0.047586	0.002041	23.3138	-70.6846	-164.26	0.092422	0.649776	-1.057218	-1.058549	-0.017079	23.3138	-1.056668	-1.312338E+14	1.301416E-16	NaN
145	1.000000	0.663101	7.36646e+06	-45889.1	955.819	-29770.8	0.000000	0.000000	6.663002	-0.030795	NaN	0.000000	0.001601	0.001765	28.081	0.058334	0.002016	28.9345	-77.5805	-167.96	-0.067302	0.661777	-1.045223	-1.046548	-0.030795	28.9345	-1.044425	-8.983971E+13	3.427812E-16	NaN
145	1.000000	0.675110	7.36646e+06	-45889.1	955.818	-29770.8	0.000000	0.000000	6.675011	-0.030761	NaN	0.000000	0.001611	0.001749	28.1279	0.059452	0.001985	29.9567	80.6266	-166.544	-0.012041	0.673763	-1.033215	-1.034562	-0.030761	29.9567	-1.032445	-6.199566E+13	4.961871E-16	NaN
145	1.000000	0.687157	7.36646e+06	-45889.1	955.819	-29770.8	0.000000	0.000000	6.687057	-0.032204	NaN	0.000000	0.001628	0.001770	28.0803	0.083992	0.001919	43.7794	95.101	-167.089	-0.077479	0.685826	-1.021168	-1.022499	-0.032204	43.7794	-1.020617	-4.297835E+13	7.493005E-16	NaN
145	1.000000	0.699116	7.36646e+06	-45889.1	955.819	-29770.8	0.000000	0.000000	6.699016	-0.040278	NaN	0.000000	0.001610	0.001762	28.1269	0.028713	0.002026	14.1729	44.6258	-164.503	-0.021152	0.697884	-1.009209	-1.010441	-0.040278	14.1729	-1.007077	-2.825177E+13	1.425686E-15	NaN
145	1.000000	0.711150	7.36646e+06	-45889.1	955.819	-29770.8	0.000000	0.000000	6.711049	-0.070191	NaN	0.000000	0.001617	0.001757	28.0786	0.040803	0.001919	21.2658	58.3458	-169.077	-0.126973	0.709794	-0.997175	-0.998531	-0.070191	21.2658	-0.994699	-1.924847E+13	3.646563E-15	NaN
145	1.000000	0.723134	7.36646e+06	-45889.1	955.819	-29770.8	0.000000	0.000000	6.723036	-0.010388	NaN	0.000000	0.001579	0.001785	28.1254	0.025777	0.001984	12.9921	121.408	-165.633	-0.113327	0.721847	-0.985191	-0.986478	-0.010388	12.9921	-0.984591	-1.406885E+13	7.383795E-16	NaN
145	1.000000	0.735155	7.36646e+06	-45889.1	955.819	-29770.8	0.000000	0.000000	6.735054	-0.069580	NaN	0.000000	0.001602	0.001737	28.0779	0.124062	0.001950	63.621	-36.4658	-164.637	-0.077384	0.733843	-0.973170	-0.974482	-0.069580	63.621	-0.972350	-9.623377E+12	7.230349E-15	NaN
145	1.000000	0.747162	7.36646e+06	-45889.1	955.819	-29770.8	0.000000	0.000000	6.747063	-0.016023	NaN	0.000000	0.001567	0.001704	28.1266	0.110522	0.001898	58.2339	20.4256	-165.227	0.074801	0.745855	-0.961163	-0.962470	-0.016023	58.2339	-0.960957	-6.757254E+12	2.371237E-15	NaN
145	1.000000	0.759157	7.36646e+06	-45889.1	955.818	-29770.8	0.000000	0.000000	6.759058	-0.017121	NaN	0.000000	0.001584	0.001714	28.079	0.078376	0.002032	38.5644	40.4014	-166.259	-0.035187	0.757848	-0.949168	-0.950477	-0.017121	38.5644	-0.948835	-4.637877E+12	3.691533E-15	NaN
145	1.000000	0.771139	7.36646e+06	-45889.1	955.819	-29770.8	0.000000	0.000000	6.771040	-0.036966	NaN	0.000000	0.001596	0.001772	28.1271	0.055387	0.002116	26.1716	-94.1373	-167.465	-0.063144	0.769902	-0.937186	-0.938422	-0.036966	26.1716	-0.936126	-3.125168E+12	1.182840E-14	NaN
145	1.000000	0.783191	7.36646e+06	-45889.1	955.818	-29770.8	0.000000	0.000000	6.783090	-0.060838	NaN	0.000000	0.001575	0.001749	28.0781	0.087845	0.002093	41.9804	22.0856	-166.605	0.014798	0.781876	-0.925134	-0.926449	-0.060838	41.9804	-0.924047	-2.147061E+12	2.833549E-14	NaN
145	1.000000	0.795156	7.36646e+06	-45889.1	955.819	-29770.8	0.000000	0.000000	6.795057	-0.022890	NaN	0.000000	0.001593	0.001783	28.1253	0.055197	0.001915	28.8243	-2.283919	-169.454	-0.034600	0.793896	-0.913169	-0.914429	-0.022890	28.8243	-0.912573	-1.502866E+12	1.523095E-14	NaN
145	1.000000	0.807168	7.36646e+06	-45889.1	955.818	-29770.8	0.000000	0.000000	6.807069	-0.028860	NaN	0.000000	0.001585	0.001701	28.077	0.005396	0.002009	2.685383	148.164	-165.561	-0.004450	0.805897	-0.901157	-0.902428	-0.028860	2.685383	-0.893097	-8.199251E+11	3.519808E-14	NaN
145	1.000000	0.819187	7.36646e+06	-45889.1	955.819	-29770.8	0.000000	0.000000	6.819089	0.013994	NaN	0.000000	0.001569	0.001739	28.126	0.086791	0.001933	44.9031	-22.4573	-164.178	0.041111	0.817863	-0.889138	-0.890461	0.013994	44.9031	-0.889372	-7.301751E+11	-1.916516E-14	NaN
145	1.000000	0.831194	7.36646e+06	-45889.1	955.818	-29770.8	0.000000	0.000000	6.831094	-0.069272	NaN	0.000000	0.001559	0.001732	28.0788	0.063921	0.002006	31.868	86.1681	-168.542	-0.094545	0.829821	-0.877131	-0.878504	-0.069272	31.868	-0.875500	-4.740784E+11	1.461196E-13	NaN
145	1.000000	0.843175	7.36646e+06	-45889.1	955.818	-29770.8	0.000000	0.000000	6.843073	-0.099423	NaN	0.000000	0.001577	0.001728	28.1266	0.041081	0.002016	20.3729	173.908	-167.726	-0.021481	0.841916	-0.865150	-0.866409	-0.099423	20.3729	-0.861489	-3.063935E+11	3.244942E-13	NaN
145	1.000000	0.855172	7.36646e+06	-45889.1	955.818	-29770.8	0.000000	0.000000	6.855074	-0.001862	NaN	0.000000	0.001579	0.001770	28.0797	0.071407	0.001884	37.8968	-105.398	-168.598	0.030260	0.853895	-0.853153	-0.854429	-0.001862	37.8968	-0.853116	-2.360071E+11	7.889542E-15	NaN
145	1.000000	0.867184	7.36646e+06	-45889.1	955.818	-29770.8	0.000000	0.000000	6.867082	-0.085903	NaN	0.000000	0.001563	0.001745	28.1262	0.045846	0.001970	23.2759	-163.367	-164.104	-0.122045	0.865887	-0.841141	-0.842438	-0.085903	23.2759	-0.838373	-1.490237E+11	5.764377E-13	NaN
145	1.000000	0.879209	7.36646e+06	-45889.1	955.819	-29770.8	0.000000	0.000000	6.879109	-0.054459	NaN	0.000000	0.001538	0.001748	28.0784	0.056062	0.002078	26.9735	17.9076	-165.226	-0.064889	0.877893	-0.829116	-0.830432	-0.054459	26.9735	-0.827601	-1.064807E+11	5.114410E-13	NaN
145	1.000000	0.891208	7.36646e+06	-45889.1	955.818	-29770.8	0.000000	0.000000	6.891108	-0.068178	NaN	0.000000	0.001564	0.001754	28.1266	0.018784	0.002021	9.294685	142.619	-163.369	-0.097031	0.889888	-0.817116	-0.818437	-0.068178	9.294685	-0.811615	-6.463711E+10	1.054785E-12	NaN
145	1.000000	0.903199	7.36646e+06	-45889.1	955.818	-29770.8	0.000000	0.000000	6.903103	0.045913	NaN	0.000000	0.001555	0.001741	28.0804	0.078023	0.002026	38.5074	-30.8614	-162.485	-0.009886	0.901897	-0.805126	-0.806428	0.045913	38.5074	-0.806020	-5.427110E+10	-8.459935E-13	NaN
145	1.000000	0.915196	7.36646e+06	-45889.1	955.819	-29770.8	0.000000	0.000000	6.915100	0.045209	NaN	0.000000	0.001576	0.001734	28.1274	0.024145	0.001884	12.8134	127.937	-164.666	-0.029885	0.913898	-0.793129	-0.794427	0.045209	12.8134	-0.795775	-3.940096E+10	-1.147416E-12	NaN
145	1.000000	0.927222	7.36646e+06	-45889.1	955.818	-29770.8	0.000000	0.000000	6.927123	-0.021366	NaN	0.000000	0.001570	0.001756	28.0799	0.035668	0.002027	17.5969	-168.819	-166.647	-0.035490	0.925880	-0.781103	-0.782444	-0.021366	17.5969	-0.780192	-2.420172E+10	8.828263E-13	NaN
145	1.000000	0.939201	7.36646e+06	-45889.1	955.818	-29770.8	0.000000	0.000000	6.939102	-0.020173	NaN	0.000000	0.001612	0.001792	28.1263	0.027728	0.001993	13.9113	86.397	-168.057	-0.034103	0.937904	-0.769124	-0.770421	-0.020173	13.9113	-0.768037	-1.654290E+10	1.219429E-12	NaN
145	1.000000	0.951237	7.36646e+06	-45889.1	955.818	-29770.8	0.000000	0.000000	6.951138	-0.026266	NaN	0.000000	0.001553	0.001743	28.0795	0.101523	0.002091	48.5445	150.331	-168.371	-0.028597	0.949926	-0.757088	-0.758399	-0.026266	48.5445	-0.756682	-1.159192E+10	2.265852E-12	NaN
145	1.000000	0.963229	7.36646e+06	-45889.1	955.817	-29770.8	0.000000	0.000000	6.963130	-0.037515	NaN	0.000000	0.001543	0.001746	28.1261	0.127477	0.001966	64.8258	-42.1235	-164.794	-0.093144	0.961893	-0.745096	-0.746432	-0.037515	64.8258	-0.744662	-7.953205E+9	4.716992E-12	NaN
145	1.000000	0.975269	7.36646e+06	-45889.1	955.818	-29770.8	0.000000	0.000000	6.975172	0.006347	NaN	0.000000	0.001566	0.001758	28.0796	0.019658	0.002012	9.771381	-160.613	-162.527	-0.038716	0.973883	-0.733055	-0.734442	0.006347	9.771381	-0.733543	-5.611584E+9	-1.131048E-12	NaN
145	1.000000	0.987215	7.36646e+06	-45889.1	955.82	-29770.8	0.000000	0.000000	6.987115	-0.039906	NaN	0.000000	0.001568	0.001767	28.127	0.085591	0.002130	40.1749	5.022026	-165.929	0.029040	0.985940	-0.721110	-0.722384	-0.039906	40.1749	-0.720365	-3.710673E+9	1.075429E-11	NaN
145	1.000000	0.999242	7.36646e+06	-45889.1	955.817	-29770.8	0.000000	0.000000	6.999141	-0.080791	NaN	0.000000	0.001545	0.001765	28.0781	0.028248	0.002033	13.8944	-69.6664	-164.606	-0.019732	0.997928	-0.709083	-0.710397	-0.080791	13.8944	-0.704722	-2.269865E+9	3.559305E-11	NaN
145	1.000000	1.011229	7.36646e+06	-45889.1	955.818	-29770.8	0.000000	0.000000	7.011131	-0.016722	NaN	0.000000	0.001582	0.001706	28.1259	0.196900	0.002124	92.7241	132.059	-165.383	0.037075	1.009892	-0.697095	-0.698433	-0.016722	92.7241	-0.696960	-1.778336E+9	9.403210E-12	NaN
145	1.000000	1.023249	7.36646e+06	-45889.1	955.82	-29770.8	0.000000	0.000000	7.023150	-0.016254	NaN	0.000000	0.001564	0.001773	28.0778	0.029114	0.001843	15.7938	115.5	-165.002	-0.002949	1.021933	-0.685076	-0.686392	-0.016254	15.7938	-0.684304	-1.194148E+9	1.361172E-11	NaN
145	1.000000	1.035243	7.36646e+06	-45889.1	955.82	-29770.8	0.000000	0.000000	7.035143	-0.064735	NaN	0.000000	0.001556	0.001763	28.1253	0.055575	0.001938	28.6733	-162.687	-168.559	-0.020088	1.033940	-0.673082	-0.674385	-0.064735	28.6733	-0.671388	-7.950455E+8	8.142254E-11	NaN
145	1.000000	1.047261	7.36646e+06	-45889.1	955.82	-29770.8	0.000000	0.000000	7.047162	-0.040563	NaN	0.000000	0.001579	0.001750	28.0781	0.021956	0.002085	10.5293	22.2441	-164.743	-0.015331	1.046003	-0.661064	-0.662322	-0.040563	10.5293	-0.658174	-5.241544E+8	7.738694E-11	NaN
145	1.000000	1.059266	7.36646e+06	-45889.1	955.819	-29770.8	0.000000	0.000000	7.059168	-0.003652	NaN	0.000000	0.001546	0.001756	28.1258	0.046105	0.002079	22.1741	4.237884	-167.013	-0.048367	1.057949	-0.649059	-0.650376	-0.003652	22.1741	-0.648935	-3.915962E+8	9.325764E-12	NaN
145	1.000000	1.071285	7.36646e+06	-45889.1	955.819	-29770.8	0.000000	0.000000	7.071185	-0.050649	NaN	0.000000	0.001562	0.001755	28.0798	0.111245	0.001860	59.8021	-158.328	-165.242	-0.046301	1.069980	-0.637040	-0.638345	-0.050649	59.8021	-0.636405	-2.636049E+8	1.921392E-10	NaN
145	1.000000	1.083280	7.36646e+06	-45889.1	955.82	-29770.8	0.000000	0.000000	7.083184	0.044050	NaN	0.000000	0.001538	0.001741	28.1255	0.076210	0.001944	39.2088	130.058	-164.404	-0.052507	1.081947	-0.625045	-0.626378	0.044050	39.2088	-0.625887	-1.890326E+8	-2.330268E-10	NaN
145	1.000000	1.095257	7.36646e+06	-45889.1	955.819	-29770.8	0.000000	0.000000	7.095155	-0.093009	NaN	0.000000	0.001533	0.001706	28.0785	0.076935	0.002071	37.1422	-90.5503	-167.085	-0.116882	1.093954	-0.613068	-0.614371	-0.093009	37.1422	-0.611190	-1.187094E+8	7.835041E-10	NaN
145	1.000000	1.107272	7.36646e+06	-45889.1	955.818	-29770.8	0.000000	0.000000	7.107173	-0.032814	NaN	0.000000	0.001550	0.001726	28.1246	0.180493	0.002097	86.0773	143.552	-164.816	-0.016061	1.105961	-0.601053	-0.602364	-0.032814	86.0773	-0.600767	-8.531410E+7	3.846211E-10	NaN
145	1.000000	1.119317	7.36646e+06	-45889.1	955.819	-29770.8	0.000000	0.000000	7.119219	-0.000182	NaN	0.000000	0.001540	0.001767	28.0778	0.067722	0.001888	35.8673	152.709	-167.998	-0.028192	1.118009	-0.589008	-0.590316	-0.000182	35.8673	-0.589004	-5.874023E+7	3.090126E-12	NaN
145	1.000000	1.131302	7.36646e+06	-45889.1	955.819	-29770.8	0.000000	0.000000	7.131202	-0.061002	NaN	0.000000	0.001578	0.001721	28.1255	0.072399	0.002038	35.5268	-139.058	-168.133	-0.140959	1.130004	-0.577023	-0.578320	-0.061002	35.5268	-0.575735	-3.853397E+7	1.583083E-9	NaN
145	1.000000	1.143309	7.36646e+06	-45889.1	955.819	-29770.8	0.000000	0.000000	7.143212	0.020747	NaN	0.000000	0.001637	0.001735	28.0806	0.086908	0.001917	45.3412	-107.737	-164.683	-0.004304	1.141958	-0.565016	-0.566367	0.020747	45.3412	-0.565359	-2.770063E+7	-7.489755E-10	NaN
145	1.000000	1.155266	7.36646e+06	-45889.1	955.82	-29770.8	0.000000	0.000000	7.155166	-0.033015	NaN	0.000000	0.001629	0.001743	28.1263	0.071998	0.002075	34.6997	-159.617	-166.512	-0.123065	1.153999	-0.553059	-0.554325	-0.033015	34.6997	-0.552346	-1.829960E+7	1.804151E-9	NaN
145	1.000000	1.167344	7.36646e+06	-45889.1	955.819	-29770.8	0.000000	0.000000	7.167246	-0.000589	NaN	0.000000	0.001615	0.001769	28.0809	0.034263	0.001843	18.5891	-106.957	-163.927	-0.044065	1.166017	-0.540981	-0.542308	-0.000589	18.5891	-0.540957	-1.272421E+7	4.631500E-11	NaN
145	1.000000	1.179314	7.36646e+06	-45889.1	955.819	-29770.8	0.000000	0.000000	7.179212	-0.102738	NaN	0.000000	0.001622	0.001749	28.1252	0.112262	0.001995	56.2745	-119.244	-164.768	-0.059574	1.177969	-0.529010	-0.530356	-0.102738	56.2745	-0.527641	-8.31401e+06	1.235721E-8	NaN
145	1.000000	1.191341	7.36646e+06	-45889.1	955.819	-29770.8	0.000000	0.000000	7.191242	-0.039306	NaN	0.000000	0.001638	0.001720	28.0802	0.042441	0.001981	21.4278	-62.8403	-167.788	-0.080901	1.190010	-0.516984	-0.518315	-0.039306	21.4278	-0.515608	-5.65579e+06	6.949620E-9	NaN
145	1.000000	1.203328	7.36646e+06	-45889.1	955.818	-29770.8	0.000000	0.000000	7.203229	-0.009396	NaN	0.000000	0.001607	0.001722	28.1263	0.038224	0.002037	18.7604	109.657	-164.902	-0.061171	1.201995	-0.504997	-0.506329	-0.009396	18.7604	-0.504622	-3.97621e+06	2.363009E-9	NaN
145	1.000000	1.215325	7.36646e+06	-45889.1	955.819	-29770.8	0.000000	0.000000	7.215225	-0.058432	NaN	0.000000	0.001593	0.001763	28.0803	0.045560	0.002090	21.7966	133.896	-164.232	-0.022264	1.213996	-0.493000	-0.494329	-0.058432	21.7966	-0.490989	-2.56575e+06	2.277370E-8	NaN
145	1.000000	1.227340	7.36646e+06	-45889.1	955.82	-29770.8	0.000000	0.000000	7.227243	0.014062	NaN	0.000000	0.001548	0.001760	28.1265	0.052354	0.002091	25.033	-12.0878	-164.39	-0.036193	1.226024	-0.480985	-0.482301	0.014062	25.033	-0.481406	-1.88456e+06	-7.461809E-9	NaN
145	1.000000	1.239335	7.36646e+06	-45889.1	955.818	-29770.8	0.000000	0.000000	7.239235	-0.063539	NaN	0.000000	0.001613	0.001782	28.0808	0.066788	0.002021	33.0522	-8.861198	-163.516	0.005983	1.238048	-0.468990	-0.470277	-0.063539	33.0522	-0.467548	-1.20506e+06	5.272684E-8	NaN
145	1.000000	1.251368	7.36646e+06	-45889.1	955.82	-29770.8	0.000000	0.000000	7.251268	-0.060667	NaN	0.000000	0.001604	0.001749	28.1263	0.016787	0.001892	8.874417	-66.6212	-164.659	-0.128025	1.250022	-0.456957	-0.458303	-0.060667	8.874417	-0.451830	-724606	8.372444E-8	NaN
145	1.000000	1.263344	7.36646e+06	-45889.1	955.82	-29770.8	0.000000	0.000000	7.263245	-0.036110	NaN	0.000000	0.001624	0.001744	28.0783	0.023023	0.002019	11.4032	-52.0801	-166.882	-0.064194	1.262031	-0.444981	-0.446293	-0.036110	11.4032	-0.442606	-537195	6.722047E-8	NaN
145	1.000000	1.275349	7.36646e+06	-45889.1	955.818	-29770.8	0.000000	0.000000	7.275250	-0.017575	NaN	0.000000	0.001598	0.001764	28.1235	0.041176	0.002093	19.6718	78.0881	-168.602	-0.111236	1.274069	-0.432976	-0.434256	-0.017575	19.6718	-0.432306	-384304	4.573180E-8	NaN
145	1.000000	1.287351	7.36646e+06	-45889.1	955.819	-29770.8	0.000000	0.000000	7.287252	-0.020195	NaN	0.000000	0.001598	0.001684	28.0788	0.053507	0.001912	27.9876	-75.4624	-164.919	-0.003084	1.286096	-0.420974	-0.422229	-0.020195	27.9876	-0.420433	-260948	7.739002E-8	NaN
145	1.000000	1.299370	7.36646e+06	-45889.1	955.819	-29770.8	0.000000	0.000000	7.299270	-0.049432	NaN	0.000000	0.001607	0.001703	28.1251	0.026206	0.002033	12.8909	-16.253	-168.493	-0.079082	1.298065	-0.408955	-0.410260	-0.049432	12.8909	-0.406079	-163158	3.029724E-7	NaN
145	1.000000	1.311349	7.36646e+06	-45889.1	955.819	-29770.8	0.000000	0.000000	7.311248	-0.069110	NaN	0.000000	0.001602	0.001712	28.0787	0.072211	0.001954	36.9528	-125.684	-166.268	0.045106	1.310047	-0.396976	-0.398278	-0.069110	36.9528	-0.395573	-115564	5.980282E-7	NaN
145	1.000000	1.323365	7.36646e+06	-45889.1	955.818	-29770.8	0.000000	0.000000	7.323267	0.001252	NaN	0.000000	0.001615	0.001721	28.1249	0.022104	0.002094	10.5578	-166.381	-167.76	-0.076672	1.322096	-0.384960	-0.386229	0.001252	10.5578	-0.385049	-81712.9	-1.532507E-8	NaN
145	1.000000	1.335377	7.36646e+06	-45889.1	955.819	-29770.8	0.000000	0.000000	7.335278	-0.009278	NaN	0.000000	0.001573	0.001758	28.0793	0.078130	0.001996	39.1527	-89.9384	-165.423	0.008888	1.334069	-0.372948	-0.374256	-0.009278	39.1527	-0.372771	-54451.2	1.703940E-7	NaN
145	1.000000	1.347398	7.36646e+06	-45889.1	955.819	-29770.8	0.000000	0.000000	7.347296	-0.096573	NaN	0.000000	0.001550	0.001720	28.1244	0.048669	0.001992	24.432	2.884858	-166.256	-0.160013	1.346110	-0.360927	-0.362215	-0.096573	24.432	-0.357963	-33295.2	2.900498E-6	NaN
145	1.000000	1.359415	7.36646e+06	-45889.1	955.819	-29770.8	0.000000	0.000000	7.359314	-0.083799	NaN	0.000000	0.001603	0.001728	28.0789	0.121672	0.001834	66.3459	103.484	-170.888	-0.100740	1.358097	-0.348910	-0.350228	-0.083799	66.3459	-0.347963	-23846.2	3.514138E-6	NaN
145	1.000000	1.371419	7.36646e+06	-45889.1	955.819	-29770.8	0.000000	0.000000	7.371320	-0.020260	NaN	0.000000	0.001595	0.001708	28.1244	0.190355	0.001951	97.5521	81.3666	-167.694	0.002472	1.370076	-0.336906	-0.338249	-0.020260	97.5521	-0.336750	-16373.8	1.237327E-6	NaN
145	1.000000	1.383427	7.36646e+06	-45889.1	955.819	-29770.8	0.000000	0.000000	7.383325	-0.099801	NaN	0.000000	0.001613	0.001744	28.079	0.088805	0.002012	44.1485	69.5339	-167.062	-0.110305	1.382092	-0.324898	-0.326233	-0.099801	44.1485	-0.323202	-10368.9	9.624991E-6	NaN
145	1.000000	1.395380	7.36646e+06	-45889.1	955.821	-29770.8	0.000000	0.000000	7.395280	-0.035793	NaN	0.000000	0.001610	0.001730	28.1244	0.056650	0.002065	27.4381	112.192	-168.178	-0.042804	1.394142	-0.312945	-0.314183	-0.035793	27.4381	-0.311967	-7081.81	5.054248E-6	NaN
145	1.000000	1.407412	7.36646e+06	-45889.1	955.82	-29770.8	0.000000	0.000000	7.407309	-0.114846	NaN	0.000000	0.001594	0.001737	28.0806	0.140227	0.001931	72.6323	-108.173	-163.582	-0.032991	1.406119	-0.300913	-0.302206	-0.114846	72.6323	-0.299727	-4661.99	2.463447E-5	NaN
145	1.000000	1.419414	7.36646e+06	-45889.1	955.82	-29770.8	0.000000	0.000000	7.419315	-0.037583	NaN	0.000000	0.001595	0.001767	28.1244	0.068211	0.002026	33.6679	-162.966	-167.061	-0.034860	1.418123	-0.288910	-0.290202	-0.037583	33.6679	-0.288073	-3121.89	1.203841E-5	NaN
145	1.000000	1.431417	7.36646e+06	-45889.1	955.821	-29770.8	0.000000	0.000000	7.431315	-0.107236	NaN	0.000000	0.001597	0.001769	28.0791	0.065262	0.001962	33.258	148.519	-167.994	-0.127199	1.430157	-0.276908	-0.278168	-0.107236	33.258	-0.274489	-1948.35	5.503918E-5	NaN
145	1.000000	1.443427	7.36646e+06	-45889.1	955.821	-29770.8	0.000000	0.000000	7.443327	-0.063879	NaN	0.000000	0.001619	0.001764	28.1248	0.110812	0.001996	55.5103	-127.095	-167.792	-0.028679	1.442145	-0.264897	-0.266179	-0.063879	55.5103	-0.264034	-1350.97	4.728370E-5	NaN
145	1.000000	1.455421	7.36646e+06	-45889.1	955.82	-29770.8	0.000000	0.000000	7.455322	-0.023312	NaN	0.000000	0.001614	0.001755	28.0793	0.049489	0.002040	24.2545	-146.819	-168.93	-0.079965	1.454123	-0.252904	-0.254202	-0.023312	24.2545	-0.252183	-888.575	2.623497E-5	NaN
145	1.000000	1.467410	7.36646e+06	-45889.1	955.82	-29770.8	0.000000	0.000000	7.467309	-0.069327	NaN	0.000000	0.001633	0.001784	28.1259	0.079760	0.002025	39.3876	-135.067	-163.393	-0.135520	1.466119	-0.240915	-0.242206	-0.069327	39.3876	-0.239595	-566.537	0.000122	NaN
145	1.000000	1.479432	7.36646e+06	-45889.1	955.82	-29770.8	0.000000	0.000000	7.479330	-0.093900	NaN	0.000000	0.001604	0.001749	28.0812	0.106432	0.001894	56.2031	-31.066	-168.835	-0.147150	1.478131	-0.228893	-0.230194	-0.093900	56.2031	-0.227640	-367.447	0.000256	NaN
145	1.000000	1.491431	7.36646e+06	-45889.1	955.821	-29770.8	0.000000	0.000000	7.491330	-0.068036	NaN	0.000000	0.001586	0.001726	28.1257	0.089281	0.002036	43.8521	-109.539	-163.186	-0.075436	1.490107	-0.216894	-0.218218	-0.068036	43.8521	-0.215730	-237.278	0.000287	NaN
145	1.000000	1.503480	7.36646e+06	-45889.1	955.821	-29770.8	0.000000	0.000000	7.503381	-0.027034	NaN	0.000000	0.001592	0.001723	28.0808	0.068314	0.002028	33.6871	-14.3666	-167.464	-0.055735	1.502145	-0.204845	-0.206180	-0.027034	33.6871	-0.204243	-154.599	0.000175	NaN
145	1.000000	1.515456	7.36646e+06	-45889.1	955.82	-29770.8	0.000000	0.000000	7.515356	-0.067727	NaN	0.000000	0.001610	0.001692	28.1243	0.084333	0.001956	43.1189	-175.119	-166.379	-0.065580	1.514200	-0.192869	-0.194125	-0.067727	43.1189	-0.191691	-95.9906	0.000706	NaN
145	1.000000	1.527483	7.36646e+06	-45889.1	955.819	-29770.8	0.000000	0.000000	7.527385	0.004837	NaN	0.000000	0.001624	0.001719	28.08	0.044955	0.001899	23.6734	-122.864	-168.797	0.037306	1.526166	-0.180842	-0.182159	0.004837	23.6734	-0.180995	-63.4434	-7.624239E-5	NaN
145	1.000000	1.539472	7.36646e+06	-45889.1	955.82	-29770.8	0.000000	0.000000	7.539372	-0.060790	NaN	0.000000	0.001600	0.001706	28.1244	0.051839	0.002054	25.2403	-54.5067	-163.038	-0.002185	1.538177	-0.168853	-0.170148	-0.060790	25.2403	-0.167047	-36.4888	0.001666	NaN
145	1.000000	1.551485	7.36646e+06	-45889.1	955.821	-29770.8	0.000000	0.000000	7.551383	-0.103283	NaN	0.000000	0.001598	0.001708	28.0805	0.078153	0.001971	39.6445	125.718	-165.105	-0.092703	1.550223	-0.156840	-0.158102	-0.103283	39.6445	-0.154886	-22.209	0.004650	NaN
145	1.000000	1.563486	7.36646e+06	-45889.1	955.819	-29770.8	0.000000	0.000000	7.563385	-0.070766	NaN	0.000000	0.001596	0.001700	28.1245	0.102794	0.002113	48.6412	8.887013	-167.086	-0.082235	1.562178	-0.144839	-0.146147	-0.070766	48.6412	-0.143748	-13.8981	0.005092	NaN
145	1.000000	1.575512	7.36646e+06	-45889.1	955.819	-29770.8	0.000000	0.000000	7.575411	-0.073225	NaN	0.000000	0.001579	0.001728	28.0806	0.087345	0.002015	43.3463	114.194	-170.831	-0.042518	1.574221	-0.132813	-0.134103	-0.073225	43.3463	-0.131546	-8.165035	0.008968	NaN
145	1.000000	1.587511	7.36646e+06	-45889.1	955.819	-29770.8	0.000000	0.000000	7.587410	-0.071637	NaN	0.000000	0.001581	0.001745	28.1234	0.065612	0.002019	32.5026	-155.864	-162.231	-0.006078	1.586182	-0.120814	-0.122143	-0.071637	32.5026	-0.119161	-4.646382	0.015418	NaN
145	1.000000	1.599506	7.36646e+06	-45889.1	955.82	-29770.8	0.000000	0.000000	7.599405	-0.068540	NaN	0.000000	0.001544	0.001724	28.0794	0.038943	0.002099	18.5539	-122.219	-163.291	-0.026349	1.598216	-0.108819	-0.110109	-0.068540	18.5539	-0.106049	-2.476112	0.027680	NaN
145	1.000000	1.611527	7.36646e+06	-45889.1	955.82	-29770.8	0.000000	0.000000	7.611426	-0.082353	NaN	0.000000	0.001549	0.001785	28.123	0.040359	0.002026	19.922	73.8395	-165.391	-0.054560	1.610193	-0.096798	-0.098131	-0.082353	19.922	-0.093697	-1.317098	0.062526	NaN
145	1.000000	1.623525	7.36646e+06	-45889.1	955.82	-29770.8	0.000000	0.000000	7.623425	-0.041212	NaN	0.000000	0.001577	0.001795	28.0801	0.081730	0.002049	39.8971	58.0732	-165.867	-0.086360	1.622239	-0.084800	-0.086086	-0.041212	39.8971	-0.084025	-0.778066	0.052967	NaN
145	1.000000	1.635506	7.36646e+06	-45889.1	955.821	-29770.8	0.000000	0.000000	7.635405	-0.072885	NaN	0.000000	0.001558	0.001787	28.1241	0.067843	0.002036	33.316	13.6283	-166.725	-0.053861	1.634193	-0.072819	-0.074132	-0.072885	33.316	-0.071179	-0.366719	0.198749	NaN
145	1.000000	1.647540	7.36646e+06	-45889.1	955.82	-29770.8	0.000000	0.000000	7.647442	-0.014225	NaN	0.000000	0.001652	0.001750	28.0798	0.021371	0.002054	10.4035	-98.3583	-169.532	-0.035007	1.646216	-0.060785	-0.062109	-0.014225	10.4035	-0.059759	-0.177249	0.080256	NaN
145	1.000000	1.659491	7.36646e+06	-45889.1	955.82	-29770.8	0.000000	0.000000	7.659392	-0.029522	NaN	0.000000	0.001624	0.001793	28.123	0.065836	0.002036	32.3337	-58.2476	-164.616	-0.009564	1.658232	-0.048834	-0.050093	-0.029522	32.3337	-0.048149	-0.080183	0.368181	NaN
145	1.000000	1.671561	7.36646e+06	-45889.1	955.819	-29770.8	0.000000	0.000000	7.671459	-0.092424	NaN	0.000000	0.001654	0.001769	28.0784	0.083667	0.001946	43.0024	135.265	-165.793	-0.104689	1.670247	-0.036764	-0.038078	-0.092424	43.0024	-0.035152	-0.032356	2.856483	NaN
145	1.000000	1.683543	7.36646e+06	-45889.1	955.819	-29770.8	0.000000	0.000000	7.683445	0.007218	NaN	0.000000	0.001654	0.001789	28.1237	0.047840	0.001987	24.0788	59.3752	-166.361	-0.041028	1.682244	-0.024782	-0.026081	0.007218	24.0788	-0.025007	-0.016877	-0.427654	NaN
145	1.000000	1.695576	7.36646e+06	-45889.1	955.82	-29770.8	0.000000	0.000000	7.695475	-0.077012	NaN	0.000000	0.001618	0.001781	28.081	0.075307	0.002043	36.86	-77.1785	-165.083	-0.047082	1.694220	-0.012749	-0.014105	-0.077012	36.86	-0.011182	-0.007062	10.9056	NaN
145	1.000000	1.707548	7.36646e+06	-45889.1	955.82	-29770.8	0.000000	0.000000	7.707446	-0.089757	NaN	0.000000	0.001664	0.001743	28.1245	0.049150	0.002025	24.2717	149.065	-166.253	-0.125149	1.706217	-0.000777	-0.002108	-0.089757	24.2717	0.001996	0.001552	-57.8401	562.931
145	1.000000	1.719438	7.36646e+06	-45889.1	955.821	-29770.8	0.000000	0.000000	7.719662	7.838383	NaN	0.000000	0.001683	0.001782	28.0813	7.685754	0.001661	4627.23	8.617464	-170.213	7.036081	1.718185	0.011113	0.009860	7.838383	4627.23	0.009843	0.009007	870.231	44544.9
145	2.000000	1.723099	7.36646e+06	-45889.1	955.821	-29770.8	0.000000	0.000000	7.723444	10.7745	NaN	0.000000	0.001714	0.001771	28.1248	11.1579	0.001717	6497.04	7.347219	-173.938	9.832584	1.722852	0.014774	0.014527	10.7745	6497.04	0.013530	0.013375	805.545	51325.7
145	2.000000	1.726117	7.36646e+06	-45889.1	955.821	-29770.8	0.000000	0.000000	7.726632	14.9249	NaN	0.000000	0.001573	0.001777	28.0792	13.645	0.001648	8280.25	5.794688	-175.588	14.9163	1.725755	0.017792	0.017430	14.9249	8280.25	0.016440	0.017254	865.026	57593.8
145	2.000000	1.729075	7.36646e+06	-45889.1	955.82	-29770.8	0.000000	0.000000	7.729799	19.9843	NaN	0.000000	0.001623	0.001782	28.1238	16.9981	0.001586	10715.2	4.049040	-177.381	19.6825	1.728805	0.020750	0.020480	19.9843	10715.2	0.019351	0.021533	928.071	66714.2
145	2.000000	1.732096	7.36646e+06	-45889.1	955.82	-29770.8	0.000000	0.000000	7.732981	23.9076	NaN	0.000000	0.001603	0.001797	28.0809	20.8281	0.001884	11052.4	7.855084	-179.153	23.4067	1.731715	0.023771	0.023390	23.9076	11052.4	0.022149	0.026032	918.4	62586
145	2.000000	1.735036	7.36646e+06	-45889.1	955.82	-29770.8	0.000000	0.000000	7.736183	30.2702	NaN	0.000000	0.001563	0.001791	28.1247	23.2163	0.001818	12770.8	6.902862	-179.322	30.2154	1.734706	0.026711	0.026381	30.2702	12770.8	0.024934	0.030895	979.778	66381.8
145	2.000000	1.738033	7.36646e+06	-45889.1	955.82	-29770.8	0.000000	0.000000	7.739597	40.4344	NaN	0.000000	0.001567	0.001751	28.0827	26.512	0.001783	14873.4	5.437927	179.362	39.2322	1.737726	0.029708	0.029401	40.4344	14873.4	0.027669	0.036050	1121.61	71569.7
145	2.000000	1.741002	7.36646e+06	-45889.1	955.82	-29770.8	0.000000	0.000000	7.742765	45.267	NaN	0.000000	0.001601	0.001703	28.1251	28.6685	0.001800	15922.6	6.787690	179.016	43.7226	1.740697	0.032677	0.032372	45.267	15922.6	0.030545	0.041881	1080.85	71085.5
145	2.000000	1.744064	7.36646e+06	-45889.1	955.82	-29770.8	0.000000	0.000000	7.746176	53.7717	NaN	0.000000	0.001619	0.001733	28.0789	31.2018	0.001796	17377.8	3.053751	-177.982	55.1571	1.743740	0.035739	0.035415	53.7717	17377.8	0.033418	0.048127	1117.29	72372.3
145	2.000000	1.747095	7.36646e+06	-45889.1	955.821	-29770.8	0.000000	0.000000	7.749584	62.9182	NaN	0.000000	0.001603	0.001722	28.1222	34.6272	0.001792	19321.2	8.965942	174.775	64.3309	1.746723	0.038770	0.038399	62.9182	19321.2	0.036328	0.054884	1146.39	75350.5
145	2.000000	1.749987	7.36646e+06	-45889.1	955.821	-29770.8	0.000000	0.000000	7.752937	74.1372	NaN	0.000000	0.001610	0.001747	28.0781	36.1981	0.001751	20667.4	5.866879	177.36	70.5949	1.749615	0.041662	0.041290	74.1372	20667.4	0.038972	0.061399	1207.47	76204.4
145	2.000000	1.753028	7.36646e+06	-45889.1	955.821	-29770.8	0.000000	0.000000	7.756407	84.5949	NaN	0.000000	0.001606	0.001722	28.1223	39.6084	0.001838	21553	6.736009	175.712	85.7136	1.752720	0.044703	0.044395	84.5949	21553	0.041759	0.068654	1232.2	75153.5
145	2.000000	1.756004	7.36646e+06	-45889.1	955.82	-29770.8	0.000000	0.000000	7.759894	97.0051	NaN	0.000000	0.001595	0.001756	28.0807	41.4703	0.001728	24003.9	3.309306	178.039	96.769	1.755707	0.047679	0.047382	97.0051	24003.9	0.044648	0.076593	1266.51	79243.3
145	2.000000	1.758986	7.36646e+06	-45889.1	955.821	-29770.8	0.000000	0.000000	7.763314	107.665	NaN	0.000000	0.001585	0.001691	28.1229	44.8459	0.001842	24343.4	6.467465	174.888	105.023	1.758605	0.050661	0.050280	107.665	24343.4	0.047344	0.084380	1275.96	76565.8
145	2.000000	1.762018	7.36646e+06	-45889.1	955.821	-29770.8	0.000000	0.000000	7.766801	118.753	NaN	0.000000	0.001628	0.001721	28.0803	46.7941	0.001731	27034.3	5.323086	176.15	117.847	1.761609	0.053693	0.053284	118.753	27034.3	0.050398	0.093648	1268.08	80712.3
145	2.000000	1.765036	7.36646e+06	-45889.1	955.821	-29770.8	0.000000	0.000000	7.770285	130.061	NaN	0.000000	0.001571	0.001743	28.122	50.3792	0.001799	27997.5	1.574192	178.943	131.31	1.764776	0.056711	0.056451	130.061	27997.5	0.053227	0.102648	1267.06	79839.3
145	2.000000	1.767984	7.36646e+06	-45889.1	955.821	-29770.8	0.000000	0.000000	7.774013	149.021	NaN	0.000000	0.001567	0.001734	28.0791	53.9972	0.001753	30808.7	7.428785	172.257	148.017	1.767653	0.059660	0.059328	149.021	30808.7	0.056032	0.111965	1330.97	84121.2
145	2.000000	1.770991	7.36646e+06	-45889.1	955.82	-29770.8	0.000000	0.000000	7.777464	159.855	NaN	0.000000	0.001552	0.001728	28.122	57.1681	0.001758	32527.4	0.451351	177.854	158.578	1.770803	0.062666	0.062478	159.855	32527.4	0.058980	0.122177	1308.39	85021.3
145	2.000000	1.773927	7.36646e+06	-45889.1	955.821	-29770.8	0.000000	0.000000	7.781194	179.166	NaN	0.000000	0.001548	0.001732	28.0798	60.1853	0.001850	32525.4	4.369850	175.07	174.699	1.773566	0.065602	0.065241	179.166	32525.4	0.061470	0.131134	1366.28	82061.2
145	2.000000	1.777003	7.36646e+06	-45889.1	955.821	-29770.8	0.000000	0.000000	7.785059	198.356	NaN	0.000000	0.001559	0.001737	28.1243	61.7826	0.001877	32914.9	4.557719	175.28	197.836	1.776639	0.068678	0.068314	198.356	32914.9	0.064158	0.141141	1405.38	80046
145	2.000000	1.779938	7.36646e+06	-45889.1	955.82	-29770.8	0.000000	0.000000	7.788582	212.675	NaN	0.000000	0.001591	0.001743	28.0813	63.324	0.001822	34751.5	3.383947	175.599	210.097	1.779632	0.071613	0.071307	212.675	34751.5	0.067023	0.152188	1397.45	81387.3
145	2.000000	1.782902	7.36646e+06	-45889.1	955.822	-29770.8	0.000000	0.000000	7.792201	228.601	NaN	0.000000	0.001575	0.001734	28.1243	66.7797	0.001837	36348.2	2.755784	175.451	225.066	1.782659	0.074577	0.074334	228.601	36348.2	0.069860	0.163519	1398.01	82124.5
145	2.000000	1.785914	7.36646e+06	-45889.1	955.821	-29770.8	0.000000	0.000000	7.796096	250.085	NaN	0.000000	0.001553	0.001730	28.0806	70.57	0.001886	37415.2	8.167461	170.506	246.769	1.785647	0.077589	0.077322	250.085	37415.2	0.072576	0.174723	1431.32	81779.8
145	2.000000	1.788951	7.36646e+06	-45889.1	955.821	-29770.8	0.000000	0.000000	7.799724	264.444	NaN	0.000000	0.001567	0.001728	28.123	73.0186	0.001860	39254.6	3.258975	174.842	262.514	1.788683	0.080626	0.080358	264.444	39254.6	0.075573	0.187496	1410.4	82826.2
145	2.000000	1.791949	7.36646e+06	-45889.1	955.821	-29770.8	0.000000	0.000000	7.803399	280.906	NaN	0.000000	0.001576	0.001752	28.0803	75.3044	0.001822	41335.6	2.865566	174.304	279.919	1.791688	0.083624	0.083363	280.906	41335.6	0.078528	0.200497	1401.05	84342
145	2.000000	1.794983	7.36646e+06	-45889.1	955.821	-29770.8	0.000000	0.000000	7.807203	299.656	NaN	0.000000	0.001594	0.001755	28.1239	77.7742	0.001790	43441.6	1.372230	175.775	299.7	1.794687	0.086658	0.086362	299.656	43441.6	0.081484	0.213916	1400.81	85813.8
145	2.000000	1.797860	7.36646e+06	-45889.1	955.82	-29770.8	0.000000	0.000000	7.811021	322.541	NaN	0.000000	0.001598	0.001723	28.0816	80.3432	0.001737	46264.6	2.608617	173.543	316.553	1.797707	0.089535	0.089382	322.541	46264.6	0.084306	0.227102	1420.25	88697.5
145	2.000000	1.800953	7.36646e+06	-45889.1	955.82	-29770.8	0.000000	0.000000	7.815013	344.397	NaN	0.000000	0.001575	0.001699	28.1241	83.6009	0.001791	46676.8	4.224795	172.722	343.474	1.800798	0.092628	0.092474	344.397	46676.8	0.087094	0.240493	1432.05	86960.7
145	2.000000	1.804035	7.36646e+06	-45889.1	955.821	-29770.8	0.000000	0.000000	7.818931	364.734	NaN	0.000000	0.001693	0.001718	28.081	87.0263	0.001890	46037.2	5.762802	171.152	369.249	1.803702	0.095710	0.095377	364.734	46037.2	0.089768	0.253672	1437.82	83511.4
145	2.000000	1.806940	7.36646e+06	-45889.1	955.822	-29770.8	0.000000	0.000000	7.822987	392.758	NaN	0.000000	0.001669	0.001736	28.1233	88.7497	0.001849	47996.6	5.231067	172.111	390.869	1.806599	0.098615	0.098274	392.758	47996.6	0.092477	0.267358	1469.03	84808
145	2.000000	1.809894	7.36646e+06	-45889.1	955.82	-29770.7	0.000000	0.000000	7.826965	417.638	NaN	0.000000	0.001666	0.001743	28.0814	91.2271	0.001857	49127.5	7.388884	169.697	413.388	1.809454	0.101569	0.101129	417.638	49127.5	0.095194	0.281417	1484.05	84610.1
145	2.000000	1.812975	7.36646e+06	-45889.1	955.821	-29770.8	0.000000	0.000000	7.830794	435.853	NaN	0.000000	0.001649	0.001726	28.1213	93.9363	0.001773	52968.4	5.307523	170.623	436.023	1.812675	0.104650	0.104351	435.853	52968.4	0.098478	0.298869	1458.34	88521.8
145	2.000000	1.815974	7.36646e+06	-45889.1	955.82	-29770.7	0.000000	0.000000	7.834852	461.608	NaN	0.000000	0.001670	0.001728	28.0804	97.3517	0.001777	54783.7	5.546480	170.042	460.069	1.815595	0.107649	0.107270	461.608	54783.7	0.101330	0.314417	1468.14	89263.1
145	2.000000	1.818856	7.36646e+06	-45889.1	955.822	-29770.7	0.000000	0.000000	7.839052	493.666	NaN	0.000000	0.001653	0.001733	28.1218	100.031	0.001863	53697.1	6.085852	169.987	489.386	1.818601	0.110532	0.110276	493.666	53697.1	0.103636	0.327263	1508.47	85758.3