File: remote_trans/data/nanoindenter/0828-1/data/Data_2025-08-06,11h17m57s/2025-07-22_16-23-58_1_1086.txt
2025-07-22, 16:23:58, 1
Index	Phase	Displacement	Time	Pos X	Pos Y	Pos Z	Rot A	Rot B	Piezo Z	Force A	Force B	Gripper	Voltage A	Voltage B	Temperature	Amplitude force	Amplitude pos	Stiffness	Phase shift	Phase excitation	Force A raw	Displacement raw	HMax	HMax raw	Real Force	Real Stiffness	Contact Depth	Area	Hardness	Reduced Mod.
[#]	[#]	[um]	[s]	[um]	[um]	[um]	[m°]	[m°]	[um]	[uN]	[uN]	[V]	[V]	[V]	[°C]	[uN]	[um]	[N/m]	[°]	[°]	[uN]	[um]	[um]	[um]	[uN]	[N/m]	[um]	[um^2]	[MPa]	[MPa]
1086	1.000000	0.002655	7.37568e+06	-54439.1	1055.82	-29743.7	0.000000	0.000000	6.002814	0.019687	NaN	0.000000	0.001548	0.001782	28.0821	0.112614	0.001006	111.969	175.202	-168.31	-0.030865	0.001380	-0.938796	-0.940070	0.019687	111.969	-0.938928	-3.409335E+12	-5.774425E-15	NaN
1086	1.000000	0.010631	7.37568e+06	-54439.1	1055.82	-29743.7	0.000000	0.000000	6.010788	-0.020363	NaN	0.000000	0.001583	0.001775	28.0817	0.124714	0.000886	140.718	-169.663	-163.782	-0.036468	0.009298	-0.930820	-0.932153	-0.020363	140.718	-0.930712	-2.641205E+12	7.709720E-15	NaN
1086	1.000000	0.018605	7.37568e+06	-54439.1	1055.82	-29743.7	0.000000	0.000000	6.018760	-0.075870	NaN	0.000000	0.001579	0.001785	28.082	0.091080	0.001627	55.9908	120.761	-163.891	-0.097697	0.017292	-0.922846	-0.924159	-0.075870	55.9908	-0.921829	-2.004040E+12	3.785843E-14	NaN
1086	1.000000	0.026655	7.37568e+06	-54439.1	1055.82	-29743.7	0.000000	0.000000	6.026812	-0.032352	NaN	0.000000	0.001571	0.001809	28.0821	0.108046	0.001937	55.7861	-131.633	-164.019	-0.051870	0.025242	-0.914796	-0.916209	-0.032352	55.7861	-0.914361	-1.588757E+12	2.036293E-14	NaN
1086	1.000000	0.034582	7.37568e+06	-54439.1	1055.82	-29743.7	0.000000	0.000000	6.034739	-0.035284	NaN	0.000000	0.001544	0.001798	28.0818	0.028941	0.001914	15.1231	-29.4909	-166.809	0.010153	0.033283	-0.906869	-0.908168	-0.035284	15.1231	-0.905119	-1.191877E+12	2.960392E-14	NaN
1086	1.000000	0.042606	7.37568e+06	-54439.1	1055.82	-29743.7	0.000000	0.000000	6.042763	-0.024092	NaN	0.000000	0.001566	0.001784	28.0833	0.037076	0.002007	18.4709	148.423	-164.014	-0.021852	0.041273	-0.898845	-0.900178	-0.024092	18.4709	-0.897867	-9.511291E+11	2.532960E-14	NaN
1086	1.000000	0.050572	7.37568e+06	-54439.1	1055.82	-29743.7	0.000000	0.000000	6.050731	0.026821	NaN	0.000000	0.001550	0.001761	28.0832	0.066146	0.002022	32.7209	-172.857	-166.641	0.049974	0.049321	-0.890879	-0.892130	0.026821	32.7209	-0.891494	-7.800210E+11	-3.438456E-14	NaN
1086	1.000000	0.058593	7.37568e+06	-54439.1	1055.82	-29743.7	0.000000	0.000000	6.058749	-0.057717	NaN	0.000000	0.001594	0.001820	28.0829	0.090634	0.001898	47.7586	-133.942	-164.382	-0.060322	0.057338	-0.882857	-0.884113	-0.057717	47.7586	-0.881951	-5.795523E+11	9.958958E-14	NaN
1086	1.000000	0.066589	7.37568e+06	-54439.1	1055.82	-29743.7	0.000000	0.000000	6.066747	-0.001000	NaN	0.000000	0.001619	0.001819	28.0831	0.056565	0.001984	28.5136	25.2835	-166.434	-0.117979	0.065264	-0.874862	-0.876186	-0.001000	28.5136	-0.874836	-4.643669E+11	2.153194E-15	NaN
1086	1.000000	0.074598	7.37568e+06	-54439.1	1055.82	-29743.7	0.000000	0.000000	6.074756	-0.017216	NaN	0.000000	0.001599	0.001830	28.0827	0.057187	0.002147	26.6385	-61.3184	-165.612	-0.013654	0.073310	-0.866853	-0.868141	-0.017216	26.6385	-0.866368	-3.566969E+11	4.826382E-14	NaN
1086	1.000000	0.082609	7.37568e+06	-54439.1	1055.82	-29743.7	0.000000	0.000000	6.082766	-0.032423	NaN	0.000000	0.001612	0.001770	28.0833	0.020989	0.001850	11.344	110.162	-168.603	-0.117340	0.081320	-0.858842	-0.860130	-0.032423	11.344	-0.856698	-2.638924E+11	1.228647E-13	NaN
1086	1.000000	0.090594	7.37568e+06	-54439.1	1055.82	-29743.7	0.000000	0.000000	6.090751	-0.045089	NaN	0.000000	0.001608	0.001805	28.0828	0.100107	0.002041	49.0415	155.107	-164.135	-0.027528	0.089293	-0.850857	-0.852158	-0.045089	49.0415	-0.850167	-2.152778E+11	2.094464E-13	NaN
1086	1.000000	0.098606	7.37568e+06	-54439.1	1055.82	-29743.7	0.000000	0.000000	6.098764	-0.023170	NaN	0.000000	0.001591	0.001782	28.0831	0.028071	0.001892	14.8383	78.5559	-168.953	0.008690	0.097276	-0.842844	-0.844174	-0.023170	14.8383	-0.841673	-1.651811E+11	1.402713E-13	NaN
1086	1.000000	0.106629	7.37568e+06	-54439.1	1055.82	-29743.7	0.000000	0.000000	6.106787	-0.002845	NaN	0.000000	0.001542	0.001788	28.0833	0.019941	0.002044	9.755261	-82.7243	-168.975	-0.064562	0.105304	-0.834822	-0.836147	-0.002845	9.755261	-0.834603	-1.324850E+11	2.147646E-14	NaN
1086	1.000000	0.114589	7.37568e+06	-54439.1	1055.82	-29743.7	0.000000	0.000000	6.114747	-0.006969	NaN	0.000000	0.001562	0.001805	28.0832	0.079598	0.002061	38.6197	48.9069	-165.229	0.012953	0.113332	-0.826862	-0.828118	-0.006969	38.6197	-0.826726	-1.036116E+11	6.726117E-14	NaN
1086	1.000000	0.122596	7.37568e+06	-54439.1	1055.82	-29743.7	0.000000	0.000000	6.122756	0.019714	NaN	0.000000	0.001572	0.001827	28.0834	0.081684	0.002025	40.3443	-163.132	-172.772	-0.013702	0.121276	-0.818854	-0.820174	0.019714	40.3443	-0.819221	-8.196829E+10	-2.405100E-13	NaN
1086	1.000000	0.130591	7.37568e+06	-54439.1	1055.82	-29743.7	0.000000	0.000000	6.130749	-0.011321	NaN	0.000000	0.001592	0.001805	28.0829	0.037961	0.002152	17.6371	-166.332	-167.782	0.063681	0.129307	-0.810860	-0.812143	-0.011321	17.6371	-0.810378	-6.218773E+10	1.820457E-13	NaN
1086	1.000000	0.138621	7.37568e+06	-54439.1	1055.82	-29743.7	0.000000	0.000000	6.138779	-0.013351	NaN	0.000000	0.001555	0.001825	28.0831	0.032142	0.002100	15.3053	46.7694	-164.185	-0.060287	0.137260	-0.802830	-0.804190	-0.013351	15.3053	-0.802176	-4.812802E+10	2.774027E-13	NaN
1086	1.000000	0.146625	7.37568e+06	-54439.1	1055.82	-29743.7	0.000000	0.000000	6.146783	-0.026065	NaN	0.000000	0.001551	0.001811	28.0829	0.059779	0.002072	28.8573	-113.595	-170.978	-0.020049	0.145390	-0.794825	-0.796060	-0.026065	28.8573	-0.794148	-3.744671E+10	6.960679E-13	NaN
1086	1.000000	0.154634	7.37568e+06	-54439.1	1055.82	-29743.7	0.000000	0.000000	6.154789	-0.066682	NaN	0.000000	0.001573	0.001813	28.0829	0.102866	0.001872	54.9363	151.818	-165.06	0.029886	0.153289	-0.786817	-0.788162	-0.066682	54.9363	-0.785907	-2.893905E+10	2.304233E-12	NaN
1086	1.000000	0.162663	7.37568e+06	-54439.1	1055.82	-29743.7	0.000000	0.000000	6.162819	-0.063094	NaN	0.000000	0.001589	0.001844	28.0831	0.033941	0.001999	16.9751	-60.2333	-164.993	-0.036771	0.161288	-0.778788	-0.780163	-0.063094	16.9751	-0.776000	-2.122606E+10	2.972457E-12	NaN
1086	1.000000	0.170627	7.37568e+06	-54439.1	1055.82	-29743.7	0.000000	0.000000	6.170786	0.028214	NaN	0.000000	0.001584	0.001813	28.0829	0.133034	0.002179	61.0638	126.208	-165.617	0.074729	0.169307	-0.770824	-0.772143	0.028214	61.0638	-0.771171	-1.824832E+10	-1.546114E-12	NaN
1086	1.000000	0.178645	7.37568e+06	-54439.1	1055.82	-29743.7	0.000000	0.000000	6.178801	-0.072097	NaN	0.000000	0.001604	0.001799	28.0819	0.060090	0.001898	31.666	-88.8758	-167.859	-0.035936	0.177329	-0.762805	-0.764122	-0.072097	31.666	-0.761098	-1.331180E+10	5.416026E-12	NaN
1086	1.000000	0.186652	7.37568e+06	-54439.1	1055.82	-29743.7	0.000000	0.000000	6.186807	-0.081775	NaN	0.000000	0.001564	0.001809	28.0817	0.062893	0.002010	31.2907	-52.9177	-167.332	0.026027	0.185346	-0.754799	-0.756105	-0.081775	31.2907	-0.752839	-1.027692E+10	7.957119E-12	NaN
1086	1.000000	0.194661	7.37568e+06	-54439.1	1055.82	-29743.7	0.000000	0.000000	6.194821	0.024158	NaN	0.000000	0.001549	0.001826	28.0817	0.046871	0.001935	24.2269	-32.5396	-165.035	0.096562	0.193349	-0.746789	-0.748102	0.024158	24.2269	-0.747537	-8.703486E+9	-2.775650E-12	NaN
1086	1.000000	0.202642	7.37568e+06	-54439.1	1055.82	-29743.7	0.000000	0.000000	6.202801	0.011717	NaN	0.000000	0.001585	0.001826	28.0819	0.103174	0.002060	50.0729	178.938	-166.988	0.055849	0.201281	-0.738809	-0.740170	0.011717	50.0729	-0.738984	-6.656115E+9	-1.760367E-12	NaN
1086	1.000000	0.210682	7.37568e+06	-54439.1	1055.82	-29743.7	0.000000	0.000000	6.210837	-0.071790	NaN	0.000000	0.001561	0.001822	28.0818	0.080636	0.002133	37.8071	-18.0172	-167.43	0.081866	0.209362	-0.730769	-0.732089	-0.071790	37.8071	-0.729345	-4.919008E+9	1.459441E-11	NaN
1086	1.000000	0.218655	7.37568e+06	-54439.1	1055.82	-29743.7	0.000000	0.000000	6.218814	-0.001550	NaN	0.000000	0.001548	0.001842	28.0821	0.106949	0.001916	55.8187	-51.6493	-163.127	0.021698	0.217325	-0.722795	-0.724125	-0.001550	55.8187	-0.722774	-4.002286E+9	3.873898E-13	NaN
1086	1.000000	0.226684	7.37568e+06	-54439.1	1055.82	-29743.7	0.000000	0.000000	6.226843	-0.001166	NaN	0.000000	0.001579	0.001815	28.0818	0.142443	0.001992	71.5035	-115.472	-164.542	-0.020584	0.225345	-0.714766	-0.716106	-0.001166	71.5035	-0.714754	-3.111141E+9	3.747042E-13	NaN
1086	1.000000	0.234664	7.37568e+06	-54439.1	1055.82	-29743.7	0.000000	0.000000	6.234821	-0.046799	NaN	0.000000	0.001588	0.001829	28.0821	0.081693	0.001884	43.3522	178.146	-165.464	-0.000630	0.233390	-0.706787	-0.708061	-0.046799	43.3522	-0.705977	-2.361249E+9	1.981963E-11	NaN
1086	1.000000	0.242667	7.37568e+06	-54439.1	1055.82	-29743.7	0.000000	0.000000	6.242825	-0.008469	NaN	0.000000	0.001621	0.001831	28.082	0.010309	0.001977	5.214472	128.472	-167.041	-0.063980	0.241418	-0.698784	-0.700032	-0.008469	5.214472	-0.697565	-1.812514E+9	4.672450E-12	NaN
1086	1.000000	0.250668	7.37568e+06	-54439.1	1055.82	-29743.7	0.000000	0.000000	6.250826	-0.031379	NaN	0.000000	0.001565	0.001887	28.0818	0.026299	0.002100	12.5211	25.743	-165.706	-0.001999	0.249395	-0.690782	-0.692055	-0.031379	12.5211	-0.688903	-1.380139E+9	2.273648E-11	NaN
1086	1.000000	0.258673	7.37568e+06	-54439.1	1055.82	-29743.7	0.000000	0.000000	6.258833	0.034907	NaN	0.000000	0.001575	0.001835	28.082	0.130144	0.002050	63.4873	69.8342	-169.37	0.016014	0.257427	-0.682778	-0.684023	0.034907	63.4873	-0.683190	-1.153005E+9	-3.027456E-11	NaN
1086	1.000000	0.266652	7.37568e+06	-54439.1	1055.82	-29743.7	0.000000	0.000000	6.266810	-0.020579	NaN	0.000000	0.001580	0.001845	28.0821	0.037114	0.002019	18.3784	83.1618	-167.092	0.017321	0.265359	-0.674798	-0.676091	-0.020579	18.3784	-0.673958	-8.621057E+8	2.387071E-11	NaN
1086	1.000000	0.274696	7.37568e+06	-54439.1	1055.82	-29743.7	0.000000	0.000000	6.274854	-0.012477	NaN	0.000000	0.001634	0.001864	28.082	0.116304	0.002040	57.0234	-13.4935	-167.254	0.019626	0.273376	-0.666755	-0.668075	-0.012477	57.0234	-0.666591	-6.834737E+8	1.825463E-11	NaN
1086	1.000000	0.282667	7.37568e+06	-54439.1	1055.82	-29743.7	0.000000	0.000000	6.282823	-0.057722	NaN	0.000000	0.001611	0.001859	28.0818	0.082644	0.001912	43.224	-174.082	-166.213	-0.048344	0.281369	-0.658784	-0.660082	-0.057722	43.224	-0.657782	-5.177086E+8	1.114959E-10	NaN
1086	1.000000	0.290679	7.37568e+06	-54439.1	1055.82	-29743.7	0.000000	0.000000	6.290837	-0.031813	NaN	0.000000	0.001591	0.001821	28.0818	0.139342	0.001949	71.5016	89.3798	-166.115	0.025299	0.289383	-0.650771	-0.652068	-0.031813	71.5016	-0.650438	-4.106175E+8	7.747653E-11	NaN
1086	1.000000	0.298710	7.37568e+06	-54439.1	1055.82	-29743.7	0.000000	0.000000	6.298870	0.045132	NaN	0.000000	0.001582	0.001836	28.0817	0.006831	0.002142	3.189804	146.859	-166.208	0.037004	0.297403	-0.642741	-0.644047	0.045132	3.189804	-0.653352	-4.501793E+8	-1.002528E-10	NaN
1086	1.000000	0.306659	7.37568e+06	-54439.1	1055.82	-29743.7	0.000000	0.000000	6.306817	-0.012275	NaN	0.000000	0.001603	0.001824	28.0819	0.070385	0.002017	34.9044	-38.1214	-169.234	0.039836	0.305386	-0.634792	-0.636064	-0.012275	34.9044	-0.634528	-2.484262E+8	4.941279E-11	NaN
1086	1.000000	0.314690	7.37568e+06	-54439.1	1055.82	-29743.7	0.000000	0.000000	6.314847	-0.023234	NaN	0.000000	0.001624	0.001804	28.0832	0.051406	0.001854	27.7328	114.501	-166.795	0.030080	0.313338	-0.626761	-0.628113	-0.023234	27.7328	-0.626133	-1.905041E+8	1.219592E-10	NaN
1086	1.000000	0.322711	7.37568e+06	-54439.1	1055.82	-29743.7	0.000000	0.000000	6.322866	-0.091226	NaN	0.000000	0.001599	0.001830	28.0828	0.052224	0.001976	26.4284	-16.9655	-166.493	-0.054997	0.321412	-0.618740	-0.620039	-0.091226	26.4284	-0.616151	-1.389035E+8	6.567558E-10	NaN
1086	1.000000	0.330730	7.37568e+06	-54439.1	1055.82	-29743.7	0.000000	0.000000	6.330888	-0.028660	NaN	0.000000	0.001599	0.001853	28.0833	0.066425	0.002125	31.2562	-68.7027	-167.164	0.034092	0.329375	-0.610721	-0.612076	-0.028660	31.2562	-0.610033	-1.144369E+8	2.504461E-10	NaN
1086	1.000000	0.338717	7.37568e+06	-54439.1	1055.82	-29743.7	0.000000	0.000000	6.338877	0.022538	NaN	0.000000	0.001630	0.001871	28.0831	0.076074	0.001961	38.7968	152.259	-162.509	0.062645	0.337431	-0.602734	-0.604020	0.022538	38.7968	-0.603169	-9.206682E+7	-2.447995E-10	NaN
1086	1.000000	0.346704	7.37568e+06	-54439.1	1055.82	-29743.7	0.000000	0.000000	6.346859	-0.078105	NaN	0.000000	0.001594	0.001838	28.0832	0.067628	0.002071	32.6598	-102.185	-164.498	-0.007407	0.345407	-0.594747	-0.596044	-0.078105	32.6598	-0.592954	-6.658553E+7	1.173000E-9	NaN
1086	1.000000	0.354693	7.37568e+06	-54439.1	1055.82	-29743.7	0.000000	0.000000	6.354851	-0.022272	NaN	0.000000	0.001604	0.001827	28.0832	0.071464	0.001975	36.185	-165.588	-167.008	-0.047441	0.353484	-0.586758	-0.587967	-0.022272	36.185	-0.586296	-5.390054E+7	4.132142E-10	NaN
1086	1.000000	0.362731	7.37568e+06	-54439.1	1055.82	-29743.7	0.000000	0.000000	6.362889	6.564991E-5	NaN	0.000000	0.001595	0.001809	28.0832	0.066500	0.002151	30.9203	-177.267	-167.237	-0.039314	0.361397	-0.578720	-0.580054	6.564991E-5	30.9203	-0.578721	-4.237200E+7	-1.549370E-12	NaN
1086	1.000000	0.370698	7.37568e+06	-54439.1	1055.82	-29743.7	0.000000	0.000000	6.370856	-0.005884	NaN	0.000000	0.001608	0.001805	28.0836	0.071300	0.002028	35.1598	-57.0609	-166.214	-0.012566	0.369410	-0.570753	-0.572041	-0.005884	35.1598	-0.570627	-3.275669E+7	1.796209E-10	NaN
1086	1.000000	0.378711	7.37568e+06	-54439.1	1055.82	-29743.7	0.000000	0.000000	6.378871	0.024756	NaN	0.000000	0.001582	0.001802	28.0834	0.116672	0.002091	55.8023	-53.8497	-168.307	0.035042	0.377413	-0.562740	-0.564037	0.024756	55.8023	-0.563072	-2.575568E+7	-9.612046E-10	NaN
1086	1.000000	0.386715	7.37568e+06	-54439.1	1055.82	-29743.7	0.000000	0.000000	6.386875	0.034832	NaN	0.000000	0.001588	0.001824	28.0837	0.062604	0.001963	31.8983	-126.781	-166.791	0.039284	0.385403	-0.554736	-0.556048	0.034832	31.8983	-0.555555	-2.027049E+7	-1.718348E-9	NaN
1086	1.000000	0.394755	7.37568e+06	-54439.1	1055.82	-29743.7	0.000000	0.000000	6.394913	-0.028330	NaN	0.000000	0.001574	0.001832	28.0832	0.121302	0.001994	60.8238	118.717	-168.004	0.020266	0.393376	-0.546695	-0.548074	-0.028330	60.8238	-0.546346	-1.511241E+7	1.874590E-9	NaN
1086	1.000000	0.402754	7.37568e+06	-54439.1	1055.82	-29743.7	0.000000	0.000000	6.402911	-0.046975	NaN	0.000000	0.001560	0.001818	28.0833	0.104592	0.001870	55.9256	-75.7437	-168.174	0.048066	0.401413	-0.538697	-0.540038	-0.046975	55.9256	-0.538067	-1.160222E+7	4.048831E-9	NaN
1086	1.000000	0.410713	7.37568e+06	-54439.1	1055.82	-29743.7	0.000000	0.000000	6.410873	0.042728	NaN	0.000000	0.001555	0.001831	28.0834	0.053538	0.001870	28.6345	34.6763	-163.974	-0.033658	0.409440	-0.530738	-0.532010	0.042728	28.6345	-0.531857	-9.51399e+06	-4.491088E-9	NaN
1086	1.000000	0.418726	7.37568e+06	-54439.1	1055.82	-29743.7	0.000000	0.000000	6.418884	-0.004261	NaN	0.000000	0.001577	0.001831	28.0833	0.095476	0.001960	48.7042	-138.386	-164.792	-0.024163	0.417407	-0.522725	-0.524043	-0.004261	48.7042	-0.522659	-7.08885e+06	6.010640E-10	NaN
1086	1.000000	0.426737	7.37568e+06	-54439.1	1055.82	-29743.7	0.000000	0.000000	6.426899	0.073933	NaN	0.000000	0.001587	0.001856	28.0837	0.035671	0.002005	17.788	-144.044	-168.791	-0.004291	0.425436	-0.514713	-0.516015	0.073933	17.788	-0.517831	-6.07327e+06	-1.217346E-8	NaN
1086	1.000000	0.434778	7.37568e+06	-54439.1	1055.82	-29743.7	0.000000	0.000000	6.434933	-0.074244	NaN	0.000000	0.001593	0.001845	28.0831	0.071081	0.001986	35.7948	-38.0701	-165.315	-0.015171	0.433432	-0.506673	-0.508019	-0.074244	35.7948	-0.505118	-4.04002e+06	1.837721E-8	NaN
1086	1.000000	0.442731	7.37568e+06	-54439.1	1055.82	-29743.7	0.000000	0.000000	6.442890	0.018979	NaN	0.000000	0.001668	0.001829	28.0832	0.033944	0.002049	16.5651	-130.055	-165.625	-0.012951	0.441456	-0.498720	-0.499995	0.018979	16.5651	-0.499579	-3.38176e+06	-5.612030E-9	NaN
1086	1.000000	0.450758	7.37568e+06	-54439.1	1055.82	-29743.7	0.000000	0.000000	6.450916	-0.027210	NaN	0.000000	0.001689	0.001812	28.0822	0.062519	0.002064	30.2934	102.488	-165.786	-0.067811	0.449386	-0.490693	-0.492065	-0.027210	30.2934	-0.490019	-2.4869e+06	1.094153E-8	NaN
1086	1.000000	0.458732	7.37568e+06	-54439.1	1055.82	-29743.7	0.000000	0.000000	6.458888	-0.062015	NaN	0.000000	0.001647	0.001817	28.0819	0.066875	0.002007	33.323	-47.1922	-170.066	0.005793	0.457449	-0.482718	-0.484002	-0.062015	33.323	-0.481323	-1.8795e+06	3.299526E-8	NaN
1086	1.000000	0.466750	7.37568e+06	-54439.1	1055.82	-29743.7	0.000000	0.000000	6.466914	0.118309	NaN	0.000000	0.001620	0.001821	28.0822	0.020235	0.001971	10.2675	4.534362	-167.105	0.093977	0.465452	-0.474700	-0.475999	0.118309	10.2675	-0.483342	-2.00587e+06	-5.898167E-8	NaN
1086	1.000000	0.474743	7.37568e+06	-54439.1	1055.82	-29743.7	0.000000	0.000000	6.474901	-0.017551	NaN	0.000000	0.001593	0.001732	28.0818	0.074722	0.002041	36.6023	-65.047	-166.752	-0.038183	0.473416	-0.466708	-0.468035	-0.017551	36.6023	-0.466348	-1.15923e+06	1.514028E-8	NaN
1086	1.000000	0.482750	7.37568e+06	-54439.1	1055.82	-29743.7	0.000000	0.000000	6.482909	0.009835	NaN	0.000000	0.001641	0.001726	28.082	0.036484	0.002016	18.0937	135.711	-166.896	0.035727	0.481437	-0.458701	-0.460013	0.009835	18.0937	-0.459109	-917258	-1.072214E-8	NaN
1086	1.000000	0.490763	7.37568e+06	-54439.1	1055.82	-29743.7	0.000000	0.000000	6.490920	-0.039209	NaN	0.000000	0.001614	0.001738	28.0821	0.052331	0.002002	26.1451	-174.212	-165.834	-0.002477	0.489429	-0.450688	-0.452022	-0.039209	26.1451	-0.449563	-673263	5.823716E-8	NaN
1086	1.000000	0.498789	7.37568e+06	-54439.1	1055.82	-29743.7	0.000000	0.000000	6.498947	0.000639	NaN	0.000000	0.001632	0.001769	28.0819	0.122763	0.002078	59.0817	-58.484	-165.478	0.032790	0.497458	-0.442662	-0.443993	0.000639	59.0817	-0.442670	-538316	-1.187106E-9	NaN
1086	1.000000	0.506790	7.37568e+06	-54439.1	1055.82	-29743.7	0.000000	0.000000	6.506947	-0.040933	NaN	0.000000	0.001650	0.001746	28.0822	0.035870	0.001964	18.2646	152.52	-163.766	-0.037400	0.505460	-0.434660	-0.435991	-0.040933	18.2646	-0.432979	-392823	1.042016E-7	NaN
1086	1.000000	0.514762	7.37568e+06	-54439.1	1055.82	-29743.7	0.000000	0.000000	6.514919	-0.026136	NaN	0.000000	0.001649	0.001762	28.0819	0.078984	0.001931	40.9004	143.595	-162.273	-0.032347	0.513521	-0.426689	-0.427929	-0.026136	40.9004	-0.426210	-315074	8.295043E-8	NaN
1086	1.000000	0.522767	7.37568e+06	-54439.1	1055.82	-29743.7	0.000000	0.000000	6.522924	-0.055418	NaN	0.000000	0.001669	0.001710	28.0821	0.042680	0.001951	21.8785	35.8871	-165.902	-0.044765	0.521459	-0.418683	-0.419992	-0.055418	21.8785	-0.416784	-231621	2.392628E-7	NaN
1086	1.000000	0.530793	7.37568e+06	-54439.1	1055.82	-29743.7	0.000000	0.000000	6.530950	-0.031623	NaN	0.000000	0.001657	0.001655	28.0819	0.045508	0.001883	24.1634	-58.7288	-167.552	-0.008532	0.529451	-0.410658	-0.412000	-0.031623	24.1634	-0.409676	-183567	1.722687E-7	NaN
1086	1.000000	0.538795	7.37568e+06	-54439.1	1055.82	-29743.7	0.000000	0.000000	6.538954	-0.008312	NaN	0.000000	0.001623	0.001660	28.0817	0.046812	0.002006	23.3368	121.536	-163.103	0.018431	0.537467	-0.402655	-0.403984	-0.008312	23.3368	-0.402388	-144558	5.749592E-8	NaN
1086	1.000000	0.546820	7.37568e+06	-54439.1	1055.82	-29743.7	0.000000	0.000000	6.546979	6.980992E-5	NaN	0.000000	0.001619	0.001649	28.0816	0.110775	0.001861	59.5258	85.2229	-165.392	0.050723	0.545478	-0.394631	-0.395973	6.980992E-5	59.5258	-0.394631	-112039	-6.230848E-10	NaN
1086	1.000000	0.554802	7.37568e+06	-54439.1	1055.82	-29743.7	0.000000	0.000000	6.554958	-0.058460	NaN	0.000000	0.001682	0.001669	28.0818	0.078238	0.002001	39.0947	-54.1991	-167.699	-0.033604	0.553543	-0.386649	-0.387908	-0.058460	39.0947	-0.385528	-83012.8	7.042283E-7	NaN
1086	1.000000	0.562798	7.37568e+06	-54439.1	1055.82	-29743.7	0.000000	0.000000	6.562956	-0.015217	NaN	0.000000	0.001681	0.001686	28.0822	0.037740	0.001881	20.0649	-2.983274	-168.046	-0.047595	0.561505	-0.378653	-0.379946	-0.015217	20.0649	-0.378084	-64920.5	2.343927E-7	NaN
1086	1.000000	0.570824	7.37568e+06	-54439.1	1055.82	-29743.7	0.000000	0.000000	6.570982	-0.001554	NaN	0.000000	0.001659	0.001655	28.0819	0.103030	0.002030	50.747	154.813	-164.85	0.054638	0.569491	-0.370627	-0.371960	-0.001554	50.747	-0.370604	-50678.6	3.066709E-8	NaN
1086	1.000000	0.578804	7.37568e+06	-54439.1	1055.82	-29743.7	0.000000	0.000000	6.578961	-0.029513	NaN	0.000000	0.001639	0.001664	28.0817	0.070409	0.001928	36.5266	-168.289	-164.935	-0.047149	0.577488	-0.362647	-0.363963	-0.029513	36.5266	-0.362041	-38136.5	7.738734E-7	NaN
1086	1.000000	0.586812	7.37568e+06	-54439.1	1055.82	-29743.7	0.000000	0.000000	6.586968	-0.070358	NaN	0.000000	0.001618	0.001667	28.0829	0.151310	0.001969	76.8374	113.61	-169.358	-0.121778	0.585508	-0.354639	-0.355942	-0.070358	76.8374	-0.353952	-29128.2	2.415459E-6	NaN
1086	1.000000	0.594805	7.37568e+06	-54439.1	1055.82	-29743.7	0.000000	0.000000	6.594961	-0.059628	NaN	0.000000	0.001628	0.001688	28.083	0.105869	0.002052	51.5813	-102.465	-166.159	-0.062061	0.593511	-0.346646	-0.347940	-0.059628	51.5813	-0.345779	-22165.8	2.690096E-6	NaN
1086	1.000000	0.602801	7.37568e+06	-54439.1	1055.82	-29743.7	0.000000	0.000000	6.602958	-0.042338	NaN	0.000000	0.001593	0.001702	28.083	0.161469	0.001948	82.875	-46.1379	-164.79	-0.096607	0.601521	-0.338649	-0.339929	-0.042338	82.875	-0.338266	-17229.5	2.457277E-6	NaN
1086	1.000000	0.610848	7.37568e+06	-54439.1	1055.82	-29743.7	0.000000	0.000000	6.611004	-0.047424	NaN	0.000000	0.001646	0.001684	28.0829	0.138554	0.002054	67.4494	136.625	-167.059	-0.029693	0.609499	-0.330603	-0.331952	-0.047424	67.4494	-0.330076	-13078.5	3.626086E-6	NaN
1086	1.000000	0.618833	7.37568e+06	-54439.1	1055.82	-29743.7	0.000000	0.000000	6.618989	-0.060843	NaN	0.000000	0.001630	0.001686	28.0832	0.105117	0.001901	55.301	155.428	-166.721	-0.078698	0.617539	-0.322618	-0.323912	-0.060843	55.301	-0.321793	-9885.82	6.154572E-6	NaN
1086	1.000000	0.626830	7.37568e+06	-54439.1	1055.82	-29743.7	0.000000	0.000000	6.626989	0.008514	NaN	0.000000	0.001642	0.001687	28.083	0.045259	0.002081	21.7507	-124.201	-169.161	-0.018757	0.625497	-0.314621	-0.315954	0.008514	21.7507	-0.314914	-7828.59	-1.087496E-6	NaN
1086	1.000000	0.634817	7.37568e+06	-54439.1	1055.82	-29743.7	0.000000	0.000000	6.634974	-0.033583	NaN	0.000000	0.001637	0.001654	28.0831	0.118321	0.002068	57.2181	-157.552	-164.028	0.030803	0.633501	-0.306634	-0.307950	-0.033583	57.2181	-0.306193	-5816.49	5.773806E-6	NaN
1086	1.000000	0.642832	7.37568e+06	-54439.1	1055.82	-29743.7	0.000000	0.000000	6.642993	0.060038	NaN	0.000000	0.001628	0.001660	28.083	0.094626	0.002008	47.1291	78.8609	-163.766	-0.042416	0.641478	-0.298619	-0.299973	0.060038	47.1291	-0.299574	-4637.66	-1.294584E-5	NaN
1086	1.000000	0.650833	7.37568e+06	-54439.1	1055.82	-29743.7	0.000000	0.000000	6.650990	-0.033911	NaN	0.000000	0.001602	0.001703	28.083	0.070877	0.002114	33.5337	74.7207	-166.164	-0.092502	0.649558	-0.290618	-0.291893	-0.033911	33.5337	-0.289859	-3320.45	1.021282E-5	NaN
1086	1.000000	0.658832	7.37568e+06	-54439.1	1055.82	-29743.7	0.000000	0.000000	6.658987	-0.073745	NaN	0.000000	0.001605	0.001684	28.0836	0.061179	0.001902	32.1651	149.688	-167.176	-0.052665	0.657546	-0.282619	-0.283905	-0.073745	32.1651	-0.280899	-2435.19	3.028307E-5	NaN
1086	1.000000	0.666846	7.37568e+06	-54439.1	1055.82	-29743.7	0.000000	0.000000	6.667003	-0.029158	NaN	0.000000	0.001585	0.001681	28.0831	0.088935	0.001909	46.59	136.604	-165.857	0.005089	0.665544	-0.274605	-0.275907	-0.029158	46.59	-0.274136	-1924.47	1.515099E-5	NaN
1086	1.000000	0.674850	7.37568e+06	-54439.1	1055.82	-29743.7	0.000000	0.000000	6.675011	0.043637	NaN	0.000000	0.001600	0.001678	28.0833	0.060852	0.002077	29.2955	42.1665	-166.847	0.000102	0.673602	-0.266600	-0.267849	0.043637	29.2955	-0.267718	-1537.51	-2.838164E-5	NaN
1086	1.000000	0.682847	7.37568e+06	-54439.1	1055.82	-29743.7	0.000000	0.000000	6.683005	-0.011982	NaN	0.000000	0.001629	0.001663	28.0829	0.135770	0.001957	69.3909	10.1648	-167.935	-0.093721	0.681515	-0.258604	-0.259935	-0.011982	69.3909	-0.258475	-1110.51	1.078932E-5	NaN
1086	1.000000	0.690854	7.37568e+06	-54439.1	1055.82	-29743.7	0.000000	0.000000	6.691013	0.018026	NaN	0.000000	0.001620	0.001674	28.0829	0.100035	0.001991	50.2323	111.418	-168.117	0.010890	0.689583	-0.250597	-0.251868	0.018026	50.2323	-0.250866	-847.921	-2.125910E-5	NaN
1086	1.000000	0.698855	7.37568e+06	-54439.1	1055.82	-29743.7	0.000000	0.000000	6.699016	0.065412	NaN	0.000000	0.001612	0.001664	28.0828	0.110387	0.001968	56.1029	156.548	-166.021	0.063934	0.697554	-0.242596	-0.243897	0.065412	56.1029	-0.243470	-651.115	-0.000100	NaN
1086	1.000000	0.706824	7.37568e+06	-54439.1	1055.82	-29743.7	0.000000	0.000000	6.706981	-0.042197	NaN	0.000000	0.001614	0.001679	28.0831	0.144314	0.002073	69.6307	-153.703	-163.976	-0.008266	0.705552	-0.234627	-0.235899	-0.042197	69.6307	-0.234172	-465.845	9.058266E-5	NaN
1086	1.000000	0.714879	7.37568e+06	-54439.1	1055.82	-29743.7	0.000000	0.000000	6.715039	0.029686	NaN	0.000000	0.001591	0.001686	28.0835	0.123186	0.002100	58.6465	30.0841	-166.357	0.047286	0.713564	-0.226572	-0.227887	0.029686	58.6465	-0.226952	-358.341	-8.284252E-5	NaN
1086	1.000000	0.722838	7.37568e+06	-54439.1	1055.82	-29743.7	0.000000	0.000000	6.722991	-0.114145	NaN	0.000000	0.001599	0.001667	28.0816	0.052225	0.002057	25.3867	16.244	-168.445	-0.081642	0.721553	-0.218613	-0.219897	-0.114145	25.3867	-0.215241	-233.018	0.000490	NaN
1086	1.000000	0.730878	7.37568e+06	-54439.1	1055.82	-29743.7	0.000000	0.000000	6.731036	-0.019346	NaN	0.000000	0.001620	0.001672	28.0815	0.056105	0.002037	27.5376	157.352	-162.299	-0.004901	0.729562	-0.210572	-0.211889	-0.019346	27.5376	-0.210046	-192.113	0.000101	NaN
1086	1.000000	0.738880	7.37568e+06	-54439.1	1055.82	-29743.7	0.000000	0.000000	6.739034	-0.111660	NaN	0.000000	0.001601	0.001681	28.0819	0.016611	0.001934	8.587929	-167.448	-168.065	-0.109258	0.737558	-0.202571	-0.203893	-0.111660	8.587929	-0.192820	-100.234	0.001114	NaN
1086	1.000000	0.746890	7.37568e+06	-54439.1	1055.82	-29743.7	0.000000	0.000000	6.747049	0.006567	NaN	0.000000	0.001562	0.001687	28.0819	0.105583	0.001977	53.412	68.0241	-166.615	0.025960	0.745564	-0.194561	-0.195886	0.006567	53.412	-0.194653	-107.512	-6.108485E-5	NaN
1086	1.000000	0.754887	7.37568e+06	-54439.1	1055.82	-29743.7	0.000000	0.000000	6.755045	-0.018839	NaN	0.000000	0.001586	0.001658	28.0822	0.083778	0.001953	42.8886	-22.2092	-164.672	-0.018757	0.753540	-0.186564	-0.187911	-0.018839	42.8886	-0.186234	-77.788	0.000242	NaN
1086	1.000000	0.762891	7.37568e+06	-54439.1	1055.82	-29743.7	0.000000	0.000000	6.763048	-0.051862	NaN	0.000000	0.001611	0.001659	28.0817	0.077614	0.002009	38.6288	124.166	-168.603	-0.102072	0.761587	-0.178559	-0.179864	-0.051862	38.6288	-0.177552	-55.4274	0.000936	NaN
1086	1.000000	0.770896	7.37568e+06	-54439.1	1055.82	-29743.7	0.000000	0.000000	6.771054	-0.010958	NaN	0.000000	0.001571	0.001669	28.0819	0.031709	0.001997	15.878	-135.315	-167.451	-0.055006	0.769628	-0.170555	-0.171823	-0.010958	15.878	-0.170037	-41.14	0.000266	NaN
1086	1.000000	0.778899	7.37568e+06	-54439.1	1055.82	-29743.7	0.000000	0.000000	6.779057	-0.009190	NaN	0.000000	0.001618	0.001691	28.082	0.046477	0.001920	24.2046	-79.3807	-167.576	-0.040546	0.777596	-0.162552	-0.163855	-0.009190	24.2046	-0.162267	-30.0722	0.000306	NaN
1086	1.000000	0.786919	7.37568e+06	-54439.1	1055.82	-29743.7	0.000000	0.000000	6.787077	-0.011441	NaN	0.000000	0.001583	0.001685	28.082	0.028806	0.002028	14.2049	1.383722	-167.559	0.052884	0.785629	-0.154532	-0.155822	-0.011441	14.2049	-0.153928	-21.3435	0.000536	NaN
1086	1.000000	0.794899	7.37568e+06	-54439.1	1055.82	-29743.7	0.000000	0.000000	6.795058	0.009785	NaN	0.000000	0.001578	0.001677	28.0822	0.067220	0.001969	34.1349	137.718	-167.16	0.013005	0.793638	-0.146552	-0.147813	0.009785	34.1349	-0.146767	-15.8041	-0.000619	NaN
1086	1.000000	0.802881	7.37568e+06	-54439.1	1055.82	-29743.7	0.000000	0.000000	6.803040	0.002983	NaN	0.000000	0.001576	0.001659	28.0821	0.046960	0.002090	22.4647	-146.688	-166.896	-0.023558	0.801572	-0.138569	-0.139878	0.002983	22.4647	-0.138669	-11.1663	-0.000267	NaN
1086	1.000000	0.810910	7.37568e+06	-54439.1	1055.82	-29743.7	0.000000	0.000000	6.811069	0.013471	NaN	0.000000	0.001609	0.001638	28.0825	0.039241	0.002095	18.7321	-173.833	-166.151	-0.023511	0.809544	-0.130541	-0.131907	0.013471	18.7321	-0.131080	-7.997542	-0.001684	NaN
1086	1.000000	0.818892	7.37568e+06	-54439.1	1055.82	-29743.7	0.000000	0.000000	6.819049	-0.031189	NaN	0.000000	0.001591	0.001669	28.0822	0.030024	0.001891	15.8747	108.304	-166.159	-0.077057	0.817595	-0.122559	-0.123855	-0.031189	15.8747	-0.121085	-5.080851	0.006138	NaN
1086	1.000000	0.826909	7.37568e+06	-54439.1	1055.82	-29743.7	0.000000	0.000000	6.827065	-0.046329	NaN	0.000000	0.001599	0.001652	28.0821	0.124737	0.001879	66.3946	68.3623	-168.93	-0.095341	0.825581	-0.114542	-0.115870	-0.046329	66.3946	-0.114019	-3.646136	0.012706	NaN
1086	1.000000	0.834914	7.37568e+06	-54439.1	1055.82	-29743.7	0.000000	0.000000	6.835072	-0.011772	NaN	0.000000	0.001615	0.001642	28.0821	0.053571	0.001999	26.8013	29.1261	-163.058	-0.020905	0.833604	-0.106537	-0.107847	-0.011772	26.8013	-0.106208	-2.495655	0.004717	NaN
1086	1.000000	0.842923	7.37568e+06	-54439.1	1055.82	-29743.7	0.000000	0.000000	6.843082	0.005748	NaN	0.000000	0.001549	0.001658	28.0819	0.036491	0.001961	18.6046	12.2694	-168.177	0.006515	0.841613	-0.098527	-0.099838	0.005748	18.6046	-0.098759	-1.714646	-0.003352	NaN
1086	1.000000	0.850938	7.37568e+06	-54439.1	1055.82	-29743.7	0.000000	0.000000	6.851098	0.017824	NaN	0.000000	0.001587	0.001642	28.0823	0.145336	0.002045	71.0541	91.1566	-165.456	0.003710	0.849612	-0.090512	-0.091839	0.017824	71.0541	-0.090700	-1.122575	-0.015878	NaN
1086	1.000000	0.858914	7.37568e+06	-54439.1	1055.82	-29743.7	0.000000	0.000000	6.859073	0.000366	NaN	0.000000	0.001557	0.001672	28.0832	0.080250	0.001979	40.5414	103.424	-167.431	-0.029860	0.857629	-0.082536	-0.083821	0.000366	40.5414	-0.082543	-0.715722	-0.000512	NaN
1086	1.000000	0.866939	7.37568e+06	-54439.1	1055.82	-29743.7	0.000000	0.000000	6.867095	-0.072041	NaN	0.000000	0.001571	0.001668	28.0831	0.056668	0.001867	30.3506	59.087	-163.299	-0.046237	0.865618	-0.074512	-0.075833	-0.072041	30.3506	-0.072731	-0.403059	0.178735	NaN
1086	1.000000	0.874945	7.37568e+06	-54439.1	1055.82	-29743.7	0.000000	0.000000	6.875102	-0.048778	NaN	0.000000	0.001563	0.001632	28.083	0.062030	0.001999	31.0346	-144.048	-165.76	-0.006861	0.873629	-0.066506	-0.067821	-0.048778	31.0346	-0.065327	-0.254468	0.191687	NaN
1086	1.000000	0.882939	7.37568e+06	-54439.1	1055.82	-29743.7	0.000000	0.000000	6.883097	-0.002553	NaN	0.000000	0.001517	0.001687	28.083	0.098439	0.001962	50.1754	134.235	-164.299	0.036208	0.881662	-0.058512	-0.059788	-0.002553	50.1754	-0.058474	-0.162741	0.015689	NaN
1086	1.000000	0.890950	7.37568e+06	-54439.1	1055.82	-29743.7	0.000000	0.000000	6.891107	-0.026394	NaN	0.000000	0.001553	0.001659	28.0833	0.041548	0.001971	21.0783	57.9325	-166.475	-0.093060	0.889669	-0.050501	-0.051782	-0.026394	21.0783	-0.049562	-0.088508	0.298209	NaN
1086	1.000000	0.898946	7.37568e+06	-54439.1	1055.82	-29743.7	0.000000	0.000000	6.899104	-0.002542	NaN	0.000000	0.001542	0.001623	28.0831	0.043127	0.001962	21.9803	-21.5584	-168.9	0.046857	0.897632	-0.042505	-0.043818	-0.002542	21.9803	-0.042418	-0.053586	0.047428	NaN
1086	1.000000	0.906975	7.37568e+06	-54439.1	1055.82	-29743.7	0.000000	0.000000	6.907131	-0.045357	NaN	0.000000	0.001558	0.001660	28.083	0.052522	0.002004	26.2028	178.691	-165.115	-0.064631	0.905683	-0.034476	-0.035768	-0.045357	26.2028	-0.033178	-0.028331	1.600950	NaN
1086	1.000000	0.914974	7.37568e+06	-54439.1	1055.82	-29743.7	0.000000	0.000000	6.915132	-0.020969	NaN	0.000000	0.001540	0.001671	28.083	0.065817	0.001900	34.6345	-1.120087	-165.199	-0.001715	0.913598	-0.026477	-0.027853	-0.020969	34.6345	-0.026023	-0.017947	1.168358	NaN
1086	1.000000	0.922956	7.37568e+06	-54439.1	1055.82	-29743.7	0.000000	0.000000	6.923114	-0.025612	NaN	0.000000	0.001568	0.001658	28.0832	0.046917	0.002035	23.0518	31.5898	-164.221	0.005650	0.921625	-0.018495	-0.019826	-0.025612	23.0518	-0.017661	-0.010939	2.341361	NaN
1086	1.000000	0.930938	7.37568e+06	-54439.1	1055.82	-29743.7	0.000000	0.000000	6.931095	-0.050618	NaN	0.000000	0.001552	0.001698	28.0831	0.028001	0.001996	14.0271	-176.121	-163.004	0.000300	0.929702	-0.010513	-0.011749	-0.050618	14.0271	-0.007806	-0.005118	9.890360	NaN
1086	1.000000	0.938948	7.37568e+06	-54439.1	1055.82	-29743.7	0.000000	0.000000	6.939136	0.716317	NaN	0.000000	0.001584	0.001659	28.0831	1.313096	0.001835	715.481	3.492660	-167.979	0.060000	0.937615	-0.002503	-0.003836	0.716317	715.481	-0.003253	-0.002289	-312.884	NaN
1086	2.000000	0.946470	7.37568e+06	-54439.1	1055.82	-29743.7	0.000000	0.000000	6.946941	7.593132	NaN	0.000000	0.001554	0.001684	28.0833	8.610174	0.001831	4702.62	16.1137	-176.766	8.206138	0.945588	0.005019	0.004137	7.593132	4702.62	0.003808	0.003072	2472.03	77522.9
1086	2.000000	0.948543	7.37568e+06	-54439.1	1055.82	-29743.7	0.000000	0.000000	6.949113	9.998292	NaN	0.000000	0.001557	0.001635	28.083	10.7735	0.001751	6151.87	9.670894	-175.312	9.911972	0.948189	0.007093	0.006738	9.998292	6151.87	0.005874	0.004945	2021.92	79928.1
1086	2.000000	0.950534	7.37568e+06	-54439.1	1055.82	-29743.7	0.000000	0.000000	6.951251	13.5668	NaN	0.000000	0.001581	0.001659	28.0832	12.6784	0.001758	7212.51	2.489355	-169.969	13.2395	0.950086	0.009083	0.008635	13.5668	7212.51	0.007673	0.006708	2022.55	80458.2
1086	2.000000	0.952525	7.37568e+06	-54439.1	1055.82	-29743.7	0.000000	0.000000	6.953339	15.9135	NaN	0.000000	0.001580	0.001628	28.0831	15.0239	0.001702	8825.22	10.2058	-179.291	15.3194	0.952137	0.011075	0.010686	15.9135	8825.22	0.009722	0.008875	1793.16	85590.5
1086	2.000000	0.954491	7.37568e+06	-54439.1	1055.82	-29743.7	0.000000	0.000000	6.955392	18.0516	NaN	0.000000	0.001596	0.001632	28.083	17.1728	0.001786	9614.65	7.584762	-178.573	17.9314	0.954170	0.013040	0.012720	18.0516	9614.65	0.011632	0.011052	1633.29	83556.6
1086	2.000000	0.956494	7.37568e+06	-54439.1	1055.82	-29743.7	0.000000	0.000000	6.957585	22.668	NaN	0.000000	0.001568	0.001687	28.0838	19.4316	0.001738	11181.7	5.624073	-177.359	21.8371	0.956173	0.015044	0.014722	22.668	11181.7	0.013523	0.013366	1695.94	88364.5
1086	2.000000	0.958450	7.37568e+06	-54439.1	1055.82	-29743.7	0.000000	0.000000	6.959760	28.0067	NaN	0.000000	0.001567	0.001661	28.0821	21.241	0.001782	11922.8	5.515721	-178.889	26.4395	0.958075	0.016999	0.016624	28.0067	11922.8	0.015237	0.015603	1794.98	87206.5
1086	2.000000	0.960461	7.37568e+06	-54439.1	1055.82	-29743.7	0.000000	0.000000	6.961893	30.9544	NaN	0.000000	0.001563	0.001657	28.0816	23.869	0.001832	13028.6	5.018373	-178.703	30.2593	0.960193	0.019010	0.018742	30.9544	13028.6	0.017228	0.018372	1684.83	87819
1086	2.000000	0.962468	7.37568e+06	-54439.1	1055.82	-29743.7	0.000000	0.000000	6.964104	35.9166	NaN	0.000000	0.001605	0.001667	28.0815	25.0962	0.001921	13065.6	6.142262	-178.833	35.7726	0.962150	0.021017	0.020700	35.9166	13065.6	0.018955	0.020927	1716.26	82518
1086	2.000000	0.964470	7.37568e+06	-54439.1	1055.82	-29743.7	0.000000	0.000000	6.966323	41.1885	NaN	0.000000	0.001557	0.001736	28.0816	27.7273	0.001856	14940.7	10.8612	175.188	41.0436	0.964124	0.023019	0.022673	41.1885	14940.7	0.020952	0.024060	1711.91	88003.2
1086	2.000000	0.966525	7.37568e+06	-54439.1	1055.82	-29743.7	0.000000	0.000000	6.968585	46.2391	NaN	0.000000	0.001574	0.001674	28.0824	29.2169	0.001788	16338.5	6.185024	179.066	47.3899	0.966155	0.025074	0.024704	46.2391	16338.5	0.022952	0.027394	1687.92	90189.9
1086	2.000000	0.968459	7.37568e+06	-54439.1	1055.82	-29743.7	0.000000	0.000000	6.970846	54.1788	NaN	0.000000	0.001614	0.001672	28.0816	30.4555	0.001635	18631.6	4.817977	178.165	52.7541	0.968136	0.027008	0.026685	54.1788	18631.6	0.024827	0.030702	1764.69	97149.8
1086	2.000000	0.970435	7.37568e+06	-54439.1	1055.82	-29743.7	0.000000	0.000000	6.972959	57.5039	NaN	0.000000	0.001569	0.001640	28.082	33.5802	0.001760	19076.2	3.001820	-179.884	55.3684	0.970152	0.028985	0.028702	57.5039	19076.2	0.026724	0.034227	1680.09	94206.8
1086	2.000000	0.972467	7.37568e+06	-54439.1	1055.82	-29743.7	0.000000	0.000000	6.975241	63.5678	NaN	0.000000	0.001619	0.001689	28.0819	35.2709	0.001741	20254.3	6.278536	176.101	63.6083	0.972138	0.031017	0.030687	63.5678	20254.3	0.028663	0.038018	1672.05	94906.7
1086	2.000000	0.974499	7.37568e+06	-54439.1	1055.82	-29743.7	0.000000	0.000000	6.977516	69.507	NaN	0.000000	0.001581	0.001657	28.0816	37.9004	0.001916	19776.6	8.750142	174.683	70.7317	0.974109	0.033048	0.032659	69.507	19776.6	0.030412	0.041602	1670.77	88586.5
1086	2.000000	0.976460	7.37568e+06	-54439.1	1055.82	-29743.7	0.000000	0.000000	6.979929	80.4613	NaN	0.000000	0.001570	0.001693	28.0821	39.0396	0.001761	22173	6.289748	176.854	80.0982	0.976092	0.035010	0.034641	80.4613	22173	0.032288	0.045620	1763.73	94846.3
1086	2.000000	0.978386	7.37568e+06	-54439.1	1055.82	-29743.7	0.000000	0.000000	6.982125	87.0571	NaN	0.000000	0.001600	0.001689	28.0816	40.5884	0.001850	21945.2	4.619895	177.386	84.2023	0.978153	0.036935	0.036702	87.0571	21945.2	0.033960	0.049352	1764.01	90252.9
1086	2.000000	0.980386	7.37568e+06	-54439.1	1055.82	-29743.7	0.000000	0.000000	6.984480	95.6787	NaN	0.000000	0.001611	0.001658	28.0822	42.7153	0.001855	23031	5.283790	177.085	92.069	0.979993	0.038935	0.038542	95.6787	23031	0.035819	0.053671	1782.68	90827.1
1086	2.000000	0.982385	7.37568e+06	-54439.1	1055.82	-29743.7	0.000000	0.000000	6.986748	102.191	NaN	0.000000	0.001627	0.001690	28.0818	43.3281	0.001904	22750.5	2.109762	179.879	100.311	0.982186	0.040935	0.040735	102.191	22750.5	0.037566	0.057889	1765.3	86390.4
1086	2.000000	0.984387	7.37568e+06	-54439.1	1055.82	-29743.7	0.000000	0.000000	6.989300	115.582	NaN	0.000000	0.001662	0.001644	28.0817	46.8782	0.001785	26255.7	7.650412	172.929	112.025	0.984029	0.042937	0.042578	115.582	26255.7	0.039635	0.063089	1832.04	95503.6
1086	2.000000	0.986462	7.37568e+06	-54439.1	1055.82	-29743.7	0.000000	0.000000	6.991556	119.981	NaN	0.000000	0.001617	0.001618	28.0819	48.6487	0.001737	28003.4	5.431496	174.077	119.772	0.986185	0.045011	0.044735	119.981	28003.4	0.041798	0.068757	1745	97571.9
1086	2.000000	0.988356	7.37568e+06	-54439.1	1055.82	-29743.7	0.000000	0.000000	6.993974	132.721	NaN	0.000000	0.001660	0.001653	28.0816	50.0537	0.001788	27997.7	2.994925	177.266	129.508	0.988137	0.046906	0.046686	132.721	27997.7	0.043350	0.072973	1818.77	94692
1086	2.000000	0.990426	7.37568e+06	-54439.1	1055.82	-29743.7	0.000000	0.000000	6.996442	142.401	NaN	0.000000	0.001579	0.001651	28.0823	52.8606	0.001741	30370.9	4.700512	175.289	142.025	0.990041	0.048975	0.048590	142.401	30370.9	0.045459	0.078895	1804.96	98788.7
1086	2.000000	0.992437	7.37568e+06	-54439.1	1055.82	-29743.7	0.000000	0.000000	6.998798	150.783	NaN	0.000000	0.001578	0.001625	28.0825	54.3989	0.001849	29418	7.801236	172.633	149.693	0.992097	0.050986	0.050646	150.783	29418	0.047142	0.083785	1799.64	92854.6
1086	2.000000	0.994415	7.37568e+06	-54439.1	1055.82	-29743.7	0.000000	0.000000	7.001120	159.148	NaN	0.000000	0.001601	0.001622	28.0832	56.7791	0.001832	30988	6.440258	173.417	159.316	0.994003	0.052965	0.052552	159.148	30988	0.049113	0.089690	1774.42	94535.4
1086	2.000000	0.996387	7.37568e+06	-54439.1	1055.82	-29743.7	0.000000	0.000000	7.003424	167.222	NaN	0.000000	0.001576	0.001628	28.083	58.9852	0.001911	30860.4	3.507000	176.078	165.102	0.996095	0.054936	0.054644	167.222	30860.4	0.050872	0.095128	1757.86	91415.7
1086	2.000000	0.998438	7.37568e+06	-54439.1	1055.82	-29743.7	0.000000	0.000000	7.006002	180.035	NaN	0.000000	0.001586	0.001641	28.0829	60.0072	0.001733	34629.4	3.543402	174.804	182.18	0.998060	0.056988	0.056609	180.035	34629.4	0.053088	0.102198	1761.63	98968.8
1086	2.000000	1.000465	7.37568e+06	-54439.1	1055.82	-29743.7	0.000000	0.000000	7.008374	188.428	NaN	0.000000	0.001554	0.001629	28.0831	64.4221	0.001821	35383.9	6.856078	171.228	190.677	1.000107	0.059014	0.058657	188.428	35383.9	0.055020	0.108559	1735.72	98117.3
1086	2.000000	1.002380	7.37568e+06	-54439.1	1055.82	-29743.7	0.000000	0.000000	7.010990	205.445	NaN	0.000000	0.001567	0.001627	28.0831	64.1184	0.001888	33958.2	4.055113	174.929	203.809	1.002103	0.060930	0.060652	205.445	33958.2	0.056392	0.113190	1815.04	92217.7
1086	2.000000	1.004329	7.37568e+06	-54439.1	1055.82	-29743.7	0.000000	0.000000	7.013470	218.378	NaN	0.000000	0.001580	0.001653	28.0832	66.4459	0.001820	36500.4	3.703090	175.088	213.573	1.003986	0.062878	0.062535	218.378	36500.4	0.058391	0.120103	1818.26	96226.4
1086	2.000000	1.006375	7.37568e+06	-54439.1	1055.82	-29743.7	0.000000	0.000000	7.015960	229.175	NaN	0.000000	0.001614	0.001661	28.0832	67.6301	0.001789	37802.4	-0.238410	178.575	226.612	1.006059	0.064924	0.064609	229.175	37802.4	0.060377	0.127165	1802.19	96852.1
1086	2.000000	1.008415	7.37568e+06	-54439.1	1055.82	-29743.7	0.000000	0.000000	7.018461	240.352	NaN	0.000000	0.001570	0.001653	28.0831	69.5489	0.001764	39416.7	2.408447	175.463	238.942	1.007995	0.066965	0.066544	240.352	39416.7	0.062391	0.134522	1786.71	98187.4
1086	2.000000	1.010376	7.37568e+06	-54439.1	1055.82	-29743.7	0.000000	0.000000	7.020869	251.247	NaN	0.000000	0.001565	0.001607	28.0837	72.4914	0.001774	40873.2	0.802689	177.059	249.628	1.010075	0.068925	0.068624	251.247	40873.2	0.064315	0.141734	1772.67	99191.7
1086	2.000000	1.012395	7.37568e+06	-54439.1	1055.82	-29743.7	0.000000	0.000000	7.023655	269.888	NaN	0.000000	0.001584	0.001655	28.083	73.8566	0.001730	42695.5	6.400824	170.708	269.544	1.011969	0.070944	0.070518	269.888	42695.5	0.066203	0.148987	1811.48	101060
1086	2.000000	1.014342	7.37568e+06	-54439.1	1055.82	-29743.7	0.000000	0.000000	7.026142	283.016	NaN	0.000000	0.001628	0.001683	28.0831	76.5395	0.001802	42483.4	4.624535	172.679	278.708	1.013985	0.072891	0.072534	283.016	42483.4	0.067894	0.155628	1818.54	98389.3
1086	2.000000	1.016343	7.37568e+06	-54439.1	1055.82	-29743.7	0.000000	0.000000	7.028613	294.43	NaN	0.000000	0.001683	0.001651	28.0831	78.1079	0.001804	43295	0.719532	175.964	291.18	1.016036	0.074892	0.074586	294.43	43295	0.069792	0.163242	1803.64	97902.7
1086	2.000000	1.018306	7.37568e+06	-54439.1	1055.82	-29743.7	0.000000	0.000000	7.031435	315.322	NaN	0.000000	0.001654	0.001670	28.0833	80.1963	0.001875	42775.5	8.937886	168.15	311.892	1.018001	0.076855	0.076550	315.322	42775.5	0.071326	0.169525	1860.04	94918.7
1086	2.000000	1.020373	7.37568e+06	-54439.1	1055.82	-29743.7	0.000000	0.000000	7.033879	324.485	NaN	0.000000	0.001640	0.001692	28.0832	82.9815	0.001894	43817.4	4.007701	172.298	322.82	1.020178	0.078922	0.078728	324.485	43817.4	0.073368	0.178060	1822.34	94871.7
1086	2.000000	1.022360	7.37568e+06	-54439.1	1055.82	-29743.7	0.000000	0.000000	7.036604	342.421	NaN	0.000000	0.001659	0.001681	28.0832	82.4755	0.001749	47156.9	4.206131	171.98	339.768	1.022051	0.080909	0.080600	342.421	47156.9	0.075463	0.187018	1830.95	99626.8
1086	2.000000	1.024230	7.37568e+06	-54439.1	1055.82	-29743.7	0.000000	0.000000	7.038840	351.344	NaN	0.000000	0.001566	0.001676	28.083	86.4987	0.001796	48153.4	5.678248	169.695	342.44	1.023904	0.082779	0.082453	351.344	48153.4	0.077307	0.195074	1801.08	99609.4
1086	2.000000	1.026320	7.37568e+06	-54439.1	1055.82	-29743.7	0.000000	0.000000	7.041609	367.832	NaN	0.000000	0.001563	0.001659	28.0827	88.5477	0.001797	49283.5	6.635568	169.211	363.63	1.026135	0.084870	0.084684	367.832	49283.5	0.079272	0.203836	1804.54	99731.9
1086	2.000000	1.028416	7.37568e+06	-54439.1	1055.82	-29743.7	0.000000	0.000000	7.044713	392.319	NaN	0.000000	0.001569	0.001650	28.0818	90.7911	0.001772	51242.3	7.751909	168.162	394.683	1.027960	0.086966	0.086509	392.319	51242.3	0.081223	0.212716	1844.33	101508
1086	2.000000	1.030395	7.37568e+06	-54439.1	1055.82	-29743.7	0.000000	0.000000	7.047054	401.139	NaN	0.000000	0.001540	0.001636	28.0818	92.6108	0.001756	52746.9	6.037911	169.134	401.647	1.030193	0.088944	0.088743	401.139	52746.9	0.083240	0.222078	1806.3	102263
1086	2.000000	1.032360	7.37568e+06	-54439.1	1055.82	-29743.7	0.000000	0.000000	7.049968	424.215	NaN	0.000000	0.001620	0.001654	28.082	92.8063	0.001816	51101.8	4.909617	171.345	423.603	1.032068	0.090909	0.090618	424.215	51101.8	0.084683	0.228891	1853.35	97587.7
1086	2.000000	1.034343	7.37568e+06	-54439.1	1055.82	-29743.7	0.000000	0.000000	7.052392	434.933	NaN	0.000000	0.001662	0.001659	28.0817	95.9425	0.001751	54799.7	5.559403	169.67	433.335	1.034042	0.092892	0.092592	434.933	54799.7	0.086939	0.239739	1814.19	102254
1086	2.000000	1.036309	7.37568e+06	-54439.1	1055.82	-29743.7	0.000000	0.000000	7.055056	451.906	NaN	0.000000	0.001621	0.001642	28.0816	97.7523	0.001807	54096.4	3.508326	171.756	447.266	1.036135	0.094858	0.094685	451.906	54096.4	0.088593	0.247839	1823.39	99278.8
1086	2.000000	1.038322	7.37568e+06	-54439.1	1055.82	-29743.7	0.000000	0.000000	7.058014	474.86	NaN	0.000000	0.001608	0.001645	28.0815	99.352	0.001745	56933.1	6.679434	168.38	471.292	1.038084	0.096872	0.096633	474.86	56933.1	0.090616	0.257919	1841.12	102423
1086	2.000000	1.040406	7.37568e+06	-54439.1	1055.82	-29743.7	0.000000	0.000000	7.060747	490.645	NaN	0.000000	0.001597	0.001654	28.0817	103.018	0.001828	56341.7	4.098065	170.985	491.74	1.040020	0.098955	0.098569	490.645	56341.7	0.092424	0.267085	1837.04	99604.4
1086	2.000000	1.042194	7.37568e+06	-54439.1	1055.82	-29743.7	0.000000	0.000000	7.062976	501.369	NaN	0.000000	0.001611	0.001685	28.0819	103.007	0.001825	56434.8	3.916723	170.929	491.253	1.042058	0.100743	0.100607	501.369	56434.8	0.094080	0.275614	1819.1	98213.1
1086	2.000000	1.044330	7.37568e+06	-54439.1	1055.82	-29743.7	0.000000	0.000000	7.065617	513.649	NaN	0.000000	0.001586	0.001677	28.082	106.141	0.001860	57070.8	4.549085	170.41	512.097	1.044069	0.102879	0.102618	513.649	57070.8	0.096129	0.286336	1793.87	97442.7
1086	2.000000	1.044735	7.37568e+06	-54439.1	1055.82	-29743.7	0.000000	0.000000	7.066429	523.547	NaN	0.000000	0.001593	0.001700	28.0816	106.015	0.001885	56237.7	3.598785	-8.153010	514.129	1.044430	0.103284	0.102980	523.547	56237.7	0.096302	0.287249	1822.62	95867.5