File: remote_trans/data/nanoindenter/0828-1/data/Data_2025-08-06,11h17m57s/2025-07-22_16-23-58_1_474.txt
2025-07-22, 16:23:58, 1
Index	Phase	Displacement	Time	Pos X	Pos Y	Pos Z	Rot A	Rot B	Piezo Z	Force A	Force B	Gripper	Voltage A	Voltage B	Temperature	Amplitude force	Amplitude pos	Stiffness	Phase shift	Phase excitation	Force A raw	Displacement raw	HMax	HMax raw	Real Force	Real Stiffness	Contact Depth	Area	Hardness	Reduced Mod.
[#]	[#]	[um]	[s]	[um]	[um]	[um]	[m°]	[m°]	[um]	[uN]	[uN]	[V]	[V]	[V]	[°C]	[uN]	[um]	[N/m]	[°]	[°]	[uN]	[um]	[um]	[um]	[uN]	[N/m]	[um]	[um^2]	[MPa]	[MPa]
474	1.000000	0.002372	7.36969e+06	-53389.1	1005.82	-29746.6	0.000000	0.000000	6.002819	-0.052579	NaN	0.000000	0.001543	0.001710	28.082	0.147068	0.000948	155.065	-115.907	-167.41	0.003813	0.001125	-0.950962	-0.952209	-0.052579	155.065	-0.950707	-4.915489E+12	1.069666E-14	NaN
474	1.000000	0.010321	7.36969e+06	-53389.1	1005.82	-29746.6	0.000000	0.000000	6.010765	-0.108558	NaN	0.000000	0.001509	0.001726	28.0817	0.053845	0.000878	61.3558	-29.6536	-160.956	-0.078137	0.008967	-0.943013	-0.944367	-0.108558	61.3558	-0.941686	-3.714337E+12	2.922677E-14	NaN
474	1.000000	0.018308	7.36969e+06	-53389.1	1005.82	-29746.6	0.000000	0.000000	6.018755	-0.026345	NaN	0.000000	0.001531	0.001715	28.0817	0.034936	0.001679	20.8055	-6.780569	-166.463	-0.031474	0.016987	-0.935026	-0.936346	-0.026345	20.8055	-0.934077	-2.932326E+12	8.984269E-15	NaN
474	1.000000	0.026352	7.36969e+06	-53389.1	1005.82	-29746.6	0.000000	0.000000	6.026797	-0.089139	NaN	0.000000	0.001509	0.001711	28.0818	0.034427	0.001877	18.3379	-151.663	-165.871	-0.065750	0.024953	-0.926981	-0.928381	-0.089139	18.3379	-0.923336	-2.100110E+12	4.244504E-14	NaN
474	1.000000	0.034291	7.36969e+06	-53389.1	1005.82	-29746.6	0.000000	0.000000	6.034737	-0.045173	NaN	0.000000	0.001517	0.001706	28.0819	0.055064	0.001933	28.4923	173.497	-165.678	-0.058488	0.032925	-0.919043	-0.920408	-0.045173	28.4923	-0.917854	-1.771054E+12	2.550615E-14	NaN
474	1.000000	0.042306	7.36969e+06	-53389.1	1005.82	-29746.6	0.000000	0.000000	6.042754	-0.010063	NaN	0.000000	0.001558	0.001685	28.0823	0.188342	0.002014	93.5205	-6.557813	-162.487	0.014752	0.040978	-0.911028	-0.912356	-0.010063	93.5205	-0.910947	-1.428754E+12	7.042909E-15	NaN
474	1.000000	0.050293	7.36969e+06	-53389.1	1005.82	-29746.6	0.000000	0.000000	6.050746	0.101871	NaN	0.000000	0.001489	0.001699	28.082	0.056866	0.001961	29.0032	-93.5082	-165.398	0.045002	0.048965	-0.903040	-0.904368	0.101871	29.0032	-0.905675	-1.212652E+12	-8.400656E-14	NaN
474	1.000000	0.058324	7.36969e+06	-53389.1	1005.82	-29746.6	0.000000	0.000000	6.058772	-0.024314	NaN	0.000000	0.001493	0.001713	28.0818	0.092477	0.002049	45.1238	-9.206798	-163.382	0.074574	0.056962	-0.895009	-0.896372	-0.024314	45.1238	-0.894605	-8.593376E+11	2.829432E-14	NaN
474	1.000000	0.066298	7.36969e+06	-53389.1	1005.82	-29746.6	0.000000	0.000000	6.066747	0.013200	NaN	0.000000	0.001506	0.001732	28.0805	0.020930	0.002078	10.07	126.487	-162.953	-0.019095	0.064979	-0.887036	-0.888355	0.013200	10.07	-0.888019	-7.000524E+11	-1.885600E-14	NaN
474	1.000000	0.074306	7.36969e+06	-53389.1	1005.82	-29746.6	0.000000	0.000000	6.074753	-0.044754	NaN	0.000000	0.001522	0.001717	28.0805	0.040855	0.001943	21.0258	-45.7946	-162.62	0.018304	0.073003	-0.879028	-0.880330	-0.044754	21.0258	-0.877431	-5.034662E+11	8.889273E-14	NaN
474	1.000000	0.082293	7.36969e+06	-53389.1	1005.82	-29746.6	0.000000	0.000000	6.082738	-0.093312	NaN	0.000000	0.001533	0.001698	28.0805	0.086690	0.001880	46.1046	-129.96	-168.059	-0.043433	0.081040	-0.871041	-0.872293	-0.093312	46.1046	-0.869523	-3.935402E+11	2.371084E-13	NaN
474	1.000000	0.090316	7.36969e+06	-53389.1	1005.82	-29746.6	0.000000	0.000000	6.090762	-0.040839	NaN	0.000000	0.001496	0.001705	28.0808	0.022299	0.001963	11.3613	80.3191	-163.642	-0.038287	0.088995	-0.863018	-0.864339	-0.040839	11.3613	-0.860322	-2.954498E+11	1.382262E-13	NaN
474	1.000000	0.098314	7.36969e+06	-53389.1	1005.82	-29746.6	0.000000	0.000000	6.098761	-0.041212	NaN	0.000000	0.001500	0.001721	28.0807	0.029361	0.001953	15.0336	-117.029	-165.303	-0.014793	0.096974	-0.855020	-0.856360	-0.041212	15.0336	-0.852964	-2.348937E+11	1.754512E-13	NaN
474	1.000000	0.106324	7.36969e+06	-53389.1	1005.82	-29746.6	0.000000	0.000000	6.106775	0.042552	NaN	0.000000	0.001470	0.001728	28.0805	0.088161	0.001869	47.1663	-26.2839	-162.695	-0.060920	0.104936	-0.847009	-0.848397	0.042552	47.1663	-0.847686	-1.992513E+11	-2.135572E-13	NaN
474	1.000000	0.114334	7.36969e+06	-53389.1	1005.82	-29746.6	0.000000	0.000000	6.114782	-0.010396	NaN	0.000000	0.001491	0.001704	28.0805	0.027550	0.002025	13.6017	112.741	-163.773	0.062368	0.112974	-0.838999	-0.840360	-0.010396	13.6017	-0.838426	-1.492691E+11	6.964701E-14	NaN
474	1.000000	0.122317	7.36969e+06	-53389.1	1005.82	-29746.6	0.000000	0.000000	6.122763	-0.057256	NaN	0.000000	0.001498	0.001709	28.0805	0.001781	0.001998	0.891549	-76.6497	-167.588	-0.032197	0.121018	-0.831017	-0.832315	-0.057256	0.891549	-0.782851	-2.630110E+10	2.176961E-12	NaN
474	1.000000	0.130346	7.36969e+06	-53389.1	1005.82	-29746.6	0.000000	0.000000	6.130793	-0.031571	NaN	0.000000	0.001496	0.001762	28.0806	0.127666	0.002064	61.8465	158.736	-170.58	-0.054848	0.129034	-0.822988	-0.824299	-0.031571	61.8465	-0.822605	-9.110332E+10	3.465368E-13	NaN
474	1.000000	0.138347	7.36969e+06	-53389.1	1005.82	-29746.6	0.000000	0.000000	6.138795	-0.006780	NaN	0.000000	0.001519	0.001744	28.0807	0.056353	0.001976	28.5231	138.711	-163.038	0.023501	0.137031	-0.814987	-0.816302	-0.006780	28.5231	-0.814809	-7.141800E+10	9.493897E-14	NaN
474	1.000000	0.146339	7.36969e+06	-53389.1	1005.82	-29746.6	0.000000	0.000000	6.146786	-0.045392	NaN	0.000000	0.001501	0.001757	28.0806	0.089975	0.002006	44.8462	-13.4175	-164.576	-0.014617	0.145028	-0.806995	-0.808306	-0.045392	44.8462	-0.806236	-5.463800E+10	8.307727E-13	NaN
474	1.000000	0.154331	7.36969e+06	-53389.1	1005.82	-29746.6	0.000000	0.000000	6.154780	0.005899	NaN	0.000000	0.001541	0.001748	28.0806	0.043648	0.001957	22.3075	-69.0031	-164.154	0.026963	0.153041	-0.799003	-0.800293	0.005899	22.3075	-0.799201	-4.385484E+10	-1.345185E-13	NaN
474	1.000000	0.162368	7.36969e+06	-53389.1	1005.82	-29746.6	0.000000	0.000000	6.162814	-0.064912	NaN	0.000000	0.001543	0.001744	28.0804	0.070608	0.002112	33.4383	48.3469	-167.037	-0.053025	0.161002	-0.790965	-0.792331	-0.064912	33.4383	-0.789509	-3.239068E+10	2.004019E-12	NaN
474	1.000000	0.170357	7.36969e+06	-53389.1	1005.82	-29746.6	0.000000	0.000000	6.170804	-0.036241	NaN	0.000000	0.001544	0.001731	28.0805	0.052792	0.001956	26.993	77.7412	-166.595	-0.016052	0.169051	-0.782977	-0.784283	-0.036241	26.993	-0.781970	-2.558587E+10	1.416428E-12	NaN
474	1.000000	0.178331	7.36969e+06	-53389.1	1005.82	-29746.6	0.000000	0.000000	6.178780	0.001483	NaN	0.000000	0.001527	0.001741	28.0803	0.060371	0.002053	29.4099	-96.6136	-169.632	0.016366	0.177072	-0.775003	-0.776262	0.001483	29.4099	-0.775041	-2.059827E+10	-7.199194E-14	NaN
474	1.000000	0.186340	7.36969e+06	-53389.1	1005.82	-29746.6	0.000000	0.000000	6.186787	-0.042191	NaN	0.000000	0.001516	0.001732	28.0806	0.043797	0.001934	22.6452	-111.249	-161.495	-0.072686	0.185054	-0.766994	-0.768280	-0.042191	22.6452	-0.765597	-1.532598E+10	2.752907E-12	NaN
474	1.000000	0.194357	7.36969e+06	-53389.1	1005.82	-29746.6	0.000000	0.000000	6.194806	0.026029	NaN	0.000000	0.001533	0.001728	28.0808	0.079998	0.001886	42.4168	31.5492	-161.141	-0.001581	0.193053	-0.758977	-0.760281	0.026029	42.4168	-0.759437	-1.263717E+10	-2.059750E-12	NaN
474	1.000000	0.202363	7.36969e+06	-53389.1	1005.82	-29746.6	0.000000	0.000000	6.202811	-0.016967	NaN	0.000000	0.001546	0.001738	28.0817	0.008652	0.002098	4.123552	-96.7678	-163.463	-0.025999	0.201063	-0.750971	-0.752271	-0.016967	4.123552	-0.747885	-8.798813E+9	1.928304E-12	NaN
474	1.000000	0.210362	7.36969e+06	-53389.1	1005.82	-29746.6	0.000000	0.000000	6.210809	-0.033737	NaN	0.000000	0.001522	0.001731	28.082	0.063459	0.001987	31.9435	49.9106	-166.801	-0.054539	0.209072	-0.742972	-0.744261	-0.033737	31.9435	-0.742180	-7.357669E+9	4.585324E-12	NaN
474	1.000000	0.218376	7.36969e+06	-53389.1	1005.82	-29746.6	0.000000	0.000000	6.218820	-0.090211	NaN	0.000000	0.001537	0.001755	28.0818	0.094102	0.001855	50.7389	-64.3349	-163.086	-0.071408	0.217061	-0.734958	-0.736273	-0.090211	50.7389	-0.733625	-5.626053E+9	1.603451E-11	NaN
474	1.000000	0.226381	7.36969e+06	-53389.1	1005.82	-29746.6	0.000000	0.000000	6.226825	-0.106002	NaN	0.000000	0.001533	0.001746	28.0818	0.136577	0.001977	69.0809	-115.05	-162.605	-0.045706	0.225096	-0.726953	-0.728238	-0.106002	69.0809	-0.725802	-4.401305E+9	2.408415E-11	NaN
474	1.000000	0.234389	7.36969e+06	-53389.1	1005.82	-29746.6	0.000000	0.000000	6.234836	-0.040864	NaN	0.000000	0.001527	0.001714	28.0821	0.163278	0.001973	82.7756	-173.949	-164.997	-0.060391	0.233072	-0.718945	-0.720262	-0.040864	82.7756	-0.718575	-3.507798E+9	1.164943E-11	NaN
474	1.000000	0.242411	7.36969e+06	-53389.1	1005.82	-29746.6	0.000000	0.000000	6.242859	-0.020437	NaN	0.000000	0.001566	0.001730	28.0818	0.031610	0.002011	15.7152	150.517	-166.387	-0.040057	0.241050	-0.710922	-0.712284	-0.020437	15.7152	-0.709947	-2.675006E+9	7.639966E-12	NaN
474	1.000000	0.250394	7.36969e+06	-53389.1	1005.82	-29746.6	0.000000	0.000000	6.250839	-0.086528	NaN	0.000000	0.001536	0.001703	28.082	0.050844	0.002034	24.9932	133.453	-162.922	-0.035968	0.249119	-0.702940	-0.704214	-0.086528	24.9932	-0.700343	-1.977971E+9	4.374592E-11	NaN
474	1.000000	0.258385	7.36969e+06	-53389.1	1005.82	-29746.6	0.000000	0.000000	6.258832	-0.019279	NaN	0.000000	0.001519	0.001747	28.0817	0.037445	0.002095	17.8727	158.047	-165.213	-0.023047	0.257083	-0.694949	-0.696251	-0.019279	17.8727	-0.694140	-1.627381E+9	1.184684E-11	NaN
474	1.000000	0.266389	7.36969e+06	-53389.1	1005.82	-29746.6	0.000000	0.000000	6.266835	-0.058500	NaN	0.000000	0.001561	0.001720	28.0817	0.158423	0.001980	80.0312	-129.724	-163.423	0.021579	0.265105	-0.686945	-0.688229	-0.058500	80.0312	-0.686396	-1.275452E+9	4.586619E-11	NaN
474	1.000000	0.274404	7.36969e+06	-53389.1	1005.82	-29746.6	0.000000	0.000000	6.274851	-0.041394	NaN	0.000000	0.001583	0.001742	28.0818	0.136716	0.001904	71.8003	104.234	-168.412	-0.050816	0.273116	-0.678930	-0.680218	-0.041394	71.8003	-0.678497	-9.946139E+8	4.161818E-11	NaN
474	1.000000	0.282393	7.36969e+06	-53389.1	1005.82	-29746.6	0.000000	0.000000	6.282840	-0.016383	NaN	0.000000	0.001596	0.001742	28.0819	0.089757	0.001954	45.9426	-95.5102	-164.035	-0.010911	0.281067	-0.670941	-0.672266	-0.016383	45.9426	-0.670674	-7.773409E+8	2.107531E-11	NaN
474	1.000000	0.290417	7.36969e+06	-53389.1	1005.82	-29746.6	0.000000	0.000000	6.290865	-0.031932	NaN	0.000000	0.001556	0.001757	28.0818	0.097306	0.001967	49.4734	168.461	-165.219	-0.003597	0.289052	-0.662916	-0.664282	-0.031932	49.4734	-0.662432	-5.994911E+8	5.326544E-11	NaN
474	1.000000	0.298411	7.36969e+06	-53389.1	1005.82	-29746.6	0.000000	0.000000	6.298859	-0.011419	NaN	0.000000	0.001590	0.001724	28.0815	0.079979	0.002104	38.0079	-16.0053	-165.979	-0.111828	0.297120	-0.654923	-0.656213	-0.011419	38.0079	-0.654697	-4.696990E+8	2.431121E-11	NaN
474	1.000000	0.306395	7.36969e+06	-53389.1	1005.82	-29746.6	0.000000	0.000000	6.306840	-0.066290	NaN	0.000000	0.001589	0.001698	28.0819	0.036408	0.001967	18.5122	72.133	-168.901	-0.137810	0.305117	-0.646939	-0.648216	-0.066290	18.5122	-0.644254	-3.377845E+8	1.962480E-10	NaN
474	1.000000	0.314385	7.36969e+06	-53389.1	1005.82	-29746.6	0.000000	0.000000	6.314832	-0.037024	NaN	0.000000	0.001613	0.001729	28.0815	0.060006	0.001919	31.2763	163.789	-165.383	-0.063617	0.313124	-0.638948	-0.640209	-0.037024	31.2763	-0.638061	-2.777649E+8	1.332914E-10	NaN
474	1.000000	0.322412	7.36969e+06	-53389.1	1005.82	-29746.6	0.000000	0.000000	6.322857	-0.081497	NaN	0.000000	0.001608	0.001713	28.0818	0.043952	0.002008	21.8852	129.382	-165.086	-0.110679	0.321102	-0.630922	-0.632232	-0.081497	21.8852	-0.628129	-2.029226E+8	4.016168E-10	NaN
474	1.000000	0.330386	7.36969e+06	-53389.1	1005.82	-29746.6	0.000000	0.000000	6.330831	-0.089727	NaN	0.000000	0.001536	0.001712	28.0816	0.017483	0.001926	9.078426	27.272	-161.124	-0.063916	0.329089	-0.622948	-0.624244	-0.089727	9.078426	-0.615535	-1.362222E+8	6.586804E-10	NaN
474	1.000000	0.338431	7.36969e+06	-53389.1	1005.82	-29746.6	0.000000	0.000000	6.338877	-0.063914	NaN	0.000000	0.001526	0.001689	28.0804	0.053026	0.001970	26.9199	-166.837	-162.729	-0.004752	0.337121	-0.614903	-0.616213	-0.063914	26.9199	-0.613122	-1.262022E+8	5.064423E-10	NaN
474	1.000000	0.346420	7.36969e+06	-53389.1	1005.82	-29746.6	0.000000	0.000000	6.346867	-0.034024	NaN	0.000000	0.001530	0.001711	28.0805	0.058387	0.002032	28.7334	-103.917	-166.941	-0.000314	0.345116	-0.606914	-0.608218	-0.034024	28.7334	-0.606025	-1.007906E+8	3.375715E-10	NaN
474	1.000000	0.354449	7.36969e+06	-53389.1	1005.82	-29746.6	0.000000	0.000000	6.354896	-0.021583	NaN	0.000000	0.001563	0.001677	28.0803	0.107063	0.002173	49.2705	166.307	-162.941	-0.077432	0.353077	-0.598885	-0.600256	-0.021583	49.2705	-0.598557	-7.953909E+7	2.713510E-10	NaN
474	1.000000	0.362442	7.36969e+06	-53389.1	1005.82	-29746.6	0.000000	0.000000	6.362888	-0.059993	NaN	0.000000	0.001550	0.001698	28.0809	0.094936	0.002086	45.5055	-147.714	-164.7	0.004320	0.361129	-0.590891	-0.592205	-0.059993	45.5055	-0.589903	-6.043985E+7	9.926105E-10	NaN
474	1.000000	0.370449	7.36969e+06	-53389.1	1005.82	-29746.6	0.000000	0.000000	6.370894	-0.075238	NaN	0.000000	0.001515	0.001783	28.0804	0.018907	0.001999	9.457763	-38.7452	-166.245	-0.107550	0.369152	-0.582885	-0.584182	-0.075238	9.457763	-0.576919	-4.001216E+7	1.880367E-9	NaN
474	1.000000	0.378441	7.36969e+06	-53389.1	1005.82	-29746.6	0.000000	0.000000	6.378888	-0.037737	NaN	0.000000	0.001503	0.001769	28.0804	0.006164	0.002110	2.921326	-158.345	-166.516	-0.045463	0.377109	-0.574892	-0.576225	-0.037737	2.921326	-0.565204	-2.756427E+7	1.369060E-9	NaN
474	1.000000	0.386452	7.36969e+06	-53389.1	1005.82	-29746.6	0.000000	0.000000	6.386901	-0.001293	NaN	0.000000	0.001555	0.001740	28.0806	0.021877	0.001952	11.2075	-122.936	-165.902	-0.016947	0.385139	-0.566882	-0.568195	-0.001293	11.2075	-0.566795	-2.899610E+7	4.459489E-11	NaN
474	1.000000	0.394450	7.36969e+06	-53389.1	1005.82	-29746.6	0.000000	0.000000	6.394899	0.002968	NaN	0.000000	0.001560	0.001748	28.0803	0.067597	0.001958	34.5289	-1.631120	-165.429	-0.010133	0.393076	-0.558884	-0.560258	0.002968	34.5289	-0.558948	-2.258536E+7	-1.313946E-10	NaN
474	1.000000	0.402446	7.36969e+06	-53389.1	1005.82	-29746.6	0.000000	0.000000	6.402895	-0.000816	NaN	0.000000	0.001580	0.001711	28.0805	0.080784	0.002173	37.1787	-105.246	-164.29	-0.064955	0.401146	-0.550888	-0.552188	-0.000816	37.1787	-0.550871	-1.745914E+7	4.671649E-11	NaN
474	1.000000	0.410426	7.36969e+06	-53389.1	1005.82	-29746.6	0.000000	0.000000	6.410872	-0.069494	NaN	0.000000	0.001567	0.001771	28.0805	0.084526	0.002050	41.2373	-44.4319	-164.938	-0.108997	0.409100	-0.542907	-0.544233	-0.069494	41.2373	-0.541643	-1.300614E+7	5.343140E-9	NaN
474	1.000000	0.418458	7.36969e+06	-53389.1	1005.82	-29746.6	0.000000	0.000000	6.418905	-0.050200	NaN	0.000000	0.001547	0.001754	28.0805	0.041766	0.002049	20.3857	-103.83	-163.861	-0.064949	0.417163	-0.534875	-0.536171	-0.050200	20.3857	-0.533029	-9.87703e+06	5.082483E-9	NaN
474	1.000000	0.426436	7.36969e+06	-53389.1	1005.82	-29746.6	0.000000	0.000000	6.426879	-0.119735	NaN	0.000000	0.001543	0.001734	28.0805	0.010923	0.001918	5.695152	-89.432	-163.605	-0.055118	0.425102	-0.526898	-0.528232	-0.119735	5.695152	-0.511130	-4.89956e+06	2.443791E-8	NaN
474	1.000000	0.434480	7.36969e+06	-53389.1	1005.82	-29746.6	0.000000	0.000000	6.434926	-0.053461	NaN	0.000000	0.001542	0.001713	28.0804	0.102504	0.001959	52.3319	-75.6471	-168.464	-0.052409	0.433119	-0.518854	-0.520214	-0.053461	52.3319	-0.518088	-6.12352e+06	8.730419E-9	NaN
474	1.000000	0.442436	7.36969e+06	-53389.1	1005.82	-29746.6	0.000000	0.000000	6.442883	-0.040536	NaN	0.000000	0.001515	0.001713	28.0805	0.067683	0.001952	34.6696	122.692	-164.906	-0.099059	0.441132	-0.510898	-0.512202	-0.040536	34.6696	-0.510021	-4.72836e+06	8.572985E-9	NaN
474	1.000000	0.450461	7.36969e+06	-53389.1	1005.82	-29746.6	0.000000	0.000000	6.450908	-0.029998	NaN	0.000000	0.001530	0.001699	28.0804	0.016406	0.001994	8.225669	82.7637	-165.105	-0.047055	0.449206	-0.502873	-0.504128	-0.029998	8.225669	-0.500138	-3.44304e+06	8.712623E-9	NaN
474	1.000000	0.458465	7.36969e+06	-53389.1	1005.82	-29746.6	0.000000	0.000000	6.458913	-0.013567	NaN	0.000000	0.001558	0.001720	28.0808	0.149464	0.001948	76.7123	-79.7744	-163.827	0.019920	0.457201	-0.494869	-0.496133	-0.013567	76.7123	-0.494736	-2.89435e+06	4.687260E-9	NaN
474	1.000000	0.466481	7.36969e+06	-53389.1	1005.82	-29746.6	0.000000	0.000000	6.466929	0.002778	NaN	0.000000	0.001527	0.001758	28.0804	0.023452	0.002115	11.0873	-141.688	-163.736	0.040395	0.465159	-0.486853	-0.488175	0.002778	11.0873	-0.487041	-2.2596e+06	-1.229379E-9	NaN
474	1.000000	0.474464	7.36969e+06	-53389.1	1005.82	-29746.6	0.000000	0.000000	6.474911	-0.038353	NaN	0.000000	0.001510	0.001740	28.082	0.016978	0.002060	8.241421	-111.355	-166.967	-0.008409	0.473165	-0.478870	-0.480169	-0.038353	8.241421	-0.475379	-1.55173e+06	2.471614E-8	NaN
474	1.000000	0.482466	7.36969e+06	-53389.1	1005.82	-29746.6	0.000000	0.000000	6.482914	-0.013405	NaN	0.000000	0.001576	0.001751	28.0818	0.070005	0.001975	35.451	-37.2372	-167.97	-0.014551	0.481189	-0.470868	-0.472145	-0.013405	35.451	-0.470584	-1.32923e+06	1.008456E-8	NaN
474	1.000000	0.490489	7.36969e+06	-53389.1	1005.82	-29746.6	0.000000	0.000000	6.490935	-0.059749	NaN	0.000000	0.001565	0.001752	28.0818	0.074495	0.002007	37.1262	100.615	-161.862	-0.107931	0.489164	-0.462845	-0.464170	-0.059749	37.1262	-0.461638	-995489	6.001951E-8	NaN
474	1.000000	0.498505	7.36969e+06	-53389.1	1005.82	-29746.6	0.000000	0.000000	6.498952	-0.032692	NaN	0.000000	0.001608	0.001741	28.082	0.121072	0.001979	61.1642	56.4533	-166.908	-0.044421	0.497188	-0.454829	-0.456145	-0.032692	61.1642	-0.454428	-788264	4.147349E-8	NaN
474	1.000000	0.506497	7.36969e+06	-53389.1	1005.82	-29746.6	0.000000	0.000000	6.506944	-0.031747	NaN	0.000000	0.001601	0.001749	28.0818	0.045056	0.002053	21.9492	98.3033	-164.905	0.025099	0.505182	-0.446837	-0.448152	-0.031747	21.9492	-0.445752	-594972	5.335831E-8	NaN
474	1.000000	0.514526	7.36969e+06	-53389.1	1005.82	-29746.6	0.000000	0.000000	6.514973	-0.036278	NaN	0.000000	0.001577	0.001734	28.082	0.081179	0.002021	40.1589	-87.2436	-163.173	0.012723	0.513160	-0.438808	-0.440174	-0.036278	40.1589	-0.438131	-464488	7.810387E-8	NaN
474	1.000000	0.522488	7.36969e+06	-53389.1	1005.82	-29746.6	0.000000	0.000000	6.522936	-0.006589	NaN	0.000000	0.001598	0.001758	28.0819	0.060285	0.002042	29.5228	-15.7107	-162.574	0.069881	0.521194	-0.430846	-0.432140	-0.006589	29.5228	-0.430679	-364468	1.807729E-8	NaN
474	1.000000	0.530515	7.36969e+06	-53389.1	1005.82	-29746.6	0.000000	0.000000	6.530961	-0.064342	NaN	0.000000	0.001613	0.001768	28.0817	0.042789	0.002156	19.8452	57.3938	-165.078	-0.030101	0.529167	-0.422819	-0.424167	-0.064342	19.8452	-0.420387	-260559	2.469396E-7	NaN
474	1.000000	0.538498	7.36969e+06	-53389.1	1005.82	-29746.6	0.000000	0.000000	6.538941	-0.138690	NaN	0.000000	0.001599	0.001761	28.0817	0.042227	0.001993	21.1929	-178.218	-165.477	-0.160333	0.537170	-0.414836	-0.416164	-0.138690	21.1929	-0.409928	-185085	7.493339E-7	NaN
474	1.000000	0.546484	7.36969e+06	-53389.1	1005.82	-29746.6	0.000000	0.000000	6.546931	-0.053116	NaN	0.000000	0.001598	0.001796	28.0818	0.085008	0.002083	40.8178	18.4318	-165.306	-0.116271	0.545238	-0.406849	-0.408096	-0.053116	40.8178	-0.405873	-162063	3.277506E-7	NaN
474	1.000000	0.554487	7.36969e+06	-53389.1	1005.82	-29746.6	0.000000	0.000000	6.554935	-0.003216	NaN	0.000000	0.001602	0.001757	28.0822	0.020517	0.002041	10.0502	-134.677	-164.087	0.043344	0.553178	-0.398847	-0.400156	-0.003216	10.0502	-0.398607	-127680	2.519043E-8	NaN
474	1.000000	0.562525	7.36969e+06	-53389.1	1005.82	-29746.6	0.000000	0.000000	6.562973	-0.024677	NaN	0.000000	0.001613	0.001770	28.0819	0.091979	0.002045	44.9813	58.8953	-163.761	-0.103085	0.561208	-0.390808	-0.392126	-0.024677	44.9813	-0.390397	-97464.3	2.531891E-7	NaN
474	1.000000	0.570526	7.36969e+06	-53389.1	1005.82	-29746.6	0.000000	0.000000	6.570974	-0.035517	NaN	0.000000	0.001607	0.001794	28.0817	0.063196	0.002039	30.9872	108.983	-166.089	0.001665	0.569199	-0.382807	-0.384135	-0.035517	30.9872	-0.381948	-73761.8	4.815137E-7	NaN
474	1.000000	0.578511	7.36969e+06	-53389.1	1005.82	-29746.6	0.000000	0.000000	6.578958	-0.024101	NaN	0.000000	0.001622	0.001781	28.0818	0.033373	0.001948	17.1317	100.535	-165.55	-0.031944	0.577238	-0.374823	-0.376096	-0.024101	17.1317	-0.373768	-56280.4	4.282267E-7	NaN
474	1.000000	0.586540	7.36969e+06	-53389.1	1005.82	-29746.6	0.000000	0.000000	6.586987	-0.053082	NaN	0.000000	0.001624	0.001801	28.0818	0.053720	0.002033	26.4294	-121.9	-166.517	-0.031223	0.585210	-0.366794	-0.368124	-0.053082	26.4294	-0.365287	-42481.3	1.249533E-6	NaN
474	1.000000	0.594522	7.36969e+06	-53389.1	1005.82	-29746.6	0.000000	0.000000	6.594972	0.028951	NaN	0.000000	0.001609	0.001765	28.082	0.076022	0.002001	37.9848	165.459	-163.077	0.004412	0.593211	-0.358811	-0.360123	0.028951	37.9848	-0.359383	-34908.2	-8.293407E-7	NaN
474	1.000000	0.602552	7.36969e+06	-53389.1	1005.82	-29746.6	0.000000	0.000000	6.603001	0.006162	NaN	0.000000	0.001614	0.001790	28.0818	0.076609	0.002139	35.812	-23.2251	-162.557	0.064398	0.601231	-0.350781	-0.352103	0.006162	35.812	-0.350911	-26315.7	-2.341571E-7	NaN
474	1.000000	0.610539	7.36969e+06	-53389.1	1005.82	-29746.6	0.000000	0.000000	6.610985	-0.050375	NaN	0.000000	0.001631	0.001779	28.0808	0.076905	0.002082	36.9461	-144.444	-166.163	-0.040295	0.609214	-0.342795	-0.344120	-0.050375	36.9461	-0.341772	-19381.1	2.599195E-6	NaN
474	1.000000	0.618527	7.36969e+06	-53389.1	1005.82	-29746.6	0.000000	0.000000	6.618976	0.018177	NaN	0.000000	0.001633	0.001800	28.0806	0.086302	0.002009	42.9589	-177.979	-166.785	-0.006908	0.617216	-0.334807	-0.336118	0.018177	42.9589	-0.335125	-15502.7	-1.172536E-6	NaN
474	1.000000	0.626548	7.36969e+06	-53389.1	1005.82	-29746.6	0.000000	0.000000	6.626998	0.021741	NaN	0.000000	0.001601	0.001801	28.0806	0.042312	0.002008	21.0694	-88.1621	-164.218	-0.001957	0.625229	-0.326785	-0.328104	0.021741	21.0694	-0.327559	-12014	-1.809653E-6	NaN
474	1.000000	0.634568	7.36969e+06	-53389.1	1005.82	-29746.6	0.000000	0.000000	6.635013	-0.067943	NaN	0.000000	0.001617	0.001785	28.0807	0.128734	0.002042	63.0457	117.483	-165.534	-0.103282	0.633294	-0.318766	-0.320040	-0.067943	63.0457	-0.317958	-8680.9	7.826747E-6	NaN
474	1.000000	0.642587	7.36969e+06	-53389.1	1005.82	-29746.6	0.000000	0.000000	6.643034	-0.022402	NaN	0.000000	0.001627	0.001801	28.0805	0.020242	0.002005	10.0979	163.479	-165.289	-0.030874	0.641262	-0.310747	-0.312072	-0.022402	10.0979	-0.309083	-6419.23	3.489770E-6	NaN
474	1.000000	0.650539	7.36969e+06	-53389.1	1005.82	-29746.6	0.000000	0.000000	6.650988	0.009125	NaN	0.000000	0.001599	0.001799	28.0808	0.160484	0.001927	83.266	-170.53	-166.094	-0.017186	0.649224	-0.302795	-0.304110	0.009125	83.266	-0.302877	-5193.15	-1.757188E-6	NaN
474	1.000000	0.658553	7.36969e+06	-53389.1	1005.82	-29746.6	0.000000	0.000000	6.659000	-0.039314	NaN	0.000000	0.001644	0.001797	28.0804	0.077779	0.001997	38.9395	-56.4055	-163.327	-0.094294	0.657227	-0.294781	-0.296107	-0.039314	38.9395	-0.294024	-3832.73	1.025736E-5	NaN
474	1.000000	0.666587	7.36969e+06	-53389.1	1005.82	-29746.6	0.000000	0.000000	6.667034	-0.043987	NaN	0.000000	0.001660	0.001768	28.0808	0.066678	0.001889	35.2985	63.072	-168.928	0.028268	0.665253	-0.286747	-0.288081	-0.043987	35.2985	-0.285812	-2887.17	1.523542E-5	NaN
474	1.000000	0.674585	7.36969e+06	-53389.1	1005.82	-29746.6	0.000000	0.000000	6.675031	-0.071890	NaN	0.000000	0.001602	0.001786	28.0804	0.071202	0.001878	37.921	-137.636	-165.407	0.044993	0.673244	-0.278748	-0.280090	-0.071890	37.921	-0.277327	-2150.79	3.342487E-5	NaN
474	1.000000	0.682568	7.36969e+06	-53389.1	1005.82	-29746.6	0.000000	0.000000	6.683016	0.007730	NaN	0.000000	0.001623	0.001775	28.0804	0.041425	0.001991	20.81	178.049	-165.054	-0.007494	0.681271	-0.270766	-0.272063	0.007730	20.81	-0.271045	-1727.51	-4.474593E-6	NaN
474	1.000000	0.690543	7.36969e+06	-53389.1	1005.82	-29746.6	0.000000	0.000000	6.690990	-0.023361	NaN	0.000000	0.001638	0.001777	28.0805	0.057903	0.001914	30.2556	-45.6475	-165.581	0.027440	0.689267	-0.262791	-0.264067	-0.023361	30.2556	-0.262212	-1267.04	1.843742E-5	NaN
474	1.000000	0.698554	7.36969e+06	-53389.1	1005.82	-29746.6	0.000000	0.000000	6.698999	-0.083264	NaN	0.000000	0.001599	0.001756	28.0803	0.042535	0.001927	22.0718	152.667	-165.679	-0.061105	0.697241	-0.254780	-0.256093	-0.083264	22.0718	-0.251951	-881.27	9.448226E-5	NaN
474	1.000000	0.706561	7.36969e+06	-53389.1	1005.82	-29746.6	0.000000	0.000000	6.707008	-0.021033	NaN	0.000000	0.001634	0.001760	28.0807	0.090021	0.001958	45.9711	-37.0413	-167.072	0.021970	0.705227	-0.246773	-0.248107	-0.021033	45.9711	-0.246430	-723.87	2.905695E-5	NaN
474	1.000000	0.714552	7.36969e+06	-53389.1	1005.82	-29746.6	0.000000	0.000000	6.715001	0.016998	NaN	0.000000	0.001512	0.001754	28.0805	0.037077	0.002061	17.9883	-15.8683	-165.926	0.018117	0.713280	-0.238782	-0.240054	0.016998	17.9883	-0.239491	-564.41	-3.011567E-5	NaN
474	1.000000	0.722540	7.36969e+06	-53389.1	1005.82	-29746.6	0.000000	0.000000	6.722988	0.002820	NaN	0.000000	0.001542	0.001770	28.0806	0.160632	0.002084	77.0939	27.4873	-165.982	-0.008000	0.721257	-0.230794	-0.232077	0.002820	77.0939	-0.230822	-412.557	-6.834992E-6	NaN
474	1.000000	0.730556	7.36969e+06	-53389.1	1005.82	-29746.6	0.000000	0.000000	6.731002	-0.053737	NaN	0.000000	0.001567	0.001781	28.0805	0.141379	0.001979	71.4402	-70.1204	-164.99	-0.055945	0.729314	-0.222778	-0.224020	-0.053737	71.4402	-0.222214	-301.303	0.000178	NaN
474	1.000000	0.738550	7.36969e+06	-53389.1	1005.82	-29746.6	0.000000	0.000000	6.738998	-0.006937	NaN	0.000000	0.001537	0.001748	28.0804	0.028537	0.002119	13.4692	-126.396	-162.544	0.019669	0.737332	-0.214784	-0.216001	-0.006937	13.4692	-0.214397	-225.849	3.071384E-5	NaN
474	1.000000	0.746560	7.36969e+06	-53389.1	1005.82	-29746.6	0.000000	0.000000	6.747010	0.028591	NaN	0.000000	0.001548	0.001762	28.0818	0.053877	0.001834	29.3727	12.9274	-162.516	-0.092502	0.745286	-0.206773	-0.208047	0.028591	29.3727	-0.207503	-174.71	-0.000164	NaN
474	1.000000	0.754576	7.36969e+06	-53389.1	1005.82	-29746.6	0.000000	0.000000	6.755026	0.024430	NaN	0.000000	0.001559	0.001712	28.0817	0.053446	0.001998	26.7519	42.3366	-162.179	-0.011594	0.753315	-0.198758	-0.200019	0.024430	26.7519	-0.199442	-128.983	-0.000189	NaN
474	1.000000	0.762616	7.36969e+06	-53389.1	1005.82	-29746.6	0.000000	0.000000	6.763063	-0.018455	NaN	0.000000	0.001549	0.001744	28.082	0.040900	0.001867	21.9038	-78.3855	-169.859	-0.073029	0.761299	-0.190718	-0.192035	-0.018455	21.9038	-0.190086	-90.2545	0.000204	NaN
474	1.000000	0.770603	7.36969e+06	-53389.1	1005.82	-29746.6	0.000000	0.000000	6.771052	0.022893	NaN	0.000000	0.001535	0.001783	28.0817	0.110256	0.001966	56.0733	96.2575	-164.227	0.103064	0.769297	-0.182731	-0.184037	0.022893	56.0733	-0.183037	-68.7049	-0.000333	NaN
474	1.000000	0.778612	7.36969e+06	-53389.1	1005.82	-29746.6	0.000000	0.000000	6.779058	-0.058049	NaN	0.000000	0.001538	0.001760	28.0818	0.096413	0.001972	48.8979	-175.701	-163.392	0.016341	0.777270	-0.174721	-0.176064	-0.058049	48.8979	-0.173831	-47.8487	0.001213	NaN
474	1.000000	0.786635	7.36969e+06	-53389.1	1005.82	-29746.6	0.000000	0.000000	6.787079	-0.099604	NaN	0.000000	0.001559	0.001769	28.0818	0.102321	0.002138	47.8536	-122.979	-163.366	-0.080098	0.785322	-0.166699	-0.168011	-0.099604	47.8536	-0.165138	-33.7852	0.002948	NaN
474	1.000000	0.794608	7.36969e+06	-53389.1	1005.82	-29746.6	0.000000	0.000000	6.795055	-0.028247	NaN	0.000000	0.001575	0.001775	28.0816	0.061531	0.001870	32.907	98.9498	-163.606	-0.031697	0.793269	-0.158726	-0.160065	-0.028247	32.907	-0.158082	-25.3413	0.001115	NaN
474	1.000000	0.802626	7.36969e+06	-53389.1	1005.82	-29746.6	0.000000	0.000000	6.803072	-0.037824	NaN	0.000000	0.001509	0.001743	28.0818	0.092198	0.002025	45.5364	-17.6008	-165.338	-0.035726	0.801291	-0.150708	-0.152042	-0.037824	45.5364	-0.150085	-18.1786	0.002081	NaN
474	1.000000	0.810621	7.36969e+06	-53389.1	1005.82	-29746.6	0.000000	0.000000	6.811072	0.057398	NaN	0.000000	0.001555	0.001803	28.0815	0.109598	0.001989	55.0931	-152.497	-167.742	0.087662	0.809307	-0.142713	-0.144026	0.057398	55.0931	-0.143494	-13.7483	-0.004175	NaN
474	1.000000	0.818651	7.36969e+06	-53389.1	1005.82	-29746.6	0.000000	0.000000	6.819102	0.056510	NaN	0.000000	0.001550	0.001748	28.0818	0.113621	0.002005	56.6668	176.569	-166.702	0.040494	0.817314	-0.134683	-0.136020	0.056510	56.6668	-0.135431	-9.694154	-0.005829	NaN
474	1.000000	0.826646	7.36969e+06	-53389.1	1005.82	-29746.6	0.000000	0.000000	6.827093	-0.037558	NaN	0.000000	0.001534	0.001750	28.0816	0.064929	0.002042	31.7967	70.564	-164.854	-0.101658	0.825334	-0.126688	-0.128000	-0.037558	31.7967	-0.125802	-6.307339	0.005955	NaN
474	1.000000	0.834604	7.3697e+06	-53389.1	1005.82	-29746.6	0.000000	0.000000	6.835050	-0.065927	NaN	0.000000	0.001559	0.001744	28.0814	0.068896	0.001986	34.6874	-135.704	-161.555	-0.069723	0.833298	-0.118729	-0.120036	-0.065927	34.6874	-0.117304	-4.259535	0.015478	NaN
474	1.000000	0.842633	7.3697e+06	-53389.1	1005.82	-29746.6	0.000000	0.000000	6.843080	-0.019251	NaN	0.000000	0.001545	0.001773	28.0818	0.017872	0.002050	8.718079	-62.8719	-164.262	-0.058810	0.841301	-0.110701	-0.112033	-0.019251	8.718079	-0.109045	-2.868748	0.006711	NaN
474	1.000000	0.850683	7.3697e+06	-53389.1	1005.82	-29746.6	0.000000	0.000000	6.851132	0.005695	NaN	0.000000	0.001597	0.001792	28.0816	0.047055	0.002026	23.2242	66.5191	-163.644	0.009060	0.849305	-0.102650	-0.104028	0.005695	23.2242	-0.102834	-2.109269	-0.002700	NaN
474	1.000000	0.858646	7.3697e+06	-53389.1	1005.82	-29746.6	0.000000	0.000000	6.859092	-0.052768	NaN	0.000000	0.001568	0.001780	28.0819	0.099890	0.002063	48.4308	-157.292	-162.972	-0.032311	0.857319	-0.094688	-0.096014	-0.052768	48.4308	-0.093871	-1.329233	0.039698	NaN
474	1.000000	0.866641	7.3697e+06	-53389.1	1005.82	-29746.6	0.000000	0.000000	6.867090	0.009302	NaN	0.000000	0.001571	0.001782	28.0817	0.105709	0.002032	52.0332	121.45	-162.989	0.003186	0.865370	-0.086693	-0.087964	0.009302	52.0332	-0.086827	-0.909176	-0.010231	NaN
474	1.000000	0.874636	7.3697e+06	-53389.1	1005.82	-29746.6	0.000000	0.000000	6.875083	-0.033949	NaN	0.000000	0.001664	0.001809	28.0819	0.057733	0.002038	28.3332	153.562	-163.069	-0.072418	0.873410	-0.078697	-0.079924	-0.033949	28.3332	-0.077799	-0.544798	0.062314	NaN
474	1.000000	0.882627	7.3697e+06	-53389.1	1005.82	-29746.6	0.000000	0.000000	6.883076	0.004863	NaN	0.000000	0.001634	0.001792	28.0805	0.105960	0.001846	57.3968	41.962	-163.687	-0.039726	0.881289	-0.070707	-0.072045	0.004863	57.3968	-0.070771	-0.357665	-0.013595	NaN
474	1.000000	0.890670	7.3697e+06	-53389.1	1005.82	-29746.6	0.000000	0.000000	6.891116	-0.073081	NaN	0.000000	0.001635	0.001795	28.0806	0.100916	0.001880	53.6917	123.346	-166.924	-0.072788	0.889351	-0.062663	-0.063982	-0.073081	53.6917	-0.061642	-0.200615	0.364283	NaN
474	1.000000	0.898667	7.3697e+06	-53389.1	1005.82	-29746.6	0.000000	0.000000	6.899116	0.011562	NaN	0.000000	0.001637	0.001774	28.0805	0.050561	0.002023	24.9941	76.4341	-167.751	-0.045888	0.897305	-0.054667	-0.056029	0.011562	24.9941	-0.055014	-0.128900	-0.089694	NaN
474	1.000000	0.906625	7.3697e+06	-53389.1	1005.82	-29746.6	0.000000	0.000000	6.907072	-0.030160	NaN	0.000000	0.001619	0.001802	28.0803	0.074801	0.001985	37.6828	165.003	-163.713	-0.032650	0.905356	-0.046709	-0.047977	-0.030160	37.6828	-0.046109	-0.069484	0.434057	NaN
474	1.000000	0.914696	7.3697e+06	-53389.1	1005.82	-29746.6	0.000000	0.000000	6.915141	-0.091571	NaN	0.000000	0.001615	0.001768	28.0806	0.109597	0.002010	54.5391	171.769	-166.457	-0.038824	0.913341	-0.038638	-0.039992	-0.091571	54.5391	-0.037378	-0.037687	2.429752	NaN
474	1.000000	0.922678	7.3697e+06	-53389.1	1005.82	-29746.6	0.000000	0.000000	6.923125	-0.022403	NaN	0.000000	0.001633	0.001774	28.0804	0.088229	0.001906	46.2852	86.4762	-162.014	0.004591	0.921377	-0.030656	-0.031957	-0.022403	46.2852	-0.030293	-0.023451	0.955329	NaN
474	1.000000	0.930684	7.3697e+06	-53389.1	1005.82	-29746.6	0.000000	0.000000	6.931133	0.015941	NaN	0.000000	0.001630	0.001801	28.0804	0.037999	0.002011	18.8933	36.1127	-166.478	-0.014732	0.929382	-0.022650	-0.023952	0.015941	18.8933	-0.023283	-0.015229	-1.046769	NaN
474	1.000000	0.938662	7.3697e+06	-53389.1	1005.82	-29746.6	0.000000	0.000000	6.939108	-0.042631	NaN	0.000000	0.001601	0.001808	28.0807	0.087873	0.001879	46.7654	39.6252	-165.784	-0.033653	0.937329	-0.014672	-0.016005	-0.042631	46.7654	-0.013988	-0.008676	4.913391	NaN
474	1.000000	0.946718	7.3697e+06	-53389.1	1005.82	-29746.6	0.000000	0.000000	6.947168	0.035696	NaN	0.000000	0.001598	0.001791	28.0805	0.083117	0.001978	42.0157	22.5839	-166.545	-0.094609	0.945400	-0.006616	-0.007934	0.035696	42.0157	-0.007253	-0.004791	-7.450390	NaN
474	1.000000	0.954647	7.3697e+06	-53389.1	1005.82	-29746.6	0.000000	0.000000	6.955308	5.155503	NaN	0.000000	0.001592	0.001773	28.0805	6.256947	0.001754	3567.3	12.0518	-168.083	4.269401	0.953308	0.001313	-2.597326E-5	5.155503	3567.3	0.000229	0.000172	29955.3	248436
474	2.000000	0.959300	7.3697e+06	-53389.1	1005.82	-29746.6	0.000000	0.000000	6.960137	9.445552	NaN	0.000000	0.001606	0.001805	28.0805	11.1526	0.001733	6433.72	6.560168	-173.681	8.935027	0.958911	0.005966	0.005577	9.445552	6433.72	0.004865	0.004011	2355.14	92817.5
474	2.000000	0.961238	7.3697e+06	-53389.1	1005.82	-29746.6	0.000000	0.000000	6.962235	13.3481	NaN	0.000000	0.001517	0.001790	28.0807	13.3536	0.001658	8056.31	5.373622	-173.719	12.338	0.960958	0.007904	0.007624	13.3481	8056.31	0.006661	0.005701	2341.26	97482.2
474	2.000000	0.963201	7.3697e+06	-53389.1	1005.82	-29746.6	0.000000	0.000000	6.964399	18.2372	NaN	0.000000	0.001500	0.001768	28.0811	16.1079	0.001608	10017.4	6.455210	-178.241	17.1559	0.962920	0.009867	0.009586	18.2372	10017.4	0.008501	0.007563	2411.35	105239
474	2.000000	0.965248	7.3697e+06	-53389.1	1005.82	-29746.6	0.000000	0.000000	6.966580	21.4648	NaN	0.000000	0.001501	0.001797	28.0805	18.099	0.001761	10275.9	8.274357	-176.154	22.1407	0.964931	0.011914	0.011597	21.4648	10275.9	0.010348	0.009570	2242.82	95968.1
474	2.000000	0.967181	7.3697e+06	-53389.1	1005.82	-29746.6	0.000000	0.000000	6.968748	27.1974	NaN	0.000000	0.001576	0.001802	28.0806	20.555	0.001703	12067.3	4.294519	-175.934	25.8152	0.966850	0.013847	0.013517	27.1974	12067.3	0.012156	0.011678	2328.95	102023
474	2.000000	0.969185	7.3697e+06	-53389.1	1005.82	-29746.6	0.000000	0.000000	6.970870	30.0783	NaN	0.000000	0.001591	0.001806	28.0808	23.399	0.001870	12509.8	5.882574	-178.286	28.9761	0.968960	0.015851	0.015626	30.0783	12509.8	0.014048	0.014036	2142.89	96471.5
474	2.000000	0.971175	7.3697e+06	-53389.1	1005.82	-29746.6	0.000000	0.000000	6.973015	33.8441	NaN	0.000000	0.001562	0.001785	28.0815	25.1659	0.001945	12939.7	5.109668	-177.644	32.2992	0.970877	0.017841	0.017543	33.8441	12939.7	0.015879	0.016476	2054.16	92102.7
474	2.000000	0.973123	7.3697e+06	-53389.1	1005.82	-29746.6	0.000000	0.000000	6.975133	37.9581	NaN	0.000000	0.001600	0.001750	28.0821	26.9442	0.001738	15506.9	3.378120	-177.416	36.6082	0.972893	0.019789	0.019559	37.9581	15506.9	0.017953	0.019428	1953.8	101645
474	2.000000	0.975182	7.3697e+06	-53389.1	1005.82	-29746.6	0.000000	0.000000	6.977472	44.7731	NaN	0.000000	0.001570	0.001814	28.0818	29.2692	0.001894	15450.7	3.424848	-176.101	44.3351	0.974874	0.021848	0.021540	44.7731	15450.7	0.019675	0.022034	2031.97	95098.1
474	2.000000	0.977172	7.3697e+06	-53389.1	1005.82	-29746.6	0.000000	0.000000	6.979626	48.7445	NaN	0.000000	0.001601	0.001761	28.0819	31.5128	0.001911	16487.8	6.792196	178.896	48.2369	0.976870	0.023839	0.023536	48.7445	16487.8	0.021621	0.025154	1937.82	94979.5
474	2.000000	0.979125	7.3697e+06	-53389.1	1005.82	-29746.6	0.000000	0.000000	6.981755	53.0389	NaN	0.000000	0.001592	0.001762	28.0822	33.23	0.001835	18112.8	6.421426	177.898	50.4298	0.978852	0.025791	0.025518	53.0389	18112.8	0.023595	0.028509	1860.43	98009.4
474	2.000000	0.981167	7.3697e+06	-53389.1	1005.82	-29746.6	0.000000	0.000000	6.983950	56.7431	NaN	0.000000	0.001587	0.001815	28.0824	33.0543	0.001723	19188.9	4.772727	179.959	57.9351	0.980854	0.027834	0.027520	56.7431	19188.9	0.025616	0.032145	1765.2	97783
474	2.000000	0.983203	7.3697e+06	-53389.1	1005.82	-29746.6	0.000000	0.000000	6.986083	59.1178	NaN	0.000000	0.001589	0.001733	28.082	35.3943	0.001816	19485.3	6.555986	177.744	60.0669	0.982886	0.029869	0.029552	59.1178	19485.3	0.027594	0.035904	1646.53	93952.3
474	2.000000	0.985206	7.3697e+06	-53389.1	1005.82	-29746.6	0.000000	0.000000	6.988222	62.4168	NaN	0.000000	0.001595	0.001764	28.0819	37.459	0.001764	21235.4	8.695864	175.07	62.7714	0.984879	0.031872	0.031545	62.4168	21235.4	0.029668	0.040058	1558.17	96937.1
474	2.000000	0.987184	7.3697e+06	-53389.1	1005.82	-29746.6	0.000000	0.000000	6.990581	71.6931	NaN	0.000000	0.001592	0.001801	28.0819	38.9137	0.001861	20909.4	5.271130	178.011	71.7935	0.986821	0.033850	0.033487	71.6931	20909.4	0.031278	0.043435	1650.58	91662.9
474	2.000000	0.989193	7.3697e+06	-53389.1	1005.82	-29746.6	0.000000	0.000000	6.992685	74.0051	NaN	0.000000	0.001562	0.001803	28.0819	40.686	0.001837	22146.4	5.227093	177.69	76.0847	0.988829	0.035859	0.035495	74.0051	22146.4	0.033353	0.047980	1542.42	92373.4
474	2.000000	0.991124	7.3697e+06	-53389.1	1005.82	-29746.6	0.000000	0.000000	6.994840	79.4433	NaN	0.000000	0.001582	0.001792	28.0819	42.0966	0.001846	22801.7	6.499562	176.355	77.0255	0.990745	0.037790	0.037411	79.4433	22801.7	0.035177	0.052158	1523.12	91217.8
474	2.000000	0.993098	7.3697e+06	-53389.1	1005.82	-29746.6	0.000000	0.000000	6.997155	87.7202	NaN	0.000000	0.001593	0.001808	28.0816	43.8639	0.001824	24044.2	7.329455	174.922	86.139	0.992954	0.039765	0.039620	87.7202	24044.2	0.037028	0.056574	1550.53	92357.6
474	2.000000	0.995144	7.3697e+06	-53389.1	1005.82	-29746.6	0.000000	0.000000	6.999527	95.6448	NaN	0.000000	0.001534	0.001779	28.0818	45.7683	0.001894	24159.9	8.377664	175.189	95.495	0.994783	0.041810	0.041450	95.6448	24159.9	0.038841	0.061068	1566.2	89322.5
474	2.000000	0.997125	7.3697e+06	-53389.1	1005.82	-29746.6	0.000000	0.000000	7.001542	96.4847	NaN	0.000000	0.001582	0.001755	28.0817	46.9452	0.001735	27060.5	5.613065	175.393	95.5123	0.996859	0.043791	0.043526	96.4847	27060.5	0.041117	0.066948	1441.2	95552.2
474	2.000000	0.999168	7.3697e+06	-53389.1	1005.82	-29746.6	0.000000	0.000000	7.003716	99.6775	NaN	0.000000	0.001595	0.001781	28.0818	49.4458	0.001819	27186.6	6.673653	175.375	100.657	0.998833	0.045834	0.045500	99.6775	27186.6	0.043084	0.072241	1379.78	92413.4
474	2.000000	1.001191	7.3697e+06	-53389.1	1005.82	-29746.6	0.000000	0.000000	7.006078	107.919	NaN	0.000000	0.001614	0.001814	28.0815	50.3593	0.001813	27778.4	7.738996	173.443	110.87	1.000838	0.047857	0.047504	107.919	27778.4	0.044944	0.077427	1393.81	91208.3
474	2.000000	1.003136	7.3697e+06	-53389.1	1005.82	-29746.6	0.000000	0.000000	7.008280	114.178	NaN	0.000000	0.001588	0.001770	28.0815	53.1431	0.001821	29190.9	9.146708	171.628	114.928	1.002797	0.049802	0.049463	114.178	29190.9	0.046868	0.082980	1375.98	92583.9
474	2.000000	1.005197	7.3697e+06	-53389.1	1005.82	-29746.6	0.000000	0.000000	7.010529	118.723	NaN	0.000000	0.001595	0.001769	28.0815	53.8781	0.001923	28023.6	5.497269	177.018	120.062	1.004769	0.051863	0.051436	118.723	28023.6	0.048686	0.088395	1343.1	86115.9
474	2.000000	1.007025	7.3697e+06	-53389.1	1005.82	-29746.6	0.000000	0.000000	7.012888	131.632	NaN	0.000000	0.001596	0.001754	28.0807	55.7049	0.001716	32460.9	3.979761	175.689	127.33	1.006709	0.053691	0.053375	131.632	32460.9	0.050650	0.094432	1393.93	96510.4
474	2.000000	1.009161	7.3697e+06	-53389.1	1005.82	-29746.6	0.000000	0.000000	7.015068	132.691	NaN	0.000000	0.001560	0.001804	28.0807	59.2654	0.001875	31609.8	8.603781	172.244	135.542	1.008845	0.055828	0.055511	132.691	31609.8	0.052679	0.100874	1315.42	90929.6
474	2.000000	1.011095	7.3697e+06	-53389.1	1005.82	-29746.6	0.000000	0.000000	7.017372	141.707	NaN	0.000000	0.001514	0.001778	28.0804	58.644	0.001731	33879.7	-0.460194	179.551	139.153	1.010877	0.057761	0.057544	141.707	33879.7	0.054624	0.107241	1321.39	94521.9
474	2.000000	1.013183	7.3697e+06	-53389.1	1005.82	-29746.6	0.000000	0.000000	7.019876	151.83	NaN	0.000000	0.001513	0.001773	28.0803	61.0548	0.001833	33311.4	1.348107	178.738	155.235	1.012815	0.059849	0.059481	151.83	33311.4	0.056431	0.113321	1339.82	90408.8
474	2.000000	1.015160	7.3697e+06	-53389.1	1005.82	-29746.6	0.000000	0.000000	7.022285	162.327	NaN	0.000000	0.001544	0.001757	28.0803	64.1949	0.001948	32956.9	6.451783	174.025	162.737	1.014845	0.061826	0.061511	162.327	32956.9	0.058132	0.119196	1361.85	87214.7
474	2.000000	1.017087	7.3697e+06	-53389.1	1005.82	-29746.6	0.000000	0.000000	7.024534	170.163	NaN	0.000000	0.001554	0.001805	28.0805	65.0827	0.001773	36706.3	4.691636	173.66	167.933	1.016858	0.063753	0.063525	170.163	36706.3	0.060276	0.126801	1341.97	94178.7
474	2.000000	1.019088	7.3697e+06	-53389.1	1005.82	-29746.6	0.000000	0.000000	7.026790	176.354	NaN	0.000000	0.001549	0.001768	28.0806	67.7854	0.001915	35402.3	5.558719	173.511	175.189	1.018856	0.065754	0.065522	176.354	35402.3	0.062018	0.133143	1324.55	88643.3
474	2.000000	1.021062	7.3697e+06	-53389.1	1005.82	-29746.6	0.000000	0.000000	7.029384	191.427	NaN	0.000000	0.001537	0.001797	28.0803	67.707	0.001724	39278.5	6.648137	171.929	190.924	1.020775	0.067729	0.067441	191.427	39278.5	0.064073	0.140819	1359.38	95630.7
474	2.000000	1.023065	7.3697e+06	-53389.1	1005.82	-29746.6	0.000000	0.000000	7.031831	202.234	NaN	0.000000	0.001558	0.001807	28.0805	70.9862	0.001692	41944.7	5.778275	172.743	201.057	1.022724	0.069731	0.069390	202.234	41944.7	0.066115	0.148644	1360.53	99397.9
474	2.000000	1.025138	7.3697e+06	-53389.1	1005.82	-29746.6	0.000000	0.000000	7.034143	208.033	NaN	0.000000	0.001527	0.001776	28.0805	73.5999	0.001890	38944	6.915110	172.653	207.63	1.024771	0.071804	0.071437	208.033	38944	0.067797	0.155243	1340.05	90304
474	2.000000	1.027158	7.3697e+06	-53389.1	1005.82	-29746.6	0.000000	0.000000	7.036423	214.363	NaN	0.000000	0.001550	0.001784	28.0802	75.7067	0.001894	39981.6	9.850843	169.312	216.646	1.026696	0.073824	0.073362	214.363	39981.6	0.069803	0.163286	1312.8	90398
474	2.000000	1.029068	7.3697e+06	-53389.1	1005.82	-29746.6	0.000000	0.000000	7.038941	229.13	NaN	0.000000	0.001511	0.001790	28.0803	78.2875	0.001872	41823	6.672341	171.343	226.808	1.028771	0.075734	0.075437	229.13	41823	0.071625	0.170762	1341.81	92468.5
474	2.000000	1.031092	7.3697e+06	-53389.1	1005.82	-29746.6	0.000000	0.000000	7.041235	235.689	NaN	0.000000	0.001576	0.001772	28.0804	78.8075	0.001813	43465.7	7.303570	170.078	237.254	1.030775	0.077758	0.077441	235.689	43465.7	0.073691	0.179428	1313.56	93750.9
474	2.000000	1.033114	7.3697e+06	-53389.1	1005.82	-29746.6	0.000000	0.000000	7.043347	237.886	NaN	0.000000	0.001550	0.001769	28.0805	81.3322	0.001833	44381.5	4.099711	172.815	237.055	1.033000	0.079781	0.079666	237.886	44381.5	0.075761	0.188308	1263.28	93441.8
474	2.000000	1.035107	7.3697e+06	-53389.1	1005.82	-29746.6	0.000000	0.000000	7.046300	261.221	NaN	0.000000	0.001543	0.001783	28.0806	83.7249	0.001913	43762.2	7.041357	170.751	261.489	1.034710	0.081773	0.081376	261.221	43762.2	0.077296	0.195028	1339.4	90536.6
474	2.000000	1.037091	7.3697e+06	-53389.1	1005.82	-29746.6	0.000000	0.000000	7.048981	278.174	NaN	0.000000	0.001579	0.001805	28.0806	84.6176	0.001866	45342.2	4.898188	172.542	277.301	1.036715	0.083757	0.083381	278.174	45342.2	0.079155	0.203312	1368.21	91874.2
474	2.000000	1.039018	7.3697e+06	-53389.1	1005.82	-29746.6	0.000000	0.000000	7.051228	285.946	NaN	0.000000	0.001616	0.001775	28.0804	86.3077	0.001723	50084.5	3.149244	173.341	280.895	1.038714	0.085685	0.085380	285.946	50084.5	0.081403	0.213540	1339.07	99023.2
474	2.000000	1.040996	7.3697e+06	-53389.1	1005.82	-29746.6	0.000000	0.000000	7.053689	297.714	NaN	0.000000	0.001585	0.001782	28.0818	87.2394	0.001740	50148.9	4.054738	172.631	294.178	1.040717	0.087662	0.087383	297.714	50148.9	0.083209	0.221934	1341.45	97257.3
474	2.000000	1.043048	7.3697e+06	-53389.1	1005.82	-29746.6	0.000000	0.000000	7.056222	309.378	NaN	0.000000	0.001579	0.001782	28.0817	90.1947	0.001852	48711.3	5.405620	171.604	308.027	1.042802	0.089715	0.089469	309.378	48711.3	0.084951	0.230169	1344.13	92763.9
474	2.000000	1.045071	7.3697e+06	-53389.1	1005.82	-29746.6	0.000000	0.000000	7.059135	331.02	NaN	0.000000	0.001575	0.001770	28.0818	92.1353	0.001665	55349.2	7.558266	168.048	327.736	1.044704	0.091738	0.091370	331.02	55349.2	0.087252	0.241263	1372.03	102953
474	2.000000	1.047079	7.3697e+06	-53389.1	1005.82	-29746.6	0.000000	0.000000	7.061642	343.158	NaN	0.000000	0.001589	0.001789	28.082	91.9977	0.001725	53332.6	-0.243076	176.203	340.921	1.046710	0.093745	0.093376	343.158	53332.6	0.088920	0.249454	1375.64	97559.9
474	2.000000	1.049096	7.3697e+06	-53389.1	1005.82	-29746.6	0.000000	0.000000	7.064157	355.257	NaN	0.000000	0.001587	0.001764	28.0818	96.1087	0.001808	53157.8	5.107520	170.994	355.2	1.048880	0.095762	0.095547	355.257	53157.8	0.090750	0.258593	1373.81	95506.4
474	2.000000	1.051201	7.3697e+06	-53389.1	1005.82	-29746.6	0.000000	0.000000	7.066911	371.049	NaN	0.000000	0.001603	0.001803	28.0824	97.4243	0.001884	51712	5.699726	171.151	381.298	1.050691	0.097867	0.097358	371.049	51712	0.092486	0.267401	1387.61	91365.7
474	2.000000	1.053126	7.3697e+06	-53389.1	1005.82	-29746.6	0.000000	0.000000	7.069552	388.448	NaN	0.000000	0.001575	0.001798	28.0817	101.301	0.001761	57524.6	6.540333	168.963	392.051	1.052724	0.099793	0.099390	388.448	57524.6	0.094728	0.278983	1392.37	99503.4
474	2.000000	1.055026	7.3697e+06	-53389.1	1005.82	-29746.6	0.000000	0.000000	7.072256	408.015	NaN	0.000000	0.001538	0.001805	28.0818	102.988	0.001805	57061	3.762779	172.187	403.367	1.054716	0.101692	0.101382	408.015	57061	0.096329	0.287394	1419.7	97246.5
474	2.000000	1.056521	7.3697e+06	-53389.1	1005.82	-29746.6	0.000000	0.000000	7.073881	411.162	NaN	0.000000	0.001557	0.001794	28.0819	104.857	0.001727	60733.5	4.871884	-10.0374	407.027	1.056364	0.103187	0.103030	411.162	60733.5	0.098110	0.296886	1384.92	101837