File: remote_trans/data/nanoindenter/0828-1/data/Data_2025-08-06,11h17m57s/2025-07-22_16-23-58_1_313.txt
2025-07-22, 16:23:58, 1
Index	Phase	Displacement	Time	Pos X	Pos Y	Pos Z	Rot A	Rot B	Piezo Z	Force A	Force B	Gripper	Voltage A	Voltage B	Temperature	Amplitude force	Amplitude pos	Stiffness	Phase shift	Phase excitation	Force A raw	Displacement raw	HMax	HMax raw	Real Force	Real Stiffness	Contact Depth	Area	Hardness	Reduced Mod.
[#]	[#]	[um]	[s]	[um]	[um]	[um]	[m°]	[m°]	[um]	[uN]	[uN]	[V]	[V]	[V]	[°C]	[uN]	[um]	[N/m]	[°]	[°]	[uN]	[um]	[um]	[um]	[uN]	[N/m]	[um]	[um^2]	[MPa]	[MPa]
313	1.000000	0.002626	7.36813e+06	-54289.1	955.819	-29744.3	0.000000	0.000000	6.002785	0.008250	NaN	0.000000	0.001625	0.001701	28.0803	0.067050	0.000923	72.6332	165.349	-165.433	-0.064397	0.001424	-0.963380	-0.964582	0.008250	72.6332	-0.963466	-7.304454E+12	-1.129495E-15	NaN
313	1.000000	0.010605	7.36813e+06	-54289.1	955.819	-29744.4	0.000000	0.000000	6.010768	0.091159	NaN	0.000000	0.001630	0.001701	28.0799	0.015819	0.000981	16.1282	45.1433	-171.981	0.100060	0.009258	-0.955401	-0.956748	0.091159	16.1282	-0.959640	-6.486527E+12	-1.405363E-14	NaN
313	1.000000	0.018587	7.36813e+06	-54289.1	955.817	-29744.4	0.000000	0.000000	6.018749	0.101528	NaN	0.000000	0.001656	0.001704	28.0799	0.064421	0.001763	36.5477	170.233	-164.398	0.048893	0.017304	-0.947419	-0.948702	0.101528	36.5477	-0.949503	-4.735034E+12	-2.144196E-14	NaN
313	1.000000	0.026615	7.36813e+06	-54289.1	955.819	-29744.4	0.000000	0.000000	6.026772	-0.035771	NaN	0.000000	0.001611	0.001704	28.08	0.023893	0.001790	13.3487	-54.2535	-166.841	-0.082512	0.025314	-0.939391	-0.940692	-0.035771	13.3487	-0.937381	-3.249430E+12	1.100838E-14	NaN
313	1.000000	0.034587	7.36813e+06	-54289.1	955.818	-29744.4	0.000000	0.000000	6.034746	0.012518	NaN	0.000000	0.001634	0.001715	28.0799	0.076594	0.001886	40.606	16.6856	-170.883	0.069227	0.033308	-0.931419	-0.932698	0.012518	40.606	-0.931650	-2.719389E+12	-4.603404E-15	NaN
313	1.000000	0.042597	7.36813e+06	-54289.1	955.818	-29744.4	0.000000	0.000000	6.042758	0.058101	NaN	0.000000	0.001626	0.001725	28.0802	0.070956	0.002216	32.0173	136.089	-163.386	0.064601	0.041266	-0.923409	-0.924740	0.058101	32.0173	-0.924770	-2.195879E+12	-2.645922E-14	NaN
313	1.000000	0.050608	7.36813e+06	-54289.1	955.818	-29744.4	0.000000	0.000000	6.050768	0.043681	NaN	0.000000	0.001708	0.001730	28.0797	0.068704	0.001982	34.6712	158.974	-168.344	0.034102	0.049297	-0.915398	-0.916709	0.043681	34.6712	-0.916343	-1.689771E+12	-2.585050E-14	NaN
313	1.000000	0.058629	7.36813e+06	-54289.1	955.819	-29744.4	0.000000	0.000000	6.058790	0.056305	NaN	0.000000	0.001684	0.001664	28.0796	0.054031	0.002058	26.2535	-142.442	-171.321	0.036087	0.057261	-0.907377	-0.908745	0.056305	26.2535	-0.908986	-1.344190E+12	-4.188791E-14	NaN
313	1.000000	0.066593	7.36813e+06	-54289.1	955.819	-29744.4	0.000000	0.000000	6.066751	-0.021854	NaN	0.000000	0.001681	0.001703	28.0798	0.012058	0.001833	6.578268	-128.053	-167.379	-0.007586	0.065335	-0.899413	-0.900671	-0.021854	6.578268	-0.896921	-9.235538E+11	2.366290E-14	NaN
313	1.000000	0.074597	7.36813e+06	-54289.1	955.818	-29744.4	0.000000	0.000000	6.074756	0.012415	NaN	0.000000	0.001721	0.001690	28.0799	0.062041	0.001919	32.3356	-166.294	-165.726	0.022474	0.073242	-0.891409	-0.892764	0.012415	32.3356	-0.891697	-7.849744E+11	-1.581539E-14	NaN
313	1.000000	0.082601	7.36813e+06	-54289.1	955.819	-29744.4	0.000000	0.000000	6.082761	0.046955	NaN	0.000000	0.001696	0.001679	28.0801	0.043914	0.001945	22.5797	153.183	-163.935	0.004117	0.081269	-0.883405	-0.884737	0.046955	22.5797	-0.884965	-6.365675E+11	-7.376326E-14	NaN
313	1.000000	0.090582	7.36813e+06	-54289.1	955.819	-29744.4	0.000000	0.000000	6.090742	0.032257	NaN	0.000000	0.001710	0.001707	28.0799	0.181956	0.002103	86.5212	-70.4577	-168.574	-0.093441	0.089354	-0.875424	-0.876652	0.032257	86.5212	-0.875704	-4.770956E+11	-6.761046E-14	NaN
313	1.000000	0.098591	7.36813e+06	-54289.1	955.818	-29744.4	0.000000	0.000000	6.098750	0.006519	NaN	0.000000	0.001676	0.001714	28.0799	0.101819	0.002094	48.6185	19.6814	-167.468	0.046172	0.097353	-0.867415	-0.868653	0.006519	48.6185	-0.867516	-3.696853E+11	-1.763515E-14	NaN
313	1.000000	0.106631	7.36813e+06	-54289.1	955.818	-29744.4	0.000000	0.000000	6.106791	0.021784	NaN	0.000000	0.001662	0.001731	28.0801	0.079734	0.002032	39.2419	107.017	-165.998	0.097914	0.105254	-0.859375	-0.860752	0.021784	39.2419	-0.859791	-2.905979E+11	-7.496317E-14	NaN
313	1.000000	0.114596	7.36813e+06	-54289.1	955.819	-29744.4	0.000000	0.000000	6.114756	0.034283	NaN	0.000000	0.001714	0.001755	28.0786	0.008907	0.002087	4.268104	-116.809	-164.78	0.008772	0.113309	-0.851410	-0.852697	0.034283	4.268104	-0.857434	-2.700162E+11	-1.269647E-13	NaN
313	1.000000	0.122610	7.36813e+06	-54289.1	955.819	-29744.4	0.000000	0.000000	6.122766	-0.064729	NaN	0.000000	0.001653	0.001728	28.0788	0.069571	0.002028	34.3132	-14.8135	-165.283	0.025969	0.121340	-0.843396	-0.844666	-0.064729	34.3132	-0.841981	-1.667765E+11	3.881182E-13	NaN
313	1.000000	0.130612	7.36813e+06	-54289.1	955.818	-29744.4	0.000000	0.000000	6.130771	0.015705	NaN	0.000000	0.001699	0.001749	28.0786	0.127831	0.001969	64.9063	-101.405	-163.282	-0.063148	0.129397	-0.835395	-0.836609	0.015705	64.9063	-0.835576	-1.365688E+11	-1.149961E-13	NaN
313	1.000000	0.138639	7.36813e+06	-54289.1	955.818	-29744.4	0.000000	0.000000	6.138797	-0.025088	NaN	0.000000	0.001705	0.001703	28.0796	0.101943	0.001921	53.0602	-157.052	-168.86	-0.112999	0.137319	-0.827367	-0.828687	-0.025088	53.0602	-0.827012	-1.045401E+11	2.399849E-13	NaN
313	1.000000	0.146634	7.36813e+06	-54289.1	955.818	-29744.4	0.000000	0.000000	6.146791	-0.047374	NaN	0.000000	0.001724	0.001723	28.0789	0.101255	0.002134	47.457	-20.3169	-167.273	0.028567	0.145337	-0.819372	-0.820669	-0.047374	47.457	-0.818623	-8.045262E+10	5.888459E-13	NaN
313	1.000000	0.154637	7.36813e+06	-54289.1	955.818	-29744.4	0.000000	0.000000	6.154797	0.035465	NaN	0.000000	0.001703	0.001744	28.0787	0.027378	0.002186	12.5218	-176.8	-165.873	0.008870	0.153329	-0.811369	-0.812677	0.035465	12.5218	-0.813493	-6.854244E+10	-5.174185E-13	NaN
313	1.000000	0.162630	7.36813e+06	-54289.1	955.819	-29744.4	0.000000	0.000000	6.162788	-0.007524	NaN	0.000000	0.001709	0.001714	28.0785	0.020428	0.001980	10.3151	-137.581	-166.507	0.022357	0.161290	-0.803376	-0.804716	-0.007524	10.3151	-0.802829	-4.912010E+10	1.531685E-13	NaN
313	1.000000	0.170641	7.36813e+06	-54289.1	955.818	-29744.4	0.000000	0.000000	6.170799	-0.009422	NaN	0.000000	0.001679	0.001732	28.0786	0.050597	0.001973	25.6387	28.9296	-166.768	-0.032811	0.169299	-0.795365	-0.796707	-0.009422	25.6387	-0.795090	-3.856568E+10	2.443146E-13	NaN
313	1.000000	0.178618	7.36813e+06	-54289.1	955.818	-29744.4	0.000000	0.000000	6.178777	-0.002301	NaN	0.000000	0.001695	0.001744	28.0787	0.073063	0.001847	39.548	-104.544	-163.931	-0.026068	0.177327	-0.787388	-0.788679	-0.002301	39.548	-0.787344	-3.026996E+10	7.599998E-14	NaN
313	1.000000	0.186645	7.36813e+06	-54289.1	955.818	-29744.4	0.000000	0.000000	6.186803	-0.025298	NaN	0.000000	0.001672	0.001724	28.0785	0.049627	0.001876	26.4532	-61.2365	-168.606	-0.083753	0.185346	-0.779361	-0.780660	-0.025298	26.4532	-0.778643	-2.305672E+10	1.097200E-12	NaN
313	1.000000	0.194645	7.36813e+06	-54289.1	955.819	-29744.4	0.000000	0.000000	6.194803	-0.008701	NaN	0.000000	0.001681	0.001719	28.0787	0.028042	0.002028	13.828	-56.6082	-163.558	0.014054	0.193361	-0.771361	-0.772645	-0.008701	13.828	-0.770889	-1.808802E+10	4.810517E-13	NaN
313	1.000000	0.202629	7.36813e+06	-54289.1	955.818	-29744.4	0.000000	0.000000	6.202790	0.049154	NaN	0.000000	0.001654	0.001730	28.0783	0.072522	0.002010	36.0774	-6.224190	-166.299	0.129430	0.201336	-0.763377	-0.764670	0.049154	36.0774	-0.764399	-1.476176E+10	-3.329794E-12	NaN
313	1.000000	0.210668	7.36813e+06	-54289.1	955.818	-29744.4	0.000000	0.000000	6.210831	0.105203	NaN	0.000000	0.001677	0.001731	28.0785	0.064332	0.001897	33.9153	-107.431	-165.422	0.054094	0.209364	-0.755338	-0.756642	0.105203	33.9153	-0.757665	-1.195448E+10	-8.800305E-12	NaN
313	1.000000	0.218641	7.36813e+06	-54289.1	955.818	-29744.4	0.000000	0.000000	6.218800	-0.005939	NaN	0.000000	0.001654	0.001715	28.0785	0.031363	0.002045	15.337	176.219	-167.559	-0.008900	0.217323	-0.747365	-0.748683	-0.005939	15.337	-0.747074	-8.578095E+9	6.923772E-13	NaN
313	1.000000	0.226690	7.36813e+06	-54289.1	955.82	-29744.4	0.000000	0.000000	6.226852	0.062791	NaN	0.000000	0.001642	0.001675	28.0783	0.121490	0.002066	58.8072	130.307	-165.685	0.051772	0.225358	-0.739316	-0.740649	0.062791	58.8072	-0.740116	-6.896696E+9	-9.104444E-12	NaN
313	1.000000	0.234669	7.36813e+06	-54289.1	955.819	-29744.4	0.000000	0.000000	6.234830	0.069618	NaN	0.000000	0.001673	0.001692	28.0795	0.035388	0.001895	18.6712	110.804	-164.559	0.041421	0.233314	-0.731337	-0.732692	0.069618	18.6712	-0.734133	-5.716583E+9	-1.217833E-11	NaN
313	1.000000	0.242664	7.36813e+06	-54289.1	955.818	-29744.4	0.000000	0.000000	6.242824	0.022858	NaN	0.000000	0.001659	0.001697	28.0784	0.055283	0.002054	26.9128	151.864	-167.938	-0.019793	0.241382	-0.723342	-0.724624	0.022858	26.9128	-0.723979	-4.156476E+9	-5.499386E-12	NaN
313	1.000000	0.250668	7.36813e+06	-54289.1	955.818	-29744.4	0.000000	0.000000	6.250826	-0.005161	NaN	0.000000	0.001620	0.001690	28.0797	0.103696	0.001982	52.3312	-169.794	-166.183	-0.007263	0.249385	-0.715338	-0.716621	-0.005161	52.3312	-0.715264	-3.161403E+9	1.632484E-12	NaN
313	1.000000	0.258682	7.36813e+06	-54289.1	955.819	-29744.4	0.000000	0.000000	6.258839	-0.027734	NaN	0.000000	0.001626	0.001709	28.0798	0.059169	0.002031	29.1396	-65.4067	-170.135	0.047338	0.257359	-0.707324	-0.708647	-0.027734	29.1396	-0.706610	-2.408712E+9	1.151407E-11	NaN
313	1.000000	0.266687	7.36813e+06	-54289.1	955.819	-29744.4	0.000000	0.000000	6.266845	-0.016430	NaN	0.000000	0.001606	0.001693	28.0797	0.129406	0.001964	65.901	-35.3034	-167.356	0.051280	0.265371	-0.699319	-0.700635	-0.016430	65.901	-0.699132	-1.904060E+9	8.628764E-12	NaN
313	1.000000	0.274674	7.36813e+06	-54289.1	955.818	-29744.4	0.000000	0.000000	6.274834	0.042693	NaN	0.000000	0.001588	0.001704	28.0801	0.014880	0.001955	7.610608	156.438	-167.818	0.008885	0.273417	-0.691332	-0.692589	0.042693	7.610608	-0.695539	-1.700617E+9	-2.510461E-11	NaN
313	1.000000	0.282666	7.36813e+06	-54289.1	955.818	-29744.4	0.000000	0.000000	6.282825	0.004035	NaN	0.000000	0.001598	0.001769	28.0798	0.020870	0.002098	9.946068	-55.0323	-164.413	-0.056253	0.281378	-0.683340	-0.684628	0.004035	9.946068	-0.683644	-1.169591E+9	-3.450018E-12	NaN
313	1.000000	0.290700	7.36813e+06	-54289.1	955.817	-29744.4	0.000000	0.000000	6.290859	0.016205	NaN	0.000000	0.001625	0.001699	28.0799	0.060550	0.002048	29.5617	-119.308	-166.251	0.078361	0.289348	-0.675306	-0.676658	0.016205	29.5617	-0.675717	-9.112143E+8	-1.778370E-11	NaN
313	1.000000	0.298682	7.36813e+06	-54289.1	955.819	-29744.4	0.000000	0.000000	6.298839	-0.036425	NaN	0.000000	0.001603	0.001716	28.0798	0.153997	0.002067	74.5096	-145.008	-166.645	0.023795	0.297394	-0.667324	-0.668612	-0.036425	74.5096	-0.666957	-6.914115E+8	5.268193E-11	NaN
313	1.000000	0.306707	7.36813e+06	-54289.1	955.817	-29744.4	0.000000	0.000000	6.306866	-0.011514	NaN	0.000000	0.001613	0.001707	28.0801	0.057297	0.001949	29.4039	135.635	-167.849	0.093767	0.305391	-0.659299	-0.660615	-0.011514	29.4039	-0.659005	-5.380685E+8	2.139817E-11	NaN
313	1.000000	0.314699	7.36813e+06	-54289.1	955.819	-29744.4	0.000000	0.000000	6.314859	0.035444	NaN	0.000000	0.001586	0.001721	28.0798	0.032172	0.001953	16.4769	-18.8476	-164.187	-0.031680	0.313399	-0.651307	-0.652607	0.035444	16.4769	-0.652920	-4.440848E+8	-7.981316E-11	NaN
313	1.000000	0.322727	7.36813e+06	-54289.1	955.818	-29744.4	0.000000	0.000000	6.322887	0.048159	NaN	0.000000	0.001566	0.001703	28.0797	0.128581	0.002025	63.4886	126.506	-167.599	0.081858	0.321385	-0.643279	-0.644621	0.048159	63.4886	-0.643848	-3.334875E+8	-1.444108E-10	NaN
313	1.000000	0.330687	7.36813e+06	-54289.1	955.818	-29744.4	0.000000	0.000000	6.330846	0.001727	NaN	0.000000	0.001584	0.001739	28.0797	0.060289	0.001973	30.5505	-28.3156	-166.123	-0.016347	0.329426	-0.635319	-0.636580	0.001727	30.5505	-0.635361	-2.550505E+8	-6.772513E-12	NaN
313	1.000000	0.338695	7.36813e+06	-54289.1	955.818	-29744.4	0.000000	0.000000	6.338855	0.020476	NaN	0.000000	0.001602	0.001703	28.0797	0.089766	0.001957	45.8673	-143.35	-163.596	-0.046278	0.337363	-0.627311	-0.628643	0.020476	45.8673	-0.627646	-1.998420E+8	-1.024633E-10	NaN
313	1.000000	0.346709	7.36813e+06	-54289.1	955.819	-29744.4	0.000000	0.000000	6.346867	-0.014823	NaN	0.000000	0.001609	0.001695	28.0797	0.021270	0.001918	11.0923	-95.6441	-167.206	0.065902	0.345372	-0.619297	-0.620634	-0.014823	11.0923	-0.618295	-1.486593E+8	9.971217E-11	NaN
313	1.000000	0.354745	7.36813e+06	-54289.1	955.819	-29744.4	0.000000	0.000000	6.354907	0.072233	NaN	0.000000	0.001617	0.001718	28.0799	0.077672	0.001984	39.1482	80.4093	-166.508	0.132859	0.353413	-0.611261	-0.612593	0.072233	39.1482	-0.612645	-1.243070E+8	-5.810857E-10	NaN
313	1.000000	0.362718	7.36813e+06	-54289.1	955.818	-29744.4	0.000000	0.000000	6.362876	-0.009880	NaN	0.000000	0.001570	0.001694	28.0794	0.091222	0.002120	43.0329	12.3093	-165.632	-0.026577	0.361407	-0.603288	-0.604599	-0.009880	43.0329	-0.603115	-9.190969E+7	1.074928E-10	NaN
313	1.000000	0.370728	7.36813e+06	-54289.1	955.818	-29744.4	0.000000	0.000000	6.370886	-0.014023	NaN	0.000000	0.001585	0.001731	28.0798	0.040642	0.001988	20.4394	-4.955778	-163.763	-0.009952	0.369384	-0.595278	-0.596622	-0.014023	20.4394	-0.594764	-7.052224E+7	1.988513E-10	NaN
313	1.000000	0.378742	7.36813e+06	-54289.1	955.819	-29744.4	0.000000	0.000000	6.378901	0.008876	NaN	0.000000	0.001612	0.001703	28.0796	0.024724	0.001983	12.4673	64.0214	-170.391	0.040939	0.377474	-0.587264	-0.588532	0.008876	12.4673	-0.587798	-5.653387E+7	-1.569949E-10	NaN
313	1.000000	0.386735	7.36813e+06	-54289.1	955.818	-29744.4	0.000000	0.000000	6.386897	0.082541	NaN	0.000000	0.001586	0.001700	28.0788	0.051993	0.001986	26.1756	10.0728	-162.888	0.020441	0.385433	-0.579271	-0.580573	0.082541	26.1756	-0.581636	-4.648437E+7	-1.775681E-9	NaN
313	1.000000	0.394699	7.36813e+06	-54289.1	955.819	-29744.4	0.000000	0.000000	6.394859	0.043382	NaN	0.000000	0.001605	0.001738	28.0786	0.051038	0.002001	25.5061	-143.949	-165.559	0.083847	0.393412	-0.571307	-0.572594	0.043382	25.5061	-0.572583	-3.485915E+7	-1.244494E-9	NaN
313	1.000000	0.402728	7.36813e+06	-54289.1	955.82	-29744.4	0.000000	0.000000	6.402886	-0.010763	NaN	0.000000	0.001585	0.001740	28.0783	0.084338	0.001965	42.9283	-140.006	-170.029	-0.040617	0.401506	-0.563278	-0.564500	-0.010763	42.9283	-0.563090	-2.577023E+7	4.176691E-10	NaN
313	1.000000	0.410733	7.36813e+06	-54289.1	955.818	-29744.4	0.000000	0.000000	6.410891	-0.023078	NaN	0.000000	0.001622	0.001716	28.0784	0.060542	0.002160	28.0268	39.5919	-164.105	-0.002069	0.409385	-0.555273	-0.556621	-0.023078	28.0268	-0.554655	-1.969772E+7	1.171624E-9	NaN
313	1.000000	0.418746	7.36813e+06	-54289.1	955.818	-29744.4	0.000000	0.000000	6.418905	0.002008	NaN	0.000000	0.001602	0.001722	28.0784	0.054374	0.001835	29.6286	69.4152	-164.559	0.039999	0.417401	-0.547260	-0.548605	0.002008	29.6286	-0.547311	-1.558481E+7	-1.288481E-10	NaN
313	1.000000	0.426750	7.36813e+06	-54289.1	955.819	-29744.4	0.000000	0.000000	6.426909	0.004987	NaN	0.000000	0.001584	0.001718	28.0786	0.027771	0.002144	12.9527	131.678	-163.715	-0.027569	0.425438	-0.539256	-0.540568	0.004987	12.9527	-0.539545	-1.216301E+7	-4.100199E-10	NaN
313	1.000000	0.434756	7.36813e+06	-54289.1	955.817	-29744.4	0.000000	0.000000	6.434914	-0.003440	NaN	0.000000	0.001569	0.001740	28.0785	0.064298	0.002098	30.6459	-38.8456	-165.009	0.016612	0.433460	-0.531250	-0.532546	-0.003440	30.6459	-0.531166	-9.30616e+06	3.696062E-10	NaN
313	1.000000	0.442768	7.36813e+06	-54289.1	955.819	-29744.4	0.000000	0.000000	6.442928	0.041067	NaN	0.000000	0.001608	0.001756	28.0786	0.089375	0.001923	46.4812	160.22	-165.163	0.031364	0.441446	-0.523238	-0.524560	0.041067	46.4812	-0.523901	-7.37618e+06	-5.567450E-9	NaN
313	1.000000	0.450757	7.36813e+06	-54289.1	955.819	-29744.4	0.000000	0.000000	6.450914	-0.041994	NaN	0.000000	0.001613	0.001727	28.0787	0.094221	0.002056	45.8296	123.457	-164.338	-0.059950	0.449511	-0.515249	-0.516495	-0.041994	45.8296	-0.514561	-5.46927e+06	7.678161E-9	NaN
313	1.000000	0.458754	7.36813e+06	-54289.1	955.818	-29744.4	0.000000	0.000000	6.458911	-0.028057	NaN	0.000000	0.001573	0.001725	28.0785	0.070255	0.001942	36.1685	9.735374	-163.537	-0.099719	0.457485	-0.507252	-0.508521	-0.028057	36.1685	-0.506671	-4.24649e+06	6.607176E-9	NaN
313	1.000000	0.466798	7.36813e+06	-54289.1	955.817	-29744.4	0.000000	0.000000	6.466957	0.013838	NaN	0.000000	0.001617	0.001731	28.0788	0.142577	0.002021	70.5402	69.1964	-165.625	0.038828	0.465472	-0.499208	-0.500534	0.013838	70.5402	-0.499355	-3.35756e+06	-4.121360E-9	NaN
313	1.000000	0.474777	7.36813e+06	-54289.1	955.819	-29744.4	0.000000	0.000000	6.474935	-0.011805	NaN	0.000000	0.001642	0.001752	28.0784	0.027217	0.001896	14.3546	172.918	-166.32	0.061041	0.473408	-0.491229	-0.492598	-0.011805	14.3546	-0.490612	-2.53481e+06	4.657136E-9	NaN
313	1.000000	0.482781	7.36813e+06	-54289.1	955.818	-29744.4	0.000000	0.000000	6.482939	-0.013560	NaN	0.000000	0.001616	0.001758	28.0785	0.104919	0.002054	51.0897	-55.6735	-166.61	-0.027742	0.481465	-0.483225	-0.484541	-0.013560	51.0897	-0.483026	-1.98551e+06	6.829394E-9	NaN
313	1.000000	0.490770	7.36813e+06	-54289.1	955.818	-29744.4	0.000000	0.000000	6.490931	0.055267	NaN	0.000000	0.001596	0.001767	28.0784	0.063687	0.002024	31.4699	48.7973	-167.625	0.046129	0.489452	-0.475236	-0.476554	0.055267	31.4699	-0.476553	-1.61162e+06	-3.429308E-8	NaN
313	1.000000	0.498769	7.36813e+06	-54289.1	955.818	-29744.4	0.000000	0.000000	6.498929	0.042298	NaN	0.000000	0.001581	0.001745	28.0787	0.166894	0.001891	88.2794	-118.202	-169.765	0.033974	0.497458	-0.467237	-0.468548	0.042298	88.2794	-0.467597	-1.20696e+06	-3.504548E-8	NaN
313	1.000000	0.506801	7.36813e+06	-54289.1	955.818	-29744.4	0.000000	0.000000	6.506959	-0.015059	NaN	0.000000	0.001579	0.001749	28.0789	0.033107	0.002095	15.799	111.921	-166.533	-0.069630	0.505479	-0.459205	-0.460527	-0.015059	15.799	-0.458490	-899072	1.674906E-8	NaN
313	1.000000	0.514776	7.36813e+06	-54289.1	955.818	-29744.4	0.000000	0.000000	6.514935	0.030255	NaN	0.000000	0.001610	0.001770	28.0785	0.070699	0.002027	34.8725	-104.556	-167.102	-0.013174	0.513526	-0.451230	-0.452480	0.030255	34.8725	-0.451881	-725816	-4.168354E-8	NaN
313	1.000000	0.522804	7.36813e+06	-54289.1	955.819	-29744.4	0.000000	0.000000	6.522963	-0.009194	NaN	0.000000	0.001620	0.001759	28.0793	0.008630	0.002165	3.985919	-12.1752	-163.838	0.007166	0.521475	-0.443202	-0.444531	-0.009194	3.985919	-0.441472	-517764	1.775728E-8	NaN
313	1.000000	0.530790	7.36813e+06	-54289.1	955.82	-29744.4	0.000000	0.000000	6.530949	0.004572	NaN	0.000000	0.001581	0.001737	28.08	0.017949	0.001972	9.103905	123.08	-166.696	0.018111	0.529469	-0.435216	-0.436537	0.004572	9.103905	-0.435593	-427691	-1.069007E-8	NaN
313	1.000000	0.538820	7.36813e+06	-54289.1	955.819	-29744.4	0.000000	0.000000	6.538982	0.076141	NaN	0.000000	0.001597	0.001752	28.08	0.079391	0.001915	41.4486	25.7381	-166.743	0.031556	0.537472	-0.427186	-0.428534	0.076141	41.4486	-0.428564	-340205	-2.238081E-7	NaN
313	1.000000	0.546811	7.36813e+06	-54289.1	955.818	-29744.4	0.000000	0.000000	6.546972	0.077350	NaN	0.000000	0.001598	0.001748	28.0803	0.064263	0.001945	33.0357	-174.478	-165.673	0.051241	0.545475	-0.419195	-0.420531	0.077350	33.0357	-0.420951	-265403	-2.914432E-7	NaN
313	1.000000	0.554834	7.36813e+06	-54289.1	955.817	-29744.4	0.000000	0.000000	6.554992	-0.009786	NaN	0.000000	0.001610	0.001778	28.0799	0.019019	0.002000	9.509454	-89.6714	-165.831	-0.039118	0.553514	-0.411172	-0.412492	-0.009786	9.509454	-0.410400	-187971	5.205914E-8	NaN
313	1.000000	0.562791	7.36813e+06	-54289.1	955.818	-29744.4	0.000000	0.000000	6.562951	0.028259	NaN	0.000000	0.001586	0.001772	28.0801	0.052102	0.001942	26.83	-109.769	-171.136	0.096093	0.561506	-0.403215	-0.404500	0.028259	26.83	-0.404004	-152430	-1.853881E-7	NaN
313	1.000000	0.570810	7.36813e+06	-54289.1	955.819	-29744.4	0.000000	0.000000	6.570966	-0.047347	NaN	0.000000	0.001608	0.001770	28.0799	0.079211	0.001892	41.8739	-24.7415	-166.279	0.043954	0.569555	-0.395196	-0.396451	-0.047347	41.8739	-0.394348	-111001	4.265473E-7	NaN
313	1.000000	0.578819	7.36813e+06	-54289.1	955.819	-29744.4	0.000000	0.000000	6.578980	0.042389	NaN	0.000000	0.001622	0.001728	28.0801	0.021057	0.002092	10.0655	157.004	-167.355	0.101571	0.577509	-0.387187	-0.388497	0.042389	10.0655	-0.390345	-97297.8	-4.356664E-7	NaN
313	1.000000	0.586787	7.36813e+06	-54289.1	955.818	-29744.4	0.000000	0.000000	6.586946	0.027913	NaN	0.000000	0.001628	0.001731	28.0801	0.148901	0.001904	78.2012	-35.1841	-168.109	0.058601	0.585469	-0.379220	-0.380537	0.027913	78.2012	-0.379487	-68003.2	-4.104658E-7	NaN
313	1.000000	0.594826	7.36813e+06	-54289.1	955.819	-29744.4	0.000000	0.000000	6.594986	0.032735	NaN	0.000000	0.001639	0.001766	28.0798	0.058181	0.001901	30.6087	-32.2287	-162.768	0.012745	0.593467	-0.371180	-0.372539	0.032735	30.6087	-0.371982	-53046.8	-6.170988E-7	NaN
313	1.000000	0.602827	7.36813e+06	-54289.1	955.817	-29744.4	0.000000	0.000000	6.602983	-0.058046	NaN	0.000000	0.001611	0.001783	28.0804	0.107932	0.001981	54.4938	-79.3113	-168.661	0.005957	0.601534	-0.363179	-0.364472	-0.058046	54.4938	-0.362380	-38568.5	1.505000E-6	NaN
313	1.000000	0.610802	7.36813e+06	-54289.1	955.818	-29744.4	0.000000	0.000000	6.610961	0.019925	NaN	0.000000	0.001596	0.001771	28.0799	0.082593	0.002059	40.1228	69.7142	-167.785	0.026915	0.609532	-0.355204	-0.356474	0.019925	40.1228	-0.355577	-30750.2	-6.479775E-7	NaN
313	1.000000	0.618803	7.36813e+06	-54289.1	955.819	-29744.4	0.000000	0.000000	6.618962	-0.010169	NaN	0.000000	0.001612	0.001749	28.0802	0.065596	0.002008	32.6623	14.4551	-168.198	-0.063526	0.617488	-0.347203	-0.348518	-0.010169	32.6623	-0.346969	-23066.6	4.408605E-7	NaN
313	1.000000	0.626852	7.36813e+06	-54289.1	955.818	-29744.4	0.000000	0.000000	6.627009	-0.028835	NaN	0.000000	0.001589	0.001763	28.08	0.078329	0.002014	38.8972	9.469778	-166.015	0.044542	0.625546	-0.339154	-0.340460	-0.028835	38.8972	-0.338598	-17422.6	1.655063E-6	NaN
313	1.000000	0.634844	7.36813e+06	-54289.1	955.819	-29744.4	0.000000	0.000000	6.635003	0.015729	NaN	0.000000	0.001610	0.001763	28.08	0.110751	0.001849	59.9068	-146.528	-168.755	0.035642	0.633481	-0.331162	-0.332525	0.015729	59.9068	-0.331359	-13656.7	-1.151736E-6	NaN
313	1.000000	0.642858	7.36813e+06	-54289.1	955.817	-29744.4	0.000000	0.000000	6.643013	-0.077468	NaN	0.000000	0.001610	0.001748	28.0804	0.019904	0.002004	9.932666	146.095	-167.772	-0.003843	0.641541	-0.323148	-0.324465	-0.077468	9.932666	-0.317299	-8488.84	9.125871E-6	NaN
313	1.000000	0.650846	7.36813e+06	-54289.1	955.818	-29744.4	0.000000	0.000000	6.651004	-0.005025	NaN	0.000000	0.001587	0.001738	28.0801	0.061108	0.002016	30.3039	130.437	-165.868	-0.013004	0.649534	-0.315160	-0.316472	-0.005025	30.3039	-0.315036	-7861	6.391715E-7	NaN
313	1.000000	0.658843	7.36813e+06	-54289.1	955.818	-29744.4	0.000000	0.000000	6.659001	-0.008358	NaN	0.000000	0.001602	0.001753	28.0797	0.086942	0.002021	43.0199	-116.528	-166.508	-0.035353	0.657563	-0.307163	-0.308443	-0.008358	43.0199	-0.307018	-5982.48	1.397086E-6	NaN
313	1.000000	0.666856	7.36813e+06	-54289.1	955.819	-29744.4	0.000000	0.000000	6.667012	-0.042714	NaN	0.000000	0.001613	0.001739	28.0787	0.027848	0.002083	13.3682	-50.3953	-161.901	0.028802	0.665525	-0.299150	-0.300481	-0.042714	13.3682	-0.296754	-4209.85	1.014620E-5	NaN
313	1.000000	0.674847	7.36813e+06	-54289.1	955.819	-29744.4	0.000000	0.000000	6.675006	0.004875	NaN	0.000000	0.001622	0.001728	28.0787	0.056046	0.002104	26.6324	42.2275	-164.102	0.042358	0.673597	-0.291159	-0.292409	0.004875	26.6324	-0.291296	-3489.09	-1.397320E-6	NaN
313	1.000000	0.682874	7.36813e+06	-54289.1	955.818	-29744.4	0.000000	0.000000	6.683033	0.015109	NaN	0.000000	0.001651	0.001739	28.0792	0.013871	0.001868	7.424284	165.248	-160.012	-0.045110	0.681545	-0.283132	-0.284461	0.015109	7.424284	-0.284659	-2774.19	-5.446458E-6	NaN
313	1.000000	0.690856	7.36813e+06	-54289.1	955.818	-29744.4	0.000000	0.000000	6.691014	-0.000142	NaN	0.000000	0.001632	0.001718	28.0787	0.034134	0.001927	17.7179	42.0221	-166.446	-0.014577	0.689560	-0.275151	-0.276446	-0.000142	17.7179	-0.275144	-1993.37	7.137619E-8	NaN
313	1.000000	0.698867	7.36813e+06	-54289.1	955.819	-29744.4	0.000000	0.000000	6.699027	0.031413	NaN	0.000000	0.001656	0.001744	28.0788	0.065776	0.001919	34.2826	154.5	-163.708	-0.006241	0.697491	-0.267139	-0.268515	0.031413	34.2826	-0.267826	-1543.37	-2.035343E-5	NaN
313	1.000000	0.706895	7.36813e+06	-54289.1	955.819	-29744.4	0.000000	0.000000	6.707053	-0.030343	NaN	0.000000	0.001644	0.001730	28.0788	0.085451	0.001910	44.7418	-112.056	-168.086	-0.061036	0.705549	-0.259111	-0.260457	-0.030343	44.7418	-0.258602	-1115.52	2.720112E-5	NaN
313	1.000000	0.714863	7.36813e+06	-54289.1	955.817	-29744.4	0.000000	0.000000	6.715024	0.054176	NaN	0.000000	0.001689	0.001729	28.0789	0.049803	0.002000	24.8991	17.9646	-164.245	0.042661	0.713574	-0.251143	-0.252432	0.054176	24.8991	-0.252774	-907.443	-5.970206E-5	NaN
313	1.000000	0.722878	7.36813e+06	-54289.1	955.818	-29744.4	0.000000	0.000000	6.723036	-0.025716	NaN	0.000000	0.001613	0.001740	28.079	0.086852	0.001929	45.019	-94.1893	-164.009	0.025250	0.721566	-0.243128	-0.244440	-0.025716	45.019	-0.242699	-633.37	4.060185E-5	NaN
313	1.000000	0.730866	7.36813e+06	-54289.1	955.818	-29744.4	0.000000	0.000000	6.731026	0.038304	NaN	0.000000	0.001619	0.001715	28.0787	0.028750	0.002026	14.1924	-137.272	-165.287	0.030752	0.729577	-0.235140	-0.236429	0.038304	14.1924	-0.237164	-519.029	-7.379889E-5	NaN
313	1.000000	0.738858	7.36813e+06	-54289.1	955.819	-29744.4	0.000000	0.000000	6.739016	-0.014579	NaN	0.000000	0.001635	0.001740	28.0788	0.105708	0.002016	52.4374	1.977799	-165.965	-0.073749	0.737569	-0.227148	-0.228437	-0.014579	52.4374	-0.226940	-358.187	4.070125E-5	NaN
313	1.000000	0.746854	7.36813e+06	-54289.1	955.818	-29744.4	0.000000	0.000000	6.747012	-0.029144	NaN	0.000000	0.001642	0.001751	28.0788	0.070572	0.001971	35.8022	-93.2643	-168.42	-0.010343	0.745574	-0.219152	-0.220432	-0.029144	35.8022	-0.218541	-263.233	0.000111	NaN
313	1.000000	0.754907	7.36813e+06	-54289.1	955.817	-29744.4	0.000000	0.000000	6.755066	0.020679	NaN	0.000000	0.001708	0.001743	28.0788	0.072528	0.002058	35.235	-80.3035	-160.606	-0.022393	0.753583	-0.211100	-0.212423	0.020679	35.235	-0.211540	-203.108	-0.000102	NaN
313	1.000000	0.762893	7.36813e+06	-54289.1	955.818	-29744.4	0.000000	0.000000	6.763053	0.023358	NaN	0.000000	0.001685	0.001732	28.0787	0.052982	0.002023	26.1951	95.8519	-167.108	-0.017003	0.761620	-0.203113	-0.204386	0.023358	26.1951	-0.203782	-151.939	-0.000154	NaN
313	1.000000	0.770904	7.36813e+06	-54289.1	955.819	-29744.4	0.000000	0.000000	6.771065	0.057850	NaN	0.000000	0.001709	0.001735	28.079	0.083542	0.002065	40.4549	63.2892	-165.271	0.050747	0.769554	-0.195102	-0.196452	0.057850	40.4549	-0.196175	-113.931	-0.000508	NaN
313	1.000000	0.778907	7.36813e+06	-54289.1	955.818	-29744.4	0.000000	0.000000	6.779065	-0.017568	NaN	0.000000	0.001691	0.001748	28.0789	0.127491	0.002061	61.8563	-91.0038	-168.223	-0.005184	0.777604	-0.187099	-0.188402	-0.017568	61.8563	-0.186886	-79.7745	0.000220	NaN
313	1.000000	0.786882	7.36813e+06	-54289.1	955.819	-29744.4	0.000000	0.000000	6.787037	-0.089868	NaN	0.000000	0.001673	0.001732	28.0788	0.073221	0.001964	37.2864	-89.0172	-167.673	-0.087704	0.785618	-0.179124	-0.180388	-0.089868	37.2864	-0.177316	-54.9141	0.001637	NaN
313	1.000000	0.794921	7.36813e+06	-54289.1	955.818	-29744.4	0.000000	0.000000	6.795081	0.031375	NaN	0.000000	0.001690	0.001700	28.0791	0.064470	0.002031	31.7394	-157.8	-168.336	0.105847	0.793628	-0.171085	-0.172378	0.031375	31.7394	-0.171826	-44.1837	-0.000710	NaN
313	1.000000	0.802924	7.36813e+06	-54289.1	955.818	-29744.4	0.000000	0.000000	6.803081	-0.043455	NaN	0.000000	0.001649	0.001692	28.0801	0.033968	0.002022	16.7969	-142.615	-168.614	-0.044167	0.801574	-0.163082	-0.164432	-0.043455	16.7969	-0.161142	-28.7241	0.001513	NaN
313	1.000000	0.810917	7.36813e+06	-54289.1	955.817	-29744.4	0.000000	0.000000	6.811073	-0.059210	NaN	0.000000	0.001674	0.001711	28.0802	0.071028	0.002003	35.4582	170.725	-166.093	0.010805	0.809620	-0.155089	-0.156386	-0.059210	35.4582	-0.153837	-21.2627	0.002785	NaN
313	1.000000	0.818920	7.36813e+06	-54289.1	955.818	-29744.4	0.000000	0.000000	6.819081	0.053555	NaN	0.000000	0.001710	0.001694	28.0801	0.058503	0.002021	28.9524	108.712	-164.849	-0.089415	0.817597	-0.147086	-0.148409	0.053555	28.9524	-0.148473	-16.9865	-0.003153	NaN
313	1.000000	0.826915	7.36813e+06	-54289.1	955.819	-29744.4	0.000000	0.000000	6.827074	0.022212	NaN	0.000000	0.001708	0.001726	28.0801	0.063748	0.001982	32.1687	-132.323	-163.695	-0.050755	0.825620	-0.139091	-0.140386	0.022212	32.1687	-0.139609	-11.6311	-0.001910	NaN
313	1.000000	0.834925	7.36813e+06	-54289.1	955.819	-29744.4	0.000000	0.000000	6.835085	0.050491	NaN	0.000000	0.001703	0.001712	28.0802	0.057992	0.001943	29.8443	39.2024	-166.956	0.038406	0.833605	-0.131081	-0.132401	0.050491	29.8443	-0.132350	-8.462058	-0.005967	NaN
313	1.000000	0.842948	7.36813e+06	-54289.1	955.817	-29744.4	0.000000	0.000000	6.843109	0.058320	NaN	0.000000	0.001629	0.001754	28.0801	0.107096	0.002108	50.809	-177.765	-163.735	0.024613	0.841657	-0.123058	-0.124349	0.058320	50.809	-0.123919	-5.788432	-0.010075	NaN
313	1.000000	0.850933	7.36813e+06	-54289.1	955.818	-29744.4	0.000000	0.000000	6.851092	0.003869	NaN	0.000000	0.001600	0.001739	28.0802	0.072624	0.002086	34.8128	24.7191	-161.816	0.030035	0.849587	-0.115073	-0.116419	0.003869	34.8128	-0.115156	-3.848745	-0.001005	NaN
313	1.000000	0.858905	7.36813e+06	-54289.1	955.818	-29744.4	0.000000	0.000000	6.859061	-0.061271	NaN	0.000000	0.001578	0.001701	28.0802	0.063880	0.001936	32.9953	23.676	-164.977	-0.011998	0.857633	-0.107101	-0.108373	-0.061271	32.9953	-0.105709	-2.434764	0.025165	NaN
313	1.000000	0.866942	7.36813e+06	-54289.1	955.818	-29744.4	0.000000	0.000000	6.867103	0.047450	NaN	0.000000	0.001624	0.001746	28.0803	0.044586	0.002041	21.8425	-129.481	-168.228	0.034197	0.865607	-0.099064	-0.100399	0.047450	21.8425	-0.100693	-1.892834	-0.025068	NaN
313	1.000000	0.874946	7.36813e+06	-54289.1	955.819	-29744.4	0.000000	0.000000	6.875105	-0.001433	NaN	0.000000	0.001623	0.001754	28.0802	0.077520	0.002054	37.7322	-150.758	-165.652	-0.046454	0.873598	-0.091060	-0.092408	-0.001433	37.7322	-0.091031	-1.142729	0.001254	NaN
313	1.000000	0.882940	7.36813e+06	-54289.1	955.817	-29744.4	0.000000	0.000000	6.883098	-0.013936	NaN	0.000000	0.001641	0.001738	28.0799	0.082233	0.001973	41.6793	-101.565	-168.236	-0.012816	0.881617	-0.083066	-0.084389	-0.013936	41.6793	-0.082815	-0.726825	0.019174	NaN
313	1.000000	0.890935	7.36813e+06	-54289.1	955.818	-29744.4	0.000000	0.000000	6.891096	0.038889	NaN	0.000000	0.001636	0.001767	28.0803	0.096239	0.001860	51.7372	25.4993	-163.986	0.030626	0.889652	-0.075071	-0.076354	0.038889	51.7372	-0.075634	-0.479617	-0.081083	NaN
313	1.000000	0.898961	7.36813e+06	-54289.1	955.819	-29744.4	0.000000	0.000000	6.899139	0.476916	NaN	0.000000	0.001626	0.001720	28.08	0.448954	0.002003	224.163	13.7897	-166.602	0.326767	0.897634	-0.067045	-0.068372	0.476916	224.163	-0.068640	-0.313542	-1.521058	NaN
313	1.000000	0.906956	7.36813e+06	-54289.1	955.817	-29744.4	0.000000	0.000000	6.907165	1.220960	NaN	0.000000	0.001646	0.001725	28.08	0.761376	0.001874	406.264	11.362	-170.113	1.116677	0.905657	-0.059050	-0.060349	1.220960	406.264	-0.061304	-0.196221	-6.222365	NaN
313	1.000000	0.914941	7.36813e+06	-54289.1	955.818	-29744.4	0.000000	0.000000	6.915187	2.148696	NaN	0.000000	0.001612	0.001732	28.0801	1.121732	0.001968	569.866	16.4379	-166.755	2.026614	0.913596	-0.051065	-0.052410	2.148696	569.866	-0.053893	-0.119409	-17.9944	NaN
313	1.000000	0.922945	7.36813e+06	-54289.1	955.818	-29744.4	0.000000	0.000000	6.923213	2.671801	NaN	0.000000	0.001636	0.001758	28.0802	1.093889	0.001961	557.934	17.7886	-165.847	2.648572	0.921678	-0.043061	-0.044328	2.671801	557.934	-0.046653	-0.072193	-37.0092	NaN
313	1.000000	0.930937	7.36813e+06	-54289.1	955.818	-29744.4	0.000000	0.000000	6.931211	2.816559	NaN	0.000000	0.001648	0.001752	28.0806	1.292434	0.001918	673.833	21.5016	-166.247	2.810299	0.929620	-0.035069	-0.036386	2.816559	673.833	-0.038204	-0.039904	-70.5834	NaN
313	1.000000	0.938944	7.36813e+06	-54289.1	955.818	-29744.4	0.000000	0.000000	6.939238	3.288657	NaN	0.000000	0.001665	0.001724	28.0787	1.333999	0.001940	687.551	19.7035	-166.282	3.199649	0.937679	-0.027062	-0.028327	3.288657	687.551	-0.030649	-0.023996	-137.052	NaN
313	1.000000	0.946965	7.36813e+06	-54289.1	955.818	-29744.4	0.000000	0.000000	6.947279	3.792678	NaN	0.000000	0.001650	0.001740	28.0792	1.533648	0.001949	786.897	20.6261	-169.35	3.736788	0.945671	-0.019041	-0.020335	3.792678	786.897	-0.022656	-0.014676	-258.428	NaN
313	1.000000	0.954959	7.36813e+06	-54289.1	955.818	-29744.4	0.000000	0.000000	6.955289	4.180258	NaN	0.000000	0.001652	0.001736	28.079	1.598400	0.002044	782.01	15.4033	-167.932	4.059640	0.953616	-0.011047	-0.012390	4.180258	782.01	-0.015056	-0.009309	-449.048	NaN
313	1.000000	0.962968	7.36813e+06	-54289.1	955.819	-29744.4	0.000000	0.000000	6.963338	5.154201	NaN	0.000000	0.001644	0.001742	28.0787	1.670500	0.001941	860.858	12.0349	-167.312	4.963583	0.961688	-0.003038	-0.004318	5.154201	860.858	-0.007529	-0.004955	-1040.3	NaN
313	1.000000	0.970945	7.36813e+06	-54289.1	955.819	-29744.4	0.000000	0.000000	6.971421	7.723420	NaN	0.000000	0.001672	0.001755	28.0791	4.790306	0.001808	2649.29	12.5492	-169.109	6.718247	0.969642	0.004939	0.003636	7.723420	2649.29	0.002753	0.002173	3554.68	51927.6
313	2.000000	0.974517	7.36813e+06	-54289.1	955.819	-29744.4	0.000000	0.000000	6.975057	9.277710	NaN	0.000000	0.001685	0.001758	28.0787	7.493283	0.001782	4205.92	8.314095	-172.512	9.004552	0.974192	0.008511	0.008186	9.277710	4205.92	0.006856	0.005892	1574.63	50061.4
313	2.000000	0.976488	7.36813e+06	-54289.1	955.819	-29744.4	0.000000	0.000000	6.977127	11.6972	NaN	0.000000	0.001648	0.001696	28.0789	9.875102	0.001787	5524.84	4.618084	-170.336	10.7456	0.976238	0.010482	0.010232	11.6972	5524.84	0.008894	0.007978	1466.21	56513.1
313	2.000000	0.978466	7.36813e+06	-54289.1	955.818	-29744.4	0.000000	0.000000	6.979254	15.304	NaN	0.000000	0.001630	0.001711	28.0788	12.191	0.001734	7029.38	5.495614	-172.782	14.7599	0.978145	0.012460	0.012139	15.304	7029.38	0.010827	0.010115	1513.04	63857.7
313	2.000000	0.980458	7.36813e+06	-54289.1	955.819	-29744.4	0.000000	0.000000	6.981295	16.4766	NaN	0.000000	0.001680	0.001735	28.0787	14.1854	0.001947	7287.59	9.584891	-174.838	16.6378	0.980204	0.014452	0.014198	16.4766	7287.59	0.012757	0.012409	1327.79	59770.8
313	2.000000	0.982485	7.36813e+06	-54289.1	955.819	-29744.4	0.000000	0.000000	6.983471	20.1184	NaN	0.000000	0.001693	0.001738	28.0793	15.9115	0.001753	9076.92	5.443320	-174.784	20.267	0.982138	0.016479	0.016132	20.1184	9076.92	0.014817	0.015042	1337.51	67618.1
313	2.000000	0.984447	7.36813e+06	-54289.1	955.819	-29744.4	0.000000	0.000000	6.985589	23.9155	NaN	0.000000	0.001640	0.001764	28.0788	18.715	0.001774	10547.6	9.163818	-179.867	23.9311	0.984118	0.018441	0.018112	23.9155	10547.6	0.016741	0.017677	1352.92	72481
313	2.000000	0.986443	7.36813e+06	-54289.1	955.819	-29744.4	0.000000	0.000000	6.987798	29.0802	NaN	0.000000	0.001639	0.001741	28.0793	20.5506	0.001849	11116.8	4.796675	-175.777	27.0449	0.986070	0.020437	0.020064	29.0802	11116.8	0.018476	0.020203	1439.39	71457
313	2.000000	0.988421	7.36813e+06	-54289.1	955.819	-29744.4	0.000000	0.000000	6.989902	32.1507	NaN	0.000000	0.001641	0.001760	28.0789	22.3313	0.001820	12269.3	10.4132	178.414	32.151	0.988119	0.022415	0.022113	32.1507	12269.3	0.020449	0.023253	1382.63	73510.7
313	2.000000	0.990415	7.36813e+06	-54289.1	955.82	-29744.4	0.000000	0.000000	6.992132	37.8922	NaN	0.000000	0.001615	0.001748	28.0787	24.8362	0.001890	13141.9	4.367799	-177.471	36.1562	0.990108	0.024409	0.024102	37.8922	13141.9	0.022246	0.026196	1446.49	74184.8
313	2.000000	0.992406	7.36813e+06	-54289.1	955.82	-29744.4	0.000000	0.000000	6.994284	41.8011	NaN	0.000000	0.001628	0.001773	28.0791	25.9669	0.001738	14941.6	5.229661	-179.756	41.4924	0.992169	0.026400	0.026163	41.8011	14941.6	0.024302	0.029758	1404.7	79134.7
313	2.000000	0.994437	7.36813e+06	-54289.1	955.818	-29744.4	0.000000	0.000000	6.996490	46.0671	NaN	0.000000	0.001629	0.001739	28.0785	28.4003	0.001859	15277.1	6.447224	-178.909	47.6032	0.994014	0.028431	0.028008	46.0671	15277.1	0.026169	0.033177	1388.53	76629.3
313	2.000000	0.996406	7.36813e+06	-54289.1	955.819	-29744.4	0.000000	0.000000	6.998702	51.9702	NaN	0.000000	0.001625	0.001766	28.0787	30.5477	0.001826	16730.6	7.745222	177.629	50.9989	0.996146	0.030400	0.030140	51.9702	16730.6	0.028070	0.036839	1410.74	79639.9
313	2.000000	0.998387	7.36813e+06	-54289.1	955.82	-29744.4	0.000000	0.000000	7.001016	60.0486	NaN	0.000000	0.001607	0.001754	28.0796	31.7795	0.001861	17074.2	4.876511	-179.676	58.5468	0.998044	0.032381	0.032038	60.0486	17074.2	0.029744	0.040214	1493.23	77790.3
313	2.000000	1.000403	7.36813e+06	-54289.1	955.819	-29744.4	0.000000	0.000000	7.003256	65.5131	NaN	0.000000	0.001632	0.001744	28.0798	35.8252	0.001810	19796.5	11.2788	170.887	64.4339	1.000141	0.034397	0.034135	65.5131	19796.5	0.031915	0.044806	1462.16	85446.6
313	2.000000	1.002423	7.36813e+06	-54289.1	955.821	-29744.4	0.000000	0.000000	7.005585	73.0167	NaN	0.000000	0.001625	0.001735	28.08	35.7051	0.001779	20072.2	3.967631	179.011	73.2826	1.002096	0.036417	0.036090	73.0167	20072.2	0.033689	0.048737	1498.18	83069
313	2.000000	1.004379	7.36813e+06	-54289.1	955.819	-29744.4	0.000000	0.000000	7.007870	81.0239	NaN	0.000000	0.001641	0.001725	28.0796	38.7747	0.001928	20107.7	8.405652	175.032	79.8881	1.004059	0.038373	0.038053	81.0239	20107.7	0.035350	0.052565	1541.4	80128.4
313	2.000000	1.006391	7.36813e+06	-54289.1	955.82	-29744.4	0.000000	0.000000	7.010168	87.9608	NaN	0.000000	0.001599	0.001709	28.0802	39.7737	0.001712	23237.9	4.500228	176.888	86.7894	1.006120	0.040385	0.040114	87.9608	23237.9	0.037546	0.057840	1520.76	88278.7
313	2.000000	1.008417	7.36813e+06	-54289.1	955.82	-29744.4	0.000000	0.000000	7.012607	97.9986	NaN	0.000000	0.001633	0.001734	28.0799	40.3822	0.001717	23520.3	2.590434	179.457	97.1566	1.008058	0.042411	0.042052	97.9986	23520.3	0.039286	0.062197	1575.62	86165.2
313	2.000000	1.010367	7.36813e+06	-54289.1	955.82	-29744.4	0.000000	0.000000	7.014840	104.885	NaN	0.000000	0.001638	0.001718	28.0798	43.6156	0.001733	25171.9	2.807928	177.887	102.638	1.010062	0.044361	0.044056	104.885	25171.9	0.041236	0.067262	1559.35	88675.8
313	2.000000	1.012356	7.36813e+06	-54289.1	955.819	-29744.4	0.000000	0.000000	7.017254	115.215	NaN	0.000000	0.001632	0.001668	28.0797	45.132	0.001830	24668.1	6.093966	175.252	113.636	1.012081	0.046350	0.046075	115.215	24668.1	0.042847	0.071593	1609.31	84231.5
313	2.000000	1.014387	7.36813e+06	-54289.1	955.82	-29744.4	0.000000	0.000000	7.019459	119.441	NaN	0.000000	0.001647	0.001640	28.0797	48.1438	0.001803	26696.3	6.039012	174.208	119.377	1.014016	0.048381	0.048010	119.441	26696.3	0.045025	0.077660	1538	87524
313	2.000000	1.016388	7.36813e+06	-54289.1	955.819	-29744.4	0.000000	0.000000	7.021986	132.228	NaN	0.000000	0.001600	0.001666	28.0803	50.3845	0.001860	27091.6	5.394309	175.396	131.029	1.016067	0.050382	0.050061	132.228	27091.6	0.046721	0.082549	1601.81	86149.2
313	2.000000	1.018362	7.36813e+06	-54289.1	955.82	-29744.4	0.000000	0.000000	7.024250	139.29	NaN	0.000000	0.001639	0.001641	28.0799	51.9811	0.001787	29085.2	6.373327	172.757	138.015	1.018049	0.052356	0.052043	139.29	29085.2	0.048764	0.088630	1571.58	89259.4
313	2.000000	1.020416	7.36813e+06	-54289.1	955.82	-29744.4	0.000000	0.000000	7.026589	146.202	NaN	0.000000	0.001632	0.001668	28.0798	53.7595	0.001689	31820.3	1.583308	177.32	147.464	1.020044	0.054410	0.054038	146.202	31820.3	0.050964	0.095417	1532.24	94116
313	2.000000	1.022373	7.36813e+06	-54289.1	955.82	-29744.4	0.000000	0.000000	7.029002	157.294	NaN	0.000000	0.001616	0.001651	28.0797	54.906	0.001647	33334.2	6.992287	171.274	156.878	1.022035	0.056367	0.056029	157.294	33334.2	0.052828	0.101356	1551.9	95661.9
313	2.000000	1.024375	7.36813e+06	-54289.1	955.818	-29744.4	0.000000	0.000000	7.031444	167.997	NaN	0.000000	0.001659	0.001661	28.0797	58.0839	0.001870	31054.4	7.015764	173.828	168.029	1.023950	0.058369	0.057944	167.997	31054.4	0.054312	0.106205	1581.82	87061.2
313	2.000000	1.026400	7.36813e+06	-54289.1	955.819	-29744.4	0.000000	0.000000	7.033849	177.232	NaN	0.000000	0.001640	0.001682	28.0803	59.789	0.001779	33600.7	9.621164	169.497	177.239	1.025995	0.060394	0.059989	177.232	33600.7	0.056438	0.113347	1563.62	91183.2
313	2.000000	1.028330	7.36813e+06	-54289.1	955.818	-29744.4	0.000000	0.000000	7.036160	186.513	NaN	0.000000	0.001625	0.001683	28.08	60.7599	0.001632	37229.2	6.356242	170.921	186.11	1.028093	0.062324	0.062087	186.513	37229.2	0.058566	0.120718	1545.04	97897.4
313	2.000000	1.030413	7.36813e+06	-54289.1	955.818	-29744.4	0.000000	0.000000	7.038631	195.925	NaN	0.000000	0.001605	0.001679	28.0798	64.3445	0.001848	34814.4	5.605784	172.086	196.28	1.030063	0.064407	0.064057	195.925	34814.4	0.060186	0.126478	1549.09	89438.6
313	2.000000	1.032427	7.36813e+06	-54289.1	955.818	-29744.4	0.000000	0.000000	7.041201	209.462	NaN	0.000000	0.001642	0.001713	28.0785	65.6589	0.001823	36020.3	7.673887	170.223	212.69	1.032026	0.066421	0.066020	209.462	36020.3	0.062059	0.133296	1571.4	90138.6
313	2.000000	1.034358	7.36813e+06	-54289.1	955.819	-29744.4	0.000000	0.000000	7.043443	217.008	NaN	0.000000	0.001706	0.001689	28.0783	67.6147	0.001793	37708.3	4.159256	173.23	215.481	1.034153	0.068352	0.068147	217.008	37708.3	0.064036	0.140678	1542.58	91853.8
313	2.000000	1.036331	7.36813e+06	-54289.1	955.818	-29744.4	0.000000	0.000000	7.046216	236.452	NaN	0.000000	0.001627	0.001682	28.0788	69.4681	0.001859	37375.2	2.399553	176.011	232.749	1.035952	0.070325	0.069946	236.452	37375.2	0.065580	0.146576	1613.17	89191.9
313	2.000000	1.038318	7.36813e+06	-54289.1	955.819	-29744.4	0.000000	0.000000	7.048574	245.474	NaN	0.000000	0.001667	0.001662	28.0788	71.4982	0.001895	37724.4	6.324981	171.824	245.456	1.037970	0.072312	0.071964	245.474	37724.4	0.067432	0.153799	1596.07	87885.9
313	2.000000	1.040295	7.36813e+06	-54289.1	955.819	-29744.4	0.000000	0.000000	7.051155	260.152	NaN	0.000000	0.001664	0.001684	28.0788	72.6715	0.001758	41329.5	4.256023	172.792	256.634	1.039982	0.074289	0.073976	260.152	41329.5	0.069568	0.162337	1602.55	93718.4
313	2.000000	1.042385	7.36813e+06	-54289.1	955.819	-29744.4	0.000000	0.000000	7.053741	272.236	NaN	0.000000	0.001613	0.001645	28.0786	73.1704	0.001744	41957.7	2.223858	174.958	273.246	1.041976	0.076379	0.075970	272.236	41957.7	0.071513	0.170295	1598.61	92893.2
313	2.000000	1.044276	7.36813e+06	-54289.1	955.819	-29744.4	0.000000	0.000000	7.056302	288.517	NaN	0.000000	0.001605	0.001682	28.0785	77.2578	0.001774	43543.6	4.797630	171.898	284.12	1.043944	0.078270	0.077938	288.517	43543.6	0.073300	0.177772	1622.96	94355.1
313	2.000000	1.046271	7.36813e+06	-54289.1	955.819	-29744.4	0.000000	0.000000	7.058771	300.033	NaN	0.000000	0.001616	0.001693	28.0786	78.2461	0.001760	44464.5	3.296929	173.288	294.329	1.045934	0.080265	0.079928	300.033	44464.5	0.075204	0.185900	1613.95	94220.9
313	2.000000	1.048302	7.36813e+06	-54289.1	955.819	-29744.4	0.000000	0.000000	7.061402	314.601	NaN	0.000000	0.001649	0.001719	28.0786	80.8853	0.001843	43881.1	6.033744	170.993	313.126	1.048023	0.082296	0.082017	314.601	43881.1	0.076919	0.193368	1626.95	91171.3
313	2.000000	1.050380	7.36813e+06	-54289.1	955.819	-29744.4	0.000000	0.000000	7.063823	322.951	NaN	0.000000	0.001649	0.001683	28.0791	83.336	0.001794	46440	3.977116	171.879	325.693	1.050163	0.084374	0.084157	322.951	46440	0.079159	0.203326	1588.34	94095.5
313	2.000000	1.052338	7.36813e+06	-54289.1	955.819	-29744.4	0.000000	0.000000	7.066562	341.947	NaN	0.000000	0.001682	0.001674	28.0786	84.4674	0.001757	48083.5	6.291942	169.49	340.931	1.052034	0.086332	0.086028	341.947	48083.5	0.080998	0.211681	1615.39	95483.6
313	2.000000	1.054341	7.36813e+06	-54289.1	955.819	-29744.4	0.000000	0.000000	7.069114	355.295	NaN	0.000000	0.001649	0.001703	28.0787	87.7588	0.001871	46908.7	7.317873	168.857	357.501	1.054050	0.088335	0.088044	355.295	46908.7	0.082654	0.219339	1619.84	91510.1
313	2.000000	1.056332	7.36813e+06	-54289.1	955.819	-29744.4	0.000000	0.000000	7.071913	374.947	NaN	0.000000	0.001683	0.001668	28.0786	88.7165	0.001815	48885	4.965521	171.231	373.286	1.055938	0.090326	0.089932	374.947	48885	0.084573	0.228369	1641.85	93460.9
313	2.000000	1.058348	7.36813e+06	-54289.1	955.819	-29744.4	0.000000	0.000000	7.074597	391.181	NaN	0.000000	0.001675	0.001711	28.0784	89.2841	0.001747	51112.2	5.825982	170.475	391.015	1.057891	0.092342	0.091885	391.181	51112.2	0.086602	0.238101	1642.92	95701.1
313	2.000000	1.060346	7.36813e+06	-54289.1	955.82	-29744.4	0.000000	0.000000	7.076800	396.151	NaN	0.000000	0.001649	0.001696	28.0789	92.7087	0.001772	52322.9	4.318158	170.579	397.262	1.060114	0.094340	0.094108	396.151	52322.9	0.088662	0.248179	1596.23	95958.3
313	2.000000	1.062309	7.36813e+06	-54289.1	955.82	-29744.4	0.000000	0.000000	7.079797	421.283	NaN	0.000000	0.001689	0.001702	28.0788	92.9805	0.001837	50610.9	4.665787	170.929	419.307	1.062051	0.096303	0.096045	421.283	50610.9	0.090060	0.255130	1651.25	91545.4
313	2.000000	1.064345	7.36813e+06	-54289.1	955.82	-29744.4	0.000000	0.000000	7.082346	433.761	NaN	0.000000	0.001628	0.001685	28.0788	95.8251	0.001788	53587.1	7.607461	168.015	434.079	1.063958	0.098339	0.097952	433.761	53587.1	0.092268	0.266291	1628.9	94875.8
313	2.000000	1.066327	7.36813e+06	-54289.1	955.819	-29744.4	0.000000	0.000000	7.085078	451.99	NaN	0.000000	0.001623	0.001640	28.0797	96.4103	0.001726	55854.4	2.272969	173.05	449.726	1.065988	0.100321	0.099982	451.99	55854.4	0.094252	0.276505	1634.65	97046.2
313	2.000000	1.068158	7.36813e+06	-54289.1	955.819	-29744.4	0.000000	0.000000	7.087594	468.635	NaN	0.000000	0.001648	0.001669	28.0798	98.0602	0.001717	57105.9	2.732189	171.849	458.08	1.067904	0.102152	0.101898	468.635	57105.9	0.095998	0.285643	1640.63	97620.9
313	2.000000	1.070364	7.36813e+06	-54289.1	955.82	-29744.4	0.000000	0.000000	7.090460	484.687	NaN	0.000000	0.001639	0.001695	28.08	101.752	0.001785	56990.1	3.297062	171.288	485.783	1.069979	0.104358	0.103973	484.687	56990.1	0.097980	0.296187	1636.42	95673.1
313	2.000000	1.071211	7.36813e+06	-54289.1	955.819	-29744.4	0.000000	0.000000	7.091866	498.288	NaN	0.000000	0.001648	0.001698	28.0797	101.693	0.001707	59581.2	4.497416	170.162	492.626	1.070867	0.105205	0.104861	498.288	59581.2	0.098932	0.301319	1653.69	99167.4