File: remote_trans/data/nanoindenter/0828-1/data/Data_2025-08-06,11h17m57s/2025-07-22_16-23-58_1_667.txt
2025-07-22, 16:23:58, 1
Index	Phase	Displacement	Time	Pos X	Pos Y	Pos Z	Rot A	Rot B	Piezo Z	Force A	Force B	Gripper	Voltage A	Voltage B	Temperature	Amplitude force	Amplitude pos	Stiffness	Phase shift	Phase excitation	Force A raw	Displacement raw	HMax	HMax raw	Real Force	Real Stiffness	Contact Depth	Area	Hardness	Reduced Mod.
[#]	[#]	[um]	[s]	[um]	[um]	[um]	[m°]	[m°]	[um]	[uN]	[uN]	[V]	[V]	[V]	[°C]	[uN]	[um]	[N/m]	[°]	[°]	[uN]	[um]	[um]	[um]	[uN]	[N/m]	[um]	[um^2]	[MPa]	[MPa]
667	1.000000	0.002141	7.37157e+06	-43739.1	1005.82	-29777.8	0.000000	0.000000	6.002755	-0.039107	NaN	0.000000	0.001623	0.001687	28.0829	0.063083	0.001164	54.1832	-80.883	-172.6	-0.178974	0.000890	-1.240345	-1.241596	-0.039107	54.1832	-1.239803	-3.745517E+16	1.044103E-18	NaN
667	1.000000	0.012245	7.37157e+06	-43739.1	1005.82	-29777.8	0.000000	0.000000	6.012858	-0.053139	NaN	0.000000	0.001651	0.001699	28.083	0.030930	0.001144	27.046	-32.0208	20.925	-0.050022	0.010785	-1.230241	-1.231700	-0.053139	27.046	-1.228767	-2.665875E+16	1.993320E-18	NaN
667	1.000000	0.022131	7.37157e+06	-43739.1	1005.82	-29777.8	0.000000	0.000000	6.022748	0.023425	NaN	0.000000	0.001647	0.001690	28.0828	0.083069	0.001701	48.8468	157.078	-166.802	0.077350	0.020782	-1.220355	-1.221703	0.023425	48.8468	-1.220714	-2.080002E+16	-1.126202E-18	NaN
667	1.000000	0.032104	7.37157e+06	-43739.1	1005.82	-29777.8	0.000000	0.000000	6.032721	0.006106	NaN	0.000000	0.001628	0.001686	28.0831	0.052878	0.001978	26.7394	-116.029	15.1857	-0.058038	0.030780	-1.210381	-1.211705	0.006106	26.7394	-1.210552	-1.520659E+16	-4.015492E-19	NaN
667	1.000000	0.042148	7.37157e+06	-43739.1	1005.82	-29777.8	0.000000	0.000000	6.042763	-0.009907	NaN	0.000000	0.001612	0.001732	28.0832	0.037545	0.001939	19.3579	59.9348	-164.787	-0.045977	0.040810	-1.200338	-1.201676	-0.009907	19.3579	-1.199954	-1.096807E+16	9.032560E-19	NaN
667	1.000000	0.052136	7.37157e+06	-43739.1	1005.82	-29777.8	0.000000	0.000000	6.052752	-0.007869	NaN	0.000000	0.001630	0.001742	28.0831	0.067702	0.001827	37.0599	157.406	18.9003	-0.031537	0.050765	-1.190349	-1.191720	-0.007869	37.0599	-1.190190	-8.116511E+15	9.694442E-19	NaN
667	1.000000	0.062146	7.37157e+06	-43739.1	1005.82	-29777.8	0.000000	0.000000	6.062762	0.004388	NaN	0.000000	0.001612	0.001790	28.0826	0.176422	0.001976	89.2664	-78.2989	-162.724	-0.137599	0.060802	-1.180339	-1.181683	0.004388	89.2664	-1.180376	-5.996657E+15	-7.317878E-19	NaN
667	1.000000	0.072135	7.37157e+06	-43739.1	1005.82	-29777.8	0.000000	0.000000	6.072749	-0.040403	NaN	0.000000	0.001626	0.001745	28.0827	0.160142	0.002098	76.3186	-149.055	13.1967	0.052174	0.070786	-1.170350	-1.171699	-0.040403	76.3186	-1.169953	-4.347712E+15	9.292973E-18	NaN
667	1.000000	0.082161	7.37157e+06	-43739.1	1005.82	-29777.8	0.000000	0.000000	6.082779	0.067863	NaN	0.000000	0.001644	0.001755	28.0828	0.011493	0.001950	5.894686	76.763	-164.469	0.064040	0.080839	-1.160325	-1.161647	0.067863	5.894686	-1.168959	-4.216354E+15	-1.609518E-17	NaN
667	1.000000	0.092126	7.37157e+06	-43739.1	1005.82	-29777.8	0.000000	0.000000	6.092743	0.016758	NaN	0.000000	0.001644	0.001759	28.084	0.026731	0.002039	13.1124	-58.8062	17.0284	0.000355	0.090737	-1.150359	-1.151749	0.016758	13.1124	-1.151318	-2.446166E+15	-6.850724E-18	NaN
667	1.000000	0.102146	7.37157e+06	-43739.1	1005.82	-29777.8	0.000000	0.000000	6.102762	-0.002896	NaN	0.000000	0.001632	0.001801	28.0837	0.069925	0.002075	33.6956	138.174	-166.348	0.043412	0.100829	-1.140339	-1.141656	-0.002896	33.6956	-1.140275	-1.739485E+15	1.664718E-18	NaN
667	1.000000	0.112167	7.37157e+06	-43739.1	1005.82	-29777.8	0.000000	0.000000	6.112782	-0.024036	NaN	0.000000	0.001660	0.001771	28.084	0.045165	0.002026	22.2876	105.82	15.6435	-0.072865	0.110793	-1.130318	-1.131692	-0.024036	22.2876	-1.129509	-1.247490E+15	1.926733E-17	NaN
667	1.000000	0.122163	7.37157e+06	-43739.1	1005.82	-29777.8	0.000000	0.000000	6.122777	-0.022630	NaN	0.000000	0.001648	0.001759	28.0839	0.106359	0.002165	49.1354	-27.8188	-164.412	0.099392	0.120872	-1.120323	-1.121613	-0.022630	49.1354	-1.119977	-9.293251E+14	2.435144E-17	NaN
667	1.000000	0.132141	7.37157e+06	-43739.1	1005.82	-29777.8	0.000000	0.000000	6.132758	0.031736	NaN	0.000000	0.001626	0.001758	28.084	0.010742	0.002124	5.057058	-2.542362	14.3003	0.027034	0.130792	-1.110344	-1.111693	0.031736	5.057058	-1.115051	-7.981188E+14	-3.976351E-17	NaN
667	1.000000	0.142125	7.37157e+06	-43739.1	1005.82	-29777.8	0.000000	0.000000	6.142742	0.015850	NaN	0.000000	0.001619	0.001739	28.0841	0.068996	0.002064	33.421	-133.549	-165.791	-0.050471	0.140884	-1.100360	-1.101601	0.015850	33.421	-1.100716	-5.124756E+14	-3.092789E-17	NaN
667	1.000000	0.152182	7.37157e+06	-43739.1	1005.82	-29777.9	0.000000	0.000000	6.152796	-0.051264	NaN	0.000000	0.001660	0.001755	28.0844	0.061941	0.001996	31.0267	102.146	14.0881	-0.092518	0.150798	-1.090303	-1.091687	-0.051264	31.0267	-1.089064	-3.574736E+14	1.434070E-16	NaN
667	1.000000	0.162182	7.37157e+06	-43739.1	1005.82	-29777.9	0.000000	0.000000	6.162797	-0.029878	NaN	0.000000	0.001656	0.001786	28.0841	0.046532	0.002000	23.2642	-27.8602	-164.954	-0.032857	0.160887	-1.080303	-1.081598	-0.029878	23.2642	-1.079340	-2.646393E+14	1.128999E-16	NaN
667	1.000000	0.172151	7.37158e+06	-43739.1	1005.82	-29777.9	0.000000	0.000000	6.172768	0.022776	NaN	0.000000	0.001677	0.001765	28.0842	0.063516	0.001985	31.9909	15.1189	16.8745	0.081418	0.170819	-1.070334	-1.071666	0.022776	31.9909	-1.070868	-2.036329E+14	-1.118486E-16	NaN
667	1.000000	0.182189	7.37158e+06	-43739.1	1005.82	-29777.9	0.000000	0.000000	6.182806	0.018494	NaN	0.000000	0.001664	0.001779	28.0842	0.038228	0.002014	18.9834	93.8005	-166.673	-0.010380	0.180845	-1.060296	-1.061640	0.018494	18.9834	-1.061027	-1.501821E+14	-1.231446E-16	NaN
667	1.000000	0.192189	7.37158e+06	-43739.1	1005.82	-29777.9	0.000000	0.000000	6.192806	0.034215	NaN	0.000000	0.001688	0.001733	28.0842	0.071602	0.002011	35.6079	-173.416	15.143	0.015640	0.190779	-1.050296	-1.051706	0.034215	35.6079	-1.051017	-1.101752E+14	-3.105486E-16	NaN
667	1.000000	0.202198	7.37158e+06	-43739.1	1005.82	-29777.9	0.000000	0.000000	6.202814	-0.000900	NaN	0.000000	0.001664	0.001728	28.0844	0.041705	0.001984	21.0249	-101.03	-163.674	-0.041808	0.200835	-1.040288	-1.041650	-0.000900	21.0249	-1.040255	-7.895910E+13	1.140091E-17	NaN
667	1.000000	0.212235	7.37158e+06	-43739.1	1005.82	-29777.9	0.000000	0.000000	6.212850	-0.007885	NaN	0.000000	0.001681	0.001739	28.0842	0.121225	0.002053	59.054	41.4961	16.7186	0.037554	0.210811	-1.030251	-1.031674	-0.007885	59.054	-1.030151	-5.774384E+13	1.365535E-16	NaN
667	1.000000	0.222217	7.37158e+06	-43739.1	1005.82	-29777.9	0.000000	0.000000	6.222833	0.007681	NaN	0.000000	0.001725	0.001727	28.0845	0.074805	0.001995	37.4974	-71.3248	-166.639	-0.051077	0.220891	-1.020269	-1.021594	0.007681	37.4974	-1.020422	-4.272021E+13	-1.797867E-16	NaN
667	1.000000	0.232197	7.37158e+06	-43739.1	1005.82	-29777.9	0.000000	0.000000	6.232814	0.017509	NaN	0.000000	0.001686	0.001732	28.0828	0.054793	0.002056	26.6496	-112.904	16.0317	-0.004330	0.230863	-1.010288	-1.011622	0.017509	26.6496	-1.010781	-3.168747E+13	-5.525408E-16	NaN
667	1.000000	0.242188	7.37158e+06	-43739.1	1005.82	-29777.9	0.000000	0.000000	6.242802	-0.031905	NaN	0.000000	0.001724	0.001725	28.0831	0.029394	0.002038	14.4251	22.6939	-165.351	0.018311	0.240922	-1.000297	-1.001564	-0.031905	14.4251	-0.998639	-2.174901E+13	1.466970E-15	NaN
667	1.000000	0.252222	7.37158e+06	-43739.1	1005.82	-29777.9	0.000000	0.000000	6.252839	0.017981	NaN	0.000000	0.001694	0.001744	28.083	0.020448	0.001991	10.2715	90.3248	16.7232	0.024194	0.250855	-0.990263	-0.991631	0.017981	10.2715	-0.991576	-1.747187E+13	-1.029149E-15	NaN
667	1.000000	0.262235	7.37158e+06	-43739.1	1005.82	-29777.9	0.000000	0.000000	6.262851	6.770166E-5	NaN	0.000000	0.001692	0.001783	28.0832	0.146587	0.002022	72.4781	-8.732504	-163.754	0.014192	0.260882	-0.980250	-0.981603	6.770166E-5	72.4781	-0.980251	-1.229674E+13	-5.505660E-18	NaN
667	1.000000	0.272213	7.37158e+06	-43739.1	1005.82	-29777.9	0.000000	0.000000	6.272828	-0.029107	NaN	0.000000	0.001646	0.001734	28.0829	0.077793	0.001966	39.5735	131.501	13.7647	0.041882	0.270870	-0.970272	-0.971615	-0.029107	39.5735	-0.969720	-8.869376E+12	3.281731E-15	NaN
667	1.000000	0.282250	7.37158e+06	-43739.1	1005.82	-29777.9	0.000000	0.000000	6.282865	-0.012737	NaN	0.000000	0.001693	0.001732	28.0832	0.180740	0.001902	95.0105	60.6069	-166.426	0.037454	0.280861	-0.960235	-0.961624	-0.012737	95.0105	-0.960135	-6.586987E+12	1.933648E-15	NaN
667	1.000000	0.292230	7.37158e+06	-43739.1	1005.82	-29777.9	0.000000	0.000000	6.292847	0.030330	NaN	0.000000	0.001709	0.001781	28.0832	0.034273	0.001948	17.5962	-151.007	16.9616	-0.002709	0.290893	-0.950255	-0.951592	0.030330	17.5962	-0.951548	-5.045514E+12	-6.011262E-15	NaN
667	1.000000	0.302270	7.37158e+06	-43739.1	1005.82	-29777.9	0.000000	0.000000	6.302888	0.046862	NaN	0.000000	0.001681	0.001733	28.083	0.103033	0.002005	51.3885	-162.828	-164.689	-0.072720	0.300907	-0.940215	-0.941579	0.046862	51.3885	-0.940899	-3.624633E+12	-1.292872E-14	NaN
667	1.000000	0.312238	7.37158e+06	-43739.1	1005.82	-29777.9	0.000000	0.000000	6.312853	-0.003897	NaN	0.000000	0.001670	0.001761	28.0828	0.133492	0.002049	65.1529	-105.472	13.7952	0.008235	0.310914	-0.930248	-0.931572	-0.003897	65.1529	-0.930203	-2.599766E+12	1.498937E-15	NaN
667	1.000000	0.322233	7.37158e+06	-43739.1	1005.82	-29777.9	0.000000	0.000000	6.322850	0.014576	NaN	0.000000	0.001666	0.001734	28.0828	0.073916	0.002032	36.3766	2.231552	-162.843	-0.022980	0.320962	-0.920252	-0.921524	0.014576	36.3766	-0.920553	-1.926049E+12	-7.567744E-15	NaN
667	1.000000	0.332253	7.37158e+06	-43739.1	1005.82	-29777.9	0.000000	0.000000	6.332869	-0.002263	NaN	0.000000	0.001658	0.001769	28.083	0.030867	0.001939	15.9163	-89.0045	16.2705	0.024028	0.330917	-0.910232	-0.911568	-0.002263	15.9163	-0.910126	-1.392704E+12	1.624761E-15	NaN
667	1.000000	0.342245	7.37158e+06	-43739.1	1005.82	-29777.9	0.000000	0.000000	6.342861	-0.006333	NaN	0.000000	0.001689	0.001767	28.0828	0.065058	0.001911	34.045	114.197	-164.371	-0.016133	0.340948	-0.900240	-0.901537	-0.006333	34.045	-0.900101	-1.019594E+12	6.211322E-15	NaN
667	1.000000	0.352241	7.37158e+06	-43739.1	1005.82	-29777.9	0.000000	0.000000	6.352856	-0.001880	NaN	0.000000	0.001670	0.001793	28.0829	0.033579	0.001983	16.9321	68.6081	13.4987	-0.024783	0.350903	-0.890245	-0.891582	-0.001880	16.9321	-0.890161	-7.483339E+11	2.512326E-15	NaN
667	1.000000	0.362269	7.37158e+06	-43739.1	1005.82	-29777.9	0.000000	0.000000	6.362883	-0.040031	NaN	0.000000	0.001681	0.001773	28.0844	0.089217	0.001972	45.2357	139.469	-164.919	-0.072885	0.360981	-0.880217	-0.881504	-0.040031	45.2357	-0.879553	-5.378494E+11	7.442705E-14	NaN
667	1.000000	0.372255	7.37158e+06	-43739.1	1005.82	-29777.9	0.000000	0.000000	6.372870	-0.010587	NaN	0.000000	0.001695	0.001760	28.0845	0.001772	0.001934	0.915966	-3.694905	15.1717	0.013645	0.370863	-0.870231	-0.871623	-0.010587	0.915966	-0.861562	-3.070904E+11	3.447367E-14	NaN
667	1.000000	0.382279	7.37158e+06	-43739.1	1005.82	-29777.9	0.000000	0.000000	6.382893	-0.046388	NaN	0.000000	0.001682	0.001770	28.0844	0.130557	0.002171	60.1435	-125.509	-166.206	-0.052310	0.380962	-0.860206	-0.861523	-0.046388	60.1435	-0.859628	-2.891229E+11	1.604423E-13	NaN
667	1.000000	0.392255	7.37158e+06	-43739.1	1005.82	-29777.9	0.000000	0.000000	6.392871	0.004720	NaN	0.000000	0.001730	0.001730	28.0843	0.031826	0.001964	16.2038	-43.8514	16.5827	0.013976	0.390874	-0.850230	-0.851611	0.004720	16.2038	-0.850449	-2.171760E+11	-2.173242E-14	NaN
667	1.000000	0.402277	7.37158e+06	-43739.1	1005.82	-29777.9	0.000000	0.000000	6.402891	-0.060435	NaN	0.000000	0.001610	0.001732	28.0846	0.124161	0.002075	59.8253	43.439	-165.706	-0.016827	0.400979	-0.840208	-0.841506	-0.060435	59.8253	-0.839450	-1.541153E+11	3.921428E-13	NaN
667	1.000000	0.412264	7.37158e+06	-43739.1	1005.82	-29777.9	0.000000	0.000000	6.412880	-0.003793	NaN	0.000000	0.001611	0.001706	28.0842	0.094852	0.001979	47.9297	25.3506	16.1445	-0.056085	0.410943	-0.830221	-0.831543	-0.003793	47.9297	-0.830162	-1.153387E+11	3.288972E-14	NaN
667	1.000000	0.422264	7.37158e+06	-43739.1	1005.82	-29777.9	0.000000	0.000000	6.422880	-0.005937	NaN	0.000000	0.001608	0.001730	28.0846	0.045964	0.001992	23.0759	44.9766	-164.941	0.010843	0.420990	-0.820221	-0.821495	-0.005937	23.0759	-0.820028	-8.406046E+10	7.062342E-14	NaN
667	1.000000	0.432266	7.37158e+06	-43739.1	1005.82	-29777.9	0.000000	0.000000	6.432883	0.025504	NaN	0.000000	0.001609	0.001755	28.0843	0.062131	0.002036	30.5205	-41.8321	16.6806	-0.049848	0.430957	-0.810219	-0.811528	0.025504	30.5205	-0.810846	-6.310324E+10	-4.041682E-13	NaN
667	1.000000	0.442327	7.37158e+06	-43739.1	1005.82	-29777.9	0.000000	0.000000	6.442943	0.013517	NaN	0.000000	0.001594	0.001754	28.0845	0.130420	0.001947	66.9902	-83.7	-163.17	-0.031913	0.440985	-0.800159	-0.801500	0.013517	66.9902	-0.800310	-4.540146E+10	-2.977315E-13	NaN
667	1.000000	0.452313	7.37158e+06	-43739.1	1005.82	-29777.9	0.000000	0.000000	6.452930	0.024183	NaN	0.000000	0.001597	0.001723	28.084	0.057856	0.001863	31.0597	151.886	13.788	0.075048	0.450931	-0.790172	-0.791554	0.024183	31.0597	-0.790756	-3.367872E+10	-7.180439E-13	NaN
667	1.000000	0.462293	7.37158e+06	-43739.1	1005.82	-29777.9	0.000000	0.000000	6.462908	-0.014042	NaN	0.000000	0.001615	0.001725	28.0843	0.129681	0.001889	68.641	71.3108	-166.664	-0.008531	0.461001	-0.780193	-0.781484	-0.014042	68.641	-0.780039	-2.408592E+10	5.830089E-13	NaN
667	1.000000	0.472304	7.37158e+06	-43739.1	1005.82	-29777.9	0.000000	0.000000	6.472916	-0.078534	NaN	0.000000	0.001592	0.001739	28.0844	0.037611	0.002014	18.6744	57.669	21.834	-0.047964	0.470957	-0.770182	-0.771528	-0.078534	18.6744	-0.767028	-1.602836E+10	4.899707E-12	NaN
667	1.000000	0.482308	7.37158e+06	-43739.1	1005.82	-29777.9	0.000000	0.000000	6.482922	-0.021270	NaN	0.000000	0.001609	0.001714	28.0841	0.084211	0.002083	40.4227	-121.484	-165.883	-0.100948	0.480986	-0.760178	-0.761499	-0.021270	40.4227	-0.759783	-1.277473E+10	1.664993E-12	NaN
667	1.000000	0.492317	7.37158e+06	-43739.1	1005.82	-29777.9	0.000000	0.000000	6.492933	0.004372	NaN	0.000000	0.001648	0.001731	28.0846	0.061635	0.001908	32.2954	175.61	10.6594	0.028454	0.490948	-0.750168	-0.751538	0.004372	32.2954	-0.750269	-9.481727E+9	-4.611270E-13	NaN
667	1.000000	0.502313	7.37158e+06	-43739.1	1005.82	-29777.9	0.000000	0.000000	6.502928	-0.012128	NaN	0.000000	0.001603	0.001751	28.0827	0.052499	0.001935	27.1339	-163.256	-168.051	-0.032977	0.501034	-0.740173	-0.741451	-0.012128	27.1339	-0.739837	-6.836630E+9	1.773976E-12	NaN
667	1.000000	0.512317	7.37158e+06	-43739.1	1005.82	-29777.9	0.000000	0.000000	6.512934	0.022971	NaN	0.000000	0.001618	0.001736	28.0833	0.074067	0.002016	36.7417	72.3204	17.7542	-0.051653	0.511011	-0.730168	-0.731475	0.022971	36.7417	-0.730637	-5.122643E+9	-4.484221E-12	NaN
667	1.000000	0.522333	7.37158e+06	-43739.1	1005.82	-29777.9	0.000000	0.000000	6.522947	-0.022064	NaN	0.000000	0.001614	0.001740	28.0829	0.053969	0.002061	26.1872	108.352	-167.044	-0.014016	0.521067	-0.720153	-0.721418	-0.022064	26.1872	-0.719521	-3.613589E+9	6.105760E-12	NaN
667	1.000000	0.532341	7.37158e+06	-43739.1	1005.82	-29777.9	0.000000	0.000000	6.532958	0.031275	NaN	0.000000	0.001616	0.001761	28.0832	0.084287	0.001989	42.3807	41.5229	15.1852	-0.001665	0.531016	-0.710145	-0.711469	0.031275	42.3807	-0.710698	-2.738896E+9	-1.141875E-11	NaN
667	1.000000	0.542355	7.37158e+06	-43739.1	1005.82	-29777.9	0.000000	0.000000	6.542975	0.109787	NaN	0.000000	0.001593	0.001751	28.083	0.028299	0.002115	13.3792	160.799	-162.709	0.050659	0.541049	-0.700131	-0.701436	0.109787	13.3792	-0.706285	-2.384193E+9	-4.604789E-11	NaN
667	1.000000	0.552353	7.37158e+06	-43739.1	1005.82	-29777.9	0.000000	0.000000	6.552965	-0.077941	NaN	0.000000	0.001589	0.001724	28.0833	0.081259	0.001972	41.1983	-69.8741	15.8217	-0.037846	0.551013	-0.690133	-0.691472	-0.077941	41.1983	-0.688714	-1.371954E+9	5.681024E-11	NaN
667	1.000000	0.562337	7.37158e+06	-43739.1	1005.82	-29777.9	0.000000	0.000000	6.562952	-0.011990	NaN	0.000000	0.001639	0.001736	28.0831	0.050241	0.002050	24.5075	140.462	-164.25	0.044783	0.561082	-0.680149	-0.681403	-0.011990	24.5075	-0.679782	-1.035667E+9	1.157748E-11	NaN
667	1.000000	0.572384	7.37158e+06	-43739.1	1005.82	-29777.9	0.000000	0.000000	6.572999	-0.014323	NaN	0.000000	0.001620	0.001741	28.0832	0.110637	0.001988	55.6475	163.364	16.1344	-0.066035	0.570986	-0.670101	-0.671499	-0.014323	55.6475	-0.669908	-7.588177E+8	1.887535E-11	NaN
667	1.000000	0.582373	7.37158e+06	-43739.1	1005.82	-29777.9	0.000000	0.000000	6.582990	0.026720	NaN	0.000000	0.001588	0.001745	28.0838	0.038191	0.002068	18.4718	-46.7578	-164.298	0.054074	0.581012	-0.660112	-0.661473	0.026720	18.4718	-0.661197	-5.765924E+8	-4.634118E-11	NaN
667	1.000000	0.592316	7.37158e+06	-43739.1	1005.82	-29777.9	0.000000	0.000000	6.592934	0.042999	NaN	0.000000	0.001624	0.001779	28.0832	0.048008	0.001959	24.5072	44.4558	11.405	-0.010072	0.591014	-0.650169	-0.651471	0.042999	24.5072	-0.651485	-4.244134E+8	-1.013128E-10	NaN
667	1.000000	0.602351	7.37158e+06	-43739.1	1005.82	-29777.9	0.000000	0.000000	6.602966	-0.026855	NaN	0.000000	0.001621	0.001740	28.083	0.081277	0.002115	38.4218	174.619	-163.895	0.034220	0.601029	-0.640134	-0.641456	-0.026855	38.4218	-0.639610	-2.917000E+8	9.206414E-11	NaN
667	1.000000	0.612370	7.37158e+06	-43739.1	1005.82	-29777.9	0.000000	0.000000	6.612988	0.035363	NaN	0.000000	0.001667	0.001728	28.0832	0.026703	0.002029	13.1617	131.64	11.4109	0.012886	0.610988	-0.630115	-0.631497	0.035363	13.1617	-0.632130	-2.302882E+8	-1.535580E-10	NaN
667	1.000000	0.622349	7.37158e+06	-43739.1	1005.82	-29777.9	0.000000	0.000000	6.622965	-0.002977	NaN	0.000000	0.001606	0.001675	28.0832	0.037827	0.001965	19.2501	129.29	-164.944	0.074782	0.621054	-0.620136	-0.621431	-0.002977	19.2501	-0.620020	-1.570041E+8	1.895815E-11	NaN
667	1.000000	0.632360	7.37158e+06	-43739.1	1005.82	-29777.9	0.000000	0.000000	6.632977	0.016637	NaN	0.000000	0.001596	0.001661	28.0834	0.069678	0.001914	36.3954	-176.181	18.0093	0.014504	0.631006	-0.610125	-0.611479	0.016637	36.3954	-0.610468	-1.160249E+8	-1.433942E-10	NaN
667	1.000000	0.642390	7.37158e+06	-43739.1	1005.82	-29777.9	0.000000	0.000000	6.643005	-0.014065	NaN	0.000000	0.001615	0.001673	28.0843	0.084976	0.002017	42.1203	59.2075	-161.481	-0.049477	0.641060	-0.600096	-0.601426	-0.014065	42.1203	-0.599845	-8.285701E+7	1.697529E-10	NaN
667	1.000000	0.652372	7.37158e+06	-43739.1	1005.82	-29777.9	0.000000	0.000000	6.652984	-0.074797	NaN	0.000000	0.001598	0.001703	28.0846	0.044857	0.002019	22.2196	-177.185	12.5592	-0.058693	0.651034	-0.590114	-0.591452	-0.074797	22.2196	-0.587589	-5.615922E+7	1.331871E-9	NaN
667	1.000000	0.662395	7.37158e+06	-43739.1	1005.82	-29777.9	0.000000	0.000000	6.663008	-0.072391	NaN	0.000000	0.001624	0.001705	28.0843	0.075095	0.002012	37.3182	73.4866	-163.864	-0.012135	0.661075	-0.580090	-0.581410	-0.072391	37.3182	-0.578636	-4.225647E+7	1.713142E-9	NaN
667	1.000000	0.672386	7.37158e+06	-43739.1	1005.82	-29777.9	0.000000	0.000000	6.672999	-0.062044	NaN	0.000000	0.001652	0.001724	28.0843	0.139374	0.002074	67.2007	6.713988	16.3769	-0.105969	0.671060	-0.570099	-0.571426	-0.062044	67.2007	-0.569407	-3.150891E+7	1.969109E-9	NaN
667	1.000000	0.682402	7.37158e+06	-43739.1	1005.82	-29777.9	0.000000	0.000000	6.683018	0.008771	NaN	0.000000	0.001647	0.001675	28.0843	0.007517	0.002093	3.591439	80.248	-165.927	0.016883	0.681044	-0.560083	-0.561441	0.008771	3.591439	-0.561915	-2.482371E+7	-3.533157E-10	NaN
667	1.000000	0.692391	7.37158e+06	-43739.1	1005.82	-29777.9	0.000000	0.000000	6.693006	-0.021158	NaN	0.000000	0.001612	0.001688	28.0846	0.104634	0.001965	53.2489	-75.3362	18.243	-0.027142	0.691046	-0.550094	-0.551439	-0.021158	53.2489	-0.549796	-1.687062E+7	1.254123E-9	NaN
667	1.000000	0.702387	7.37158e+06	-43739.1	1005.82	-29777.9	0.000000	0.000000	6.703005	0.061447	NaN	0.000000	0.001637	0.001680	28.0844	0.055067	0.001999	27.5426	-106.319	-167.751	0.073501	0.701136	-0.540098	-0.541350	0.061447	27.5426	-0.541772	-1.305952E+7	-4.705188E-9	NaN
667	1.000000	0.712430	7.37158e+06	-43739.1	1005.82	-29777.9	0.000000	0.000000	6.713047	0.032116	NaN	0.000000	0.001665	0.001703	28.0847	0.112446	0.001856	60.5923	65.923	15.0155	0.102040	0.711050	-0.530055	-0.531436	0.032116	60.5923	-0.530453	-9.09626e+06	-3.530679E-9	NaN
667	1.000000	0.722433	7.37158e+06	-43739.1	1005.82	-29777.9	0.000000	0.000000	6.723045	-0.089854	NaN	0.000000	0.001659	0.001711	28.0847	0.063257	0.002133	29.655	-6.159834	-167.288	-0.041965	0.721143	-0.520053	-0.521342	-0.089854	29.655	-0.517780	-6.06343e+06	1.481904E-8	NaN
667	1.000000	0.732394	7.37158e+06	-43739.1	1005.82	-29777.9	0.000000	0.000000	6.733004	-0.137371	NaN	0.000000	0.001595	0.001696	28.0841	0.054007	0.002099	25.7257	79.0901	18.0044	-0.058868	0.731066	-0.510091	-0.511420	-0.137371	25.7257	-0.506086	-4.16759e+06	3.296184E-8	NaN
667	1.000000	0.742416	7.37158e+06	-43739.1	1005.82	-29777.9	0.000000	0.000000	6.743029	-0.071562	NaN	0.000000	0.001593	0.001701	28.0844	0.044316	0.001929	22.977	-137.93	-165.698	-0.070729	0.741120	-0.500069	-0.501365	-0.071562	22.977	-0.497733	-3.18703e+06	2.245397E-8	NaN
667	1.000000	0.752428	7.37158e+06	-43739.1	1005.82	-29777.9	0.000000	0.000000	6.753043	-0.026375	NaN	0.000000	0.001577	0.001672	28.084	0.093523	0.002053	45.5612	141.765	17.1262	-0.055984	0.751064	-0.490057	-0.491421	-0.026375	45.5612	-0.489623	-2.45543e+06	1.074136E-8	NaN
667	1.000000	0.762415	7.37158e+06	-43739.1	1005.82	-29777.9	0.000000	0.000000	6.763028	-0.058588	NaN	0.000000	0.001669	0.001650	28.0843	0.143208	0.002099	68.222	129.234	-165.289	-0.023623	0.761108	-0.480070	-0.481378	-0.058588	68.222	-0.479426	-1.76804e+06	3.313712E-8	NaN
667	1.000000	0.772415	7.37158e+06	-43739.1	1005.82	-29777.9	0.000000	0.000000	6.773028	-0.061025	NaN	0.000000	0.001724	0.001687	28.0828	0.132256	0.002014	65.6643	124.665	16.4973	0.037283	0.771139	-0.470070	-0.471346	-0.061025	65.6643	-0.469373	-1.27826e+06	4.774111E-8	NaN
667	1.000000	0.782422	7.37158e+06	-43739.1	1005.82	-29777.9	0.000000	0.000000	6.783037	-0.003410	NaN	0.000000	0.001691	0.001700	28.0829	0.116507	0.001946	59.8582	74.2546	-168.125	-0.021726	0.781076	-0.460064	-0.461410	-0.003410	59.8582	-0.460021	-944741	3.609830E-9	NaN
667	1.000000	0.792442	7.37158e+06	-43739.1	1005.82	-29777.9	0.000000	0.000000	6.793057	-0.028311	NaN	0.000000	0.001744	0.001693	28.0829	0.042712	0.001981	21.5609	79.8392	15.96	-0.024898	0.791064	-0.450043	-0.451421	-0.028311	21.5609	-0.449058	-662340	4.274332E-8	NaN
667	1.000000	0.802436	7.37158e+06	-43739.1	1005.82	-29777.9	0.000000	0.000000	6.803052	0.012547	NaN	0.000000	0.001695	0.001699	28.0829	0.099015	0.002027	48.8574	-177.334	-165.297	0.055099	0.801129	-0.440050	-0.441356	0.012547	48.8574	-0.440242	-497486	-2.521997E-8	NaN
667	1.000000	0.812443	7.37158e+06	-43739.1	1005.82	-29777.9	0.000000	0.000000	6.813059	0.014497	NaN	0.000000	0.001624	0.001670	28.0828	0.079443	0.001927	41.2181	154.035	14.7303	0.015827	0.811056	-0.430042	-0.431430	0.014497	41.2181	-0.430306	-360075	-4.026056E-8	NaN
667	1.000000	0.822482	7.37158e+06	-43739.1	1005.82	-29777.9	0.000000	0.000000	6.823100	0.040943	NaN	0.000000	0.001584	0.001709	28.0829	0.103318	0.001972	52.3889	164.227	-164.152	0.010101	0.821144	-0.420003	-0.421341	0.040943	52.3889	-0.420589	-262281	-1.561051E-7	NaN
667	1.000000	0.832471	7.37158e+06	-43739.1	1005.82	-29777.9	0.000000	0.000000	6.833086	-0.019571	NaN	0.000000	0.001623	0.001707	28.0831	0.055398	0.002033	27.243	-65.5561	11.9563	0.027861	0.831122	-0.410014	-0.411363	-0.019571	27.243	-0.409475	-182362	1.073216E-7	NaN
667	1.000000	0.842477	7.37158e+06	-43739.1	1005.82	-29777.9	0.000000	0.000000	6.843093	0.007251	NaN	0.000000	0.001599	0.001679	28.0828	0.103758	0.002086	49.7442	145.29	-163.185	-0.089817	0.841165	-0.400009	-0.401321	0.007251	49.7442	-0.400118	-134177	-5.403842E-8	NaN
667	1.000000	0.852464	7.37158e+06	-43739.1	1005.82	-29777.9	0.000000	0.000000	6.853080	0.021387	NaN	0.000000	0.001667	0.001678	28.0829	0.056907	0.001934	29.4279	-11.7826	16.951	0.020860	0.851141	-0.390021	-0.391344	0.021387	29.4279	-0.390567	-98010.1	-2.182167E-7	NaN
667	1.000000	0.862464	7.37158e+06	-43739.1	1005.82	-29777.9	0.000000	0.000000	6.863080	0.015841	NaN	0.000000	0.001652	0.001725	28.0831	0.074418	0.002028	36.6915	116.187	-161.654	0.026453	0.861194	-0.380022	-0.381291	0.015841	36.6915	-0.380345	-69959.5	-2.264304E-7	NaN
667	1.000000	0.872453	7.37158e+06	-43739.1	1005.82	-29777.9	0.000000	0.000000	6.873067	-0.038638	NaN	0.000000	0.001612	0.001686	28.0831	0.106140	0.002014	52.7105	114.343	12.5339	-0.002051	0.871107	-0.370033	-0.371378	-0.038638	52.7105	-0.369483	-48829	7.912833E-7	NaN
667	1.000000	0.882480	7.37158e+06	-43739.1	1005.82	-29777.9	0.000000	0.000000	6.883094	-0.030038	NaN	0.000000	0.001651	0.001725	28.083	0.077514	0.001946	39.8324	4.087489	-162.935	0.012138	0.881155	-0.360006	-0.361330	-0.030038	39.8324	-0.359440	-34974.3	8.588496E-7	NaN
667	1.000000	0.892484	7.37158e+06	-43739.1	1005.82	-29777.9	0.000000	0.000000	6.893100	0.004969	NaN	0.000000	0.001622	0.001731	28.0828	0.062359	0.001829	34.0909	8.181482	16.9978	0.059621	0.891084	-0.350001	-0.351401	0.004969	34.0909	-0.350110	-25621.4	-1.939244E-7	NaN
667	1.000000	0.902478	7.37158e+06	-43739.1	1005.82	-29777.9	0.000000	0.000000	6.903091	-0.056391	NaN	0.000000	0.001621	0.001717	28.0828	0.012542	0.002100	5.973094	7.597284	-166.828	0.033183	0.901172	-0.340007	-0.341313	-0.056391	5.973094	-0.332927	-14397.3	3.916776E-6	NaN
667	1.000000	0.912488	7.37158e+06	-43739.1	1005.82	-29777.9	0.000000	0.000000	6.913104	0.026317	NaN	0.000000	0.001565	0.001694	28.0842	0.044812	0.002071	21.637	-162.885	14.1793	0.028902	0.911132	-0.329998	-0.331353	0.026317	21.637	-0.330910	-13451.6	-1.956398E-6	NaN
667	1.000000	0.922494	7.37158e+06	-43739.1	1005.82	-29777.9	0.000000	0.000000	6.923108	-0.048403	NaN	0.000000	0.001650	0.001689	28.0841	0.088198	0.001945	45.3418	-155.98	-163.499	-0.056282	0.921105	-0.319991	-0.321380	-0.048403	45.3418	-0.319191	-9051.57	5.347440E-6	NaN
667	1.000000	0.932515	7.37158e+06	-43739.1	1005.82	-29777.9	0.000000	0.000000	6.933129	-0.049291	NaN	0.000000	0.001597	0.001690	28.084	0.058590	0.002031	28.847	140.321	16.2022	-0.064630	0.931161	-0.309970	-0.311324	-0.049291	28.847	-0.308689	-6333.49	7.782551E-6	NaN
667	1.000000	0.942499	7.37158e+06	-43739.1	1005.82	-29777.9	0.000000	0.000000	6.943114	-0.018733	NaN	0.000000	0.001695	0.001676	28.0843	0.098267	0.001931	50.876	-28.8342	-165.621	0.023392	0.941187	-0.299986	-0.301298	-0.018733	50.876	-0.299710	-4659.26	4.020524E-6	NaN
667	1.000000	0.952508	7.37158e+06	-43739.1	1005.82	-29777.9	0.000000	0.000000	6.953124	-0.011770	NaN	0.000000	0.001690	0.001696	28.0839	0.157367	0.002004	78.5412	-144.296	14.4661	-0.054547	0.951141	-0.289977	-0.291344	-0.011770	78.5412	-0.289864	-3321.02	3.544134E-6	NaN
667	1.000000	0.962491	7.37158e+06	-43739.1	1005.82	-29777.9	0.000000	0.000000	6.963103	-0.075734	NaN	0.000000	0.001602	0.001703	28.084	0.032265	0.001977	16.3172	116.091	-164.261	-0.123404	0.961184	-0.279995	-0.281301	-0.075734	16.3172	-0.276514	-2090.77	3.622295E-5	NaN
667	1.000000	0.972533	7.37158e+06	-43739.1	1005.82	-29777.9	0.000000	0.000000	6.973149	0.015241	NaN	0.000000	0.001629	0.001680	28.0838	0.042429	0.001959	21.6545	7.352233	14.3664	0.023031	0.971162	-0.269953	-0.271324	0.015241	21.6545	-0.270480	-1693.73	-8.998186E-6	NaN
667	1.000000	0.982542	7.37158e+06	-43739.1	1005.82	-29777.9	0.000000	0.000000	6.983157	-0.036929	NaN	0.000000	0.001631	0.001693	28.0839	0.178328	0.002120	84.1158	127.23	-166.094	-0.002762	0.981235	-0.259943	-0.261251	-0.036929	84.1158	-0.259614	-1156.1	3.194308E-5	NaN
667	1.000000	0.992519	7.37158e+06	-43739.1	1005.82	-29777.9	0.000000	0.000000	6.993137	0.055745	NaN	0.000000	0.001624	0.001706	28.0841	0.104090	0.002026	51.3677	-81.6516	14.0561	0.088091	0.991132	-0.249966	-0.251353	0.055745	51.3677	-0.250780	-845.336	-6.594392E-5	NaN
667	1.000000	1.002535	7.37158e+06	-43739.1	1005.82	-29777.9	0.000000	0.000000	7.003152	0.028522	NaN	0.000000	0.001644	0.001739	28.0839	0.086551	0.001990	43.501	-31.972	-164.002	0.016988	1.001219	-0.239950	-0.241266	0.028522	43.501	-0.240442	-584.057	-4.883392E-5	NaN
667	1.000000	1.012527	7.37158e+06	-43739.1	1005.82	-29777.9	0.000000	0.000000	7.013141	-0.037796	NaN	0.000000	0.001609	0.001707	28.0842	0.080434	0.001930	41.6847	-18.0911	13.0519	-0.037105	1.011133	-0.229958	-0.231352	-0.037796	41.6847	-0.229278	-390.046	9.690268E-5	NaN
667	1.000000	1.022559	7.37158e+06	-43739.1	1005.82	-29777.9	0.000000	0.000000	7.023174	-0.010768	NaN	0.000000	0.001594	0.001717	28.084	0.039502	0.002023	19.5251	81.671	-167.111	0.037982	1.021210	-0.219926	-0.221275	-0.010768	19.5251	-0.219513	-272.827	3.946757E-5	NaN
667	1.000000	1.032537	7.37158e+06	-43739.1	1005.82	-29777.9	0.000000	0.000000	7.033156	0.061015	NaN	0.000000	0.001592	0.001670	28.0841	0.037717	0.001861	20.2642	-11.2067	11.717	0.089847	1.031212	-0.209948	-0.211273	0.061015	20.2642	-0.212206	-208.207	-0.000293	NaN
667	1.000000	1.042556	7.37158e+06	-43739.1	1005.82	-29777.9	0.000000	0.000000	7.043173	0.013500	NaN	0.000000	0.001590	0.001722	28.0837	0.093075	0.002091	44.5049	-165.825	-167.278	0.011446	1.041234	-0.199929	-0.201252	0.013500	44.5049	-0.200157	-132.517	-0.000102	NaN
667	1.000000	1.052515	7.37158e+06	-43739.1	1005.82	-29777.9	0.000000	0.000000	7.053130	-0.028539	NaN	0.000000	0.001632	0.001722	28.0828	0.059606	0.002041	29.2027	-123.23	11.1111	0.005282	1.051167	-0.189970	-0.191318	-0.028539	29.2027	-0.189237	-87.3531	0.000327	NaN
667	1.000000	1.062561	7.37158e+06	-43739.1	1005.82	-29777.9	0.000000	0.000000	7.063175	-0.044579	NaN	0.000000	0.001572	0.001725	28.0828	0.005729	0.002026	2.828065	-95.2731	-165.09	-0.052634	1.061262	-0.179924	-0.181224	-0.044579	2.828065	-0.168102	-38.0696	0.001171	NaN
667	1.000000	1.072576	7.37158e+06	-43739.1	1005.82	-29777.9	0.000000	0.000000	7.073193	0.025242	NaN	0.000000	0.001601	0.001666	28.0828	0.038885	0.002134	18.2208	116.873	15.6978	0.049777	1.071183	-0.169909	-0.171302	0.025242	18.2208	-0.170948	-42.6643	-0.000592	NaN
667	1.000000	1.082569	7.37158e+06	-43739.1	1005.82	-29777.9	0.000000	0.000000	7.083183	-0.033489	NaN	0.000000	0.001647	0.001680	28.0832	0.058216	0.002061	28.2406	30.8069	-167.534	-0.046255	1.081297	-0.159917	-0.161189	-0.033489	28.2406	-0.159027	-26.3439	0.001271	NaN
667	1.000000	1.092562	7.37158e+06	-43739.1	1005.82	-29777.9	0.000000	0.000000	7.093177	-0.017868	NaN	0.000000	0.001615	0.001702	28.0843	0.086190	0.001955	44.0756	138.968	15.3855	-0.038843	1.091177	-0.149923	-0.151309	-0.017868	44.0756	-0.149619	-17.8259	0.001002	NaN
667	1.000000	1.102553	7.37158e+06	-43739.1	1005.82	-29777.9	0.000000	0.000000	7.103168	-0.023146	NaN	0.000000	0.001624	0.001674	28.0865	0.065892	0.001882	35.0181	-118.854	-163.24	-0.021816	1.101254	-0.139932	-0.141231	-0.023146	35.0181	-0.139436	-11.5443	0.002005	NaN
667	1.000000	1.112534	7.37158e+06	-43739.1	1005.82	-29777.9	0.000000	0.000000	7.113147	-0.070150	NaN	0.000000	0.001606	0.001658	28.0865	0.020545	0.001943	10.5734	27.3592	13.8242	-0.077176	1.111228	-0.129951	-0.131257	-0.070150	10.5734	-0.124975	-6.074307	0.011549	NaN
667	1.000000	1.122555	7.37158e+06	-43739.1	1005.82	-29777.9	0.000000	0.000000	7.123172	0.026551	NaN	0.000000	0.001635	0.001652	28.0863	0.107782	0.002110	51.0774	-63.2988	-164.007	-0.057547	1.121289	-0.119930	-0.121197	0.026551	51.0774	-0.120320	-4.903875	-0.005414	NaN
667	1.000000	1.132563	7.37158e+06	-43739.1	1005.82	-29777.9	0.000000	0.000000	7.133179	0.013219	NaN	0.000000	0.001600	0.001692	28.0869	0.022462	0.001869	12.0189	-164.911	14.1295	0.078883	1.131235	-0.109922	-0.111250	0.013219	12.0189	-0.110747	-3.116006	-0.004242	NaN
667	1.000000	1.142616	7.37158e+06	-43739.1	1005.82	-29777.9	0.000000	0.000000	7.143232	0.023288	NaN	0.000000	0.001613	0.001648	28.0869	0.109778	0.002010	54.629	19.3529	-168.292	-0.013613	1.141209	-0.099870	-0.101276	0.023288	54.629	-0.100189	-1.844885	-0.012623	NaN
667	1.000000	1.152604	7.37158e+06	-43739.1	1005.82	-29777.9	0.000000	0.000000	7.153219	-0.035624	NaN	0.000000	0.001590	0.001648	28.0866	0.024968	0.001788	13.9632	-178.896	14.8069	-0.076774	1.151246	-0.089881	-0.091239	-0.035624	13.9632	-0.087968	-0.967908	0.036805	NaN
667	1.000000	1.162600	7.37158e+06	-43739.1	1005.82	-29777.9	0.000000	0.000000	7.163217	0.035342	NaN	0.000000	0.001622	0.001681	28.0867	0.120260	0.001987	60.5217	-105.316	-166.154	-0.028583	1.161248	-0.079885	-0.081237	0.035342	60.5217	-0.080323	-0.630604	-0.056045	NaN
667	1.000000	1.172602	7.37158e+06	-43739.1	1005.82	-29777.9	0.000000	0.000000	7.173223	0.120695	NaN	0.000000	0.001621	0.001655	28.0865	0.062910	0.002063	30.4951	27.0149	15.1042	0.104110	1.171205	-0.069883	-0.071280	0.120695	30.4951	-0.072852	-0.405999	-0.297279	NaN
667	1.000000	1.182622	7.37158e+06	-43739.1	1005.82	-29777.9	0.000000	0.000000	7.183239	0.027784	NaN	0.000000	0.001590	0.001661	28.0865	0.120633	0.001936	62.3205	-150.525	-161.226	-0.020538	1.181343	-0.059864	-0.061142	0.027784	62.3205	-0.060198	-0.182463	-0.152271	NaN
667	1.000000	1.192601	7.37158e+06	-43739.1	1005.82	-29777.9	0.000000	0.000000	7.193217	0.014678	NaN	0.000000	0.001621	0.001669	28.0842	0.031599	0.002123	14.882	-130.644	13.903	-0.028846	1.191212	-0.049885	-0.051273	0.014678	14.882	-0.050624	-0.095301	-0.154013	NaN
667	1.000000	1.202591	7.37158e+06	-43739.1	1005.82	-29777.9	0.000000	0.000000	7.203209	0.047159	NaN	0.000000	0.001598	0.001655	28.0841	0.041437	0.002053	20.1815	140.636	-163.715	0.022222	1.201270	-0.039894	-0.041215	0.047159	20.1815	-0.041647	-0.050757	-0.929123	NaN
667	1.000000	1.212616	7.37158e+06	-43739.1	1005.82	-29777.9	0.000000	0.000000	7.213229	-0.056062	NaN	0.000000	0.001671	0.001676	28.0841	0.091575	0.001980	46.2606	69.1202	16.9357	-0.000203	1.211250	-0.029870	-0.031236	-0.056062	46.2606	-0.028961	-0.021538	2.602970	NaN
667	1.000000	1.222625	7.37158e+06	-43739.1	1005.82	-29777.9	0.000000	0.000000	7.223241	0.002980	NaN	0.000000	0.001675	0.001672	28.0843	0.124712	0.001893	65.8681	99.5972	-164.112	0.024170	1.221292	-0.019861	-0.021193	0.002980	65.8681	-0.019895	-0.012484	-0.238702	NaN
667	1.000000	1.232621	7.37158e+06	-43739.1	1005.82	-29777.9	0.000000	0.000000	7.233239	0.064950	NaN	0.000000	0.001679	0.001694	28.0841	0.077973	0.001955	39.8852	165.099	13.3276	0.006765	1.231248	-0.009865	-0.011238	0.064950	39.8852	-0.011086	-0.007007	-9.269134	NaN
667	1.000000	1.242601	7.37158e+06	-43739.1	1005.82	-29777.9	0.000000	0.000000	7.243301	2.044558	NaN	0.000000	0.001654	0.001671	28.0842	3.006624	0.001902	1580.62	7.098518	-165.929	0.825204	1.241232	0.000116	-0.001253	2.044558	1580.62	-0.000855	-0.000628	-3254.26	NaN
667	2.000000	1.249702	7.37158e+06	-43739.1	1005.82	-29777.9	0.000000	0.000000	7.250722	9.828825	NaN	0.000000	0.001641	0.001706	28.0841	9.923857	0.001712	5797.09	8.015461	8.224852	9.047543	1.249286	0.007217	0.006800	9.828825	5797.09	0.005945	0.005012	1960.91	74810.2
667	2.000000	1.252121	7.37158e+06	-43739.1	1005.82	-29777.9	0.000000	0.000000	7.253285	13.3301	NaN	0.000000	0.001667	0.001663	28.0843	12.3154	0.001672	7367.69	5.047947	-171.216	12.4031	1.251830	0.009636	0.009345	13.3301	7367.69	0.008279	0.007331	1818.34	78618.5
667	2.000000	1.254629	7.37158e+06	-43739.1	1005.82	-29777.9	0.000000	0.000000	7.256032	19.158	NaN	0.000000	0.001695	0.001664	28.0841	16.3245	0.001786	9140.15	6.834479	4.111729	17.9677	1.254280	0.012144	0.011795	19.158	9140.15	0.010572	0.009824	1950.13	84252.5
667	2.000000	1.257091	7.37158e+06	-43739.1	1005.82	-29777.9	0.000000	0.000000	7.258685	23.8111	NaN	0.000000	0.001684	0.001646	28.0857	18.6713	0.001744	10706.9	2.857980	-173.22	22.5765	1.256769	0.014606	0.014284	23.8111	10706.9	0.012938	0.012633	1884.88	87033.9
667	2.000000	1.259583	7.37158e+06	-43739.1	1005.82	-29777.9	0.000000	0.000000	7.261304	26.8928	NaN	0.000000	0.001614	0.001685	28.0845	20.6908	0.001820	11366.4	1.966613	8.130120	24.9785	1.259214	0.017098	0.016728	26.8928	11366.4	0.015323	0.015719	1710.85	82829
667	2.000000	1.262073	7.37158e+06	-43739.1	1005.82	-29777.9	0.000000	0.000000	7.264163	35.8672	NaN	0.000000	0.001680	0.001659	28.0849	23.3144	0.001611	14473.9	4.796683	-178.045	34.1627	1.261767	0.019588	0.019281	35.8672	14473.9	0.017729	0.019099	1877.99	95688
667	2.000000	1.264567	7.37158e+06	-43739.1	1005.82	-29777.9	0.000000	0.000000	7.266855	40.6854	NaN	0.000000	0.001622	0.001674	28.0846	26.3287	0.001784	14759.8	3.297513	5.219924	39.9663	1.264174	0.022081	0.021688	40.6854	14759.8	0.020014	0.022564	1803.1	89772.9
667	2.000000	1.267070	7.37158e+06	-43739.1	1005.82	-29777.9	0.000000	0.000000	7.269688	48.7246	NaN	0.000000	0.001630	0.001718	28.083	29.382	0.001844	15932	4.963715	-178.47	47.6633	1.266763	0.024584	0.024277	48.7246	15932	0.022291	0.026270	1854.73	89806.8
667	2.000000	1.269619	7.37158e+06	-43739.1	1005.82	-29777.9	0.000000	0.000000	7.272527	55.7484	NaN	0.000000	0.001635	0.001749	28.0831	31.4371	0.001776	17700.6	7.427437	-0.419743	56.0689	1.269151	0.027134	0.026666	55.7484	17700.6	0.024772	0.030602	1821.71	92445.4
667	2.000000	1.272052	7.37158e+06	-43739.1	1005.82	-29777.9	0.000000	0.000000	7.275187	61.2906	NaN	0.000000	0.001631	0.001759	28.0833	32.8572	0.001704	19281	5.117847	179.411	60.2175	1.271795	0.029567	0.029310	61.2906	19281	0.027183	0.035107	1745.83	94017.3
667	2.000000	1.274523	7.37158e+06	-43739.1	1005.82	-29777.9	0.000000	0.000000	7.277996	69.5166	NaN	0.000000	0.001681	0.001661	28.0835	35.6552	0.001683	21187.5	3.084029	0.909767	66.8263	1.274247	0.032038	0.031762	69.5166	21187.5	0.029577	0.039872	1743.51	96944.1
667	2.000000	1.277044	7.37158e+06	-43739.1	1005.82	-29777.9	0.000000	0.000000	7.280906	78.9925	NaN	0.000000	0.001631	0.001665	28.0831	39.678	0.001829	21694.6	8.414955	176.037	78.4849	1.276683	0.034558	0.034198	78.9925	21694.6	0.031828	0.044617	1770.46	93837.1
667	2.000000	1.279582	7.37158e+06	-43739.1	1005.82	-29777.9	0.000000	0.000000	7.283786	87.3026	NaN	0.000000	0.001643	0.001720	28.0833	41.2774	0.001780	23191.9	9.033798	-4.856065	87.4828	1.279202	0.037097	0.036717	87.3026	23191.9	0.034273	0.050067	1743.7	94696.1
667	2.000000	1.282047	7.37158e+06	-43739.1	1005.82	-29777.9	0.000000	0.000000	7.286533	94.1441	NaN	0.000000	0.001650	0.001648	28.0833	42.8773	0.001872	22902.1	1.873518	-177.634	95.6135	1.281888	0.039562	0.039402	94.1441	22902.1	0.036479	0.055246	1704.09	89022.3
667	2.000000	1.284546	7.37158e+06	-43739.1	1005.82	-29777.9	0.000000	0.000000	7.289556	106.914	NaN	0.000000	0.001632	0.001663	28.0833	45.7924	0.001786	25638.8	1.332767	1.361673	104.659	1.284306	0.042060	0.041820	106.914	25638.8	0.038933	0.061299	1744.13	94611.1
667	2.000000	1.287047	7.37158e+06	-43739.1	1005.82	-29777.9	0.000000	0.000000	7.292360	114.287	NaN	0.000000	0.001656	0.001643	28.0831	49.6397	0.001882	26373.6	7.264932	175.111	111.955	1.286768	0.044562	0.044283	114.287	26373.6	0.041312	0.067463	1694.08	92770.8
667	2.000000	1.289553	7.37158e+06	-43739.1	1005.82	-29777.9	0.000000	0.000000	7.295450	128.479	NaN	0.000000	0.001653	0.001664	28.0834	51.4112	0.001818	28274.9	9.616345	-7.579902	126.607	1.289212	0.047068	0.046727	128.479	28274.9	0.043660	0.073829	1740.22	95073.5
667	2.000000	1.292042	7.37158e+06	-43739.1	1005.82	-29777.9	0.000000	0.000000	7.298396	139.615	NaN	0.000000	0.001619	0.001667	28.083	52.3591	0.001868	28026.2	3.888258	178.563	139.313	1.291727	0.049557	0.049242	139.615	28026.2	0.045821	0.079934	1746.62	90567.3
667	2.000000	1.294564	7.37158e+06	-43739.1	1005.82	-29777.9	0.000000	0.000000	7.301338	149.809	NaN	0.000000	0.001604	0.001689	28.0835	54.7156	0.001860	29409.5	1.724459	0.559327	150.431	1.294167	0.052079	0.051682	149.809	29409.5	0.048259	0.087106	1719.84	91040.8
667	2.000000	1.297039	7.37158e+06	-43739.1	1005.82	-29777.9	0.000000	0.000000	7.304156	158.164	NaN	0.000000	0.001610	0.001679	28.0831	57.6148	0.001738	33140.8	4.231734	176.508	159.714	1.296708	0.054554	0.054223	158.164	33140.8	0.050975	0.095449	1657.04	98005.4
667	2.000000	1.299587	7.37158e+06	-43739.1	1005.82	-29777.9	0.000000	0.000000	7.307376	174.519	NaN	0.000000	0.001621	0.001670	28.0839	60.111	0.001809	33220.7	9.851433	-7.998756	177.384	1.299118	0.057102	0.056633	174.519	33220.7	0.053162	0.102437	1703.67	94831.7
667	2.000000	1.301967	7.37158e+06	-43739.1	1005.82	-29777.9	0.000000	0.000000	7.310278	187.225	NaN	0.000000	0.001620	0.001663	28.0844	61.2438	0.001682	36413.6	7.465834	172.013	185.279	1.301725	0.059482	0.059240	187.225	36413.6	0.055625	0.110590	1692.96	100041
667	2.000000	1.304508	7.37158e+06	-43739.1	1005.82	-29777.9	0.000000	0.000000	7.313346	200.033	NaN	0.000000	0.001640	0.001660	28.0847	63.7553	0.001755	36323.5	3.677313	-3.940908	198.121	1.304233	0.062023	0.061747	200.033	36323.5	0.057893	0.118360	1690.03	96462.4
667	2.000000	1.306995	7.37158e+06	-43739.1	1005.82	-29777.9	0.000000	0.000000	7.316455	215.173	NaN	0.000000	0.001638	0.001652	28.0843	67.4621	0.001940	34781.5	5.139993	175.04	212.082	1.306714	0.064510	0.064229	215.173	34781.5	0.059870	0.125342	1716.69	89758
667	2.000000	1.309491	7.37158e+06	-43739.1	1005.82	-29777.9	0.000000	0.000000	7.319685	233.03	NaN	0.000000	0.001673	0.001669	28.0848	67.7893	0.001712	39604.5	5.772071	-5.723581	229.449	1.308994	0.067005	0.066508	233.03	39604.5	0.062592	0.135268	1722.73	98383
667	2.000000	1.311952	7.37158e+06	-43739.1	1005.82	-29777.9	0.000000	0.000000	7.322564	243.198	NaN	0.000000	0.001636	0.001710	28.0843	69.984	0.001781	39285.1	2.755993	176.804	239.872	1.311694	0.069466	0.069208	243.198	39285.1	0.064823	0.143670	1692.75	94693
667	2.000000	1.314529	7.37158e+06	-43739.1	1005.82	-29777.9	0.000000	0.000000	7.325662	255.853	NaN	0.000000	0.001652	0.001664	28.0848	73.9928	0.001782	41514.7	4.819845	-6.352102	254.988	1.314258	0.072044	0.071773	255.853	41514.7	0.067422	0.153759	1663.99	96728.7
667	2.000000	1.317043	7.37158e+06	-43739.1	1005.82	-29777.9	0.000000	0.000000	7.328840	272.034	NaN	0.000000	0.001673	0.001696	28.0845	76.9668	0.001718	44801.1	6.199506	171.702	274.268	1.316807	0.074558	0.074321	272.034	44801.1	0.070004	0.164104	1657.69	101042
667	2.000000	1.319494	7.37158e+06	-43739.1	1005.82	-29777.9	0.000000	0.000000	7.332160	293.169	NaN	0.000000	0.001672	0.001700	28.0845	78.3398	0.001789	43798.2	6.969687	-8.455608	288.368	1.319087	0.077008	0.076602	293.169	43798.2	0.071988	0.172270	1701.8	96410.7
667	2.000000	1.322004	7.37158e+06	-43739.1	1005.82	-29777.9	0.000000	0.000000	7.335063	302.733	NaN	0.000000	0.001668	0.001697	28.0843	80.933	0.001730	46795.4	7.320838	170.359	303.901	1.321702	0.079518	0.079217	302.733	46795.4	0.074666	0.183586	1649	99783
667	2.000000	1.324522	7.37158e+06	-43739.1	1005.82	-29777.9	0.000000	0.000000	7.338670	329.235	NaN	0.000000	0.001653	0.001672	28.0846	83.3748	0.001791	46542.9	4.194756	-6.051263	328.134	1.324022	0.082036	0.081536	329.235	46542.9	0.076731	0.192542	1709.94	96908.9
667	2.000000	1.327049	7.37158e+06	-43739.1	1005.82	-29777.9	0.000000	0.000000	7.341283	331.33	NaN	0.000000	0.001650	0.001683	28.0844	87.1002	0.001746	49882.9	4.666124	172.343	331.158	1.326801	0.084564	0.084315	331.33	49882.9	0.079582	0.205236	1614.39	100600
667	2.000000	1.329567	7.37158e+06	-43739.1	1005.82	-29777.9	0.000000	0.000000	7.344960	359.52	NaN	0.000000	0.001656	0.001697	28.0845	89.2023	0.001803	49476.9	6.251724	-8.040287	361.491	1.329141	0.087082	0.086656	359.52	49476.9	0.081632	0.214596	1675.33	97581
667	2.000000	1.331983	7.37158e+06	-43739.1	1005.82	-29777.9	0.000000	0.000000	7.348091	376.916	NaN	0.000000	0.001624	0.001673	28.0841	91.7892	0.001768	51930.8	5.786366	171.343	375.679	1.331630	0.089498	0.089144	376.916	51930.8	0.084054	0.225911	1668.43	99822.8
667	2.000000	1.334422	7.37158e+06	-43739.1	1005.82	-29777.9	0.000000	0.000000	7.351372	397.398	NaN	0.000000	0.001632	0.001713	28.0832	94.7379	0.001888	50184.6	4.975867	-7.028376	392.145	1.333933	0.091937	0.091448	397.398	50184.6	0.085998	0.235183	1689.74	94545.4
667	2.000000	1.336920	7.37158e+06	-43739.1	1005.82	-29777.9	0.000000	0.000000	7.354604	415.252	NaN	0.000000	0.001636	0.001757	28.083	96.0064	0.001775	54096.1	1.075880	175.704	410.926	1.336782	0.094435	0.094297	415.252	54096.1	0.088677	0.248256	1672.68	99194.9
667	2.000000	1.339591	7.37158e+06	-43739.1	1005.82	-29777.9	0.000000	0.000000	7.358269	439.442	NaN	0.000000	0.001664	0.001770	28.0829	99.0427	0.001817	54496.4	8.806465	-10.9111	443.203	1.338966	0.097106	0.096481	439.442	54496.4	0.091058	0.260145	1689.22	97618.8
667	2.000000	1.341944	7.37158e+06	-43739.1	1005.82	-29777.9	0.000000	0.000000	7.361359	457.365	NaN	0.000000	0.001675	0.001739	28.0845	99.5956	0.001764	56452.1	1.447618	175.327	455.891	1.341610	0.099459	0.099124	457.365	56452.1	0.093383	0.272007	1681.44	98892.5
667	2.000000	1.344516	7.37158e+06	-43739.1	1005.82	-29777.9	0.000000	0.000000	7.364715	476.447	NaN	0.000000	0.001657	0.001768	28.0865	103.694	0.001721	60237.1	5.762690	-9.151864	476.331	1.344011	0.102030	0.101526	476.447	60237.1	0.096098	0.286174	1664.89	102878
667	2.000000	1.346966	7.37158e+06	-43739.1	1005.82	-29777.9	0.000000	0.000000	7.367459	483.59	NaN	0.000000	0.001650	0.001724	28.0833	107.357	0.001844	58217.8	3.947371	171.997	481.956	1.346720	0.104481	0.104235	483.59	58217.8	0.098251	0.297644	1624.73	97494.6