File: remote_trans/data/nanoindenter/0828-1/data/Data_2025-08-06,11h17m57s/2025-07-22_16-23-58_1_458.txt
2025-07-22, 16:23:58, 1
Index	Phase	Displacement	Time	Pos X	Pos Y	Pos Z	Rot A	Rot B	Piezo Z	Force A	Force B	Gripper	Voltage A	Voltage B	Temperature	Amplitude force	Amplitude pos	Stiffness	Phase shift	Phase excitation	Force A raw	Displacement raw	HMax	HMax raw	Real Force	Real Stiffness	Contact Depth	Area	Hardness	Reduced Mod.
[#]	[#]	[um]	[s]	[um]	[um]	[um]	[m°]	[m°]	[um]	[uN]	[uN]	[V]	[V]	[V]	[°C]	[uN]	[um]	[N/m]	[°]	[°]	[uN]	[um]	[um]	[um]	[uN]	[N/m]	[um]	[um^2]	[MPa]	[MPa]
458	1.000000	0.002606	7.36954e+06	-54189.1	1005.82	-29744.2	0.000000	0.000000	6.002808	-0.030439	NaN	0.000000	0.001608	0.001761	28.0806	0.045303	0.000971	46.6336	-78.1111	-165.434	-0.020127	0.001320	-1.132852	-1.134138	-0.030439	46.6336	-1.132362	-1.362416E+15	2.234206E-17	NaN
458	1.000000	0.012641	7.36954e+06	-54189.1	1005.82	-29744.2	0.000000	0.000000	6.012843	-0.030428	NaN	0.000000	0.001596	0.001768	28.0807	0.032322	0.001178	27.4393	115.327	15.7965	-0.024102	0.011209	-1.122817	-1.124249	-0.030428	27.4393	-1.121985	-9.887889E+14	3.077331E-17	NaN
458	1.000000	0.022558	7.36954e+06	-54189.1	1005.82	-29744.2	0.000000	0.000000	6.022761	0.007900	NaN	0.000000	0.001625	0.001739	28.0809	0.057847	0.001749	33.0667	-115.102	-163.095	-0.015203	0.021260	-1.112900	-1.114198	0.007900	33.0667	-1.113079	-7.509429E+14	-1.052050E-17	NaN
458	1.000000	0.032538	7.36954e+06	-54189.1	1005.82	-29744.2	0.000000	0.000000	6.032742	0.004639	NaN	0.000000	0.001601	0.001761	28.0807	0.108619	0.001880	57.7899	-138.2	16.959	0.049776	0.031203	-1.102919	-1.104254	0.004639	57.7899	-1.102980	-5.496209E+14	-8.439590E-18	NaN
458	1.000000	0.042552	7.36954e+06	-54189.1	1005.82	-29744.2	0.000000	0.000000	6.042752	-0.077401	NaN	0.000000	0.001596	0.001768	28.0806	0.042977	0.001844	23.3028	-93.9866	-165.751	-0.031742	0.041203	-1.092905	-1.094255	-0.077401	23.3028	-1.090414	-3.727125E+14	2.076706E-16	NaN
458	1.000000	0.052542	7.36954e+06	-54189.1	1005.82	-29744.2	0.000000	0.000000	6.052745	0.003346	NaN	0.000000	0.001572	0.001726	28.0795	0.023405	0.001906	12.2809	-9.499691	15.5139	-0.038689	0.051168	-1.082916	-1.084290	0.003346	12.2809	-1.083120	-2.974589E+14	-1.124816E-17	NaN
458	1.000000	0.062549	7.36954e+06	-54189.1	1005.82	-29744.2	0.000000	0.000000	6.062753	0.013244	NaN	0.000000	0.001607	0.001728	28.0796	0.141261	0.001936	72.9681	135.16	-166.596	-0.050167	0.061274	-1.072909	-1.074183	0.013244	72.9681	-1.073045	-2.178201E+14	-6.080199E-17	NaN
458	1.000000	0.072550	7.36954e+06	-54189.1	1005.82	-29744.2	0.000000	0.000000	6.072754	0.022792	NaN	0.000000	0.001628	0.001757	28.0799	0.073133	0.001865	39.2204	-123.75	13.7411	0.005764	0.071169	-1.062908	-1.064289	0.022792	39.2204	-1.063344	-1.613438E+14	-1.412661E-16	NaN
458	1.000000	0.082551	7.36954e+06	-54189.1	1005.82	-29744.2	0.000000	0.000000	6.082755	0.034292	NaN	0.000000	0.001618	0.001752	28.0796	0.056466	0.002014	28.0313	8.735540	-163.274	-0.005216	0.081232	-1.052907	-1.054226	0.034292	28.0313	-1.053825	-1.201778E+14	-2.853453E-16	NaN
458	1.000000	0.092549	7.36954e+06	-54189.1	1005.82	-29744.2	0.000000	0.000000	6.092753	0.009301	NaN	0.000000	0.001609	0.001729	28.0796	0.107877	0.001974	54.6532	104.259	12.4708	-0.049627	0.091191	-1.042908	-1.044266	0.009301	54.6532	-1.043036	-8.605756E+13	-1.080825E-16	NaN
458	1.000000	0.102556	7.36954e+06	-54189.1	1005.82	-29744.2	0.000000	0.000000	6.102759	-0.013469	NaN	0.000000	0.001590	0.001747	28.0795	0.030306	0.001993	15.2069	157.941	-163.121	-0.014524	0.101235	-1.032901	-1.034222	-0.013469	15.2069	-1.032237	-6.159832E+13	2.186632E-16	NaN
458	1.000000	0.112580	7.36954e+06	-54189.1	1005.82	-29744.2	0.000000	0.000000	6.112784	0.031480	NaN	0.000000	0.001588	0.001740	28.0794	0.038242	0.002114	18.0858	-132.551	12.7405	0.018720	0.111243	-1.022878	-1.024215	0.031480	18.0858	-1.024183	-4.799930E+13	-6.558427E-16	NaN
458	1.000000	0.122584	7.36954e+06	-54189.1	1005.82	-29744.2	0.000000	0.000000	6.122786	-0.025612	NaN	0.000000	0.001603	0.001729	28.0795	0.038422	0.002019	19.0336	93.1152	-165.457	-0.064755	0.121272	-1.012874	-1.014186	-0.025612	19.0336	-1.011865	-3.277014E+13	7.815735E-16	NaN
458	1.000000	0.132540	7.36954e+06	-54189.1	1005.82	-29744.2	0.000000	0.000000	6.132747	0.073727	NaN	0.000000	0.001579	0.001727	28.0795	0.029309	0.002094	13.9985	172.368	11.1833	0.068956	0.131208	-1.002917	-1.004250	0.073727	13.9985	-1.006867	-2.806847E+13	-2.626685E-15	NaN
458	1.000000	0.142588	7.36954e+06	-54189.1	1005.82	-29744.2	0.000000	0.000000	6.142791	-0.005340	NaN	0.000000	0.001593	0.001716	28.0793	0.033833	0.002001	16.9044	-34.477	-167.009	0.049938	0.141246	-0.992870	-0.994211	-0.005340	16.9044	-0.992633	-1.805398E+13	2.957797E-16	NaN
458	1.000000	0.152587	7.36954e+06	-54189.1	1005.82	-29744.2	0.000000	0.000000	6.152789	-0.022071	NaN	0.000000	0.001589	0.001722	28.0794	0.120866	0.001988	60.784	131.154	9.608301	-0.028869	0.151240	-0.982871	-0.984218	-0.022071	60.784	-0.982599	-1.322574E+13	1.668773E-15	NaN
458	1.000000	0.162578	7.36954e+06	-54189.1	1005.82	-29744.2	0.000000	0.000000	6.162781	0.007834	NaN	0.000000	0.001580	0.001745	28.0794	0.016949	0.002038	8.315477	-104.809	-166.867	-0.006041	0.161267	-0.972880	-0.974190	0.007834	8.315477	-0.973587	-9.999979E+12	-7.833817E-16	NaN
458	1.000000	0.172591	7.36954e+06	-54189.1	1005.82	-29744.2	0.000000	0.000000	6.172793	-0.026381	NaN	0.000000	0.001594	0.001700	28.0792	0.070320	0.001910	36.8222	1.122022	15.1983	0.038633	0.171223	-0.962867	-0.964235	-0.026381	36.8222	-0.962330	-7.051405E+12	3.741286E-15	NaN
458	1.000000	0.182619	7.36954e+06	-54189.1	1005.82	-29744.2	0.000000	0.000000	6.182822	0.002973	NaN	0.000000	0.001568	0.001721	28.0799	0.100072	0.001862	53.7334	50.6398	-163.455	-0.012808	0.181274	-0.952839	-0.954184	0.002973	53.7334	-0.952880	-5.258592E+12	-5.653978E-16	NaN
458	1.000000	0.192612	7.36954e+06	-54189.1	1005.82	-29744.2	0.000000	0.000000	6.192813	-0.071713	NaN	0.000000	0.001568	0.001714	28.0805	0.114545	0.001973	58.0566	109.45	14.0892	0.001898	0.191279	-0.942845	-0.944178	-0.071713	58.0566	-0.941919	-3.741330E+12	1.916774E-14	NaN
458	1.000000	0.202597	7.36954e+06	-54189.1	1005.82	-29744.2	0.000000	0.000000	6.202802	0.047393	NaN	0.000000	0.001577	0.001716	28.0804	0.054885	0.001975	27.7913	45.8538	-163.635	0.001567	0.201290	-0.932861	-0.934168	0.047393	27.7913	-0.934140	-2.938132E+12	-1.613015E-14	NaN
458	1.000000	0.212596	7.36954e+06	-54189.1	1005.82	-29744.2	0.000000	0.000000	6.212800	0.038744	NaN	0.000000	0.001579	0.001744	28.0804	0.038458	0.002061	18.6632	95.7693	16.7168	0.045114	0.211273	-0.922862	-0.924185	0.038744	18.6632	-0.924419	-2.172027E+12	-1.783767E-14	NaN
458	1.000000	0.222591	7.36954e+06	-54189.1	1005.82	-29744.2	0.000000	0.000000	6.222794	0.000288	NaN	0.000000	0.001595	0.001744	28.0804	0.090728	0.001976	45.9119	134.268	-164.479	0.020310	0.221299	-0.912867	-0.914159	0.000288	45.9119	-0.912872	-1.516882E+12	-1.898201E-16	NaN
458	1.000000	0.232602	7.36954e+06	-54189.1	1005.82	-29744.2	0.000000	0.000000	6.232806	0.009171	NaN	0.000000	0.001607	0.001708	28.0806	0.031698	0.001918	16.5293	161.354	17.2115	0.024929	0.231214	-0.902856	-0.904244	0.009171	16.5293	-0.903272	-1.125315E+12	-8.149633E-15	NaN
458	1.000000	0.242634	7.36954e+06	-54189.1	1005.82	-29744.2	0.000000	0.000000	6.242840	0.066731	NaN	0.000000	0.001590	0.001725	28.0804	0.042754	0.002177	19.6375	-159.981	-165.36	-0.005117	0.241316	-0.892824	-0.894142	0.066731	19.6375	-0.895372	-8.800976E+11	-7.582225E-14	NaN
458	1.000000	0.252632	7.36954e+06	-54189.1	1005.82	-29744.2	0.000000	0.000000	6.252833	-0.066345	NaN	0.000000	0.001605	0.001723	28.0803	0.056414	0.002000	28.2068	99.5147	17.7151	-0.041756	0.251291	-0.882826	-0.884167	-0.066345	28.2068	-0.881062	-5.637215E+11	1.176911E-13	NaN
458	1.000000	0.262662	7.36954e+06	-54189.1	1005.82	-29744.2	0.000000	0.000000	6.262866	0.030055	NaN	0.000000	0.001597	0.001744	28.0804	0.116479	0.002004	58.1152	-81.2226	-165.742	-0.091134	0.261302	-0.872796	-0.874155	0.030055	58.1152	-0.873184	-4.410762E+11	-6.813903E-14	NaN
458	1.000000	0.272633	7.36954e+06	-54189.1	1005.82	-29744.2	0.000000	0.000000	6.272837	0.007359	NaN	0.000000	0.001584	0.001726	28.0803	0.070581	0.001879	37.5551	74.8569	15.2339	0.004371	0.271293	-0.862825	-0.864165	0.007359	37.5551	-0.862972	-3.208782E+11	-2.293297E-14	NaN
458	1.000000	0.282616	7.36954e+06	-54189.1	1005.82	-29744.2	0.000000	0.000000	6.282821	0.030235	NaN	0.000000	0.001577	0.001770	28.0805	0.169207	0.001973	85.7689	109.37	-165.854	-0.006678	0.281335	-0.852841	-0.854123	0.030235	85.7689	-0.853106	-2.359350E+11	-1.281487E-13	NaN
458	1.000000	0.292618	7.36954e+06	-54189.1	1005.82	-29744.2	0.000000	0.000000	6.292822	0.024642	NaN	0.000000	0.001543	0.001799	28.0806	0.044884	0.001976	22.7137	40.4589	15.2765	0.009347	0.291277	-0.842840	-0.844180	0.024642	22.7137	-0.843654	-1.757053E+11	-1.402446E-13	NaN
458	1.000000	0.302638	7.36954e+06	-54189.1	1005.82	-29744.2	0.000000	0.000000	6.302842	0.009396	NaN	0.000000	0.001615	0.001699	28.0807	0.075077	0.002015	37.2552	4.511734	-163.666	0.027010	0.301336	-0.832819	-0.834121	0.009396	37.2552	-0.833009	-1.260547E+11	-7.454113E-14	NaN
458	1.000000	0.312659	7.36954e+06	-54189.1	1005.82	-29744.2	0.000000	0.000000	6.312859	-0.067634	NaN	0.000000	0.001585	0.001736	28.0806	0.040239	0.002045	19.6772	-34.2412	12.4659	-0.012245	0.311309	-0.822799	-0.824148	-0.067634	19.6772	-0.820221	-8.456854E+10	7.997582E-13	NaN
458	1.000000	0.322664	7.36954e+06	-54189.1	1005.82	-29744.2	0.000000	0.000000	6.322863	-0.103212	NaN	0.000000	0.001588	0.001762	28.0795	0.038270	0.001945	19.6717	-78.1697	-164.639	-0.078313	0.321372	-0.812793	-0.814085	-0.103212	19.6717	-0.808858	-5.930363E+10	1.740402E-12	NaN
458	1.000000	0.332660	7.36954e+06	-54189.1	1005.82	-29744.2	0.000000	0.000000	6.332864	0.023222	NaN	0.000000	0.001558	0.001752	28.0796	0.102013	0.001940	52.5843	-160.142	15.2531	0.080475	0.331314	-0.802798	-0.804144	0.023222	52.5843	-0.803129	-4.958357E+10	-4.683435E-13	NaN
458	1.000000	0.342640	7.36954e+06	-54189.1	1005.82	-29744.2	0.000000	0.000000	6.342845	0.037303	NaN	0.000000	0.001558	0.001703	28.0797	0.126344	0.001907	66.2416	107.069	-165.854	-0.016190	0.341383	-0.792817	-0.794075	0.037303	66.2416	-0.793240	-3.639811E+10	-1.024865E-12	NaN
458	1.000000	0.352674	7.36954e+06	-54189.1	1005.82	-29744.2	0.000000	0.000000	6.352875	-0.045945	NaN	0.000000	0.001581	0.001748	28.0795	0.037451	0.002003	18.6963	-26.7072	20.2643	-0.058308	0.351317	-0.782784	-0.784141	-0.045945	18.6963	-0.780941	-2.477490E+10	1.854491E-12	NaN
458	1.000000	0.362665	7.36954e+06	-54189.1	1005.82	-29744.2	0.000000	0.000000	6.362867	-0.037752	NaN	0.000000	0.001610	0.001758	28.0795	0.120614	0.002123	56.8122	-76.3517	-164.793	-0.068697	0.361391	-0.772793	-0.774067	-0.037752	56.8122	-0.772294	-1.890159E+10	1.997311E-12	NaN
458	1.000000	0.372692	7.36954e+06	-54189.1	1005.82	-29744.2	0.000000	0.000000	6.372896	0.014038	NaN	0.000000	0.001636	0.001765	28.0795	0.097178	0.002018	48.1523	71.9499	14.1808	-0.034295	0.371268	-0.762766	-0.764189	0.014038	48.1523	-0.762984	-1.412210E+10	-9.940168E-13	NaN
458	1.000000	0.382704	7.36954e+06	-54189.1	1005.82	-29744.2	0.000000	0.000000	6.382906	-0.033235	NaN	0.000000	0.001624	0.001747	28.0796	0.076871	0.002023	37.9924	-71.4859	-166.384	0.082393	0.381371	-0.752754	-0.754087	-0.033235	37.9924	-0.752098	-1.004086E+10	3.309971E-12	NaN
458	1.000000	0.392676	7.36954e+06	-54189.1	1005.82	-29744.2	0.000000	0.000000	6.392879	-0.008195	NaN	0.000000	0.001644	0.001724	28.0794	0.038596	0.001949	19.8033	-170.389	18.4355	0.018453	0.391359	-0.742781	-0.744099	-0.008195	19.8033	-0.742471	-7.425210E+9	1.103735E-12	NaN
458	1.000000	0.402715	7.36954e+06	-54189.1	1005.82	-29744.2	0.000000	0.000000	6.402915	-0.058478	NaN	0.000000	0.001596	0.001788	28.0795	0.052276	0.002028	25.7717	-44.7299	-168.358	-0.069838	0.401401	-0.732743	-0.734057	-0.058478	25.7717	-0.731041	-5.187984E+9	1.127175E-11	NaN
458	1.000000	0.412697	7.36954e+06	-54189.1	1005.82	-29744.2	0.000000	0.000000	6.412901	0.025513	NaN	0.000000	0.001613	0.001784	28.0794	0.034901	0.002005	17.4034	114.843	13.0057	-0.007804	0.411326	-0.722761	-0.724132	0.025513	17.4034	-0.723861	-4.141111E+9	-6.160800E-12	NaN
458	1.000000	0.422719	7.36954e+06	-54189.1	1005.82	-29744.2	0.000000	0.000000	6.422921	-0.013194	NaN	0.000000	0.001632	0.001743	28.0795	0.023417	0.001973	11.8701	173.493	-165.723	-0.030647	0.421401	-0.712739	-0.714056	-0.013194	11.8701	-0.711906	-2.844803E+9	4.637759E-12	NaN
458	1.000000	0.432732	7.36954e+06	-54189.1	1005.82	-29744.2	0.000000	0.000000	6.432934	-0.030022	NaN	0.000000	0.001630	0.001744	28.0794	0.143375	0.001866	76.8369	-3.260436	13.7447	-0.028330	0.431382	-0.702725	-0.704076	-0.030022	76.8369	-0.702432	-2.112249E+9	1.421318E-11	NaN
458	1.000000	0.442713	7.36954e+06	-54189.1	1005.82	-29744.2	0.000000	0.000000	6.442914	-0.035501	NaN	0.000000	0.001640	0.001705	28.0797	0.034815	0.001884	18.475	-131.099	-168.52	0.016653	0.441381	-0.692745	-0.694077	-0.035501	18.475	-0.691304	-1.488455E+9	2.385083E-11	NaN
458	1.000000	0.452717	7.36954e+06	-54189.1	1005.82	-29744.2	0.000000	0.000000	6.452919	-0.047112	NaN	0.000000	0.001571	0.001744	28.0795	0.112222	0.002032	55.2335	-99.1161	15.4719	-0.048946	0.451411	-0.682740	-0.684047	-0.047112	55.2335	-0.682101	-1.114121E+9	4.228584E-11	NaN
458	1.000000	0.462721	7.36954e+06	-54189.1	1005.82	-29744.2	0.000000	0.000000	6.462925	0.003258	NaN	0.000000	0.001597	0.001756	28.0807	0.117860	0.002073	56.8583	-119.899	-166.533	0.017948	0.461400	-0.672736	-0.674058	0.003258	56.8583	-0.672779	-8.306687E+8	-3.922428E-12	NaN
458	1.000000	0.472720	7.36954e+06	-54189.1	1005.82	-29744.2	0.000000	0.000000	6.472921	-0.045492	NaN	0.000000	0.001575	0.001798	28.081	0.036166	0.001752	20.639	118.276	15.6841	-0.009926	0.471370	-0.662738	-0.664088	-0.045492	20.639	-0.661085	-5.745541E+8	7.917869E-11	NaN
458	1.000000	0.482711	7.36954e+06	-54189.1	1005.82	-29744.2	0.000000	0.000000	6.482912	-0.055088	NaN	0.000000	0.001602	0.001806	28.0815	0.052140	0.002090	24.9507	11.0113	-161.36	0.034706	0.481415	-0.652747	-0.654042	-0.055088	24.9507	-0.651091	-4.191686E+8	1.314210E-10	NaN
458	1.000000	0.492778	7.36954e+06	-54189.1	1005.82	-29744.2	0.000000	0.000000	6.492981	-0.014022	NaN	0.000000	0.001606	0.001753	28.0809	0.071194	0.002055	34.6364	163.865	15.9232	-0.069848	0.491438	-0.642680	-0.644020	-0.014022	34.6364	-0.642376	-3.183383E+8	4.404643E-11	NaN
458	1.000000	0.502692	7.36954e+06	-54189.1	1005.82	-29744.2	0.000000	0.000000	6.502892	-0.075891	NaN	0.000000	0.001619	0.001765	28.0808	0.039964	0.002080	19.2102	138.257	-164.759	-0.136597	0.501433	-0.632766	-0.634024	-0.075891	19.2102	-0.629803	-2.139513E+8	3.547120E-10	NaN
458	1.000000	0.512748	7.36954e+06	-54189.1	1005.82	-29744.2	0.000000	0.000000	6.512953	0.047701	NaN	0.000000	0.001646	0.001767	28.081	0.072481	0.001961	36.9688	142.009	13.7642	0.092004	0.511342	-0.622709	-0.624115	0.047701	36.9688	-0.623677	-1.762664E+8	-2.706196E-10	NaN
458	1.000000	0.522750	7.36954e+06	-54189.1	1005.82	-29744.2	0.000000	0.000000	6.522950	-0.067406	NaN	0.000000	0.001598	0.001736	28.0807	0.035153	0.001985	17.7104	-130.799	-166.84	-0.038052	0.521450	-0.612708	-0.614008	-0.067406	17.7104	-0.609854	-1.137888E+8	5.923770E-10	NaN
458	1.000000	0.532756	7.36954e+06	-54189.1	1005.82	-29744.2	0.000000	0.000000	6.532959	0.010754	NaN	0.000000	0.001624	0.001721	28.081	0.084011	0.002062	40.743	-3.109662	10.9944	-0.020185	0.531390	-0.602702	-0.604068	0.010754	40.743	-0.602900	-9.128442E+7	-1.178056E-10	NaN
458	1.000000	0.542738	7.36954e+06	-54189.1	1005.82	-29744.2	0.000000	0.000000	6.542941	0.011426	NaN	0.000000	0.001583	0.001735	28.0806	0.120717	0.002079	58.0659	-156.846	-164.329	0.078025	0.541379	-0.592720	-0.594079	0.011426	58.0659	-0.592868	-6.640402E+7	-1.720662E-10	NaN
458	1.000000	0.552757	7.36954e+06	-54189.1	1005.82	-29744.2	0.000000	0.000000	6.552962	0.037891	NaN	0.000000	0.001595	0.001713	28.0807	0.033487	0.002000	16.7446	-10.8283	12.4675	-0.017741	0.551394	-0.582701	-0.584064	0.037891	16.7446	-0.584398	-5.074693E+7	-7.466577E-10	NaN
458	1.000000	0.562775	7.36954e+06	-54189.1	1005.82	-29744.2	0.000000	0.000000	6.562976	-0.032160	NaN	0.000000	0.001593	0.001771	28.0807	0.104430	0.002134	48.9359	38.347	-163.814	-0.011497	0.561469	-0.572683	-0.573989	-0.032160	48.9359	-0.572190	-3.442647E+7	9.341662E-10	NaN
458	1.000000	0.572739	7.36954e+06	-54189.1	1005.82	-29744.2	0.000000	0.000000	6.572942	-0.008022	NaN	0.000000	0.001555	0.001738	28.0808	0.081919	0.002028	40.399	100.273	15.7332	-0.025387	0.571339	-0.562719	-0.564119	-0.008022	40.399	-0.562570	-2.534663E+7	3.164754E-10	NaN
458	1.000000	0.582781	7.36954e+06	-54189.1	1005.82	-29744.2	0.000000	0.000000	6.582983	-0.011383	NaN	0.000000	0.001593	0.001804	28.0807	0.014632	0.001952	7.494450	-139.211	-163.108	-0.033303	0.581453	-0.552677	-0.554004	-0.011383	7.494450	-0.551538	-1.783435E+7	6.382391E-10	NaN
458	1.000000	0.592766	7.36954e+06	-54189.1	1005.82	-29744.2	0.000000	0.000000	6.592967	-0.047346	NaN	0.000000	0.001650	0.001760	28.0798	0.092823	0.002001	46.3954	-160.836	13.0744	-0.080241	0.591453	-0.542692	-0.544005	-0.047346	46.3954	-0.541927	-1.312424E+7	3.607521E-9	NaN
458	1.000000	0.602770	7.36954e+06	-54189.1	1005.82	-29744.2	0.000000	0.000000	6.602971	-0.050066	NaN	0.000000	0.001611	0.001755	28.0795	0.049001	0.002050	23.8981	-102.047	-161.506	-0.048378	0.601506	-0.532688	-0.533952	-0.050066	23.8981	-0.531117	-9.29143e+06	5.388417E-9	NaN
458	1.000000	0.612790	7.36954e+06	-54189.1	1005.82	-29744.2	0.000000	0.000000	6.612995	0.055741	NaN	0.000000	0.001620	0.001765	28.0796	0.028872	0.001983	14.5586	156.216	12.591	0.047927	0.611386	-0.522668	-0.524072	0.055741	14.5586	-0.525540	-7.77342e+06	-7.170759E-9	NaN
458	1.000000	0.622803	7.36954e+06	-54189.1	1005.82	-29744.2	0.000000	0.000000	6.623008	0.044954	NaN	0.000000	0.001684	0.001757	28.0797	0.071542	0.002115	33.8287	-110.156	-166.752	0.085304	0.621530	-0.512655	-0.513927	0.044954	33.8287	-0.513651	-5.312e+06	-8.462708E-9	NaN
458	1.000000	0.632806	7.36954e+06	-54189.1	1005.82	-29744.2	0.000000	0.000000	6.633007	-0.060242	NaN	0.000000	0.001699	0.001749	28.0795	0.019168	0.002018	9.498289	-46.4003	20.6134	-0.085891	0.631435	-0.502651	-0.504023	-0.060242	9.498289	-0.497895	-3.20362e+06	1.880443E-8	NaN
458	1.000000	0.642812	7.36954e+06	-54189.1	1005.82	-29744.2	0.000000	0.000000	6.643014	-0.032149	NaN	0.000000	0.001713	0.001735	28.0793	0.086030	0.002127	40.4508	138.229	-167.97	0.011208	0.641492	-0.492645	-0.493966	-0.032149	40.4508	-0.492049	-2.65475e+06	1.210993E-8	NaN
458	1.000000	0.652803	7.36954e+06	-54189.1	1005.82	-29744.2	0.000000	0.000000	6.653008	0.044189	NaN	0.000000	0.001735	0.001739	28.0795	0.021673	0.002020	10.7292	149.498	16.1698	0.040957	0.651408	-0.482655	-0.484050	0.044189	10.7292	-0.485744	-2.16717e+06	-2.039009E-8	NaN
458	1.000000	0.662823	7.36954e+06	-54189.1	1005.82	-29744.2	0.000000	0.000000	6.663024	-0.035818	NaN	0.000000	0.001701	0.001731	28.0796	0.054670	0.002074	26.3658	-118.276	-164.636	0.000679	0.661540	-0.472635	-0.473918	-0.035818	26.3658	-0.471616	-1.37427e+06	2.606303E-8	NaN
458	1.000000	0.672806	7.36954e+06	-54189.1	1005.82	-29744.2	0.000000	0.000000	6.673012	0.077818	NaN	0.000000	0.001659	0.001782	28.0795	0.090864	0.001926	47.1663	-27.4475	11.681	0.041025	0.671450	-0.462652	-0.464008	0.077818	47.1663	-0.463889	-1.07067e+06	-7.268211E-8	NaN
458	1.000000	0.682833	7.36954e+06	-54189.1	1005.82	-29744.2	0.000000	0.000000	6.683038	0.028011	NaN	0.000000	0.001648	0.001729	28.0793	0.044890	0.001908	23.5221	176.711	-166.183	0.030905	0.681523	-0.452624	-0.453934	0.028011	23.5221	-0.453518	-765350	-3.659905E-8	NaN
458	1.000000	0.692787	7.36954e+06	-54189.1	1005.82	-29744.2	0.000000	0.000000	6.692991	0.016625	NaN	0.000000	0.001616	0.001770	28.0795	0.062909	0.001906	32.9979	98.7836	13.8533	0.001056	0.691484	-0.442671	-0.443973	0.016625	32.9979	-0.443049	-544981	-3.050527E-8	NaN
458	1.000000	0.702819	7.36954e+06	-54189.1	1005.82	-29744.2	0.000000	0.000000	6.703018	-0.090244	NaN	0.000000	0.001651	0.001819	28.0792	0.105126	0.001970	53.3506	-147.309	-162.807	-0.056623	0.701537	-0.432639	-0.433921	-0.090244	53.3506	-0.431370	-372773	2.420879E-7	NaN
458	1.000000	0.712845	7.36954e+06	-54189.1	1005.82	-29744.2	0.000000	0.000000	6.713047	-0.034279	NaN	0.000000	0.001682	0.001753	28.0795	0.045669	0.001949	23.4319	118.569	13.7183	0.044548	0.711493	-0.422613	-0.423965	-0.034279	23.4319	-0.421515	-270335	1.268016E-7	NaN
458	1.000000	0.722810	7.36954e+06	-54189.1	1005.82	-29744.2	0.000000	0.000000	6.723013	-0.003146	NaN	0.000000	0.001646	0.001763	28.0793	0.089293	0.001965	45.4439	166.352	-166.031	-0.012235	0.721484	-0.412648	-0.413974	-0.003146	45.4439	-0.412596	-201976	1.557851E-8	NaN
458	1.000000	0.732834	7.36954e+06	-54189.1	1005.82	-29744.2	0.000000	0.000000	6.733036	-0.030946	NaN	0.000000	0.001664	0.001781	28.0806	0.053482	0.002138	25.0147	170.032	13.7312	-0.057562	0.731441	-0.402624	-0.404016	-0.030946	25.0147	-0.401696	-141310	2.189977E-7	NaN
458	1.000000	0.742823	7.36954e+06	-54189.1	1005.82	-29744.2	0.000000	0.000000	6.743025	-0.033262	NaN	0.000000	0.001597	0.001756	28.0805	0.084373	0.002039	41.3722	-6.248287	-167.535	0.029042	0.741587	-0.392635	-0.393871	-0.033262	41.3722	-0.392032	-102854	3.233891E-7	NaN
458	1.000000	0.752837	7.36954e+06	-54189.1	1005.82	-29744.2	0.000000	0.000000	6.753040	-0.015831	NaN	0.000000	0.001664	0.001763	28.0806	0.045696	0.002041	22.3927	-72.8704	14.6641	-0.015672	0.751511	-0.382621	-0.383947	-0.015831	22.3927	-0.382090	-74110.3	2.136170E-7	NaN
458	1.000000	0.762847	7.36954e+06	-54189.1	1005.82	-29744.2	0.000000	0.000000	6.763053	0.062141	NaN	0.000000	0.001613	0.001781	28.081	0.037028	0.001979	18.7069	100.033	-163.313	-0.031065	0.761482	-0.372611	-0.373975	0.062141	18.7069	-0.375102	-58821.5	-1.056440E-6	NaN
458	1.000000	0.772875	7.36954e+06	-54189.1	1005.82	-29744.2	0.000000	0.000000	6.773078	-0.000648	NaN	0.000000	0.001653	0.001751	28.0809	0.094897	0.002047	46.3504	22.3738	15.8478	-0.000359	0.771545	-0.362583	-0.363912	-0.000648	46.3504	-0.362573	-38816.5	1.670543E-8	NaN
458	1.000000	0.782843	7.36954e+06	-54189.1	1005.82	-29744.2	0.000000	0.000000	6.783043	-0.068631	NaN	0.000000	0.001638	0.001789	28.0807	0.023517	0.001913	12.2941	119.023	-164.626	-0.118559	0.781581	-0.352615	-0.353877	-0.068631	12.2941	-0.348428	-24220.6	2.833585E-6	NaN
458	1.000000	0.792839	7.36954e+06	-54189.1	1005.82	-29744.2	0.000000	0.000000	6.793043	0.003099	NaN	0.000000	0.001633	0.001770	28.0806	0.055328	0.001929	28.6867	162.517	15.0965	-0.084389	0.791488	-0.342618	-0.343970	0.003099	28.6867	-0.342699	-19993	-1.550249E-7	NaN
458	1.000000	0.802813	7.36954e+06	-54189.1	1005.82	-29744.2	0.000000	0.000000	6.803013	-0.080184	NaN	0.000000	0.001647	0.001763	28.0808	0.016711	0.002010	8.315749	48.9898	-164.321	-0.028053	0.801586	-0.332644	-0.333872	-0.080184	8.315749	-0.325412	-11173.6	7.176227E-6	NaN
458	1.000000	0.812865	7.36954e+06	-54189.1	1005.82	-29744.2	0.000000	0.000000	6.813068	-0.014789	NaN	0.000000	0.001614	0.001792	28.0805	0.117963	0.001981	59.5612	-158.363	12.9384	-0.000229	0.811487	-0.322593	-0.323971	-0.014789	59.5612	-0.322407	-10093.4	1.465258E-6	NaN
458	1.000000	0.822886	7.36954e+06	-54189.1	1005.82	-29744.2	0.000000	0.000000	6.823091	0.048564	NaN	0.000000	0.001656	0.001823	28.0805	0.114625	0.002112	54.2721	-100.969	-163.185	-0.033449	0.821598	-0.312572	-0.313860	0.048564	54.2721	-0.313243	-7396.2	-6.566051E-6	NaN
458	1.000000	0.832859	7.36954e+06	-54189.1	1005.82	-29744.2	0.000000	0.000000	6.833062	-0.020357	NaN	0.000000	0.001652	0.001815	28.0808	0.076772	0.002081	36.8857	111.911	17.1809	-0.070010	0.831516	-0.302598	-0.303942	-0.020357	36.8857	-0.302184	-5071.44	4.014051E-6	NaN
458	1.000000	0.842885	7.36954e+06	-54189.1	1005.82	-29744.2	0.000000	0.000000	6.843086	-0.060294	NaN	0.000000	0.001596	0.001783	28.0808	0.078647	0.001948	40.3649	-46.5331	-166.112	0.028763	0.841570	-0.292573	-0.293888	-0.060294	40.3649	-0.291452	-3507.91	1.718792E-5	NaN
458	1.000000	0.852858	7.36954e+06	-54189.1	1005.82	-29744.2	0.000000	0.000000	6.853061	-0.011281	NaN	0.000000	0.001615	0.001770	28.0808	0.066161	0.002005	32.9929	110.319	15.1746	-0.004316	0.851501	-0.282599	-0.283957	-0.011281	32.9929	-0.282343	-2560.28	4.406055E-6	NaN
458	1.000000	0.862890	7.36954e+06	-54189.1	1005.82	-29744.2	0.000000	0.000000	6.863091	-0.034953	NaN	0.000000	0.001588	0.001742	28.0809	0.091119	0.001976	46.1223	66.4213	-162.581	-0.020195	0.861596	-0.272568	-0.273862	-0.034953	46.1223	-0.272000	-1786.15	1.956885E-5	NaN
458	1.000000	0.872914	7.36954e+06	-54189.1	1005.82	-29744.2	0.000000	0.000000	6.873116	-0.030279	NaN	0.000000	0.001574	0.001752	28.0796	0.041697	0.002063	20.212	-172.545	15.9529	-0.075134	0.871481	-0.262544	-0.263977	-0.030279	20.212	-0.261420	-1232.17	2.457401E-5	NaN
458	1.000000	0.882905	7.36954e+06	-54189.1	1005.82	-29744.2	0.000000	0.000000	6.883107	-0.015217	NaN	0.000000	0.001624	0.001770	28.0796	0.176723	0.001743	101.374	-81.064	-164.973	-0.039486	0.881577	-0.252553	-0.253881	-0.015217	101.374	-0.252440	-896.735	1.696957E-5	NaN
458	1.000000	0.892900	7.36954e+06	-54189.1	1005.82	-29744.2	0.000000	0.000000	6.893101	-0.043641	NaN	0.000000	0.001618	0.001764	28.0794	0.035097	0.002004	17.51	-42.1561	14.0705	-0.021190	0.891514	-0.242558	-0.243944	-0.043641	17.51	-0.240689	-589.259	7.406016E-5	NaN
458	1.000000	0.902872	7.36954e+06	-54189.1	1005.82	-29744.2	0.000000	0.000000	6.903075	0.011060	NaN	0.000000	0.001570	0.001766	28.0798	0.055389	0.001951	28.3928	136.463	-165.241	-0.045265	0.901588	-0.232586	-0.233870	0.011060	28.3928	-0.232878	-444.518	-2.488090E-5	NaN
458	1.000000	0.912899	7.36954e+06	-54189.1	1005.82	-29744.2	0.000000	0.000000	6.913102	0.015001	NaN	0.000000	0.001604	0.001775	28.0795	0.045540	0.002111	21.5707	143.385	13.5536	0.002891	0.911508	-0.222559	-0.223950	0.015001	21.5707	-0.223081	-311.04	-4.822797E-5	NaN
458	1.000000	0.922926	7.36954e+06	-54189.1	1005.82	-29744.2	0.000000	0.000000	6.923131	0.047800	NaN	0.000000	0.001620	0.001737	28.0797	0.056015	0.002042	27.4328	41.5415	-167.386	0.093704	0.921556	-0.212532	-0.213902	0.047800	27.4328	-0.213839	-221.221	-0.000216	NaN
458	1.000000	0.932898	7.36954e+06	-54189.1	1005.82	-29744.2	0.000000	0.000000	6.933104	0.069113	NaN	0.000000	0.001558	0.001755	28.0792	0.059252	0.002135	27.7591	93.0231	12.7384	0.045330	0.931539	-0.202560	-0.203919	0.069113	27.7591	-0.204427	-155.673	-0.000444	NaN
458	1.000000	0.942894	7.36954e+06	-54189.1	1005.82	-29744.2	0.000000	0.000000	6.943096	-0.037913	NaN	0.000000	0.001513	0.001772	28.0799	0.060738	0.002027	29.9688	110.518	-165.088	-0.005710	0.941602	-0.192563	-0.193855	-0.037913	29.9688	-0.191615	-95.7116	0.000396	NaN
458	1.000000	0.952938	7.36954e+06	-54189.1	1005.82	-29744.2	0.000000	0.000000	6.953142	0.019623	NaN	0.000000	0.001546	0.001771	28.0795	0.043031	0.001962	21.93	167.131	15.6704	0.067940	0.951580	-0.182519	-0.183878	0.019623	21.93	-0.183190	-69.1164	-0.000284	NaN
458	1.000000	0.962901	7.36954e+06	-54189.1	1005.82	-29744.2	0.000000	0.000000	6.963102	-0.052300	NaN	0.000000	0.001549	0.001792	28.0797	0.065766	0.002100	31.3142	84.8161	-160.458	-0.009313	0.961675	-0.172557	-0.173783	-0.052300	31.3142	-0.171305	-43.2748	0.001209	NaN
458	1.000000	0.972933	7.36954e+06	-54189.1	1005.82	-29744.2	0.000000	0.000000	6.973135	-0.025752	NaN	0.000000	0.001552	0.001750	28.0797	0.027222	0.001962	13.8777	96.63	14.9001	-0.027652	0.971546	-0.162525	-0.163912	-0.025752	13.8777	-0.161133	-28.7143	0.000897	NaN
458	1.000000	0.982936	7.36954e+06	-54189.1	1005.82	-29744.2	0.000000	0.000000	6.983141	0.058191	NaN	0.000000	0.001554	0.001751	28.0797	0.099719	0.002031	49.1059	43.9781	-166.309	0.043095	0.981612	-0.152522	-0.153845	0.058191	49.1059	-0.153411	-20.8893	-0.002786	NaN
458	1.000000	0.992913	7.36954e+06	-54189.1	1005.82	-29744.2	0.000000	0.000000	6.993116	0.003824	NaN	0.000000	0.001521	0.001788	28.0798	0.028508	0.001951	14.612	51.5533	15.6973	-0.036148	0.991622	-0.142545	-0.143835	0.003824	14.612	-0.142741	-13.312	-0.000287	NaN
458	1.000000	1.002967	7.36954e+06	-54189.1	1005.82	-29744.2	0.000000	0.000000	7.003168	-0.055027	NaN	0.000000	0.001524	0.001758	28.0809	0.075498	0.001887	40	50.2756	-168.888	-0.050440	1.001659	-0.132491	-0.133799	-0.055027	40	-0.131459	-8.133486	0.006766	NaN
458	1.000000	1.012923	7.36954e+06	-54189.1	1005.82	-29744.2	0.000000	0.000000	7.013129	0.091983	NaN	0.000000	0.001533	0.001767	28.0812	0.073914	0.001933	38.2407	-90.0512	14.6956	0.037670	1.011579	-0.122535	-0.123879	0.091983	38.2407	-0.124339	-5.900686	-0.015589	NaN
458	1.000000	1.022965	7.36954e+06	-54189.1	1005.82	-29744.2	0.000000	0.000000	7.023169	0.016551	NaN	0.000000	0.001529	0.001785	28.081	0.020529	0.002016	10.1818	-59.3122	-168.989	-0.023497	1.021615	-0.112493	-0.113843	0.016551	10.1818	-0.113712	-3.593175	-0.004606	NaN
458	1.000000	1.032923	7.36954e+06	-54189.1	1005.82	-29744.2	0.000000	0.000000	7.033127	0.041814	NaN	0.000000	0.001534	0.001751	28.081	0.056827	0.002092	27.1631	107.639	16.9244	0.072701	1.031605	-0.102535	-0.103853	0.041814	27.1631	-0.103690	-2.201791	-0.018991	NaN
458	1.000000	1.042948	7.36954e+06	-54189.1	1005.82	-29744.2	0.000000	0.000000	7.043151	0.014832	NaN	0.000000	0.001530	0.001775	28.0809	0.070245	0.002038	34.4617	132.139	-162.462	-0.018239	1.041635	-0.092510	-0.093823	0.014832	34.4617	-0.092833	-1.258131	-0.011789	NaN
458	1.000000	1.052939	7.36954e+06	-54189.1	1005.82	-29744.2	0.000000	0.000000	7.053142	0.010757	NaN	0.000000	0.001545	0.001744	28.0809	0.097737	0.002047	47.7449	-121.275	17.9881	-0.089300	1.051616	-0.082519	-0.083841	0.010757	47.7449	-0.082688	-0.721610	-0.014907	NaN
458	1.000000	1.062985	7.36954e+06	-54189.1	1005.82	-29744.2	0.000000	0.000000	7.063186	-0.057541	NaN	0.000000	0.001555	0.001755	28.081	0.179552	0.001868	96.1432	83.1369	-162.987	-0.101455	1.061644	-0.072473	-0.073813	-0.057541	96.1432	-0.072024	-0.386118	0.149024	NaN
458	1.000000	1.072938	7.36954e+06	-54189.1	1005.82	-29744.2	0.000000	0.000000	7.073141	-0.015225	NaN	0.000000	0.001566	0.001759	28.0807	0.054252	0.002032	26.7051	-142.917	16.286	0.004275	1.071656	-0.062519	-0.063801	-0.015225	26.7051	-0.062092	-0.206583	0.073699	NaN
458	1.000000	1.082953	7.36954e+06	-54189.1	1005.82	-29744.2	0.000000	0.000000	7.083155	-0.034478	NaN	0.000000	0.001549	0.001717	28.081	0.031051	0.001948	15.9418	105.812	-164.111	-0.051195	1.081610	-0.052504	-0.053847	-0.034478	15.9418	-0.050882	-0.097023	0.355363	NaN
458	1.000000	1.092978	7.36954e+06	-54189.1	1005.82	-29744.2	0.000000	0.000000	7.093181	0.001927	NaN	0.000000	0.001583	0.001755	28.0808	0.041837	0.002046	20.447	-150.88	15.3259	0.030631	1.091660	-0.042480	-0.043798	0.001927	20.447	-0.042551	-0.054088	-0.035632	NaN
458	1.000000	1.103006	7.36954e+06	-54189.1	1005.82	-29744.2	0.000000	0.000000	7.103208	-0.014054	NaN	0.000000	0.001604	0.001763	28.0808	0.071360	0.002024	35.2538	37.985	-167.247	0.014406	1.101654	-0.032452	-0.033804	-0.014054	35.2538	-0.032153	-0.026472	0.530912	NaN
458	1.000000	1.112964	7.36954e+06	-54189.1	1005.82	-29744.2	0.000000	0.000000	7.113165	-0.048508	NaN	0.000000	0.001551	0.001775	28.0806	0.098469	0.002228	44.1885	-127.353	13.269	-0.011111	1.111659	-0.022494	-0.023798	-0.048508	44.1885	-0.021670	-0.013851	3.502179	NaN
458	1.000000	1.122997	7.36954e+06	-54189.1	1005.82	-29744.2	0.000000	0.000000	7.123198	-0.045665	NaN	0.000000	0.001535	0.001768	28.0808	0.064812	0.001956	33.1385	-129.718	-166.686	-0.012332	1.121705	-0.012461	-0.013753	-0.045665	33.1385	-0.011427	-0.007202	6.340838	NaN
458	1.000000	1.132995	7.36954e+06	-54189.1	1005.82	-29744.2	0.000000	0.000000	7.133198	0.001755	NaN	0.000000	0.001528	0.001739	28.0845	0.135037	0.001950	69.266	-166.006	14.5611	-0.120158	1.131643	-0.002463	-0.003814	0.001755	69.266	-0.002482	-0.001771	-0.991040	NaN
458	1.000000	1.142893	7.36954e+06	-54189.1	1005.82	-29744.2	0.000000	0.000000	7.143409	7.596476	NaN	0.000000	0.001535	0.001759	28.0803	7.845298	0.001503	5220.27	11.2229	-174.594	6.628329	1.141644	0.007435	0.006186	7.596476	5220.27	0.006344	0.005394	1408.4	64941.6
458	2.000000	1.146072	7.36954e+06	-54189.1	1005.82	-29744.2	0.000000	0.000000	7.146816	13.1602	NaN	0.000000	0.001583	0.001748	28.0812	11.4864	0.001635	7027.29	-0.707050	12.7785	12.4828	1.145736	0.010614	0.010278	13.1602	7027.29	0.009210	0.008316	1582.44	70403.5
458	2.000000	1.148538	7.36954e+06	-54189.1	1005.82	-29744.2	0.000000	0.000000	7.149376	15.4381	NaN	0.000000	0.001536	0.001772	28.0799	14.4228	0.001831	7875.29	4.882560	-172.509	14.3166	1.148162	0.013080	0.012704	15.4381	7875.29	0.011610	0.011026	1400.14	68521.8
458	2.000000	1.151057	7.36954e+06	-54189.1	1005.82	-29744.2	0.000000	0.000000	7.152139	21.3607	NaN	0.000000	0.001553	0.001747	28.0799	16.9805	0.001831	9275.67	6.332824	4.273251	19.1782	1.150673	0.015600	0.015216	21.3607	9275.67	0.013873	0.013811	1546.62	72111.1
458	2.000000	1.153543	7.36954e+06	-54189.1	1005.82	-29744.2	0.000000	0.000000	7.154819	26.096	NaN	0.000000	0.001584	0.001783	28.0795	18.7642	0.001894	9907.71	5.512423	-174.262	25.8882	1.153206	0.018085	0.017748	26.096	9907.71	0.016109	0.016793	1553.95	69851.8
458	2.000000	1.155999	7.36954e+06	-54189.1	1005.82	-29744.2	0.000000	0.000000	7.157453	30.4246	NaN	0.000000	0.001561	0.001771	28.0801	21.5157	0.001888	11393.9	7.288985	1.400451	28.9748	1.155570	0.020541	0.020112	30.4246	11393.9	0.018538	0.020297	1498.94	73067.8
458	2.000000	1.158533	7.36954e+06	-54189.1	1005.82	-29744.2	0.000000	0.000000	7.160193	35.4099	NaN	0.000000	0.001601	0.001777	28.0796	23.848	0.001863	12803	6.827897	-179.095	35.5475	1.158196	0.023075	0.022738	35.4099	12803	0.021001	0.024140	1466.87	75286.9
458	2.000000	1.161009	7.36954e+06	-54189.1	1005.82	-29744.2	0.000000	0.000000	7.163170	47.6108	NaN	0.000000	0.001618	0.001749	28.0796	25.5855	0.001799	14220.3	4.579783	3.809495	46.0839	1.160605	0.025551	0.025147	47.6108	14220.3	0.023040	0.027546	1728.42	78280.5
458	2.000000	1.163494	7.36954e+06	-54189.1	1005.82	-29744.2	0.000000	0.000000	7.165714	49.0372	NaN	0.000000	0.001578	0.001761	28.0795	27.8729	0.001856	15017.9	7.092106	-179.206	49.3624	1.163164	0.028036	0.027706	49.0372	15017.9	0.025587	0.032093	1528	76591.6
458	2.000000	1.165952	7.36954e+06	-54189.1	1005.82	-29744.2	0.000000	0.000000	7.168672	61.1851	NaN	0.000000	0.001564	0.001774	28.0806	29.6013	0.001698	17429.1	6.490876	-1.679678	57.8062	1.165560	0.030494	0.030102	61.1851	17429.1	0.027861	0.036428	1679.64	83432.1
458	2.000000	1.168480	7.36954e+06	-54189.1	1005.82	-29744.2	0.000000	0.000000	7.171343	64.6671	NaN	0.000000	0.001596	0.001772	28.0794	32.2706	0.001711	18861.2	2.925819	-178.521	64.0723	1.168182	0.033022	0.032724	64.6671	18861.2	0.030451	0.041683	1551.4	84404
458	2.000000	1.171009	7.36954e+06	-54189.1	1005.82	-29744.2	0.000000	0.000000	7.174217	73.0681	NaN	0.000000	0.001551	0.001783	28.0805	34.9154	0.001753	19912.8	6.518175	-2.152465	71.4532	1.170602	0.035551	0.035145	73.0681	19912.8	0.032799	0.046745	1563.12	84147
458	2.000000	1.173455	7.36954e+06	-54189.1	1005.82	-29744.2	0.000000	0.000000	7.176968	80.4574	NaN	0.000000	0.001581	0.001795	28.0796	38.0215	0.001811	20991.2	4.748389	179.453	80.6752	1.173218	0.037998	0.037761	80.4574	20991.2	0.035123	0.052033	1546.29	84076.1
458	2.000000	1.175957	7.36954e+06	-54189.1	1005.82	-29744.2	0.000000	0.000000	7.179847	89.6167	NaN	0.000000	0.001572	0.001789	28.0813	40.4151	0.001923	21012.6	6.654372	-1.563604	87.5932	1.175586	0.040499	0.040128	89.6167	21012.6	0.037301	0.057239	1565.67	80243.2
458	2.000000	1.178418	7.36954e+06	-54189.1	1005.82	-29744.2	0.000000	0.000000	7.182761	100.649	NaN	0.000000	0.001580	0.001786	28.0821	42.5953	0.001791	23784.6	4.921088	178.02	99.0897	1.178154	0.042960	0.042696	100.649	23784.6	0.039786	0.063477	1585.59	86250.2
458	2.000000	1.180979	7.36954e+06	-54189.1	1005.82	-29744.2	0.000000	0.000000	7.185634	108.231	NaN	0.000000	0.001537	0.001760	28.0811	45.1762	0.001792	25208.3	9.284473	-6.866559	107.129	1.180691	0.045522	0.045233	108.231	25208.3	0.042301	0.070111	1543.7	86980.5
458	2.000000	1.183424	7.36954e+06	-54189.1	1005.82	-29744.2	0.000000	0.000000	7.188431	116.798	NaN	0.000000	0.001609	0.001796	28.081	47.005	0.001805	26042.4	6.359322	174.864	115.136	1.183195	0.047966	0.047737	116.798	26042.4	0.044602	0.076463	1527.51	86045.7
458	2.000000	1.185961	7.36954e+06	-54189.1	1005.82	-29744.2	0.000000	0.000000	7.191474	129.079	NaN	0.000000	0.001590	0.001772	28.0819	49.5964	0.001800	27546.8	4.573085	-3.168789	127.983	1.185593	0.050503	0.050135	129.079	27546.8	0.046989	0.083334	1548.93	87183.2
458	2.000000	1.188470	7.36954e+06	-54189.1	1005.82	-29744.2	0.000000	0.000000	7.194356	138.163	NaN	0.000000	0.001625	0.001742	28.0808	52.8845	0.001765	29966.6	8.112870	171.992	139.927	1.188141	0.053012	0.052683	138.163	29966.6	0.049554	0.091039	1517.62	90739.5
458	2.000000	1.190946	7.36954e+06	-54189.1	1005.82	-29744.2	0.000000	0.000000	7.197536	155.267	NaN	0.000000	0.001584	0.001769	28.0811	54.2862	0.001922	28248.9	5.594972	-3.668223	151.561	1.190486	0.055488	0.055028	155.267	28248.9	0.051366	0.096683	1605.95	83004.4
458	2.000000	1.193509	7.36954e+06	-54189.1	1005.82	-29744.2	0.000000	0.000000	7.200047	153.992	NaN	0.000000	0.001582	0.001787	28.0809	55.5709	0.001802	30843.9	0.310678	179.961	154.086	1.193197	0.058051	0.057740	153.992	30843.9	0.054307	0.106189	1450.17	86477.4
458	2.000000	1.195923	7.36954e+06	-54189.1	1005.82	-29744.2	0.000000	0.000000	7.203328	175.086	NaN	0.000000	0.001577	0.001751	28.0811	58.3838	0.001851	31547.5	3.067680	-2.224827	172.942	1.195575	0.060465	0.060117	175.086	31547.5	0.056303	0.112885	1551	85786.5
458	2.000000	1.198439	7.36954e+06	-54189.1	1005.82	-29744.2	0.000000	0.000000	7.206316	186.561	NaN	0.000000	0.001642	0.001726	28.0809	61.7354	0.001816	33994.9	4.463506	175.379	186.813	1.198101	0.062981	0.062643	186.561	33994.9	0.058865	0.121770	1532.08	89005.6
458	2.000000	1.200949	7.36954e+06	-54189.1	1005.82	-29744.2	0.000000	0.000000	7.209052	192.069	NaN	0.000000	0.001555	0.001763	28.0808	63.6117	0.001829	34780.4	6.465929	-7.021167	191.421	1.200746	0.065491	0.065288	192.069	34780.4	0.061349	0.130690	1469.65	87899.4
458	2.000000	1.203390	7.36954e+06	-54189.1	1005.82	-29744.2	0.000000	0.000000	7.212504	216.621	NaN	0.000000	0.001569	0.001739	28.0811	64.4765	0.001632	39499.8	5.126394	173.453	214.673	1.203052	0.067932	0.067594	216.621	39499.8	0.063819	0.139859	1548.85	96498.9
458	2.000000	1.205960	7.36954e+06	-54189.1	1005.82	-29744.2	0.000000	0.000000	7.215582	228.98	NaN	0.000000	0.001647	0.001758	28.0809	67.6152	0.001649	41004.8	8.225661	-9.839007	228.311	1.205487	0.070502	0.070029	228.98	41004.8	0.066314	0.149417	1532.49	96918.7
458	2.000000	1.208420	7.36954e+06	-54189.1	1005.82	-29744.2	0.000000	0.000000	7.218461	239.163	NaN	0.000000	0.001628	0.001736	28.081	70.9764	0.001847	38417.9	0.964274	178.144	236.968	1.208202	0.072963	0.072745	239.163	38417.9	0.068294	0.157216	1521.24	88523.5
458	2.000000	1.210837	7.36954e+06	-54189.1	1005.82	-29744.2	0.000000	0.000000	7.221665	258.299	NaN	0.000000	0.001605	0.001771	28.0798	72.9083	0.001747	41738.9	5.494699	-6.773030	251.149	1.210456	0.075379	0.074999	258.299	41738.9	0.070738	0.167102	1545.76	93287.5
458	2.000000	1.213405	7.36954e+06	-54189.1	1005.82	-29744.2	0.000000	0.000000	7.224542	265.818	NaN	0.000000	0.001576	0.001796	28.08	74.612	0.001834	40692.5	1.276525	176.875	265.65	1.213097	0.077947	0.077640	265.818	40692.5	0.073048	0.176708	1504.28	88442.3
458	2.000000	1.215873	7.36954e+06	-54189.1	1005.82	-29744.2	0.000000	0.000000	7.228077	291.743	NaN	0.000000	0.001628	0.001796	28.0798	77.3428	0.001750	44195	8.299990	-10.5223	288.036	1.215459	0.080415	0.080001	291.743	44195	0.075464	0.187024	1559.92	93368
458	2.000000	1.218494	7.36954e+06	-54189.1	1005.82	-29744.2	0.000000	0.000000	7.230961	298.136	NaN	0.000000	0.001678	0.001775	28.0798	80.7882	0.001848	43711.4	7.238555	170.767	302.661	1.218172	0.083036	0.082714	298.136	43711.4	0.077921	0.197793	1507.31	89797.1
458	2.000000	1.220925	7.36954e+06	-54189.1	1005.82	-29744.2	0.000000	0.000000	7.234443	323.708	NaN	0.000000	0.001661	0.001792	28.0796	80.902	0.001745	46366.9	5.286612	-6.652611	320.087	1.220488	0.085467	0.085030	323.708	46366.9	0.080231	0.208179	1554.95	92845.8
458	2.000000	1.223385	7.36954e+06	-54189.1	1005.82	-29744.2	0.000000	0.000000	7.237159	329.913	NaN	0.000000	0.001657	0.001798	28.0798	82.782	0.001827	45314.5	3.991566	173.796	327.217	1.223146	0.087927	0.087689	329.913	45314.5	0.082467	0.218466	1510.13	88576.4
458	2.000000	1.225871	7.36954e+06	-54189.1	1005.82	-29744.2	0.000000	0.000000	7.240680	355.065	NaN	0.000000	0.001690	0.001745	28.0797	85.6725	0.001817	47159.1	6.643461	-8.876810	351.2	1.225482	0.090414	0.090025	355.065	47159.1	0.084767	0.229290	1548.54	89980
458	2.000000	1.228431	7.36954e+06	-54189.1	1005.82	-29744.2	0.000000	0.000000	7.243788	368.395	NaN	0.000000	0.001657	0.001803	28.0803	88.6314	0.001774	49975.1	5.329901	171.93	371.452	1.228151	0.092973	0.092694	368.395	49975.1	0.087445	0.242201	1521.03	92776.6
458	2.000000	1.230997	7.36954e+06	-54189.1	1005.82	-29744.2	0.000000	0.000000	7.247093	386.375	NaN	0.000000	0.001693	0.001787	28.0797	90.6723	0.001888	48023.3	7.244050	-9.241309	387.435	1.230479	0.095539	0.095022	386.375	48023.3	0.089505	0.252359	1531.05	87340.5
458	2.000000	1.233402	7.36954e+06	-54189.1	1005.82	-29744.2	0.000000	0.000000	7.250195	403.311	NaN	0.000000	0.001675	0.001749	28.0797	91.6887	0.001812	50613.6	2.961786	174.03	401.138	1.233041	0.097944	0.097584	403.311	50613.6	0.091968	0.264759	1523.32	89870.1
458	2.000000	1.235992	7.36954e+06	-54189.1	1005.82	-29744.2	0.000000	0.000000	7.253606	423.258	NaN	0.000000	0.001622	0.001790	28.0797	95.4145	0.001784	53477.2	8.622496	-11.4023	425.794	1.235434	0.100535	0.099976	423.258	53477.2	0.094599	0.278309	1520.82	92614.4
458	2.000000	1.238413	7.36954e+06	-54189.1	1005.82	-29744.2	0.000000	0.000000	7.256748	440.798	NaN	0.000000	0.001625	0.001781	28.0799	97.7975	0.001895	51616.7	5.334200	171.742	442.886	1.238166	0.102956	0.102708	440.798	51616.7	0.096551	0.288567	1527.54	87788.9
458	2.000000	1.241017	7.36954e+06	-54189.1	1005.82	-29744.2	0.000000	0.000000	7.260508	468.897	NaN	0.000000	0.001618	0.001774	28.0798	98.7477	0.001775	55620.7	5.142691	-8.091745	471.494	1.240454	0.105559	0.104996	468.897	55620.7	0.099237	0.302966	1547.69	92323.6
458	2.000000	1.242413	7.36954e+06	-54189.1	1005.82	-29744.2	0.000000	0.000000	7.262263	477.631	NaN	0.000000	0.001582	0.001791	28.0795	99.4332	0.001845	53896.4	3.206464	173.884	478.327	1.242073	0.106955	0.106615	477.631	53896.4	0.100308	0.308804	1546.71	88611.7